File: txt/14380_R229_UA592_SOC00_C01.mpt
EC-Lab ASCII FILE
Nb header lines : 63

Potentio Electrochemical Impedance Spectroscopy

Run on channel : 1 (SN 66354)
User :
CE vs. WE compliance from -10 V to 10 V
Electrode connection : standard
Potential control : Ewe
Ewe ctrl range : min = -10.00 V, max = 10.00 V
Safety Limits :
	Do not start on E overload
Acquisition started on : 09/15/2025 10:21:49.411
Loaded Setting File :  C:\Users\Celltest\OneDrive - store-dot.com\Documents\EC-Lab\Data\Gyutae\EIS_SOC0_C01.mpr
Saved on :
	File : 14380_R229-G1, Nb2O5 30% blending_C01.mpr
	Directory : C:\Users\Celltest\OneDrive - store-dot.com\Documents\EC-Lab\Data\Gyutae\
	Host : 169.254.61.224
Device : VMP-3e (SN .003165)
Address : USB
EC-LAB for windows v11.62 (software)
Internet server v27.00 (firmware)
Command interpretor v12.03 (firmware)
Electrode material :
Initial state :
Electrolyte :
Comments :
Electrode surface area : 0.001 cm²
Characteristic mass : 0.001 g
Equivalent Weight : 0.000 g/eq.
Density : 0.000 g/cm3
Volume (V) : 0.001 cm³
Cycle Definition : Charge/Discharge alternance
Mode                Single sine
E (V)               0.0000
vs.                 Eoc
tE (h:m:s)          0:00:0.0000
record              0
dI                  0.000
unit dI             mA
dt (s)              0.000
fi                  100.000
unit fi             kHz
ff                  10.000
unit ff             mHz
Nd                  6
Points              per decade
spacing             Logarithmic
Va (mV)             5.0
pw                  0.10
Na                  2
corr                0
E range min (V)     -10.000
E range max (V)     10.000
I Range             Auto
Bandwidth           5
nc cycles           0
goto Ns'            0
nr cycles           0
inc. cycle          0

freq/Hz	Re(Z)/Ohm	-Im(Z)/Ohm	|Z|/Ohm	Phase(Z)/deg	time/s	<Ewe>/V	<I>/mA	Cs/µF	Cp/µF	cycle number	I Range	|Ewe|/V	|I|/A	Ns	(Q-Qo)/mA.h	Re(Y)/Ohm-1	Im(Y)/Ohm-1	|Y|/Ohm-1	Phase(Y)/deg	Re(C)/nF	Im(C)/nF	|C|/nF	Phase(C)/deg	Re(M)	Im(M)	|M|	Phase(M)/deg	Re(Permittivity)	Im(Permittivity)	|Permittivity|	Phase(Permittivity)/deg	Re(Resistivity)/Ohm.cm	Im(Resistivity)/Ohm.cm	|Resistivity|/Ohm.cm	Phase(Resistivity)/deg	Re(Conductivity)/mS/cm	Im(Conductivity)/mS/cm	|Conductivity|/mS/cm	Phase(Conductivity)/deg	Tan(Delta)	Loss Angle(Delta)/deg	dq/mA.h	Pwe/W	Rwe/Ohm
100004	1.17054	0.267716	1.20077	-12.8826	2.06747	0.366419	0.0742806	5.94469	0.295502	1	9	0.00474828	0.00395437	0	5.03186e-06	0.811837	0.185676	0.8328	12.8826	295.502	1292.03	1325.39	-77.1174	0.0000000E+000	0.0000000E+000	0.0000000E+000	77.1174	0.0000000E+000	0.0000000E+000	0.0000000E+000	-77.1174	0.0000000E+000	0.0000000E+000	0.0000000E+000	-12.8826	0.0000000E+000	0.0000000E+000	0.0000000E+000	12.8826	4.37233	77.1174	5.03186e-06	2.72179e-05	4932.91
68132	1.2356	0.301083	1.27176	-13.6946	2.64549	0.366423	0.077708	7.75858	0.434858	1	9	0.00504599	0.00396774	0	2.04385e-05	0.763961	0.186157	0.786314	13.6946	434.858	1784.6	1836.81	-76.3054	0.0000000E+000	0.0000000E+000	0.0000000E+000	76.3054	0.0000000E+000	0.0000000E+000	0.0000000E+000	-76.3054	0.0000000E+000	0.0000000E+000	0.0000000E+000	-13.6946	0.0000000E+000	0.0000000E+000	0.0000000E+000	13.6946	4.10385	76.3054	1.54066e-05	2.8474e-05	4715.39
46420.4	1.30772	0.336025	1.3502	-14.4106	3.22348	0.366425	0.0761619	10.2033	0.631953	1	9	0.00501566	0.00371475	0	3.84555e-05	0.717327	0.18432	0.74063	14.4106	631.953	2459.4	2539.29	-75.5894	0.0000000E+000	0.0000000E+000	0.0000000E+000	75.5894	0.0000000E+000	0.0000000E+000	0.0000000E+000	-75.5894	0.0000000E+000	0.0000000E+000	0.0000000E+000	-14.4106	0.0000000E+000	0.0000000E+000	0.0000000E+000	14.4106	3.89174	75.5894	1.8017e-05	2.79076e-05	4811.13
31621.1	1.38419	0.383935	1.43645	-15.5026	3.80149	0.366423	0.069065	13.1094	0.93653	1	9	0.00507907	0.00353585	0	3.76315e-05	0.670835	0.186071	0.696162	15.5026	936.53	3376.43	3503.91	-74.4974	0.0000000E+000	0.0000000E+000	0.0000000E+000	74.4974	0.0000000E+000	0.0000000E+000	0.0000000E+000	-74.4974	0.0000000E+000	0.0000000E+000	0.0000000E+000	-15.5026	0.0000000E+000	0.0000000E+000	0.0000000E+000	15.5026	3.60526	74.4974	-8.23949e-07	2.5307e-05	5305.48
21544.7	1.47166	0.438173	1.5355	-16.5804	4.23849	0.366422	0.0738708	16.8591	1.37285	1	9	0.00524529	0.00341601	0	4.28481e-05	0.624173	0.185842	0.651252	16.5804	1372.85	4610.89	4810.93	-73.4196	0.0000000E+000	0.0000000E+000	0.0000000E+000	73.4196	0.0000000E+000	0.0000000E+000	0.0000000E+000	-73.4196	0.0000000E+000	0.0000000E+000	0.0000000E+000	-16.5804	0.0000000E+000	0.0000000E+000	0.0000000E+000	16.5804	3.35862	73.4196	5.2165e-06	2.70679e-05	4960.31
14678.6	1.57574	0.495972	1.65195	-17.4717	4.67548	0.366419	0.0721198	21.8614	1.9706	1	9	0.0049489	0.00299579	0	5.27694e-05	0.577418	0.181745	0.605345	17.4717	1970.6	6260.74	6563.55	-72.5284	0.0000000E+000	0.0000000E+000	0.0000000E+000	72.5284	0.0000000E+000	0.0000000E+000	0.0000000E+000	-72.5284	0.0000000E+000	0.0000000E+000	0.0000000E+000	-17.4717	0.0000000E+000	0.0000000E+000	0.0000000E+000	17.4717	3.17708	72.5284	9.92135e-06	2.64261e-05	5080.69
10002.2	1.67815	0.565794	1.77096	-18.6317	5.1125	0.366418	0.0717845	28.1232	2.87055	1	9	0.00490403	0.00276914	0	6.11669e-05	0.535072	0.180402	0.564666	18.6317	2870.55	8514.05	8984.93	-71.3683	0.0000000E+000	0.0000000E+000	0.0000000E+000	71.3683	0.0000000E+000	0.0000000E+000	0.0000000E+000	-71.3683	0.0000000E+000	0.0000000E+000	0.0000000E+000	-18.6317	0.0000000E+000	0.0000000E+000	0.0000000E+000	18.6317	2.966	71.3683	8.39751e-06	2.63031e-05	5104.41
6811.07	1.81559	0.657793	1.93108	-19.9156	5.4905	0.366183	-0.0632066	35.5235	4.12187	1	9	0.0046184	0.00239162	0	5.49337e-05	0.486876	0.176396	0.517845	19.9156	4121.87	11376.9	12100.5	-70.0844	0.0000000E+000	0.0000000E+000	0.0000000E+000	70.0844	0.0000000E+000	0.0000000E+000	0.0000000E+000	-70.0844	0.0000000E+000	0.0000000E+000	0.0000000E+000	-19.9156	0.0000000E+000	0.0000000E+000	0.0000000E+000	19.9156	2.76013	70.0844	-6.23324e-06	-2.31452e-05	5793.44
4641.49	1.95738	0.759028	2.09939	-21.1952	6.18469	0.366399	0.10373	45.1757	5.90518	1	9	0.00485776	0.00231389	0	7.21061e-05	0.444106	0.172215	0.476328	21.1952	5905.18	15228.2	16333.1	-68.8048	0.0000000E+000	0.0000000E+000	0.0000000E+000	68.8048	0.0000000E+000	0.0000000E+000	0.0000000E+000	-68.8048	0.0000000E+000	0.0000000E+000	0.0000000E+000	-21.1952	0.0000000E+000	0.0000000E+000	0.0000000E+000	21.1952	2.5788	68.8048	1.71724e-05	3.80066e-05	3532.23
3161.01	2.12491	0.878101	2.2992	-22.4525	6.65167	0.366406	0.105127	57.3389	8.36348	1	9	0.00478239	0.00208003	0	8.5869e-05	0.401965	0.166109	0.434935	22.4525	8363.48	20238.7	21898.7	-67.5475	0.0000000E+000	0.0000000E+000	0.0000000E+000	67.5475	0.0000000E+000	0.0000000E+000	0.0000000E+000	-67.5475	0.0000000E+000	0.0000000E+000	0.0000000E+000	-22.4525	0.0000000E+000	0.0000000E+000	0.0000000E+000	22.4525	2.41989	67.5475	1.37629e-05	3.85192e-05	3485.36
2155.69	2.29487	1.01874	2.51083	-23.9376	7.11868	0.366408	0.106934	72.4717	11.9307	1	9	0.0047464	0.00189037	0	9.82385e-05	0.364019	0.161596	0.398275	23.9376	11930.7	26875.6	29404.7	-66.0625	0.0000000E+000	0.0000000E+000	0.0000000E+000	66.0625	0.0000000E+000	0.0000000E+000	0.0000000E+000	-66.0625	0.0000000E+000	0.0000000E+000	0.0000000E+000	-23.9376	0.0000000E+000	0.0000000E+000	0.0000000E+000	23.9376	2.25264	66.0625	1.23696e-05	3.91814e-05	3426.48
1468.59	2.48544	1.2108	2.76468	-25.9734	7.58593	0.366406	0.103786	89.5048	17.1674	1	9	0.0047165	0.00170599	0	0.000109532	0.325173	0.158411	0.361706	25.9734	17167.4	35239.8	39199	-64.0266	0.0000000E+000	0.0000000E+000	0.0000000E+000	64.0266	0.0000000E+000	0.0000000E+000	0.0000000E+000	-64.0266	0.0000000E+000	0.0000000E+000	0.0000000E+000	-25.9734	0.0000000E+000	0.0000000E+000	0.0000000E+000	25.9734	2.05272	64.0266	1.12931e-05	3.80279e-05	3530.4
1000.32	2.68121	1.45321	3.04971	-28.4576	8.05468	0.366406	0.106114	109.485	24.8595	1	9	0.00469834	0.00154059	0	0.000123509	0.28828	0.156247	0.3279	28.4576	24859.5	45866.5	52170.2	-61.5424	0.0000000E+000	0.0000000E+000	0.0000000E+000	61.5424	0.0000000E+000	0.0000000E+000	0.0000000E+000	-61.5424	0.0000000E+000	0.0000000E+000	0.0000000E+000	-28.4576	0.0000000E+000	0.0000000E+000	0.0000000E+000	28.4576	1.84503	61.5424	1.39777e-05	3.8881e-05	3452.94
681.09	2.92846	1.80745	3.44133	-31.6829	8.77541	0.366379	-0.0106837	129.286	35.6639	1	10	0.00477953	0.00138886	0	0.000128098	0.247279	0.152621	0.290585	31.6829	35663.9	57783.3	67903.1	-58.3171	0.0000000E+000	0.0000000E+000	0.0000000E+000	58.3171	0.0000000E+000	0.0000000E+000	0.0000000E+000	-58.3171	0.0000000E+000	0.0000000E+000	0.0000000E+000	-31.6829	0.0000000E+000	0.0000000E+000	0.0000000E+000	31.6829	1.62022	58.3171	4.58852e-06	-3.91428e-06	34293.3
463.961	3.19466	2.29771	3.93514	-35.7251	9.24418	0.366382	-0.0106297	149.294	50.8997	1	10	0.00473978	0.00120448	0	0.000127482	0.206302	0.14838	0.254121	35.7251	50899.7	70769	87172.4	-54.2749	0.0000000E+000	0.0000000E+000	0.0000000E+000	54.2749	0.0000000E+000	0.0000000E+000	0.0000000E+000	-54.2749	0.0000000E+000	0.0000000E+000	0.0000000E+000	-35.7251	0.0000000E+000	0.0000000E+000	0.0000000E+000	35.7251	1.39036	54.2749	-6.15831e-07	-3.89452e-06	34467.9
316.316	3.55782	2.9918	4.64854	-40.0607	9.7109	0.366375	-0.0109744	168.177	69.6623	1	10	0.00472645	0.00101676	0	0.000126349	0.164646	0.138452	0.215121	40.0607	69662.3	82841.8	108239	-49.9393	0.0000000E+000	0.0000000E+000	0.0000000E+000	49.9393	0.0000000E+000	0.0000000E+000	0.0000000E+000	-49.9393	0.0000000E+000	0.0000000E+000	0.0000000E+000	-40.0607	0.0000000E+000	0.0000000E+000	0.0000000E+000	40.0607	1.18919	49.9393	-1.1332e-06	-4.02075e-06	33384.5
215.345	4.06849	3.90677	5.64052	-43.8383	10.1784	0.366383	-0.0107452	189.177	90.754	1	10	0.00470197	0.000833607	0	0.000124524	0.127878	0.122795	0.177289	43.8383	90754	94510.8	131029	-46.1617	0.0000000E+000	0.0000000E+000	0.0000000E+000	46.1617	0.0000000E+000	0.0000000E+000	0.0000000E+000	-46.1617	0.0000000E+000	0.0000000E+000	0.0000000E+000	-43.8383	0.0000000E+000	0.0000000E+000	0.0000000E+000	43.8383	1.0414	46.1617	-1.82477e-06	-3.93687e-06	34097.4
146.737	4.82965	5.13935	7.05255	-46.7794	10.6414	0.366375	-0.0121	211.043	112.072	1	10	0.00469396	0.000665569	0	0.000123276	0.0971009	0.103328	0.141793	46.7794	112072	105318	153792	-43.2206	0.0000000E+000	0.0000000E+000	0.0000000E+000	43.2206	0.0000000E+000	0.0000000E+000	0.0000000E+000	-43.2206	0.0000000E+000	0.0000000E+000	0.0000000E+000	-46.7794	0.0000000E+000	0.0000000E+000	0.0000000E+000	46.7794	0.939738	43.2206	-1.24779e-06	-4.43312e-06	30279
100.032	6.00503	6.6368	8.95028	-47.8609	11.1087	0.366371	-0.0110788	239.73	131.815	1	10	0.00468661	0.000523627	0	0.000122246	0.0749622	0.0828486	0.111728	47.8609	131815	119268	177764	-42.1391	0.0000000E+000	0.0000000E+000	0.0000000E+000	42.1391	0.0000000E+000	0.0000000E+000	0.0000000E+000	-42.1391	0.0000000E+000	0.0000000E+000	0.0000000E+000	-47.8609	0.0000000E+000	0.0000000E+000	0.0000000E+000	47.8609	0.904809	42.1391	-1.02987e-06	-4.05894e-06	33069.6
68.104	7.76098	8.38028	11.422	-47.1972	11.5873	0.366383	-0.00820904	278.862	150.114	1	10	0.00468941	0.00041056	0	0.000121581	0.0594885	0.0642354	0.0875504	47.1972	150114	139021	204600	-42.8028	0.0000000E+000	0.0000000E+000	0.0000000E+000	42.8028	0.0000000E+000	0.0000000E+000	0.0000000E+000	-42.8028	0.0000000E+000	0.0000000E+000	0.0000000E+000	-47.1972	0.0000000E+000	0.0000000E+000	0.0000000E+000	47.1972	0.926101	42.8028	-6.65183e-07	-3.00765e-06	44631.6
46.4415	10.2069	10.0901	14.3524	-44.6701	12.0425	0.366367	-0.0141591	339.64	167.864	1	10	0.00467899	0.000326007	0	0.000120043	0.0495503	0.048983	0.0696747	44.6701	167864	169809	238775	-45.3299	0.0000000E+000	0.0000000E+000	0.0000000E+000	45.3299	0.0000000E+000	0.0000000E+000	0.0000000E+000	-45.3299	0.0000000E+000	0.0000000E+000	0.0000000E+000	-44.6701	0.0000000E+000	0.0000000E+000	0.0000000E+000	44.6701	1.01158	45.3299	-1.53818e-06	-5.18742e-06	25875
31.6296	13.5174	11.5541	17.7825	-40.5225	12.7324	0.366396	-0.00544049	435.503	183.856	1	11	0.00469122	0.000263811	0	0.000118305	0.0427472	0.0365386	0.0562351	40.5225	183856	215097	282966	-49.4775	0.0000000E+000	0.0000000E+000	0.0000000E+000	49.4775	0.0000000E+000	0.0000000E+000	0.0000000E+000	-49.4775	0.0000000E+000	0.0000000E+000	0.0000000E+000	-40.5225	0.0000000E+000	0.0000000E+000	0.0000000E+000	40.5225	1.16992	49.4775	-1.73781e-06	-1.99338e-06	67346.2
21.5517	17.2303	12.3313	21.1884	-35.5904	13.1713	0.3664	-0.00552298	598.864	202.84	1	11	0.00468429	0.000221079	0	0.000118395	0.0383795	0.0274673	0.0471957	35.5904	202840	283425	348531	-54.4096	0.0000000E+000	0.0000000E+000	0.0000000E+000	54.4096	0.0000000E+000	0.0000000E+000	0.0000000E+000	-54.4096	0.0000000E+000	0.0000000E+000	0.0000000E+000	-35.5904	0.0000000E+000	0.0000000E+000	0.0000000E+000	35.5904	1.39728	54.4096	8.95839e-08	-2.02362e-06	66341.1
14.6852	21.0715	12.3995	24.4491	-30.4746	13.6501	0.366402	-0.00455029	874.054	224.813	1	11	0.00469204	0.000191911	0	0.0001179	0.035251	0.0207434	0.0409014	30.4746	224813	382044	443281	-59.5254	0.0000000E+000	0.0000000E+000	0.0000000E+000	59.5254	0.0000000E+000	0.0000000E+000	0.0000000E+000	-59.5254	0.0000000E+000	0.0000000E+000	0.0000000E+000	-30.4746	0.0000000E+000	0.0000000E+000	0.0000000E+000	30.4746	1.69939	59.5254	-4.95146e-07	-1.66723e-06	80522.7
10.0032	24.5965	11.7937	27.2778	-25.6171	14.1187	0.366405	-0.00462626	1349.06	252.181	1	11	0.00468329	0.000171689	0	0.000116603	0.0330563	0.0158501	0.0366598	25.6171	252181	525939	583273	-64.3829	0.0000000E+000	0.0000000E+000	0.0000000E+000	64.3829	0.0000000E+000	0.0000000E+000	0.0000000E+000	-64.3829	0.0000000E+000	0.0000000E+000	0.0000000E+000	-25.6171	0.0000000E+000	0.0000000E+000	0.0000000E+000	25.6171	2.08556	64.3829	-1.29667e-06	-1.69509e-06	79201.2
6.81719	27.7659	10.8525	29.8114	-21.3484	14.4764	0.366396	-0.00467653	2151.22	285.088	1	11	0.00468366	0.00015711	0	0.000116368	0.0312425	0.0122114	0.0335442	21.3484	285088	729392	783127	-68.6516	0.0000000E+000	0.0000000E+000	0.0000000E+000	68.6516	0.0000000E+000	0.0000000E+000	0.0000000E+000	-68.6516	0.0000000E+000	0.0000000E+000	0.0000000E+000	-21.3484	0.0000000E+000	0.0000000E+000	0.0000000E+000	21.3484	2.55848	68.6516	-2.34939e-07	-1.71346e-06	78347.8
4.63925	30.3936	9.84557	31.9485	-17.949	14.9783	0.366405	-0.00411068	3484.43	330.912	1	11	0.00468012	0.00014649	0	0.000114413	0.0297771	0.00964586	0.0313004	17.949	330912	1.02154e+06	1.0738e+06	-72.051	0.0000000E+000	0.0000000E+000	0.0000000E+000	72.051	0.0000000E+000	0.0000000E+000	0.0000000E+000	-72.051	0.0000000E+000	0.0000000E+000	0.0000000E+000	-17.949	0.0000000E+000	0.0000000E+000	0.0000000E+000	17.949	3.08703	72.051	-1.95533e-06	-1.50617e-06	89134.7
3.1604	32.7345	8.90518	33.9242	-15.2186	15.6873	0.366413	-0.00351402	5655.04	389.675	1	11	0.00468127	0.000137992	0	0.000115822	0.0284438	0.00773791	0.0294775	15.2186	389675	1.4324e+06	1.48446e+06	-74.7814	0.0000000E+000	0.0000000E+000	0.0000000E+000	74.7814	0.0000000E+000	0.0000000E+000	0.0000000E+000	-74.7814	0.0000000E+000	0.0000000E+000	0.0000000E+000	-15.2186	0.0000000E+000	0.0000000E+000	0.0000000E+000	15.2186	3.6759	74.7814	1.40949e-06	-1.28758e-06	104272
2.15577	34.8173	7.85598	35.6926	-12.715	16.7038	0.366422	-0.00232037	9397.62	455.263	1	11	0.00468507	0.000131262	0	0.000117024	0.0273299	0.00616657	0.028017	12.715	455263	2.0177e+06	2.06843e+06	-77.285	0.0000000E+000	0.0000000E+000	0.0000000E+000	77.285	0.0000000E+000	0.0000000E+000	0.0000000E+000	-77.285	0.0000000E+000	0.0000000E+000	0.0000000E+000	-12.715	0.0000000E+000	0.0000000E+000	0.0000000E+000	12.715	4.43195	77.285	1.20153e-06	-8.50233e-07	157916
1.46631	36.5795	6.95679	37.2351	-10.7681	18.9091	0.366426	-0.0024402	15602.2	544.624	1	12	0.00468568	0.00012584	0	0.000113709	0.0263834	0.00501767	0.0268563	10.7681	544624	2.86369e+06	2.91502e+06	-79.2319	0.0000000E+000	0.0000000E+000	0.0000000E+000	79.2319	0.0000000E+000	0.0000000E+000	0.0000000E+000	-79.2319	0.0000000E+000	0.0000000E+000	0.0000000E+000	-10.7681	0.0000000E+000	0.0000000E+000	0.0000000E+000	10.7681	5.2581	79.2319	-3.31513e-06	-8.94154e-07	150162
1.00006	38.0786	6.07009	38.5594	-9.05728	21.0492	0.366418	-0.00246336	26217.9	649.722	1	12	0.00468788	0.000121576	0	0.000107959	0.0256107	0.00408258	0.025934	9.05728	649722	4.07581e+06	4.12727e+06	-80.9427	0.0000000E+000	0.0000000E+000	0.0000000E+000	80.9427	0.0000000E+000	0.0000000E+000	0.0000000E+000	-80.9427	0.0000000E+000	0.0000000E+000	0.0000000E+000	-9.05728	0.0000000E+000	0.0000000E+000	0.0000000E+000	9.05728	6.27315	80.9427	-5.75004e-06	-9.02619e-07	148747
0.681362	39.3462	5.31149	39.7031	-7.68809	24.169	0.366422	-0.00243365	43977	787.062	1	12	0.00468492	0.000117999	0	0.000102576	0.0249605	0.00336951	0.0251869	7.68809	787062	5.83037e+06	5.88325e+06	-82.3119	0.0000000E+000	0.0000000E+000	0.0000000E+000	82.3119	0.0000000E+000	0.0000000E+000	0.0000000E+000	-82.3119	0.0000000E+000	0.0000000E+000	0.0000000E+000	-7.68809	0.0000000E+000	0.0000000E+000	0.0000000E+000	7.68809	7.40776	82.3119	-5.38267e-06	-8.9174e-07	150565
0.464091	40.4235	4.78913	40.7063	-6.75655	28.7338	0.366418	-0.00262896	71607.9	991.178	1	12	0.00468553	0.000115106	0	0.000100669	0.0243956	0.00289024	0.0245663	6.75655	991177	8.36623e+06	8.42474e+06	-83.2435	0.0000000E+000	0.0000000E+000	0.0000000E+000	83.2435	0.0000000E+000	0.0000000E+000	0.0000000E+000	-83.2435	0.0000000E+000	0.0000000E+000	0.0000000E+000	-6.75655	0.0000000E+000	0.0000000E+000	0.0000000E+000	6.75655	8.44069	83.2435	-1.9069e-06	-9.63298e-07	139378
0.316193	41.3125	4.41811	41.5481	-6.10421	35.4161	0.366417	-0.00261886	113928	1288.25	1	12	0.00468552	0.000112773	0	0.000104382	0.023932	0.00255937	0.0240685	6.10421	1.28825e+06	1.20461e+07	1.21148e+07	-83.8958	0.0000000E+000	0.0000000E+000	0.0000000E+000	83.8958	0.0000000E+000	0.0000000E+000	0.0000000E+000	-83.8958	0.0000000E+000	0.0000000E+000	0.0000000E+000	-6.10421	0.0000000E+000	0.0000000E+000	0.0000000E+000	6.10421	9.35073	83.8958	3.71322e-06	-9.59597e-07	139915
0.215268	42.1558	4.27618	42.3721	-5.79213	45.2139	0.366425	-0.00215251	172896	1760.91	1	12	0.00468257	0.000110511	0	0.000113233	0.0234799	0.00238174	0.0236004	5.79213	1.7609e+06	1.73595e+07	1.74486e+07	-84.2079	0.0000000E+000	0.0000000E+000	0.0000000E+000	84.2079	0.0000000E+000	0.0000000E+000	0.0000000E+000	-84.2079	0.0000000E+000	0.0000000E+000	0.0000000E+000	-5.79213	0.0000000E+000	0.0000000E+000	0.0000000E+000	5.79213	9.85829	84.2079	8.85034e-06	-7.88733e-07	170232
0.146929	43.0564	4.35989	43.2766	-5.78205	59.5495	0.36642	-0.00167198	248449	2521.63	1	12	0.00468928	0.000108356	0	0.000121913	0.0229896	0.00232792	0.0231072	5.78205	2.52163e+06	2.49026e+07	2.50299e+07	-84.2179	0.0000000E+000	0.0000000E+000	0.0000000E+000	84.2179	0.0000000E+000	0.0000000E+000	0.0000000E+000	-84.2179	0.0000000E+000	0.0000000E+000	0.0000000E+000	-5.78205	0.0000000E+000	0.0000000E+000	0.0000000E+000	5.78205	9.87559	84.2179	8.68007e-06	-6.12647e-07	219153
0.0999041	44.0319	4.83995	44.2971	-6.27272	80.6193	0.366421	-0.000880968	329152	3929.41	1	12	0.00468715	0.000105812	0	0.000120873	0.0224397	0.00246655	0.0225748	6.27272	3.92941e+06	3.57482e+07	3.59635e+07	-83.7273	0.0000000E+000	0.0000000E+000	0.0000000E+000	83.7273	0.0000000E+000	0.0000000E+000	0.0000000E+000	-83.7273	0.0000000E+000	0.0000000E+000	0.0000000E+000	-6.27272	0.0000000E+000	0.0000000E+000	0.0000000E+000	6.27272	9.09759	83.7273	-1.04001e-06	-3.22805e-07	415930
0.0680626	45.1542	5.62967	45.5038	-7.10676	111.531	0.366417	-0.000251613	415364	6357.68	1	12	0.00468592	0.000102979	0	0.000101089	0.0218074	0.00271886	0.0219762	7.10676	6.35769e+06	5.09935e+07	5.13883e+07	-82.8932	0.0000000E+000	0.0000000E+000	0.0000000E+000	82.8932	0.0000000E+000	0.0000000E+000	0.0000000E+000	-82.8932	0.0000000E+000	0.0000000E+000	0.0000000E+000	-7.10676	0.0000000E+000	0.0000000E+000	0.0000000E+000	7.10676	8.02076	82.8932	-1.97839e-05	-9.21955e-08	1.45627e+06
0.0464052	46.416	6.69709	46.8967	-8.2102	156.856	0.366428	0.000101644	512115	10443.7	1	12	0.00468761	9.99561e-05	0	4.65892e-05	0.0211049	0.0030451	0.0213235	8.2102	1.04437e+07	7.23831e+07	7.31326e+07	-81.7898	0.0000000E+000	0.0000000E+000	0.0000000E+000	81.7898	0.0000000E+000	0.0000000E+000	0.0000000E+000	-81.7898	0.0000000E+000	0.0000000E+000	0.0000000E+000	-8.2102	0.0000000E+000	0.0000000E+000	0.0000000E+000	8.2102	6.93078	81.7898	-5.44995e-05	3.7245e-08	3.60503e+06
0.0315922	48.0253	7.99644	48.6865	-9.45328	223.417	0.366427	-0.000136678	630004	16994.9	1	12	0.00468812	9.6292e-05	0	-4.00449e-05	0.0202606	0.00337349	0.0205396	9.45328	1.69949e+07	1.02069e+08	1.03474e+08	-80.5467	0.0000000E+000	0.0000000E+000	0.0000000E+000	80.5467	0.0000000E+000	0.0000000E+000	0.0000000E+000	-80.5467	0.0000000E+000	0.0000000E+000	0.0000000E+000	-9.45328	0.0000000E+000	0.0000000E+000	0.0000000E+000	9.45328	6.00584	80.5467	-8.66341e-05	-5.00826e-08	2.68094e+06
0.0215268	49.894	9.83196	50.8535	-11.1477	321.086	0.366429	-0.000598985	751970	28108.6	1	12	0.00468465	9.21205e-05	0	-0.000131136	0.0192933	0.00380188	0.0196643	11.1477	2.81086e+07	1.42642e+08	1.45385e+08	-78.8523	0.0000000E+000	0.0000000E+000	0.0000000E+000	78.8523	0.0000000E+000	0.0000000E+000	0.0000000E+000	-78.8523	0.0000000E+000	0.0000000E+000	0.0000000E+000	-11.1477	0.0000000E+000	0.0000000E+000	0.0000000E+000	11.1477	5.07467	78.8523	-9.10906e-05	-2.19485e-07	611749
0.0146812	51.7932	12.3811	53.2525	-13.4442	464.281	0.366433	-0.000831168	875590	47330.2	1	12	0.0046833	8.79452e-05	0	-0.000169097	0.0182639	0.00436595	0.0187785	13.4442	4.73302e+07	1.97994e+08	2.03573e+08	-76.5558	0.0000000E+000	0.0000000E+000	0.0000000E+000	76.5558	0.0000000E+000	0.0000000E+000	0.0000000E+000	-76.5558	0.0000000E+000	0.0000000E+000	0.0000000E+000	-13.4442	0.0000000E+000	0.0000000E+000	0.0000000E+000	13.4442	4.18325	76.5558	-3.7961e-05	-3.04567e-07	440865
0.0100092	53.5302	15.6897	55.7821	-16.3359	674.302	0.366429	-0.000680922	1.01346e+06	80176.5	1	12	0.00468636	8.40119e-05	0	-7.23283e-05	0.0172032	0.00504226	0.0179269	16.3359	8.01765e+07	2.73546e+08	2.85054e+08	-73.6641	0.0000000E+000	0.0000000E+000	0.0000000E+000	73.6641	0.0000000E+000	0.0000000E+000	0.0000000E+000	-73.6641	0.0000000E+000	0.0000000E+000	0.0000000E+000	-16.3359	0.0000000E+000	0.0000000E+000	0.0000000E+000	16.3359	3.4118	73.6641	9.67683e-05	-2.4951e-07	538137