File: txt/14957_R243_UA603_SOC00_C04.mpt
EC-Lab ASCII FILE
Nb header lines : 63

Potentio Electrochemical Impedance Spectroscopy

Run on channel : 4 (SN 66756)
User :
CE vs. WE compliance from -10 V to 10 V
Electrode connection : standard
Potential control : Ewe
Ewe ctrl range : min = -10.00 V, max = 10.00 V
Safety Limits :
	Do not start on E overload
Acquisition started on : 09/22/2025 10:43:56.297
Loaded Setting File :  C:\Users\Celltest\OneDrive - store-dot.com\Documents\EC-Lab\Data\Gyutae\17739_R277_UA674_SOC00_C03.mpr
Saved on :
	File : 14957_R243_UA603_SOC00_C04.mpr
	Directory : C:\Users\Celltest\OneDrive - store-dot.com\Documents\EC-Lab\Data\Anna\
	Host : 169.254.61.224
Device : VMP-3e (SN .003165)
Address : USB
EC-LAB for windows v11.62 (software)
Internet server v27.00 (firmware)
Command interpretor v12.03 (firmware)
Electrode material :
Initial state :
Electrolyte :
Comments :
Electrode surface area : 0.001 cm²
Characteristic mass : 0.001 g
Equivalent Weight : 0.000 g/eq.
Density : 0.000 g/cm3
Volume (V) : 0.001 cm³
Cycle Definition : Charge/Discharge alternance
Mode                Single sine
E (V)               0.0000
vs.                 Eoc
tE (h:m:s)          0:00:0.0000
record              0
dI                  0.000
unit dI             mA
dt (s)              0.000
fi                  100.000
unit fi             kHz
ff                  10.000
unit ff             mHz
Nd                  6
Points              per decade
spacing             Logarithmic
Va (mV)             5.0
pw                  0.10
Na                  2
corr                0
E range min (V)     -10.000
E range max (V)     10.000
I Range             Auto
Bandwidth           5
nc cycles           0
goto Ns'            0
nr cycles           0
inc. cycle          0

freq/Hz	Re(Z)/Ohm	-Im(Z)/Ohm	|Z|/Ohm	Phase(Z)/deg	time/s	<Ewe>/V	<I>/mA	Cs/µF	Cp/µF	cycle number	I Range	|Ewe|/V	|I|/A	Ns	(Q-Qo)/mA.h	Re(Y)/Ohm-1	Im(Y)/Ohm-1	|Y|/Ohm-1	Phase(Y)/deg	Re(C)/nF	Im(C)/nF	|C|/nF	Phase(C)/deg	Re(M)	Im(M)	|M|	Phase(M)/deg	Re(Permittivity)	Im(Permittivity)	|Permittivity|	Phase(Permittivity)/deg	Re(Resistivity)/Ohm.cm	Im(Resistivity)/Ohm.cm	|Resistivity|/Ohm.cm	Phase(Resistivity)/deg	Re(Conductivity)/mS/cm	Im(Conductivity)/mS/cm	|Conductivity|/mS/cm	Phase(Conductivity)/deg	Tan(Delta)	Loss Angle(Delta)/deg	dq/mA.h	Pwe/W	Rwe/Ohm
100004	8.59201	2.42591	8.92791	-15.7668	1.86447	0.644227	-0.0225568	0.656038	0.0484372	1	10	0.00459749	0.000514957	0	-2.64982e-06	0.107794	0.0304351	0.112008	15.7668	48.4372	171.553	178.26	-74.2332	0.0000000E+000	0.0000000E+000	0.0000000E+000	74.2332	0.0000000E+000	0.0000000E+000	0.0000000E+000	-74.2332	0.0000000E+000	0.0000000E+000	0.0000000E+000	-15.7668	0.0000000E+000	0.0000000E+000	0.0000000E+000	15.7668	3.54176	74.2332	-2.64982e-06	-1.45317e-05	28560.3
68132	9.10942	2.82215	9.53656	-17.2133	2.30148	0.644235	-0.0228888	0.827729	0.0724879	1	10	0.005285	0.000554183	0	-5.56115e-06	0.100163	0.0310311	0.10486	17.2133	72.4879	233.978	244.95	-72.7867	0.0000000E+000	0.0000000E+000	0.0000000E+000	72.7867	0.0000000E+000	0.0000000E+000	0.0000000E+000	-72.7867	0.0000000E+000	0.0000000E+000	0.0000000E+000	-17.2133	0.0000000E+000	0.0000000E+000	0.0000000E+000	17.2133	3.22783	72.7867	-2.91134e-06	-1.47457e-05	28146.4
46420.4	9.72094	3.25895	10.2527	-18.5338	2.7385	0.644267	-0.0220756	1.05204	0.106296	1	10	0.00523528	0.000510626	0	-6.84983e-06	0.092477	0.031003	0.0975355	18.5338	106.296	317.063	334.406	-71.4662	0.0000000E+000	0.0000000E+000	0.0000000E+000	71.4662	0.0000000E+000	0.0000000E+000	0.0000000E+000	-71.4662	0.0000000E+000	0.0000000E+000	0.0000000E+000	-18.5338	0.0000000E+000	0.0000000E+000	0.0000000E+000	18.5338	2.98284	71.4662	-1.28867e-06	-1.42226e-05	29184.6
31621.1	10.4224	3.77767	11.0859	-19.9233	3.17549	0.644222	-0.0230268	1.33235	0.154712	1	10	0.00514421	0.000464031	0	-9.10292e-06	0.0848057	0.0307383	0.0902045	19.9233	154.712	426.843	454.016	-70.0767	0.0000000E+000	0.0000000E+000	0.0000000E+000	70.0767	0.0000000E+000	0.0000000E+000	0.0000000E+000	-70.0767	0.0000000E+000	0.0000000E+000	0.0000000E+000	-19.9233	0.0000000E+000	0.0000000E+000	0.0000000E+000	19.9233	2.75896	70.0767	-2.25309e-06	-1.48343e-05	27977.1
21544.7	11.2874	4.38587	12.1096	-21.2343	3.61248	0.64423	-0.023618	1.68432	0.220942	1	10	0.00517103	0.00042702	0	-1.17556e-05	0.0769727	0.0299087	0.0825792	21.2343	220.942	568.613	610.03	-68.7657	0.0000000E+000	0.0000000E+000	0.0000000E+000	68.7657	0.0000000E+000	0.0000000E+000	0.0000000E+000	-68.7657	0.0000000E+000	0.0000000E+000	0.0000000E+000	-21.2343	0.0000000E+000	0.0000000E+000	0.0000000E+000	21.2343	2.57359	68.7657	-2.65268e-06	-1.52154e-05	27277.1
14678.6	12.3134	5.01428	13.2952	-22.1572	3.90848	0.644234	-0.0230044	2.16236	0.307577	1	10	0.00544774	0.000409752	0	-1.3371e-05	0.0696606	0.0283673	0.075215	22.1572	307.577	755.306	815.531	-67.8428	0.0000000E+000	0.0000000E+000	0.0000000E+000	67.8428	0.0000000E+000	0.0000000E+000	0.0000000E+000	-67.8428	0.0000000E+000	0.0000000E+000	0.0000000E+000	-22.1572	0.0000000E+000	0.0000000E+000	0.0000000E+000	22.1572	2.45567	67.8428	-1.61536e-06	-1.48202e-05	28004.8
10002.2	13.509	5.79459	14.6993	-23.2166	4.3455	0.644228	-0.0236217	2.746	0.426728	1	10	0.00500093	0.000340215	0	-1.55921e-05	0.0625213	0.0268181	0.0680303	23.2166	426.728	994.836	1082.5	-66.7834	0.0000000E+000	0.0000000E+000	0.0000000E+000	66.7834	0.0000000E+000	0.0000000E+000	0.0000000E+000	-66.7834	0.0000000E+000	0.0000000E+000	0.0000000E+000	-23.2166	0.0000000E+000	0.0000000E+000	0.0000000E+000	23.2166	2.33131	66.7834	-2.22113e-06	-1.52178e-05	27272.7
6811.07	14.9139	6.70616	16.3523	-24.2114	4.72349	0.644387	-0.00432926	3.48443	0.586031	1	10	0.00498573	0.000304894	0	-1.62357e-05	0.0557743	0.0250793	0.0611534	24.2114	586.031	1303.28	1428.98	-65.7886	0.0000000E+000	0.0000000E+000	0.0000000E+000	65.7886	0.0000000E+000	0.0000000E+000	0.0000000E+000	-65.7886	0.0000000E+000	0.0000000E+000	0.0000000E+000	-24.2114	0.0000000E+000	0.0000000E+000	0.0000000E+000	24.2114	2.22392	65.7886	-6.43589e-07	-2.78972e-06	148845
4641.49	16.5455	7.66353	18.2341	-24.8526	5.19468	0.644466	0.00168751	4.47439	0.790353	1	10	0.00494883	0.000271404	0	-1.61945e-05	0.0497634	0.0230493	0.0548422	24.8526	790.353	1706.37	1880.52	-65.1474	0.0000000E+000	0.0000000E+000	0.0000000E+000	65.1474	0.0000000E+000	0.0000000E+000	0.0000000E+000	-65.1474	0.0000000E+000	0.0000000E+000	0.0000000E+000	-24.8526	0.0000000E+000	0.0000000E+000	0.0000000E+000	24.8526	2.159	65.1474	4.11335e-08	1.08754e-06	381903
3161.01	18.493	8.739	20.4539	-25.2934	5.66167	0.644471	0.00146929	5.76146	1.05173	1	10	0.00492406	0.00024074	0	-1.62347e-05	0.0442035	0.0208887	0.0488905	25.2934	1051.73	2225.62	2461.61	-64.7066	0.0000000E+000	0.0000000E+000	0.0000000E+000	64.7066	0.0000000E+000	0.0000000E+000	0.0000000E+000	-64.7066	0.0000000E+000	0.0000000E+000	0.0000000E+000	-25.2934	0.0000000E+000	0.0000000E+000	0.0000000E+000	25.2934	2.11614	64.7066	-4.01335e-08	9.46917e-07	438626
2155.69	20.7198	9.82931	22.9331	-25.3793	6.12868	0.644466	0.00189267	7.51123	1.37985	1	10	0.00490285	0.00021379	0	-1.59328e-05	0.0393968	0.0186895	0.0436052	25.3793	1379.85	2908.67	3219.38	-64.6207	0.0000000E+000	0.0000000E+000	0.0000000E+000	64.6207	0.0000000E+000	0.0000000E+000	0.0000000E+000	-64.6207	0.0000000E+000	0.0000000E+000	0.0000000E+000	-25.3793	0.0000000E+000	0.0000000E+000	0.0000000E+000	25.3793	2.10796	64.6207	3.01857e-07	1.21976e-06	340507
1468.59	23.2897	11.082	25.7919	-25.4465	6.59593	0.644471	0.00157933	9.7792	1.80539	1	10	0.0048907	0.000189622	0	-1.58383e-05	0.0350105	0.0166591	0.0387719	25.4465	1805.39	3794.18	4201.81	-64.5535	0.0000000E+000	0.0000000E+000	0.0000000E+000	64.5535	0.0000000E+000	0.0000000E+000	0.0000000E+000	-64.5535	0.0000000E+000	0.0000000E+000	0.0000000E+000	-25.4465	0.0000000E+000	0.0000000E+000	0.0000000E+000	25.4465	2.10159	64.5535	9.45428e-08	1.01783e-06	408065
1000.32	26.198	12.0847	28.8509	-24.7631	7.06567	0.64447	0.00138909	13.1657	2.30993	1	10	0.00487407	0.00016894	0	-1.56925e-05	0.0314738	0.0145183	0.034661	24.7631	2309.93	5007.61	5514.7	-65.2369	0.0000000E+000	0.0000000E+000	0.0000000E+000	65.2369	0.0000000E+000	0.0000000E+000	0.0000000E+000	-65.2369	0.0000000E+000	0.0000000E+000	0.0000000E+000	-24.7631	0.0000000E+000	0.0000000E+000	0.0000000E+000	24.7631	2.16786	65.2369	1.45744e-07	8.95228e-07	463950
681.09	29.5176	13.1435	32.3116	-24.0023	7.78545	0.644426	-0.00326242	17.7789	2.94177	1	11	0.00493263	0.000152658	0	-1.60539e-05	0.0282725	0.0125891	0.0309486	24.0023	2941.77	6606.62	7231.98	-65.9977	0.0000000E+000	0.0000000E+000	0.0000000E+000	65.9977	0.0000000E+000	0.0000000E+000	0.0000000E+000	-65.9977	0.0000000E+000	0.0000000E+000	0.0000000E+000	-24.0023	0.0000000E+000	0.0000000E+000	0.0000000E+000	24.0023	2.2458	65.9977	-3.61343e-07	-2.10239e-06	197530
463.961	32.9306	14.0695	35.8102	-23.1345	8.25422	0.64448	-0.00345717	24.3815	3.7636	1	11	0.00489909	0.000136807	0	-1.64011e-05	0.0256794	0.0109715	0.027925	23.1345	3763.6	8808.94	9579.25	-66.8655	0.0000000E+000	0.0000000E+000	0.0000000E+000	66.8655	0.0000000E+000	0.0000000E+000	0.0000000E+000	-66.8655	0.0000000E+000	0.0000000E+000	0.0000000E+000	-23.1345	0.0000000E+000	0.0000000E+000	0.0000000E+000	23.1345	2.34056	66.8655	-3.47253e-07	-2.22807e-06	186419
316.316	36.6869	14.7693	39.5483	-21.9286	8.72092	0.644444	-0.00332957	34.0673	4.75122	1	11	0.00488781	0.000123591	0	-1.67629e-05	0.0234561	0.00944292	0.0252856	21.9286	4751.22	11802	12722.5	-68.0714	0.0000000E+000	0.0000000E+000	0.0000000E+000	68.0714	0.0000000E+000	0.0000000E+000	0.0000000E+000	-68.0714	0.0000000E+000	0.0000000E+000	0.0000000E+000	-21.9286	0.0000000E+000	0.0000000E+000	0.0000000E+000	21.9286	2.48399	68.0714	-3.61814e-07	-2.14572e-06	193552
215.345	40.5861	15.3605	43.3956	-20.7299	9.18841	0.644421	-0.00317568	48.1152	6.02837	1	11	0.00487847	0.000112419	0	-1.72282e-05	0.021552	0.00815668	0.0230438	20.7299	6028.37	15928.4	17031	-69.27	0.0000000E+000	0.0000000E+000	0.0000000E+000	69.27	0.0000000E+000	0.0000000E+000	0.0000000E+000	-69.27	0.0000000E+000	0.0000000E+000	0.0000000E+000	-20.7299	0.0000000E+000	0.0000000E+000	0.0000000E+000	20.7299	2.64225	69.27	-4.65285e-07	-2.04647e-06	202924
146.737	44.5342	15.8765	47.2796	-19.6213	9.65136	0.644453	-0.00352992	68.3161	7.70349	1	11	0.00487302	0.000103068	0	-1.76703e-05	0.0199226	0.00710245	0.0211508	19.6213	7703.49	21608.5	22940.6	-70.3787	0.0000000E+000	0.0000000E+000	0.0000000E+000	70.3787	0.0000000E+000	0.0000000E+000	0.0000000E+000	-70.3787	0.0000000E+000	0.0000000E+000	0.0000000E+000	-19.6213	0.0000000E+000	0.0000000E+000	0.0000000E+000	19.6213	2.80503	70.3787	-4.42075e-07	-2.27486e-06	182569
100.032	48.531	16.3304	51.2049	-18.5978	10.1197	0.644425	-0.00320795	97.428	9.9096	1	11	0.00486455	9.50018e-05	0	-1.80869e-05	0.0185096	0.00622838	0.0195294	18.5978	9909.6	29449.5	31072	-71.4022	0.0000000E+000	0.0000000E+000	0.0000000E+000	71.4022	0.0000000E+000	0.0000000E+000	0.0000000E+000	-71.4022	0.0000000E+000	0.0000000E+000	0.0000000E+000	-18.5978	0.0000000E+000	0.0000000E+000	0.0000000E+000	18.5978	2.97181	71.4022	-4.16648e-07	-2.06728e-06	200884
68.104	53.0016	16.4021	55.4815	-17.1954	10.5983	0.644459	-0.00295761	142.478	12.4523	1	11	0.00487349	8.78398e-05	0	-1.84495e-05	0.0172184	0.00532847	0.018024	17.1954	12452.3	40238.3	42121.1	-72.8046	0.0000000E+000	0.0000000E+000	0.0000000E+000	72.8046	0.0000000E+000	0.0000000E+000	0.0000000E+000	-72.8046	0.0000000E+000	0.0000000E+000	0.0000000E+000	-17.1954	0.0000000E+000	0.0000000E+000	0.0000000E+000	17.1954	3.23139	72.8046	-3.62556e-07	-1.90606e-06	217898
46.4415	57.1207	16.5001	59.4561	-16.1121	11.0535	0.644415	-0.00352786	207.695	15.9958	1	11	0.00486127	8.17623e-05	0	-1.89115e-05	0.0161585	0.0046676	0.0168191	16.1121	15995.8	55375	57639.1	-73.8879	0.0000000E+000	0.0000000E+000	0.0000000E+000	73.8879	0.0000000E+000	0.0000000E+000	0.0000000E+000	-73.8879	0.0000000E+000	0.0000000E+000	0.0000000E+000	-16.1121	0.0000000E+000	0.0000000E+000	0.0000000E+000	16.1121	3.46184	73.8879	-4.62015e-07	-2.27341e-06	182664
31.6296	61.6887	15.755	63.6688	-14.3268	11.5004	0.644417	-0.00377391	319.381	19.5566	1	11	0.00485971	7.6328e-05	0	-1.93338e-05	0.0152178	0.00388656	0.0157063	14.3268	19556.6	76573.7	79031.6	-75.6732	0.0000000E+000	0.0000000E+000	0.0000000E+000	75.6732	0.0000000E+000	0.0000000E+000	0.0000000E+000	-75.6732	0.0000000E+000	0.0000000E+000	0.0000000E+000	-14.3268	0.0000000E+000	0.0000000E+000	0.0000000E+000	14.3268	3.9155	75.6732	-4.22277e-07	-2.43197e-06	170756
21.5517	66.2738	16.4311	68.2803	-13.9244	11.9393	0.644415	-0.00392687	449.439	26.0264	1	11	0.00488403	7.15291e-05	0	-2.00365e-05	0.0142151	0.00352433	0.0146455	13.9244	26026.4	104976	108154	-76.0756	0.0000000E+000	0.0000000E+000	0.0000000E+000	76.0756	0.0000000E+000	0.0000000E+000	0.0000000E+000	-76.0756	0.0000000E+000	0.0000000E+000	0.0000000E+000	-13.9244	0.0000000E+000	0.0000000E+000	0.0000000E+000	13.9244	4.03343	76.0756	-7.02698e-07	-2.53054e-06	164104
14.6852	70.3823	14.5511	71.8708	-11.681	12.418	0.644447	-0.00293896	744.811	30.5304	1	11	0.00487199	6.77882e-05	0	-2.03839e-05	0.0136257	0.00281703	0.0139139	11.681	30530.4	147673	150796	-78.319	0.0000000E+000	0.0000000E+000	0.0000000E+000	78.319	0.0000000E+000	0.0000000E+000	0.0000000E+000	-78.319	0.0000000E+000	0.0000000E+000	0.0000000E+000	-11.681	0.0000000E+000	0.0000000E+000	0.0000000E+000	11.681	4.83691	78.319	-3.47438e-07	-1.89401e-06	219277
10.0032	73.9694	13.3494	75.1643	-10.2301	12.8867	0.644436	-0.00314863	1191.85	37.5939	1	11	0.00485892	6.4644e-05	0	-2.04183e-05	0.0130927	0.00236285	0.0133042	10.2301	37593.9	208310	211675	-79.7699	0.0000000E+000	0.0000000E+000	0.0000000E+000	79.7699	0.0000000E+000	0.0000000E+000	0.0000000E+000	-79.7699	0.0000000E+000	0.0000000E+000	0.0000000E+000	-10.2301	0.0000000E+000	0.0000000E+000	0.0000000E+000	10.2301	5.54105	79.7699	-3.43446e-08	-2.02909e-06	204672
6.81719	76.9076	10.8457	77.6685	-8.02705	13.2444	0.644451	-0.00446541	2152.57	41.9741	1	11	0.00484532	6.23846e-05	0	-2.0965e-05	0.0127491	0.0017979	0.0128752	8.02705	41974.1	297641	300587	-81.973	0.0000000E+000	0.0000000E+000	0.0000000E+000	81.973	0.0000000E+000	0.0000000E+000	0.0000000E+000	-81.973	0.0000000E+000	0.0000000E+000	0.0000000E+000	-8.02705	0.0000000E+000	0.0000000E+000	0.0000000E+000	8.02705	7.09108	81.973	-5.4676e-07	-2.87774e-06	144321
4.63925	79.2459	9.10651	79.7674	-6.55537	13.7463	0.644454	-0.00235304	3767.21	49.0991	1	11	0.00484042	6.06817e-05	0	-2.06623e-05	0.0124545	0.0014312	0.0125365	6.55537	49099.1	427266	430078	-83.4446	0.0000000E+000	0.0000000E+000	0.0000000E+000	83.4446	0.0000000E+000	0.0000000E+000	0.0000000E+000	-83.4446	0.0000000E+000	0.0000000E+000	0.0000000E+000	-6.55537	0.0000000E+000	0.0000000E+000	0.0000000E+000	6.55537	8.70211	83.4446	3.02768e-07	-1.51643e-06	273881
3.1604	81.9671	8.32332	82.3887	-5.7982	14.8242	0.644466	-0.00165953	6050.37	61.7505	1	12	0.00486088	5.89994e-05	0	-2.22373e-05	0.0120755	0.0012262	0.0121376	5.7982	61750.5	608112	611239	-84.2018	0.0000000E+000	0.0000000E+000	0.0000000E+000	84.2018	0.0000000E+000	0.0000000E+000	0.0000000E+000	-84.2018	0.0000000E+000	0.0000000E+000	0.0000000E+000	-5.7982	0.0000000E+000	0.0000000E+000	0.0000000E+000	5.7982	9.84789	84.2018	-1.57504e-06	-1.06951e-06	388342
2.15577	83.7002	7.34654	84.022	-5.01612	15.8408	0.644469	-0.00155854	10049.3	76.8273	1	12	0.00486849	5.79431e-05	0	-2.23143e-05	0.0118561	0.00104063	0.0119016	5.01612	76827.2	875304	878669	-84.9839	0.0000000E+000	0.0000000E+000	0.0000000E+000	84.9839	0.0000000E+000	0.0000000E+000	0.0000000E+000	-84.9839	0.0000000E+000	0.0000000E+000	0.0000000E+000	-5.01612	0.0000000E+000	0.0000000E+000	0.0000000E+000	5.01612	11.3931	84.9839	-7.70086e-08	-1.00443e-06	413508
1.46631	84.2832	6.43159	84.5282	-4.36374	17.314	0.644469	-0.00150203	16876.3	97.7033	1	12	0.00484416	5.73083e-05	0	-2.14498e-05	0.0117961	0.00090015	0.0118304	4.36374	97703.4	1.28036e+06	1.28408e+06	-85.6363	0.0000000E+000	0.0000000E+000	0.0000000E+000	85.6363	0.0000000E+000	0.0000000E+000	0.0000000E+000	-85.6363	0.0000000E+000	0.0000000E+000	0.0000000E+000	-4.36374	0.0000000E+000	0.0000000E+000	0.0000000E+000	4.36374	13.1046	85.6363	8.64532e-07	-9.68009e-07	429066
1.00006	86.1901	6.51634	86.4361	-4.32358	19.4543	0.644472	-0.00140742	24422.4	138.805	1	12	0.00487407	5.63893e-05	0	-2.09574e-05	0.0115363	0.000872195	0.0115692	4.32358	138805	1.83594e+06	1.84118e+06	-85.6764	0.0000000E+000	0.0000000E+000	0.0000000E+000	85.6764	0.0000000E+000	0.0000000E+000	0.0000000E+000	-85.6764	0.0000000E+000	0.0000000E+000	0.0000000E+000	-4.32358	0.0000000E+000	0.0000000E+000	0.0000000E+000	4.32358	13.2268	85.6764	4.92382e-07	-9.07042e-07	457911
0.681362	87.642	6.13816	87.8567	-4.00627	22.5763	0.644489	-0.00129467	38054.3	185.751	1	12	0.00488858	5.56427e-05	0	-2.21163e-05	0.0113544	0.000795223	0.0113822	4.00627	185751	2.65219e+06	2.65869e+06	-85.9937	0.0000000E+000	0.0000000E+000	0.0000000E+000	85.9937	0.0000000E+000	0.0000000E+000	0.0000000E+000	-85.9937	0.0000000E+000	0.0000000E+000	0.0000000E+000	-4.00627	0.0000000E+000	0.0000000E+000	0.0000000E+000	4.00627	14.2782	85.9937	-1.15885e-06	-8.34403e-07	497800
0.464091	88.6098	6.7372	88.8656	-4.34796	27.1396	0.644489	-0.00103962	50902.4	292.57	1	12	0.00488371	5.49562e-05	0	-2.61721e-05	0.0112206	0.000853124	0.011253	4.34796	292570	3.84797e+06	3.85908e+06	-85.652	0.0000000E+000	0.0000000E+000	0.0000000E+000	85.652	0.0000000E+000	0.0000000E+000	0.0000000E+000	-85.652	0.0000000E+000	0.0000000E+000	0.0000000E+000	-4.34796	0.0000000E+000	0.0000000E+000	0.0000000E+000	4.34796	13.1523	85.652	-4.05588e-06	-6.70023e-07	619928
0.316193	89.4461	6.67045	89.6945	-4.26494	33.8201	0.644486	-0.00108625	75459.3	417.341	1	12	0.00486376	5.42258e-05	0	-3.32837e-05	0.0111181	0.000829131	0.011149	4.26494	417341	5.59626e+06	5.6118e+06	-85.7351	0.0000000E+000	0.0000000E+000	0.0000000E+000	85.7351	0.0000000E+000	0.0000000E+000	0.0000000E+000	-85.7351	0.0000000E+000	0.0000000E+000	0.0000000E+000	-4.26494	0.0000000E+000	0.0000000E+000	0.0000000E+000	4.26494	13.4093	85.7351	-7.11152e-06	-7.00074e-07	593311
0.215268	91.3022	7.88251	91.6419	-4.93436	43.6179	0.644489	-0.00109834	93794.2	693.934	1	12	0.0048734	5.31787e-05	0	-4.17375e-05	0.0108716	0.000938592	0.010912	4.93436	693934	8.03775e+06	8.06765e+06	-85.0656	0.0000000E+000	0.0000000E+000	0.0000000E+000	85.0656	0.0000000E+000	0.0000000E+000	0.0000000E+000	-85.0656	0.0000000E+000	0.0000000E+000	0.0000000E+000	-4.93436	0.0000000E+000	0.0000000E+000	0.0000000E+000	4.93436	11.5829	85.0656	-8.45387e-06	-7.0787e-07	586784
0.146929	93.0407	9.4452	93.5189	-5.79663	57.9546	0.644482	-0.00120789	114684	1169.84	1	12	0.00486852	5.20593e-05	0	-4.82529e-05	0.0106384	0.00107997	0.010693	5.79663	1.16984e+06	1.15236e+07	1.15828e+07	-84.2034	0.0000000E+000	0.0000000E+000	0.0000000E+000	84.2034	0.0000000E+000	0.0000000E+000	0.0000000E+000	-84.2034	0.0000000E+000	0.0000000E+000	0.0000000E+000	-5.79663	0.0000000E+000	0.0000000E+000	0.0000000E+000	5.79663	9.85057	84.2034	-6.51542e-06	-7.78462e-07	533561
0.0999041	95.0876	11.5249	95.7835	-6.91073	79.0235	0.644479	-0.00122516	138229	2001.22	1	12	0.00486278	5.07685e-05	0	-4.83582e-05	0.0103644	0.0012562	0.0104402	6.91073	2.00122e+06	1.65112e+07	1.66321e+07	-83.0893	0.0000000E+000	0.0000000E+000	0.0000000E+000	83.0893	0.0000000E+000	0.0000000E+000	0.0000000E+000	-83.0893	0.0000000E+000	0.0000000E+000	0.0000000E+000	-6.91073	0.0000000E+000	0.0000000E+000	0.0000000E+000	6.91073	8.25059	83.0893	-1.05296e-07	-7.89588e-07	526038
0.0680626	97.765	13.936	98.7532	-8.11262	109.936	0.644487	-0.00110429	167793	3341.54	1	12	0.00486549	4.92691e-05	0	-4.03157e-05	0.0100249	0.00142901	0.0101262	8.11262	3.34154e+06	2.34419e+07	2.36788e+07	-81.8874	0.0000000E+000	0.0000000E+000	0.0000000E+000	81.8874	0.0000000E+000	0.0000000E+000	0.0000000E+000	-81.8874	0.0000000E+000	0.0000000E+000	0.0000000E+000	-8.11262	0.0000000E+000	0.0000000E+000	0.0000000E+000	8.11262	7.01529	81.8874	8.04252e-06	-7.11698e-07	583624
0.0464052	101.16	16.7365	102.535	-9.39432	155.26	0.644476	-0.00072493	204922	5459.81	1	12	0.00486714	4.74683e-05	0	-2.16186e-05	0.009622	0.00159193	0.0097528	9.39432	5.45981e+06	3.30004e+07	3.3449e+07	-80.6057	0.0000000E+000	0.0000000E+000	0.0000000E+000	80.6057	0.0000000E+000	0.0000000E+000	0.0000000E+000	-80.6057	0.0000000E+000	0.0000000E+000	0.0000000E+000	-9.39432	0.0000000E+000	0.0000000E+000	0.0000000E+000	9.39432	6.04423	80.6057	1.86971e-05	-4.672e-07	889018
0.0315922	105.425	20.4547	107.391	-10.9802	221.82	0.644476	-0.000379802	246290	8935.03	1	12	0.00486975	4.53458e-05	0	-4.09581e-06	0.00914128	0.0017736	0.00931174	10.9802	8.93503e+06	4.60518e+07	4.69106e+07	-79.0198	0.0000000E+000	0.0000000E+000	0.0000000E+000	79.0198	0.0000000E+000	0.0000000E+000	0.0000000E+000	-79.0198	0.0000000E+000	0.0000000E+000	0.0000000E+000	-10.9802	0.0000000E+000	0.0000000E+000	0.0000000E+000	10.9802	5.15408	79.0198	1.75228e-05	-2.44773e-07	1.69687e+06
0.0215268	110.01	25.5284	112.934	-13.0645	319.488	0.644482	-0.00014197	289612	14798.5	1	12	0.00486816	4.31064e-05	0	-9.95701e-06	0.00862557	0.0020016	0.00885476	13.0645	1.47985e+07	6.37718e+07	6.54663e+07	-76.9355	0.0000000E+000	0.0000000E+000	0.0000000E+000	76.9355	0.0000000E+000	0.0000000E+000	0.0000000E+000	-76.9355	0.0000000E+000	0.0000000E+000	0.0000000E+000	-13.0645	0.0000000E+000	0.0000000E+000	0.0000000E+000	13.0645	4.30933	76.9355	-5.8612e-06	-9.14969e-08	4.53957e+06
0.0146812	114.793	31.6219	119.069	-15.4012	462.684	0.644472	-4.84343e-05	342824	24179.6	1	12	0.00486328	4.08441e-05	0	-6.31862e-05	0.00809689	0.00223043	0.00839848	15.4012	2.41796e+07	8.77764e+07	9.10458e+07	-74.5988	0.0000000E+000	0.0000000E+000	0.0000000E+000	74.5988	0.0000000E+000	0.0000000E+000	0.0000000E+000	-74.5988	0.0000000E+000	0.0000000E+000	0.0000000E+000	-15.4012	0.0000000E+000	0.0000000E+000	0.0000000E+000	15.4012	3.63019	74.5988	-5.32292e-05	-3.12146e-08	1.33061e+07
0.0100092	120.676	38.8022	126.761	-17.8247	672.704	0.644477	-9.98283e-05	409794	38397.9	1	12	0.00486557	3.83838e-05	0	-0.00017708	0.00751018	0.00241483	0.00788887	17.8247	3.83979e+07	1.19419e+08	1.2544e+08	-72.1753	0.0000000E+000	0.0000000E+000	0.0000000E+000	72.1753	0.0000000E+000	0.0000000E+000	0.0000000E+000	-72.1753	0.0000000E+000	0.0000000E+000	0.0000000E+000	-17.8247	0.0000000E+000	0.0000000E+000	0.0000000E+000	17.8247	3.11003	72.1753	-0.000113893	-6.4337e-08	6.45586e+06