File: txt/14954_R243_UA603_SOC00_C01.mpt
EC-Lab ASCII FILE
Nb header lines : 63

Potentio Electrochemical Impedance Spectroscopy

Run on channel : 1 (SN 66354)
User :
CE vs. WE compliance from -10 V to 10 V
Electrode connection : standard
Potential control : Ewe
Ewe ctrl range : min = -10.00 V, max = 10.00 V
Safety Limits :
	Do not start on E overload
Acquisition started on : 09/22/2025 10:43:15.806
Loaded Setting File :  C:\Users\Celltest\OneDrive - store-dot.com\Documents\EC-Lab\Data\txt_done\14380_R229_UA592_SOC00_C01.mpr
Saved on :
	File : 14954_R243_UA603_SOC00_C01.mpr
	Directory : C:\Users\Celltest\OneDrive - store-dot.com\Documents\EC-Lab\Data\Anna\
	Host : 169.254.61.224
Device : VMP-3e (SN .003165)
Address : USB
EC-LAB for windows v11.62 (software)
Internet server v27.00 (firmware)
Command interpretor v12.03 (firmware)
Electrode material :
Initial state :
Electrolyte :
Comments :
Electrode surface area : 0.001 cm²
Characteristic mass : 0.001 g
Equivalent Weight : 0.000 g/eq.
Density : 0.000 g/cm3
Volume (V) : 0.001 cm³
Cycle Definition : Charge/Discharge alternance
Mode                Single sine
E (V)               0.0000
vs.                 Eoc
tE (h:m:s)          0:00:0.0000
record              0
dI                  0.000
unit dI             mA
dt (s)              0.000
fi                  100.000
unit fi             kHz
ff                  10.000
unit ff             mHz
Nd                  6
Points              per decade
spacing             Logarithmic
Va (mV)             5.0
pw                  0.10
Na                  2
corr                0
E range min (V)     -10.000
E range max (V)     10.000
I Range             Auto
Bandwidth           5
nc cycles           0
goto Ns'            0
nr cycles           0
inc. cycle          0

freq/Hz	Re(Z)/Ohm	-Im(Z)/Ohm	|Z|/Ohm	Phase(Z)/deg	time/s	<Ewe>/V	<I>/mA	Cs/µF	Cp/µF	cycle number	I Range	|Ewe|/V	|I|/A	Ns	(Q-Qo)/mA.h	Re(Y)/Ohm-1	Im(Y)/Ohm-1	|Y|/Ohm-1	Phase(Y)/deg	Re(C)/nF	Im(C)/nF	|C|/nF	Phase(C)/deg	Re(M)	Im(M)	|M|	Phase(M)/deg	Re(Permittivity)	Im(Permittivity)	|Permittivity|	Phase(Permittivity)/deg	Re(Resistivity)/Ohm.cm	Im(Resistivity)/Ohm.cm	|Resistivity|/Ohm.cm	Phase(Resistivity)/deg	Re(Conductivity)/mS/cm	Im(Conductivity)/mS/cm	|Conductivity|/mS/cm	Phase(Conductivity)/deg	Tan(Delta)	Loss Angle(Delta)/deg	dq/mA.h	Pwe/W	Rwe/Ohm
100004	3.82255	0.525279	3.85847	-7.82434	2.02448	0.362677	-0.0187618	3.0298	0.0561517	1	10	0.00492545	0.00127653	0	-2.52424e-06	0.256757	0.0352825	0.25917	7.82434	56.1517	408.626	412.466	-82.1757	0.0000000E+000	0.0000000E+000	0.0000000E+000	82.1757	0.0000000E+000	0.0000000E+000	0.0000000E+000	-82.1757	0.0000000E+000	0.0000000E+000	0.0000000E+000	-7.82434	0.0000000E+000	0.0000000E+000	0.0000000E+000	7.82434	7.27719	82.1757	-2.52424e-06	-6.8045e-06	19330.6
68132	3.92045	0.539649	3.95741	-7.8375	2.4615	0.362675	-0.017804	4.3287	0.0804928	1	10	0.00534	0.00134937	0	-3.4063e-06	0.25033	0.0344579	0.25269	7.8375	80.4928	584.765	590.279	-82.1625	0.0000000E+000	0.0000000E+000	0.0000000E+000	82.1625	0.0000000E+000	0.0000000E+000	0.0000000E+000	-82.1625	0.0000000E+000	0.0000000E+000	0.0000000E+000	-7.8375	0.0000000E+000	0.0000000E+000	0.0000000E+000	7.8375	7.26481	82.1625	-8.82062e-07	-6.45708e-06	20370.4
46420.4	4.02471	0.562404	4.06381	-7.95488	2.89849	0.362681	-0.0175431	6.09626	0.11676	1	10	0.00534154	0.00131442	0	-3.72849e-06	0.243707	0.034055	0.246075	7.95488	116.76	835.563	843.681	-82.0451	0.0000000E+000	0.0000000E+000	0.0000000E+000	82.0451	0.0000000E+000	0.0000000E+000	0.0000000E+000	-82.0451	0.0000000E+000	0.0000000E+000	0.0000000E+000	-7.95488	0.0000000E+000	0.0000000E+000	0.0000000E+000	7.95488	7.15626	82.0451	-3.22186e-07	-6.36255e-06	20673.6
31621.1	4.1343	0.604655	4.17828	-8.3207	3.33548	0.362678	-0.0175935	8.32406	0.174323	1	10	0.0052575	0.00125829	0	-5.79788e-06	0.236814	0.0346347	0.239333	8.3207	174.323	1191.93	1204.61	-81.6793	0.0000000E+000	0.0000000E+000	0.0000000E+000	81.6793	0.0000000E+000	0.0000000E+000	0.0000000E+000	-81.6793	0.0000000E+000	0.0000000E+000	0.0000000E+000	-8.3207	0.0000000E+000	0.0000000E+000	0.0000000E+000	8.3207	6.83745	81.6793	-2.06939e-06	-6.38076e-06	20614.4
21544.7	4.26495	0.667569	4.31688	-8.89602	3.77248	0.362675	-0.0170009	11.0658	0.264629	1	10	0.00524967	0.00121608	0	-8.76548e-06	0.228862	0.0358226	0.231649	8.89602	264.629	1690.65	1711.24	-81.104	0.0000000E+000	0.0000000E+000	0.0000000E+000	81.104	0.0000000E+000	0.0000000E+000	0.0000000E+000	-81.104	0.0000000E+000	0.0000000E+000	0.0000000E+000	-8.89602	0.0000000E+000	0.0000000E+000	0.0000000E+000	8.89602	6.38877	81.104	-2.9676e-06	-6.16578e-06	21332.7
14678.6	4.39755	0.743182	4.4599	-9.59231	4.21048	0.362687	-0.0157113	14.5895	0.405117	1	10	0.00523263	0.00117326	0	-1.20759e-05	0.221085	0.0373632	0.22422	9.59231	405.117	2397.15	2431.14	-80.4077	0.0000000E+000	0.0000000E+000	0.0000000E+000	80.4077	0.0000000E+000	0.0000000E+000	0.0000000E+000	-80.4077	0.0000000E+000	0.0000000E+000	0.0000000E+000	-9.59231	0.0000000E+000	0.0000000E+000	0.0000000E+000	9.59231	5.91719	80.4077	-3.31044e-06	-5.69829e-06	23084.4
10002.2	4.56713	0.83579	4.64297	-10.3704	4.64748	0.362681	-0.0167605	19.0382	0.61692	1	10	0.00509825	0.00109806	0	-1.36387e-05	0.211861	0.0387708	0.215379	10.3704	616.92	3371.12	3427.11	-79.6295	0.0000000E+000	0.0000000E+000	0.0000000E+000	79.6295	0.0000000E+000	0.0000000E+000	0.0000000E+000	-79.6295	0.0000000E+000	0.0000000E+000	0.0000000E+000	-10.3704	0.0000000E+000	0.0000000E+000	0.0000000E+000	10.3704	5.46444	79.6295	-1.56277e-06	-6.07871e-06	21639.1
6811.07	4.74485	0.958846	4.84076	-11.4246	5.20149	0.362718	-0.00688409	24.37	0.956151	1	10	0.00506777	0.0010469	0	-1.21043e-05	0.202486	0.0409187	0.206579	11.4246	956.151	4731.51	4827.15	-78.5754	0.0000000E+000	0.0000000E+000	0.0000000E+000	78.5754	0.0000000E+000	0.0000000E+000	0.0000000E+000	-78.5754	0.0000000E+000	0.0000000E+000	0.0000000E+000	-11.4246	0.0000000E+000	0.0000000E+000	0.0000000E+000	11.4246	4.9485	78.5754	1.53442e-06	-2.49698e-06	52689.3
4641.49	4.96264	1.10533	5.08425	-12.5565	5.67271	0.362737	-0.000192374	31.0221	1.46623	1	10	0.00524665	0.00103194	0	-1.13286e-05	0.191982	0.0427601	0.196686	12.5565	1466.23	6582.99	6744.3	-77.4435	0.0000000E+000	0.0000000E+000	0.0000000E+000	77.4435	0.0000000E+000	0.0000000E+000	0.0000000E+000	-77.4435	0.0000000E+000	0.0000000E+000	0.0000000E+000	-12.5565	0.0000000E+000	0.0000000E+000	0.0000000E+000	12.5565	4.48974	77.4435	7.75701e-07	-6.97811e-08	1.88559e+06
3161.01	5.2088	1.27866	5.36345	-13.7923	6.1397	0.362753	0.000489656	39.3766	2.238	1	10	0.00529547	0.000987325	0	-1.13489e-05	0.181071	0.0444495	0.186447	13.7923	2238	9116.82	9387.49	-76.2077	0.0000000E+000	0.0000000E+000	0.0000000E+000	76.2077	0.0000000E+000	0.0000000E+000	0.0000000E+000	-76.2077	0.0000000E+000	0.0000000E+000	0.0000000E+000	-13.7923	0.0000000E+000	0.0000000E+000	0.0000000E+000	13.7923	4.07364	76.2077	-2.03365e-08	1.77624e-07	740831
2155.69	5.47787	1.48355	5.67521	-15.1537	6.6067	0.362749	0.000159823	49.7658	3.40074	1	10	0.00527863	0.00093012	0	-1.14984e-05	0.170078	0.0460616	0.176205	15.1537	3400.74	12556.9	13009.2	-74.8463	0.0000000E+000	0.0000000E+000	0.0000000E+000	74.8463	0.0000000E+000	0.0000000E+000	0.0000000E+000	-74.8463	0.0000000E+000	0.0000000E+000	0.0000000E+000	-15.1537	0.0000000E+000	0.0000000E+000	0.0000000E+000	15.1537	3.6924	74.8463	-1.49469e-07	5.79755e-08	2.26969e+06
1468.59	5.80416	1.72896	6.05621	-16.5879	7.07395	0.362741	0.000346168	62.6807	5.10862	1	10	0.00526488	0.000869336	0	-1.08003e-05	0.158248	0.0471394	0.16512	16.5879	5108.62	17149.8	17894.5	-73.4121	0.0000000E+000	0.0000000E+000	0.0000000E+000	73.4121	0.0000000E+000	0.0000000E+000	0.0000000E+000	-73.4121	0.0000000E+000	0.0000000E+000	0.0000000E+000	-16.5879	0.0000000E+000	0.0000000E+000	0.0000000E+000	16.5879	3.35702	73.4121	6.98093e-07	1.25569e-07	1.04787e+06
1000.32	6.17416	2.0175	6.49543	-18.0956	7.54367	0.362744	0.000519466	78.862	7.60815	1	10	0.00524265	0.000807129	0	-1.13367e-05	0.14634	0.0478187	0.153954	18.0956	7608.15	23283.3	24494.8	-71.9044	0.0000000E+000	0.0000000E+000	0.0000000E+000	71.9044	0.0000000E+000	0.0000000E+000	0.0000000E+000	-71.9044	0.0000000E+000	0.0000000E+000	0.0000000E+000	-18.0956	0.0000000E+000	0.0000000E+000	0.0000000E+000	18.0956	3.06031	71.9044	-5.36433e-07	1.88433e-07	698301
681.09	6.57975	2.38208	6.99768	-19.9019	8.00945	0.362737	-8.80282e-05	98.0976	11.3675	1	10	0.00522146	0.000746171	0	-1.13442e-05	0.13437	0.0486463	0.142905	19.9019	11367.5	31399.1	33393.5	-70.0981	0.0000000E+000	0.0000000E+000	0.0000000E+000	70.0981	0.0000000E+000	0.0000000E+000	0.0000000E+000	-70.0981	0.0000000E+000	0.0000000E+000	0.0000000E+000	-19.9019	0.0000000E+000	0.0000000E+000	0.0000000E+000	19.9019	2.76218	70.0981	-7.5371e-09	-3.1931e-08	4.12069e+06
463.961	7.06614	2.86085	7.62331	-22.0414	8.4782	0.362742	9.27264e-05	119.907	16.8868	1	10	0.00521588	0.000684201	0	-1.145e-05	0.121589	0.0492276	0.131177	22.0414	16886.8	41709.4	44998.2	-67.9586	0.0000000E+000	0.0000000E+000	0.0000000E+000	67.9586	0.0000000E+000	0.0000000E+000	0.0000000E+000	-67.9586	0.0000000E+000	0.0000000E+000	0.0000000E+000	-22.0414	0.0000000E+000	0.0000000E+000	0.0000000E+000	22.0414	2.46994	67.9586	-1.05793e-07	3.36358e-08	3.91196e+06
316.316	7.62657	3.46028	8.37485	-24.4044	8.94491	0.362739	-2.30969e-06	145.408	24.8231	1	10	0.00520124	0.000621055	0	-1.19008e-05	0.108736	0.0493352	0.119405	24.4044	24823.1	54711	60078.9	-65.5956	0.0000000E+000	0.0000000E+000	0.0000000E+000	65.5956	0.0000000E+000	0.0000000E+000	0.0000000E+000	-65.5956	0.0000000E+000	0.0000000E+000	0.0000000E+000	-24.4044	0.0000000E+000	0.0000000E+000	0.0000000E+000	24.4044	2.20403	65.5956	-4.50795e-07	-8.37816e-10	1.57051e+08
215.345	8.32427	4.25768	9.34993	-27.0887	9.41243	0.362731	-0.000483088	173.586	35.995	1	10	0.00519191	0.000555288	0	-1.21645e-05	0.0952202	0.048703	0.106953	27.0887	35995	70374.5	79045.6	-62.9113	0.0000000E+000	0.0000000E+000	0.0000000E+000	62.9113	0.0000000E+000	0.0000000E+000	0.0000000E+000	-62.9113	0.0000000E+000	0.0000000E+000	0.0000000E+000	-27.0887	0.0000000E+000	0.0000000E+000	0.0000000E+000	27.0887	1.95512	62.9113	-2.63663e-07	-1.75231e-07	750860
146.737	9.26487	5.2651	10.6564	-29.609	9.87541	0.362731	-0.00082224	206.002	50.288	1	10	0.00519138	0.00048716	0	-1.19537e-05	0.0815863	0.0463644	0.0938402	29.609	50288	88490.5	101781	-60.391	0.0000000E+000	0.0000000E+000	0.0000000E+000	60.391	0.0000000E+000	0.0000000E+000	0.0000000E+000	-60.391	0.0000000E+000	0.0000000E+000	0.0000000E+000	-29.609	0.0000000E+000	0.0000000E+000	0.0000000E+000	29.609	1.75967	60.391	2.10806e-07	-2.98252e-07	441150
100.032	10.5742	6.49673	12.4105	-31.5665	10.3437	0.362739	0.000463551	244.899	67.1117	1	10	0.00519456	0.000418563	0	-1.14852e-05	0.0686543	0.042181	0.080577	31.5665	67111.7	109232	128201	-58.4335	0.0000000E+000	0.0000000E+000	0.0000000E+000	58.4335	0.0000000E+000	0.0000000E+000	0.0000000E+000	-58.4335	0.0000000E+000	0.0000000E+000	0.0000000E+000	-31.5665	0.0000000E+000	0.0000000E+000	0.0000000E+000	31.5665	1.62761	58.4335	4.68502e-07	1.68148e-07	782522
68.104	12.4077	7.83188	14.6727	-32.2606	10.8223	0.362747	0.00138224	298.388	85.0141	1	10	0.00519211	0.000353861	0	-1.09437e-05	0.0576327	0.0363784	0.0681536	32.2606	85014.1	134684	159271	-57.7394	0.0000000E+000	0.0000000E+000	0.0000000E+000	57.7394	0.0000000E+000	0.0000000E+000	0.0000000E+000	-57.7394	0.0000000E+000	0.0000000E+000	0.0000000E+000	-32.2606	0.0000000E+000	0.0000000E+000	0.0000000E+000	32.2606	1.58426	57.7394	5.41541e-07	5.01403e-07	262434
46.4415	14.8201	9.0097	17.3439	-31.2969	11.2776	0.362719	-0.00242297	380.367	102.643	1	10	0.00518738	0.00029909	0	-1.10293e-05	0.0492673	0.0299514	0.0576572	31.2969	102643	168839	197591	-58.7031	0.0000000E+000	0.0000000E+000	0.0000000E+000	58.7031	0.0000000E+000	0.0000000E+000	0.0000000E+000	-58.7031	0.0000000E+000	0.0000000E+000	0.0000000E+000	-31.2969	0.0000000E+000	0.0000000E+000	0.0000000E+000	31.2969	1.64491	58.7031	-8.56143e-08	-8.78856e-07	149700
31.6296	17.8133	9.77173	20.3175	-28.7476	11.9684	0.362745	-0.00607337	514.939	119.113	1	11	0.0051869	0.000255293	0	-1.17165e-05	0.0431524	0.0236719	0.0492188	28.7476	119113	217136	247661	-61.2524	0.0000000E+000	0.0000000E+000	0.0000000E+000	61.2524	0.0000000E+000	0.0000000E+000	0.0000000E+000	-61.2524	0.0000000E+000	0.0000000E+000	0.0000000E+000	-28.7476	0.0000000E+000	0.0000000E+000	0.0000000E+000	28.7476	1.82294	61.2524	-6.87253e-07	-2.20308e-06	59727.1
21.5517	20.9522	9.82939	23.1433	-25.1329	12.4074	0.362745	-0.00628359	751.297	135.523	1	11	0.00518075	0.000223855	0	-1.17406e-05	0.0391182	0.0183517	0.043209	25.1329	135523	288880	319090	-64.8671	0.0000000E+000	0.0000000E+000	0.0000000E+000	64.8671	0.0000000E+000	0.0000000E+000	0.0000000E+000	-64.8671	0.0000000E+000	0.0000000E+000	0.0000000E+000	-25.1329	0.0000000E+000	0.0000000E+000	0.0000000E+000	25.1329	2.13159	64.8671	-2.41175e-08	-2.27934e-06	57728.9
14.6852	23.939	9.23677	25.6591	-21.0989	12.8851	0.362757	-0.00501969	1173.33	152.047	1	11	0.00518276	0.000201985	0	-1.25135e-05	0.0363598	0.0140293	0.0389725	21.0989	152047	394060	422376	-68.901	0.0000000E+000	0.0000000E+000	0.0000000E+000	68.901	0.0000000E+000	0.0000000E+000	0.0000000E+000	-68.901	0.0000000E+000	0.0000000E+000	0.0000000E+000	-21.0989	0.0000000E+000	0.0000000E+000	0.0000000E+000	21.0989	2.5917	68.901	-7.72867e-07	-1.82093e-06	72266.9
10.0032	26.4921	8.27921	27.7556	-17.3549	13.3537	0.362754	-0.00516194	1921.73	170.989	1	11	0.00518809	0.00018692	0	-1.45225e-05	0.0343885	0.010747	0.0360287	17.3549	170989	547136	573232	-72.6451	0.0000000E+000	0.0000000E+000	0.0000000E+000	72.6451	0.0000000E+000	0.0000000E+000	0.0000000E+000	-72.6451	0.0000000E+000	0.0000000E+000	0.0000000E+000	-17.3549	0.0000000E+000	0.0000000E+000	0.0000000E+000	17.3549	3.19983	72.6451	-2.00902e-06	-1.87251e-06	70274.6
6.81719	28.4594	7.02534	29.3137	-13.8665	13.7114	0.362758	-0.00541126	3323.13	190.871	1	11	0.00517871	0.000176665	0	-1.36494e-05	0.0331195	0.0081757	0.0341137	13.8665	190871	773212	796423	-76.1335	0.0000000E+000	0.0000000E+000	0.0000000E+000	76.1335	0.0000000E+000	0.0000000E+000	0.0000000E+000	-76.1335	0.0000000E+000	0.0000000E+000	0.0000000E+000	-13.8665	0.0000000E+000	0.0000000E+000	0.0000000E+000	13.8665	4.05097	76.1335	8.7309e-07	-1.96298e-06	67037.6
4.63925	30.0265	5.88445	30.5977	-11.088	14.2133	0.362763	-0.00440934	5829.97	215.626	1	11	0.00518549	0.000169474	0	-1.66232e-05	0.0320721	0.00628534	0.0326822	11.088	215626	1.10027e+06	1.1212e+06	-78.912	0.0000000E+000	0.0000000E+000	0.0000000E+000	78.912	0.0000000E+000	0.0000000E+000	0.0000000E+000	-78.912	0.0000000E+000	0.0000000E+000	0.0000000E+000	-11.088	0.0000000E+000	0.0000000E+000	0.0000000E+000	11.088	5.10269	78.912	-2.97372e-06	-1.59954e-06	82271.4
3.1604	31.2651	4.89442	31.6459	-8.89722	14.9222	0.36277	-0.00423851	10289.1	246.12	1	11	0.00518823	0.000163947	0	-1.60677e-05	0.0312195	0.00488729	0.0315997	8.89722	246120	1.57219e+06	1.59134e+06	-81.1028	0.0000000E+000	0.0000000E+000	0.0000000E+000	81.1028	0.0000000E+000	0.0000000E+000	0.0000000E+000	-81.1028	0.0000000E+000	0.0000000E+000	0.0000000E+000	-8.89722	0.0000000E+000	0.0000000E+000	0.0000000E+000	8.89722	6.3879	81.1028	5.5548e-07	-1.5376e-06	85589.2
2.15577	32.0901	4.03018	32.3422	-7.15827	15.9377	0.36278	-0.00313674	18318.7	284.449	1	11	0.00518263	0.000160244	0	-1.37097e-05	0.0306784	0.00385288	0.0309194	7.15827	284449	2.26491e+06	2.2827e+06	-82.8417	0.0000000E+000	0.0000000E+000	0.0000000E+000	82.8417	0.0000000E+000	0.0000000E+000	0.0000000E+000	-82.8417	0.0000000E+000	0.0000000E+000	0.0000000E+000	-7.15827	0.0000000E+000	0.0000000E+000	0.0000000E+000	7.15827	7.96245	82.8417	2.35794e-06	-1.13795e-06	115655
1.46631	32.8085	3.35625	32.9797	-5.84094	17.411	0.362779	-0.00261407	32340	334.93	1	11	0.00518503	0.000157219	0	-1.4074e-05	0.0301642	0.00308574	0.0303216	5.84094	334930	3.27406e+06	3.29115e+06	-84.1591	0.0000000E+000	0.0000000E+000	0.0000000E+000	84.1591	0.0000000E+000	0.0000000E+000	0.0000000E+000	-84.1591	0.0000000E+000	0.0000000E+000	0.0000000E+000	-5.84094	0.0000000E+000	0.0000000E+000	0.0000000E+000	5.84094	9.77535	84.1591	-3.64277e-07	-9.48329e-07	138779
1.00006	33.3447	2.86134	33.4673	-4.90458	20.6021	0.362775	-0.00281786	55618.9	406.557	1	12	0.00518727	0.000154995	0	-2.10891e-05	0.0297705	0.00255463	0.0298799	4.90458	406557	4.73782e+06	4.75523e+06	-85.0954	0.0000000E+000	0.0000000E+000	0.0000000E+000	85.0954	0.0000000E+000	0.0000000E+000	0.0000000E+000	-85.0954	0.0000000E+000	0.0000000E+000	0.0000000E+000	-4.90458	0.0000000E+000	0.0000000E+000	0.0000000E+000	4.90458	11.6535	85.0954	-7.01511e-06	-1.02225e-06	128741
0.681362	33.7741	2.53925	33.8694	-4.2996	23.7221	0.362778	-0.00260093	91989.2	517.05	1	12	0.0051851	0.000153091	0	-3.03038e-05	0.0294421	0.00221356	0.0295252	4.2996	517051	6.87718e+06	6.89659e+06	-85.7004	0.0000000E+000	0.0000000E+000	0.0000000E+000	85.7004	0.0000000E+000	0.0000000E+000	0.0000000E+000	-85.7004	0.0000000E+000	0.0000000E+000	0.0000000E+000	-4.2996	0.0000000E+000	0.0000000E+000	0.0000000E+000	4.2996	13.3008	85.7004	-9.21463e-06	-9.4356e-07	139480
0.464091	34.1835	2.41895	34.269	-4.0477	28.2868	0.362771	-0.00307283	141772	706.383	1	12	0.00518713	0.000151365	0	-3.87542e-05	0.0291081	0.00205979	0.0291809	4.0477	706383	9.98231e+06	1.00073e+07	-85.9523	0.0000000E+000	0.0000000E+000	0.0000000E+000	85.9523	0.0000000E+000	0.0000000E+000	0.0000000E+000	-85.9523	0.0000000E+000	0.0000000E+000	0.0000000E+000	-4.0477	0.0000000E+000	0.0000000E+000	0.0000000E+000	4.0477	14.1316	85.9523	-8.4504e-06	-1.11474e-06	118058
0.316193	34.579	2.50612	34.6697	-4.14528	34.9689	0.362777	-0.00321225	200847	1049.47	1	12	0.00518682	0.000149607	0	-4.10064e-05	0.0287681	0.00208498	0.0288436	4.14528	1.04947e+06	1.44804e+07	1.45183e+07	-85.8547	0.0000000E+000	0.0000000E+000	0.0000000E+000	85.8547	0.0000000E+000	0.0000000E+000	0.0000000E+000	-85.8547	0.0000000E+000	0.0000000E+000	0.0000000E+000	-4.14528	0.0000000E+000	0.0000000E+000	0.0000000E+000	4.14528	13.7978	85.8547	-2.25225e-06	-1.16533e-06	112935
0.215268	34.9597	2.79121	35.071	-4.56485	44.7667	0.362776	-0.00302514	264880	1677.79	1	12	0.00518596	0.00014787	0	-3.29808e-05	0.0284231	0.00226932	0.0285136	4.56485	1.67779e+06	2.10142e+07	2.10811e+07	-85.4351	0.0000000E+000	0.0000000E+000	0.0000000E+000	85.4351	0.0000000E+000	0.0000000E+000	0.0000000E+000	-85.4351	0.0000000E+000	0.0000000E+000	0.0000000E+000	-4.56485	0.0000000E+000	0.0000000E+000	0.0000000E+000	4.56485	12.5249	85.4351	8.02564e-06	-1.09745e-06	119920
0.146929	35.4596	3.27179	35.6102	-5.27165	59.1023	0.362772	-0.00244849	331076	2794.79	1	12	0.00518787	0.000145685	0	-1.50977e-05	0.027963	0.0025801	0.0280818	5.27165	2.79479e+06	3.02899e+07	3.04186e+07	-84.7283	0.0000000E+000	0.0000000E+000	0.0000000E+000	84.7283	0.0000000E+000	0.0000000E+000	0.0000000E+000	-84.7283	0.0000000E+000	0.0000000E+000	0.0000000E+000	-5.27165	0.0000000E+000	0.0000000E+000	0.0000000E+000	5.27165	10.838	84.7283	1.78831e-05	-8.88245e-07	148162
0.0999041	36.1829	3.97741	36.4009	-6.27306	80.1721	0.362777	-0.00141194	400531	4782.05	1	12	0.00518727	0.000142504	0	4.67223e-06	0.0273074	0.00300177	0.0274719	6.27306	4.78205e+06	4.35028e+07	4.37648e+07	-83.7269	0.0000000E+000	0.0000000E+000	0.0000000E+000	83.7269	0.0000000E+000	0.0000000E+000	0.0000000E+000	-83.7269	0.0000000E+000	0.0000000E+000	0.0000000E+000	-6.27306	0.0000000E+000	0.0000000E+000	0.0000000E+000	6.27306	9.0971	83.7269	1.97699e-05	-5.12219e-07	256935
0.0680626	37.0883	5.06539	37.4326	-7.77715	111.084	0.362768	-0.000558548	461635	8453.28	1	12	0.00518507	0.000138518	0	1.09399e-05	0.026469	0.00361505	0.0267147	7.77715	8.45328e+06	6.1894e+07	6.24686e+07	-82.2228	0.0000000E+000	0.0000000E+000	0.0000000E+000	82.2228	0.0000000E+000	0.0000000E+000	0.0000000E+000	-82.2228	0.0000000E+000	0.0000000E+000	0.0000000E+000	-7.77715	0.0000000E+000	0.0000000E+000	0.0000000E+000	7.77715	7.32189	82.2228	6.26769e-06	-2.02624e-07	649484
0.0464052	38.1726	6.49498	38.7212	-9.65625	156.408	0.36277	0.000114044	528051	14857	1	12	0.00518593	0.00013393	0	-2.7317e-05	0.0254597	0.0043319	0.0258256	9.65625	1.4857e+07	8.73186e+07	8.85736e+07	-80.3438	0.0000000E+000	0.0000000E+000	0.0000000E+000	80.3438	0.0000000E+000	0.0000000E+000	0.0000000E+000	-80.3438	0.0000000E+000	0.0000000E+000	0.0000000E+000	-9.65625	0.0000000E+000	0.0000000E+000	0.0000000E+000	9.65625	5.87726	80.3438	-3.8257e-05	4.13716e-08	3.18097e+06
0.0315922	39.4543	8.14807	40.2869	-11.6686	222.97	0.362769	0.000153753	618280	25291.1	1	12	0.00518536	0.000128711	0	-0.000132434	0.024309	0.00502028	0.024822	11.6686	2.52911e+07	1.22464e+08	1.25048e+08	-78.3314	0.0000000E+000	0.0000000E+000	0.0000000E+000	78.3314	0.0000000E+000	0.0000000E+000	0.0000000E+000	-78.3314	0.0000000E+000	0.0000000E+000	0.0000000E+000	-11.6686	0.0000000E+000	0.0000000E+000	0.0000000E+000	11.6686	4.84216	78.3314	-0.000105117	5.57766e-08	2.35943e+06
0.0215268	41.1821	10.1646	42.418	-13.8647	320.638	0.362769	-0.000245963	727360	41766.9	1	12	0.00518664	0.000122275	0	-0.00029421	0.022888	0.00564925	0.0235749	13.8647	4.17669e+07	1.69219e+08	1.74297e+08	-76.1353	0.0000000E+000	0.0000000E+000	0.0000000E+000	76.1353	0.0000000E+000	0.0000000E+000	0.0000000E+000	-76.1353	0.0000000E+000	0.0000000E+000	0.0000000E+000	-13.8647	0.0000000E+000	0.0000000E+000	0.0000000E+000	13.8647	4.05151	76.1353	-0.000161776	-8.92276e-08	1.47489e+06
0.0146812	43.3065	12.9544	45.2025	-16.6536	463.834	0.362767	-0.000699636	836840	68730.7	1	12	0.00518764	0.000114764	0	-0.000447203	0.0211947	0.00634003	0.0221227	16.6536	6.87307e+07	2.29767e+08	2.39826e+08	-73.3464	0.0000000E+000	0.0000000E+000	0.0000000E+000	73.3464	0.0000000E+000	0.0000000E+000	0.0000000E+000	-73.3464	0.0000000E+000	0.0000000E+000	0.0000000E+000	-16.6536	0.0000000E+000	0.0000000E+000	0.0000000E+000	16.6536	3.343	73.3464	-0.000152992	-2.53805e-07	518508

0.0100092	45.4822	16.7696	48.4752	-20.2393	673.854	0.362761	-0.000807301	948199	113476	1	12	0.00518884	0.000107041	0	-0.000468825	0.0193554	0.00713647	0.0206291	20.2393	1.13476e+08	3.07768e+08	3.28022e+08	-69.7607	0.0000000E+000	0.0000000E+000	0.0000000E+000	69.7607	0.0000000E+000	0.0000000E+000	0.0000000E+000	-69.7607	0.0000000E+000	0.0000000E+000	0.0000000E+000	-20.2393	0.0000000E+000	0.0000000E+000	0.0000000E+000	20.2393	2.71218	69.7607	-2.16225e-05	-2.92858e-07	449350