File: txt/14956_R243_UA603_SOC00_C03.mpt
EC-Lab ASCII FILE
Nb header lines : 63

Potentio Electrochemical Impedance Spectroscopy

Run on channel : 3 (SN 65921)
User :
CE vs. WE compliance from -10 V to 10 V
Electrode connection : standard
Potential control : Ewe
Ewe ctrl range : min = -10.00 V, max = 10.00 V
Safety Limits :
	Do not start on E overload
Acquisition started on : 09/22/2025 10:43:40.735
Loaded Setting File :  C:\Users\Celltest\OneDrive - store-dot.com\Documents\EC-Lab\Data\Gyutae\17738_R277_UA674_SOC00_C02.mpr
Saved on :
	File : 14956_R243_UA603_SOC00_C03.mpr
	Directory : C:\Users\Celltest\OneDrive - store-dot.com\Documents\EC-Lab\Data\Anna\
	Host : 169.254.61.224
Device : VMP-3e (SN .003165)
Address : USB
EC-LAB for windows v11.62 (software)
Internet server v27.00 (firmware)
Command interpretor v12.03 (firmware)
Electrode material :
Initial state :
Electrolyte :
Comments :
Electrode surface area : 0.001 cm²
Characteristic mass : 0.001 g
Equivalent Weight : 0.000 g/eq.
Density : 0.000 g/cm3
Volume (V) : 0.001 cm³
Cycle Definition : Charge/Discharge alternance
Mode                Single sine
E (V)               0.0000
vs.                 Eoc
tE (h:m:s)          0:00:0.0000
record              0
dI                  0.000
unit dI             mA
dt (s)              0.000
fi                  100.000
unit fi             kHz
ff                  10.000
unit ff             mHz
Nd                  6
Points              per decade
spacing             Logarithmic
Va (mV)             5.0
pw                  0.10
Na                  2
corr                0
E range min (V)     -10.000
E range max (V)     10.000
I Range             Auto
Bandwidth           5
nc cycles           0
goto Ns'            0
nr cycles           0
inc. cycle          0

freq/Hz	Re(Z)/Ohm	-Im(Z)/Ohm	|Z|/Ohm	Phase(Z)/deg	time/s	<Ewe>/V	<I>/mA	Cs/µF	Cp/µF	cycle number	I Range	|Ewe|/V	|I|/A	Ns	(Q-Qo)/mA.h	Re(Y)/Ohm-1	Im(Y)/Ohm-1	|Y|/Ohm-1	Phase(Y)/deg	Re(C)/nF	Im(C)/nF	|C|/nF	Phase(C)/deg	Re(M)	Im(M)	|M|	Phase(M)/deg	Re(Permittivity)	Im(Permittivity)	|Permittivity|	Phase(Permittivity)/deg	Re(Resistivity)/Ohm.cm	Im(Resistivity)/Ohm.cm	|Resistivity|/Ohm.cm	Phase(Resistivity)/deg	Re(Conductivity)/mS/cm	Im(Conductivity)/mS/cm	|Conductivity|/mS/cm	Phase(Conductivity)/deg	Tan(Delta)	Loss Angle(Delta)/deg	dq/mA.h	Pwe/W	Rwe/Ohm
100004	5.28971	1.23032	5.4309	-13.0935	2.02549	0.291812	-0.00407256	1.29356	0.0663862	1	10	0.00477534	0.00087929	0	-1.65152e-06	0.179344	0.0417132	0.184131	13.0935	66.3862	285.425	293.043	-76.9065	0.0000000E+000	0.0000000E+000	0.0000000E+000	76.9065	0.0000000E+000	0.0000000E+000	0.0000000E+000	-76.9065	0.0000000E+000	0.0000000E+000	0.0000000E+000	-13.0935	0.0000000E+000	0.0000000E+000	0.0000000E+000	13.0935	4.29946	76.9065	-1.65152e-06	-1.18842e-06	71653.1
68132	5.56429	1.34203	5.72384	-13.56	2.4625	0.291788	-0.00413968	1.74063	0.095688	1	10	0.00541021	0.000945207	0	-3.49567e-06	0.169838	0.0409627	0.174708	13.56	95.6879	396.738	408.114	-76.44	0.0000000E+000	0.0000000E+000	0.0000000E+000	76.44	0.0000000E+000	0.0000000E+000	0.0000000E+000	-76.44	0.0000000E+000	0.0000000E+000	0.0000000E+000	-13.56	0.0000000E+000	0.0000000E+000	0.0000000E+000	13.56	4.14616	76.44	-1.84415e-06	-1.20791e-06	70485.6
46420.4	5.87099	1.46747	6.05161	-14.0337	3.04049	0.291796	-0.00345729	2.33638	0.137385	1	10	0.00508094	0.000839602	0	-2.83709e-06	0.160313	0.0400708	0.165245	14.0337	137.385	549.644	566.554	-75.9663	0.0000000E+000	0.0000000E+000	0.0000000E+000	75.9663	0.0000000E+000	0.0000000E+000	0.0000000E+000	-75.9663	0.0000000E+000	0.0000000E+000	0.0000000E+000	-14.0337	0.0000000E+000	0.0000000E+000	0.0000000E+000	14.0337	4.00076	75.9663	6.58581e-07	-1.00882e-06	84400
31621.1	6.20953	1.61851	6.41699	-14.609	3.47749	0.291794	-0.00316458	3.10977	0.197831	1	10	0.00545912	0.000850729	0	-3.03939e-06	0.150798	0.0393053	0.155836	14.609	197.831	758.994	784.352	-75.391	0.0000000E+000	0.0000000E+000	0.0000000E+000	75.391	0.0000000E+000	0.0000000E+000	0.0000000E+000	-75.391	0.0000000E+000	0.0000000E+000	0.0000000E+000	-14.609	0.0000000E+000	0.0000000E+000	0.0000000E+000	14.609	3.83658	75.391	-2.02301e-07	-9.23405e-07	92206.4
21544.7	6.58322	1.78028	6.81969	-15.1323	4.05648	0.291794	-0.00280289	4.14947	0.282773	1	10	0.00508526	0.000745673	0	-3.96461e-06	0.14155	0.0382788	0.146634	15.1323	282.773	1045.66	1083.22	-74.8677	0.0000000E+000	0.0000000E+000	0.0000000E+000	74.8677	0.0000000E+000	0.0000000E+000	0.0000000E+000	-74.8677	0.0000000E+000	0.0000000E+000	0.0000000E+000	-15.1323	0.0000000E+000	0.0000000E+000	0.0000000E+000	15.1323	3.69787	74.8677	-9.25217e-07	-8.17865e-07	104105
14678.6	7.01024	1.98191	7.28502	-15.7865	4.4935	0.291797	-0.00280289	5.4708	0.40491	1	10	0.00546129	0.00074966	0	-4.62305e-06	0.132091	0.0373442	0.137268	15.7865	404.91	1432.21	1488.35	-74.2135	0.0000000E+000	0.0000000E+000	0.0000000E+000	74.2135	0.0000000E+000	0.0000000E+000	0.0000000E+000	-74.2135	0.0000000E+000	0.0000000E+000	0.0000000E+000	-15.7865	0.0000000E+000	0.0000000E+000	0.0000000E+000	15.7865	3.53711	74.2135	-6.5844e-07	-8.17874e-07	104106
10002.2	7.47538	2.20905	7.79495	-16.463	4.93048	0.291791	-0.0027078	7.20307	0.5785	1	10	0.0054715	0.00070193	0	-5.532e-06	0.123029	0.0363563	0.128288	16.463	578.5	1957.63	2041.32	-73.537	0.0000000E+000	0.0000000E+000	0.0000000E+000	73.537	0.0000000E+000	0.0000000E+000	0.0000000E+000	-73.537	0.0000000E+000	0.0000000E+000	0.0000000E+000	-16.463	0.0000000E+000	0.0000000E+000	0.0000000E+000	16.463	3.38398	73.537	-9.08958e-07	-7.90112e-07	107760
6811.07	7.98244	2.46419	8.35414	-17.1555	5.48649	0.291781	-0.00445292	9.48267	0.825041	1	10	0.00543067	0.000650058	0	-4.37547e-06	0.114375	0.0353078	0.119701	17.1555	825.041	2672.62	2797.07	-72.8445	0.0000000E+000	0.0000000E+000	0.0000000E+000	72.8445	0.0000000E+000	0.0000000E+000	0.0000000E+000	-72.8445	0.0000000E+000	0.0000000E+000	0.0000000E+000	-17.1555	0.0000000E+000	0.0000000E+000	0.0000000E+000	17.1555	3.23938	72.8445	1.15653e-06	-1.29928e-06	65525.8
4641.49	8.57253	2.76041	9.006	-17.8489	6.18069	0.291803	-0.00082285	12.422	1.167	1	10	0.00523449	0.000581223	0	-5.1523e-06	0.105693	0.0340337	0.111037	17.8489	1167	3624.16	3807.42	-72.1511	0.0000000E+000	0.0000000E+000	0.0000000E+000	72.1511	0.0000000E+000	0.0000000E+000	0.0000000E+000	-72.1511	0.0000000E+000	0.0000000E+000	0.0000000E+000	-17.8489	0.0000000E+000	0.0000000E+000	0.0000000E+000	17.8489	3.10553	72.1511	-7.76824e-07	-2.4011e-07	354624
3161.01	9.20744	3.08928	9.71188	-18.5476	6.87069	0.291804	-0.000789295	16.2981	1.64909	1	10	0.0051583	0.000531133	0	-4.63652e-06	0.0976186	0.032753	0.102967	18.5476	1649.09	4915.03	5184.31	-71.4524	0.0000000E+000	0.0000000E+000	0.0000000E+000	71.4524	0.0000000E+000	0.0000000E+000	0.0000000E+000	-71.4524	0.0000000E+000	0.0000000E+000	0.0000000E+000	-18.5476	0.0000000E+000	0.0000000E+000	0.0000000E+000	18.5476	2.98045	71.4524	5.15772e-07	-2.3032e-07	369702
2155.69	9.95256	3.46671	10.539	-19.2044	7.33769	0.291795	-0.000746413	21.2969	2.30435	1	10	0.00545367	0.000517473	0	-5.16762e-06	0.089605	0.0312115	0.0948853	19.2044	2304.35	6615.55	7005.4	-70.7956	0.0000000E+000	0.0000000E+000	0.0000000E+000	70.7956	0.0000000E+000	0.0000000E+000	0.0000000E+000	-70.7956	0.0000000E+000	0.0000000E+000	0.0000000E+000	-19.2044	0.0000000E+000	0.0000000E+000	0.0000000E+000	19.2044	2.8709	70.7956	-5.31095e-07	-2.17799e-07	390930
1468.59	10.7462	3.91647	11.4377	-20.0243	7.80492	0.291797	-0.00115659	27.671	3.24445	1	10	0.00547857	0.000478994	0	-5.5458e-06	0.0821451	0.0299379	0.0874305	20.0243	3244.45	8902.28	9475.07	-69.9757	0.0000000E+000	0.0000000E+000	0.0000000E+000	69.9757	0.0000000E+000	0.0000000E+000	0.0000000E+000	-69.9757	0.0000000E+000	0.0000000E+000	0.0000000E+000	-20.0243	0.0000000E+000	0.0000000E+000	0.0000000E+000	20.0243	2.74385	69.9757	-3.78176e-07	-3.37489e-07	252291
1000.32	11.6628	4.43481	12.4775	-20.8194	8.27366	0.291809	-0.000746414	35.8762	4.5321	1	10	0.00542641	0.000434895	0	-5.34114e-06	0.0749112	0.0284852	0.0801442	20.8194	4532.1	11918.7	12751.3	-69.1806	0.0000000E+000	0.0000000E+000	0.0000000E+000	69.1806	0.0000000E+000	0.0000000E+000	0.0000000E+000	-69.1806	0.0000000E+000	0.0000000E+000	0.0000000E+000	-20.8194	0.0000000E+000	0.0000000E+000	0.0000000E+000	20.8194	2.62983	69.1806	2.04651e-07	-2.17811e-07	390949
681.09	12.7327	5.0391	13.6936	-21.5917	8.73945	0.291819	-0.000108776	46.3728	6.27965	1	10	0.00535934	0.000391376	0	-5.0253e-06	0.0679027	0.0268732	0.073027	21.5917	6279.65	15867.3	17064.7	-68.4083	0.0000000E+000	0.0000000E+000	0.0000000E+000	68.4083	0.0000000E+000	0.0000000E+000	0.0000000E+000	-68.4083	0.0000000E+000	0.0000000E+000	0.0000000E+000	-21.5917	0.0000000E+000	0.0000000E+000	0.0000000E+000	21.5917	2.52678	68.4083	3.15841e-07	-3.17429e-08	2.68275e+06
463.961	13.9158	5.72525	15.0475	-22.3633	9.2082	0.291792	-0.000451833	59.9162	8.67371	1	10	0.00530991	0.000352876	0	-5.22995e-06	0.061458	0.0252852	0.0664562	22.3633	8673.71	21082.3	22796.8	-67.6367	0.0000000E+000	0.0000000E+000	0.0000000E+000	67.6367	0.0000000E+000	0.0000000E+000	0.0000000E+000	-67.6367	0.0000000E+000	0.0000000E+000	0.0000000E+000	-22.3633	0.0000000E+000	0.0000000E+000	0.0000000E+000	22.3633	2.4306	67.6367	-2.04644e-07	-1.31841e-07	645795
316.316	15.3617	6.53318	16.6933	-23.0395	9.67394	0.291807	-0.000518954	77.0149	11.7962	1	10	0.00528026	0.000316311	0	-5.24777e-06	0.0551261	0.0234446	0.0599044	23.0395	11796.2	27736.8	30141	-66.9605	0.0000000E+000	0.0000000E+000	0.0000000E+000	66.9605	0.0000000E+000	0.0000000E+000	0.0000000E+000	-66.9605	0.0000000E+000	0.0000000E+000	0.0000000E+000	-23.0395	0.0000000E+000	0.0000000E+000	0.0000000E+000	23.0395	2.35134	66.9605	-1.78262e-08	-1.51435e-07	562299
215.345	17.0648	7.42477	18.61	-23.5135	10.1414	0.2918	-0.000226237	99.5413	15.8444	1	10	0.0052522	0.000282224	0	-5.04415e-06	0.0492726	0.0214382	0.0537344	23.5135	15844.4	36416	39713.6	-66.4865	0.0000000E+000	0.0000000E+000	0.0000000E+000	66.4865	0.0000000E+000	0.0000000E+000	0.0000000E+000	-66.4865	0.0000000E+000	0.0000000E+000	0.0000000E+000	-23.5135	0.0000000E+000	0.0000000E+000	0.0000000E+000	23.5135	2.29836	66.4865	2.03622e-07	-6.60158e-08	1.2898e+06
146.737	19.1065	8.25995	20.8155	-23.3794	10.6044	0.291801	-0.000121828	131.311	20.6768	1	10	0.00523676	0.00025158	0	-5.11625e-06	0.0440968	0.0190635	0.0480411	23.3794	20676.8	47828.5	52106.6	-66.6206	0.0000000E+000	0.0000000E+000	0.0000000E+000	66.6206	0.0000000E+000	0.0000000E+000	0.0000000E+000	-66.6206	0.0000000E+000	0.0000000E+000	0.0000000E+000	-23.3794	0.0000000E+000	0.0000000E+000	0.0000000E+000	23.3794	2.31315	66.6206	-7.21002e-08	-3.55497e-08	2.39518e+06
100.032	21.4789	8.98849	23.2838	-22.7084	11.3267	0.291796	-0.00625717	177.009	26.3792	1	11	0.00523874	0.000224995	0	-5.7423e-06	0.0396191	0.0165798	0.0429484	22.7084	26379.2	63035.5	68332.5	-67.2916	0.0000000E+000	0.0000000E+000	0.0000000E+000	67.2916	0.0000000E+000	0.0000000E+000	0.0000000E+000	-67.2916	0.0000000E+000	0.0000000E+000	0.0000000E+000	-22.7084	0.0000000E+000	0.0000000E+000	0.0000000E+000	22.7084	2.38959	67.2916	-6.26053e-07	-1.82581e-06	46633.8
68.104	24.2611	9.43044	26.0294	-21.2414	11.8053	0.291812	-0.00580596	247.808	32.5274	1	11	0.00523083	0.000200958	0	-6.33142e-06	0.035808	0.0139188	0.038418	21.2414	32527.4	83681.1	89780.6	-68.7586	0.0000000E+000	0.0000000E+000	0.0000000E+000	68.7586	0.0000000E+000	0.0000000E+000	0.0000000E+000	-68.7586	0.0000000E+000	0.0000000E+000	0.0000000E+000	-21.2414	0.0000000E+000	0.0000000E+000	0.0000000E+000	21.2414	2.57263	68.7586	-5.89114e-07	-1.69425e-06	50260.8
46.4415	27.1843	9.33944	28.7439	-18.9607	12.2606	0.291802	-0.00608899	366.938	38.7386	1	11	0.0052176	0.00018152	0	-6.99835e-06	0.0329024	0.0113039	0.03479	18.9607	38738.6	112756	119225	-71.0393	0.0000000E+000	0.0000000E+000	0.0000000E+000	71.0393	0.0000000E+000	0.0000000E+000	0.0000000E+000	-71.0393	0.0000000E+000	0.0000000E+000	0.0000000E+000	-18.9607	0.0000000E+000	0.0000000E+000	0.0000000E+000	18.9607	2.9107	71.0393	-6.66929e-07	-1.77678e-06	47922.9
31.6296	30.0325	8.63763	31.2499	-16.0458	12.7075	0.291794	-0.00616133	582.549	44.5066	1	11	0.0052217	0.000167095	0	-7.77642e-06	0.0307534	0.00884499	0.0320001	16.0458	44506.6	154746	161019	-73.9542	0.0000000E+000	0.0000000E+000	0.0000000E+000	73.9542	0.0000000E+000	0.0000000E+000	0.0000000E+000	-73.9542	0.0000000E+000	0.0000000E+000	0.0000000E+000	-16.0458	0.0000000E+000	0.0000000E+000	0.0000000E+000	16.0458	3.47693	73.9542	-7.78076e-07	-1.79784e-06	47358.9
21.5517	32.3643	7.5185	33.2261	-13.0783	13.1463	0.291794	-0.00615537	982.216	50.2934	1	11	0.00521454	0.000156941	0	-8.64703e-06	0.0293162	0.0068104	0.0300968	13.0783	50293.4	216494	222259	-76.9217	0.0000000E+000	0.0000000E+000	0.0000000E+000	76.9217	0.0000000E+000	0.0000000E+000	0.0000000E+000	-76.9217	0.0000000E+000	0.0000000E+000	0.0000000E+000	-13.0783	0.0000000E+000	0.0000000E+000	0.0000000E+000	13.0783	4.30462	76.9217	-8.70603e-07	-1.7961e-06	47404.8
14.6852	34.1721	6.1885	34.7279	-10.2649	13.625	0.291799	-0.00576065	1751.28	55.6121	1	11	0.00521743	0.000150237	0	-9.15647e-06	0.0283344	0.0051313	0.0287953	10.2649	55612.1	307083	312078	-79.7351	0.0000000E+000	0.0000000E+000	0.0000000E+000	79.7351	0.0000000E+000	0.0000000E+000	0.0000000E+000	-79.7351	0.0000000E+000	0.0000000E+000	0.0000000E+000	-10.2649	0.0000000E+000	0.0000000E+000	0.0000000E+000	10.2649	5.52187	79.7351	-5.09441e-07	-1.68095e-06	50653.8
10.0032	35.4087	4.93288	35.7507	-7.93098	14.0937	0.291817	-0.00542523	3225.38	61.4064	1	11	0.00521486	0.000145867	0	-8.80158e-06	0.027704	0.00385951	0.0279715	7.93098	61406.4	440781	445038	-82.069	0.0000000E+000	0.0000000E+000	0.0000000E+000	82.069	0.0000000E+000	0.0000000E+000	0.0000000E+000	-82.069	0.0000000E+000	0.0000000E+000	0.0000000E+000	-7.93098	0.0000000E+000	0.0000000E+000	0.0000000E+000	7.93098	7.1781	82.069	3.54883e-07	-1.58318e-06	53789
6.81719	36.2091	3.88841	36.4173	-6.12937	14.4514	0.291791	-0.00624431	6004.03	68.4498	1	11	0.00520929	0.000143045	0	-1.11337e-05	0.0273025	0.00293196	0.0274595	6.12937	68449.8	637408	641073	-83.8706	0.0000000E+000	0.0000000E+000	0.0000000E+000	83.8706	0.0000000E+000	0.0000000E+000	0.0000000E+000	-83.8706	0.0000000E+000	0.0000000E+000	0.0000000E+000	-6.12937	0.0000000E+000	0.0000000E+000	0.0000000E+000	6.12937	9.31205	83.8706	-2.3321e-06	-1.82203e-06	46729.2
4.63925	36.7939	3.01242	36.917	-4.68053	14.9543	0.291813	-0.00535549	11388.2	75.8289	1	11	0.00521072	0.000141147	0	-9.97782e-06	0.0269974	0.00221036	0.0270878	4.68053	75828.9	926179	929278	-85.3195	0.0000000E+000	0.0000000E+000	0.0000000E+000	85.3195	0.0000000E+000	0.0000000E+000	0.0000000E+000	-85.3195	0.0000000E+000	0.0000000E+000	0.0000000E+000	-4.68053	0.0000000E+000	0.0000000E+000	0.0000000E+000	4.68053	12.2141	85.3195	1.15586e-06	-1.5628e-06	54488.4
3.1604	37.2605	2.41952	37.3389	-3.7153	15.6632	0.291811	-0.00517911	20813.7	87.3943	1	11	0.00521279	0.000139607	0	-1.04873e-05	0.0267254	0.00173542	0.0267817	3.7153	87394.4	1.34587e+06	1.3487e+06	-86.2847	0.0000000E+000	0.0000000E+000	0.0000000E+000	86.2847	0.0000000E+000	0.0000000E+000	0.0000000E+000	-86.2847	0.0000000E+000	0.0000000E+000	0.0000000E+000	-3.7153	0.0000000E+000	0.0000000E+000	0.0000000E+000	3.7153	15.4	86.2847	-5.09505e-07	-1.51132e-06	56343.9
2.15577	37.5499	1.99991	37.6031	-3.04869	16.6778	0.291824	-0.00429925	36915.5	104.419	1	11	0.0052217	0.000138863	0	-1.43916e-05	0.0265559	0.00141437	0.0265935	3.04869	104419	1.96056e+06	1.96334e+06	-86.9513	0.0000000E+000	0.0000000E+000	0.0000000E+000	86.9513	0.0000000E+000	0.0000000E+000	0.0000000E+000	-86.9513	0.0000000E+000	0.0000000E+000	0.0000000E+000	-3.04869	0.0000000E+000	0.0000000E+000	0.0000000E+000	3.04869	18.7758	86.9513	-3.90427e-06	-1.25462e-06	67877.9
1.46631	37.8189	1.74738	37.8592	-2.6454	18.8831	0.291825	-0.00460813	62116.6	132.324	1	12	0.0052147	0.000137739	0	-1.96589e-05	0.0263855	0.00121911	0.0264136	2.6454	132323	2.86391e+06	2.86696e+06	-87.3546	0.0000000E+000	0.0000000E+000	0.0000000E+000	87.3546	0.0000000E+000	0.0000000E+000	0.0000000E+000	-87.3546	0.0000000E+000	0.0000000E+000	0.0000000E+000	-2.6454	0.0000000E+000	0.0000000E+000	0.0000000E+000	2.6454	21.6432	87.3546	-5.26731e-06	-1.34477e-06	63328.4
1.00006	38.0574	1.68221	38.0946	-2.53093	21.0232	0.291828	-0.00451997	94604.7	184.479	1	12	0.00521683	0.000136944	0	-1.97348e-05	0.0262249	0.00115919	0.0262505	2.53093	184478	4.17355e+06	4.17762e+06	-87.4691	0.0000000E+000	0.0000000E+000	0.0000000E+000	87.4691	0.0000000E+000	0.0000000E+000	0.0000000E+000	-87.4691	0.0000000E+000	0.0000000E+000	0.0000000E+000	-2.53093	0.0000000E+000	0.0000000E+000	0.0000000E+000	2.53093	22.6235	87.4691	-7.58429e-08	-1.31906e-06	64564.3
0.681362	38.2841	1.73736	38.3235	-2.59834	24.1431	0.29183	-0.00447776	134447	276.313	1	12	0.00521097	0.000135973	0	-1.73288e-05	0.0260668	0.00118293	0.0260937	2.59834	276313	6.08878e+06	6.09504e+06	-87.4017	0.0000000E+000	0.0000000E+000	0.0000000E+000	87.4017	0.0000000E+000	0.0000000E+000	0.0000000E+000	-87.4017	0.0000000E+000	0.0000000E+000	0.0000000E+000	-2.59834	0.0000000E+000	0.0000000E+000	0.0000000E+000	2.59834	22.0358	87.4017	2.40594e-06	-1.30674e-06	65173.1
0.464091	38.5518	1.8986	38.5985	-2.81943	28.7079	0.291833	-0.00377047	180627	437.029	1	12	0.00521963	0.000135229	0	-1.49865e-05	0.0258764	0.00127436	0.0259077	2.81943	437029	8.87403e+06	8.88479e+06	-87.1806	0.0000000E+000	0.0000000E+000	0.0000000E+000	87.1806	0.0000000E+000	0.0000000E+000	0.0000000E+000	-87.1806	0.0000000E+000	0.0000000E+000	0.0000000E+000	-2.81943	0.0000000E+000	0.0000000E+000	0.0000000E+000	2.81943	20.3054	87.1806	2.34226e-06	-1.10035e-06	77399.6
0.316193	38.9235	2.24586	38.9883	-3.30226	35.3902	0.291815	-0.00321307	224122	743.674	1	12	0.00522335	0.000133972	0	-1.84343e-05	0.0256062	0.00147746	0.0256488	3.30226	743673	1.28888e+07	1.29102e+07	-86.6977	0.0000000E+000	0.0000000E+000	0.0000000E+000	86.6977	0.0000000E+000	0.0000000E+000	0.0000000E+000	-86.6977	0.0000000E+000	0.0000000E+000	0.0000000E+000	-3.30226	0.0000000E+000	0.0000000E+000	0.0000000E+000	3.30226	17.3312	86.6977	-3.44772e-06	-9.37622e-07	90821.3
0.215268	39.3706	2.78571	39.469	-4.04728	45.1878	0.291823	-0.00222771	265403	1322.1	1	12	0.00521629	0.000132162	0	-3.32268e-05	0.0252732	0.00178823	0.0253363	4.04728	1.3221e+06	1.86853e+07	1.8732e+07	-85.9527	0.0000000E+000	0.0000000E+000	0.0000000E+000	85.9527	0.0000000E+000	0.0000000E+000	0.0000000E+000	-85.9527	0.0000000E+000	0.0000000E+000	0.0000000E+000	-4.04728	0.0000000E+000	0.0000000E+000	0.0000000E+000	4.04728	14.1331	85.9527	-1.47925e-05	-6.50095e-07	130997
0.146929	39.9164	3.44052	40.0644	-4.92633	59.5234	0.291836	-0.00153838	314839	2321.77	1	12	0.00522069	0.000130308	0	-6.36741e-05	0.0248676	0.00214342	0.0249598	4.92633	2.32178e+06	2.69369e+07	2.70368e+07	-85.0737	0.0000000E+000	0.0000000E+000	0.0000000E+000	85.0737	0.0000000E+000	0.0000000E+000	0.0000000E+000	-85.0737	0.0000000E+000	0.0000000E+000	0.0000000E+000	-4.92633	0.0000000E+000	0.0000000E+000	0.0000000E+000	4.92633	11.6019	85.0737	-3.04473e-05	-4.48954e-07	189703
0.0999041	40.6908	4.28389	40.9157	-6.0099	80.5932	0.291824	-0.00170453	371876	4076.57	1	12	0.00521964	0.000127571	0	-0.000107961	0.0243061	0.00255893	0.0244405	6.0099	4.07657e+06	3.87216e+07	3.89356e+07	-83.9901	0.0000000E+000	0.0000000E+000	0.0000000E+000	83.9901	0.0000000E+000	0.0000000E+000	0.0000000E+000	-83.9901	0.0000000E+000	0.0000000E+000	0.0000000E+000	-6.0099	0.0000000E+000	0.0000000E+000	0.0000000E+000	6.0099	9.49857	83.9901	-4.42867e-05	-4.97422e-07	171205
0.0680626	41.6952	5.45768	42.0509	-7.45731	111.505	0.291829	-0.0017581	428453	7217.2	1	12	0.00522188	0.00012418	0	-0.000155161	0.0235796	0.00308644	0.0237807	7.45731	7.2172e+06	5.51375e+07	5.56079e+07	-82.5427	0.0000000E+000	0.0000000E+000	0.0000000E+000	82.5427	0.0000000E+000	0.0000000E+000	0.0000000E+000	-82.5427	0.0000000E+000	0.0000000E+000	0.0000000E+000	-7.45731	0.0000000E+000	0.0000000E+000	0.0000000E+000	7.45731	7.63974	82.5427	-4.72003e-05	-5.13066e-07	165991
0.0464052	42.9452	7.053	43.5205	-9.32659	156.829	0.291824	-0.00211203	486272	12771.5	1	12	0.00522034	0.000119951	0	-0.000181648	0.0226739	0.0037238	0.0229777	9.32659	1.27715e+07	7.77644e+07	7.88061e+07	-80.6734	0.0000000E+000	0.0000000E+000	0.0000000E+000	80.6734	0.0000000E+000	0.0000000E+000	0.0000000E+000	-80.6734	0.0000000E+000	0.0000000E+000	0.0000000E+000	-9.32659	0.0000000E+000	0.0000000E+000	0.0000000E+000	9.32659	6.08892	80.6734	-2.64864e-05	-6.16341e-07	138172
0.0315922	44.1792	8.95723	45.0781	-11.4612	223.39	0.291833	-0.00174533	562428	22206.6	1	12	0.00521899	0.000115777	0	-0.000149589	0.0217414	0.00440801	0.0221837	11.4612	2.22066e+07	1.09528e+08	1.11757e+08	-78.5388	0.0000000E+000	0.0000000E+000	0.0000000E+000	78.5388	0.0000000E+000	0.0000000E+000	0.0000000E+000	-78.5388	0.0000000E+000	0.0000000E+000	0.0000000E+000	-11.4612	0.0000000E+000	0.0000000E+000	0.0000000E+000	11.4612	4.93224	78.5388	3.20582e-05	-5.09345e-07	167208
0.0215268	45.5938	11.238	46.9584	-13.8463	321.059	0.291825	-0.0012097	657888	37679.4	1	12	0.00521895	0.00011114	0	-4.08795e-05	0.0206766	0.00509639	0.0212954	13.8463	3.76794e+07	1.52869e+08	1.57445e+08	-76.1537	0.0000000E+000	0.0000000E+000	0.0000000E+000	76.1537	0.0000000E+000	0.0000000E+000	0.0000000E+000	-76.1537	0.0000000E+000	0.0000000E+000	0.0000000E+000	-13.8463	0.0000000E+000	0.0000000E+000	0.0000000E+000	13.8463	4.05711	76.1537	0.00010871	-3.53022e-07	241237
0.0146812	47.5917	14.1999	49.665	-16.6134	464.254	0.291827	-0.000465944	763441	62408.4	1	12	0.00521823	0.000105069	0	0.000118239	0.0192944	0.00575683	0.0201349	16.6134	6.24084e+07	2.09166e+08	2.18278e+08	-73.3866	0.0000000E+000	0.0000000E+000	0.0000000E+000	73.3866	0.0000000E+000	0.0000000E+000	0.0000000E+000	-73.3866	0.0000000E+000	0.0000000E+000	0.0000000E+000	-16.6134	0.0000000E+000	0.0000000E+000	0.0000000E+000	16.6134	3.35156	73.3866	0.000159118	-1.35975e-07	626314
0.0100092	50.0596	18.5858	53.3985	-20.3686	674.273	0.291826	-3.6757e-05	855542	103644	1	12	0.00522114	9.77768e-05	0	0.000221483	0.0175562	0.00651813	0.0187271	20.3686	1.03644e+08	2.79159e+08	2.97778e+08	-69.6314	0.0000000E+000	0.0000000E+000	0.0000000E+000	69.6314	0.0000000E+000	0.0000000E+000	0.0000000E+000	-69.6314	0.0000000E+000	0.0000000E+000	0.0000000E+000	-20.3686	0.0000000E+000	0.0000000E+000	0.0000000E+000	20.3686	2.69344	69.6314	0.000103244	-1.07266e-08	7.93932e+06