File: txt/14955_R243_UA603_SOC00_C02.mpt
EC-Lab ASCII FILE
Nb header lines : 63

Potentio Electrochemical Impedance Spectroscopy

Run on channel : 2 (SN 66139)
User :
CE vs. WE compliance from -10 V to 10 V
Electrode connection : standard
Potential control : Ewe
Ewe ctrl range : min = -10.00 V, max = 10.00 V
Safety Limits :
	Do not start on E overload
Acquisition started on : 09/22/2025 10:43:31.075
Loaded Setting File :  C:\Users\Celltest\OneDrive - store-dot.com\Documents\EC-Lab\Data\Gyutae\17737_R277_UA674_SOC00_C01.mpr
Saved on :
	File : 14955_R243_UA603_SOC00_C02.mpr
	Directory : C:\Users\Celltest\OneDrive - store-dot.com\Documents\EC-Lab\Data\Anna\
	Host : 169.254.61.224
Device : VMP-3e (SN .003165)
Address : USB
EC-LAB for windows v11.62 (software)
Internet server v27.00 (firmware)
Command interpretor v12.03 (firmware)
Electrode material :
Initial state :
Electrolyte :
Comments :
Electrode surface area : 0.001 cm²
Characteristic mass : 0.001 g
Equivalent Weight : 0.000 g/eq.
Density : 0.000 g/cm3
Volume (V) : 0.001 cm³
Cycle Definition : Charge/Discharge alternance
Mode                Single sine
E (V)               0.0000
vs.                 Eoc
tE (h:m:s)          0:00:0.0000
record              0
dI                  0.000
unit dI             mA
dt (s)              0.000
fi                  100.000
unit fi             kHz
ff                  10.000
unit ff             mHz
Nd                  6
Points              per decade
spacing             Logarithmic
Va (mV)             5.0
pw                  0.10
Na                  2
corr                0
E range min (V)     -10.000
E range max (V)     10.000
I Range             Auto
Bandwidth           5
nc cycles           0
goto Ns'            0
nr cycles           0
inc. cycle          0

freq/Hz	Re(Z)/Ohm	-Im(Z)/Ohm	|Z|/Ohm	Phase(Z)/deg	time/s	<Ewe>/V	<I>/mA	Cs/µF	Cp/µF	cycle number	I Range	|Ewe|/V	|I|/A	Ns	(Q-Qo)/mA.h	Re(Y)/Ohm-1	Im(Y)/Ohm-1	|Y|/Ohm-1	Phase(Y)/deg	Re(C)/nF	Im(C)/nF	|C|/nF	Phase(C)/deg	Re(M)	Im(M)	|M|	Phase(M)/deg	Re(Permittivity)	Im(Permittivity)	|Permittivity|	Phase(Permittivity)/deg	Re(Resistivity)/Ohm.cm	Im(Resistivity)/Ohm.cm	|Resistivity|/Ohm.cm	Phase(Resistivity)/deg	Re(Conductivity)/mS/cm	Im(Conductivity)/mS/cm	|Conductivity|/mS/cm	Phase(Conductivity)/deg	Tan(Delta)	Loss Angle(Delta)/deg	dq/mA.h	Pwe/W	Rwe/Ohm
100004	5.28596	1.0074	5.3811	-10.7901	1.82349	0.385549	-0.00617244	1.5798	0.0553688	1	10	0.0048515	0.000901582	0	-3.76695e-06	0.18255	0.0347905	0.185836	10.7901	55.3688	290.527	295.756	-79.2099	0.0000000E+000	0.0000000E+000	0.0000000E+000	79.2099	0.0000000E+000	0.0000000E+000	0.0000000E+000	-79.2099	0.0000000E+000	0.0000000E+000	0.0000000E+000	-10.7901	0.0000000E+000	0.0000000E+000	0.0000000E+000	10.7901	5.24712	79.2099	-3.76695e-06	-2.37978e-06	62463
68132	5.50683	1.09898	5.61542	-11.286	2.26049	0.38554	-0.00597314	2.12559	0.0814129	1	10	0.00530307	0.000944376	0	-5.23632e-06	0.174637	0.0348518	0.178081	11.286	81.4129	407.949	415.993	-78.714	0.0000000E+000	0.0000000E+000	0.0000000E+000	78.714	0.0000000E+000	0.0000000E+000	0.0000000E+000	-78.714	0.0000000E+000	0.0000000E+000	0.0000000E+000	-11.286	0.0000000E+000	0.0000000E+000	0.0000000E+000	11.286	5.01086	78.714	-1.46937e-06	-2.30288e-06	64545.6
46420.4	5.7532	1.19051	5.87509	-11.6912	2.69749	0.385537	-0.00599363	2.8799	0.118255	1	10	0.00540588	0.000920137	0	-4.94107e-06	0.166679	0.034491	0.17021	11.6912	118.255	571.469	583.576	-78.3088	0.0000000E+000	0.0000000E+000	0.0000000E+000	78.3088	0.0000000E+000	0.0000000E+000	0.0000000E+000	-78.3088	0.0000000E+000	0.0000000E+000	0.0000000E+000	-11.6912	0.0000000E+000	0.0000000E+000	0.0000000E+000	11.6912	4.83253	78.3088	2.95243e-07	-2.31076e-06	64324.4
31621.1	6.01933	1.31179	6.16061	-12.2942	3.13448	0.385538	-0.00536965	3.83689	0.173964	1	10	0.00540921	0.000878031	0	-5.87716e-06	0.158599	0.0345634	0.162322	12.2942	173.964	798.258	816.994	-77.7058	0.0000000E+000	0.0000000E+000	0.0000000E+000	77.7058	0.0000000E+000	0.0000000E+000	0.0000000E+000	-77.7058	0.0000000E+000	0.0000000E+000	0.0000000E+000	-12.2942	0.0000000E+000	0.0000000E+000	0.0000000E+000	12.2942	4.58865	77.7058	-9.3609e-07	-2.0702e-06	71799.3
21544.7	6.31097	1.44104	6.4734	-12.8623	3.57148	0.385532	-0.00577384	5.12631	0.254033	1	10	0.00538862	0.000832425	0	-5.92526e-06	0.150602	0.0343882	0.154478	12.8623	254.033	1112.53	1141.16	-77.1377	0.0000000E+000	0.0000000E+000	0.0000000E+000	77.1377	0.0000000E+000	0.0000000E+000	0.0000000E+000	-77.1377	0.0000000E+000	0.0000000E+000	0.0000000E+000	-12.8623	0.0000000E+000	0.0000000E+000	0.0000000E+000	12.8623	4.37947	77.1377	-4.80937e-08	-2.226e-06	66772.2
14678.6	6.65505	1.59342	6.84314	-13.4648	4.00849	0.385534	-0.00630283	6.80466	0.368938	1	10	0.00540509	0.000789855	0	-7.66317e-06	0.142115	0.0340265	0.146132	13.4648	368.938	1540.9	1584.46	-76.5352	0.0000000E+000	0.0000000E+000	0.0000000E+000	76.5352	0.0000000E+000	0.0000000E+000	0.0000000E+000	-76.5352	0.0000000E+000	0.0000000E+000	0.0000000E+000	-13.4648	0.0000000E+000	0.0000000E+000	0.0000000E+000	13.4648	4.17659	76.5352	-1.73792e-06	-2.42995e-06	61168.3
10002.2	7.02337	1.78096	7.24566	-14.229	4.44548	0.385533	-0.00563974	8.93447	0.539788	1	10	0.00534666	0.000737913	0	-8.8106e-06	0.13378	0.0339234	0.138014	14.229	539.788	2128.7	2196.07	-75.771	0.0000000E+000	0.0000000E+000	0.0000000E+000	75.771	0.0000000E+000	0.0000000E+000	0.0000000E+000	-75.771	0.0000000E+000	0.0000000E+000	0.0000000E+000	-14.229	0.0000000E+000	0.0000000E+000	0.0000000E+000	14.229	3.94358	75.771	-1.14742e-06	-2.1743e-06	68360.1
6811.07	7.44847	1.98987	7.70969	-14.9573	5.0005	0.385531	-0.00552985	11.743	0.782269	1	10	0.00534315	0.000693043	0	-7.67156e-06	0.125312	0.0334773	0.129707	14.9573	782.269	2928.19	3030.88	-75.0427	0.0000000E+000	0.0000000E+000	0.0000000E+000	75.0427	0.0000000E+000	0.0000000E+000	0.0000000E+000	-75.0427	0.0000000E+000	0.0000000E+000	0.0000000E+000	-14.9573	0.0000000E+000	0.0000000E+000	0.0000000E+000	14.9573	3.7432	75.0427	1.13904e-06	-2.13193e-06	69718.2
4641.49	7.91262	2.22787	8.22028	-15.7251	5.69469	0.385544	-0.00399692	15.3912	1.13053	1	10	0.00521637	0.000634573	0	-8.90516e-06	0.117097	0.0329699	0.12165	15.7251	1130.53	4015.23	4171.35	-74.2749	0.0000000E+000	0.0000000E+000	0.0000000E+000	74.2749	0.0000000E+000	0.0000000E+000	0.0000000E+000	-74.2749	0.0000000E+000	0.0000000E+000	0.0000000E+000	-15.7251	0.0000000E+000	0.0000000E+000	0.0000000E+000	15.7251	3.55165	74.2749	-1.2336e-06	-1.54099e-06	96460.3
3161.01	8.43168	2.50656	8.79636	-16.5561	6.38469	0.385544	-0.00420926	20.0871	1.63104	1	10	0.00505842	0.000575058	0	-9.09585e-06	0.10897	0.0323945	0.113683	16.5561	1631.04	5486.58	5723.89	-73.4439	0.0000000E+000	0.0000000E+000	0.0000000E+000	73.4439	0.0000000E+000	0.0000000E+000	0.0000000E+000	-73.4439	0.0000000E+000	0.0000000E+000	0.0000000E+000	-16.5561	0.0000000E+000	0.0000000E+000	0.0000000E+000	16.5561	3.36385	73.4439	-1.90688e-07	-1.62285e-06	91594.3
2155.69	9.02412	2.82852	9.45702	-17.4031	6.8517	0.38554	-0.00458551	26.102	2.33499	1	10	0.00532605	0.000563185	0	-1.01391e-05	0.100901	0.0316265	0.105742	17.4031	2334.99	7449.55	7806.92	-72.5969	0.0000000E+000	0.0000000E+000	0.0000000E+000	72.5969	0.0000000E+000	0.0000000E+000	0.0000000E+000	-72.5969	0.0000000E+000	0.0000000E+000	0.0000000E+000	-17.4031	0.0000000E+000	0.0000000E+000	0.0000000E+000	17.4031	3.1904	72.5969	-1.04329e-06	-1.76789e-06	84077.9
1468.59	9.69315	3.18167	10.202	-18.1719	7.31894	0.385537	-0.00451845	34.0615	3.31289	1	10	0.0053656	0.000525938	0	-1.0664e-05	0.0931316	0.0305694	0.0980203	18.1719	3312.89	10092.9	10622.7	-71.8281	0.0000000E+000	0.0000000E+000	0.0000000E+000	71.8281	0.0000000E+000	0.0000000E+000	0.0000000E+000	-71.8281	0.0000000E+000	0.0000000E+000	0.0000000E+000	-18.1719	0.0000000E+000	0.0000000E+000	0.0000000E+000	18.1719	3.04656	71.8281	-5.24849e-07	-1.74203e-06	85325
1000.32	10.4484	3.58966	11.0478	-18.9608	7.78768	0.385534	-0.00410682	44.3229	4.67932	1	10	0.00532979	0.00048243	0	-1.11605e-05	0.0856045	0.0294104	0.0905157	18.9608	4679.32	13620	14401.4	-71.0392	0.0000000E+000	0.0000000E+000	0.0000000E+000	71.0392	0.0000000E+000	0.0000000E+000	0.0000000E+000	-71.0392	0.0000000E+000	0.0000000E+000	0.0000000E+000	-18.9608	0.0000000E+000	0.0000000E+000	0.0000000E+000	18.9608	2.91068	71.0392	-4.96512e-07	-1.58332e-06	93876.5
681.09	11.2585	4.04654	11.9636	-19.7695	8.25342	0.385541	-0.00412358	57.7473	6.60653	1	10	0.00527612	0.000441013	0	-1.13508e-05	0.0786601	0.0282721	0.0835866	19.7695	6606.53	18381	19532.3	-70.2305	0.0000000E+000	0.0000000E+000	0.0000000E+000	70.2305	0.0000000E+000	0.0000000E+000	0.0000000E+000	-70.2305	0.0000000E+000	0.0000000E+000	0.0000000E+000	-19.7695	0.0000000E+000	0.0000000E+000	0.0000000E+000	19.7695	2.78226	70.2305	-1.90345e-07	-1.58981e-06	93496.6
463.961	12.2076	4.60358	13.0468	-20.6618	8.72219	0.385537	-0.00358902	74.5149	9.2774	1	10	0.00524066	0.000401682	0	-1.202e-05	0.0717171	0.027045	0.0766471	20.6618	9277.41	24601.5	26292.7	-69.3382	0.0000000E+000	0.0000000E+000	0.0000000E+000	69.3382	0.0000000E+000	0.0000000E+000	0.0000000E+000	-69.3382	0.0000000E+000	0.0000000E+000	0.0000000E+000	-20.6618	0.0000000E+000	0.0000000E+000	0.0000000E+000	20.6618	2.65177	69.3382	-6.69178e-07	-1.3837e-06	107421
316.316	13.2557	5.29448	14.274	-21.7723	9.1889	0.385535	-0.00421485	95.0333	13.0747	1	10	0.00521467	0.000365327	0	-1.26605e-05	0.06506	0.0259856	0.0700576	21.7723	13074.7	32735.1	35249.6	-68.2277	0.0000000E+000	0.0000000E+000	0.0000000E+000	68.2277	0.0000000E+000	0.0000000E+000	0.0000000E+000	-68.2277	0.0000000E+000	0.0000000E+000	0.0000000E+000	-21.7723	0.0000000E+000	0.0000000E+000	0.0000000E+000	21.7723	2.50369	68.2277	-6.4051e-07	-1.62497e-06	91470.5
215.345	14.4834	6.07648	15.7064	-22.7604	9.65643	0.385533	-0.00418505	121.628	18.2047	1	10	0.00518905	0.000330378	0	-1.30446e-05	0.0587105	0.0246319	0.0636683	22.7604	18204.7	43391.2	47055.4	-67.2396	0.0000000E+000	0.0000000E+000	0.0000000E+000	67.2396	0.0000000E+000	0.0000000E+000	0.0000000E+000	-67.2396	0.0000000E+000	0.0000000E+000	0.0000000E+000	-22.7604	0.0000000E+000	0.0000000E+000	0.0000000E+000	22.7604	2.38351	67.2396	-3.84039e-07	-1.61348e-06	92121.4
146.737	16.0234	7.06	17.5098	-23.7786	10.1194	0.385528	-0.00448307	153.629	24.976	1	10	0.00517342	0.000295459	0	-1.36135e-05	0.0522628	0.0230274	0.057111	23.7786	24976	56685.6	61944	-66.2214	0.0000000E+000	0.0000000E+000	0.0000000E+000	66.2214	0.0000000E+000	0.0000000E+000	0.0000000E+000	-66.2214	0.0000000E+000	0.0000000E+000	0.0000000E+000	-23.7786	0.0000000E+000	0.0000000E+000	0.0000000E+000	23.7786	2.2696	66.2214	-5.6894e-07	-1.72835e-06	85996.5
100.032	17.9648	8.16073	19.7315	-24.4305	10.5877	0.385536	-0.00422976	194.963	33.3497	1	10	0.00516611	0.000261821	0	-1.41651e-05	0.0461427	0.0209609	0.0506805	24.4305	33349.7	73415	80634.7	-65.5695	0.0000000E+000	0.0000000E+000	0.0000000E+000	65.5695	0.0000000E+000	0.0000000E+000	0.0000000E+000	-65.5695	0.0000000E+000	0.0000000E+000	0.0000000E+000	-24.4305	0.0000000E+000	0.0000000E+000	0.0000000E+000	24.4305	2.20137	65.5695	-5.51635e-07	-1.63072e-06	91148.6
68.104	20.3774	9.1097	22.3209	-24.087	11.3253	0.385536	-0.00531423	256.533	42.7294	1	11	0.00516907	0.000231579	0	-1.50482e-05	0.0409	0.0182843	0.044801	24.087	42729.4	95580.9	104697	-65.913	0.0000000E+000	0.0000000E+000	0.0000000E+000	65.913	0.0000000E+000	0.0000000E+000	0.0000000E+000	-65.913	0.0000000E+000	0.0000000E+000	0.0000000E+000	-24.087	0.0000000E+000	0.0000000E+000	0.0000000E+000	24.087	2.23689	65.913	-8.83002e-07	-2.04883e-06	72547.9
46.4415	23.2745	9.64372	25.1933	-22.5066	11.7806	0.38554	-0.0055055	355.36	52.0701	1	11	0.00516154	0.000204878	0	-1.58846e-05	0.0366699	0.0151941	0.0396931	22.5066	52070.1	125668	136028	-67.4934	0.0000000E+000	0.0000000E+000	0.0000000E+000	67.4934	0.0000000E+000	0.0000000E+000	0.0000000E+000	-67.4934	0.0000000E+000	0.0000000E+000	0.0000000E+000	-22.5066	0.0000000E+000	0.0000000E+000	0.0000000E+000	22.5066	2.41343	67.4934	-8.36411e-07	-2.12259e-06	70028.2
31.6296	26.3564	9.53727	28.0289	-19.8931	12.2274	0.385541	-0.00557783	527.598	61.0857	1	11	0.00515983	0.00018409	0	-1.64687e-05	0.0335486	0.0121398	0.0356775	19.8931	61085.7	168811	179523	-70.1069	0.0000000E+000	0.0000000E+000	0.0000000E+000	70.1069	0.0000000E+000	0.0000000E+000	0.0000000E+000	-70.1069	0.0000000E+000	0.0000000E+000	0.0000000E+000	-19.8931	0.0000000E+000	0.0000000E+000	0.0000000E+000	19.8931	2.76351	70.1069	-5.84095e-07	-2.15048e-06	69120.1
21.5517	29.1961	8.87057	30.5139	-16.9002	12.6663	0.385536	-0.00569659	832.505	70.3548	1	11	0.00515844	0.000169052	0	-1.75259e-05	0.0313566	0.00952699	0.0327719	16.9002	70354.8	231562	242014	-73.0998	0.0000000E+000	0.0000000E+000	0.0000000E+000	73.0998	0.0000000E+000	0.0000000E+000	0.0000000E+000	-73.0998	0.0000000E+000	0.0000000E+000	0.0000000E+000	-16.9002	0.0000000E+000	0.0000000E+000	0.0000000E+000	16.9002	3.29134	73.0998	-1.05725e-06	-2.19624e-06	67678.4
14.6852	31.5255	7.73772	32.4612	-13.7903	13.1441	0.385547	-0.00505883	1400.65	79.584	1	11	0.00515009	0.000158654	0	-1.83516e-05	0.029918	0.00734318	0.030806	13.7903	79584	324246	333870	-76.2097	0.0000000E+000	0.0000000E+000	0.0000000E+000	76.2097	0.0000000E+000	0.0000000E+000	0.0000000E+000	-76.2097	0.0000000E+000	0.0000000E+000	0.0000000E+000	-13.7903	0.0000000E+000	0.0000000E+000	0.0000000E+000	13.7903	4.07426	76.2097	-8.25659e-07	-1.95041e-06	76212.7
10.0032	33.4044	6.50954	34.0327	-11.0271	13.6127	0.385548	-0.00520853	2444.17	89.4207	1	11	0.0051561	0.000151504	0	-1.91129e-05	0.028841	0.00562027	0.0293835	11.0271	89420.7	458872	467503	-78.9729	0.0000000E+000	0.0000000E+000	0.0000000E+000	78.9729	0.0000000E+000	0.0000000E+000	0.0000000E+000	-78.9729	0.0000000E+000	0.0000000E+000	0.0000000E+000	-11.0271	0.0000000E+000	0.0000000E+000	0.0000000E+000	11.0271	5.1316	78.9729	-7.61371e-07	-2.00814e-06	74022.4
6.81719	34.7593	5.35817	35.1698	-8.76321	13.9704	0.385541	-0.0057266	4357.11	101.132	1	11	0.00514803	0.000146376	0	-1.86186e-05	0.0281015	0.00433187	0.0284334	8.76321	101132	656062	663811	-81.2368	0.0000000E+000	0.0000000E+000	0.0000000E+000	81.2368	0.0000000E+000	0.0000000E+000	0.0000000E+000	-81.2368	0.0000000E+000	0.0000000E+000	0.0000000E+000	-8.76321	0.0000000E+000	0.0000000E+000	0.0000000E+000	8.76321	6.48716	81.2368	4.94369e-07	-2.20784e-06	67324.5
4.63925	35.7586	4.32026	36.0187	-6.88893	14.4733	0.385547	-0.00477192	7940.77	114.242	1	11	0.0051497	0.000142973	0	-1.93813e-05	0.027563	0.00333008	0.0277634	6.88893	114242	945580	952456	-83.1111	0.0000000E+000	0.0000000E+000	0.0000000E+000	83.1111	0.0000000E+000	0.0000000E+000	0.0000000E+000	-83.1111	0.0000000E+000	0.0000000E+000	0.0000000E+000	-6.88893	0.0000000E+000	0.0000000E+000	0.0000000E+000	6.88893	8.27697	83.1111	-7.6269e-07	-1.8398e-06	80794.9
3.1604	36.4672	3.52596	36.6373	-5.52266	15.1822	0.385549	-0.00463098	14282.4	132.284	1	11	0.00515396	0.000140675	0	-2.25894e-05	0.0271679	0.00262682	0.0272946	5.52266	132284	1.36815e+06	1.37453e+06	-84.4773	0.0000000E+000	0.0000000E+000	0.0000000E+000	84.4773	0.0000000E+000	0.0000000E+000	0.0000000E+000	-84.4773	0.0000000E+000	0.0000000E+000	0.0000000E+000	-5.52266	0.0000000E+000	0.0000000E+000	0.0000000E+000	5.52266	10.3425	84.4773	-3.20813e-06	-1.78547e-06	83254.3
2.15577	37.0363	2.90836	37.1504	-4.49007	16.1988	0.385563	-0.00406667	25384.6	155.575	1	11	0.00515385	0.00013873	0	-2.33846e-05	0.026835	0.00210728	0.0269176	4.49007	155575	1.98116e+06	1.98726e+06	-85.5099	0.0000000E+000	0.0000000E+000	0.0000000E+000	85.5099	0.0000000E+000	0.0000000E+000	0.0000000E+000	-85.5099	0.0000000E+000	0.0000000E+000	0.0000000E+000	-4.49007	0.0000000E+000	0.0000000E+000	0.0000000E+000	4.49007	12.7344	85.5099	-7.95207e-07	-1.56796e-06	94810.5
1.46631	37.4735	2.47414	37.5551	-3.77739	18.4041	0.385565	-0.00391716	43870.3	190.406	1	12	0.00515604	0.000137293	0	-2.17375e-05	0.0265697	0.00175423	0.0266275	3.77739	190406	2.8839e+06	2.89018e+06	-86.2226	0.0000000E+000	0.0000000E+000	0.0000000E+000	86.2226	0.0000000E+000	0.0000000E+000	0.0000000E+000	-86.2226	0.0000000E+000	0.0000000E+000	0.0000000E+000	-3.77739	0.0000000E+000	0.0000000E+000	0.0000000E+000	3.77739	15.1461	86.2226	1.64713e-06	-1.51032e-06	98429.9
1.00006	37.8337	2.23004	37.8994	-3.37329	20.5442	0.385568	-0.00347801	71364.1	247.082	1	12	0.00515677	0.000136065	0	-2.16073e-05	0.0263399	0.00155256	0.0263856	3.37329	247082	4.19186e+06	4.19914e+06	-86.6267	0.0000000E+000	0.0000000E+000	0.0000000E+000	86.6267	0.0000000E+000	0.0000000E+000	0.0000000E+000	-86.6267	0.0000000E+000	0.0000000E+000	0.0000000E+000	-3.37329	0.0000000E+000	0.0000000E+000	0.0000000E+000	3.37329	16.9655	86.6267	1.30158e-07	-1.34101e-06	110859
0.681362	38.1702	2.13539	38.2298	-3.20201	23.6653	0.385562	-0.00305501	109387	341.282	1	12	0.00515711	0.000134897	0	-2.60744e-05	0.0261167	0.00146107	0.0261576	3.20201	341282	6.10044e+06	6.10998e+06	-86.798	0.0000000E+000	0.0000000E+000	0.0000000E+000	86.798	0.0000000E+000	0.0000000E+000	0.0000000E+000	-86.798	0.0000000E+000	0.0000000E+000	0.0000000E+000	-3.20201	0.0000000E+000	0.0000000E+000	0.0000000E+000	3.20201	17.8751	86.798	-4.46706e-06	-1.17789e-06	126206
0.464091	38.4636	2.21822	38.5275	-3.30063	28.2299	0.385563	-0.00267276	154601	512.484	1	12	0.00515564	0.000133817	0	-3.7406e-05	0.0259124	0.00149439	0.0259555	3.30063	512484	8.88639e+06	8.90116e+06	-86.6994	0.0000000E+000	0.0000000E+000	0.0000000E+000	86.6994	0.0000000E+000	0.0000000E+000	0.0000000E+000	-86.6994	0.0000000E+000	0.0000000E+000	0.0000000E+000	-3.30063	0.0000000E+000	0.0000000E+000	0.0000000E+000	3.30063	17.3398	86.6994	-1.13316e-05	-1.03052e-06	144256
0.316193	38.8459	2.43902	38.9224	-3.59272	34.9122	0.385565	-0.0025911	206373	810.371	1	12	0.00515652	0.000132482	0	-5.42733e-05	0.0256417	0.00160996	0.0256921	3.59272	810372	1.29067e+07	1.29321e+07	-86.4073	0.0000000E+000	0.0000000E+000	0.0000000E+000	86.4073	0.0000000E+000	0.0000000E+000	0.0000000E+000	-86.4073	0.0000000E+000	0.0000000E+000	0.0000000E+000	-3.59272	0.0000000E+000	0.0000000E+000	0.0000000E+000	3.59272	15.9268	86.4073	-1.68673e-05	-9.99037e-07	148804
0.215268	39.3636	2.86322	39.4676	-4.16024	44.71	0.385562	-0.0028063	258218	1358.99	1	12	0.00515738	0.000130674	0	-7.16091e-05	0.0252705	0.00183812	0.0253372	4.16024	1.35899e+06	1.86833e+07	1.87327e+07	-85.8398	0.0000000E+000	0.0000000E+000	0.0000000E+000	85.8398	0.0000000E+000	0.0000000E+000	0.0000000E+000	-85.8398	0.0000000E+000	0.0000000E+000	0.0000000E+000	-4.16024	0.0000000E+000	0.0000000E+000	0.0000000E+000	4.16024	13.748	85.8398	-1.73358e-05	-1.082e-06	137392
0.146929	39.9513	3.57985	40.1114	-5.12033	59.0467	0.385564	-0.00295153	302586	2410.14	1	12	0.00515412	0.000128495	0	-8.07357e-05	0.0248311	0.002225	0.0249306	5.12033	2.41014e+06	2.68973e+07	2.70051e+07	-84.8797	0.0000000E+000	0.0000000E+000	0.0000000E+000	84.8797	0.0000000E+000	0.0000000E+000	0.0000000E+000	-84.8797	0.0000000E+000	0.0000000E+000	0.0000000E+000	-5.12033	0.0000000E+000	0.0000000E+000	0.0000000E+000	5.12033	11.1601	84.8797	-9.12665e-06	-1.138e-06	130632
0.0999041	40.6432	4.48733	40.8901	-6.30039	80.1166	0.385566	-0.00276127	355017	4275.5	1	12	0.00515489	0.000126067	0	-7.18904e-05	0.0243081	0.0026838	0.0244558	6.30039	4.2755e+06	3.87246e+07	3.89599e+07	-83.6996	0.0000000E+000	0.0000000E+000	0.0000000E+000	83.6996	0.0000000E+000	0.0000000E+000	0.0000000E+000	-83.6996	0.0000000E+000	0.0000000E+000	0.0000000E+000	-6.30039	0.0000000E+000	0.0000000E+000	0.0000000E+000	6.30039	9.05733	83.6996	8.84533e-06	-1.06465e-06	139634
0.0680626	41.5616	5.58619	41.9353	-7.65512	111.029	0.385561	-0.00237996	418597	7427.94	1	12	0.00515587	0.000122948	0	-4.45185e-05	0.0236337	0.00317656	0.0238463	7.65512	7.42793e+06	5.52642e+07	5.57612e+07	-82.3449	0.0000000E+000	0.0000000E+000	0.0000000E+000	82.3449	0.0000000E+000	0.0000000E+000	0.0000000E+000	-82.3449	0.0000000E+000	0.0000000E+000	0.0000000E+000	-7.65512	0.0000000E+000	0.0000000E+000	0.0000000E+000	7.65512	7.44005	82.3449	2.73719e-05	-9.17619e-07	162003
0.0464052	42.8309	6.87838	43.3797	-9.12345	156.352	0.385559	-0.00122896	498617	12536.2	1	12	0.00515447	0.000118822	0	1.81967e-06	0.0227606	0.00365522	0.0230523	9.12345	1.25362e+07	7.80617e+07	7.90619e+07	-80.8765	0.0000000E+000	0.0000000E+000	0.0000000E+000	80.8765	0.0000000E+000	0.0000000E+000	0.0000000E+000	-80.8765	0.0000000E+000	0.0000000E+000	0.0000000E+000	-9.12345	0.0000000E+000	0.0000000E+000	0.0000000E+000	9.12345	6.22689	80.8765	4.63382e-05	-4.73837e-07	313727
0.0315922	44.4235	8.74695	45.2764	-11.139	222.913	0.385557	-0.000237601	575948	21495.8	1	12	0.00515485	0.000113853	0	3.27549e-05	0.0216705	0.0042669	0.0220865	11.139	2.14958e+07	1.09171e+08	1.11267e+08	-78.861	0.0000000E+000	0.0000000E+000	0.0000000E+000	78.861	0.0000000E+000	0.0000000E+000	0.0000000E+000	-78.861	0.0000000E+000	0.0000000E+000	0.0000000E+000	-11.139	0.0000000E+000	0.0000000E+000	0.0000000E+000	11.139	5.07874	78.861	3.09352e-05	-9.16087e-08	1.62271e+06
0.0215268	46.0608	11.1955	47.4019	-13.6614	320.583	0.385556	0.000202656	660383	36837.9	1	12	0.00515496	0.00010875	0	-5.6905e-06	0.0204994	0.00498257	0.0210962	13.6614	3.68379e+07	1.51559e+08	1.55972e+08	-76.3386	0.0000000E+000	0.0000000E+000	0.0000000E+000	76.3386	0.0000000E+000	0.0000000E+000	0.0000000E+000	-76.3386	0.0000000E+000	0.0000000E+000	0.0000000E+000	-13.6614	0.0000000E+000	0.0000000E+000	0.0000000E+000	13.6614	4.11421	76.3386	-3.84454e-05	7.81352e-08	1.90252e+06
0.0146812	47.8699	14.0983	49.9028	-16.4104	463.779	0.385566	0.000229905	768938	61372.9	1	12	0.00515545	0.00010331	0	-0.000161748	0.0192226	0.00566132	0.0200389	16.4104	6.13729e+07	2.08388e+08	2.17237e+08	-73.5896	0.0000000E+000	0.0000000E+000	0.0000000E+000	73.5896	0.0000000E+000	0.0000000E+000	0.0000000E+000	-73.5896	0.0000000E+000	0.0000000E+000	0.0000000E+000	-16.4104	0.0000000E+000	0.0000000E+000	0.0000000E+000	16.4104	3.39543	73.5896	-0.000156058	8.86434e-08	1.67707e+06

0.0100092	50.211	17.6937	53.2373	-19.4117	673.8	0.385563	-0.00011861	898678	99267.5	1	12	0.00515546	9.68391e-05	0	-0.000443397	0.017716	0.00624288	0.0187838	19.4117	9.92675e+07	2.81701e+08	2.9868e+08	-70.5883	0.0000000E+000	0.0000000E+000	0.0000000E+000	70.5883	0.0000000E+000	0.0000000E+000	0.0000000E+000	-70.5883	0.0000000E+000	0.0000000E+000	0.0000000E+000	-19.4117	0.0000000E+000	0.0000000E+000	0.0000000E+000	19.4117	2.8378	70.5883	-0.000281649	-4.57317e-08	3.25067e+06