File: txt/14958_R243_UA603_SOC00_C05.mpt
EC-Lab ASCII FILE
Nb header lines : 63

Potentio Electrochemical Impedance Spectroscopy

Run on channel : 5 (SN 65912)
User :
CE vs. WE compliance from -10 V to 10 V
Electrode connection : standard
Potential control : Ewe
Ewe ctrl range : min = -10.00 V, max = 10.00 V
Safety Limits :
	Do not start on E overload
Acquisition started on : 09/22/2025 10:44:05.538
Loaded Setting File :  C:\Users\Celltest\OneDrive - store-dot.com\Documents\EC-Lab\Data\Gyutae\17740_R277_UA674_SOC00_C04.mpr
Saved on :
	File : 14958_R243_UA603_SOC00_C05.mpr
	Directory : C:\Users\Celltest\OneDrive - store-dot.com\Documents\EC-Lab\Data\Anna\
	Host : 169.254.61.224
Device : VMP-3e (SN .003165)
Address : USB
EC-LAB for windows v11.62 (software)
Internet server v27.00 (firmware)
Command interpretor v12.03 (firmware)
Electrode material :
Initial state :
Electrolyte :
Comments :
Electrode surface area : 0.001 cm²
Characteristic mass : 0.001 g
Equivalent Weight : 0.000 g/eq.
Density : 0.000 g/cm3
Volume (V) : 0.001 cm³
Cycle Definition : Charge/Discharge alternance
Mode                Single sine
E (V)               0.0000
vs.                 Eoc
tE (h:m:s)          0:00:0.0000
record              0
dI                  0.000
unit dI             mA
dt (s)              0.000
fi                  100.000
unit fi             kHz
ff                  10.000
unit ff             mHz
Nd                  6
Points              per decade
spacing             Logarithmic
Va (mV)             5.0
pw                  0.10
Na                  2
corr                0
E range min (V)     -10.000
E range max (V)     10.000
I Range             Auto
Bandwidth           5
nc cycles           0
goto Ns'            0
nr cycles           0
inc. cycle          0

freq/Hz	Re(Z)/Ohm	-Im(Z)/Ohm	|Z|/Ohm	Phase(Z)/deg	time/s	<Ewe>/V	<I>/mA	Cs/µF	Cp/µF	cycle number	I Range	|Ewe|/V	|I|/A	Ns	(Q-Qo)/mA.h	Re(Y)/Ohm-1	Im(Y)/Ohm-1	|Y|/Ohm-1	Phase(Y)/deg	Re(C)/nF	Im(C)/nF	|C|/nF	Phase(C)/deg	Re(M)	Im(M)	|M|	Phase(M)/deg	Re(Permittivity)	Im(Permittivity)	|Permittivity|	Phase(Permittivity)/deg	Re(Resistivity)/Ohm.cm	Im(Resistivity)/Ohm.cm	|Resistivity|/Ohm.cm	Phase(Resistivity)/deg	Re(Conductivity)/mS/cm	Im(Conductivity)/mS/cm	|Conductivity|/mS/cm	Phase(Conductivity)/deg	Tan(Delta)	Loss Angle(Delta)/deg	dq/mA.h	Pwe/W	Rwe/Ohm
100004	3.47937	1.52319	3.79818	-23.6427	1.41847	0.345792	0.0943603	1.04484	0.168038	1	10	0.00494132	0.00130097	0	3.96996e-05	0.241185	0.105585	0.263284	23.6427	168.038	383.844	419.014	-66.3573	0.0000000E+000	0.0000000E+000	0.0000000E+000	66.3573	0.0000000E+000	0.0000000E+000	0.0000000E+000	-66.3573	0.0000000E+000	0.0000000E+000	0.0000000E+000	-23.6427	0.0000000E+000	0.0000000E+000	0.0000000E+000	23.6427	2.28427	66.3573	3.96996e-05	3.2629e-05	3664.59
68132	2.17667	0.557165	2.24685	-14.3578	2.31049	0.345779	0.107378	4.19262	0.257814	1	9	0.00493501	0.00219642	0	6.40964e-05	0.431167	0.110367	0.445068	14.3578	257.814	1007.2	1039.67	-75.6422	0.0000000E+000	0.0000000E+000	0.0000000E+000	75.6422	0.0000000E+000	0.0000000E+000	0.0000000E+000	-75.6422	0.0000000E+000	0.0000000E+000	0.0000000E+000	-14.3578	0.0000000E+000	0.0000000E+000	0.0000000E+000	14.3578	3.90669	75.6422	2.43968e-05	3.71291e-05	3220.2
46420.4	1.47688	0.265752	1.5006	-10.2007	2.60648	0.345775	0.118978	12.9014	0.404632	1	9	0.00480939	0.00320499	0	7.36623e-05	0.655868	0.118018	0.666401	10.2007	404.632	2248.68	2284.8	-79.7993	0.0000000E+000	0.0000000E+000	0.0000000E+000	79.7993	0.0000000E+000	0.0000000E+000	0.0000000E+000	-79.7993	0.0000000E+000	0.0000000E+000	0.0000000E+000	-10.2007	0.0000000E+000	0.0000000E+000	0.0000000E+000	10.2007	5.55736	79.7993	9.56589e-06	4.11398e-05	2906.21
31621.1	1.14687	0.197851	1.16381	-9.78798	2.90349	0.345776	0.102928	25.4393	0.73522	1	9	0.00535947	0.00460512	0	7.96446e-05	0.84674	0.146075	0.859248	9.78798	735.22	4261.8	4324.75	-80.212	0.0000000E+000	0.0000000E+000	0.0000000E+000	80.212	0.0000000E+000	0.0000000E+000	0.0000000E+000	-80.212	0.0000000E+000	0.0000000E+000	0.0000000E+000	-9.78798	0.0000000E+000	0.0000000E+000	0.0000000E+000	9.78798	5.79663	80.212	5.98227e-06	3.559e-05	3359.4
21544.7	0.997713	0.220411	1.02177	-12.4575	3.34049	0.345772	0.106931	33.5155	1.55958	1	9	0.00523074	0.0051193	0	8.50076e-05	0.955652	0.21112	0.978695	12.4575	1559.58	7059.6	7229.82	-77.5425	0.0000000E+000	0.0000000E+000	0.0000000E+000	77.5425	0.0000000E+000	0.0000000E+000	0.0000000E+000	-77.5425	0.0000000E+000	0.0000000E+000	0.0000000E+000	-12.4575	0.0000000E+000	0.0000000E+000	0.0000000E+000	12.4575	4.52659	77.5425	5.36296e-06	3.69738e-05	3233.59
14678.6	0.935633	0.291475	0.979983	-17.3033	3.77749	0.345769	0.0909926	37.1992	3.29079	1	9	0.0052785	0.00538632	0	0.000104975	0.974246	0.303504	1.02043	17.3033	3290.79	10563.4	11064.1	-72.6967	0.0000000E+000	0.0000000E+000	0.0000000E+000	72.6967	0.0000000E+000	0.0000000E+000	0.0000000E+000	-72.6967	0.0000000E+000	0.0000000E+000	0.0000000E+000	-17.3033	0.0000000E+000	0.0000000E+000	0.0000000E+000	17.3033	3.20999	72.6967	1.99676e-05	3.14624e-05	3799.97
10002.2	0.914014	0.411204	1.00225	-24.2224	4.21448	0.345771	0.0614987	38.696	6.51368	1	9	0.00540429	0.00539214	0	0.000115429	0.90991	0.409357	0.997752	24.2224	6513.67	14478.4	15876.2	-65.7776	0.0000000E+000	0.0000000E+000	0.0000000E+000	65.7776	0.0000000E+000	0.0000000E+000	0.0000000E+000	-65.7776	0.0000000E+000	0.0000000E+000	0.0000000E+000	-24.2224	0.0000000E+000	0.0000000E+000	0.0000000E+000	24.2224	2.22278	65.7776	1.04533e-05	2.12645e-05	5622.41
6811.07	0.918107	0.582721	1.08742	-32.4032	4.76951	0.345782	0.0628393	40.1	11.5152	1	9	0.00550949	0.00506656	0	0.000112659	0.776422	0.492794	0.919607	32.4032	11515.2	18142.7	21488.6	-57.5968	0.0000000E+000	0.0000000E+000	0.0000000E+000	57.5968	0.0000000E+000	0.0000000E+000	0.0000000E+000	-57.5968	0.0000000E+000	0.0000000E+000	0.0000000E+000	-32.4032	0.0000000E+000	0.0000000E+000	0.0000000E+000	32.4032	1.57555	57.5968	-2.76983e-06	2.17287e-05	5502.64
4641.49	0.942553	0.854752	1.2724	-42.2032	5.68668	0.345803	0.0802675	40.1165	18.1032	1	9	0.00516941	0.00406271	0	0.000134635	0.582179	0.527948	0.785915	42.2032	18103.2	19962.7	26948.8	-47.7968	0.0000000E+000	0.0000000E+000	0.0000000E+000	47.7968	0.0000000E+000	0.0000000E+000	0.0000000E+000	-47.7968	0.0000000E+000	0.0000000E+000	0.0000000E+000	-42.2032	0.0000000E+000	0.0000000E+000	0.0000000E+000	42.2032	1.10272	47.7968	2.19763e-05	2.77567e-05	4308.13
3161.01	1.01533	1.23106	1.59575	-50.4855	6.37668	0.345797	0.0785731	40.8991	24.3413	1	9	0.00538162	0.00337248	0	0.000153364	0.398731	0.483449	0.626665	50.4855	24341.3	20075.8	31552.2	-39.5145	0.0000000E+000	0.0000000E+000	0.0000000E+000	39.5145	0.0000000E+000	0.0000000E+000	0.0000000E+000	-39.5145	0.0000000E+000	0.0000000E+000	0.0000000E+000	-50.4855	0.0000000E+000	0.0000000E+000	0.0000000E+000	50.4855	0.824762	39.5145	1.87294e-05	2.71703e-05	4400.95
2155.69	1.20801	1.81012	2.17619	-56.2823	6.84368	0.345794	0.0749981	40.7875	28.2194	1	9	0.00507275	0.00233103	0	0.000161019	0.25508	0.38222	0.459519	56.2823	28219.4	18832.6	33926.4	-33.7177	0.0000000E+000	0.0000000E+000	0.0000000E+000	33.7177	0.0000000E+000	0.0000000E+000	0.0000000E+000	-33.7177	0.0000000E+000	0.0000000E+000	0.0000000E+000	-56.2823	0.0000000E+000	0.0000000E+000	0.0000000E+000	56.2823	0.667364	33.7177	7.65419e-06	2.59338e-05	4610.7
1468.59	1.62982	2.53069	3.0101	-57.2175	7.53393	0.34579	0.0773441	42.8233	30.2689	1	9	0.00489864	0.0016274	0	0.000172404	0.179878	0.279304	0.332215	57.2175	30268.9	19493.8	36003	-32.7825	0.0000000E+000	0.0000000E+000	0.0000000E+000	32.7825	0.0000000E+000	0.0000000E+000	0.0000000E+000	-32.7825	0.0000000E+000	0.0000000E+000	0.0000000E+000	-57.2175	0.0000000E+000	0.0000000E+000	0.0000000E+000	57.2175	0.644023	32.7825	1.1385e-05	2.67448e-05	4470.79
1000.32	2.34239	3.25552	4.01064	-54.2645	8.47971	0.345796	0.0808759	48.872	32.2014	1	10	0.00506771	0.00126357	0	0.000189692	0.145624	0.202392	0.249337	54.2645	32201.4	23169.3	39670.5	-35.7355	0.0000000E+000	0.0000000E+000	0.0000000E+000	35.7355	0.0000000E+000	0.0000000E+000	0.0000000E+000	-35.7355	0.0000000E+000	0.0000000E+000	0.0000000E+000	-54.2645	0.0000000E+000	0.0000000E+000	0.0000000E+000	54.2645	0.719512	35.7355	1.72883e-05	2.79666e-05	4275.63
681.09	3.36528	3.93355	5.17667	-49.4519	8.94541	0.345791	0.0808294	59.4061	34.3004	1	10	0.00477628	0.000922655	0	0.000200015	0.12558	0.146785	0.193174	49.4519	34300.4	29345.1	45140.3	-40.5481	0.0000000E+000	0.0000000E+000	0.0000000E+000	40.5481	0.0000000E+000	0.0000000E+000	0.0000000E+000	-40.5481	0.0000000E+000	0.0000000E+000	0.0000000E+000	-49.4519	0.0000000E+000	0.0000000E+000	0.0000000E+000	49.4519	0.855533	40.5481	1.03232e-05	2.79501e-05	4278.03
463.961	4.51268	4.41248	6.31144	-44.3567	9.41421	0.345781	0.0769235	77.7422	37.9983	1	10	0.00463124	0.000733785	0	0.000209934	0.113287	0.110771	0.158442	44.3567	37998.3	38861.3	54351.4	-45.6433	0.0000000E+000	0.0000000E+000	0.0000000E+000	45.6433	0.0000000E+000	0.0000000E+000	0.0000000E+000	-45.6433	0.0000000E+000	0.0000000E+000	0.0000000E+000	-44.3567	0.0000000E+000	0.0000000E+000	0.0000000E+000	44.3567	1.02271	45.6433	9.91935e-06	2.65987e-05	4495.12
316.316	5.72086	4.78116	7.45571	-39.8869	9.88093	0.345795	0.0783924	105.236	43.2766	1	10	0.00456895	0.000612811	0	0.000219545	0.102916	0.0860111	0.134125	39.8869	43276.6	51782.4	67485.4	-50.1131	0.0000000E+000	0.0000000E+000	0.0000000E+000	50.1131	0.0000000E+000	0.0000000E+000	0.0000000E+000	-50.1131	0.0000000E+000	0.0000000E+000	0.0000000E+000	-39.8869	0.0000000E+000	0.0000000E+000	0.0000000E+000	39.8869	1.19654	50.1131	9.61011e-06	2.71077e-05	4411.08
215.345	6.83719	5.22998	8.60812	-37.4135	10.3484	0.34579	0.076864	141.314	52.1638	1	10	0.00454639	0.000528151	0	0.000228551	0.09227	0.0705802	0.116169	37.4135	52163.8	68194.1	85857.4	-52.5865	0.0000000E+000	0.0000000E+000	0.0000000E+000	52.5865	0.0000000E+000	0.0000000E+000	0.0000000E+000	-52.5865	0.0000000E+000	0.0000000E+000	0.0000000E+000	-37.4135	0.0000000E+000	0.0000000E+000	0.0000000E+000	37.4135	1.30731	52.5865	9.00613e-06	2.65788e-05	4498.73
146.737	8.01056	5.82379	9.90382	-36.0177	10.8114	0.3458	0.0726509	186.24	64.3991	1	10	0.00452052	0.000456442	0	0.000237902	0.081669	0.0593745	0.100971	36.0177	64399.1	88580.2	109516	-53.9823	0.0000000E+000	0.0000000E+000	0.0000000E+000	53.9823	0.0000000E+000	0.0000000E+000	0.0000000E+000	-53.9823	0.0000000E+000	0.0000000E+000	0.0000000E+000	-36.0177	0.0000000E+000	0.0000000E+000	0.0000000E+000	36.0177	1.37549	53.9823	9.35127e-06	2.51227e-05	4759.74
100.032	9.64733	6.45127	11.6056	-33.7711	11.2797	0.345795	0.0751214	246.624	76.2064	1	10	0.00452243	0.000389677	0	0.000247838	0.0716263	0.0478972	0.0861653	33.7711	76206.4	113960	137093	-56.2289	0.0000000E+000	0.0000000E+000	0.0000000E+000	56.2289	0.0000000E+000	0.0000000E+000	0.0000000E+000	-56.2289	0.0000000E+000	0.0000000E+000	0.0000000E+000	-33.7711	0.0000000E+000	0.0000000E+000	0.0000000E+000	33.7711	1.49542	56.2289	9.93617e-06	2.59766e-05	4603.15
68.104	11.1084	5.03055	12.1944	-24.3638	11.7583	0.345798	0.0683448	464.55	79.0572	1	10	0.00451214	0.000370017	0	0.000256987	0.0747018	0.0338294	0.0820048	24.3638	79057.2	174574	191640	-65.6362	0.0000000E+000	0.0000000E+000	0.0000000E+000	65.6362	0.0000000E+000	0.0000000E+000	0.0000000E+000	-65.6362	0.0000000E+000	0.0000000E+000	0.0000000E+000	-24.3638	0.0000000E+000	0.0000000E+000	0.0000000E+000	24.3638	2.20819	65.6362	9.14873e-06	2.36335e-05	5059.61
46.4415	11.6904	6.5221	13.3867	-29.1573	12.2136	0.345789	0.0799246	525.443	124.726	1	10	0.004505	0.000336529	0	0.000265961	0.0652355	0.0363951	0.0747012	29.1573	124726	223562	256001	-60.8427	0.0000000E+000	0.0000000E+000	0.0000000E+000	60.8427	0.0000000E+000	0.0000000E+000	0.0000000E+000	-60.8427	0.0000000E+000	0.0000000E+000	0.0000000E+000	-29.1573	0.0000000E+000	0.0000000E+000	0.0000000E+000	29.1573	1.79242	60.8427	8.97372e-06	2.7637e-05	4326.44
31.6296	16.9591	8.35362	18.9049	-26.2237	13.1174	0.345797	0.068497	602.355	117.613	1	11	0.00500569	0.000264783	0	0.00028365	0.0474521	0.0233737	0.0528964	26.2237	117613	238771	266166	-63.7763	0.0000000E+000	0.0000000E+000	0.0000000E+000	63.7763	0.0000000E+000	0.0000000E+000	0.0000000E+000	-63.7763	0.0000000E+000	0.0000000E+000	0.0000000E+000	-26.2237	0.0000000E+000	0.0000000E+000	0.0000000E+000	26.2237	2.03015	63.7763	1.76892e-05	2.3686e-05	5048.35
21.5517	18.0446	7.992	19.7352	-23.8887	13.5564	0.345794	0.0777747	924.022	151.534	1	11	0.00500395	0.000253555	0	0.000293483	0.0463301	0.0205197	0.0506708	23.8887	151534	342138	374194	-66.1113	0.0000000E+000	0.0000000E+000	0.0000000E+000	66.1113	0.0000000E+000	0.0000000E+000	0.0000000E+000	-66.1113	0.0000000E+000	0.0000000E+000	0.0000000E+000	-23.8887	0.0000000E+000	0.0000000E+000	0.0000000E+000	23.8887	2.25783	66.1113	9.83352e-06	2.6894e-05	4446.1
14.6852	21.2321	6.33836	22.158	-16.6218	14.034	0.345796	0.0661756	1709.88	139.913	1	11	0.00499787	0.000225556	0	0.000302636	0.0432446	0.0129097	0.0451304	16.6218	139913	468677	489115	-73.3782	0.0000000E+000	0.0000000E+000	0.0000000E+000	73.3782	0.0000000E+000	0.0000000E+000	0.0000000E+000	-73.3782	0.0000000E+000	0.0000000E+000	0.0000000E+000	-16.6218	0.0000000E+000	0.0000000E+000	0.0000000E+000	16.6218	3.34978	73.3782	9.15231e-06	2.28832e-05	5225.43
10.0032	21.746	5.78931	22.5035	-14.9077	14.5027	0.345798	0.0724892	2748.24	181.89	1	11	0.00499648	0.000222032	0	0.000310153	0.0429419	0.0114322	0.0444376	14.9077	181890	683223	707020	-75.0923	0.0000000E+000	0.0000000E+000	0.0000000E+000	75.0923	0.0000000E+000	0.0000000E+000	0.0000000E+000	-75.0923	0.0000000E+000	0.0000000E+000	0.0000000E+000	-14.9077	0.0000000E+000	0.0000000E+000	0.0000000E+000	14.9077	3.75624	75.0923	7.51764e-06	2.50666e-05	4770.34
6.81719	22.0641	3.77764	22.3852	-9.71553	14.8604	0.34577	0.0778568	6180.08	176.001	1	11	0.00499477	0.000223129	0	0.000318532	0.0440317	0.00753877	0.0446724	9.71553	176001	1.02797e+06	1.04293e+06	-80.2845	0.0000000E+000	0.0000000E+000	0.0000000E+000	80.2845	0.0000000E+000	0.0000000E+000	0.0000000E+000	-80.2845	0.0000000E+000	0.0000000E+000	0.0000000E+000	-9.71553	0.0000000E+000	0.0000000E+000	0.0000000E+000	9.71553	5.84071	80.2845	8.37848e-06	2.69205e-05	4441.11
4.63925	24.2427	4.09474	24.5861	-9.58712	15.3623	0.345799	0.071314	8378.1	232.391	1	11	0.00500333	0.000203503	0	0.000325191	0.0401054	0.00677404	0.0406734	9.58712	232391	1.37586e+06	1.39535e+06	-80.4129	0.0000000E+000	0.0000000E+000	0.0000000E+000	80.4129	0.0000000E+000	0.0000000E+000	0.0000000E+000	-80.4129	0.0000000E+000	0.0000000E+000	0.0000000E+000	-9.58712	0.0000000E+000	0.0000000E+000	0.0000000E+000	9.58712	5.92045	80.4129	6.65938e-06	2.46603e-05	4848.97
3.1604	24.9482	3.37543	25.1755	-7.7052	16.0712	0.345805	0.0704603	14919.3	268.196	1	11	0.00499632	0.00019846	0	0.000340165	0.0393625	0.00532566	0.0397212	7.7052	268196	1.98226e+06	2.00033e+06	-82.2948	0.0000000E+000	0.0000000E+000	0.0000000E+000	82.2948	0.0000000E+000	0.0000000E+000	0.0000000E+000	-82.2948	0.0000000E+000	0.0000000E+000	0.0000000E+000	-7.7052	0.0000000E+000	0.0000000E+000	0.0000000E+000	7.7052	7.39111	82.2948	1.49735e-05	2.43655e-05	4907.8
2.15577	25.3831	2.69444	25.5257	-6.05932	17.0878	0.345817	0.0713707	27399.9	305.304	1	11	0.005002	0.000195959	0	0.00036442	0.0389574	0.00413537	0.0391762	6.05932	305304	2.87612e+06	2.89228e+06	-83.9407	0.0000000E+000	0.0000000E+000	0.0000000E+000	83.9407	0.0000000E+000	0.0000000E+000	0.0000000E+000	-83.9407	0.0000000E+000	0.0000000E+000	0.0000000E+000	-6.05932	0.0000000E+000	0.0000000E+000	0.0000000E+000	6.05932	9.42053	83.9407	2.42557e-05	2.46812e-05	4845.37
1.46631	26.0487	2.56093	26.1743	-5.61487	18.561	0.345817	0.0671242	42383.5	405.733	1	11	0.00499946	0.000191006	0	0.000393813	0.0380221	0.00373806	0.0382054	5.61487	405734	4.12696e+06	4.14685e+06	-84.3851	0.0000000E+000	0.0000000E+000	0.0000000E+000	84.3851	0.0000000E+000	0.0000000E+000	0.0000000E+000	-84.3851	0.0000000E+000	0.0000000E+000	0.0000000E+000	-5.61487	0.0000000E+000	0.0000000E+000	0.0000000E+000	5.61487	10.1716	84.3851	2.93923e-05	2.32127e-05	5151.91
1.00006	26.3644	2.21127	26.457	-4.79436	21.7513	0.345816	0.0642916	71970	502.752	1	12	0.00500181	0.000189055	0	0.000446994	0.037665	0.00315909	0.0377972	4.79436	502752	5.99419e+06	6.01523e+06	-85.2056	0.0000000E+000	0.0000000E+000	0.0000000E+000	85.2056	0.0000000E+000	0.0000000E+000	0.0000000E+000	-85.2056	0.0000000E+000	0.0000000E+000	0.0000000E+000	-4.79436	0.0000000E+000	0.0000000E+000	0.0000000E+000	4.79436	11.9228	85.2056	5.31812e-05	2.22331e-05	5378.86
0.681362	26.7922	2.13091	26.8768	-4.54743	24.8733	0.345823	0.0619942	109617	689.051	1	12	0.00499889	0.000185992	0	0.000491703	0.0370896	0.00294991	0.0372067	4.54743	689051	8.66352e+06	8.69088e+06	-85.4526	0.0000000E+000	0.0000000E+000	0.0000000E+000	85.4526	0.0000000E+000	0.0000000E+000	0.0000000E+000	-85.4526	0.0000000E+000	0.0000000E+000	0.0000000E+000	-4.54743	0.0000000E+000	0.0000000E+000	0.0000000E+000	4.54743	12.5731	85.4526	4.47091e-05	2.1439e-05	5578.32
0.464091	26.9183	2.05627	26.9967	-4.3683	29.4356	0.345823	0.0573667	166777	967.555	1	12	0.00499798	0.000185133	0	0.000556961	0.0369339	0.00282136	0.0370415	4.3683	967554	1.26661e+07	1.2703e+07	-85.6317	0.0000000E+000	0.0000000E+000	0.0000000E+000	85.6317	0.0000000E+000	0.0000000E+000	0.0000000E+000	-85.6317	0.0000000E+000	0.0000000E+000	0.0000000E+000	-4.3683	0.0000000E+000	0.0000000E+000	0.0000000E+000	4.3683	13.0908	85.6317	6.5258e-05	1.98387e-05	6028.3
0.316193	27.2361	2.20414	27.3251	-4.62671	36.1171	0.345821	0.0506925	228364	1485.88	1	12	0.00500195	0.000183053	0	0.000654474	0.0364771	0.00295199	0.0365964	4.62671	1.48588e+06	1.83606e+07	1.84207e+07	-85.3733	0.0000000E+000	0.0000000E+000	0.0000000E+000	85.3733	0.0000000E+000	0.0000000E+000	0.0000000E+000	-85.3733	0.0000000E+000	0.0000000E+000	0.0000000E+000	-4.62671	0.0000000E+000	0.0000000E+000	0.0000000E+000	4.62671	12.3568	85.3733	9.75135e-05	1.75306e-05	6821.94
0.215268	27.5966	2.48983	27.7086	-5.1554	45.9149	0.345822	0.0447408	296942	2397.62	1	12	0.00500037	0.000180462	0	0.00079736	0.0359438	0.00324294	0.0360898	5.1554	2.39762e+06	2.65745e+07	2.66824e+07	-84.8446	0.0000000E+000	0.0000000E+000	0.0000000E+000	84.8446	0.0000000E+000	0.0000000E+000	0.0000000E+000	-84.8446	0.0000000E+000	0.0000000E+000	0.0000000E+000	-5.1554	0.0000000E+000	0.0000000E+000	0.0000000E+000	5.1554	11.0837	84.8446	0.000142885	1.54724e-05	7729.46
0.146929	28.2725	2.92744	28.4237	-5.91155	60.2521	0.345826	0.0363547	370020	3925.02	1	12	0.00499818	0.000175846	0	0.00098187	0.0349949	0.0036235	0.035182	5.91155	3.92502e+06	3.79068e+07	3.81095e+07	-84.0884	0.0000000E+000	0.0000000E+000	0.0000000E+000	84.0884	0.0000000E+000	0.0000000E+000	0.0000000E+000	-84.0884	0.0000000E+000	0.0000000E+000	0.0000000E+000	-5.91155	0.0000000E+000	0.0000000E+000	0.0000000E+000	5.91155	9.65775	84.0884	0.00018451	1.25724e-05	9512.55
0.0999041	28.8515	4.01424	29.1294	-7.92099	81.322	0.345817	0.0279437	396856	7536.64	1	12	0.00500092	0.00017168	0	0.0011997	0.0340021	0.00473087	0.0343296	7.92099	7.53664e+06	5.41679e+07	5.46897e+07	-82.079	0.0000000E+000	0.0000000E+000	0.0000000E+000	82.079	0.0000000E+000	0.0000000E+000	0.0000000E+000	-82.079	0.0000000E+000	0.0000000E+000	0.0000000E+000	-7.92099	0.0000000E+000	0.0000000E+000	0.0000000E+000	7.92099	7.18727	82.079	0.000217829	9.66341e-06	12375.5
0.0680626	29.6222	4.92661	30.0291	-9.44271	112.233	0.345816	0.0249047	474639	12775.4	1	12	0.00500007	0.000166508	0	0.00144471	0.0328498	0.00546341	0.0333011	9.44271	1.27754e+07	7.68147e+07	7.78699e+07	-80.5573	0.0000000E+000	0.0000000E+000	0.0000000E+000	80.5573	0.0000000E+000	0.0000000E+000	0.0000000E+000	-80.5573	0.0000000E+000	0.0000000E+000	0.0000000E+000	-9.44271	0.0000000E+000	0.0000000E+000	0.0000000E+000	9.44271	6.01269	80.5573	0.000245006	8.61246e-06	13885.6
0.0464052	30.1198	5.95313	30.7025	-11.1803	157.557	0.345823	0.0199677	576114	21659.6	1	12	0.0049998	0.000162846	0	0.00166659	0.0319525	0.00631534	0.0325706	11.1803	2.16596e+07	1.09587e+08	1.11707e+08	-78.8197	0.0000000E+000	0.0000000E+000	0.0000000E+000	78.8197	0.0000000E+000	0.0000000E+000	0.0000000E+000	-78.8197	0.0000000E+000	0.0000000E+000	0.0000000E+000	-11.1803	0.0000000E+000	0.0000000E+000	0.0000000E+000	11.1803	5.0595	78.8197	0.000221885	6.9053e-06	17319.1
0.0315922	32.2052	7.50769	33.0687	-13.1225	224.119	0.345828	0.0131446	671017	34586.9	1	12	0.00500069	0.000151221	0	0.00185857	0.0294504	0.00686549	0.0302401	13.1225	3.45869e+07	1.48365e+08	1.52343e+08	-76.8775	0.0000000E+000	0.0000000E+000	0.0000000E+000	76.8775	0.0000000E+000	0.0000000E+000	0.0000000E+000	-76.8775	0.0000000E+000	0.0000000E+000	0.0000000E+000	-13.1225	0.0000000E+000	0.0000000E+000	0.0000000E+000	13.1225	4.28963	76.8775	0.000191978	4.54577e-06	26309.5
0.0215268	33.2157	9.64532	34.5878	-16.1925	321.787	0.345829	0.00984254	766521	59609.1	1	12	0.00499748	0.000144487	0	0.0019411	0.027765	0.00806253	0.028912	16.1925	5.96091e+07	2.05276e+08	2.13756e+08	-73.8075	0.0000000E+000	0.0000000E+000	0.0000000E+000	73.8075	0.0000000E+000	0.0000000E+000	0.0000000E+000	-73.8075	0.0000000E+000	0.0000000E+000	0.0000000E+000	-16.1925	0.0000000E+000	0.0000000E+000	0.0000000E+000	16.1925	3.44371	73.8075	8.25319e-05	3.40383e-06	35136.1
0.0146812	35.1193	12.0564	37.1311	-18.9473	464.982	0.345828	0.00528425	899168	94798.6	1	12	0.00500086	0.000134681	0	0.00200299	0.0254724	0.00874466	0.0269316	18.9473	9.47986e+07	2.7614e+08	2.91959e+08	-71.0527	0.0000000E+000	0.0000000E+000	0.0000000E+000	71.0527	0.0000000E+000	0.0000000E+000	0.0000000E+000	-71.0527	0.0000000E+000	0.0000000E+000	0.0000000E+000	-18.9473	0.0000000E+000	0.0000000E+000	0.0000000E+000	18.9473	2.91291	71.0527	6.18914e-05	1.82744e-06	65445.1
0.0100092	37.3115	15.464	40.3892	-22.5118	675.002	0.345825	0.00158616	1.02826e+06	150735	1	12	0.0049996	0.000123786	0	0.00211973	0.0228725	0.00947961	0.0247591	22.5118	1.50735e+08	3.63693e+08	3.93693e+08	-67.4882	0.0000000E+000	0.0000000E+000	0.0000000E+000	67.4882	0.0000000E+000	0.0000000E+000	0.0000000E+000	-67.4882	0.0000000E+000	0.0000000E+000	0.0000000E+000	-22.5118	0.0000000E+000	0.0000000E+000	0.0000000E+000	22.5118	2.41281	67.4882	0.000116741	5.48534e-07	218027