File: txt/16204_R266_UA637_SOC00_C07.mpt
EC-Lab ASCII FILE
Nb header lines : 63

Potentio Electrochemical Impedance Spectroscopy

Run on channel : 7 (SN 66126)
User :
CE vs. WE compliance from -10 V to 10 V
Electrode connection : standard
Potential control : Ewe
Ewe ctrl range : min = -10.00 V, max = 10.00 V
Safety Limits :
	Do not start on E overload
Acquisition started on : 09/15/2025 10:19:04.385
Loaded Setting File :  C:\Users\Celltest\OneDrive - store-dot.com\Documents\EC-Lab\Data\Charmaine\R279\17382_C01.mpr
Saved on :
	File : 16204 R266 G001- 26 half cell_C07.mpr
	Directory : C:\Users\Celltest\OneDrive - store-dot.com\Documents\EC-Lab\Data\Gyutae\
	Host : 169.254.61.224
Device : VMP-3e (SN .003165)
Address : USB
EC-LAB for windows v11.62 (software)
Internet server v27.00 (firmware)
Command interpretor v12.03 (firmware)
Electrode material :
Initial state :
Electrolyte :
Comments :
Electrode surface area : 0.001 cm²
Characteristic mass : 0.001 g
Equivalent Weight : 0.000 g/eq.
Density : 0.000 g/cm3
Volume (V) : 0.001 cm³
Cycle Definition : Charge/Discharge alternance
Mode                Single sine
E (V)               0.0000
vs.                 Eoc
tE (h:m:s)          0:00:0.0000
record              0
dI                  0.000
unit dI             mA
dt (s)              0.000
fi                  100.000
unit fi             kHz
ff                  10.000
unit ff             mHz
Nd                  6
Points              per decade
spacing             Logarithmic
Va (mV)             5.0
pw                  0.10
Na                  2
corr                0
E range min (V)     -10.000
E range max (V)     10.000
I Range             Auto
Bandwidth           5
nc cycles           0
goto Ns'            0
nr cycles           0
inc. cycle          0

freq/Hz	Re(Z)/Ohm	-Im(Z)/Ohm	|Z|/Ohm	Phase(Z)/deg	time/s	<Ewe>/V	<I>/mA	Cs/µF	Cp/µF	cycle number	I Range	|Ewe|/V	|I|/A	Ns	(Q-Qo)/mA.h	Re(Y)/Ohm-1	Im(Y)/Ohm-1	|Y|/Ohm-1	Phase(Y)/deg	Re(C)/nF	Im(C)/nF	|C|/nF	Phase(C)/deg	Re(M)	Im(M)	|M|	Phase(M)/deg	Re(Permittivity)	Im(Permittivity)	|Permittivity|	Phase(Permittivity)/deg	Re(Resistivity)/Ohm.cm	Im(Resistivity)/Ohm.cm	|Resistivity|/Ohm.cm	Phase(Resistivity)/deg	Re(Conductivity)/mS/cm	Im(Conductivity)/mS/cm	|Conductivity|/mS/cm	Phase(Conductivity)/deg	Tan(Delta)	Loss Angle(Delta)/deg	dq/mA.h	Pwe/W	Rwe/Ohm
100004	0.889822	0.132441	0.899624	-8.46575	1.9175	0.319163	0.0733996	12.0166	0.260438	1	9	0.00219667	0.00244176	0	1.14494e-05	1.09946	0.163644	1.11158	8.46575	260.438	1749.79	1769.06	-81.5342	0.0000000E+000	0.0000000E+000	0.0000000E+000	81.5342	0.0000000E+000	0.0000000E+000	0.0000000E+000	-81.5342	0.0000000E+000	0.0000000E+000	0.0000000E+000	-8.46575	0.0000000E+000	0.0000000E+000	0.0000000E+000	8.46575	6.71863	81.5342	1.14494e-05	2.34264e-05	4348.29
68132	0.925728	0.167155	0.940698	-10.2354	2.49549	0.319169	0.0648726	13.9749	0.441253	1	9	0.00273273	0.00290501	0	2.33124e-05	1.04612	0.188895	1.06304	10.2354	441.253	2443.72	2483.24	-79.7646	0.0000000E+000	0.0000000E+000	0.0000000E+000	79.7646	0.0000000E+000	0.0000000E+000	0.0000000E+000	-79.7646	0.0000000E+000	0.0000000E+000	0.0000000E+000	-10.2354	0.0000000E+000	0.0000000E+000	0.0000000E+000	10.2354	5.53813	79.7646	1.1863e-05	2.07053e-05	4919.93
46420.4	0.945948	0.264966	0.982357	-15.6479	3.21449	0.319242	0.0533853	12.9396	0.941378	1	9	0.00504446	0.00513506	0	1.53964e-05	0.980232	0.274569	1.01796	15.6479	941.378	3360.78	3490.14	-74.3521	0.0000000E+000	0.0000000E+000	0.0000000E+000	74.3521	0.0000000E+000	0.0000000E+000	0.0000000E+000	-74.3521	0.0000000E+000	0.0000000E+000	0.0000000E+000	-15.6479	0.0000000E+000	0.0000000E+000	0.0000000E+000	15.6479	3.57007	74.3521	-7.91607e-06	1.70428e-05	5979.95
31621.1	1.00828	0.302821	1.05277	-16.7169	3.7925	0.31925	0.0546886	16.621	1.37519	1	9	0.00491967	0.00467309	0	2.39857e-05	0.909733	0.273225	0.949877	16.7169	1375.19	4578.85	4780.9	-73.2831	0.0000000E+000	0.0000000E+000	0.0000000E+000	73.2831	0.0000000E+000	0.0000000E+000	0.0000000E+000	-73.2831	0.0000000E+000	0.0000000E+000	0.0000000E+000	-16.7169	0.0000000E+000	0.0000000E+000	0.0000000E+000	16.7169	3.32961	73.2831	8.58931e-06	1.74593e-05	5837.6
21544.7	1.08092	0.341481	1.13358	-17.5322	4.23048	0.319254	0.0521751	21.6328	1.96311	1	9	0.00523323	0.00461656	0	3.94386e-05	0.841184	0.265744	0.882162	17.5322	1963.11	6213.99	6516.71	-72.4678	0.0000000E+000	0.0000000E+000	0.0000000E+000	72.4678	0.0000000E+000	0.0000000E+000	0.0000000E+000	-72.4678	0.0000000E+000	0.0000000E+000	0.0000000E+000	-17.5322	0.0000000E+000	0.0000000E+000	0.0000000E+000	17.5322	3.16539	72.4678	1.54529e-05	1.66571e-05	6118.89
14678.6	1.15799	0.386949	1.22093	-18.4774	4.6675	0.31925	0.0476137	28.0209	2.81456	1	9	0.00521114	0.00426819	0	4.50304e-05	0.776827	0.259582	0.819051	18.4774	2814.56	8422.87	8880.68	-71.5226	0.0000000E+000	0.0000000E+000	0.0000000E+000	71.5226	0.0000000E+000	0.0000000E+000	0.0000000E+000	-71.5226	0.0000000E+000	0.0000000E+000	0.0000000E+000	-18.4774	0.0000000E+000	0.0000000E+000	0.0000000E+000	18.4774	2.99261	71.5226	5.59187e-06	1.52007e-05	6704.99
10002.2	1.24349	0.443506	1.32021	-19.6294	5.10549	0.31925	0.0465711	35.8776	4.04889	1	9	0.00519442	0.00393454	0	4.97274e-05	0.713434	0.254456	0.757454	19.6294	4048.89	11352.1	12052.6	-70.3706	0.0000000E+000	0.0000000E+000	0.0000000E+000	70.3706	0.0000000E+000	0.0000000E+000	0.0000000E+000	-70.3706	0.0000000E+000	0.0000000E+000	0.0000000E+000	-19.6294	0.0000000E+000	0.0000000E+000	0.0000000E+000	19.6294	2.80377	70.3706	4.69696e-06	1.48678e-05	6855.12
6811.07	1.34651	0.50877	1.43942	-20.6988	5.48351	0.319191	-0.00371628	45.9286	5.73787	1	9	0.00521648	0.00362401	0	5.28477e-05	0.64988	0.245553	0.694724	20.6988	5737.87	15185.8	16233.7	-69.3012	0.0000000E+000	0.0000000E+000	0.0000000E+000	69.3012	0.0000000E+000	0.0000000E+000	0.0000000E+000	-69.3012	0.0000000E+000	0.0000000E+000	0.0000000E+000	-20.6988	0.0000000E+000	0.0000000E+000	0.0000000E+000	20.6988	2.64659	69.3012	3.12029e-06	-1.1862e-06	85889.9
4641.49	1.45882	0.580607	1.57012	-21.7024	5.95469	0.319202	0.0262401	59.0583	8.07572	1	9	0.00509138	0.00324267	0	5.90498e-05	0.59175	0.235515	0.636895	21.7024	8075.72	20290.9	21838.9	-68.2976	0.0000000E+000	0.0000000E+000	0.0000000E+000	68.2976	0.0000000E+000	0.0000000E+000	0.0000000E+000	-68.2976	0.0000000E+000	0.0000000E+000	0.0000000E+000	-21.7024	0.0000000E+000	0.0000000E+000	0.0000000E+000	21.7024	2.51258	68.2976	6.20213e-06	8.37591e-06	12164.6
3161.01	1.57517	0.666501	1.71037	-22.9347	6.4217	0.3192	0.0242108	75.5428	11.4713	1	9	0.00498011	0.00291171	0	6.04269e-05	0.53845	0.227835	0.584668	22.9347	11471.3	27110.6	29437.7	-67.0653	0.0000000E+000	0.0000000E+000	0.0000000E+000	67.0653	0.0000000E+000	0.0000000E+000	0.0000000E+000	-67.0653	0.0000000E+000	0.0000000E+000	0.0000000E+000	-22.9347	0.0000000E+000	0.0000000E+000	0.0000000E+000	22.9347	2.36334	67.0653	1.37709e-06	7.72809e-06	13184.2
2155.69	1.70575	0.778038	1.87481	-24.519	6.88869	0.319201	0.0211016	94.8928	16.3426	1	9	0.00489975	0.00261347	0	6.52743e-05	0.485288	0.221353	0.533387	24.519	16342.6	35828.9	39380.1	-65.481	0.0000000E+000	0.0000000E+000	0.0000000E+000	65.481	0.0000000E+000	0.0000000E+000	0.0000000E+000	-65.481	0.0000000E+000	0.0000000E+000	0.0000000E+000	-24.519	0.0000000E+000	0.0000000E+000	0.0000000E+000	24.519	2.19237	65.481	4.84744e-06	6.73564e-06	15126.9
1468.59	1.83752	0.928536	2.0588	-26.8083	7.35594	0.319207	0.0233357	116.713	23.7404	1	9	0.00483883	0.00235031	0	6.96289e-05	0.433514	0.219063	0.485719	26.8083	23740.4	46981	52638.6	-63.1917	0.0000000E+000	0.0000000E+000	0.0000000E+000	63.1917	0.0000000E+000	0.0000000E+000	0.0000000E+000	-63.1917	0.0000000E+000	0.0000000E+000	0.0000000E+000	-26.8083	0.0000000E+000	0.0000000E+000	0.0000000E+000	26.8083	1.97895	63.1917	4.35461e-06	7.44892e-06	13678.9
1000.32	1.9924	1.13228	2.29166	-29.6094	7.82468	0.319211	0.02449	140.517	34.303	1	9	0.00479822	0.00209377	0	7.10964e-05	0.379381	0.215601	0.436365	29.6094	34303	60361.1	69427.4	-60.3906	0.0000000E+000	0.0000000E+000	0.0000000E+000	60.3906	0.0000000E+000	0.0000000E+000	0.0000000E+000	-60.3906	0.0000000E+000	0.0000000E+000	0.0000000E+000	-29.6094	0.0000000E+000	0.0000000E+000	0.0000000E+000	29.6094	1.75964	60.3906	1.46749e-06	7.81748e-06	13034.3
681.09	2.1608	1.4321	2.59229	-33.535	8.29042	0.3192	0.0189977	163.171	49.7992	1	9	0.00478107	0.00184434	0	7.23589e-05	0.321549	0.213111	0.385759	33.535	49799.2	75138.5	90143	-56.465	0.0000000E+000	0.0000000E+000	0.0000000E+000	56.465	0.0000000E+000	0.0000000E+000	0.0000000E+000	-56.465	0.0000000E+000	0.0000000E+000	0.0000000E+000	-33.535	0.0000000E+000	0.0000000E+000	0.0000000E+000	33.535	1.50883	56.465	1.26246e-06	6.06406e-06	16802
463.961	2.39062	1.84376	3.01902	-37.6412	9.01321	0.319241	-0.00923726	186.052	69.3922	1	10	0.00482736	0.00159898	0	7.50996e-05	0.262287	0.202289	0.331233	37.6412	69392.1	89973.8	113625	-52.3588	0.0000000E+000	0.0000000E+000	0.0000000E+000	52.3588	0.0000000E+000	0.0000000E+000	0.0000000E+000	-52.3588	0.0000000E+000	0.0000000E+000	0.0000000E+000	-37.6412	0.0000000E+000	0.0000000E+000	0.0000000E+000	37.6412	1.2966	52.3588	2.74075e-06	-2.94891e-06	34560.2
316.316	2.70446	2.41534	3.62601	-41.7679	9.47991	0.319242	-0.0098236	208.315	92.4313	1	10	0.00480287	0.00132456	0	7.31263e-05	0.205694	0.183705	0.275785	41.7679	92431.3	103495	138762	-48.2321	0.0000000E+000	0.0000000E+000	0.0000000E+000	48.2321	0.0000000E+000	0.0000000E+000	0.0000000E+000	-48.2321	0.0000000E+000	0.0000000E+000	0.0000000E+000	-41.7679	0.0000000E+000	0.0000000E+000	0.0000000E+000	41.7679	1.1197	48.2321	-1.97334e-06	-3.1361e-06	32497.4
215.345	3.16325	3.16399	4.47404	-45.0067	9.94745	0.319234	-0.0101177	233.588	116.821	1	10	0.00476719	0.00106552	0	7.13365e-05	0.158028	0.158065	0.223512	45.0067	116821	116794	165191	-44.9933	0.0000000E+000	0.0000000E+000	0.0000000E+000	44.9933	0.0000000E+000	0.0000000E+000	0.0000000E+000	-44.9933	0.0000000E+000	0.0000000E+000	0.0000000E+000	-45.0067	0.0000000E+000	0.0000000E+000	0.0000000E+000	45.0067	0.999768	44.9933	-1.78976e-06	-3.22991e-06	31552
146.737	3.87234	4.11436	5.65004	-46.7357	10.4104	0.319231	-0.01143	263.619	139.791	1	10	0.0047549	0.000841568	0	7.05065e-05	0.121303	0.128884	0.17699	46.7357	139791	131568	191967	-43.2643	0.0000000E+000	0.0000000E+000	0.0000000E+000	43.2643	0.0000000E+000	0.0000000E+000	0.0000000E+000	-43.2643	0.0000000E+000	0.0000000E+000	0.0000000E+000	-46.7357	0.0000000E+000	0.0000000E+000	0.0000000E+000	46.7357	0.941175	43.2643	-8.3006e-07	-3.6488e-06	27929.3
100.032	4.94067	5.2041	7.17585	-46.4875	10.8787	0.319233	-0.0102368	305.728	160.798	1	10	0.00473529	0.000659892	0	7.00772e-05	0.0959487	0.101064	0.139356	46.4875	160798	152658	221721	-43.5125	0.0000000E+000	0.0000000E+000	0.0000000E+000	43.5125	0.0000000E+000	0.0000000E+000	0.0000000E+000	-43.5125	0.0000000E+000	0.0000000E+000	0.0000000E+000	-46.4875	0.0000000E+000	0.0000000E+000	0.0000000E+000	46.4875	0.949381	43.5125	-4.29303e-07	-3.26794e-06	31184.7
68.104	6.51244	6.32335	9.07726	-44.156	11.3573	0.319242	-0.00770537	369.573	179.343	1	10	0.00473276	0.000521386	0	6.96622e-05	0.0790377	0.0767429	0.110165	44.156	179343	184706	257450	-45.844	0.0000000E+000	0.0000000E+000	0.0000000E+000	45.844	0.0000000E+000	0.0000000E+000	0.0000000E+000	-45.844	0.0000000E+000	0.0000000E+000	0.0000000E+000	-44.156	0.0000000E+000	0.0000000E+000	0.0000000E+000	44.156	1.0299	45.844	-4.14987e-07	-2.45988e-06	41431.2
46.4415	8.57782	7.21733	11.2102	-40.0771	11.8126	0.319241	-0.0130103	474.828	196.817	1	10	0.00472893	0.000421841	0	6.85567e-05	0.0682573	0.0574314	0.0892044	40.0771	196817	233917	305703	-49.9229	0.0000000E+000	0.0000000E+000	0.0000000E+000	49.9229	0.0000000E+000	0.0000000E+000	0.0000000E+000	-49.9229	0.0000000E+000	0.0000000E+000	0.0000000E+000	-40.0771	0.0000000E+000	0.0000000E+000	0.0000000E+000	40.0771	1.1885	49.9229	-1.10551e-06	-4.15342e-06	24537.6
31.6296	11.0527	7.62344	13.4268	-34.5955	12.2595	0.319241	-0.0142146	660.049	212.782	1	10	0.00473007	0.000352286	0	6.68808e-05	0.0613089	0.042287	0.074478	34.5955	212782	308497	374762	-55.4045	0.0000000E+000	0.0000000E+000	0.0000000E+000	55.4045	0.0000000E+000	0.0000000E+000	0.0000000E+000	-55.4045	0.0000000E+000	0.0000000E+000	0.0000000E+000	-34.5955	0.0000000E+000	0.0000000E+000	0.0000000E+000	34.5955	1.44983	55.4045	-1.6759e-06	-4.53789e-06	22458.6
21.5517	13.575	7.44663	15.4833	-28.7472	12.9393	0.319258	-0.00278781	991.696	229.389	1	11	0.00473209	0.000305626	0	6.55017e-05	0.0566256	0.0310623	0.0645858	28.7472	229389	418168	476953	-61.2528	0.0000000E+000	0.0000000E+000	0.0000000E+000	61.2528	0.0000000E+000	0.0000000E+000	0.0000000E+000	-61.2528	0.0000000E+000	0.0000000E+000	0.0000000E+000	-28.7472	0.0000000E+000	0.0000000E+000	0.0000000E+000	28.7472	1.82297	61.2528	-1.37907e-06	-8.9003e-07	114520
14.6852	15.7054	6.74432	17.0922	-23.24	13.417	0.319266	-0.00195101	1606.95	250.197	1	11	0.00471224	0.000275695	0	6.55752e-05	0.0537589	0.0230856	0.0585061	23.24	250197	582629	634078	-66.76	0.0000000E+000	0.0000000E+000	0.0000000E+000	66.76	0.0000000E+000	0.0000000E+000	0.0000000E+000	-66.76	0.0000000E+000	0.0000000E+000	0.0000000E+000	-23.24	0.0000000E+000	0.0000000E+000	0.0000000E+000	23.24	2.32868	66.76	7.34845e-08	-6.22892e-07	163641
10.0032	17.4943	5.85472	18.448	-18.5036	13.8857	0.319266	-0.00223373	2717.53	273.709	1	11	0.00472554	0.000256155	0	6.73129e-05	0.0514042	0.0172032	0.0542065	18.5036	273709	817862	862447	-71.4964	0.0000000E+000	0.0000000E+000	0.0000000E+000	71.4964	0.0000000E+000	0.0000000E+000	0.0000000E+000	-71.4964	0.0000000E+000	0.0000000E+000	0.0000000E+000	-18.5036	0.0000000E+000	0.0000000E+000	0.0000000E+000	18.5036	2.98807	71.4964	1.73773e-06	-7.13155e-07	142929
6.81719	18.7901	4.88316	19.4143	-14.5677	14.2434	0.31926	-0.00271941	4780.94	302.464	1	11	0.00471845	0.00024304	0	6.45283e-05	0.0498526	0.0129556	0.0515085	14.5677	302464	1.16386e+06	1.20252e+06	-75.4323	0.0000000E+000	0.0000000E+000	0.0000000E+000	75.4323	0.0000000E+000	0.0000000E+000	0.0000000E+000	-75.4323	0.0000000E+000	0.0000000E+000	0.0000000E+000	-14.5677	0.0000000E+000	0.0000000E+000	0.0000000E+000	14.5677	3.84794	75.4323	-2.78457e-06	-8.68199e-07	117401
4.63925	19.8284	4.08275	20.2444	-11.6348	14.7463	0.31928	-0.00158871	8402.71	341.755	1	11	0.00472853	0.000233572	0	6.77642e-05	0.0483814	0.00996191	0.0493963	11.6348	341755	1.65978e+06	1.6946e+06	-78.3652	0.0000000E+000	0.0000000E+000	0.0000000E+000	78.3652	0.0000000E+000	0.0000000E+000	0.0000000E+000	-78.3652	0.0000000E+000	0.0000000E+000	0.0000000E+000	-11.6348	0.0000000E+000	0.0000000E+000	0.0000000E+000	11.6348	4.85664	78.3652	3.23584e-06	-5.07244e-07	200968
3.1604	20.6319	3.32341	20.8979	-9.15066	15.4552	0.319267	-0.000637767	15152.8	383.229	1	11	0.00472986	0.000226332	0	6.70142e-05	0.0472427	0.0076099	0.0478517	9.15066	383229	2.3791e+06	2.40977e+06	-80.8493	0.0000000E+000	0.0000000E+000	0.0000000E+000	80.8493	0.0000000E+000	0.0000000E+000	0.0000000E+000	-80.8493	0.0000000E+000	0.0000000E+000	0.0000000E+000	-9.15066	0.0000000E+000	0.0000000E+000	0.0000000E+000	9.15066	6.20806	80.8493	-7.49962e-07	-2.03618e-07	500601
2.15577	21.2207	2.75877	21.3993	-7.4071	16.4708	0.319278	0.000545579	26761.1	444.768	1	11	0.00473122	0.000221092	0	6.25379e-05	0.0463405	0.00602442	0.0467305	7.4071	444768	3.42121e+06	3.45e+06	-82.5929	0.0000000E+000	0.0000000E+000	0.0000000E+000	82.5929	0.0000000E+000	0.0000000E+000	0.0000000E+000	-82.5929	0.0000000E+000	0.0000000E+000	0.0000000E+000	-7.4071	0.0000000E+000	0.0000000E+000	0.0000000E+000	7.4071	7.69211	82.5929	-4.47632e-06	1.74191e-07	585209
1.46631	21.717	2.28302	21.8366	-6.00123	17.944	0.319279	0.000198505	47542.9	519.675	1	11	0.0047315	0.000216677	0	5.98239e-05	0.0455436	0.00478782	0.0457946	6.00123	519675	4.94336e+06	4.9706e+06	-83.9988	0.0000000E+000	0.0000000E+000	0.0000000E+000	83.9988	0.0000000E+000	0.0000000E+000	0.0000000E+000	-83.9988	0.0000000E+000	0.0000000E+000	0.0000000E+000	-6.00123	0.0000000E+000	0.0000000E+000	0.0000000E+000	6.00123	9.5124	83.9988	-2.71406e-06	6.33785e-08	1.60841e+06
1.00006	22.1421	1.95547	22.2283	-5.04694	21.1352	0.319278	-0.00041957	81384.6	629.839	1	12	0.00473054	0.000212816	0	6.38587e-05	0.0448132	0.00395765	0.0449877	5.04694	629838	7.13179e+06	7.15955e+06	-84.9531	0.0000000E+000	0.0000000E+000	0.0000000E+000	84.9531	0.0000000E+000	0.0000000E+000	0.0000000E+000	-84.9531	0.0000000E+000	0.0000000E+000	0.0000000E+000	-5.04694	0.0000000E+000	0.0000000E+000	0.0000000E+000	5.04694	11.3232	84.9531	4.03484e-06	-1.33959e-07	760965
0.681362	22.5141	1.71913	22.5797	-4.36651	24.2551	0.319276	-0.000653267	135873	787.618	1	12	0.0047306	0.000209507	0	7.3259e-05	0.0441591	0.00337189	0.0442876	4.36651	787618	1.03148e+07	1.03449e+07	-85.6335	0.0000000E+000	0.0000000E+000	0.0000000E+000	85.6335	0.0000000E+000	0.0000000E+000	0.0000000E+000	-85.6335	0.0000000E+000	0.0000000E+000	0.0000000E+000	-4.36651	0.0000000E+000	0.0000000E+000	0.0000000E+000	4.36651	13.0962	85.6335	9.40029e-06	-2.08572e-07	488737
0.464091	22.8878	1.58714	22.9428	-3.96678	28.8199	0.319278	-0.000205767	216074	1034.04	1	12	0.00473228	0.000206264	0	8.29599e-05	0.0434822	0.00301524	0.0435866	3.96678	1.03405e+06	1.49118e+07	1.49476e+07	-86.0332	0.0000000E+000	0.0000000E+000	0.0000000E+000	86.0332	0.0000000E+000	0.0000000E+000	0.0000000E+000	-86.0332	0.0000000E+000	0.0000000E+000	0.0000000E+000	-3.96678	0.0000000E+000	0.0000000E+000	0.0000000E+000	3.96678	14.4208	86.0332	9.70096e-06	-6.5697e-08	1.55165e+06
0.316193	23.2594	1.56651	23.3121	-3.85302	35.5022	0.31928	0.0002464	321318	1450.9	1	12	0.00472865	0.000202841	0	8.479e-05	0.0427992	0.0028825	0.0428962	3.85302	1.4509e+06	2.15429e+07	2.15917e+07	-86.147	0.0000000E+000	0.0000000E+000	0.0000000E+000	86.147	0.0000000E+000	0.0000000E+000	0.0000000E+000	-86.147	0.0000000E+000	0.0000000E+000	0.0000000E+000	-3.85302	0.0000000E+000	0.0000000E+000	0.0000000E+000	3.85302	14.8479	86.147	1.8301e-06	7.86706e-08	1.29578e+06
0.215268	23.6645	1.66233	23.7228	-4.0182	45.3	0.319289	0.00111218	444757	2183.87	1	12	0.00472976	0.000199376	0	7.10405e-05	0.0420499	0.00295384	0.0421536	4.0182	2.18387e+06	3.1089e+07	3.11656e+07	-85.9818	0.0000000E+000	0.0000000E+000	0.0000000E+000	85.9818	0.0000000E+000	0.0000000E+000	0.0000000E+000	-85.9818	0.0000000E+000	0.0000000E+000	0.0000000E+000	-4.0182	0.0000000E+000	0.0000000E+000	0.0000000E+000	4.0182	14.2357	85.9818	-1.37496e-05	3.55106e-07	287085
0.146929	24.1357	1.84077	24.2057	-4.36137	59.6367	0.319289	0.000934794	588456	3403.1	1	12	0.00473107	0.000195452	0	3.80629e-05	0.0411929	0.00314168	0.0413125	4.36137	3.4031e+06	4.46206e+07	4.47502e+07	-85.6386	0.0000000E+000	0.0000000E+000	0.0000000E+000	85.6386	0.0000000E+000	0.0000000E+000	0.0000000E+000	-85.6386	0.0000000E+000	0.0000000E+000	0.0000000E+000	-4.36137	0.0000000E+000	0.0000000E+000	0.0000000E+000	4.36137	13.1117	85.6386	-3.29776e-05	2.98469e-07	341561
0.0999041	24.7348	2.15879	24.8288	-4.98798	80.7066	0.319292	0.000166687	737950	5578.71	1	12	0.00473261	0.000190609	0	-9.05564e-06	0.0401232	0.00350185	0.0402758	4.98798	5.57872e+06	6.39194e+07	6.41624e+07	-85.012	0.0000000E+000	0.0000000E+000	0.0000000E+000	85.012	0.0000000E+000	0.0000000E+000	0.0000000E+000	-85.012	0.0000000E+000	0.0000000E+000	0.0000000E+000	-4.98798	0.0000000E+000	0.0000000E+000	0.0000000E+000	4.98798	11.4577	85.012	-4.71185e-05	5.32218e-08	1.91552e+06
0.0680626	25.4437	2.65128	25.5815	-5.94886	111.619	0.319293	-0.000625405	881973	9473.62	1	12	0.0047337	0.000185044	0	-5.32592e-05	0.0388803	0.00405139	0.0390908	5.94886	9.47362e+06	9.09161e+07	9.14083e+07	-84.0511	0.0000000E+000	0.0000000E+000	0.0000000E+000	84.0511	0.0000000E+000	0.0000000E+000	0.0000000E+000	-84.0511	0.0000000E+000	0.0000000E+000	0.0000000E+000	-5.94886	0.0000000E+000	0.0000000E+000	0.0000000E+000	5.94886	9.59676	84.0511	-4.42036e-05	-1.99687e-07	510538
0.0464052	26.2402	3.36602	26.4552	-7.30982	156.942	0.319292	-0.00170271	1.01891e+06	16494.8	1	12	0.00473534	0.000178995	0	-5.9344e-05	0.0374925	0.00480943	0.0377997	7.30982	1.64948e+07	1.28587e+08	1.29641e+08	-82.6902	0.0000000E+000	0.0000000E+000	0.0000000E+000	82.6902	0.0000000E+000	0.0000000E+000	0.0000000E+000	-82.6902	0.0000000E+000	0.0000000E+000	0.0000000E+000	-7.30982	0.0000000E+000	0.0000000E+000	0.0000000E+000	7.30982	7.79562	82.6902	-6.0847e-06	-5.43662e-07	187520
0.0315922	27.0862	4.31049	27.427	-9.04223	223.503	0.319293	-0.00182906	1.16873e+06	28867.6	1	12	0.00473165	0.000172518	0	1.76746e-05	0.0360073	0.0057302	0.0364604	9.04223	2.88676e+07	1.81397e+08	1.8368e+08	-80.9578	0.0000000E+000	0.0000000E+000	0.0000000E+000	80.9578	0.0000000E+000	0.0000000E+000	0.0000000E+000	-80.9578	0.0000000E+000	0.0000000E+000	0.0000000E+000	-9.04223	0.0000000E+000	0.0000000E+000	0.0000000E+000	9.04223	6.28377	80.9578	7.70185e-05	-5.84006e-07	174567
0.0215268	28.0451	5.47387	28.5743	-11.0442	321.173	0.319296	-0.000804001	1.35066e+06	49565.9	1	12	0.00473457	0.000165693	0	0.000205623	0.0343483	0.00670412	0.0349964	11.0442	4.95659e+07	2.53949e+08	2.58741e+08	-78.9558	0.0000000E+000	0.0000000E+000	0.0000000E+000	78.9558	0.0000000E+000	0.0000000E+000	0.0000000E+000	-78.9558	0.0000000E+000	0.0000000E+000	0.0000000E+000	-11.0442	0.0000000E+000	0.0000000E+000	0.0000000E+000	11.0442	5.12346	78.9558	0.000187949	-2.56714e-07	397134
0.0146812	29.2116	7.09731	30.0614	-13.6561	464.369	0.319286	0.000221326	1.52745e+06	85140	1	12	0.00473063	0.000157365	0	0.000463611	0.0323248	0.0078537	0.0332652	13.6561	8.514e+07	3.50425e+08	3.6062e+08	-76.3439	0.0000000E+000	0.0000000E+000	0.0000000E+000	76.3439	0.0000000E+000	0.0000000E+000	0.0000000E+000	-76.3439	0.0000000E+000	0.0000000E+000	0.0000000E+000	-13.6561	0.0000000E+000	0.0000000E+000	0.0000000E+000	13.6561	4.11587	76.3439	0.000257988	7.06663e-08	1.4426e+06
0.0100092	30.4883	9.45519	31.9208	-17.23	674.39	0.319291	0.00102491	1.68171e+06	147552	1	12	0.00473207	0.000148244	0	0.000659494	0.0299217	0.00927947	0.0313275	17.23	1.47552e+08	4.75782e+08	4.98136e+08	-72.77	0.0000000E+000	0.0000000E+000	0.0000000E+000	72.77	0.0000000E+000	0.0000000E+000	0.0000000E+000	-72.77	0.0000000E+000	0.0000000E+000	0.0000000E+000	-17.23	0.0000000E+000	0.0000000E+000	0.0000000E+000	17.23	3.2245	72.77	0.000195882	3.27244e-07	311531