File: txt/16432_R270_UA640_SOC00_C03.mpt
EC-Lab ASCII FILE
Nb header lines : 63

Potentio Electrochemical Impedance Spectroscopy

Run on channel : 3 (SN 65921)
User :
CE vs. WE compliance from -10 V to 10 V
Electrode connection : standard
Potential control : Ewe
Ewe ctrl range : min = -10.00 V, max = 10.00 V
Safety Limits :
	Do not start on E overload
Acquisition started on : 09/15/2025 10:34:05.767
Loaded Setting File :  C:\Users\Celltest\OneDrive - store-dot.com\Documents\EC-Lab\Data\Gyutae\16432.mps
Saved on :
	File : 16432_R270-A001 HG-1800_C03.mpr
	Directory : C:\Users\Celltest\OneDrive - store-dot.com\Documents\EC-Lab\Data\Gyutae\
	Host : 169.254.61.224
Device : VMP-3e (SN .003165)
Address : USB
EC-LAB for windows v11.62 (software)
Internet server v27.00 (firmware)
Command interpretor v12.03 (firmware)
Electrode material :
Initial state :
Electrolyte :
Comments :
Electrode surface area : 0.001 cm²
Characteristic mass : 0.001 g
Equivalent Weight : 0.000 g/eq.
Density : 0.000 g/cm3
Volume (V) : 0.001 cm³
Cycle Definition : Charge/Discharge alternance
Mode                Single sine
E (V)               0.0000
vs.                 Eoc
tE (h:m:s)          0:00:0.0000
record              0
dI                  0.000
unit dI             mA
dt (s)              0.000
fi                  100.000
unit fi             kHz
ff                  10.000
unit ff             mHz
Nd                  6
Points              per decade
spacing             Logarithmic
Va (mV)             5.0
pw                  0.10
Na                  2
corr                0
E range min (V)     -10.000
E range max (V)     10.000
I Range             Auto
Bandwidth           5
nc cycles           0
goto Ns'            0
nr cycles           0
inc. cycle          0

freq/Hz	Re(Z)/Ohm	-Im(Z)/Ohm	|Z|/Ohm	Phase(Z)/deg	time/s	<Ewe>/V	<I>/mA	Cs/µF	Cp/µF	cycle number	I Range	|Ewe|/V	|I|/A	Ns	(Q-Qo)/mA.h	Re(Y)/Ohm-1	Im(Y)/Ohm-1	|Y|/Ohm-1	Phase(Y)/deg	Re(C)/nF	Im(C)/nF	|C|/nF	Phase(C)/deg	Re(M)	Im(M)	|M|	Phase(M)/deg	Re(Permittivity)	Im(Permittivity)	|Permittivity|	Phase(Permittivity)/deg	Re(Resistivity)/Ohm.cm	Im(Resistivity)/Ohm.cm	|Resistivity|/Ohm.cm	Phase(Resistivity)/deg	Re(Conductivity)/mS/cm	Im(Conductivity)/mS/cm	|Conductivity|/mS/cm	Phase(Conductivity)/deg	Tan(Delta)	Loss Angle(Delta)/deg	dq/mA.h	Pwe/W	Rwe/Ohm
100004	0.944861	0.264719	0.981243	-15.6511	1.8655	0.289102	0.0610432	6.01201	0.437557	1	9	0.00497594	0.00507106	0	-7.58143e-06	0.981329	0.274936	1.01912	15.6511	437.558	1561.78	1621.91	-74.3489	0.0000000E+000	0.0000000E+000	0.0000000E+000	74.3489	0.0000000E+000	0.0000000E+000	0.0000000E+000	-74.3489	0.0000000E+000	0.0000000E+000	0.0000000E+000	-15.6511	0.0000000E+000	0.0000000E+000	0.0000000E+000	15.6511	3.5693	74.3489	-7.58143e-06	1.76477e-05	4736.02
68132	1.00953	0.294071	1.05149	-16.2406	2.44349	0.289089	0.0564561	7.94358	0.621317	1	9	0.00504127	0.00479442	0	-7.59046e-06	0.913083	0.265977	0.951034	16.2406	621.317	2132.94	2221.59	-73.7594	0.0000000E+000	0.0000000E+000	0.0000000E+000	73.7594	0.0000000E+000	0.0000000E+000	0.0000000E+000	-73.7594	0.0000000E+000	0.0000000E+000	0.0000000E+000	-16.2406	0.0000000E+000	0.0000000E+000	0.0000000E+000	16.2406	3.43294	73.7594	-9.02723e-09	1.63209e-05	5120.6
46420.4	1.07896	0.325977	1.12713	-16.8107	3.02149	0.289102	0.0619942	10.5178	0.879734	1	9	0.00504107	0.00447249	0	1.0701e-05	0.849296	0.25659	0.887211	16.8107	879.734	2911.86	3041.85	-73.1893	0.0000000E+000	0.0000000E+000	0.0000000E+000	73.1893	0.0000000E+000	0.0000000E+000	0.0000000E+000	-73.1893	0.0000000E+000	0.0000000E+000	0.0000000E+000	-16.8107	0.0000000E+000	0.0000000E+000	0.0000000E+000	16.8107	3.30993	73.1893	1.82914e-05	1.79227e-05	4663.38
31621.1	1.15778	0.372144	1.21612	-17.8189	3.59948	0.289084	0.0575563	13.5248	1.26648	1	9	0.00515827	0.00424157	0	1.59782e-05	0.782839	0.251626	0.822285	17.8189	1266.48	3940.17	4138.71	-72.1811	0.0000000E+000	0.0000000E+000	0.0000000E+000	72.1811	0.0000000E+000	0.0000000E+000	0.0000000E+000	-72.1811	0.0000000E+000	0.0000000E+000	0.0000000E+000	-17.8189	0.0000000E+000	0.0000000E+000	0.0000000E+000	17.8189	3.11112	72.1811	5.27721e-06	1.66386e-05	5022.64
21544.7	1.24598	0.426051	1.31681	-18.8776	4.17748	0.289091	0.0619755	17.3388	1.81508	1	9	0.00496713	0.0037721	0	2.29294e-05	0.718564	0.245706	0.759411	18.8776	1815.08	5308.18	5609.93	-71.1224	0.0000000E+000	0.0000000E+000	0.0000000E+000	71.1224	0.0000000E+000	0.0000000E+000	0.0000000E+000	-71.1224	0.0000000E+000	0.0000000E+000	0.0000000E+000	-18.8776	0.0000000E+000	0.0000000E+000	0.0000000E+000	18.8776	2.92449	71.1224	6.95126e-06	1.79166e-05	4664.61
14678.6	1.34182	0.476863	1.42404	-19.5644	4.6145	0.28908	0.0586191	22.7375	2.54967	1	9	0.00499699	0.00350902	0	2.45097e-05	0.661685	0.235152	0.702227	19.5644	2549.67	7174.42	7614.01	-70.4356	0.0000000E+000	0.0000000E+000	0.0000000E+000	70.4356	0.0000000E+000	0.0000000E+000	0.0000000E+000	-70.4356	0.0000000E+000	0.0000000E+000	0.0000000E+000	-19.5644	0.0000000E+000	0.0000000E+000	0.0000000E+000	19.5644	2.81386	70.4356	1.58021e-06	1.69456e-05	4931.51
10002.2	1.44745	0.541712	1.5455	-20.5185	5.0515	0.289098	0.0610805	29.3735	3.60874	1	9	0.00481824	0.0031176	0	3.26098e-05	0.605992	0.226794	0.647041	20.5185	3608.74	9642.52	10295.7	-69.4815	0.0000000E+000	0.0000000E+000	0.0000000E+000	69.4815	0.0000000E+000	0.0000000E+000	0.0000000E+000	-69.4815	0.0000000E+000	0.0000000E+000	0.0000000E+000	-20.5185	0.0000000E+000	0.0000000E+000	0.0000000E+000	20.5185	2.67199	69.4815	8.10015e-06	1.76582e-05	4733.07
6811.07	1.57612	0.620939	1.69402	-21.5028	5.60651	0.288823	-0.142449	37.6319	5.05611	1	9	0.00499731	0.00294997	0	1.75338e-05	0.549226	0.216377	0.590312	21.5028	5056.11	12833.8	13793.9	-68.4972	0.0000000E+000	0.0000000E+000	0.0000000E+000	68.4972	0.0000000E+000	0.0000000E+000	0.0000000E+000	-68.4972	0.0000000E+000	0.0000000E+000	0.0000000E+000	-21.5028	0.0000000E+000	0.0000000E+000	0.0000000E+000	21.5028	2.53828	68.4972	-1.5076e-05	-4.11426e-05	2027.55
4641.49	1.71259	0.712637	1.85494	-22.593	6.0777	0.289036	0.0875216	48.1166	7.10185	1	9	0.00479573	0.00258538	0	2.65078e-05	0.497728	0.207113	0.539101	22.593	7101.84	17066.9	18485.6	-67.407	0.0000000E+000	0.0000000E+000	0.0000000E+000	67.407	0.0000000E+000	0.0000000E+000	0.0000000E+000	-67.407	0.0000000E+000	0.0000000E+000	0.0000000E+000	-22.593	0.0000000E+000	0.0000000E+000	0.0000000E+000	22.593	2.40317	67.407	8.97402e-06	2.52969e-05	3302.46
3161.01	1.86259	0.819689	2.03498	-23.7533	6.54471	0.289041	0.0945514	61.4249	9.96606	1	9	0.00471229	0.00231564	0	3.90836e-05	0.449778	0.197938	0.491406	23.7533	9966.06	22646	24742	-66.2467	0.0000000E+000	0.0000000E+000	0.0000000E+000	66.2467	0.0000000E+000	0.0000000E+000	0.0000000E+000	-66.2467	0.0000000E+000	0.0000000E+000	0.0000000E+000	-23.7533	0.0000000E+000	0.0000000E+000	0.0000000E+000	23.7533	2.27231	66.2467	1.25758e-05	2.73292e-05	3056.97
2155.69	2.02856	0.959266	2.24393	-25.3085	7.01169	0.289038	0.0905424	76.9653	14.0654	1	9	0.00466345	0.00207825	0	4.76536e-05	0.402872	0.19051	0.445646	25.3085	14065.4	29744.1	32902.1	-64.6915	0.0000000E+000	0.0000000E+000	0.0000000E+000	64.6915	0.0000000E+000	0.0000000E+000	0.0000000E+000	-64.6915	0.0000000E+000	0.0000000E+000	0.0000000E+000	-25.3085	0.0000000E+000	0.0000000E+000	0.0000000E+000	25.3085	2.1147	64.6915	8.56996e-06	2.61702e-05	3192.3
1468.59	2.20493	1.13605	2.48039	-27.259	7.47894	0.289056	0.0898524	95.3943	20.0114	1	9	0.00463921	0.00187036	0	5.74696e-05	0.35839	0.184654	0.403163	27.259	20011.4	38839.7	43691.9	-62.741	0.0000000E+000	0.0000000E+000	0.0000000E+000	62.741	0.0000000E+000	0.0000000E+000	0.0000000E+000	-62.741	0.0000000E+000	0.0000000E+000	0.0000000E+000	-27.259	0.0000000E+000	0.0000000E+000	0.0000000E+000	27.259	1.94087	62.741	9.81599e-06	2.59724e-05	3217
1000.32	2.39991	1.37651	2.76665	-29.8371	7.94768	0.289044	0.0919036	115.585	28.6122	1	9	0.00461652	0.00166863	0	6.87831e-05	0.313536	0.179833	0.361448	29.8371	28612.2	49884.8	57507.8	-60.1629	0.0000000E+000	0.0000000E+000	0.0000000E+000	60.1629	0.0000000E+000	0.0000000E+000	0.0000000E+000	-60.1629	0.0000000E+000	0.0000000E+000	0.0000000E+000	-29.8371	0.0000000E+000	0.0000000E+000	0.0000000E+000	29.8371	1.74348	60.1629	1.13135e-05	2.65642e-05	3145.08
681.09	2.619	1.70174	3.12331	-33.0145	8.66841	0.289014	-0.0186003	137.316	40.7642	1	10	0.00470987	0.00150797	0	7.16117e-05	0.268475	0.174447	0.320173	33.0145	40764.2	62736.5	74817	-56.9855	0.0000000E+000	0.0000000E+000	0.0000000E+000	56.9855	0.0000000E+000	0.0000000E+000	0.0000000E+000	-56.9855	0.0000000E+000	0.0000000E+000	0.0000000E+000	-33.0145	0.0000000E+000	0.0000000E+000	0.0000000E+000	33.0145	1.53901	56.9855	2.82859e-06	-5.37574e-06	15538.2
463.961	2.91468	2.16297	3.62957	-36.579	9.13721	0.289024	-0.0181938	158.595	56.3222	1	10	0.00467516	0.00128808	0	7.00428e-05	0.221248	0.164188	0.275515	36.579	56322.2	75896	94511.3	-53.421	0.0000000E+000	0.0000000E+000	0.0000000E+000	53.421	0.0000000E+000	0.0000000E+000	0.0000000E+000	-53.421	0.0000000E+000	0.0000000E+000	0.0000000E+000	-36.579	0.0000000E+000	0.0000000E+000	0.0000000E+000	36.579	1.34753	53.421	-1.56892e-06	-5.25846e-06	15885.8
316.316	3.31515	2.7753	4.32348	-39.9346	9.60391	0.289013	-0.0184381	181.296	74.7036	1	10	0.0046357	0.00107221	0	6.85724e-05	0.177352	0.148471	0.231295	39.9346	74703.6	89234.9	116377	-50.0654	0.0000000E+000	0.0000000E+000	0.0000000E+000	50.0654	0.0000000E+000	0.0000000E+000	0.0000000E+000	-50.0654	0.0000000E+000	0.0000000E+000	0.0000000E+000	-39.9346	0.0000000E+000	0.0000000E+000	0.0000000E+000	39.9346	1.19452	50.0654	-1.47038e-06	-5.32885e-06	15674.8
215.345	3.91268	3.58029	5.30354	-42.46	10.0715	0.289017	-0.0173604	206.428	94.0746	1	10	0.00462454	0.000871972	0	6.65084e-05	0.139105	0.127288	0.188553	42.46	94074.6	102808	139354	-47.54	0.0000000E+000	0.0000000E+000	0.0000000E+000	47.54	0.0000000E+000	0.0000000E+000	0.0000000E+000	-47.54	0.0000000E+000	0.0000000E+000	0.0000000E+000	-42.46	0.0000000E+000	0.0000000E+000	0.0000000E+000	42.46	1.09284	47.54	-2.06394e-06	-5.01746e-06	16648
146.737	4.8038	4.54335	6.61199	-43.4039	10.5344	0.289041	-0.016803	238.728	112.717	1	10	0.00461574	0.000698086	0	6.41925e-05	0.10988	0.103923	0.15124	43.4039	112717	119179	164039	-46.5961	0.0000000E+000	0.0000000E+000	0.0000000E+000	46.5961	0.0000000E+000	0.0000000E+000	0.0000000E+000	-46.5961	0.0000000E+000	0.0000000E+000	0.0000000E+000	-43.4039	0.0000000E+000	0.0000000E+000	0.0000000E+000	43.4039	1.05733	46.5961	-2.31596e-06	-4.85675e-06	17201.8
100.032	6.09711	5.55036	8.24508	-42.3124	11.0027	0.289029	-0.0173269	286.655	129.901	1	10	0.00460692	0.000558748	0	6.18089e-05	0.089688	0.0816454	0.121284	42.3124	129901	142697	192968	-47.6876	0.0000000E+000	0.0000000E+000	0.0000000E+000	47.6876	0.0000000E+000	0.0000000E+000	0.0000000E+000	-47.6876	0.0000000E+000	0.0000000E+000	0.0000000E+000	-42.3124	0.0000000E+000	0.0000000E+000	0.0000000E+000	42.3124	1.09851	47.6876	-2.38363e-06	-5.00796e-06	16680.9
68.104	7.83228	6.44525	10.1433	-39.4513	11.4813	0.289027	-0.0166221	362.583	146.397	1	10	0.00460287	0.000453786	0	5.96728e-05	0.0761259	0.0626447	0.0985876	39.4513	146397	177902	230393	-50.5487	0.0000000E+000	0.0000000E+000	0.0000000E+000	50.5487	0.0000000E+000	0.0000000E+000	0.0000000E+000	-50.5487	0.0000000E+000	0.0000000E+000	0.0000000E+000	-39.4513	0.0000000E+000	0.0000000E+000	0.0000000E+000	39.4513	1.2152	50.5487	-2.136e-06	-4.80424e-06	17388.1
46.4415	9.92831	7.01697	12.1577	-35.2513	11.9365	0.289031	-0.0190683	488.387	162.69	1	10	0.00459686	0.000378103	0	5.7131e-05	0.0671698	0.0474732	0.0822525	35.2513	162690	230190	281879	-54.7487	0.0000000E+000	0.0000000E+000	0.0000000E+000	54.7487	0.0000000E+000	0.0000000E+000	0.0000000E+000	-54.7487	0.0000000E+000	0.0000000E+000	0.0000000E+000	-35.2513	0.0000000E+000	0.0000000E+000	0.0000000E+000	35.2513	1.4149	54.7487	-2.54181e-06	-5.51133e-06	15157.7
31.6296	12.1957	7.10222	14.113	-30.2145	12.3824	0.289033	-0.0205803	708.489	179.424	1	10	0.00460704	0.000326439	0	5.48656e-05	0.0612305	0.0356577	0.0708565	30.2145	179424	308102	356539	-59.7855	0.0000000E+000	0.0000000E+000	0.0000000E+000	59.7855	0.0000000E+000	0.0000000E+000	0.0000000E+000	-59.7855	0.0000000E+000	0.0000000E+000	0.0000000E+000	-30.2145	0.0000000E+000	0.0000000E+000	0.0000000E+000	30.2145	1.71717	59.7855	-2.26547e-06	-5.94839e-06	14044.1
21.5517	14.3752	6.85249	15.9249	-25.4865	13.0634	0.289052	-0.0131926	1077.68	199.54	1	11	0.00460506	0.000289173	0	5.21638e-05	0.0566838	0.0270205	0.0627946	25.4865	199540	418598	463725	-64.5135	0.0000000E+000	0.0000000E+000	0.0000000E+000	64.5135	0.0000000E+000	0.0000000E+000	0.0000000E+000	-64.5135	0.0000000E+000	0.0000000E+000	0.0000000E+000	-25.4865	0.0000000E+000	0.0000000E+000	0.0000000E+000	25.4865	2.09781	64.5135	-2.70181e-06	-3.81334e-06	21910.2
14.6852	16.2356	6.24811	17.3963	-21.0488	13.541	0.289079	-0.0113877	1734.58	223.756	1	11	0.00459362	0.000264057	0	5.02923e-05	0.0536478	0.0206459	0.0574834	21.0488	223756	581425	622994	-68.9512	0.0000000E+000	0.0000000E+000	0.0000000E+000	68.9512	0.0000000E+000	0.0000000E+000	0.0000000E+000	-68.9512	0.0000000E+000	0.0000000E+000	0.0000000E+000	-21.0488	0.0000000E+000	0.0000000E+000	0.0000000E+000	21.0488	2.59848	68.9512	-1.87148e-06	-3.29195e-06	25385.1
10.0032	17.7744	5.51396	18.61	-17.2349	14.0097	0.289049	-0.0126	2885.47	253.309	1	11	0.00458971	0.000246626	0	4.745e-05	0.0513217	0.015921	0.0537344	17.2349	253309	816548	854937	-72.7651	0.0000000E+000	0.0000000E+000	0.0000000E+000	72.7651	0.0000000E+000	0.0000000E+000	0.0000000E+000	-72.7651	0.0000000E+000	0.0000000E+000	0.0000000E+000	-17.2349	0.0000000E+000	0.0000000E+000	0.0000000E+000	17.2349	3.22353	72.7651	-2.84225e-06	-3.64203e-06	22940.3
6.81719	19.0661	4.77574	19.6552	-14.0623	14.3674	0.289035	-0.0142253	4888.49	288.604	1	11	0.00459763	0.000233915	0	4.87792e-05	0.0493525	0.012362	0.0508772	14.0623	288604	1.15219e+06	1.18779e+06	-75.9377	0.0000000E+000	0.0000000E+000	0.0000000E+000	75.9377	0.0000000E+000	0.0000000E+000	0.0000000E+000	-75.9377	0.0000000E+000	0.0000000E+000	0.0000000E+000	-14.0623	0.0000000E+000	0.0000000E+000	0.0000000E+000	14.0623	3.99229	75.9377	1.32918e-06	-4.11162e-06	20318.3
4.63925	20.1249	4.08917	20.5361	-11.4856	14.8693	0.289049	-0.0120804	8389.52	332.637	1	11	0.00460666	0.00022432	0	4.51591e-05	0.0477196	0.00969614	0.0486947	11.4856	332637	1.63708e+06	1.67053e+06	-78.5144	0.0000000E+000	0.0000000E+000	0.0000000E+000	78.5144	0.0000000E+000	0.0000000E+000	0.0000000E+000	-78.5144	0.0000000E+000	0.0000000E+000	0.0000000E+000	-11.4856	0.0000000E+000	0.0000000E+000	0.0000000E+000	11.4856	4.92151	78.5144	-3.62014e-06	-3.49183e-06	23927.1
3.1604	20.9315	3.44848	21.2136	-9.3555	15.5782	0.289047	-0.0119277	14603.3	385.902	1	11	0.00460015	0.000216849	0	4.04382e-05	0.0465125	0.00766298	0.0471395	9.3555	385901	2.34233e+06	2.37391e+06	-80.6445	0.0000000E+000	0.0000000E+000	0.0000000E+000	80.6445	0.0000000E+000	0.0000000E+000	0.0000000E+000	-80.6445	0.0000000E+000	0.0000000E+000	0.0000000E+000	-9.3555	0.0000000E+000	0.0000000E+000	0.0000000E+000	9.3555	6.06976	80.6445	-4.72088e-06	-3.44767e-06	24233.3
2.15577	21.6039	2.94055	21.8031	-7.75102	16.5938	0.289049	-0.0109944	25106.7	456.679	1	11	0.00460061	0.000211007	0	4.0174e-05	0.045446	0.00618575	0.045865	7.75102	456679	3.35516e+06	3.3861e+06	-82.249	0.0000000E+000	0.0000000E+000	0.0000000E+000	82.249	0.0000000E+000	0.0000000E+000	0.0000000E+000	-82.249	0.0000000E+000	0.0000000E+000	0.0000000E+000	-7.75102	0.0000000E+000	0.0000000E+000	0.0000000E+000	7.75102	7.34688	82.249	-2.64231e-07	-3.17793e-06	26290.5
1.46631	22.1304	2.51015	22.2723	-6.47113	18.067	0.289059	-0.0101327	43240.9	549.24	1	11	0.00459687	0.000206394	0	4.14406e-05	0.0446127	0.0050602	0.0448987	6.47113	549240	4.84231e+06	4.87336e+06	-83.5289	0.0000000E+000	0.0000000E+000	0.0000000E+000	83.5289	0.0000000E+000	0.0000000E+000	0.0000000E+000	-83.5289	0.0000000E+000	0.0000000E+000	0.0000000E+000	-6.47113	0.0000000E+000	0.0000000E+000	0.0000000E+000	6.47113	8.81638	83.5289	1.26666e-06	-2.92896e-06	28527.3
1.00006	22.5882	2.15679	22.691	-5.45424	21.2581	0.289059	-0.00922951	73787.7	666.646	1	12	0.00460093	0.000202765	0	3.56027e-05	0.0438709	0.00418893	0.0440704	5.45424	666646	6.98182e+06	7.01358e+06	-84.5458	0.0000000E+000	0.0000000E+000	0.0000000E+000	84.5458	0.0000000E+000	0.0000000E+000	0.0000000E+000	-84.5458	0.0000000E+000	0.0000000E+000	0.0000000E+000	-5.45424	0.0000000E+000	0.0000000E+000	0.0000000E+000	5.45424	10.4731	84.5458	-5.83795e-06	-2.66787e-06	31319
0.681362	22.9485	1.89894	23.0269	-4.73033	24.378	0.289032	-0.0092638	123007	836.529	1	12	0.00459354	0.000199486	0	2.19931e-05	0.0432795	0.00358129	0.0434274	4.73033	836529	1.01094e+07	1.01439e+07	-85.2697	0.0000000E+000	0.0000000E+000	0.0000000E+000	85.2697	0.0000000E+000	0.0000000E+000	0.0000000E+000	-85.2697	0.0000000E+000	0.0000000E+000	0.0000000E+000	-4.73033	0.0000000E+000	0.0000000E+000	0.0000000E+000	4.73033	12.0849	85.2697	-1.36096e-05	-2.67754e-06	31200.2
0.464091	23.2294	1.76507	23.2964	-4.34522	28.9427	0.289059	-0.00756188	194292	1115.32	1	12	0.00459725	0.000197337	0	-9.83792e-07	0.0428017	0.00325225	0.0429251	4.34522	1.11532e+06	1.46784e+07	1.47207e+07	-85.6548	0.0000000E+000	0.0000000E+000	0.0000000E+000	85.6548	0.0000000E+000	0.0000000E+000	0.0000000E+000	-85.6548	0.0000000E+000	0.0000000E+000	0.0000000E+000	-4.34522	0.0000000E+000	0.0000000E+000	0.0000000E+000	4.34522	13.1606	85.6548	-2.29768e-05	-2.18583e-06	38225.7
0.316193	23.5013	1.71852	23.5641	-4.18228	35.6239	0.289061	-0.00730638	292895	1557.83	1	12	0.00460169	0.000195284	0	-2.92098e-05	0.0423244	0.00309495	0.0424374	4.18228	1.55783e+06	2.13039e+07	2.13608e+07	-85.8177	0.0000000E+000	0.0000000E+000	0.0000000E+000	85.8177	0.0000000E+000	0.0000000E+000	0.0000000E+000	-85.8177	0.0000000E+000	0.0000000E+000	0.0000000E+000	-4.18228	0.0000000E+000	0.0000000E+000	0.0000000E+000	4.18228	13.6753	85.8177	-2.8226e-05	-2.11199e-06	39562.8
0.215268	23.7558	1.83453	23.8265	-4.41587	45.4216	0.289042	-0.00788093	403011	2389.16	1	12	0.00460045	0.000193081	0	-5.56552e-05	0.0418455	0.00323149	0.04197	4.41587	2.38916e+06	3.09378e+07	3.10299e+07	-85.5841	0.0000000E+000	0.0000000E+000	0.0000000E+000	85.5841	0.0000000E+000	0.0000000E+000	0.0000000E+000	-85.5841	0.0000000E+000	0.0000000E+000	0.0000000E+000	-4.41587	0.0000000E+000	0.0000000E+000	0.0000000E+000	4.41587	12.9493	85.5841	-2.64454e-05	-2.27792e-06	36676.2
0.146929	23.9938	2.14443	24.0894	-5.10722	59.7582	0.28904	-0.00732355	505127	4002.9	1	12	0.00459983	0.000190949	0	-6.75006e-05	0.0413472	0.0036954	0.0415121	5.10722	4.0029e+06	4.47878e+07	4.49663e+07	-84.8928	0.0000000E+000	0.0000000E+000	0.0000000E+000	84.8928	0.0000000E+000	0.0000000E+000	0.0000000E+000	-84.8928	0.0000000E+000	0.0000000E+000	0.0000000E+000	-5.10722	0.0000000E+000	0.0000000E+000	0.0000000E+000	5.10722	11.1888	84.8928	-1.18454e-05	-2.1168e-06	39467.1
0.0999041	24.2252	2.57849	24.3621	-6.07559	80.8281	0.289061	-0.00549882	617833	6921.09	1	12	0.00459619	0.000188662	0	-5.26809e-05	0.0408169	0.00434448	0.0410474	6.07559	6.92109e+06	6.50244e+07	6.53917e+07	-83.9244	0.0000000E+000	0.0000000E+000	0.0000000E+000	83.9244	0.0000000E+000	0.0000000E+000	0.0000000E+000	-83.9244	0.0000000E+000	0.0000000E+000	0.0000000E+000	-6.07559	0.0000000E+000	0.0000000E+000	0.0000000E+000	6.07559	9.39511	83.9244	1.48196e-05	-1.58949e-06	52567.8
0.0680626	24.5626	3.20223	24.7705	-7.42778	111.74	0.28905	-0.0042355	730228	12203.8	1	12	0.00459814	0.00018563	0	-1.90427e-05	0.0400319	0.00521897	0.0403707	7.42778	1.22038e+07	9.3609e+07	9.44012e+07	-82.5722	0.0000000E+000	0.0000000E+000	0.0000000E+000	82.5722	0.0000000E+000	0.0000000E+000	0.0000000E+000	-82.5722	0.0000000E+000	0.0000000E+000	0.0000000E+000	-7.42778	0.0000000E+000	0.0000000E+000	0.0000000E+000	7.42778	7.67046	82.5722	3.36383e-05	-1.22427e-06	68244.8
0.0464052	25.1255	4.03457	25.4474	-9.12249	157.064	0.289048	-0.00155748	850072	21368	1	12	0.00460601	0.000181001	0	2.79567e-05	0.0387997	0.00623032	0.0392967	9.12249	2.1368e+07	1.3307e+08	1.34775e+08	-80.8775	0.0000000E+000	0.0000000E+000	0.0000000E+000	80.8775	0.0000000E+000	0.0000000E+000	0.0000000E+000	-80.8775	0.0000000E+000	0.0000000E+000	0.0000000E+000	-9.12249	0.0000000E+000	0.0000000E+000	0.0000000E+000	9.12249	6.22756	80.8775	4.69994e-05	-4.50188e-07	185586
0.0315922	25.8118	5.3076	26.3519	-11.6196	223.625	0.28905	0.000115788	949166	38504.8	1	12	0.00460316	0.00017468	0	2.95427e-05	0.0371703	0.00764319	0.037948	11.6196	3.85048e+07	1.87256e+08	1.91174e+08	-78.3804	0.0000000E+000	0.0000000E+000	0.0000000E+000	78.3804	0.0000000E+000	0.0000000E+000	0.0000000E+000	-78.3804	0.0000000E+000	0.0000000E+000	0.0000000E+000	-11.6196	0.0000000E+000	0.0000000E+000	0.0000000E+000	11.6196	4.86319	78.3804	1.58594e-06	3.34685e-08	2.49637e+06
0.0215268	26.5349	6.91468	27.421	-14.6058	321.294	0.289057	0.000782705	1.06922e+06	67990.2	1	12	0.00459755	0.000167665	0	-9.05037e-05	0.0352899	0.00919613	0.0364684	14.6058	6.79902e+07	2.6091e+08	2.69623e+08	-75.3942	0.0000000E+000	0.0000000E+000	0.0000000E+000	75.3942	0.0000000E+000	0.0000000E+000	0.0000000E+000	-75.3942	0.0000000E+000	0.0000000E+000	0.0000000E+000	-14.6058	0.0000000E+000	0.0000000E+000	0.0000000E+000	14.6058	3.83747	75.3942	-0.000120046	2.26246e-07	369305
0.0146812	27.4976	8.81898	28.8772	-17.782	464.489	0.289051	-3.96896e-05	1.22925e+06	114649	1	12	0.00460183	0.000159359	0	-0.000389177	0.032975	0.0105757	0.0346294	17.782	1.14649e+08	3.57474e+08	3.75409e+08	-72.218	0.0000000E+000	0.0000000E+000	0.0000000E+000	72.218	0.0000000E+000	0.0000000E+000	0.0000000E+000	-72.218	0.0000000E+000	0.0000000E+000	0.0000000E+000	-17.782	0.0000000E+000	0.0000000E+000	0.0000000E+000	17.782	3.118	72.218	-0.000298673	-1.14723e-08	7.2828e+06
0.0100092	28.9231	11.3457	31.0688	-21.4186	674.508	0.289052	-0.000751861	1.4015e+06	186898	1	12	0.00460158	0.00014811	0	-0.000817511	0.0299638	0.0117539	0.0321867	21.4186	1.86898e+08	4.76451e+08	5.11797e+08	-68.5814	0.0000000E+000	0.0000000E+000	0.0000000E+000	68.5814	0.0000000E+000	0.0000000E+000	0.0000000E+000	-68.5814	0.0000000E+000	0.0000000E+000	0.0000000E+000	-21.4186	0.0000000E+000	0.0000000E+000	0.0000000E+000	21.4186	2.54926	68.5814	-0.000428334	-2.17327e-07	384448