File: txt/16434_R270_UA640_SOC00_C05.mpt
EC-Lab ASCII FILE
Nb header lines : 63

Potentio Electrochemical Impedance Spectroscopy

Run on channel : 5 (SN 65912)
User :
CE vs. WE compliance from -10 V to 10 V
Electrode connection : standard
Potential control : Ewe
Ewe ctrl range : min = -10.00 V, max = 10.00 V
Safety Limits :
	Do not start on E overload
Acquisition started on : 09/15/2025 10:34:31.030
Loaded Setting File :  C:\Users\Celltest\OneDrive - store-dot.com\Documents\EC-Lab\Data\Gyutae\16432.mps
Saved on :
	File : 16434_R270-A001 HG-1800_C05.mpr
	Directory : C:\Users\Celltest\OneDrive - store-dot.com\Documents\EC-Lab\Data\Gyutae\
	Host : 169.254.61.224
Device : VMP-3e (SN .003165)
Address : USB
EC-LAB for windows v11.62 (software)
Internet server v27.00 (firmware)
Command interpretor v12.03 (firmware)
Electrode material :
Initial state :
Electrolyte :
Comments :
Electrode surface area : 0.001 cm²
Characteristic mass : 0.001 g
Equivalent Weight : 0.000 g/eq.
Density : 0.000 g/cm3
Volume (V) : 0.001 cm³
Cycle Definition : Charge/Discharge alternance
Mode                Single sine
E (V)               0.0000
vs.                 Eoc
tE (h:m:s)          0:00:0.0000
record              0
dI                  0.000
unit dI             mA
dt (s)              0.000
fi                  100.000
unit fi             kHz
ff                  10.000
unit ff             mHz
Nd                  6
Points              per decade
spacing             Logarithmic
Va (mV)             5.0
pw                  0.10
Na                  2
corr                0
E range min (V)     -10.000
E range max (V)     10.000
I Range             Auto
Bandwidth           5
nc cycles           0
goto Ns'            0
nr cycles           0
inc. cycle          0

freq/Hz	Re(Z)/Ohm	-Im(Z)/Ohm	|Z|/Ohm	Phase(Z)/deg	time/s	<Ewe>/V	<I>/mA	Cs/µF	Cp/µF	cycle number	I Range	|Ewe|/V	|I|/A	Ns	(Q-Qo)/mA.h	Re(Y)/Ohm-1	Im(Y)/Ohm-1	|Y|/Ohm-1	Phase(Y)/deg	Re(C)/nF	Im(C)/nF	|C|/nF	Phase(C)/deg	Re(M)	Im(M)	|M|	Phase(M)/deg	Re(Permittivity)	Im(Permittivity)	|Permittivity|	Phase(Permittivity)/deg	Re(Resistivity)/Ohm.cm	Im(Resistivity)/Ohm.cm	|Resistivity|/Ohm.cm	Phase(Resistivity)/deg	Re(Conductivity)/mS/cm	Im(Conductivity)/mS/cm	|Conductivity|/mS/cm	Phase(Conductivity)/deg	Tan(Delta)	Loss Angle(Delta)/deg	dq/mA.h	Pwe/W	Rwe/Ohm
100004	1.64875	0.314583	1.67849	-10.8022	2.22749	0.302101	-0.0147685	5.05905	0.177705	1	9	0.00492742	0.00293562	0	-9.05132e-06	0.585215	0.111659	0.595772	10.8022	177.705	931.364	948.166	-79.1978	0.0000000E+000	0.0000000E+000	0.0000000E+000	79.1978	0.0000000E+000	0.0000000E+000	0.0000000E+000	-79.1978	0.0000000E+000	0.0000000E+000	0.0000000E+000	-10.8022	0.0000000E+000	0.0000000E+000	0.0000000E+000	10.8022	5.24107	79.1978	-9.05132e-06	-4.46157e-06	20455.8
68132	1.72006	0.356343	1.75658	-11.7044	2.66448	0.302089	-0.0208386	6.55541	0.269775	1	9	0.00537018	0.00305718	0	-1.35879e-05	0.557451	0.115487	0.569288	11.7044	269.775	1302.19	1329.84	-78.2956	0.0000000E+000	0.0000000E+000	0.0000000E+000	78.2956	0.0000000E+000	0.0000000E+000	0.0000000E+000	-78.2956	0.0000000E+000	0.0000000E+000	0.0000000E+000	-11.7044	0.0000000E+000	0.0000000E+000	0.0000000E+000	11.7044	4.82696	78.2956	-4.53658e-06	-6.2951e-06	14496.6
46420.4	1.80217	0.401366	1.84632	-12.5556	3.10148	0.302089	-0.0175428	8.54223	0.403681	1	9	0.00537374	0.00291051	0	-1.41582e-05	0.528665	0.117741	0.541618	12.5556	403.681	1812.56	1856.97	-77.4444	0.0000000E+000	0.0000000E+000	0.0000000E+000	77.4444	0.0000000E+000	0.0000000E+000	0.0000000E+000	-77.4444	0.0000000E+000	0.0000000E+000	0.0000000E+000	-12.5556	0.0000000E+000	0.0000000E+000	0.0000000E+000	12.5556	4.49008	77.4444	-5.70339e-07	-5.29949e-06	17220
31621.1	1.89354	0.459111	1.9484	-13.629	3.53949	0.302086	-0.0167608	10.9629	0.608701	1	9	0.00537384	0.00275808	0	-1.70629e-05	0.49879	0.120938	0.513242	13.629	608.701	2510.5	2583.24	-76.371	0.0000000E+000	0.0000000E+000	0.0000000E+000	76.371	0.0000000E+000	0.0000000E+000	0.0000000E+000	-76.371	0.0000000E+000	0.0000000E+000	0.0000000E+000	-13.629	0.0000000E+000	0.0000000E+000	0.0000000E+000	13.629	4.12436	76.371	-2.90468e-06	-5.0632e-06	18023.3
21544.7	1.99539	0.520801	2.06224	-14.628	3.97648	0.302089	-0.0187159	14.1843	0.904635	1	9	0.00534657	0.0025926	0	-2.10421e-05	0.469192	0.12246	0.48491	14.628	904.635	3466.02	3582.13	-75.372	0.0000000E+000	0.0000000E+000	0.0000000E+000	75.372	0.0000000E+000	0.0000000E+000	0.0000000E+000	-75.372	0.0000000E+000	0.0000000E+000	0.0000000E+000	-14.628	0.0000000E+000	0.0000000E+000	0.0000000E+000	14.628	3.8314	75.372	-3.97916e-06	-5.65386e-06	16140.8
14678.6	2.11796	0.596185	2.20027	-15.7214	4.4135	0.302089	-0.0169843	18.1867	1.33525	1	9	0.00529973	0.00240867	0	-2.69527e-05	0.437487	0.123148	0.454489	15.7214	1335.25	4743.52	4927.87	-74.2786	0.0000000E+000	0.0000000E+000	0.0000000E+000	74.2786	0.0000000E+000	0.0000000E+000	0.0000000E+000	-74.2786	0.0000000E+000	0.0000000E+000	0.0000000E+000	-15.7214	0.0000000E+000	0.0000000E+000	0.0000000E+000	15.7214	3.55253	74.2786	-5.91063e-06	-5.13075e-06	17786.4
10002.2	2.24881	0.691009	2.35258	-17.081	4.85049	0.302079	-0.019498	23.0271	1.98664	1	9	0.00532226	0.00226231	0	-2.9334e-05	0.406316	0.124852	0.425065	17.081	1986.63	6465.28	6763.62	-72.919	0.0000000E+000	0.0000000E+000	0.0000000E+000	72.919	0.0000000E+000	0.0000000E+000	0.0000000E+000	-72.919	0.0000000E+000	0.0000000E+000	0.0000000E+000	-17.081	0.0000000E+000	0.0000000E+000	0.0000000E+000	17.081	3.25439	72.919	-2.38132e-06	-5.88993e-06	15492.9
6811.07	2.41364	0.795695	2.54142	-18.2456	5.4055	0.302064	-0.0428101	29.3669	2.87872	1	9	0.00518136	0.00203877	0	-3.00671e-05	0.373698	0.123195	0.393481	18.2456	2878.72	8732.24	9194.51	-71.7544	0.0000000E+000	0.0000000E+000	0.0000000E+000	71.7544	0.0000000E+000	0.0000000E+000	0.0000000E+000	-71.7544	0.0000000E+000	0.0000000E+000	0.0000000E+000	-18.2456	0.0000000E+000	0.0000000E+000	0.0000000E+000	18.2456	3.03338	71.7544	-7.33083e-07	-1.29314e-05	7055.9
4641.49	2.59353	0.926933	2.7542	-19.667	6.09971	0.30209	-0.0161464	36.9926	4.19007	1	9	0.00501594	0.0018212	0	-3.49132e-05	0.341902	0.122196	0.363082	19.667	4190.07	11723.7	12450	-70.333	0.0000000E+000	0.0000000E+000	0.0000000E+000	70.333	0.0000000E+000	0.0000000E+000	0.0000000E+000	-70.333	0.0000000E+000	0.0000000E+000	0.0000000E+000	-19.667	0.0000000E+000	0.0000000E+000	0.0000000E+000	19.667	2.79797	70.333	-4.8461e-06	-4.87767e-06	18709.5
3161.01	2.79268	1.07407	2.9921	-21.0368	6.56667	0.302088	-0.0197214	46.8774	6.04048	1	9	0.00514818	0.00172059	0	-3.63882e-05	0.311938	0.119971	0.334213	21.0368	6040.48	15705.9	16827.4	-68.9632	0.0000000E+000	0.0000000E+000	0.0000000E+000	68.9632	0.0000000E+000	0.0000000E+000	0.0000000E+000	-68.9632	0.0000000E+000	0.0000000E+000	0.0000000E+000	-21.0368	0.0000000E+000	0.0000000E+000	0.0000000E+000	21.0368	2.6001	68.9632	-1.47498e-06	-5.95761e-06	15317.8
2155.69	3.00791	1.22768	3.2488	-22.2029	7.03371	0.302095	-0.0130741	60.1378	8.58765	1	9	0.00514166	0.00158263	0	-4.00116e-05	0.284983	0.116316	0.307806	22.2029	8587.65	21040.3	22725.4	-67.7971	0.0000000E+000	0.0000000E+000	0.0000000E+000	67.7971	0.0000000E+000	0.0000000E+000	0.0000000E+000	-67.7971	0.0000000E+000	0.0000000E+000	0.0000000E+000	-22.2029	0.0000000E+000	0.0000000E+000	0.0000000E+000	22.2029	2.45007	67.7971	-3.62345e-06	-3.94961e-06	23106.3
1468.59	3.23201	1.44972	3.54225	-24.1586	7.75496	0.302103	-0.00926039	74.7544	12.5211	1	10	0.00518123	0.00146269	0	-4.16269e-05	0.257581	0.115538	0.282306	24.1586	12521.1	27914.7	30594.3	-65.8414	0.0000000E+000	0.0000000E+000	0.0000000E+000	65.8414	0.0000000E+000	0.0000000E+000	0.0000000E+000	-65.8414	0.0000000E+000	0.0000000E+000	0.0000000E+000	-24.1586	0.0000000E+000	0.0000000E+000	0.0000000E+000	24.1586	2.22941	65.8414	-1.61526e-06	-2.7976e-06	32623.2
1000.32	3.48325	1.74211	3.89461	-26.5714	8.22371	0.302097	-0.00997528	91.3283	18.2738	1	10	0.005109	0.00131181	0	-4.26759e-05	0.229645	0.114854	0.256765	26.5714	18273.8	36537.4	40852.4	-63.4286	0.0000000E+000	0.0000000E+000	0.0000000E+000	63.4286	0.0000000E+000	0.0000000E+000	0.0000000E+000	-63.4286	0.0000000E+000	0.0000000E+000	0.0000000E+000	-26.5714	0.0000000E+000	0.0000000E+000	0.0000000E+000	26.5714	1.99944	63.4286	-1.04904e-06	-3.0135e-06	30284.6
681.09	3.76781	2.1393	4.33278	-29.5872	8.68944	0.302106	-0.0100888	109.231	26.6289	1	10	0.00504368	0.00116407	0	-4.31469e-05	0.200704	0.113956	0.230799	29.5872	26628.9	46899.9	53932.3	-60.4128	0.0000000E+000	0.0000000E+000	0.0000000E+000	60.4128	0.0000000E+000	0.0000000E+000	0.0000000E+000	-60.4128	0.0000000E+000	0.0000000E+000	0.0000000E+000	-29.5872	0.0000000E+000	0.0000000E+000	0.0000000E+000	29.5872	1.76124	60.4128	-4.70985e-07	-3.0479e-06	29944.6
463.961	4.09866	2.70163	4.90895	-33.3908	9.15819	0.302105	-0.00968485	126.974	38.458	1	10	0.00499427	0.00101738	0	-4.47918e-05	0.170084	0.112111	0.20371	33.3908	38458.1	58345	69879.6	-56.6092	0.0000000E+000	0.0000000E+000	0.0000000E+000	56.6092	0.0000000E+000	0.0000000E+000	0.0000000E+000	-56.6092	0.0000000E+000	0.0000000E+000	0.0000000E+000	-33.3908	0.0000000E+000	0.0000000E+000	0.0000000E+000	33.3908	1.51711	56.6092	-1.64484e-06	-2.92584e-06	31193.6
316.316	4.54674	3.4807	5.72609	-37.4354	9.62494	0.302112	-0.00981332	144.555	53.4132	1	10	0.00496661	0.000867364	0	-4.64268e-05	0.13867	0.106157	0.174639	37.4354	53413.2	69772.3	87870	-52.5646	0.0000000E+000	0.0000000E+000	0.0000000E+000	52.5646	0.0000000E+000	0.0000000E+000	0.0000000E+000	-52.5646	0.0000000E+000	0.0000000E+000	0.0000000E+000	-37.4354	0.0000000E+000	0.0000000E+000	0.0000000E+000	37.4354	1.30627	52.5647	-1.63505e-06	-2.96472e-06	30785.9
215.345	5.13727	4.53855	6.85492	-41.4591	10.0925	0.302107	-0.0092362	162.843	71.3835	1	10	0.00493373	0.000719735	0	-4.74416e-05	0.109327	0.0965854	0.145881	41.4591	71383.5	80800.4	107816	-48.5409	0.0000000E+000	0.0000000E+000	0.0000000E+000	48.5409	0.0000000E+000	0.0000000E+000	0.0000000E+000	-48.5409	0.0000000E+000	0.0000000E+000	0.0000000E+000	-41.4591	0.0000000E+000	0.0000000E+000	0.0000000E+000	41.4591	1.13192	48.5409	-1.01476e-06	-2.79032e-06	32709
146.737	6.03005	5.93118	8.45815	-44.5264	10.5554	0.302107	-0.00995669	182.868	89.9227	1	10	0.00491095	0.000580618	0	-4.84662e-05	0.0842887	0.0829068	0.118229	44.5264	89922.7	91421.6	128234	-45.4736	0.0000000E+000	0.0000000E+000	0.0000000E+000	45.4736	0.0000000E+000	0.0000000E+000	0.0000000E+000	-45.4736	0.0000000E+000	0.0000000E+000	0.0000000E+000	-44.5264	0.0000000E+000	0.0000000E+000	0.0000000E+000	44.5264	1.01667	45.4736	-1.02459e-06	-3.00799e-06	30342.1
100.032	7.38347	7.66159	10.6403	-46.059	11.0237	0.302108	-0.00936653	207.664	107.67	1	10	0.00489714	0.000460245	0	-4.93219e-05	0.065216	0.0676726	0.0939825	46.059	107670	103761	149530	-43.941	0.0000000E+000	0.0000000E+000	0.0000000E+000	43.941	0.0000000E+000	0.0000000E+000	0.0000000E+000	-43.941	0.0000000E+000	0.0000000E+000	0.0000000E+000	-46.059	0.0000000E+000	0.0000000E+000	0.0000000E+000	46.059	0.9637	43.941	-8.5577e-07	-2.8297e-06	32254
68.104	9.46995	9.60637	13.4893	-45.4097	11.5023	0.302117	-0.00845243	243.27	123.375	1	10	0.00488627	0.000362232	0	-5.02005e-05	0.0520435	0.0527932	0.0741326	45.4097	123375	121622	173244	-44.5903	0.0000000E+000	0.0000000E+000	0.0000000E+000	44.5903	0.0000000E+000	0.0000000E+000	0.0000000E+000	-44.5903	0.0000000E+000	0.0000000E+000	0.0000000E+000	-45.4097	0.0000000E+000	0.0000000E+000	0.0000000E+000	45.4097	0.985799	44.5903	-8.78532e-07	-2.55362e-06	35743.1
46.4415	12.4233	11.574	16.9793	-42.9729	11.9575	0.302108	-0.0095285	296.095	137.58	1	10	0.00489107	0.000288061	0	-5.10967e-05	0.0430923	0.0401461	0.0588953	42.9729	137580	147677	201834	-47.0271	0.0000000E+000	0.0000000E+000	0.0000000E+000	47.0271	0.0000000E+000	0.0000000E+000	0.0000000E+000	-47.0271	0.0000000E+000	0.0000000E+000	0.0000000E+000	-42.9729	0.0000000E+000	0.0000000E+000	0.0000000E+000	42.9729	1.07339	47.0271	-8.96203e-07	-2.87864e-06	31705.8
31.6296	16.2523	13.0391	20.8364	-38.7398	12.6474	0.302129	-0.00561312	385.903	151.122	1	11	0.00489414	0.000234884	0	-5.19106e-05	0.0374342	0.0300332	0.0479929	38.7398	151122	188363	241492	-51.2602	0.0000000E+000	0.0000000E+000	0.0000000E+000	51.2602	0.0000000E+000	0.0000000E+000	0.0000000E+000	-51.2602	0.0000000E+000	0.0000000E+000	0.0000000E+000	-38.7398	0.0000000E+000	0.0000000E+000	0.0000000E+000	38.7398	1.24643	51.2602	-8.13902e-07	-1.69589e-06	53825.5
21.5517	20.5382	13.5705	24.6165	-33.4544	13.0864	0.302128	-0.00565687	544.182	165.378	1	11	0.00488473	0.000198433	0	-5.25348e-05	0.0338928	0.0223944	0.0406231	33.4544	165378	250291	299993	-56.5456	0.0000000E+000	0.0000000E+000	0.0000000E+000	56.5456	0.0000000E+000	0.0000000E+000	0.0000000E+000	-56.5456	0.0000000E+000	0.0000000E+000	0.0000000E+000	-33.4544	0.0000000E+000	0.0000000E+000	0.0000000E+000	33.4544	1.51345	56.5456	-6.24247e-07	-1.7091e-06	53409
14.6852	24.7807	13.1838	28.0694	-28.0138	13.5651	0.302123	-0.00530708	822.057	181.348	1	11	0.00488542	0.000174048	0	-5.34638e-05	0.0314518	0.0167329	0.0356259	28.0138	181348	340869	386107	-61.9862	0.0000000E+000	0.0000000E+000	0.0000000E+000	61.9862	0.0000000E+000	0.0000000E+000	0.0000000E+000	-61.9862	0.0000000E+000	0.0000000E+000	0.0000000E+000	-28.0138	0.0000000E+000	0.0000000E+000	0.0000000E+000	28.0138	1.87964	61.9862	-9.28974e-07	-1.60339e-06	56928.4
10.0032	28.4858	12.1642	30.9743	-23.1238	14.0337	0.302121	-0.00537726	1307.97	201.726	1	11	0.00488597	0.000157743	0	-5.503e-05	0.029691	0.0126789	0.0322848	23.1238	201726	472396	513665	-66.8762	0.0000000E+000	0.0000000E+000	0.0000000E+000	66.8762	0.0000000E+000	0.0000000E+000	0.0000000E+000	-66.8762	0.0000000E+000	0.0000000E+000	0.0000000E+000	-23.1238	0.0000000E+000	0.0000000E+000	0.0000000E+000	23.1238	2.34177	66.8762	-1.56626e-06	-1.62458e-06	56184.9
6.81719	31.6213	10.8308	33.4247	-18.9072	14.3914	0.302102	-0.00700951	2155.53	226.329	1	11	0.0048867	0.0001462	0	-5.39668e-05	0.0283038	0.0096945	0.029918	18.9072	226329	660783	698469	-71.0928	0.0000000E+000	0.0000000E+000	0.0000000E+000	71.0928	0.0000000E+000	0.0000000E+000	0.0000000E+000	-71.0928	0.0000000E+000	0.0000000E+000	0.0000000E+000	-18.9072	0.0000000E+000	0.0000000E+000	0.0000000E+000	18.9072	2.91957	71.0928	1.06326e-06	-2.11759e-06	43098.9
4.63925	34.14	9.44289	35.4218	-15.4611	14.8933	0.302123	-0.00523131	3633.02	258.187	1	11	0.00488397	0.00013788	0	-5.59858e-05	0.0272095	0.00752598	0.0282312	15.4611	258187	933455	968503	-74.5389	0.0000000E+000	0.0000000E+000	0.0000000E+000	74.5389	0.0000000E+000	0.0000000E+000	0.0000000E+000	-74.5389	0.0000000E+000	0.0000000E+000	0.0000000E+000	-15.4611	0.0000000E+000	0.0000000E+000	0.0000000E+000	15.4611	3.61542	74.5389	-2.019e-06	-1.5805e-06	57752.8
3.1604	36.1811	8.07302	37.0709	-12.5782	15.6023	0.302112	-0.00518337	6237.96	295.835	1	11	0.00488141	0.000131678	0	-5.83573e-05	0.026328	0.0058745	0.0269754	12.5782	295835	1.32585e+06	1.35846e+06	-77.4218	0.0000000E+000	0.0000000E+000	0.0000000E+000	77.4218	0.0000000E+000	0.0000000E+000	0.0000000E+000	-77.4218	0.0000000E+000	0.0000000E+000	0.0000000E+000	-12.5782	0.0000000E+000	0.0000000E+000	0.0000000E+000	12.5782	4.48174	77.4218	-2.37149e-06	-1.56596e-06	58284.8
2.15577	37.9031	6.95024	38.535	-10.3908	16.6188	0.302132	-0.0041083	10622.3	345.547	1	11	0.00488704	0.000126821	0	-5.77241e-05	0.0255248	0.00468046	0.0259504	10.3908	345547	1.88444e+06	1.91585e+06	-79.6092	0.0000000E+000	0.0000000E+000	0.0000000E+000	79.6092	0.0000000E+000	0.0000000E+000	0.0000000E+000	-79.6092	0.0000000E+000	0.0000000E+000	0.0000000E+000	-10.3908	0.0000000E+000	0.0000000E+000	0.0000000E+000	10.3908	5.45349	79.6092	6.33156e-07	-1.24125e-06	73541.9
1.46631	39.3012	5.86212	39.736	-8.48363	18.824	0.30213	-0.00339353	18515.7	402.978	1	12	0.00488937	0.000123047	0	-5.65052e-05	0.0248907	0.00371268	0.0251661	8.48363	402978	2.70167e+06	2.73156e+06	-81.5164	0.0000000E+000	0.0000000E+000	0.0000000E+000	81.5164	0.0000000E+000	0.0000000E+000	0.0000000E+000	-81.5164	0.0000000E+000	0.0000000E+000	0.0000000E+000	-8.48363	0.0000000E+000	0.0000000E+000	0.0000000E+000	8.48363	6.70426	81.5164	1.21895e-06	-1.02529e-06	89031.1
1.00006	40.4068	4.95742	40.7098	-6.99454	20.9641	0.302135	-0.00303245	32102.3	476.049	1	12	0.00488697	0.000120044	0	-5.87154e-05	0.0243813	0.00299129	0.0245641	6.99454	476049	3.88016e+06	3.90925e+06	-83.0055	0.0000000E+000	0.0000000E+000	0.0000000E+000	83.0055	0.0000000E+000	0.0000000E+000	0.0000000E+000	-83.0055	0.0000000E+000	0.0000000E+000	0.0000000E+000	-6.99454	0.0000000E+000	0.0000000E+000	0.0000000E+000	6.99454	8.15076	83.0055	-2.21027e-06	-9.16211e-07	99634.1
0.681362	41.2869	4.22915	41.503	-5.84859	24.084	0.302133	-0.00267567	55231.8	573.505	1	12	0.00489062	0.000117838	0	-6.52603e-05	0.0239692	0.00245525	0.0240947	5.84859	573504	5.59882e+06	5.62812e+06	-84.1514	0.0000000E+000	0.0000000E+000	0.0000000E+000	84.1514	0.0000000E+000	0.0000000E+000	0.0000000E+000	-84.1514	0.0000000E+000	0.0000000E+000	0.0000000E+000	-5.84859	0.0000000E+000	0.0000000E+000	0.0000000E+000	5.84859	9.76246	84.1514	-6.5449e-06	-8.0841e-07	112919
0.464091	41.9591	3.64686	42.1173	-4.96736	28.6488	0.302134	-0.0025996	94036.8	705.042	1	12	0.0048882	0.000116061	0	-7.63353e-05	0.023654	0.00205588	0.0237432	4.96736	705043	8.1119e+06	8.14248e+06	-85.0326	0.0000000E+000	0.0000000E+000	0.0000000E+000	85.0326	0.0000000E+000	0.0000000E+000	0.0000000E+000	-85.0326	0.0000000E+000	0.0000000E+000	0.0000000E+000	-4.96736	0.0000000E+000	0.0000000E+000	0.0000000E+000	4.96736	11.5055	85.0326	-1.10749e-05	-7.85427e-07	116223
0.316193	42.5361	3.28952	42.6631	-4.42216	35.331	0.302137	-0.00267173	153015	909.694	1	12	0.00488712	0.000114551	0	-8.86788e-05	0.0233697	0.00180729	0.0234394	4.42216	909694	1.17631e+07	1.17982e+07	-85.5778	0.0000000E+000	0.0000000E+000	0.0000000E+000	85.5778	0.0000000E+000	0.0000000E+000	0.0000000E+000	-85.5778	0.0000000E+000	0.0000000E+000	0.0000000E+000	-4.42216	0.0000000E+000	0.0000000E+000	0.0000000E+000	4.42216	12.9308	85.5778	-1.23435e-05	-8.07228e-07	113087
0.215268	43.045	3.20505	43.1641	-4.25828	45.1288	0.302135	-0.00285528	230678	1271.83	1	12	0.00488893	0.000113264	0	-9.71478e-05	0.0231034	0.00172024	0.0231674	4.25828	1.27183e+06	1.70812e+07	1.71284e+07	-85.7417	0.0000000E+000	0.0000000E+000	0.0000000E+000	85.7417	0.0000000E+000	0.0000000E+000	0.0000000E+000	-85.7417	0.0000000E+000	0.0000000E+000	0.0000000E+000	-4.25828	0.0000000E+000	0.0000000E+000	0.0000000E+000	4.25828	13.4304	85.7417	-8.46906e-06	-8.62678e-07	105816
0.146929	43.4488	3.39171	43.581	-4.46358	59.4644	0.302131	-0.0027956	319370	1934.36	1	12	0.00488743	0.000112146	0	-9.56311e-05	0.0228762	0.00178576	0.0229458	4.46358	1.93436e+06	2.47797e+07	2.48551e+07	-85.5364	0.0000000E+000	0.0000000E+000	0.0000000E+000	85.5364	0.0000000E+000	0.0000000E+000	0.0000000E+000	-85.5364	0.0000000E+000	0.0000000E+000	0.0000000E+000	-4.46358	0.0000000E+000	0.0000000E+000	0.0000000E+000	4.46358	12.8103	85.5364	1.51675e-06	-8.44637e-07	108074
0.0999041	43.8612	3.78351	44.024	-4.93019	80.5343	0.302131	-0.00241637	421058	3109.94	1	12	0.00488905	0.000111054	0	-8.0305e-05	0.0226308	0.00195216	0.0227149	4.93019	3.10994e+06	3.60526e+07	3.61865e+07	-85.0698	0.0000000E+000	0.0000000E+000	0.0000000E+000	85.0698	0.0000000E+000	0.0000000E+000	0.0000000E+000	-85.0698	0.0000000E+000	0.0000000E+000	0.0000000E+000	-4.93019	0.0000000E+000	0.0000000E+000	0.0000000E+000	4.93019	11.5927	85.0698	1.53261e-05	-7.30062e-07	125035
0.0680626	44.3814	4.44829	44.6038	-5.72356	111.446	0.30213	-0.00189898	525677	5228.31	1	12	0.00488563	0.000109534	0	-5.50804e-05	0.0223079	0.00223589	0.0224196	5.72356	5.22831e+06	5.21638e+07	5.24252e+07	-84.2764	0.0000000E+000	0.0000000E+000	0.0000000E+000	84.2764	0.0000000E+000	0.0000000E+000	0.0000000E+000	-84.2764	0.0000000E+000	0.0000000E+000	0.0000000E+000	-5.72356	0.0000000E+000	0.0000000E+000	0.0000000E+000	5.72356	9.97719	84.2764	2.52246e-05	-5.73738e-07	159102
0.0464052	45.1557	5.44139	45.4824	-6.87117	156.771	0.302128	-0.00075097	630295	9021.46	1	12	0.00488832	0.000107477	0	-3.09903e-05	0.0218286	0.00263041	0.0219865	6.87117	9.02146e+06	7.48652e+07	7.54068e+07	-83.1288	0.0000000E+000	0.0000000E+000	0.0000000E+000	83.1288	0.0000000E+000	0.0000000E+000	0.0000000E+000	-83.1288	0.0000000E+000	0.0000000E+000	0.0000000E+000	-6.87117	0.0000000E+000	0.0000000E+000	0.0000000E+000	6.87117	8.29856	83.1288	2.40901e-05	-2.26889e-07	402317
0.0315922	46.1069	6.95307	46.6282	-8.57577	223.332	0.30213	0.000175864	724542	16110.9	1	12	0.00488954	0.000104862	0	-4.1217e-05	0.0212065	0.003198	0.0214462	8.57577	1.61109e+07	1.06834e+08	1.08042e+08	-81.4242	0.0000000E+000	0.0000000E+000	0.0000000E+000	81.4242	0.0000000E+000	0.0000000E+000	0.0000000E+000	-81.4242	0.0000000E+000	0.0000000E+000	0.0000000E+000	-8.57577	0.0000000E+000	0.0000000E+000	0.0000000E+000	8.57577	6.63116	81.4242	-1.02267e-05	5.31338e-08	1.71798e+06
0.0215268	47.1451	8.82385	47.9637	-10.601	321.001	0.302126	0.000476773	837882	28357.8	1	12	0.00488819	0.000101914	0	-0.000123391	0.0204932	0.00383559	0.0208491	10.601	2.83578e+07	1.51514e+08	1.54144e+08	-79.399	0.0000000E+000	0.0000000E+000	0.0000000E+000	79.399	0.0000000E+000	0.0000000E+000	0.0000000E+000	-79.399	0.0000000E+000	0.0000000E+000	0.0000000E+000	-10.601	0.0000000E+000	0.0000000E+000	0.0000000E+000	10.601	5.34291	79.399	-8.21745e-05	1.44045e-07	633688
0.0146812	48.4993	11.0341	49.7387	-12.8172	464.196	0.30213	0.000259765	982478	48351.2	1	12	0.00488883	9.82902e-05	0	-0.000298646	0.0196041	0.00446013	0.0201051	12.8172	4.83512e+07	2.12523e+08	2.17954e+08	-77.1828	0.0000000E+000	0.0000000E+000	0.0000000E+000	77.1828	0.0000000E+000	0.0000000E+000	0.0000000E+000	-77.1828	0.0000000E+000	0.0000000E+000	0.0000000E+000	-12.8172	0.0000000E+000	0.0000000E+000	0.0000000E+000	12.8172	4.39541	77.1828	-0.000175254	7.84829e-08	1.16309e+06
0.0100092	50.4318	13.9727	52.3316	-15.486	674.217	0.302132	-0.000269369	1.138e+06	81128.4	1	12	0.00488775	9.33996e-05	0	-0.000536918	0.0184152	0.00510212	0.0191089	15.486	8.11284e+07	2.92818e+08	3.03849e+08	-74.514	0.0000000E+000	0.0000000E+000	0.0000000E+000	74.514	0.0000000E+000	0.0000000E+000	0.0000000E+000	-74.514	0.0000000E+000	0.0000000E+000	0.0000000E+000	-15.486	0.0000000E+000	0.0000000E+000	0.0000000E+000	15.486	3.60932	74.514	-0.000238272	-8.13851e-08	1.12163e+06