File: txt/17156_R270_UA618_SOC00_C04.mpt
EC-Lab ASCII FILE
Nb header lines : 63

Potentio Electrochemical Impedance Spectroscopy

Run on channel : 4 (SN 66756)
User :
CE vs. WE compliance from -10 V to 10 V
Electrode connection : standard
Potential control : Ewe
Ewe ctrl range : min = -10.00 V, max = 10.00 V
Safety Limits :
	Do not start on E overload
Acquisition started on : 09/04/2025 09:44:47.877
Loaded Setting File :  C:\Users\Celltest\OneDrive - store-dot.com\Documents\EC-Lab\Data\Gyutae\R270\17155_C03.mpr
Saved on :
	File : 17156_C04.mpr
	Directory : C:\Users\Celltest\OneDrive - store-dot.com\Documents\EC-Lab\Data\Gyutae\R270\
	Host : 169.254.61.224
Device : VMP-3e (SN .003165)
Address : USB
EC-LAB for windows v11.62 (software)
Internet server v27.00 (firmware)
Command interpretor v12.03 (firmware)
Electrode material :
Initial state :
Electrolyte :
Comments :
Electrode surface area : 0.001 cm²
Characteristic mass : 0.001 g
Equivalent Weight : 0.000 g/eq.
Density : 0.000 g/cm3
Volume (V) : 0.001 cm³
Cycle Definition : Charge/Discharge alternance
Mode                Single sine
E (V)               0.0000
vs.                 Eoc
tE (h:m:s)          0:00:0.0000
record              0
dI                  0.000
unit dI             mA
dt (s)              0.000
fi                  100.000
unit fi             kHz
ff                  10.000
unit ff             mHz
Nd                  6
Points              per decade
spacing             Logarithmic
Va (mV)             5.0
pw                  0.10
Na                  2
corr                0
E range min (V)     -10.000
E range max (V)     10.000
I Range             Auto
Bandwidth           5
nc cycles           0
goto Ns'            0
nr cycles           0
inc. cycle          0

freq/Hz	Re(Z)/Ohm	-Im(Z)/Ohm	|Z|/Ohm	Phase(Z)/deg	time/s	<Ewe>/V	<I>/mA	Cs/µF	Cp/µF	cycle number	I Range	|Ewe|/V	|I|/A	Ns	(Q-Qo)/mA.h	Re(Y)/Ohm-1	Im(Y)/Ohm-1	|Y|/Ohm-1	Phase(Y)/deg	Re(C)/nF	Im(C)/nF	|C|/nF	Phase(C)/deg	Re(M)	Im(M)	|M|	Phase(M)/deg	Re(Permittivity)	Im(Permittivity)	|Permittivity|	Phase(Permittivity)/deg	Re(Resistivity)/Ohm.cm	Im(Resistivity)/Ohm.cm	|Resistivity|/Ohm.cm	Phase(Resistivity)/deg	Re(Conductivity)/mS/cm	Im(Conductivity)/mS/cm	|Conductivity|/mS/cm	Phase(Conductivity)/deg	Tan(Delta)	Loss Angle(Delta)/deg	dq/mA.h	Pwe/W	Rwe/Ohm
100004	3.10835	0.544197	3.15563	-9.93045	2.1745	0.290374	-0.0850605	2.92447	0.0869736	1	9	0.00452375	0.00143355	0	-1.6849e-05	0.312146	0.0546492	0.316894	9.93045	86.9736	496.777	504.333	-80.0696	0.0000000E+000	0.0000000E+000	0.0000000E+000	80.0696	0.0000000E+000	0.0000000E+000	0.0000000E+000	-80.0696	0.0000000E+000	0.0000000E+000	0.0000000E+000	-9.93045	0.0000000E+000	0.0000000E+000	0.0000000E+000	9.93045	5.71181	80.0696	-1.6849e-05	-2.46993e-05	3413.73
68132	3.24451	0.590446	3.2978	-10.314	2.75249	0.290383	-0.0835499	3.95629	0.126824	1	9	0.00504526	0.00152989	0	-3.06701e-05	0.298333	0.0542916	0.303233	10.314	126.824	696.899	708.345	-79.686	0.0000000E+000	0.0000000E+000	0.0000000E+000	79.686	0.0000000E+000	0.0000000E+000	0.0000000E+000	-79.686	0.0000000E+000	0.0000000E+000	0.0000000E+000	-10.314	0.0000000E+000	0.0000000E+000	0.0000000E+000	10.314	5.49501	79.686	-1.38211e-05	-2.42614e-05	3475.56
46420.4	3.37464	0.653501	3.43734	-10.9597	3.33048	0.290394	-0.0798575	5.24645	0.189633	1	9	0.00501229	0.00145819	0	-4.57089e-05	0.285617	0.0553099	0.290923	10.9597	189.633	979.255	997.447	-79.0403	0.0000000E+000	0.0000000E+000	0.0000000E+000	79.0403	0.0000000E+000	0.0000000E+000	0.0000000E+000	-79.0403	0.0000000E+000	0.0000000E+000	0.0000000E+000	-10.9597	0.0000000E+000	0.0000000E+000	0.0000000E+000	10.9597	5.16394	79.0403	-1.50388e-05	-2.31901e-05	3636.4
31621.1	3.51914	0.72311	3.59267	-11.6115	3.76749	0.290402	-0.073778	6.96046	0.281977	1	9	0.00521524	0.00145164	0	-5.16426e-05	0.272648	0.0560235	0.278345	11.6115	281.977	1372.29	1400.96	-78.3885	0.0000000E+000	0.0000000E+000	0.0000000E+000	78.3885	0.0000000E+000	0.0000000E+000	0.0000000E+000	-78.3885	0.0000000E+000	0.0000000E+000	0.0000000E+000	-11.6115	0.0000000E+000	0.0000000E+000	0.0000000E+000	11.6115	4.86668	78.3885	-5.93365e-06	-2.14253e-05	3936.16
21544.7	3.69262	0.820402	3.78266	-12.5261	4.06348	0.290393	-0.0770975	9.00437	0.423558	1	9	0.00487433	0.0012886	0	-5.8333e-05	0.258072	0.0573367	0.264364	12.5261	423.558	1906.43	1952.91	-77.4738	0.0000000E+000	0.0000000E+000	0.0000000E+000	77.4738	0.0000000E+000	0.0000000E+000	0.0000000E+000	-77.4738	0.0000000E+000	0.0000000E+000	0.0000000E+000	-12.5261	0.0000000E+000	0.0000000E+000	0.0000000E+000	12.5261	4.50099	77.4738	-6.69045e-06	-2.23886e-05	3766.57
14678.6	3.88891	0.941754	4.00132	-13.6129	4.35948	0.290392	-0.079037	11.5133	0.637775	1	9	0.00458319	0.00114542	0	-6.38607e-05	0.242897	0.0588209	0.249918	13.6129	637.775	2633.65	2709.77	-76.3871	0.0000000E+000	0.0000000E+000	0.0000000E+000	76.3871	0.0000000E+000	0.0000000E+000	0.0000000E+000	-76.3871	0.0000000E+000	0.0000000E+000	0.0000000E+000	-13.6129	0.0000000E+000	0.0000000E+000	0.0000000E+000	13.6129	4.12943	76.3871	-5.52764e-06	-2.29517e-05	3674.13
10002.2	4.09403	1.03075	4.22179	-14.1316	4.79749	0.290389	-0.0774891	15.4372	0.920205	1	9	0.00495107	0.00117274	0	-7.30818e-05	0.229698	0.057831	0.236866	14.1316	920.205	3654.95	3769.01	-75.8684	0.0000000E+000	0.0000000E+000	0.0000000E+000	75.8684	0.0000000E+000	0.0000000E+000	0.0000000E+000	-75.8684	0.0000000E+000	0.0000000E+000	0.0000000E+000	-14.1316	0.0000000E+000	0.0000000E+000	0.0000000E+000	14.1316	3.97188	75.8684	-9.22109e-06	-2.2502e-05	3747.48
6811.07	4.34356	1.1895	4.50349	-15.3152	5.3845	0.290519	-0.0275664	19.6444	1.37048	1	10	0.00477982	0.00106136	0	-7.68207e-05	0.214165	0.0586499	0.22205	15.3152	1370.48	5004.41	5188.67	-74.6848	0.0000000E+000	0.0000000E+000	0.0000000E+000	74.6848	0.0000000E+000	0.0000000E+000	0.0000000E+000	-74.6848	0.0000000E+000	0.0000000E+000	0.0000000E+000	-15.3152	0.0000000E+000	0.0000000E+000	0.0000000E+000	15.3152	3.65157	74.6848	-3.73894e-06	-8.00855e-06	10538.9
4641.49	4.62681	1.35861	4.82215	-16.3643	5.85567	0.290556	-0.0172748	25.2387	2.00344	1	10	0.00487121	0.00101017	0	-7.99428e-05	0.198975	0.0584271	0.207376	16.3643	2003.44	6822.8	7110.86	-73.6357	0.0000000E+000	0.0000000E+000	0.0000000E+000	73.6357	0.0000000E+000	0.0000000E+000	0.0000000E+000	-73.6357	0.0000000E+000	0.0000000E+000	0.0000000E+000	-16.3643	0.0000000E+000	0.0000000E+000	0.0000000E+000	16.3643	3.40553	73.6357	-3.12209e-06	-5.0193e-06	16819.6
3161.01	4.94757	1.55019	5.18474	-17.3971	6.3227	0.290548	-0.0177112	32.4794	2.90353	1	10	0.00487457	0.000940176	0	-8.28079e-05	0.184051	0.0576676	0.192874	17.3971	2903.53	9266.84	9711.07	-72.603	0.0000000E+000	0.0000000E+000	0.0000000E+000	72.603	0.0000000E+000	0.0000000E+000	0.0000000E+000	-72.603	0.0000000E+000	0.0000000E+000	0.0000000E+000	-17.3971	0.0000000E+000	0.0000000E+000	0.0000000E+000	17.3971	3.19158	72.603	-2.86514e-06	-5.14596e-06	16404.7
2155.69	5.30245	1.77483	5.5916	-18.5063	6.78969	0.290554	-0.0176068	41.5985	4.19099	1	10	0.00484205	0.00086595	0	-8.48243e-05	0.169592	0.0567653	0.17884	18.5063	4190.99	12521	13203.8	-71.4937	0.0000000E+000	0.0000000E+000	0.0000000E+000	71.4937	0.0000000E+000	0.0000000E+000	0.0000000E+000	-71.4937	0.0000000E+000	0.0000000E+000	0.0000000E+000	-18.5063	0.0000000E+000	0.0000000E+000	0.0000000E+000	18.5063	2.98759	71.4937	-2.01634e-06	-5.11572e-06	16502.4
1468.59	5.72211	2.02646	6.07035	-19.5013	7.25695	0.290564	-0.0167302	53.4788	5.95978	1	10	0.00481644	0.000793437	0	-8.75506e-05	0.155285	0.0549934	0.164735	19.5013	5959.78	16828.6	17852.8	-70.4986	0.0000000E+000	0.0000000E+000	0.0000000E+000	70.4986	0.0000000E+000	0.0000000E+000	0.0000000E+000	-70.4986	0.0000000E+000	0.0000000E+000	0.0000000E+000	-19.5013	0.0000000E+000	0.0000000E+000	0.0000000E+000	19.5013	2.8237	70.4986	-2.72637e-06	-4.8612e-06	17367.6
1000.32	6.19901	2.31494	6.61715	-20.4775	7.72671	0.290556	-0.016982	68.7291	8.41162	1	10	0.00479366	0.00072443	0	-8.93478e-05	0.141573	0.0528687	0.151122	20.4775	8411.62	22524.8	24044.2	-69.5225	0.0000000E+000	0.0000000E+000	0.0000000E+000	69.5225	0.0000000E+000	0.0000000E+000	0.0000000E+000	-69.5225	0.0000000E+000	0.0000000E+000	0.0000000E+000	-20.4775	0.0000000E+000	0.0000000E+000	0.0000000E+000	20.4775	2.67782	69.5225	-1.79718e-06	-4.93423e-06	17109.6
681.09	6.72362	2.64284	7.22438	-21.4582	8.19245	0.290552	-0.0177933	88.419	11.8327	1	10	0.00477268	0.000660635	0	-9.16882e-05	0.128826	0.0506372	0.13842	21.4582	11832.7	30103.6	32345.6	-68.5418	0.0000000E+000	0.0000000E+000	0.0000000E+000	68.5418	0.0000000E+000	0.0000000E+000	0.0000000E+000	-68.5418	0.0000000E+000	0.0000000E+000	0.0000000E+000	-21.4582	0.0000000E+000	0.0000000E+000	0.0000000E+000	21.4582	2.54409	68.5418	-2.34038e-06	-5.16988e-06	16329.3
463.961	7.35102	3.03871	7.95432	-22.4589	8.66119	0.290551	-0.0166444	112.889	16.4749	1	10	0.00476626	0.000599204	0	-9.36651e-05	0.116183	0.0480267	0.125718	22.4589	16474.9	39854.8	43125.7	-67.5411	0.0000000E+000	0.0000000E+000	0.0000000E+000	67.5411	0.0000000E+000	0.0000000E+000	0.0000000E+000	-67.5411	0.0000000E+000	0.0000000E+000	0.0000000E+000	-22.4589	0.0000000E+000	0.0000000E+000	0.0000000E+000	22.4589	2.41913	67.5411	-1.97688e-06	-4.83606e-06	17456.4
316.316	8.02565	3.48452	8.74945	-23.4692	9.1279	0.29055	-0.016982	144.396	22.9023	1	10	0.00475178	0.000543095	0	-9.54392e-05	0.104838	0.0455177	0.114293	23.4692	22902.3	52749.4	57506.7	-66.5308	0.0000000E+000	0.0000000E+000	0.0000000E+000	66.5308	0.0000000E+000	0.0000000E+000	0.0000000E+000	-66.5308	0.0000000E+000	0.0000000E+000	0.0000000E+000	-23.4692	0.0000000E+000	0.0000000E+000	0.0000000E+000	23.4692	2.30323	66.5308	-1.77412e-06	-4.93412e-06	17109.2
215.345	8.84272	4.0694	9.73415	-24.7118	9.59546	0.290543	-0.0168701	181.617	31.741	1	10	0.00474406	0.000487363	0	-9.74313e-05	0.0933232	0.0429471	0.102731	24.7118	31741	68972.5	75925.6	-65.2882	0.0000000E+000	0.0000000E+000	0.0000000E+000	65.2882	0.0000000E+000	0.0000000E+000	0.0000000E+000	-65.2882	0.0000000E+000	0.0000000E+000	0.0000000E+000	-24.7118	0.0000000E+000	0.0000000E+000	0.0000000E+000	24.7118	2.17298	65.2882	-1.99213e-06	-4.90149e-06	17222.3
146.737	9.8707	4.69589	10.9308	-25.4423	10.0584	0.29054	-0.0175751	230.973	42.6279	1	10	0.00474014	0.00043365	0	-9.98612e-05	0.0826124	0.039302	0.0914847	25.4423	42627.9	89603.4	99226.6	-64.5577	0.0000000E+000	0.0000000E+000	0.0000000E+000	64.5577	0.0000000E+000	0.0000000E+000	0.0000000E+000	-64.5577	0.0000000E+000	0.0000000E+000	0.0000000E+000	-25.4423	0.0000000E+000	0.0000000E+000	0.0000000E+000	25.4423	2.10199	64.5577	-2.42987e-06	-5.10628e-06	16531.3
100.032	11.1422	5.38346	12.3746	-25.788	10.5267	0.290543	-0.0166724	295.543	55.9348	1	10	0.00473917	0.000382976	0	-0.000102306	0.0727629	0.0351561	0.0808109	25.788	55934.8	115769	128573	-64.2121	0.0000000E+000	0.0000000E+000	0.0000000E+000	64.2121	0.0000000E+000	0.0000000E+000	0.0000000E+000	-64.2121	0.0000000E+000	0.0000000E+000	0.0000000E+000	-25.788	0.0000000E+000	0.0000000E+000	0.0000000E+000	25.788	2.06971	64.2121	-2.44469e-06	-4.84405e-06	17426.6
68.104	12.7503	5.96303	14.0758	-25.0644	11.0053	0.290561	-0.0143653	391.905	70.3345	1	10	0.00473989	0.00033674	0	-0.000104388	0.0643539	0.0300968	0.0710439	25.0644	70334.5	150391	166025	-64.9356	0.0000000E+000	0.0000000E+000	0.0000000E+000	64.9356	0.0000000E+000	0.0000000E+000	0.0000000E+000	-64.9356	0.0000000E+000	0.0000000E+000	0.0000000E+000	-25.0644	0.0000000E+000	0.0000000E+000	0.0000000E+000	25.0644	2.13823	64.9356	-2.08204e-06	-4.174e-06	20226.6
46.4415	14.5531	6.28652	15.8528	-23.363	11.4605	0.290533	-0.0189217	545.134	85.7254	1	10	0.00473905	0.00029894	0	-0.000106921	0.0579083	0.0250147	0.0630802	23.363	85725.4	198452	216176	-66.637	0.0000000E+000	0.0000000E+000	0.0000000E+000	66.637	0.0000000E+000	0.0000000E+000	0.0000000E+000	-66.637	0.0000000E+000	0.0000000E+000	0.0000000E+000	-23.363	0.0000000E+000	0.0000000E+000	0.0000000E+000	23.363	2.31497	66.637	-2.53336e-06	-5.49739e-06	15354.5
31.6296	16.5178	6.41515	17.7198	-21.2251	12.1504	0.290554	-0.0143826	784.369	102.806	1	11	0.00474417	0.000267733	0	-0.000110286	0.0526059	0.020431	0.0564341	21.2251	102806	264705	283967	-68.7749	0.0000000E+000	0.0000000E+000	0.0000000E+000	68.7749	0.0000000E+000	0.0000000E+000	0.0000000E+000	-68.7749	0.0000000E+000	0.0000000E+000	0.0000000E+000	-21.2251	0.0000000E+000	0.0000000E+000	0.0000000E+000	21.2251	2.57481	68.7749	-3.36508e-06	-4.17891e-06	20201.8
21.5517	18.3165	6.18808	19.3335	-18.6672	12.5894	0.290552	-0.0144622	1193.39	122.257	1	11	0.00473316	0.000244816	0	-0.000112431	0.0490027	0.0165552	0.0517236	18.6672	122257	361874	381968	-71.3328	0.0000000E+000	0.0000000E+000	0.0000000E+000	71.3328	0.0000000E+000	0.0000000E+000	0.0000000E+000	-71.3328	0.0000000E+000	0.0000000E+000	0.0000000E+000	-18.6672	0.0000000E+000	0.0000000E+000	0.0000000E+000	18.6672	2.95996	71.3328	-2.14451e-06	-4.20203e-06	20090.4
14.6852	19.991	5.79942	20.8152	-16.1775	13.067	0.290557	-0.0135773	1868.78	145.066	1	11	0.00473902	0.000227671	0	-0.000113893	0.0461395	0.0133851	0.0480418	16.1775	145066	500051	520668	-73.8225	0.0000000E+000	0.0000000E+000	0.0000000E+000	73.8225	0.0000000E+000	0.0000000E+000	0.0000000E+000	-73.8225	0.0000000E+000	0.0000000E+000	0.0000000E+000	-16.1775	0.0000000E+000	0.0000000E+000	0.0000000E+000	16.1775	3.44707	73.8225	-1.46236e-06	-3.94497e-06	21400.2
10.0032	21.4195	5.26659	22.0575	-13.8137	13.5357	0.290552	-0.0139114	3021.01	172.226	1	11	0.00473068	0.00021447	0	-0.000113995	0.0440248	0.0108247	0.045336	13.8137	172226	700452	721314	-76.1863	0.0000000E+000	0.0000000E+000	0.0000000E+000	76.1863	0.0000000E+000	0.0000000E+000	0.0000000E+000	-76.1863	0.0000000E+000	0.0000000E+000	0.0000000E+000	-13.8137	0.0000000E+000	0.0000000E+000	0.0000000E+000	13.8137	4.06706	76.1863	-1.01898e-07	-4.04198e-06	20885.9
6.81719	22.6895	4.74243	23.1798	-11.8057	13.8934	0.290559	-0.0139047	4922.81	206.061	1	11	0.00473475	0.000204262	0	-0.000117617	0.0422284	0.00882635	0.043141	11.8057	206061	985869	1.00717e+06	-78.1943	0.0000000E+000	0.0000000E+000	0.0000000E+000	78.1943	0.0000000E+000	0.0000000E+000	0.0000000E+000	-78.1943	0.0000000E+000	0.0000000E+000	0.0000000E+000	-11.8057	0.0000000E+000	0.0000000E+000	0.0000000E+000	11.8057	4.78436	78.1943	-3.62198e-06	-4.04012e-06	20896.5
4.63925	23.7673	4.21524	24.1382	-10.0571	14.3953	0.290576	-0.0128266	8138.61	248.191	1	11	0.00473566	0.00019619	0	-0.000116528	0.0407916	0.00723459	0.0414282	10.0571	248191	1.3994e+06	1.42124e+06	-79.9429	0.0000000E+000	0.0000000E+000	0.0000000E+000	79.9429	0.0000000E+000	0.0000000E+000	0.0000000E+000	-79.9429	0.0000000E+000	0.0000000E+000	0.0000000E+000	-10.0571	0.0000000E+000	0.0000000E+000	0.0000000E+000	10.0571	5.63841	79.9429	1.08903e-06	-3.72712e-06	22654.1
3.1604	24.7705	3.74054	25.0513	-8.58724	15.1042	0.290574	-0.0120702	13463.1	300.159	1	11	0.00474147	0.00018927	0	-0.000119043	0.0394706	0.00596037	0.0399181	8.58724	300159	1.98771e+06	2.01024e+06	-81.4128	0.0000000E+000	0.0000000E+000	0.0000000E+000	81.4128	0.0000000E+000	0.0000000E+000	0.0000000E+000	-81.4128	0.0000000E+000	0.0000000E+000	0.0000000E+000	-8.58724	0.0000000E+000	0.0000000E+000	0.0000000E+000	8.58724	6.62217	81.4128	-2.51518e-06	-3.50729e-06	24073.6
2.15577	25.5465	3.2753	25.7556	-7.306	16.1208	0.290581	-0.0110212	22540.7	364.524	1	11	0.0047406	0.000184061	0	-0.000125979	0.0385113	0.0049375	0.0388265	7.306	364524	2.84319e+06	2.86646e+06	-82.694	0.0000000E+000	0.0000000E+000	0.0000000E+000	82.694	0.0000000E+000	0.0000000E+000	0.0000000E+000	-82.694	0.0000000E+000	0.0000000E+000	0.0000000E+000	-7.306	0.0000000E+000	0.0000000E+000	0.0000000E+000	7.306	7.79974	82.694	-6.93604e-06	-3.20255e-06	26365.7
1.46631	26.2578	2.8337	26.4103	-6.15942	17.594	0.290583	-0.0107028	38303.7	440.963	1	11	0.00474131	0.000179525	0	-0.000133098	0.0376455	0.00406263	0.0378641	6.15942	440963	4.08608e+06	4.10981e+06	-83.8406	0.0000000E+000	0.0000000E+000	0.0000000E+000	83.8406	0.0000000E+000	0.0000000E+000	0.0000000E+000	-83.8406	0.0000000E+000	0.0000000E+000	0.0000000E+000	-6.15942	0.0000000E+000	0.0000000E+000	0.0000000E+000	6.15942	9.26628	83.8406	-7.11871e-06	-3.11004e-06	27150.3
1.00006	26.7882	2.5222	26.9067	-5.37874	20.7842	0.290584	-0.0100858	63097.6	554.437	1	12	0.00473848	0.000176108	0	-0.000139138	0.0370019	0.00348385	0.0371655	5.37874	554437	5.88865e+06	5.9147e+06	-84.6213	0.0000000E+000	0.0000000E+000	0.0000000E+000	84.6213	0.0000000E+000	0.0000000E+000	0.0000000E+000	-84.6213	0.0000000E+000	0.0000000E+000	0.0000000E+000	-5.37874	0.0000000E+000	0.0000000E+000	0.0000000E+000	5.37874	10.621	84.6213	-6.04036e-06	-2.93077e-06	28811.3
0.681362	27.2269	2.24779	27.3195	-4.7195	23.9041	0.290592	-0.00952174	103917	703.48	1	12	0.00473867	0.000173454	0	-0.000139385	0.0364798	0.00301168	0.0366039	4.7195	703480	8.52107e+06	8.55006e+06	-85.2805	0.0000000E+000	0.0000000E+000	0.0000000E+000	85.2805	0.0000000E+000	0.0000000E+000	0.0000000E+000	-85.2805	0.0000000E+000	0.0000000E+000	0.0000000E+000	-4.7195	0.0000000E+000	0.0000000E+000	0.0000000E+000	4.7195	12.1127	85.2805	-2.46564e-07	-2.76694e-06	30518.8
0.464091	27.5976	2.06875	27.6751	-4.28693	28.4689	0.290589	-0.00866359	165772	926.291	1	12	0.0047409	0.000171306	0	-0.000141476	0.0360325	0.00270104	0.0361336	4.28693	926292	1.2357e+07	1.23916e+07	-85.7131	0.0000000E+000	0.0000000E+000	0.0000000E+000	85.7131	0.0000000E+000	0.0000000E+000	0.0000000E+000	-85.7131	0.0000000E+000	0.0000000E+000	0.0000000E+000	-4.28693	0.0000000E+000	0.0000000E+000	0.0000000E+000	4.28693	13.3403	85.7131	-2.0915e-06	-2.51755e-06	33541.5
0.316193	27.9245	2.04963	27.9997	-4.19791	35.1512	0.290586	-0.0074171	245580	1315.94	1	12	0.00473834	0.000169228	0	-0.000153015	0.0356189	0.00261438	0.0357147	4.19791	1.31594e+06	1.79287e+07	1.79769e+07	-85.8021	0.0000000E+000	0.0000000E+000	0.0000000E+000	85.8021	0.0000000E+000	0.0000000E+000	0.0000000E+000	-85.8021	0.0000000E+000	0.0000000E+000	0.0000000E+000	-4.19791	0.0000000E+000	0.0000000E+000	0.0000000E+000	4.19791	13.6242	85.8021	-1.15389e-05	-2.15531e-06	39177.9
0.215268	28.2367	2.18017	28.3207	-4.41509	44.949	0.290591	-0.00593658	339117	2009.67	1	12	0.00474191	0.000167436	0	-0.000181783	0.0352051	0.00271821	0.0353099	4.41509	2.00967e+06	2.60283e+07	2.61058e+07	-85.5849	0.0000000E+000	0.0000000E+000	0.0000000E+000	85.5849	0.0000000E+000	0.0000000E+000	0.0000000E+000	-85.5849	0.0000000E+000	0.0000000E+000	0.0000000E+000	-4.41509	0.0000000E+000	0.0000000E+000	0.0000000E+000	4.41509	12.9516	85.5849	-2.87677e-05	-1.72512e-06	48949.2
0.146929	28.5508	2.44206	28.6551	-4.88882	59.2856	0.290594	-0.00480232	443565	3221.56	1	12	0.00474051	0.000165433	0	-0.000232192	0.0347709	0.00297408	0.0348978	4.88882	3.22156e+06	3.76642e+07	3.78017e+07	-85.1112	0.0000000E+000	0.0000000E+000	0.0000000E+000	85.1112	0.0000000E+000	0.0000000E+000	0.0000000E+000	-85.1112	0.0000000E+000	0.0000000E+000	0.0000000E+000	-4.88882	0.0000000E+000	0.0000000E+000	0.0000000E+000	4.88882	11.6913	85.1112	-5.04093e-05	-1.39552e-06	60511.1
0.0999041	28.9766	2.88602	29.12	-5.6878	80.3555	0.290589	-0.00441307	551998	5421.94	1	12	0.00473922	0.000162748	0	-0.000302173	0.0341716	0.00340344	0.0343407	5.6878	5.42194e+06	5.44381e+07	5.47074e+07	-84.3122	0.0000000E+000	0.0000000E+000	0.0000000E+000	84.3122	0.0000000E+000	0.0000000E+000	0.0000000E+000	-84.3122	0.0000000E+000	0.0000000E+000	0.0000000E+000	-5.6878	0.0000000E+000	0.0000000E+000	0.0000000E+000	5.6878	10.0403	84.3122	-6.99803e-05	-1.28239e-06	65847.5
0.0680626	29.5399	3.56513	29.7542	-6.88166	111.268	0.290591	-0.00409169	655899	9416.48	1	12	0.00474065	0.000159327	0	-0.000377537	0.0333665	0.00402696	0.0336087	6.88166	9.41648e+06	7.8023e+07	7.85892e+07	-83.1183	0.0000000E+000	0.0000000E+000	0.0000000E+000	83.1183	0.0000000E+000	0.0000000E+000	0.0000000E+000	-83.1183	0.0000000E+000	0.0000000E+000	0.0000000E+000	-6.88166	0.0000000E+000	0.0000000E+000	0.0000000E+000	6.88166	8.28579	83.1183	-7.53644e-05	-1.18901e-06	71020
0.0464052	30.2068	4.54232	30.5465	-8.55172	156.592	0.290593	-0.00400294	755050	16695.9	1	12	0.00474021	0.000155181	0	-0.000426461	0.0323731	0.00486807	0.032737	8.55172	1.66959e+07	1.11029e+08	1.12278e+08	-81.4483	0.0000000E+000	0.0000000E+000	0.0000000E+000	81.4483	0.0000000E+000	0.0000000E+000	0.0000000E+000	-81.4483	0.0000000E+000	0.0000000E+000	0.0000000E+000	-8.55172	0.0000000E+000	0.0000000E+000	0.0000000E+000	8.55172	6.65008	81.4483	-4.89241e-05	-1.16323e-06	72594.8
0.0315922	30.9048	5.75416	31.4359	-10.5471	223.152	0.290594	-0.00336405	875505	29333.9	1	12	0.00474127	0.000150824	0	-0.000401636	0.0312733	0.00582278	0.0318108	10.5471	2.93339e+07	1.57548e+08	1.60256e+08	-79.4529	0.0000000E+000	0.0000000E+000	0.0000000E+000	79.4529	0.0000000E+000	0.0000000E+000	0.0000000E+000	-79.4529	0.0000000E+000	0.0000000E+000	0.0000000E+000	-10.5471	0.0000000E+000	0.0000000E+000	0.0000000E+000	10.5471	5.37086	79.4529	2.48257e-05	-9.77573e-07	86382.1
0.0215268	31.7493	7.17916	32.5509	-12.7414	320.821	0.290588	-0.00212466	1.02983e+06	50094.3	1	12	0.00474217	0.000145685	0	-0.000277931	0.0299646	0.0067756	0.0307211	12.7414	5.00944e+07	2.21539e+08	2.27132e+08	-77.2586	0.0000000E+000	0.0000000E+000	0.0000000E+000	77.2586	0.0000000E+000	0.0000000E+000	0.0000000E+000	-77.2586	0.0000000E+000	0.0000000E+000	0.0000000E+000	-12.7414	0.0000000E+000	0.0000000E+000	0.0000000E+000	12.7414	4.42243	77.2586	0.000123705	-6.17401e-07	136770
0.0146812	32.9665	9.10552	34.2008	-15.4405	464.016	0.290592	-0.000818343	1.19057e+06	84389.9	1	12	0.00474129	0.000138631	0	-8.21975e-05	0.0281837	0.00778451	0.0292391	15.4405	8.43899e+07	3.05533e+08	3.16973e+08	-74.5595	0.0000000E+000	0.0000000E+000	0.0000000E+000	74.5595	0.0000000E+000	0.0000000E+000	0.0000000E+000	-74.5595	0.0000000E+000	0.0000000E+000	0.0000000E+000	-15.4405	0.0000000E+000	0.0000000E+000	0.0000000E+000	15.4405	3.62049	74.5595	0.000195733	-2.37804e-07	355098
0.0100092	34.4212	12.0652	36.4745	-19.3164	674.037	0.290591	-3.86808e-05	1.31791e+06	144204	1	12	0.00474028	0.000129961	0	4.93332e-05	0.025873	0.00906893	0.0274164	19.3164	1.44204e+08	4.11405e+08	4.35946e+08	-70.6836	0.0000000E+000	0.0000000E+000	0.0000000E+000	70.6836	0.0000000E+000	0.0000000E+000	0.0000000E+000	-70.6836	0.0000000E+000	0.0000000E+000	0.0000000E+000	-19.3164	0.0000000E+000	0.0000000E+000	0.0000000E+000	19.3164	2.85293	70.6836	0.000131531	-1.12403e-08	7.51254e+06