File: txt/17154_R270_UA618_SOC00_C02.mpt
EC-Lab ASCII FILE
Nb header lines : 63

Potentio Electrochemical Impedance Spectroscopy

Run on channel : 2 (SN 66139)
User :
CE vs. WE compliance from -10 V to 10 V
Electrode connection : standard
Potential control : Ewe
Ewe ctrl range : min = -10.00 V, max = 10.00 V
Safety Limits :
	Do not start on E overload
Acquisition started on : 09/04/2025 09:44:15.486
Loaded Setting File :  C:\Users\Celltest\OneDrive - store-dot.com\Documents\EC-Lab\Data\Gyutae\R270\17153_C01.mpr
Saved on :
	File : 17154_C02.mpr
	Directory : C:\Users\Celltest\OneDrive - store-dot.com\Documents\EC-Lab\Data\Gyutae\R270\
	Host : 169.254.61.224
Device : VMP-3e (SN .003165)
Address : USB
EC-LAB for windows v11.62 (software)
Internet server v27.00 (firmware)
Command interpretor v12.03 (firmware)
Electrode material :
Initial state :
Electrolyte :
Comments :
Electrode surface area : 0.001 cm²
Characteristic mass : 0.001 g
Equivalent Weight : 0.000 g/eq.
Density : 0.000 g/cm3
Volume (V) : 0.001 cm³
Cycle Definition : Charge/Discharge alternance
Mode                Single sine
E (V)               0.0000
vs.                 Eoc
tE (h:m:s)          0:00:0.0000
record              0
dI                  0.000
unit dI             mA
dt (s)              0.000
fi                  100.000
unit fi             kHz
ff                  10.000
unit ff             mHz
Nd                  6
Points              per decade
spacing             Logarithmic
Va (mV)             5.0
pw                  0.10
Na                  2
corr                0
E range min (V)     -10.000
E range max (V)     10.000
I Range             Auto
Bandwidth           5
nc cycles           0
goto Ns'            0
nr cycles           0
inc. cycle          0

freq/Hz	Re(Z)/Ohm	-Im(Z)/Ohm	|Z|/Ohm	Phase(Z)/deg	time/s	<Ewe>/V	<I>/mA	Cs/µF	Cp/µF	cycle number	I Range	|Ewe|/V	|I|/A	Ns	(Q-Qo)/mA.h	Re(Y)/Ohm-1	Im(Y)/Ohm-1	|Y|/Ohm-1	Phase(Y)/deg	Re(C)/nF	Im(C)/nF	|C|/nF	Phase(C)/deg	Re(M)	Im(M)	|M|	Phase(M)/deg	Re(Permittivity)	Im(Permittivity)	|Permittivity|	Phase(Permittivity)/deg	Re(Resistivity)/Ohm.cm	Im(Resistivity)/Ohm.cm	|Resistivity|/Ohm.cm	Phase(Resistivity)/deg	Re(Conductivity)/mS/cm	Im(Conductivity)/mS/cm	|Conductivity|/mS/cm	Phase(Conductivity)/deg	Tan(Delta)	Loss Angle(Delta)/deg	dq/mA.h	Pwe/W	Rwe/Ohm
100004	1.73252	0.467731	1.79455	-15.1081	1.86448	0.299842	-0.0307442	3.40258	0.231148	1	9	0.00462918	0.00257958	0	-1.32981e-05	0.537983	0.14524	0.557244	15.1081	231.148	856.196	886.849	-74.8919	0.0000000E+000	0.0000000E+000	0.0000000E+000	74.8919	0.0000000E+000	0.0000000E+000	0.0000000E+000	-74.8919	0.0000000E+000	0.0000000E+000	0.0000000E+000	-15.1081	0.0000000E+000	0.0000000E+000	0.0000000E+000	15.1081	3.70409	74.8919	-1.32981e-05	-9.2184e-06	9752.79
68132	1.84501	0.53252	1.92032	-16.0996	2.4425	0.29984	-0.0291426	4.38665	0.33733	1	9	0.0050573	0.00263356	0	-1.53543e-05	0.500323	0.144406	0.520745	16.0996	337.33	1168.74	1216.45	-73.9004	0.0000000E+000	0.0000000E+000	0.0000000E+000	73.9004	0.0000000E+000	0.0000000E+000	0.0000000E+000	-73.9004	0.0000000E+000	0.0000000E+000	0.0000000E+000	-16.0996	0.0000000E+000	0.0000000E+000	0.0000000E+000	16.0996	3.46468	73.9004	-2.05617e-06	-8.73812e-06	10288.7
46420.4	1.97526	0.603128	2.06529	-16.9796	3.0205	0.299836	-0.0309677	5.68463	0.484798	1	9	0.00506072	0.00245037	0	-2.53874e-05	0.463088	0.1414	0.484194	16.9796	484.798	1587.72	1660.09	-73.0204	0.0000000E+000	0.0000000E+000	0.0000000E+000	73.0204	0.0000000E+000	0.0000000E+000	0.0000000E+000	-73.0204	0.0000000E+000	0.0000000E+000	0.0000000E+000	-16.9796	0.0000000E+000	0.0000000E+000	0.0000000E+000	16.9796	3.27502	73.0204	-1.00331e-05	-9.28524e-06	9682.24
31621.1	2.11866	0.690271	2.22827	-18.0459	3.45748	0.299837	-0.0321223	7.2916	0.699723	1	9	0.00538544	0.00241687	0	-2.8356e-05	0.426702	0.139022	0.448778	18.0459	699.723	2147.67	2258.78	-71.9541	0.0000000E+000	0.0000000E+000	0.0000000E+000	71.9541	0.0000000E+000	0.0000000E+000	0.0000000E+000	-71.9541	0.0000000E+000	0.0000000E+000	0.0000000E+000	-18.0459	0.0000000E+000	0.0000000E+000	0.0000000E+000	18.0459	3.06931	71.9541	-2.96863e-06	-9.63147e-06	9334.24
21544.7	2.28511	0.786282	2.4166	-18.9878	3.89448	0.299836	-0.0283977	9.39511	0.994599	1	9	0.00528997	0.00218901	0	-3.17221e-05	0.391288	0.134638	0.413804	18.9878	994.599	2890.53	3056.86	-71.0122	0.0000000E+000	0.0000000E+000	0.0000000E+000	71.0122	0.0000000E+000	0.0000000E+000	0.0000000E+000	-71.0122	0.0000000E+000	0.0000000E+000	0.0000000E+000	-18.9878	0.0000000E+000	0.0000000E+000	0.0000000E+000	18.9878	2.90622	71.0122	-3.36608e-06	-8.51466e-06	10558.5
14678.6	2.46479	0.889343	2.62032	-19.8404	4.33249	0.299843	-0.0261444	12.1918	1.40441	1	9	0.00507375	0.00193631	0	-3.76782e-05	0.358979	0.129527	0.381632	19.8404	1404.41	3892.29	4137.91	-70.1596	0.0000000E+000	0.0000000E+000	0.0000000E+000	70.1596	0.0000000E+000	0.0000000E+000	0.0000000E+000	-70.1596	0.0000000E+000	0.0000000E+000	0.0000000E+000	-19.8404	0.0000000E+000	0.0000000E+000	0.0000000E+000	19.8404	2.77147	70.1596	-5.95606e-06	-7.8392e-06	11468.7
10002.2	2.67866	1.00898	2.86239	-20.6401	4.62849	0.299839	-0.0261257	15.7703	1.95952	1	9	0.00506703	0.00177021	0	-4.06649e-05	0.326934	0.123148	0.349359	20.6401	1959.52	5202.16	5558.98	-69.3599	0.0000000E+000	0.0000000E+000	0.0000000E+000	69.3599	0.0000000E+000	0.0000000E+000	0.0000000E+000	-69.3599	0.0000000E+000	0.0000000E+000	0.0000000E+000	-20.6401	0.0000000E+000	0.0000000E+000	0.0000000E+000	20.6401	2.65481	69.3599	-2.98669e-06	-7.83351e-06	11476.8
6811.07	2.92097	1.14973	3.1391	-21.4852	5.00651	0.299781	-0.0315823	20.3241	2.72641	1	9	0.00495838	0.00157956	0	-4.31082e-05	0.296427	0.116677	0.318563	21.4852	2726.41	6926.64	7443.9	-68.5148	0.0000000E+000	0.0000000E+000	0.0000000E+000	68.5148	0.0000000E+000	0.0000000E+000	0.0000000E+000	-68.5148	0.0000000E+000	0.0000000E+000	0.0000000E+000	-21.4852	0.0000000E+000	0.0000000E+000	0.0000000E+000	21.4852	2.54058	68.5148	-2.44331e-06	-9.46775e-06	9492.05
4641.49	3.18831	1.30213	3.44396	-22.2155	5.47768	0.299871	0.00607334	26.3335	3.76445	1	9	0.00486315	0.00141208	0	-4.20505e-05	0.268809	0.109784	0.290363	22.2155	3764.45	9217.38	9956.46	-67.7845	0.0000000E+000	0.0000000E+000	0.0000000E+000	67.7845	0.0000000E+000	0.0000000E+000	0.0000000E+000	-67.7845	0.0000000E+000	0.0000000E+000	0.0000000E+000	-22.2155	0.0000000E+000	0.0000000E+000	0.0000000E+000	22.2155	2.44853	67.7845	1.05764e-06	1.82122e-06	49375
3161.01	3.49272	1.47315	3.79069	-22.869	6.19871	0.299858	-0.0247054	34.1779	5.16187	1	10	0.0049442	0.0013043	0	-4.52568e-05	0.243068	0.102521	0.263805	22.869	5161.87	12238.3	13282.4	-67.131	0.0000000E+000	0.0000000E+000	0.0000000E+000	67.131	0.0000000E+000	0.0000000E+000	0.0000000E+000	-67.131	0.0000000E+000	0.0000000E+000	0.0000000E+000	-22.869	0.0000000E+000	0.0000000E+000	0.0000000E+000	22.869	2.37091	67.131	-3.20627e-06	-7.40811e-06	12137.4
2155.69	3.83729	1.6716	4.18558	-23.5389	6.66571	0.299857	-0.0234798	44.1674	7.04458	1	10	0.00486731	0.00116288	0	-4.89891e-05	0.219035	0.095416	0.238916	23.5389	7044.58	16171.4	17639.2	-66.4611	0.0000000E+000	0.0000000E+000	0.0000000E+000	66.4611	0.0000000E+000	0.0000000E+000	0.0000000E+000	-66.4611	0.0000000E+000	0.0000000E+000	0.0000000E+000	-23.5389	0.0000000E+000	0.0000000E+000	0.0000000E+000	23.5389	2.29558	66.4611	-3.73233e-06	-7.04058e-06	12770.8
1468.59	4.2406	1.90345	4.6482	-24.1736	7.13296	0.299855	-0.0237704	56.9349	9.54753	1	10	0.00480567	0.00103388	0	-5.15999e-05	0.196271	0.0880991	0.215137	24.1736	9547.53	21270.4	23315	-65.8264	0.0000000E+000	0.0000000E+000	0.0000000E+000	65.8264	0.0000000E+000	0.0000000E+000	0.0000000E+000	-65.8264	0.0000000E+000	0.0000000E+000	0.0000000E+000	-24.1736	0.0000000E+000	0.0000000E+000	0.0000000E+000	24.1736	2.22785	65.8264	-2.61077e-06	-7.12766e-06	12614.7
1000.32	4.70529	2.15425	5.17499	-24.6	7.60171	0.299854	-0.023463	73.856	12.7985	1	10	0.00475875	0.000919568	0	-5.47903e-05	0.175698	0.0804409	0.193237	24.6	12798.5	27954.3	30744.8	-65.4	0.0000000E+000	0.0000000E+000	0.0000000E+000	65.4	0.0000000E+000	0.0000000E+000	0.0000000E+000	-65.4	0.0000000E+000	0.0000000E+000	0.0000000E+000	-24.6	0.0000000E+000	0.0000000E+000	0.0000000E+000	24.6	2.18419	65.4	-3.19044e-06	-7.03548e-06	12779.8
681.09	5.23393	2.43229	5.77149	-24.9251	8.06741	0.299849	-0.023003	96.0726	17.063	1	10	0.00472068	0.000817931	0	-5.72334e-05	0.157127	0.0730197	0.173265	24.9251	17063	36717.1	40488.1	-65.0749	0.0000000E+000	0.0000000E+000	0.0000000E+000	65.0749	0.0000000E+000	0.0000000E+000	0.0000000E+000	-65.0749	0.0000000E+000	0.0000000E+000	0.0000000E+000	-24.9251	0.0000000E+000	0.0000000E+000	0.0000000E+000	24.9251	2.15185	65.0749	-2.44305e-06	-6.89742e-06	13035.2
463.961	5.85846	2.74715	6.47058	-25.1228	8.53621	0.299851	-0.0221723	124.869	22.5079	1	10	0.00470547	0.00072721	0	-6.0373e-05	0.139926	0.065614	0.154546	25.1228	22507.9	47999.4	53014.6	-64.8772	0.0000000E+000	0.0000000E+000	0.0000000E+000	64.8772	0.0000000E+000	0.0000000E+000	0.0000000E+000	-64.8772	0.0000000E+000	0.0000000E+000	0.0000000E+000	-25.1228	0.0000000E+000	0.0000000E+000	0.0000000E+000	25.1228	2.13256	64.8772	-3.13963e-06	-6.64838e-06	13523.7
316.316	6.56316	3.07544	7.24799	-25.1074	9.00291	0.299849	-0.022813	163.603	29.4558	1	10	0.00468691	0.000646649	0	-6.3537e-05	0.124933	0.0585426	0.137969	25.1074	29455.8	62860.3	69419.5	-64.8926	0.0000000E+000	0.0000000E+000	0.0000000E+000	64.8926	0.0000000E+000	0.0000000E+000	0.0000000E+000	-64.8926	0.0000000E+000	0.0000000E+000	0.0000000E+000	-25.1074	0.0000000E+000	0.0000000E+000	0.0000000E+000	25.1074	2.13405	64.8926	-3.16404e-06	-6.84045e-06	13143.8
215.345	7.40002	3.40117	8.14422	-24.6843	9.47043	0.299846	-0.0221853	217.299	37.898	1	10	0.00468113	0.00057478	0	-6.61492e-05	0.111567	0.0512778	0.122787	24.6843	37898	82455.7	90748	-65.3157	0.0000000E+000	0.0000000E+000	0.0000000E+000	65.3157	0.0000000E+000	0.0000000E+000	0.0000000E+000	-65.3157	0.0000000E+000	0.0000000E+000	0.0000000E+000	-24.6843	0.0000000E+000	0.0000000E+000	0.0000000E+000	24.6843	2.17573	65.3157	-2.61215e-06	-6.65217e-06	13515.5
146.737	8.33804	3.69331	9.1194	-23.8908	9.93337	0.299848	-0.022271	293.673	48.1684	1	10	0.00467578	0.000512729	0	-6.87083e-05	0.100261	0.0444102	0.109656	23.8908	48168.4	108745	118936	-66.1092	0.0000000E+000	0.0000000E+000	0.0000000E+000	66.1092	0.0000000E+000	0.0000000E+000	0.0000000E+000	-66.1092	0.0000000E+000	0.0000000E+000	0.0000000E+000	-23.8908	0.0000000E+000	0.0000000E+000	0.0000000E+000	23.8908	2.25761	66.1092	-2.5591e-06	-6.6779e-06	13463.6
100.032	9.37798	3.88196	10.1497	-22.4868	10.4017	0.299854	-0.0214309	409.855	59.9552	1	10	0.00466979	0.000460092	0	-7.12332e-05	0.0910341	0.037683	0.0985252	22.4868	59955.2	144839	156758	-67.5132	0.0000000E+000	0.0000000E+000	0.0000000E+000	67.5132	0.0000000E+000	0.0000000E+000	0.0000000E+000	-67.5132	0.0000000E+000	0.0000000E+000	0.0000000E+000	-22.4868	0.0000000E+000	0.0000000E+000	0.0000000E+000	22.4868	2.41579	67.5132	-2.52489e-06	-6.42616e-06	13991.6
68.104	10.4948	3.96575	11.2191	-20.7005	10.8793	0.299858	-0.0190971	589.281	73.6309	1	10	0.00466277	0.000415611	0	-7.35399e-05	0.0833796	0.0315074	0.089134	20.7005	73630.9	194853	208301	-69.2995	0.0000000E+000	0.0000000E+000	0.0000000E+000	69.2995	0.0000000E+000	0.0000000E+000	0.0000000E+000	-69.2995	0.0000000E+000	0.0000000E+000	0.0000000E+000	-20.7005	0.0000000E+000	0.0000000E+000	0.0000000E+000	20.7005	2.64635	69.2995	-2.30671e-06	-5.72641e-06	15701.7
46.4415	11.6359	3.92043	12.2786	-18.62	11.3345	0.299848	-0.0234426	874.137	89.115	1	10	0.00466385	0.000379836	0	-7.60387e-05	0.0771796	0.0260038	0.0814426	18.62	89115	264494	279103	-71.38	0.0000000E+000	0.0000000E+000	0.0000000E+000	71.38	0.0000000E+000	0.0000000E+000	0.0000000E+000	-71.38	0.0000000E+000	0.0000000E+000	0.0000000E+000	-18.62	0.0000000E+000	0.0000000E+000	0.0000000E+000	18.62	2.96801	71.38	-2.49875e-06	-7.0292e-06	12790.7
31.6296	12.7172	3.7175	13.2494	-16.2947	11.7814	0.299843	-0.0251562	1353.56	106.557	1	10	0.00466618	0.000352179	0	-7.91329e-05	0.0724432	0.0211766	0.0754749	16.2947	106557	364523	379778	-73.7053	0.0000000E+000	0.0000000E+000	0.0000000E+000	73.7053	0.0000000E+000	0.0000000E+000	0.0000000E+000	-73.7053	0.0000000E+000	0.0000000E+000	0.0000000E+000	-16.2947	0.0000000E+000	0.0000000E+000	0.0000000E+000	16.2947	3.42091	73.7053	-3.0942e-06	-7.5429e-06	11919.3
21.5517	13.6686	3.41453	14.0886	-14.0259	12.2204	0.299841	-0.0264321	2162.75	127.038	1	10	0.00466148	0.000330869	0	-8.11007e-05	0.0688632	0.0172026	0.0709794	14.0259	127038	508540	524168	-75.9741	0.0000000E+000	0.0000000E+000	0.0000000E+000	75.9741	0.0000000E+000	0.0000000E+000	0.0000000E+000	-75.9741	0.0000000E+000	0.0000000E+000	0.0000000E+000	-14.0259	0.0000000E+000	0.0000000E+000	0.0000000E+000	14.0259	4.00306	75.9741	-1.96788e-06	-7.92541e-06	11343.8
14.6852	14.5613	3.04267	14.8758	-11.8025	12.9571	0.299876	-0.0167544	3561.94	149.017	1	11	0.00466654	0.0003137	0	-8.49563e-05	0.0658021	0.0137497	0.0672233	11.8025	149017	713150	728553	-78.1975	0.0000000E+000	0.0000000E+000	0.0000000E+000	78.1975	0.0000000E+000	0.0000000E+000	0.0000000E+000	-78.1975	0.0000000E+000	0.0000000E+000	0.0000000E+000	-11.8025	0.0000000E+000	0.0000000E+000	0.0000000E+000	11.8025	4.7857	78.1975	-3.85559e-06	-5.02424e-06	17898.3
10.0032	15.2597	2.70887	15.4983	-10.0662	13.4257	0.299874	-0.0166545	5873.44	179.433	1	11	0.00466404	0.000300939	0	-8.94316e-05	0.06353	0.0112777	0.0645232	10.0662	179433	1.01079e+06	1.02659e+06	-79.9338	0.0000000E+000	0.0000000E+000	0.0000000E+000	79.9338	0.0000000E+000	0.0000000E+000	0.0000000E+000	-79.9338	0.0000000E+000	0.0000000E+000	0.0000000E+000	-10.0662	0.0000000E+000	0.0000000E+000	0.0000000E+000	10.0662	5.63324	79.9338	-4.47524e-06	-4.99425e-06	18005.6
6.81719	15.8456	2.35095	16.0191	-8.43918	13.7834	0.299863	-0.0175659	9930.5	213.887	1	11	0.00465737	0.000290739	0	-8.80062e-05	0.0617496	0.00916155	0.0624256	8.43918	213887	1.44161e+06	1.45739e+06	-81.5608	0.0000000E+000	0.0000000E+000	0.0000000E+000	81.5608	0.0000000E+000	0.0000000E+000	0.0000000E+000	-81.5608	0.0000000E+000	0.0000000E+000	0.0000000E+000	-8.43918	0.0000000E+000	0.0000000E+000	0.0000000E+000	8.43918	6.74009	81.5608	1.42534e-06	-5.26737e-06	17070.7
4.63925	16.3629	2.01369	16.4864	-7.01578	14.2853	0.299874	-0.0158309	17036.5	254.164	1	11	0.00466671	0.000283065	0	-9.42842e-05	0.060202	0.00740871	0.0606562	7.01578	254164	2.0653e+06	2.08088e+06	-82.9842	0.0000000E+000	0.0000000E+000	0.0000000E+000	82.9842	0.0000000E+000	0.0000000E+000	0.0000000E+000	-82.9842	0.0000000E+000	0.0000000E+000	0.0000000E+000	-7.01578	0.0000000E+000	0.0000000E+000	0.0000000E+000	7.01578	8.12585	82.9842	-6.27797e-06	-4.74727e-06	18942.3
3.1604	16.7984	1.72896	16.8871	-5.87644	14.9962	0.299881	-0.0154641	29126.8	305.318	1	11	0.0046678	0.000276412	0	-9.64835e-05	0.0589055	0.00606281	0.0592167	5.87644	305318	2.96643e+06	2.9821e+06	-84.1236	0.0000000E+000	0.0000000E+000	0.0000000E+000	84.1236	0.0000000E+000	0.0000000E+000	0.0000000E+000	-84.1236	0.0000000E+000	0.0000000E+000	0.0000000E+000	-5.87644	0.0000000E+000	0.0000000E+000	0.0000000E+000	5.87644	9.71588	84.1236	-2.1993e-06	-4.63738e-06	19392.1
2.15577	17.1073	1.47573	17.1709	-4.93031	16.0128	0.299897	-0.0140995	50027.7	369.523	1	11	0.00466902	0.000271915	0	-9.47366e-05	0.0580226	0.00500522	0.0582381	4.93031	369523	4.28367e+06	4.29958e+06	-85.0697	0.0000000E+000	0.0000000E+000	0.0000000E+000	85.0697	0.0000000E+000	0.0000000E+000	0.0000000E+000	-85.0697	0.0000000E+000	0.0000000E+000	0.0000000E+000	-4.93031	0.0000000E+000	0.0000000E+000	0.0000000E+000	4.93031	11.5924	85.0697	1.7469e-06	-4.2284e-06	21270
1.46631	17.3684	1.2703	17.4148	-4.18311	17.486	0.299892	-0.0129254	85445	454.639	1	11	0.004668	0.000268049	0	-9.68022e-05	0.0572696	0.00418864	0.0574226	4.18311	454640	6.21611e+06	6.23271e+06	-85.8169	0.0000000E+000	0.0000000E+000	0.0000000E+000	85.8169	0.0000000E+000	0.0000000E+000	0.0000000E+000	-85.8169	0.0000000E+000	0.0000000E+000	0.0000000E+000	-4.18311	0.0000000E+000	0.0000000E+000	0.0000000E+000	4.18311	13.6726	85.8169	-2.06562e-06	-3.87622e-06	23201.8
1.00006	17.576	1.13357	17.6125	-3.69022	20.6762	0.2999	-0.0111199	140392	581.569	1	12	0.0046684	0.000265062	0	-0.000112544	0.0566602	0.00365434	0.0567779	3.69022	581568	9.01718e+06	9.03591e+06	-86.3098	0.0000000E+000	0.0000000E+000	0.0000000E+000	86.3098	0.0000000E+000	0.0000000E+000	0.0000000E+000	-86.3098	0.0000000E+000	0.0000000E+000	0.0000000E+000	-3.69022	0.0000000E+000	0.0000000E+000	0.0000000E+000	3.69022	15.5049	86.3098	-1.57416e-05	-3.33485e-06	26969.8
0.681362	17.7418	1.05767	17.7733	-3.41163	23.7962	0.299899	-0.0100562	220847	782.087	1	12	0.00466653	0.000262558	0	-0.000133934	0.0561643	0.00334821	0.056264	3.41163	782087	1.31191e+07	1.31423e+07	-86.5884	0.0000000E+000	0.0000000E+000	0.0000000E+000	86.5884	0.0000000E+000	0.0000000E+000	0.0000000E+000	-86.5884	0.0000000E+000	0.0000000E+000	0.0000000E+000	-3.41163	0.0000000E+000	0.0000000E+000	0.0000000E+000	3.41163	16.7744	86.5884	-2.13905e-05	-3.01584e-06	29822.3
0.464091	17.8963	1.06819	17.9281	-3.41582	28.361	0.299896	-0.0101227	321047	1139.72	1	12	0.0046666	0.000260295	0	-0.000158898	0.0556792	0.00332338	0.0557783	3.41582	1.13972e+06	1.90946e+07	1.91286e+07	-86.5842	0.0000000E+000	0.0000000E+000	0.0000000E+000	86.5842	0.0000000E+000	0.0000000E+000	0.0000000E+000	-86.5842	0.0000000E+000	0.0000000E+000	0.0000000E+000	-3.41582	0.0000000E+000	0.0000000E+000	0.0000000E+000	3.41582	16.7538	86.5842	-2.49633e-05	-3.03575e-06	29626.1
0.316193	18.0594	1.19513	18.0989	-3.78619	35.0433	0.299898	-0.0102908	421166	1836.45	1	12	0.00467026	0.000258041	0	-0.000178291	0.0551314	0.00364848	0.055252	3.78619	1.83645e+06	2.77503e+07	2.7811e+07	-86.2138	0.0000000E+000	0.0000000E+000	0.0000000E+000	86.2138	0.0000000E+000	0.0000000E+000	0.0000000E+000	-86.2138	0.0000000E+000	0.0000000E+000	0.0000000E+000	-3.78619	0.0000000E+000	0.0000000E+000	0.0000000E+000	3.78619	15.1108	86.2138	-1.93938e-05	-3.08618e-06	29142.4
0.215268	18.1949	1.43641	18.2515	-4.51389	44.8409	0.299896	-0.00973133	514710	3188.02	1	12	0.00466907	0.000255818	0	-0.000183207	0.05462	0.00431201	0.0547899	4.51389	3.18802e+06	4.03824e+07	4.05081e+07	-85.4861	0.0000000E+000	0.0000000E+000	0.0000000E+000	85.4861	0.0000000E+000	0.0000000E+000	0.0000000E+000	-85.4861	0.0000000E+000	0.0000000E+000	0.0000000E+000	-4.51389	0.0000000E+000	0.0000000E+000	0.0000000E+000	4.51389	12.6669	85.4861	-4.91554e-06	-2.91839e-06	30817.6
0.146929	18.3574	1.76113	18.4417	-5.47993	59.1766	0.299895	-0.00780859	615066	5609.21	1	12	0.00466955	0.000253206	0	-0.000168155	0.0539771	0.00517831	0.0542249	5.47993	5.60921e+06	5.84686e+07	5.8737e+07	-84.5201	0.0000000E+000	0.0000000E+000	0.0000000E+000	84.5201	0.0000000E+000	0.0000000E+000	0.0000000E+000	-84.5201	0.0000000E+000	0.0000000E+000	0.0000000E+000	-5.47993	0.0000000E+000	0.0000000E+000	0.0000000E+000	5.47993	10.4237	84.5201	1.50515e-05	-2.34176e-06	38405.8
0.0999041	18.6227	2.21473	18.7539	-6.78213	80.2476	0.29989	-0.00522558	719310	10031.7	1	12	0.00466791	0.000248904	0	-0.000139718	0.0529491	0.00629705	0.0533222	6.78213	1.00317e+07	8.4352e+07	8.49464e+07	-83.2179	0.0000000E+000	0.0000000E+000	0.0000000E+000	83.2179	0.0000000E+000	0.0000000E+000	0.0000000E+000	-83.2179	0.0000000E+000	0.0000000E+000	0.0000000E+000	-6.78213	0.0000000E+000	0.0000000E+000	0.0000000E+000	6.78213	8.40856	83.2179	2.84373e-05	-1.5671e-06	57388.8
0.0680626	19.0047	2.89371	19.2237	-8.65753	111.16	0.299885	-0.00285694	808084	18310.1	1	12	0.00466787	0.000242818	0	-0.000121503	0.0514264	0.00783034	0.0520191	8.65753	1.83101e+07	1.20253e+08	1.21639e+08	-81.3425	0.0000000E+000	0.0000000E+000	0.0000000E+000	81.3425	0.0000000E+000	0.0000000E+000	0.0000000E+000	-81.3425	0.0000000E+000	0.0000000E+000	0.0000000E+000	-8.65753	0.0000000E+000	0.0000000E+000	0.0000000E+000	8.65753	6.56758	81.3425	1.82151e-05	-8.56756e-07	104967
0.0464052	19.4796	3.86888	19.8601	-11.2334	156.483	0.299885	-0.000827708	886480	33641.5	1	12	0.00466906	0.000235098	0	-0.000165208	0.0493876	0.00980894	0.0503522	11.2334	3.36415e+07	1.69383e+08	1.72692e+08	-78.7666	0.0000000E+000	0.0000000E+000	0.0000000E+000	78.7666	0.0000000E+000	0.0000000E+000	0.0000000E+000	-78.7666	0.0000000E+000	0.0000000E+000	0.0000000E+000	-11.2334	0.0000000E+000	0.0000000E+000	0.0000000E+000	11.2334	5.03496	78.7666	-4.37045e-05	-2.48217e-07	362308
0.0315922	19.9951	5.0631	20.6262	-14.2096	223.044	0.299887	-0.000529301	995002	59953.9	1	12	0.00466892	0.000226359	0	-0.000337472	0.0469987	0.0119008	0.048482	14.2096	5.99539e+07	2.36769e+08	2.44242e+08	-75.7904	0.0000000E+000	0.0000000E+000	0.0000000E+000	75.7904	0.0000000E+000	0.0000000E+000	0.0000000E+000	-75.7904	0.0000000E+000	0.0000000E+000	0.0000000E+000	-14.2096	0.0000000E+000	0.0000000E+000	0.0000000E+000	14.2096	3.94919	75.7904	-0.000172265	-1.5873e-07	566572
0.0215268	20.7813	6.55745	21.7913	-17.5129	320.713	0.299885	-0.000957471	1.12747e+06	102096	1	12	0.00466944	0.00021428	0	-0.000653011	0.0437628	0.0138092	0.0458898	17.5129	1.02096e+08	3.23553e+08	3.39279e+08	-72.4871	0.0000000E+000	0.0000000E+000	0.0000000E+000	72.4871	0.0000000E+000	0.0000000E+000	0.0000000E+000	-72.4871	0.0000000E+000	0.0000000E+000	0.0000000E+000	-17.5129	0.0000000E+000	0.0000000E+000	0.0000000E+000	17.5129	3.16911	72.4871	-0.000315539	-2.87131e-07	313205
0.0146812	21.9291	8.66679	23.5796	-21.5649	463.909	0.299885	-0.00127161	1.25084e+06	168984	1	12	0.00466804	0.00019797	0	-0.00099855	0.0394409	0.0155878	0.0424095	21.5649	1.68983e+08	4.27569e+08	4.59751e+08	-68.4351	0.0000000E+000	0.0000000E+000	0.0000000E+000	68.4351	0.0000000E+000	0.0000000E+000	0.0000000E+000	-68.4351	0.0000000E+000	0.0000000E+000	0.0000000E+000	-21.5649	0.0000000E+000	0.0000000E+000	0.0000000E+000	21.5649	2.53024	68.4351	-0.000345539	-3.81338e-07	235831
0.0100092	23.2609	11.6719	26.025	-26.6466	673.931	0.299885	-0.00132368	1.36233e+06	274018	1	12	0.00466859	0.000179389	0	-0.00113643	0.0343435	0.0172329	0.0384246	26.6466	2.74018e+08	5.46093e+08	6.10986e+08	-63.3534	0.0000000E+000	0.0000000E+000	0.0000000E+000	63.3534	0.0000000E+000	0.0000000E+000	0.0000000E+000	-63.3534	0.0000000E+000	0.0000000E+000	0.0000000E+000	-26.6466	0.0000000E+000	0.0000000E+000	0.0000000E+000	26.6466	1.99291	63.3534	-0.000137882	-3.96953e-07	226553