File: txt/17155_C03.mpt
EC-Lab ASCII FILE
Nb header lines : 64

Potentio Electrochemical Impedance Spectroscopy

Run on channel : 3 (SN 65921)
User :
CE vs. WE compliance from -10 V to 10 V
Electrode connection : standard
Potential control : Ewe
Ewe ctrl range : min = -10.00 V, max = 10.00 V
Safety Limits :
	Do not start on E overload
Acquisition started on : 09/04/2025 09:44:33.410
Technique started on : 09/04/2025 09:44:35.393
Loaded Setting File :  C:\Users\Celltest\OneDrive - store-dot.com\Documents\EC-Lab\Data\Gyutae\R270\17154_C02.mpr
Saved on :
	File : 17155_C03.mpr
	Directory : C:\Users\Celltest\OneDrive - store-dot.com\Documents\EC-Lab\Data\Gyutae\R270\
	Host : 169.254.61.224
Device : VMP-3e (SN .003165)
Address : USB
EC-LAB for windows v11.62 (software)
Internet server v27.00 (firmware)
Command interpretor v12.03 (firmware)
Electrode material :
Initial state :
Electrolyte :
Comments :
Electrode surface area : 0.001 cm²
Characteristic mass : 0.001 g
Equivalent Weight : 0.000 g/eq.
Density : 0.000 g/cm3
Volume (V) : 0.001 cm³
Cycle Definition : Charge/Discharge alternance
Mode                Single sine
E (V)               0.0000
vs.                 Eoc
tE (h:m:s)          0:00:0.0000
record              0
dI                  0.000
unit dI             mA
dt (s)              0.000
fi                  100.000
unit fi             kHz
ff                  10.000
unit ff             mHz
Nd                  6
Points              per decade
spacing             Logarithmic
Va (mV)             5.0
pw                  0.10
Na                  2
corr                0
E range min (V)     -10.000
E range max (V)     10.000
I Range             Auto
Bandwidth           5
nc cycles           0
goto Ns'            0
nr cycles           0
inc. cycle          0

freq/Hz	Re(Z)/Ohm	-Im(Z)/Ohm	|Z|/Ohm	Phase(Z)/deg	time/s	<Ewe>/V	<I>/mA	Cs/µF	Cp/µF	cycle number	I Range	|Ewe|/V	|I|/A	Ns	(Q-Qo)/mA.h	Re(Y)/Ohm-1	Im(Y)/Ohm-1	|Y|/Ohm-1	Phase(Y)/deg	Re(C)/nF	Im(C)/nF	|C|/nF	Phase(C)/deg	Re(M)	Im(M)	|M|	Phase(M)/deg	Re(Permittivity)	Im(Permittivity)	|Permittivity|	Phase(Permittivity)/deg	Re(Resistivity)/Ohm.cm	Im(Resistivity)/Ohm.cm	|Resistivity|/Ohm.cm	Phase(Resistivity)/deg	Re(Conductivity)/mS/cm	Im(Conductivity)/mS/cm	|Conductivity|/mS/cm	Phase(Conductivity)/deg	Tan(Delta)	Loss Angle(Delta)/deg	dq/mA.h	Pwe/W	Rwe/Ohm
100004	3.64397	2.25885	4.2873	-31.7943	1.98347	0.296662	-0.031642	0.704557	0.19558	1	10	0.00529745	0.00123561	0	-7.73349e-06	0.198247	0.122891	0.233247	31.7943	195.58	315.509	371.211	-58.2057	0.0000000E+000	0.0000000E+000	0.0000000E+000	58.2057	0.0000000E+000	0.0000000E+000	0.0000000E+000	-58.2057	0.0000000E+000	0.0000000E+000	0.0000000E+000	-31.7943	0.0000000E+000	0.0000000E+000	0.0000000E+000	31.7943	1.6132	58.2058	-7.73349e-06	-9.38698e-06	9375.55
68132	1.86516	1.37996	2.32015	-36.4962	2.73349	0.296681	0.0246073	1.69279	0.598826	1	9	0.00465304	0.00200549	0	-7.67003e-06	0.346484	0.256349	0.431006	36.4962	598.826	809.38	1006.82	-53.5038	0.0000000E+000	0.0000000E+000	0.0000000E+000	53.5038	0.0000000E+000	0.0000000E+000	0.0000000E+000	-53.5038	0.0000000E+000	0.0000000E+000	0.0000000E+000	-36.4962	0.0000000E+000	0.0000000E+000	0.0000000E+000	36.4962	1.35161	53.5038	6.34597e-08	7.30052e-06	12056.6
46420.4	1.57492	1.85433	2.43288	-49.6581	3.59349	0.296685	0.00892539	1.84895	1.07413	1	9	0.00507634	0.00208656	0	-3.65325e-06	0.266083	0.313289	0.411035	49.6581	1074.13	912.28	1409.26	-40.3419	0.0000000E+000	0.0000000E+000	0.0000000E+000	40.3419	0.0000000E+000	0.0000000E+000	0.0000000E+000	-40.3419	0.0000000E+000	0.0000000E+000	0.0000000E+000	-49.6581	0.0000000E+000	0.0000000E+000	0.0000000E+000	49.6581	0.849319	40.3419	4.01678e-06	2.64803e-06	33240.6
31621.1	3.18118	1.4784	3.50793	-24.9259	4.0305	0.296596	0.00374156	3.40448	0.60469	1	9	0.00516683	0.0014729	0	-2.8383e-06	0.258515	0.120141	0.285068	24.9259	604.69	1301.15	1434.8	-65.0741	0.0000000E+000	0.0000000E+000	0.0000000E+000	65.0741	0.0000000E+000	0.0000000E+000	0.0000000E+000	-65.0741	0.0000000E+000	0.0000000E+000	0.0000000E+000	-24.9259	0.0000000E+000	0.0000000E+000	0.0000000E+000	24.9259	2.15177	65.0741	8.14949e-07	1.10973e-06	79270.8
21544.7	3.52035	1.11126	3.69158	-17.5192	4.46749	0.296595	0.00627752	6.64761	0.60238	1	9	0.00484004	0.0013111	0	-4.8327e-07	0.258322	0.0815437	0.270887	17.5192	602.38	1908.28	2001.1	-72.4808	0.0000000E+000	0.0000000E+000	0.0000000E+000	72.4808	0.0000000E+000	0.0000000E+000	0.0000000E+000	-72.4808	0.0000000E+000	0.0000000E+000	0.0000000E+000	-17.5192	0.0000000E+000	0.0000000E+000	0.0000000E+000	17.5192	3.1679	72.4808	2.35503e-06	1.86188e-06	47247.1
14678.6	3.74986	1.11299	3.91154	-16.5314	4.76349	0.296606	0.00767603	9.7419	0.788735	1	9	0.0051929	0.00132758	0	1.60328e-06	0.245086	0.0727437	0.255653	16.5314	788.735	2657.38	2771.96	-73.4686	0.0000000E+000	0.0000000E+000	0.0000000E+000	73.4686	0.0000000E+000	0.0000000E+000	0.0000000E+000	-73.4686	0.0000000E+000	0.0000000E+000	0.0000000E+000	-16.5314	0.0000000E+000	0.0000000E+000	0.0000000E+000	16.5314	3.36917	73.4686	2.08655e-06	2.27675e-06	38640.5
10002.2	3.97058	1.2732	4.16972	-17.779	5.05948	0.296613	0.00734039	12.4976	1.16522	1	9	0.0053498	0.00128301	0	1.48265e-06	0.228371	0.0732293	0.239824	17.779	1165.22	3633.83	3816.08	-72.221	0.0000000E+000	0.0000000E+000	0.0000000E+000	72.221	0.0000000E+000	0.0000000E+000	0.0000000E+000	-72.221	0.0000000E+000	0.0000000E+000	0.0000000E+000	-17.779	0.0000000E+000	0.0000000E+000	0.0000000E+000	17.779	3.11857	72.221	-1.20626e-07	2.17725e-06	40408.4
6811.07	4.09899	1.70293	4.43866	-22.5605	5.64651	0.296626	-0.024999	13.7217	2.01975	1	10	0.00537522	0.001211	0	3.62532e-07	0.208053	0.0864357	0.225293	22.5605	2019.75	4861.59	5264.45	-67.4395	0.0000000E+000	0.0000000E+000	0.0000000E+000	67.4395	0.0000000E+000	0.0000000E+000	0.0000000E+000	-67.4395	0.0000000E+000	0.0000000E+000	0.0000000E+000	-22.5605	0.0000000E+000	0.0000000E+000	0.0000000E+000	22.5605	2.40703	67.4395	-1.12012e-06	-7.41537e-06	11865.5
4641.49	4.3596	1.93529	4.76985	-23.9372	6.3407	0.296665	-0.00951859	17.7181	2.91676	1	10	0.00510569	0.00107041	0	-1.29267e-06	0.191618	0.0850623	0.20965	23.9372	2916.76	6570.53	7188.84	-66.0628	0.0000000E+000	0.0000000E+000	0.0000000E+000	66.0628	0.0000000E+000	0.0000000E+000	0.0000000E+000	-66.0628	0.0000000E+000	0.0000000E+000	0.0000000E+000	-23.9372	0.0000000E+000	0.0000000E+000	0.0000000E+000	23.9372	2.25268	66.0628	-1.6552e-06	-2.82383e-06	31166.9
3161.01	4.88615	1.80131	5.20761	-20.2367	6.80769	0.296671	-0.0087001	27.9515	3.34431	1	10	0.00495027	0.000950585	0	-2.24601e-06	0.180173	0.066422	0.192027	20.2367	3344.31	9071.61	9668.43	-69.7633	0.0000000E+000	0.0000000E+000	0.0000000E+000	69.7633	0.0000000E+000	0.0000000E+000	0.0000000E+000	-69.7633	0.0000000E+000	0.0000000E+000	0.0000000E+000	-20.2367	0.0000000E+000	0.0000000E+000	0.0000000E+000	20.2367	2.71255	69.7633	-9.53345e-07	-2.58107e-06	34099.7
2155.69	5.29843	1.98262	5.65722	-20.5153	7.27467	0.296669	-0.00871688	37.2388	4.57368	1	10	0.00488434	0.000863381	0	-3.16215e-06	0.165554	0.0619487	0.176765	20.5153	4573.68	12222.9	13050.6	-69.4847	0.0000000E+000	0.0000000E+000	0.0000000E+000	69.4847	0.0000000E+000	0.0000000E+000	0.0000000E+000	-69.4847	0.0000000E+000	0.0000000E+000	0.0000000E+000	-20.5153	0.0000000E+000	0.0000000E+000	0.0000000E+000	20.5153	2.67245	69.4847	-9.1614e-07	-2.58603e-06	34033.9
1468.59	5.76726	2.21966	6.17966	-21.0503	7.74193	0.296678	-0.00783501	48.8241	6.29907	1	10	0.00484361	0.0007838	0	-4.74441e-06	0.151022	0.0581242	0.161821	21.0503	6299.07	16366.7	17537	-68.9497	0.0000000E+000	0.0000000E+000	0.0000000E+000	68.9497	0.0000000E+000	0.0000000E+000	0.0000000E+000	-68.9497	0.0000000E+000	0.0000000E+000	0.0000000E+000	-21.0503	0.0000000E+000	0.0000000E+000	0.0000000E+000	21.0503	2.59827	68.9497	-1.58226e-06	-2.32448e-06	37865.7
1000.32	6.28847	2.49572	6.76561	-21.6468	8.21067	0.296669	-0.00811841	63.7507	8.67487	1	10	0.0048024	0.000709825	0	-5.27451e-06	0.137382	0.0545233	0.147806	21.6468	8674.87	21858.1	23516.6	-68.3532	0.0000000E+000	0.0000000E+000	0.0000000E+000	68.3532	0.0000000E+000	0.0000000E+000	0.0000000E+000	-68.3532	0.0000000E+000	0.0000000E+000	0.0000000E+000	-21.6468	0.0000000E+000	0.0000000E+000	0.0000000E+000	21.6468	2.5197	68.3532	-5.30102e-07	-2.40848e-06	36542.8
681.09	6.90041	2.78922	7.44281	-22.0091	8.67643	0.296669	-0.00794315	83.7785	11.7659	1	10	0.00477974	0.000642195	0	-6.33657e-06	0.124566	0.0503511	0.134358	22.0091	11765.9	29108.3	31396.3	-67.9909	0.0000000E+000	0.0000000E+000	0.0000000E+000	67.9909	0.0000000E+000	0.0000000E+000	0.0000000E+000	-67.9909	0.0000000E+000	0.0000000E+000	0.0000000E+000	-22.0091	0.0000000E+000	0.0000000E+000	0.0000000E+000	22.0091	2.47395	67.9909	-1.06206e-06	-2.35649e-06	37349
463.961	7.55798	3.1463	8.18671	-22.6014	9.14518	0.296679	-0.00723653	109.028	16.1035	1	10	0.0047585	0.000581246	0	-7.11701e-06	0.112768	0.0469441	0.122149	22.6014	16103.5	38683.5	41901.5	-67.3986	0.0000000E+000	0.0000000E+000	0.0000000E+000	67.3986	0.0000000E+000	0.0000000E+000	0.0000000E+000	-67.3986	0.0000000E+000	0.0000000E+000	0.0000000E+000	-22.6014	0.0000000E+000	0.0000000E+000	0.0000000E+000	22.6014	2.40218	67.3986	-7.80438e-07	-2.14693e-06	40997.4
316.316	8.34074	3.56129	9.06922	-23.1213	9.61194	0.296672	-0.00798231	141.283	21.7855	1	10	0.00475577	0.000524385	0	-7.77786e-06	0.101406	0.043298	0.110263	23.1213	21785.5	51022.7	55479.1	-66.8787	0.0000000E+000	0.0000000E+000	0.0000000E+000	66.8787	0.0000000E+000	0.0000000E+000	0.0000000E+000	-66.8787	0.0000000E+000	0.0000000E+000	0.0000000E+000	-23.1213	0.0000000E+000	0.0000000E+000	0.0000000E+000	23.1213	2.34205	66.8787	-6.6085e-07	-2.36813e-06	37166.2
215.345	9.21885	4.01389	10.0548	-23.5283	10.0795	0.29668	-0.00752552	184.129	29.3432	1	10	0.00474364	0.00047178	0	-8.47982e-06	0.0911869	0.0397028	0.0994553	23.5283	29343.2	67393.6	73504.5	-66.4717	0.0000000E+000	0.0000000E+000	0.0000000E+000	66.4717	0.0000000E+000	0.0000000E+000	0.0000000E+000	-66.4717	0.0000000E+000	0.0000000E+000	0.0000000E+000	-23.5283	0.0000000E+000	0.0000000E+000	0.0000000E+000	23.5283	2.29674	66.4717	-7.01961e-07	-2.23267e-06	39423.2
146.737	10.2744	4.51302	11.2219	-23.7134	10.5424	0.296675	-0.00820045	240.332	38.8699	1	10	0.00474286	0.000422643	0	-9.74285e-06	0.0815877	0.0358372	0.0891115	23.7134	38869.9	88492	96652.5	-66.2866	0.0000000E+000	0.0000000E+000	0.0000000E+000	66.2866	0.0000000E+000	0.0000000E+000	0.0000000E+000	-66.2866	0.0000000E+000	0.0000000E+000	0.0000000E+000	-23.7134	0.0000000E+000	0.0000000E+000	0.0000000E+000	23.7134	2.27662	66.2866	-1.26303e-06	-2.43287e-06	36177.9
100.032	11.5148	4.95859	12.5371	-23.298	11.0107	0.296681	-0.00747705	320.865	50.1934	1	10	0.00474266	0.00037829	0	-1.10561e-05	0.0732595	0.0315475	0.0797634	23.298	50193.4	116559	126907	-66.702	0.0000000E+000	0.0000000E+000	0.0000000E+000	66.702	0.0000000E+000	0.0000000E+000	0.0000000E+000	-66.702	0.0000000E+000	0.0000000E+000	0.0000000E+000	-23.298	0.0000000E+000	0.0000000E+000	0.0000000E+000	23.298	2.32219	66.702	-1.31323e-06	-2.2183e-06	39678.9
68.104	12.9604	5.32257	14.0108	-22.3269	11.4893	0.296679	-0.00668652	439.062	63.3641	1	10	0.0047373	0.000338117	0	-1.21726e-05	0.0660227	0.0271141	0.0713735	22.3269	63364.1	154291	166796	-67.6731	0.0000000E+000	0.0000000E+000	0.0000000E+000	67.6731	0.0000000E+000	0.0000000E+000	0.0000000E+000	-67.6731	0.0000000E+000	0.0000000E+000	0.0000000E+000	-22.3269	0.0000000E+000	0.0000000E+000	0.0000000E+000	22.3269	2.43499	67.6731	-1.11657e-06	-1.98375e-06	44369.7
46.4415	14.4777	5.53337	15.4991	-20.9169	11.9445	0.296663	-0.00846334	619.332	78.9391	1	10	0.00473571	0.000305548	0	-1.3421e-05	0.0602681	0.0230345	0.06452	20.9169	78939	206538	221110	-69.0831	0.0000000E+000	0.0000000E+000	0.0000000E+000	69.0831	0.0000000E+000	0.0000000E+000	0.0000000E+000	-69.0831	0.0000000E+000	0.0000000E+000	0.0000000E+000	-20.9169	0.0000000E+000	0.0000000E+000	0.0000000E+000	20.9169	2.61643	69.0831	-1.24834e-06	-2.51076e-06	35052.8
31.6296	16.1144	5.49963	17.0271	-18.844	12.6354	0.296679	-0.0127994	914.942	95.4511	1	11	0.00473326	0.000277985	0	-1.58259e-05	0.0555822	0.0189694	0.05873	18.844	95451	279681	295520	-71.156	0.0000000E+000	0.0000000E+000	0.0000000E+000	71.156	0.0000000E+000	0.0000000E+000	0.0000000E+000	-71.156	0.0000000E+000	0.0000000E+000	0.0000000E+000	-18.844	0.0000000E+000	0.0000000E+000	0.0000000E+000	18.844	2.9301	71.156	-2.40491e-06	-3.7973e-06	23179.2
21.5517	17.6622	5.29502	18.4388	-16.6884	13.0744	0.296686	-0.0125536	1394.67	115.011	1	11	0.00473253	0.000256662	0	-1.80163e-05	0.0519492	0.0155741	0.0542335	16.6884	115011	383634	400503	-73.3116	0.0000000E+000	0.0000000E+000	0.0000000E+000	73.3116	0.0000000E+000	0.0000000E+000	0.0000000E+000	-73.3116	0.0000000E+000	0.0000000E+000	0.0000000E+000	-16.6884	0.0000000E+000	0.0000000E+000	0.0000000E+000	16.6884	3.33562	73.3116	-2.19038e-06	-3.72448e-06	23633.5
14.6852	19.0551	4.95808	19.6895	-14.5848	13.5531	0.296682	-0.0123623	2185.89	138.607	1	11	0.0047318	0.000240321	0	-1.93759e-05	0.0491518	0.0127892	0.0507884	14.5848	138607	532698	550435	-75.4152	0.0000000E+000	0.0000000E+000	0.0000000E+000	75.4152	0.0000000E+000	0.0000000E+000	0.0000000E+000	-75.4152	0.0000000E+000	0.0000000E+000	0.0000000E+000	-14.5848	0.0000000E+000	0.0000000E+000	0.0000000E+000	14.5848	3.84323	75.4152	-1.35964e-06	-3.66768e-06	23998.9
10.0032	20.2922	4.50581	20.7864	-12.5192	14.0217	0.296688	-0.0121775	3531.08	165.919	1	11	0.00473404	0.000227747	0	-1.92145e-05	0.0469645	0.0104283	0.0481084	12.5192	165919	747224	765423	-77.4808	0.0000000E+000	0.0000000E+000	0.0000000E+000	77.4808	0.0000000E+000	0.0000000E+000	0.0000000E+000	-77.4808	0.0000000E+000	0.0000000E+000	0.0000000E+000	-12.5192	0.0000000E+000	0.0000000E+000	0.0000000E+000	12.5192	4.50356	77.4808	1.61366e-07	-3.61294e-06	24363.5
6.81719	21.3911	4.05654	21.7723	-10.7379	14.3794	0.296668	-0.0138019	5755.18	199.784	1	11	0.00474419	0.0002179	0	-2.24537e-05	0.0451257	0.0085575	0.0459299	10.7379	199784	1.05351e+06	1.07229e+06	-79.2621	0.0000000E+000	0.0000000E+000	0.0000000E+000	79.2621	0.0000000E+000	0.0000000E+000	0.0000000E+000	-79.2621	0.0000000E+000	0.0000000E+000	0.0000000E+000	-10.7379	0.0000000E+000	0.0000000E+000	0.0000000E+000	10.7379	5.27323	79.2621	-3.23911e-06	-4.09459e-06	21494.7
4.63925	22.2595	3.58906	22.547	-9.1594	14.8813	0.296684	-0.0119799	9558.53	242.202	1	11	0.00473086	0.000209822	0	-2.10766e-05	0.0437864	0.00706	0.0443519	9.1594	242202	1.50214e+06	1.52154e+06	-80.8406	0.0000000E+000	0.0000000E+000	0.0000000E+000	80.8406	0.0000000E+000	0.0000000E+000	0.0000000E+000	-80.8406	0.0000000E+000	0.0000000E+000	0.0000000E+000	-9.1594	0.0000000E+000	0.0000000E+000	0.0000000E+000	9.1594	6.20203	80.8406	1.3771e-06	-3.55425e-06	24765.1
3.1604	23.0913	3.17641	23.3087	-7.83238	15.5902	0.296679	-0.0114261	15854.1	294.427	1	11	0.0047316	0.000202997	0	-2.46637e-05	0.0425021	0.00584654	0.0429024	7.83238	294427	2.14037e+06	2.16053e+06	-82.1676	0.0000000E+000	0.0000000E+000	0.0000000E+000	82.1676	0.0000000E+000	0.0000000E+000	0.0000000E+000	-82.1676	0.0000000E+000	0.0000000E+000	0.0000000E+000	-7.83238	0.0000000E+000	0.0000000E+000	0.0000000E+000	7.83238	7.26962	82.1676	-3.58718e-06	-3.3899e-06	25964.9
2.15577	23.765	2.74721	23.9233	-6.59406	16.6068	0.296699	-0.010102	26873.6	354.379	1	11	0.00473856	0.000198073	0	-3.15707e-05	0.0415237	0.00480009	0.0418002	6.59406	354379	3.06559e+06	3.08601e+06	-83.4059	0.0000000E+000	0.0000000E+000	0.0000000E+000	83.4059	0.0000000E+000	0.0000000E+000	0.0000000E+000	-83.4059	0.0000000E+000	0.0000000E+000	0.0000000E+000	-6.59406	0.0000000E+000	0.0000000E+000	0.0000000E+000	6.59406	8.65061	83.4059	-6.90697e-06	-2.99724e-06	29370.4
1.46631	24.3378	2.38581	24.4545	-5.59875	18.08	0.296713	-0.00926204	45494.4	433.025	1	11	0.00473559	0.000193649	0	-3.67049e-05	0.0406972	0.0039895	0.0408923	5.59875	433025	4.41732e+06	4.43849e+06	-84.4012	0.0000000E+000	0.0000000E+000	0.0000000E+000	84.4012	0.0000000E+000	0.0000000E+000	0.0000000E+000	-84.4012	0.0000000E+000	0.0000000E+000	0.0000000E+000	-5.59875	0.0000000E+000	0.0000000E+000	0.0000000E+000	5.59875	10.2011	84.4012	-5.13415e-06	-2.74816e-06	32035.4
1.00006	24.7893	2.1118	24.8791	-4.86926	21.2702	0.296704	-0.009465	75359.8	542.969	1	12	0.00473616	0.000190367	0	-3.95642e-05	0.0400493	0.00341179	0.0401944	4.86926	542969	6.37364e+06	6.39672e+06	-85.1307	0.0000000E+000	0.0000000E+000	0.0000000E+000	85.1307	0.0000000E+000	0.0000000E+000	0.0000000E+000	-85.1307	0.0000000E+000	0.0000000E+000	0.0000000E+000	-4.86926	0.0000000E+000	0.0000000E+000	0.0000000E+000	4.86926	11.7385	85.1307	-2.85935e-06	-2.8083e-06	31347.5
0.681362	25.1066	1.88036	25.1769	-4.28318	24.3901	0.296698	-0.00931737	124223	692.912	1	12	0.0047373	0.00018816	0	-3.88425e-05	0.039608	0.00296644	0.0397189	4.28318	692911	9.25177e+06	9.27768e+06	-85.7168	0.0000000E+000	0.0000000E+000	0.0000000E+000	85.7168	0.0000000E+000	0.0000000E+000	0.0000000E+000	-85.7168	0.0000000E+000	0.0000000E+000	0.0000000E+000	-4.28318	0.0000000E+000	0.0000000E+000	0.0000000E+000	4.28318	13.352	85.7168	7.21715e-07	-2.76444e-06	31843.5
0.464091	25.4387	1.77785	25.5008	-3.99776	28.9549	0.296703	-0.00789711	192895	937.575	1	12	0.00474001	0.000185877	0	-4.27581e-05	0.039119	0.00273394	0.0392145	3.99776	937575	1.34155e+07	1.34482e+07	-86.0022	0.0000000E+000	0.0000000E+000	0.0000000E+000	86.0022	0.0000000E+000	0.0000000E+000	0.0000000E+000	-86.0022	0.0000000E+000	0.0000000E+000	0.0000000E+000	-3.99776	0.0000000E+000	0.0000000E+000	0.0000000E+000	3.99776	14.3087	86.0022	-3.91561e-06	-2.3431e-06	37571.1
0.316193	25.7099	1.80021	25.7729	-4.00532	35.6372	0.296714	-0.00613036	279605	1364.16	1	12	0.00473181	0.000183596	0	-5.81761e-05	0.0387057	0.00271017	0.0388005	4.00532	1.36416e+06	1.94824e+07	1.95301e+07	-85.9947	0.0000000E+000	0.0000000E+000	0.0000000E+000	85.9947	0.0000000E+000	0.0000000E+000	0.0000000E+000	-85.9947	0.0000000E+000	0.0000000E+000	0.0000000E+000	-4.00532	0.0000000E+000	0.0000000E+000	0.0000000E+000	4.00532	14.2816	85.9947	-1.5418e-05	-1.81897e-06	48400.8
0.215268	25.9624	1.96271	26.0365	-4.32323	45.4349	0.29671	-0.00505459	376691	2140.59	1	12	0.00473696	0.000181936	0	-9.20451e-05	0.0382984	0.00289529	0.0384077	4.32323	2.14059e+06	2.83153e+07	2.83961e+07	-85.6768	0.0000000E+000	0.0000000E+000	0.0000000E+000	85.6768	0.0000000E+000	0.0000000E+000	0.0000000E+000	-85.6768	0.0000000E+000	0.0000000E+000	0.0000000E+000	-4.32323	0.0000000E+000	0.0000000E+000	0.0000000E+000	4.32323	13.2278	85.6768	-3.3869e-05	-1.49975e-06	58701.1
0.146929	26.248	2.25045	26.3443	-4.90044	59.7715	0.296704	-0.00459615	481331	3512.44	1	12	0.00473856	0.00017987	0	-0.000146198	0.0378201	0.00324262	0.0379589	4.90044	3.51245e+06	4.09672e+07	4.11175e+07	-85.0996	0.0000000E+000	0.0000000E+000	0.0000000E+000	85.0996	0.0000000E+000	0.0000000E+000	0.0000000E+000	-85.0996	0.0000000E+000	0.0000000E+000	0.0000000E+000	-4.90044	0.0000000E+000	0.0000000E+000	0.0000000E+000	4.90044	11.6634	85.0996	-5.41533e-05	-1.36369e-06	64554.9
0.0999041	26.64	2.74424	26.781	-5.8814	80.8414	0.296718	-0.00409341	580518	6095.45	1	12	0.004732	0.000176692	0	-0.000209624	0.0371434	0.00382621	0.0373399	5.8814	6.09545e+06	5.91723e+07	5.94854e+07	-84.1186	0.0000000E+000	0.0000000E+000	0.0000000E+000	84.1186	0.0000000E+000	0.0000000E+000	0.0000000E+000	-84.1186	0.0000000E+000	0.0000000E+000	0.0000000E+000	-5.8814	0.0000000E+000	0.0000000E+000	0.0000000E+000	5.8814	9.70762	84.1186	-6.34255e-05	-1.21459e-06	72486.8
0.0680626	27.1538	3.48047	27.3759	-7.30413	111.753	0.29671	-0.00444941	671852	10859.5	1	12	0.00473929	0.000173119	0	-0.000267902	0.036232	0.00464408	0.0365284	7.30413	1.08595e+07	8.47235e+07	8.54166e+07	-82.6959	0.0000000E+000	0.0000000E+000	0.0000000E+000	82.6959	0.0000000E+000	0.0000000E+000	0.0000000E+000	-82.6959	0.0000000E+000	0.0000000E+000	0.0000000E+000	-7.30413	0.0000000E+000	0.0000000E+000	0.0000000E+000	7.30413	7.80176	82.6959	-5.82776e-05	-1.32018e-06	66685.3
0.0464052	27.7128	4.50399	28.0765	-9.23121	157.078	0.296713	-0.00403047	761475	19596	1	12	0.00473618	0.000168689	0	-0.000281042	0.0351558	0.00571364	0.035617	9.23121	1.9596e+07	1.20573e+08	1.22155e+08	-80.7688	0.0000000E+000	0.0000000E+000	0.0000000E+000	80.7688	0.0000000E+000	0.0000000E+000	0.0000000E+000	-80.7688	0.0000000E+000	0.0000000E+000	0.0000000E+000	-9.23121	0.0000000E+000	0.0000000E+000	0.0000000E+000	9.23121	6.15295	80.7688	-1.31402e-05	-1.19589e-06	73617.3
0.0315922	28.3495	5.72609	28.922	-11.4191	223.638	0.296716	-0.00282402	879796	34486	1	12	0.00473626	0.00016376	0	-0.000208356	0.0338914	0.00684546	0.0345758	11.4191	3.4486e+07	1.70738e+08	1.74186e+08	-78.5809	0.0000000E+000	0.0000000E+000	0.0000000E+000	78.5809	0.0000000E+000	0.0000000E+000	0.0000000E+000	-78.5809	0.0000000E+000	0.0000000E+000	0.0000000E+000	-11.4191	0.0000000E+000	0.0000000E+000	0.0000000E+000	11.4191	4.95093	78.5809	7.26853e-05	-8.37932e-07	105069
0.0215268	29.2679	7.25451	30.1536	-13.9211	321.307	0.296714	-0.00139558	1.01914e+06	58989	1	12	0.00473618	0.000157068	0	-5.04348e-05	0.0321895	0.00797866	0.0331635	13.9211	5.8989e+07	2.37988e+08	2.4519e+08	-76.0789	0.0000000E+000	0.0000000E+000	0.0000000E+000	76.0789	0.0000000E+000	0.0000000E+000	0.0000000E+000	-76.0789	0.0000000E+000	0.0000000E+000	0.0000000E+000	-13.9211	0.0000000E+000	0.0000000E+000	0.0000000E+000	13.9211	4.03445	76.0789	0.000157922	-4.14089e-07	212610
0.0146812	30.5559	9.48808	31.9951	-17.2504	464.501	0.296709	-0.00037871	1.14257e+06	100478	1	12	0.0047356	0.00014801	0	0.000113709	0.0298488	0.00926851	0.0312547	17.2504	1.00478e+08	3.23584e+08	3.38825e+08	-72.7496	0.0000000E+000	0.0000000E+000	0.0000000E+000	72.7496	0.0000000E+000	0.0000000E+000	0.0000000E+000	-72.7496	0.0000000E+000	0.0000000E+000	0.0000000E+000	-17.2504	0.0000000E+000	0.0000000E+000	0.0000000E+000	17.2504	3.22046	72.7496	0.000164144	-1.12367e-07	783472
0.0100092	31.9841	12.7243	34.4222	-21.6943	674.521	0.296706	0.00015982	1.24965e+06	170757	1	12	0.00473692	0.000137612	0	0.000114334	0.0269933	0.0107388	0.029051	21.6943	1.70757e+08	4.29218e+08	4.61937e+08	-68.3057	0.0000000E+000	0.0000000E+000	0.0000000E+000	68.3057	0.0000000E+000	0.0000000E+000	0.0000000E+000	-68.3057	0.0000000E+000	0.0000000E+000	0.0000000E+000	-21.6943	0.0000000E+000	0.0000000E+000	0.0000000E+000	21.6943	2.51362	68.3057	6.24772e-07	4.74196e-08	1.8565e+06