File: txt/17227_R278_UC79_50SOC_C06.mpt
EC-Lab ASCII FILE
Nb header lines : 64

Potentio Electrochemical Impedance Spectroscopy

Run on channel : 6 (SN 65795)
User :
CE vs. WE compliance from -10 V to 10 V
Electrode connection : standard
Potential control : Ewe
Ewe ctrl range : min = -10.00 V, max = 10.00 V
Safety Limits :
	Do not start on E overload
Acquisition started on : 09/02/2025 16:42:06.820
Loaded Setting File :  C:\Users\Celltest\OneDrive - store-dot.com\Documents\EC-Lab\Data\Michael\R278\UC74_NCMA_16706_EIS_50_SOC.mps
Saved on :
	File : UC79_17227_EIS_50SOC_C06.mpr
	Directory : C:\Users\Celltest\OneDrive - store-dot.com\Documents\EC-Lab\Data\Michael\R278\
	Host : 169.254.61.224
Device : VMP-3e (SN .003165)
Address : USB
EC-LAB for windows v11.62 (software)
Internet server v27.00 (firmware)
Command interpretor v12.03 (firmware)
Electrode material :
Initial state :
Electrolyte :
Comments :
Electrode surface area : 0.001 cm²
Characteristic mass : 0.001 g
Equivalent Weight : 0.000 g/eq.
Density : 0.000 g/cm3
Volume (V) : 0.001 cm³
Record Ece
Cycle Definition : Charge/Discharge alternance
Mode                Multi sine
E (V)               0.0000
vs.                 Eoc
tE (h:m:s)          0:00:0.0000
record              0
dI                  0.000
unit dI             mA
dt (s)              0.000
fi                  1.000
unit fi             MHz
ff                  0.100
unit ff             mHz
Nd                  10
Points              per decade
spacing             Logarithmic
Va (mV)             5.0
pw                  0.10
Na                  2
corr                0
E range min (V)     -10.000
E range max (V)     10.000
I Range             Auto
Bandwidth           5
nc cycles           0
goto Ns'            0
nr cycles           0
inc. cycle          0

freq/Hz	Re(Z)/Ohm	-Im(Z)/Ohm	|Z|/Ohm	Phase(Z)/deg	time/s	<Ewe>/V	<I>/mA	Cs/µF	Cp/µF	cycle number	I Range	|Ewe|/V	|I|/A	Ns	(Q-Qo)/mA.h	<Ece>/V	|Ece|/V	Phase(Zce)/deg	|Zce|/Ohm	Re(Zce)/Ohm	-Im(Zce)/Ohm	Phase(Zwe-ce)/deg	|Zwe-ce|/Ohm	Re(Zwe-ce)/Ohm	-Im(Zwe-ce)/Ohm	Re(Y)/Ohm-1	Im(Y)/Ohm-1	|Y|/Ohm-1	Phase(Y)/deg	Re(C)/nF	Im(C)/nF	|C|/nF	Phase(C)/deg	Re(M)	Im(M)	|M|	Phase(M)/deg	Re(Permittivity)	Im(Permittivity)	|Permittivity|	Phase(Permittivity)/deg	Re(Resistivity)/Ohm.cm	Im(Resistivity)/Ohm.cm	|Resistivity|/Ohm.cm	Phase(Resistivity)/deg	Re(Conductivity)/mS/cm	Im(Conductivity)/mS/cm	|Conductivity|/mS/cm	Phase(Conductivity)/deg	Tan(Delta)	Loss Angle(Delta)/deg	dq/mA.h	Pwe/W	Pce/W	Pwe-ce/W	<Ewe-Ece>/V	Rwe/Ohm	Rce/Ohm	Rwe-ce/Ohm		Ewe-Ece/V
1.00002e+06	2.61664	2.75261	3.79785	-46.4506	2.23454	3.78485	-0.0022888	0.0578185	0.0303725	1	10	0.000189936	5.00115e-05	0	-1.9946e-05	0.000183937	0.000202872	-62.3146	4.05652	1.88472	3.59209	-54.6455	7.7793	4.50137	6.34471	0.181413	0.19084	0.263307	46.4506	30.3725	28.8722	41.9058	-43.5494	0.0000000E+000	0.0000000E+000	0.0000000E+000	43.5494	0.0000000E+000	0.0000000E+000	0.0000000E+000	-43.5494	0.0000000E+000	0.0000000E+000	0.0000000E+000	-46.4506	0.0000000E+000	0.0000000E+000	0.0000000E+000	46.4506	0.950603	43.5494	-1.9946e-05	-8.66275e-06	-4.20995e-10	-8.66232e-06	3.78467	1.65364e+06	80.3642	1.65356e+06
630957	0.355624	-0.0615122	0.360904	9.81335	3.1776	3.78463	0.0358648	-4.10071	-0.119124	1	9	9.18287e-05	0.00025444	0	-1.82072e-05	5.0251e-05	0.000103037	-79.486	0.404954	0.0738941	0.398155	-38.0882	0.545723	0.429518	0.336643	2.73027	-0.472255	2.77082	-9.81335	-119.124	688.695	698.921	-99.8134	0.0000000E+000	0.0000000E+000	0.0000000E+000	99.8134	0.0000000E+000	0.0000000E+000	0.0000000E+000	-99.8134	0.0000000E+000	0.0000000E+000	0.0000000E+000	9.81335	0.0000000E+000	0.0000000E+000	0.0000000E+000	-9.81335	5.78135	80.1866	1.30221e-06	0.000135735	1.80224e-09	0.000135733	3.78458	105525	1.40112	105524
398103	0.654235	-0.00178365	0.654238	0.156206	4.17955	3.78475	0.0551603	-224.137	-0.00166596	1	9	0.00045197	0.000690835	0	-4.53275e-06	0.000203035	3.54033e-05	122.223	0.0512472	-0.0273255	-0.0433543	4.11823	0.628533	0.62691	-0.0451379	1.52849	-0.00416716	1.5285	-0.156206	-1.66594	611.064	611.067	-90.1562	0.0000000E+000	0.0000000E+000	0.0000000E+000	90.1562	0.0000000E+000	0.0000000E+000	0.0000000E+000	-90.1562	0.0000000E+000	0.0000000E+000	0.0000000E+000	0.156206	0.0000000E+000	0.0000000E+000	0.0000000E+000	-0.156206	366.795	89.8438	6.9255e-06	0.000208768	1.11995e-08	0.000208757	3.78454	68613.6	3.68082	68609.9
251206	0.76221	0.235203	0.797674	-17.1492	4.94656	3.78463	0.0376529	2.69368	0.234197	1	9	0.00150807	0.00189059	0	2.06055e-06	0.000183937	8.15281e-05	66.7409	0.0431232	0.0170289	-0.0396185	-14.0899	0.803409	0.779239	0.195585	1.19791	0.369651	1.25364	17.1492	234.197	758.95	794.263	-72.8508	0.0000000E+000	0.0000000E+000	0.0000000E+000	72.8508	0.0000000E+000	0.0000000E+000	0.0000000E+000	-72.8508	0.0000000E+000	0.0000000E+000	0.0000000E+000	-17.1492	0.0000000E+000	0.0000000E+000	0.0000000E+000	17.1492	3.24064	72.8508	2.03955e-06	0.000142502	6.92576e-09	0.000142495	3.78444	100514	4.88508	100509
158486	0.882763	0.392318	0.966014	-23.9613	5.59054	3.78459	0.0329595	2.55971	0.422182	1	9	0.00459963	0.00476145	0	6.81491e-06	-0.000178925	8.84116e-05	67.4856	0.0185682	0.00711006	-0.017153	-22.86	0.965724	0.889873	0.375165	0.945969	0.420408	1.03518	23.9613	422.182	949.961	1039.55	-66.0387	0.0000000E+000	0.0000000E+000	0.0000000E+000	66.0387	0.0000000E+000	0.0000000E+000	0.0000000E+000	-66.0387	0.0000000E+000	0.0000000E+000	0.0000000E+000	-23.9613	0.0000000E+000	0.0000000E+000	0.0000000E+000	23.9613	2.25012	66.0387	-1.45072e-06	0.000124738	-5.89729e-09	0.000124744	3.78477	114826	5.42865	114831
100004	1.0445	0.489908	1.15368	-25.1283	6.35653	3.78454	0.0284895	3.24855	0.585796	1	9	0.00531228	0.00460463	0	1.06117e-05	-0.000140729	4.58975e-05	66.9744	0.00996768	0.00389879	-0.00917356	-24.6335	1.15336	1.04839	0.480734	0.784757	0.36808	0.866791	25.1283	585.796	1248.93	1379.49	-64.8717	0.0000000E+000	0.0000000E+000	0.0000000E+000	64.8717	0.0000000E+000	0.0000000E+000	0.0000000E+000	-64.8717	0.0000000E+000	0.0000000E+000	0.0000000E+000	-25.1283	0.0000000E+000	0.0000000E+000	0.0000000E+000	25.1283	2.13203	64.8717	1.18348e-05	0.00010782	-4.00931e-09	0.000107824	3.78468	132840	4.9397	132845
63093.8	1.23902	0.543754	1.35308	-23.6947	7.12256	3.78453	0.0230509	4.63907	0.749179	1	9	0.00539029	0.0039837	0	2.7763e-06	0.000260329	3.48438e-05	31.4282	0.00874659	0.00746341	-0.00456073	-23.3919	1.35811	1.24648	0.539193	0.67675	0.296997	0.739052	23.6947	749.179	1707.11	1864.27	-66.3053	0.0000000E+000	0.0000000E+000	0.0000000E+000	66.3053	0.0000000E+000	0.0000000E+000	0.0000000E+000	-66.3053	0.0000000E+000	0.0000000E+000	0.0000000E+000	-23.6947	0.0000000E+000	0.0000000E+000	0.0000000E+000	23.6947	2.27864	66.3053	-5.48062e-06	8.72369e-05	6.00084e-09	8.72309e-05	3.78427	164181	11.2937	164170
39814.1	1.43049	0.54494	1.53077	-20.8542	7.88854	3.78452	0.0278934	7.33558	0.929634	1	9	0.00532613	0.00347938	0	4.93109e-06	0.000126643	1.26716e-05	52.8215	0.00364192	0.00220081	-0.00290173	-20.7234	1.5318	1.43269	0.542039	0.61047	0.232556	0.653266	20.8542	929.634	2440.33	2611.4	-69.1458	0.0000000E+000	0.0000000E+000	0.0000000E+000	69.1458	0.0000000E+000	0.0000000E+000	0.0000000E+000	-69.1458	0.0000000E+000	0.0000000E+000	0.0000000E+000	-20.8542	0.0000000E+000	0.0000000E+000	0.0000000E+000	20.8542	2.62504	69.1458	-1.05403e-06	0.000105563	3.53251e-09	0.00010556	3.7844	135678	4.54025	135674
25116.9	1.60339	0.52272	1.68644	-18.0565	8.65452	3.7845	0.0281914	12.1223	1.16461	1	9	0.00528468	0.00313363	0	1.04647e-05	6.9349e-05	9.83694e-06	3.40275	0.00313915	0.00313362	-0.000186322	-18.0176	1.68936	1.60652	0.522534	0.563762	0.183792	0.592965	18.0565	1164.61	3572.32	3757.36	-71.9435	0.0000000E+000	0.0000000E+000	0.0000000E+000	71.9435	0.0000000E+000	0.0000000E+000	0.0000000E+000	-71.9435	0.0000000E+000	0.0000000E+000	0.0000000E+000	-18.0565	0.0000000E+000	0.0000000E+000	0.0000000E+000	18.0565	3.06739	71.9435	4.39807e-06	0.000106691	1.95505e-09	0.000106689	3.78444	134243	2.45993	134241
15847.7	1.74451	0.499439	1.8146	-15.976	9.42253	3.7845	0.0239077	20.1081	1.52327	1	9	0.0052651	0.00290152	0	1.49243e-05	-8.34353e-05	5.56588e-06	-26.3169	0.00191826	0.00171944	0.000850432	-15.9868	1.81649	1.74623	0.50029	0.529802	0.151678	0.551086	15.976	1523.27	5320.69	5534.44	-74.024	0.0000000E+000	0.0000000E+000	0.0000000E+000	74.024	0.0000000E+000	0.0000000E+000	0.0000000E+000	-74.024	0.0000000E+000	0.0000000E+000	0.0000000E+000	-15.976	0.0000000E+000	0.0000000E+000	0.0000000E+000	15.976	3.49294	74.024	3.56837e-06	9.04786e-05	-1.99474e-09	9.04806e-05	3.78459	158297	3.4899	158300
10002.2	1.87259	0.488971	1.93538	-14.6343	10.1886	3.78449	0.0250251	32.5417	2.07719	1	9	0.00524011	0.00270754	0	2.10991e-05	0.000203035	5.96349e-06	91.4917	0.00220255	-5.73369e-05	-0.0022018	-14.5717	1.93477	1.87253	0.48677	0.499932	0.130543	0.516695	14.6343	2077.19	7954.9	8221.63	-75.3657	0.0000000E+000	0.0000000E+000	0.0000000E+000	75.3657	0.0000000E+000	0.0000000E+000	0.0000000E+000	-75.3657	0.0000000E+000	0.0000000E+000	0.0000000E+000	-14.6343	0.0000000E+000	0.0000000E+000	0.0000000E+000	14.6343	3.82965	75.3657	3.57485e-06	9.47075e-05	5.08099e-09	9.47024e-05	3.78429	151228	8.11325	151220
6309.38	1.99164	0.505804	2.05487	-14.2498	10.9566	3.78449	0.0298304	49.8713	3.02168	1	9	0.00515748	0.00250989	0	2.23809e-05	0.000279427	5.06719e-06	3.16186	0.00201889	0.00201582	-0.000111356	-14.2329	2.05679	1.99366	0.505693	0.471676	0.119789	0.48665	14.2498	3021.68	11898.1	12275.8	-75.7502	0.0000000E+000	0.0000000E+000	0.0000000E+000	75.7502	0.0000000E+000	0.0000000E+000	0.0000000E+000	-75.7502	0.0000000E+000	0.0000000E+000	0.0000000E+000	-14.2498	0.0000000E+000	0.0000000E+000	0.0000000E+000	14.2498	3.93757	75.7502	2.37536e-06	0.000112893	8.33543e-09	0.000112885	3.78421	126867	9.36721	126858
3983.6	2.11422	0.545622	2.18349	-14.4707	11.7901	3.78449	0.0313204	73.2238	4.57228	1	9	0.00517237	0.00236885	0	2.72073e-05	-2.61412e-05	8.36415e-06	-63.5026	0.00353089	0.00157533	0.00315999	-14.5406	2.18581	2.1158	0.548782	0.443453	0.114443	0.457982	14.4707	4572.28	17717.1	18297.5	-75.5293	0.0000000E+000	0.0000000E+000	0.0000000E+000	75.5293	0.0000000E+000	0.0000000E+000	0.0000000E+000	-75.5293	0.0000000E+000	0.0000000E+000	0.0000000E+000	-14.4707	0.0000000E+000	0.0000000E+000	0.0000000E+000	14.4707	3.87488	75.5293	6.95127e-07	0.000118532	-8.18751e-10	0.000118533	3.78452	120832	0.834638	120833
2510.8	2.23962	0.616363	2.32288	-15.3874	12.7918	3.78451	0.0321026	102.842	7.24084	1	9	0.00544659	0.00234475	0	3.26971e-05	0.000203035	5.11785e-06	5.29375	0.00218268	0.00217337	-0.000201378	-15.3684	2.32493	2.24179	0.616162	0.415068	0.11423	0.430499	15.3874	7240.84	26310.3	27288.5	-74.6126	0.0000000E+000	0.0000000E+000	0.0000000E+000	74.6126	0.0000000E+000	0.0000000E+000	0.0000000E+000	-74.6126	0.0000000E+000	0.0000000E+000	0.0000000E+000	-15.3874	0.0000000E+000	0.0000000E+000	0.0000000E+000	15.3874	3.6336	74.6126	3.19927e-06	0.000121493	6.51796e-09	0.000121486	3.7843	117888	6.32457	117881
1585.51	2.40309	0.734798	2.51292	-17.0022	13.9078	3.7845	0.0252114	136.61	11.6805	1	9	0.0052396	0.00208506	0	3.60003e-05	-4.52392e-05	1.25125e-05	-38.5016	0.00600103	0.00469635	0.00373586	-17.0522	2.51851	2.40779	0.738534	0.380551	0.116362	0.397943	17.0022	11680.5	38200.1	39946	-72.9978	0.0000000E+000	0.0000000E+000	0.0000000E+000	72.9978	0.0000000E+000	0.0000000E+000	0.0000000E+000	-72.9978	0.0000000E+000	0.0000000E+000	0.0000000E+000	-17.0022	0.0000000E+000	0.0000000E+000	0.0000000E+000	17.0022	3.27041	72.9978	5.54853e-06	9.54124e-05	-1.14054e-09	9.54136e-05	3.78455	150111	1.7944	150113
1000.32	2.61044	0.888647	2.75755	-18.7996	14.8098	3.78449	0.0283404	179.041	18.5936	1	9	0.00529135	0.00191886	0	4.48827e-05	-8.34353e-05	1.18906e-05	-112.387	0.0061967	-0.00236007	0.00572967	-18.9281	2.75717	2.60808	0.894377	0.343294	0.116864	0.36264	18.7996	18593.6	54619.5	57697.5	-71.2004	0.0000000E+000	0.0000000E+000	0.0000000E+000	71.2004	0.0000000E+000	0.0000000E+000	0.0000000E+000	-71.2004	0.0000000E+000	0.0000000E+000	0.0000000E+000	-18.7996	0.0000000E+000	0.0000000E+000	0.0000000E+000	18.7996	2.93754	71.2004	4.42263e-06	0.000107254	-2.36459e-09	0.000107256	3.78457	133537	2.94404	133540
631.01	2.91015	1.06949	3.10045	-20.1786	15.9565	3.78449	-0.0423455	235.834	28.0615	1	10	0.00526735	0.0016989	0	4.30268e-05	0.000203035	1.10174e-05	-93.5628	0.00648506	-0.000402999	0.00647252	-20.2933	3.10231	2.90975	1.07596	0.302737	0.111257	0.322534	20.1786	28061.5	76357.2	81350.3	-69.8214	0.0000000E+000	0.0000000E+000	0.0000000E+000	69.8214	0.0000000E+000	0.0000000E+000	0.0000000E+000	-69.8214	0.0000000E+000	0.0000000E+000	0.0000000E+000	-20.1786	0.0000000E+000	0.0000000E+000	0.0000000E+000	20.1786	2.72106	69.8214	-4.44942e-06	-0.000160256	-8.59763e-09	-0.000160248	3.78429	89371.8	4.79473	89367
398.089	3.29994	1.23677	3.52409	-20.5453	16.8578	3.78449	-0.0413654	323.258	39.814	1	10	0.00517521	0.00146852	0	3.29498e-05	0.0005468	8.0049e-06	-11.3236	0.00545099	0.00534489	0.0010703	-20.5311	3.52947	3.30529	1.23784	0.265712	0.0995854	0.283761	20.5453	39814	106231	113447	-69.4547	0.0000000E+000	0.0000000E+000	0.0000000E+000	69.4547	0.0000000E+000	0.0000000E+000	0.0000000E+000	-69.4547	0.0000000E+000	0.0000000E+000	0.0000000E+000	-20.5453	0.0000000E+000	0.0000000E+000	0.0000000E+000	20.5453	2.66818	69.4547	-6.04835e-06	-0.000156547	-2.26186e-08	-0.000156525	3.78395	91489.2	13.2188	91476
251.044	3.80761	1.27956	4.01686	-18.575	17.7561	3.78449	-0.0411679	495.462	50.2754	1	10	0.00513081	0.00127732	0	2.27592e-05	0.00035582	1.07527e-05	107.171	0.00841818	-0.00248524	-0.00804297	-18.4775	4.01195	3.80513	1.27151	0.235982	0.0793023	0.248951	18.575	50275.4	149606	157828	-71.425	0.0000000E+000	0.0000000E+000	0.0000000E+000	71.425	0.0000000E+000	0.0000000E+000	0.0000000E+000	-71.425	0.0000000E+000	0.0000000E+000	0.0000000E+000	-18.575	0.0000000E+000	0.0000000E+000	0.0000000E+000	18.575	2.97573	71.425	-5.82958e-06	-0.0001558	-1.46484e-08	-0.000155785	3.78413	91928.1	8.64312	91919.4
158.428	4.2923	1.19329	4.45509	-15.5363	18.6608	3.78448	-0.0405456	841.865	60.3976	1	10	0.00508943	0.00114239	0	1.11143e-05	0.000317623	1.1009e-05	32.4329	0.00963684	0.00813369	-0.00516835	-15.4443	4.46154	4.30044	1.18812	0.216261	0.0601219	0.224463	15.5363	60397.6	217253	225492	-74.4637	0.0000000E+000	0.0000000E+000	0.0000000E+000	74.4637	0.0000000E+000	0.0000000E+000	0.0000000E+000	-74.4637	0.0000000E+000	0.0000000E+000	0.0000000E+000	-15.5363	0.0000000E+000	0.0000000E+000	0.0000000E+000	15.5363	3.59704	74.4637	-5.7006e-06	-0.000153444	-1.28782e-08	-0.000153431	3.78416	93338.9	7.83373	93331.1
100.032	4.68972	0.999259	4.795	-12.0284	19.5598	3.78449	-0.0407804	1592.22	69.1484	1	10	0.00507495	0.00105838	0	1.5239e-06	1.20549e-05	7.35656e-06	23.3922	0.00695074	0.00637945	-0.0027596	-11.9803	4.80066	4.6961	0.996499	0.203972	0.0434612	0.208551	12.0284	69148.5	324527	331812	-77.9716	0.0000000E+000	0.0000000E+000	0.0000000E+000	77.9716	0.0000000E+000	0.0000000E+000	0.0000000E+000	-77.9716	0.0000000E+000	0.0000000E+000	0.0000000E+000	-12.0284	0.0000000E+000	0.0000000E+000	0.0000000E+000	12.0284	4.6932	77.9716	-3.83395e-06	-0.000154333	-4.91603e-10	-0.000154333	3.78448	92801.8	0.295605	92801.5
63.0823	4.96273	0.768252	5.02184	-8.79979	20.476	3.78449	-0.0390811	3284.04	76.8583	1	10	0.00506849	0.00100929	0	-9.08677e-06	0.000241231	4.4593e-06	-51.7171	0.00441825	0.0027373	0.00346816	-8.83409	5.02508	4.96547	0.77172	0.196786	0.0304634	0.19913	8.79979	76858.3	496486	502400	-81.2002	0.0000000E+000	0.0000000E+000	0.0000000E+000	81.2002	0.0000000E+000	0.0000000E+000	0.0000000E+000	-81.2002	0.0000000E+000	0.0000000E+000	0.0000000E+000	-8.79979	0.0000000E+000	0.0000000E+000	0.0000000E+000	8.79979	6.45976	81.2002	-4.6926e-06	-0.000147902	-9.42758e-09	-0.000147893	3.78425	96836.9	6.17259	96830.7
39.8089	5.12452	0.559227	5.15495	-6.22791	21.3769	3.78449	-0.0390364	7149.1	84.1356	1	10	0.00506305	0.000982173	0	-2.02039e-05	8.84471e-05	6.51042e-06	-42.9219	0.00662859	0.004854	0.00451407	-6.27189	5.16026	5.12938	0.563741	0.192844	0.0210446	0.193988	6.22791	84135.6	770983	775560	-83.7721	0.0000000E+000	0.0000000E+000	0.0000000E+000	83.7721	0.0000000E+000	0.0000000E+000	0.0000000E+000	-83.7721	0.0000000E+000	0.0000000E+000	0.0000000E+000	-6.22791	0.0000000E+000	0.0000000E+000	0.0000000E+000	6.22791	9.16358	83.7721	-5.69032e-06	-0.000147733	-3.45265e-09	-0.000147729	3.7844	96947.7	2.26576	96945.5
25.1044	5.22059	0.412596	5.23687	-4.51883	22.2561	3.78448	-0.0403779	15365.4	95.3787	1	10	0.0050607	0.000966359	0	-3.0901e-05	0.000241231	6.34578e-06	-67.7013	0.00656669	0.00249163	0.00607563	-4.58291	5.23983	5.22308	0.418672	0.19036	0.0150446	0.190954	4.51883	95378.6	1.20683e+06	1.21059e+06	-85.4812	0.0000000E+000	0.0000000E+000	0.0000000E+000	85.4812	0.0000000E+000	0.0000000E+000	0.0000000E+000	-85.4812	0.0000000E+000	0.0000000E+000	0.0000000E+000	-4.51883	0.0000000E+000	0.0000000E+000	0.0000000E+000	4.51883	12.653	85.4812	-3.91049e-06	-0.000152809	-9.74042e-09	-0.0001528	3.78424	93726.5	5.97434	93720.5
15.8576	5.27264	0.303882	5.28138	-3.29852	23.1341	3.78449	-0.0394947	33027.7	109.343	1	10	0.00505406	0.000956958	0	-4.59286e-05	0.000164839	5.39168e-06	0.383754	0.00563419	0.00563406	-3.77362e-05	-3.2946	5.28701	5.27827	0.303844	0.189031	0.0108945	0.189344	3.29852	109343	1.89721e+06	1.90036e+06	-86.7015	0.0000000E+000	0.0000000E+000	0.0000000E+000	86.7015	0.0000000E+000	0.0000000E+000	0.0000000E+000	-86.7015	0.0000000E+000	0.0000000E+000	0.0000000E+000	-3.29852	0.0000000E+000	0.0000000E+000	0.0000000E+000	3.29852	17.351	86.7015	-8.86465e-06	-0.000149467	-6.51028e-09	-0.000149461	3.78433	95822.7	4.1737	95818.5
10.0032	5.3202	0.237609	5.3255	-2.55723	24.1158	3.78451	-0.036234	66960.5	133.298	1	10	0.00506173	0.00095047	0	-5.02869e-05	0.000241231	1.18328e-05	34.2142	0.0124494	0.010295	-0.00700017	-2.4772	5.33548	5.33049	0.230609	0.187589	0.00837803	0.187776	2.55723	133298	2.98461e+06	2.98759e+06	-87.4428	0.0000000E+000	0.0000000E+000	0.0000000E+000	87.4428	0.0000000E+000	0.0000000E+000	0.0000000E+000	-87.4428	0.0000000E+000	0.0000000E+000	0.0000000E+000	-2.55723	0.0000000E+000	0.0000000E+000	0.0000000E+000	2.55723	22.3906	87.4428	2.3924e-06	-0.000137128	-8.74077e-09	-0.000137119	3.78426	104446	6.6576	104440
6.31058	5.35309	0.190909	5.3565	-2.04249	25.0403	3.78449	-0.0403518	132107	167.809	1	10	0.00505818	0.000944306	0	-6.52939e-05	0.000107545	6.1498e-06	-38.2639	0.00651251	0.0051134	0.0040331	-2.08361	5.36175	5.35821	0.194942	0.186571	0.00665371	0.186689	2.04249	167809	4.70537e+06	4.70836e+06	-87.9575	0.0000000E+000	0.0000000E+000	0.0000000E+000	87.9575	0.0000000E+000	0.0000000E+000	0.0000000E+000	-87.9575	0.0000000E+000	0.0000000E+000	0.0000000E+000	-2.04249	0.0000000E+000	0.0000000E+000	0.0000000E+000	2.04249	28.0401	87.9575	-1.68585e-06	-0.000152711	-4.33964e-09	-0.000152707	3.78439	93787.4	2.66518	93784.7
3.97785	5.38782	0.177995	5.39076	-1.89217	26.0474	3.78451	-0.033413	224783	245.064	1	10	0.00506085	0.000938801	0	-7.19616e-05	-4.52392e-05	8.10567e-06	79.0941	0.00863407	0.00163353	-0.00847813	-1.80156	5.39212	5.38945	0.169517	0.185401	0.00612504	0.185503	1.89217	245065	7.41796e+06	7.42201e+06	-88.1078	0.0000000E+000	0.0000000E+000	0.0000000E+000	88.1078	0.0000000E+000	0.0000000E+000	0.0000000E+000	-88.1078	0.0000000E+000	0.0000000E+000	0.0000000E+000	-1.89217	0.0000000E+000	0.0000000E+000	0.0000000E+000	1.89217	30.2694	88.1078	-1.08819e-05	-0.000126452	1.51158e-09	-0.000126453	3.78456	113265	1.35394	113266
2.51367	5.41441	0.175385	5.41725	-1.85529	27.607	3.78451	-0.0343906	361010	378.395	1	10	0.00505296	0.000932754	0	-0.000100369	0.000126643	5.77233e-06	150.83	0.00618848	-0.00540366	-0.00301625	-1.82522	5.41175	5.409	0.172368	0.184499	0.00597632	0.184596	1.85529	378394	1.16817e+07	1.16878e+07	-88.1447	0.0000000E+000	0.0000000E+000	0.0000000E+000	88.1447	0.0000000E+000	0.0000000E+000	0.0000000E+000	-88.1447	0.0000000E+000	0.0000000E+000	0.0000000E+000	-1.85529	0.0000000E+000	0.0000000E+000	0.0000000E+000	1.85529	30.8716	88.1447	-9.10657e-06	-0.000130151	-4.35533e-09	-0.000130147	3.78438	110045	3.6825	110041
1.58469	5.45622	0.188447	5.45947	-1.9781	30.5874	3.78451	-0.0390081	532950	634.989	1	11	0.00505844	0.000926545	0	-0.000102981	0.000279427	2.26827e-06	31.5861	0.0024481	0.00208542	-0.00128226	-1.9639	5.46151	5.4583	0.187165	0.183059	0.0063225	0.183168	1.9781	634990	1.83852e+07	1.83961e+07	-88.0219	0.0000000E+000	0.0000000E+000	0.0000000E+000	88.0219	0.0000000E+000	0.0000000E+000	0.0000000E+000	-88.0219	0.0000000E+000	0.0000000E+000	0.0000000E+000	-1.9781	0.0000000E+000	0.0000000E+000	0.0000000E+000	1.9781	28.9535	88.0219	-3.41096e-06	-0.000147627	-1.08999e-08	-0.000147616	3.78423	97018.4	7.16331	97011.3
1.00469	5.48559	0.213787	5.48976	-2.23183	241.405	3.7845	-0.0328768	740978	1123.73	1	11	0.00500579	0.000911842	0	-0.0055542	5.0251e-05	7.56745e-07	0.193315	0.000829908	0.000829904	-2.80009e-06	-2.23146	5.49059	5.48642	0.213784	0.182019	0.00709373	0.182157	2.23183	1.12373e+06	2.88339e+07	2.88558e+07	-87.7682	0.0000000E+000	0.0000000E+000	0.0000000E+000	87.7682	0.0000000E+000	0.0000000E+000	0.0000000E+000	-87.7682	0.0000000E+000	0.0000000E+000	0.0000000E+000	-2.23183	0.0000000E+000	0.0000000E+000	0.0000000E+000	2.23183	25.6592	87.7682	-0.00542506	-0.000124422	-1.65209e-09	-0.000124421	3.78445	115112	1.52846	115110
0.632957	5.53063	0.260671	5.53677	-2.69847	241.405	3.7845	-0.0328768	964615	2138.08	1	11	0.00501827	0.000906352	0	-0.0055542	5.0251e-05	6.95836e-07	-6.79513	0.000767732	0.000762339	9.08377e-05	-2.69904	5.53754	5.5314	0.260761	0.18041	0.00850312	0.180611	2.69847	2.13808e+06	4.53636e+07	4.54139e+07	-87.3015	0.0000000E+000	0.0000000E+000	0.0000000E+000	87.3015	0.0000000E+000	0.0000000E+000	0.0000000E+000	-87.3015	0.0000000E+000	0.0000000E+000	0.0000000E+000	-2.69847	0.0000000E+000	0.0000000E+000	0.0000000E+000	2.69847	21.217	87.3015	0.000000000000000E+000	-0.000124422	-1.65209e-09	-0.000124421	3.78445	115112	1.52846	115110
0.401878	5.57313	0.334767	5.58318	-3.43751	241.406	3.7845	-0.0328768	1.183e+06	4253.1	1	11	0.00503142	0.000901174	0	-0.0055542	5.0251e-05	7.81917e-07	-3.19563	0.000867664	0.000866315	4.83682e-05	-3.43747	5.58405	5.574	0.334815	0.178787	0.0107394	0.179109	3.43751	4.2531e+06	7.08048e+07	7.09324e+07	-86.5625	0.0000000E+000	0.0000000E+000	0.0000000E+000	86.5625	0.0000000E+000	0.0000000E+000	0.0000000E+000	-86.5625	0.0000000E+000	0.0000000E+000	0.0000000E+000	-3.43751	0.0000000E+000	0.0000000E+000	0.0000000E+000	3.43751	16.6478	86.5625	0.000000000000000E+000	-0.000124422	-1.65209e-09	-0.000124421	3.78445	115112	1.52846	115110
0.251173	5.66133	0.443082	5.67864	-4.47511	241.406	3.7845	-0.0328768	1.43009e+06	8706.46	1	11	0.00503338	0.00088637	0	-0.0055542	5.0251e-05	7.42237e-07	9.32593	0.00083739	0.000826321	-0.000135699	-4.4731	5.67945	5.66215	0.442946	0.175562	0.0137403	0.176098	4.47511	8.70646e+06	1.11244e+08	1.11584e+08	-85.5249	0.0000000E+000	0.0000000E+000	0.0000000E+000	85.5249	0.0000000E+000	0.0000000E+000	0.0000000E+000	-85.5249	0.0000000E+000	0.0000000E+000	0.0000000E+000	-4.47511	0.0000000E+000	0.0000000E+000	0.0000000E+000	4.47511	12.7772	85.5249	0.000000000000000E+000	-0.000124422	-1.65209e-09	-0.000124421	3.78445	115112	1.52846	115110
0.160751	5.77674	0.542998	5.8022	-5.36987	241.406	3.7845	-0.0328768	1.82334e+06	15969	1	11	0.00502714	0.00086642	0	-0.0055542	5.0251e-05	6.14684e-07	-12.5446	0.000709452	0.000692515	0.000154093	-5.37075	5.8029	5.77743	0.543152	0.171592	0.0161292	0.172348	5.36987	1.59691e+07	1.69888e+08	1.70637e+08	-84.6301	0.0000000E+000	0.0000000E+000	0.0000000E+000	84.6301	0.0000000E+000	0.0000000E+000	0.0000000E+000	-84.6301	0.0000000E+000	0.0000000E+000	0.0000000E+000	-5.36987	0.0000000E+000	0.0000000E+000	0.0000000E+000	5.36987	10.6386	84.6301	0.000000000000000E+000	-0.000124422	-1.65209e-09	-0.000124421	3.78445	115112	1.52846	115110
0.100469	5.90505	0.760539	5.95383	-7.33899	241.407	3.7845	-0.0328768	2.08288e+06	33987.2	1	11	0.00502988	0.000844814	0	-0.0055542	5.0251e-05	5.83125e-07	15.6577	0.00069024	0.000664626	-0.000186289	-7.33639	5.95446	5.90572	0.760353	0.166583	0.021455	0.167959	7.33899	3.39872e+07	2.63887e+08	2.66066e+08	-82.661	0.0000000E+000	0.0000000E+000	0.0000000E+000	82.661	0.0000000E+000	0.0000000E+000	0.0000000E+000	-82.661	0.0000000E+000	0.0000000E+000	0.0000000E+000	-7.33899	0.0000000E+000	0.0000000E+000	0.0000000E+000	7.33899	7.7643	82.661	0.000000000000000E+000	-0.000124422	-1.65209e-09	-0.000124421	3.78445	115112	1.52846	115110
0.0602816	6.15663	0.936969	6.22752	-8.65336	241.407	3.7845	-0.0328768	2.8178e+06	63786.6	1	11	0.00502556	0.000806991	0	-0.0055542	5.0251e-05	6.55915e-07	-26.6699	0.000812791	0.000726316	0.00036482	-8.65568	6.2283	6.15736	0.937334	0.15875	0.0241599	0.160577	8.65336	6.37867e+07	4.19129e+08	4.23955e+08	-81.3466	0.0000000E+000	0.0000000E+000	0.0000000E+000	81.3466	0.0000000E+000	0.0000000E+000	0.0000000E+000	-81.3466	0.0000000E+000	0.0000000E+000	0.0000000E+000	-8.65336	0.0000000E+000	0.0000000E+000	0.0000000E+000	8.65336	6.57079	81.3466	0.000000000000000E+000	-0.000124422	-1.65209e-09	-0.000124421	3.78445	115112	1.52846	115110
0.0401878	6.46258	1.11782	6.55855	-9.81326	241.407	3.7845	-0.0328768	3.54286e+06	102916	1	11	0.00502864	0.000766731	0	-0.0055542	5.0251e-05	8.18818e-07	112.228	0.00106793	-0.000403984	-0.000988574	-9.80535	6.55798	6.46218	1.11683	0.150242	0.0259871	0.152473	9.81326	1.02916e+08	5.95001e+08	6.03836e+08	-80.1867	0.0000000E+000	0.0000000E+000	0.0000000E+000	80.1867	0.0000000E+000	0.0000000E+000	0.0000000E+000	-80.1867	0.0000000E+000	0.0000000E+000	0.0000000E+000	-9.81326	0.0000000E+000	0.0000000E+000	0.0000000E+000	9.81326	5.78141	80.1867	0.000000000000000E+000	-0.000124422	-1.65209e-09	-0.000124421	3.78445	115112	1.52846	115110
0.0200939	7.13088	1.54467	7.29627	-12.2224	241.408	3.7845	-0.0328768	5.12768e+06	229822	1	11	0.00502529	0.000688749	0	-0.0055542	5.0251e-05	1.75586e-06	-20.6084	0.00254934	0.0023862	0.000897317	-12.2253	7.29879	7.13327	1.54557	0.13395	0.0290158	0.137056	12.2224	2.29822e+08	1.06096e+09	1.08556e+09	-77.7776	0.0000000E+000	0.0000000E+000	0.0000000E+000	77.7776	0.0000000E+000	0.0000000E+000	0.0000000E+000	-77.7776	0.0000000E+000	0.0000000E+000	0.0000000E+000	-12.2224	0.0000000E+000	0.0000000E+000	0.0000000E+000	12.2224	4.61644	77.7776	0.000000000000000E+000	-0.000124422	-1.65209e-09	-0.000124421	3.78445	115112	1.52846	115110
0.00796479	8.34331	1.63332	8.50168	-11.0764	20330.3	3.78446	0.00258182	1.22342e+07	451552	1	11	0.0050186	0.000590307	0	-0.0428596	0.000126643	1.93041e-07	82.8549	0.000327018	4.06753e-05	-0.000324478	-11.0742	8.50166	8.34335	1.633	0.115433	0.0225976	0.117624	11.0764	4.51552e+08	2.30661e+09	2.3504e+09	-78.9236	0.0000000E+000	0.0000000E+000	0.0000000E+000	78.9236	0.0000000E+000	0.0000000E+000	0.0000000E+000	-78.9236	0.0000000E+000	0.0000000E+000	0.0000000E+000	-11.0764	0.0000000E+000	0.0000000E+000	0.0000000E+000	11.0764	5.10819	78.9236	-0.0373054	9.77078e-06	3.26969e-10	9.77046e-06	3.78433	1.46581e+06	49.0519	1.46576e+06
0.00497799	8.86166	1.64841	9.01367	-10.5375	20330.3	3.78446	0.00258182	1.93955e+07	648677	1	11	0.00502578	0.000557573	0	-0.0428596	0.000126643	2.45864e-07	-32.6223	0.000440954	0.00037139	0.000237718	-10.5386	9.01408	8.86203	1.64865	0.109072	0.0202891	0.110943	10.5375	6.48677e+08	3.48721e+09	3.54703e+09	-79.4625	0.0000000E+000	0.0000000E+000	0.0000000E+000	79.4625	0.0000000E+000	0.0000000E+000	0.0000000E+000	-79.4625	0.0000000E+000	0.0000000E+000	0.0000000E+000	-10.5375	0.0000000E+000	0.0000000E+000	0.0000000E+000	10.5375	5.37588	79.4625	0.000000000000000E+000	9.77078e-06	3.26969e-10	9.77046e-06	3.78433	1.46581e+06	49.0519	1.46576e+06
0.00318591	9.18286	2.15803	9.43303	-13.2249	20330.3	3.78446	0.00258182	2.31488e+07	1.21155e+06	1	11	0.00502832	0.000533055	0	-0.0428596	0.000126643	1.55536e-07	-33.3488	0.000291783	0.000243738	0.000160403	-13.2255	9.4333	9.18311	2.15819	0.103199	0.0242524	0.10601	13.2249	1.21155e+09	5.15539e+09	5.29584e+09	-76.7751	0.0000000E+000	0.0000000E+000	0.0000000E+000	76.7751	0.0000000E+000	0.0000000E+000	0.0000000E+000	-76.7751	0.0000000E+000	0.0000000E+000	0.0000000E+000	-13.2249	0.0000000E+000	0.0000000E+000	0.0000000E+000	13.2249	4.25521	76.7751	0.000000000000000E+000	9.77078e-06	3.26969e-10	9.77046e-06	3.78433	1.46581e+06	49.0519	1.46576e+06
0.0019912	9.51802	2.50019	9.84092	-14.7179	20330.3	3.78446	0.00258182	3.19693e+07	2.06351e+06	1	11	0.00503169	0.000511302	0	-0.0428596	0.000126643	5.50081e-07	-85.8535	0.00107584	7.77905e-05	0.00107303	-14.7239	9.84127	9.5181	2.50126	0.0982823	0.0258167	0.101617	14.7179	2.06351e+09	7.85563e+09	8.12214e+09	-75.2821	0.0000000E+000	0.0000000E+000	0.0000000E+000	75.2821	0.0000000E+000	0.0000000E+000	0.0000000E+000	-75.2821	0.0000000E+000	0.0000000E+000	0.0000000E+000	-14.7179	0.0000000E+000	0.0000000E+000	0.0000000E+000	14.7179	3.80692	75.2821	0.000000000000000E+000	9.77078e-06	3.26969e-10	9.77046e-06	3.78433	1.46581e+06	49.0519	1.46576e+06
0.00129428	9.41392	3.2179	9.94871	-18.8716	20330.3	3.78446	0.00258182	3.82138e+07	3.9979e+06	1	11	0.00503139	0.000505733	0	-0.0428596	0.000126643	1.53683e-06	-72.8863	0.00303882	0.000894232	0.00290427	-18.8858	9.95049	9.41482	3.2208	0.0951124	0.0325116	0.100516	18.8716	3.9979e+09	1.16958e+10	1.23602e+10	-71.1284	0.0000000E+000	0.0000000E+000	0.0000000E+000	71.1284	0.0000000E+000	0.0000000E+000	0.0000000E+000	-71.1284	0.0000000E+000	0.0000000E+000	0.0000000E+000	-18.8716	0.0000000E+000	0.0000000E+000	0.0000000E+000	18.8716	2.92549	71.1284	0.000000000000000E+000	9.77078e-06	3.26969e-10	9.77046e-06	3.78433	1.46581e+06	49.0519	1.46576e+06
0.000796479	10.1013	4.57505	11.0891	-24.3665	20330.3	3.78446	0.00258182	4.36768e+07	7.43446e+06	1	11	0.00503259	0.000453833	0	-0.0428596	0.000126643	2.16706e-06	-113.727	0.00477502	-0.00192136	0.00437141	-24.3912	11.0891	10.0994	4.57942	0.082146	0.0372052	0.0901787	24.3665	7.43446e+09	1.64147e+10	1.80198e+10	-65.6335	0.0000000E+000	0.0000000E+000	0.0000000E+000	65.6335	0.0000000E+000	0.0000000E+000	0.0000000E+000	-65.6335	0.0000000E+000	0.0000000E+000	0.0000000E+000	-24.3665	0.0000000E+000	0.0000000E+000	0.0000000E+000	24.3665	2.20792	65.6335	0.000000000000000E+000	9.77078e-06	3.26969e-10	9.77046e-06	3.78433	1.46581e+06	49.0519	1.46576e+06
0.000497799	9.80745	6.63756	11.8424	-34.0897	20330.3	3.78446	0.00258182	4.81679e+07	1.51319e+07	1	11	0.00502873	0.000424636	0	-0.0428596	0.000126643	3.00874e-06	-19.3311	0.00708544	0.00668598	0.00234548	-34.0809	11.8493	9.81414	6.63991	0.0699317	0.0473289	0.0844421	34.0897	1.51319e+10	2.23584e+10	2.69976e+10	-55.9103	0.0000000E+000	0.0000000E+000	0.0000000E+000	55.9103	0.0000000E+000	0.0000000E+000	0.0000000E+000	-55.9103	0.0000000E+000	0.0000000E+000	0.0000000E+000	-34.0897	0.0000000E+000	0.0000000E+000	0.0000000E+000	34.0897	1.47757	55.9103	0.000000000000000E+000	9.77078e-06	3.26969e-10	9.77046e-06	3.78433	1.46581e+06	49.0519	1.46576e+06
0.000298679	9.56311	10.1286	13.9298	-46.6448	20330.3	3.78446	0.00258182	5.26099e+07	2.78144e+07	1	11	0.00503192	0.000361233	0	-0.0428596	0.000126643	2.19146e-06	-95.4147	0.00606662	-0.000572473	0.00603954	-46.6636	13.9338	9.56253	10.1346	0.0492841	0.0521981	0.0717883	46.6448	2.78144e+10	2.62616e+10	3.82533e+10	-43.3552	0.0000000E+000	0.0000000E+000	0.0000000E+000	43.3552	0.0000000E+000	0.0000000E+000	0.0000000E+000	-43.3552	0.0000000E+000	0.0000000E+000	0.0000000E+000	-46.6448	0.0000000E+000	0.0000000E+000	0.0000000E+000	46.6448	0.944173	43.3552	0.000000000000000E+000	9.77078e-06	3.26969e-10	9.77046e-06	3.78433	1.46581e+06	49.0519	1.46576e+06
9.95598e-05	11.0297	35.659	37.3259	-72.8126	20330.3	3.78446	0.00258182	4.48298e+07	4.09153e+07	1	11	0.00503651	0.000134933	0	-0.0428596	0.000126643	4.32122e-06	63.1111	0.0320248	0.0144836	-0.0285625	-72.7784	37.3029	11.0442	35.6305	0.0079167	0.0255947	0.0267911	72.8126	4.09153e+10	1.26555e+10	4.28278e+10	-17.1874	0.0000000E+000	0.0000000E+000	0.0000000E+000	17.1874	0.0000000E+000	0.0000000E+000	0.0000000E+000	-17.1874	0.0000000E+000	0.0000000E+000	0.0000000E+000	-72.8126	0.0000000E+000	0.0000000E+000	0.0000000E+000	72.8126	0.30931	17.1874	0.000000000000000E+000	9.77078e-06	3.26969e-10	9.77046e-06	3.78433	1.46581e+06	49.0519	1.46576e+06