File: txt/17226_R278_UC78_50SOC_C05.mpt
EC-Lab ASCII FILE
Nb header lines : 65

Potentio Electrochemical Impedance Spectroscopy

Run on channel : 5 (SN 65912)
User :
CE vs. WE compliance from -10 V to 10 V
Electrode connection : standard
Potential control : Ewe
Ewe ctrl range : min = -10.00 V, max = 10.00 V
Safety Limits :
	Do not start on E overload
Acquisition started on : 09/02/2025 16:41:54.104
Technique started on : 09/02/2025 16:41:54.991
Loaded Setting File :  C:\Users\Celltest\OneDrive - store-dot.com\Documents\EC-Lab\Data\Michael\R278\UC74_NCMA_16706_EIS_50_SOC.mps
Saved on :
	File : UC79_17226_EIS_50SOC_C05.mpr
	Directory : C:\Users\Celltest\OneDrive - store-dot.com\Documents\EC-Lab\Data\Michael\R278\
	Host : 169.254.61.224
Device : VMP-3e (SN .003165)
Address : USB
EC-LAB for windows v11.62 (software)
Internet server v27.00 (firmware)
Command interpretor v12.03 (firmware)
Electrode material :
Initial state :
Electrolyte :
Comments :
Electrode surface area : 0.001 cm²
Characteristic mass : 0.001 g
Equivalent Weight : 0.000 g/eq.
Density : 0.000 g/cm3
Volume (V) : 0.001 cm³
Record Ece
Cycle Definition : Charge/Discharge alternance
Mode                Multi sine
E (V)               0.0000
vs.                 Eoc
tE (h:m:s)          0:00:0.0000
record              0
dI                  0.000
unit dI             mA
dt (s)              0.000
fi                  1.000
unit fi             MHz
ff                  0.100
unit ff             mHz
Nd                  10
Points              per decade
spacing             Logarithmic
Va (mV)             5.0
pw                  0.10
Na                  2
corr                0
E range min (V)     -10.000
E range max (V)     10.000
I Range             Auto
Bandwidth           5
nc cycles           0
goto Ns'            0
nr cycles           0
inc. cycle          0

freq/Hz	Re(Z)/Ohm	-Im(Z)/Ohm	|Z|/Ohm	Phase(Z)/deg	time/s	<Ewe>/V	<I>/mA	Cs/µF	Cp/µF	cycle number	I Range	|Ewe|/V	|I|/A	Ns	(Q-Qo)/mA.h	<Ece>/V	|Ece|/V	Phase(Zce)/deg	|Zce|/Ohm	Re(Zce)/Ohm	-Im(Zce)/Ohm	Phase(Zwe-ce)/deg	|Zwe-ce|/Ohm	Re(Zwe-ce)/Ohm	-Im(Zwe-ce)/Ohm	Re(Y)/Ohm-1	Im(Y)/Ohm-1	|Y|/Ohm-1	Phase(Y)/deg	Re(C)/nF	Im(C)/nF	|C|/nF	Phase(C)/deg	Re(M)	Im(M)	|M|	Phase(M)/deg	Re(Permittivity)	Im(Permittivity)	|Permittivity|	Phase(Permittivity)/deg	Re(Resistivity)/Ohm.cm	Im(Resistivity)/Ohm.cm	|Resistivity|/Ohm.cm	Phase(Resistivity)/deg	Re(Conductivity)/mS/cm	Im(Conductivity)/mS/cm	|Conductivity|/mS/cm	Phase(Conductivity)/deg	Tan(Delta)	Loss Angle(Delta)/deg	dq/mA.h	Pwe/W	Pce/W	Pwe-ce/W	<Ewe-Ece>/V	Rwe/Ohm	Rce/Ohm	Rwe-ce/Ohm		Ewe-Ece/V
1.00002e+06	-79.8337	-392.797	400.828	101.489	0.886547	3.78432	-0.0434448	-0.000405176	-0.000389103	1	12	0.000172038	4.29207e-07	0	-2.30784e-06	0.000109745	0.000159503	106.394	371.622	-104.885	-356.514	103.848	771.743	-184.718	-749.311	-0.000496901	-0.00244485	0.00249484	-101.489	-0.389103	-0.0790828	0.397058	168.511	0.0000000E+000	0.0000000E+000	0.0000000E+000	-168.511	0.0000000E+000	0.0000000E+000	0.0000000E+000	168.511	0.0000000E+000	0.0000000E+000	0.0000000E+000	101.489	0.0000000E+000	0.0000000E+000	0.0000000E+000	-101.489	0.203244	11.4885	-2.30784e-06	-0.000164409	-4.76783e-09	-0.000164404	3.78421	87106.2	2.52607	87103.7
630957	0.626618	0.00924568	0.626686	-0.845332	2.98554	3.78504	0.0675314	27.2823	0.00593826	1	9	0.000161498	0.000257702	0	1.90081e-05	3.33797e-05	0.000102201	-103.505	0.396588	-0.092614	0.385622	-36.481	0.664139	0.534004	0.394868	1.59552	0.0235417	1.59569	0.845332	5.93824	402.46	402.504	-89.1547	0.0000000E+000	0.0000000E+000	0.0000000E+000	89.1547	0.0000000E+000	0.0000000E+000	0.0000000E+000	-89.1547	0.0000000E+000	0.0000000E+000	0.0000000E+000	-0.845332	0.0000000E+000	0.0000000E+000	0.0000000E+000	0.845332	67.7741	89.1547	7.03986e-06	0.000255609	2.25418e-09	0.000255607	3.78501	56048.6	0.494284	56048.1
398103	0.897387	0.0762717	0.900622	-4.85807	3.75352	3.78481	0.021801	5.24156	0.0375926	1	9	0.00067974	0.000754745	0	2.41755e-05	7.15621e-05	6.49992e-05	143.522	0.0861207	-0.0692481	-0.0512003	-1.73407	0.828518	0.828139	0.0250714	1.10635	0.0940325	1.11034	4.85807	37.5926	442.302	443.896	-85.1419	0.0000000E+000	0.0000000E+000	0.0000000E+000	85.1419	0.0000000E+000	0.0000000E+000	0.0000000E+000	-85.1419	0.0000000E+000	0.0000000E+000	0.0000000E+000	-4.85807	0.0000000E+000	0.0000000E+000	0.0000000E+000	4.85807	11.7657	85.1419	1.71724e-06	8.25125e-05	1.56012e-09	8.25109e-05	3.78474	173608	3.28252	173604
251206	1.0008	0.271167	1.03689	-15.1603	4.51956	3.78458	-0.00948046	2.33643	0.159795	1	9	0.00208539	0.0020112	0	2.7546e-05	-0.00011935	5.8839e-05	86.0387	0.0292556	0.00202106	-0.0291857	-13.5661	1.03161	1.00282	0.241981	0.93086	0.252216	0.964424	15.1603	159.795	589.758	611.023	-74.8397	0.0000000E+000	0.0000000E+000	0.0000000E+000	74.8397	0.0000000E+000	0.0000000E+000	0.0000000E+000	-74.8397	0.0000000E+000	0.0000000E+000	0.0000000E+000	-15.1603	0.0000000E+000	0.0000000E+000	0.0000000E+000	15.1603	3.69073	74.8397	1.54921e-06	-3.58795e-05	1.13149e-09	-3.58807e-05	3.7847	399198	12.5891	399210
158486	1.10842	0.397359	1.17749	-19.7223	5.28552	3.78446	-0.0268341	2.52724	0.287803	1	9	0.00507095	0.00430656	0	2.16939e-05	0.000281565	7.21004e-05	65.678	0.016742	0.00689542	-0.0152561	-18.9113	1.17895	1.11532	0.382103	0.799444	0.286593	0.849262	19.7223	287.803	802.817	852.846	-70.2777	0.0000000E+000	0.0000000E+000	0.0000000E+000	70.2777	0.0000000E+000	0.0000000E+000	0.0000000E+000	-70.2777	0.0000000E+000	0.0000000E+000	0.0000000E+000	-19.7223	0.0000000E+000	0.0000000E+000	0.0000000E+000	19.7223	2.78947	70.2777	2.0576e-06	-0.000101553	-7.55557e-09	-0.000101545	3.78418	141032	10.4928	141021
100004	1.25717	0.483043	1.34678	-21.0183	6.05152	3.78436	-0.0312285	3.29472	0.423837	1	9	0.00540476	0.00401311	0	1.22386e-05	0.000262474	3.75844e-05	63.6511	0.00936541	0.00415671	-0.00839242	-20.6218	1.34768	1.26133	0.474651	0.693111	0.266314	0.742513	21.0183	423.837	1103.08	1181.7	-68.9817	0.0000000E+000	0.0000000E+000	0.0000000E+000	68.9817	0.0000000E+000	0.0000000E+000	0.0000000E+000	-68.9817	0.0000000E+000	0.0000000E+000	0.0000000E+000	-21.0183	0.0000000E+000	0.0000000E+000	0.0000000E+000	21.0183	2.6026	68.9817	-9.16027e-06	-0.00011818	-8.19666e-09	-0.000118172	3.7841	121183	8.40497	121175
63093.8	1.43041	0.534258	1.52692	-20.4807	6.81755	3.78434	-0.0415067	4.72152	0.57803	1	9	0.00532304	0.00348612	0	9.46671e-06	-6.20764e-05	2.13451e-05	57.0736	0.00612287	0.00332816	-0.00513935	-20.2566	1.52825	1.43373	0.529119	0.613515	0.229149	0.654912	20.4807	578.03	1547.6	1652.02	-69.5193	0.0000000E+000	0.0000000E+000	0.0000000E+000	69.5193	0.0000000E+000	0.0000000E+000	0.0000000E+000	-69.5193	0.0000000E+000	0.0000000E+000	0.0000000E+000	-20.4807	0.0000000E+000	0.0000000E+000	0.0000000E+000	20.4807	2.67737	69.5193	-9.23933e-06	-0.000157075	2.57658e-09	-0.000157078	3.78441	91174.4	1.49558	91175.9
39814.1	1.6177	0.552506	1.70945	-18.857	7.58353	3.78433	-0.0349897	7.23513	0.755806	1	9	0.00528039	0.00308895	0	2.65639e-06	-0.000195715	1.46791e-05	38.1242	0.00475214	0.00373838	-0.00293382	-18.7237	1.71204	1.62143	0.549572	0.553588	0.189072	0.584985	18.857	755.806	2212.94	2338.45	-71.143	0.0000000E+000	0.0000000E+000	0.0000000E+000	71.143	0.0000000E+000	0.0000000E+000	0.0000000E+000	-71.143	0.0000000E+000	0.0000000E+000	0.0000000E+000	-18.857	0.0000000E+000	0.0000000E+000	0.0000000E+000	18.857	2.92792	71.143	-1.76507e-06	-0.000132412	6.848e-09	-0.000132419	3.78452	108155	5.5935	108161
25116.9	1.78923	0.553164	1.87279	-17.1797	8.34954	3.78432	-0.0283238	11.4551	0.999381	1	9	0.00524919	0.00280287	0	-3.62827e-07	3.33797e-05	1.25511e-05	30.4738	0.00447795	0.00385937	-0.00227096	-17.0786	1.87581	1.79309	0.550893	0.51014	0.157717	0.533963	17.1797	999.381	3232.53	3383.49	-72.8203	0.0000000E+000	0.0000000E+000	0.0000000E+000	72.8203	0.0000000E+000	0.0000000E+000	0.0000000E+000	-72.8203	0.0000000E+000	0.0000000E+000	0.0000000E+000	-17.1797	0.0000000E+000	0.0000000E+000	0.0000000E+000	17.1797	3.23454	72.8203	8.16529e-07	-0.000107186	-9.45438e-10	-0.000107185	3.78429	133609	1.1785	133608
15847.7	1.94061	0.549996	2.01704	-15.8235	9.11551	3.78431	-0.0291803	18.2597	1.35764	1	9	0.0052259	0.00259087	0	-1.0735e-05	3.33797e-05	5.04417e-06	32.6067	0.0019469	0.00164005	-0.00104913	-15.7822	2.01833	1.94225	0.548947	0.476989	0.135186	0.495776	15.8235	1357.64	4790.3	4978.98	-74.1765	0.0000000E+000	0.0000000E+000	0.0000000E+000	74.1765	0.0000000E+000	0.0000000E+000	0.0000000E+000	-74.1765	0.0000000E+000	0.0000000E+000	0.0000000E+000	-15.8235	0.0000000E+000	0.0000000E+000	0.0000000E+000	15.8235	3.5284	74.1765	-3.94223e-06	-0.000110427	-9.74028e-10	-0.000110426	3.78428	129687	1.14391	129686
10002.2	2.08533	0.557523	2.15857	-14.9682	9.88352	3.78431	-0.0388999	28.5404	1.90395	1	9	0.00520977	0.00241353	0	-1.93707e-05	1.42885e-05	1.32982e-05	-12.1506	0.00550985	0.00538642	0.00115972	-14.9611	2.16407	2.09071	0.558683	0.447551	0.119655	0.46327	14.9682	1903.94	7121.41	7371.53	-75.0318	0.0000000E+000	0.0000000E+000	0.0000000E+000	75.0318	0.0000000E+000	0.0000000E+000	0.0000000E+000	-75.0318	0.0000000E+000	0.0000000E+000	0.0000000E+000	-14.9682	0.0000000E+000	0.0000000E+000	0.0000000E+000	14.9682	3.74034	75.0318	-7.68086e-06	-0.000147209	-5.55819e-10	-0.000147209	3.7843	97283.4	0.367314	97283
6309.38	2.23857	0.600497	2.31772	-15.0161	10.6495	3.7843	-0.0353994	42.007	2.81983	1	9	0.00510348	0.00220194	0	-2.87379e-05	3.33797e-05	8.05585e-06	24.1309	0.00365851	0.00333881	-0.00149568	-14.959	2.32056	2.24191	0.599002	0.416726	0.111787	0.431459	15.0161	2819.83	10512	10883.6	-74.9839	0.0000000E+000	0.0000000E+000	0.0000000E+000	74.9839	0.0000000E+000	0.0000000E+000	0.0000000E+000	-74.9839	0.0000000E+000	0.0000000E+000	0.0000000E+000	-15.0161	0.0000000E+000	0.0000000E+000	0.0000000E+000	15.0161	3.72787	74.9839	-7.55354e-06	-0.000133962	-1.18162e-09	-0.000133961	3.78427	106903	0.942946	106902
3983.6	2.38554	0.653685	2.47349	-15.324	11.4811	3.78431	-0.0126831	61.119	4.26869	1	9	0.0050328	0.0020347	0	-3.08044e-05	0.000281565	6.08777e-06	-18.767	0.00299197	0.0028329	0.000962581	-15.3281	2.47647	2.38838	0.654647	0.389914	0.106844	0.404288	15.324	4268.69	15578.1	16152.3	-74.676	0.0000000E+000	0.0000000E+000	0.0000000E+000	74.676	0.0000000E+000	0.0000000E+000	0.0000000E+000	-74.676	0.0000000E+000	0.0000000E+000	0.0000000E+000	-15.324	0.0000000E+000	0.0000000E+000	0.0000000E+000	15.324	3.64938	74.676	2.70941e-06	-4.79967e-05	-3.57112e-09	-4.79931e-05	3.78403	298375	22.2001	298352
2510.8	2.56299	0.739616	2.66757	-16.0968	12.5198	3.7843	-0.0383041	85.704	6.58841	1	9	0.00514962	0.00193045	0	-4.02669e-05	-2.3894e-05	1.03454e-05	-66.2622	0.00535905	0.00215729	0.00490566	-16.1851	2.67101	2.56515	0.744521	0.360175	0.103938	0.374872	16.0968	6588.41	22830.8	23762.4	-73.9032	0.0000000E+000	0.0000000E+000	0.0000000E+000	73.9032	0.0000000E+000	0.0000000E+000	0.0000000E+000	-73.9032	0.0000000E+000	0.0000000E+000	0.0000000E+000	-16.0968	0.0000000E+000	0.0000000E+000	0.0000000E+000	16.0968	3.4653	73.9032	-3.03808e-06	-0.000144954	9.15236e-10	-0.000144955	3.78432	98796.2	0.623797	98796.8
1585.51	2.75553	0.865787	2.88834	-17.4427	13.4218	3.7843	-0.0402405	115.942	10.4176	1	9	0.0053283	0.00184476	0	-5.07112e-05	-0.000100259	8.47943e-06	-66.3716	0.00459649	0.00184229	0.00421114	-17.5114	2.89136	2.75737	0.869998	0.330299	0.10378	0.346219	17.4427	10417.6	33155.8	34753.9	-72.5573	0.0000000E+000	0.0000000E+000	0.0000000E+000	72.5573	0.0000000E+000	0.0000000E+000	0.0000000E+000	-72.5573	0.0000000E+000	0.0000000E+000	0.0000000E+000	-17.4427	0.0000000E+000	0.0000000E+000	0.0000000E+000	17.4427	3.18268	72.5573	-4.86736e-06	-0.000152282	4.03447e-09	-0.000152286	3.7844	94041.9	2.49149	94044.4
1000.32	3.01346	1.0231	3.1824	-18.7529	14.3238	3.78431	-0.0413205	155.511	16.0727	1	9	0.00531921	0.00167144	0	-5.90188e-05	7.15621e-05	7.56534e-06	45.5379	0.00452623	0.00317034	-0.00323043	-18.6795	3.18437	3.01663	1.01987	0.297547	0.10102	0.314228	18.7529	16072.7	47340.9	49994.9	-71.2471	0.0000000E+000	0.0000000E+000	0.0000000E+000	71.2471	0.0000000E+000	0.0000000E+000	0.0000000E+000	-71.2471	0.0000000E+000	0.0000000E+000	0.0000000E+000	-18.7529	0.0000000E+000	0.0000000E+000	0.0000000E+000	18.7529	2.94541	71.2471	-5.35378e-06	-0.000156369	-2.95698e-09	-0.000156366	3.78424	91584.3	1.73188	91582.5
631.01	3.34214	1.19975	3.55095	-19.7469	15.4715	3.78431	-0.0320979	210.23	23.9984	1	10	0.00529743	0.00149183	0	-7.10335e-05	-0.000195715	3.98767e-06	-4.12751	0.002673	0.00266607	0.000192393	-19.7353	3.55353	3.3448	1.19994	0.265054	0.0951478	0.281614	19.7469	23998.4	66852.6	71029.5	-70.2531	0.0000000E+000	0.0000000E+000	0.0000000E+000	70.2531	0.0000000E+000	0.0000000E+000	0.0000000E+000	-70.2531	0.0000000E+000	0.0000000E+000	0.0000000E+000	-19.7469	0.0000000E+000	0.0000000E+000	0.0000000E+000	19.7469	2.78571	70.2531	-4.82915e-06	-0.000121468	6.28204e-09	-0.000121475	3.7845	117899	6.09743	117905
398.089	3.77857	1.35496	4.01416	-19.7273	16.3728	3.78431	-0.0311224	295.063	33.6182	1	10	0.00522063	0.00130055	0	-7.90747e-05	3.33797e-05	2.21319e-05	-20.4761	0.0170173	0.0159421	0.00595295	-19.7305	4.03118	3.79451	1.36091	0.234497	0.0840882	0.249118	19.7273	33618.2	93751.3	99596.6	-70.2727	0.0000000E+000	0.0000000E+000	0.0000000E+000	70.2727	0.0000000E+000	0.0000000E+000	0.0000000E+000	-70.2727	0.0000000E+000	0.0000000E+000	0.0000000E+000	-19.7273	0.0000000E+000	0.0000000E+000	0.0000000E+000	19.7273	2.7887	70.2727	-3.33117e-06	-0.000117777	-1.03886e-09	-0.000117776	3.78428	121595	1.07253	121593
251.044	4.31957	1.40495	4.54231	-18.0173	17.2711	3.7843	-0.0321687	451.24	43.1696	1	10	0.00518474	0.00114143	0	-8.60634e-05	0.000338839	1.33644e-05	-55.9471	0.0117085	0.00655626	0.00970072	-18.1079	4.55155	4.32613	1.41465	0.209357	0.0680939	0.220152	18.0173	43169.6	132726	139570	-71.9827	0.0000000E+000	0.0000000E+000	0.0000000E+000	71.9827	0.0000000E+000	0.0000000E+000	0.0000000E+000	-71.9827	0.0000000E+000	0.0000000E+000	0.0000000E+000	-18.0173	0.0000000E+000	0.0000000E+000	0.0000000E+000	18.0173	3.07453	71.9827	-3.08086e-06	-0.000121736	-1.09e-08	-0.000121725	3.78396	117639	10.5332	117629
158.428	4.84035	1.30221	5.01246	-15.0578	18.1759	3.7843	-0.0303628	771.449	52.0673	1	10	0.0051528	0.001028	0	-9.13126e-05	0.000128836	8.46947e-06	19.4301	0.00823879	0.00776958	-0.00274069	-15.0046	5.01925	4.84812	1.29947	0.192653	0.0518296	0.199503	15.0578	52067.3	193536	200418	-74.9422	0.0000000E+000	0.0000000E+000	0.0000000E+000	74.9422	0.0000000E+000	0.0000000E+000	0.0000000E+000	-74.9422	0.0000000E+000	0.0000000E+000	0.0000000E+000	-15.0578	0.0000000E+000	0.0000000E+000	0.0000000E+000	15.0578	3.71704	74.9422	-3.01336e-06	-0.000114902	-3.91182e-09	-0.000114898	3.78417	124636	4.24321	124632
100.032	5.26087	1.08939	5.37248	-11.6991	19.0758	3.78431	-0.0307017	1460.49	60.0502	1	10	0.00512576	0.000954078	0	-9.85339e-05	-0.000157532	3.88096e-05	-65.8371	0.0406776	0.0166506	0.0371136	-12.0491	5.39641	5.27752	1.1265	0.182267	0.0377428	0.186134	11.6991	60050.3	289994	296146	-78.3009	0.0000000E+000	0.0000000E+000	0.0000000E+000	78.3009	0.0000000E+000	0.0000000E+000	0.0000000E+000	-78.3009	0.0000000E+000	0.0000000E+000	0.0000000E+000	-11.6991	0.0000000E+000	0.0000000E+000	0.0000000E+000	11.6991	4.82919	78.3009	-3.42684e-06	-0.000116185	4.83651e-09	-0.00011619	3.78447	123261	5.13108	123266
63.0823	5.56416	0.848206	5.62844	-8.6675	19.993	3.78436	-0.0269149	2974.48	67.552	1	10	0.00513311	0.000911996	0	-0.000105215	-8.11676e-05	9.55468e-06	-8.65055	0.0104767	0.0103575	0.00157577	-8.66747	5.63891	5.57452	0.849782	0.17564	0.0267748	0.177669	8.6675	67552	443135	448255	-81.3325	0.0000000E+000	0.0000000E+000	0.0000000E+000	81.3325	0.0000000E+000	0.0000000E+000	0.0000000E+000	-81.3325	0.0000000E+000	0.0000000E+000	0.0000000E+000	-8.6675	0.0000000E+000	0.0000000E+000	0.0000000E+000	8.6675	6.55991	81.3325	-3.90049e-06	-0.000101856	2.18462e-09	-0.000101858	3.78444	140604	3.01571	140607
39.8089	5.7477	0.624854	5.78157	-6.20447	20.8939	3.7843	-0.0303517	6398.25	74.7355	1	10	0.00512871	0.000887079	0	-0.000114439	0.000224292	5.58291e-06	5.6369	0.00629359	0.00626316	-0.00061818	-6.19169	5.78773	5.75397	0.624236	0.17195	0.0186934	0.172963	6.20447	74735.5	687453	691503	-83.7955	0.0000000E+000	0.0000000E+000	0.0000000E+000	83.7955	0.0000000E+000	0.0000000E+000	0.0000000E+000	-83.7955	0.0000000E+000	0.0000000E+000	0.0000000E+000	-6.20447	0.0000000E+000	0.0000000E+000	0.0000000E+000	6.20447	9.19847	83.7955	-4.40663e-06	-0.00011486	-6.80763e-09	-0.000114853	3.78408	124682	7.38977	124675
25.1044	5.85333	0.451072	5.87068	-4.40665	21.773	3.7843	-0.0298229	14054.8	82.9733	1	10	0.00512448	0.000872893	0	-0.00012155	-4.29852e-05	8.98256e-06	-8.77783	0.0102906	0.01017	0.00157038	-4.41429	5.88094	5.8635	0.452643	0.169834	0.0130879	0.170338	4.40665	82973.3	1.0767e+06	1.07989e+06	-85.5934	0.0000000E+000	0.0000000E+000	0.0000000E+000	85.5934	0.0000000E+000	0.0000000E+000	0.0000000E+000	-85.5934	0.0000000E+000	0.0000000E+000	0.0000000E+000	-4.40665	0.0000000E+000	0.0000000E+000	0.0000000E+000	4.40665	12.9765	85.5934	-3.68844e-06	-0.000112859	1.28194e-09	-0.00011286	3.78434	126892	1.44135	126894
15.8576	5.91072	0.325245	5.91966	-3.14959	22.6511	3.7843	-0.032057	30858.4	93.1535	1	10	0.00512281	0.000865388	0	-0.000131767	0.000186109	1.95486e-05	-47.2414	0.0225894	0.0153362	0.0165856	-3.30131	5.93591	5.92606	0.34183	0.168673	0.00928146	0.168929	3.14959	93153.6	1.69289e+06	1.69545e+06	-86.8504	0.0000000E+000	0.0000000E+000	0.0000000E+000	86.8504	0.0000000E+000	0.0000000E+000	0.0000000E+000	-86.8504	0.0000000E+000	0.0000000E+000	0.0000000E+000	-3.14959	0.0000000E+000	0.0000000E+000	0.0000000E+000	3.14959	18.1732	86.8504	-5.44968e-06	-0.000121313	-5.9661e-09	-0.000121307	3.78412	118049	5.80558	118043
10.0032	5.96419	0.257024	5.96972	-2.46761	23.6328	3.7843	-0.0292644	61902.5	114.748	1	10	0.00512493	0.000858487	0	-0.000136488	-4.29852e-05	5.31749e-06	55.3406	0.00619402	0.00352252	-0.00509487	-2.41732	5.97302	5.96771	0.251929	0.167357	0.00721215	0.167512	2.46761	114748	2.66271e+06	2.66518e+06	-87.5324	0.0000000E+000	0.0000000E+000	0.0000000E+000	87.5324	0.0000000E+000	0.0000000E+000	0.0000000E+000	-87.5324	0.0000000E+000	0.0000000E+000	0.0000000E+000	-2.46761	0.0000000E+000	0.0000000E+000	0.0000000E+000	2.46761	23.2048	87.5324	-5.29202e-06	-0.000110745	1.25794e-09	-0.000110746	3.78434	129314	1.46886	129315
6.31058	5.99389	0.226435	5.99817	-2.16347	24.5573	3.78428	-0.0339932	111380	158.729	1	10	0.00511748	0.000853174	0	-0.000149001	-0.000100259	3.69654e-06	35.5621	0.00433269	0.00352458	-0.00251983	-2.13816	6.00159	5.99741	0.223915	0.166599	0.00629371	0.166718	2.16347	158729	4.20168e+06	4.20467e+06	-87.8365	0.0000000E+000	0.0000000E+000	0.0000000E+000	87.8365	0.0000000E+000	0.0000000E+000	0.0000000E+000	-87.8365	0.0000000E+000	0.0000000E+000	0.0000000E+000	-2.16347	0.0000000E+000	0.0000000E+000	0.0000000E+000	2.16347	26.4707	87.8365	-1.06006e-05	-0.00012864	3.40811e-09	-0.000128643	3.78438	111325	2.94938	111328
3.97785	6.03091	0.211039	6.0346	-2.00412	25.5644	3.78431	-0.026753	189587	231.866	1	10	0.00512015	0.000848465	0	-0.000142897	1.42885e-05	1.2085e-05	-63.8147	0.0142433	0.00628524	0.0127816	-2.12319	6.04134	6.03719	0.22382	0.16561	0.00579515	0.165711	2.00412	231866	6.62609e+06	6.63015e+06	-87.9959	0.0000000E+000	0.0000000E+000	0.0000000E+000	87.9959	0.0000000E+000	0.0000000E+000	0.0000000E+000	-87.9959	0.0000000E+000	0.0000000E+000	0.0000000E+000	-2.00412	0.0000000E+000	0.0000000E+000	0.0000000E+000	2.00412	28.5773	87.9959	3.04493e-06	-0.000101242	-3.82259e-10	-0.000101241	3.7843	141454	0.534088	141453
2.51367	6.07688	0.207346	6.08042	-1.9542	27.566	3.78431	-0.0246099	305362	355.091	1	11	0.00512504	0.000842877	0	-0.000176282	-0.000157532	2.14678e-06	-29.4073	0.00254697	0.00221879	0.0012506	-1.96526	6.08268	6.0791	0.208596	0.164367	0.00560826	0.164462	1.9542	355091	1.0407e+07	1.0413e+07	-88.0458	0.0000000E+000	0.0000000E+000	0.0000000E+000	88.0458	0.0000000E+000	0.0000000E+000	0.0000000E+000	-88.0458	0.0000000E+000	0.0000000E+000	0.0000000E+000	-1.9542	0.0000000E+000	0.0000000E+000	0.0000000E+000	1.9542	29.3079	88.0458	-2.1722e-05	-9.31316e-05	3.87686e-09	-9.31355e-05	3.78447	153772	6.40118	153778
1.58469	6.11999	0.232157	6.12439	-2.17243	30.0013	3.78432	-0.0246008	432608	621.633	1	11	0.00512531	0.000836869	0	-0.00016797	0.000396113	2.46347e-06	-10.1983	0.00294368	0.00289717	0.000521193	-2.17628	6.1273	6.12288	0.232679	0.163164	0.00618952	0.163282	2.17243	621633	1.63871e+07	1.63989e+07	-87.8276	0.0000000E+000	0.0000000E+000	0.0000000E+000	87.8276	0.0000000E+000	0.0000000E+000	0.0000000E+000	-87.8276	0.0000000E+000	0.0000000E+000	0.0000000E+000	-2.17243	0.0000000E+000	0.0000000E+000	0.0000000E+000	2.17243	26.3614	87.8276	9.19547e-06	-9.30975e-05	-9.74471e-09	-9.30877e-05	3.78392	153829	16.1016	153813
1.00469	6.16188	0.255007	6.16716	-2.36981	240.818	3.78431	-0.0235197	621204	1062.11	1	11	0.00507488	0.000822888	0	-0.00458878	0.000109745	8.68584e-07	-0.818496	0.00105553	0.00105542	1.50782e-05	-2.36955	6.16821	6.16294	0.255022	0.162011	0.00670475	0.162149	2.36981	1.06211e+06	2.56643e+07	2.56863e+07	-87.6302	0.0000000E+000	0.0000000E+000	0.0000000E+000	87.6302	0.0000000E+000	0.0000000E+000	0.0000000E+000	-87.6302	0.0000000E+000	0.0000000E+000	0.0000000E+000	-2.36981	0.0000000E+000	0.0000000E+000	0.0000000E+000	2.36981	24.1636	87.6302	-0.00442598	-8.90058e-05	-2.58116e-09	-8.90032e-05	3.7842	160899	4.66606	160895
0.632957	6.22208	0.31046	6.22982	-2.85648	240.819	3.78431	-0.0235197	809917	2011.4	1	11	0.00508889	0.00081686	0	-0.00458878	0.000109745	7.51101e-07	10.5229	0.000919498	0.000904034	-0.000167927	-2.85453	6.23072	6.22299	0.310292	0.160319	0.00799933	0.160518	2.85648	2.0114e+06	4.03116e+07	4.03618e+07	-87.1435	0.0000000E+000	0.0000000E+000	0.0000000E+000	87.1435	0.0000000E+000	0.0000000E+000	0.0000000E+000	-87.1435	0.0000000E+000	0.0000000E+000	0.0000000E+000	-2.85648	0.0000000E+000	0.0000000E+000	0.0000000E+000	2.85648	20.0415	87.1435	0.000000000000000E+000	-8.90058e-05	-2.58116e-09	-8.90032e-05	3.7842	160899	4.66606	160895
0.401878	6.27726	0.390378	6.28938	-3.5586	240.82	3.78431	-0.0235197	1.01448e+06	3908.37	1	11	0.00510251	0.000811289	0	-0.00458878	0.000109745	8.66695e-07	3.11664	0.00106829	0.00106671	-5.80819e-05	-3.55747	6.29044	6.27832	0.39032	0.158692	0.0098689	0.158998	3.5586	3.90836e+06	6.28464e+07	6.29678e+07	-86.4414	0.0000000E+000	0.0000000E+000	0.0000000E+000	86.4414	0.0000000E+000	0.0000000E+000	0.0000000E+000	-86.4414	0.0000000E+000	0.0000000E+000	0.0000000E+000	-3.5586	0.0000000E+000	0.0000000E+000	0.0000000E+000	3.5586	16.08	86.4414	0.000000000000000E+000	-8.90058e-05	-2.58116e-09	-8.90032e-05	3.7842	160899	4.66606	160895
0.251173	6.3817	0.511903	6.4022	-4.58612	240.821	3.78431	-0.0235197	1.23782e+06	7913.63	1	11	0.00510337	0.000797128	0	-0.00458878	0.000109745	9.48636e-07	-14.7383	0.00119007	0.00115091	0.000302759	-4.58799	6.40337	6.38285	0.512206	0.155696	0.0124891	0.156196	4.58612	7.91364e+06	9.86562e+07	9.89731e+07	-85.4139	0.0000000E+000	0.0000000E+000	0.0000000E+000	85.4139	0.0000000E+000	0.0000000E+000	0.0000000E+000	-85.4139	0.0000000E+000	0.0000000E+000	0.0000000E+000	-4.58612	0.0000000E+000	0.0000000E+000	0.0000000E+000	4.58612	12.4666	85.4139	0.000000000000000E+000	-8.90058e-05	-2.58116e-09	-8.90032e-05	3.7842	160899	4.66606	160895
0.160751	6.50926	0.602775	6.53711	-5.29065	240.823	3.78431	-0.0235197	1.64252e+06	13965.3	1	11	0.00509527	0.000779437	0	-0.00458878	0.000109745	6.66881e-07	6.43572	0.000855593	0.000850202	-9.59022e-05	-5.28913	6.53795	6.51011	0.602679	0.152321	0.0141053	0.152973	5.29065	1.39653e+07	1.50809e+08	1.51454e+08	-84.7094	0.0000000E+000	0.0000000E+000	0.0000000E+000	84.7094	0.0000000E+000	0.0000000E+000	0.0000000E+000	-84.7094	0.0000000E+000	0.0000000E+000	0.0000000E+000	-5.29065	0.0000000E+000	0.0000000E+000	0.0000000E+000	5.29065	10.7988	84.7094	0.000000000000000E+000	-8.90058e-05	-2.58116e-09	-8.90032e-05	3.7842	160899	4.66606	160895
0.100469	6.64276	0.844359	6.6962	-7.244	240.824	3.78431	-0.0235197	1.87611e+06	29830.2	1	11	0.0050983	0.000761372	0	-0.00458878	0.000109745	5.87412e-07	-3.67749	0.000771518	0.000769929	4.94854e-05	-7.24359	6.69697	6.64353	0.844408	0.148146	0.0188308	0.149338	7.244	2.98302e+07	2.34681e+08	2.36569e+08	-82.756	0.0000000E+000	0.0000000E+000	0.0000000E+000	82.756	0.0000000E+000	0.0000000E+000	0.0000000E+000	-82.756	0.0000000E+000	0.0000000E+000	0.0000000E+000	-7.244	0.0000000E+000	0.0000000E+000	0.0000000E+000	7.244	7.86722	82.756	0.000000000000000E+000	-8.90058e-05	-2.58116e-09	-8.90032e-05	3.7842	160899	4.66606	160895
0.0602816	6.91883	1.04127	6.99675	-8.5587	240.825	3.78431	-0.0235197	2.53554e+06	56157.5	1	11	0.00509385	0.000728031	0	-0.00458878	0.000109745	9.94535e-07	-1.96173	0.00136606	0.00136526	4.6763e-05	-8.55741	6.99811	6.9202	1.04132	0.141332	0.0212702	0.142924	8.5587	5.61575e+07	3.73143e+08	3.77345e+08	-81.4413	0.0000000E+000	0.0000000E+000	0.0000000E+000	81.4413	0.0000000E+000	0.0000000E+000	0.0000000E+000	-81.4413	0.0000000E+000	0.0000000E+000	0.0000000E+000	-8.5587	0.0000000E+000	0.0000000E+000	0.0000000E+000	8.5587	6.64458	81.4413	0.000000000000000E+000	-8.90058e-05	-2.58116e-09	-8.90032e-05	3.7842	160899	4.66606	160895
0.0401878	7.25378	1.23886	7.35881	-9.69194	240.826	3.78431	-0.0235197	3.19672e+06	90601.2	1	11	0.00509373	0.000692195	0	-0.00458878	0.000109745	6.55721e-07	-97.2113	0.000947306	-0.000118914	0.000939813	-9.69931	7.35885	7.25366	1.2398	0.133952	0.0228774	0.135892	9.69194	9.06011e+07	5.30488e+08	5.38169e+08	-80.3081	0.0000000E+000	0.0000000E+000	0.0000000E+000	80.3081	0.0000000E+000	0.0000000E+000	0.0000000E+000	-80.3081	0.0000000E+000	0.0000000E+000	0.0000000E+000	-9.69194	0.0000000E+000	0.0000000E+000	0.0000000E+000	9.69194	5.8552	80.3081	0.000000000000000E+000	-8.90058e-05	-2.58116e-09	-8.90032e-05	3.7842	160899	4.66606	160895
0.0200939	8.02395	1.73269	8.2089	-12.1853	240.827	3.78431	-0.0235197	4.57126e+06	203661	1	11	0.00509611	0.000620803	0	-0.00458878	0.000109745	1.26017e-06	25.0647	0.0020299	0.00183875	-0.000859949	-12.1768	8.21052	8.02579	1.73183	0.119074	0.0257129	0.121819	12.1853	2.03661e+08	9.43137e+08	9.64876e+08	-77.8147	0.0000000E+000	0.0000000E+000	0.0000000E+000	77.8147	0.0000000E+000	0.0000000E+000	0.0000000E+000	-77.8147	0.0000000E+000	0.0000000E+000	0.0000000E+000	-12.1853	0.0000000E+000	0.0000000E+000	0.0000000E+000	12.1853	4.63092	77.8147	0.000000000000000E+000	-8.90058e-05	-2.58116e-09	-8.90032e-05	3.7842	160899	4.66606	160895
0.00796479	9.37769	1.82589	9.55379	-11.018	20329.7	3.78431	0.0011196	1.09439e+07	399732	1	11	0.00508769	0.000532531	0	-0.0392306	0.000205201	4.38139e-07	-50.7329	0.000822748	0.000520747	0.000636974	-11.0211	9.55443	9.37821	1.82653	0.102741	0.0200043	0.10467	11.018	3.99732e+08	2.05301e+09	2.09156e+09	-78.982	0.0000000E+000	0.0000000E+000	0.0000000E+000	78.982	0.0000000E+000	0.0000000E+000	0.0000000E+000	-78.982	0.0000000E+000	0.0000000E+000	0.0000000E+000	-11.018	0.0000000E+000	0.0000000E+000	0.0000000E+000	11.018	5.13596	78.982	-0.0346419	4.23691e-06	2.29743e-10	4.23668e-06	3.7841	3.38005e+06	183.28	3.37986e+06
0.00497799	9.98039	1.74862	10.1324	-9.93765	20329.7	3.78431	0.0011196	1.8284e+07	544546	1	11	0.00509598	0.000502938	0	-0.0392306	0.000205201	4.23086e-07	-35.3626	0.000841229	0.000686027	0.00048686	-9.93969	10.1332	9.98108	1.7491	0.0972124	0.0170321	0.0986931	9.93765	5.44546e+08	3.10805e+09	3.15539e+09	-80.0623	0.0000000E+000	0.0000000E+000	0.0000000E+000	80.0623	0.0000000E+000	0.0000000E+000	0.0000000E+000	-80.0623	0.0000000E+000	0.0000000E+000	0.0000000E+000	-9.93765	0.0000000E+000	0.0000000E+000	0.0000000E+000	9.93765	5.7076	80.0623	0.000000000000000E+000	4.23691e-06	2.29743e-10	4.23668e-06	3.7841	3.38005e+06	183.28	3.37986e+06
0.00318591	10.3267	2.32678	10.5856	-12.6976	20329.7	3.78431	0.0011196	2.14699e+07	1.03731e+06	1	11	0.0050988	0.000481672	0	-0.0392306	0.000205201	4.3704e-07	-48.0859	0.000907338	0.000606116	0.000675193	-12.7005	10.5864	10.3273	2.32745	0.0921574	0.0207645	0.0944677	12.6976	1.03731e+09	4.6038e+09	4.71921e+09	-77.3024	0.0000000E+000	0.0000000E+000	0.0000000E+000	77.3024	0.0000000E+000	0.0000000E+000	0.0000000E+000	-77.3024	0.0000000E+000	0.0000000E+000	0.0000000E+000	-12.6976	0.0000000E+000	0.0000000E+000	0.0000000E+000	12.6976	4.43821	77.3024	0.000000000000000E+000	4.23691e-06	2.29743e-10	4.23668e-06	3.7841	3.38005e+06	183.28	3.37986e+06
0.0019912	10.6623	2.6635	10.9899	-14.0258	20329.7	3.78431	0.0011196	3.00091e+07	1.76266e+06	1	11	0.00510026	0.000464085	0	-0.0392306	0.000205201	4.20325e-07	-27.3824	0.000905705	0.000804227	0.000416558	-14.0269	10.9908	10.6631	2.66392	0.0882797	0.0220528	0.0909924	14.0258	1.76266e+09	7.05613e+09	7.27296e+09	-75.9742	0.0000000E+000	0.0000000E+000	0.0000000E+000	75.9742	0.0000000E+000	0.0000000E+000	0.0000000E+000	-75.9742	0.0000000E+000	0.0000000E+000	0.0000000E+000	-14.0258	0.0000000E+000	0.0000000E+000	0.0000000E+000	14.0258	4.00311	75.9742	0.000000000000000E+000	4.23691e-06	2.29743e-10	4.23668e-06	3.7841	3.38005e+06	183.28	3.37986e+06
0.00129428	10.5882	3.36073	11.1087	-17.6097	20329.7	3.78431	0.0011196	3.65898e+07	3.34887e+06	1	11	0.00510114	0.000459202	0	-0.0392306	0.000205201	4.28528e-07	5.94266	0.000933201	0.000928186	-9.66172e-05	-17.6077	11.1096	10.5891	3.36063	0.0858011	0.0272337	0.0900195	17.6097	3.34887e+09	1.05508e+10	1.10695e+10	-72.3903	0.0000000E+000	0.0000000E+000	0.0000000E+000	72.3903	0.0000000E+000	0.0000000E+000	0.0000000E+000	-72.3903	0.0000000E+000	0.0000000E+000	0.0000000E+000	-17.6097	0.0000000E+000	0.0000000E+000	0.0000000E+000	17.6097	3.15055	72.3903	0.000000000000000E+000	4.23691e-06	2.29743e-10	4.23668e-06	3.7841	3.38005e+06	183.28	3.37986e+06
0.000796479	11.3198	4.64261	12.2349	-22.3001	20329.7	3.78431	0.0011196	4.30412e+07	6.1974e+06	1	11	0.00509981	0.000416826	0	-0.0392306	0.000205201	6.18052e-07	-50.237	0.00148276	0.000948391	0.00113979	-22.3033	12.2362	11.3208	4.64375	0.0756207	0.0310144	0.0817336	22.3001	6.1974e+09	1.51108e+10	1.63323e+10	-67.7	0.0000000E+000	0.0000000E+000	0.0000000E+000	67.7	0.0000000E+000	0.0000000E+000	0.0000000E+000	-67.7	0.0000000E+000	0.0000000E+000	0.0000000E+000	-22.3001	0.0000000E+000	0.0000000E+000	0.0000000E+000	22.3001	2.43825	67.7	0.000000000000000E+000	4.23691e-06	2.29743e-10	4.23668e-06	3.7841	3.38005e+06	183.28	3.37986e+06
0.000497799	10.9498	6.75443	12.8655	-31.6684	20329.7	3.78431	0.0011196	4.73345e+07	1.30467e+07	1	11	0.00510038	0.000396438	0	-0.0392306	0.000205201	7.79748e-07	7.35681	0.00196688	0.00195069	-0.000251856	-31.6629	12.867	10.9518	6.75417	0.0661537	0.040807	0.0777272	31.6684	1.30467e+10	2.11505e+10	2.48507e+10	-58.3316	0.0000000E+000	0.0000000E+000	0.0000000E+000	58.3316	0.0000000E+000	0.0000000E+000	0.0000000E+000	-58.3316	0.0000000E+000	0.0000000E+000	0.0000000E+000	-31.6684	0.0000000E+000	0.0000000E+000	0.0000000E+000	31.6684	1.62114	58.3316	0.000000000000000E+000	4.23691e-06	2.29743e-10	4.23668e-06	3.7841	3.38005e+06	183.28	3.37986e+06
0.000298679	10.8097	10.3078	14.9366	-43.6387	20329.7	3.78431	0.0011196	5.16948e+07	2.46196e+07	1	11	0.00510169	0.000341557	0	-0.0392306	0.000205201	1.26715e-06	-91.0772	0.00370991	-6.97424e-05	0.00370925	-43.6491	14.9391	10.8096	10.3116	0.048452	0.0462026	0.0669498	43.6387	2.46196e+10	2.58182e+10	3.5675e+10	-46.3613	0.0000000E+000	0.0000000E+000	0.0000000E+000	46.3613	0.0000000E+000	0.0000000E+000	0.0000000E+000	-46.3613	0.0000000E+000	0.0000000E+000	0.0000000E+000	-43.6387	0.0000000E+000	0.0000000E+000	0.0000000E+000	43.6387	1.04869	46.3613	0.000000000000000E+000	4.23691e-06	2.29743e-10	4.23668e-06	3.7841	3.38005e+06	183.28	3.37986e+06
9.95598e-05	12.6198	35.0979	37.2977	-70.2234	20329.7	3.78431	0.0011196	4.55465e+07	4.03322e+07	1	11	0.00509984	0.000136733	0	-0.0392306	0.000205201	1.05033e-06	-66.0645	0.00768163	0.0031165	0.00702103	-70.2225	37.3054	12.6229	35.1049	0.0090717	0.0252299	0.0268113	70.2234	4.03322e+10	1.45019e+10	4.28602e+10	-19.7766	0.0000000E+000	0.0000000E+000	0.0000000E+000	19.7766	0.0000000E+000	0.0000000E+000	0.0000000E+000	-19.7766	0.0000000E+000	0.0000000E+000	0.0000000E+000	-70.2234	0.0000000E+000	0.0000000E+000	0.0000000E+000	70.2234	0.359561	19.7766	0.000000000000000E+000	4.23691e-06	2.29743e-10	4.23668e-06	3.7841	3.38005e+06	183.28	3.37986e+06