File: txt/17221_R278_UC78_50SOC_C01.mpt
EC-Lab ASCII FILE
Nb header lines : 64

Potentio Electrochemical Impedance Spectroscopy

Run on channel : 1 (SN 66354)
User :
CE vs. WE compliance from -10 V to 10 V
Electrode connection : standard
Potential control : Ewe
Ewe ctrl range : min = -10.00 V, max = 10.00 V
Safety Limits :
	Do not start on E overload
Acquisition started on : 09/02/2025 16:40:31.254
Loaded Setting File :  C:\Users\Celltest\OneDrive - store-dot.com\Documents\EC-Lab\Data\Michael\R278\UC74_NCMA_16706_EIS_50_SOC.mps
Saved on :
	File : UC78_17221_EIS_50SOC_C01.mpr
	Directory : C:\Users\Celltest\OneDrive - store-dot.com\Documents\EC-Lab\Data\Michael\R278\
	Host : 169.254.61.224
Device : VMP-3e (SN .003165)
Address : USB
EC-LAB for windows v11.62 (software)
Internet server v27.00 (firmware)
Command interpretor v12.03 (firmware)
Electrode material :
Initial state :
Electrolyte :
Comments :
Electrode surface area : 0.001 cm²
Characteristic mass : 0.001 g
Equivalent Weight : 0.000 g/eq.
Density : 0.000 g/cm3
Volume (V) : 0.001 cm³
Record Ece
Cycle Definition : Charge/Discharge alternance
Mode                Multi sine
E (V)               0.0000
vs.                 Eoc
tE (h:m:s)          0:00:0.0000
record              0
dI                  0.000
unit dI             mA
dt (s)              0.000
fi                  1.000
unit fi             MHz
ff                  0.100
unit ff             mHz
Nd                  10
Points              per decade
spacing             Logarithmic
Va (mV)             5.0
pw                  0.10
Na                  2
corr                0
E range min (V)     -10.000
E range max (V)     10.000
I Range             Auto
Bandwidth           5
nc cycles           0
goto Ns'            0
nr cycles           0
inc. cycle          0

freq/Hz	Re(Z)/Ohm	-Im(Z)/Ohm	|Z|/Ohm	Phase(Z)/deg	time/s	<Ewe>/V	<I>/mA	Cs/µF	Cp/µF	cycle number	I Range	|Ewe|/V	|I|/A	Ns	(Q-Qo)/mA.h	<Ece>/V	|Ece|/V	Phase(Zce)/deg	|Zce|/Ohm	Re(Zce)/Ohm	-Im(Zce)/Ohm	Phase(Zwe-ce)/deg	|Zwe-ce|/Ohm	Re(Zwe-ce)/Ohm	-Im(Zwe-ce)/Ohm	Re(Y)/Ohm-1	Im(Y)/Ohm-1	|Y|/Ohm-1	Phase(Y)/deg	Re(C)/nF	Im(C)/nF	|C|/nF	Phase(C)/deg	Re(M)	Im(M)	|M|	Phase(M)/deg	Re(Permittivity)	Im(Permittivity)	|Permittivity|	Phase(Permittivity)/deg	Re(Resistivity)/Ohm.cm	Im(Resistivity)/Ohm.cm	|Resistivity|/Ohm.cm	Phase(Resistivity)/deg	Re(Conductivity)/mS/cm	Im(Conductivity)/mS/cm	|Conductivity|/mS/cm	Phase(Conductivity)/deg	Tan(Delta)	Loss Angle(Delta)/deg	dq/mA.h	Pwe/W	Pce/W	Pwe-ce/W	<Ewe-Ece>/V	Rwe/Ohm	Rce/Ohm	Rwe-ce/Ohm		Ewe-Ece/V
1.00002e+06	1.01663	-0.27987	1.05445	15.3919	2.72652	3.7853	0.14376	-0.568663	-0.0400609	1	9	0.000215065	0.00020396	0	2.98436e-05	-0.0003018	0.000185626	-6.67759	0.910111	0.903937	0.10583	5.17798	1.92843	1.92056	-0.174041	0.914351	-0.251715	0.948366	-15.3919	-40.0609	145.521	150.934	-105.392	0.0000000E+000	0.0000000E+000	0.0000000E+000	105.392	0.0000000E+000	0.0000000E+000	0.0000000E+000	-105.392	0.0000000E+000	0.0000000E+000	0.0000000E+000	15.3919	0.0000000E+000	0.0000000E+000	0.0000000E+000	-15.3919	3.63249	74.6081	2.98436e-05	0.000544174	-4.33868e-08	0.000544218	3.7856	26330.7	2.09934	26332.8
630957	0.426824	0.138045	0.448592	-17.9224	3.49654	3.78502	0.105313	1.82726	0.173036	1	9	0.000152752	0.000340515	0	5.10365e-05	0.000346828	0.000126327	-108.606	0.370988	-0.118367	0.351598	-57.7906	0.578702	0.308457	0.489643	2.12102	0.685988	2.2292	17.9224	173.036	535.015	562.301	-72.0776	0.0000000E+000	0.0000000E+000	0.0000000E+000	72.0776	0.0000000E+000	0.0000000E+000	0.0000000E+000	-72.0776	0.0000000E+000	0.0000000E+000	0.0000000E+000	-17.9224	0.0000000E+000	0.0000000E+000	0.0000000E+000	17.9224	3.09192	72.0776	1.05446e-05	0.000398613	3.65256e-08	0.000398577	3.78467	35940.5	3.2933	35937.2
398103	0.604875	0.127049	0.618074	-11.862	4.26256	3.78507	0.119805	3.14669	0.132958	1	9	0.000592236	0.000958196	0	7.28568e-05	-0.000206414	6.96288e-05	170.727	0.0726665	-0.0717168	-0.0117097	-12.2068	0.545492	0.533158	0.115339	1.58338	0.332575	1.61793	11.862	132.958	633.008	646.82	-78.138	0.0000000E+000	0.0000000E+000	0.0000000E+000	78.138	0.0000000E+000	0.0000000E+000	0.0000000E+000	-78.138	0.0000000E+000	0.0000000E+000	0.0000000E+000	-11.862	0.0000000E+000	0.0000000E+000	0.0000000E+000	11.862	4.76097	78.138	1.08363e-05	0.000453471	-2.47295e-08	0.000453496	3.78527	31593.5	1.72291	31595.2
251206	0.733527	0.254617	0.776461	-19.1426	5.02854	3.78502	0.106282	2.48829	0.267571	1	9	0.00201315	0.00259272	0	9.33517e-05	-0.000111027	6.13351e-05	112.738	0.0236566	-0.00914383	-0.021818	-17.8162	0.760872	0.724383	0.232799	1.21668	0.422327	1.28789	19.1426	267.571	770.844	815.962	-70.8574	0.0000000E+000	0.0000000E+000	0.0000000E+000	70.8574	0.0000000E+000	0.0000000E+000	0.0000000E+000	-70.8574	0.0000000E+000	0.0000000E+000	0.0000000E+000	-19.1426	0.0000000E+000	0.0000000E+000	0.0000000E+000	19.1426	2.8809	70.8574	1.09521e-05	0.000402279	-1.18002e-08	0.000402291	3.78513	35612.9	1.04465	35614
158486	0.860712	0.353208	0.930366	-22.3116	5.79455	3.78495	0.0877295	2.84314	0.409781	1	9	0.00510648	0.00548868	0	0.000106342	6.06685e-05	6.94812e-05	92.8295	0.012659	-0.0006249	-0.0126436	-21.6018	0.925058	0.860087	0.340564	0.994375	0.408059	1.07485	22.3116	409.781	998.572	1079.38	-67.6884	0.0000000E+000	0.0000000E+000	0.0000000E+000	67.6884	0.0000000E+000	0.0000000E+000	0.0000000E+000	-67.6884	0.0000000E+000	0.0000000E+000	0.0000000E+000	-22.3116	0.0000000E+000	0.0000000E+000	0.0000000E+000	22.3116	2.43684	67.6884	5.07449e-06	0.000332052	5.32241e-09	0.000332046	3.78489	43143.4	0.69154	43142.7
100004	1.00435	0.392125	1.07818	-21.3271	6.56256	3.78494	0.0876922	4.05863	0.536841	1	9	0.00526413	0.00488242	0	0.000121712	-9.195e-05	7.35984e-05	125.494	0.0150742	-0.00875238	-0.012273	-20.8835	1.0656	0.995593	0.379852	0.863974	0.33732	0.927489	21.3271	536.841	1375.01	1476.09	-68.6729	0.0000000E+000	0.0000000E+000	0.0000000E+000	68.6729	0.0000000E+000	0.0000000E+000	0.0000000E+000	-68.6729	0.0000000E+000	0.0000000E+000	0.0000000E+000	-21.3271	0.0000000E+000	0.0000000E+000	0.0000000E+000	21.3271	2.56129	68.6729	2.68319e-05	0.000331909	-8.0633e-09	0.000331918	3.78503	43161.6	1.04855	43162.7
63093.8	1.14096	0.406935	1.21136	-19.6292	7.33056	3.78493	0.0928706	6.19881	0.699538	1	9	0.00533051	0.00440043	0	0.000142392	0.000175132	2.76005e-05	90.4789	0.00627224	-5.24215e-05	-0.00627202	-19.3501	1.20922	1.14091	0.400663	0.777544	0.277318	0.825518	19.6292	699.538	1961.36	2082.38	-70.3708	0.0000000E+000	0.0000000E+000	0.0000000E+000	70.3708	0.0000000E+000	0.0000000E+000	0.0000000E+000	-70.3708	0.0000000E+000	0.0000000E+000	0.0000000E+000	-19.6292	0.0000000E+000	0.0000000E+000	0.0000000E+000	19.6292	2.8038	70.3708	-5.37602e-06	0.000351508	1.62646e-08	0.000351492	3.78475	40754.9	1.88577	40753
39814.1	1.25697	0.408022	1.32154	-17.9838	8.09656	3.78494	0.0916784	9.79717	0.933918	1	9	0.00531812	0.00402419	0	0.000169064	2.25139e-05	1.29105e-05	55.8822	0.00320822	0.00179948	-0.00265604	-17.8503	1.32243	1.25877	0.405366	0.719726	0.233628	0.756695	17.9838	933.918	2877.07	3024.85	-72.0162	0.0000000E+000	0.0000000E+000	0.0000000E+000	72.0162	0.0000000E+000	0.0000000E+000	0.0000000E+000	-72.0162	0.0000000E+000	0.0000000E+000	0.0000000E+000	-17.9838	0.0000000E+000	0.0000000E+000	0.0000000E+000	17.9838	3.08065	72.0162	1.01777e-05	0.000346997	2.06403e-09	0.000346995	3.78492	41285	0.245574	41284.7
25116.9	1.37127	0.427163	1.43627	-17.3022	8.86454	3.78494	0.0873196	14.8341	1.31213	1	9	0.00524071	0.00364885	0	0.000182087	3.43655e-06	1.18236e-05	40.2826	0.00324036	0.00247196	-0.00209508	-17.1932	1.438	1.37375	0.425067	0.664744	0.207073	0.69625	17.3022	1312.13	4212.2	4411.84	-72.6978	0.0000000E+000	0.0000000E+000	0.0000000E+000	72.6978	0.0000000E+000	0.0000000E+000	0.0000000E+000	-72.6978	0.0000000E+000	0.0000000E+000	0.0000000E+000	-17.3022	0.0000000E+000	0.0000000E+000	0.0000000E+000	17.3022	3.21019	72.6978	1.2996e-05	0.000330499	3.00078e-10	0.000330499	3.78493	43345.8	0.039356	43345.7
15847.7	1.47715	0.459272	1.5469	-17.2713	9.50652	3.78494	0.0928333	21.8668	1.92751	1	9	0.0053951	0.00348768	0	0.000192693	-0.000187337	1.16635e-05	-93.8958	0.00334422	-0.000227212	0.00333649	-17.3918	1.54768	1.47693	0.462608	0.617304	0.19193	0.646453	17.2713	1927.51	6199.45	6492.19	-72.7287	0.0000000E+000	0.0000000E+000	0.0000000E+000	72.7287	0.0000000E+000	0.0000000E+000	0.0000000E+000	-72.7287	0.0000000E+000	0.0000000E+000	0.0000000E+000	-17.2713	0.0000000E+000	0.0000000E+000	0.0000000E+000	17.2713	3.21629	72.7287	4.18136e-06	0.000351368	-1.73911e-08	0.000351385	3.78512	40771.3	2.01799	40773.4
10002.2	1.5929	0.508053	1.67196	-17.69	10.0245	3.78493	0.0950685	31.3195	2.89189	1	9	0.00524746	0.00313851	0	0.000208067	-0.000130105	4.45835e-05	-59.0124	0.0142053	0.00731364	0.0121779	-18.0094	1.68265	1.60021	0.520231	0.569819	0.181743	0.598101	17.69	2891.89	9066.94	9516.95	-72.31	0.0000000E+000	0.0000000E+000	0.0000000E+000	72.31	0.0000000E+000	0.0000000E+000	0.0000000E+000	-72.31	0.0000000E+000	0.0000000E+000	0.0000000E+000	-17.69	0.0000000E+000	0.0000000E+000	0.0000000E+000	17.69	3.1353	72.31	7.47871e-06	0.000359828	-1.23689e-08	0.00035984	3.78506	39812.7	1.36854	39814.1
6309.38	1.72147	0.581653	1.81708	-18.6692	10.5425	3.78493	0.0877666	43.368	4.44376	1	9	0.00502159	0.00276355	0	0.000222966	4.15912e-05	1.10635e-05	-42.3545	0.00400335	0.00295844	0.00269712	-18.7198	1.82074	1.72443	0.58435	0.521377	0.176164	0.550334	18.6692	4443.76	13151.8	13882.3	-71.3308	0.0000000E+000	0.0000000E+000	0.0000000E+000	71.3308	0.0000000E+000	0.0000000E+000	0.0000000E+000	-71.3308	0.0000000E+000	0.0000000E+000	0.0000000E+000	-18.6692	0.0000000E+000	0.0000000E+000	0.0000000E+000	18.6692	2.95961	71.3308	7.85672e-06	0.00033219	3.65032e-09	0.000332187	3.78488	43124.9	0.473883	43124.4
3983.6	1.87989	0.676281	1.99783	-19.786	11.1051	3.78477	0.00174639	59.0768	6.76946	1	9	0.00488257	0.00244394	0	0.000229586	0.000232364	4.26529e-06	-21.474	0.00174525	0.00162411	0.000638901	-19.7874	1.99958	1.88151	0.67692	0.470993	0.169438	0.500543	19.786	6769.46	18817.3	19998	-70.214	0.0000000E+000	0.0000000E+000	0.0000000E+000	70.214	0.0000000E+000	0.0000000E+000	0.0000000E+000	-70.214	0.0000000E+000	0.0000000E+000	0.0000000E+000	-19.786	0.0000000E+000	0.0000000E+000	0.0000000E+000	19.786	2.77974	70.214	2.60401e-06	6.60967e-06	4.05798e-10	6.60926e-06	3.78454	2.1672e+06	133.054	2.16707e+06
2510.8	2.0708	0.813749	2.22495	-21.453	11.9298	3.7848	0.0474574	77.8963	10.4198	1	9	0.0048016	0.00215807	0	0.000237517	-1.56408e-05	9.36627e-06	-46.4123	0.00434011	0.00299235	0.00314363	-21.5001	2.22888	2.07379	0.816892	0.41831	0.16438	0.449448	21.453	10419.8	26515.8	28489.7	-68.547	0.0000000E+000	0.0000000E+000	0.0000000E+000	68.547	0.0000000E+000	0.0000000E+000	0.0000000E+000	-68.547	0.0000000E+000	0.0000000E+000	0.0000000E+000	-21.453	0.0000000E+000	0.0000000E+000	0.0000000E+000	21.453	2.54477	68.547	6.02653e-06	0.000179617	-7.42271e-10	0.000179618	3.78481	79751.4	0.329574	79751.7
1585.51	2.29488	0.968103	2.49072	-22.8726	12.8318	3.78479	0.050177	103.688	15.6647	1	9	0.0047596	0.00191093	0	0.00025022	0.000251442	8.40305e-06	-65.1398	0.00439736	0.00184868	0.00398988	-22.9405	2.49398	2.29673	0.972093	0.369921	0.156052	0.40149	22.8726	15664.7	37133.1	40302	-67.1274	0.0000000E+000	0.0000000E+000	0.0000000E+000	67.1274	0.0000000E+000	0.0000000E+000	0.0000000E+000	-67.1274	0.0000000E+000	0.0000000E+000	0.0000000E+000	-22.8726	0.0000000E+000	0.0000000E+000	0.0000000E+000	22.8726	2.37049	67.1274	6.84192e-06	0.00018991	1.26166e-08	0.000189897	3.78454	75428.8	5.01109	75423.8
1000.32	2.60803	1.14634	2.84884	-23.7276	13.7338	3.78479	0.0485378	138.793	22.4729	1	9	0.00472972	0.00166022	0	0.000262418	0.000384983	1.62265e-05	-3.28089	0.00977367	0.00975765	0.000559357	-23.6591	2.858	2.61779	1.1469	0.321348	0.141246	0.35102	23.7276	22472.8	51127.7	55848.6	-66.2724	0.0000000E+000	0.0000000E+000	0.0000000E+000	66.2724	0.0000000E+000	0.0000000E+000	0.0000000E+000	-66.2724	0.0000000E+000	0.0000000E+000	0.0000000E+000	-23.7276	0.0000000E+000	0.0000000E+000	0.0000000E+000	23.7276	2.27509	66.2724	4.93887e-06	0.000183705	1.86862e-08	0.000183687	3.78441	77976.1	7.9316	77968.2
631.01	3.03309	1.33044	3.31206	-23.6843	14.8806	3.78482	-0.0109949	189.578	30.5903	1	10	0.00476867	0.00143979	0	0.000268761	0.000365905	6.66959e-06	-43.335	0.00463234	0.00336935	0.003179	-23.7112	3.31642	3.03646	1.33362	0.276497	0.121283	0.301927	23.6843	30590.3	69738.7	76152.8	-66.3157	0.0000000E+000	0.0000000E+000	0.0000000E+000	66.3157	0.0000000E+000	0.0000000E+000	0.0000000E+000	-66.3157	0.0000000E+000	0.0000000E+000	0.0000000E+000	-23.6843	0.0000000E+000	0.0000000E+000	0.0000000E+000	23.6843	2.27976	66.3157	1.39755e-06	-4.16137e-05	-4.02309e-09	-4.16097e-05	3.78446	344234	33.2795	344201
398.089	3.54515	1.45493	3.8321	-22.3133	15.7818	3.78482	-0.0105253	274.787	39.6105	1	10	0.00474209	0.00123747	0	0.000265508	0.000308673	2.48535e-05	-30.3273	0.0200842	0.0173358	0.0101413	-22.3549	3.85198	3.56249	1.46508	0.241414	0.0990765	0.260954	22.3133	39610.5	96516.7	104329	-67.6867	0.0000000E+000	0.0000000E+000	0.0000000E+000	67.6867	0.0000000E+000	0.0000000E+000	0.0000000E+000	-67.6867	0.0000000E+000	0.0000000E+000	0.0000000E+000	-22.3133	0.0000000E+000	0.0000000E+000	0.0000000E+000	22.3133	2.43664	67.6867	-1.75758e-06	-3.98364e-05	-3.24888e-09	-3.98332e-05	3.78452	359593	29.3268	359563
251.044	4.09092	1.43012	4.33369	-19.2689	16.679	3.78483	-0.0105626	443.299	48.2756	1	10	0.00470468	0.00108561	0	0.000264271	0.0001179	5.6114e-06	-20.3282	0.0051689	0.00484698	0.00179566	-19.2701	4.33886	4.09577	1.43192	0.217824	0.0761479	0.23075	19.2689	48275.6	138094	146289	-70.7311	0.0000000E+000	0.0000000E+000	0.0000000E+000	70.7311	0.0000000E+000	0.0000000E+000	0.0000000E+000	-70.7311	0.0000000E+000	0.0000000E+000	0.0000000E+000	-19.2689	0.0000000E+000	0.0000000E+000	0.0000000E+000	19.2689	2.86054	70.7311	-7.9991e-07	-3.99775e-05	-1.24533e-09	-3.99763e-05	3.78471	358324	11.1621	358313
158.428	4.59864	1.26785	4.77021	-15.4136	17.5839	3.78483	-0.0108794	792.353	55.9732	1	10	0.00469824	0.000984913	0	0.00026403	-0.000320878	1.06701e-05	-48.7534	0.0108335	0.00714256	0.0081455	-15.485	4.77927	4.60578	1.276	0.202094	0.0557176	0.209634	15.4136	55973.2	203021	210596	-74.5864	0.0000000E+000	0.0000000E+000	0.0000000E+000	74.5864	0.0000000E+000	0.0000000E+000	0.0000000E+000	-74.5864	0.0000000E+000	0.0000000E+000	0.0000000E+000	-15.4136	0.0000000E+000	0.0000000E+000	0.0000000E+000	15.4136	3.62711	74.5864	-6.37383e-07	-4.11766e-05	3.49095e-09	-4.11801e-05	3.78515	347890	29.4941	347920
100.032	4.97963	1.03362	5.08577	-11.7263	18.4828	3.78482	-0.0108794	1539.29	63.581	1	10	0.00469047	0.000922273	0	0.000261248	0.000308673	1.68231e-05	-54.384	0.0182409	0.0106226	0.0148287	-11.8652	5.0992	4.99025	1.04845	0.192523	0.0399619	0.196627	11.7263	63581	306312	312841	-78.2737	0.0000000E+000	0.0000000E+000	0.0000000E+000	78.2737	0.0000000E+000	0.0000000E+000	0.0000000E+000	-78.2737	0.0000000E+000	0.0000000E+000	0.0000000E+000	-11.7263	0.0000000E+000	0.0000000E+000	0.0000000E+000	11.7263	4.81767	78.2737	-8.36827e-07	-4.11765e-05	-3.35817e-09	-4.11731e-05	3.78451	347890	28.3724	347861
63.0823	5.23378	0.796792	5.29408	-8.65626	19.3999	3.78484	-0.00748786	3166.41	71.726	1	10	0.0046941	0.00088667	0	0.000259789	0.000213287	1.00069e-05	5.57738	0.0112859	0.0112325	-0.00109688	-8.62629	5.30502	5.24501	0.795695	0.186739	0.0284291	0.18889	8.65626	71725.9	471136	476565	-81.3437	0.0000000E+000	0.0000000E+000	0.0000000E+000	81.3437	0.0000000E+000	0.0000000E+000	0.0000000E+000	-81.3437	0.0000000E+000	0.0000000E+000	0.0000000E+000	-8.65626	0.0000000E+000	0.0000000E+000	0.0000000E+000	8.65626	6.56856	81.3437	-1.23157e-06	-2.83403e-05	-1.59706e-09	-2.83387e-05	3.78462	505463	28.4844	505435
39.8089	5.4056	0.590828	5.43779	-6.23762	20.3009	3.78484	-0.00980601	6766.73	79.8832	1	10	0.00468924	0.000862342	0	0.000255844	7.97458e-05	3.43507e-06	9.13807	0.00398342	0.00393287	-0.000632624	-6.2265	5.44163	5.40953	0.590195	0.182809	0.0199809	0.183898	6.23762	79883.2	730867	735220	-83.7624	0.0000000E+000	0.0000000E+000	0.0000000E+000	83.7624	0.0000000E+000	0.0000000E+000	0.0000000E+000	-83.7624	0.0000000E+000	0.0000000E+000	0.0000000E+000	-6.23762	0.0000000E+000	0.0000000E+000	0.0000000E+000	6.23762	9.1492	83.7624	-1.71783e-06	-3.71142e-05	-7.81988e-10	-3.71134e-05	3.78476	385971	8.13233	385963
25.1044	5.50393	0.431779	5.52084	-4.48562	21.18	3.78484	-0.00942587	14682.8	89.8092	1	10	0.00469022	0.000849547	0	0.000253463	9.88231e-05	4.36113e-06	79.4799	0.00513347	0.00093727	-0.00504718	-4.43265	5.52138	5.50487	0.426732	0.180577	0.0141661	0.181132	4.48562	89809.3	1.14481e+06	1.14832e+06	-85.5144	0.0000000E+000	0.0000000E+000	0.0000000E+000	85.5144	0.0000000E+000	0.0000000E+000	0.0000000E+000	-85.5144	0.0000000E+000	0.0000000E+000	0.0000000E+000	-4.48562	0.0000000E+000	0.0000000E+000	0.0000000E+000	4.48562	12.7471	85.5144	-1.07868e-06	-3.56754e-05	-9.31493e-10	-3.56745e-05	3.78475	401538	10.4842	401528
15.8576	5.55201	0.319462	5.56119	-3.29316	22.058	3.78485	-0.012918	31417	103.673	1	10	0.00468528	0.000842496	0	0.000247787	3.43655e-06	7.77374e-06	-51.8778	0.00922704	0.00569622	0.00725887	-3.36437	5.5673	5.55771	0.326721	0.179521	0.0103296	0.179818	3.29316	103673	1.80176e+06	1.80474e+06	-86.7068	0.0000000E+000	0.0000000E+000	0.0000000E+000	86.7068	0.0000000E+000	0.0000000E+000	0.0000000E+000	-86.7068	0.0000000E+000	0.0000000E+000	0.0000000E+000	-3.29316	0.0000000E+000	0.0000000E+000	0.0000000E+000	3.29316	17.3793	86.7068	-3.38334e-06	-4.88927e-05	-4.43934e-11	-4.88927e-05	3.78484	292990	0.266028	292990
10.0032	5.60055	0.247465	5.60602	-2.53002	23.0398	3.78483	-0.0105924	64293.5	125.281	1	10	0.00468274	0.000835306	0	0.00024983	0.000442215	5.83319e-06	-21.847	0.0069833	0.00648176	0.00259869	-2.5536	5.61261	5.60704	0.250064	0.178206	0.00787418	0.17838	2.53002	125281	2.83533e+06	2.83809e+06	-87.47	0.0000000E+000	0.0000000E+000	0.0000000E+000	87.47	0.0000000E+000	0.0000000E+000	0.0000000E+000	-87.47	0.0000000E+000	0.0000000E+000	0.0000000E+000	-2.53002	0.0000000E+000	0.0000000E+000	0.0000000E+000	2.53002	22.6317	87.47	-2.46386e-06	-4.00904e-05	-4.68412e-09	-4.00857e-05	3.78439	357315	41.7483	357274
6.31058	5.63633	0.224955	5.64082	-2.28555	23.9643	3.78484	-0.0101116	112113	178.304	1	10	0.00468282	0.000830167	0	0.000243978	-1.56408e-05	7.88804e-06	20.6059	0.00950176	0.00889387	-0.00334403	-2.24807	5.64957	5.64522	0.221611	0.177138	0.00706986	0.177279	2.28555	178305	4.46749e+06	4.47104e+06	-87.7144	0.0000000E+000	0.0000000E+000	0.0000000E+000	87.7144	0.0000000E+000	0.0000000E+000	0.0000000E+000	-87.7144	0.0000000E+000	0.0000000E+000	0.0000000E+000	-2.28555	0.0000000E+000	0.0000000E+000	0.0000000E+000	2.28555	25.0554	87.7144	-7.61512e-06	-3.82709e-05	1.58154e-10	-3.8271e-05	3.78485	374306	1.54681	374307
3.97785	5.67271	0.209534	5.67658	-2.11539	24.9714	3.78487	0.000362936	190949	260.168	1	10	0.00468043	0.000824516	0	0.000256004	0.000327751	3.12992e-06	-37.6581	0.00379607	0.00300524	0.0023192	-2.13765	5.67967	5.67571	0.211853	0.176042	0.00650252	0.176163	2.11539	260168	7.04351e+06	7.04831e+06	-87.8846	0.0000000E+000	0.0000000E+000	0.0000000E+000	87.8846	0.0000000E+000	0.0000000E+000	0.0000000E+000	-87.8846	0.0000000E+000	0.0000000E+000	0.0000000E+000	-2.11539	0.0000000E+000	0.0000000E+000	0.0000000E+000	2.11539	27.0729	87.8846	6.53674e-06	1.37366e-06	1.18953e-10	1.37354e-06	3.78454	1.04285e+07	903.054	1.04276e+07
2.51367	5.73075	0.220544	5.73499	-2.2039	26.974	3.78487	0.00271188	287088	424.562	1	11	0.00468877	0.000817571	0	0.000238461	6.06685e-05	7.02385e-06	-11.9366	0.00859112	0.00840536	0.00177689	-2.21839	5.74346	5.73916	0.222321	0.174239	0.00670548	0.174368	2.2039	424562	1.10321e+07	1.10402e+07	-87.7961	0.0000000E+000	0.0000000E+000	0.0000000E+000	87.7961	0.0000000E+000	0.0000000E+000	0.0000000E+000	-87.7961	0.0000000E+000	0.0000000E+000	0.0000000E+000	-2.2039	0.0000000E+000	0.0000000E+000	0.0000000E+000	2.2039	25.9846	87.7961	-1.10002e-05	1.02641e-05	1.64526e-10	1.02639e-05	3.78481	1.39566e+06	22.3714	1.39564e+06
1.58469	5.77355	0.241038	5.77858	-2.39063	29.4093	3.78487	0.00119426	416670	724.97	1	11	0.00468625	0.000810969	0	0.000264991	0.0001179	6.22546e-06	66.6931	0.00767657	0.00303728	-0.00705015	-2.31957	5.78133	5.77659	0.233988	0.172902	0.00721843	0.173053	2.39063	724970	1.73651e+07	1.73802e+07	-87.6094	0.0000000E+000	0.0000000E+000	0.0000000E+000	87.6094	0.0000000E+000	0.0000000E+000	0.0000000E+000	-87.6094	0.0000000E+000	0.0000000E+000	0.0000000E+000	-2.39063	0.0000000E+000	0.0000000E+000	0.0000000E+000	2.39063	23.9529	87.6094	1.85267e-05	4.52012e-06	1.40804e-10	4.51997e-06	3.78475	3.16922e+06	98.7227	3.16913e+06
1.00469	5.79498	0.267273	5.80114	-2.64069	240.226	3.78486	-0.00288868	592695	1258.1	1	11	0.00500855	0.000863373	0	-0.00287741	-0.000111027	4.98587e-07	-6.86117	0.000577487	0.000573352	6.8989e-05	-2.64111	5.80172	5.79556	0.267342	0.172197	0.00794196	0.17238	2.64069	1.2581e+06	2.72779e+07	2.73069e+07	-87.3593	0.0000000E+000	0.0000000E+000	0.0000000E+000	87.3593	0.0000000E+000	0.0000000E+000	0.0000000E+000	-87.3593	0.0000000E+000	0.0000000E+000	0.0000000E+000	-2.64069	0.0000000E+000	0.0000000E+000	0.0000000E+000	2.64069	21.6819	87.3593	-0.00315772	-1.09332e-05	3.20722e-10	-1.09335e-05	3.78497	1.31024e+06	38.4354	1.31028e+06
0.632957	5.86074	0.326131	5.86981	-3.18504	240.227	3.78486	-0.00288868	771000	2380.07	1	11	0.0050212	0.000855429	0	-0.00287741	-0.000111027	4.60595e-07	9.61237	0.000538437	0.000530877	-8.99091e-05	-3.18387	5.87033	5.86127	0.326041	0.1701	0.00946551	0.170363	3.18504	2.38007e+06	4.27711e+07	4.28373e+07	-86.815	0.0000000E+000	0.0000000E+000	0.0000000E+000	86.815	0.0000000E+000	0.0000000E+000	0.0000000E+000	-86.815	0.0000000E+000	0.0000000E+000	0.0000000E+000	-3.18504	0.0000000E+000	0.0000000E+000	0.0000000E+000	3.18504	17.9705	86.815	0.000000000000000E+000	-1.09332e-05	3.20722e-10	-1.09335e-05	3.78497	1.31024e+06	38.4354	1.31028e+06
0.401878	5.91876	0.411173	5.93303	-3.97392	240.228	3.78486	-0.00288868	963167	4625.93	1	11	0.00503465	0.000848581	0	-0.00287741	-0.000111027	3.69035e-07	-13.9031	0.000434884	0.000422144	0.000104494	-3.97465	5.93346	5.91918	0.411278	0.168143	0.0116808	0.168548	3.97392	4.62593e+06	6.65893e+07	6.67498e+07	-86.0261	0.0000000E+000	0.0000000E+000	0.0000000E+000	86.0261	0.0000000E+000	0.0000000E+000	0.0000000E+000	-86.0261	0.0000000E+000	0.0000000E+000	0.0000000E+000	-3.97392	0.0000000E+000	0.0000000E+000	0.0000000E+000	3.97392	14.3948	86.0261	0.000000000000000E+000	-1.09332e-05	3.20722e-10	-1.09335e-05	3.78497	1.31024e+06	38.4354	1.31028e+06
0.251173	6.03426	0.542612	6.0586	-5.13833	240.228	3.78486	-0.00288868	1.16777e+06	9366.79	1	11	0.00503606	0.000831225	0	-0.00287741	-0.000111027	4.85259e-07	-27.0067	0.000583788	0.000520128	0.000265095	-5.14038	6.05914	6.03478	0.542877	0.164391	0.0147824	0.165055	5.13833	9.36679e+06	1.04166e+08	1.04586e+08	-84.8617	0.0000000E+000	0.0000000E+000	0.0000000E+000	84.8617	0.0000000E+000	0.0000000E+000	0.0000000E+000	-84.8617	0.0000000E+000	0.0000000E+000	0.0000000E+000	-5.13833	0.0000000E+000	0.0000000E+000	0.0000000E+000	5.13833	11.1208	84.8617	0.000000000000000E+000	-1.09332e-05	3.20722e-10	-1.09335e-05	3.78497	1.31024e+06	38.4354	1.31028e+06
0.160751	6.16619	0.61933	6.19722	-5.73553	240.229	3.78486	-0.00288868	1.59862e+06	15966	1	11	0.00503151	0.000811898	0	-0.00287741	-0.000111027	2.86782e-07	26.3045	0.000353225	0.000316649	-0.000156529	-5.7338	6.19752	6.16651	0.619174	0.160555	0.0161261	0.161363	5.73553	1.5966e+07	1.58961e+08	1.59761e+08	-84.2645	0.0000000E+000	0.0000000E+000	0.0000000E+000	84.2645	0.0000000E+000	0.0000000E+000	0.0000000E+000	-84.2645	0.0000000E+000	0.0000000E+000	0.0000000E+000	-5.73553	0.0000000E+000	0.0000000E+000	0.0000000E+000	5.73553	9.95623	84.2645	0.000000000000000E+000	-1.09332e-05	3.20722e-10	-1.09335e-05	3.78497	1.31024e+06	38.4354	1.31028e+06
0.100469	6.30284	0.869298	6.36251	-7.85278	240.23	3.78486	-0.00288868	1.82229e+06	34017.2	1	11	0.00503299	0.000791039	0	-0.00287741	-0.000111027	5.50559e-07	-18.0821	0.000695994	0.000661621	0.000216022	-7.85389	6.36319	6.30351	0.869514	0.155697	0.0214739	0.157171	7.85278	3.40172e+07	2.46641e+08	2.48976e+08	-82.1472	0.0000000E+000	0.0000000E+000	0.0000000E+000	82.1472	0.0000000E+000	0.0000000E+000	0.0000000E+000	-82.1472	0.0000000E+000	0.0000000E+000	0.0000000E+000	-7.85278	0.0000000E+000	0.0000000E+000	0.0000000E+000	7.85278	7.2505	82.1472	0.000000000000000E+000	-1.09332e-05	3.20722e-10	-1.09335e-05	3.78497	1.31024e+06	38.4354	1.31028e+06
0.0602816	6.59433	1.05851	6.67875	-9.11925	240.231	3.78486	-0.00288868	2.49424e+06	62653	1	11	0.00502956	0.00075307	0	-0.00287741	-0.000111027	5.19431e-07	91.1699	0.000689752	-1.40822e-05	-0.000689608	-9.11343	6.67862	6.59432	1.05782	0.147836	0.0237305	0.149729	9.11925	6.26529e+07	3.90316e+08	3.95312e+08	-80.8808	0.0000000E+000	0.0000000E+000	0.0000000E+000	80.8808	0.0000000E+000	0.0000000E+000	0.0000000E+000	-80.8808	0.0000000E+000	0.0000000E+000	0.0000000E+000	-9.11925	0.0000000E+000	0.0000000E+000	0.0000000E+000	9.11925	6.2298	80.8808	0.000000000000000E+000	-1.09332e-05	3.20722e-10	-1.09335e-05	3.78497	1.31024e+06	38.4354	1.31028e+06
0.0401878	6.93621	1.25445	7.04874	-10.2515	240.232	3.78486	-0.00288868	3.15698e+06	99990.5	1	11	0.00502857	0.000713401	0	-0.00287741	-0.000111027	3.33831e-07	13.0312	0.000467943	0.000455892	-0.000105513	-10.25	7.04916	6.93667	1.25435	0.139605	0.0252483	0.141869	10.2515	9.99905e+07	5.52874e+08	5.61843e+08	-79.7485	0.0000000E+000	0.0000000E+000	0.0000000E+000	79.7485	0.0000000E+000	0.0000000E+000	0.0000000E+000	-79.7485	0.0000000E+000	0.0000000E+000	0.0000000E+000	-10.2515	0.0000000E+000	0.0000000E+000	0.0000000E+000	10.2515	5.52926	79.7485	0.000000000000000E+000	-1.09332e-05	3.20722e-10	-1.09335e-05	3.78497	1.31024e+06	38.4354	1.31028e+06
0.0200939	7.72906	1.71948	7.91801	-12.5423	240.232	3.78486	-0.00288868	4.60639e+06	217230	1	11	0.00502996	0.000635255	0	-0.00287741	-0.000111027	7.33156e-07	46.0757	0.00115411	0.000800616	-0.000831258	-12.5351	7.91862	7.72986	1.71864	0.12328	0.0274261	0.126294	12.5423	2.1723e+08	9.76451e+08	1.00032e+09	-77.4577	0.0000000E+000	0.0000000E+000	0.0000000E+000	77.4577	0.0000000E+000	0.0000000E+000	0.0000000E+000	-77.4577	0.0000000E+000	0.0000000E+000	0.0000000E+000	-12.5423	0.0000000E+000	0.0000000E+000	0.0000000E+000	12.5423	4.49501	77.4577	0.000000000000000E+000	-1.09332e-05	3.20722e-10	-1.09335e-05	3.78497	1.31024e+06	38.4354	1.31028e+06
0.00796479	8.96247	1.81457	9.14432	-11.4455	20329.1	3.78484	0.00199074	1.10122e+07	433626	1	11	0.00502145	0.000549133	0	-0.031333	0.000175132	5.43012e-07	-14.9828	0.000988852	0.000955234	0.000255647	-11.4459	9.14531	8.96343	1.81482	0.107183	0.0217005	0.109358	11.4455	4.33626e+08	2.14176e+09	2.18522e+09	-78.5545	0.0000000E+000	0.0000000E+000	0.0000000E+000	78.5545	0.0000000E+000	0.0000000E+000	0.0000000E+000	-78.5545	0.0000000E+000	0.0000000E+000	0.0000000E+000	-11.4455	0.0000000E+000	0.0000000E+000	0.0000000E+000	11.4455	4.93919	78.5545	-0.0284556	7.53464e-06	3.48643e-10	7.53429e-06	3.78467	1.90122e+06	87.9734	1.90113e+06
0.00497799	9.55519	1.65708	9.69781	-9.8385	20329.1	3.78484	0.00199074	1.9294e+07	563329	1	11	0.00502931	0.000518603	0	-0.031333	0.000175132	4.56735e-07	-14.0415	0.000880703	0.000854388	0.00021368	-9.83888	9.69869	9.55604	1.65729	0.1016	0.0176196	0.103116	9.8385	5.63329e+08	3.24831e+09	3.2968e+09	-80.1615	0.0000000E+000	0.0000000E+000	0.0000000E+000	80.1615	0.0000000E+000	0.0000000E+000	0.0000000E+000	-80.1615	0.0000000E+000	0.0000000E+000	0.0000000E+000	-9.8385	0.0000000E+000	0.0000000E+000	0.0000000E+000	9.8385	5.76628	80.1615	0.000000000000000E+000	7.53464e-06	3.48643e-10	7.53429e-06	3.78467	1.90122e+06	87.9734	1.90113e+06
0.00318591	9.90307	2.30707	10.1683	-13.114	20329.1	3.78484	0.00199074	2.16534e+07	1.11469e+06	1	11	0.00503148	0.000494823	0	-0.031333	0.000175132	6.60481e-07	-42.7679	0.00133478	0.000979879	0.000906357	-13.1177	10.1694	9.90405	2.30797	0.0957805	0.0223135	0.0983453	13.114	1.11469e+09	4.78479e+09	4.91292e+09	-76.886	0.0000000E+000	0.0000000E+000	0.0000000E+000	76.886	0.0000000E+000	0.0000000E+000	0.0000000E+000	-76.886	0.0000000E+000	0.0000000E+000	0.0000000E+000	-13.114	0.0000000E+000	0.0000000E+000	0.0000000E+000	13.114	4.2925	76.886	0.000000000000000E+000	7.53464e-06	3.48643e-10	7.53429e-06	3.78467	1.90122e+06	87.9734	1.90113e+06
0.0019912	10.1958	2.66282	10.5378	-14.6369	20329.1	3.78484	0.00199074	3.00168e+07	1.91668e+06	1	11	0.00503531	0.000477833	0	-0.031333	0.000175132	5.54849e-07	-33.2319	0.00116118	0.000971277	0.000636359	-14.6389	10.5389	10.1968	2.66346	0.0918168	0.0239796	0.0948965	14.6369	1.91667e+09	7.33885e+09	7.58501e+09	-75.3631	0.0000000E+000	0.0000000E+000	0.0000000E+000	75.3631	0.0000000E+000	0.0000000E+000	0.0000000E+000	-75.3631	0.0000000E+000	0.0000000E+000	0.0000000E+000	-14.6369	0.0000000E+000	0.0000000E+000	0.0000000E+000	14.6369	3.82895	75.3631	0.000000000000000E+000	7.53464e-06	3.48643e-10	7.53429e-06	3.78467	1.90122e+06	87.9734	1.90113e+06
0.00129428	10.0644	3.33378	10.6022	-18.3271	20329.1	3.78484	0.00199074	3.68856e+07	3.64699e+06	1	11	0.00503619	0.000475013	0	-0.031333	0.000175132	4.95635e-07	57.7988	0.00104341	0.000556029	-0.000882919	-18.3216	10.6025	10.065	3.33289	0.0895356	0.029658	0.0943198	18.3271	3.64699e+09	1.101e+10	1.15983e+10	-71.6729	0.0000000E+000	0.0000000E+000	0.0000000E+000	71.6729	0.0000000E+000	0.0000000E+000	0.0000000E+000	-71.6729	0.0000000E+000	0.0000000E+000	0.0000000E+000	-18.3271	0.0000000E+000	0.0000000E+000	0.0000000E+000	18.3271	3.01893	71.6729	0.000000000000000E+000	7.53464e-06	3.48643e-10	7.53429e-06	3.78467	1.90122e+06	87.9734	1.90113e+06
0.000796479	10.7663	4.58741	11.7029	-23.0784	20329.1	3.78484	0.00199074	4.35591e+07	6.69312e+06	1	11	0.00503501	0.000430238	0	-0.031333	0.000175132	1.27569e-07	-76.1844	0.000296507	7.08053e-05	0.000287929	-23.0795	11.703	10.7664	4.5877	0.0786106	0.0334952	0.0854491	23.0784	6.69312e+09	1.57082e+10	1.70747e+10	-66.9216	0.0000000E+000	0.0000000E+000	0.0000000E+000	66.9216	0.0000000E+000	0.0000000E+000	0.0000000E+000	-66.9216	0.0000000E+000	0.0000000E+000	0.0000000E+000	-23.0784	0.0000000E+000	0.0000000E+000	0.0000000E+000	23.0784	2.34692	66.9216	0.000000000000000E+000	7.53464e-06	3.48643e-10	7.53429e-06	3.78467	1.90122e+06	87.9734	1.90113e+06
0.000497799	10.3187	6.71099	12.3091	-33.0388	20329.1	3.78484	0.00199074	4.76408e+07	1.41612e+07	1	11	0.00503212	0.000408814	0	-0.031333	0.000175132	8.31613e-07	-10.3502	0.00203421	0.00200111	0.000365476	-33.0351	12.311	10.3207	6.71136	0.0681043	0.044293	0.0812408	33.0388	1.41612e+10	2.17741e+10	2.59741e+10	-56.9612	0.0000000E+000	0.0000000E+000	0.0000000E+000	56.9612	0.0000000E+000	0.0000000E+000	0.0000000E+000	-56.9612	0.0000000E+000	0.0000000E+000	0.0000000E+000	-33.0388	0.0000000E+000	0.0000000E+000	0.0000000E+000	33.0388	1.53759	56.9612	0.000000000000000E+000	7.53464e-06	3.48643e-10	7.53429e-06	3.78467	1.90122e+06	87.9734	1.90113e+06
0.000298679	10.2022	10.2556	14.4659	-45.1496	20329.1	3.78484	0.00199074	5.19582e+07	2.61147e+07	1	11	0.00503636	0.000348154	0	-0.031333	0.000175132	6.68504e-07	32.2537	0.00192014	0.00162385	-0.00102472	-45.1422	14.4663	10.2038	10.2546	0.0487532	0.0490085	0.0691282	45.1496	2.61147e+10	2.59787e+10	3.68358e+10	-44.8504	0.0000000E+000	0.0000000E+000	0.0000000E+000	44.8504	0.0000000E+000	0.0000000E+000	0.0000000E+000	-44.8504	0.0000000E+000	0.0000000E+000	0.0000000E+000	-45.1496	0.0000000E+000	0.0000000E+000	0.0000000E+000	45.1496	0.994792	44.8504	0.000000000000000E+000	7.53464e-06	3.48643e-10	7.53429e-06	3.78467	1.90122e+06	87.9734	1.90113e+06
9.95598e-05	12.2056	35.5608	37.5971	-71.0562	20329.1	3.78484	0.00199074	4.49536e+07	4.02159e+07	1	11	0.00503491	0.000133917	0	-0.031333	0.000175132	1.47287e-06	-89.0585	0.0109984	0.000180721	0.0109969	-71.0613	37.6076	12.2058	35.5718	0.00863473	0.0251572	0.0265978	71.0562	4.02159e+10	1.38034e+10	4.25188e+10	-18.9438	0.0000000E+000	0.0000000E+000	0.0000000E+000	18.9438	0.0000000E+000	0.0000000E+000	0.0000000E+000	-18.9438	0.0000000E+000	0.0000000E+000	0.0000000E+000	-71.0562	0.0000000E+000	0.0000000E+000	0.0000000E+000	71.0562	0.343232	18.9438	0.000000000000000E+000	7.53464e-06	3.48643e-10	7.53429e-06	3.78467	1.90122e+06	87.9734	1.90113e+06