File: txt/17225_R278_UC78_50SOC_C04.mpt
EC-Lab ASCII FILE
Nb header lines : 65

Potentio Electrochemical Impedance Spectroscopy

Run on channel : 4 (SN 66756)
User :
CE vs. WE compliance from -10 V to 10 V
Electrode connection : standard
Potential control : Ewe
Ewe ctrl range : min = -10.00 V, max = 10.00 V
Safety Limits :
	Do not start on E overload
Acquisition started on : 09/02/2025 16:41:37.792
Technique started on : 09/02/2025 16:41:40.027
Loaded Setting File :  C:\Users\Celltest\OneDrive - store-dot.com\Documents\EC-Lab\Data\Michael\R278\UC74_NCMA_16706_EIS_50_SOC.mps
Saved on :
	File : UC79_17225_EIS_50SOC_C04.mpr
	Directory : C:\Users\Celltest\OneDrive - store-dot.com\Documents\EC-Lab\Data\Michael\R278\
	Host : 169.254.61.224
Device : VMP-3e (SN .003165)
Address : USB
EC-LAB for windows v11.62 (software)
Internet server v27.00 (firmware)
Command interpretor v12.03 (firmware)
Electrode material :
Initial state :
Electrolyte :
Comments :
Electrode surface area : 0.001 cm²
Characteristic mass : 0.001 g
Equivalent Weight : 0.000 g/eq.
Density : 0.000 g/cm3
Volume (V) : 0.001 cm³
Record Ece
Cycle Definition : Charge/Discharge alternance
Mode                Multi sine
E (V)               0.0000
vs.                 Eoc
tE (h:m:s)          0:00:0.0000
record              0
dI                  0.000
unit dI             mA
dt (s)              0.000
fi                  1.000
unit fi             MHz
ff                  0.100
unit ff             mHz
Nd                  10
Points              per decade
spacing             Logarithmic
Va (mV)             5.0
pw                  0.10
Na                  2
corr                0
E range min (V)     -10.000
E range max (V)     10.000
I Range             Auto
Bandwidth           5
nc cycles           0
goto Ns'            0
nr cycles           0
inc. cycle          0

freq/Hz	Re(Z)/Ohm	-Im(Z)/Ohm	|Z|/Ohm	Phase(Z)/deg	time/s	<Ewe>/V	<I>/mA	Cs/µF	Cp/µF	cycle number	I Range	|Ewe|/V	|I|/A	Ns	(Q-Qo)/mA.h	<Ece>/V	|Ece|/V	Phase(Zce)/deg	|Zce|/Ohm	Re(Zce)/Ohm	-Im(Zce)/Ohm	Phase(Zwe-ce)/deg	|Zwe-ce|/Ohm	Re(Zwe-ce)/Ohm	-Im(Zwe-ce)/Ohm	Re(Y)/Ohm-1	Im(Y)/Ohm-1	|Y|/Ohm-1	Phase(Y)/deg	Re(C)/nF	Im(C)/nF	|C|/nF	Phase(C)/deg	Re(M)	Im(M)	|M|	Phase(M)/deg	Re(Permittivity)	Im(Permittivity)	|Permittivity|	Phase(Permittivity)/deg	Re(Resistivity)/Ohm.cm	Im(Resistivity)/Ohm.cm	|Resistivity|/Ohm.cm	Phase(Resistivity)/deg	Re(Conductivity)/mS/cm	Im(Conductivity)/mS/cm	|Conductivity|/mS/cm	Phase(Conductivity)/deg	Tan(Delta)	Loss Angle(Delta)/deg	dq/mA.h	Pwe/W	Pce/W	Pwe-ce/W	<Ewe-Ece>/V	Rwe/Ohm	Rce/Ohm	Rwe-ce/Ohm		Ewe-Ece/V
1.00002e+06	0.900542	-0.503055	1.03152	29.1883	2.23454	3.78505	0.0788984	-0.316371	-0.0752436	1	9	0.000215982	0.000209382	0	-9.06785e-06	-9.16548e-05	0.000185668	1.11805	0.886747	0.886578	-0.0173025	16.234	1.86134	1.78712	-0.520358	0.846342	-0.472778	0.96944	-29.1883	-75.2436	134.697	154.288	-119.188	0.0000000E+000	0.0000000E+000	0.0000000E+000	119.188	0.0000000E+000	0.0000000E+000	0.0000000E+000	-119.188	0.0000000E+000	0.0000000E+000	0.0000000E+000	29.1883	0.0000000E+000	0.0000000E+000	0.0000000E+000	-29.1883	1.79015	60.8117	-9.06785e-06	0.000298634	-7.23142e-09	0.000298641	3.78514	47973.7	1.16168	47974.8
630957	0.616582	-0.0614238	0.619634	5.68902	3.00053	3.78401	-0.0911773	-4.10661	-0.040354	1	9	0.000217773	0.000351454	0	-2.39513e-05	-0.000263644	0.000111406	-98.1297	0.316985	-0.0448263	0.3138	-23.8169	0.624979	0.571756	0.252376	1.60591	-0.15998	1.61386	-5.68902	-40.354	405.08	407.085	-95.689	0.0000000E+000	0.0000000E+000	0.0000000E+000	95.689	0.0000000E+000	0.0000000E+000	0.0000000E+000	-95.689	0.0000000E+000	0.0000000E+000	0.0000000E+000	5.68902	0.0000000E+000	0.0000000E+000	0.0000000E+000	-5.68902	10.0382	84.311	-9.26105e-06	-0.000345016	2.40384e-08	-0.00034504	3.78427	41501.7	2.89156	41504.6
398103	0.765212	0.101893	0.771966	-7.58467	3.76653	3.78388	-0.10121	3.92357	0.0683551	1	9	0.000759642	0.000984036	0	-4.52354e-05	-0.000225424	3.30042e-05	173.228	0.0335396	-0.0333057	-0.00395471	-7.62159	0.73843	0.731906	0.0979379	1.28406	0.170981	1.29539	7.58467	68.3551	513.346	517.876	-82.4153	0.0000000E+000	0.0000000E+000	0.0000000E+000	82.4153	0.0000000E+000	0.0000000E+000	0.0000000E+000	-82.4153	0.0000000E+000	0.0000000E+000	0.0000000E+000	-7.58467	0.0000000E+000	0.0000000E+000	0.0000000E+000	7.58467	7.50998	82.4153	-1.06404e-05	-0.000382967	2.28153e-08	-0.00038299	3.7841	37386.3	2.22729	37388.5
251206	0.875412	0.312435	0.929495	-19.6415	4.53256	3.78368	-0.129183	2.02782	0.229116	1	9	0.00243414	0.00261878	0	-6.92767e-05	-7.25448e-05	4.77396e-05	83.9903	0.0182297	0.0019086	-0.0181295	-18.5445	0.925369	0.87732	0.294306	1.01325	0.361631	1.07585	19.6415	229.116	641.96	681.62	-70.3585	0.0000000E+000	0.0000000E+000	0.0000000E+000	70.3585	0.0000000E+000	0.0000000E+000	0.0000000E+000	-70.3585	0.0000000E+000	0.0000000E+000	0.0000000E+000	-19.6415	0.0000000E+000	0.0000000E+000	0.0000000E+000	19.6415	2.8019	70.3585	-1.55765e-05	-0.000488788	9.37157e-09	-0.000488797	3.78375	29289.3	0.561566	29289.8
158486	1.00611	0.483402	1.11622	-25.6627	5.30055	3.78359	-0.132764	2.0774	0.389619	1	9	0.00521252	0.00466981	0	-0.00010807	-0.000416524	3.432e-05	37.5606	0.00734932	0.00582587	-0.00448015	-25.3269	1.11955	1.01194	0.478922	0.807513	0.387982	0.895884	25.6627	389.619	810.921	899.664	-64.3373	0.0000000E+000	0.0000000E+000	0.0000000E+000	64.3373	0.0000000E+000	0.0000000E+000	0.0000000E+000	-64.3373	0.0000000E+000	0.0000000E+000	0.0000000E+000	-25.6627	0.0000000E+000	0.0000000E+000	0.0000000E+000	25.6627	2.08132	64.3373	-2.19241e-05	-0.000502323	5.52992e-08	-0.000502378	3.784	28498.7	3.13734	28501.8
100004	1.18815	0.616137	1.3384	-27.4099	6.06655	3.78357	-0.122805	2.58302	0.547406	1	9	0.00537887	0.00401889	0	-0.000127946	-0.000206315	3.92253e-05	108.708	0.00976024	-0.00313053	-0.00924457	-27.1187	1.33138	1.18501	0.606892	0.663282	0.343958	0.747161	27.4099	547.406	1055.61	1189.1	-62.5901	0.0000000E+000	0.0000000E+000	0.0000000E+000	62.5901	0.0000000E+000	0.0000000E+000	0.0000000E+000	-62.5901	0.0000000E+000	0.0000000E+000	0.0000000E+000	-27.4099	0.0000000E+000	0.0000000E+000	0.0000000E+000	27.4099	1.92838	62.5901	-2.2658e-05	-0.000464642	2.53365e-08	-0.000464668	3.78378	30809.5	1.68001	30811.2
63093.8	1.4305	0.716231	1.59978	-26.5966	6.83253	3.78357	-0.114488	3.52192	0.705935	1	9	0.00543835	0.00339943	0	-0.00015295	-0.000206315	1.75924e-05	87.8935	0.0051751	0.000190224	-0.00517161	-26.4277	1.59764	1.43069	0.71106	0.558939	0.279854	0.625085	26.5966	705.935	1409.93	1576.78	-63.4034	0.0000000E+000	0.0000000E+000	0.0000000E+000	63.4034	0.0000000E+000	0.0000000E+000	0.0000000E+000	-63.4034	0.0000000E+000	0.0000000E+000	0.0000000E+000	-26.5966	0.0000000E+000	0.0000000E+000	0.0000000E+000	26.5966	1.99725	63.4034	-9.61442e-06	-0.000433173	2.36205e-08	-0.000433197	3.78377	33047.7	1.80206	33049.5
39814.1	1.702	0.760467	1.86416	-24.0755	7.60053	3.78357	-0.118703	5.25658	0.874774	1	9	0.00548821	0.00294406	0	-0.000180712	-5.34349e-05	1.28893e-05	-0.41659	0.00437808	0.00437796	3.18322e-05	-24.0216	1.86817	1.70638	0.760499	0.489769	0.218833	0.536434	24.0755	874.774	1957.83	2144.37	-65.9245	0.0000000E+000	0.0000000E+000	0.0000000E+000	65.9245	0.0000000E+000	0.0000000E+000	0.0000000E+000	-65.9245	0.0000000E+000	0.0000000E+000	0.0000000E+000	-24.0755	0.0000000E+000	0.0000000E+000	0.0000000E+000	24.0755	2.2381	65.9245	-9.61353e-06	-0.00044912	6.34286e-09	-0.000449126	3.78363	31874.4	0.450157	31874.8
25116.9	1.96716	0.761101	2.10926	-21.1516	8.36851	3.78357	-0.117136	8.32552	1.08401	1	9	0.00513433	0.00243418	0	-0.000203765	-3.43249e-05	1.06504e-05	3.51181	0.00437537	0.00436716	-0.00026801	-21.1021	2.11324	1.97153	0.760833	0.442158	0.171072	0.474099	21.1516	1084.01	2801.76	3004.16	-68.8484	0.0000000E+000	0.0000000E+000	0.0000000E+000	68.8484	0.0000000E+000	0.0000000E+000	0.0000000E+000	-68.8484	0.0000000E+000	0.0000000E+000	0.0000000E+000	-21.1516	0.0000000E+000	0.0000000E+000	0.0000000E+000	21.1516	2.58462	68.8484	-1.27923e-05	-0.000443193	4.02069e-09	-0.000443197	3.78361	32300.7	0.293034	32300.9
15847.7	2.19213	0.72748	2.30969	-18.3589	9.13454	3.78357	-0.107513	13.8049	1.36952	1	9	0.00488628	0.00211556	0	-0.000227733	-0.000282754	1.33131e-05	-125.719	0.00629292	-0.00367387	0.00510916	-18.5081	2.30782	2.18845	0.732589	0.410922	0.136369	0.432959	18.3589	1369.52	4126.81	4348.12	-71.6411	0.0000000E+000	0.0000000E+000	0.0000000E+000	71.6411	0.0000000E+000	0.0000000E+000	0.0000000E+000	-71.6411	0.0000000E+000	0.0000000E+000	0.0000000E+000	-18.3589	0.0000000E+000	0.0000000E+000	0.0000000E+000	18.3589	3.01332	71.6411	-1.16228e-05	-0.000406785	3.03999e-08	-0.000406815	3.78385	35191.6	2.62994	35194.2
10002.2	2.38089	0.701796	2.48217	-16.4235	9.77653	3.78357	-0.10949	22.6732	1.81247	1	9	0.00489032	0.00197018	0	-0.000245311	-9.16548e-05	1.53799e-05	-58.0723	0.00780634	0.00412838	0.00662536	-16.543	2.48801	2.38502	0.708421	0.386435	0.113906	0.402873	16.4235	1812.47	6148.94	6410.5	-73.5765	0.0000000E+000	0.0000000E+000	0.0000000E+000	73.5765	0.0000000E+000	0.0000000E+000	0.0000000E+000	-73.5765	0.0000000E+000	0.0000000E+000	0.0000000E+000	-16.4235	0.0000000E+000	0.0000000E+000	0.0000000E+000	16.4235	3.39257	73.5765	-9.26071e-06	-0.000414264	1.00353e-08	-0.000414274	3.78366	34556.3	0.837105	34557.1
6309.38	2.5432	0.705306	2.63919	-15.5003	10.2945	3.78357	-0.104865	35.7648	2.55429	1	9	0.00468669	0.00177581	0	-0.000261305	-0.000110765	9.55177e-06	-68.3728	0.00537883	0.00198245	0.00500017	-15.5933	2.64244	2.54518	0.710306	0.365123	0.10126	0.378904	15.5003	2554.29	9210.28	9557.91	-74.4997	0.0000000E+000	0.0000000E+000	0.0000000E+000	74.4997	0.0000000E+000	0.0000000E+000	0.0000000E+000	-74.4997	0.0000000E+000	0.0000000E+000	0.0000000E+000	-15.5003	0.0000000E+000	0.0000000E+000	0.0000000E+000	15.5003	3.60581	74.4997	-6.83769e-06	-0.000396765	1.16154e-08	-0.000396777	3.78368	36080.2	1.05626	36081.3
3983.6	2.73484	0.76137	2.83884	-15.557	10.8591	3.78332	-0.185092	52.4745	3.77448	1	9	0.00460362	0.00162166	0	-0.00028325	-0.000301864	5.74267e-06	-12.3405	0.00354124	0.00345942	0.000756837	-15.553	2.84238	2.7383	0.762127	0.339351	0.0944742	0.352256	15.557	3774.48	13557.9	14073.5	-74.443	0.0000000E+000	0.0000000E+000	0.0000000E+000	74.443	0.0000000E+000	0.0000000E+000	0.0000000E+000	-74.443	0.0000000E+000	0.0000000E+000	0.0000000E+000	-15.557	0.0000000E+000	0.0000000E+000	0.0000000E+000	15.557	3.592	74.443	-1.57842e-05	-0.000700262	5.58726e-08	-0.000700318	3.78363	20440.3	1.63089	20441.9
2510.8	2.93208	0.827018	3.04648	-15.7515	11.6838	3.78356	-0.0521643	76.6466	5.64839	1	9	0.00452992	0.00148693	0	-0.000306504	-3.43249e-05	8.57352e-06	46.3187	0.0057659	0.0039822	-0.00416986	-15.6558	3.04919	2.93606	0.822848	0.315921	0.0891081	0.328247	15.7515	5648.39	20025.6	20807	-74.2485	0.0000000E+000	0.0000000E+000	0.0000000E+000	74.2485	0.0000000E+000	0.0000000E+000	0.0000000E+000	-74.2485	0.0000000E+000	0.0000000E+000	0.0000000E+000	-15.7515	0.0000000E+000	0.0000000E+000	0.0000000E+000	15.7515	3.54537	74.2485	-7.89628e-06	-0.000197367	1.79053e-09	-0.000197369	3.7836	72531.7	0.658016	72532.4
1585.51	3.15196	0.970425	3.29797	-17.1125	12.5858	3.78355	-0.0542529	103.44	8.95615	1	9	0.004502	0.00136508	0	-0.000320225	-0.000263644	5.06278e-06	37.2335	0.00370877	0.00295283	-0.00224404	-17.0602	3.30013	3.15491	0.968181	0.289793	0.0892215	0.303217	17.1125	8956.15	29089.8	30437.3	-72.8875	0.0000000E+000	0.0000000E+000	0.0000000E+000	72.8875	0.0000000E+000	0.0000000E+000	0.0000000E+000	-72.8875	0.0000000E+000	0.0000000E+000	0.0000000E+000	-17.1125	0.0000000E+000	0.0000000E+000	0.0000000E+000	17.1125	3.24802	72.8875	-7.43036e-06	-0.000205269	1.43035e-08	-0.000205283	3.78381	69739.1	4.85954	69744
1000.32	3.47195	1.10914	3.64481	-17.7165	13.7339	3.78348	-0.0971771	143.448	13.2837	1	10	0.00456763	0.00125319	0	-0.000348183	0.000175885	5.43851e-06	-78.5201	0.00433974	0.000863713	0.00425292	-17.776	3.64693	3.47281	1.11339	0.261351	0.0834906	0.274363	17.7165	13283.7	41582	43652.2	-72.2835	0.0000000E+000	0.0000000E+000	0.0000000E+000	72.2835	0.0000000E+000	0.0000000E+000	0.0000000E+000	-72.2835	0.0000000E+000	0.0000000E+000	0.0000000E+000	-17.7165	0.0000000E+000	0.0000000E+000	0.0000000E+000	17.7165	3.1303	72.2835	-1.11743e-05	-0.000367668	-1.70919e-08	-0.00036765	3.7833	38933.9	1.80994	38932.1
631.01	3.8503	1.25438	4.04948	-18.045	14.6355	3.78348	-0.0979417	201.073	19.2937	1	10	0.00453256	0.00111929	0	-0.000373423	-0.000359194	1.00935e-05	55.2669	0.00901776	0.00513792	-0.00741093	-17.9228	4.05208	3.85544	1.24697	0.234799	0.0764947	0.246945	18.045	19293.7	59221.7	62285.2	-71.955	0.0000000E+000	0.0000000E+000	0.0000000E+000	71.955	0.0000000E+000	0.0000000E+000	0.0000000E+000	-71.955	0.0000000E+000	0.0000000E+000	0.0000000E+000	-18.045	0.0000000E+000	0.0000000E+000	0.0000000E+000	18.045	3.06948	71.955	-1.28218e-05	-0.000370561	3.51801e-08	-0.000370596	3.78384	38629.9	3.66743	38633.6
398.089	4.32715	1.34109	4.53021	-17.2195	15.5368	3.78348	-0.0967369	298.113	26.1253	1	10	0.00452159	0.000998098	0	-0.000397156	-0.000435634	1.64673e-05	-41.4024	0.0164987	0.0123754	0.0109113	-17.3047	4.54526	4.33953	1.352	0.210846	0.0653464	0.22074	17.2195	26125.3	84295.8	88251.4	-72.7805	0.0000000E+000	0.0000000E+000	0.0000000E+000	72.7805	0.0000000E+000	0.0000000E+000	0.0000000E+000	-72.7805	0.0000000E+000	0.0000000E+000	0.0000000E+000	-17.2195	0.0000000E+000	0.0000000E+000	0.0000000E+000	17.2195	3.22659	72.7805	-1.11637e-05	-0.000366002	4.21419e-08	-0.000366044	3.78391	39111	4.50329	39115.5
251.044	4.82946	1.30055	5.00151	-15.0719	16.435	3.78348	-0.096528	487.466	32.9604	1	10	0.00450386	0.000900499	0	-0.000420985	-0.000225424	9.42794e-06	-5.42625	0.0104697	0.0104228	0.000990058	-15.0518	5.01183	4.83988	1.30154	0.193062	0.0519904	0.19994	15.0719	32960.4	122396	126756	-74.9281	0.0000000E+000	0.0000000E+000	0.0000000E+000	74.9281	0.0000000E+000	0.0000000E+000	0.0000000E+000	-74.9281	0.0000000E+000	0.0000000E+000	0.0000000E+000	-15.0719	0.0000000E+000	0.0000000E+000	0.0000000E+000	15.0719	3.71341	74.9281	-1.12876e-05	-0.000365212	2.17598e-08	-0.000365234	3.78371	39195.7	2.33533	39198
158.428	5.27233	1.15645	5.39767	-12.3716	17.5559	3.78349	-0.091261	868.678	39.8752	1	10	0.00498576	0.000923688	0	-0.000449345	-0.000416524	1.33158e-05	-10.409	0.0144159	0.0141786	0.00260457	-12.3663	5.41208	5.28651	1.15906	0.180963	0.0396932	0.185265	12.3716	39875.2	181793	186115	-77.6284	0.0000000E+000	0.0000000E+000	0.0000000E+000	77.6284	0.0000000E+000	0.0000000E+000	0.0000000E+000	-77.6284	0.0000000E+000	0.0000000E+000	0.0000000E+000	-12.3716	0.0000000E+000	0.0000000E+000	0.0000000E+000	12.3716	4.55905	77.6284	-1.64859e-05	-0.000345285	3.80124e-08	-0.000345323	3.7839	41457.9	4.5641	41462.4
100.032	5.61709	0.914877	5.6911	-9.25076	18.4548	3.78348	-0.0938497	1739.08	44.9418	1	10	0.00498337	0.000875642	0	-0.000472583	-5.34349e-05	1.21244e-05	-95.1743	0.0138463	-0.00124874	0.0137898	-9.38978	5.69211	5.61584	0.928667	0.173428	0.0282468	0.175713	9.25076	44941.8	275930	279566	-80.7492	0.0000000E+000	0.0000000E+000	0.0000000E+000	80.7492	0.0000000E+000	0.0000000E+000	0.0000000E+000	-80.7492	0.0000000E+000	0.0000000E+000	0.0000000E+000	-9.25076	0.0000000E+000	0.0000000E+000	0.0000000E+000	9.25076	6.13972	80.7492	-1.18276e-05	-0.000355078	5.01485e-09	-0.000355083	3.78353	40314.2	0.569366	40314.8
63.0823	5.83216	0.701711	5.87422	-6.86071	19.372	3.78349	-0.0867997	3595.46	51.3063	1	10	0.00498021	0.000847808	0	-0.000494408	-0.000206315	1.3056e-05	22.129	0.0153997	0.0142654	-0.00580097	-6.78808	5.8877	5.84642	0.69591	0.169016	0.0203356	0.170235	6.86071	51306.3	426424	429499	-83.1393	0.0000000E+000	0.0000000E+000	0.0000000E+000	83.1393	0.0000000E+000	0.0000000E+000	0.0000000E+000	-83.1393	0.0000000E+000	0.0000000E+000	0.0000000E+000	-6.86071	0.0000000E+000	0.0000000E+000	0.0000000E+000	6.86071	8.31134	83.1393	-1.15175e-05	-0.000328406	1.7908e-08	-0.000328424	3.7837	43588.8	2.3769	43591.1
39.8089	5.98931	0.521536	6.01198	-4.97663	20.2728	3.78348	-0.0857366	7665.77	57.6885	1	10	0.0049916	0.000830276	0	-0.000516662	-0.000454744	9.35939e-06	26.9964	0.0112726	0.0100443	-0.00511704	-4.91984	6.02154	5.99936	0.516419	0.165708	0.0144294	0.166335	4.97663	57688.5	662494	665001	-85.0234	0.0000000E+000	0.0000000E+000	0.0000000E+000	85.0234	0.0000000E+000	0.0000000E+000	0.0000000E+000	-85.0234	0.0000000E+000	0.0000000E+000	0.0000000E+000	-4.97663	0.0000000E+000	0.0000000E+000	0.0000000E+000	4.97663	11.484	85.0234	-1.09117e-05	-0.000324383	3.89882e-08	-0.000324422	3.78394	44129.1	5.30396	44134.5
25.1044	6.07618	0.371493	6.08752	-3.49867	21.1521	3.78347	-0.0894705	17065.5	63.5534	1	10	0.00499285	0.000820178	0	-0.000537692	-5.34349e-05	5.76362e-06	-28.9869	0.00702728	0.00614698	0.00340549	-3.5271	6.09387	6.08232	0.374898	0.163964	0.0100247	0.16427	3.49867	63553.4	1.03949e+06	1.04143e+06	-86.5013	0.0000000E+000	0.0000000E+000	0.0000000E+000	86.5013	0.0000000E+000	0.0000000E+000	0.0000000E+000	-86.5013	0.0000000E+000	0.0000000E+000	0.0000000E+000	-3.49867	0.0000000E+000	0.0000000E+000	0.0000000E+000	3.49867	16.3561	86.5013	-1.13849e-05	-0.000338509	4.78085e-09	-0.000338514	3.78352	42287.3	0.597234	42287.9
15.8576	6.12198	0.275325	6.12817	-2.57504	22.03	3.78345	-0.0947823	36453.4	73.5813	1	10	0.00498994	0.000814264	0	-0.000559487	4.21149e-05	1.85556e-05	61.2633	0.0227882	0.0109562	-0.0199816	-2.38412	6.13825	6.13293	0.255343	0.163016	0.00733135	0.163181	2.57504	73581.2	1.63612e+06	1.63777e+06	-87.425	0.0000000E+000	0.0000000E+000	0.0000000E+000	87.425	0.0000000E+000	0.0000000E+000	0.0000000E+000	-87.425	0.0000000E+000	0.0000000E+000	0.0000000E+000	-2.57504	0.0000000E+000	0.0000000E+000	0.0000000E+000	2.57504	22.2355	87.425	-1.06731e-05	-0.000358604	-3.99175e-09	-0.0003586	3.78341	39917.3	0.444333	39916.9
10.0032	6.15919	0.231361	6.16353	-2.15123	23.0118	3.78348	-0.0895526	68768.6	96.8976	1	10	0.00498449	0.000808707	0	-0.000581856	-0.000187205	6.45786e-06	-6.84115	0.00798542	0.00792856	0.0009512	-2.15729	6.17149	6.16712	0.232313	0.16213	0.0060902	0.162245	2.15123	96897.8	2.57956e+06	2.58138e+06	-87.8488	0.0000000E+000	0.0000000E+000	0.0000000E+000	87.8488	0.0000000E+000	0.0000000E+000	0.0000000E+000	-87.8488	0.0000000E+000	0.0000000E+000	0.0000000E+000	-2.15123	0.0000000E+000	0.0000000E+000	0.0000000E+000	2.15123	26.6215	87.8488	-1.53531e-05	-0.000338821	1.67647e-08	-0.000338837	3.78367	42248.7	2.09044	42250.8
6.31058	6.18518	0.191713	6.18815	-1.77534	23.9353	3.78349	-0.0913692	131553	126.264	1	10	0.00498292	0.000805236	0	-0.000605834	-0.000148985	6.14897e-06	46.8942	0.00763624	0.00521821	-0.00557516	-1.72229	6.1932	6.1904	0.186138	0.161521	0.00500644	0.161599	1.77534	126264	4.07363e+06	4.07558e+06	-88.2247	0.0000000E+000	0.0000000E+000	0.0000000E+000	88.2247	0.0000000E+000	0.0000000E+000	0.0000000E+000	-88.2247	0.0000000E+000	0.0000000E+000	0.0000000E+000	-1.77534	0.0000000E+000	0.0000000E+000	0.0000000E+000	1.77534	32.2627	88.2247	-1.69278e-05	-0.000345694	1.36126e-08	-0.000345708	3.78364	41408.8	1.63058	41410.4
3.97785	6.21764	0.195936	6.22072	-1.80496	24.9423	3.78352	-0.0837951	204200	202.584	1	10	0.00498328	0.000801077	0	-0.000617257	-5.34349e-05	7.85697e-06	-75.0349	0.009808	0.00253272	0.00947535	-1.89142	6.22356	6.22017	0.205412	0.160673	0.0050633	0.160753	1.80496	202584	6.42858e+06	6.43177e+06	-88.195	0.0000000E+000	0.0000000E+000	0.0000000E+000	88.195	0.0000000E+000	0.0000000E+000	0.0000000E+000	-88.195	0.0000000E+000	0.0000000E+000	0.0000000E+000	-1.80496	0.0000000E+000	0.0000000E+000	0.0000000E+000	1.80496	31.7329	88.195	-3.26959e-06	-0.00031704	4.47758e-09	-0.000317045	3.78357	45152	0.637685	45152.7
2.51367	6.29522	0.203528	6.29851	-1.85176	26.9449	3.78354	-0.0693119	311091	324.833	1	11	0.00499213	0.00079259	0	-0.00067157	-0.000187205	4.62532e-06	-49.456	0.00583571	0.00379339	0.0044346	-1.89094	6.30244	6.29901	0.207963	0.158685	0.00513037	0.158768	1.85176	324833	1.00472e+07	1.00525e+07	-88.1482	0.0000000E+000	0.0000000E+000	0.0000000E+000	88.1482	0.0000000E+000	0.0000000E+000	0.0000000E+000	-88.1482	0.0000000E+000	0.0000000E+000	0.0000000E+000	-1.85176	0.0000000E+000	0.0000000E+000	0.0000000E+000	1.85176	30.9305	88.1482	-3.85008e-05	-0.000262244	1.29755e-08	-0.000262257	3.78373	54587.2	2.7009	54589.9
1.58469	6.30761	0.214244	6.31125	-1.94536	29.3806	3.78354	-0.0693858	468779	540.201	1	11	0.00498494	0.00078985	0	-0.000704529	-9.16548e-05	5.67163e-06	-40.6268	0.00718064	0.00544987	0.00467552	-1.98606	6.31685	6.31306	0.21892	0.158356	0.00537871	0.158447	1.94536	540201	1.59042e+07	1.59134e+07	-88.0546	0.0000000E+000	0.0000000E+000	0.0000000E+000	88.0546	0.0000000E+000	0.0000000E+000	0.0000000E+000	-88.0546	0.0000000E+000	0.0000000E+000	0.0000000E+000	-1.94536	0.0000000E+000	0.0000000E+000	0.0000000E+000	1.94536	29.4412	88.0546	-1.14593e-05	-0.000262524	6.35954e-09	-0.00026253	3.78363	54529	1.32094	54530.3
1.00469	6.35671	0.248238	6.36155	-2.23634	240.199	3.7835	-0.058488	638144	971.69	1	11	0.00506314	0.000795897	0	-0.00743483	-0.000110765	4.16228e-07	-1.27888	0.000522967	0.000522837	1.1672e-05	-2.23626	6.36208	6.35723	0.248249	0.157075	0.00613396	0.157194	2.23634	971689	2.48824e+07	2.49014e+07	-87.7637	0.0000000E+000	0.0000000E+000	0.0000000E+000	87.7637	0.0000000E+000	0.0000000E+000	0.0000000E+000	-87.7637	0.0000000E+000	0.0000000E+000	0.0000000E+000	-2.23634	0.0000000E+000	0.0000000E+000	0.0000000E+000	2.23634	25.6074	87.7637	-0.00671918	-0.000221289	6.47841e-09	-0.000221296	3.78361	64688.4	1.8938	64690.3
0.632957	6.41771	0.307485	6.42507	-2.74305	240.2	3.7835	-0.058488	817753	1872.9	1	11	0.00507644	0.000790099	0	-0.00743483	-0.000110765	7.12044e-07	-8.25282	0.000901209	0.000891877	0.000129361	-2.74383	6.42597	6.4186	0.307614	0.155462	0.00744849	0.15564	2.74305	1.8729e+06	3.90904e+07	3.91352e+07	-87.2569	0.0000000E+000	0.0000000E+000	0.0000000E+000	87.2569	0.0000000E+000	0.0000000E+000	0.0000000E+000	-87.2569	0.0000000E+000	0.0000000E+000	0.0000000E+000	-2.74305	0.0000000E+000	0.0000000E+000	0.0000000E+000	2.74305	20.8716	87.2569	0.000000000000000E+000	-0.000221289	6.47841e-09	-0.000221296	3.78361	64688.4	1.8938	64690.3
0.401878	6.47311	0.388993	6.48479	-3.43898	240.201	3.7835	-0.058488	1.01809e+06	3663.33	1	11	0.00509073	0.000785027	0	-0.00743483	-0.000110765	7.9009e-07	-7.61578	0.00100645	0.000997571	0.000133384	-3.43962	6.48579	6.47411	0.389126	0.153929	0.00925018	0.154207	3.43898	3.66334e+06	6.09604e+07	6.10704e+07	-86.561	0.0000000E+000	0.0000000E+000	0.0000000E+000	86.561	0.0000000E+000	0.0000000E+000	0.0000000E+000	-86.561	0.0000000E+000	0.0000000E+000	0.0000000E+000	-3.43898	0.0000000E+000	0.0000000E+000	0.0000000E+000	3.43898	16.6407	86.561	0.000000000000000E+000	-0.000221289	6.47841e-09	-0.000221296	3.78361	64688.4	1.8938	64690.3
0.251173	6.57868	0.5136	6.5987	-4.46405	240.203	3.7835	-0.058488	1.23373e+06	7474.03	1	11	0.0050906	0.000771455	0	-0.00743483	-0.000110765	5.34104e-07	-15.3227	0.000692333	0.000667723	0.000182952	-4.46518	6.59938	6.57935	0.513783	0.151085	0.0117953	0.151545	4.46405	7.47404e+06	9.57346e+07	9.60259e+07	-85.5359	0.0000000E+000	0.0000000E+000	0.0000000E+000	85.5359	0.0000000E+000	0.0000000E+000	0.0000000E+000	-85.5359	0.0000000E+000	0.0000000E+000	0.0000000E+000	-4.46405	0.0000000E+000	0.0000000E+000	0.0000000E+000	4.46405	12.809	85.5359	0.000000000000000E+000	-0.000221289	6.47841e-09	-0.000221296	3.78361	64688.4	1.8938	64690.3
0.160751	6.71044	0.598702	6.7371	-5.0984	240.204	3.7835	-0.058488	1.6537e+06	13059.6	1	11	0.00508579	0.000754893	0	-0.00743483	-0.000110765	7.49803e-07	-12.2528	0.000993258	0.000970632	0.000210794	-5.09945	6.73808	6.71141	0.598913	0.147845	0.0131906	0.148432	5.0984	1.30596e+07	1.46377e+08	1.46958e+08	-84.9016	0.0000000E+000	0.0000000E+000	0.0000000E+000	84.9016	0.0000000E+000	0.0000000E+000	0.0000000E+000	-84.9016	0.0000000E+000	0.0000000E+000	0.0000000E+000	-5.0984	0.0000000E+000	0.0000000E+000	0.0000000E+000	5.0984	11.2083	84.9016	0.000000000000000E+000	-0.000221289	6.47841e-09	-0.000221296	3.78361	64688.4	1.8938	64690.3
0.100469	6.84453	0.840011	6.89589	-6.99677	240.205	3.7835	-0.058488	1.88582e+06	27982.8	1	11	0.0050873	0.000737729	0	-0.00743483	-0.000110765	4.76522e-07	-28.3891	0.00064593	0.00056825	0.000307112	-6.99872	6.89649	6.8451	0.840318	0.143934	0.0176646	0.145014	6.99677	2.79828e+07	2.28008e+08	2.29719e+08	-83.0032	0.0000000E+000	0.0000000E+000	0.0000000E+000	83.0032	0.0000000E+000	0.0000000E+000	0.0000000E+000	-83.0032	0.0000000E+000	0.0000000E+000	0.0000000E+000	-6.99677	0.0000000E+000	0.0000000E+000	0.0000000E+000	6.99677	8.14815	83.0032	0.000000000000000E+000	-0.000221289	6.47841e-09	-0.000221296	3.78361	64688.4	1.8938	64690.3
0.0602816	7.11799	1.02613	7.19157	-8.20326	240.206	3.7835	-0.058488	2.57296e+06	52383	1	11	0.00508237	0.000706713	0	-0.00743483	-0.000110765	3.74227e-07	-29.2581	0.000529532	0.000461978	0.000258806	-8.20478	7.19206	7.11845	1.02639	0.137629	0.0198406	0.139052	8.20326	5.2383e+07	3.63367e+08	3.67123e+08	-81.7967	0.0000000E+000	0.0000000E+000	0.0000000E+000	81.7967	0.0000000E+000	0.0000000E+000	0.0000000E+000	-81.7967	0.0000000E+000	0.0000000E+000	0.0000000E+000	-8.20326	0.0000000E+000	0.0000000E+000	0.0000000E+000	8.20326	6.93672	81.7967	0.000000000000000E+000	-0.000221289	6.47841e-09	-0.000221296	3.78361	64688.4	1.8938	64690.3
0.0401878	7.43411	1.2202	7.53359	-9.32114	240.207	3.7835	-0.058488	3.2456e+06	85143.9	1	11	0.00508228	0.000674616	0	-0.00743483	-0.000110765	3.61506e-07	54.0656	0.00053587	0.00031448	-0.000433888	-9.3175	7.53383	7.43443	1.21977	0.130986	0.0214994	0.132739	9.32114	8.51439e+07	5.18743e+08	5.25684e+08	-80.6789	0.0000000E+000	0.0000000E+000	0.0000000E+000	80.6789	0.0000000E+000	0.0000000E+000	0.0000000E+000	-80.6789	0.0000000E+000	0.0000000E+000	0.0000000E+000	-9.32114	0.0000000E+000	0.0000000E+000	0.0000000E+000	9.32114	6.09254	80.6789	0.000000000000000E+000	-0.000221289	6.47841e-09	-0.000221296	3.78361	64688.4	1.8938	64690.3
0.0200939	8.20576	1.75147	8.3906	-12.0486	240.208	3.7835	-0.058488	4.52224e+06	197049	1	11	0.00508472	0.000606002	0	-0.00743483	-0.000110765	5.45754e-07	-92.8074	0.000900581	-4.41091e-05	0.0008995	-12.0547	8.39075	8.20572	1.75237	0.116555	0.0248781	0.119181	12.0486	1.97049e+08	9.23186e+08	9.43981e+08	-77.9514	0.0000000E+000	0.0000000E+000	0.0000000E+000	77.9514	0.0000000E+000	0.0000000E+000	0.0000000E+000	-77.9514	0.0000000E+000	0.0000000E+000	0.0000000E+000	-12.0486	0.0000000E+000	0.0000000E+000	0.0000000E+000	12.0486	4.68507	77.9514	0.000000000000000E+000	-0.000221289	6.47841e-09	-0.000221296	3.78361	64688.4	1.8938	64690.3
0.00796479	9.51054	1.83226	9.68543	-10.9048	20329.1	3.78349	0.0014479	1.09058e+07	390297	1	11	0.00507506	0.000523989	0	-0.0441876	-9.16548e-05	4.58088e-07	-24.717	0.000874231	0.000794138	0.000365548	-10.906	9.68628	9.51133	1.83263	0.101384	0.0195321	0.103248	10.9048	3.90297e+08	2.02588e+09	2.06313e+09	-79.0952	0.0000000E+000	0.0000000E+000	0.0000000E+000	79.0952	0.0000000E+000	0.0000000E+000	0.0000000E+000	-79.0952	0.0000000E+000	0.0000000E+000	0.0000000E+000	-10.9048	0.0000000E+000	0.0000000E+000	0.0000000E+000	10.9048	5.1906	79.0952	-0.0367528	5.4781e-06	-1.32707e-10	5.47823e-06	3.78358	2.6131e+06	63.3021	2.61316e+06
0.00497799	10.0762	1.79945	10.2356	-10.1253	20329.1	3.78349	0.0014479	1.77675e+07	549131	1	11	0.00508173	0.000496475	0	-0.0441876	-9.16548e-05	5.56181e-07	-29.7502	0.00112026	0.000972607	0.000555896	-10.1275	10.2367	10.0772	1.8	0.0961764	0.0171755	0.097698	10.1253	5.49131e+08	3.07493e+09	3.12357e+09	-79.8747	0.0000000E+000	0.0000000E+000	0.0000000E+000	79.8747	0.0000000E+000	0.0000000E+000	0.0000000E+000	-79.8747	0.0000000E+000	0.0000000E+000	0.0000000E+000	-10.1253	0.0000000E+000	0.0000000E+000	0.0000000E+000	10.1253	5.59962	79.8747	0.000000000000000E+000	5.4781e-06	-1.32707e-10	5.47823e-06	3.78358	2.6131e+06	63.3021	2.61316e+06
0.00318591	10.418	2.45578	10.7035	-13.2639	20329.1	3.78349	0.0014479	2.03422e+07	1.07083e+06	1	11	0.00508325	0.000474915	0	-0.0441876	-9.16548e-05	6.51627e-07	-9.37274	0.00137209	0.00135377	0.000223454	-13.2634	10.7049	10.4193	2.456	0.090935	0.0214356	0.0934273	13.2639	1.07083e+09	4.54273e+09	4.66724e+09	-76.7361	0.0000000E+000	0.0000000E+000	0.0000000E+000	76.7361	0.0000000E+000	0.0000000E+000	0.0000000E+000	-76.7361	0.0000000E+000	0.0000000E+000	0.0000000E+000	-13.2639	0.0000000E+000	0.0000000E+000	0.0000000E+000	13.2639	4.24224	76.7361	0.000000000000000E+000	5.4781e-06	-1.32707e-10	5.47823e-06	3.78358	2.6131e+06	63.3021	2.61316e+06
0.0019912	10.8343	2.63243	11.1495	-13.6567	20329.1	3.78349	0.0014479	3.03633e+07	1.69259e+06	1	11	0.00508856	0.000456394	0	-0.0441876	-9.16548e-05	6.98302e-07	-60.8098	0.00153004	0.000746218	0.00133573	-13.6624	11.1505	10.835	2.63377	0.0871545	0.0211761	0.0896902	13.6567	1.69259e+09	6.9662e+09	7.16887e+09	-76.3433	0.0000000E+000	0.0000000E+000	0.0000000E+000	76.3433	0.0000000E+000	0.0000000E+000	0.0000000E+000	-76.3433	0.0000000E+000	0.0000000E+000	0.0000000E+000	-13.6567	0.0000000E+000	0.0000000E+000	0.0000000E+000	13.6567	4.11569	76.3433	0.000000000000000E+000	5.4781e-06	-1.32707e-10	5.47823e-06	3.78358	2.6131e+06	63.3021	2.61316e+06
0.00129428	10.6814	3.34592	11.1931	-17.3931	20329.1	3.78349	0.0014479	3.67517e+07	3.284e+06	1	11	0.00508672	0.00045445	0	-0.0441876	-9.16548e-05	1.22505e-06	55.8415	0.00269567	0.00151357	-0.00223063	-17.3799	11.1939	10.6829	3.34369	0.0852554	0.0267061	0.0893404	17.3931	3.284e+09	1.04837e+10	1.0986e+10	-72.6069	0.0000000E+000	0.0000000E+000	0.0000000E+000	72.6069	0.0000000E+000	0.0000000E+000	0.0000000E+000	-72.6069	0.0000000E+000	0.0000000E+000	0.0000000E+000	-17.3931	0.0000000E+000	0.0000000E+000	0.0000000E+000	17.3931	3.19235	72.6069	0.000000000000000E+000	5.4781e-06	-1.32707e-10	5.47823e-06	3.78358	2.6131e+06	63.3021	2.61316e+06
0.000796479	11.4633	4.5951	12.35	-21.8435	20329.1	3.78349	0.0014479	4.34862e+07	6.02013e+06	1	11	0.00508587	0.00041181	0	-0.0441876	-9.16548e-05	1.28028e-06	62.0469	0.0031089	0.00145729	-0.00274619	-21.8291	12.3504	11.4648	4.59235	0.0751581	0.0301273	0.0809715	21.8435	6.02013e+09	1.50183e+10	1.618e+10	-68.1565	0.0000000E+000	0.0000000E+000	0.0000000E+000	68.1565	0.0000000E+000	0.0000000E+000	0.0000000E+000	-68.1565	0.0000000E+000	0.0000000E+000	0.0000000E+000	-21.8435	0.0000000E+000	0.0000000E+000	0.0000000E+000	21.8435	2.49469	68.1565	0.000000000000000E+000	5.4781e-06	-1.32707e-10	5.47823e-06	3.78358	2.6131e+06	63.3021	2.61316e+06
0.000497799	11.3016	6.55073	13.0629	-30.0977	20329.1	3.78349	0.0014479	4.88063e+07	1.22737e+07	1	11	0.00509003	0.000389656	0	-0.0441876	-9.16548e-05	2.904e-06	13.7242	0.00745274	0.00723995	-0.00176815	-30.0751	13.0683	11.3089	6.54896	0.0662312	0.0383894	0.0765527	30.0977	1.22737e+10	2.11753e+10	2.44752e+10	-59.9023	0.0000000E+000	0.0000000E+000	0.0000000E+000	59.9023	0.0000000E+000	0.0000000E+000	0.0000000E+000	-59.9023	0.0000000E+000	0.0000000E+000	0.0000000E+000	-30.0977	0.0000000E+000	0.0000000E+000	0.0000000E+000	30.0977	1.72525	59.9023	0.000000000000000E+000	5.4781e-06	-1.32707e-10	5.47823e-06	3.78358	2.6131e+06	63.3021	2.61316e+06
0.000298679	11.1113	10.1593	15.0557	-42.4373	20329.1	3.78349	0.0014479	5.24506e+07	2.38825e+07	1	11	0.00509022	0.000338094	0	-0.0441876	-9.16548e-05	1.20154e-06	52.564	0.00355386	0.0021603	-0.00282188	-42.4239	15.0553	11.1135	10.1565	0.0490192	0.0448193	0.0664202	42.4373	2.38825e+10	2.61204e+10	3.53928e+10	-47.5627	0.0000000E+000	0.0000000E+000	0.0000000E+000	47.5627	0.0000000E+000	0.0000000E+000	0.0000000E+000	-47.5627	0.0000000E+000	0.0000000E+000	0.0000000E+000	-42.4373	0.0000000E+000	0.0000000E+000	0.0000000E+000	42.4373	1.09371	47.5627	0.000000000000000E+000	5.4781e-06	-1.32707e-10	5.47823e-06	3.78358	2.6131e+06	63.3021	2.61316e+06
9.95598e-05	13.6226	34.1783	36.7931	-68.269	20329.1	3.78349	0.0014479	4.67719e+07	4.03602e+07	1	11	0.0050851	0.000138208	0	-0.0441876	-9.16548e-05	1.3555e-06	55.7552	0.00980773	0.00551909	-0.00810747	-68.2563	36.7877	13.6282	34.1702	0.010063	0.0252474	0.027179	68.269	4.03602e+10	1.60866e+10	4.34479e+10	-21.731	0.0000000E+000	0.0000000E+000	0.0000000E+000	21.731	0.0000000E+000	0.0000000E+000	0.0000000E+000	-21.731	0.0000000E+000	0.0000000E+000	0.0000000E+000	-68.269	0.0000000E+000	0.0000000E+000	0.0000000E+000	68.269	0.398575	21.731	0.000000000000000E+000	5.4781e-06	-1.32707e-10	5.47823e-06	3.78358	2.6131e+06	63.3021	2.61316e+06