File: txt/17223_R278_UC78_50SOC__C03.mpt
EC-Lab ASCII FILE
Nb header lines : 64

Potentio Electrochemical Impedance Spectroscopy

Run on channel : 3 (SN 65921)
User :
CE vs. WE compliance from -10 V to 10 V
Electrode connection : standard
Potential control : Ewe
Ewe ctrl range : min = -10.00 V, max = 10.00 V
Safety Limits :
	Do not start on E overload
Acquisition started on : 09/02/2025 16:41:11.386
Loaded Setting File :  C:\Users\Celltest\OneDrive - store-dot.com\Documents\EC-Lab\Data\Michael\R278\UC74_NCMA_16706_EIS_50_SOC.mps
Saved on :
	File : UC78_17223_EIS_50SOC_C03.mpr
	Directory : C:\Users\Celltest\OneDrive - store-dot.com\Documents\EC-Lab\Data\Michael\R278\
	Host : 169.254.61.224
Device : VMP-3e (SN .003165)
Address : USB
EC-LAB for windows v11.62 (software)
Internet server v27.00 (firmware)
Command interpretor v12.03 (firmware)
Electrode material :
Initial state :
Electrolyte :
Comments :
Electrode surface area : 0.001 cm²
Characteristic mass : 0.001 g
Equivalent Weight : 0.000 g/eq.
Density : 0.000 g/cm3
Volume (V) : 0.001 cm³
Record Ece
Cycle Definition : Charge/Discharge alternance
Mode                Multi sine
E (V)               0.0000
vs.                 Eoc
tE (h:m:s)          0:00:0.0000
record              0
dI                  0.000
unit dI             mA
dt (s)              0.000
fi                  1.000
unit fi             MHz
ff                  0.100
unit ff             mHz
Nd                  10
Points              per decade
spacing             Logarithmic
Va (mV)             5.0
pw                  0.10
Na                  2
corr                0
E range min (V)     -10.000
E range max (V)     10.000
I Range             Auto
Bandwidth           5
nc cycles           0
goto Ns'            0
nr cycles           0
inc. cycle          0

freq/Hz	Re(Z)/Ohm	-Im(Z)/Ohm	|Z|/Ohm	Phase(Z)/deg	time/s	<Ewe>/V	<I>/mA	Cs/µF	Cp/µF	cycle number	I Range	|Ewe|/V	|I|/A	Ns	(Q-Qo)/mA.h	<Ece>/V	|Ece|/V	Phase(Zce)/deg	|Zce|/Ohm	Re(Zce)/Ohm	-Im(Zce)/Ohm	Phase(Zwe-ce)/deg	|Zwe-ce|/Ohm	Re(Zwe-ce)/Ohm	-Im(Zwe-ce)/Ohm	Re(Y)/Ohm-1	Im(Y)/Ohm-1	|Y|/Ohm-1	Phase(Y)/deg	Re(C)/nF	Im(C)/nF	|C|/nF	Phase(C)/deg	Re(M)	Im(M)	|M|	Phase(M)/deg	Re(Permittivity)	Im(Permittivity)	|Permittivity|	Phase(Permittivity)/deg	Re(Resistivity)/Ohm.cm	Im(Resistivity)/Ohm.cm	|Resistivity|/Ohm.cm	Phase(Resistivity)/deg	Re(Conductivity)/mS/cm	Im(Conductivity)/mS/cm	|Conductivity|/mS/cm	Phase(Conductivity)/deg	Tan(Delta)	Loss Angle(Delta)/deg	dq/mA.h	Pwe/W	Pce/W	Pwe-ce/W	<Ewe-Ece>/V	Rwe/Ohm	Rce/Ohm	Rwe-ce/Ohm		Ewe-Ece/V
1.00002e+06	1.01747	-0.142036	1.02733	7.94701	2.23354	3.78478	0.0175215	-1.1205	-0.0214184	1	9	0.000226411	0.000220386	0	-4.23503e-05	-0.000188301	0.00019893	0.339317	0.902643	0.902627	-0.0053456	4.38928	1.92574	1.9201	-0.147382	0.964044	-0.134578	0.973392	-7.94701	-21.4184	153.43	154.917	-97.947	0.0000000E+000	0.0000000E+000	0.0000000E+000	97.947	0.0000000E+000	0.0000000E+000	0.0000000E+000	-97.947	0.0000000E+000	0.0000000E+000	0.0000000E+000	7.94701	0.0000000E+000	0.0000000E+000	0.0000000E+000	-7.94701	7.16344	82.053	-4.23503e-05	6.6315e-05	-3.29932e-09	6.63183e-05	3.78496	216007	10.7469	216018
630957	0.442069	0.246014	0.505913	-29.0962	2.99953	3.78439	-0.0527769	1.02532	0.242453	1	9	0.0001758	0.00034749	0	-5.41469e-05	0.00019358	0.000121562	-101.424	0.34983	-0.06929	0.342899	-57.6664	0.696981	0.372779	0.588913	1.72718	0.961186	1.97662	29.0962	242.453	435.671	498.591	-60.9038	0.0000000E+000	0.0000000E+000	0.0000000E+000	60.9038	0.0000000E+000	0.0000000E+000	0.0000000E+000	-60.9038	0.0000000E+000	0.0000000E+000	0.0000000E+000	-29.0962	0.0000000E+000	0.0000000E+000	0.0000000E+000	29.0962	1.79693	60.9038	-5.63847e-06	-0.000199728	-1.02166e-08	-0.000199718	3.7842	71705.5	3.6679	71701.8
398103	0.631651	0.137134	0.646366	-12.2491	3.76555	3.78447	-0.0331977	2.91527	0.131224	1	9	0.000643913	0.000996206	0	-6.04164e-05	2.17336e-05	4.42132e-05	153.594	0.0443816	-0.0397509	-0.019738	-11.2183	0.60343	0.5919	0.117396	1.51189	0.328238	1.54711	12.2491	131.224	604.428	618.509	-77.7509	0.0000000E+000	0.0000000E+000	0.0000000E+000	77.7509	0.0000000E+000	0.0000000E+000	0.0000000E+000	-77.7509	0.0000000E+000	0.0000000E+000	0.0000000E+000	-12.2491	0.0000000E+000	0.0000000E+000	0.0000000E+000	12.2491	4.60608	77.7509	-1.28753e-06	-0.000125636	-7.21507e-10	-0.000125635	3.78445	113998	0.654672	113997
251206	0.762639	0.27439	0.810499	-19.7883	4.53154	3.78435	-0.0494577	2.30898	0.264639	1	9	0.00210161	0.00259298	0	-6.86531e-05	4.08277e-05	3.71093e-05	106.401	0.0143115	-0.00404091	-0.0137291	-18.9632	0.802132	0.758598	0.260661	1.16095	0.4177	1.23381	19.7883	264.639	735.536	781.695	-70.2117	0.0000000E+000	0.0000000E+000	0.0000000E+000	70.2117	0.0000000E+000	0.0000000E+000	0.0000000E+000	-70.2117	0.0000000E+000	0.0000000E+000	0.0000000E+000	-19.7883	0.0000000E+000	0.0000000E+000	0.0000000E+000	19.7883	2.77939	70.2117	-3.62656e-06	-0.000187165	-2.01924e-09	-0.000187163	3.78431	76517	0.825507	76516.1
158486	0.897113	0.35566	0.965042	-21.6258	5.29753	3.78429	-0.0646734	2.82354	0.383506	1	9	0.00511477	0.00530005	0	-6.7768e-05	-5.46426e-05	4.51464e-05	80.7861	0.00851811	0.00136393	-0.0084082	-21.131	0.963247	0.898477	0.347252	0.963285	0.381894	1.03622	21.6258	383.506	967.351	1040.6	-68.3742	0.0000000E+000	0.0000000E+000	0.0000000E+000	68.3742	0.0000000E+000	0.0000000E+000	0.0000000E+000	-68.3742	0.0000000E+000	0.0000000E+000	0.0000000E+000	-21.6258	0.0000000E+000	0.0000000E+000	0.0000000E+000	21.6258	2.52239	68.3742	-1.39269e-06	-0.000244743	3.53393e-09	-0.000244747	3.78435	58513.9	0.844901	58514.7
100004	1.04385	0.387114	1.11332	-20.3473	6.06352	3.78427	-0.0513596	4.11117	0.49705	1	9	0.00534032	0.00479674	0	-8.76702e-05	0.000136298	4.1672e-05	86.4566	0.00868757	0.000536928	-0.00867096	-19.9184	1.11084	1.04439	0.378443	0.842166	0.312318	0.898212	20.3473	497.05	1340.3	1429.5	-69.6527	0.0000000E+000	0.0000000E+000	0.0000000E+000	69.6527	0.0000000E+000	0.0000000E+000	0.0000000E+000	-69.6527	0.0000000E+000	0.0000000E+000	0.0000000E+000	-20.3473	0.0000000E+000	0.0000000E+000	0.0000000E+000	20.3473	2.6965	69.6527	-6.47583e-06	-0.000194359	-7.00021e-09	-0.000194352	3.78413	73681.9	2.6538	73679.2
63093.8	1.17867	0.389033	1.24122	-18.266	6.83153	3.78426	-0.0540448	6.48405	0.636978	1	9	0.00533814	0.00430073	0	-9.24496e-05	-7.37367e-05	2.61144e-05	78.0733	0.00607208	0.00125485	-0.005941	-17.9873	1.24056	1.17993	0.383092	0.765065	0.252517	0.805661	18.266	636.978	1929.89	2032.29	-71.734	0.0000000E+000	0.0000000E+000	0.0000000E+000	71.734	0.0000000E+000	0.0000000E+000	0.0000000E+000	-71.734	0.0000000E+000	0.0000000E+000	0.0000000E+000	-18.266	0.0000000E+000	0.0000000E+000	0.0000000E+000	18.266	3.02975	71.734	-1.4979e-05	-0.00020452	3.98508e-09	-0.000204524	3.78434	70021	1.36436	70022.3
39814.1	1.2988	0.386949	1.35522	-16.5903	7.59955	3.78426	-0.052292	10.3307	0.842209	1	9	0.00535744	0.0039532	0	-0.000101652	-7.37367e-05	1.42913e-05	37.5055	0.00361513	0.00286787	-0.00220103	-16.4667	1.35734	1.30167	0.384748	0.707172	0.210686	0.73789	16.5903	842.209	2826.89	2949.68	-73.4097	0.0000000E+000	0.0000000E+000	0.0000000E+000	73.4097	0.0000000E+000	0.0000000E+000	0.0000000E+000	-73.4097	0.0000000E+000	0.0000000E+000	0.0000000E+000	-16.5903	0.0000000E+000	0.0000000E+000	0.0000000E+000	16.5903	3.35652	73.4097	-2.97612e-06	-0.000197886	3.85584e-09	-0.00019789	3.78433	72367.9	1.4101	72369.3
25116.9	1.4	0.38713	1.45254	-15.4572	8.36754	3.78427	-0.0491593	16.3681	1.16266	1	9	0.00521342	0.00358917	0	-0.000113023	0.000174486	1.85436e-05	-22.0919	0.00516654	0.00478722	0.0019431	-15.4807	1.45767	1.40479	0.389073	0.663547	0.183484	0.688448	15.4572	1162.66	4204.61	4362.4	-74.5428	0.0000000E+000	0.0000000E+000	0.0000000E+000	74.5428	0.0000000E+000	0.0000000E+000	0.0000000E+000	-74.5428	0.0000000E+000	0.0000000E+000	0.0000000E+000	-15.4572	0.0000000E+000	0.0000000E+000	0.0000000E+000	15.4572	3.61637	74.5428	-8.62553e-06	-0.000186032	-8.57762e-09	-0.000186024	3.7841	76979.8	3.5494	76976.2
15847.7	1.50558	0.404344	1.55893	-15.0328	9.13357	3.78427	-0.047854	24.8372	1.67091	1	9	0.00498558	0.00319808	0	-0.000117574	2.63955e-06	1.25679e-05	-20.0219	0.00392984	0.00369233	0.0013455	-15.0454	1.56285	1.50927	0.40569	0.619513	0.166379	0.641465	15.0328	1670.91	6221.63	6442.1	-74.9671	0.0000000E+000	0.0000000E+000	0.0000000E+000	74.9671	0.0000000E+000	0.0000000E+000	0.0000000E+000	-74.9671	0.0000000E+000	0.0000000E+000	0.0000000E+000	-15.0328	0.0000000E+000	0.0000000E+000	0.0000000E+000	15.0328	3.72351	74.9671	-3.94807e-06	-0.000181093	-1.26313e-10	-0.000181093	3.78427	79079.5	0.0551583	79079.4
10002.2	1.61156	0.429384	1.66778	-14.9193	9.65352	3.78426	-0.0465115	37.0576	2.45635	1	9	0.00492095	0.00295059	0	-0.000124269	-7.37367e-05	5.21712e-06	-145.664	0.00176816	-0.00146005	0.000997326	-14.9653	1.66663	1.6101	0.430381	0.579385	0.154371	0.599598	14.9193	2456.35	9219.15	9540.77	-75.0807	0.0000000E+000	0.0000000E+000	0.0000000E+000	75.0807	0.0000000E+000	0.0000000E+000	0.0000000E+000	-75.0807	0.0000000E+000	0.0000000E+000	0.0000000E+000	-14.9193	0.0000000E+000	0.0000000E+000	0.0000000E+000	14.9193	3.7532	75.0807	-1.6498e-06	-0.000176011	3.4296e-09	-0.000176015	3.78433	81361.9	1.58534	81363.5
6309.38	1.72625	0.473288	1.78996	-15.3321	10.1716	3.78426	-0.0415887	53.2976	3.72627	1	9	0.00475552	0.00265678	0	-0.000131551	-0.000188301	9.71919e-06	140.869	0.00365826	-0.00283771	-0.00230873	-15.2848	1.78661	1.72341	0.47098	0.53879	0.147721	0.558673	15.3321	3726.27	13591	14092.6	-74.6679	0.0000000E+000	0.0000000E+000	0.0000000E+000	74.6679	0.0000000E+000	0.0000000E+000	0.0000000E+000	-74.6679	0.0000000E+000	0.0000000E+000	0.0000000E+000	-15.3321	0.0000000E+000	0.0000000E+000	0.0000000E+000	15.3321	3.64735	74.6679	-2.07721e-06	-0.000157382	7.8312e-09	-0.00015739	3.78445	90992.4	4.5277	90996.9
3983.6	1.84437	0.533585	1.92001	-16.1354	10.7341	3.78411	-0.117966	74.8757	5.78285	1	9	0.00465695	0.00242549	0	-0.000142207	-3.55486e-05	9.295e-06	0.691809	0.00383222	0.00383194	-4.62705e-05	-16.1023	1.92368	1.84821	0.533539	0.500314	0.144743	0.520831	16.1354	5782.85	19988.8	20808.5	-73.8646	0.0000000E+000	0.0000000E+000	0.0000000E+000	73.8646	0.0000000E+000	0.0000000E+000	0.0000000E+000	-73.8646	0.0000000E+000	0.0000000E+000	0.0000000E+000	-16.1354	0.0000000E+000	0.0000000E+000	0.0000000E+000	16.1354	3.45657	73.8646	-8.33258e-06	-0.000446396	4.19352e-09	-0.0004464	3.78415	32078	0.301346	32078.3
2510.8	1.98749	0.606018	2.07783	-16.9573	11.5588	3.78416	-0.0622867	104.598	8.8976	1	9	0.00458659	0.00220739	0	-0.000160702	5.99217e-05	3.44543e-06	66.1595	0.00156086	0.000630886	-0.00142768	-16.9146	2.07802	1.98812	0.60459	0.460347	0.140367	0.481271	16.9573	8897.6	29180.5	30506.9	-73.0427	0.0000000E+000	0.0000000E+000	0.0000000E+000	73.0427	0.0000000E+000	0.0000000E+000	0.0000000E+000	-73.0427	0.0000000E+000	0.0000000E+000	0.0000000E+000	-16.9573	0.0000000E+000	0.0000000E+000	0.0000000E+000	16.9573	3.27959	73.0427	-6.27445e-06	-0.000235703	-3.73233e-09	-0.000235699	3.7841	60753.9	0.962031	60753
1585.51	2.15766	0.729668	2.27769	-18.6843	12.4608	3.78417	-0.060422	137.571	14.1184	1	9	0.00454892	0.00199716	0	-0.000174515	0.000136298	3.53129e-06	15.3837	0.00176815	0.0017048	-0.000469058	-18.6594	2.27916	2.15936	0.729199	0.415902	0.140648	0.439041	18.6843	14118.4	41748.7	44071.4	-71.3157	0.0000000E+000	0.0000000E+000	0.0000000E+000	71.3157	0.0000000E+000	0.0000000E+000	0.0000000E+000	-71.3157	0.0000000E+000	0.0000000E+000	0.0000000E+000	-18.6843	0.0000000E+000	0.0000000E+000	0.0000000E+000	18.6843	2.95704	71.3157	-8.0276e-06	-0.000228647	-8.2354e-09	-0.000228639	3.78403	62629	2.25577	62626.8
1000.32	2.37078	0.863668	2.52319	-20.0165	13.3628	3.78417	-0.0548653	184.219	21.5837	1	9	0.00453108	0.00179577	0	-0.00018989	-7.37367e-05	7.87122e-06	50.4819	0.0043832	0.00278913	-0.0033813	-19.9228	2.52466	2.37357	0.860286	0.372383	0.135658	0.396323	20.0165	21583.7	59247.6	63056.6	-69.9835	0.0000000E+000	0.0000000E+000	0.0000000E+000	69.9835	0.0000000E+000	0.0000000E+000	0.0000000E+000	-69.9835	0.0000000E+000	0.0000000E+000	0.0000000E+000	-20.0165	0.0000000E+000	0.0000000E+000	0.0000000E+000	20.0165	2.74501	69.9835	-8.70586e-06	-0.000207619	4.04558e-09	-0.000207624	3.78424	68972	1.34396	68973.4
631.01	2.65077	1.02233	2.84108	-21.0903	14.2645	3.78417	-0.057625	246.713	31.9454	1	9	0.00450968	0.00158731	0	-0.00020276	2.17336e-05	7.74495e-06	49.9245	0.00487928	0.00314126	-0.00373361	-20.9973	2.84267	2.65391	1.0186	0.328401	0.126656	0.351979	21.0903	31945.4	82830.3	88777	-68.9097	0.0000000E+000	0.0000000E+000	0.0000000E+000	68.9097	0.0000000E+000	0.0000000E+000	0.0000000E+000	-68.9097	0.0000000E+000	0.0000000E+000	0.0000000E+000	-21.0903	0.0000000E+000	0.0000000E+000	0.0000000E+000	21.0903	2.59287	68.9097	-6.11888e-06	-0.000218063	-1.2524e-09	-0.000218062	3.78415	65668.9	0.377156	65668.6
398.089	3.01883	1.1724	3.23849	-21.2243	15.4118	3.7842	-0.103119	341.008	44.6919	1	10	0.00452245	0.00139647	0	-0.000228727	-0.000188301	1.63198e-05	-48.511	0.0116865	0.007742	0.00875413	-21.3188	3.24888	3.02657	1.18115	0.287841	0.111786	0.308786	21.2243	44691.9	115078	123452	-68.7757	0.0000000E+000	0.0000000E+000	0.0000000E+000	68.7757	0.0000000E+000	0.0000000E+000	0.0000000E+000	-68.7757	0.0000000E+000	0.0000000E+000	0.0000000E+000	-21.2243	0.0000000E+000	0.0000000E+000	0.0000000E+000	21.2243	2.57492	68.7757	-1.19257e-05	-0.000390223	1.94174e-08	-0.000390242	3.78438	36697.3	1.82605	36699.2
251.044	3.48408	1.22777	3.69408	-19.4122	16.31	3.78423	-0.0965302	516.358	57.0394	1	10	0.00450621	0.00121984	0	-0.000254526	2.17336e-05	1.05659e-05	-96.7326	0.00866164	-0.00101546	0.00860191	-19.5432	3.69599	3.48306	1.23638	0.255314	0.0899716	0.270703	19.4122	57039.4	161862	171618	-70.5878	0.0000000E+000	0.0000000E+000	0.0000000E+000	70.5878	0.0000000E+000	0.0000000E+000	0.0000000E+000	-70.5878	0.0000000E+000	0.0000000E+000	0.0000000E+000	-19.4122	0.0000000E+000	0.0000000E+000	0.0000000E+000	19.4122	2.83772	70.5878	-1.2115e-05	-0.000365292	-2.09795e-09	-0.00036529	3.78421	39202.5	0.225148	39202.3
158.428	3.94823	1.1596	4.11499	-16.3676	17.4299	3.7842	-0.101016	866.322	68.7949	1	10	0.00499183	0.00121308	0	-0.000286876	7.90158e-05	4.64702e-06	-18.1314	0.00383075	0.00364053	0.00119212	-16.3692	4.11882	3.95187	1.16079	0.233165	0.0684809	0.243014	16.3676	68794.9	234235	244128	-73.6324	0.0000000E+000	0.0000000E+000	0.0000000E+000	73.6324	0.0000000E+000	0.0000000E+000	0.0000000E+000	-73.6324	0.0000000E+000	0.0000000E+000	0.0000000E+000	-16.3676	0.0000000E+000	0.0000000E+000	0.0000000E+000	16.3676	3.40482	73.6324	-1.33219e-05	-0.000382264	-7.98186e-09	-0.000382256	3.78412	37461.3	0.78221	37460.6
100.032	4.33772	0.982926	4.44769	-12.7676	18.3298	3.7842	-0.100893	1618.68	79.0557	1	10	0.00498364	0.0011205	0	-0.000312181	-0.000245583	1.14135e-05	12.921	0.010186	0.00992812	-0.00227768	-12.7108	4.45687	4.34764	0.980648	0.219277	0.0496881	0.224836	12.7676	79055.7	348878	357723	-77.2324	0.0000000E+000	0.0000000E+000	0.0000000E+000	77.2324	0.0000000E+000	0.0000000E+000	0.0000000E+000	-77.2324	0.0000000E+000	0.0000000E+000	0.0000000E+000	-12.7676	0.0000000E+000	0.0000000E+000	0.0000000E+000	12.7676	4.41307	77.2324	-1.3567e-05	-0.000381799	2.47776e-08	-0.000381824	3.78444	37507.1	2.4341	37509.5
63.0823	4.60561	0.769942	4.66952	-9.49065	19.247	3.78421	-0.0969888	3276.84	89.0893	1	10	0.00497835	0.00106614	0	-0.000337112	0.000212674	7.5247e-06	87.9774	0.00705791	0.000249105	-0.00705351	-9.40476	4.66861	4.60586	0.762888	0.211223	0.0353112	0.214155	9.49065	89089.3	532911	540306	-80.5094	0.0000000E+000	0.0000000E+000	0.0000000E+000	80.5094	0.0000000E+000	0.0000000E+000	0.0000000E+000	-80.5094	0.0000000E+000	0.0000000E+000	0.0000000E+000	-9.49065	0.0000000E+000	0.0000000E+000	0.0000000E+000	9.49065	5.98176	80.5094	-1.22036e-05	-0.000367026	-2.0627e-08	-0.000367005	3.784	39016.9	2.19277	39014.8
39.8089	4.79328	0.575789	4.82774	-6.84979	20.1479	3.7842	-0.0975258	6943.46	98.7679	1	10	0.00498847	0.00103329	0	-0.00035899	-3.55486e-05	8.57688e-06	-35.5841	0.00830053	0.00675051	0.00483006	-6.89708	4.83502	4.80003	0.580619	0.205658	0.0247045	0.207136	6.84979	98767.9	822214	828125	-83.1502	0.0000000E+000	0.0000000E+000	0.0000000E+000	83.1502	0.0000000E+000	0.0000000E+000	0.0000000E+000	-83.1502	0.0000000E+000	0.0000000E+000	0.0000000E+000	-6.84979	0.0000000E+000	0.0000000E+000	0.0000000E+000	6.84979	8.32471	83.1502	-1.09699e-05	-0.000369057	3.4669e-09	-0.000369061	3.78424	38802.1	0.364504	38802.4
25.1044	4.88854	0.419331	4.90649	-4.90274	21.027	3.78419	-0.10017	15118.6	110.429	1	10	0.0049797	0.00101492	0	-0.000382318	-0.000131019	1.02861e-05	-11.3509	0.0101349	0.00993665	0.00199471	-4.916	4.91656	4.89847	0.421326	0.203066	0.0174187	0.203812	4.90274	110429	1.28738e+06	1.29211e+06	-85.0973	0.0000000E+000	0.0000000E+000	0.0000000E+000	85.0973	0.0000000E+000	0.0000000E+000	0.0000000E+000	-85.0973	0.0000000E+000	0.0000000E+000	0.0000000E+000	-4.90274	0.0000000E+000	0.0000000E+000	0.0000000E+000	4.90274	11.6579	85.0973	-1.27617e-05	-0.000379061	1.31241e-08	-0.000379074	3.78432	37777.9	1.30797	37779.2
15.8576	4.95549	0.320472	4.96584	-3.70018	21.905	3.78419	-0.103287	31317.9	130.433	1	10	0.00498906	0.00100468	0	-0.000400545	-3.55486e-05	8.81182e-06	-24.237	0.0087708	0.0079977	0.00360052	-3.73562	4.97405	4.96348	0.324073	0.200956	0.0129959	0.201376	3.70018	130434	2.0169e+06	2.02111e+06	-86.2998	0.0000000E+000	0.0000000E+000	0.0000000E+000	86.2998	0.0000000E+000	0.0000000E+000	0.0000000E+000	-86.2998	0.0000000E+000	0.0000000E+000	0.0000000E+000	-3.70018	0.0000000E+000	0.0000000E+000	0.0000000E+000	3.70018	15.4631	86.2998	-7.86043e-06	-0.000390857	3.6717e-09	-0.000390861	3.78423	36637.6	0.344173	36638
10.0032	4.99201	0.238936	4.99772	-2.7403	22.8858	3.78418	-0.101079	66588.5	152.202	1	10	0.00497483	0.00099542	0	-0.000432264	5.99217e-05	5.43872e-06	-149.357	0.00546374	-0.0047008	0.00278478	-2.7748	4.99316	4.9873	0.241721	0.199862	0.00956617	0.200091	2.7403	152202	3.17989e+06	3.18353e+06	-87.2597	0.0000000E+000	0.0000000E+000	0.0000000E+000	87.2597	0.0000000E+000	0.0000000E+000	0.0000000E+000	-87.2597	0.0000000E+000	0.0000000E+000	0.0000000E+000	-2.7403	0.0000000E+000	0.0000000E+000	0.0000000E+000	2.7403	20.8926	87.2597	-1.5642e-05	-0.000382502	-6.05686e-09	-0.000382496	3.78412	37437.6	0.592818	37437.1
6.31058	5.03148	0.1957	5.03528	-2.2274	23.8093	3.78418	-0.105778	128873	194.667	1	10	0.00497861	0.000988745	0	-0.000449514	0.000117204	1.11259e-05	-21.2063	0.0112525	0.0104905	0.00407034	-2.26895	5.04592	5.04197	0.19977	0.198449	0.00771867	0.198599	2.2274	194667	5.00494e+06	5.00872e+06	-87.7726	0.0000000E+000	0.0000000E+000	0.0000000E+000	87.7726	0.0000000E+000	0.0000000E+000	0.0000000E+000	-87.7726	0.0000000E+000	0.0000000E+000	0.0000000E+000	-2.2274	0.0000000E+000	0.0000000E+000	0.0000000E+000	2.2274	25.7102	87.7726	-6.43168e-06	-0.000400283	-1.23976e-08	-0.00040027	3.78407	35774.8	1.10802	35773.7
3.97785	5.06803	0.187984	5.07151	-2.12425	24.8164	3.78423	-0.0901389	212838	292.428	1	10	0.00497618	0.000981204	0	-0.000487415	5.99217e-05	7.0747e-06	70.5111	0.00721023	0.00240551	-0.00679713	-2.04654	5.07367	5.07043	0.181187	0.197044	0.00730881	0.19718	2.12425	292427	7.8838e+06	7.88922e+06	-87.8757	0.0000000E+000	0.0000000E+000	0.0000000E+000	87.8757	0.0000000E+000	0.0000000E+000	0.0000000E+000	-87.8757	0.0000000E+000	0.0000000E+000	0.0000000E+000	-2.12425	0.0000000E+000	0.0000000E+000	0.0000000E+000	2.12425	26.9598	87.8757	-1.55784e-05	-0.000341106	-5.40128e-09	-0.000341101	3.78417	41982.2	0.664771	41981.5
2.51367	5.10625	0.188933	5.10975	-2.119	26.3759	3.78421	-0.0881464	335122	458.164	1	10	0.00498566	0.000975717	0	-0.000502991	-9.28308e-05	4.45281e-06	-12.6383	0.00456363	0.00445305	0.000998501	-2.12833	5.11423	5.1107	0.189932	0.195571	0.00723618	0.195704	2.119	458163	1.23827e+07	1.23912e+07	-87.881	0.0000000E+000	0.0000000E+000	0.0000000E+000	87.881	0.0000000E+000	0.0000000E+000	0.0000000E+000	-87.881	0.0000000E+000	0.0000000E+000	0.0000000E+000	-2.119	0.0000000E+000	0.0000000E+000	0.0000000E+000	2.119	27.0268	87.881	-1.04541e-05	-0.000333565	8.1827e-09	-0.000333573	3.78431	42931	1.05314	42932.1
1.58469	5.14136	0.201627	5.14531	-2.2458	29.3565	3.78422	-0.0850713	498113	764.896	1	11	0.00498175	0.00096821	0	-0.000603277	-0.000245583	3.47663e-06	19.9681	0.00359078	0.00337492	-0.00122624	-2.23069	5.14864	5.14474	0.200401	0.194202	0.00761597	0.194352	2.2458	764895	1.95044e+07	1.95193e+07	-87.7542	0.0000000E+000	0.0000000E+000	0.0000000E+000	87.7542	0.0000000E+000	0.0000000E+000	0.0000000E+000	-87.7542	0.0000000E+000	0.0000000E+000	0.0000000E+000	-2.2458	0.0000000E+000	0.0000000E+000	0.0000000E+000	2.2458	25.4994	87.7542	-5.23879e-05	-0.000321929	2.08921e-08	-0.00032195	3.78447	44482.9	2.88679	44485.8
1.00469	5.16193	0.227145	5.16693	-2.51962	240.173	3.7842	-0.0632021	697401	1347.8	1	11	0.00503946	0.000975329	0	-0.00828443	0.000212674	8.46852e-07	-0.581194	0.000868273	0.000868228	8.80739e-06	-2.51929	5.1678	5.1628	0.227154	0.193352	0.00850823	0.193539	2.51962	1.3478e+06	3.06291e+07	3.06587e+07	-87.4804	0.0000000E+000	0.0000000E+000	0.0000000E+000	87.4804	0.0000000E+000	0.0000000E+000	0.0000000E+000	-87.4804	0.0000000E+000	0.0000000E+000	0.0000000E+000	-2.51962	0.0000000E+000	0.0000000E+000	0.0000000E+000	2.51962	22.7252	87.4804	-0.00763324	-0.000239169	-1.34414e-08	-0.000239156	3.78399	59874.6	3.36499	59871.2
0.632957	5.21225	0.27558	5.21952	-3.0265	240.175	3.7842	-0.0632021	912428	2543.5	1	11	0.00505286	0.00096807	0	-0.00828443	0.000212674	6.92747e-07	-1.88822	0.000715596	0.000715208	2.35787e-05	-3.02634	5.22024	5.21296	0.275603	0.191321	0.0101154	0.191588	3.0265	2.54349e+06	4.81071e+07	4.81742e+07	-86.9735	0.0000000E+000	0.0000000E+000	0.0000000E+000	86.9735	0.0000000E+000	0.0000000E+000	0.0000000E+000	-86.9735	0.0000000E+000	0.0000000E+000	0.0000000E+000	-3.0265	0.0000000E+000	0.0000000E+000	0.0000000E+000	3.0265	18.9138	86.9735	0.000000000000000E+000	-0.000239169	-1.34414e-08	-0.000239156	3.78399	59874.6	3.36499	59871.2
0.401878	5.25821	0.351703	5.26996	-3.82661	240.177	3.7842	-0.0632021	1.12603e+06	5015.2	1	11	0.00506713	0.000961512	0	-0.00828443	0.000212674	7.49932e-07	-0.599899	0.00077995	0.000779907	8.16609e-06	-3.82613	5.27074	5.25899	0.351711	0.189332	0.0126637	0.189755	3.82661	5.01519e+06	7.49808e+07	7.51483e+07	-86.1734	0.0000000E+000	0.0000000E+000	0.0000000E+000	86.1734	0.0000000E+000	0.0000000E+000	0.0000000E+000	-86.1734	0.0000000E+000	0.0000000E+000	0.0000000E+000	-3.82661	0.0000000E+000	0.0000000E+000	0.0000000E+000	3.82661	14.9507	86.1734	0.000000000000000E+000	-0.000239169	-1.34414e-08	-0.000239156	3.78399	59874.6	3.36499	59871.2
0.251173	5.35018	0.463178	5.37019	-4.9479	240.178	3.7842	-0.0632021	1.36804e+06	10176.9	1	11	0.00506793	0.000943716	0	-0.00828443	0.000212674	6.71311e-07	-13.0604	0.000711348	0.000692947	0.00016075	-4.94897	5.37089	5.35087	0.463338	0.185519	0.0160608	0.186213	4.9479	1.01769e+07	1.17553e+08	1.17993e+08	-85.0521	0.0000000E+000	0.0000000E+000	0.0000000E+000	85.0521	0.0000000E+000	0.0000000E+000	0.0000000E+000	-85.0521	0.0000000E+000	0.0000000E+000	0.0000000E+000	-4.9479	0.0000000E+000	0.0000000E+000	0.0000000E+000	4.9479	11.551	85.0521	0.000000000000000E+000	-0.000239169	-1.34414e-08	-0.000239156	3.78399	59874.6	3.36499	59871.2
0.160751	5.46897	0.559775	5.49755	-5.84413	240.18	3.7842	-0.0632021	1.7687e+06	18337.6	1	11	0.00505998	0.000920407	0	-0.00828443	0.000212674	8.12272e-07	7.32363	0.000882515	0.000875315	-0.000112497	-5.84204	5.49841	5.46985	0.559662	0.180954	0.0185215	0.181899	5.84413	1.83376e+07	1.79157e+08	1.80093e+08	-84.1559	0.0000000E+000	0.0000000E+000	0.0000000E+000	84.1559	0.0000000E+000	0.0000000E+000	0.0000000E+000	-84.1559	0.0000000E+000	0.0000000E+000	0.0000000E+000	-5.84413	0.0000000E+000	0.0000000E+000	0.0000000E+000	5.84413	9.76996	84.1559	0.000000000000000E+000	-0.000239169	-1.34414e-08	-0.000239156	3.78399	59874.6	3.36499	59871.2
0.100469	5.59867	0.788654	5.65394	-8.01819	240.182	3.7842	-0.0632021	2.00863e+06	39081.4	1	11	0.00506374	0.000895612	0	-0.00828443	0.000212674	9.33448e-07	-16.143	0.00104225	0.00100115	0.000289781	-8.01968	5.65497	5.59967	0.788943	0.175139	0.0246708	0.176868	8.01819	3.90814e+07	2.7744e+08	2.80179e+08	-81.9818	0.0000000E+000	0.0000000E+000	0.0000000E+000	81.9818	0.0000000E+000	0.0000000E+000	0.0000000E+000	-81.9818	0.0000000E+000	0.0000000E+000	0.0000000E+000	-8.01819	0.0000000E+000	0.0000000E+000	0.0000000E+000	8.01819	7.09902	81.9818	0.000000000000000E+000	-0.000239169	-1.34414e-08	-0.000239156	3.78399	59874.6	3.36499	59871.2
0.0602816	5.85827	0.974058	5.9387	-9.44025	240.184	3.7842	-0.0632021	2.7105e+06	72918.5	1	11	0.00505908	0.000851884	0	-0.00828443	0.000212674	8.35591e-07	-3.04399	0.000980874	0.00097949	5.2087e-05	-9.43919	5.93967	5.85925	0.97411	0.166107	0.0276187	0.168387	9.44025	7.29185e+07	4.38553e+08	4.44574e+08	-80.5598	0.0000000E+000	0.0000000E+000	0.0000000E+000	80.5598	0.0000000E+000	0.0000000E+000	0.0000000E+000	-80.5598	0.0000000E+000	0.0000000E+000	0.0000000E+000	-9.44025	0.0000000E+000	0.0000000E+000	0.0000000E+000	9.44025	6.01429	80.5598	0.000000000000000E+000	-0.000239169	-1.34414e-08	-0.000239156	3.78399	59874.6	3.36499	59871.2
0.0401878	6.17448	1.16007	6.28251	-10.6408	240.185	3.7842	-0.0632021	3.41382e+06	116398	1	11	0.00505892	0.000805239	0	-0.00828443	0.000212674	8.27137e-07	-21.7231	0.0010272	0.000954248	0.000380187	-10.6426	6.28352	6.17543	1.16045	0.156435	0.0293913	0.159172	10.6408	1.16398e+08	6.19527e+08	6.30366e+08	-79.3592	0.0000000E+000	0.0000000E+000	0.0000000E+000	79.3592	0.0000000E+000	0.0000000E+000	0.0000000E+000	-79.3592	0.0000000E+000	0.0000000E+000	0.0000000E+000	-10.6408	0.0000000E+000	0.0000000E+000	0.0000000E+000	10.6408	5.32249	79.3592	0.000000000000000E+000	-0.000239169	-1.34414e-08	-0.000239156	3.78399	59874.6	3.36499	59871.2
0.0200939	6.87646	1.63128	7.0673	-13.3454	240.187	3.7842	-0.0632021	4.85544e+06	258688	1	11	0.00505917	0.000715856	0	-0.00828443	0.000212674	6.67461e-07	-84.2506	0.000932396	9.34045e-05	0.000927706	-13.3525	7.06761	6.87656	1.6322	0.137676	0.0326603	0.141497	13.3454	2.58688e+08	1.09047e+09	1.12073e+09	-76.6546	0.0000000E+000	0.0000000E+000	0.0000000E+000	76.6546	0.0000000E+000	0.0000000E+000	0.0000000E+000	-76.6546	0.0000000E+000	0.0000000E+000	0.0000000E+000	-13.3454	0.0000000E+000	0.0000000E+000	0.0000000E+000	13.3454	4.21539	76.6546	0.000000000000000E+000	-0.000239169	-1.34414e-08	-0.000239156	3.78399	59874.6	3.36499	59871.2
0.00796479	8.0974	1.70338	8.27462	-11.8796	20329	3.7842	0.00166506	1.1731e+07	497119	1	11	0.00505405	0.000610789	0	-0.0567225	-3.55486e-05	2.67202e-07	-146.687	0.00043747	-0.000365587	0.000240262	-11.8817	8.27431	8.09703	1.70362	0.118263	0.0248779	0.120851	11.8796	4.97119e+08	2.36317e+09	2.41489e+09	-78.1204	0.0000000E+000	0.0000000E+000	0.0000000E+000	78.1204	0.0000000E+000	0.0000000E+000	0.0000000E+000	-78.1204	0.0000000E+000	0.0000000E+000	0.0000000E+000	-11.8796	0.0000000E+000	0.0000000E+000	0.0000000E+000	11.8796	4.75373	78.1204	-0.0484381	6.30093e-06	-5.91906e-11	6.30099e-06	3.78423	2.27271e+06	21.3497	2.27273e+06
0.00497799	8.63031	1.6828	8.79284	-11.0335	20329	3.7842	0.00166506	1.89991e+07	695891	1	11	0.00506056	0.000575532	0	-0.0567225	-3.55486e-05	4.15161e-07	18.4758	0.000721352	0.000684172	-0.0002286	-11.0312	8.79347	8.63099	1.68258	0.111627	0.0217658	0.113729	11.0335	6.95891e+08	3.5689e+09	3.63611e+09	-78.9665	0.0000000E+000	0.0000000E+000	0.0000000E+000	78.9665	0.0000000E+000	0.0000000E+000	0.0000000E+000	-78.9665	0.0000000E+000	0.0000000E+000	0.0000000E+000	-11.0335	0.0000000E+000	0.0000000E+000	0.0000000E+000	11.0335	5.12853	78.9665	0.000000000000000E+000	6.30093e-06	-5.91906e-11	6.30099e-06	3.78423	2.27271e+06	21.3497	2.27273e+06
0.00318591	8.97682	2.22565	9.24861	-13.9247	20329	3.7842	0.00166506	2.24455e+07	1.29984e+06	1	11	0.00506323	0.000547459	0	-0.0567225	-3.55486e-05	4.71752e-07	-150.788	0.000861713	-0.000752121	0.00042055	-13.9284	9.24798	8.97606	2.22607	0.104947	0.0260198	0.108124	13.9247	1.29984e+09	5.24271e+09	5.40144e+09	-76.0753	0.0000000E+000	0.0000000E+000	0.0000000E+000	76.0753	0.0000000E+000	0.0000000E+000	0.0000000E+000	-76.0753	0.0000000E+000	0.0000000E+000	0.0000000E+000	-13.9247	0.0000000E+000	0.0000000E+000	0.0000000E+000	13.9247	4.03334	76.0753	0.000000000000000E+000	6.30093e-06	-5.91906e-11	6.30099e-06	3.78423	2.27271e+06	21.3497	2.27273e+06
0.0019912	9.30846	2.5591	9.65383	-15.3721	20329	3.7842	0.00166506	3.12333e+07	2.1948e+06	1	11	0.00506482	0.000524644	0	-0.0567225	-3.55486e-05	5.09883e-07	-45.8441	0.000971866	0.000677015	0.000697262	-15.375	9.65467	9.30914	2.5598	0.09988	0.0274592	0.103586	15.3721	2.1948e+09	7.98334e+09	8.27954e+09	-74.6279	0.0000000E+000	0.0000000E+000	0.0000000E+000	74.6279	0.0000000E+000	0.0000000E+000	0.0000000E+000	-74.6279	0.0000000E+000	0.0000000E+000	0.0000000E+000	-15.3721	0.0000000E+000	0.0000000E+000	0.0000000E+000	15.3721	3.63739	74.6279	0.000000000000000E+000	6.30093e-06	-5.91906e-11	6.30099e-06	3.78423	2.27271e+06	21.3497	2.27273e+06
0.00129428	9.20759	3.28963	9.77759	-19.6605	20329	3.7842	0.00166506	3.73806e+07	4.23131e+06	1	11	0.0050676	0.000518287	0	-0.0567225	-3.55486e-05	1.53281e-06	47.7318	0.00295745	0.00198919	-0.00218852	-19.6445	9.77873	9.20958	3.28744	0.0963123	0.0344098	0.102275	19.6605	4.23132e+09	1.18434e+10	1.25765e+10	-70.3395	0.0000000E+000	0.0000000E+000	0.0000000E+000	70.3395	0.0000000E+000	0.0000000E+000	0.0000000E+000	-70.3395	0.0000000E+000	0.0000000E+000	0.0000000E+000	-19.6605	0.0000000E+000	0.0000000E+000	0.0000000E+000	19.6605	2.79898	70.3395	0.000000000000000E+000	6.30093e-06	-5.91906e-11	6.30099e-06	3.78423	2.27271e+06	21.3497	2.27273e+06
0.000796479	9.93658	4.62142	10.9587	-24.9427	20329	3.7842	0.00166506	4.32385e+07	7.68959e+06	1	11	0.00506648	0.000462325	0	-0.0567225	-3.55486e-05	5.83825e-07	150.177	0.0012628	-0.00109557	-0.000628011	-24.9422	10.9574	9.93548	4.62079	0.0827406	0.038482	0.0912517	24.9427	7.68959e+09	1.65335e+10	1.82342e+10	-65.0573	0.0000000E+000	0.0000000E+000	0.0000000E+000	65.0573	0.0000000E+000	0.0000000E+000	0.0000000E+000	-65.0573	0.0000000E+000	0.0000000E+000	0.0000000E+000	-24.9427	0.0000000E+000	0.0000000E+000	0.0000000E+000	24.9427	2.15011	65.0573	0.000000000000000E+000	6.30093e-06	-5.91906e-11	6.30099e-06	3.78423	2.27271e+06	21.3497	2.27273e+06
0.000497799	9.61464	6.66851	11.7009	-34.7444	20329	3.7842	0.00166506	4.79443e+07	1.55725e+07	1	11	0.0050646	0.00043284	0	-0.0567225	-3.55486e-05	1.70157e-06	26.9463	0.00393118	0.00350438	-0.00178143	-34.7274	11.7027	9.61814	6.66673	0.0702259	0.0487072	0.0854638	34.7444	1.55725e+10	2.24524e+10	2.73242e+10	-55.2556	0.0000000E+000	0.0000000E+000	0.0000000E+000	55.2556	0.0000000E+000	0.0000000E+000	0.0000000E+000	-55.2556	0.0000000E+000	0.0000000E+000	0.0000000E+000	-34.7444	0.0000000E+000	0.0000000E+000	0.0000000E+000	34.7444	1.4418	55.2556	0.000000000000000E+000	6.30093e-06	-5.91906e-11	6.30099e-06	3.78423	2.27271e+06	21.3497	2.27273e+06
0.000298679	9.3787	10.1431	13.8146	-47.2422	20329	3.7842	0.00166506	5.25346e+07	2.83211e+07	1	11	0.00506668	0.000366764	0	-0.0567225	-3.55486e-05	2.13237e-06	-64.9562	0.005814	0.00246113	0.0052674	-47.2496	13.8201	9.38116	10.1483	0.0491439	0.0531491	0.0723874	47.2422	2.83211e+10	2.61869e+10	3.85725e+10	-42.7578	0.0000000E+000	0.0000000E+000	0.0000000E+000	42.7578	0.0000000E+000	0.0000000E+000	0.0000000E+000	-42.7578	0.0000000E+000	0.0000000E+000	0.0000000E+000	-47.2422	0.0000000E+000	0.0000000E+000	0.0000000E+000	47.2422	0.924642	42.7578	0.000000000000000E+000	6.30093e-06	-5.91906e-11	6.30099e-06	3.78423	2.27271e+06	21.3497	2.27273e+06
9.95598e-05	10.8289	36.4292	38.0046	-73.445	20329	3.7842	0.00166506	4.3882e+07	4.03193e+07	1	11	0.00507072	0.000133424	0	-0.0567225	-3.55486e-05	3.24386e-06	30.3431	0.0243125	0.020982	-0.0122821	-73.4094	37.9988	10.8499	36.4169	0.0074974	0.0252218	0.0263126	73.445	4.03193e+10	1.19852e+10	4.20629e+10	-16.555	0.0000000E+000	0.0000000E+000	0.0000000E+000	16.555	0.0000000E+000	0.0000000E+000	0.0000000E+000	-16.555	0.0000000E+000	0.0000000E+000	0.0000000E+000	-73.445	0.0000000E+000	0.0000000E+000	0.0000000E+000	73.445	0.297258	16.555	0.000000000000000E+000	6.30093e-06	-5.91906e-11	6.30099e-06	3.78423	2.27271e+06	21.3497	2.27273e+06