File: txt/17222_R278_UC78_50SOC__C02.mpt
EC-Lab ASCII FILE
Nb header lines : 64

Potentio Electrochemical Impedance Spectroscopy

Run on channel : 2 (SN 66139)
User :
CE vs. WE compliance from -10 V to 10 V
Electrode connection : standard
Potential control : Ewe
Ewe ctrl range : min = -10.00 V, max = 10.00 V
Safety Limits :
	Do not start on E overload
Acquisition started on : 09/02/2025 16:41:01.458
Loaded Setting File :  C:\Users\Celltest\OneDrive - store-dot.com\Documents\EC-Lab\Data\Michael\R278\UC74_NCMA_16706_EIS_50_SOC.mps
Saved on :
	File : UC78_17222_EIS_50SOC_C02.mpr
	Directory : C:\Users\Celltest\OneDrive - store-dot.com\Documents\EC-Lab\Data\Michael\R278\
	Host : 169.254.61.224
Device : VMP-3e (SN .003165)
Address : USB
EC-LAB for windows v11.62 (software)
Internet server v27.00 (firmware)
Command interpretor v12.03 (firmware)
Electrode material :
Initial state :
Electrolyte :
Comments :
Electrode surface area : 0.001 cm²
Characteristic mass : 0.001 g
Equivalent Weight : 0.000 g/eq.
Density : 0.000 g/cm3
Volume (V) : 0.001 cm³
Record Ece
Cycle Definition : Charge/Discharge alternance
Mode                Multi sine
E (V)               0.0000
vs.                 Eoc
tE (h:m:s)          0:00:0.0000
record              0
dI                  0.000
unit dI             mA
dt (s)              0.000
fi                  1.000
unit fi             MHz
ff                  0.100
unit ff             mHz
Nd                  10
Points              per decade
spacing             Logarithmic
Va (mV)             5.0
pw                  0.10
Na                  2
corr                0
E range min (V)     -10.000
E range max (V)     10.000
I Range             Auto
Bandwidth           5
nc cycles           0
goto Ns'            0
nr cycles           0
inc. cycle          0

freq/Hz	Re(Z)/Ohm	-Im(Z)/Ohm	|Z|/Ohm	Phase(Z)/deg	time/s	<Ewe>/V	<I>/mA	Cs/µF	Cp/µF	cycle number	I Range	|Ewe|/V	|I|/A	Ns	(Q-Qo)/mA.h	<Ece>/V	|Ece|/V	Phase(Zce)/deg	|Zce|/Ohm	Re(Zce)/Ohm	-Im(Zce)/Ohm	Phase(Zwe-ce)/deg	|Zwe-ce|/Ohm	Re(Zwe-ce)/Ohm	-Im(Zwe-ce)/Ohm	Re(Y)/Ohm-1	Im(Y)/Ohm-1	|Y|/Ohm-1	Phase(Y)/deg	Re(C)/nF	Im(C)/nF	|C|/nF	Phase(C)/deg	Re(M)	Im(M)	|M|	Phase(M)/deg	Re(Permittivity)	Im(Permittivity)	|Permittivity|	Phase(Permittivity)/deg	Re(Resistivity)/Ohm.cm	Im(Resistivity)/Ohm.cm	|Resistivity|/Ohm.cm	Phase(Resistivity)/deg	Re(Conductivity)/mS/cm	Im(Conductivity)/mS/cm	|Conductivity|/mS/cm	Phase(Conductivity)/deg	Tan(Delta)	Loss Angle(Delta)/deg	dq/mA.h	Pwe/W	Pce/W	Pwe-ce/W	<Ewe-Ece>/V	Rwe/Ohm	Rce/Ohm	Rwe-ce/Ohm		Ewe-Ece/V
1.00002e+06	2.98768	2.11632	3.66129	-35.3117	1.77352	3.78376	-0.116215	0.0752024	0.0251261	1	10	0.000198757	5.4286e-05	0	-5.0461e-05	0.000140708	0.000182837	-68.6772	3.36803	1.22469	3.13748	-51.2782	6.73398	4.21237	5.2538	0.222878	0.157875	0.273128	35.3117	25.1261	35.4714	43.4688	-54.6883	0.0000000E+000	0.0000000E+000	0.0000000E+000	54.6883	0.0000000E+000	0.0000000E+000	0.0000000E+000	-54.6883	0.0000000E+000	0.0000000E+000	0.0000000E+000	-35.3117	0.0000000E+000	0.0000000E+000	0.0000000E+000	35.3117	1.41174	54.6882	-5.0461e-05	-0.000439731	-1.63524e-08	-0.000439715	3.78362	32558.2	1.21075	32557
630957	0.577588	-0.272332	0.63857	25.2438	3.06653	3.7837	-0.0855144	-0.926236	-0.168462	1	9	0.000151577	0.000237369	0	-8.62691e-05	0.000293435	0.000107364	-96.3909	0.452308	-0.0503467	0.449497	-18.5736	0.556211	0.527241	0.177165	1.41645	-0.667853	1.566	-25.2438	-168.462	357.29	395.013	-115.244	0.0000000E+000	0.0000000E+000	0.0000000E+000	115.244	0.0000000E+000	0.0000000E+000	0.0000000E+000	-115.244	0.0000000E+000	0.0000000E+000	0.0000000E+000	25.2438	0.0000000E+000	0.0000000E+000	0.0000000E+000	-25.2438	2.12089	64.7562	-9.29577e-06	-0.000323561	-2.50929e-08	-0.000323536	3.78341	44246.4	3.43141	44243
398103	0.818317	-0.0441064	0.819504	3.08519	3.83452	3.78384	-0.0532967	-9.06406	-0.0262557	1	9	0.000587336	0.000716697	0	-0.000100302	-5.02005e-05	4.75027e-05	162.692	0.06628	-0.0632789	-0.0197185	4.83184	0.75773	0.755038	-0.0638249	1.21848	-0.0656748	1.22025	-3.08519	-26.2557	487.128	487.835	-93.0852	0.0000000E+000	0.0000000E+000	0.0000000E+000	93.0852	0.0000000E+000	0.0000000E+000	0.0000000E+000	-93.0852	0.0000000E+000	0.0000000E+000	0.0000000E+000	3.08519	0.0000000E+000	0.0000000E+000	0.0000000E+000	-3.08519	18.5533	86.9148	-6.67139e-06	-0.000201666	2.67552e-09	-0.000201669	3.78389	70995.9	0.941908	70996.8
251206	0.885781	0.190971	0.906134	-12.1665	4.60155	3.78379	-0.0691262	3.31759	0.147358	1	9	0.00179939	0.00198579	0	-0.000114831	0.000293435	3.60578e-05	81.9825	0.0181579	0.00253259	-0.0179804	-11.0199	0.905001	0.888314	0.172991	1.0788	0.232585	1.10359	12.1665	147.358	683.489	699.194	-77.8335	0.0000000E+000	0.0000000E+000	0.0000000E+000	77.8335	0.0000000E+000	0.0000000E+000	0.0000000E+000	-77.8335	0.0000000E+000	0.0000000E+000	0.0000000E+000	-12.1665	0.0000000E+000	0.0000000E+000	0.0000000E+000	12.1665	4.6383	77.8335	-7.64693e-06	-0.000261559	-2.0284e-08	-0.000261538	3.78349	54737.4	4.24492	54733.2
158486	0.979401	0.295447	1.02299	-16.7865	5.24552	3.78375	-0.0731114	3.39899	0.283506	1	9	0.00494687	0.00483568	0	-0.000130877	7.07199e-06	3.37173e-05	30.5651	0.0069726	0.00600377	-0.00354569	-16.5006	1.02773	0.985405	0.291901	0.935869	0.282315	0.977524	16.7865	283.506	939.818	981.649	-73.2135	0.0000000E+000	0.0000000E+000	0.0000000E+000	73.2135	0.0000000E+000	0.0000000E+000	0.0000000E+000	-73.2135	0.0000000E+000	0.0000000E+000	0.0000000E+000	-16.7865	0.0000000E+000	0.0000000E+000	0.0000000E+000	16.7865	3.31498	73.2135	-2.02722e-06	-0.000276635	-5.17043e-10	-0.000276635	3.78375	51753.3	0.096729	51753.2
100004	1.09373	0.335282	1.14397	-17.0429	6.13753	3.7837	-0.0733349	4.74672	0.407743	1	9	0.00508633	0.00444622	0	-0.000140694	0.000236162	1.93308e-05	63.3267	0.00434768	0.00195169	-0.003885	-16.8283	1.1447	1.09568	0.331397	0.835763	0.256202	0.874151	17.0429	407.743	1330.11	1391.2	-72.9571	0.0000000E+000	0.0000000E+000	0.0000000E+000	72.9571	0.0000000E+000	0.0000000E+000	0.0000000E+000	-72.9571	0.0000000E+000	0.0000000E+000	0.0000000E+000	-17.0429	0.0000000E+000	0.0000000E+000	0.0000000E+000	17.0429	3.26212	72.9571	1.33799e-06	-0.000277477	-1.73189e-08	-0.00027746	3.78346	51594.8	3.22033	51591.6
63093.8	1.20009	0.3439	1.24839	-15.9904	6.90357	3.78369	-0.0757559	7.33501	0.55663	1	9	0.00538549	0.00431396	0	-0.000151359	0.000331616	1.64374e-05	-10.8552	0.00381028	0.00374211	0.000717579	-15.9747	1.25218	1.20383	0.344618	0.77004	0.220665	0.801033	15.9904	556.63	1942.43	2020.62	-74.0096	0.0000000E+000	0.0000000E+000	0.0000000E+000	74.0096	0.0000000E+000	0.0000000E+000	0.0000000E+000	-74.0096	0.0000000E+000	0.0000000E+000	0.0000000E+000	-15.9904	0.0000000E+000	0.0000000E+000	0.0000000E+000	15.9904	3.48963	74.0096	-1.71315e-06	-0.000286637	-2.51219e-08	-0.000286612	3.78336	49945.8	4.37744	49941.5
39814.1	1.29401	0.353092	1.34132	-15.2626	7.66952	3.78368	-0.0747875	11.3213	0.78453	1	9	0.00533679	0.00397877	0	-0.000170102	0.000102526	1.16513e-05	27.6521	0.00292837	0.0025939	-0.00135906	-15.1776	1.34346	1.2966	0.351733	0.719241	0.196257	0.745536	15.2626	784.53	2875.13	2980.25	-74.7374	0.0000000E+000	0.0000000E+000	0.0000000E+000	74.7374	0.0000000E+000	0.0000000E+000	0.0000000E+000	-74.7374	0.0000000E+000	0.0000000E+000	0.0000000E+000	-15.2626	0.0000000E+000	0.0000000E+000	0.0000000E+000	15.2626	3.66478	74.7374	-9.66862e-06	-0.000282972	-7.66768e-09	-0.000282964	3.78358	50592.4	1.3709	50591.1
25116.9	1.38659	0.371628	1.43553	-15.0036	8.43751	3.78369	-0.0800019	17.0508	1.14272	1	9	0.00531101	0.00369969	0	-0.000182868	0.000350707	6.36301e-06	18.6031	0.00171987	0.00163001	-0.000548657	-14.9656	1.43696	1.38822	0.371079	0.672861	0.180337	0.696609	15.0036	1142.72	4263.63	4414.11	-74.9964	0.0000000E+000	0.0000000E+000	0.0000000E+000	74.9964	0.0000000E+000	0.0000000E+000	0.0000000E+000	-74.9964	0.0000000E+000	0.0000000E+000	0.0000000E+000	-15.0036	0.0000000E+000	0.0000000E+000	0.0000000E+000	15.0036	3.73112	74.9964	-6.15958e-06	-0.000302702	-2.80572e-08	-0.000302674	3.78334	47295	4.38374	47290.6
15847.7	1.48291	0.403152	1.53674	-15.2091	9.20356	3.78368	-0.0842107	24.9107	1.71445	1	9	0.0053226	0.00346358	0	-0.000195255	-0.000241109	1.17179e-05	-80.3719	0.00338317	0.000565844	0.00333551	-15.3235	1.53816	1.48348	0.406487	0.627938	0.170714	0.65073	15.2091	1714.45	6306.25	6535.15	-74.7909	0.0000000E+000	0.0000000E+000	0.0000000E+000	74.7909	0.0000000E+000	0.0000000E+000	0.0000000E+000	-74.7909	0.0000000E+000	0.0000000E+000	0.0000000E+000	-15.2091	0.0000000E+000	0.0000000E+000	0.0000000E+000	15.2091	3.67829	74.7909	-8.12671e-06	-0.000318627	2.0304e-08	-0.000318647	3.78392	44931.1	2.86316	44934
10002.2	1.59031	0.455455	1.65424	-15.9814	9.97152	3.78368	-0.0779534	34.9364	2.64833	1	9	0.00527951	0.0031915	0	-0.000209317	7.07199e-06	5.46506e-06	-4.64247	0.00171238	0.00170676	0.000138596	-15.9698	1.65592	1.59201	0.455593	0.581144	0.166436	0.604507	15.9814	2648.33	9247.13	9618.89	-74.0186	0.0000000E+000	0.0000000E+000	0.0000000E+000	74.0186	0.0000000E+000	0.0000000E+000	0.0000000E+000	-74.0186	0.0000000E+000	0.0000000E+000	0.0000000E+000	-15.9814	0.0000000E+000	0.0000000E+000	0.0000000E+000	15.9814	3.49169	74.0186	-7.32124e-06	-0.000294951	-5.51286e-10	-0.00029495	3.78367	48537.7	0.0907208	48537.6
6309.38	1.7089	0.522547	1.78701	-17.0025	10.7375	3.78367	-0.0783631	48.2734	4.12766	1	9	0.00519995	0.00290986	0	-0.000218913	-5.02005e-05	7.5631e-06	-41.8506	0.00259913	0.00193606	0.00173411	-17.0375	1.78937	1.71084	0.524281	0.535135	0.163633	0.559594	17.0025	4127.66	13498.8	14115.8	-72.9975	0.0000000E+000	0.0000000E+000	0.0000000E+000	72.9975	0.0000000E+000	0.0000000E+000	0.0000000E+000	-72.9975	0.0000000E+000	0.0000000E+000	0.0000000E+000	-17.0025	0.0000000E+000	0.0000000E+000	0.0000000E+000	17.0025	3.27034	72.9975	-4.26953e-06	-0.0002965	3.93387e-09	-0.000296504	3.78372	48283.9	0.640615	48284.5
3983.6	1.85799	0.611328	1.95597	-18.2126	11.5711	3.78369	-0.0503169	65.3537	6.384	1	9	0.00510325	0.00260906	0	-0.000228207	0.000140708	5.48416e-06	159.708	0.00210197	-0.00197152	-0.000728961	-18.2104	1.95387	1.85601	0.610599	0.485642	0.15979	0.511255	18.2126	6384	19402.6	20425.9	-71.7874	0.0000000E+000	0.0000000E+000	0.0000000E+000	71.7874	0.0000000E+000	0.0000000E+000	0.0000000E+000	-71.7874	0.0000000E+000	0.0000000E+000	0.0000000E+000	-18.2126	0.0000000E+000	0.0000000E+000	0.0000000E+000	18.2126	3.03926	71.7874	-3.97934e-07	-0.000190384	-7.07999e-09	-0.000190376	3.78355	75197.1	2.79643	75194.3
2510.8	2.02005	0.719179	2.14425	-19.5968	12.7868	3.78368	-0.0841362	88.1394	9.91503	1	9	0.00500771	0.00233541	0	-0.000258101	0.000293435	7.40668e-06	2.88985	0.00317146	0.00316743	-0.000159892	-19.5644	2.14718	2.02321	0.719019	0.43935	0.156418	0.466364	19.5968	9915.04	27849.6	29561.9	-70.4032	0.0000000E+000	0.0000000E+000	0.0000000E+000	70.4032	0.0000000E+000	0.0000000E+000	0.0000000E+000	-70.4032	0.0000000E+000	0.0000000E+000	0.0000000E+000	-19.5968	0.0000000E+000	0.0000000E+000	0.0000000E+000	19.5968	2.80882	70.4032	-1.48855e-05	-0.000318344	-2.46885e-08	-0.00031832	3.78338	44970.8	3.48761	44967.4
1585.51	2.21803	0.857584	2.37805	-21.1386	13.6888	3.78368	-0.0798157	117.051	15.2226	1	9	0.0052173	0.00219394	0	-0.000277572	0.000312525	5.15231e-06	52.6986	0.00234843	0.00142316	-0.00186808	-21.0843	2.3787	2.21945	0.855716	0.392217	0.151648	0.420513	21.1386	15222.6	39371.2	42211.6	-68.8614	0.0000000E+000	0.0000000E+000	0.0000000E+000	68.8614	0.0000000E+000	0.0000000E+000	0.0000000E+000	-68.8614	0.0000000E+000	0.0000000E+000	0.0000000E+000	-21.1386	0.0000000E+000	0.0000000E+000	0.0000000E+000	21.1386	2.58637	68.8614	-1.1458e-05	-0.000301997	-2.49444e-08	-0.000301972	3.78336	47405.2	3.91559	47401.3
1000.32	2.47559	1.02203	2.67827	-22.433	14.5908	3.78367	-0.0799647	155.674	22.6694	1	9	0.00516789	0.00192957	0	-0.000298246	7.07199e-06	1.41335e-05	29.466	0.00732468	0.00637721	-0.00360307	-22.3099	2.68279	2.48197	1.01843	0.345121	0.142481	0.373376	22.433	22669.4	54910.2	59405.6	-67.567	0.0000000E+000	0.0000000E+000	0.0000000E+000	67.567	0.0000000E+000	0.0000000E+000	0.0000000E+000	-67.567	0.0000000E+000	0.0000000E+000	0.0000000E+000	-22.433	0.0000000E+000	0.0000000E+000	0.0000000E+000	22.433	2.42222	67.567	-1.06022e-05	-0.00030256	-5.6551e-10	-0.00030256	3.78367	47316.8	0.0884389	47316.7
631.01	2.82411	1.22831	3.07967	-23.506	15.7375	3.78368	-0.0928806	205.341	32.6651	1	10	0.00513676	0.00166796	0	-0.000322048	0.00017889	1.20717e-05	92.8511	0.00723739	-0.000359997	-0.00722843	-23.3852	3.07646	2.82375	1.22108	0.297765	0.129509	0.32471	23.506	32665.1	75103.2	81899.4	-66.494	0.0000000E+000	0.0000000E+000	0.0000000E+000	66.494	0.0000000E+000	0.0000000E+000	0.0000000E+000	-66.494	0.0000000E+000	0.0000000E+000	0.0000000E+000	-23.506	0.0000000E+000	0.0000000E+000	0.0000000E+000	23.506	2.29919	66.494	-1.46063e-05	-0.00035143	-1.66154e-08	-0.000351413	3.7835	40737	1.92602	40735.1
398.089	3.27885	1.38378	3.55889	-22.8813	16.6389	3.78367	-0.0934021	288.917	43.6795	1	10	0.00503818	0.00141566	0	-0.0003451	0.000121617	1.26652e-05	-59.6369	0.00894652	0.00452227	0.00771941	-22.9673	3.56606	3.28337	1.3915	0.258877	0.109254	0.280987	22.8813	43679.5	103498	112338	-67.1187	0.0000000E+000	0.0000000E+000	0.0000000E+000	67.1187	0.0000000E+000	0.0000000E+000	0.0000000E+000	-67.1187	0.0000000E+000	0.0000000E+000	0.0000000E+000	-22.8813	0.0000000E+000	0.0000000E+000	0.0000000E+000	22.8813	2.36949	67.1187	-1.05276e-05	-0.000353403	-1.13593e-08	-0.000353392	3.78355	40509.5	1.30208	40508.2
251.044	3.81823	1.42357	4.07498	-20.4472	17.537	3.78368	-0.091696	445.338	54.3498	1	10	0.00496818	0.00121919	0	-0.000367307	7.07199e-06	1.05655e-05	66.6479	0.00866595	0.00343502	-0.00795608	-20.3256	4.07543	3.82167	1.41562	0.229938	0.0857292	0.2454	20.4472	54349.8	145774	155576	-69.5528	0.0000000E+000	0.0000000E+000	0.0000000E+000	69.5528	0.0000000E+000	0.0000000E+000	0.0000000E+000	-69.5528	0.0000000E+000	0.0000000E+000	0.0000000E+000	-20.4472	0.0000000E+000	0.0000000E+000	0.0000000E+000	20.4472	2.68215	69.5528	-1.04325e-05	-0.000346948	-6.48473e-10	-0.000346947	3.78367	41263.3	0.0771243	41263.2
158.428	4.35538	1.31597	4.54984	-16.8121	18.4419	3.78368	-0.091316	763.382	63.8616	1	10	0.0049429	0.00108639	0	-0.000388703	0.000255253	7.86993e-06	129.974	0.00724411	-0.00465389	-0.00555144	-16.762	4.54378	4.35072	1.31042	0.210394	0.06357	0.219788	16.8121	63861.6	211359	220796	-73.1879	0.0000000E+000	0.0000000E+000	0.0000000E+000	73.1879	0.0000000E+000	0.0000000E+000	0.0000000E+000	-73.1879	0.0000000E+000	0.0000000E+000	0.0000000E+000	-16.8121	0.0000000E+000	0.0000000E+000	0.0000000E+000	16.8121	3.30964	73.1879	-1.07616e-05	-0.000345511	-2.33087e-08	-0.000345487	3.78342	41435	2.79527	41432.2
100.032	4.77209	1.10149	4.89756	-12.9974	19.3418	3.78367	-0.0916625	1444.44	73.0638	1	10	0.0049125	0.00100305	0	-0.00041152	-0.000279291	4.49431e-06	-10.3719	0.00448065	0.00440744	0.000806685	-12.995	4.90204	4.7765	1.1023	0.198952	0.0459221	0.204183	12.9974	73063.8	316541	324864	-77.0026	0.0000000E+000	0.0000000E+000	0.0000000E+000	77.0026	0.0000000E+000	0.0000000E+000	0.0000000E+000	-77.0026	0.0000000E+000	0.0000000E+000	0.0000000E+000	-12.9974	0.0000000E+000	0.0000000E+000	0.0000000E+000	12.9974	4.33239	77.0026	-1.2395e-05	-0.00034682	2.56005e-08	-0.000346846	3.78395	41278.3	3.04695	41281.3
63.0823	5.07718	0.845514	5.1471	-9.45483	20.259	3.78367	-0.0891479	2983.95	80.5209	1	10	0.00491135	0.000954198	0	-0.000433548	0.000388889	5.9173e-06	-25.8251	0.00620134	0.005582	0.00270146	-9.47427	5.15305	5.08276	0.848216	0.191645	0.0319151	0.194284	9.45483	80520.9	483515	490174	-80.5452	0.0000000E+000	0.0000000E+000	0.0000000E+000	80.5452	0.0000000E+000	0.0000000E+000	0.0000000E+000	-80.5452	0.0000000E+000	0.0000000E+000	0.0000000E+000	-9.45483	0.0000000E+000	0.0000000E+000	0.0000000E+000	9.45483	6.00484	80.5452	-1.17546e-05	-0.000337307	-3.46686e-08	-0.000337272	3.78328	42442.6	4.36229	42438.3
39.8089	5.26056	0.631148	5.29829	-6.8415	21.1598	3.78368	-0.0886823	6334.44	89.8877	1	10	0.00490992	0.000926699	0	-0.000454864	-0.000202927	1.29375e-05	-2.93048	0.0139609	0.0139426	0.000713739	-6.83123	5.31221	5.2745	0.631862	0.187396	0.0224833	0.18874	6.8415	89887.8	749205	754578	-83.1585	0.0000000E+000	0.0000000E+000	0.0000000E+000	83.1585	0.0000000E+000	0.0000000E+000	0.0000000E+000	-83.1585	0.0000000E+000	0.0000000E+000	0.0000000E+000	-6.8415	0.0000000E+000	0.0000000E+000	0.0000000E+000	6.8415	8.3349	83.1585	-1.03862e-05	-0.000335545	1.79961e-08	-0.000335563	3.78388	42665.5	2.28825	42667.8
25.1044	5.36678	0.461363	5.38658	-4.91343	22.0391	3.78368	-0.0888537	13741.3	100.806	1	10	0.00490462	0.000910526	0	-0.000475242	0.00019798	6.46619e-06	-87.4576	0.0071016	0.000315018	0.00709461	-4.98832	5.3875	5.3671	0.468458	0.184964	0.0159007	0.185647	4.91343	100806	1.17262e+06	1.17695e+06	-85.0866	0.0000000E+000	0.0000000E+000	0.0000000E+000	85.0866	0.0000000E+000	0.0000000E+000	0.0000000E+000	-85.0866	0.0000000E+000	0.0000000E+000	0.0000000E+000	-4.91343	0.0000000E+000	0.0000000E+000	0.0000000E+000	4.91343	11.6325	85.0866	-1.18758e-05	-0.000336194	-1.75913e-08	-0.000336176	3.78348	42583.3	2.22816	42581.1
15.8576	5.44363	0.346507	5.45465	-3.64217	22.9171	3.78367	-0.0897216	28964.9	116.886	1	10	0.0049119	0.000900499	0	-0.000492443	0.00017889	8.14018e-06	33.7172	0.00903964	0.00751906	-0.00501785	-3.58463	5.46184	5.45115	0.341489	0.18296	0.011646	0.18333	3.64217	116886	1.83628e+06	1.83999e+06	-86.3578	0.0000000E+000	0.0000000E+000	0.0000000E+000	86.3578	0.0000000E+000	0.0000000E+000	0.0000000E+000	-86.3578	0.0000000E+000	0.0000000E+000	0.0000000E+000	-3.64217	0.0000000E+000	0.0000000E+000	0.0000000E+000	3.64217	15.71	86.3578	-7.16537e-06	-0.000339477	-1.60503e-08	-0.000339461	3.78349	42171.2	1.99383	42169.2
10.0032	5.47665	0.270514	5.48333	-2.82778	23.8978	3.78367	-0.086965	58815.3	143.147	1	10	0.00490116	0.000893829	0	-0.000519133	4.52537e-05	6.46233e-06	127.195	0.00722994	-0.00437069	-0.00575926	-2.76987	5.47868	5.47228	0.264755	0.182149	0.00899709	0.182371	2.82778	143147	2.89806e+06	2.9016e+06	-87.1722	0.0000000E+000	0.0000000E+000	0.0000000E+000	87.1722	0.0000000E+000	0.0000000E+000	0.0000000E+000	-87.1722	0.0000000E+000	0.0000000E+000	0.0000000E+000	-2.82778	0.0000000E+000	0.0000000E+000	0.0000000E+000	2.82778	20.2453	87.1722	-1.8073e-05	-0.000329047	-3.93549e-09	-0.000329043	3.78363	43508	0.520367	43507.5
6.31058	5.5307	0.222457	5.53517	-2.30333	24.8223	3.78368	-0.0868383	113371	183.12	1	10	0.00491261	0.000887527	0	-0.000536616	0.000121617	7.15216e-06	-43.0078	0.00805853	0.00589289	0.00549671	-2.35767	5.54128	5.53659	0.227954	0.180517	0.00726081	0.180663	2.30333	183120	4.5527e+06	4.55638e+06	-87.6967	0.0000000E+000	0.0000000E+000	0.0000000E+000	87.6967	0.0000000E+000	0.0000000E+000	0.0000000E+000	-87.6967	0.0000000E+000	0.0000000E+000	0.0000000E+000	-2.30333	0.0000000E+000	0.0000000E+000	0.0000000E+000	2.30333	24.8618	87.6967	-1.34995e-05	-0.000328569	-1.0561e-08	-0.000328558	3.78356	43571.6	1.4005	43570.2
3.97785	5.56772	0.211503	5.57174	-2.17547	25.8294	3.78369	-0.0834242	189171	272.589	1	10	0.0049115	0.000881503	0	-0.000557934	0.000274344	3.16074e-06	52.7344	0.00358562	0.00217113	-0.00285357	-2.14531	5.5738	5.56989	0.20865	0.179348	0.00681296	0.179477	2.17547	272589	7.17576e+06	7.18094e+06	-87.8245	0.0000000E+000	0.0000000E+000	0.0000000E+000	87.8245	0.0000000E+000	0.0000000E+000	0.0000000E+000	-87.8245	0.0000000E+000	0.0000000E+000	0.0000000E+000	-2.17547	0.0000000E+000	0.0000000E+000	0.0000000E+000	2.17547	26.3245	87.8245	-4.50223e-06	-0.000315651	-2.28869e-08	-0.000315628	3.78342	45354.9	3.28854	45351.6
2.51367	5.60463	0.216711	5.60882	-2.21432	27.3889	3.78369	-0.0793009	292166	436.164	1	10	0.00490751	0.000874962	0	-0.000587044	-0.000126564	5.72143e-06	-94.75	0.00653906	-0.000541493	0.0065166	-2.28106	5.60853	5.60409	0.223228	0.178158	0.00688872	0.178291	2.21432	436163	1.12802e+07	1.12886e+07	-87.7857	0.0000000E+000	0.0000000E+000	0.0000000E+000	87.7857	0.0000000E+000	0.0000000E+000	0.0000000E+000	-87.7857	0.0000000E+000	0.0000000E+000	0.0000000E+000	-2.21432	0.0000000E+000	0.0000000E+000	0.0000000E+000	2.21432	25.8622	87.7857	-2.294e-05	-0.00030005	1.00366e-08	-0.00030006	3.78381	47713	1.596	47714.6
1.58469	5.64629	0.231992	5.65106	-2.35282	30.3696	3.7837	-0.0799024	432916	729.611	1	11	0.004909	0.000868688	0	-0.000673973	0.000369798	6.39087e-06	53.8003	0.00735692	0.00434501	-0.00593676	-2.29091	5.65516	5.65064	0.226055	0.176809	0.00726464	0.176958	2.35282	729612	1.77575e+07	1.77725e+07	-87.6472	0.0000000E+000	0.0000000E+000	0.0000000E+000	87.6472	0.0000000E+000	0.0000000E+000	0.0000000E+000	-87.6472	0.0000000E+000	0.0000000E+000	0.0000000E+000	-2.35282	0.0000000E+000	0.0000000E+000	0.0000000E+000	2.35282	24.3383	87.6472	-3.42783e-05	-0.000302326	-2.95477e-08	-0.000302297	3.78333	47354	4.62812	47349.4
1.00469	5.67815	0.262049	5.68419	-2.64235	241.189	3.78367	-0.0630899	604511	1284.79	1	11	0.00498033	0.000876172	0	-0.00791682	0.000255253	3.73118e-07	27.083	0.00042585	0.000379155	-0.000193881	-2.64022	5.68456	5.67853	0.261855	0.17574	0.00811046	0.175927	2.64235	1.28479e+06	2.78391e+07	2.78688e+07	-87.3577	0.0000000E+000	0.0000000E+000	0.0000000E+000	87.3577	0.0000000E+000	0.0000000E+000	0.0000000E+000	-87.3577	0.0000000E+000	0.0000000E+000	0.0000000E+000	-2.64235	0.0000000E+000	0.0000000E+000	0.0000000E+000	2.64235	21.6683	87.3577	-0.00722021	-0.000238711	-1.61039e-08	-0.000238695	3.78341	59972.6	4.04586	59968.5
0.632957	5.739	0.319878	5.74791	-3.19023	241.19	3.78367	-0.0630899	786071	2434.5	1	11	0.00499263	0.0008686	0	-0.00791682	0.000255253	2.09623e-07	-41.9427	0.000241334	0.000179508	0.000161305	-3.19173	5.74809	5.73918	0.320039	0.173707	0.00968199	0.173976	3.19023	2.4345e+06	4.3678e+07	4.37458e+07	-86.8098	0.0000000E+000	0.0000000E+000	0.0000000E+000	86.8098	0.0000000E+000	0.0000000E+000	0.0000000E+000	-86.8098	0.0000000E+000	0.0000000E+000	0.0000000E+000	-3.19023	0.0000000E+000	0.0000000E+000	0.0000000E+000	3.19023	17.9412	86.8098	0.000000000000000E+000	-0.000238711	-1.61039e-08	-0.000238695	3.78341	59972.6	4.04586	59968.5
0.401878	5.79585	0.404042	5.80992	-3.98777	241.192	3.78367	-0.0630899	980167	4740.38	1	11	0.00500619	0.000861663	0	-0.00791682	0.000255253	2.75595e-07	75.3378	0.000319841	8.09581e-05	-0.000309425	-3.98467	5.80997	5.79593	0.403732	0.171703	0.0119698	0.17212	3.98777	4.74038e+06	6.79992e+07	6.81642e+07	-86.0122	0.0000000E+000	0.0000000E+000	0.0000000E+000	86.0122	0.0000000E+000	0.0000000E+000	0.0000000E+000	-86.0122	0.0000000E+000	0.0000000E+000	0.0000000E+000	-3.98777	0.0000000E+000	0.0000000E+000	0.0000000E+000	3.98777	14.3447	86.0122	0.000000000000000E+000	-0.000238711	-1.61039e-08	-0.000238695	3.78341	59972.6	4.04586	59968.5
0.251173	5.90679	0.527866	5.93033	-5.10673	241.193	3.78367	-0.0630899	1.20039e+06	9510.71	1	11	0.00500687	0.000844282	0	-0.00791682	0.000255253	3.52476e-07	47.1762	0.000417486	0.000283784	-0.000306204	-5.10354	5.93058	5.90707	0.52756	0.167955	0.0150095	0.168625	5.10673	9.5107e+06	1.06424e+08	1.06848e+08	-84.8933	0.0000000E+000	0.0000000E+000	0.0000000E+000	84.8933	0.0000000E+000	0.0000000E+000	0.0000000E+000	-84.8933	0.0000000E+000	0.0000000E+000	0.0000000E+000	-5.10673	0.0000000E+000	0.0000000E+000	0.0000000E+000	5.10673	11.1899	84.8933	0.000000000000000E+000	-0.000238711	-1.61039e-08	-0.000238695	3.78341	59972.6	4.04586	59968.5
0.160751	6.04571	0.623965	6.07783	-5.89252	241.194	3.78367	-0.0630899	1.58674e+06	16723.6	1	11	0.0050022	0.000823024	0	-0.00791682	0.000255253	7.54608e-07	-23.8322	0.000916872	0.000838693	0.000370471	-5.89518	6.0787	6.04655	0.624336	0.163663	0.0168913	0.164533	5.89252	1.67236e+07	1.62038e+08	1.62899e+08	-84.1075	0.0000000E+000	0.0000000E+000	0.0000000E+000	84.1075	0.0000000E+000	0.0000000E+000	0.0000000E+000	-84.1075	0.0000000E+000	0.0000000E+000	0.0000000E+000	-5.89252	0.0000000E+000	0.0000000E+000	0.0000000E+000	5.89252	9.68918	84.1075	0.000000000000000E+000	-0.000238711	-1.61039e-08	-0.000238695	3.78341	59972.6	4.04586	59968.5
0.100469	6.19279	0.868024	6.25332	-7.97899	241.195	3.78367	-0.0630899	1.82497e+06	35163.8	1	11	0.00500433	0.000800267	0	-0.00791682	0.000255253	5.20589e-07	-5.55834	0.000650519	0.00064746	6.30088e-05	-7.97874	6.25397	6.19343	0.868087	0.158367	0.0221978	0.159915	7.97899	3.51638e+07	2.50871e+08	2.53324e+08	-82.021	0.0000000E+000	0.0000000E+000	0.0000000E+000	82.021	0.0000000E+000	0.0000000E+000	0.0000000E+000	-82.021	0.0000000E+000	0.0000000E+000	0.0000000E+000	-7.97899	0.0000000E+000	0.0000000E+000	0.0000000E+000	7.97899	7.13435	82.021	0.000000000000000E+000	-0.000238711	-1.61039e-08	-0.000238695	3.78341	59972.6	4.04586	59968.5
0.0602816	6.48083	1.05415	6.566	-9.2386	241.197	3.78367	-0.0630899	2.50458e+06	64555.7	1	11	0.00500084	0.000761626	0	-0.00791682	0.000255253	4.53265e-07	14.1853	0.000595128	0.000576981	-0.000145841	-9.23654	6.56654	6.4814	1.054	0.150324	0.0244511	0.1523	9.2386	6.45557e+07	3.96884e+08	4.021e+08	-80.7614	0.0000000E+000	0.0000000E+000	0.0000000E+000	80.7614	0.0000000E+000	0.0000000E+000	0.0000000E+000	-80.7614	0.0000000E+000	0.0000000E+000	0.0000000E+000	-9.2386	0.0000000E+000	0.0000000E+000	0.0000000E+000	9.2386	6.14794	80.7614	0.000000000000000E+000	-0.000238711	-1.61039e-08	-0.000238695	3.78341	59972.6	4.04586	59968.5
0.0401878	6.82398	1.24266	6.9362	-10.3206	241.198	3.78367	-0.0630899	3.18695e+06	102290	1	11	0.00499973	0.000720816	0	-0.00791682	0.000255253	6.27437e-07	-20.4334	0.000870454	0.000815683	0.000303891	-10.3218	6.93706	6.8248	1.24296	0.141839	0.025829	0.144171	10.3206	1.0229e+08	5.61721e+08	5.70959e+08	-79.6794	0.0000000E+000	0.0000000E+000	0.0000000E+000	79.6794	0.0000000E+000	0.0000000E+000	0.0000000E+000	-79.6794	0.0000000E+000	0.0000000E+000	0.0000000E+000	-10.3206	0.0000000E+000	0.0000000E+000	0.0000000E+000	10.3206	5.49144	79.6794	0.000000000000000E+000	-0.000238711	-1.61039e-08	-0.000238695	3.78341	59972.6	4.04586	59968.5
0.0200939	7.57671	1.7271	7.77106	-12.8411	241.199	3.78367	-0.0630899	4.58606e+06	226523	1	11	0.00499989	0.000643399	0	-0.00791682	0.000255253	1.19843e-06	41.2388	0.00186265	0.00140066	-0.00122786	-12.8299	7.77215	7.57811	1.72587	0.125464	0.0285994	0.128683	12.8411	2.26523e+08	9.93748e+08	1.01924e+09	-77.1589	0.0000000E+000	0.0000000E+000	0.0000000E+000	77.1589	0.0000000E+000	0.0000000E+000	0.0000000E+000	-77.1589	0.0000000E+000	0.0000000E+000	0.0000000E+000	-12.8411	0.0000000E+000	0.0000000E+000	0.0000000E+000	12.8411	4.38696	77.1589	0.000000000000000E+000	-0.000238711	-1.61039e-08	-0.000238695	3.78341	59972.6	4.04586	59968.5
0.00796479	8.90642	1.7884	9.0842	-11.3539	20330.1	3.78363	0.00158945	1.11733e+07	433048	1	11	0.00499512	0.000549869	0	-0.0488887	0.000140708	3.03857e-07	19.3574	0.000552599	0.00052136	-0.000183164	-11.3521	9.08467	8.90694	1.78821	0.107927	0.0216716	0.110081	11.3539	4.33048e+08	2.15663e+09	2.19968e+09	-78.6461	0.0000000E+000	0.0000000E+000	0.0000000E+000	78.6461	0.0000000E+000	0.0000000E+000	0.0000000E+000	-78.6461	0.0000000E+000	0.0000000E+000	0.0000000E+000	-11.3539	0.0000000E+000	0.0000000E+000	0.0000000E+000	11.3539	4.98012	78.6461	-0.0409719	6.0139e-06	2.23649e-10	6.01367e-06	3.78348	2.38046e+06	88.5259	2.38037e+06
0.00497799	9.48432	1.73405	9.64153	-10.3611	20330.1	3.78363	0.00158945	1.84376e+07	596396	1	11	0.00500191	0.000518788	0	-0.0488887	0.000140708	2.72221e-07	1.85259	0.000524725	0.000524451	-1.69634e-05	-10.3605	9.64205	9.48484	1.73403	0.102027	0.0186538	0.103718	10.3611	5.96396e+08	3.26197e+09	3.31604e+09	-79.6389	0.0000000E+000	0.0000000E+000	0.0000000E+000	79.6389	0.0000000E+000	0.0000000E+000	0.0000000E+000	-79.6389	0.0000000E+000	0.0000000E+000	0.0000000E+000	-10.3611	0.0000000E+000	0.0000000E+000	0.0000000E+000	10.3611	5.46947	79.6389	0.000000000000000E+000	6.0139e-06	2.23649e-10	6.01367e-06	3.78348	2.38046e+06	88.5259	2.38037e+06
0.00318591	9.84063	2.31558	10.1094	-13.2413	20330.1	3.78363	0.00158945	2.15738e+07	1.13186e+06	1	11	0.00500494	0.000495078	0	-0.0488887	0.000140708	2.86774e-07	-6.17347	0.000579249	0.00057589	6.22919e-05	-13.2408	10.11	9.84121	2.31564	0.096288	0.0226573	0.0989178	13.2413	1.13186e+09	4.81015e+09	4.94152e+09	-76.7588	0.0000000E+000	0.0000000E+000	0.0000000E+000	76.7588	0.0000000E+000	0.0000000E+000	0.0000000E+000	-76.7588	0.0000000E+000	0.0000000E+000	0.0000000E+000	-13.2413	0.0000000E+000	0.0000000E+000	0.0000000E+000	13.2413	4.24976	76.7588	0.000000000000000E+000	6.0139e-06	2.23649e-10	6.01367e-06	3.78348	2.38046e+06	88.5259	2.38037e+06
0.0019912	10.1871	2.6518	10.5266	-14.5909	20330.1	3.78363	0.00158945	3.01416e+07	1.91282e+06	1	11	0.00500821	0.000475769	0	-0.0488887	0.000140708	5.1272e-07	-108.552	0.00107767	-0.000342878	0.00102167	-14.5967	10.5265	10.1867	2.65282	0.0919341	0.0239314	0.0949978	14.5909	1.91282e+09	7.34823e+09	7.59311e+09	-75.4091	0.0000000E+000	0.0000000E+000	0.0000000E+000	75.4091	0.0000000E+000	0.0000000E+000	0.0000000E+000	-75.4091	0.0000000E+000	0.0000000E+000	0.0000000E+000	-14.5909	0.0000000E+000	0.0000000E+000	0.0000000E+000	14.5909	3.84157	75.4091	0.000000000000000E+000	6.0139e-06	2.23649e-10	6.01367e-06	3.78348	2.38046e+06	88.5259	2.38037e+06
0.00129428	10.1092	3.34266	10.6475	-18.2968	20330.1	3.78363	0.00158945	3.67875e+07	3.62571e+06	1	11	0.005009	0.000470441	0	-0.0488887	0.000140708	1.28385e-06	-94.4497	0.00272903	-0.000211727	0.0027208	-18.3111	10.6481	10.109	3.34538	0.0891708	0.0294849	0.0939191	18.2968	3.62571e+09	1.09652e+10	1.15491e+10	-71.7032	0.0000000E+000	0.0000000E+000	0.0000000E+000	71.7032	0.0000000E+000	0.0000000E+000	0.0000000E+000	-71.7032	0.0000000E+000	0.0000000E+000	0.0000000E+000	-18.2968	0.0000000E+000	0.0000000E+000	0.0000000E+000	18.2968	3.02428	71.7032	0.000000000000000E+000	6.0139e-06	2.23649e-10	6.01367e-06	3.78348	2.38046e+06	88.5259	2.38037e+06
0.000796479	10.8511	4.61892	11.7932	-23.0577	20330.1	3.78363	0.00158945	4.32619e+07	6.6362e+06	1	11	0.00500754	0.000424611	0	-0.0488887	0.000140708	1.09054e-06	-101.638	0.00256832	-0.00051808	0.00251553	-23.0699	11.7938	10.8506	4.62143	0.0780202	0.0332104	0.0847943	23.0577	6.6362e+09	1.55902e+10	1.69439e+10	-66.9423	0.0000000E+000	0.0000000E+000	0.0000000E+000	66.9423	0.0000000E+000	0.0000000E+000	0.0000000E+000	-66.9423	0.0000000E+000	0.0000000E+000	0.0000000E+000	-23.0577	0.0000000E+000	0.0000000E+000	0.0000000E+000	23.0577	2.34927	66.9423	0.000000000000000E+000	6.0139e-06	2.23649e-10	6.01367e-06	3.78348	2.38046e+06	88.5259	2.38037e+06
0.000497799	10.5172	6.65332	12.445	-32.3179	20330.1	3.78363	0.00158945	4.80538e+07	1.37345e+07	1	11	0.00500134	0.000401875	0	-0.0488887	0.000140708	3.13456e-06	-3.57337	0.00779983	0.00778467	0.000486137	-32.3007	12.4519	10.525	6.65381	0.0679062	0.0429583	0.0803534	32.3179	1.37345e+10	2.17108e+10	2.56904e+10	-57.6821	0.0000000E+000	0.0000000E+000	0.0000000E+000	57.6821	0.0000000E+000	0.0000000E+000	0.0000000E+000	-57.6821	0.0000000E+000	0.0000000E+000	0.0000000E+000	-32.3179	0.0000000E+000	0.0000000E+000	0.0000000E+000	32.3179	1.58075	57.6821	0.000000000000000E+000	6.0139e-06	2.23649e-10	6.01367e-06	3.78348	2.38046e+06	88.5259	2.38037e+06
0.000298679	10.332	10.1288	14.4687	-44.4309	20330.1	3.78363	0.00158945	5.26086e+07	2.57818e+07	1	11	0.00500899	0.000346194	0	-0.0488887	0.000140708	1.31298e-06	-129.772	0.00379262	-0.00242626	0.002915	-44.4459	14.469	10.3296	10.1317	0.0493544	0.0483836	0.0691147	44.4309	2.57818e+10	2.62991e+10	3.68286e+10	-45.5691	0.0000000E+000	0.0000000E+000	0.0000000E+000	45.5691	0.0000000E+000	0.0000000E+000	0.0000000E+000	-45.5691	0.0000000E+000	0.0000000E+000	0.0000000E+000	-44.4309	0.0000000E+000	0.0000000E+000	0.0000000E+000	44.4309	1.02006	45.5691	0.000000000000000E+000	6.0139e-06	2.23649e-10	6.01367e-06	3.78348	2.38046e+06	88.5259	2.38037e+06
9.95598e-05	12.1329	35.5063	37.522	-71.1342	20330.1	3.78363	0.00158945	4.50226e+07	4.03152e+07	1	11	0.00501073	0.000133541	0	-0.0488887	0.000140708	2.08824e-06	45.8827	0.0156375	0.0108857	-0.0112264	-71.1129	37.5149	12.1437	35.4951	0.00861769	0.0252193	0.026651	71.1342	4.03152e+10	1.37761e+10	4.26039e+10	-18.8658	0.0000000E+000	0.0000000E+000	0.0000000E+000	18.8658	0.0000000E+000	0.0000000E+000	0.0000000E+000	-18.8658	0.0000000E+000	0.0000000E+000	0.0000000E+000	-71.1342	0.0000000E+000	0.0000000E+000	0.0000000E+000	71.1342	0.34171	18.8658	0.000000000000000E+000	6.0139e-06	2.23649e-10	6.01367e-06	3.78348	2.38046e+06	88.5259	2.38037e+06