File: txt/17230_UC80_EIS_50SOC_C07.mpt
EC-Lab ASCII FILE
Nb header lines : 65

Potentio Electrochemical Impedance Spectroscopy

Run on channel : 7 (SN 66126)
User :
CE vs. WE compliance from -10 V to 10 V
Electrode connection : standard
Potential control : Ewe
Ewe ctrl range : min = -10.00 V, max = 10.00 V
Safety Limits :
	Do not start on E overload
Acquisition started on : 09/02/2025 16:42:33.126
Technique started on : 09/02/2025 16:42:35.361
Loaded Setting File :  C:\Users\Celltest\OneDrive - store-dot.com\Documents\EC-Lab\Data\Michael\R278\UC74_NCMA_16706_EIS_50_SOC.mps
Saved on :
	File : UC80_17230_EIS_50SOC_C07.mpr
	Directory : C:\Users\Celltest\OneDrive - store-dot.com\Documents\EC-Lab\Data\Michael\R278\
	Host : 169.254.61.224
Device : VMP-3e (SN .003165)
Address : USB
EC-LAB for windows v11.62 (software)
Internet server v27.00 (firmware)
Command interpretor v12.03 (firmware)
Electrode material :
Initial state :
Electrolyte :
Comments :
Electrode surface area : 0.001 cm²
Characteristic mass : 0.001 g
Equivalent Weight : 0.000 g/eq.
Density : 0.000 g/cm3
Volume (V) : 0.001 cm³
Record Ece
Cycle Definition : Charge/Discharge alternance
Mode                Multi sine
E (V)               0.0000
vs.                 Eoc
tE (h:m:s)          0:00:0.0000
record              0
dI                  0.000
unit dI             mA
dt (s)              0.000
fi                  1.000
unit fi             MHz
ff                  0.100
unit ff             mHz
Nd                  10
Points              per decade
spacing             Logarithmic
Va (mV)             5.0
pw                  0.10
Na                  2
corr                0
E range min (V)     -10.000
E range max (V)     10.000
I Range             Auto
Bandwidth           5
nc cycles           0
goto Ns'            0
nr cycles           0
inc. cycle          0

freq/Hz	Re(Z)/Ohm	-Im(Z)/Ohm	|Z|/Ohm	Phase(Z)/deg	time/s	<Ewe>/V	<I>/mA	Cs/µF	Cp/µF	cycle number	I Range	|Ewe|/V	|I|/A	Ns	(Q-Qo)/mA.h	<Ece>/V	|Ece|/V	Phase(Zce)/deg	|Zce|/Ohm	Re(Zce)/Ohm	-Im(Zce)/Ohm	Phase(Zwe-ce)/deg	|Zwe-ce|/Ohm	Re(Zwe-ce)/Ohm	-Im(Zwe-ce)/Ohm	Re(Y)/Ohm-1	Im(Y)/Ohm-1	|Y|/Ohm-1	Phase(Y)/deg	Re(C)/nF	Im(C)/nF	|C|/nF	Phase(C)/deg	Re(M)	Im(M)	|M|	Phase(M)/deg	Re(Permittivity)	Im(Permittivity)	|Permittivity|	Phase(Permittivity)/deg	Re(Resistivity)/Ohm.cm	Im(Resistivity)/Ohm.cm	|Resistivity|/Ohm.cm	Phase(Resistivity)/deg	Re(Conductivity)/mS/cm	Im(Conductivity)/mS/cm	|Conductivity|/mS/cm	Phase(Conductivity)/deg	Tan(Delta)	Loss Angle(Delta)/deg	dq/mA.h	Pwe/W	Pce/W	Pwe-ce/W	<Ewe-Ece>/V	Rwe/Ohm	Rce/Ohm	Rwe-ce/Ohm		Ewe-Ece/V
1.00002e+06	2.11295	3.35388	3.96397	-57.789	2.23454	3.78385	-0.0484994	0.0474531	0.0339702	1	10	0.000228895	5.7744e-05	0	-1.78965e-05	-0.000326596	0.000195682	-63.1647	3.38878	1.52979	3.02384	-60.2664	7.34472	3.64274	6.37772	0.134471	0.213445	0.252272	57.789	33.9702	21.4013	40.1496	-32.211	0.0000000E+000	0.0000000E+000	0.0000000E+000	32.211	0.0000000E+000	0.0000000E+000	0.0000000E+000	-32.211	0.0000000E+000	0.0000000E+000	0.0000000E+000	-57.789	0.0000000E+000	0.0000000E+000	0.0000000E+000	57.789	0.630001	32.211	-1.78965e-05	-0.000183514	1.58397e-08	-0.00018353	3.78417	78018.5	6.73403	78025.2
630957	0.581143	0.28527	0.647385	-26.1454	3.40552	3.78393	0.0237639	0.884227	0.171693	1	9	0.00020935	0.000323377	0	-1.53358e-05	-0.000288445	0.000122415	-97.5818	0.378551	-0.0499465	0.375242	-51.1931	0.847612	0.531197	0.660512	1.38662	0.680663	1.54468	26.1454	171.693	349.767	389.635	-63.8546	0.0000000E+000	0.0000000E+000	0.0000000E+000	63.8546	0.0000000E+000	0.0000000E+000	0.0000000E+000	-63.8546	0.0000000E+000	0.0000000E+000	0.0000000E+000	-26.1454	0.0000000E+000	0.0000000E+000	0.0000000E+000	26.1454	2.03717	63.8546	3.20149e-06	8.99208e-05	-6.85458e-09	8.99276e-05	3.78422	159230	12.138	159242
398103	0.764595	0.229172	0.798202	-16.6851	4.17152	3.78411	0.0590637	1.74446	0.143801	1	9	0.000715278	0.000896111	0	-6.19463e-06	-0.000345672	4.27432e-05	-174.153	0.0476985	-0.0474504	0.00485876	-18.0734	0.754366	0.717145	0.234031	1.20007	0.359697	1.25282	16.6851	143.801	479.767	500.854	-73.3149	0.0000000E+000	0.0000000E+000	0.0000000E+000	73.3149	0.0000000E+000	0.0000000E+000	0.0000000E+000	-73.3149	0.0000000E+000	0.0000000E+000	0.0000000E+000	-16.6851	0.0000000E+000	0.0000000E+000	0.0000000E+000	16.6851	3.33633	73.3149	5.50156e-06	0.000223504	-2.04166e-08	0.000223524	3.78446	64068.4	5.85252	64074.2
251206	0.918699	0.381032	0.994581	-22.5263	4.93854	3.78401	0.0386584	1.66276	0.244045	1	9	0.00239707	0.00241013	0	1.05192e-06	-0.000402898	4.16062e-05	95.9111	0.0172631	-0.00177784	-0.0171713	-21.6446	0.986478	0.916921	0.36386	0.928736	0.385195	1.00545	22.5263	244.045	588.413	637.015	-67.4737	0.0000000E+000	0.0000000E+000	0.0000000E+000	67.4737	0.0000000E+000	0.0000000E+000	0.0000000E+000	-67.4737	0.0000000E+000	0.0000000E+000	0.0000000E+000	-22.5263	0.0000000E+000	0.0000000E+000	0.0000000E+000	22.5263	2.41108	67.4737	1.62958e-06	0.000146283	-1.55754e-08	0.000146299	3.78441	97883.3	10.422	97893.7
158486	1.06047	0.516024	1.17935	-25.9476	5.70652	3.78401	0.0420097	1.94607	0.372574	1	9	0.00519287	0.00440315	0	9.41646e-06	-0.000154917	5.08182e-05	83.056	0.0115413	0.00139533	-0.0114567	-25.4158	1.17564	1.06186	0.504567	0.762448	0.371008	0.847924	25.9476	372.574	765.666	851.502	-64.0524	0.0000000E+000	0.0000000E+000	0.0000000E+000	64.0524	0.0000000E+000	0.0000000E+000	0.0000000E+000	-64.0524	0.0000000E+000	0.0000000E+000	0.0000000E+000	-25.9476	0.0000000E+000	0.0000000E+000	0.0000000E+000	25.9476	2.05507	64.0524	-3.49404e-07	0.000158965	-6.50803e-09	0.000158971	3.78416	90074.6	3.68766	90078.3
100004	1.24699	0.634177	1.39899	-26.9564	6.47254	3.78405	0.0471854	2.50954	0.515689	1	9	0.00539875	0.00385905	0	1.9173e-05	-0.00026937	3.87875e-05	83.4917	0.0100511	0.00113926	-0.00998629	-26.5697	1.39551	1.24813	0.624191	0.637142	0.324029	0.714804	26.9564	515.69	1014	1137.6	-63.0436	0.0000000E+000	0.0000000E+000	0.0000000E+000	63.0436	0.0000000E+000	0.0000000E+000	0.0000000E+000	-63.0436	0.0000000E+000	0.0000000E+000	0.0000000E+000	-26.9564	0.0000000E+000	0.0000000E+000	0.0000000E+000	26.9564	1.96631	63.0436	5.48183e-06	0.000178552	-1.27103e-08	0.000178565	3.78432	80195.3	5.70875	80201
63093.8	1.47813	0.73133	1.64915	-26.3247	7.23854	3.78407	0.0517282	3.44921	0.678303	1	9	0.00543851	0.00329775	0	2.40899e-05	-5.95403e-05	2.49866e-05	80.9904	0.00757687	0.00118654	-0.00748339	-26.073	1.64692	1.47932	0.723847	0.543488	0.2689	0.606371	26.3247	678.303	1370.95	1529.58	-63.6753	0.0000000E+000	0.0000000E+000	0.0000000E+000	63.6753	0.0000000E+000	0.0000000E+000	0.0000000E+000	-63.6753	0.0000000E+000	0.0000000E+000	0.0000000E+000	-26.3247	0.0000000E+000	0.0000000E+000	0.0000000E+000	26.3247	2.02115	63.6753	4.3032e-06	0.000195743	-3.07992e-09	0.000195746	3.78413	73152.8	1.15102	73154
39814.1	1.74455	0.779975	1.91097	-24.0891	8.00455	3.78407	0.055787	5.12511	0.853801	1	9	0.00546936	0.00286209	0	3.95088e-05	-0.000135842	2.00915e-05	31.304	0.00701988	0.00599794	-0.00364738	-23.9162	1.91496	1.75054	0.776327	0.477722	0.213586	0.523295	24.0891	853.801	1909.67	2091.85	-65.9109	0.0000000E+000	0.0000000E+000	0.0000000E+000	65.9109	0.0000000E+000	0.0000000E+000	0.0000000E+000	-65.9109	0.0000000E+000	0.0000000E+000	0.0000000E+000	-24.0891	0.0000000E+000	0.0000000E+000	0.0000000E+000	24.0891	2.23667	65.9109	9.24944e-06	0.000211102	-7.57821e-09	0.000211109	3.78421	67830.7	2.43501	67833.2
25116.9	2.00674	0.791544	2.1572	-21.5264	8.77053	3.78407	0.0528453	8.00532	1.07782	1	9	0.0051806	0.00240154	0	5.45413e-05	-0.000212144	6.44434e-06	-88.9699	0.00268342	4.82407e-05	0.00268299	-21.5922	2.15823	2.00678	0.794227	0.431229	0.170095	0.463563	21.5264	1077.82	2732.51	2937.4	-68.4736	0.0000000E+000	0.0000000E+000	0.0000000E+000	68.4736	0.0000000E+000	0.0000000E+000	0.0000000E+000	-68.4736	0.0000000E+000	0.0000000E+000	0.0000000E+000	-21.5264	0.0000000E+000	0.0000000E+000	0.0000000E+000	21.5264	2.53522	68.4736	6.73079e-06	0.000199971	-1.12108e-08	0.000199982	3.78429	71606.6	4.01443	71610.6
15847.7	2.24405	0.782468	2.37655	-19.2229	9.28851	3.78408	0.0536645	12.8348	1.39131	1	9	0.00489794	0.00206094	0	5.96718e-05	-9.76912e-05	7.83253e-06	-83.247	0.00380046	0.000446892	0.0037741	-19.3052	2.37822	2.2445	0.786242	0.397317	0.138539	0.420777	19.2229	1391.31	3990.17	4225.78	-70.7771	0.0000000E+000	0.0000000E+000	0.0000000E+000	70.7771	0.0000000E+000	0.0000000E+000	0.0000000E+000	-70.7771	0.0000000E+000	0.0000000E+000	0.0000000E+000	-19.2229	0.0000000E+000	0.0000000E+000	0.0000000E+000	19.2229	2.86791	70.7771	2.47525e-06	0.000203071	-5.24255e-09	0.000203076	3.78418	70513.7	1.82041	70515.5
10002.2	2.43487	0.778352	2.55625	-17.7274	9.93052	3.78407	0.0506856	20.4431	1.89536	1	9	0.00490041	0.00191703	0	6.60029e-05	-0.000383823	1.02317e-05	-72.7805	0.00533727	0.00158001	0.00509804	-17.8254	2.55931	2.43645	0.78345	0.372622	0.119115	0.391197	17.7274	1895.36	5929.14	6224.71	-72.2726	0.0000000E+000	0.0000000E+000	0.0000000E+000	72.2726	0.0000000E+000	0.0000000E+000	0.0000000E+000	-72.2726	0.0000000E+000	0.0000000E+000	0.0000000E+000	-17.7274	0.0000000E+000	0.0000000E+000	0.0000000E+000	17.7274	3.12824	72.2726	3.67603e-06	0.000191798	-1.94543e-08	0.000191817	3.78446	74657.8	7.57262	74665.3
6309.38	2.63036	0.803755	2.75042	-16.9915	10.4525	3.78407	0.0446161	31.3841	2.68014	1	9	0.0047037	0.00171017	0	7.3935e-05	-0.000364747	1.15517e-05	-55.4521	0.00675469	0.00383055	0.00556352	-17.0788	2.75571	2.63419	0.809318	0.34771	0.106249	0.36358	16.9915	2680.14	8771.02	9171.36	-73.0085	0.0000000E+000	0.0000000E+000	0.0000000E+000	73.0085	0.0000000E+000	0.0000000E+000	0.0000000E+000	-73.0085	0.0000000E+000	0.0000000E+000	0.0000000E+000	-16.9915	0.0000000E+000	0.0000000E+000	0.0000000E+000	16.9915	3.27259	73.0085	2.72965e-06	0.00016883	-1.62736e-08	0.000168847	3.78443	84814	8.17523	84822.1
3983.6	2.84917	0.854476	2.97454	-16.6942	11.0191	3.78387	-0.0284411	46.7567	3.85837	1	9	0.00460598	0.00154847	0	7.42769e-05	-0.000173993	1.12337e-05	4.42128	0.00725472	0.00723313	-0.000559262	-16.6439	2.98131	2.8564	0.853917	0.322017	0.0965739	0.336186	16.6942	3858.37	12865.4	13431.5	-73.3058	0.0000000E+000	0.0000000E+000	0.0000000E+000	73.3058	0.0000000E+000	0.0000000E+000	0.0000000E+000	-73.3058	0.0000000E+000	0.0000000E+000	0.0000000E+000	-16.6942	0.0000000E+000	0.0000000E+000	0.0000000E+000	16.6942	3.33441	73.3058	-2.37629e-06	-0.000107617	4.94855e-09	-0.000107622	3.78405	133042	6.11766	133049
2510.8	3.07642	0.984925	3.23024	-17.7526	11.8438	3.78405	0.0827831	64.3583	5.98331	1	9	0.00455621	0.00141049	0	8.05791e-05	-0.000364747	3.01402e-06	17.8353	0.00213686	0.00203417	-0.000654484	-17.7306	3.23198	3.07845	0.984271	0.294833	0.0943918	0.309575	17.7526	5983.31	18688.9	19623.3	-72.2474	0.0000000E+000	0.0000000E+000	0.0000000E+000	72.2474	0.0000000E+000	0.0000000E+000	0.0000000E+000	-72.2474	0.0000000E+000	0.0000000E+000	0.0000000E+000	-17.7526	0.0000000E+000	0.0000000E+000	0.0000000E+000	17.7526	3.12351	72.2474	6.77544e-06	0.000313255	-3.01949e-08	0.000313286	3.78442	45710.4	4.40606	45714.8
1585.51	3.35788	1.11816	3.53916	-18.4176	12.9908	3.784	-0.0213195	89.7733	8.96099	1	10	0.00460539	0.00130127	0	9.03142e-05	-7.86157e-05	5.8612e-06	-118.846	0.00450423	-0.00217311	0.00394534	-18.4893	3.53835	3.35571	1.12211	0.26808	0.0892698	0.282553	18.4176	8961	26910.2	28363	-71.5824	0.0000000E+000	0.0000000E+000	0.0000000E+000	71.5824	0.0000000E+000	0.0000000E+000	0.0000000E+000	-71.5824	0.0000000E+000	0.0000000E+000	0.0000000E+000	-18.4176	0.0000000E+000	0.0000000E+000	0.0000000E+000	18.4176	3.00304	71.5824	3.04348e-06	-8.06728e-05	1.67605e-09	-8.06745e-05	3.78408	177490	3.68751	177494
1000.32	3.69969	1.31261	3.92564	-19.5341	13.8928	3.78397	-0.0220156	121.212	13.5517	1	10	0.00456904	0.0011639	0	8.40701e-05	7.39876e-05	4.99722e-06	52.7428	0.00429353	0.00259928	-0.00341733	-19.4744	3.92695	3.70229	1.30919	0.240074	0.0851753	0.254736	19.5341	13551.7	38196.7	40529.4	-70.4659	0.0000000E+000	0.0000000E+000	0.0000000E+000	70.4659	0.0000000E+000	0.0000000E+000	0.0000000E+000	-70.4659	0.0000000E+000	0.0000000E+000	0.0000000E+000	-19.5341	0.0000000E+000	0.0000000E+000	0.0000000E+000	19.5341	2.81858	70.4659	-2.61951e-06	-8.33065e-05	-1.62888e-09	-8.33049e-05	3.7839	171877	3.36069	171873
631.01	4.13904	1.49494	4.40074	-19.8587	14.7946	3.78397	-0.0230022	168.717	19.4696	1	10	0.00453379	0.00103023	0	7.96339e-05	-0.000441049	1.26779e-05	52.3308	0.0123059	0.00752015	-0.00974077	-19.7063	4.40452	4.14656	1.4852	0.213722	0.077192	0.227234	19.8587	19469.6	53905.4	57313.7	-70.1413	0.0000000E+000	0.0000000E+000	0.0000000E+000	70.1413	0.0000000E+000	0.0000000E+000	0.0000000E+000	-70.1413	0.0000000E+000	0.0000000E+000	0.0000000E+000	-19.8587	0.0000000E+000	0.0000000E+000	0.0000000E+000	19.8587	2.7687	70.1413	-2.59427e-06	-8.70396e-05	1.01451e-08	-8.70498e-05	3.78442	164505	19.1742	164524
398.089	4.68538	1.64397	4.96542	-19.3346	15.6958	3.78398	-0.0221683	243.19	26.6576	1	10	0.00450436	0.000907144	0	7.40465e-05	-0.000212144	1.48924e-05	-48.0732	0.0164168	0.0109694	0.0122141	-19.4254	4.97983	4.69635	1.65619	0.190034	0.0666778	0.201393	19.3346	26657.6	75975.2	80516.2	-70.6654	0.0000000E+000	0.0000000E+000	0.0000000E+000	70.6654	0.0000000E+000	0.0000000E+000	0.0000000E+000	-70.6654	0.0000000E+000	0.0000000E+000	0.0000000E+000	-19.3346	0.0000000E+000	0.0000000E+000	0.0000000E+000	19.3346	2.85004	70.6654	-3.07937e-06	-8.38843e-05	4.70286e-09	-8.38891e-05	3.78419	170694	9.5697	170703
251.044	5.33138	1.63559	5.57663	-17.0552	16.8071	3.78398	-0.0218034	387.611	33.3427	1	10	0.00499497	0.000895697	0	6.80107e-05	-0.000345672	5.79343e-06	89.4526	0.00646807	6.1798e-05	-0.00646778	-16.9915	5.57479	5.33144	1.62912	0.171434	0.0525933	0.17932	17.0552	33342.7	108684	113684	-72.9448	0.0000000E+000	0.0000000E+000	0.0000000E+000	72.9448	0.0000000E+000	0.0000000E+000	0.0000000E+000	-72.9448	0.0000000E+000	0.0000000E+000	0.0000000E+000	-17.0552	0.0000000E+000	0.0000000E+000	0.0000000E+000	17.0552	3.25961	72.9448	-3.20495e-06	-8.25037e-05	7.53683e-09	-8.25113e-05	3.78432	173550	15.854	173565
158.428	5.9173	1.47585	6.09857	-14.0046	17.7129	3.78398	-0.0217923	680.683	39.8633	1	10	0.00498439	0.000817305	0	6.10892e-05	-0.000212144	3.78327e-06	63.7555	0.00462895	0.00204694	-0.00415178	-13.9621	6.09955	5.91935	1.4717	0.159099	0.0396813	0.163973	14.0046	39863.3	159829	164725	-75.9954	0.0000000E+000	0.0000000E+000	0.0000000E+000	75.9954	0.0000000E+000	0.0000000E+000	0.0000000E+000	-75.9954	0.0000000E+000	0.0000000E+000	0.0000000E+000	-14.0046	0.0000000E+000	0.0000000E+000	0.0000000E+000	14.0046	4.00942	75.9954	-3.00808e-06	-8.24614e-05	4.62309e-09	-8.2466e-05	3.78419	173638	9.73481	173648
100.032	6.38599	1.1949	6.49681	-10.5982	18.6119	3.78398	-0.0217215	1331.53	45.0413	1	10	0.00498537	0.000767357	0	5.56061e-05	-0.000326596	4.21269e-06	100.21	0.00548987	-0.000973096	-0.00540294	-10.5529	6.49487	6.38501	1.1895	0.151296	0.0283094	0.153922	10.5982	45041.3	240718	244895	-79.4018	0.0000000E+000	0.0000000E+000	0.0000000E+000	79.4018	0.0000000E+000	0.0000000E+000	0.0000000E+000	-79.4018	0.0000000E+000	0.0000000E+000	0.0000000E+000	-10.5982	0.0000000E+000	0.0000000E+000	0.0000000E+000	10.5982	5.34437	79.4018	-3.48914e-06	-8.21938e-05	7.09418e-09	-8.22009e-05	3.7843	174204	15.0356	174219
63.0823	6.67803	0.906739	6.73931	-7.7323	19.5289	3.78398	-0.019983	2782.47	50.3691	1	10	0.00497681	0.000738475	0	5.04931e-05	-0.000250295	1.18223e-05	45.185	0.0160091	0.0112836	-0.0113566	-7.62387	6.74897	6.68931	0.895382	0.147034	0.0199642	0.148383	7.7323	50369.1	370963	374367	-82.2677	0.0000000E+000	0.0000000E+000	0.0000000E+000	82.2677	0.0000000E+000	0.0000000E+000	0.0000000E+000	-82.2677	0.0000000E+000	0.0000000E+000	0.0000000E+000	-7.7323	0.0000000E+000	0.0000000E+000	0.0000000E+000	7.7323	7.36489	82.2677	-2.38541e-06	-7.56153e-05	5.00164e-09	-7.56203e-05	3.78423	189360	12.5254	189372
39.8089	6.87969	0.656062	6.9109	-5.44737	20.4299	3.78398	-0.021837	6093.9	54.918	1	10	0.00498687	0.000721594	0	4.68256e-05	3.58368e-05	7.83968e-06	73.5154	0.0108644	0.00308285	-0.0104178	-5.35899	6.91299	6.88278	0.645644	0.144045	0.0137365	0.144699	5.44737	54918	575890	578502	-84.5526	0.0000000E+000	0.0000000E+000	0.0000000E+000	84.5526	0.0000000E+000	0.0000000E+000	0.0000000E+000	-84.5526	0.0000000E+000	0.0000000E+000	0.0000000E+000	-5.44737	0.0000000E+000	0.0000000E+000	0.0000000E+000	5.44737	10.4864	84.5526	-1.86613e-06	-8.26306e-05	-7.82566e-10	-8.26298e-05	3.78395	173283	1.64111	173282
25.1044	6.97124	0.482295	6.9879	-3.95762	21.309	3.78397	-0.0222092	13144.9	62.6166	1	10	0.0049766	0.000712174	0	4.15535e-05	-0.000326596	7.34093e-06	77.8803	0.0103078	0.00216416	-0.010078	-3.87398	6.98937	6.9734	0.472217	0.142763	0.00987688	0.143105	3.95762	62616.5	905078	907242	-86.0424	0.0000000E+000	0.0000000E+000	0.0000000E+000	86.0424	0.0000000E+000	0.0000000E+000	0.0000000E+000	-86.0424	0.0000000E+000	0.0000000E+000	0.0000000E+000	-3.95762	0.0000000E+000	0.0000000E+000	0.0000000E+000	3.95762	14.4543	86.0424	-3.09927e-06	-8.40391e-05	7.25345e-09	-8.40464e-05	3.7843	170378	14.7054	170393
15.8576	7.03346	0.348512	7.04209	-2.83672	22.187	3.78396	-0.0262559	28798.2	70.5339	1	10	0.00498168	0.000707416	0	4.00768e-05	-0.000383823	1.48998e-05	-100.724	0.0210623	-0.00391921	0.0206944	-3.00653	7.03923	7.02954	0.369206	0.141829	0.00702773	0.142003	2.83672	70533.9	1.42347e+06	1.42522e+06	-87.1633	0.0000000E+000	0.0000000E+000	0.0000000E+000	87.1633	0.0000000E+000	0.0000000E+000	0.0000000E+000	-87.1633	0.0000000E+000	0.0000000E+000	0.0000000E+000	-2.83672	0.0000000E+000	0.0000000E+000	0.0000000E+000	2.83672	20.1814	87.1633	-8.68141e-08	-9.93511e-05	1.00776e-08	-9.93611e-05	3.78434	144118	14.6185	144133
10.0032	7.09453	0.300319	7.10088	-2.42394	23.1698	3.78397	-0.0219561	52978.3	94.7631	1	10	0.00498576	0.000702133	0	3.10264e-05	-0.000536426	8.53723e-06	-13.2922	0.012159	0.0118333	0.00279557	-2.44241	7.11282	7.10636	0.303115	0.140702	0.00595605	0.140828	2.42394	94763	2.23862e+06	2.24062e+06	-87.5761	0.0000000E+000	0.0000000E+000	0.0000000E+000	87.5761	0.0000000E+000	0.0000000E+000	0.0000000E+000	-87.5761	0.0000000E+000	0.0000000E+000	0.0000000E+000	-2.42394	0.0000000E+000	0.0000000E+000	0.0000000E+000	2.42394	23.6233	87.5761	-4.93408e-06	-8.30812e-05	1.17778e-08	-8.3093e-05	3.78451	172343	24.4318	172367
6.31058	7.11958	0.244305	7.12377	-1.96531	24.0923	3.78399	-0.0245657	103233	121.413	1	10	0.00497786	0.000698768	0	3.12433e-05	-0.000288445	7.17477e-06	57.8751	0.0102677	0.00546004	-0.00869565	-1.89396	7.12893	7.12504	0.23561	0.140293	0.00481408	0.140375	1.96531	121413	3.53822e+06	3.54031e+06	-88.0347	0.0000000E+000	0.0000000E+000	0.0000000E+000	88.0347	0.0000000E+000	0.0000000E+000	0.0000000E+000	-88.0347	0.0000000E+000	0.0000000E+000	0.0000000E+000	-1.96531	0.0000000E+000	0.0000000E+000	0.0000000E+000	1.96531	29.1421	88.0347	2.164e-07	-9.29565e-05	7.08587e-09	-9.29635e-05	3.78428	154035	11.7418	154047
3.97785	7.1619	0.229245	7.16557	-1.83336	25.0994	3.78402	-0.0174218	174530	178.637	1	10	0.00497246	0.000693938	0	1.7789e-05	-0.000154917	4.90147e-06	61.5834	0.00706327	0.00336126	-0.00621222	-1.78287	7.16873	7.16526	0.223033	0.139485	0.00446477	0.139556	1.83336	178637	5.58083e+06	5.58369e+06	-88.1666	0.0000000E+000	0.0000000E+000	0.0000000E+000	88.1666	0.0000000E+000	0.0000000E+000	0.0000000E+000	-88.1666	0.0000000E+000	0.0000000E+000	0.0000000E+000	-1.83336	0.0000000E+000	0.0000000E+000	0.0000000E+000	1.83336	31.2412	88.1666	-3.44633e-06	-6.59243e-05	2.69894e-09	-6.5927e-05	3.78418	217201	8.89218	217210
2.51367	7.22463	0.2273	7.22821	-1.80203	27.0209	3.78403	-0.0124554	278555	275.454	1	11	0.00498322	0.000689413	0	1.83528e-05	-0.000193068	6.7243e-06	52.7763	0.00975366	0.00590027	-0.00776664	-1.73908	7.23387	7.23053	0.219533	0.138278	0.00435049	0.138347	1.80203	275454	8.75519e+06	8.75952e+06	-88.198	0.0000000E+000	0.0000000E+000	0.0000000E+000	88.198	0.0000000E+000	0.0000000E+000	0.0000000E+000	-88.198	0.0000000E+000	0.0000000E+000	0.0000000E+000	-1.80203	0.0000000E+000	0.0000000E+000	0.0000000E+000	1.80203	31.7846	88.198	-5.36627e-06	-4.71316e-05	2.40474e-09	-4.7134e-05	3.78423	303807	15.5008	303822
1.58469	7.26599	0.251591	7.27035	-1.98312	29.4565	3.78403	-0.0134292	399192	478.037	1	11	0.00498028	0.000685012	0	-1.42776e-05	-0.000402898	3.70086e-06	25.2865	0.00540262	0.00488496	-0.0023077	-1.96363	7.27515	7.27088	0.249283	0.137463	0.00475975	0.137545	1.98312	478036	1.38058e+07	1.38141e+07	-88.0169	0.0000000E+000	0.0000000E+000	0.0000000E+000	88.0169	0.0000000E+000	0.0000000E+000	0.0000000E+000	-88.0169	0.0000000E+000	0.0000000E+000	0.0000000E+000	-1.98312	0.0000000E+000	0.0000000E+000	0.0000000E+000	1.98312	28.8802	88.0169	-1.6398e-05	-5.08166e-05	5.41061e-09	-5.0822e-05	3.78443	281776	30.0016	281806
1.00469	7.29945	0.280977	7.30485	-2.20439	240.276	3.78399	-0.017786	563788	834.131	1	11	0.00505829	0.000692455	0	-0.00363576	5.49122e-05	4.87093e-07	7.7587	0.000703428	0.000696988	-9.49637e-05	-2.20344	7.30555	7.30015	0.280882	0.136794	0.0052656	0.136895	2.20439	834130	2.16697e+07	2.16858e+07	-87.7956	0.0000000E+000	0.0000000E+000	0.0000000E+000	87.7956	0.0000000E+000	0.0000000E+000	0.0000000E+000	-87.7956	0.0000000E+000	0.0000000E+000	0.0000000E+000	-2.20439	0.0000000E+000	0.0000000E+000	0.0000000E+000	2.20439	25.9788	87.7956	-0.00361604	-6.7302e-05	-9.76667e-10	-6.7301e-05	3.78394	212752	3.08739	212749
0.632957	7.36406	0.343204	7.37206	-2.66835	240.278	3.78399	-0.017786	732646	1587.89	1	11	0.00507138	0.000687919	0	-0.00363576	5.49122e-05	6.32122e-07	2.21872	0.000918891	0.000918202	-3.55742e-05	-2.66774	7.37297	7.36498	0.343168	0.1355	0.00631502	0.135647	2.66835	1.58789e+06	3.40711e+07	3.41081e+07	-87.3316	0.0000000E+000	0.0000000E+000	0.0000000E+000	87.3316	0.0000000E+000	0.0000000E+000	0.0000000E+000	-87.3316	0.0000000E+000	0.0000000E+000	0.0000000E+000	-2.66835	0.0000000E+000	0.0000000E+000	0.0000000E+000	2.66835	21.4568	87.3316	0.000000000000000E+000	-6.7302e-05	-9.76667e-10	-6.7301e-05	3.78394	212752	3.08739	212749
0.401878	7.42698	0.439325	7.43996	-3.38525	240.279	3.78399	-0.017786	901448	3143.19	1	11	0.00508494	0.000683464	0	-0.00363576	5.49122e-05	5.47885e-07	29.5824	0.00080163	0.000697135	-0.000395744	-3.38189	7.44064	7.42768	0.438929	0.134175	0.00793678	0.134409	3.38525	3.14319e+06	5.3137e+07	5.32299e+07	-86.6148	0.0000000E+000	0.0000000E+000	0.0000000E+000	86.6148	0.0000000E+000	0.0000000E+000	0.0000000E+000	-86.6148	0.0000000E+000	0.0000000E+000	0.0000000E+000	-3.38525	0.0000000E+000	0.0000000E+000	0.0000000E+000	3.38525	16.9054	86.6148	0.000000000000000E+000	-6.7302e-05	-9.76667e-10	-6.7301e-05	3.78394	212752	3.08739	212749
0.251173	7.5526	0.574173	7.57439	-4.34745	240.28	3.78399	-0.017786	1.10358e+06	6341.52	1	11	0.00508826	0.000671771	0	-0.00363576	5.49122e-05	4.30294e-07	5.09491	0.000640536	0.000638006	-5.68833e-05	-4.34665	7.57502	7.55323	0.574116	0.131644	0.010008	0.132024	4.34745	6.34153e+06	8.34156e+07	8.36563e+07	-85.6526	0.0000000E+000	0.0000000E+000	0.0000000E+000	85.6526	0.0000000E+000	0.0000000E+000	0.0000000E+000	-85.6526	0.0000000E+000	0.0000000E+000	0.0000000E+000	-4.34745	0.0000000E+000	0.0000000E+000	0.0000000E+000	4.34745	13.1539	85.6526	0.000000000000000E+000	-6.7302e-05	-9.76667e-10	-6.7301e-05	3.78394	212752	3.08739	212749
0.160751	7.69919	0.679214	7.72909	-5.04152	240.282	3.78399	-0.017786	1.45767e+06	11256.8	1	11	0.00507836	0.000657045	0	-0.00363576	5.49122e-05	4.55656e-07	40.3106	0.000693493	0.000528822	-0.000448642	-5.03786	7.72958	7.69972	0.678765	0.128881	0.0113697	0.129381	5.04152	1.12568e+07	1.27601e+08	1.28097e+08	-84.9585	0.0000000E+000	0.0000000E+000	0.0000000E+000	84.9585	0.0000000E+000	0.0000000E+000	0.0000000E+000	-84.9585	0.0000000E+000	0.0000000E+000	0.0000000E+000	-5.04152	0.0000000E+000	0.0000000E+000	0.0000000E+000	5.04152	11.3354	84.9585	0.000000000000000E+000	-6.7302e-05	-9.76667e-10	-6.7301e-05	3.78394	212752	3.08739	212749
0.100469	7.86957	0.932381	7.92461	-6.75686	240.283	3.78399	-0.017786	1.699e+06	23519.3	1	11	0.00508227	0.000641327	0	-0.00363576	5.49122e-05	2.74463e-07	65.1253	0.000427961	0.000180016	-0.000388259	-6.75392	7.92474	7.86975	0.931992	0.125313	0.014847	0.126189	6.75686	2.35193e+07	1.9851e+08	1.99898e+08	-83.2431	0.0000000E+000	0.0000000E+000	0.0000000E+000	83.2431	0.0000000E+000	0.0000000E+000	0.0000000E+000	-83.2431	0.0000000E+000	0.0000000E+000	0.0000000E+000	-6.75686	0.0000000E+000	0.0000000E+000	0.0000000E+000	6.75686	8.4403	83.2431	0.000000000000000E+000	-6.7302e-05	-9.76667e-10	-6.7301e-05	3.78394	212752	3.08739	212749
0.0602816	8.18671	1.12584	8.26376	-7.83024	240.284	3.78399	-0.017786	2.34508e+06	43526.8	1	11	0.0050766	0.000614321	0	-0.00363576	5.49122e-05	8.15562e-07	54.8978	0.00132758	0.000763409	-0.00108613	-7.82206	8.26437	8.18748	1.12476	0.119882	0.0164863	0.12101	7.83024	4.35268e+07	3.16511e+08	3.1949e+08	-82.1698	0.0000000E+000	0.0000000E+000	0.0000000E+000	82.1698	0.0000000E+000	0.0000000E+000	0.0000000E+000	-82.1698	0.0000000E+000	0.0000000E+000	0.0000000E+000	-7.83024	0.0000000E+000	0.0000000E+000	0.0000000E+000	7.83024	7.27163	82.1698	0.000000000000000E+000	-6.7302e-05	-9.76667e-10	-6.7301e-05	3.78394	212752	3.08739	212749
0.0401878	8.5545	1.30989	8.65421	-8.70569	240.286	3.78399	-0.017786	3.02337e+06	69263.9	1	11	0.00507848	0.000586822	0	-0.00363576	5.49122e-05	6.91693e-07	-33.4594	0.00117871	0.000983372	0.000649877	-8.70896	8.65528	8.55549	1.31054	0.114219	0.0174896	0.115551	8.70569	6.92639e+07	4.52341e+08	4.57614e+08	-81.2943	0.0000000E+000	0.0000000E+000	0.0000000E+000	81.2943	0.0000000E+000	0.0000000E+000	0.0000000E+000	-81.2943	0.0000000E+000	0.0000000E+000	0.0000000E+000	-8.70569	0.0000000E+000	0.0000000E+000	0.0000000E+000	8.70569	6.53069	81.2943	0.000000000000000E+000	-6.7302e-05	-9.76667e-10	-6.7301e-05	3.78394	212752	3.08739	212749
0.0200939	9.35589	1.74926	9.51802	-10.5903	240.287	3.78399	-0.017786	4.52795e+06	152939	1	11	0.0050787	0.000533588	0	-0.00363576	5.49122e-05	1.5217e-06	-60.7505	0.00285182	0.00139344	0.00248822	-10.6034	9.51985	9.35729	1.75175	0.103274	0.0193091	0.105064	10.5903	1.52939e+08	8.17991e+08	8.32166e+08	-79.4097	0.0000000E+000	0.0000000E+000	0.0000000E+000	79.4097	0.0000000E+000	0.0000000E+000	0.0000000E+000	-79.4097	0.0000000E+000	0.0000000E+000	0.0000000E+000	-10.5903	0.0000000E+000	0.0000000E+000	0.0000000E+000	10.5903	5.34848	79.4097	0.000000000000000E+000	-6.7302e-05	-9.76667e-10	-6.7301e-05	3.78394	212752	3.08739	212749
0.00796479	10.5839	1.77798	10.7322	-9.53599	20329.2	3.78403	0.00175891	1.12388e+07	308455	1	11	0.00507128	0.000472528	0	-0.026996	-0.000250295	2.60269e-07	-50.7958	0.000550802	0.000348154	0.000426815	-9.53793	10.7327	10.5843	1.77841	0.0918896	0.0154364	0.0931771	9.53599	3.08455e+08	1.83617e+09	1.8619e+09	-80.464	0.0000000E+000	0.0000000E+000	0.0000000E+000	80.464	0.0000000E+000	0.0000000E+000	0.0000000E+000	-80.464	0.0000000E+000	0.0000000E+000	0.0000000E+000	-9.53599	0.0000000E+000	0.0000000E+000	0.0000000E+000	9.53599	5.95279	80.464	-0.0233602	6.65574e-06	-4.40244e-10	6.65618e-06	3.78428	2.15135e+06	142.301	2.1515e+06
0.00497799	11.1716	1.67822	11.297	-8.54318	20329.2	3.78403	0.00175891	1.9051e+07	420426	1	11	0.0050777	0.000449474	0	-0.026996	-0.000250295	4.74725e-07	-31.0653	0.00105618	0.000904701	0.000545004	-8.54523	11.298	11.1725	1.67876	0.0875371	0.0131499	0.0885192	8.54318	4.20426e+08	2.79871e+09	2.83011e+09	-81.4568	0.0000000E+000	0.0000000E+000	0.0000000E+000	81.4568	0.0000000E+000	0.0000000E+000	0.0000000E+000	-81.4568	0.0000000E+000	0.0000000E+000	0.0000000E+000	-8.54318	0.0000000E+000	0.0000000E+000	0.0000000E+000	8.54318	6.65684	81.4568	0.000000000000000E+000	6.65574e-06	-4.40244e-10	6.65618e-06	3.78428	2.15135e+06	142.301	2.1515e+06
0.00318591	11.4725	2.26502	11.694	-11.1683	20329.2	3.78403	0.00175891	2.20553e+07	827434	1	11	0.00508139	0.00043453	0	-0.026996	-0.000250295	6.19097e-07	-90.5896	0.00142475	-1.46609e-05	0.00142468	-11.1751	11.6943	11.4725	2.26645	0.0838946	0.0165633	0.085514	11.1683	8.27434e+08	4.19102e+09	4.27192e+09	-78.8317	0.0000000E+000	0.0000000E+000	0.0000000E+000	78.8317	0.0000000E+000	0.0000000E+000	0.0000000E+000	-78.8317	0.0000000E+000	0.0000000E+000	0.0000000E+000	-11.1683	0.0000000E+000	0.0000000E+000	0.0000000E+000	11.1683	5.06508	78.8317	0.000000000000000E+000	6.65574e-06	-4.40244e-10	6.65618e-06	3.78428	2.15135e+06	142.301	2.1515e+06
0.0019912	11.7743	2.6373	12.066	-12.6252	20329.2	3.78403	0.00175891	3.03072e+07	1.4479e+06	1	11	0.00508166	0.000421154	0	-0.026996	-0.000250295	9.30648e-07	-1.35266	0.00220975	0.00220914	5.21637e-05	-12.6232	12.0682	11.7765	2.63735	0.0808734	0.0181147	0.0828774	12.6252	1.4479e+09	6.46416e+09	6.62433e+09	-77.3748	0.0000000E+000	0.0000000E+000	0.0000000E+000	77.3748	0.0000000E+000	0.0000000E+000	0.0000000E+000	-77.3748	0.0000000E+000	0.0000000E+000	0.0000000E+000	-12.6252	0.0000000E+000	0.0000000E+000	0.0000000E+000	12.6252	4.46451	77.3748	0.000000000000000E+000	6.65574e-06	-4.40244e-10	6.65618e-06	3.78428	2.15135e+06	142.301	2.1515e+06
0.00129428	11.7184	3.30264	12.1749	-15.7397	20329.2	3.78403	0.00175891	3.72333e+07	2.73984e+06	1	11	0.00508401	0.000417582	0	-0.026996	-0.000250295	2.47598e-06	97.9201	0.00592931	-0.000817011	-0.00587275	-15.7141	12.1725	11.7175	3.29677	0.0790566	0.0222809	0.0821364	15.7397	2.73984e+09	9.72144e+09	1.01002e+10	-74.2603	0.0000000E+000	0.0000000E+000	0.0000000E+000	74.2603	0.0000000E+000	0.0000000E+000	0.0000000E+000	-74.2603	0.0000000E+000	0.0000000E+000	0.0000000E+000	-15.7397	0.0000000E+000	0.0000000E+000	0.0000000E+000	15.7397	3.54818	74.2603	0.000000000000000E+000	6.65574e-06	-4.40244e-10	6.65618e-06	3.78428	2.15135e+06	142.301	2.1515e+06
0.000796479	12.3844	4.59942	13.2109	-20.3744	20329.2	3.78403	0.00175891	4.34453e+07	5.26606e+06	1	11	0.00508259	0.000384728	0	-0.026996	-0.000250295	1.95714e-06	91.4401	0.00508706	-0.000127849	-0.00508546	-20.354	13.209	12.3842	4.59433	0.0709595	0.0263536	0.0756952	20.3744	5.26606e+09	1.41794e+10	1.51257e+10	-69.6256	0.0000000E+000	0.0000000E+000	0.0000000E+000	69.6256	0.0000000E+000	0.0000000E+000	0.0000000E+000	-69.6256	0.0000000E+000	0.0000000E+000	0.0000000E+000	-20.3744	0.0000000E+000	0.0000000E+000	0.0000000E+000	20.3744	2.69259	69.6256	0.000000000000000E+000	6.65574e-06	-4.40244e-10	6.65618e-06	3.78428	2.15135e+06	142.301	2.1515e+06
0.000497799	12.0192	6.74737	13.7837	-29.309	20329.2	3.78403	0.00175891	4.7384e+07	1.13546e+07	1	11	0.00508614	0.000368998	0	-0.026996	-0.000250295	5.07483e-06	10.7723	0.013753	0.0135107	-0.00257052	-29.2722	13.7942	12.0328	6.7448	0.0632628	0.0355145	0.0725497	29.309	1.13546e+10	2.02262e+10	2.31954e+10	-60.691	0.0000000E+000	0.0000000E+000	0.0000000E+000	60.691	0.0000000E+000	0.0000000E+000	0.0000000E+000	-60.691	0.0000000E+000	0.0000000E+000	0.0000000E+000	-29.309	0.0000000E+000	0.0000000E+000	0.0000000E+000	29.309	1.78132	60.691	0.000000000000000E+000	6.65574e-06	-4.40244e-10	6.65618e-06	3.78428	2.15135e+06	142.301	2.1515e+06
0.000298679	11.9496	10.3545	15.8117	-40.9094	20329.2	3.78403	0.00175891	5.14618e+07	2.20693e+07	1	11	0.00508381	0.000321523	0	-0.026996	-0.000250295	1.30483e-06	70.5496	0.00405828	0.00135137	-0.00382667	-40.8957	15.8102	11.9509	10.3507	0.0477967	0.0414166	0.0632444	40.9094	2.20693e+10	2.54691e+10	3.37006e+10	-49.0906	0.0000000E+000	0.0000000E+000	0.0000000E+000	49.0906	0.0000000E+000	0.0000000E+000	0.0000000E+000	-49.0906	0.0000000E+000	0.0000000E+000	0.0000000E+000	-40.9094	0.0000000E+000	0.0000000E+000	0.0000000E+000	40.9094	1.15405	49.0906	0.000000000000000E+000	6.65574e-06	-4.40244e-10	6.65618e-06	3.78428	2.15135e+06	142.301	2.1515e+06
9.95598e-05	13.9507	34.3402	37.0658	-67.8905	20329.2	3.78403	0.00175891	4.65515e+07	3.9957e+07	1	11	0.0050817	0.0001371	0	-0.026996	-0.000250295	1.97487e-06	-52.8426	0.0144047	0.00870051	0.0114802	-67.8847	37.0797	13.9594	34.3517	0.0101543	0.0249952	0.0269791	67.8905	3.9957e+10	1.62326e+10	4.31284e+10	-22.1095	0.0000000E+000	0.0000000E+000	0.0000000E+000	22.1095	0.0000000E+000	0.0000000E+000	0.0000000E+000	-22.1095	0.0000000E+000	0.0000000E+000	0.0000000E+000	-67.8905	0.0000000E+000	0.0000000E+000	0.0000000E+000	67.8905	0.406251	22.1095	0.000000000000000E+000	6.65574e-06	-4.40244e-10	6.65618e-06	3.78428	2.15135e+06	142.301	2.1515e+06