File: txt/17231_R278_UC80_50SOC_C08.mpt
EC-Lab ASCII FILE
Nb header lines : 64

Potentio Electrochemical Impedance Spectroscopy

Run on channel : 8 (SN 65398)
User :
CE vs. WE compliance from -10 V to 10 V
Electrode connection : standard
Potential control : Ewe
Ewe ctrl range : min = -10.00 V, max = 10.00 V
Safety Limits :
	Do not start on E overload
Acquisition started on : 09/02/2025 16:42:45.432
Loaded Setting File :  C:\Users\Celltest\OneDrive - store-dot.com\Documents\EC-Lab\Data\Michael\R278\UC74_NCMA_16706_EIS_50_SOC.mps
Saved on :
	File : UC80_17231_EIS_50SOC_C08.mpr
	Directory : C:\Users\Celltest\OneDrive - store-dot.com\Documents\EC-Lab\Data\Michael\R278\
	Host : 169.254.61.224
Device : VMP-3e (SN .003165)
Address : USB
EC-LAB for windows v11.62 (software)
Internet server v27.00 (firmware)
Command interpretor v12.03 (firmware)
Electrode material :
Initial state :
Electrolyte :
Comments :
Electrode surface area : 0.001 cm²
Characteristic mass : 0.001 g
Equivalent Weight : 0.000 g/eq.
Density : 0.000 g/cm3
Volume (V) : 0.001 cm³
Record Ece
Cycle Definition : Charge/Discharge alternance
Mode                Multi sine
E (V)               0.0000
vs.                 Eoc
tE (h:m:s)          0:00:0.0000
record              0
dI                  0.000
unit dI             mA
dt (s)              0.000
fi                  1.000
unit fi             MHz
ff                  0.100
unit ff             mHz
Nd                  10
Points              per decade
spacing             Logarithmic
Va (mV)             5.0
pw                  0.10
Na                  2
corr                0
E range min (V)     -10.000
E range max (V)     10.000
I Range             Auto
Bandwidth           5
nc cycles           0
goto Ns'            0
nr cycles           0
inc. cycle          0

freq/Hz	Re(Z)/Ohm	-Im(Z)/Ohm	|Z|/Ohm	Phase(Z)/deg	time/s	<Ewe>/V	<I>/mA	Cs/µF	Cp/µF	cycle number	I Range	|Ewe|/V	|I|/A	Ns	(Q-Qo)/mA.h	<Ece>/V	|Ece|/V	Phase(Zce)/deg	|Zce|/Ohm	Re(Zce)/Ohm	-Im(Zce)/Ohm	Phase(Zwe-ce)/deg	|Zwe-ce|/Ohm	Re(Zwe-ce)/Ohm	-Im(Zwe-ce)/Ohm	Re(Y)/Ohm-1	Im(Y)/Ohm-1	|Y|/Ohm-1	Phase(Y)/deg	Re(C)/nF	Im(C)/nF	|C|/nF	Phase(C)/deg	Re(M)	Im(M)	|M|	Phase(M)/deg	Re(Permittivity)	Im(Permittivity)	|Permittivity|	Phase(Permittivity)/deg	Re(Resistivity)/Ohm.cm	Im(Resistivity)/Ohm.cm	|Resistivity|/Ohm.cm	Phase(Resistivity)/deg	Re(Conductivity)/mS/cm	Im(Conductivity)/mS/cm	|Conductivity|/mS/cm	Phase(Conductivity)/deg	Tan(Delta)	Loss Angle(Delta)/deg	dq/mA.h	Pwe/W	Pce/W	Pwe-ce/W	<Ewe-Ece>/V	Rwe/Ohm	Rce/Ohm	Rwe-ce/Ohm		Ewe-Ece/V
1.00002e+06	1.89172	3.16982	3.69139	-59.1716	2.23356	3.7858	0.00969818	0.0502085	0.0370226	1	10	0.000232826	6.30726e-05	0	-8.01361e-06	-3.1867e-05	0.000201817	-67.0948	3.19975	1.24537	2.94745	-62.8501	6.87476	3.13709	6.11727	0.138828	0.232624	0.270901	59.1716	37.0226	22.0948	43.1144	-30.8284	0.0000000E+000	0.0000000E+000	0.0000000E+000	30.8284	0.0000000E+000	0.0000000E+000	0.0000000E+000	-30.8284	0.0000000E+000	0.0000000E+000	0.0000000E+000	-59.1716	0.0000000E+000	0.0000000E+000	0.0000000E+000	59.1716	0.596791	30.8284	-8.01361e-06	3.67154e-05	-3.09052e-10	3.67157e-05	3.78583	390362	3.28587	390365
630957	0.534141	0.207367	0.572982	-21.2174	3.40256	3.78541	-0.00911219	1.21641	0.159323	1	9	0.000182279	0.000318123	0	-1.43558e-05	0.000330806	0.000116732	-104.106	0.366939	-0.0894318	0.355874	-51.707	0.71764	0.44471	0.563241	1.62695	0.631622	1.74526	21.2174	159.323	410.389	440.23	-68.7826	0.0000000E+000	0.0000000E+000	0.0000000E+000	68.7826	0.0000000E+000	0.0000000E+000	0.0000000E+000	-68.7826	0.0000000E+000	0.0000000E+000	0.0000000E+000	-21.2174	0.0000000E+000	0.0000000E+000	0.0000000E+000	21.2174	2.57583	68.7826	-1.39164e-06	-3.44934e-05	-3.01437e-09	-3.44904e-05	3.78508	415423	36.3037	415387
398103	0.694468	0.15586	0.711743	-12.6493	4.16856	3.7855	-0.00353185	2.56502	0.123002	1	9	0.000660327	0.000927761	0	-1.59392e-05	-1.2779e-05	5.09162e-05	164.743	0.0548807	-0.0529465	-0.0144415	-12.4316	0.656924	0.641521	0.141418	1.3709	0.307672	1.405	12.6493	123.002	548.062	561.696	-77.3507	0.0000000E+000	0.0000000E+000	0.0000000E+000	77.3507	0.0000000E+000	0.0000000E+000	0.0000000E+000	-77.3507	0.0000000E+000	0.0000000E+000	0.0000000E+000	-12.6493	0.0000000E+000	0.0000000E+000	0.0000000E+000	12.6493	4.45572	77.3507	2.68175e-08	-1.33698e-05	4.51333e-11	-1.33698e-05	3.78551	1.07182e+06	3.61821	1.07182e+06
251206	0.790054	0.336342	0.858668	-23.0604	4.93652	3.7854	-0.0138368	1.88369	0.289015	1	9	0.00218001	0.00253883	0	-2.26249e-05	-7.00431e-05	8.04602e-05	91.766	0.0316918	-0.00097665	-0.0316768	-21.1117	0.845851	0.789077	0.304665	1.07153	0.456173	1.16459	23.0604	289.014	678.885	737.844	-66.9396	0.0000000E+000	0.0000000E+000	0.0000000E+000	66.9396	0.0000000E+000	0.0000000E+000	0.0000000E+000	-66.9396	0.0000000E+000	0.0000000E+000	0.0000000E+000	-23.0604	0.0000000E+000	0.0000000E+000	0.0000000E+000	23.0604	2.34896	66.9396	-3.02824e-06	-5.2378e-05	9.69174e-10	-5.23789e-05	3.78547	273575	5.06208	273580
158486	0.886913	0.507911	1.02205	-29.7986	5.70257	3.78535	-0.020682	1.97716	0.488283	1	9	0.00513193	0.00502121	0	-4.04879e-05	0.000235366	8.72061e-05	80.4723	0.0173676	0.00287475	-0.017128	-28.8799	1.01616	0.889788	0.490783	0.849055	0.486231	0.978424	29.7986	488.283	852.638	982.553	-60.2014	0.0000000E+000	0.0000000E+000	0.0000000E+000	60.2014	0.0000000E+000	0.0000000E+000	0.0000000E+000	-60.2014	0.0000000E+000	0.0000000E+000	0.0000000E+000	-29.7986	0.0000000E+000	0.0000000E+000	0.0000000E+000	29.7986	1.7462	60.2014	-1.47337e-05	-7.82885e-05	-4.86782e-09	-7.82836e-05	3.78512	183027	11.3802	183016
100004	1.04719	0.694096	1.25634	-33.5371	6.47054	3.78533	-0.017557	2.2929	0.699861	1	9	0.00537115	0.00427525	0	-1.69479e-05	-0.000165483	5.43859e-05	85.2242	0.0127211	0.00105913	-0.0126769	-33.026	1.25026	1.04825	0.681419	0.66346	0.439752	0.795965	33.5371	699.861	1055.89	1266.77	-56.4629	0.0000000E+000	0.0000000E+000	0.0000000E+000	56.4629	0.0000000E+000	0.0000000E+000	0.0000000E+000	-56.4629	0.0000000E+000	0.0000000E+000	0.0000000E+000	-33.5371	0.0000000E+000	0.0000000E+000	0.0000000E+000	33.5371	1.50871	56.4629	7.91041e-06	-6.64591e-05	2.90539e-09	-6.6462e-05	3.7855	215602	9.4255	215612
63093.8	1.28801	0.895203	1.56855	-34.8005	7.23653	3.78533	-0.0120139	2.81781	0.917822	1	9	0.00531621	0.00338925	0	-5.46664e-06	-7.00431e-05	5.44356e-05	36.9848	0.0160613	0.0128297	-0.00966249	-34.245	1.57364	1.30083	0.88554	0.523506	0.363852	0.637532	34.8005	917.822	1320.55	1608.18	-55.1995	0.0000000E+000	0.0000000E+000	0.0000000E+000	55.1995	0.0000000E+000	0.0000000E+000	0.0000000E+000	-55.1995	0.0000000E+000	0.0000000E+000	0.0000000E+000	-34.8005	0.0000000E+000	0.0000000E+000	0.0000000E+000	34.8005	1.43879	55.1995	4.55738e-06	-4.54765e-05	8.41491e-10	-4.54774e-05	3.7854	315079	5.83017	315085
39814.1	1.63501	1.07058	1.95432	-33.2161	8.00254	3.78533	-0.0113443	3.73393	1.12049	1	9	0.00529557	0.00270967	0	-1.77115e-05	0.000139925	1.79478e-05	16.6528	0.00662363	0.00634582	-0.00189815	-33.068	1.9586	1.64135	1.06868	0.428082	0.280301	0.511686	33.2161	1120.49	1711.24	2045.44	-56.7839	0.0000000E+000	0.0000000E+000	0.0000000E+000	56.7839	0.0000000E+000	0.0000000E+000	0.0000000E+000	-56.7839	0.0000000E+000	0.0000000E+000	0.0000000E+000	-33.2161	0.0000000E+000	0.0000000E+000	0.0000000E+000	33.2161	1.52722	56.7839	-7.13371e-06	-4.29418e-05	-1.58735e-09	-4.29402e-05	3.78519	333678	12.3345	333665
25116.9	2.05454	1.17123	2.36493	-29.6862	8.76854	3.78532	-0.00937257	5.41016	1.32696	1	9	0.00519583	0.00219703	0	-2.68621e-05	0.000159014	1.54044e-05	17.8021	0.00701148	0.00667576	-0.00214362	-29.5613	2.36968	2.06121	1.16909	0.367347	0.209414	0.422845	29.6862	1326.96	2327.72	2679.38	-60.3138	0.0000000E+000	0.0000000E+000	0.0000000E+000	60.3138	0.0000000E+000	0.0000000E+000	0.0000000E+000	-60.3138	0.0000000E+000	0.0000000E+000	0.0000000E+000	-29.6862	0.0000000E+000	0.0000000E+000	0.0000000E+000	29.6862	1.75417	60.3138	-4.36424e-06	-3.54782e-05	-1.49037e-09	-3.54767e-05	3.78516	403873	16.9658	403856
15847.7	2.47234	1.15377	2.72831	-25.0172	9.53456	3.78534	-0.00840532	8.7043	1.55664	1	9	0.00508455	0.00186363	0	-2.84819e-05	2.53972e-05	1.47756e-05	-61.6144	0.0079284	0.00376919	0.00697515	-25.1162	2.73468	2.47611	1.16075	0.332141	0.155001	0.366528	25.0172	1556.64	3335.62	3680.96	-64.9828	0.0000000E+000	0.0000000E+000	0.0000000E+000	64.9828	0.0000000E+000	0.0000000E+000	0.0000000E+000	-64.9828	0.0000000E+000	0.0000000E+000	0.0000000E+000	-25.0172	0.0000000E+000	0.0000000E+000	0.0000000E+000	25.0172	2.14283	64.9828	-2.6424e-06	-3.1817e-05	-2.13471e-10	-3.18168e-05	3.78531	450350	3.02156	450347
10002.2	2.83443	1.08467	3.03488	-20.9407	10.1765	3.78533	-0.00397825	14.6698	1.87387	1	9	0.00532072	0.00175319	0	-2.99538e-05	-3.1867e-05	5.80181e-06	-57.6762	0.00330929	0.00176949	0.00279648	-20.9781	3.03753	2.8362	1.08747	0.307739	0.117765	0.329502	20.9407	1873.87	4896.73	5243.03	-69.0593	0.0000000E+000	0.0000000E+000	0.0000000E+000	69.0593	0.0000000E+000	0.0000000E+000	0.0000000E+000	-69.0593	0.0000000E+000	0.0000000E+000	0.0000000E+000	-20.9407	0.0000000E+000	0.0000000E+000	0.0000000E+000	20.9407	2.61316	69.0593	2.34328e-07	-1.5059e-05	1.26775e-10	-1.50591e-05	3.78536	951505	8.0103	951513
6309.38	3.12478	1.01538	3.28561	-18.0012	10.6945	3.78533	-0.0130556	24.8431	2.37262	1	9	0.00543291	0.00165355	0	-3.05813e-05	-1.2779e-05	4.10679e-06	9.35926	0.00248363	0.00245056	-0.000403898	-17.9813	3.28782	3.12723	1.01497	0.289459	0.0940577	0.304357	18.0012	2372.62	7301.64	7677.45	-71.9988	0.0000000E+000	0.0000000E+000	0.0000000E+000	71.9988	0.0000000E+000	0.0000000E+000	0.0000000E+000	-71.9988	0.0000000E+000	0.0000000E+000	0.0000000E+000	-18.0012	0.0000000E+000	0.0000000E+000	0.0000000E+000	18.0012	3.07746	71.9988	-1.4909e-06	-4.94198e-05	1.66837e-10	-4.94199e-05	3.78534	289939	0.97881	289940
3983.6	3.38501	0.950478	3.51592	-15.6842	11.2571	3.78521	0.00242053	42.0341	3.07191	1	9	0.00541672	0.00154063	0	-3.06753e-05	8.26613e-05	5.82718e-06	87.252	0.00378235	0.00018134	-0.003778	-15.6241	3.51508	3.38519	0.9467	0.27383	0.0768889	0.28442	15.6842	3071.91	10940.2	11363.3	-74.3158	0.0000000E+000	0.0000000E+000	0.0000000E+000	74.3158	0.0000000E+000	0.0000000E+000	0.0000000E+000	-74.3158	0.0000000E+000	0.0000000E+000	0.0000000E+000	-15.6842	0.0000000E+000	0.0000000E+000	0.0000000E+000	15.6842	3.56138	74.3158	-5.91978e-07	9.1622e-06	2.00084e-10	9.162e-06	3.78513	1.5638e+06	34.1502	1.56376e+06
2510.8	3.62361	0.968335	3.75077	-14.9615	12.3269	3.78525	-0.0359458	65.4609	4.36308	1	10	0.00538702	0.00143624	0	-3.84325e-05	0.000101749	1.32999e-05	-27.1606	0.00926018	0.00823906	0.00422715	-14.9913	3.75982	3.63185	0.972562	0.257574	0.0688312	0.266612	14.9615	4363.08	16327.1	16900	-75.0385	0.0000000E+000	0.0000000E+000	0.0000000E+000	75.0385	0.0000000E+000	0.0000000E+000	0.0000000E+000	-75.0385	0.0000000E+000	0.0000000E+000	0.0000000E+000	-14.9615	0.0000000E+000	0.0000000E+000	0.0000000E+000	14.9615	3.74211	75.0385	-3.29093e-06	-0.000136064	-3.65746e-09	-0.00013606	3.78515	105305	2.83064	105302
1585.51	3.86277	1.03492	3.99901	-14.9985	13.2288	3.78524	-0.035053	96.9942	6.49611	1	10	0.00536942	0.00134269	0	-4.67434e-05	0.000330806	1.15228e-05	-90.126	0.00858185	-1.88795e-05	0.00858183	-15.1173	4.00122	3.86275	1.0435	0.241543	0.0647145	0.250062	14.9985	6496.11	24246.4	25101.5	-75.0015	0.0000000E+000	0.0000000E+000	0.0000000E+000	75.0015	0.0000000E+000	0.0000000E+000	0.0000000E+000	-75.0015	0.0000000E+000	0.0000000E+000	0.0000000E+000	-14.9985	0.0000000E+000	0.0000000E+000	0.0000000E+000	14.9985	3.73244	75.0015	-4.39029e-06	-0.000132684	-1.15957e-08	-0.000132672	3.78491	107986	9.43732	107977
1000.32	4.15143	1.14012	4.30514	-15.3567	14.1309	3.78525	-0.0343387	139.55	9.78716	1	10	0.00533548	0.00123933	0	-5.57601e-05	0.000101749	1.74902e-05	-49.8421	0.0141126	0.00910119	0.0107859	-15.4628	4.31678	4.16053	1.15091	0.223987	0.0615142	0.23228	15.3567	9787.16	35637.2	36956.7	-74.6433	0.0000000E+000	0.0000000E+000	0.0000000E+000	74.6433	0.0000000E+000	0.0000000E+000	0.0000000E+000	-74.6433	0.0000000E+000	0.0000000E+000	0.0000000E+000	-15.3567	0.0000000E+000	0.0000000E+000	0.0000000E+000	15.3567	3.64122	74.6433	-3.70983e-06	-0.000129981	-3.49394e-09	-0.000129977	3.78515	110233	2.96311	110230
631.01	4.53881	1.30456	4.72257	-16.0359	15.0316	3.78525	-0.0344057	193.34	14.7533	1	10	0.00533812	0.00113034	0	-6.31987e-05	0.000445334	4.96444e-05	-44.0047	0.0439198	0.0315908	0.0305118	-16.2837	4.76141	4.5704	1.33507	0.20351	0.0584933	0.211749	16.0359	14753.3	51329.8	53407.9	-73.9641	0.0000000E+000	0.0000000E+000	0.0000000E+000	73.9641	0.0000000E+000	0.0000000E+000	0.0000000E+000	-73.9641	0.0000000E+000	0.0000000E+000	0.0000000E+000	-16.0359	0.0000000E+000	0.0000000E+000	0.0000000E+000	16.0359	3.4792	73.9641	-4.22993e-06	-0.000130234	-1.5322e-08	-0.000130219	3.7848	110018	12.9436	110005
398.089	4.97894	1.37132	5.16433	-15.3988	15.9339	3.78524	-0.0349004	291.543	20.5565	1	10	0.00528722	0.0010238	0	-7.18762e-05	0.000101749	2.55974e-05	-4.76592	0.0250025	0.024916	0.00207733	-15.3479	5.18891	5.00385	1.37339	0.186685	0.0514173	0.193636	15.3988	20556.5	74636	77415.1	-74.6012	0.0000000E+000	0.0000000E+000	0.0000000E+000	74.6012	0.0000000E+000	0.0000000E+000	0.0000000E+000	-74.6012	0.0000000E+000	0.0000000E+000	0.0000000E+000	-15.3988	0.0000000E+000	0.0000000E+000	0.0000000E+000	15.3988	3.63077	74.6012	-4.35313e-06	-0.000132106	-3.5511e-09	-0.000132103	3.78514	108458	2.91542	108455
251.044	5.48146	1.3761	5.65156	-14.0927	16.832	3.78525	-0.0341639	460.7	27.314	1	10	0.00526108	0.000930908	0	-7.91426e-05	-0.000127307	2.89732e-06	151.572	0.00311236	-0.00273705	-0.00148166	-14.0849	5.64854	5.47872	1.37462	0.171617	0.0430839	0.176942	14.0927	27314	108800	112176	-75.9073	0.0000000E+000	0.0000000E+000	0.0000000E+000	75.9073	0.0000000E+000	0.0000000E+000	0.0000000E+000	-75.9073	0.0000000E+000	0.0000000E+000	0.0000000E+000	-14.0927	0.0000000E+000	0.0000000E+000	0.0000000E+000	14.0927	3.98332	75.9073	-3.76499e-06	-0.000129319	4.34931e-09	-0.000129323	3.78538	110797	3.72637	110801
158.428	5.97092	1.25314	6.101	-11.8529	17.7369	3.78525	-0.0345508	801.653	33.8209	1	10	0.00525298	0.000861004	0	-8.55586e-05	-5.09551e-05	9.09137e-06	7.87815	0.010559	0.0104594	-0.00144729	-11.8195	6.11094	5.98138	1.2517	0.160413	0.0336665	0.163908	11.8529	33820.9	161148	164659	-78.1471	0.0000000E+000	0.0000000E+000	0.0000000E+000	78.1471	0.0000000E+000	0.0000000E+000	0.0000000E+000	-78.1471	0.0000000E+000	0.0000000E+000	0.0000000E+000	-11.8529	0.0000000E+000	0.0000000E+000	0.0000000E+000	11.8529	4.76475	78.1471	-3.6756e-06	-0.000130783	1.76054e-09	-0.000130785	3.7853	109556	1.47479	109558
100.032	6.36639	1.03999	6.45078	-9.27764	18.6358	3.78525	-0.0345843	1529.87	39.7635	1	10	0.0052492	0.000813732	0	-9.42136e-05	-0.000108219	8.47242e-06	-15.4856	0.0104118	0.0100338	0.00277992	-9.28763	6.46113	6.37643	1.04277	0.152992	0.0249921	0.15502	9.27764	39763.5	243417	246643	-80.7224	0.0000000E+000	0.0000000E+000	0.0000000E+000	80.7224	0.0000000E+000	0.0000000E+000	0.0000000E+000	-80.7224	0.0000000E+000	0.0000000E+000	0.0000000E+000	-9.27764	0.0000000E+000	0.0000000E+000	0.0000000E+000	9.27764	6.12161	80.7224	-3.87215e-06	-0.00013091	3.74268e-09	-0.000130914	3.78536	109450	3.12915	109453
63.0823	6.63899	0.787557	6.68554	-6.76516	19.552	3.78525	-0.0320696	3203.54	44.4551	1	10	0.00524206	0.00078409	0	-0.000101909	-0.000260924	1.89505e-05	119.732	0.0241687	-0.0119863	-0.020987	-6.59829	6.67119	6.627	0.76657	0.148535	0.0176201	0.149577	6.76516	44455.1	374750	377378	-83.2348	0.0000000E+000	0.0000000E+000	0.0000000E+000	83.2348	0.0000000E+000	0.0000000E+000	0.0000000E+000	-83.2348	0.0000000E+000	0.0000000E+000	0.0000000E+000	-6.76516	0.0000000E+000	0.0000000E+000	0.0000000E+000	6.76516	8.42985	83.2348	-4.47086e-06	-0.000121391	8.36771e-09	-0.0001214	3.78551	118033	8.13618	118041
39.8089	6.82473	0.604853	6.85148	-5.0647	20.4529	3.78526	-0.0332116	6609.83	51.5135	1	10	0.00525735	0.000767331	0	-0.000111327	0.00029263	9.40152e-06	27.3977	0.0122522	0.0108779	-0.00563805	-5.00979	6.86182	6.83561	0.599215	0.145384	0.0128849	0.145954	5.0647	51513.4	581241	583520	-84.9353	0.0000000E+000	0.0000000E+000	0.0000000E+000	84.9353	0.0000000E+000	0.0000000E+000	0.0000000E+000	-84.9353	0.0000000E+000	0.0000000E+000	0.0000000E+000	-5.0647	0.0000000E+000	0.0000000E+000	0.0000000E+000	5.0647	11.2833	84.9353	-4.39145e-06	-0.000125714	-9.71871e-09	-0.000125705	3.78496	113974	8.81108	113965
25.1044	6.91744	0.435832	6.93115	-3.60515	21.332	3.78524	-0.0345991	14546.2	57.5146	1	10	0.00524595	0.000756866	0	-0.000119468	0.000139925	7.23163e-06	-9.34778	0.00955471	0.00942783	0.00155194	-3.61304	6.94066	6.92687	0.437384	0.143991	0.00907211	0.144276	3.60515	57514.6	912859	914669	-86.3949	0.0000000E+000	0.0000000E+000	0.0000000E+000	86.3949	0.0000000E+000	0.0000000E+000	0.0000000E+000	-86.3949	0.0000000E+000	0.0000000E+000	0.0000000E+000	-3.60515	0.0000000E+000	0.0000000E+000	0.0000000E+000	3.60515	15.8718	86.3949	-4.60967e-06	-0.000130966	-4.8413e-09	-0.000130961	3.7851	109403	4.04419	109399
15.8576	6.98879	0.323191	6.99625	-2.64771	22.2101	3.78526	-0.0376421	31054.5	66.2691	1	10	0.00525442	0.000751034	0	-0.000128569	-3.1867e-05	1.30897e-05	109.248	0.0174289	-0.00574552	-0.0164546	-2.51515	6.98977	6.98304	0.306736	0.142781	0.0066028	0.142934	2.64771	66269.1	1.43302e+06	1.43456e+06	-87.3523	0.0000000E+000	0.0000000E+000	0.0000000E+000	87.3523	0.0000000E+000	0.0000000E+000	0.0000000E+000	-87.3523	0.0000000E+000	0.0000000E+000	0.0000000E+000	-2.64771	0.0000000E+000	0.0000000E+000	0.0000000E+000	2.64771	21.6243	87.3523	-4.49464e-06	-0.000142485	1.19954e-09	-0.000142486	3.78529	100559	0.84658	100560
10.0032	7.02294	0.24881	7.02735	-2.02903	23.1918	3.78526	-0.0321105	63946.1	80.1615	1	10	0.00524631	0.000746556	0	-0.000136306	-7.00431e-05	8.05184e-06	19.0837	0.0107853	0.0101926	-0.00352625	-1.9974	7.03741	7.03313	0.245283	0.142212	0.00503831	0.142301	2.02903	80161.6	2.26265e+06	2.26407e+06	-87.971	0.0000000E+000	0.0000000E+000	0.0000000E+000	87.971	0.0000000E+000	0.0000000E+000	0.0000000E+000	-87.971	0.0000000E+000	0.0000000E+000	0.0000000E+000	-2.02903	0.0000000E+000	0.0000000E+000	0.0000000E+000	2.02903	28.2262	87.971	-7.74192e-06	-0.000121546	2.24912e-09	-0.000121549	3.78533	117882	2.18132	117884
6.31058	7.05438	0.212716	7.05759	-1.72716	24.1143	3.78523	-0.0426677	118563	107.706	1	10	0.00524207	0.000742756	0	-0.000147637	0.000120837	6.45085e-06	48.9638	0.00868501	0.00570202	-0.00655106	-1.67265	7.0631	7.06009	0.206165	0.141627	0.00427059	0.141691	1.72716	107706	3.57188e+06	3.5735e+06	-88.2728	0.0000000E+000	0.0000000E+000	0.0000000E+000	88.2728	0.0000000E+000	0.0000000E+000	0.0000000E+000	-88.2728	0.0000000E+000	0.0000000E+000	0.0000000E+000	-1.72716	0.0000000E+000	0.0000000E+000	0.0000000E+000	1.72716	33.1634	88.2728	-1.14559e-05	-0.000161507	-5.15586e-09	-0.000161502	3.78511	88714.1	2.83206	88711.3
3.97785	7.09185	0.195205	7.09454	-1.57668	25.1214	3.78529	-0.0309368	204965	155.172	1	10	0.00523896	0.00073845	0	-0.000144869	0.000178102	5.8323e-06	43.7444	0.00789804	0.0057058	-0.00546103	-1.53136	7.10009	7.09756	0.189744	0.1409	0.00387831	0.140953	1.57668	155172	5.63745e+06	5.63959e+06	-88.4233	0.0000000E+000	0.0000000E+000	0.0000000E+000	88.4233	0.0000000E+000	0.0000000E+000	0.0000000E+000	-88.4233	0.0000000E+000	0.0000000E+000	0.0000000E+000	-1.57668	0.0000000E+000	0.0000000E+000	0.0000000E+000	1.57668	36.3303	88.4233	3.68785e-06	-0.000117105	-5.5099e-09	-0.000117099	3.78511	122355	5.75694	122350
2.51367	7.14211	0.207532	7.14512	-1.66441	27.043	3.7853	-0.0254428	305088	257.381	1	11	0.00524619	0.000734234	0	-0.000173158	0.000254454	4.18152e-06	-48.7695	0.00569508	0.00375357	0.00428307	-1.69784	7.149	7.14586	0.211815	0.139897	0.00406505	0.139956	1.66441	257381	8.85764e+06	8.86138e+06	-88.3356	0.0000000E+000	0.0000000E+000	0.0000000E+000	88.3356	0.0000000E+000	0.0000000E+000	0.0000000E+000	-88.3356	0.0000000E+000	0.0000000E+000	0.0000000E+000	-1.66441	0.0000000E+000	0.0000000E+000	0.0000000E+000	1.66441	34.4145	88.3356	-1.52153e-05	-9.63087e-05	-6.47402e-09	-9.63022e-05	3.78505	148777	10.001	148767
1.58469	7.18384	0.226579	7.18742	-1.80652	29.4774	3.7853	-0.0268064	443258	440.506	1	11	0.00524729	0.000730066	0	-0.000172952	-0.00020366	5.49554e-07	-76.0984	0.000752746	0.000180851	0.000730698	-1.81229	7.18762	7.18403	0.22731	0.139063	0.00438606	0.139132	1.80652	440506	1.39665e+07	1.39735e+07	-88.1935	0.0000000E+000	0.0000000E+000	0.0000000E+000	88.1935	0.0000000E+000	0.0000000E+000	0.0000000E+000	-88.1935	0.0000000E+000	0.0000000E+000	0.0000000E+000	-1.80652	0.0000000E+000	0.0000000E+000	0.0000000E+000	1.80652	31.7057	88.1935	5.18009e-06	-0.00010147	5.45938e-09	-0.000101476	3.7855	141209	7.59742	141216
1.00469	7.22789	0.248258	7.23215	-1.96718	240.295	3.78527	-0.023052	638092	751.892	1	11	0.00519769	0.000718692	0	-0.00432326	0.000101749	9.87531e-07	-6.87245	0.00137407	0.00136419	0.00016442	-1.96811	7.23352	7.22925	0.248423	0.13819	0.00474645	0.138271	1.96718	751891	2.18909e+07	2.19038e+07	-88.0328	0.0000000E+000	0.0000000E+000	0.0000000E+000	88.0328	0.0000000E+000	0.0000000E+000	0.0000000E+000	-88.0328	0.0000000E+000	0.0000000E+000	0.0000000E+000	-1.96718	0.0000000E+000	0.0000000E+000	0.0000000E+000	1.96718	29.1144	88.0328	-0.00415445	-8.7258e-05	-2.34552e-09	-8.72557e-05	3.78517	164206	4.41391	164202
0.632957	7.28504	0.303304	7.29135	-2.38407	240.296	3.78527	-0.023052	829024	1434.52	1	11	0.00521029	0.000714585	0	-0.00432326	0.000101749	1.18283e-06	1.86945	0.00165527	0.00165439	-5.39987e-05	-2.3831	7.29301	7.2867	0.30325	0.13703	0.00570509	0.137149	2.38407	1.43452e+06	3.44557e+07	3.44856e+07	-87.6159	0.0000000E+000	0.0000000E+000	0.0000000E+000	87.6159	0.0000000E+000	0.0000000E+000	0.0000000E+000	-87.6159	0.0000000E+000	0.0000000E+000	0.0000000E+000	-2.38407	0.0000000E+000	0.0000000E+000	0.0000000E+000	2.38407	24.0189	87.6159	0.000000000000000E+000	-8.7258e-05	-2.34552e-09	-8.72557e-05	3.78517	164206	4.41391	164202
0.401878	7.33905	0.377839	7.34877	-2.94718	240.298	3.78527	-0.023052	1.04814e+06	2770.79	1	11	0.00522452	0.000710938	0	-0.00432326	0.000101749	1.04367e-06	0.0152211	0.00146802	0.00146802	-3.89991e-07	-2.94658	7.35023	7.34052	0.377838	0.135897	0.00699644	0.136077	2.94718	2.77079e+06	5.38192e+07	5.38905e+07	-87.0528	0.0000000E+000	0.0000000E+000	0.0000000E+000	87.0528	0.0000000E+000	0.0000000E+000	0.0000000E+000	-87.0528	0.0000000E+000	0.0000000E+000	0.0000000E+000	-2.94718	0.0000000E+000	0.0000000E+000	0.0000000E+000	2.94718	19.4238	87.0528	0.000000000000000E+000	-8.7258e-05	-2.34552e-09	-8.72557e-05	3.78517	164206	4.41391	164202
0.251173	7.43428	0.498167	7.45096	-3.83363	240.3	3.78527	-0.023052	1.27195e+06	5685.88	1	11	0.0052242	0.000701145	0	-0.00432326	0.000101749	1.29846e-06	-8.84772	0.00185192	0.00182988	0.000284841	-3.83487	7.4528	7.43611	0.498452	0.133911	0.00897327	0.134211	3.83363	5.68588e+06	8.48519e+07	8.50422e+07	-86.1664	0.0000000E+000	0.0000000E+000	0.0000000E+000	86.1664	0.0000000E+000	0.0000000E+000	0.0000000E+000	-86.1664	0.0000000E+000	0.0000000E+000	0.0000000E+000	-3.83363	0.0000000E+000	0.0000000E+000	0.0000000E+000	3.83363	14.9233	86.1664	0.000000000000000E+000	-8.7258e-05	-2.34552e-09	-8.72557e-05	3.78517	164206	4.41391	164202
0.160751	7.56375	0.58942	7.58668	-4.45588	240.302	3.78527	-0.023052	1.67974e+06	10138.8	1	11	0.00522162	0.000688261	0	-0.00432326	0.000101749	8.36785e-07	8.54576	0.0012158	0.0012023	-0.000180666	-4.45381	7.58787	7.56495	0.589239	0.131412	0.0102405	0.13181	4.45588	1.01388e+07	1.30107e+08	1.30501e+08	-85.5441	0.0000000E+000	0.0000000E+000	0.0000000E+000	85.5441	0.0000000E+000	0.0000000E+000	0.0000000E+000	-85.5441	0.0000000E+000	0.0000000E+000	0.0000000E+000	-4.45588	0.0000000E+000	0.0000000E+000	0.0000000E+000	4.45588	12.8325	85.5441	0.000000000000000E+000	-8.7258e-05	-2.34552e-09	-8.72557e-05	3.78517	164206	4.41391	164202
0.100469	7.68831	0.828885	7.73287	-6.15335	240.303	3.78527	-0.023052	1.91114e+06	21958.4	1	11	0.00522372	0.000675522	0	-0.00432326	0.000101749	9.21185e-07	15.3851	0.00136366	0.0013148	-0.000361788	-6.14964	7.73414	7.68963	0.828524	0.128573	0.0138616	0.129318	6.15335	2.19584e+07	2.03674e+08	2.04855e+08	-83.8466	0.0000000E+000	0.0000000E+000	0.0000000E+000	83.8466	0.0000000E+000	0.0000000E+000	0.0000000E+000	-83.8466	0.0000000E+000	0.0000000E+000	0.0000000E+000	-6.15335	0.0000000E+000	0.0000000E+000	0.0000000E+000	6.15335	9.27549	83.8466	0.000000000000000E+000	-8.7258e-05	-2.34552e-09	-8.72557e-05	3.78517	164206	4.41391	164202
0.0602816	7.95345	1.02658	8.01943	-7.35471	240.305	3.78527	-0.023052	2.57183e+06	42144.5	1	11	0.005218	0.00065067	0	-0.00432326	0.000101749	9.05761e-07	-25.946	0.00139204	0.00125173	0.000609053	-7.35788	8.02075	7.9547	1.02719	0.123671	0.0159627	0.124697	7.35471	4.21446e+07	3.26515e+08	3.29224e+08	-82.6453	0.0000000E+000	0.0000000E+000	0.0000000E+000	82.6453	0.0000000E+000	0.0000000E+000	0.0000000E+000	-82.6453	0.0000000E+000	0.0000000E+000	0.0000000E+000	-7.35471	0.0000000E+000	0.0000000E+000	0.0000000E+000	7.35471	7.74752	82.6453	0.000000000000000E+000	-8.7258e-05	-2.34552e-09	-8.72557e-05	3.78517	164206	4.41391	164202
0.0401878	8.27255	1.24329	8.36546	-8.54709	240.307	3.78527	-0.023052	3.18532e+06	70359.1	1	11	0.00521448	0.000623334	0	-0.00432326	0.000101749	1.21471e-06	-8.54856	0.00194873	0.00192708	0.000289675	-8.54709	8.36741	8.27448	1.24358	0.118212	0.0177662	0.119539	8.54709	7.03591e+07	4.68152e+08	4.73409e+08	-81.4529	0.0000000E+000	0.0000000E+000	0.0000000E+000	81.4529	0.0000000E+000	0.0000000E+000	0.0000000E+000	-81.4529	0.0000000E+000	0.0000000E+000	0.0000000E+000	-8.54709	0.0000000E+000	0.0000000E+000	0.0000000E+000	8.54709	6.65374	81.4529	0.000000000000000E+000	-8.7258e-05	-2.34552e-09	-8.72557e-05	3.78517	164206	4.41391	164202
0.0200939	9.06911	1.78101	9.24234	-11.1105	240.309	3.78527	-0.023052	4.44724e+06	165143	1	11	0.00521846	0.000564626	0	-0.00432326	0.000101749	1.05733e-06	-9.33044	0.00187262	0.00184785	0.000303605	-11.1101	9.24421	9.07096	1.78131	0.10617	0.0208498	0.108198	11.1105	1.65143e+08	8.40926e+08	8.56988e+08	-78.8895	0.0000000E+000	0.0000000E+000	0.0000000E+000	78.8895	0.0000000E+000	0.0000000E+000	0.0000000E+000	-78.8895	0.0000000E+000	0.0000000E+000	0.0000000E+000	-11.1105	0.0000000E+000	0.0000000E+000	0.0000000E+000	11.1105	5.09212	78.8895	0.000000000000000E+000	-8.7258e-05	-2.34552e-09	-8.72557e-05	3.78517	164206	4.41391	164202
0.00796479	10.4702	1.85877	10.634	-10.0668	20329.2	3.78526	0.00229012	1.07503e+07	328460	1	11	0.00521248	0.000490172	0	-0.0248698	0.000139925	3.48235e-07	-23.4398	0.000710434	0.000651808	0.0002826	-10.0677	10.6347	10.4709	1.85906	0.0925906	0.0164375	0.0940383	10.0668	3.2846e+08	1.85018e+09	1.8791e+09	-79.9332	0.0000000E+000	0.0000000E+000	0.0000000E+000	79.9332	0.0000000E+000	0.0000000E+000	0.0000000E+000	-79.9332	0.0000000E+000	0.0000000E+000	0.0000000E+000	-10.0668	0.0000000E+000	0.0000000E+000	0.0000000E+000	10.0668	5.63288	79.9332	-0.0205465	8.66872e-06	3.20446e-10	8.6684e-06	3.78512	1.65287e+06	61.0996	1.6528e+06
0.00497799	11.088	1.7551	11.2261	-8.99459	20329.2	3.78526	0.00229012	1.82165e+07	445259	1	11	0.00522091	0.000465071	0	-0.0248698	0.000139925	2.09273e-07	27.0315	0.000449981	0.000400823	-0.000204508	-8.99324	11.2264	11.0884	1.75489	0.0879831	0.0139267	0.0890785	8.99459	4.45259e+08	2.81297e+09	2.84799e+09	-81.0054	0.0000000E+000	0.0000000E+000	0.0000000E+000	81.0054	0.0000000E+000	0.0000000E+000	0.0000000E+000	-81.0054	0.0000000E+000	0.0000000E+000	0.0000000E+000	-8.99459	0.0000000E+000	0.0000000E+000	0.0000000E+000	8.99459	6.31761	81.0054	0.000000000000000E+000	8.66872e-06	3.20446e-10	8.6684e-06	3.78512	1.65287e+06	61.0996	1.6528e+06
0.00318591	11.4246	2.32698	11.6592	-11.5126	20329.2	3.78526	0.00229012	2.14681e+07	855149	1	11	0.00522302	0.000447975	0	-0.0248698	0.000139925	5.92752e-07	-13.1728	0.00132318	0.00128837	0.000301538	-11.5128	11.6605	11.4259	2.32728	0.0840437	0.0171181	0.0857693	11.5126	8.55149e+08	4.19847e+09	4.28468e+09	-78.4874	0.0000000E+000	0.0000000E+000	0.0000000E+000	78.4874	0.0000000E+000	0.0000000E+000	0.0000000E+000	-78.4874	0.0000000E+000	0.0000000E+000	0.0000000E+000	-11.5126	0.0000000E+000	0.0000000E+000	0.0000000E+000	11.5126	4.90964	78.4874	0.000000000000000E+000	8.66872e-06	3.20446e-10	8.6684e-06	3.78512	1.65287e+06	61.0996	1.6528e+06
0.0019912	11.7042	2.67361	12.0056	-12.8674	20329.2	3.78526	0.00229012	2.98957e+07	1.48263e+06	1	11	0.00522648	0.000435335	0	-0.0248698	0.000139925	1.10692e-06	-47.9428	0.00254269	0.00170328	0.00188789	-12.8744	12.0077	11.7059	2.6755	0.0812025	0.0185493	0.0832942	12.8674	1.48263e+09	6.49046e+09	6.65765e+09	-77.1326	0.0000000E+000	0.0000000E+000	0.0000000E+000	77.1326	0.0000000E+000	0.0000000E+000	0.0000000E+000	-77.1326	0.0000000E+000	0.0000000E+000	0.0000000E+000	-12.8674	0.0000000E+000	0.0000000E+000	0.0000000E+000	12.8674	4.37766	77.1326	0.000000000000000E+000	8.66872e-06	3.20446e-10	8.6684e-06	3.78512	1.65287e+06	61.0996	1.6528e+06
0.00129428	11.5928	3.43947	12.0923	-16.5251	20329.2	3.78526	0.00229012	3.57521e+07	2.89245e+06	1	11	0.00522508	0.000432099	0	-0.0248698	0.000139925	2.86865e-06	-55.642	0.00663887	0.00374672	0.00548057	-16.5449	12.0975	11.5966	3.44495	0.0792814	0.0235219	0.0826972	16.5251	2.89245e+09	9.74909e+09	1.01691e+10	-73.4749	0.0000000E+000	0.0000000E+000	0.0000000E+000	73.4749	0.0000000E+000	0.0000000E+000	0.0000000E+000	-73.4749	0.0000000E+000	0.0000000E+000	0.0000000E+000	-16.5251	0.0000000E+000	0.0000000E+000	0.0000000E+000	16.5251	3.37053	73.4749	0.000000000000000E+000	8.66872e-06	3.20446e-10	8.6684e-06	3.78512	1.65287e+06	61.0996	1.6528e+06
0.000796479	12.354	4.7972	13.2528	-21.2217	20329.2	3.78526	0.00229012	4.16542e+07	5.45785e+06	1	11	0.00522427	0.000394203	0	-0.0248698	0.000139925	2.2044e-06	-79.4318	0.00559205	0.00102561	0.00549719	-21.2422	13.2557	12.3551	4.80269	0.0703391	0.0273134	0.075456	21.2217	5.45785e+09	1.40554e+10	1.50779e+10	-68.7783	0.0000000E+000	0.0000000E+000	0.0000000E+000	68.7783	0.0000000E+000	0.0000000E+000	0.0000000E+000	-68.7783	0.0000000E+000	0.0000000E+000	0.0000000E+000	-21.2217	0.0000000E+000	0.0000000E+000	0.0000000E+000	21.2217	2.57526	68.7783	0.000000000000000E+000	8.66872e-06	3.20446e-10	8.6684e-06	3.78512	1.65287e+06	61.0996	1.6528e+06
0.000497799	12.0064	7.02454	13.9103	-30.3305	20329.2	3.78526	0.00229012	4.55144e+07	1.16067e+07	1	11	0.0052227	0.000375455	0	-0.0248698	0.000139925	5.86911e-06	19.9426	0.015632	0.0146946	-0.00533172	-30.2811	13.9203	12.0211	7.0192	0.0620494	0.0363031	0.0718891	30.3305	1.16067e+10	1.98383e+10	2.29842e+10	-59.6695	0.0000000E+000	0.0000000E+000	0.0000000E+000	59.6695	0.0000000E+000	0.0000000E+000	0.0000000E+000	-59.6695	0.0000000E+000	0.0000000E+000	0.0000000E+000	-30.3305	0.0000000E+000	0.0000000E+000	0.0000000E+000	30.3305	1.7092	59.6695	0.000000000000000E+000	8.66872e-06	3.20446e-10	8.6684e-06	3.78512	1.65287e+06	61.0996	1.6528e+06
0.000298679	11.8545	10.7702	16.0164	-42.2561	20329.2	3.78526	0.00229012	4.94757e+07	2.23721e+07	1	11	0.00522576	0.000326275	0	-0.0248698	0.000139925	1.50333e-06	16.1167	0.00460756	0.00442647	-0.00127904	-42.2421	16.0189	11.8589	10.7689	0.0462117	0.0419847	0.0624359	42.2561	2.23721e+10	2.46245e+10	3.32697e+10	-47.7439	0.0000000E+000	0.0000000E+000	0.0000000E+000	47.7439	0.0000000E+000	0.0000000E+000	0.0000000E+000	-47.7439	0.0000000E+000	0.0000000E+000	0.0000000E+000	-42.2561	0.0000000E+000	0.0000000E+000	0.0000000E+000	42.2561	1.10068	47.7439	0.000000000000000E+000	8.66872e-06	3.20446e-10	8.6684e-06	3.78512	1.65287e+06	61.0996	1.6528e+06
9.95598e-05	14.0843	36.2542	38.8939	-68.7695	20329.2	3.78526	0.00229012	4.40938e+07	3.83117e+07	1	11	0.00522809	0.000134419	0	-0.0248698	0.000139925	3.60156e-06	-70.5035	0.0267935	0.0089423	0.0252572	-68.7707	38.9207	14.0932	36.2795	0.00931047	0.023966	0.025711	68.7695	3.83117e+10	1.48836e+10	4.11012e+10	-21.2305	0.0000000E+000	0.0000000E+000	0.0000000E+000	21.2305	0.0000000E+000	0.0000000E+000	0.0000000E+000	-21.2305	0.0000000E+000	0.0000000E+000	0.0000000E+000	-68.7695	0.0000000E+000	0.0000000E+000	0.0000000E+000	68.7695	0.388487	21.2305	0.000000000000000E+000	8.66872e-06	3.20446e-10	8.6684e-06	3.78512	1.65287e+06	61.0996	1.6528e+06