File: txt/17384_R279_UA648_SOC00_C03.mpt
EC-Lab ASCII FILE
Nb header lines : 63

Potentio Electrochemical Impedance Spectroscopy

Run on channel : 3 (SN 65921)
User :
CE vs. WE compliance from -10 V to 10 V
Electrode connection : standard
Potential control : Ewe
Ewe ctrl range : min = -10.00 V, max = 10.00 V
Safety Limits :
	Do not start on E overload
Acquisition started on : 09/10/2025 16:53:35.972
Loaded Setting File :  C:\Users\Celltest\OneDrive - store-dot.com\Documents\EC-Lab\Data\Charmaine\R279\17382_C01.mpr
Saved on :
	File : 17384_C03.mpr
	Directory : C:\Users\Celltest\OneDrive - store-dot.com\Documents\EC-Lab\Data\Charmaine\R279\
	Host : 169.254.61.224
Device : VMP-3e (SN .003165)
Address : USB
EC-LAB for windows v11.62 (software)
Internet server v27.00 (firmware)
Command interpretor v12.03 (firmware)
Electrode material :
Initial state :
Electrolyte :
Comments :
Electrode surface area : 0.001 cm²
Characteristic mass : 0.001 g
Equivalent Weight : 0.000 g/eq.
Density : 0.000 g/cm3
Volume (V) : 0.001 cm³
Cycle Definition : Charge/Discharge alternance
Mode                Single sine
E (V)               0.0000
vs.                 Eoc
tE (h:m:s)          0:00:0.0000
record              0
dI                  0.000
unit dI             mA
dt (s)              0.000
fi                  100.000
unit fi             kHz
ff                  10.000
unit ff             mHz
Nd                  6
Points              per decade
spacing             Logarithmic
Va (mV)             5.0
pw                  0.10
Na                  2
corr                0
E range min (V)     -10.000
E range max (V)     10.000
I Range             Auto
Bandwidth           5
nc cycles           0
goto Ns'            0
nr cycles           0
inc. cycle          0

freq/Hz	Re(Z)/Ohm	-Im(Z)/Ohm	|Z|/Ohm	Phase(Z)/deg	time/s	<Ewe>/V	<I>/mA	Cs/µF	Cp/µF	cycle number	I Range	|Ewe|/V	|I|/A	Ns	(Q-Qo)/mA.h	Re(Y)/Ohm-1	Im(Y)/Ohm-1	|Y|/Ohm-1	Phase(Y)/deg	Re(C)/nF	Im(C)/nF	|C|/nF	Phase(C)/deg	Re(M)	Im(M)	|M|	Phase(M)/deg	Re(Permittivity)	Im(Permittivity)	|Permittivity|	Phase(Permittivity)/deg	Re(Resistivity)/Ohm.cm	Im(Resistivity)/Ohm.cm	|Resistivity|/Ohm.cm	Phase(Resistivity)/deg	Re(Conductivity)/mS/cm	Im(Conductivity)/mS/cm	|Conductivity|/mS/cm	Phase(Conductivity)/deg	Tan(Delta)	Loss Angle(Delta)/deg	dq/mA.h	Pwe/W	Rwe/Ohm
100004	2.46808	0.8604	2.61376	-19.2191	2.22748	0.187932	0.0362056	1.84971	0.200435	1	9	0.00491555	0.00188065	0	2.41176e-06	0.361268	0.125942	0.382591	19.2191	200.435	574.955	608.89	-70.7809	0.0000000E+000	0.0000000E+000	0.0000000E+000	70.7809	0.0000000E+000	0.0000000E+000	0.0000000E+000	-70.7809	0.0000000E+000	0.0000000E+000	0.0000000E+000	-19.2191	0.0000000E+000	0.0000000E+000	0.0000000E+000	19.2191	2.86853	70.7809	2.41176e-06	6.8042e-06	5190.69
68132	2.67032	0.939038	2.83062	-19.3746	2.66448	0.187927	0.0384619	2.48763	0.273772	1	9	0.00533051	0.00188316	0	6.67612e-06	0.333274	0.117198	0.35328	19.3746	273.772	778.52	825.254	-70.6254	0.0000000E+000	0.0000000E+000	0.0000000E+000	70.6254	0.0000000E+000	0.0000000E+000	0.0000000E+000	-70.6254	0.0000000E+000	0.0000000E+000	0.0000000E+000	-19.3746	0.0000000E+000	0.0000000E+000	0.0000000E+000	19.3746	2.84367	70.6254	4.26436e-06	7.22801e-06	4886.05
46420.4	2.88188	1.01736	3.05619	-19.4439	3.1015	0.187933	0.0381449	3.37007	0.373443	1	9	0.00536835	0.00175655	0	6.75286e-06	0.308544	0.108921	0.327205	19.4439	373.443	1057.86	1121.84	-70.5561	0.0000000E+000	0.0000000E+000	0.0000000E+000	70.5561	0.0000000E+000	0.0000000E+000	0.0000000E+000	-70.5561	0.0000000E+000	0.0000000E+000	0.0000000E+000	-19.4439	0.0000000E+000	0.0000000E+000	0.0000000E+000	19.4439	2.83272	70.5561	7.67422e-08	7.16867e-06	4926.81
31621.1	3.10543	1.1338	3.30594	-20.0573	3.53848	0.187951	0.0349003	4.4392	0.522145	1	9	0.00537485	0.00162582	0	1.38366e-05	0.28414	0.10374	0.302486	20.0573	522.145	1430.13	1522.47	-69.9427	0.0000000E+000	0.0000000E+000	0.0000000E+000	69.9427	0.0000000E+000	0.0000000E+000	0.0000000E+000	-69.9427	0.0000000E+000	0.0000000E+000	0.0000000E+000	-20.0573	0.0000000E+000	0.0000000E+000	0.0000000E+000	20.0573	2.73895	69.9427	7.08371e-06	6.55955e-06	5385.36
21544.7	3.37979	1.26986	3.61048	-20.5923	3.97548	0.187954	0.0399536	5.81733	0.719626	1	9	0.00533963	0.00147893	0	1.75141e-05	0.259275	0.0974152	0.276972	20.5923	719.626	1915.32	2046.05	-69.4077	0.0000000E+000	0.0000000E+000	0.0000000E+000	69.4077	0.0000000E+000	0.0000000E+000	0.0000000E+000	-69.4077	0.0000000E+000	0.0000000E+000	0.0000000E+000	-20.5923	0.0000000E+000	0.0000000E+000	0.0000000E+000	20.5923	2.66155	69.4077	3.67753e-06	7.50946e-06	4704.32
14678.6	3.64246	1.41456	3.90749	-21.2238	4.41248	0.187937	0.0399909	7.66504	1.00452	1	9	0.00533786	0.00136606	0	2.36157e-05	0.238561	0.0926456	0.255919	21.2238	1004.52	2586.63	2774.84	-68.7762	0.0000000E+000	0.0000000E+000	0.0000000E+000	68.7762	0.0000000E+000	0.0000000E+000	0.0000000E+000	-68.7762	0.0000000E+000	0.0000000E+000	0.0000000E+000	-21.2238	0.0000000E+000	0.0000000E+000	0.0000000E+000	21.2238	2.57498	68.7762	6.10165e-06	7.51578e-06	4699.5
10002.2	3.93145	1.60937	4.2481	-22.2622	5.16249	0.187958	-0.0124551	9.88705	1.41903	1	10	0.00487596	0.0011478	0	2.42309e-05	0.217853	0.08918	0.235399	22.2622	1419.03	3466.46	3745.66	-67.7378	0.0000000E+000	0.0000000E+000	0.0000000E+000	67.7378	0.0000000E+000	0.0000000E+000	0.0000000E+000	-67.7378	0.0000000E+000	0.0000000E+000	0.0000000E+000	-22.2622	0.0000000E+000	0.0000000E+000	0.0000000E+000	22.2622	2.44284	67.7378	6.15109e-07	-2.34103e-06	15090.8
6811.07	4.28381	1.8535	4.6676	-23.397	5.7175	0.187924	-0.0119908	12.607	1.98797	1	10	0.00516083	0.00110567	0	2.26677e-05	0.196627	0.0850757	0.214243	23.397	1987.97	4594.6	5006.24	-66.603	0.0000000E+000	0.0000000E+000	0.0000000E+000	66.603	0.0000000E+000	0.0000000E+000	0.0000000E+000	-66.603	0.0000000E+000	0.0000000E+000	0.0000000E+000	-23.397	0.0000000E+000	0.0000000E+000	0.0000000E+000	23.397	2.3112	66.603	-1.56313e-06	-2.25337e-06	15672.3
4641.49	4.68198	2.15285	5.15322	-24.6937	6.41169	0.187956	-0.00430002	15.9276	2.77983	1	10	0.00511044	0.000991699	0	2.09463e-05	0.176308	0.0810692	0.194053	24.6937	2779.84	6045.54	6654.02	-65.3063	0.0000000E+000	0.0000000E+000	0.0000000E+000	65.3063	0.0000000E+000	0.0000000E+000	0.0000000E+000	-65.3063	0.0000000E+000	0.0000000E+000	0.0000000E+000	-24.6937	0.0000000E+000	0.0000000E+000	0.0000000E+000	24.6937	2.17478	65.3063	-1.72142e-06	-8.08214e-07	43710.4
3161.01	5.13738	2.51602	5.72041	-26.0932	6.87767	0.187956	-0.0043224	20.0115	3.87127	1	10	0.00524565	0.000917006	0	2.10117e-05	0.156996	0.0768882	0.174813	26.0932	3871.27	7904.64	8801.71	-63.9068	0.0000000E+000	0.0000000E+000	0.0000000E+000	63.9068	0.0000000E+000	0.0000000E+000	0.0000000E+000	-63.9068	0.0000000E+000	0.0000000E+000	0.0000000E+000	-26.0932	0.0000000E+000	0.0000000E+000	0.0000000E+000	26.0932	2.04187	63.9068	6.53531e-08	-8.12418e-07	43484.1
2155.69	5.67306	2.96194	6.39974	-27.5694	7.34468	0.187961	-0.0044324	24.9263	5.33931	1	10	0.00517723	0.000808974	0	2.08114e-05	0.138514	0.0723189	0.156256	27.5694	5339.31	10226.5	11536.4	-62.4306	0.0000000E+000	0.0000000E+000	0.0000000E+000	62.4306	0.0000000E+000	0.0000000E+000	0.0000000E+000	-62.4306	0.0000000E+000	0.0000000E+000	0.0000000E+000	-27.5694	0.0000000E+000	0.0000000E+000	0.0000000E+000	27.5694	1.91532	62.4306	-2.00299e-07	-8.3312e-07	42406.2
1468.59	6.3067	3.56288	7.24352	-29.4636	7.81193	0.187963	-0.00364561	30.4172	7.35904	1	10	0.00508509	0.000702019	0	1.99925e-05	0.1202	0.0679049	0.138054	29.4636	7359.03	13026.3	14961.3	-60.5364	0.0000000E+000	0.0000000E+000	0.0000000E+000	60.5364	0.0000000E+000	0.0000000E+000	0.0000000E+000	-60.5364	0.0000000E+000	0.0000000E+000	0.0000000E+000	-29.4636	0.0000000E+000	0.0000000E+000	0.0000000E+000	29.4636	1.77012	60.5364	-8.18873e-07	-6.85241e-07	51558.8
1000.32	7.07416	4.26573	8.26076	-31.0901	8.28068	0.187955	-0.00419935	37.2982	9.94568	1	10	0.00499397	0.000604541	0	1.98666e-05	0.103666	0.0625106	0.121054	31.0901	9945.68	16493.6	19260.2	-58.9099	0.0000000E+000	0.0000000E+000	0.0000000E+000	58.9099	0.0000000E+000	0.0000000E+000	0.0000000E+000	-58.9099	0.0000000E+000	0.0000000E+000	0.0000000E+000	-31.0901	0.0000000E+000	0.0000000E+000	0.0000000E+000	31.0901	1.65837	58.9099	-1.25849e-07	-7.89291e-07	44758.2
681.09	8.02093	5.12717	9.51962	-32.5877	8.74642	0.187951	-0.00417885	45.5762	13.2207	1	10	0.00492759	0.000517625	0	1.93218e-05	0.0885086	0.0565768	0.105046	32.5877	13220.7	20682.4	24546.9	-57.4123	0.0000000E+000	0.0000000E+000	0.0000000E+000	57.4123	0.0000000E+000	0.0000000E+000	0.0000000E+000	-57.4123	0.0000000E+000	0.0000000E+000	0.0000000E+000	-32.5877	0.0000000E+000	0.0000000E+000	0.0000000E+000	32.5877	1.5644	57.4123	-5.44785e-07	-7.85418e-07	44976.7
463.961	9.22527	6.16199	11.094	-33.7408	9.21522	0.187947	-0.00399986	55.6695	17.1746	1	10	0.00489196	0.000440957	0	1.89473e-05	0.074956	0.0500667	0.0901392	33.7408	17174.6	25712.6	30920.9	-56.2592	0.0000000E+000	0.0000000E+000	0.0000000E+000	56.2592	0.0000000E+000	0.0000000E+000	0.0000000E+000	-56.2592	0.0000000E+000	0.0000000E+000	0.0000000E+000	-33.7408	0.0000000E+000	0.0000000E+000	0.0000000E+000	33.7408	1.49712	56.2592	-3.74524e-07	-7.51764e-07	46988.4
316.316	10.8095	7.3189	13.0542	-34.1012	9.68194	0.187937	-0.00425343	68.747	21.6096	1	10	0.00486263	0.000372496	0	1.87237e-05	0.0634317	0.0429484	0.0766039	34.1012	21609.6	31915.8	38543.4	-55.8988	0.0000000E+000	0.0000000E+000	0.0000000E+000	55.8988	0.0000000E+000	0.0000000E+000	0.0000000E+000	-55.8988	0.0000000E+000	0.0000000E+000	0.0000000E+000	-34.1012	0.0000000E+000	0.0000000E+000	0.0000000E+000	34.1012	1.47693	55.8988	-2.23634e-07	-7.99375e-07	44184.8
215.345	12.8271	8.56579	15.4242	-33.7346	10.1494	0.187948	-0.00387122	86.2818	26.6102	1	10	0.00484437	0.000314076	0	1.8464e-05	0.0539165	0.0360049	0.0648331	33.7346	26610.2	39848.1	47916.3	-56.2654	0.0000000E+000	0.0000000E+000	0.0000000E+000	56.2654	0.0000000E+000	0.0000000E+000	0.0000000E+000	-56.2654	0.0000000E+000	0.0000000E+000	0.0000000E+000	-33.7346	0.0000000E+000	0.0000000E+000	0.0000000E+000	33.7346	1.49748	56.2654	-2.59717e-07	-7.27588e-07	48550
146.737	15.3723	9.67181	18.1618	-32.177	10.6124	0.187946	-0.0036624	112.143	31.8031	1	10	0.00483052	0.000265972	0	1.78891e-05	0.0466037	0.0293218	0.0550607	32.177	31803.1	50547.5	59720.1	-57.823	0.0000000E+000	0.0000000E+000	0.0000000E+000	57.823	0.0000000E+000	0.0000000E+000	0.0000000E+000	-57.823	0.0000000E+000	0.0000000E+000	0.0000000E+000	-32.177	0.0000000E+000	0.0000000E+000	0.0000000E+000	32.177	1.58939	57.823	-5.74855e-07	-6.88332e-07	51317.6
100.032	18.4079	10.4383	21.1615	-29.5556	11.0807	0.18795	-0.00380783	152.423	37.0867	1	10	0.00482752	0.000228127	0	1.72441e-05	0.0411066	0.0233097	0.0472556	29.5556	37086.7	65402.2	75185.6	-60.4444	0.0000000E+000	0.0000000E+000	0.0000000E+000	60.4444	0.0000000E+000	0.0000000E+000	0.0000000E+000	-60.4444	0.0000000E+000	0.0000000E+000	0.0000000E+000	-29.5556	0.0000000E+000	0.0000000E+000	0.0000000E+000	29.5556	1.7635	60.4444	-6.44968e-07	-7.15683e-07	49358.9
68.104	21.7822	10.6722	24.2562	-26.1025	11.8183	0.187967	-0.00717861	218.974	42.3894	1	11	0.00483734	0.000199427	0	1.61716e-05	0.0370218	0.0181388	0.0412266	26.1025	42389.4	86517.8	96344.1	-63.8975	0.0000000E+000	0.0000000E+000	0.0000000E+000	63.8975	0.0000000E+000	0.0000000E+000	0.0000000E+000	-63.8975	0.0000000E+000	0.0000000E+000	0.0000000E+000	-26.1025	0.0000000E+000	0.0000000E+000	0.0000000E+000	26.1025	2.04102	63.8975	-1.07258e-06	-1.34934e-06	26184.3
46.4415	25.0593	10.1685	27.0438	-22.0863	12.2735	0.187967	-0.00735518	337.02	47.6471	1	11	0.00482784	0.000178519	0	1.53294e-05	0.0342636	0.0139035	0.0369771	22.0863	47647.1	117421	126720	-67.9137	0.0000000E+000	0.0000000E+000	0.0000000E+000	67.9137	0.0000000E+000	0.0000000E+000	0.0000000E+000	-67.9137	0.0000000E+000	0.0000000E+000	0.0000000E+000	-22.0863	0.0000000E+000	0.0000000E+000	0.0000000E+000	22.0863	2.4644	67.9137	-8.42205e-07	-1.38253e-06	25555.8
31.6296	28.024	9.01386	29.438	-17.8303	12.7194	0.187963	-0.00767457	558.234	52.3384	1	11	0.00482902	0.00016404	0	1.43201e-05	0.032338	0.0104014	0.0339697	17.8303	52338.4	162720	170930	-72.1697	0.0000000E+000	0.0000000E+000	0.0000000E+000	72.1697	0.0000000E+000	0.0000000E+000	0.0000000E+000	-72.1697	0.0000000E+000	0.0000000E+000	0.0000000E+000	-17.8303	0.0000000E+000	0.0000000E+000	0.0000000E+000	17.8303	3.10899	72.1697	-1.00928e-06	-1.44253e-06	24491.7
21.5517	30.3018	7.53601	31.2248	-13.966	13.1583	0.187951	-0.00781627	979.934	57.0795	1	11	0.00482852	0.000154637	0	1.33916e-05	0.0310791	0.00772933	0.0320258	13.966	57079.5	229513	236504	-76.034	0.0000000E+000	0.0000000E+000	0.0000000E+000	76.034	0.0000000E+000	0.0000000E+000	0.0000000E+000	-76.034	0.0000000E+000	0.0000000E+000	0.0000000E+000	-13.966	0.0000000E+000	0.0000000E+000	0.0000000E+000	13.966	4.02093	76.034	-9.28487e-07	-1.46908e-06	24046.2
14.6852	31.8649	6.05513	32.4352	-10.7593	13.636	0.187968	-0.0071443	1789.86	62.3782	1	11	0.00482612	0.000148793	0	1.27202e-05	0.0302887	0.00575561	0.0308307	10.7593	62378.2	328264	334138	-79.2407	0.0000000E+000	0.0000000E+000	0.0000000E+000	79.2407	0.0000000E+000	0.0000000E+000	0.0000000E+000	-79.2407	0.0000000E+000	0.0000000E+000	0.0000000E+000	-10.7593	0.0000000E+000	0.0000000E+000	0.0000000E+000	10.7593	5.26247	79.2407	-6.71439e-07	-1.3429e-06	26310.2
10.0032	32.9171	4.80684	33.2662	-8.3081	14.1037	0.187966	-0.00713573	3309.95	69.1089	1	11	0.00482423	0.000145019	0	1.26716e-05	0.029745	0.00434363	0.0300605	8.3081	69108.8	473256	478275	-81.6919	0.0000000E+000	0.0000000E+000	0.0000000E+000	81.6919	0.0000000E+000	0.0000000E+000	0.0000000E+000	-81.6919	0.0000000E+000	0.0000000E+000	0.0000000E+000	-8.3081	0.0000000E+000	0.0000000E+000	0.0000000E+000	8.3081	6.84797	81.6919	-4.8596e-08	-1.34128e-06	26341.6
6.81719	33.606	3.84205	33.8249	-6.52209	14.4614	0.187942	-0.00832771	6076.48	78.3978	1	11	0.00481861	0.000142457	0	1.02098e-05	0.0293727	0.00335807	0.029564	6.52209	78397.8	685738	690205	-83.4779	0.0000000E+000	0.0000000E+000	0.0000000E+000	83.4779	0.0000000E+000	0.0000000E+000	0.0000000E+000	-83.4779	0.0000000E+000	0.0000000E+000	0.0000000E+000	-6.52209	0.0000000E+000	0.0000000E+000	0.0000000E+000	6.52209	8.7469	83.4779	-2.46179e-06	-1.56512e-06	22568.2
4.63925	34.1725	3.15147	34.3175	-5.26904	14.9633	0.187968	-0.00694182	10885.8	91.8021	1	11	0.00482723	0.000140664	0	1.06751e-05	0.0290165	0.00267597	0.0291396	5.26904	91802.2	995445	999669	-84.731	0.0000000E+000	0.0000000E+000	0.0000000E+000	84.731	0.0000000E+000	0.0000000E+000	0.0000000E+000	-84.731	0.0000000E+000	0.0000000E+000	0.0000000E+000	-5.26904	0.0000000E+000	0.0000000E+000	0.0000000E+000	5.26904	10.8434	84.731	4.65308e-07	-1.30484e-06	27077.6
3.1604	34.5423	2.66758	34.6452	-4.41599	15.6722	0.18796	-0.00681326	18878.2	111.921	1	11	0.00482279	0.000139205	0	1.06682e-05	0.0287784	0.00222245	0.0288641	4.41599	111921	1.44925e+06	1.45357e+06	-85.584	0.0000000E+000	0.0000000E+000	0.0000000E+000	85.584	0.0000000E+000	0.0000000E+000	0.0000000E+000	-85.584	0.0000000E+000	0.0000000E+000	0.0000000E+000	-4.41599	0.0000000E+000	0.0000000E+000	0.0000000E+000	4.41599	12.9489	85.584	-6.87523e-09	-1.28062e-06	27587.3
2.15577	34.9398	2.5044	35.0294	-4.09981	16.6888	0.18797	-0.0055777	29479.2	150.68	1	11	0.00482517	0.000137746	0	7.00403e-06	0.0284744	0.00204097	0.0285474	4.09981	150680	2.10219e+06	2.10759e+06	-85.9002	0.0000000E+000	0.0000000E+000	0.0000000E+000	85.9002	0.0000000E+000	0.0000000E+000	0.0000000E+000	-85.9002	0.0000000E+000	0.0000000E+000	0.0000000E+000	-4.09981	0.0000000E+000	0.0000000E+000	0.0000000E+000	4.09981	13.9514	85.9002	-3.66417e-06	-1.04844e-06	33700.3
1.46631	35.3652	2.46755	35.4512	-3.99125	18.8941	0.187978	-0.0053974	43987.4	213.107	1	12	0.00483665	0.000136431	0	3.02045e-07	0.0281394	0.00196338	0.0282078	3.99125	213107	3.05428e+06	3.0617e+06	-86.0088	0.0000000E+000	0.0000000E+000	0.0000000E+000	86.0088	0.0000000E+000	0.0000000E+000	0.0000000E+000	-86.0088	0.0000000E+000	0.0000000E+000	0.0000000E+000	-3.99125	0.0000000E+000	0.0000000E+000	0.0000000E+000	3.99125	14.3321	86.0088	-6.70199e-06	-1.01459e-06	34827.5
1.00006	35.8715	2.61986	35.967	-4.17716	21.0341	0.187978	-0.00545569	60745.5	322.301	1	12	0.00483028	0.000134298	0	-1.84861e-06	0.0277294	0.00202521	0.0278033	4.17716	322301	4.41299e+06	4.42474e+06	-85.8228	0.0000000E+000	0.0000000E+000	0.0000000E+000	85.8228	0.0000000E+000	0.0000000E+000	0.0000000E+000	-85.8228	0.0000000E+000	0.0000000E+000	0.0000000E+000	-4.17716	0.0000000E+000	0.0000000E+000	0.0000000E+000	4.17716	13.6921	85.8228	-2.15065e-06	-1.02555e-06	34455.5
0.681362	36.3912	2.84062	36.5019	-4.46333	24.154	0.187973	-0.00543661	82229.8	497.993	1	12	0.00483086	0.000132345	0	-1.16886e-06	0.0273128	0.00213197	0.0273958	4.46333	497994	6.37981e+06	6.39921e+06	-85.5367	0.0000000E+000	0.0000000E+000	0.0000000E+000	85.5367	0.0000000E+000	0.0000000E+000	0.0000000E+000	-85.5367	0.0000000E+000	0.0000000E+000	0.0000000E+000	-4.46333	0.0000000E+000	0.0000000E+000	0.0000000E+000	4.46333	12.811	85.5367	6.79744e-07	-1.02194e-06	34575.5
0.464091	37.0373	3.07344	37.1646	-4.74366	28.7188	0.187975	-0.00496589	111582	763.102	1	12	0.00482398	0.0001298	0	9.74956e-07	0.0268152	0.00222518	0.0269073	4.74366	763103	9.19597e+06	9.22758e+06	-85.2563	0.0000000E+000	0.0000000E+000	0.0000000E+000	85.2563	0.0000000E+000	0.0000000E+000	0.0000000E+000	-85.2563	0.0000000E+000	0.0000000E+000	0.0000000E+000	-4.74366	0.0000000E+000	0.0000000E+000	0.0000000E+000	4.74366	12.0508	85.2563	2.14382e-06	-9.3346e-07	37853.2
0.316193	37.8562	3.38721	38.0074	-5.11297	35.401	0.187983	-0.0038942	148602	1180.25	1	12	0.00483024	0.000127087	0	-2.30837e-07	0.026206	0.0023448	0.0263106	5.11297	1.18025e+06	1.31907e+07	1.32434e+07	-84.887	0.0000000E+000	0.0000000E+000	0.0000000E+000	84.887	0.0000000E+000	0.0000000E+000	0.0000000E+000	-84.887	0.0000000E+000	0.0000000E+000	0.0000000E+000	-5.11297	0.0000000E+000	0.0000000E+000	0.0000000E+000	5.11297	11.1762	84.887	-1.20579e-06	-7.32043e-07	48272.5
0.215268	38.6844	3.70198	38.8611	-5.46639	45.1987	0.18798	-0.00297826	199713	1812.36	1	12	0.00483243	0.000124351	0	-1.16462e-05	0.0256156	0.00245134	0.0257327	5.46639	1.81236e+06	1.89385e+07	1.9025e+07	-84.5336	0.0000000E+000	0.0000000E+000	0.0000000E+000	84.5336	0.0000000E+000	0.0000000E+000	0.0000000E+000	-84.5336	0.0000000E+000	0.0000000E+000	0.0000000E+000	-5.46639	0.0000000E+000	0.0000000E+000	0.0000000E+000	5.46639	10.4496	84.5336	-1.14153e-05	-5.59856e-07	63117.4
0.146929	39.4814	4.06974	39.6906	-5.88527	59.5343	0.187983	-0.00219897	266162	2798.37	1	12	0.00482916	0.00012167	0	-3.89494e-05	0.0250621	0.0025834	0.0251949	5.88527	2.79837e+06	2.71476e+07	2.72914e+07	-84.1147	0.0000000E+000	0.0000000E+000	0.0000000E+000	84.1147	0.0000000E+000	0.0000000E+000	0.0000000E+000	-84.1147	0.0000000E+000	0.0000000E+000	0.0000000E+000	-5.88527	0.0000000E+000	0.0000000E+000	0.0000000E+000	5.88527	9.70119	84.1147	-2.73032e-05	-4.1337e-07	85486.8
0.0999041	40.278	4.55432	40.5347	-6.45116	80.6041	0.187993	-0.00182464	349794	4415.78	1	12	0.00483087	0.000119179	0	-8.39515e-05	0.024514	0.00277186	0.0246702	6.45116	4.41578e+06	3.90527e+07	3.93016e+07	-83.5488	0.0000000E+000	0.0000000E+000	0.0000000E+000	83.5488	0.0000000E+000	0.0000000E+000	0.0000000E+000	-83.5488	0.0000000E+000	0.0000000E+000	0.0000000E+000	-6.45116	0.0000000E+000	0.0000000E+000	0.0000000E+000	6.45116	8.8439	83.5488	-4.50021e-05	-3.43019e-07	103030
0.0680626	41.1004	5.33082	41.4446	-7.39015	111.516	0.187982	-0.00199492	438649	7257.19	1	12	0.00482658	0.000116458	0	-0.00014232	0.0239281	0.00310354	0.0241286	7.39015	7.25719e+06	5.59526e+07	5.64213e+07	-82.6099	0.0000000E+000	0.0000000E+000	0.0000000E+000	82.6099	0.0000000E+000	0.0000000E+000	0.0000000E+000	-82.6099	0.0000000E+000	0.0000000E+000	0.0000000E+000	-7.39015	0.0000000E+000	0.0000000E+000	0.0000000E+000	7.39015	7.70995	82.6099	-5.83683e-05	-3.7501e-07	94230.2
0.0464052	42.0935	6.65416	42.6162	-8.98301	156.84	0.187993	-0.00230141	515419	12566	1	12	0.00482832	0.000113298	0	-0.000197495	0.0231774	0.0036639	0.0234653	8.98301	1.2566e+07	7.94912e+07	8.04783e+07	-81.017	0.0000000E+000	0.0000000E+000	0.0000000E+000	81.017	0.0000000E+000	0.0000000E+000	0.0000000E+000	-81.017	0.0000000E+000	0.0000000E+000	0.0000000E+000	-8.98301	0.0000000E+000	0.0000000E+000	0.0000000E+000	8.98301	6.32589	81.017	-5.51752e-05	-4.32649e-07	81685.7
0.0315922	43.0795	8.6954	43.9483	-11.4116	223.401	0.187983	-0.00231873	579363	22680.1	1	12	0.00483004	0.000109903	0	-0.000212265	0.0223042	0.00450199	0.022754	11.4116	2.26801e+07	1.12364e+08	1.1463e+08	-78.5884	0.0000000E+000	0.0000000E+000	0.0000000E+000	78.5884	0.0000000E+000	0.0000000E+000	0.0000000E+000	-78.5884	0.0000000E+000	0.0000000E+000	0.0000000E+000	-11.4116	0.0000000E+000	0.0000000E+000	0.0000000E+000	11.4116	4.95429	78.5884	-1.47699e-05	-4.35881e-07	81071.7
0.0215268	44.1868	11.2902	45.6064	-14.333	321.07	0.187988	-0.00186548	654848	40131.9	1	12	0.004832	0.00010595	0	-0.000146678	0.0212442	0.00542811	0.0219267	14.333	4.01319e+07	1.57066e+08	1.62112e+08	-75.667	0.0000000E+000	0.0000000E+000	0.0000000E+000	75.667	0.0000000E+000	0.0000000E+000	0.0000000E+000	-75.667	0.0000000E+000	0.0000000E+000	0.0000000E+000	-14.333	0.0000000E+000	0.0000000E+000	0.0000000E+000	14.333	3.91375	75.667	6.55874e-05	-3.50688e-07	100771
0.0146812	45.9848	14.5768	48.2398	-17.5882	464.265	0.187983	-0.0011426	743701	67906.2	1	12	0.00482946	0.000100114	0	-7.94678e-07	0.0197607	0.00626397	0.0207298	17.5882	6.79062e+07	2.14221e+08	2.24726e+08	-72.4118	0.0000000E+000	0.0000000E+000	0.0000000E+000	72.4118	0.0000000E+000	0.0000000E+000	0.0000000E+000	-72.4118	0.0000000E+000	0.0000000E+000	0.0000000E+000	-17.5882	0.0000000E+000	0.0000000E+000	0.0000000E+000	17.5882	3.15466	72.4118	0.000145883	-2.14789e-07	164523
0.0100092	48.7573	19.2268	52.4113	-21.5212	674.284	0.187994	-0.000577574	827017	111296	1	12	0.00483155	9.21853e-05	0	0.000144568	0.0177496	0.00699935	0.0190799	21.5212	1.11296e+08	2.82236e+08	3.03387e+08	-68.4788	0.0000000E+000	0.0000000E+000	0.0000000E+000	68.4788	0.0000000E+000	0.0000000E+000	0.0000000E+000	-68.4788	0.0000000E+000	0.0000000E+000	0.0000000E+000	-21.5212	0.0000000E+000	0.0000000E+000	0.0000000E+000	21.5212	2.5359	68.4788	0.000145363	-1.0858e-07	325488