File: txt/17388_R279_UA649_SOC00_C06.mpt
EC-Lab ASCII FILE
Nb header lines : 63

Potentio Electrochemical Impedance Spectroscopy

Run on channel : 6 (SN 65795)
User :
CE vs. WE compliance from -10 V to 10 V
Electrode connection : standard
Potential control : Ewe
Ewe ctrl range : min = -10.00 V, max = 10.00 V
Safety Limits :
	Do not start on E overload
Acquisition started on : 09/10/2025 16:54:22.513
Loaded Setting File :  C:\Users\Celltest\OneDrive - store-dot.com\Documents\EC-Lab\Data\Charmaine\R279\17383.mps
Saved on :
	File : 17388_C06.mpr
	Directory : C:\Users\Celltest\OneDrive - store-dot.com\Documents\EC-Lab\Data\Charmaine\R279\
	Host : 169.254.61.224
Device : VMP-3e (SN .003165)
Address : USB
EC-LAB for windows v11.62 (software)
Internet server v27.00 (firmware)
Command interpretor v12.03 (firmware)
Electrode material :
Initial state :
Electrolyte :
Comments :
Electrode surface area : 0.001 cm²
Characteristic mass : 0.001 g
Equivalent Weight : 0.000 g/eq.
Density : 0.000 g/cm3
Volume (V) : 0.001 cm³
Cycle Definition : Charge/Discharge alternance
Mode                Single sine
E (V)               0.0000
vs.                 Eoc
tE (h:m:s)          0:00:0.0000
record              0
dI                  0.000
unit dI             mA
dt (s)              0.000
fi                  100.000
unit fi             kHz
ff                  10.000
unit ff             mHz
Nd                  6
Points              per decade
spacing             Logarithmic
Va (mV)             5.0
pw                  0.10
Na                  2
corr                0
E range min (V)     -10.000
E range max (V)     10.000
I Range             Auto
Bandwidth           5
nc cycles           0
goto Ns'            0
nr cycles           0
inc. cycle          0

freq/Hz	Re(Z)/Ohm	-Im(Z)/Ohm	|Z|/Ohm	Phase(Z)/deg	time/s	<Ewe>/V	<I>/mA	Cs/µF	Cp/µF	cycle number	I Range	|Ewe|/V	|I|/A	Ns	(Q-Qo)/mA.h	Re(Y)/Ohm-1	Im(Y)/Ohm-1	|Y|/Ohm-1	Phase(Y)/deg	Re(C)/nF	Im(C)/nF	|C|/nF	Phase(C)/deg	Re(M)	Im(M)	|M|	Phase(M)/deg	Re(Permittivity)	Im(Permittivity)	|Permittivity|	Phase(Permittivity)/deg	Re(Resistivity)/Ohm.cm	Im(Resistivity)/Ohm.cm	|Resistivity|/Ohm.cm	Phase(Resistivity)/deg	Re(Conductivity)/mS/cm	Im(Conductivity)/mS/cm	|Conductivity|/mS/cm	Phase(Conductivity)/deg	Tan(Delta)	Loss Angle(Delta)/deg	dq/mA.h	Pwe/W	Rwe/Ohm
100004	1.68318	0.432218	1.73779	-14.4017	2.06748	0.265765	0.017184	3.68214	0.227779	1	9	0.00461027	0.00265296	0	-2.9565e-06	0.557362	0.143123	0.575445	14.4017	227.779	887.036	915.815	-75.5984	0.0000000E+000	0.0000000E+000	0.0000000E+000	75.5984	0.0000000E+000	0.0000000E+000	0.0000000E+000	-75.5984	0.0000000E+000	0.0000000E+000	0.0000000E+000	-14.4017	0.0000000E+000	0.0000000E+000	0.0000000E+000	14.4017	3.89428	75.5984	-2.9565e-06	4.56692e-06	15465.8
68132	1.79162	0.457622	1.84914	-14.3283	2.64548	0.265768	0.0143903	5.10461	0.312633	1	9	0.00504435	0.00272794	0	1.8692e-06	0.52397	0.133834	0.540792	14.3283	312.633	1223.98	1263.28	-75.6717	0.0000000E+000	0.0000000E+000	0.0000000E+000	75.6717	0.0000000E+000	0.0000000E+000	0.0000000E+000	-75.6717	0.0000000E+000	0.0000000E+000	0.0000000E+000	-14.3283	0.0000000E+000	0.0000000E+000	0.0000000E+000	14.3283	3.91507	75.6717	4.82571e-06	3.82447e-06	18468.6
46420.4	1.90249	0.482555	1.96273	-14.2326	3.08248	0.265768	0.0199405	7.10501	0.429474	1	9	0.00545515	0.00277937	0	7.76793e-06	0.493855	0.125264	0.509494	14.2326	429.474	1693.21	1746.83	-75.7674	0.0000000E+000	0.0000000E+000	0.0000000E+000	75.7674	0.0000000E+000	0.0000000E+000	0.0000000E+000	-75.7674	0.0000000E+000	0.0000000E+000	0.0000000E+000	-14.2326	0.0000000E+000	0.0000000E+000	0.0000000E+000	14.2326	3.94253	75.7674	5.89873e-06	5.29956e-06	13328.1
31621.1	2.02413	0.513618	2.08828	-14.2382	3.51949	0.265768	0.0169605	9.79946	0.592799	1	9	0.00544741	0.00260857	0	8.995e-06	0.464154	0.117778	0.478864	14.2382	592.799	2336.17	2410.21	-75.7618	0.0000000E+000	0.0000000E+000	0.0000000E+000	75.7618	0.0000000E+000	0.0000000E+000	0.0000000E+000	-75.7618	0.0000000E+000	0.0000000E+000	0.0000000E+000	-14.2382	0.0000000E+000	0.0000000E+000	0.0000000E+000	14.2382	3.94092	75.7618	1.22707e-06	4.50756e-06	15669.8
21544.7	2.14611	0.546024	2.21448	-14.2746	3.95648	0.265769	0.0177986	13.5291	0.822525	1	9	0.0053133	0.00239935	0	1.18487e-05	0.437631	0.111345	0.451574	14.2746	822.525	3232.87	3335.87	-75.7253	0.0000000E+000	0.0000000E+000	0.0000000E+000	75.7253	0.0000000E+000	0.0000000E+000	0.0000000E+000	-75.7253	0.0000000E+000	0.0000000E+000	0.0000000E+000	-14.2746	0.0000000E+000	0.0000000E+000	0.0000000E+000	14.2746	3.93042	75.7253	2.85368e-06	4.73032e-06	14932
14678.6	2.26987	0.578662	2.34247	-14.3019	4.3935	0.26577	0.0167929	18.7375	1.14344	1	9	0.00514413	0.00219603	0	1.13004e-05	0.413669	0.105457	0.426899	14.3019	1143.44	4485.27	4628.72	-75.6981	0.0000000E+000	0.0000000E+000	0.0000000E+000	75.6981	0.0000000E+000	0.0000000E+000	0.0000000E+000	-75.6981	0.0000000E+000	0.0000000E+000	0.0000000E+000	-14.3019	0.0000000E+000	0.0000000E+000	0.0000000E+000	14.3019	3.92262	75.6981	-5.4826e-07	4.46305e-06	15826.4
10002.2	2.40489	0.629847	2.486	-14.6763	4.83047	0.265768	0.0150049	25.2632	1.62165	1	9	0.00497431	0.00200093	0	1.30245e-05	0.389129	0.101914	0.402253	14.6763	1621.65	6191.8	6400.63	-75.3237	0.0000000E+000	0.0000000E+000	0.0000000E+000	75.3237	0.0000000E+000	0.0000000E+000	0.0000000E+000	-75.3237	0.0000000E+000	0.0000000E+000	0.0000000E+000	-14.6763	0.0000000E+000	0.0000000E+000	0.0000000E+000	14.6763	3.81821	75.3237	1.72411e-06	3.98782e-06	17712.1
6811.07	2.54251	0.681959	2.63238	-15.0146	5.20851	0.265705	-0.00419747	34.2647	2.29967	1	9	0.00509633	0.00193602	0	1.46228e-05	0.366915	0.0984149	0.379884	15.0146	2299.67	8573.74	8876.8	-74.9854	0.0000000E+000	0.0000000E+000	0.0000000E+000	74.9854	0.0000000E+000	0.0000000E+000	0.0000000E+000	-74.9854	0.0000000E+000	0.0000000E+000	0.0000000E+000	-15.0146	0.0000000E+000	0.0000000E+000	0.0000000E+000	15.0146	3.72824	74.9854	1.59823e-06	-1.11529e-06	63301.2
4641.49	2.68767	0.746341	2.78937	-15.5195	5.67967	0.265782	0.0417503	45.9437	3.28918	1	9	0.00510204	0.0018291	0	2.11408e-05	0.345433	0.0959235	0.358504	15.5195	3289.18	11844.8	12293	-74.4805	0.0000000E+000	0.0000000E+000	0.0000000E+000	74.4805	0.0000000E+000	0.0000000E+000	0.0000000E+000	-74.4805	0.0000000E+000	0.0000000E+000	0.0000000E+000	-15.5195	0.0000000E+000	0.0000000E+000	0.0000000E+000	15.5195	3.60113	74.4805	6.51801e-06	1.10965e-05	6365.98
3161.01	2.84655	0.839215	2.96768	-16.4265	6.14671	0.265791	0.046686	59.9958	4.79771	1	9	0.00507013	0.00170845	0	2.66509e-05	0.32321	0.0952884	0.336964	16.4265	4797.71	16273.4	16965.9	-73.5735	0.0000000E+000	0.0000000E+000	0.0000000E+000	73.5735	0.0000000E+000	0.0000000E+000	0.0000000E+000	-73.5735	0.0000000E+000	0.0000000E+000	0.0000000E+000	-16.4265	0.0000000E+000	0.0000000E+000	0.0000000E+000	16.4265	3.39192	73.5735	5.5101e-06	1.24087e-05	5693.17
2155.69	3.01449	0.95376	3.16178	-17.5569	6.61371	0.26579	0.0480828	77.4096	7.04386	1	9	0.00505601	0.00159911	0	3.35408e-05	0.301545	0.0954063	0.316278	17.5569	7043.86	22263.1	23350.9	-72.4431	0.0000000E+000	0.0000000E+000	0.0000000E+000	72.4431	0.0000000E+000	0.0000000E+000	0.0000000E+000	-72.4431	0.0000000E+000	0.0000000E+000	0.0000000E+000	-17.5569	0.0000000E+000	0.0000000E+000	0.0000000E+000	17.5569	3.16064	72.4431	6.88991e-06	1.27799e-05	5527.75
1468.59	3.20426	1.12988	3.39763	-19.4236	7.08095	0.265789	0.0453822	95.9148	10.6072	1	9	0.0050111	0.00147488	0	3.91436e-05	0.277571	0.097877	0.294322	19.4236	10607.2	30081.1	31896.5	-70.5764	0.0000000E+000	0.0000000E+000	0.0000000E+000	70.5764	0.0000000E+000	0.0000000E+000	0.0000000E+000	-70.5764	0.0000000E+000	0.0000000E+000	0.0000000E+000	-19.4236	0.0000000E+000	0.0000000E+000	0.0000000E+000	19.4236	2.83592	70.5764	5.60286e-06	1.20621e-05	5856.69
1000.32	3.42949	1.35952	3.68914	-21.6244	7.80367	0.265778	-0.00799412	117.029	15.8935	1	10	0.00505502	0.00137024	0	3.96585e-05	0.251988	0.0998936	0.271066	21.6244	15893.5	40092.4	43127.7	-68.3756	0.0000000E+000	0.0000000E+000	0.0000000E+000	68.3756	0.0000000E+000	0.0000000E+000	0.0000000E+000	-68.3756	0.0000000E+000	0.0000000E+000	0.0000000E+000	-21.6244	0.0000000E+000	0.0000000E+000	0.0000000E+000	21.6244	2.52257	68.3756	5.14912e-07	-2.12466e-06	33246.7
681.09	3.70803	1.64898	4.05815	-23.975	8.26946	0.265779	-0.00844131	141.71	23.3978	1	10	0.00502452	0.00123813	0	3.77486e-05	0.225157	0.100129	0.246418	23.975	23397.8	52614.1	57582.1	-66.025	0.0000000E+000	0.0000000E+000	0.0000000E+000	66.025	0.0000000E+000	0.0000000E+000	0.0000000E+000	-66.025	0.0000000E+000	0.0000000E+000	0.0000000E+000	-23.975	0.0000000E+000	0.0000000E+000	0.0000000E+000	23.975	2.24868	66.025	-1.90993e-06	-2.24352e-06	31485.5
463.961	4.05953	2.02461	4.53639	-26.5068	8.73821	0.265776	-0.00780593	169.433	33.7489	1	10	0.00499326	0.00110071	0	3.72899e-05	0.197267	0.0983833	0.22044	26.5068	33748.9	67669.6	75618.6	-63.4931	0.0000000E+000	0.0000000E+000	0.0000000E+000	63.4931	0.0000000E+000	0.0000000E+000	0.0000000E+000	-63.4931	0.0000000E+000	0.0000000E+000	0.0000000E+000	-26.5068	0.0000000E+000	0.0000000E+000	0.0000000E+000	26.5068	2.00509	63.4931	-4.58754e-07	-2.07463e-06	34048
316.316	4.52625	2.47127	5.15695	-28.634	9.20492	0.265782	-0.00783948	203.6	46.7557	1	10	0.00497203	0.000964143	0	3.63523e-05	0.170197	0.0929256	0.193913	28.634	46755.7	85635.2	97567.8	-61.366	0.0000000E+000	0.0000000E+000	0.0000000E+000	61.366	0.0000000E+000	0.0000000E+000	0.0000000E+000	-61.366	0.0000000E+000	0.0000000E+000	0.0000000E+000	-28.634	0.0000000E+000	0.0000000E+000	0.0000000E+000	28.634	1.83155	61.366	-9.37562e-07	-2.08359e-06	33903
215.345	5.14479	2.98373	5.9474	-30.1116	9.67245	0.265771	-0.00816183	247.7	62.3436	1	10	0.00495346	0.000832879	0	3.47157e-05	0.14545	0.084354	0.168141	30.1116	62343.6	107498	124268	-59.8884	0.0000000E+000	0.0000000E+000	0.0000000E+000	59.8884	0.0000000E+000	0.0000000E+000	0.0000000E+000	-59.8884	0.0000000E+000	0.0000000E+000	0.0000000E+000	-30.1116	0.0000000E+000	0.0000000E+000	0.0000000E+000	30.1116	1.72428	59.8884	-1.63663e-06	-2.16918e-06	32562.7
146.737	5.96232	3.52554	6.92666	-30.596	10.1354	0.265775	-0.00811712	307.648	79.6997	1	10	0.0049438	0.000713735	0	3.38647e-05	0.12427	0.0734814	0.14437	30.596	79699.8	134786	156587	-59.404	0.0000000E+000	0.0000000E+000	0.0000000E+000	59.404	0.0000000E+000	0.0000000E+000	0.0000000E+000	-59.404	0.0000000E+000	0.0000000E+000	0.0000000E+000	-30.596	0.0000000E+000	0.0000000E+000	0.0000000E+000	30.596	1.69118	59.404	-8.50932e-07	-2.15733e-06	32742.5
100.032	6.9908	4.05117	8.0798	-30.0923	10.6037	0.265781	-0.00802209	392.736	98.7325	1	10	0.00493906	0.000611285	0	3.31996e-05	0.107084	0.0620553	0.123765	30.0923	98732.5	170375	196916	-59.9077	0.0000000E+000	0.0000000E+000	0.0000000E+000	59.9077	0.0000000E+000	0.0000000E+000	0.0000000E+000	-59.9077	0.0000000E+000	0.0000000E+000	0.0000000E+000	-30.0923	0.0000000E+000	0.0000000E+000	0.0000000E+000	30.0923	1.72562	59.9077	-6.651e-07	-2.13212e-06	33131.1
68.104	8.26089	4.43902	9.37802	-28.2516	11.0823	0.265783	-0.00682028	526.454	117.954	1	10	0.00493054	0.000525755	0	3.25745e-05	0.0939301	0.0504737	0.106632	28.2516	117954	219509	249193	-61.7484	0.0000000E+000	0.0000000E+000	0.0000000E+000	61.7484	0.0000000E+000	0.0000000E+000	0.0000000E+000	-61.7484	0.0000000E+000	0.0000000E+000	0.0000000E+000	-28.2516	0.0000000E+000	0.0000000E+000	0.0000000E+000	28.2516	1.86097	61.7484	-6.25091e-07	-1.81271e-06	38969.5
46.4415	9.69653	4.59371	10.7296	-25.3491	11.5375	0.265774	-0.00909534	746.019	136.744	1	10	0.00493396	0.000459845	0	3.13563e-05	0.0842262	0.039902	0.0931999	25.3491	136744	288643	319396	-64.6509	0.0000000E+000	0.0000000E+000	0.0000000E+000	64.6509	0.0000000E+000	0.0000000E+000	0.0000000E+000	-64.6509	0.0000000E+000	0.0000000E+000	0.0000000E+000	-25.3491	0.0000000E+000	0.0000000E+000	0.0000000E+000	25.3491	2.11083	64.6509	-1.21824e-06	-2.41731e-06	29220.9
31.6296	11.1123	4.40569	11.9538	-21.6268	11.9834	0.265772	-0.0109717	1142.12	155.141	1	10	0.00492774	0.000412231	0	2.99783e-05	0.0777663	0.0308319	0.0836552	21.6268	155141	391308	420940	-68.3732	0.0000000E+000	0.0000000E+000	0.0000000E+000	68.3732	0.0000000E+000	0.0000000E+000	0.0000000E+000	-68.3732	0.0000000E+000	0.0000000E+000	0.0000000E+000	-21.6268	0.0000000E+000	0.0000000E+000	0.0000000E+000	21.6268	2.52227	68.3732	-1.37798e-06	-2.91596e-06	24223.5
21.5517	12.3682	3.97183	12.9903	-17.8035	12.4223	0.265762	-0.0126654	1859.29	173.817	1	10	0.00493232	0.000379693	0	2.76923e-05	0.0732941	0.0235371	0.0769806	17.8035	173817	541261	568486	-72.1965	0.0000000E+000	0.0000000E+000	0.0000000E+000	72.1965	0.0000000E+000	0.0000000E+000	0.0000000E+000	-72.1965	0.0000000E+000	0.0000000E+000	0.0000000E+000	-17.8035	0.0000000E+000	0.0000000E+000	0.0000000E+000	17.8035	3.11398	72.1965	-2.28601e-06	-3.36598e-06	20983.3
14.6852	13.3859	3.38811	13.808	-14.2038	13.16	0.265802	-0.00766944	3198.78	192.591	1	11	0.00492471	0.000356656	0	2.98171e-05	0.0702077	0.0177703	0.0724217	14.2038	192591	760897	784892	-75.7962	0.0000000E+000	0.0000000E+000	0.0000000E+000	75.7962	0.0000000E+000	0.0000000E+000	0.0000000E+000	-75.7962	0.0000000E+000	0.0000000E+000	0.0000000E+000	-14.2038	0.0000000E+000	0.0000000E+000	0.0000000E+000	14.2038	3.95085	75.7962	2.12482e-06	-2.03855e-06	34657.2
10.0032	14.0896	2.87022	14.379	-11.5143	13.6287	0.265804	-0.00780188	5543.27	220.872	1	11	0.00493004	0.000342865	0	2.99135e-05	0.0681464	0.0138822	0.069546	11.5143	220872	1.08424e+06	1.1065e+06	-78.4857	0.0000000E+000	0.0000000E+000	0.0000000E+000	78.4857	0.0000000E+000	0.0000000E+000	0.0000000E+000	-78.4857	0.0000000E+000	0.0000000E+000	0.0000000E+000	-11.5143	0.0000000E+000	0.0000000E+000	0.0000000E+000	11.5143	4.90889	78.4857	9.63957e-08	-2.07377e-06	34069.2
6.81719	14.5959	2.44686	14.7996	-9.51662	13.9864	0.265775	-0.00867577	9541.24	260.812	1	11	0.00492508	0.000332786	0	2.58721e-05	0.0666397	0.0111715	0.0675696	9.51662	260812	1.55578e+06	1.57749e+06	-80.4834	0.0000000E+000	0.0000000E+000	0.0000000E+000	80.4834	0.0000000E+000	0.0000000E+000	0.0000000E+000	-80.4834	0.0000000E+000	0.0000000E+000	0.0000000E+000	-9.51662	0.0000000E+000	0.0000000E+000	0.0000000E+000	9.51662	5.96514	80.4834	-4.04146e-06	-2.3058e-06	30634.1
4.63925	15.0136	2.20366	15.1744	-8.35014	14.4883	0.265795	-0.00841389	15567.8	328.316	1	11	0.00493642	0.000325311	0	2.63658e-05	0.0652017	0.00957018	0.0659003	8.35014	328316	2.23682e+06	2.26079e+06	-81.6499	0.0000000E+000	0.0000000E+000	0.0000000E+000	81.6499	0.0000000E+000	0.0000000E+000	0.0000000E+000	-81.6499	0.0000000E+000	0.0000000E+000	0.0000000E+000	-8.35014	0.0000000E+000	0.0000000E+000	0.0000000E+000	8.35014	6.81301	81.6499	4.93757e-07	-2.23637e-06	31590.1
3.1604	15.3338	2.06308	15.472	-7.66279	15.1983	0.26579	-0.00762132	24409.7	434.011	1	11	0.00493252	0.000318803	0	2.94484e-05	0.0640557	0.00861831	0.0646328	7.66279	434011	3.22579e+06	3.25486e+06	-82.3372	0.0000000E+000	0.0000000E+000	0.0000000E+000	82.3372	0.0000000E+000	0.0000000E+000	0.0000000E+000	-82.3372	0.0000000E+000	0.0000000E+000	0.0000000E+000	-7.66279	0.0000000E+000	0.0000000E+000	0.0000000E+000	7.66279	7.43251	82.3372	3.08256e-06	-2.02567e-06	34874.5
2.15577	15.7108	2.10355	15.851	-7.62606	16.2147	0.265805	-0.00553577	35096.7	618.096	1	11	0.00493069	0.000311065	0	2.53111e-05	0.0625295	0.00837216	0.0630874	7.62606	618096	4.61639e+06	4.65759e+06	-82.3739	0.0000000E+000	0.0000000E+000	0.0000000E+000	82.3739	0.0000000E+000	0.0000000E+000	0.0000000E+000	-82.3739	0.0000000E+000	0.0000000E+000	0.0000000E+000	-7.62606	0.0000000E+000	0.0000000E+000	0.0000000E+000	7.62606	7.46873	82.3739	-4.1373e-06	-1.47143e-06	48015.9
1.46631	16.0929	2.2253	16.2461	-7.87282	17.688	0.265807	-0.0054949	48776	915.138	1	11	0.00493424	0.00030372	0	1.48789e-05	0.0609733	0.00843126	0.0615534	7.87282	915138	6.61811e+06	6.68108e+06	-82.1272	0.0000000E+000	0.0000000E+000	0.0000000E+000	82.1272	0.0000000E+000	0.0000000E+000	0.0000000E+000	-82.1272	0.0000000E+000	0.0000000E+000	0.0000000E+000	-7.87282	0.0000000E+000	0.0000000E+000	0.0000000E+000	7.87282	7.23181	82.1272	-1.04322e-05	-1.46058e-06	48373.5
1.00006	16.6178	2.44653	16.7969	-8.37513	20.8782	0.265804	-0.00562643	65049.2	1380.02	1	12	0.00493535	0.000293825	0	3.92178e-06	0.0588999	0.00867146	0.0595348	8.37513	1.38002e+06	9.37361e+06	9.47465e+06	-81.6249	0.0000000E+000	0.0000000E+000	0.0000000E+000	81.6249	0.0000000E+000	0.0000000E+000	0.0000000E+000	-81.6249	0.0000000E+000	0.0000000E+000	0.0000000E+000	-8.37513	0.0000000E+000	0.0000000E+000	0.0000000E+000	8.37513	6.79239	81.6249	-1.09571e-05	-1.49553e-06	47242
0.681362	17.2512	2.73983	17.4674	-9.02433	24.0004	0.265801	-0.00605192	85254.8	2097.53	1	12	0.00493636	0.000282604	0	4.77916e-06	0.0565409	0.00897981	0.0572495	9.02433	2.09754e+06	1.3207e+07	1.33725e+07	-80.9757	0.0000000E+000	0.0000000E+000	0.0000000E+000	80.9757	0.0000000E+000	0.0000000E+000	0.0000000E+000	-80.9757	0.0000000E+000	0.0000000E+000	0.0000000E+000	-9.02433	0.0000000E+000	0.0000000E+000	0.0000000E+000	9.02433	6.29645	80.9757	8.57383e-07	-1.60861e-06	43920.2
0.464091	17.9473	2.96775	18.1911	-9.3894	28.5626	0.26581	-0.00548161	115555	3075.6	1	12	0.00493611	0.000271348	0	1.57869e-05	0.0542356	0.00896834	0.0549721	9.3894	3.0756e+06	1.85995e+07	1.88521e+07	-80.6106	0.0000000E+000	0.0000000E+000	0.0000000E+000	80.6106	0.0000000E+000	0.0000000E+000	0.0000000E+000	-80.6106	0.0000000E+000	0.0000000E+000	0.0000000E+000	-9.3894	0.0000000E+000	0.0000000E+000	0.0000000E+000	9.3894	6.04745	80.6106	1.10077e-05	-1.45707e-06	48491.2
0.316193	18.8122	3.14648	19.0735	-9.49528	35.2441	0.265804	-0.00482121	159971	4353.44	1	12	0.00493418	0.000258693	0	2.87796e-05	0.0517105	0.00864899	0.0524288	9.49528	4.35344e+06	2.60283e+07	2.63899e+07	-80.5047	0.0000000E+000	0.0000000E+000	0.0000000E+000	80.5047	0.0000000E+000	0.0000000E+000	0.0000000E+000	-80.5047	0.0000000E+000	0.0000000E+000	0.0000000E+000	-9.49528	0.0000000E+000	0.0000000E+000	0.0000000E+000	9.49528	5.97879	80.5047	1.29927e-05	-1.2815e-06	55132.2
0.215268	19.7228	3.26328	19.991	-9.39485	45.0419	0.265809	-0.00297305	226562	6037.07	1	12	0.00493242	0.000246732	0	3.20731e-05	0.0493516	0.00816554	0.0500225	9.39485	6.03707e+06	3.64873e+07	3.69834e+07	-80.6051	0.0000000E+000	0.0000000E+000	0.0000000E+000	80.6051	0.0000000E+000	0.0000000E+000	0.0000000E+000	-80.6051	0.0000000E+000	0.0000000E+000	0.0000000E+000	-9.39485	0.0000000E+000	0.0000000E+000	0.0000000E+000	9.39485	6.04388	80.6051	3.2935e-06	-7.90264e-07	89406.1
0.146929	20.5491	3.32102	20.8157	-9.18043	59.3792	0.265806	-0.00151494	326168	8302.38	1	12	0.00493662	0.000237159	0	1.04151e-05	0.0474253	0.0076646	0.0480407	9.18043	8.30238e+06	5.13716e+07	5.20382e+07	-80.8196	0.0000000E+000	0.0000000E+000	0.0000000E+000	80.8196	0.0000000E+000	0.0000000E+000	0.0000000E+000	-80.8196	0.0000000E+000	0.0000000E+000	0.0000000E+000	-9.18043	0.0000000E+000	0.0000000E+000	0.0000000E+000	9.18043	6.18758	80.8196	-2.1658e-05	-4.0268e-07	175456
0.0999041	21.2525	3.37407	21.5187	-9.02104	80.4491	0.265802	-0.000535379	472154	11608.1	1	12	0.00493399	0.000229289	0	-4.76444e-05	0.0458965	0.00728657	0.0464713	9.02104	1.16081e+07	7.31167e+07	7.40324e+07	-80.979	0.0000000E+000	0.0000000E+000	0.0000000E+000	80.979	0.0000000E+000	0.0000000E+000	0.0000000E+000	-80.979	0.0000000E+000	0.0000000E+000	0.0000000E+000	-9.02104	0.0000000E+000	0.0000000E+000	0.0000000E+000	9.02104	6.29878	80.979	-5.80595e-05	-1.42305e-07	496474
0.0680626	21.8604	3.57231	22.1504	-9.28093	111.361	0.265811	1.78578e-06	654579	17025.4	1	12	0.00493113	0.000222621	0	-0.000136539	0.044555	0.00728093	0.045146	9.28093	1.70254e+07	1.04186e+08	1.05568e+08	-80.7191	0.0000000E+000	0.0000000E+000	0.0000000E+000	80.7191	0.0000000E+000	0.0000000E+000	0.0000000E+000	-80.7191	0.0000000E+000	0.0000000E+000	0.0000000E+000	-9.28093	0.0000000E+000	0.0000000E+000	0.0000000E+000	9.28093	6.1194	80.7191	-8.8895e-05	4.74682e-10	1.48849e+08
0.0464052	22.4863	4.01659	22.8422	-10.1276	156.685	0.265811	-0.00148572	853878	26401.8	1	12	0.00493644	0.00021611	0	-0.000260379	0.0430964	0.00769805	0.0437786	10.1276	2.64018e+07	1.47807e+08	1.50146e+08	-79.8724	0.0000000E+000	0.0000000E+000	0.0000000E+000	79.8724	0.0000000E+000	0.0000000E+000	0.0000000E+000	-79.8724	0.0000000E+000	0.0000000E+000	0.0000000E+000	-10.1276	0.0000000E+000	0.0000000E+000	0.0000000E+000	10.1276	5.59836	79.8724	-0.00012384	-3.94922e-07	178910
0.0315922	23.1652	4.95678	23.6896	-12.0777	223.246	0.265805	-0.00259496	1.01634e+06	44496.3	1	12	0.00493482	0.000208312	0	-0.000358211	0.0412782	0.00883251	0.0422126	12.0777	4.44963e+07	2.07951e+08	2.12658e+08	-77.9223	0.0000000E+000	0.0000000E+000	0.0000000E+000	77.9223	0.0000000E+000	0.0000000E+000	0.0000000E+000	-77.9223	0.0000000E+000	0.0000000E+000	0.0000000E+000	-12.0777	0.0000000E+000	0.0000000E+000	0.0000000E+000	12.0777	4.67344	77.9223	-9.78312e-05	-6.89752e-07	102431
0.0215268	23.8006	6.43163	24.6543	-15.1218	320.915	0.265801	-0.00248587	1.14953e+06	78230.4	1	12	0.00493376	0.000200117	0	-0.00032624	0.0391564	0.0105812	0.0405608	15.1218	7.82305e+07	2.89496e+08	2.9988e+08	-74.8782	0.0000000E+000	0.0000000E+000	0.0000000E+000	74.8782	0.0000000E+000	0.0000000E+000	0.0000000E+000	-74.8782	0.0000000E+000	0.0000000E+000	0.0000000E+000	-15.1218	0.0000000E+000	0.0000000E+000	0.0000000E+000	15.1218	3.70056	74.8782	3.19708e-05	-6.60747e-07	106925
0.0146812	24.5369	8.30967	25.9058	-18.7092	464.111	0.2658	-0.00149065	1.30459e+06	134230	1	12	0.00493166	0.000190369	0	-6.38961e-05	0.0365617	0.012382	0.0386014	18.7092	1.3423e+08	3.96356e+08	4.18468e+08	-71.2908	0.0000000E+000	0.0000000E+000	0.0000000E+000	71.2908	0.0000000E+000	0.0000000E+000	0.0000000E+000	-71.2908	0.0000000E+000	0.0000000E+000	0.0000000E+000	-18.7092	0.0000000E+000	0.0000000E+000	0.0000000E+000	18.7092	2.95281	71.2908	0.000262344	-3.96214e-07	178311
0.0100092	25.76	10.831	27.9443	-22.8047	674.132	0.265797	-0.000497055	1.4681e+06	220548	1	12	0.00493309	0.000176533	0	0.00039868	0.0329881	0.0138701	0.0357854	22.8047	2.20548e+08	5.24541e+08	5.69021e+08	-67.1953	0.0000000E+000	0.0000000E+000	0.0000000E+000	67.1953	0.0000000E+000	0.0000000E+000	0.0000000E+000	-67.1953	0.0000000E+000	0.0000000E+000	0.0000000E+000	-22.8047	0.0000000E+000	0.0000000E+000	0.0000000E+000	22.8047	2.37836	67.1953	0.000462576	-1.32116e-07	534743