File: txt/17389_C07.mpt
EC-Lab ASCII FILE
Nb header lines : 64

Potentio Electrochemical Impedance Spectroscopy

Run on channel : 7 (SN 66126)
User :
CE vs. WE compliance from -10 V to 10 V
Electrode connection : standard
Potential control : Ewe
Ewe ctrl range : min = -10.00 V, max = 10.00 V
Safety Limits :
	Do not start on E overload
Acquisition started on : 09/10/2025 16:54:36.419
Technique started on : 09/10/2025 16:54:38.487
Loaded Setting File :  C:\Users\Celltest\OneDrive - store-dot.com\Documents\EC-Lab\Data\Charmaine\R279\17382_C01.mpr
Saved on :
	File : 17389_C07.mpr
	Directory : C:\Users\Celltest\OneDrive - store-dot.com\Documents\EC-Lab\Data\Charmaine\R279\
	Host : 169.254.61.224
Device : VMP-3e (SN .003165)
Address : USB
EC-LAB for windows v11.62 (software)
Internet server v27.00 (firmware)
Command interpretor v12.03 (firmware)
Electrode material :
Initial state :
Electrolyte :
Comments :
Electrode surface area : 0.001 cm²
Characteristic mass : 0.001 g
Equivalent Weight : 0.000 g/eq.
Density : 0.000 g/cm3
Volume (V) : 0.001 cm³
Cycle Definition : Charge/Discharge alternance
Mode                Single sine
E (V)               0.0000
vs.                 Eoc
tE (h:m:s)          0:00:0.0000
record              0
dI                  0.000
unit dI             mA
dt (s)              0.000
fi                  100.000
unit fi             kHz
ff                  10.000
unit ff             mHz
Nd                  6
Points              per decade
spacing             Logarithmic
Va (mV)             5.0
pw                  0.10
Na                  2
corr                0
E range min (V)     -10.000
E range max (V)     10.000
I Range             Auto
Bandwidth           5
nc cycles           0
goto Ns'            0
nr cycles           0
inc. cycle          0

freq/Hz	Re(Z)/Ohm	-Im(Z)/Ohm	|Z|/Ohm	Phase(Z)/deg	time/s	<Ewe>/V	<I>/mA	Cs/µF	Cp/µF	cycle number	I Range	|Ewe|/V	|I|/A	Ns	(Q-Qo)/mA.h	Re(Y)/Ohm-1	Im(Y)/Ohm-1	|Y|/Ohm-1	Phase(Y)/deg	Re(C)/nF	Im(C)/nF	|C|/nF	Phase(C)/deg	Re(M)	Im(M)	|M|	Phase(M)/deg	Re(Permittivity)	Im(Permittivity)	|Permittivity|	Phase(Permittivity)/deg	Re(Resistivity)/Ohm.cm	Im(Resistivity)/Ohm.cm	|Resistivity|/Ohm.cm	Phase(Resistivity)/deg	Re(Conductivity)/mS/cm	Im(Conductivity)/mS/cm	|Conductivity|/mS/cm	Phase(Conductivity)/deg	Tan(Delta)	Loss Angle(Delta)/deg	dq/mA.h	Pwe/W	Rwe/Ohm
100004	1.49217	0.411118	1.54777	-15.4037	2.0685	0.243196	0.0439645	3.87113	0.273122	1	9	0.00464187	0.00299906	0	-1.14078e-06	0.622881	0.171614	0.64609	15.4037	273.122	991.309	1028.25	-74.5963	0.0000000E+000	0.0000000E+000	0.0000000E+000	74.5963	0.0000000E+000	0.0000000E+000	0.0000000E+000	-74.5963	0.0000000E+000	0.0000000E+000	0.0000000E+000	-15.4037	0.0000000E+000	0.0000000E+000	0.0000000E+000	15.4037	3.62955	74.5963	-1.14078e-06	1.0692e-05	5531.64
68132	1.59723	0.429251	1.65391	-15.0426	2.64748	0.24322	0.0482094	5.44198	0.366571	1	9	0.00504593	0.00305091	0	3.16129e-06	0.58391	0.156924	0.604629	15.0426	366.571	1364	1412.4	-74.9574	0.0000000E+000	0.0000000E+000	0.0000000E+000	74.9574	0.0000000E+000	0.0000000E+000	0.0000000E+000	-74.9574	0.0000000E+000	0.0000000E+000	0.0000000E+000	-15.0426	0.0000000E+000	0.0000000E+000	0.0000000E+000	15.0426	3.72097	74.9574	4.30207e-06	1.17255e-05	5045.07
46420.4	1.7063	0.446467	1.76375	-14.6631	3.22648	0.243216	0.047595	7.67931	0.492073	1	9	0.00506884	0.0028739	0	2.33895e-06	0.548509	0.143522	0.566975	14.6631	492.072	1880.6	1943.91	-75.3369	0.0000000E+000	0.0000000E+000	0.0000000E+000	75.3369	0.0000000E+000	0.0000000E+000	0.0000000E+000	-75.3369	0.0000000E+000	0.0000000E+000	0.0000000E+000	-14.6631	0.0000000E+000	0.0000000E+000	0.0000000E+000	14.6631	3.82179	75.3369	-8.22348e-07	1.15758e-05	5110.1
31621.1	1.81348	0.476853	1.87512	-14.7324	3.8045	0.243218	0.0431267	10.555	0.682602	1	9	0.00503254	0.00268385	0	4.08847e-06	0.515766	0.13562	0.533299	14.7324	682.602	2595.94	2684.19	-75.2676	0.0000000E+000	0.0000000E+000	0.0000000E+000	75.2676	0.0000000E+000	0.0000000E+000	0.0000000E+000	-75.2676	0.0000000E+000	0.0000000E+000	0.0000000E+000	-14.7324	0.0000000E+000	0.0000000E+000	0.0000000E+000	14.7324	3.80301	75.2676	1.74952e-06	1.04892e-05	5639.62
21544.7	1.93202	0.508629	1.99785	-14.7492	4.24148	0.243217	0.0387701	14.5238	0.941358	1	9	0.00518953	0.00259755	0	7.06265e-06	0.484045	0.127431	0.500538	14.7492	941.358	3575.74	3697.57	-75.2508	0.0000000E+000	0.0000000E+000	0.0000000E+000	75.2508	0.0000000E+000	0.0000000E+000	0.0000000E+000	-75.2508	0.0000000E+000	0.0000000E+000	0.0000000E+000	-14.7492	0.0000000E+000	0.0000000E+000	0.0000000E+000	14.7492	3.79849	75.2508	2.97419e-06	9.42954e-06	6273.32
14678.6	2.041	0.534752	2.10989	-14.6818	4.5385	0.243217	0.0436108	20.276	1.30247	1	9	0.00501313	0.00237601	0	1.1033e-05	0.458482	0.120124	0.473958	14.6818	1302.47	4971.16	5138.96	-75.3182	0.0000000E+000	0.0000000E+000	0.0000000E+000	75.3182	0.0000000E+000	0.0000000E+000	0.0000000E+000	-75.3182	0.0000000E+000	0.0000000E+000	0.0000000E+000	-14.6818	0.0000000E+000	0.0000000E+000	0.0000000E+000	14.6818	3.81673	75.3182	3.97032e-06	1.06069e-05	5577
10002.2	2.16502	0.571766	2.23925	-14.7936	4.83449	0.243221	0.0438155	27.8295	1.81441	1	9	0.00475086	0.00212163	0	1.35823e-05	0.431775	0.114028	0.446578	14.7936	1814.41	6870.38	7105.93	-75.2064	0.0000000E+000	0.0000000E+000	0.0000000E+000	75.2064	0.0000000E+000	0.0000000E+000	0.0000000E+000	-75.2064	0.0000000E+000	0.0000000E+000	0.0000000E+000	-14.7936	0.0000000E+000	0.0000000E+000	0.0000000E+000	14.7936	3.78656	75.2064	2.54931e-06	1.06569e-05	5551.02
6811.07	2.28646	0.623014	2.36982	-15.2419	5.21252	0.243095	-0.00367908	37.5066	2.59222	1	9	0.00458951	0.00193665	0	1.26993e-05	0.40713	0.110935	0.421973	15.2419	2592.22	9513.46	9860.3	-74.7581	0.0000000E+000	0.0000000E+000	0.0000000E+000	74.7581	0.0000000E+000	0.0000000E+000	0.0000000E+000	-74.7581	0.0000000E+000	0.0000000E+000	0.0000000E+000	-15.2419	0.0000000E+000	0.0000000E+000	0.0000000E+000	15.2419	3.67	74.7581	-8.82989e-07	-8.94367e-07	66075
4641.49	2.41585	0.695987	2.5141	-16.0713	5.90667	0.243229	0.066846	49.2677	3.7757	1	9	0.00500888	0.00199231	0	2.18798e-05	0.382211	0.110112	0.397756	16.0713	3775.7	13105.9	13638.9	-73.9287	0.0000000E+000	0.0000000E+000	0.0000000E+000	73.9287	0.0000000E+000	0.0000000E+000	0.0000000E+000	-73.9287	0.0000000E+000	0.0000000E+000	0.0000000E+000	-16.0713	0.0000000E+000	0.0000000E+000	0.0000000E+000	16.0713	3.47111	73.9287	9.18048e-06	1.62589e-05	3638.65
3161.01	2.55424	0.777287	2.66989	-16.9257	6.37368	0.243231	0.0641278	64.7758	5.49022	1	9	0.00495271	0.00185502	0	2.94881e-05	0.358323	0.109042	0.374548	16.9257	5490.22	18041.4	18858.2	-73.0743	0.0000000E+000	0.0000000E+000	0.0000000E+000	73.0743	0.0000000E+000	0.0000000E+000	0.0000000E+000	-73.0743	0.0000000E+000	0.0000000E+000	0.0000000E+000	-16.9257	0.0000000E+000	0.0000000E+000	0.0000000E+000	16.9257	3.28609	73.0743	7.60833e-06	1.55979e-05	3792.91
2155.69	2.70203	0.895296	2.84649	-18.3322	6.84067	0.243225	0.0621915	82.4646	8.15792	1	9	0.00490968	0.00172482	0	3.69731e-05	0.33348	0.110496	0.351309	18.3322	8157.93	24620.9	25937.2	-71.6678	0.0000000E+000	0.0000000E+000	0.0000000E+000	71.6678	0.0000000E+000	0.0000000E+000	0.0000000E+000	-71.6678	0.0000000E+000	0.0000000E+000	0.0000000E+000	-18.3322	0.0000000E+000	0.0000000E+000	0.0000000E+000	18.3322	3.01803	71.6678	7.48498e-06	1.51265e-05	3910.9
1468.59	2.87602	1.05653	3.06394	-20.1712	7.30793	0.243227	0.0648353	102.574	12.1966	1	9	0.00489122	0.00159638	0	4.38089e-05	0.306359	0.112543	0.326377	20.1712	12196.6	33200.9	35370.3	-69.8288	0.0000000E+000	0.0000000E+000	0.0000000E+000	69.8288	0.0000000E+000	0.0000000E+000	0.0000000E+000	-69.8288	0.0000000E+000	0.0000000E+000	0.0000000E+000	-20.1712	0.0000000E+000	0.0000000E+000	0.0000000E+000	20.1712	2.72215	69.8288	6.83579e-06	1.57697e-05	3751.46
1000.32	3.10606	1.27176	3.35633	-22.2664	8.03071	0.243204	-0.0129321	125.106	17.9621	1	10	0.0049598	0.00147774	0	4.83705e-05	0.275727	0.112895	0.297944	22.2664	17962.1	43869.3	47404.1	-67.7336	0.0000000E+000	0.0000000E+000	0.0000000E+000	67.7336	0.0000000E+000	0.0000000E+000	0.0000000E+000	-67.7336	0.0000000E+000	0.0000000E+000	0.0000000E+000	-22.2664	0.0000000E+000	0.0000000E+000	0.0000000E+000	22.2664	2.44233	67.7336	4.56161e-06	-3.14513e-06	18806.2
681.09	3.37374	1.55059	3.71301	-24.6837	8.49642	0.243206	-0.0131257	150.702	26.282	1	10	0.00492924	0.00132756	0	4.75847e-05	0.244714	0.112472	0.269323	24.6837	26282	57184.1	62934.6	-65.3163	0.0000000E+000	0.0000000E+000	0.0000000E+000	65.3163	0.0000000E+000	0.0000000E+000	0.0000000E+000	-65.3163	0.0000000E+000	0.0000000E+000	0.0000000E+000	-24.6837	0.0000000E+000	0.0000000E+000	0.0000000E+000	24.6837	2.17578	65.3163	-7.85766e-07	-3.19224e-06	18529
463.961	3.71867	1.89954	4.17574	-27.0584	8.96522	0.24321	-0.0129209	180.589	37.3698	1	10	0.00489937	0.00117329	0	4.58605e-05	0.213266	0.108939	0.239479	27.0584	37369.8	73157.8	82149.7	-62.9416	0.0000000E+000	0.0000000E+000	0.0000000E+000	62.9416	0.0000000E+000	0.0000000E+000	0.0000000E+000	-62.9416	0.0000000E+000	0.0000000E+000	0.0000000E+000	-27.0584	0.0000000E+000	0.0000000E+000	0.0000000E+000	27.0584	1.95767	62.9416	-1.7242e-06	-3.1425e-06	18822.9
316.316	4.18288	2.31115	4.7789	-28.9218	9.43193	0.243211	-0.0133174	217.706	50.918	1	10	0.00488461	0.00102212	0	4.47268e-05	0.183155	0.101198	0.209253	28.9218	50918	92154.9	105286	-61.0782	0.0000000E+000	0.0000000E+000	0.0000000E+000	61.0782	0.0000000E+000	0.0000000E+000	0.0000000E+000	-61.0782	0.0000000E+000	0.0000000E+000	0.0000000E+000	-28.9218	0.0000000E+000	0.0000000E+000	0.0000000E+000	28.9218	1.80987	61.0782	-1.13368e-06	-3.23894e-06	18262.6
215.345	4.8007	2.75407	5.53458	-29.8421	9.89945	0.243206	-0.0134887	268.356	66.4495	1	10	0.00486565	0.000879135	0	4.39226e-05	0.156724	0.0899095	0.180682	29.8421	66449.5	115830	133537	-60.1579	0.0000000E+000	0.0000000E+000	0.0000000E+000	60.1579	0.0000000E+000	0.0000000E+000	0.0000000E+000	-60.1579	0.0000000E+000	0.0000000E+000	0.0000000E+000	-29.8421	0.0000000E+000	0.0000000E+000	0.0000000E+000	29.8421	1.74313	60.1579	-8.04255e-07	-3.28053e-06	18030.4
146.737	5.60041	3.17827	6.43941	-29.5752	10.3624	0.243207	-0.0140583	341.263	83.1339	1	10	0.00486023	0.000754764	0	4.19455e-05	0.13506	0.0766477	0.155294	29.5752	83133.9	146490	168435	-60.4248	0.0000000E+000	0.0000000E+000	0.0000000E+000	60.4248	0.0000000E+000	0.0000000E+000	0.0000000E+000	-60.4248	0.0000000E+000	0.0000000E+000	0.0000000E+000	-29.5752	0.0000000E+000	0.0000000E+000	0.0000000E+000	29.5752	1.76209	60.4248	-1.97711e-06	-3.41906e-06	17299.9
100.032	6.56812	3.53149	7.45731	-28.2656	10.8307	0.243206	-0.0134328	450.53	101.035	1	10	0.00485157	0.000650579	0	3.97079e-05	0.118107	0.0635028	0.134097	28.2656	101035	187913	213353	-61.7344	0.0000000E+000	0.0000000E+000	0.0000000E+000	61.7344	0.0000000E+000	0.0000000E+000	0.0000000E+000	-61.7344	0.0000000E+000	0.0000000E+000	0.0000000E+000	-28.2656	0.0000000E+000	0.0000000E+000	0.0000000E+000	28.2656	1.85987	61.7344	-2.2376e-06	-3.26695e-06	18105.4
68.104	7.69503	3.72689	8.55004	-25.8421	11.3093	0.243218	-0.0102983	627.048	119.14	1	10	0.00485044	0.000567301	0	3.80219e-05	0.105263	0.0509813	0.116958	25.8421	119140	245992	273325	-64.1579	0.0000000E+000	0.0000000E+000	0.0000000E+000	64.1579	0.0000000E+000	0.0000000E+000	0.0000000E+000	-64.1579	0.0000000E+000	0.0000000E+000	0.0000000E+000	-25.8421	0.0000000E+000	0.0000000E+000	0.0000000E+000	25.8421	2.06473	64.1579	-1.68595e-06	-2.50472e-06	23617.3
46.4415	8.87735	3.6585	9.60166	-22.3973	11.7645	0.243209	-0.0159289	936.723	135.995	1	10	0.0048518	0.000505308	0	3.60514e-05	0.0962921	0.0396835	0.104149	22.3973	135995	329992	356917	-67.6027	0.0000000E+000	0.0000000E+000	0.0000000E+000	67.6027	0.0000000E+000	0.0000000E+000	0.0000000E+000	-67.6027	0.0000000E+000	0.0000000E+000	0.0000000E+000	-22.3973	0.0000000E+000	0.0000000E+000	0.0000000E+000	22.3973	2.4265	67.6027	-1.97055e-06	-3.87407e-06	15268.4
31.6296	9.96442	3.34362	10.5104	-18.5495	12.2114	0.243196	-0.0174143	1504.91	152.3	1	10	0.00485131	0.00046157	0	3.41835e-05	0.0902007	0.0302673	0.0951434	18.5495	152300	453876	478747	-71.4505	0.0000000E+000	0.0000000E+000	0.0000000E+000	71.4505	0.0000000E+000	0.0000000E+000	0.0000000E+000	-71.4505	0.0000000E+000	0.0000000E+000	0.0000000E+000	-18.5495	0.0000000E+000	0.0000000E+000	0.0000000E+000	18.5495	2.98013	71.4505	-1.86787e-06	-4.23509e-06	13965.3
21.5517	10.8273	2.91265	11.2123	-15.0566	12.6503	0.243191	-0.0196014	2535.42	171.096	1	10	0.0048506	0.000432616	0	3.24707e-05	0.0861262	0.0231687	0.0891881	15.0566	171096	636024	658635	-74.9434	0.0000000E+000	0.0000000E+000	0.0000000E+000	74.9434	0.0000000E+000	0.0000000E+000	0.0000000E+000	-74.9434	0.0000000E+000	0.0000000E+000	0.0000000E+000	-15.0566	0.0000000E+000	0.0000000E+000	0.0000000E+000	15.0566	3.71735	74.9434	-1.71281e-06	-4.7669e-06	12406.8
14.6852	11.4652	2.43348	11.7206	-11.9832	13.128	0.243213	-0.00989808	4453.62	191.987	1	10	0.00484951	0.00041376	0	3.06893e-05	0.0834608	0.0177146	0.08532	11.9832	191987	904532	924683	-78.0168	0.0000000E+000	0.0000000E+000	0.0000000E+000	78.0168	0.0000000E+000	0.0000000E+000	0.0000000E+000	-78.0168	0.0000000E+000	0.0000000E+000	0.0000000E+000	-11.9832	0.0000000E+000	0.0000000E+000	0.0000000E+000	11.9832	4.71142	78.0168	-1.78142e-06	-2.40734e-06	24571.7
10.0032	11.9676	2.034	12.1393	-9.64574	13.8507	0.243239	-0.00817944	7822.21	219.608	1	11	0.00484686	0.000399272	0	3.02892e-05	0.0812128	0.0138028	0.0823774	9.64574	219608	1.29213e+06	1.31066e+06	-80.3543	0.0000000E+000	0.0000000E+000	0.0000000E+000	80.3543	0.0000000E+000	0.0000000E+000	0.0000000E+000	-80.3543	0.0000000E+000	0.0000000E+000	0.0000000E+000	-9.64574	0.0000000E+000	0.0000000E+000	0.0000000E+000	9.64574	5.88379	80.3543	-4.00051e-07	-1.98956e-06	29737.9
6.81719	12.2918	1.75395	12.4163	-8.12087	14.2084	0.243235	-0.00824392	13310.6	265.612	1	11	0.00484365	0.000390103	0	2.50815e-05	0.0797315	0.0113771	0.0805392	8.12087	265611	1.86142e+06	1.88028e+06	-81.8791	0.0000000E+000	0.0000000E+000	0.0000000E+000	81.8791	0.0000000E+000	0.0000000E+000	0.0000000E+000	-81.8791	0.0000000E+000	0.0000000E+000	0.0000000E+000	-8.12087	0.0000000E+000	0.0000000E+000	0.0000000E+000	8.12087	7.00806	81.8791	-5.20776e-06	-2.00521e-06	29504.8
4.63925	12.5971	1.57977	12.6958	-7.148	14.7113	0.243238	-0.00782646	21715.9	336.239	1	11	0.00485766	0.00038262	0	2.94932e-05	0.0781542	0.00980111	0.0787663	7.148	336239	2.68117e+06	2.70217e+06	-82.852	0.0000000E+000	0.0000000E+000	0.0000000E+000	82.852	0.0000000E+000	0.0000000E+000	0.0000000E+000	-82.852	0.0000000E+000	0.0000000E+000	0.0000000E+000	-7.148	0.0000000E+000	0.0000000E+000	0.0000000E+000	7.148	7.97401	82.852	4.41171e-06	-1.90369e-06	31078.9
3.1604	12.8419	1.5349	12.9333	-6.81584	15.4202	0.243248	-0.00581843	32809.4	462.106	1	11	0.00484836	0.000374874	0	2.81201e-05	0.0767735	0.0091762	0.0773199	6.81584	462106	3.86625e+06	3.89377e+06	-83.1842	0.0000000E+000	0.0000000E+000	0.0000000E+000	83.1842	0.0000000E+000	0.0000000E+000	0.0000000E+000	-83.1842	0.0000000E+000	0.0000000E+000	0.0000000E+000	-6.81584	0.0000000E+000	0.0000000E+000	0.0000000E+000	6.81584	8.36658	83.1842	-1.37308e-06	-1.41532e-06	41806.4
2.15577	13.0879	1.56402	13.181	-6.81463	16.4368	0.243259	-0.00478041	47203.6	664.607	1	11	0.00484878	0.000367861	0	1.91396e-05	0.0753308	0.00900216	0.0758668	6.81463	664607	5.56149e+06	5.60106e+06	-83.1854	0.0000000E+000	0.0000000E+000	0.0000000E+000	83.1854	0.0000000E+000	0.0000000E+000	0.0000000E+000	-83.1854	0.0000000E+000	0.0000000E+000	0.0000000E+000	-6.81463	0.0000000E+000	0.0000000E+000	0.0000000E+000	6.81463	8.36808	83.1854	-8.9805e-06	-1.16288e-06	50886.6
1.46631	13.4383	1.65306	13.5396	-7.01279	17.91	0.24326	-0.00509357	65660.7	978.751	1	11	0.00485075	0.000358264	0	1.17313e-05	0.073305	0.00901733	0.0738575	7.01279	978750	7.9566e+06	8.01658e+06	-82.9872	0.0000000E+000	0.0000000E+000	0.0000000E+000	82.9872	0.0000000E+000	0.0000000E+000	0.0000000E+000	-82.9872	0.0000000E+000	0.0000000E+000	0.0000000E+000	-7.01279	0.0000000E+000	0.0000000E+000	0.0000000E+000	7.01279	8.12934	82.9872	-7.40825e-06	-1.23906e-06	47758.2
1.00006	13.8244	1.8496	13.9476	-7.62049	20.0502	0.243259	-0.00546556	86042.6	1513.11	1	11	0.00485459	0.000348059	0	1.33265e-05	0.0710636	0.00950778	0.0716969	7.62049	1.51311e+06	1.13094e+07	1.14102e+07	-82.3795	0.0000000E+000	0.0000000E+000	0.0000000E+000	82.3795	0.0000000E+000	0.0000000E+000	0.0000000E+000	-82.3795	0.0000000E+000	0.0000000E+000	0.0000000E+000	-7.62049	0.0000000E+000	0.0000000E+000	0.0000000E+000	7.62049	7.47426	82.3795	1.59513e-06	-1.32955e-06	44507.7
0.681362	14.2598	2.02925	14.4035	-8.09911	23.1701	0.243258	-0.005285	115108	2284.77	1	11	0.00485254	0.0003369	0	2.36186e-05	0.0687352	0.00978138	0.0694277	8.09911	2.28477e+06	1.60554e+07	1.62171e+07	-81.9009	0.0000000E+000	0.0000000E+000	0.0000000E+000	81.9009	0.0000000E+000	0.0000000E+000	0.0000000E+000	-81.9009	0.0000000E+000	0.0000000E+000	0.0000000E+000	-8.09911	0.0000000E+000	0.0000000E+000	0.0000000E+000	8.09911	7.02715	81.9009	1.02922e-05	-1.28562e-06	46027.9
0.464091	14.8123	2.16584	14.9698	-8.31878	27.7349	0.243262	-0.004077	158340	3314.45	1	11	0.00485097	0.000324051	0	3.85167e-05	0.0660983	0.00966483	0.0668012	8.31878	3.31445e+06	2.26677e+07	2.29088e+07	-81.6812	0.0000000E+000	0.0000000E+000	0.0000000E+000	81.6812	0.0000000E+000	0.0000000E+000	0.0000000E+000	-81.6812	0.0000000E+000	0.0000000E+000	0.0000000E+000	-8.31878	0.0000000E+000	0.0000000E+000	0.0000000E+000	8.31878	6.83906	81.6812	1.48981e-05	-9.91781e-07	59666.9
0.316193	15.4385	2.3166	15.6113	-8.53376	34.4172	0.243264	-0.00228301	217279	4784.53	1	11	0.00485435	0.00031095	0	4.45157e-05	0.0633469	0.00950542	0.0640561	8.53376	4.78453e+06	3.18855e+07	3.22425e+07	-81.4662	0.0000000E+000	0.0000000E+000	0.0000000E+000	81.4662	0.0000000E+000	0.0000000E+000	0.0000000E+000	-81.4662	0.0000000E+000	0.0000000E+000	0.0000000E+000	-8.53376	0.0000000E+000	0.0000000E+000	0.0000000E+000	8.53376	6.66429	81.4662	5.99899e-06	-5.55374e-07	106554
0.215268	16.033	2.41588	16.214	-8.56898	48.9116	0.243265	-0.00122001	306031	6794.19	1	12	0.00485211	0.000299255	0	2.56729e-05	0.0609867	0.0091896	0.0616751	8.56898	6.79418e+06	4.50896e+07	4.55986e+07	-81.431	0.0000000E+000	0.0000000E+000	0.0000000E+000	81.431	0.0000000E+000	0.0000000E+000	0.0000000E+000	-81.431	0.0000000E+000	0.0000000E+000	0.0000000E+000	-8.56898	0.0000000E+000	0.0000000E+000	0.0000000E+000	8.56898	6.63649	81.431	-1.88428e-05	-2.96786e-07	199396
0.146929	16.5744	2.4877	16.7601	-8.53597	63.2482	0.243266	-0.000271244	435427	9593.12	1	12	0.00485222	0.000289511	0	-2.60119e-05	0.0590047	0.00885619	0.0596656	8.53597	9.59312e+06	6.39146e+07	6.46305e+07	-81.464	0.0000000E+000	0.0000000E+000	0.0000000E+000	81.464	0.0000000E+000	0.0000000E+000	0.0000000E+000	-81.464	0.0000000E+000	0.0000000E+000	0.0000000E+000	-8.53597	0.0000000E+000	0.0000000E+000	0.0000000E+000	8.53597	6.66254	81.464	-5.16849e-05	-6.59845e-08	896851
0.0999041	17.0488	2.62349	17.2495	-8.74813	84.3182	0.243264	-0.000585773	607236	14046.4	1	12	0.00485075	0.000281211	0	-0.000107215	0.0572984	0.00881715	0.0579728	8.74813	1.40464e+07	9.12807e+07	9.23552e+07	-81.2519	0.0000000E+000	0.0000000E+000	0.0000000E+000	81.2519	0.0000000E+000	0.0000000E+000	0.0000000E+000	-81.2519	0.0000000E+000	0.0000000E+000	0.0000000E+000	-8.74813	0.0000000E+000	0.0000000E+000	0.0000000E+000	8.74813	6.49852	81.2519	-8.12031e-05	-1.42498e-07	415287
0.0680626	17.4907	2.96211	17.7397	-9.61206	115.23	0.243272	-0.00123671	789424	22010	1	12	0.00484736	0.000273249	0	-0.000199323	0.0555793	0.00941257	0.0563707	9.61206	2.201e+07	1.29964e+08	1.31815e+08	-80.3879	0.0000000E+000	0.0000000E+000	0.0000000E+000	80.3879	0.0000000E+000	0.0000000E+000	0.0000000E+000	-80.3879	0.0000000E+000	0.0000000E+000	0.0000000E+000	-9.61206	0.0000000E+000	0.0000000E+000	0.0000000E+000	9.61206	5.9048	80.3879	-9.21078e-05	-3.00857e-07	196708
0.0464052	17.9756	3.61234	18.335	-11.3627	160.555	0.243274	-0.0028199	949433	36853.9	1	12	0.00485215	0.000264639	0	-0.000260558	0.0534716	0.0107456	0.0545406	11.3627	3.68539e+07	1.8339e+08	1.87057e+08	-78.6373	0.0000000E+000	0.0000000E+000	0.0000000E+000	78.6373	0.0000000E+000	0.0000000E+000	0.0000000E+000	-78.6373	0.0000000E+000	0.0000000E+000	0.0000000E+000	-11.3627	0.0000000E+000	0.0000000E+000	0.0000000E+000	11.3627	4.97615	78.6373	-6.12352e-05	-6.86008e-07	86270.4
0.0315922	18.4025	4.63723	18.9778	-14.1434	227.115	0.243277	-0.00254018	1.08638e+06	64864.4	1	12	0.00484918	0.000255519	0	-0.000197969	0.0510958	0.0128756	0.0526931	14.1434	6.48644e+07	2.5741e+08	2.65457e+08	-75.8566	0.0000000E+000	0.0000000E+000	0.0000000E+000	75.8566	0.0000000E+000	0.0000000E+000	0.0000000E+000	-75.8566	0.0000000E+000	0.0000000E+000	0.0000000E+000	-14.1434	0.0000000E+000	0.0000000E+000	0.0000000E+000	14.1434	3.96844	75.8566	6.25891e-05	-6.17968e-07	95771.5
0.0215268	18.9441	5.97046	19.8627	-17.4928	324.784	0.243275	-0.00152318	1.23832e+06	111885	1	12	0.0048514	0.000244247	0	5.92169e-05	0.0480174	0.0151332	0.0503456	17.4928	1.11885e+08	3.55009e+08	3.72222e+08	-72.5072	0.0000000E+000	0.0000000E+000	0.0000000E+000	72.5072	0.0000000E+000	0.0000000E+000	0.0000000E+000	-72.5072	0.0000000E+000	0.0000000E+000	0.0000000E+000	-17.4928	0.0000000E+000	0.0000000E+000	0.0000000E+000	17.4928	3.17298	72.5072	0.000257186	-3.70552e-07	159715
0.0146812	19.8406	7.78525	21.3134	-21.4245	467.98	0.243275	-0.000112301	1.39247e+06	185792	1	12	0.00485134	0.00022762	0	0.000469565	0.0436768	0.0171383	0.0469189	21.4245	1.85792e+08	4.73489e+08	5.08636e+08	-68.5755	0.0000000E+000	0.0000000E+000	0.0000000E+000	68.5755	0.0000000E+000	0.0000000E+000	0.0000000E+000	-68.5755	0.0000000E+000	0.0000000E+000	0.0000000E+000	-21.4245	0.0000000E+000	0.0000000E+000	0.0000000E+000	21.4245	2.54849	68.5755	0.000410348	-2.732e-08	2.16629e+06
0.0100092	21.0362	10.459	23.4928	-26.4362	678.002	0.243284	0.000578543	1.5203e+06	301331	1	12	0.00485218	0.000206539	0	0.000794242	0.038115	0.0189505	0.0425662	26.4362	3.01331e+08	6.06064e+08	6.76841e+08	-63.5638	0.0000000E+000	0.0000000E+000	0.0000000E+000	63.5638	0.0000000E+000	0.0000000E+000	0.0000000E+000	-63.5638	0.0000000E+000	0.0000000E+000	0.0000000E+000	-26.4362	0.0000000E+000	0.0000000E+000	0.0000000E+000	26.4362	2.01129	63.5638	0.000324676	1.4075e-07	420511