File: txt/17385_R279_UA648_SOC00_C04.mpt
EC-Lab ASCII FILE
Nb header lines : 63

Potentio Electrochemical Impedance Spectroscopy

Run on channel : 4 (SN 66756)
User :
CE vs. WE compliance from -10 V to 10 V
Electrode connection : standard
Potential control : Ewe
Ewe ctrl range : min = -10.00 V, max = 10.00 V
Safety Limits :
	Do not start on E overload
Acquisition started on : 09/10/2025 16:53:49.045
Loaded Setting File :  C:\Users\Celltest\OneDrive - store-dot.com\Documents\EC-Lab\Data\Charmaine\R279\17382.mps
Saved on :
	File : 17385_C04.mpr
	Directory : C:\Users\Celltest\OneDrive - store-dot.com\Documents\EC-Lab\Data\Charmaine\R279\
	Host : 169.254.61.224
Device : VMP-3e (SN .003165)
Address : USB
EC-LAB for windows v11.62 (software)
Internet server v27.00 (firmware)
Command interpretor v12.03 (firmware)
Electrode material :
Initial state :
Electrolyte :
Comments :
Electrode surface area : 0.001 cm²
Characteristic mass : 0.001 g
Equivalent Weight : 0.000 g/eq.
Density : 0.000 g/cm3
Volume (V) : 0.001 cm³
Cycle Definition : Charge/Discharge alternance
Mode                Single sine
E (V)               0.0000
vs.                 Eoc
tE (h:m:s)          0:00:0.0000
record              0
dI                  0.000
unit dI             mA
dt (s)              0.000
fi                  100.000
unit fi             kHz
ff                  10.000
unit ff             mHz
Nd                  6
Points              per decade
spacing             Logarithmic
Va (mV)             5.0
pw                  0.10
Na                  2
corr                0
E range min (V)     -10.000
E range max (V)     10.000
I Range             Auto
Bandwidth           5
nc cycles           0
goto Ns'            0
nr cycles           0
inc. cycle          0

freq/Hz	Re(Z)/Ohm	-Im(Z)/Ohm	|Z|/Ohm	Phase(Z)/deg	time/s	<Ewe>/V	<I>/mA	Cs/µF	Cp/µF	cycle number	I Range	|Ewe|/V	|I|/A	Ns	(Q-Qo)/mA.h	Re(Y)/Ohm-1	Im(Y)/Ohm-1	|Y|/Ohm-1	Phase(Y)/deg	Re(C)/nF	Im(C)/nF	|C|/nF	Phase(C)/deg	Re(M)	Im(M)	|M|	Phase(M)/deg	Re(Permittivity)	Im(Permittivity)	|Permittivity|	Phase(Permittivity)/deg	Re(Resistivity)/Ohm.cm	Im(Resistivity)/Ohm.cm	|Resistivity|/Ohm.cm	Phase(Resistivity)/deg	Re(Conductivity)/mS/cm	Im(Conductivity)/mS/cm	|Conductivity|/mS/cm	Phase(Conductivity)/deg	Tan(Delta)	Loss Angle(Delta)/deg	dq/mA.h	Pwe/W	Rwe/Ohm
100004	2.42447	0.803214	2.55406	-18.3297	2.22648	0.185627	-0.00964532	1.9814	0.195962	1	9	0.00493144	0.00193082	0	-5.6956e-06	0.371668	0.123131	0.391533	18.3297	195.962	591.506	623.122	-71.6703	0.0000000E+000	0.0000000E+000	0.0000000E+000	71.6703	0.0000000E+000	0.0000000E+000	0.0000000E+000	-71.6703	0.0000000E+000	0.0000000E+000	0.0000000E+000	-18.3297	0.0000000E+000	0.0000000E+000	0.0000000E+000	18.3297	3.01847	71.6703	-5.6956e-06	-1.79044e-06	19245.3
68132	2.59269	0.897889	2.74377	-19.1018	2.66348	0.185621	-0.00819073	2.60163	0.27861	1	9	0.00530984	0.00193524	0	-8.83277e-06	0.344395	0.119269	0.364463	19.1018	278.61	804.499	851.377	-70.8982	0.0000000E+000	0.0000000E+000	0.0000000E+000	70.8982	0.0000000E+000	0.0000000E+000	0.0000000E+000	-70.8982	0.0000000E+000	0.0000000E+000	0.0000000E+000	-19.1018	0.0000000E+000	0.0000000E+000	0.0000000E+000	19.1018	2.88754	70.8982	-3.13717e-06	-1.52037e-06	22662.4
46420.4	2.79725	0.992024	2.96795	-19.5267	3.10049	0.185631	-0.00835857	3.45613	0.386118	1	9	0.00534294	0.00180021	0	-9.24528e-06	0.317554	0.112618	0.336933	19.5267	386.118	1088.75	1155.19	-70.4733	0.0000000E+000	0.0000000E+000	0.0000000E+000	70.4733	0.0000000E+000	0.0000000E+000	0.0000000E+000	-70.4733	0.0000000E+000	0.0000000E+000	0.0000000E+000	-19.5267	0.0000000E+000	0.0000000E+000	0.0000000E+000	19.5267	2.81974	70.4733	-4.12515e-07	-1.55161e-06	22208.4
31621.1	3.0047	1.11068	3.2034	-20.2867	3.53748	0.185623	-0.0101675	4.53164	0.544761	1	9	0.00536113	0.00167357	0	-1.45127e-05	0.292804	0.108234	0.312168	20.2867	544.761	1473.74	1571.2	-69.7133	0.0000000E+000	0.0000000E+000	0.0000000E+000	69.7133	0.0000000E+000	0.0000000E+000	0.0000000E+000	-69.7133	0.0000000E+000	0.0000000E+000	0.0000000E+000	-20.2867	0.0000000E+000	0.0000000E+000	0.0000000E+000	20.2867	2.70529	69.7133	-5.26743e-06	-1.88732e-06	18256.5
21544.7	3.25556	1.25316	3.48842	-21.0532	3.97448	0.185627	-0.0126291	5.89484	0.760728	1	9	0.00537533	0.00154091	0	-1.42304e-05	0.267527	0.102979	0.286662	21.0532	760.728	1976.28	2117.63	-68.9468	0.0000000E+000	0.0000000E+000	0.0000000E+000	68.9468	0.0000000E+000	0.0000000E+000	0.0000000E+000	-68.9468	0.0000000E+000	0.0000000E+000	0.0000000E+000	-21.0532	0.0000000E+000	0.0000000E+000	0.0000000E+000	21.0532	2.59787	68.9468	2.82278e-07	-2.34431e-06	14698.3
14678.6	3.54183	1.4147	3.81391	-21.773	4.41149	0.185625	-0.00848912	7.6643	1.05453	1	9	0.00537626	0.00140964	0	-1.67308e-05	0.243493	0.0972571	0.262198	21.773	1054.53	2640.11	2842.92	-68.227	0.0000000E+000	0.0000000E+000	0.0000000E+000	68.227	0.0000000E+000	0.0000000E+000	0.0000000E+000	-68.227	0.0000000E+000	0.0000000E+000	0.0000000E+000	-21.773	0.0000000E+000	0.0000000E+000	0.0000000E+000	21.773	2.5036	68.227	-2.50034e-06	-1.57579e-06	21866.2
10002.2	3.84545	1.64033	4.18069	-23.1013	4.84848	0.185626	-0.0134497	9.70048	1.49334	1	9	0.00533626	0.00127641	0	-1.99996e-05	0.220015	0.0938501	0.239195	23.1013	1493.34	3500.86	3806.06	-66.8987	0.0000000E+000	0.0000000E+000	0.0000000E+000	66.8987	0.0000000E+000	0.0000000E+000	0.0000000E+000	-66.8987	0.0000000E+000	0.0000000E+000	0.0000000E+000	-23.1013	0.0000000E+000	0.0000000E+000	0.0000000E+000	23.1013	2.34432	66.8987	-3.26883e-06	-2.49661e-06	13801.5
6811.07	4.21556	1.93005	4.63638	-24.6001	5.61049	0.185625	-0.00986482	12.107	2.09804	1	10	0.00464654	0.00100219	0	-2.43356e-05	0.196109	0.0897862	0.215685	24.6001	2098.04	4582.49	5039.95	-65.3998	0.0000000E+000	0.0000000E+000	0.0000000E+000	65.3998	0.0000000E+000	0.0000000E+000	0.0000000E+000	-65.3998	0.0000000E+000	0.0000000E+000	0.0000000E+000	-24.6001	0.0000000E+000	0.0000000E+000	0.0000000E+000	24.6001	2.18417	65.3998	-4.33601e-06	-1.83116e-06	18816.9
4641.49	4.62128	2.249	5.13948	-25.9504	6.30468	0.185635	-0.0076006	15.2467	2.91954	1	10	0.00511761	0.000995745	0	-2.54647e-05	0.174954	0.0851434	0.194572	25.9504	2919.54	5999.12	6671.82	-64.0496	0.0000000E+000	0.0000000E+000	0.0000000E+000	64.0496	0.0000000E+000	0.0000000E+000	0.0000000E+000	-64.0496	0.0000000E+000	0.0000000E+000	0.0000000E+000	-25.9504	0.0000000E+000	0.0000000E+000	0.0000000E+000	25.9504	2.05482	64.0496	-1.12912e-06	-1.41094e-06	24423.7
3161.01	5.09366	2.64867	5.74115	-27.4741	6.99467	0.185629	-0.0082366	19.0093	4.04598	1	10	0.00506419	0.000882086	0	-2.69109e-05	0.154537	0.0803582	0.174181	27.4741	4045.98	7780.83	8769.91	-62.5259	0.0000000E+000	0.0000000E+000	0.0000000E+000	62.5259	0.0000000E+000	0.0000000E+000	0.0000000E+000	-62.5259	0.0000000E+000	0.0000000E+000	0.0000000E+000	-27.4741	0.0000000E+000	0.0000000E+000	0.0000000E+000	27.4741	1.9231	62.5258	-1.44612e-06	-1.52896e-06	22537.2
2155.69	5.66671	3.17825	6.49714	-29.2865	7.46167	0.185637	-0.00804637	23.2298	5.55874	1	10	0.00513455	0.000790278	0	-2.72409e-05	0.134241	0.075291	0.153914	29.2865	5558.75	9911.06	11363.5	-60.7135	0.0000000E+000	0.0000000E+000	0.0000000E+000	60.7135	0.0000000E+000	0.0000000E+000	0.0000000E+000	-60.7135	0.0000000E+000	0.0000000E+000	0.0000000E+000	-29.2865	0.0000000E+000	0.0000000E+000	0.0000000E+000	29.2865	1.78297	60.7135	-3.30094e-07	-1.4937e-06	23070.9
1468.59	6.31299	3.79267	7.36466	-30.9963	7.92892	0.185631	-0.00791395	28.5742	7.57808	1	10	0.00499143	0.000677755	0	-2.84585e-05	0.116394	0.0699262	0.135784	30.9963	7578.08	12613.9	14715.2	-59.0037	0.0000000E+000	0.0000000E+000	0.0000000E+000	59.0037	0.0000000E+000	0.0000000E+000	0.0000000E+000	-59.0037	0.0000000E+000	0.0000000E+000	0.0000000E+000	-30.9963	0.0000000E+000	0.0000000E+000	0.0000000E+000	30.9963	1.66452	59.0037	-1.21751e-06	-1.46908e-06	23456.2
1000.32	7.11559	4.55092	8.44645	-32.6018	8.39771	0.185641	-0.00795499	34.9608	10.1492	1	10	0.00486198	0.000575624	0	-2.93945e-05	0.0997384	0.0637897	0.118393	32.6018	10149.2	15868.8	18836.8	-57.3982	0.0000000E+000	0.0000000E+000	0.0000000E+000	57.3982	0.0000000E+000	0.0000000E+000	0.0000000E+000	-57.3982	0.0000000E+000	0.0000000E+000	0.0000000E+000	-32.6018	0.0000000E+000	0.0000000E+000	0.0000000E+000	32.6018	1.56355	57.3982	-9.36079e-07	-1.47677e-06	23336.4
681.09	8.13693	5.49026	9.81594	-34.0089	8.86341	0.185628	-0.00816761	42.562	13.3151	1	10	0.00477298	0.000486248	0	-3.06819e-05	0.0844495	0.0569809	0.101875	34.0089	13315.1	19733.9	23805.9	-55.9911	0.0000000E+000	0.0000000E+000	0.0000000E+000	55.9911	0.0000000E+000	0.0000000E+000	0.0000000E+000	-55.9911	0.0000000E+000	0.0000000E+000	0.0000000E+000	-34.0089	0.0000000E+000	0.0000000E+000	0.0000000E+000	34.0089	1.48207	55.9911	-1.28741e-06	-1.51613e-06	22727.3
463.961	9.39612	6.61881	11.4933	-35.1616	9.33222	0.185624	-0.00812658	51.8273	17.1882	1	10	0.00470491	0.000409362	0	-3.14869e-05	0.0711311	0.0501062	0.0870073	35.1616	17188.2	24400.5	29846.6	-54.8384	0.0000000E+000	0.0000000E+000	0.0000000E+000	54.8384	0.0000000E+000	0.0000000E+000	0.0000000E+000	-54.8384	0.0000000E+000	0.0000000E+000	0.0000000E+000	-35.1616	0.0000000E+000	0.0000000E+000	0.0000000E+000	35.1616	1.41961	54.8384	-8.05003e-07	-1.50849e-06	22841.6
316.316	11.0332	7.92104	13.5821	-35.6756	9.79892	0.185631	-0.0075596	63.521	21.6046	1	10	0.00466809	0.000343694	0	-3.22691e-05	0.0598089	0.0429385	0.0736262	35.6756	21604.6	30093	37045.2	-54.3244	0.0000000E+000	0.0000000E+000	0.0000000E+000	54.3244	0.0000000E+000	0.0000000E+000	0.0000000E+000	-54.3244	0.0000000E+000	0.0000000E+000	0.0000000E+000	-35.6756	0.0000000E+000	0.0000000E+000	0.0000000E+000	35.6756	1.3929	54.3244	-7.82105e-07	-1.4033e-06	24555.7
215.345	13.1983	9.34299	16.1706	-35.2944	10.2664	0.185633	-0.00749805	79.1044	26.4072	1	10	0.00464792	0.000287431	0	-3.32751e-05	0.0504741	0.0357302	0.0618408	35.2944	26407.2	37303.9	45704.7	-54.7056	0.0000000E+000	0.0000000E+000	0.0000000E+000	54.7056	0.0000000E+000	0.0000000E+000	0.0000000E+000	-54.7056	0.0000000E+000	0.0000000E+000	0.0000000E+000	-35.2944	0.0000000E+000	0.0000000E+000	0.0000000E+000	35.2944	1.41264	54.7056	-1.00605e-06	-1.39189e-06	24757.5
146.737	15.9343	10.6997	19.1933	-33.8808	10.7294	0.18563	-0.00783377	101.37	31.5027	1	10	0.00463224	0.000241346	0	-3.42903e-05	0.0432545	0.0290448	0.0521014	33.8808	31502.7	46914.9	56510.4	-56.1192	0.0000000E+000	0.0000000E+000	0.0000000E+000	56.1192	0.0000000E+000	0.0000000E+000	0.0000000E+000	-56.1192	0.0000000E+000	0.0000000E+000	0.0000000E+000	-33.8808	0.0000000E+000	0.0000000E+000	0.0000000E+000	33.8808	1.48923	56.1192	-1.01521e-06	-1.45418e-06	23696.2
100.032	19.3728	11.7453	22.6552	-31.2275	11.4517	0.185651	-0.00497914	135.462	36.409	1	11	0.004644	0.000204986	0	-3.55711e-05	0.0377447	0.0228838	0.0441399	31.2275	36409	60053.4	70228.4	-58.7725	0.0000000E+000	0.0000000E+000	0.0000000E+000	58.7725	0.0000000E+000	0.0000000E+000	0.0000000E+000	-58.7725	0.0000000E+000	0.0000000E+000	0.0000000E+000	-31.2275	0.0000000E+000	0.0000000E+000	0.0000000E+000	31.2275	1.64941	58.7725	-1.28083e-06	-9.24382e-07	37285.8
68.104	23.1833	12.119	26.1598	-27.5982	11.9303	0.185647	-0.00475473	192.833	41.3853	1	11	0.0046277	0.000176901	0	-3.62037e-05	0.0338771	0.0177092	0.0382266	27.5982	41385.3	79168.7	89333.3	-62.4018	0.0000000E+000	0.0000000E+000	0.0000000E+000	62.4018	0.0000000E+000	0.0000000E+000	0.0000000E+000	-62.4018	0.0000000E+000	0.0000000E+000	0.0000000E+000	-27.5982	0.0000000E+000	0.0000000E+000	0.0000000E+000	27.5982	1.91297	62.4018	-6.32571e-07	-8.827e-07	39044.6
46.4415	27.0183	11.6481	29.4222	-23.3219	12.3856	0.185643	-0.00514553	294.209	46.1126	1	11	0.00462386	0.000157156	0	-3.67687e-05	0.0312109	0.0134557	0.0339879	23.3219	46112.6	106960	116476	-66.6781	0.0000000E+000	0.0000000E+000	0.0000000E+000	66.6781	0.0000000E+000	0.0000000E+000	0.0000000E+000	-66.6781	0.0000000E+000	0.0000000E+000	0.0000000E+000	-23.3219	0.0000000E+000	0.0000000E+000	0.0000000E+000	23.3219	2.31954	66.6781	-5.64988e-07	-9.55232e-07	36078.5
31.6296	30.4095	10.4037	32.14	-18.8868	12.8325	0.185641	-0.00529178	483.659	50.6786	1	11	0.00461897	0.000143714	0	-3.74182e-05	0.0294387	0.0100716	0.0311139	18.8868	50678.6	148131	156560	-71.1132	0.0000000E+000	0.0000000E+000	0.0000000E+000	71.1132	0.0000000E+000	0.0000000E+000	0.0000000E+000	-71.1132	0.0000000E+000	0.0000000E+000	0.0000000E+000	-18.8868	0.0000000E+000	0.0000000E+000	0.0000000E+000	18.8868	2.92295	71.1132	-6.49536e-07	-9.82368e-07	35080.9
21.5517	33.0365	8.7186	34.1675	-14.7838	13.2713	0.185637	-0.00554659	847.015	55.1515	1	11	0.00461199	0.000134982	0	-3.76267e-05	0.0282987	0.00746826	0.0292675	14.7838	55151.5	208980	216135	-75.2162	0.0000000E+000	0.0000000E+000	0.0000000E+000	75.2162	0.0000000E+000	0.0000000E+000	0.0000000E+000	-75.2162	0.0000000E+000	0.0000000E+000	0.0000000E+000	-14.7838	0.0000000E+000	0.0000000E+000	0.0000000E+000	14.7838	3.78919	75.2162	-2.08457e-07	-1.02965e-06	33468.6
14.6852	34.9397	7.10727	35.6553	-11.498	13.7491	0.185645	-0.00466407	1524.89	60.5894	1	11	0.00461906	0.000129548	0	-3.82853e-05	0.0274835	0.00559056	0.0280463	11.498	60589.4	297861	303961	-78.502	0.0000000E+000	0.0000000E+000	0.0000000E+000	78.502	0.0000000E+000	0.0000000E+000	0.0000000E+000	-78.502	0.0000000E+000	0.0000000E+000	0.0000000E+000	-11.498	0.0000000E+000	0.0000000E+000	0.0000000E+000	11.498	4.91606	78.502	-6.58575e-07	-8.65861e-07	39803.1
10.0032	36.1448	5.60647	36.577	-8.81696	14.2177	0.185653	-0.00464673	2837.86	66.6735	1	11	0.00461434	0.000126154	0	-3.97127e-05	0.0270165	0.00419056	0.0273395	8.81696	66673.5	429843	434983	-81.183	0.0000000E+000	0.0000000E+000	0.0000000E+000	81.183	0.0000000E+000	0.0000000E+000	0.0000000E+000	-81.183	0.0000000E+000	0.0000000E+000	0.0000000E+000	-8.81696	0.0000000E+000	0.0000000E+000	0.0000000E+000	8.81696	6.44699	81.183	-1.42748e-06	-8.62676e-07	39953.4
6.81719	36.9778	4.48089	37.2483	-6.90929	14.5754	0.185646	-0.00516792	5210.15	75.3991	1	11	0.00461367	0.000123863	0	-3.94494e-05	0.0266519	0.00322962	0.0268469	6.90929	75399.1	622218	626770	-83.0907	0.0000000E+000	0.0000000E+000	0.0000000E+000	83.0907	0.0000000E+000	0.0000000E+000	0.0000000E+000	-83.0907	0.0000000E+000	0.0000000E+000	0.0000000E+000	-6.90929	0.0000000E+000	0.0000000E+000	0.0000000E+000	6.90929	8.25233	83.0907	2.63333e-07	-9.59401e-07	35922.7
4.63925	37.5873	3.75444	37.7743	-5.70412	15.0773	0.185653	-0.00438408	9137.5	90.266	1	11	0.00462213	0.000122362	0	-4.15905e-05	0.0263419	0.00263119	0.026473	5.70412	90265.9	903691	908188	-84.2959	0.0000000E+000	0.0000000E+000	0.0000000E+000	84.2959	0.0000000E+000	0.0000000E+000	0.0000000E+000	-84.2959	0.0000000E+000	0.0000000E+000	0.0000000E+000	-5.70412	0.0000000E+000	0.0000000E+000	0.0000000E+000	5.70412	10.0114	84.2959	-2.14111e-06	-8.13919e-07	42347.2
3.1604	38.1746	3.32754	38.3194	-4.98168	15.7863	0.185654	-0.00434425	15134	114.121	1	11	0.00462249	0.000120631	0	-4.10327e-05	0.0259979	0.00226614	0.0260965	4.98168	114121	1.30923e+06	1.3142e+06	-85.0183	0.0000000E+000	0.0000000E+000	0.0000000E+000	85.0183	0.0000000E+000	0.0000000E+000	0.0000000E+000	-85.0183	0.0000000E+000	0.0000000E+000	0.0000000E+000	-4.98168	0.0000000E+000	0.0000000E+000	0.0000000E+000	4.98168	11.4723	85.0183	5.57817e-07	-8.06529e-07	42735.6
2.15577	38.6562	3.12296	38.7821	-4.61879	16.8028	0.185661	-0.0032981	23640.2	153.293	1	11	0.00462405	0.000119231	0	-3.98377e-05	0.0257013	0.00207636	0.0257851	4.61879	153293	1.89747e+06	1.90365e+06	-85.3812	0.0000000E+000	0.0000000E+000	0.0000000E+000	85.3812	0.0000000E+000	0.0000000E+000	0.0000000E+000	-85.3812	0.0000000E+000	0.0000000E+000	0.0000000E+000	-4.61879	0.0000000E+000	0.0000000E+000	0.0000000E+000	4.61879	12.378	85.3812	1.19501e-06	-6.12327e-07	56293.4
1.46631	39.186	3.15099	39.3125	-4.59733	19.008	0.185671	-0.00255593	34446.7	221.3	1	12	0.00462142	0.000117556	0	-4.23804e-05	0.0253554	0.00203886	0.0254372	4.59733	221300	2.7521e+06	2.76099e+06	-85.4027	0.0000000E+000	0.0000000E+000	0.0000000E+000	85.4027	0.0000000E+000	0.0000000E+000	0.0000000E+000	-85.4027	0.0000000E+000	0.0000000E+000	0.0000000E+000	-4.59733	0.0000000E+000	0.0000000E+000	0.0000000E+000	4.59733	12.4361	85.4027	-2.54275e-06	-4.74562e-07	72643.3
1.00006	39.7947	3.29213	39.9307	-4.72918	21.1483	0.185672	-0.00239625	48341	328.591	1	12	0.00462009	0.000115703	0	-4.79055e-05	0.0249581	0.00206473	0.0250434	4.72918	328591	3.97196e+06	3.98553e+06	-85.2708	0.0000000E+000	0.0000000E+000	0.0000000E+000	85.2708	0.0000000E+000	0.0000000E+000	0.0000000E+000	-85.2708	0.0000000E+000	0.0000000E+000	0.0000000E+000	-4.72918	0.0000000E+000	0.0000000E+000	0.0000000E+000	4.72918	12.0879	85.2708	-5.52507e-06	-4.44918e-07	77484.5
0.681362	40.5978	3.52512	40.7506	-4.96256	24.2693	0.185675	-0.00229631	66262.6	495.847	1	12	0.00461985	0.000113369	0	-5.39197e-05	0.0244475	0.00212278	0.0245395	4.96256	495847	5.71054e+06	5.73203e+06	-85.0374	0.0000000E+000	0.0000000E+000	0.0000000E+000	85.0374	0.0000000E+000	0.0000000E+000	0.0000000E+000	-85.0374	0.0000000E+000	0.0000000E+000	0.0000000E+000	-4.96256	0.0000000E+000	0.0000000E+000	0.0000000E+000	4.96256	11.5167	85.0374	-6.01416e-06	-4.26367e-07	80858.1
0.464091	41.5442	3.90242	41.7271	-5.36628	28.8336	0.18566	-0.0026908	87878.6	768.626	1	12	0.0046249	0.000110837	0	-5.73372e-05	0.0238602	0.00224129	0.0239652	5.36628	768626	8.1826e+06	8.21862e+06	-84.6337	0.0000000E+000	0.0000000E+000	0.0000000E+000	84.6337	0.0000000E+000	0.0000000E+000	0.0000000E+000	-84.6337	0.0000000E+000	0.0000000E+000	0.0000000E+000	-5.36628	0.0000000E+000	0.0000000E+000	0.0000000E+000	5.36628	10.6458	84.6337	-3.41749e-06	-4.99573e-07	68998
0.316193	42.491	4.19896	42.698	-5.64365	35.5141	0.185666	-0.00262822	119874	1159.3	1	12	0.00462145	0.000108236	0	-5.51206e-05	0.0233068	0.00230318	0.0234203	5.64365	1.1593e+06	1.17314e+07	1.17886e+07	-84.3564	0.0000000E+000	0.0000000E+000	0.0000000E+000	84.3564	0.0000000E+000	0.0000000E+000	0.0000000E+000	-84.3564	0.0000000E+000	0.0000000E+000	0.0000000E+000	-5.64365	0.0000000E+000	0.0000000E+000	0.0000000E+000	5.64365	10.1194	84.3564	2.2166e-06	-4.87969e-07	70643.2
0.215268	43.5081	4.38589	43.7286	-5.75633	45.3118	0.185663	-0.00237453	168571	1695.77	1	12	0.00462104	0.000105675	0	-4.75338e-05	0.022753	0.00229364	0.0228683	5.75633	1.69577e+06	1.68221e+07	1.69073e+07	-84.2437	0.0000000E+000	0.0000000E+000	0.0000000E+000	84.2437	0.0000000E+000	0.0000000E+000	0.0000000E+000	-84.2437	0.0000000E+000	0.0000000E+000	0.0000000E+000	-5.75633	0.0000000E+000	0.0000000E+000	0.0000000E+000	5.75633	9.92002	84.2437	7.58676e-06	-4.40862e-07	78189.3
0.146929	44.5243	4.60788	44.7621	-5.90859	59.6475	0.185664	-0.00165674	235078	2491.12	1	12	0.00462159	0.000103248	0	-3.79851e-05	0.0222216	0.00229975	0.0223403	5.90859	2.49111e+06	2.40707e+07	2.41993e+07	-84.0914	0.0000000E+000	0.0000000E+000	0.0000000E+000	84.0914	0.0000000E+000	0.0000000E+000	0.0000000E+000	-84.0914	0.0000000E+000	0.0000000E+000	0.0000000E+000	-5.90859	0.0000000E+000	0.0000000E+000	0.0000000E+000	5.90859	9.66263	84.0914	9.54873e-06	-3.07597e-07	112066
0.0999041	45.4874	5.01791	45.7634	-6.29508	80.7174	0.185661	-0.000803459	317478	3817.01	1	12	0.00462123	0.000100981	0	-3.4884e-05	0.0217198	0.002396	0.0218515	6.29508	3.81701e+06	3.46013e+07	3.48112e+07	-83.7049	0.0000000E+000	0.0000000E+000	0.0000000E+000	83.7049	0.0000000E+000	0.0000000E+000	0.0000000E+000	-83.7049	0.0000000E+000	0.0000000E+000	0.0000000E+000	-6.29508	0.0000000E+000	0.0000000E+000	0.0000000E+000	6.29508	9.06502	83.7049	3.10107e-06	-1.49171e-07	231078
0.0680626	46.3745	5.80344	46.7362	-7.13308	111.63	0.185652	-0.000200912	402926	6212.84	1	12	0.00461972	9.88466e-05	0	-4.7063e-05	0.0212311	0.00265692	0.0213967	7.13308	6.21284e+06	4.96459e+07	5.00332e+07	-82.8669	0.0000000E+000	0.0000000E+000	0.0000000E+000	82.8669	0.0000000E+000	0.0000000E+000	0.0000000E+000	-82.8669	0.0000000E+000	0.0000000E+000	0.0000000E+000	-7.13308	0.0000000E+000	0.0000000E+000	0.0000000E+000	7.13308	7.99086	82.8669	-1.2179e-05	-3.72997e-08	924047
0.0464052	47.2057	7.02069	47.7249	-8.45933	156.954	0.18566	7.10399e-05	488510	10571.7	1	12	0.00462142	9.68346e-05	0	-9.38015e-05	0.0207255	0.0030824	0.0209534	8.45933	1.05717e+07	7.10817e+07	7.18635e+07	-81.5407	0.0000000E+000	0.0000000E+000	0.0000000E+000	81.5407	0.0000000E+000	0.0000000E+000	0.0000000E+000	-81.5407	0.0000000E+000	0.0000000E+000	0.0000000E+000	-8.45933	0.0000000E+000	0.0000000E+000	0.0000000E+000	8.45933	6.7238	81.5407	-4.67385e-05	1.31893e-08	2.61346e+06
0.0315922	48.2698	8.67929	49.0439	-10.1933	223.515	0.185661	-0.000206695	580438	18178.4	1	12	0.00462115	9.42249e-05	0	-0.000181114	0.0200681	0.0036084	0.0203899	10.1933	1.81784e+07	1.01099e+08	1.0272e+08	-79.8067	0.0000000E+000	0.0000000E+000	0.0000000E+000	79.8067	0.0000000E+000	0.0000000E+000	0.0000000E+000	-79.8067	0.0000000E+000	0.0000000E+000	0.0000000E+000	-10.1933	0.0000000E+000	0.0000000E+000	0.0000000E+000	10.1933	5.56149	79.8067	-8.73122e-05	-3.83753e-08	898238
0.0215268	49.8156	11.1609	51.0506	-12.6282	321.183	0.185661	-0.000649285	662433	31662	1	12	0.00462201	9.05379e-05	0	-0.000288617	0.0191146	0.0042825	0.0195884	12.6282	3.1662e+07	1.4132e+08	1.44824e+08	-77.3718	0.0000000E+000	0.0000000E+000	0.0000000E+000	77.3718	0.0000000E+000	0.0000000E+000	0.0000000E+000	-77.3718	0.0000000E+000	0.0000000E+000	0.0000000E+000	-12.6282	0.0000000E+000	0.0000000E+000	0.0000000E+000	12.6282	4.46341	77.3718	-0.000107504	-1.20547e-07	285947
0.0146812	51.6568	14.873	53.7553	-16.0621	464.378	0.185658	-0.000955399	728890	55797.5	1	12	0.00461997	8.59445e-05	0	-0.000354233	0.0178766	0.00514701	0.0186028	16.0621	5.57975e+07	1.93796e+08	2.01668e+08	-73.9379	0.0000000E+000	0.0000000E+000	0.0000000E+000	73.9379	0.0000000E+000	0.0000000E+000	0.0000000E+000	-73.9379	0.0000000E+000	0.0000000E+000	0.0000000E+000	-16.0621	0.0000000E+000	0.0000000E+000	0.0000000E+000	16.0621	3.4732	73.9379	-6.56158e-05	-1.77378e-07	194325
0.0100092	53.679	19.6672	57.1684	-20.1221	674.398	0.185652	-0.000809942	808499	95686.8	1	12	0.00462189	8.08468e-05	0	-0.000285056	0.0164245	0.00601769	0.0174922	20.1221	9.56868e+07	2.61164e+08	2.78141e+08	-69.8779	0.0000000E+000	0.0000000E+000	0.0000000E+000	69.8779	0.0000000E+000	0.0000000E+000	0.0000000E+000	-69.8779	0.0000000E+000	0.0000000E+000	0.0000000E+000	-20.1221	0.0000000E+000	0.0000000E+000	0.0000000E+000	20.1221	2.72937	69.8779	6.91775e-05	-1.50367e-07	229217