File: txt/17382_C01.mpt
EC-Lab ASCII FILE
Nb header lines : 64

Potentio Electrochemical Impedance Spectroscopy

Run on channel : 1 (SN 66354)
User :
CE vs. WE compliance from -10 V to 10 V
Electrode connection : standard
Potential control : Ewe
Ewe ctrl range : min = -10.00 V, max = 10.00 V
Safety Limits :
	Do not start on E overload
Acquisition started on : 09/10/2025 16:53:05.256
Technique started on : 09/10/2025 16:53:07.281
Loaded Setting File :  C:\Users\Celltest\OneDrive - store-dot.com\Documents\EC-Lab\Data\Gyutae\EIS_SOC0_C01.mpr
Saved on :
	File : 17382_C01.mpr
	Directory : C:\Users\Celltest\OneDrive - store-dot.com\Documents\EC-Lab\Data\Charmaine\R279\
	Host : 169.254.61.224
Device : VMP-3e (SN .003165)
Address : USB
EC-LAB for windows v11.62 (software)
Internet server v27.00 (firmware)
Command interpretor v12.03 (firmware)
Electrode material :
Initial state :
Electrolyte :
Comments :
Electrode surface area : 0.001 cm²
Characteristic mass : 0.001 g
Equivalent Weight : 0.000 g/eq.
Density : 0.000 g/cm3
Volume (V) : 0.001 cm³
Cycle Definition : Charge/Discharge alternance
Mode                Single sine
E (V)               0.0000
vs.                 Eoc
tE (h:m:s)          0:00:0.0000
record              0
dI                  0.000
unit dI             mA
dt (s)              0.000
fi                  100.000
unit fi             kHz
ff                  10.000
unit ff             mHz
Nd                  6
Points              per decade
spacing             Logarithmic
Va (mV)             5.0
pw                  0.10
Na                  2
corr                0
E range min (V)     -10.000
E range max (V)     10.000
I Range             Auto
Bandwidth           5
nc cycles           0
goto Ns'            0
nr cycles           0
inc. cycle          0

freq/Hz	Re(Z)/Ohm	-Im(Z)/Ohm	|Z|/Ohm	Phase(Z)/deg	time/s	<Ewe>/V	<I>/mA	Cs/µF	Cp/µF	cycle number	I Range	|Ewe|/V	|I|/A	Ns	(Q-Qo)/mA.h	Re(Y)/Ohm-1	Im(Y)/Ohm-1	|Y|/Ohm-1	Phase(Y)/deg	Re(C)/nF	Im(C)/nF	|C|/nF	Phase(C)/deg	Re(M)	Im(M)	|M|	Phase(M)/deg	Re(Permittivity)	Im(Permittivity)	|Permittivity|	Phase(Permittivity)/deg	Re(Resistivity)/Ohm.cm	Im(Resistivity)/Ohm.cm	|Resistivity|/Ohm.cm	Phase(Resistivity)/deg	Re(Conductivity)/mS/cm	Im(Conductivity)/mS/cm	|Conductivity|/mS/cm	Phase(Conductivity)/deg	Tan(Delta)	Loss Angle(Delta)/deg	dq/mA.h	Pwe/W	Rwe/Ohm
100004	3.18477	1.20206	3.40407	-20.6785	2.02548	0.181504	-0.0242535	1.32397	0.165094	1	10	0.00496401	0.00145826	0	-6.95463e-06	0.27484	0.103736	0.293766	20.6785	165.094	437.406	467.526	-69.3215	0.0000000E+000	0.0000000E+000	0.0000000E+000	69.3215	0.0000000E+000	0.0000000E+000	0.0000000E+000	-69.3215	0.0000000E+000	0.0000000E+000	0.0000000E+000	-20.6785	0.0000000E+000	0.0000000E+000	0.0000000E+000	20.6785	2.64943	69.3215	-6.95463e-06	-4.4021e-06	7483.62
68132	3.48209	1.28616	3.71203	-20.2724	2.46349	0.181505	-0.0220322	1.81624	0.218042	1	10	0.00544988	0.00146817	0	-6.93e-06	0.252707	0.0933409	0.269394	20.2724	218.042	590.318	629.299	-69.7276	0.0000000E+000	0.0000000E+000	0.0000000E+000	69.7276	0.0000000E+000	0.0000000E+000	0.0000000E+000	-69.7276	0.0000000E+000	0.0000000E+000	0.0000000E+000	-20.2724	0.0000000E+000	0.0000000E+000	0.0000000E+000	20.2724	2.70735	69.7276	2.46347e-08	-3.99897e-06	8238.18
46420.4	3.78731	1.37167	4.02805	-19.9091	2.90048	0.18151	-0.0210893	2.49956	0.289848	1	10	0.00540416	0.00134163	0	-9.90369e-06	0.233422	0.0845393	0.248259	19.9091	289.848	800.3	851.171	-70.0909	0.0000000E+000	0.0000000E+000	0.0000000E+000	70.0909	0.0000000E+000	0.0000000E+000	0.0000000E+000	-70.0909	0.0000000E+000	0.0000000E+000	0.0000000E+000	-19.9091	0.0000000E+000	0.0000000E+000	0.0000000E+000	19.9091	2.7611	70.0909	-2.97369e-06	-3.82792e-06	8606.73
31621.1	4.11142	1.47864	4.36923	-19.7808	3.33849	0.181509	-0.0238938	3.40392	0.389848	1	10	0.00536755	0.00122849	0	-1.25616e-05	0.215368	0.0774557	0.228873	19.7808	389.849	1083.99	1151.96	-70.2192	0.0000000E+000	0.0000000E+000	0.0000000E+000	70.2192	0.0000000E+000	0.0000000E+000	0.0000000E+000	-70.2192	0.0000000E+000	0.0000000E+000	0.0000000E+000	-19.7808	0.0000000E+000	0.0000000E+000	0.0000000E+000	19.7808	2.78054	70.2192	-2.65791e-06	-4.33695e-06	7596.48
21544.7	4.4482	1.58562	4.72236	-19.6193	3.7755	0.181506	-0.0234298	4.65886	0.525244	1	10	0.00520346	0.00110188	0	-1.45722e-05	0.199465	0.0711019	0.211758	19.6193	525.245	1473.49	1564.3	-70.3807	0.0000000E+000	0.0000000E+000	0.0000000E+000	70.3807	0.0000000E+000	0.0000000E+000	0.0000000E+000	-70.3807	0.0000000E+000	0.0000000E+000	0.0000000E+000	-19.6193	0.0000000E+000	0.0000000E+000	0.0000000E+000	19.6193	2.80533	70.3807	-2.0106e-06	-4.25266e-06	7746.79
14678.6	4.81044	1.71842	5.10816	-19.6581	4.21249	0.181512	-0.021995	6.30966	0.714062	1	10	0.00518806	0.00101564	0	-1.81262e-05	0.184355	0.0658568	0.195765	19.6581	714.063	1998.9	2122.61	-70.3419	0.0000000E+000	0.0000000E+000	0.0000000E+000	70.3419	0.0000000E+000	0.0000000E+000	0.0000000E+000	-70.3419	0.0000000E+000	0.0000000E+000	0.0000000E+000	-19.6581	0.0000000E+000	0.0000000E+000	0.0000000E+000	19.6581	2.79934	70.3419	-3.554e-06	-3.99235e-06	8252.43
10002.2	5.18764	1.89084	5.5215	-20.0262	4.64948	0.181516	-0.0207129	8.41528	0.98688	1	10	0.00506564	0.000917439	0	-2.03362e-05	0.17016	0.0620213	0.18111	20.0262	986.88	2707.57	2881.82	-69.9738	0.0000000E+000	0.0000000E+000	0.0000000E+000	69.9738	0.0000000E+000	0.0000000E+000	0.0000000E+000	-69.9738	0.0000000E+000	0.0000000E+000	0.0000000E+000	-20.0262	0.0000000E+000	0.0000000E+000	0.0000000E+000	20.0262	2.74357	69.9738	-2.21002e-06	-3.75972e-06	8763.42
6811.07	5.61014	2.10418	5.99176	-20.5594	5.02751	0.181547	-0.00399944	11.1051	1.36955	1	10	0.00515081	0.000859649	0	-1.99119e-05	0.156266	0.0586103	0.166896	20.5594	1369.55	3651.48	3899.87	-69.4406	0.0000000E+000	0.0000000E+000	0.0000000E+000	69.4406	0.0000000E+000	0.0000000E+000	0.0000000E+000	-69.4406	0.0000000E+000	0.0000000E+000	0.0000000E+000	-20.5594	0.0000000E+000	0.0000000E+000	0.0000000E+000	20.5594	2.66619	69.4406	4.24338e-07	-7.26088e-07	45393.1
4641.49	6.0683	2.36058	6.51127	-21.2561	5.49871	0.181584	0.00666892	14.5259	1.9092	1	10	0.00512509	0.000787111	0	-1.85274e-05	0.143132	0.0556785	0.15358	21.2561	1909.2	4907.94	5266.2	-68.7439	0.0000000E+000	0.0000000E+000	0.0000000E+000	68.7439	0.0000000E+000	0.0000000E+000	0.0000000E+000	-68.7439	0.0000000E+000	0.0000000E+000	0.0000000E+000	-21.2561	0.0000000E+000	0.0000000E+000	0.0000000E+000	21.2561	2.57068	68.7439	1.38451e-06	1.21097e-06	27228.4
3161.01	6.57208	2.69642	7.10373	-22.3075	5.96568	0.181593	0.00717764	18.6727	2.69035	1	10	0.00507361	0.000714219	0	-1.82316e-05	0.130236	0.0534336	0.140771	22.3075	2690.35	6557.29	7087.74	-67.6925	0.0000000E+000	0.0000000E+000	0.0000000E+000	67.6925	0.0000000E+000	0.0000000E+000	0.0000000E+000	-67.6925	0.0000000E+000	0.0000000E+000	0.0000000E+000	-22.3075	0.0000000E+000	0.0000000E+000	0.0000000E+000	22.3075	2.43734	67.6925	2.9579e-07	1.30341e-06	25299.8
2155.69	7.15545	3.10174	7.7988	-23.4358	6.4327	0.181588	0.00692793	23.8028	3.76517	1	10	0.00503245	0.000645285	0	-1.68357e-05	0.117647	0.0509977	0.128225	23.4358	3765.17	8685.91	9466.87	-66.5642	0.0000000E+000	0.0000000E+000	0.0000000E+000	66.5642	0.0000000E+000	0.0000000E+000	0.0000000E+000	-66.5642	0.0000000E+000	0.0000000E+000	0.0000000E+000	-23.4358	0.0000000E+000	0.0000000E+000	0.0000000E+000	23.4358	2.30691	66.5642	1.3959e-06	1.25803e-06	26211
1468.59	7.83288	3.62216	8.62984	-24.8172	6.89995	0.181585	0.0068683	29.9193	5.27087	1	10	0.00500048	0.00057944	0	-1.58834e-05	0.105176	0.0486365	0.115877	24.8172	5270.87	11398.2	12557.9	-65.1828	0.0000000E+000	0.0000000E+000	0.0000000E+000	65.1828	0.0000000E+000	0.0000000E+000	0.0000000E+000	-65.1828	0.0000000E+000	0.0000000E+000	0.0000000E+000	-24.8172	0.0000000E+000	0.0000000E+000	0.0000000E+000	24.8172	2.16249	65.1828	9.52304e-07	1.24718e-06	26438.1
1000.32	8.64375	4.26984	9.64085	-26.2885	7.36867	0.181582	0.00694097	37.2622	7.30908	1	10	0.00497641	0.000516179	0	-1.5371e-05	0.0929976	0.045939	0.103725	26.2885	7309.08	14796.3	16503.1	-63.7115	0.0000000E+000	0.0000000E+000	0.0000000E+000	63.7115	0.0000000E+000	0.0000000E+000	0.0000000E+000	-63.7115	0.0000000E+000	0.0000000E+000	0.0000000E+000	-26.2885	0.0000000E+000	0.0000000E+000	0.0000000E+000	26.2885	2.02437	63.7115	5.12334e-07	1.26035e-06	26160.8
681.09	9.6521	5.06009	10.8981	-27.6657	7.83445	0.181578	0.0067919	46.1804	9.9558	1	10	0.00496885	0.000455939	0	-1.48032e-05	0.0812688	0.042605	0.0917595	27.6657	9955.8	18990.6	21442.1	-62.3343	0.0000000E+000	0.0000000E+000	0.0000000E+000	62.3343	0.0000000E+000	0.0000000E+000	0.0000000E+000	-62.3343	0.0000000E+000	0.0000000E+000	0.0000000E+000	-27.6657	0.0000000E+000	0.0000000E+000	0.0000000E+000	27.6657	1.9075	62.3343	5.67856e-07	1.23326e-06	26734.6
463.961	10.8629	5.9601	12.3905	-28.7521	8.30221	0.181585	0.00712359	57.5553	13.3172	1	10	0.00494778	0.000399319	0	-1.38031e-05	0.0707564	0.0388216	0.0807068	28.7521	13317.2	24272	27685.3	-61.2479	0.0000000E+000	0.0000000E+000	0.0000000E+000	61.2479	0.0000000E+000	0.0000000E+000	0.0000000E+000	-61.2479	0.0000000E+000	0.0000000E+000	0.0000000E+000	-28.7521	0.0000000E+000	0.0000000E+000	0.0000000E+000	28.7521	1.8226	61.2479	1.00011e-06	1.29354e-06	25490.7
316.316	12.432	6.90898	14.2228	-29.0628	8.76892	0.181579	0.0065925	72.8258	17.1848	1	10	0.00494019	0.000347343	0	-1.30559e-05	0.0614569	0.0341542	0.0703097	29.0628	17184.8	30922.1	35376.5	-60.9372	0.0000000E+000	0.0000000E+000	0.0000000E+000	60.9372	0.0000000E+000	0.0000000E+000	0.0000000E+000	-60.9372	0.0000000E+000	0.0000000E+000	0.0000000E+000	-29.0628	0.0000000E+000	0.0000000E+000	0.0000000E+000	29.0628	1.79939	60.9372	7.4717e-07	1.19706e-06	27543.3
215.345	14.4004	7.8762	16.4136	-28.6762	9.23644	0.181576	0.00671921	93.836	21.6072	1	10	0.00493368	0.000300586	0	-1.24638e-05	0.0534525	0.0292356	0.0609253	28.6762	21607.2	39505.2	45028.1	-61.3238	0.0000000E+000	0.0000000E+000	0.0000000E+000	61.3238	0.0000000E+000	0.0000000E+000	0.0000000E+000	-61.3238	0.0000000E+000	0.0000000E+000	0.0000000E+000	-28.6762	0.0000000E+000	0.0000000E+000	0.0000000E+000	28.6762	1.82834	61.3238	5.9206e-07	1.22005e-06	27023.4
146.737	16.7505	8.67047	18.8615	-27.3672	9.69937	0.181575	0.00577816	125.094	26.4343	1	10	0.00493452	0.000261618	0	-1.1636e-05	0.0470842	0.0243719	0.053018	27.3672	26434.3	51068.6	57504.6	-62.6328	0.0000000E+000	0.0000000E+000	0.0000000E+000	62.6328	0.0000000E+000	0.0000000E+000	0.0000000E+000	-62.6328	0.0000000E+000	0.0000000E+000	0.0000000E+000	-27.3672	0.0000000E+000	0.0000000E+000	0.0000000E+000	27.3672	1.9319	62.6328	8.27883e-07	1.04917e-06	31424.4
100.032	19.4842	9.05798	21.4867	-24.9332	10.1677	0.181579	0.00629061	175.651	31.2156	1	10	0.00493376	0.000229619	0	-1.06597e-05	0.0422028	0.0196196	0.0465403	24.9332	31215.6	67146.3	74047.5	-65.0668	0.0000000E+000	0.0000000E+000	0.0000000E+000	65.0668	0.0000000E+000	0.0000000E+000	0.0000000E+000	-65.0668	0.0000000E+000	0.0000000E+000	0.0000000E+000	-24.9332	0.0000000E+000	0.0000000E+000	0.0000000E+000	24.9332	2.15105	65.0668	9.76273e-07	1.14224e-06	28865
68.104	22.3308	9.06527	24.1007	-22.0949	10.9053	0.181601	-0.00304955	257.79	36.4728	1	11	0.00493764	0.000204875	0	-1.04417e-05	0.0384454	0.0156071	0.0414925	22.0949	36472.8	89844.7	96965.6	-67.9051	0.0000000E+000	0.0000000E+000	0.0000000E+000	67.9051	0.0000000E+000	0.0000000E+000	0.0000000E+000	-67.9051	0.0000000E+000	0.0000000E+000	0.0000000E+000	-22.0949	0.0000000E+000	0.0000000E+000	0.0000000E+000	22.0949	2.46334	67.9051	2.18016e-07	-5.53803e-07	59550.2
46.4415	25.0574	8.45873	26.4466	-18.6534	11.3605	0.181594	-0.00373792	405.143	41.4457	1	11	0.00493192	0.000186486	0	-1.07609e-05	0.0358258	0.0120939	0.037812	18.6534	41445.7	122775	129582	-71.3466	0.0000000E+000	0.0000000E+000	0.0000000E+000	71.3466	0.0000000E+000	0.0000000E+000	0.0000000E+000	-71.3466	0.0000000E+000	0.0000000E+000	0.0000000E+000	-18.6534	0.0000000E+000	0.0000000E+000	0.0000000E+000	18.6534	2.96231	71.3466	-3.19211e-07	-6.78782e-07	48581.5
31.6296	27.434	7.38864	28.4116	-15.0735	11.8074	0.18159	-0.003958	681.024	46.0576	1	11	0.00493324	0.000173635	0	-1.12664e-05	0.0339859	0.00915323	0.0351969	15.0735	46057.6	171012	177105	-74.9265	0.0000000E+000	0.0000000E+000	0.0000000E+000	74.9265	0.0000000E+000	0.0000000E+000	0.0000000E+000	-74.9265	0.0000000E+000	0.0000000E+000	0.0000000E+000	-15.0735	0.0000000E+000	0.0000000E+000	0.0000000E+000	15.0735	3.713	74.9265	-5.0557e-07	-7.18733e-07	45879.2
21.5517	29.1946	6.12835	29.8309	-11.8551	12.2464	0.181598	-0.00411068	1205.02	50.857	1	11	0.00492847	0.000165214	0	-1.11749e-05	0.0328073	0.00688672	0.0335223	11.8551	50856.9	242275	247555	-78.1449	0.0000000E+000	0.0000000E+000	0.0000000E+000	78.1449	0.0000000E+000	0.0000000E+000	0.0000000E+000	-78.1449	0.0000000E+000	0.0000000E+000	0.0000000E+000	-11.8551	0.0000000E+000	0.0000000E+000	0.0000000E+000	11.8551	4.76386	78.1449	9.15273e-08	-7.46492e-07	44177.1
14.6852	30.4941	4.89065	30.8838	-9.11151	12.724	0.181606	-0.00290525	2216.03	55.5709	1	11	0.00493562	0.000159813	0	-1.15445e-05	0.0319709	0.0051275	0.0323795	9.11151	55570.8	346495	350923	-80.8885	0.0000000E+000	0.0000000E+000	0.0000000E+000	80.8885	0.0000000E+000	0.0000000E+000	0.0000000E+000	-80.8885	0.0000000E+000	0.0000000E+000	0.0000000E+000	-9.11151	0.0000000E+000	0.0000000E+000	0.0000000E+000	9.11151	6.23519	80.8885	-3.69586e-07	-5.2761e-07	62509.4
10.0032	31.1752	3.89601	31.4177	-7.12341	13.1927	0.181589	-0.00320019	4083.77	62.799	1	11	0.00491087	0.000156309	0	-1.27777e-05	0.0315835	0.00394704	0.0318292	7.12341	62799	502507	506415	-82.8766	0.0000000E+000	0.0000000E+000	0.0000000E+000	82.8766	0.0000000E+000	0.0000000E+000	0.0000000E+000	-82.8766	0.0000000E+000	0.0000000E+000	0.0000000E+000	-7.12341	0.0000000E+000	0.0000000E+000	0.0000000E+000	7.12341	8.00183	82.8766	-1.23318e-06	-5.8112e-07	56743.3
6.81719	31.8727	3.06976	32.0202	-5.50138	13.5504	0.1816	-0.0036208	7605.19	69.8993	1	11	0.00493156	0.000154014	0	-1.26742e-05	0.0310865	0.00299404	0.0312303	5.50138	69899.3	725749	729107	-84.4986	0.0000000E+000	0.0000000E+000	0.0000000E+000	84.4986	0.0000000E+000	0.0000000E+000	0.0000000E+000	-84.4986	0.0000000E+000	0.0000000E+000	0.0000000E+000	-5.50138	0.0000000E+000	0.0000000E+000	0.0000000E+000	5.50138	10.3828	84.4986	1.03439e-07	-6.57538e-07	50154.6
4.63925	32.2248	2.55316	32.3257	-4.53007	14.0523	0.181598	-0.00269616	13436.7	83.8211	1	11	0.00493026	0.000152518	0	-1.45925e-05	0.0308385	0.00244333	0.0309351	4.53007	83821.1	1.05795e+06	1.06126e+06	-85.4699	0.0000000E+000	0.0000000E+000	0.0000000E+000	85.4699	0.0000000E+000	0.0000000E+000	0.0000000E+000	-85.4699	0.0000000E+000	0.0000000E+000	0.0000000E+000	-4.53007	0.0000000E+000	0.0000000E+000	0.0000000E+000	4.53007	12.6215	85.4699	-1.9182e-06	-4.89618e-07	67354.6
3.1604	32.6295	2.22865	32.7055	-3.90733	14.7602	0.181605	-0.00246434	22596.3	104.925	1	11	0.00493329	0.00015084	0	-1.28878e-05	0.0305048	0.00208353	0.0305759	3.90733	104925	1.5362e+06	1.53978e+06	-86.0927	0.0000000E+000	0.0000000E+000	0.0000000E+000	86.0927	0.0000000E+000	0.0000000E+000	0.0000000E+000	-86.0927	0.0000000E+000	0.0000000E+000	0.0000000E+000	-3.90733	0.0000000E+000	0.0000000E+000	0.0000000E+000	3.90733	14.6409	86.0927	1.70465e-06	-4.47536e-07	73692.9
2.15577	32.9511	2.0601	33.0155	-3.57747	15.7768	0.18162	-0.00124071	35836.8	139.531	1	11	0.00493645	0.000149519	0	-1.11067e-05	0.0302298	0.00188997	0.0302888	3.57747	139532	2.23179e+06	2.23615e+06	-86.4225	0.0000000E+000	0.0000000E+000	0.0000000E+000	86.4225	0.0000000E+000	0.0000000E+000	0.0000000E+000	-86.4225	0.0000000E+000	0.0000000E+000	0.0000000E+000	-3.57747	0.0000000E+000	0.0000000E+000	0.0000000E+000	3.57747	15.9949	86.4225	1.7811e-06	-2.25338e-07	146384
1.46631	33.2773	2.10205	33.3436	-3.61444	17.9821	0.18162	-0.00143925	51635.9	205.217	1	12	0.00493469	0.000147995	0	-1.40917e-05	0.0299311	0.00189068	0.0299908	3.61444	205217	3.24876e+06	3.25523e+06	-86.3856	0.0000000E+000	0.0000000E+000	0.0000000E+000	86.3856	0.0000000E+000	0.0000000E+000	0.0000000E+000	-86.3856	0.0000000E+000	0.0000000E+000	0.0000000E+000	-3.61444	0.0000000E+000	0.0000000E+000	0.0000000E+000	3.61444	15.8309	86.3856	-2.98502e-06	-2.61397e-07	126191
1.00006	33.6862	2.19046	33.7573	-3.72045	20.1222	0.181615	-0.00144108	72653.7	305.909	1	12	0.0049355	0.000146205	0	-1.99756e-05	0.0295608	0.0019222	0.0296232	3.72045	305909	4.70445e+06	4.71438e+06	-86.2796	0.0000000E+000	0.0000000E+000	0.0000000E+000	86.2796	0.0000000E+000	0.0000000E+000	0.0000000E+000	-86.2796	0.0000000E+000	0.0000000E+000	0.0000000E+000	-3.72045	0.0000000E+000	0.0000000E+000	0.0000000E+000	3.72045	15.3786	86.2796	-5.88383e-06	-2.61723e-07	126027
0.681362	34.2198	2.4129	34.3048	-4.03335	23.2421	0.181621	-0.00150134	96806.3	478.93	1	12	0.00493382	0.000143823	0	-2.49274e-05	0.0290783	0.00205036	0.0291505	4.03335	478930	6.7922e+06	6.80907e+06	-85.9667	0.0000000E+000	0.0000000E+000	0.0000000E+000	85.9667	0.0000000E+000	0.0000000E+000	0.0000000E+000	-85.9667	0.0000000E+000	0.0000000E+000	0.0000000E+000	-4.03335	0.0000000E+000	0.0000000E+000	0.0000000E+000	4.03335	14.182	85.9667	-4.95184e-06	-2.72675e-07	120973
0.464091	34.834	2.73942	34.9415	-4.49661	27.8069	0.181619	-0.00193084	125187	769.47	1	12	0.00493691	0.00014129	0	-2.47927e-05	0.0285311	0.00224375	0.0286192	4.49661	769470	9.78445e+06	9.81466e+06	-85.5034	0.0000000E+000	0.0000000E+000	0.0000000E+000	85.5034	0.0000000E+000	0.0000000E+000	0.0000000E+000	-85.5034	0.0000000E+000	0.0000000E+000	0.0000000E+000	-4.49661	0.0000000E+000	0.0000000E+000	0.0000000E+000	4.49661	12.7158	85.5034	1.34736e-07	-3.50677e-07	94062.4
0.316193	35.5031	3.01335	35.6308	-4.85139	34.489	0.181621	-0.00200275	167039	1194.72	1	12	0.0049355	0.000138518	0	-1.71712e-05	0.0279651	0.00237356	0.0280656	4.85139	1.19472e+06	1.40762e+07	1.41268e+07	-85.1486	0.0000000E+000	0.0000000E+000	0.0000000E+000	85.1486	0.0000000E+000	0.0000000E+000	0.0000000E+000	-85.1486	0.0000000E+000	0.0000000E+000	0.0000000E+000	-4.85139	0.0000000E+000	0.0000000E+000	0.0000000E+000	4.85139	11.7819	85.1486	7.62144e-06	-3.63742e-07	90685.4
0.215268	36.2652	3.28771	36.4139	-5.18012	44.2868	0.181617	-0.00169029	224879	1833.16	1	12	0.00493534	0.000135534	0	-3.84455e-06	0.0273499	0.00247947	0.027462	5.18012	1.83316e+06	2.02207e+07	2.03036e+07	-84.8199	0.0000000E+000	0.0000000E+000	0.0000000E+000	84.8199	0.0000000E+000	0.0000000E+000	0.0000000E+000	-84.8199	0.0000000E+000	0.0000000E+000	0.0000000E+000	-5.18012	0.0000000E+000	0.0000000E+000	0.0000000E+000	5.18012	11.0305	84.8199	1.33267e-05	-3.06985e-07	107447
0.146929	37.0761	3.64579	37.255	-5.61599	58.6224	0.181616	-0.000936437	297113	2845.36	1	12	0.00493408	0.000132441	0	8.79115e-06	0.0267132	0.00262678	0.0268421	5.61599	2.84536e+06	2.89361e+07	2.90756e+07	-84.384	0.0000000E+000	0.0000000E+000	0.0000000E+000	84.384	0.0000000E+000	0.0000000E+000	0.0000000E+000	-84.384	0.0000000E+000	0.0000000E+000	0.0000000E+000	-5.61599	0.0000000E+000	0.0000000E+000	0.0000000E+000	5.61599	10.1696	84.384	1.26357e-05	-1.70072e-07	193944
0.0999041	37.9012	4.25901	38.1397	-6.41152	79.6923	0.181615	-4.58416e-05	374048	4664.34	1	12	0.00493742	0.000129456	0	9.27185e-06	0.0260554	0.00292788	0.0262194	6.41152	4.66434e+06	4.15082e+07	4.17695e+07	-83.5885	0.0000000E+000	0.0000000E+000	0.0000000E+000	83.5885	0.0000000E+000	0.0000000E+000	0.0000000E+000	-83.5885	0.0000000E+000	0.0000000E+000	0.0000000E+000	-6.41152	0.0000000E+000	0.0000000E+000	0.0000000E+000	6.41152	8.89905	83.5885	4.80706e-07	-8.32552e-09	3.9618e+06
0.0680626	38.6942	5.22729	39.0457	-7.69365	110.604	0.181615	0.000413181	447337	8017.57	1	12	0.00493942	0.000126504	0	-1.27732e-05	0.0253805	0.00342871	0.025611	7.69365	8.01757e+06	5.93487e+07	5.98878e+07	-82.3064	0.0000000E+000	0.0000000E+000	0.0000000E+000	82.3064	0.0000000E+000	0.0000000E+000	0.0000000E+000	-82.3064	0.0000000E+000	0.0000000E+000	0.0000000E+000	-7.69365	0.0000000E+000	0.0000000E+000	0.0000000E+000	7.69365	7.40234	82.3064	-2.2045e-05	7.50399e-08	439553
0.0464052	39.5128	6.49547	40.0431	-9.33531	155.929	0.181616	0.000127041	528011	13893.4	1	12	0.00493217	0.000123172	0	-8.10228e-05	0.0246424	0.00405094	0.0249731	9.33531	1.38934e+07	8.45154e+07	8.56497e+07	-80.6647	0.0000000E+000	0.0000000E+000	0.0000000E+000	80.6647	0.0000000E+000	0.0000000E+000	0.0000000E+000	-80.6647	0.0000000E+000	0.0000000E+000	0.0000000E+000	-9.33531	0.0000000E+000	0.0000000E+000	0.0000000E+000	9.33531	6.08313	80.6647	-6.82496e-05	2.30727e-08	1.42959e+06
0.0315922	40.7271	8.34025	41.5723	-11.5732	222.49	0.181619	-0.000522335	604034	24311.5	1	12	0.00493472	0.000118702	0	-0.000191467	0.0235654	0.00482582	0.0240545	11.5732	2.43115e+07	1.18718e+08	1.21181e+08	-78.4268	0.0000000E+000	0.0000000E+000	0.0000000E+000	78.4268	0.0000000E+000	0.0000000E+000	0.0000000E+000	-78.4268	0.0000000E+000	0.0000000E+000	0.0000000E+000	-11.5732	0.0000000E+000	0.0000000E+000	0.0000000E+000	11.5732	4.8832	78.4268	-0.000110444	-9.48658e-08	347705
0.0215268	42.3901	11.1202	43.8244	-14.6992	320.159	0.181615	-0.00101427	664858	42807.5	1	12	0.00493601	0.000112631	0	-0.000298503	0.0220715	0.00579	0.0228183	14.6992	4.28075e+07	1.63182e+08	1.68704e+08	-75.3008	0.0000000E+000	0.0000000E+000	0.0000000E+000	75.3008	0.0000000E+000	0.0000000E+000	0.0000000E+000	-75.3008	0.0000000E+000	0.0000000E+000	0.0000000E+000	-14.6992	0.0000000E+000	0.0000000E+000	0.0000000E+000	14.6992	3.812	75.3008	-0.000107037	-1.84207e-07	179059
0.0146812	44.1947	14.9977	46.6701	-18.7449	463.354	0.181614	-0.00110153	722829	74645.8	1	12	0.00493459	0.000105733	0	-0.000312827	0.0202905	0.00688567	0.021427	18.7449	7.46458e+07	2.19964e+08	2.32285e+08	-71.2551	0.0000000E+000	0.0000000E+000	0.0000000E+000	71.2551	0.0000000E+000	0.0000000E+000	0.0000000E+000	-71.2551	0.0000000E+000	0.0000000E+000	0.0000000E+000	-18.7449	0.0000000E+000	0.0000000E+000	0.0000000E+000	18.7449	2.94677	71.2551	-1.43239e-05	-2.00053e-07	164875
0.0100092	46.3684	19.6422	50.3572	-22.9581	673.375	0.181609	-0.000804229	809528	123166	1	12	0.00493618	9.80233e-05	0	-0.000146924	0.0182852	0.00774581	0.0198581	22.9581	1.23166e+08	2.90751e+08	3.15762e+08	-67.0419	0.0000000E+000	0.0000000E+000	0.0000000E+000	67.0419	0.0000000E+000	0.0000000E+000	0.0000000E+000	-67.0419	0.0000000E+000	0.0000000E+000	0.0000000E+000	-22.9581	0.0000000E+000	0.0000000E+000	0.0000000E+000	22.9581	2.36065	67.0419	0.000165904	-1.46055e-07	225818