File: txt/17386_C02.mpt
EC-Lab ASCII FILE
Nb header lines : 64

Potentio Electrochemical Impedance Spectroscopy

Run on channel : 2 (SN 66139)
User :
CE vs. WE compliance from -10 V to 10 V
Electrode connection : standard
Potential control : Ewe
Ewe ctrl range : min = -10.00 V, max = 10.00 V
Safety Limits :
	Do not start on E overload
Acquisition started on : 09/11/2025 15:38:18.426
Technique started on : 09/11/2025 15:38:20.492
Loaded Setting File :  C:\Users\Celltest\OneDrive - store-dot.com\Documents\EC-Lab\Data\Charmaine\R279\17382_C01.mpr
Saved on :
	File : 17386_C02.mpr
	Directory : C:\Users\Celltest\OneDrive - store-dot.com\Documents\EC-Lab\Data\Charmaine\R279\
	Host : 169.254.61.224
Device : VMP-3e (SN .003165)
Address : USB
EC-LAB for windows v11.62 (software)
Internet server v27.00 (firmware)
Command interpretor v12.03 (firmware)
Electrode material :
Initial state :
Electrolyte :
Comments :
Electrode surface area : 0.001 cm²
Characteristic mass : 0.001 g
Equivalent Weight : 0.000 g/eq.
Density : 0.000 g/cm3
Volume (V) : 0.001 cm³
Cycle Definition : Charge/Discharge alternance
Mode                Single sine
E (V)               0.0000
vs.                 Eoc
tE (h:m:s)          0:00:0.0000
record              0
dI                  0.000
unit dI             mA
dt (s)              0.000
fi                  100.000
unit fi             kHz
ff                  10.000
unit ff             mHz
Nd                  6
Points              per decade
spacing             Logarithmic
Va (mV)             5.0
pw                  0.10
Na                  2
corr                0
E range min (V)     -10.000
E range max (V)     10.000
I Range             Auto
Bandwidth           5
nc cycles           0
goto Ns'            0
nr cycles           0
inc. cycle          0

freq/Hz	Re(Z)/Ohm	-Im(Z)/Ohm	|Z|/Ohm	Phase(Z)/deg	time/s	<Ewe>/V	<I>/mA	Cs/µF	Cp/µF	cycle number	I Range	|Ewe|/V	|I|/A	Ns	(Q-Qo)/mA.h	Re(Y)/Ohm-1	Im(Y)/Ohm-1	|Y|/Ohm-1	Phase(Y)/deg	Re(C)/nF	Im(C)/nF	|C|/nF	Phase(C)/deg	Re(M)	Im(M)	|M|	Phase(M)/deg	Re(Permittivity)	Im(Permittivity)	|Permittivity|	Phase(Permittivity)/deg	Re(Resistivity)/Ohm.cm	Im(Resistivity)/Ohm.cm	|Resistivity|/Ohm.cm	Phase(Resistivity)/deg	Re(Conductivity)/mS/cm	Im(Conductivity)/mS/cm	|Conductivity|/mS/cm	Phase(Conductivity)/deg	Tan(Delta)	Loss Angle(Delta)/deg	dq/mA.h	Pwe/W	Rwe/Ohm
100004	1.97374	0.784546	2.12395	-21.6774	2.06649	0.188096	-0.0188814	2.02855	0.276779	1	9	0.00469084	0.00220855	0	-8.78215e-06	0.437523	0.173912	0.470821	21.6774	276.779	696.314	749.307	-68.3226	0.0000000E+000	0.0000000E+000	0.0000000E+000	68.3226	0.0000000E+000	0.0000000E+000	0.0000000E+000	-68.3226	0.0000000E+000	0.0000000E+000	0.0000000E+000	-21.6774	0.0000000E+000	0.0000000E+000	0.0000000E+000	21.6774	2.51578	68.3226	-8.78215e-06	-3.55152e-06	9961.99
68132	2.15682	0.857298	2.32096	-21.6769	2.64548	0.188091	-0.0181365	2.72481	0.371762	1	9	0.00507218	0.00218538	0	-4.8285e-06	0.400387	0.159146	0.430856	21.6769	371.762	935.295	1006.47	-68.3231	0.0000000E+000	0.0000000E+000	0.0000000E+000	68.3231	0.0000000E+000	0.0000000E+000	0.0000000E+000	-68.3231	0.0000000E+000	0.0000000E+000	0.0000000E+000	-21.6769	0.0000000E+000	0.0000000E+000	0.0000000E+000	21.6769	2.51584	68.3231	3.95366e-06	-3.4113e-06	10370.8
46420.4	2.35929	0.94509	2.54154	-21.8302	3.2245	0.188088	-0.0227736	3.62776	0.501637	1	9	0.00511902	0.00201414	0	-1.06304e-05	0.365247	0.146311	0.393462	21.8302	501.637	1252.27	1349.01	-68.1698	0.0000000E+000	0.0000000E+000	0.0000000E+000	68.1698	0.0000000E+000	0.0000000E+000	0.0000000E+000	-68.1698	0.0000000E+000	0.0000000E+000	0.0000000E+000	-21.8302	0.0000000E+000	0.0000000E+000	0.0000000E+000	21.8302	2.49636	68.1698	-5.80194e-06	-4.28345e-06	8259.04
31621.1	2.56656	1.07134	2.78119	-22.6568	3.66149	0.188082	-0.0196822	4.69801	0.697124	1	9	0.00536974	0.00193073	0	-1.03008e-05	0.331811	0.138506	0.359558	22.6568	697.123	1670.06	1809.72	-67.3432	0.0000000E+000	0.0000000E+000	0.0000000E+000	67.3432	0.0000000E+000	0.0000000E+000	0.0000000E+000	-67.3432	0.0000000E+000	0.0000000E+000	0.0000000E+000	-22.6568	0.0000000E+000	0.0000000E+000	0.0000000E+000	22.6568	2.39565	67.3432	3.29604e-07	-3.70188e-06	9555.96
21544.7	2.80046	1.22021	3.05475	-23.5435	4.09848	0.188081	-0.022457	6.05406	0.965968	1	9	0.00512498	0.00167771	0	-1.26303e-05	0.300109	0.130762	0.327359	23.5435	965.968	2216.97	2418.27	-66.4565	0.0000000E+000	0.0000000E+000	0.0000000E+000	66.4565	0.0000000E+000	0.0000000E+000	0.0000000E+000	-66.4565	0.0000000E+000	0.0000000E+000	0.0000000E+000	-23.5435	0.0000000E+000	0.0000000E+000	0.0000000E+000	23.5435	2.29507	66.4565	-2.32943e-06	-4.22374e-06	8375.15
14678.6	3.05924	1.38863	3.35965	-24.414	4.39549	0.188073	-0.0230343	7.80814	1.33393	1	9	0.00491425	0.00146272	0	-1.41363e-05	0.271035	0.123026	0.29765	24.414	1333.93	2938.74	3227.31	-65.586	0.0000000E+000	0.0000000E+000	0.0000000E+000	65.586	0.0000000E+000	0.0000000E+000	0.0000000E+000	-65.586	0.0000000E+000	0.0000000E+000	0.0000000E+000	-24.414	0.0000000E+000	0.0000000E+000	0.0000000E+000	24.414	2.20306	65.586	-1.50606e-06	-4.33214e-06	8164.91
10002.2	3.3386	1.61191	3.70736	-25.7718	4.69149	0.188079	-0.0244124	9.87146	1.86611	1	9	0.00469504	0.00126641	0	-1.56063e-05	0.242904	0.117277	0.269734	25.7718	1866.11	3865.08	4291.99	-64.2282	0.0000000E+000	0.0000000E+000	0.0000000E+000	64.2282	0.0000000E+000	0.0000000E+000	0.0000000E+000	-64.2282	0.0000000E+000	0.0000000E+000	0.0000000E+000	-25.7718	0.0000000E+000	0.0000000E+000	0.0000000E+000	25.7718	2.0712	64.2282	-1.47002e-06	-4.59146e-06	7704.22
6811.07	3.71155	1.88386	4.16228	-26.9109	5.27752	0.188086	-0.0190226	12.4038	2.54093	1	10	0.00468117	0.00112466	0	-1.93171e-05	0.214236	0.108739	0.240253	26.9109	2540.93	5006.09	5614.02	-63.0891	0.0000000E+000	0.0000000E+000	0.0000000E+000	63.0891	0.0000000E+000	0.0000000E+000	0.0000000E+000	-63.0891	0.0000000E+000	0.0000000E+000	0.0000000E+000	-26.9109	0.0000000E+000	0.0000000E+000	0.0000000E+000	26.9109	1.97018	63.0891	-3.71078e-06	-3.57788e-06	9887.53
4641.49	4.10468	2.22167	4.66736	-28.4245	5.74871	0.188098	-0.00890116	15.4342	3.49704	1	10	0.00466825	0.00100019	0	-1.96233e-05	0.188425	0.101985	0.214254	28.4245	3497.04	6461.01	7346.7	-61.5755	0.0000000E+000	0.0000000E+000	0.0000000E+000	61.5755	0.0000000E+000	0.0000000E+000	0.0000000E+000	-61.5755	0.0000000E+000	0.0000000E+000	0.0000000E+000	-28.4245	0.0000000E+000	0.0000000E+000	0.0000000E+000	28.4245	1.84757	61.5755	-3.06177e-07	-1.67429e-06	21131.8
3161.01	4.59539	2.63139	5.29545	-29.7961	6.21471	0.188105	-0.00860128	19.1341	4.72469	1	10	0.00458138	0.000865153	0	-2.12145e-05	0.163876	0.0938382	0.188841	29.7961	4724.69	8251.07	9508.04	-60.2039	0.0000000E+000	0.0000000E+000	0.0000000E+000	60.2039	0.0000000E+000	0.0000000E+000	0.0000000E+000	-60.2039	0.0000000E+000	0.0000000E+000	0.0000000E+000	-29.7961	0.0000000E+000	0.0000000E+000	0.0000000E+000	29.7961	1.74637	60.2039	-1.59117e-06	-1.61794e-06	21869.4
2155.69	5.14645	3.13356	6.02538	-31.3363	6.90471	0.188101	-0.00850256	23.5611	6.37241	1	10	0.00499422	0.000828864	0	-2.34102e-05	0.141755	0.0863118	0.165965	31.3363	6372.41	10465.8	12253.2	-58.6637	0.0000000E+000	0.0000000E+000	0.0000000E+000	58.6637	0.0000000E+000	0.0000000E+000	0.0000000E+000	-58.6637	0.0000000E+000	0.0000000E+000	0.0000000E+000	-31.3363	0.0000000E+000	0.0000000E+000	0.0000000E+000	31.3363	1.64236	58.6637	-2.19576e-06	-1.59934e-06	22122.8
1468.59	5.83038	3.74716	6.93069	-32.7287	7.37195	0.188089	-0.0082921	28.9213	8.45412	1	10	0.00491889	0.000709726	0	-2.42262e-05	0.121379	0.0780098	0.144286	32.7287	8454.12	13154.2	15636.6	-57.2713	0.0000000E+000	0.0000000E+000	0.0000000E+000	57.2713	0.0000000E+000	0.0000000E+000	0.0000000E+000	-57.2713	0.0000000E+000	0.0000000E+000	0.0000000E+000	-32.7287	0.0000000E+000	0.0000000E+000	0.0000000E+000	32.7287	1.55595	57.2713	-8.15976e-07	-1.55965e-06	22682.9
1000.32	6.66183	4.50818	8.04386	-34.0869	7.84067	0.188096	-0.00880804	35.2923	11.0854	1	10	0.00487106	0.000605562	0	-2.53275e-05	0.102959	0.0696742	0.124318	34.0869	11085.4	16381.2	19779.6	-55.9131	0.0000000E+000	0.0000000E+000	0.0000000E+000	55.9131	0.0000000E+000	0.0000000E+000	0.0000000E+000	-55.9131	0.0000000E+000	0.0000000E+000	0.0000000E+000	-34.0869	0.0000000E+000	0.0000000E+000	0.0000000E+000	34.0869	1.47772	55.9131	-1.10132e-06	-1.65675e-06	21355
681.09	7.70551	5.40937	9.41468	-35.0694	8.30641	0.188102	-0.00865345	43.1985	14.2611	1	10	0.00483525	0.000513586	0	-2.60281e-05	0.0869341	0.061029	0.106217	35.0694	14261.1	20314.5	24820.5	-54.9306	0.0000000E+000	0.0000000E+000	0.0000000E+000	54.9306	0.0000000E+000	0.0000000E+000	0.0000000E+000	-54.9306	0.0000000E+000	0.0000000E+000	0.0000000E+000	-35.0694	0.0000000E+000	0.0000000E+000	0.0000000E+000	35.0694	1.42447	54.9306	-7.006e-07	-1.62773e-06	21737.2
463.961	9.05002	6.44401	11.1098	-35.4525	8.77521	0.188111	-0.00814868	53.2332	17.9094	1	10	0.00481818	0.000433686	0	-2.7258e-05	0.0733222	0.0522086	0.0900105	35.4525	17909.4	25152.1	30876.8	-54.5475	0.0000000E+000	0.0000000E+000	0.0000000E+000	54.5475	0.0000000E+000	0.0000000E+000	0.0000000E+000	-54.5475	0.0000000E+000	0.0000000E+000	0.0000000E+000	-35.4525	0.0000000E+000	0.0000000E+000	0.0000000E+000	35.4525	1.40441	54.5475	-1.22983e-06	-1.53285e-06	23084.8
316.316	10.7409	7.58809	13.1509	-35.2398	9.24192	0.188103	-0.00906323	66.3081	22.0759	1	10	0.00479938	0.000364946	0	-2.85293e-05	0.0621054	0.0438752	0.0760402	35.2398	22075.9	31248.4	38259.8	-54.7602	0.0000000E+000	0.0000000E+000	0.0000000E+000	54.7602	0.0000000E+000	0.0000000E+000	0.0000000E+000	-54.7602	0.0000000E+000	0.0000000E+000	0.0000000E+000	-35.2398	0.0000000E+000	0.0000000E+000	0.0000000E+000	35.2398	1.4155	54.7602	-1.27137e-06	-1.70482e-06	20754.6
215.345	12.9034	8.68597	15.5545	-33.9467	9.70944	0.1881	-0.00921223	85.0879	26.5333	1	10	0.00479518	0.000308283	0	-2.95018e-05	0.0533323	0.0359009	0.06429	33.9467	26533.3	39416.3	47514.9	-56.0533	0.0000000E+000	0.0000000E+000	0.0000000E+000	56.0533	0.0000000E+000	0.0000000E+000	0.0000000E+000	-56.0533	0.0000000E+000	0.0000000E+000	0.0000000E+000	-33.9467	0.0000000E+000	0.0000000E+000	0.0000000E+000	33.9467	1.48554	56.0533	-9.72498e-07	-1.73282e-06	20418.5
146.737	15.5825	9.57759	18.2906	-31.5765	10.1724	0.188099	-0.00978219	113.246	31.0514	1	10	0.00479056	0.000261915	0	-3.06351e-05	0.0465782	0.0286287	0.054673	31.5765	31051.4	50519.9	59299.7	-58.4235	0.0000000E+000	0.0000000E+000	0.0000000E+000	58.4235	0.0000000E+000	0.0000000E+000	0.0000000E+000	-58.4235	0.0000000E+000	0.0000000E+000	0.0000000E+000	-31.5765	0.0000000E+000	0.0000000E+000	0.0000000E+000	31.5765	1.62697	58.4236	-1.13323e-06	-1.84002e-06	19228.7
100.032	18.5445	10.1026	21.1178	-28.5804	10.6407	0.188098	-0.00859944	157.488	36.0426	1	10	0.00478663	0.000226663	0	-3.16518e-05	0.0415832	0.0226535	0.0473534	28.5804	36042.6	66160.6	75341.2	-61.4196	0.0000000E+000	0.0000000E+000	0.0000000E+000	61.4196	0.0000000E+000	0.0000000E+000	0.0000000E+000	-61.4196	0.0000000E+000	0.0000000E+000	0.0000000E+000	-28.5804	0.0000000E+000	0.0000000E+000	0.0000000E+000	28.5804	1.83562	61.4196	-1.01677e-06	-1.61754e-06	21873.3
68.104	21.8933	9.96051	24.0526	-24.4635	11.3783	0.18814	-0.00686715	234.621	40.235	1	11	0.00480114	0.00019961	0	-3.28563e-05	0.0378431	0.0172169	0.0415755	24.4635	40235	88437	97159.4	-65.5365	0.0000000E+000	0.0000000E+000	0.0000000E+000	65.5365	0.0000000E+000	0.0000000E+000	0.0000000E+000	-65.5365	0.0000000E+000	0.0000000E+000	0.0000000E+000	-24.4635	0.0000000E+000	0.0000000E+000	0.0000000E+000	24.4635	2.19801	65.5365	-1.20447e-06	-1.29199e-06	27397.1
46.4415	24.849	9.13359	26.4744	-20.1816	11.8336	0.188128	-0.00740182	375.208	44.6584	1	11	0.00479051	0.000180949	0	-3.38996e-05	0.0354533	0.0130313	0.0377724	20.1816	44658.4	121498	129446	-69.8184	0.0000000E+000	0.0000000E+000	0.0000000E+000	69.8184	0.0000000E+000	0.0000000E+000	0.0000000E+000	-69.8184	0.0000000E+000	0.0000000E+000	0.0000000E+000	-20.1816	0.0000000E+000	0.0000000E+000	0.0000000E+000	20.1816	2.72061	69.8184	-1.04329e-06	-1.39249e-06	25416.4
31.6296	27.3146	7.77831	28.4005	-15.8952	12.2804	0.18812	-0.00749299	646.907	48.5244	1	11	0.00478898	0.000168623	0	-3.47044e-05	0.0338643	0.00964346	0.0352106	15.8952	48524.4	170400	177174	-74.1048	0.0000000E+000	0.0000000E+000	0.0000000E+000	74.1048	0.0000000E+000	0.0000000E+000	0.0000000E+000	-74.1048	0.0000000E+000	0.0000000E+000	0.0000000E+000	-15.8952	0.0000000E+000	0.0000000E+000	0.0000000E+000	15.8952	3.51163	74.1048	-8.04791e-07	-1.40958e-06	25106.2
21.5517	29.0837	6.3408	29.7669	-12.2991	12.7193	0.188121	-0.00768109	1164.65	52.8462	1	11	0.00478423	0.000160723	0	-3.59738e-05	0.0328233	0.00715609	0.0335943	12.2991	52846.2	242393	248087	-77.7009	0.0000000E+000	0.0000000E+000	0.0000000E+000	77.7009	0.0000000E+000	0.0000000E+000	0.0000000E+000	-77.7009	0.0000000E+000	0.0000000E+000	0.0000000E+000	-12.2991	0.0000000E+000	0.0000000E+000	0.0000000E+000	12.2991	4.58676	77.7009	-1.2694e-06	-1.44497e-06	24491.4
14.6852	30.2672	5.04902	30.6855	-9.47058	13.197	0.188131	-0.00678662	2146.52	58.1144	1	11	0.00478308	0.000155875	0	-3.70082e-05	0.0321446	0.00536219	0.0325887	9.47058	58114.4	348377	353191	-80.5294	0.0000000E+000	0.0000000E+000	0.0000000E+000	80.5294	0.0000000E+000	0.0000000E+000	0.0000000E+000	-80.5294	0.0000000E+000	0.0000000E+000	0.0000000E+000	-9.47058	0.0000000E+000	0.0000000E+000	0.0000000E+000	9.47058	5.99467	80.5294	-1.03445e-06	-1.27678e-06	27720.9
10.0032	31.107	3.98026	31.3606	-7.29158	13.6657	0.188135	-0.0069421	3997.33	64.3906	1	11	0.00478828	0.000152684	0	-3.79436e-05	0.0316292	0.00404707	0.0318871	7.29158	64390.6	503234	507337	-82.7084	0.0000000E+000	0.0000000E+000	0.0000000E+000	82.7084	0.0000000E+000	0.0000000E+000	0.0000000E+000	-82.7084	0.0000000E+000	0.0000000E+000	0.0000000E+000	-7.29158	0.0000000E+000	0.0000000E+000	0.0000000E+000	7.29158	7.81533	82.7084	-9.35377e-07	-1.30605e-06	27100.5
6.81719	31.6588	3.23114	31.8233	-5.8275	14.0234	0.188129	-0.0077098	7225.36	74.4869	1	11	0.0047828	0.000150292	0	-3.7634e-05	0.0312612	0.00319055	0.0314235	5.8275	74486.9	729826	733618	-84.1725	0.0000000E+000	0.0000000E+000	0.0000000E+000	84.1725	0.0000000E+000	0.0000000E+000	0.0000000E+000	-84.1725	0.0000000E+000	0.0000000E+000	0.0000000E+000	-5.8275	0.0000000E+000	0.0000000E+000	0.0000000E+000	5.8275	9.79805	84.1725	3.09563e-07	-1.45044e-06	24401.3
4.63925	32.0536	2.75379	32.1717	-4.91035	14.5253	0.188138	-0.00597064	12457.8	91.2759	1	11	0.0047865	0.00014878	0	-3.84974e-05	0.0309692	0.00266063	0.0310832	4.91035	91275.9	1.06243e+06	1.06635e+06	-85.0897	0.0000000E+000	0.0000000E+000	0.0000000E+000	85.0897	0.0000000E+000	0.0000000E+000	0.0000000E+000	-85.0897	0.0000000E+000	0.0000000E+000	0.0000000E+000	-4.91035	0.0000000E+000	0.0000000E+000	0.0000000E+000	4.91035	11.6398	85.0897	-8.63405e-07	-1.1233e-06	31510.5
3.1604	32.4412	2.45656	32.5341	-4.33036	15.2343	0.188139	-0.00577852	20499.9	116.877	1	11	0.00479006	0.000147232	0	-4.20461e-05	0.0306492	0.00232086	0.030737	4.33036	116877	1.54347e+06	1.54789e+06	-85.6696	0.0000000E+000	0.0000000E+000	0.0000000E+000	85.6696	0.0000000E+000	0.0000000E+000	0.0000000E+000	-85.6696	0.0000000E+000	0.0000000E+000	0.0000000E+000	-4.33036	0.0000000E+000	0.0000000E+000	0.0000000E+000	4.33036	13.206	85.6696	-3.54867e-06	-1.08716e-06	32558.3
2.15577	32.8552	2.42888	32.9449	-4.22801	16.2508	0.188151	-0.00511019	30395.6	165.215	1	11	0.0047884	0.000145346	0	-4.31806e-05	0.0302711	0.00223785	0.0303537	4.22801	165215	2.23484e+06	2.24094e+06	-85.772	0.0000000E+000	0.0000000E+000	0.0000000E+000	85.772	0.0000000E+000	0.0000000E+000	0.0000000E+000	-85.772	0.0000000E+000	0.0000000E+000	0.0000000E+000	-4.22801	0.0000000E+000	0.0000000E+000	0.0000000E+000	4.22801	13.5269	85.772	-1.1345e-06	-9.61485e-07	36818.7
1.46631	33.2966	2.52517	33.3922	-4.33693	18.4561	0.188149	-0.00453285	42983.8	245.807	1	12	0.00478918	0.000143422	0	-4.1793e-05	0.0298614	0.00226465	0.0299471	4.33693	245807	3.24119e+06	3.2505e+06	-85.6631	0.0000000E+000	0.0000000E+000	0.0000000E+000	85.6631	0.0000000E+000	0.0000000E+000	0.0000000E+000	-85.6631	0.0000000E+000	0.0000000E+000	0.0000000E+000	-4.33693	0.0000000E+000	0.0000000E+000	0.0000000E+000	4.33693	13.1859	85.6631	1.38759e-06	-8.52852e-07	41508
1.00006	33.8786	2.65878	33.9827	-4.48736	20.5962	0.188153	-0.0040815	59856.4	366.402	1	12	0.00479142	0.000140996	0	-4.18939e-05	0.0293365	0.00230232	0.0294267	4.48736	366402	4.66875e+06	4.68311e+06	-85.5126	0.0000000E+000	0.0000000E+000	0.0000000E+000	85.5126	0.0000000E+000	0.0000000E+000	0.0000000E+000	-85.5126	0.0000000E+000	0.0000000E+000	0.0000000E+000	-4.48736	0.0000000E+000	0.0000000E+000	0.0000000E+000	4.48736	12.7422	85.5126	-1.00838e-07	-7.67946e-07	46098.9
0.681362	34.5388	2.9164	34.6618	-4.82651	23.7162	0.188149	-0.00364359	80093.1	567.006	1	12	0.00479206	0.000138252	0	-4.6945e-05	0.0287479	0.00242742	0.0288502	4.82651	567006	6.71504e+06	6.73894e+06	-85.1735	0.0000000E+000	0.0000000E+000	0.0000000E+000	85.1735	0.0000000E+000	0.0000000E+000	0.0000000E+000	-85.1735	0.0000000E+000	0.0000000E+000	0.0000000E+000	-4.82651	0.0000000E+000	0.0000000E+000	0.0000000E+000	4.82651	11.843	85.1735	-5.05118e-06	-6.85538e-07	51638.3
0.464091	35.251	3.13382	35.39	-5.08024	28.281	0.188152	-0.00307698	109432	858.082	1	12	0.00478954	0.000135336	0	-5.92576e-05	0.0281455	0.00250214	0.0282565	5.08024	858082	9.65222e+06	9.69028e+06	-84.9198	0.0000000E+000	0.0000000E+000	0.0000000E+000	84.9198	0.0000000E+000	0.0000000E+000	0.0000000E+000	-84.9198	0.0000000E+000	0.0000000E+000	0.0000000E+000	-5.08024	0.0000000E+000	0.0000000E+000	0.0000000E+000	5.08024	11.2486	84.9198	-1.23125e-05	-5.78939e-07	61148.1
0.316193	36.1156	3.30209	36.2663	-5.22409	34.9632	0.188155	-0.00292067	152433	1263.72	1	12	0.00479155	0.000132122	0	-7.68446e-05	0.0274593	0.00251063	0.0275738	5.22409	1.26372e+06	1.38216e+07	1.38792e+07	-84.7759	0.0000000E+000	0.0000000E+000	0.0000000E+000	84.7759	0.0000000E+000	0.0000000E+000	0.0000000E+000	-84.7759	0.0000000E+000	0.0000000E+000	0.0000000E+000	-5.22409	0.0000000E+000	0.0000000E+000	0.0000000E+000	5.22409	10.9372	84.7759	-1.75871e-05	-5.49539e-07	64422.1
0.215268	36.9598	3.44973	37.1204	-5.33238	44.7609	0.188151	-0.0031326	214317	1850.97	1	12	0.0047891	0.000129015	0	-9.46396e-05	0.0268227	0.00250356	0.0269393	5.33238	1.85097e+06	1.9831e+07	1.99172e+07	-84.6676	0.0000000E+000	0.0000000E+000	0.0000000E+000	84.6676	0.0000000E+000	0.0000000E+000	0.0000000E+000	-84.6676	0.0000000E+000	0.0000000E+000	0.0000000E+000	-5.33238	0.0000000E+000	0.0000000E+000	0.0000000E+000	5.33238	10.7138	84.6676	-1.7795e-05	-5.89402e-07	60062.1
0.146929	37.7088	3.71386	37.8913	-5.62479	59.0976	0.188149	-0.00336195	291668	2801.95	1	12	0.00479075	0.000126434	0	-0.000104907	0.0262642	0.0025867	0.0263913	5.62479	2.80195e+06	2.84497e+07	2.85874e+07	-84.3752	0.0000000E+000	0.0000000E+000	0.0000000E+000	84.3752	0.0000000E+000	0.0000000E+000	0.0000000E+000	-84.3752	0.0000000E+000	0.0000000E+000	0.0000000E+000	-5.62479	0.0000000E+000	0.0000000E+000	0.0000000E+000	5.62479	10.1536	84.3752	-1.02678e-05	-6.32549e-07	55964.2
0.0999041	38.3223	4.20899	38.5528	-6.26775	80.1676	0.188149	-0.00314305	378494	4511.32	1	12	0.00479071	0.000124264	0	-9.93369e-05	0.0257834	0.00283183	0.0259385	6.26775	4.51132e+06	4.1075e+07	4.1322e+07	-83.7322	0.0000000E+000	0.0000000E+000	0.0000000E+000	83.7322	0.0000000E+000	0.0000000E+000	0.0000000E+000	-83.7322	0.0000000E+000	0.0000000E+000	0.0000000E+000	-6.26775	0.0000000E+000	0.0000000E+000	0.0000000E+000	6.26775	9.10487	83.7322	5.57052e-06	-5.9136e-07	59861.9
0.0680626	38.9192	4.95514	39.2334	-7.25578	111.08	0.188145	-0.00265921	471906	7527.58	1	12	0.00479062	0.000122106	0	-7.57307e-05	0.0252844	0.00321917	0.0254885	7.25578	7.52758e+06	5.9124e+07	5.96013e+07	-82.7442	0.0000000E+000	0.0000000E+000	0.0000000E+000	82.7442	0.0000000E+000	0.0000000E+000	0.0000000E+000	-82.7442	0.0000000E+000	0.0000000E+000	0.0000000E+000	-7.25578	0.0000000E+000	0.0000000E+000	0.0000000E+000	7.25578	7.85431	82.7442	2.36062e-05	-5.00319e-07	70752.3
0.0464052	39.6613	6.04199	40.1188	-8.66184	156.403	0.188143	-0.00120607	567640	12874.7	1	12	0.00478839	0.000119355	0	-2.93575e-05	0.0246417	0.00375391	0.024926	8.66184	1.28747e+07	8.4513e+07	8.5488e+07	-81.3382	0.0000000E+000	0.0000000E+000	0.0000000E+000	81.3382	0.0000000E+000	0.0000000E+000	0.0000000E+000	-81.3382	0.0000000E+000	0.0000000E+000	0.0000000E+000	-8.66184	0.0000000E+000	0.0000000E+000	0.0000000E+000	8.66184	6.56427	81.3382	4.63733e-05	-2.26914e-07	155997
0.0315922	40.704	7.89035	41.4617	-10.9706	222.963	0.188142	-0.00023234	638475	23122.9	1	12	0.00478908	0.000115506	0	6.68141e-06	0.0236779	0.00458989	0.0241186	10.9706	2.31229e+07	1.19284e+08	1.21505e+08	-79.0294	0.0000000E+000	0.0000000E+000	0.0000000E+000	79.0294	0.0000000E+000	0.0000000E+000	0.0000000E+000	-79.0294	0.0000000E+000	0.0000000E+000	0.0000000E+000	-10.9706	0.0000000E+000	0.0000000E+000	0.0000000E+000	10.9706	5.15871	79.0294	3.60389e-05	-4.3713e-08	809772
0.0215268	41.8535	10.5861	43.1716	-14.1943	320.632	0.18814	0.000135722	698400	41993.5	1	12	0.00479029	0.000110959	0	-2.9654e-05	0.0224562	0.0056799	0.0231634	14.1943	4.19935e+07	1.66026e+08	1.71255e+08	-75.8057	0.0000000E+000	0.0000000E+000	0.0000000E+000	75.8057	0.0000000E+000	0.0000000E+000	0.0000000E+000	-75.8057	0.0000000E+000	0.0000000E+000	0.0000000E+000	-14.1943	0.0000000E+000	0.0000000E+000	0.0000000E+000	14.1943	3.95362	75.8057	-3.63354e-05	2.55347e-08	1.38621e+06
0.0146812	43.1849	13.8847	45.3621	-17.8236	463.828	0.188143	5.48832e-06	780767	73149.4	1	12	0.00478981	0.000105591	0	-0.000198008	0.0209868	0.00674764	0.0220448	17.8236	7.31494e+07	2.27512e+08	2.38983e+08	-72.1764	0.0000000E+000	0.0000000E+000	0.0000000E+000	72.1764	0.0000000E+000	0.0000000E+000	0.0000000E+000	-72.1764	0.0000000E+000	0.0000000E+000	0.0000000E+000	-17.8236	0.0000000E+000	0.0000000E+000	0.0000000E+000	17.8236	3.11024	72.1764	-0.000168354	1.03259e-09	3.42806e+07
0.0100092	45.2923	18.0132	48.7429	-21.6883	673.85	0.18814	-0.000343098	882734	120557	1	12	0.00478879	9.82459e-05	0	-0.000503544	0.0190635	0.00758175	0.0205158	21.6883	1.20557e+08	3.03126e+08	3.2622e+08	-68.3117	0.0000000E+000	0.0000000E+000	0.0000000E+000	68.3117	0.0000000E+000	0.0000000E+000	0.0000000E+000	-68.3117	0.0000000E+000	0.0000000E+000	0.0000000E+000	-21.6883	0.0000000E+000	0.0000000E+000	0.0000000E+000	21.6883	2.51439	68.3117	-0.000305535	-6.45505e-08	548358