File: txt/17383_C02.mpt
EC-Lab ASCII FILE
Nb header lines : 64

Potentio Electrochemical Impedance Spectroscopy

Run on channel : 2 (SN 66139)
User :
CE vs. WE compliance from -10 V to 10 V
Electrode connection : standard
Potential control : Ewe
Ewe ctrl range : min = -10.00 V, max = 10.00 V
Safety Limits :
	Do not start on E overload
Acquisition started on : 09/10/2025 16:53:18.999
Technique started on : 09/10/2025 16:53:20.863
Loaded Setting File :  C:\Users\Celltest\OneDrive - store-dot.com\Documents\EC-Lab\Data\Charmaine\R279\17382_C01.mpr
Saved on :
	File : 17383_C02.mpr
	Directory : C:\Users\Celltest\OneDrive - store-dot.com\Documents\EC-Lab\Data\Charmaine\R279\
	Host : 169.254.61.224
Device : VMP-3e (SN .003165)
Address : USB
EC-LAB for windows v11.62 (software)
Internet server v27.00 (firmware)
Command interpretor v12.03 (firmware)
Electrode material :
Initial state :
Electrolyte :
Comments :
Electrode surface area : 0.001 cm²
Characteristic mass : 0.001 g
Equivalent Weight : 0.000 g/eq.
Density : 0.000 g/cm3
Volume (V) : 0.001 cm³
Cycle Definition : Charge/Discharge alternance
Mode                Single sine
E (V)               0.0000
vs.                 Eoc
tE (h:m:s)          0:00:0.0000
record              0
dI                  0.000
unit dI             mA
dt (s)              0.000
fi                  100.000
unit fi             kHz
ff                  10.000
unit ff             mHz
Nd                  6
Points              per decade
spacing             Logarithmic
Va (mV)             5.0
pw                  0.10
Na                  2
corr                0
E range min (V)     -10.000
E range max (V)     10.000
I Range             Auto
Bandwidth           5
nc cycles           0
goto Ns'            0
nr cycles           0
inc. cycle          0

freq/Hz	Re(Z)/Ohm	-Im(Z)/Ohm	|Z|/Ohm	Phase(Z)/deg	time/s	<Ewe>/V	<I>/mA	Cs/µF	Cp/µF	cycle number	I Range	|Ewe|/V	|I|/A	Ns	(Q-Qo)/mA.h	Re(Y)/Ohm-1	Im(Y)/Ohm-1	|Y|/Ohm-1	Phase(Y)/deg	Re(C)/nF	Im(C)/nF	|C|/nF	Phase(C)/deg	Re(M)	Im(M)	|M|	Phase(M)/deg	Re(Permittivity)	Im(Permittivity)	|Permittivity|	Phase(Permittivity)/deg	Re(Resistivity)/Ohm.cm	Im(Resistivity)/Ohm.cm	|Resistivity|/Ohm.cm	Phase(Resistivity)/deg	Re(Conductivity)/mS/cm	Im(Conductivity)/mS/cm	|Conductivity|/mS/cm	Phase(Conductivity)/deg	Tan(Delta)	Loss Angle(Delta)/deg	dq/mA.h	Pwe/W	Rwe/Ohm
100004	2.65805	0.992876	2.83744	-20.4824	1.86448	0.186171	-0.0321037	1.60291	0.196267	1	9	0.00459029	0.00161776	0	-7.01646e-06	0.33015	0.123323	0.352431	20.4824	196.267	525.431	560.89	-69.5176	0.0000000E+000	0.0000000E+000	0.0000000E+000	69.5176	0.0000000E+000	0.0000000E+000	0.0000000E+000	-69.5176	0.0000000E+000	0.0000000E+000	0.0000000E+000	-20.4824	0.0000000E+000	0.0000000E+000	0.0000000E+000	20.4824	2.67712	69.5176	-7.01646e-06	-5.97678e-06	5799.05
68132	2.89394	1.05592	3.08056	-20.0457	2.44248	0.186185	-0.0233509	2.21226	0.259921	1	9	0.0050574	0.00164171	0	-1.19336e-05	0.304951	0.111269	0.324616	20.0457	259.921	712.358	758.296	-69.9543	0.0000000E+000	0.0000000E+000	0.0000000E+000	69.9543	0.0000000E+000	0.0000000E+000	0.0000000E+000	-69.9543	0.0000000E+000	0.0000000E+000	0.0000000E+000	-20.0457	0.0000000E+000	0.0000000E+000	0.0000000E+000	20.0457	2.74067	69.9543	-4.91718e-06	-4.34759e-06	7973.34
46420.4	3.15012	1.13967	3.34994	-19.8894	3.02049	0.186176	-0.0292544	3.00838	0.34819	1	9	0.00502568	0.00150023	0	-1.75285e-05	0.280707	0.101556	0.298513	19.8894	348.19	962.42	1023.47	-70.1106	0.0000000E+000	0.0000000E+000	0.0000000E+000	70.1106	0.0000000E+000	0.0000000E+000	0.0000000E+000	-70.1106	0.0000000E+000	0.0000000E+000	0.0000000E+000	-19.8894	0.0000000E+000	0.0000000E+000	0.0000000E+000	19.8894	2.76407	70.1106	-5.59489e-06	-5.44645e-06	6364.02
31621.1	3.40419	1.24802	3.62575	-20.1336	3.4565	0.186174	-0.0306697	4.03292	0.477826	1	9	0.00523411	0.00144359	0	-1.97521e-05	0.258951	0.0949351	0.275805	20.1336	477.826	1303.35	1388.18	-69.8664	0.0000000E+000	0.0000000E+000	0.0000000E+000	69.8664	0.0000000E+000	0.0000000E+000	0.0000000E+000	-69.8664	0.0000000E+000	0.0000000E+000	0.0000000E+000	-20.1336	0.0000000E+000	0.0000000E+000	0.0000000E+000	20.1336	2.72766	69.8664	-2.22361e-06	-5.70992e-06	6070.29
21544.7	3.68908	1.3623	3.93258	-20.2681	3.75348	0.186173	-0.0327555	5.42259	0.650726	1	9	0.00540745	0.00137504	0	-2.21016e-05	0.238541	0.0880883	0.254286	20.2681	650.726	1762.15	1878.46	-69.7319	0.0000000E+000	0.0000000E+000	0.0000000E+000	69.7319	0.0000000E+000	0.0000000E+000	0.0000000E+000	-69.7319	0.0000000E+000	0.0000000E+000	0.0000000E+000	-20.2681	0.0000000E+000	0.0000000E+000	0.0000000E+000	20.2681	2.70798	69.7319	-2.3495e-06	-6.0982e-06	5683.72
14678.6	3.98202	1.52381	4.26362	-20.9405	4.04948	0.186171	-0.0322713	7.11548	0.908886	1	9	0.0052263	0.00122579	0	-2.48598e-05	0.219051	0.0838251	0.234542	20.9405	908.886	2375.1	2543.06	-69.0595	0.0000000E+000	0.0000000E+000	0.0000000E+000	69.0595	0.0000000E+000	0.0000000E+000	0.0000000E+000	-69.0595	0.0000000E+000	0.0000000E+000	0.0000000E+000	-20.9405	0.0000000E+000	0.0000000E+000	0.0000000E+000	20.9405	2.61319	69.0595	-2.75814e-06	-6.00798e-06	5768.92
10002.2	4.32204	1.69685	4.6432	-21.4351	4.5175	0.186231	-0.0313847	9.37736	1.25237	1	10	0.00478878	0.00103135	0	-2.80749e-05	0.200472	0.078706	0.215369	21.4351	1252.37	3189.9	3426.94	-68.5649	0.0000000E+000	0.0000000E+000	0.0000000E+000	68.5649	0.0000000E+000	0.0000000E+000	0.0000000E+000	-68.5649	0.0000000E+000	0.0000000E+000	0.0000000E+000	-21.4351	0.0000000E+000	0.0000000E+000	0.0000000E+000	21.4351	2.5471	68.5649	-3.21515e-06	-5.84482e-06	5933.82
6811.07	4.69498	1.94013	5.08005	-22.4521	4.89651	0.186233	-0.0207474	12.0441	1.75671	1	10	0.00504602	0.000993301	0	-3.07313e-05	0.181927	0.0751786	0.196848	22.4521	1756.71	4251.11	4599.78	-67.5479	0.0000000E+000	0.0000000E+000	0.0000000E+000	67.5479	0.0000000E+000	0.0000000E+000	0.0000000E+000	-67.5479	0.0000000E+000	0.0000000E+000	0.0000000E+000	-22.4521	0.0000000E+000	0.0000000E+000	0.0000000E+000	22.4521	2.41993	67.5479	-2.65638e-06	-3.86385e-06	8976.25
4641.49	5.11852	2.23008	5.58324	-23.5422	5.36771	0.186268	-0.00955121	15.3759	2.45308	1	10	0.00505836	0.00090599	0	-3.17044e-05	0.1642	0.07154	0.179108	23.5422	2453.08	5630.35	6141.54	-66.4578	0.0000000E+000	0.0000000E+000	0.0000000E+000	66.4578	0.0000000E+000	0.0000000E+000	0.0000000E+000	-66.4578	0.0000000E+000	0.0000000E+000	0.0000000E+000	-23.5422	0.0000000E+000	0.0000000E+000	0.0000000E+000	23.5422	2.29521	66.4578	-9.73108e-07	-1.77909e-06	19502
3161.01	5.59014	2.59248	6.16203	-24.88	5.83468	0.18627	-0.0092383	19.4213	3.43766	1	10	0.00499475	0.000810569	0	-3.34751e-05	0.147223	0.0682761	0.162284	24.88	3437.66	7412.57	8170.91	-65.12	0.0000000E+000	0.0000000E+000	0.0000000E+000	65.12	0.0000000E+000	0.0000000E+000	0.0000000E+000	-65.12	0.0000000E+000	0.0000000E+000	0.0000000E+000	-24.88	0.0000000E+000	0.0000000E+000	0.0000000E+000	24.88	2.15629	65.12	-1.7707e-06	-1.72082e-06	20162.8
2155.69	6.16906	3.04742	6.8807	-26.2887	6.30169	0.18627	-0.00924761	24.2271	4.75227	1	10	0.00495291	0.000719826	0	-3.40626e-05	0.130303	0.0643676	0.145334	26.2887	4752.27	9620.27	10730	-63.7113	0.0000000E+000	0.0000000E+000	0.0000000E+000	63.7113	0.0000000E+000	0.0000000E+000	0.0000000E+000	-63.7113	0.0000000E+000	0.0000000E+000	0.0000000E+000	-26.2887	0.0000000E+000	0.0000000E+000	0.0000000E+000	26.2887	2.02435	63.7113	-5.8744e-07	-1.72256e-06	20142.5
1468.59	6.79615	3.61522	7.69789	-28.0108	6.76894	0.186265	-0.00883598	29.9767	6.61167	1	10	0.00488302	0.000634331	0	-3.54096e-05	0.114688	0.0610087	0.129906	28.0108	6611.67	12429.1	14078.2	-61.9892	0.0000000E+000	0.0000000E+000	0.0000000E+000	61.9892	0.0000000E+000	0.0000000E+000	0.0000000E+000	-61.9892	0.0000000E+000	0.0000000E+000	0.0000000E+000	-28.0108	0.0000000E+000	0.0000000E+000	0.0000000E+000	28.0108	1.87987	61.9892	-1.347e-06	-1.64583e-06	21080.2
1000.32	7.60516	4.30923	8.74116	-29.5368	7.23768	0.186263	-0.0096369	36.9217	8.97311	1	10	0.00485348	0.000555244	0	-3.65828e-05	0.0995337	0.0563978	0.114401	29.5368	8973.11	15836.2	18201.7	-60.4632	0.0000000E+000	0.0000000E+000	0.0000000E+000	60.4632	0.0000000E+000	0.0000000E+000	0.0000000E+000	-60.4632	0.0000000E+000	0.0000000E+000	0.0000000E+000	-29.5368	0.0000000E+000	0.0000000E+000	0.0000000E+000	29.5368	1.76485	60.4632	-1.17325e-06	-1.795e-06	19328.2
681.09	8.57927	5.16228	10.0126	-31.036	7.70344	0.186259	-0.00906695	45.2663	12.0326	1	10	0.00482462	0.000481853	0	-3.80658e-05	0.0855762	0.0514925	0.0998738	31.036	12032.6	19997.2	23338.2	-58.964	0.0000000E+000	0.0000000E+000	0.0000000E+000	58.964	0.0000000E+000	0.0000000E+000	0.0000000E+000	-58.964	0.0000000E+000	0.0000000E+000	0.0000000E+000	-31.036	0.0000000E+000	0.0000000E+000	0.0000000E+000	31.036	1.66192	58.964	-1.48299e-06	-1.6888e-06	20542.7
463.961	9.83913	6.16511	11.6111	-32.0709	8.17219	0.186262	-0.00895705	55.6414	15.6868	1	10	0.00480831	0.000414114	0	-3.90354e-05	0.0729814	0.0457295	0.0861247	32.0709	15686.8	25035.2	29543.8	-57.9291	0.0000000E+000	0.0000000E+000	0.0000000E+000	57.9291	0.0000000E+000	0.0000000E+000	0.0000000E+000	-57.9291	0.0000000E+000	0.0000000E+000	0.0000000E+000	-32.0709	0.0000000E+000	0.0000000E+000	0.0000000E+000	32.0709	1.59594	57.9291	-9.69612e-07	-1.66836e-06	20795
316.316	11.4602	7.24264	13.557	-32.2922	8.6389	0.186267	-0.00930909	69.4708	19.8276	1	10	0.00479825	0.000353932	0	-3.99893e-05	0.0623542	0.0394069	0.0737628	32.2922	19827.6	31373.6	37113.9	-57.7078	0.0000000E+000	0.0000000E+000	0.0000000E+000	57.7078	0.0000000E+000	0.0000000E+000	0.0000000E+000	-57.7078	0.0000000E+000	0.0000000E+000	0.0000000E+000	-32.2922	0.0000000E+000	0.0000000E+000	0.0000000E+000	32.2922	1.58232	57.7078	-9.53867e-07	-1.73397e-06	20009.1
215.345	13.4938	8.3487	15.8677	-31.7453	9.10642	0.186259	-0.00895519	88.5253	24.5062	1	10	0.00479579	0.000302236	0	-4.125e-05	0.0535928	0.0331581	0.063021	31.7453	24506.2	39608.9	46577	-58.2547	0.0000000E+000	0.0000000E+000	0.0000000E+000	58.2547	0.0000000E+000	0.0000000E+000	0.0000000E+000	-58.2547	0.0000000E+000	0.0000000E+000	0.0000000E+000	-31.7453	0.0000000E+000	0.0000000E+000	0.0000000E+000	31.7453	1.61628	58.2547	-1.26074e-06	-1.66798e-06	20798.9
146.737	15.9685	9.30808	18.4833	-30.238	9.56939	0.186258	-0.00992375	116.525	29.5515	1	10	0.00478664	0.000258971	0	-4.24647e-05	0.0467417	0.0272459	0.0541029	30.238	29551.5	50697.1	58681.3	-59.762	0.0000000E+000	0.0000000E+000	0.0000000E+000	59.762	0.0000000E+000	0.0000000E+000	0.0000000E+000	-59.762	0.0000000E+000	0.0000000E+000	0.0000000E+000	-30.238	0.0000000E+000	0.0000000E+000	0.0000000E+000	30.238	1.71555	59.762	-1.21465e-06	-1.84837e-06	18768.9
100.032	18.8729	9.92814	21.3249	-27.7468	10.0377	0.186267	-0.00830887	160.256	34.7355	1	10	0.00478848	0.000224549	0	-4.35616e-05	0.0415014	0.021832	0.0468935	27.7468	34735.5	66030.3	74609.4	-62.2532	0.0000000E+000	0.0000000E+000	0.0000000E+000	62.2532	0.0000000E+000	0.0000000E+000	0.0000000E+000	-62.2532	0.0000000E+000	0.0000000E+000	0.0000000E+000	-27.7468	0.0000000E+000	0.0000000E+000	0.0000000E+000	27.7468	1.90095	62.2532	-1.09695e-06	-1.54767e-06	22417.9
68.104	21.9873	10.029	24.1665	-24.5189	10.7753	0.186287	-0.010012	233.019	40.1306	1	11	0.00479015	0.000198214	0	-4.53718e-05	0.0376481	0.0171723	0.0413796	24.5189	40130.6	87981.5	96701.6	-65.4811	0.0000000E+000	0.0000000E+000	0.0000000E+000	65.4811	0.0000000E+000	0.0000000E+000	0.0000000E+000	-65.4811	0.0000000E+000	0.0000000E+000	0.0000000E+000	-24.5189	0.0000000E+000	0.0000000E+000	0.0000000E+000	24.5189	2.19238	65.4811	-1.81017e-06	-1.8651e-06	18606.4
46.4415	25.034	9.52993	26.7866	-20.8408	11.2305	0.186272	-0.0106249	359.603	45.5165	1	11	0.004786	0.000178672	0	-4.65177e-05	0.0348896	0.0132818	0.0373321	20.8408	45516.5	119566	127937	-69.1592	0.0000000E+000	0.0000000E+000	0.0000000E+000	69.1592	0.0000000E+000	0.0000000E+000	0.0000000E+000	-69.1592	0.0000000E+000	0.0000000E+000	0.0000000E+000	-20.8408	0.0000000E+000	0.0000000E+000	0.0000000E+000	20.8408	2.62688	69.1592	-1.14591e-06	-1.97913e-06	17531.6
31.6296	27.7474	8.42968	28.9996	-16.8988	11.6765	0.186276	-0.0106887	596.92	50.4375	1	11	0.00478504	0.000165003	0	-4.78616e-05	0.0329942	0.0100237	0.0344832	16.8988	50437.5	166022	173514	-73.1012	0.0000000E+000	0.0000000E+000	0.0000000E+000	73.1012	0.0000000E+000	0.0000000E+000	0.0000000E+000	-73.1012	0.0000000E+000	0.0000000E+000	0.0000000E+000	-16.8988	0.0000000E+000	0.0000000E+000	0.0000000E+000	16.8988	3.29163	73.1012	-1.34394e-06	-1.99105e-06	17427.4
21.5517	29.8971	7.05796	30.7189	-13.2829	12.1153	0.186278	-0.0107866	1046.31	55.2338	1	11	0.00478804	0.000155866	0	-4.86974e-05	0.0316823	0.0074794	0.0325532	13.2829	55233.8	233967	240399	-76.7171	0.0000000E+000	0.0000000E+000	0.0000000E+000	76.7171	0.0000000E+000	0.0000000E+000	0.0000000E+000	-76.7171	0.0000000E+000	0.0000000E+000	0.0000000E+000	-13.2829	0.0000000E+000	0.0000000E+000	0.0000000E+000	13.2829	4.23595	76.7171	-8.35735e-07	-2.0093e-06	17269.4
14.6852	31.3317	5.67525	31.8416	-10.2669	12.5931	0.186283	-0.00976105	1909.66	60.665	1	11	0.00478021	0.000150125	0	-4.98113e-05	0.0309026	0.00559753	0.0314055	10.2669	60665	334917	340367	-79.7331	0.0000000E+000	0.0000000E+000	0.0000000E+000	79.7331	0.0000000E+000	0.0000000E+000	0.0000000E+000	-79.7331	0.0000000E+000	0.0000000E+000	0.0000000E+000	-10.2669	0.0000000E+000	0.0000000E+000	0.0000000E+000	10.2669	5.52077	79.7331	-1.11388e-06	-1.81831e-06	19084.3
10.0032	32.3398	4.42367	32.6409	-7.78899	13.0617	0.186278	-0.00987831	3596.65	66.0601	1	11	0.00478016	0.000146447	0	-5.11762e-05	0.0303538	0.00415201	0.0306364	7.78899	66060.1	482940	487438	-82.211	0.0000000E+000	0.0000000E+000	0.0000000E+000	82.211	0.0000000E+000	0.0000000E+000	0.0000000E+000	-82.211	0.0000000E+000	0.0000000E+000	0.0000000E+000	-7.78899	0.0000000E+000	0.0000000E+000	0.0000000E+000	7.78899	7.31062	82.211	-1.3649e-06	-1.84011e-06	18857.3
6.81719	33.0399	3.56573	33.2317	-6.15964	13.4194	0.186276	-0.0104734	6547.36	75.3802	1	11	0.00478183	0.000143894	0	-5.29058e-05	0.029918	0.00322881	0.0300917	6.15964	75380.2	698469	702525	-83.8404	0.0000000E+000	0.0000000E+000	0.0000000E+000	83.8404	0.0000000E+000	0.0000000E+000	0.0000000E+000	-83.8404	0.0000000E+000	0.0000000E+000	0.0000000E+000	-6.15964	0.0000000E+000	0.0000000E+000	0.0000000E+000	6.15964	9.26595	83.8404	-1.72966e-06	-1.95094e-06	17785.7
4.63925	33.4504	2.93007	33.5784	-5.00602	13.9223	0.186295	-0.0091753	11708.3	89.1515	1	11	0.00477887	0.00014232	0	-5.4379e-05	0.0296674	0.0025987	0.029781	5.00602	89151.5	1.01778e+06	1.02167e+06	-84.994	0.0000000E+000	0.0000000E+000	0.0000000E+000	84.994	0.0000000E+000	0.0000000E+000	0.0000000E+000	-84.994	0.0000000E+000	0.0000000E+000	0.0000000E+000	-5.00602	0.0000000E+000	0.0000000E+000	0.0000000E+000	5.00602	11.4162	84.994	-1.47321e-06	-1.70931e-06	20304
3.1604	33.9139	2.57973	34.0119	-4.34993	14.6313	0.18629	-0.00904191	19521.1	112.303	1	11	0.00478774	0.000140766	0	-5.37208e-05	0.0293168	0.00223003	0.0294015	4.34993	112303	1.47637e+06	1.48063e+06	-85.6501	0.0000000E+000	0.0000000E+000	0.0000000E+000	85.6501	0.0000000E+000	0.0000000E+000	0.0000000E+000	-85.6501	0.0000000E+000	0.0000000E+000	0.0000000E+000	-4.34993	0.0000000E+000	0.0000000E+000	0.0000000E+000	4.34993	13.1463	85.6501	6.582e-07	-1.68442e-06	20603
2.15577	34.2968	2.40299	34.3808	-4.00786	15.6477	0.1863	-0.00769074	30723.2	150.085	1	11	0.00478667	0.000139225	0	-5.57755e-05	0.0290148	0.00203291	0.029086	4.00786	150085	2.14209e+06	2.14734e+06	-85.9921	0.0000000E+000	0.0000000E+000	0.0000000E+000	85.9921	0.0000000E+000	0.0000000E+000	0.0000000E+000	-85.9921	0.0000000E+000	0.0000000E+000	0.0000000E+000	-4.00786	0.0000000E+000	0.0000000E+000	0.0000000E+000	4.00786	14.2725	85.9921	-2.05462e-06	-1.43279e-06	24224
1.46631	34.6833	2.3877	34.7654	-3.9382	17.8531	0.186303	-0.00704182	45458.5	214.427	1	12	0.00478537	0.000137648	0	-6.3924e-05	0.0286963	0.00197554	0.0287643	3.9382	214427	3.11473e+06	3.12211e+06	-86.0618	0.0000000E+000	0.0000000E+000	0.0000000E+000	86.0618	0.0000000E+000	0.0000000E+000	0.0000000E+000	-86.0618	0.0000000E+000	0.0000000E+000	0.0000000E+000	-3.9382	0.0000000E+000	0.0000000E+000	0.0000000E+000	3.9382	14.5258	86.0618	-8.14852e-06	-1.31191e-06	26456.6
1.00006	35.1866	2.51613	35.2764	-4.09015	19.9932	0.186302	-0.00687058	63249.9	321.777	1	12	0.00478602	0.000135672	0	-7.08461e-05	0.0282753	0.00202192	0.0283475	4.09015	321777	4.49987e+06	4.51136e+06	-85.9099	0.0000000E+000	0.0000000E+000	0.0000000E+000	85.9099	0.0000000E+000	0.0000000E+000	0.0000000E+000	-85.9099	0.0000000E+000	0.0000000E+000	0.0000000E+000	-4.09015	0.0000000E+000	0.0000000E+000	0.0000000E+000	4.09015	13.9844	85.9099	-6.92216e-06	-1.28e-06	27115.9
0.681362	35.7807	2.77661	35.8883	-4.4373	23.1131	0.186307	-0.00666684	84125.5	503.56	1	12	0.00478691	0.000133384	0	-7.57351e-05	0.0277807	0.0021558	0.0278643	4.4373	503560	6.48912e+06	6.50863e+06	-85.5627	0.0000000E+000	0.0000000E+000	0.0000000E+000	85.5627	0.0000000E+000	0.0000000E+000	0.0000000E+000	-85.5627	0.0000000E+000	0.0000000E+000	0.0000000E+000	-4.4373	0.0000000E+000	0.0000000E+000	0.0000000E+000	4.4373	12.8865	85.5627	-4.88893e-06	-1.24208e-06	27945.3
0.464091	36.4271	3.08651	36.5576	-4.84316	27.6779	0.186307	-0.00645737	111109	792.006	1	12	0.00478783	0.000130967	0	-7.66797e-05	0.0272564	0.00230946	0.0273541	4.84316	792006	9.3473e+06	9.38079e+06	-85.1568	0.0000000E+000	0.0000000E+000	0.0000000E+000	85.1568	0.0000000E+000	0.0000000E+000	0.0000000E+000	-85.1568	0.0000000E+000	0.0000000E+000	0.0000000E+000	-4.84316	0.0000000E+000	0.0000000E+000	0.0000000E+000	4.84316	11.802	85.1568	-9.44586e-07	-1.20305e-06	28851.8
0.316193	37.2119	3.30829	37.3587	-5.08046	34.3602	0.186307	-0.00576858	152147	1193.13	1	12	0.00478679	0.000128131	0	-7.55928e-05	0.0266624	0.00237039	0.0267675	5.08046	1.19313e+06	1.34204e+07	1.34734e+07	-84.9195	0.0000000E+000	0.0000000E+000	0.0000000E+000	84.9195	0.0000000E+000	0.0000000E+000	0.0000000E+000	-84.9195	0.0000000E+000	0.0000000E+000	0.0000000E+000	-5.08046	0.0000000E+000	0.0000000E+000	0.0000000E+000	5.08046	11.2481	84.9195	1.08687e-06	-1.07473e-06	32296.9
0.215268	38.1034	3.53626	38.2672	-5.30226	44.158	0.1863	-0.00465475	209072	1785.39	1	12	0.00478951	0.00012516	0	-7.81814e-05	0.0260202	0.00241486	0.0261321	5.30226	1.78539e+06	1.92377e+07	1.93203e+07	-84.6977	0.0000000E+000	0.0000000E+000	0.0000000E+000	84.6977	0.0000000E+000	0.0000000E+000	0.0000000E+000	-84.6977	0.0000000E+000	0.0000000E+000	0.0000000E+000	-5.30226	0.0000000E+000	0.0000000E+000	0.0000000E+000	5.30226	10.7751	84.6977	-2.58863e-06	-8.67179e-07	40023.5
0.146929	38.9108	3.85778	39.1016	-5.66204	58.4946	0.186299	-0.00328385	280786	2733.14	1	12	0.00478519	0.000122378	0	-9.24738e-05	0.0254496	0.00252318	0.0255744	5.66204	2.73314e+06	2.75673e+07	2.77025e+07	-84.338	0.0000000E+000	0.0000000E+000	0.0000000E+000	84.338	0.0000000E+000	0.0000000E+000	0.0000000E+000	-84.338	0.0000000E+000	0.0000000E+000	0.0000000E+000	-5.66204	0.0000000E+000	0.0000000E+000	0.0000000E+000	5.66204	10.0863	84.338	-1.42924e-05	-6.11778e-07	56731.9
0.0999041	39.6877	4.32408	39.9226	-6.218	79.5645	0.186298	-0.00226894	368420	4322.09	1	12	0.00478951	0.00011997	0	-0.000127768	0.0249011	0.00271304	0.0250485	6.218	4.32209e+06	3.96694e+07	3.99042e+07	-83.782	0.0000000E+000	0.0000000E+000	0.0000000E+000	83.782	0.0000000E+000	0.0000000E+000	0.0000000E+000	-83.782	0.0000000E+000	0.0000000E+000	0.0000000E+000	-6.218	0.0000000E+000	0.0000000E+000	0.0000000E+000	6.218	9.17829	83.782	-3.52944e-05	-4.227e-07	82108.2
0.0680626	40.4336	5.10282	40.7544	-7.19283	110.476	0.186294	-0.00165945	458249	7184.11	1	12	0.00479018	0.000117538	0	-0.00018744	0.0243442	0.00307229	0.0245373	7.19283	7.18412e+06	5.69254e+07	5.73769e+07	-82.8072	0.0000000E+000	0.0000000E+000	0.0000000E+000	82.8072	0.0000000E+000	0.0000000E+000	0.0000000E+000	-82.8072	0.0000000E+000	0.0000000E+000	0.0000000E+000	-7.19283	0.0000000E+000	0.0000000E+000	0.0000000E+000	7.19283	7.92379	82.8072	-5.96718e-05	-3.09146e-07	112263
0.0464052	41.2774	6.17989	41.7374	-8.51486	155.801	0.186293	-0.00201614	554974	12167	1	12	0.00478654	0.000114682	0	-0.000278871	0.0236952	0.00354756	0.0239593	8.51486	1.2167e+07	8.1267e+07	8.21728e+07	-81.4851	0.0000000E+000	0.0000000E+000	0.0000000E+000	81.4851	0.0000000E+000	0.0000000E+000	0.0000000E+000	-81.4851	0.0000000E+000	0.0000000E+000	0.0000000E+000	-8.51486	0.0000000E+000	0.0000000E+000	0.0000000E+000	8.51486	6.67931	81.4851	-9.14308e-05	-3.75593e-07	92401
0.0315922	42.4563	8.06133	43.2148	-10.751	222.361	0.186291	-0.00220685	624933	21746.1	1	12	0.00478757	0.000110785	0	-0.000372573	0.022734	0.0043166	0.0231402	10.751	2.17461e+07	1.14529e+08	1.16576e+08	-79.249	0.0000000E+000	0.0000000E+000	0.0000000E+000	79.249	0.0000000E+000	0.0000000E+000	0.0000000E+000	-79.249	0.0000000E+000	0.0000000E+000	0.0000000E+000	-10.751	0.0000000E+000	0.0000000E+000	0.0000000E+000	10.751	5.26666	79.249	-9.37021e-05	-4.11116e-07	84415.1
0.0215268	43.6898	10.853	45.0176	-13.9504	320.03	0.186291	-0.00207887	681229	39593.5	1	12	0.00478855	0.000106371	0	-0.000412179	0.0215583	0.00535529	0.0222135	13.9504	3.95935e+07	1.59388e+08	1.64232e+08	-76.0496	0.0000000E+000	0.0000000E+000	0.0000000E+000	76.0496	0.0000000E+000	0.0000000E+000	0.0000000E+000	-76.0496	0.0000000E+000	0.0000000E+000	0.0000000E+000	-13.9504	0.0000000E+000	0.0000000E+000	0.0000000E+000	13.9504	4.02562	76.0496	-3.96061e-05	-3.87275e-07	89611.5
0.0146812	45.1072	14.3523	47.3355	-17.6501	463.226	0.186286	-0.00160089	755334	69439.4	1	12	0.00478683	0.000101126	0	-0.000334714	0.0201313	0.00640541	0.0211258	17.6501	6.94394e+07	2.18239e+08	2.2902e+08	-72.3499	0.0000000E+000	0.0000000E+000	0.0000000E+000	72.3499	0.0000000E+000	0.0000000E+000	0.0000000E+000	-72.3499	0.0000000E+000	0.0000000E+000	0.0000000E+000	-17.6501	0.0000000E+000	0.0000000E+000	0.0000000E+000	17.6501	3.14286	72.3499	7.74652e-05	-2.98224e-07	116364
0.0100092	47.4435	18.6726	50.9859	-21.4834	673.248	0.186281	-0.00105348	851563	114216	1	12	0.0047873	9.38946e-05	0	-0.000127837	0.0182506	0.007183	0.0196133	21.4834	1.14216e+08	2.90202e+08	3.11869e+08	-68.5166	0.0000000E+000	0.0000000E+000	0.0000000E+000	68.5166	0.0000000E+000	0.0000000E+000	0.0000000E+000	-68.5166	0.0000000E+000	0.0000000E+000	0.0000000E+000	-21.4834	0.0000000E+000	0.0000000E+000	0.0000000E+000	21.4834	2.54081	68.5166	0.000206876	-1.96244e-07	176824