File: txt/17391_R279_UA649_SOC00_C01.mpt
EC-Lab ASCII FILE
Nb header lines : 63

Potentio Electrochemical Impedance Spectroscopy

Run on channel : 1 (SN 66354)
User :
CE vs. WE compliance from -10 V to 10 V
Electrode connection : standard
Potential control : Ewe
Ewe ctrl range : min = -10.00 V, max = 10.00 V
Safety Limits :
	Do not start on E overload
Acquisition started on : 09/11/2025 15:38:10.785
Loaded Setting File :  C:\Users\Celltest\OneDrive - store-dot.com\Documents\EC-Lab\Data\Gyutae\EIS_SOC0_C01.mpr
Saved on :
	File : 17391_C01.mpr
	Directory : C:\Users\Celltest\OneDrive - store-dot.com\Documents\EC-Lab\Data\Charmaine\R279\
	Host : 169.254.61.224
Device : VMP-3e (SN .003165)
Address : USB
EC-LAB for windows v11.62 (software)
Internet server v27.00 (firmware)
Command interpretor v12.03 (firmware)
Electrode material :
Initial state :
Electrolyte :
Comments :
Electrode surface area : 0.001 cm²
Characteristic mass : 0.001 g
Equivalent Weight : 0.000 g/eq.
Density : 0.000 g/cm3
Volume (V) : 0.001 cm³
Cycle Definition : Charge/Discharge alternance
Mode                Single sine
E (V)               0.0000
vs.                 Eoc
tE (h:m:s)          0:00:0.0000
record              0
dI                  0.000
unit dI             mA
dt (s)              0.000
fi                  100.000
unit fi             kHz
ff                  10.000
unit ff             mHz
Nd                  6
Points              per decade
spacing             Logarithmic
Va (mV)             5.0
pw                  0.10
Na                  2
corr                0
E range min (V)     -10.000
E range max (V)     10.000
I Range             Auto
Bandwidth           5
nc cycles           0
goto Ns'            0
nr cycles           0
inc. cycle          0

freq/Hz	Re(Z)/Ohm	-Im(Z)/Ohm	|Z|/Ohm	Phase(Z)/deg	time/s	<Ewe>/V	<I>/mA	Cs/µF	Cp/µF	cycle number	I Range	|Ewe|/V	|I|/A	Ns	(Q-Qo)/mA.h	Re(Y)/Ohm-1	Im(Y)/Ohm-1	|Y|/Ohm-1	Phase(Y)/deg	Re(C)/nF	Im(C)/nF	|C|/nF	Phase(C)/deg	Re(M)	Im(M)	|M|	Phase(M)/deg	Re(Permittivity)	Im(Permittivity)	|Permittivity|	Phase(Permittivity)/deg	Re(Resistivity)/Ohm.cm	Im(Resistivity)/Ohm.cm	|Resistivity|/Ohm.cm	Phase(Resistivity)/deg	Re(Conductivity)/mS/cm	Im(Conductivity)/mS/cm	|Conductivity|/mS/cm	Phase(Conductivity)/deg	Tan(Delta)	Loss Angle(Delta)/deg	dq/mA.h	Pwe/W	Rwe/Ohm
100004	1.55043	0.0932666	1.55324	-3.44249	2.70648	0.251722	0.0597328	17.0639	0.0615254	1	9	0.00464058	0.00298768	0	4.22596e-07	0.642655	0.038659	0.643817	3.44249	61.5255	1022.78	1024.63	-86.5575	0.0000000E+000	0.0000000E+000	0.0000000E+000	86.5575	0.0000000E+000	0.0000000E+000	0.0000000E+000	-86.5575	0.0000000E+000	0.0000000E+000	0.0000000E+000	-3.44249	0.0000000E+000	0.0000000E+000	0.0000000E+000	3.44249	16.6237	86.5575	4.22596e-07	1.50361e-05	4214.14
68132	1.59325	0.407967	1.64466	-14.3625	3.28548	0.251742	0.0588573	5.7259	0.352325	1	9	0.00514351	0.00312741	0	1.31684e-05	0.589026	0.150825	0.60803	14.3625	352.325	1375.95	1420.34	-75.6375	0.0000000E+000	0.0000000E+000	0.0000000E+000	75.6375	0.0000000E+000	0.0000000E+000	0.0000000E+000	-75.6375	0.0000000E+000	0.0000000E+000	0.0000000E+000	-14.3625	0.0000000E+000	0.0000000E+000	0.0000000E+000	14.3625	3.90535	75.6375	1.27458e-05	1.48169e-05	4277.16
46420.4	1.61612	0.683523	1.75472	-22.9255	3.86348	0.251719	0.0662709	5.01601	0.761112	1	9	0.00509333	0.00290265	0	2.48717e-05	0.524877	0.221992	0.569891	22.9255	761.112	1799.57	1953.91	-67.0745	0.0000000E+000	0.0000000E+000	0.0000000E+000	67.0745	0.0000000E+000	0.0000000E+000	0.0000000E+000	-67.0745	0.0000000E+000	0.0000000E+000	0.0000000E+000	-22.9255	0.0000000E+000	0.0000000E+000	0.0000000E+000	22.9255	2.3644	67.0745	1.17033e-05	1.66817e-05	3798.34
31621.1	1.48505	0.971037	1.77434	-33.1797	4.44148	0.251736	0.0709649	5.18331	1.5524	1	9	0.00508161	0.00286395	0	4.11317e-05	0.471701	0.308434	0.56359	33.1797	1552.4	2374.16	2836.65	-56.8203	0.0000000E+000	0.0000000E+000	0.0000000E+000	56.8203	0.0000000E+000	0.0000000E+000	0.0000000E+000	-56.8203	0.0000000E+000	0.0000000E+000	0.0000000E+000	-33.1797	0.0000000E+000	0.0000000E+000	0.0000000E+000	33.1797	1.52934	56.8203	1.626e-05	1.78644e-05	3547.33
21544.7	1.70448	0.923484	1.93857	-28.4488	4.8785	0.251737	0.0698473	7.99927	1.81528	1	9	0.00539408	0.0027825	0	5.31882e-05	0.453551	0.245734	0.515843	28.4488	1815.28	3350.48	3810.64	-61.5512	0.0000000E+000	0.0000000E+000	0.0000000E+000	61.5512	0.0000000E+000	0.0000000E+000	0.0000000E+000	-61.5512	0.0000000E+000	0.0000000E+000	0.0000000E+000	-28.4488	0.0000000E+000	0.0000000E+000	0.0000000E+000	28.4488	1.8457	61.5512	1.20565e-05	1.75832e-05	3604.1
14678.6	1.9095	0.810586	2.07442	-23.0013	5.31549	0.251735	0.0636072	13.3763	2.0424	1	9	0.00477049	0.00229967	0	6.46039e-05	0.443736	0.188367	0.482062	23.0013	2042.4	4811.28	5226.83	-66.9987	0.0000000E+000	0.0000000E+000	0.0000000E+000	66.9987	0.0000000E+000	0.0000000E+000	0.0000000E+000	-66.9987	0.0000000E+000	0.0000000E+000	0.0000000E+000	-23.0013	0.0000000E+000	0.0000000E+000	0.0000000E+000	23.0013	2.3557	66.9987	1.14157e-05	1.60122e-05	3957.65
10002.2	2.03743	0.790953	2.18557	-21.2168	5.75248	0.251729	0.0647994	20.1174	2.63477	1	9	0.00493171	0.00225648	0	7.19236e-05	0.426532	0.165584	0.457546	21.2168	2634.77	6786.96	7280.45	-68.7832	0.0000000E+000	0.0000000E+000	0.0000000E+000	68.7832	0.0000000E+000	0.0000000E+000	0.0000000E+000	-68.7832	0.0000000E+000	0.0000000E+000	0.0000000E+000	-21.2168	0.0000000E+000	0.0000000E+000	0.0000000E+000	21.2168	2.57592	68.7832	7.31965e-06	1.63119e-05	3884.75
6811.07	2.1978	0.764684	2.32703	-19.1844	6.13051	0.251511	-0.0166387	30.5578	3.29977	1	9	0.00460519	0.001979	0	6.97846e-05	0.405868	0.141214	0.429733	19.1844	3299.77	9483.95	10041.6	-70.8156	0.0000000E+000	0.0000000E+000	0.0000000E+000	70.8156	0.0000000E+000	0.0000000E+000	0.0000000E+000	-70.8156	0.0000000E+000	0.0000000E+000	0.0000000E+000	-19.1844	0.0000000E+000	0.0000000E+000	0.0000000E+000	19.1844	2.87412	70.8156	-2.13898e-06	-4.18481e-06	15116.1
4641.49	2.34651	0.783587	2.47389	-18.4661	6.82471	0.251742	0.101178	43.7598	4.39025	1	9	0.00485491	0.00196246	0	8.65995e-05	0.383409	0.128034	0.404221	18.4661	4390.25	13147	13860.6	-71.5339	0.0000000E+000	0.0000000E+000	0.0000000E+000	71.5339	0.0000000E+000	0.0000000E+000	0.0000000E+000	-71.5339	0.0000000E+000	0.0000000E+000	0.0000000E+000	-18.4661	0.0000000E+000	0.0000000E+000	0.0000000E+000	18.4661	2.99458	71.5339	1.68149e-05	2.54709e-05	2488.11
3161.01	2.4887	0.839192	2.62638	-18.6342	7.29167	0.25174	0.103302	59.9974	6.1255	1	9	0.00478007	0.00182003	0	0.000100357	0.360793	0.12166	0.380753	18.6342	6125.5	18165.7	19170.7	-71.3658	0.0000000E+000	0.0000000E+000	0.0000000E+000	71.3658	0.0000000E+000	0.0000000E+000	0.0000000E+000	-71.3658	0.0000000E+000	0.0000000E+000	0.0000000E+000	-18.6342	0.0000000E+000	0.0000000E+000	0.0000000E+000	18.6342	2.96559	71.3658	1.37578e-05	2.60052e-05	2436.94
2155.69	2.64285	0.940925	2.80535	-19.5971	7.75868	0.251735	0.09559	78.4655	8.82704	1	9	0.00474135	0.00169011	0	0.000111505	0.335814	0.119559	0.356462	19.5971	8827.04	24793.2	26317.6	-70.4029	0.0000000E+000	0.0000000E+000	0.0000000E+000	70.4029	0.0000000E+000	0.0000000E+000	0.0000000E+000	-70.4029	0.0000000E+000	0.0000000E+000	0.0000000E+000	-19.5971	0.0000000E+000	0.0000000E+000	0.0000000E+000	19.5971	2.80878	70.4029	1.11478e-05	2.40634e-05	2633.49
1468.59	2.8209	1.12146	3.03565	-21.6804	8.22596	0.25173	0.0908774	96.6354	13.1886	1	9	0.0047225	0.00155568	0	0.000121863	0.306115	0.121697	0.329419	21.6804	13188.6	33174.5	35700	-68.3196	0.0000000E+000	0.0000000E+000	0.0000000E+000	68.3196	0.0000000E+000	0.0000000E+000	0.0000000E+000	-68.3196	0.0000000E+000	0.0000000E+000	0.0000000E+000	-21.6804	0.0000000E+000	0.0000000E+000	0.0000000E+000	21.6804	2.51539	68.3196	1.03576e-05	2.28766e-05	2770
1000.32	3.03614	1.36404	3.32847	-24.1928	8.94869	0.251706	-0.00774315	116.642	19.5892	1	10	0.00479795	0.00144149	0	0.000129541	0.274051	0.123122	0.300438	24.1928	19589.2	43602.7	47800.9	-65.8072	0.0000000E+000	0.0000000E+000	0.0000000E+000	65.8072	0.0000000E+000	0.0000000E+000	0.0000000E+000	-65.8072	0.0000000E+000	0.0000000E+000	0.0000000E+000	-24.1928	0.0000000E+000	0.0000000E+000	0.0000000E+000	24.1928	2.22585	65.8072	7.67816e-06	-1.949e-06	32507
681.09	3.28928	1.69708	3.70127	-27.2911	9.41443	0.251711	-0.00771892	137.694	28.9478	1	10	0.00476771	0.00128813	0	0.000129391	0.240103	0.12388	0.270177	27.2911	28947.8	56106.6	63134.2	-62.7089	0.0000000E+000	0.0000000E+000	0.0000000E+000	62.7089	0.0000000E+000	0.0000000E+000	0.0000000E+000	-62.7089	0.0000000E+000	0.0000000E+000	0.0000000E+000	-27.2911	0.0000000E+000	0.0000000E+000	0.0000000E+000	27.2911	1.9382	62.7089	-1.49904e-07	-1.94293e-06	32609.5
463.961	3.62122	2.13956	4.20607	-30.5763	9.88322	0.251722	-0.00708348	160.33	41.487	1	10	0.00473724	0.00112629	0	0.000128379	0.204693	0.120941	0.237752	30.5763	41487	70217	81557.3	-59.4237	0.0000000E+000	0.0000000E+000	0.0000000E+000	59.4237	0.0000000E+000	0.0000000E+000	0.0000000E+000	-59.4237	0.0000000E+000	0.0000000E+000	0.0000000E+000	-30.5763	0.0000000E+000	0.0000000E+000	0.0000000E+000	30.5763	1.69251	59.4237	-1.0121e-06	-1.78307e-06	35536.4
316.316	4.07698	2.70251	4.89135	-33.5392	10.3499	0.251709	-0.00823138	186.179	56.8341	1	10	0.00471841	0.000964643	0	0.000127858	0.170404	0.112956	0.204442	33.5392	56834.1	85739.3	102866	-56.4608	0.0000000E+000	0.0000000E+000	0.0000000E+000	56.4608	0.0000000E+000	0.0000000E+000	0.0000000E+000	-56.4608	0.0000000E+000	0.0000000E+000	0.0000000E+000	-33.5392	0.0000000E+000	0.0000000E+000	0.0000000E+000	33.5392	1.50859	56.4608	-5.21238e-07	-2.07191e-06	30579.2
215.345	4.73743	3.37628	5.81744	-35.4768	10.8175	0.251698	-0.0084755	218.901	73.733	1	10	0.00469539	0.000807124	0	0.000127675	0.139984	0.0997644	0.171897	35.4768	73733	103458	127044	-54.5232	0.0000000E+000	0.0000000E+000	0.0000000E+000	54.5232	0.0000000E+000	0.0000000E+000	0.0000000E+000	-54.5232	0.0000000E+000	0.0000000E+000	0.0000000E+000	-35.4768	0.0000000E+000	0.0000000E+000	0.0000000E+000	35.4768	1.40315	54.5232	-1.82697e-07	-2.13327e-06	29697.2
146.737	5.68992	4.11065	7.01945	-35.8461	11.2804	0.251703	-0.00929543	263.857	90.4867	1	10	0.00469258	0.000668512	0	0.000126264	0.115478	0.0834267	0.142461	35.8461	90486.7	125250	154517	-54.1539	0.0000000E+000	0.0000000E+000	0.0000000E+000	54.1539	0.0000000E+000	0.0000000E+000	0.0000000E+000	-54.1539	0.0000000E+000	0.0000000E+000	0.0000000E+000	-35.8461	0.0000000E+000	0.0000000E+000	0.0000000E+000	35.8461	1.38419	54.1539	-1.4105e-06	-2.33969e-06	27078.1
100.032	6.95953	4.77419	8.43966	-34.4499	11.7487	0.251704	-0.0080525	333.259	106.643	1	10	0.00469034	0.00055575	0	0.000124785	0.0977079	0.067027	0.118488	34.4499	106643	155457	188519	-55.5501	0.0000000E+000	0.0000000E+000	0.0000000E+000	55.5501	0.0000000E+000	0.0000000E+000	0.0000000E+000	-55.5501	0.0000000E+000	0.0000000E+000	0.0000000E+000	-34.4499	0.0000000E+000	0.0000000E+000	0.0000000E+000	34.4499	1.45774	55.5501	-1.47927e-06	-2.02685e-06	31257.9
68.104	8.52134	5.20475	9.98512	-31.4162	12.2273	0.251714	-0.00603809	449.001	121.995	1	10	0.0046818	0.000468877	0	0.000123824	0.0854675	0.0522028	0.100149	31.4162	121995	199732	234042	-58.5838	0.0000000E+000	0.0000000E+000	0.0000000E+000	58.5838	0.0000000E+000	0.0000000E+000	0.0000000E+000	-58.5838	0.0000000E+000	0.0000000E+000	0.0000000E+000	-31.4162	0.0000000E+000	0.0000000E+000	0.0000000E+000	31.4162	1.63722	58.5838	-9.60724e-07	-1.51987e-06	41687.6
46.4415	10.253	5.30745	11.5452	-27.3683	12.6825	0.251701	-0.0127093	645.695	136.456	1	10	0.00468524	0.000405816	0	0.000122313	0.0769208	0.039818	0.0866157	27.3683	136456	263607	296832	-62.6317	0.0000000E+000	0.0000000E+000	0.0000000E+000	62.6317	0.0000000E+000	0.0000000E+000	0.0000000E+000	-62.6317	0.0000000E+000	0.0000000E+000	0.0000000E+000	-27.3683	0.0000000E+000	0.0000000E+000	0.0000000E+000	27.3683	1.93181	62.6317	-1.51101e-06	-3.19895e-06	19804.4
31.6296	11.902	4.95603	12.8927	-22.607	13.1284	0.251691	-0.0162518	1015.3	150.03	1	10	0.00468664	0.000363512	0	0.00012086	0.0716039	0.029816	0.0775636	22.607	150030	360299	390288	-67.393	0.0000000E+000	0.0000000E+000	0.0000000E+000	67.393	0.0000000E+000	0.0000000E+000	0.0000000E+000	-67.393	0.0000000E+000	0.0000000E+000	0.0000000E+000	-22.607	0.0000000E+000	0.0000000E+000	0.0000000E+000	22.607	2.40152	67.393	-1.45384e-06	-4.09042e-06	15487
21.5517	13.24	4.36956	13.9425	-18.2642	13.5673	0.251698	-0.0198949	1690.05	165.996	1	10	0.00467378	0.000335219	0	0.000118852	0.06811	0.0224781	0.0717234	18.2642	165996	502978	529662	-71.7358	0.0000000E+000	0.0000000E+000	0.0000000E+000	71.7358	0.0000000E+000	0.0000000E+000	0.0000000E+000	-71.7358	0.0000000E+000	0.0000000E+000	0.0000000E+000	-18.2642	0.0000000E+000	0.0000000E+000	0.0000000E+000	18.2642	3.03006	71.7358	-2.0075e-06	-5.00749e-06	12651.4
14.6852	14.3264	3.66267	14.7872	-14.341	14.304	0.251744	-0.005965	2958.99	181.539	1	11	0.00467837	0.00031638	0	0.000114597	0.0655188	0.0167505	0.0676261	14.341	181539	710081	732919	-75.659	0.0000000E+000	0.0000000E+000	0.0000000E+000	75.659	0.0000000E+000	0.0000000E+000	0.0000000E+000	-75.659	0.0000000E+000	0.0000000E+000	0.0000000E+000	-14.341	0.0000000E+000	0.0000000E+000	0.0000000E+000	14.341	3.91146	75.659	-4.25505e-06	-1.50165e-06	42203.5
10.0032	15.0919	3.00299	15.3878	-11.2537	14.7727	0.251729	-0.00626869	5298.19	201.782	1	11	0.00468227	0.000304285	0	0.000114731	0.063737	0.0126824	0.0649866	11.2537	201782	1.01408e+06	1.03396e+06	-78.7463	0.0000000E+000	0.0000000E+000	0.0000000E+000	78.7463	0.0000000E+000	0.0000000E+000	0.0000000E+000	-78.7463	0.0000000E+000	0.0000000E+000	0.0000000E+000	-11.2537	0.0000000E+000	0.0000000E+000	0.0000000E+000	11.2537	5.02563	78.7463	1.34418e-07	-1.57801e-06	40156.6
6.81719	15.5709	2.51277	15.7724	-9.16711	15.1304	0.25173	-0.00606257	9290.98	235.816	1	11	0.00467983	0.00029671	0	0.000114595	0.0625921	0.0101008	0.0634019	9.16711	235816	1.46128e+06	1.48019e+06	-80.8329	0.0000000E+000	0.0000000E+000	0.0000000E+000	80.8329	0.0000000E+000	0.0000000E+000	0.0000000E+000	-80.8329	0.0000000E+000	0.0000000E+000	0.0000000E+000	-9.16711	0.0000000E+000	0.0000000E+000	0.0000000E+000	9.16711	6.19672	80.8329	-1.35953e-07	-1.52613e-06	41522.1
4.63925	15.9687	2.20173	16.1198	-7.85034	15.6323	0.251734	-0.00487725	15581.5	290.683	1	11	0.00468037	0.00029035	0	0.000115812	0.0614543	0.0084732	0.0620357	7.85034	290683	2.10826e+06	2.12821e+06	-82.1497	0.0000000E+000	0.0000000E+000	0.0000000E+000	82.1497	0.0000000E+000	0.0000000E+000	0.0000000E+000	-82.1497	0.0000000E+000	0.0000000E+000	0.0000000E+000	-7.85034	0.0000000E+000	0.0000000E+000	0.0000000E+000	7.85034	7.25278	82.1497	1.21607e-06	-1.22777e-06	51613.8
3.1604	16.2993	2.05821	16.4288	-7.19697	16.3412	0.251744	-0.00381984	24467.4	384.023	1	11	0.00468208	0.000284992	0	0.000110302	0.0603892	0.00762569	0.0608688	7.19697	384024	3.04115e+06	3.0653e+06	-82.803	0.0000000E+000	0.0000000E+000	0.0000000E+000	82.803	0.0000000E+000	0.0000000E+000	0.0000000E+000	-82.803	0.0000000E+000	0.0000000E+000	0.0000000E+000	-7.19697	0.0000000E+000	0.0000000E+000	0.0000000E+000	7.19697	7.91918	82.803	-5.5095e-06	-9.61621e-07	65904.2
2.15577	16.6862	2.05654	16.8125	-7.02614	17.3578	0.251746	-0.00335826	35898.9	537.145	1	11	0.00468612	0.000278729	0	0.000106928	0.0590329	0.00727567	0.0594796	7.02614	537145	4.35826e+06	4.39123e+06	-82.9739	0.0000000E+000	0.0000000E+000	0.0000000E+000	82.9739	0.0000000E+000	0.0000000E+000	0.0000000E+000	-82.9739	0.0000000E+000	0.0000000E+000	0.0000000E+000	-7.02614	0.0000000E+000	0.0000000E+000	0.0000000E+000	7.02614	8.11374	82.9739	-3.37406e-06	-8.4543e-07	74963.2
1.46631	17.0482	2.17444	17.1863	-7.26865	18.831	0.251756	-0.0020912	49916.8	799.058	1	11	0.00468528	0.000272618	0	0.000110825	0.0577184	0.0073618	0.058186	7.26865	799058	6.26482e+06	6.31557e+06	-82.7313	0.0000000E+000	0.0000000E+000	0.0000000E+000	82.7313	0.0000000E+000	0.0000000E+000	0.0000000E+000	-82.7313	0.0000000E+000	0.0000000E+000	0.0000000E+000	-7.26865	0.0000000E+000	0.0000000E+000	0.0000000E+000	7.26865	7.84026	82.7313	3.89705e-06	-5.26472e-07	120389
1.00006	17.5164	2.33229	17.6709	-7.58429	22.0212	0.251755	-0.00238445	68235.3	1188.66	1	12	0.00468655	0.000265212	0	0.000119191	0.056095	0.00746902	0.0565901	7.58429	1.18866e+06	8.92723e+06	9.00602e+06	-82.4157	0.0000000E+000	0.0000000E+000	0.0000000E+000	82.4157	0.0000000E+000	0.0000000E+000	0.0000000E+000	-82.4157	0.0000000E+000	0.0000000E+000	0.0000000E+000	-7.58429	0.0000000E+000	0.0000000E+000	0.0000000E+000	7.58429	7.51035	82.4157	8.36602e-06	-6.00297e-07	105582
0.681362	18.1242	2.55265	18.303	-8.01695	25.1411	0.251755	-0.00166821	91506.1	1779.87	1	12	0.00468594	0.00025602	0	0.000122086	0.0541018	0.00761983	0.0546357	8.01695	1.77987e+06	1.26373e+07	1.2762e+07	-81.983	0.0000000E+000	0.0000000E+000	0.0000000E+000	81.983	0.0000000E+000	0.0000000E+000	0.0000000E+000	-81.983	0.0000000E+000	0.0000000E+000	0.0000000E+000	-8.01695	0.0000000E+000	0.0000000E+000	0.0000000E+000	8.01695	7.10013	81.983	2.89534e-06	-4.19981e-07	150913
0.464091	18.8067	2.83206	19.0187	-8.5637	29.7059	0.251756	-0.00134532	121092	2685.08	1	12	0.00468554	0.000246365	0	0.000112784	0.0519936	0.0078296	0.0525798	8.5637	2.68508e+06	1.78306e+07	1.80317e+07	-81.4363	0.0000000E+000	0.0000000E+000	0.0000000E+000	81.4363	0.0000000E+000	0.0000000E+000	0.0000000E+000	-81.4363	0.0000000E+000	0.0000000E+000	0.0000000E+000	-8.5637	0.0000000E+000	0.0000000E+000	0.0000000E+000	8.5637	6.64064	81.4363	-9.30268e-06	-3.38694e-07	187134
0.316193	19.5636	2.99278	19.7912	-8.69748	36.3882	0.251757	-0.000971338	168187	3845.89	1	12	0.00468519	0.00023673	0	8.87135e-05	0.0499464	0.00764062	0.0505274	8.69748	3.84589e+06	2.51404e+07	2.54328e+07	-81.3025	0.0000000E+000	0.0000000E+000	0.0000000E+000	81.3025	0.0000000E+000	0.0000000E+000	0.0000000E+000	-81.3025	0.0000000E+000	0.0000000E+000	0.0000000E+000	-8.69748	0.0000000E+000	0.0000000E+000	0.0000000E+000	8.69748	6.53695	81.3025	-2.40702e-05	-2.44541e-07	259186
0.215268	20.4256	3.09666	20.659	-8.6208	46.186	0.251757	-0.000825366	238752	5364.36	1	12	0.00468792	0.000226919	0	5.70393e-05	0.0478583	0.00725566	0.0484051	8.6208	5.36436e+06	3.53833e+07	3.57876e+07	-81.3792	0.0000000E+000	0.0000000E+000	0.0000000E+000	81.3792	0.0000000E+000	0.0000000E+000	0.0000000E+000	-81.3792	0.0000000E+000	0.0000000E+000	0.0000000E+000	-8.6208	0.0000000E+000	0.0000000E+000	0.0000000E+000	8.6208	6.59599	81.3792	-3.16742e-05	-2.07791e-07	305025
0.146929	21.2575	3.15739	21.4907	-8.44843	60.5226	0.251751	-0.00178242	343071	7405.28	1	12	0.00468747	0.000218117	0	3.01326e-05	0.0460269	0.00683641	0.0465318	8.44843	7.40528e+06	4.98568e+07	5.04038e+07	-81.5516	0.0000000E+000	0.0000000E+000	0.0000000E+000	81.5516	0.0000000E+000	0.0000000E+000	0.0000000E+000	-81.5516	0.0000000E+000	0.0000000E+000	0.0000000E+000	-8.44843	0.0000000E+000	0.0000000E+000	0.0000000E+000	8.44843	6.7326	81.5516	-2.69067e-05	-4.48726e-07	141242
0.0999041	21.9673	3.27944	22.2108	-8.49083	81.5925	0.251753	-0.00268509	485777	10590.3	1	12	0.00468577	0.000210969	0	2.45498e-05	0.0445297	0.00664773	0.0450232	8.49083	1.05903e+07	7.09393e+07	7.17255e+07	-81.5092	0.0000000E+000	0.0000000E+000	0.0000000E+000	81.5092	0.0000000E+000	0.0000000E+000	0.0000000E+000	-81.5092	0.0000000E+000	0.0000000E+000	0.0000000E+000	-8.49083	0.0000000E+000	0.0000000E+000	0.0000000E+000	8.49083	6.69849	81.5092	-5.58277e-06	-6.75979e-07	93759.5
0.0680626	22.5332	3.54875	22.811	-8.94997	112.505	0.251755	-0.00310619	658925	15947.7	1	12	0.00468595	0.000205425	0	5.14794e-05	0.0433048	0.00682005	0.0438386	8.94997	1.59477e+07	1.01262e+08	1.0251e+08	-81.05	0.0000000E+000	0.0000000E+000	0.0000000E+000	81.05	0.0000000E+000	0.0000000E+000	0.0000000E+000	-81.05	0.0000000E+000	0.0000000E+000	0.0000000E+000	-8.94997	0.0000000E+000	0.0000000E+000	0.0000000E+000	8.94997	6.34963	81.05	2.69296e-05	-7.81998e-07	81049.3
0.0464052	23.0097	4.01464	23.3573	-9.89711	157.829	0.25175	-0.00189918	854294	25238	1	12	0.00468439	0.000200554	0	0.000143164	0.042176	0.00735871	0.0428132	9.89711	2.5238e+07	1.4465e+08	1.46836e+08	-80.1029	0.0000000E+000	0.0000000E+000	0.0000000E+000	80.1029	0.0000000E+000	0.0000000E+000	0.0000000E+000	-80.1029	0.0000000E+000	0.0000000E+000	0.0000000E+000	-9.89711	0.0000000E+000	0.0000000E+000	0.0000000E+000	9.89711	5.73145	80.1029	9.16848e-05	-4.78119e-07	132558
0.0315922	23.5996	4.86461	24.0958	-11.6473	224.389	0.251751	-6.57438e-05	1.0356e+06	42209.2	1	12	0.00468384	0.000194384	0	0.000290611	0.0406465	0.00837851	0.0415011	11.6473	4.22092e+07	2.04769e+08	2.09074e+08	-78.3527	0.0000000E+000	0.0000000E+000	0.0000000E+000	78.3527	0.0000000E+000	0.0000000E+000	0.0000000E+000	-78.3527	0.0000000E+000	0.0000000E+000	0.0000000E+000	-11.6473	0.0000000E+000	0.0000000E+000	0.0000000E+000	11.6473	4.85128	78.3527	0.000147446	-1.6551e-08	3.82927e+06
0.0215268	24.3574	6.32359	25.1649	-14.5536	322.057	0.25175	0.00102584	1.16917e+06	73827	1	12	0.00468545	0.00018619	0	0.000416593	0.0384629	0.00998561	0.039738	14.5536	7.3827e+07	2.84369e+08	2.93796e+08	-75.4463	0.0000000E+000	0.0000000E+000	0.0000000E+000	75.4463	0.0000000E+000	0.0000000E+000	0.0000000E+000	-75.4463	0.0000000E+000	0.0000000E+000	0.0000000E+000	-14.5536	0.0000000E+000	0.0000000E+000	0.0000000E+000	14.5536	3.85183	75.4463	0.000125982	2.58255e-07	245409
0.0146812	25.1133	8.45453	26.4982	-18.6061	465.252	0.251748	0.00113271	1.28224e+06	130532	1	12	0.00468581	0.000176835	0	0.000373424	0.035766	0.0120408	0.0377384	18.6061	1.30532e+08	3.8773e+08	4.09112e+08	-71.3939	0.0000000E+000	0.0000000E+000	0.0000000E+000	71.3939	0.0000000E+000	0.0000000E+000	0.0000000E+000	-71.3939	0.0000000E+000	0.0000000E+000	0.0000000E+000	-18.6061	0.0000000E+000	0.0000000E+000	0.0000000E+000	18.6061	2.97039	71.3939	-4.31689e-05	2.85158e-07	222253
0.0100092	26.0105	11.1083	28.2832	-23.1258	675.273	0.251754	0.000514479	1.43145e+06	220806	1	12	0.00468506	0.000165648	0	1.28083e-05	0.0325155	0.0138863	0.0353566	23.1258	2.20806e+08	5.17027e+08	5.62203e+08	-66.8742	0.0000000E+000	0.0000000E+000	0.0000000E+000	66.8742	0.0000000E+000	0.0000000E+000	0.0000000E+000	-66.8742	0.0000000E+000	0.0000000E+000	0.0000000E+000	-23.1258	0.0000000E+000	0.0000000E+000	0.0000000E+000	23.1258	2.34155	66.8742	-0.000360616	1.29522e-07	489339