File: txt/17390_R279_UA649_SOC00_C08.mpt
EC-Lab ASCII FILE
Nb header lines : 63

Potentio Electrochemical Impedance Spectroscopy

Run on channel : 8 (SN 65398)
User :
CE vs. WE compliance from -10 V to 10 V
Electrode connection : standard
Potential control : Ewe
Ewe ctrl range : min = -10.00 V, max = 10.00 V
Safety Limits :
	Do not start on E overload
Acquisition started on : 09/10/2025 16:54:56.116
Loaded Setting File :  C:\Users\Celltest\OneDrive - store-dot.com\Documents\EC-Lab\Data\Charmaine\R279\17383_C02.mpr
Saved on :
	File : 17390_C08.mpr
	Directory : C:\Users\Celltest\OneDrive - store-dot.com\Documents\EC-Lab\Data\Charmaine\R279\
	Host : 169.254.61.224
Device : VMP-3e (SN .003165)
Address : USB
EC-LAB for windows v11.62 (software)
Internet server v27.00 (firmware)
Command interpretor v12.03 (firmware)
Electrode material :
Initial state :
Electrolyte :
Comments :
Electrode surface area : 0.001 cm²
Characteristic mass : 0.001 g
Equivalent Weight : 0.000 g/eq.
Density : 0.000 g/cm3
Volume (V) : 0.001 cm³
Cycle Definition : Charge/Discharge alternance
Mode                Single sine
E (V)               0.0000
vs.                 Eoc
tE (h:m:s)          0:00:0.0000
record              0
dI                  0.000
unit dI             mA
dt (s)              0.000
fi                  100.000
unit fi             kHz
ff                  10.000
unit ff             mHz
Nd                  6
Points              per decade
spacing             Logarithmic
Va (mV)             5.0
pw                  0.10
Na                  2
corr                0
E range min (V)     -10.000
E range max (V)     10.000
I Range             Auto
Bandwidth           5
nc cycles           0
goto Ns'            0
nr cycles           0
inc. cycle          0

freq/Hz	Re(Z)/Ohm	-Im(Z)/Ohm	|Z|/Ohm	Phase(Z)/deg	time/s	<Ewe>/V	<I>/mA	Cs/µF	Cp/µF	cycle number	I Range	|Ewe|/V	|I|/A	Ns	(Q-Qo)/mA.h	Re(Y)/Ohm-1	Im(Y)/Ohm-1	|Y|/Ohm-1	Phase(Y)/deg	Re(C)/nF	Im(C)/nF	|C|/nF	Phase(C)/deg	Re(M)	Im(M)	|M|	Phase(M)/deg	Re(Permittivity)	Im(Permittivity)	|Permittivity|	Phase(Permittivity)/deg	Re(Resistivity)/Ohm.cm	Im(Resistivity)/Ohm.cm	|Resistivity|/Ohm.cm	Phase(Resistivity)/deg	Re(Conductivity)/mS/cm	Im(Conductivity)/mS/cm	|Conductivity|/mS/cm	Phase(Conductivity)/deg	Tan(Delta)	Loss Angle(Delta)/deg	dq/mA.h	Pwe/W	Rwe/Ohm
100004	1.21112	0.223387	1.23155	-10.4506	2.22649	0.29014	0.0468958	7.12436	0.2344	1	9	0.00442353	0.00359183	0	7.2282e-06	0.798515	0.147283	0.811984	10.4506	234.4	1270.83	1292.27	-79.5494	0.0000000E+000	0.0000000E+000	0.0000000E+000	79.5494	0.0000000E+000	0.0000000E+000	0.0000000E+000	-79.5494	0.0000000E+000	0.0000000E+000	0.0000000E+000	-10.4506	0.0000000E+000	0.0000000E+000	0.0000000E+000	10.4506	5.42163	79.5494	7.2282e-06	1.36064e-05	6186.91
68132	1.26743	0.253528	1.29254	-11.3118	2.66348	0.290145	0.04684	9.21387	0.354495	1	9	0.00473549	0.00366372	0	1.21272e-05	0.758644	0.151754	0.773673	11.3118	354.495	1772.17	1807.28	-78.6882	0.0000000E+000	0.0000000E+000	0.0000000E+000	78.6882	0.0000000E+000	0.0000000E+000	0.0000000E+000	-78.6882	0.0000000E+000	0.0000000E+000	0.0000000E+000	-11.3118	0.0000000E+000	0.0000000E+000	0.0000000E+000	11.3118	4.99916	78.6882	4.89897e-06	1.35904e-05	6194.38
46420.4	1.32558	0.286577	1.35621	-12.199	3.10149	0.290147	0.0475097	11.9638	0.534197	1	9	0.00512544	0.00377925	0	1.54837e-05	0.720701	0.155808	0.73735	12.199	534.197	2470.96	2528.05	-77.801	0.0000000E+000	0.0000000E+000	0.0000000E+000	77.801	0.0000000E+000	0.0000000E+000	0.0000000E+000	-77.801	0.0000000E+000	0.0000000E+000	0.0000000E+000	-12.199	0.0000000E+000	0.0000000E+000	0.0000000E+000	12.199	4.62557	77.801	3.35652e-06	1.37848e-05	6107.12
31621.1	1.39063	0.328188	1.42883	-13.2788	3.68048	0.290138	0.045817	15.3363	0.809106	1	9	0.00466767	0.00326678	0	1.85031e-05	0.681163	0.160754	0.699875	13.2788	809.106	3428.42	3522.6	-76.7212	0.0000000E+000	0.0000000E+000	0.0000000E+000	76.7212	0.0000000E+000	0.0000000E+000	0.0000000E+000	-76.7212	0.0000000E+000	0.0000000E+000	0.0000000E+000	-13.2788	0.0000000E+000	0.0000000E+000	0.0000000E+000	13.2788	4.23729	76.7212	3.01943e-06	1.32932e-05	6332.55
21544.7	1.46585	0.369608	1.51173	-14.1518	4.11849	0.290146	0.0466354	19.9866	1.19473	1	9	0.00505516	0.00334395	0	2.79257e-05	0.641416	0.16173	0.661492	14.1518	1194.73	4738.27	4886.58	-75.8482	0.0000000E+000	0.0000000E+000	0.0000000E+000	75.8482	0.0000000E+000	0.0000000E+000	0.0000000E+000	-75.8482	0.0000000E+000	0.0000000E+000	0.0000000E+000	-14.1518	0.0000000E+000	0.0000000E+000	0.0000000E+000	14.1518	3.96598	75.8482	9.4226e-06	1.35311e-05	6221.58
14678.6	1.5551	0.420114	1.61085	-15.1177	4.69748	0.290146	0.0474725	25.8089	1.75546	1	9	0.00468229	0.00290672	0	3.78597e-05	0.599306	0.161903	0.62079	15.1177	1755.46	6498.06	6731.01	-74.8823	0.0000000E+000	0.0000000E+000	0.0000000E+000	74.8823	0.0000000E+000	0.0000000E+000	0.0000000E+000	-74.8823	0.0000000E+000	0.0000000E+000	0.0000000E+000	-15.1177	0.0000000E+000	0.0000000E+000	0.0000000E+000	15.1177	3.70163	74.8823	9.93395e-06	1.37739e-05	6111.87
10002.2	1.64811	0.476848	1.71571	-16.1367	5.13448	0.290152	0.0474911	33.3691	2.5776	1	9	0.00479833	0.0027967	0	4.1455e-05	0.559886	0.161991	0.582849	16.1367	2577.6	8908.87	9274.27	-73.8633	0.0000000E+000	0.0000000E+000	0.0000000E+000	73.8633	0.0000000E+000	0.0000000E+000	0.0000000E+000	-73.8633	0.0000000E+000	0.0000000E+000	0.0000000E+000	-16.1367	0.0000000E+000	0.0000000E+000	0.0000000E+000	16.1367	3.45627	73.8633	3.59534e-06	1.37796e-05	6109.61
6811.07	1.75831	0.544389	1.84066	-17.203	5.68949	0.29013	0.026602	42.9235	3.75464	1	9	0.0051406	0.00279281	0	3.81362e-05	0.518979	0.16068	0.543284	17.203	3754.64	12127	12695	-72.797	0.0000000E+000	0.0000000E+000	0.0000000E+000	72.797	0.0000000E+000	0.0000000E+000	0.0000000E+000	-72.797	0.0000000E+000	0.0000000E+000	0.0000000E+000	-17.203	0.0000000E+000	0.0000000E+000	0.0000000E+000	17.203	3.22988	72.797	-3.31884e-06	7.71805e-06	10906.3
4641.49	1.87263	0.626029	1.9745	-18.485	6.60569	0.29014	0.0370558	54.7732	5.50609	1	9	0.00504562	0.00255539	0	4.18283e-05	0.480327	0.160576	0.506457	18.485	5506.09	16470.3	17366.2	-71.515	0.0000000E+000	0.0000000E+000	0.0000000E+000	71.515	0.0000000E+000	0.0000000E+000	0.0000000E+000	-71.515	0.0000000E+000	0.0000000E+000	0.0000000E+000	-18.485	0.0000000E+000	0.0000000E+000	0.0000000E+000	18.485	2.99128	71.515	3.6921e-06	1.07514e-05	7829.81
3161.01	2.00115	0.728144	2.12951	-19.9945	7.29568	0.290146	0.0357165	69.1476	8.08447	1	9	0.00499679	0.00234645	0	4.99645e-05	0.441287	0.160567	0.469591	19.9945	8084.47	22218.5	23643.6	-70.0055	0.0000000E+000	0.0000000E+000	0.0000000E+000	70.0055	0.0000000E+000	0.0000000E+000	0.0000000E+000	-70.0055	0.0000000E+000	0.0000000E+000	0.0000000E+000	-19.9945	0.0000000E+000	0.0000000E+000	0.0000000E+000	19.9945	2.7483	70.0055	8.13618e-06	1.0363e-05	8123.59
2155.69	2.144	0.858412	2.30946	-21.8201	7.98567	0.290133	0.0326288	86.0078	11.8825	1	9	0.00513893	0.00222516	0	5.23164e-05	0.401979	0.160944	0.433001	21.8201	11882.5	29678.2	31968.6	-68.1799	0.0000000E+000	0.0000000E+000	0.0000000E+000	68.1799	0.0000000E+000	0.0000000E+000	0.0000000E+000	-68.1799	0.0000000E+000	0.0000000E+000	0.0000000E+000	-21.8201	0.0000000E+000	0.0000000E+000	0.0000000E+000	21.8201	2.49763	68.1799	2.35195e-06	9.46667e-06	8891.93
1468.59	2.29867	1.03149	2.51949	-24.1674	8.45292	0.290136	0.0354189	105.064	17.61	1	9	0.00540125	0.00214378	0	5.46793e-05	0.362118	0.162495	0.396905	24.1674	17610	39243.7	43013.7	-65.8326	0.0000000E+000	0.0000000E+000	0.0000000E+000	65.8326	0.0000000E+000	0.0000000E+000	0.0000000E+000	-65.8326	0.0000000E+000	0.0000000E+000	0.0000000E+000	-24.1674	0.0000000E+000	0.0000000E+000	0.0000000E+000	24.1674	2.22849	65.8326	2.36287e-06	1.02763e-05	8191.55
1000.32	2.48477	1.25344	2.78302	-26.7686	8.92169	0.290137	0.0305268	126.934	25.7485	1	9	0.00532195	0.0019123	0	5.97048e-05	0.320815	0.161834	0.359322	26.7686	25748.5	51042.9	57169.6	-63.2314	0.0000000E+000	0.0000000E+000	0.0000000E+000	63.2314	0.0000000E+000	0.0000000E+000	0.0000000E+000	-63.2314	0.0000000E+000	0.0000000E+000	0.0000000E+000	-26.7686	0.0000000E+000	0.0000000E+000	0.0000000E+000	26.7686	1.98236	63.2314	5.02551e-06	8.85697e-06	9504.34
681.09	2.70409	1.56411	3.12387	-30.0462	9.64245	0.290133	-0.0042349	149.399	37.4541	1	10	0.00532494	0.0017046	0	5.978e-05	0.2771	0.160281	0.320116	30.0462	37454.1	64751.8	74803.8	-59.9539	0.0000000E+000	0.0000000E+000	0.0000000E+000	59.9539	0.0000000E+000	0.0000000E+000	0.0000000E+000	-59.9539	0.0000000E+000	0.0000000E+000	0.0000000E+000	-30.0462	0.0000000E+000	0.0000000E+000	0.0000000E+000	30.0462	1.72883	59.9539	7.52413e-08	-1.22868e-06	68510
463.961	3.00106	1.98234	3.59667	-33.4466	10.1112	0.29014	-0.00449345	173.046	52.5673	1	10	0.00522753	0.00145344	0	5.99425e-05	0.231992	0.153242	0.278035	33.4466	52567.3	79581.6	95375.9	-56.5534	0.0000000E+000	0.0000000E+000	0.0000000E+000	56.5534	0.0000000E+000	0.0000000E+000	0.0000000E+000	-56.5534	0.0000000E+000	0.0000000E+000	0.0000000E+000	-33.4466	0.0000000E+000	0.0000000E+000	0.0000000E+000	33.4466	1.5139	56.5534	1.62455e-07	-1.30373e-06	64569.6
316.316	3.41087	2.51908	4.24026	-36.4475	10.5779	0.290143	-0.00461807	199.737	70.4947	1	10	0.00512895	0.00120958	0	5.97283e-05	0.189706	0.140106	0.235835	36.4475	70494.7	95450.9	118661	-53.5525	0.0000000E+000	0.0000000E+000	0.0000000E+000	53.5525	0.0000000E+000	0.0000000E+000	0.0000000E+000	-53.5525	0.0000000E+000	0.0000000E+000	0.0000000E+000	-36.4475	0.0000000E+000	0.0000000E+000	0.0000000E+000	36.4475	1.35401	53.5525	-2.14205e-07	-1.3399e-06	62827.7
215.345	4.00988	3.17902	5.11716	-38.4073	11.0454	0.290132	-0.00527651	232.484	89.7268	1	10	0.00506983	0.000990751	0	5.85443e-05	0.153135	0.121405	0.195421	38.4073	89726.8	113178	144430	-51.5927	0.0000000E+000	0.0000000E+000	0.0000000E+000	51.5927	0.0000000E+000	0.0000000E+000	0.0000000E+000	-51.5927	0.0000000E+000	0.0000000E+000	0.0000000E+000	-38.4073	0.0000000E+000	0.0000000E+000	0.0000000E+000	38.4073	1.26136	51.5927	-1.18398e-06	-1.53089e-06	54985.7
146.737	4.85927	3.91693	6.24138	-38.8714	11.5084	0.290142	-0.00563177	276.907	109.06	1	10	0.00503149	0.00080615	0	5.78892e-05	0.124741	0.100551	0.160221	38.8714	109060	135297	173780	-51.1286	0.0000000E+000	0.0000000E+000	0.0000000E+000	51.1286	0.0000000E+000	0.0000000E+000	0.0000000E+000	-51.1286	0.0000000E+000	0.0000000E+000	0.0000000E+000	-38.8714	0.0000000E+000	0.0000000E+000	0.0000000E+000	38.8714	1.24058	51.1286	-6.5515e-07	-1.63401e-06	51518.8
100.032	6.02086	4.65511	7.61057	-37.7099	11.9767	0.290138	-0.00568386	341.784	127.872	1	10	0.00501668	0.000659173	0	5.72983e-05	0.10395	0.0803703	0.131396	37.7099	127872	165389	209057	-52.2901	0.0000000E+000	0.0000000E+000	0.0000000E+000	52.2901	0.0000000E+000	0.0000000E+000	0.0000000E+000	-52.2901	0.0000000E+000	0.0000000E+000	0.0000000E+000	-37.7099	0.0000000E+000	0.0000000E+000	0.0000000E+000	37.7099	1.29339	52.2901	-5.9081e-07	-1.6491e-06	51045.9
68.104	7.49827	5.22441	9.13885	-34.8668	12.4553	0.290138	-0.00502542	447.311	146.185	1	10	0.00500761	0.000547947	0	5.67623e-05	0.0897797	0.062554	0.109423	34.8668	146185	209810	255715	-55.1332	0.0000000E+000	0.0000000E+000	0.0000000E+000	55.1332	0.0000000E+000	0.0000000E+000	0.0000000E+000	-55.1332	0.0000000E+000	0.0000000E+000	0.0000000E+000	-34.8668	0.0000000E+000	0.0000000E+000	0.0000000E+000	34.8668	1.43524	55.1332	-5.36034e-07	-1.45807e-06	57734
46.4415	9.20267	5.51039	10.7263	-30.9124	12.9105	0.290134	-0.00691703	621.915	164.133	1	10	0.00500347	0.000466467	0	5.57391e-05	0.079986	0.0478942	0.0932288	30.9124	164133	274111	319494	-59.0876	0.0000000E+000	0.0000000E+000	0.0000000E+000	59.0876	0.0000000E+000	0.0000000E+000	0.0000000E+000	-59.0876	0.0000000E+000	0.0000000E+000	0.0000000E+000	-30.9124	0.0000000E+000	0.0000000E+000	0.0000000E+000	30.9124	1.67006	59.0876	-1.02318e-06	-2.00686e-06	41944.9
31.6296	10.9769	5.37351	12.2216	-26.0831	13.3564	0.290128	-0.00714209	936.416	181.022	1	10	0.00500445	0.000409476	0	5.48971e-05	0.0734895	0.0359753	0.0818225	26.0831	181022	369788	411718	-63.9169	0.0000000E+000	0.0000000E+000	0.0000000E+000	63.9169	0.0000000E+000	0.0000000E+000	0.0000000E+000	-63.9169	0.0000000E+000	0.0000000E+000	0.0000000E+000	-26.0831	0.0000000E+000	0.0000000E+000	0.0000000E+000	26.0831	2.04278	63.9169	-8.42032e-07	-2.07212e-06	40622.2
21.5517	12.5442	4.90717	13.4699	-21.3649	13.7953	0.290125	-0.00866914	1504.9	199.729	1	10	0.00499268	0.000370655	0	5.28579e-05	0.0691379	0.027046	0.0742397	21.3649	199729	510569	548244	-68.6351	0.0000000E+000	0.0000000E+000	0.0000000E+000	68.6351	0.0000000E+000	0.0000000E+000	0.0000000E+000	-68.6351	0.0000000E+000	0.0000000E+000	0.0000000E+000	-21.3649	0.0000000E+000	0.0000000E+000	0.0000000E+000	21.3649	2.55631	68.6351	-2.03922e-06	-2.51513e-06	33466.4
14.6852	13.8481	4.24721	14.4848	-17.0508	14.531	0.290147	-0.00456098	2551.75	219.392	1	11	0.0050012	0.000345272	0	5.49511e-05	0.0660034	0.0202432	0.069038	17.0508	219392	715333	748221	-72.9492	0.0000000E+000	0.0000000E+000	0.0000000E+000	72.9492	0.0000000E+000	0.0000000E+000	0.0000000E+000	-72.9492	0.0000000E+000	0.0000000E+000	0.0000000E+000	-17.0508	0.0000000E+000	0.0000000E+000	0.0000000E+000	17.0508	3.26052	72.9492	2.09322e-06	-1.32335e-06	63615
10.0032	14.7601	3.55807	15.1829	-13.5531	14.9997	0.290142	-0.00473593	4471.64	245.576	1	11	0.00499874	0.000329235	0	5.58602e-05	0.0640295	0.015435	0.0658636	13.5531	245576	1.01874e+06	1.04792e+06	-76.4469	0.0000000E+000	0.0000000E+000	0.0000000E+000	76.4469	0.0000000E+000	0.0000000E+000	0.0000000E+000	-76.4469	0.0000000E+000	0.0000000E+000	0.0000000E+000	-13.5531	0.0000000E+000	0.0000000E+000	0.0000000E+000	13.5531	4.14834	76.4469	9.09102e-07	-1.3741e-06	61264.1
6.81719	15.4065	3.01732	15.6992	-11.081	15.3574	0.290122	-0.00510724	7737.37	285.813	1	11	0.0049947	0.00031815	0	5.19038e-05	0.06251	0.0122424	0.0636975	11.081	285813	1.45937e+06	1.48709e+06	-78.919	0.0000000E+000	0.0000000E+000	0.0000000E+000	78.919	0.0000000E+000	0.0000000E+000	0.0000000E+000	-78.919	0.0000000E+000	0.0000000E+000	0.0000000E+000	-11.081	0.0000000E+000	0.0000000E+000	0.0000000E+000	11.081	5.10602	78.919	-3.95643e-06	-1.48172e-06	56806.1
4.63925	15.8828	2.61161	16.0961	-9.33759	15.8603	0.290152	-0.00441953	13136	345.812	1	11	0.00499238	0.000310161	0	5.37953e-05	0.0613038	0.0100802	0.062127	9.33759	345812	2.1031e+06	2.13134e+06	-80.6624	0.0000000E+000	0.0000000E+000	0.0000000E+000	80.6624	0.0000000E+000	0.0000000E+000	0.0000000E+000	-80.6624	0.0000000E+000	0.0000000E+000	0.0000000E+000	-9.33759	0.0000000E+000	0.0000000E+000	0.0000000E+000	9.33759	6.08162	80.6624	1.89154e-06	-1.28233e-06	65652.1
3.1604	16.2916	2.41153	16.4691	-8.41993	16.5692	0.290148	-0.00328914	20882.7	447.744	1	11	0.00500144	0.000303686	0	5.66579e-05	0.0600652	0.00889101	0.0607197	8.41993	447744	3.02483e+06	3.05779e+06	-81.5801	0.0000000E+000	0.0000000E+000	0.0000000E+000	81.5801	0.0000000E+000	0.0000000E+000	0.0000000E+000	-81.5801	0.0000000E+000	0.0000000E+000	0.0000000E+000	-8.41993	0.0000000E+000	0.0000000E+000	0.0000000E+000	8.41993	6.75572	81.5801	2.86259e-06	-9.54339e-07	88213.9
2.15577	16.6997	2.42013	16.8741	-8.24594	17.5858	0.290159	-0.00179922	30505.6	627.501	1	11	0.00500123	0.000296385	0	5.25029e-05	0.0586497	0.00849956	0.0592624	8.24594	627502	4.32996e+06	4.3752e+06	-81.7541	0.0000000E+000	0.0000000E+000	0.0000000E+000	81.7541	0.0000000E+000	0.0000000E+000	0.0000000E+000	-81.7541	0.0000000E+000	0.0000000E+000	0.0000000E+000	-8.24594	0.0000000E+000	0.0000000E+000	0.0000000E+000	8.24594	6.90032	81.7541	-4.15501e-06	-5.22061e-07	161269
1.46631	17.1296	2.49197	17.3099	-8.27716	19.059	0.290151	-0.00237195	43556.3	902.705	1	11	0.00500568	0.000289179	0	4.39423e-05	0.0571685	0.00831671	0.0577702	8.27716	902705	6.20513e+06	6.27045e+06	-81.7228	0.0000000E+000	0.0000000E+000	0.0000000E+000	81.7228	0.0000000E+000	0.0000000E+000	0.0000000E+000	-81.7228	0.0000000E+000	0.0000000E+000	0.0000000E+000	-8.27716	0.0000000E+000	0.0000000E+000	0.0000000E+000	8.27716	6.87393	81.7228	-8.56063e-06	-6.88222e-07	122326
1.00006	17.6549	2.73305	17.8652	-8.79978	22.2492	0.290156	-0.00257367	58229.7	1362.78	1	12	0.00500174	0.000279972	0	3.83017e-05	0.055316	0.00856315	0.0559748	8.79978	1.36278e+06	8.80325e+06	8.9081e+06	-81.2002	0.0000000E+000	0.0000000E+000	0.0000000E+000	81.2002	0.0000000E+000	0.0000000E+000	0.0000000E+000	-81.2002	0.0000000E+000	0.0000000E+000	0.0000000E+000	-8.79978	0.0000000E+000	0.0000000E+000	0.0000000E+000	8.79978	6.45977	81.2002	-5.64052e-06	-7.46765e-07	112740
0.681362	18.3311	3.05798	18.5844	-9.4708	25.3692	0.290157	-0.00291244	76385	2068.13	1	12	0.00500575	0.000269352	0	4.39578e-05	0.053075	0.0088539	0.0538084	9.4708	2.06812e+06	1.23974e+07	1.25688e+07	-80.5292	0.0000000E+000	0.0000000E+000	0.0000000E+000	80.5292	0.0000000E+000	0.0000000E+000	0.0000000E+000	-80.5292	0.0000000E+000	0.0000000E+000	0.0000000E+000	-9.4708	0.0000000E+000	0.0000000E+000	0.0000000E+000	9.4708	5.99453	80.5292	5.65608e-06	-8.45065e-07	99627
0.464091	19.0972	3.29925	19.3801	-9.80171	29.934	0.290152	-0.0028886	103945	3012.45	1	12	0.00500144	0.000258071	0	5.81919e-05	0.0508461	0.00878421	0.0515993	9.80171	3.01245e+06	1.74371e+07	1.76954e+07	-80.1983	0.0000000E+000	0.0000000E+000	0.0000000E+000	80.1983	0.0000000E+000	0.0000000E+000	0.0000000E+000	-80.1983	0.0000000E+000	0.0000000E+000	0.0000000E+000	-9.80171	0.0000000E+000	0.0000000E+000	0.0000000E+000	9.80171	5.78835	80.1983	1.4234e-05	-8.38131e-07	100447
0.316193	20.079	3.54285	20.3891	-10.0066	36.6163	0.290155	-0.00202717	142074	4289.66	1	12	0.00500404	0.000245427	0	7.20925e-05	0.0482996	0.00852227	0.0490457	10.0066	4.28966e+06	2.43115e+07	2.4687e+07	-79.9934	0.0000000E+000	0.0000000E+000	0.0000000E+000	79.9934	0.0000000E+000	0.0000000E+000	0.0000000E+000	-79.9934	0.0000000E+000	0.0000000E+000	0.0000000E+000	-10.0066	0.0000000E+000	0.0000000E+000	0.0000000E+000	10.0066	5.66746	79.9934	1.39006e-05	-5.88194e-07	143133
0.215268	21.0951	3.70073	21.4172	-9.95022	46.414	0.290157	-0.00109171	199780	5964.89	1	12	0.00500269	0.000233582	0	7.27927e-05	0.0459891	0.00806792	0.0466914	9.95022	5.96489e+06	3.40013e+07	3.45206e+07	-80.0498	0.0000000E+000	0.0000000E+000	0.0000000E+000	80.0498	0.0000000E+000	0.0000000E+000	0.0000000E+000	-80.0498	0.0000000E+000	0.0000000E+000	0.0000000E+000	-9.95022	0.0000000E+000	0.0000000E+000	0.0000000E+000	9.95022	5.70024	80.0498	7.00268e-07	-3.16768e-07	265781
0.146929	22.0301	3.72038	22.342	-9.5855	60.7507	0.290162	0.000109527	291156	8073.36	1	12	0.00500406	0.000223975	0	4.89441e-05	0.0441337	0.00745318	0.0447587	9.5855	8.07337e+06	4.78062e+07	4.84831e+07	-80.4145	0.0000000E+000	0.0000000E+000	0.0000000E+000	80.4145	0.0000000E+000	0.0000000E+000	0.0000000E+000	-80.4145	0.0000000E+000	0.0000000E+000	0.0000000E+000	-9.5855	0.0000000E+000	0.0000000E+000	0.0000000E+000	9.5855	5.92147	80.4145	-2.38487e-05	3.17807e-08	2.64922e+06
0.0999041	22.845	3.69313	23.1416	-9.18301	81.8197	0.290157	0.000317386	431362	10986.1	1	12	0.00500247	0.000216168	0	-6.93846e-06	0.0426584	0.00689618	0.0432122	9.18301	1.09861e+07	6.79581e+07	6.88404e+07	-80.817	0.0000000E+000	0.0000000E+000	0.0000000E+000	80.817	0.0000000E+000	0.0000000E+000	0.0000000E+000	-80.817	0.0000000E+000	0.0000000E+000	0.0000000E+000	-9.18301	0.0000000E+000	0.0000000E+000	0.0000000E+000	9.18301	6.18581	80.817	-5.58825e-05	9.20918e-08	914209
0.0680626	23.5006	3.76777	23.8008	-9.10852	112.732	0.290157	0.000209019	620621	15553	1	12	0.00500248	0.000210182	0	-8.7925e-05	0.0414857	0.00665125	0.0420155	9.10852	1.5553e+07	9.70085e+07	9.82473e+07	-80.8915	0.0000000E+000	0.0000000E+000	0.0000000E+000	80.8915	0.0000000E+000	0.0000000E+000	0.0000000E+000	-80.8915	0.0000000E+000	0.0000000E+000	0.0000000E+000	-9.10852	0.0000000E+000	0.0000000E+000	0.0000000E+000	9.10852	6.23727	80.8915	-8.09865e-05	6.06483e-08	1.38818e+06
0.0464052	24.1445	4.09843	24.4899	-9.6339	158.055	0.290165	-0.00111717	836827	23436.8	1	12	0.00500033	0.000204179	0	-0.000181906	0.0402573	0.00683352	0.0408332	9.6339	2.34368e+07	1.3807e+08	1.40045e+08	-80.3661	0.0000000E+000	0.0000000E+000	0.0000000E+000	80.3661	0.0000000E+000	0.0000000E+000	0.0000000E+000	-80.3661	0.0000000E+000	0.0000000E+000	0.0000000E+000	-9.6339	0.0000000E+000	0.0000000E+000	0.0000000E+000	9.6339	5.89115	80.3661	-9.39806e-05	-3.24165e-07	259732
0.0315922	24.772	4.89005	25.25	-11.1668	224.616	0.290161	-0.00214621	1.03021e+06	38639.4	1	12	0.00500631	0.00019827	0	-0.000228501	0.0388541	0.00766991	0.0396039	11.1668	3.86394e+07	1.95739e+08	1.99516e+08	-78.8332	0.0000000E+000	0.0000000E+000	0.0000000E+000	78.8332	0.0000000E+000	0.0000000E+000	0.0000000E+000	-78.8332	0.0000000E+000	0.0000000E+000	0.0000000E+000	-11.1668	0.0000000E+000	0.0000000E+000	0.0000000E+000	11.1668	5.06579	78.8332	-4.65952e-05	-6.22745e-07	135197
0.0215268	25.3185	6.11052	26.0455	-13.5686	322.285	0.290164	-0.00207342	1.20994e+06	66597.1	1	12	0.00500127	0.000192021	0	-0.000139443	0.0373228	0.00900771	0.0383944	13.5686	6.65971e+07	2.7594e+08	2.83863e+08	-76.4314	0.0000000E+000	0.0000000E+000	0.0000000E+000	76.4314	0.0000000E+000	0.0000000E+000	0.0000000E+000	-76.4314	0.0000000E+000	0.0000000E+000	0.0000000E+000	-13.5686	0.0000000E+000	0.0000000E+000	0.0000000E+000	13.5686	4.14343	76.4314	8.90579e-05	-6.01631e-07	139945
0.0146812	26.0402	7.68782	27.1513	-16.4481	465.481	0.290155	-0.00105936	1.41012e+06	113053	1	12	0.00500686	0.000184406	0	0.000153391	0.0353234	0.0104285	0.0368306	16.4481	1.13053e+08	3.82932e+08	3.99272e+08	-73.5519	0.0000000E+000	0.0000000E+000	0.0000000E+000	73.5519	0.0000000E+000	0.0000000E+000	0.0000000E+000	-73.5519	0.0000000E+000	0.0000000E+000	0.0000000E+000	-16.4481	0.0000000E+000	0.0000000E+000	0.0000000E+000	16.4481	3.3872	73.5519	0.000292834	-3.0738e-07	273896
0.0100092	27.2433	9.839	28.9655	-19.8574	675.503	0.290153	-8.71917e-05	1.61611e+06	186471	1	12	0.00500336	0.000172735	0	0.000598184	0.0324711	0.011727	0.0345238	19.8574	1.86471e+08	5.16319e+08	5.4896e+08	-70.1426	0.0000000E+000	0.0000000E+000	0.0000000E+000	70.1426	0.0000000E+000	0.0000000E+000	0.0000000E+000	-70.1426	0.0000000E+000	0.0000000E+000	0.0000000E+000	-19.8574	0.0000000E+000	0.0000000E+000	0.0000000E+000	19.8574	2.7689	70.1426	0.000444793	-2.52989e-08	3.32776e+06