File: txt/17397_R279_UA651_SOC00_C03.mpt
EC-Lab ASCII FILE
Nb header lines : 63

Potentio Electrochemical Impedance Spectroscopy

Run on channel : 3 (SN 65921)
User :
CE vs. WE compliance from -10 V to 10 V
Electrode connection : standard
Potential control : Ewe
Ewe ctrl range : min = -10.00 V, max = 10.00 V
Safety Limits :
	Do not start on E overload
Acquisition started on : 09/11/2025 15:38:34.165
Loaded Setting File :  C:\Users\Celltest\OneDrive - store-dot.com\Documents\EC-Lab\Data\Charmaine\R279\17382_C01.mpr
Saved on :
	File : 17397_C03.mpr
	Directory : C:\Users\Celltest\OneDrive - store-dot.com\Documents\EC-Lab\Data\Charmaine\R279\
	Host : 169.254.61.224
Device : VMP-3e (SN .003165)
Address : USB
EC-LAB for windows v11.62 (software)
Internet server v27.00 (firmware)
Command interpretor v12.03 (firmware)
Electrode material :
Initial state :
Electrolyte :
Comments :
Electrode surface area : 0.001 cm²
Characteristic mass : 0.001 g
Equivalent Weight : 0.000 g/eq.
Density : 0.000 g/cm3
Volume (V) : 0.001 cm³
Cycle Definition : Charge/Discharge alternance
Mode                Single sine
E (V)               0.0000
vs.                 Eoc
tE (h:m:s)          0:00:0.0000
record              0
dI                  0.000
unit dI             mA
dt (s)              0.000
fi                  100.000
unit fi             kHz
ff                  10.000
unit ff             mHz
Nd                  6
Points              per decade
spacing             Logarithmic
Va (mV)             5.0
pw                  0.10
Na                  2
corr                0
E range min (V)     -10.000
E range max (V)     10.000
I Range             Auto
Bandwidth           5
nc cycles           0
goto Ns'            0
nr cycles           0
inc. cycle          0

freq/Hz	Re(Z)/Ohm	-Im(Z)/Ohm	|Z|/Ohm	Phase(Z)/deg	time/s	<Ewe>/V	<I>/mA	Cs/µF	Cp/µF	cycle number	I Range	|Ewe|/V	|I|/A	Ns	(Q-Qo)/mA.h	Re(Y)/Ohm-1	Im(Y)/Ohm-1	|Y|/Ohm-1	Phase(Y)/deg	Re(C)/nF	Im(C)/nF	|C|/nF	Phase(C)/deg	Re(M)	Im(M)	|M|	Phase(M)/deg	Re(Permittivity)	Im(Permittivity)	|Permittivity|	Phase(Permittivity)/deg	Re(Resistivity)/Ohm.cm	Im(Resistivity)/Ohm.cm	|Resistivity|/Ohm.cm	Phase(Resistivity)/deg	Re(Conductivity)/mS/cm	Im(Conductivity)/mS/cm	|Conductivity|/mS/cm	Phase(Conductivity)/deg	Tan(Delta)	Loss Angle(Delta)/deg	dq/mA.h	Pwe/W	Rwe/Ohm
100004	2.63237	0.853749	2.76736	-17.9693	2.02547	0.246404	0.00998824	1.86412	0.17742	1	9	0.00494136	0.00178559	0	-5.05963e-06	0.343729	0.111481	0.361355	17.9693	177.42	547.042	575.093	-72.0307	0.0000000E+000	0.0000000E+000	0.0000000E+000	72.0307	0.0000000E+000	0.0000000E+000	0.0000000E+000	-72.0307	0.0000000E+000	0.0000000E+000	0.0000000E+000	-17.9693	0.0000000E+000	0.0000000E+000	0.0000000E+000	17.9693	3.08331	72.0307	-5.05963e-06	2.46115e-06	24669.4
68132	2.85124	0.904132	2.99116	-17.5939	2.46249	0.246407	0.0177826	2.58367	0.236059	1	9	0.00547787	0.00183135	0	-3.77061e-06	0.31868	0.101054	0.334318	17.5939	236.059	744.429	780.96	-72.4061	0.0000000E+000	0.0000000E+000	0.0000000E+000	72.4061	0.0000000E+000	0.0000000E+000	0.0000000E+000	-72.4061	0.0000000E+000	0.0000000E+000	0.0000000E+000	-17.5939	0.0000000E+000	0.0000000E+000	0.0000000E+000	17.5939	3.15357	72.4061	1.28902e-06	4.38175e-06	13856.6
46420.4	3.0522	0.954498	3.19797	-17.3657	2.89948	0.246403	0.0147805	3.592	0.319991	1	9	0.00542579	0.00169664	0	-1.46725e-06	0.298445	0.0933312	0.312699	17.3657	319.991	1023.24	1072.11	-72.6343	0.0000000E+000	0.0000000E+000	0.0000000E+000	72.6343	0.0000000E+000	0.0000000E+000	0.0000000E+000	-72.6343	0.0000000E+000	0.0000000E+000	0.0000000E+000	-17.3657	0.0000000E+000	0.0000000E+000	0.0000000E+000	17.3657	3.1977	72.6343	2.30336e-06	3.64195e-06	16670.8
31621.1	3.28391	1.0192	3.43844	-17.2423	3.33647	0.246406	0.0151161	4.93837	0.43389	1	9	0.00533009	0.00155015	0	3.91701e-06	0.27776	0.0862058	0.29083	17.2423	433.89	1398.02	1463.8	-72.7577	0.0000000E+000	0.0000000E+000	0.0000000E+000	72.7577	0.0000000E+000	0.0000000E+000	0.0000000E+000	-72.7577	0.0000000E+000	0.0000000E+000	0.0000000E+000	-17.2423	0.0000000E+000	0.0000000E+000	0.0000000E+000	17.2423	3.22205	72.7577	5.38426e-06	3.7247e-06	16300.9
21544.7	3.50997	1.09246	3.67605	-17.2885	3.77348	0.246407	0.0203372	6.76198	0.597204	1	9	0.00532106	0.00144749	0	6.75868e-06	0.259741	0.080843	0.272031	17.2885	597.204	1918.76	2009.55	-72.7115	0.0000000E+000	0.0000000E+000	0.0000000E+000	72.7115	0.0000000E+000	0.0000000E+000	0.0000000E+000	-72.7115	0.0000000E+000	0.0000000E+000	0.0000000E+000	-17.2885	0.0000000E+000	0.0000000E+000	0.0000000E+000	17.2885	3.2129	72.7115	2.84167e-06	5.01122e-06	12116.1
14678.6	3.76925	1.2	3.95566	-17.6596	4.2105	0.246397	0.0157501	9.03558	0.83153	1	9	0.00512761	0.00129627	0	1.06106e-05	0.240889	0.0766906	0.252802	17.6596	831.53	2611.88	2741.05	-72.3404	0.0000000E+000	0.0000000E+000	0.0000000E+000	72.3404	0.0000000E+000	0.0000000E+000	0.0000000E+000	-72.3404	0.0000000E+000	0.0000000E+000	0.0000000E+000	-17.6596	0.0000000E+000	0.0000000E+000	0.0000000E+000	17.6596	3.14105	72.3404	3.85193e-06	3.88078e-06	15644.2
10002.2	4.03238	1.29675	4.23576	-17.8269	4.64848	0.246404	0.0182301	12.2707	1.15005	1	9	0.00501907	0.00118493	0	1.16375e-05	0.22475	0.0722757	0.236085	17.8269	1150.05	3576.2	3756.57	-72.1731	0.0000000E+000	0.0000000E+000	0.0000000E+000	72.1731	0.0000000E+000	0.0000000E+000	0.0000000E+000	-72.1731	0.0000000E+000	0.0000000E+000	0.0000000E+000	-17.8269	0.0000000E+000	0.0000000E+000	0.0000000E+000	17.8269	3.10961	72.1731	1.02685e-06	4.49198e-06	13516.3
6811.07	4.28924	1.43756	4.52373	-18.5289	5.23551	0.246431	-0.0245311	16.2547	1.64149	1	10	0.00489532	0.00108214	0	1.15314e-05	0.209598	0.0702479	0.221057	18.5289	1641.49	4897.69	5165.45	-71.4711	0.0000000E+000	0.0000000E+000	0.0000000E+000	71.4711	0.0000000E+000	0.0000000E+000	0.0000000E+000	-71.4711	0.0000000E+000	0.0000000E+000	0.0000000E+000	-18.5289	0.0000000E+000	0.0000000E+000	0.0000000E+000	18.5289	2.98369	71.4711	-1.06096e-07	-6.04521e-06	10045.7
4641.49	4.61857	1.61831	4.89389	-19.31	5.7067	0.246472	-0.0134563	21.1886	2.31695	1	10	0.00517164	0.00105675	0	9.24473e-06	0.192841	0.0675699	0.204336	19.31	2316.95	6612.46	7006.63	-70.69	0.0000000E+000	0.0000000E+000	0.0000000E+000	70.69	0.0000000E+000	0.0000000E+000	0.0000000E+000	-70.69	0.0000000E+000	0.0000000E+000	0.0000000E+000	-19.31	0.0000000E+000	0.0000000E+000	0.0000000E+000	19.31	2.85395	70.69	-2.28664e-06	-3.3166e-06	18316.5
3161.01	4.96994	1.83832	5.29903	-20.2988	6.17368	0.246466	-0.0130853	27.3889	3.29626	1	10	0.00520014	0.000981338	0	7.20853e-06	0.176994	0.0654678	0.188714	20.2988	3296.26	8911.54	9501.63	-69.7012	0.0000000E+000	0.0000000E+000	0.0000000E+000	69.7012	0.0000000E+000	0.0000000E+000	0.0000000E+000	-69.7012	0.0000000E+000	0.0000000E+000	0.0000000E+000	-20.2988	0.0000000E+000	0.0000000E+000	0.0000000E+000	20.2988	2.70353	69.7012	-2.0362e-06	-3.22507e-06	18835.4
2155.69	5.37475	2.1092	5.77379	-21.4265	6.64068	0.246467	-0.0131356	35.0038	4.67122	1	10	0.00516116	0.000893895	0	6.20497e-06	0.161226	0.0632699	0.173197	21.4265	4671.23	11903.4	12787.1	-68.5735	0.0000000E+000	0.0000000E+000	0.0000000E+000	68.5735	0.0000000E+000	0.0000000E+000	0.0000000E+000	-68.5735	0.0000000E+000	0.0000000E+000	0.0000000E+000	-21.4265	0.0000000E+000	0.0000000E+000	0.0000000E+000	21.4265	2.54823	68.5735	-1.00356e-06	-3.23749e-06	18763.2
1468.59	5.82799	2.43518	6.3163	-22.6772	7.10794	0.246469	-0.0128839	44.5029	6.61494	1	10	0.00509808	0.000807132	0	4.13692e-06	0.146081	0.0610389	0.158321	22.6772	6614.94	15831.2	17157.6	-67.3228	0.0000000E+000	0.0000000E+000	0.0000000E+000	67.3228	0.0000000E+000	0.0000000E+000	0.0000000E+000	-67.3228	0.0000000E+000	0.0000000E+000	0.0000000E+000	-22.6772	0.0000000E+000	0.0000000E+000	0.0000000E+000	22.6772	2.39325	67.3228	-2.06805e-06	-3.17549e-06	19130
1000.32	6.38895	2.84522	6.99385	-24.0051	7.57667	0.246463	-0.0131188	55.9197	9.25475	1	10	0.00506592	0.000724339	0	2.82921e-06	0.130616	0.058168	0.142983	24.0051	9254.75	20781.5	22749.1	-65.9949	0.0000000E+000	0.0000000E+000	0.0000000E+000	65.9949	0.0000000E+000	0.0000000E+000	0.0000000E+000	-65.9949	0.0000000E+000	0.0000000E+000	0.0000000E+000	-24.0051	0.0000000E+000	0.0000000E+000	0.0000000E+000	24.0051	2.2455	65.9949	-1.30772e-06	-3.23331e-06	18786.9
681.09	7.04645	3.3278	7.79273	-25.2798	8.04246	0.246464	-0.0122388	70.2196	12.8054	1	10	0.00503415	0.000646006	0	9.9689e-07	0.116035	0.0547997	0.128325	25.2798	12805.4	27114.8	29986.5	-64.7202	0.0000000E+000	0.0000000E+000	0.0000000E+000	64.7202	0.0000000E+000	0.0000000E+000	0.0000000E+000	-64.7202	0.0000000E+000	0.0000000E+000	0.0000000E+000	-25.2798	0.0000000E+000	0.0000000E+000	0.0000000E+000	25.2798	2.11745	64.7202	-1.83232e-06	-3.01642e-06	20137.8
463.961	7.8279	3.90589	8.74826	-26.5178	8.51119	0.246454	-0.0121493	87.8251	17.5072	1	10	0.00500202	0.000571773	0	-3.29761e-07	0.102283	0.051036	0.114308	26.5178	17507.2	35086.6	39211.8	-63.4822	0.0000000E+000	0.0000000E+000	0.0000000E+000	63.4822	0.0000000E+000	0.0000000E+000	0.0000000E+000	-63.4822	0.0000000E+000	0.0000000E+000	0.0000000E+000	-26.5178	0.0000000E+000	0.0000000E+000	0.0000000E+000	26.5178	2.00413	63.4822	-1.32665e-06	-2.99426e-06	20285.4
316.316	8.81688	4.5464	9.92004	-27.2778	8.97791	0.246466	-0.0119741	110.67	23.2456	1	10	0.00499339	0.000503364	0	-1.52099e-06	0.0895959	0.0461999	0.100806	27.2778	23245.6	45080.4	50720.8	-62.7222	0.0000000E+000	0.0000000E+000	0.0000000E+000	62.7222	0.0000000E+000	0.0000000E+000	0.0000000E+000	-62.7222	0.0000000E+000	0.0000000E+000	0.0000000E+000	-27.2778	0.0000000E+000	0.0000000E+000	0.0000000E+000	27.2778	1.93931	62.7222	-1.19123e-06	-2.9512e-06	20583.3
215.345	10.0335	5.23513	11.3171	-27.5541	9.44543	0.246457	-0.0121997	141.175	30.2094	1	10	0.00498298	0.000440305	0	-3.13369e-06	0.0783393	0.0408749	0.0883618	27.5541	30209.4	57898.3	65305.6	-62.4459	0.0000000E+000	0.0000000E+000	0.0000000E+000	62.4459	0.0000000E+000	0.0000000E+000	0.0000000E+000	-62.4459	0.0000000E+000	0.0000000E+000	0.0000000E+000	-27.5541	0.0000000E+000	0.0000000E+000	0.0000000E+000	27.5541	1.91656	62.4459	-1.6127e-06	-3.00669e-06	20201.9
146.737	11.5064	5.85101	12.9086	-26.9533	9.90836	0.246461	-0.0122817	185.374	38.0849	1	10	0.00497108	0.000385098	0	-4.76421e-06	0.0690529	0.0351134	0.0774678	26.9533	38084.9	74896.5	84023.4	-63.0467	0.0000000E+000	0.0000000E+000	0.0000000E+000	63.0467	0.0000000E+000	0.0000000E+000	0.0000000E+000	-63.0467	0.0000000E+000	0.0000000E+000	0.0000000E+000	-26.9533	0.0000000E+000	0.0000000E+000	0.0000000E+000	26.9533	1.96657	63.0467	-1.63051e-06	-3.02696e-06	20067.3
100.032	13.2469	6.36139	14.6951	-25.6512	10.3767	0.246458	-0.0121326	250.109	46.869	1	10	0.00497341	0.000338439	0	-6.42383e-06	0.0613431	0.0294581	0.0680497	25.6512	46869	97599.4	108270	-64.3488	0.0000000E+000	0.0000000E+000	0.0000000E+000	64.3488	0.0000000E+000	0.0000000E+000	0.0000000E+000	-64.3488	0.0000000E+000	0.0000000E+000	0.0000000E+000	-25.6512	0.0000000E+000	0.0000000E+000	0.0000000E+000	25.6512	2.08239	64.3488	-1.65962e-06	-2.99017e-06	20313.8
68.104	15.2085	6.58843	16.5742	-23.4226	10.8543	0.246466	-0.0108629	354.704	56.0483	1	10	0.00497035	0.000299884	0	-7.91183e-06	0.0553629	0.0239836	0.0603346	23.4226	56048.3	129380	140998	-66.5774	0.0000000E+000	0.0000000E+000	0.0000000E+000	66.5774	0.0000000E+000	0.0000000E+000	0.0000000E+000	-66.5774	0.0000000E+000	0.0000000E+000	0.0000000E+000	-23.4226	0.0000000E+000	0.0000000E+000	0.0000000E+000	23.4226	2.30836	66.5774	-1.488e-06	-2.67733e-06	22688.8
46.4415	17.2558	6.50785	18.4422	-20.6635	11.3095	0.246446	-0.012677	526.594	65.5733	1	10	0.00497115	0.000269554	0	-9.60628e-06	0.0507353	0.0191344	0.0542236	20.6635	65573.3	173870	185824	-69.3365	0.0000000E+000	0.0000000E+000	0.0000000E+000	69.3365	0.0000000E+000	0.0000000E+000	0.0000000E+000	-69.3365	0.0000000E+000	0.0000000E+000	0.0000000E+000	-20.6635	0.0000000E+000	0.0000000E+000	0.0000000E+000	20.6635	2.65153	69.3365	-1.69445e-06	-3.12418e-06	19440.4
31.6296	19.1875	6.04877	20.1184	-17.4972	12.0005	0.246478	-0.0161654	831.879	75.1985	1	11	0.00496798	0.000246938	0	-1.27591e-05	0.047406	0.0149445	0.0497059	17.4972	75198.5	238540	250112	-72.5028	0.0000000E+000	0.0000000E+000	0.0000000E+000	72.5028	0.0000000E+000	0.0000000E+000	0.0000000E+000	-72.5028	0.0000000E+000	0.0000000E+000	0.0000000E+000	-17.4972	0.0000000E+000	0.0000000E+000	0.0000000E+000	17.4972	3.17213	72.5028	-3.15285e-06	-3.98441e-06	15247.3
21.5517	20.8024	5.26769	21.459	-14.21	12.4393	0.246459	-0.016525	1401.9	84.4773	1	11	0.00496713	0.000231471	0	-1.45204e-05	0.0451747	0.0114394	0.0466005	14.21	84477.3	333606	344135	-75.79	0.0000000E+000	0.0000000E+000	0.0000000E+000	75.79	0.0000000E+000	0.0000000E+000	0.0000000E+000	-75.79	0.0000000E+000	0.0000000E+000	0.0000000E+000	-14.21	0.0000000E+000	0.0000000E+000	0.0000000E+000	14.21	3.94905	75.79	-1.76128e-06	-4.07274e-06	14914.3
14.6852	22.0003	4.39583	22.4351	-11.2994	12.917	0.246476	-0.0152827	2465.47	94.6511	1	11	0.00496023	0.000221092	0	-1.61645e-05	0.043709	0.00873341	0.044573	11.2994	94651.1	473710	483073	-78.7006	0.0000000E+000	0.0000000E+000	0.0000000E+000	78.7006	0.0000000E+000	0.0000000E+000	0.0000000E+000	-78.7006	0.0000000E+000	0.0000000E+000	0.0000000E+000	-11.2994	0.0000000E+000	0.0000000E+000	0.0000000E+000	11.2994	5.0048	78.7006	-1.6441e-06	-3.76681e-06	16127.8
10.0032	22.8872	3.58665	23.1665	-8.90639	13.3857	0.246476	-0.0155587	4436.01	106.328	1	11	0.00496895	0.000214489	0	-1.72318e-05	0.0426453	0.00668295	0.0431658	8.90639	106328	678504	686785	-81.0936	0.0000000E+000	0.0000000E+000	0.0000000E+000	81.0936	0.0000000E+000	0.0000000E+000	0.0000000E+000	-81.0936	0.0000000E+000	0.0000000E+000	0.0000000E+000	-8.90639	0.0000000E+000	0.0000000E+000	0.0000000E+000	8.90639	6.38121	81.0936	-1.06734e-06	-3.83483e-06	15841.7
6.81719	23.4817	2.99264	23.6717	-7.26293	13.7444	0.246456	-0.0165433	7801.19	124.684	1	11	0.00496757	0.000209853	0	-2.11205e-05	0.0419057	0.00534068	0.0422446	7.26293	124684	978334	986248	-82.7371	0.0000000E+000	0.0000000E+000	0.0000000E+000	82.7371	0.0000000E+000	0.0000000E+000	0.0000000E+000	-82.7371	0.0000000E+000	0.0000000E+000	0.0000000E+000	-7.26293	0.0000000E+000	0.0000000E+000	0.0000000E+000	7.26293	7.8465	82.7371	-3.8887e-06	-4.0772e-06	14897.6
4.63925	23.916	2.59906	24.0568	-6.20224	14.2463	0.246493	-0.0146644	13199.5	154.067	1	11	0.00496161	0.000206245	0	-2.1524e-05	0.0413249	0.00449095	0.0415682	6.20224	154067	1.4177e+06	1.42605e+06	-83.7978	0.0000000E+000	0.0000000E+000	0.0000000E+000	83.7978	0.0000000E+000	0.0000000E+000	0.0000000E+000	-83.7978	0.0000000E+000	0.0000000E+000	0.0000000E+000	-6.20224	0.0000000E+000	0.0000000E+000	0.0000000E+000	6.20224	9.20181	83.7978	-4.03413e-07	-3.61468e-06	16808.9
3.1604	24.311	2.34919	24.4242	-5.51942	14.9563	0.246477	-0.0148707	21436.8	198.316	1	11	0.00496646	0.000203342	0	-2.20239e-05	0.0407532	0.00393802	0.040943	5.51942	198316	2.0523e+06	2.06186e+06	-84.4806	0.0000000E+000	0.0000000E+000	0.0000000E+000	84.4806	0.0000000E+000	0.0000000E+000	0.0000000E+000	-84.4806	0.0000000E+000	0.0000000E+000	0.0000000E+000	-5.51942	0.0000000E+000	0.0000000E+000	0.0000000E+000	5.51942	10.3486	84.4806	-4.99922e-07	-3.66529e-06	16574.6
2.15577	24.7364	2.32386	24.8453	-5.36689	15.9728	0.246494	-0.0132856	31769.4	277.932	1	11	0.00497272	0.000200147	0	-2.82993e-05	0.0400726	0.00376461	0.040249	5.36689	277932	2.95846e+06	2.97149e+06	-84.6331	0.0000000E+000	0.0000000E+000	0.0000000E+000	84.6331	0.0000000E+000	0.0000000E+000	0.0000000E+000	-84.6331	0.0000000E+000	0.0000000E+000	0.0000000E+000	-5.36689	0.0000000E+000	0.0000000E+000	0.0000000E+000	5.36689	10.6445	84.6331	-6.27543e-06	-3.27482e-06	18553.5
1.46631	25.1675	2.35941	25.2778	-5.35574	17.4461	0.246488	-0.0129796	46003.4	400.792	1	11	0.0049704	0.000196631	0	-3.87971e-05	0.0393877	0.00369253	0.0395604	5.35574	400791	4.27518e+06	4.29393e+06	-84.6443	0.0000000E+000	0.0000000E+000	0.0000000E+000	84.6443	0.0000000E+000	0.0000000E+000	0.0000000E+000	-84.6443	0.0000000E+000	0.0000000E+000	0.0000000E+000	-5.35574	0.0000000E+000	0.0000000E+000	0.0000000E+000	5.35574	10.6668	84.6443	-1.04978e-05	-3.19931e-06	18990.5
1.00006	25.7293	2.49694	25.8502	-5.54299	20.6361	0.246493	-0.0125805	63735.9	594.665	1	12	0.00496564	0.000192093	0	-5.22847e-05	0.0385035	0.00373663	0.0386844	5.54299	594665	6.12763e+06	6.15642e+06	-84.457	0.0000000E+000	0.0000000E+000	0.0000000E+000	84.457	0.0000000E+000	0.0000000E+000	0.0000000E+000	-84.457	0.0000000E+000	0.0000000E+000	0.0000000E+000	-5.54299	0.0000000E+000	0.0000000E+000	0.0000000E+000	5.54299	10.3043	84.457	-1.34876e-05	-3.10101e-06	19593.2
0.681362	26.3291	2.67749	26.4649	-5.80662	23.7562	0.246495	-0.0123063	87239.8	892.953	1	12	0.00497277	0.0001879	0	-5.73927e-05	0.037592	0.00382284	0.0377859	5.80662	892953	8.78087e+06	8.82616e+06	-84.1934	0.0000000E+000	0.0000000E+000	0.0000000E+000	84.1934	0.0000000E+000	0.0000000E+000	0.0000000E+000	-84.1934	0.0000000E+000	0.0000000E+000	0.0000000E+000	-5.80662	0.0000000E+000	0.0000000E+000	0.0000000E+000	5.80662	9.83352	84.1934	-5.10799e-06	-3.03346e-06	20029.9
0.464091	26.9031	2.78019	27.0463	-5.90006	28.3205	0.24648	-0.0117996	123351	1303.39	1	12	0.00496892	0.000183719	0	-6.00906e-05	0.0367777	0.00380065	0.0369736	5.90006	1.30339e+06	1.26125e+07	1.26797e+07	-84.0999	0.0000000E+000	0.0000000E+000	0.0000000E+000	84.0999	0.0000000E+000	0.0000000E+000	0.0000000E+000	-84.0999	0.0000000E+000	0.0000000E+000	0.0000000E+000	-5.90006	0.0000000E+000	0.0000000E+000	0.0000000E+000	5.90006	9.67669	84.0999	-2.69796e-06	-2.90838e-06	20888.8
0.316193	27.5623	2.95259	27.72	-6.11445	35.0019	0.246486	-0.0101593	170476	1934.13	1	12	0.00497393	0.000179435	0	-6.61375e-05	0.0358698	0.00384253	0.0360751	6.11445	1.93413e+06	1.8055e+07	1.81583e+07	-83.8855	0.0000000E+000	0.0000000E+000	0.0000000E+000	83.8855	0.0000000E+000	0.0000000E+000	0.0000000E+000	-83.8855	0.0000000E+000	0.0000000E+000	0.0000000E+000	-6.11445	0.0000000E+000	0.0000000E+000	0.0000000E+000	6.11445	9.33495	83.8855	-6.04687e-06	-2.50412e-06	24262.2
0.215268	28.2564	3.23207	28.4407	-6.52532	44.7996	0.246498	-0.00810517	228750	2954.21	1	12	0.00497332	0.000174866	0	-8.55052e-05	0.0349331	0.00399577	0.0351609	6.52532	2.95421e+06	2.58273e+07	2.59957e+07	-83.4747	0.0000000E+000	0.0000000E+000	0.0000000E+000	83.4747	0.0000000E+000	0.0000000E+000	0.0000000E+000	-83.4747	0.0000000E+000	0.0000000E+000	0.0000000E+000	-6.52532	0.0000000E+000	0.0000000E+000	0.0000000E+000	6.52532	8.74253	83.4747	-1.93677e-05	-1.99791e-06	30412.5
0.146929	28.97	3.59696	29.1924	-7.07771	59.1362	0.246493	-0.00629225	301146	4572.02	1	12	0.00497014	0.000170255	0	-0.000129185	0.0339944	0.0042208	0.0342554	7.07771	4.57202e+06	3.68231e+07	3.71059e+07	-82.9223	0.0000000E+000	0.0000000E+000	0.0000000E+000	82.9223	0.0000000E+000	0.0000000E+000	0.0000000E+000	-82.9223	0.0000000E+000	0.0000000E+000	0.0000000E+000	-7.07771	0.0000000E+000	0.0000000E+000	0.0000000E+000	7.07771	8.05402	82.9223	-4.36797e-05	-1.551e-06	39174.1
0.0999041	29.7696	4.03748	30.0421	-7.72358	80.2061	0.246498	-0.00460699	394572	7126.66	1	12	0.00497084	0.000165462	0	-0.000202934	0.0329846	0.00447352	0.0332866	7.72358	7.12666e+06	5.25471e+07	5.30281e+07	-82.2764	0.0000000E+000	0.0000000E+000	0.0000000E+000	82.2764	0.0000000E+000	0.0000000E+000	0.0000000E+000	-82.2764	0.0000000E+000	0.0000000E+000	0.0000000E+000	-7.72358	0.0000000E+000	0.0000000E+000	0.0000000E+000	7.72358	7.37331	82.2764	-7.37487e-05	-1.13561e-06	53505.3
0.0680626	30.6713	4.54257	31.0059	-8.42454	111.118	0.246497	-0.00360678	514766	11049	1	12	0.00496962	0.00016028	0	-0.000300175	0.0319039	0.00472512	0.0322519	8.42454	1.1049e+07	7.46029e+07	7.54167e+07	-81.5755	0.0000000E+000	0.0000000E+000	0.0000000E+000	81.5755	0.0000000E+000	0.0000000E+000	0.0000000E+000	-81.5755	0.0000000E+000	0.0000000E+000	0.0000000E+000	-8.42454	0.0000000E+000	0.0000000E+000	0.0000000E+000	8.42454	6.75198	81.5755	-9.72416e-05	-8.8906e-07	68342.6
0.0464052	31.6406	5.21509	32.0675	-9.35951	156.442	0.246495	-0.00357352	657645	17393.4	1	12	0.00496892	0.000154952	0	-0.000406081	0.0307691	0.00507145	0.0311842	9.35951	1.73934e+07	1.05528e+08	1.06952e+08	-80.6405	0.0000000E+000	0.0000000E+000	0.0000000E+000	80.6405	0.0000000E+000	0.0000000E+000	0.0000000E+000	-80.6405	0.0000000E+000	0.0000000E+000	0.0000000E+000	-9.35951	0.0000000E+000	0.0000000E+000	0.0000000E+000	9.35951	6.06712	80.6405	-0.000105906	-8.80854e-07	68978.2
0.0315922	32.5503	6.32317	33.1588	-10.9933	223.003	0.246496	-0.00333122	796719	28972	1	12	0.00496982	0.00014988	0	-0.000471516	0.0296045	0.00575093	0.0301579	10.9933	2.8972e+07	1.49141e+08	1.51929e+08	-79.0067	0.0000000E+000	0.0000000E+000	0.0000000E+000	79.0067	0.0000000E+000	0.0000000E+000	0.0000000E+000	-79.0067	0.0000000E+000	0.0000000E+000	0.0000000E+000	-10.9933	0.0000000E+000	0.0000000E+000	0.0000000E+000	10.9933	5.14778	79.0067	-6.54347e-05	-8.21132e-07	73995.8
0.0215268	33.357	7.85635	34.2696	-13.253	320.672	0.246496	-0.00262507	941067	49458.7	1	12	0.00496977	0.00014502	0	-0.000431949	0.0284032	0.00668962	0.0291803	13.253	4.94586e+07	2.09995e+08	2.1574e+08	-76.747	0.0000000E+000	0.0000000E+000	0.0000000E+000	76.747	0.0000000E+000	0.0000000E+000	0.0000000E+000	-76.747	0.0000000E+000	0.0000000E+000	0.0000000E+000	-13.253	0.0000000E+000	0.0000000E+000	0.0000000E+000	13.253	4.24586	76.747	3.95674e-05	-6.4707e-07	93900.6
0.0146812	34.3472	9.84039	35.729	-15.9869	463.867	0.246496	-0.00150465	1.10166e+06	83566	1	12	0.00497267	0.000139177	0	-0.000240751	0.026906	0.00770851	0.0279885	15.9869	8.3566e+07	2.91681e+08	3.03416e+08	-74.0131	0.0000000E+000	0.0000000E+000	0.0000000E+000	74.0131	0.0000000E+000	0.0000000E+000	0.0000000E+000	-74.0131	0.0000000E+000	0.0000000E+000	0.0000000E+000	-15.9869	0.0000000E+000	0.0000000E+000	0.0000000E+000	15.9869	3.49043	74.0131	0.000191197	-3.70889e-07	163823
0.0100092	35.8669	12.6146	38.0205	-19.3771	673.886	0.246495	-0.000487873	1.26052e+06	138759	1	12	0.00496951	0.000130706	0	6.07544e-05	0.0248117	0.00872645	0.0263016	19.3771	1.38758e+08	3.94529e+08	4.18219e+08	-70.6229	0.0000000E+000	0.0000000E+000	0.0000000E+000	70.6229	0.0000000E+000	0.0000000E+000	0.0000000E+000	-70.6229	0.0000000E+000	0.0000000E+000	0.0000000E+000	-19.3771	0.0000000E+000	0.0000000E+000	0.0000000E+000	19.3771	2.84328	70.6229	0.000301506	-1.20258e-07	505245