File: txt/17399_R279_UA651_SOC00_C05.mpt
EC-Lab ASCII FILE
Nb header lines : 63

Potentio Electrochemical Impedance Spectroscopy

Run on channel : 5 (SN 65912)
User :
CE vs. WE compliance from -10 V to 10 V
Electrode connection : standard
Potential control : Ewe
Ewe ctrl range : min = -10.00 V, max = 10.00 V
Safety Limits :
	Do not start on E overload
Acquisition started on : 09/11/2025 15:38:49.585
Loaded Setting File :  C:\Users\Celltest\OneDrive - store-dot.com\Documents\EC-Lab\Data\Charmaine\R279\17382_C01.mpr
Saved on :
	File : 17399_C05.mpr
	Directory : C:\Users\Celltest\OneDrive - store-dot.com\Documents\EC-Lab\Data\Charmaine\R279\
	Host : 169.254.61.224
Device : VMP-3e (SN .003165)
Address : USB
EC-LAB for windows v11.62 (software)
Internet server v27.00 (firmware)
Command interpretor v12.03 (firmware)
Electrode material :
Initial state :
Electrolyte :
Comments :
Electrode surface area : 0.001 cm²
Characteristic mass : 0.001 g
Equivalent Weight : 0.000 g/eq.
Density : 0.000 g/cm3
Volume (V) : 0.001 cm³
Cycle Definition : Charge/Discharge alternance
Mode                Single sine
E (V)               0.0000
vs.                 Eoc
tE (h:m:s)          0:00:0.0000
record              0
dI                  0.000
unit dI             mA
dt (s)              0.000
fi                  100.000
unit fi             kHz
ff                  10.000
unit ff             mHz
Nd                  6
Points              per decade
spacing             Logarithmic
Va (mV)             5.0
pw                  0.10
Na                  2
corr                0
E range min (V)     -10.000
E range max (V)     10.000
I Range             Auto
Bandwidth           5
nc cycles           0
goto Ns'            0
nr cycles           0
inc. cycle          0

freq/Hz	Re(Z)/Ohm	-Im(Z)/Ohm	|Z|/Ohm	Phase(Z)/deg	time/s	<Ewe>/V	<I>/mA	Cs/µF	Cp/µF	cycle number	I Range	|Ewe|/V	|I|/A	Ns	(Q-Qo)/mA.h	Re(Y)/Ohm-1	Im(Y)/Ohm-1	|Y|/Ohm-1	Phase(Y)/deg	Re(C)/nF	Im(C)/nF	|C|/nF	Phase(C)/deg	Re(M)	Im(M)	|M|	Phase(M)/deg	Re(Permittivity)	Im(Permittivity)	|Permittivity|	Phase(Permittivity)/deg	Re(Resistivity)/Ohm.cm	Im(Resistivity)/Ohm.cm	|Resistivity|/Ohm.cm	Phase(Resistivity)/deg	Re(Conductivity)/mS/cm	Im(Conductivity)/mS/cm	|Conductivity|/mS/cm	Phase(Conductivity)/deg	Tan(Delta)	Loss Angle(Delta)/deg	dq/mA.h	Pwe/W	Rwe/Ohm
100004	3.27655	1.17687	3.48149	-19.7573	2.0255	0.234831	-0.0352963	1.3523	0.154526	1	10	0.00496624	0.00142647	0	-4.56155e-06	0.270325	0.0970954	0.287233	19.7573	154.526	430.219	457.129	-70.2427	0.0000000E+000	0.0000000E+000	0.0000000E+000	70.2427	0.0000000E+000	0.0000000E+000	0.0000000E+000	-70.2427	0.0000000E+000	0.0000000E+000	0.0000000E+000	-19.7573	0.0000000E+000	0.0000000E+000	0.0000000E+000	19.7573	2.78411	70.2427	-4.56155e-06	-8.28869e-06	6653.14
68132	3.566	1.23639	3.77425	-19.1223	2.46249	0.234822	-0.0342854	1.88935	0.202751	1	10	0.00539813	0.00143025	0	-1.05765e-05	0.250333	0.0867949	0.264953	19.1223	202.751	584.773	618.924	-70.8777	0.0000000E+000	0.0000000E+000	0.0000000E+000	70.8777	0.0000000E+000	0.0000000E+000	0.0000000E+000	-70.8777	0.0000000E+000	0.0000000E+000	0.0000000E+000	-19.1223	0.0000000E+000	0.0000000E+000	0.0000000E+000	19.1223	2.88419	70.8777	-6.01497e-06	-8.05096e-06	6849.02
46420.4	3.87238	1.28847	4.08111	-18.404	2.89948	0.234816	-0.0366535	2.66096	0.265233	1	10	0.00536323	0.00131416	0	-1.44252e-05	0.232499	0.07736	0.245031	18.404	265.233	797.137	840.105	-71.596	0.0000000E+000	0.0000000E+000	0.0000000E+000	71.596	0.0000000E+000	0.0000000E+000	0.0000000E+000	-71.596	0.0000000E+000	0.0000000E+000	0.0000000E+000	-18.404	0.0000000E+000	0.0000000E+000	0.0000000E+000	18.404	3.00542	71.596	-3.84863e-06	-8.60682e-06	6406.36
31621.1	4.18377	1.35655	4.3982	-17.9647	3.3365	0.234816	-0.0358139	3.71029	0.352961	1	10	0.00533943	0.001214	0	-1.63364e-05	0.216281	0.0701268	0.227366	17.9647	352.961	1088.58	1144.37	-72.0353	0.0000000E+000	0.0000000E+000	0.0000000E+000	72.0353	0.0000000E+000	0.0000000E+000	0.0000000E+000	-72.0353	0.0000000E+000	0.0000000E+000	0.0000000E+000	-17.9647	0.0000000E+000	0.0000000E+000	0.0000000E+000	17.9647	3.08414	72.0353	-1.9113e-06	-8.40967e-06	6556.56
21544.7	4.50065	1.41774	4.71867	-17.4848	3.77349	0.234819	-0.0338777	5.21056	0.470367	1	10	0.00521678	0.00110556	0	-2.04688e-05	0.202133	0.0636732	0.211924	17.4848	470.367	1493.19	1565.53	-72.5152	0.0000000E+000	0.0000000E+000	0.0000000E+000	72.5152	0.0000000E+000	0.0000000E+000	0.0000000E+000	-72.5152	0.0000000E+000	0.0000000E+000	0.0000000E+000	-17.4848	0.0000000E+000	0.0000000E+000	0.0000000E+000	17.4848	3.17453	72.5152	-4.1324e-06	-7.95515e-06	6931.38
14678.6	4.82569	1.50498	5.05493	-17.3211	4.21048	0.234818	-0.033928	7.20451	0.638612	1	10	0.00513982	0.00101679	0	-2.53046e-05	0.188856	0.0588982	0.197827	17.3211	638.612	2047.7	2144.97	-72.6789	0.0000000E+000	0.0000000E+000	0.0000000E+000	72.6789	0.0000000E+000	0.0000000E+000	0.0000000E+000	-72.6789	0.0000000E+000	0.0000000E+000	0.0000000E+000	-17.3211	0.0000000E+000	0.0000000E+000	0.0000000E+000	17.3211	3.20648	72.6789	-4.83574e-06	-7.96692e-06	6921.09
10002.2	5.16538	1.60866	5.41007	-17.2982	4.64749	0.234819	-0.0345591	9.89143	0.874544	1	10	0.0050765	0.000938342	0	-2.98498e-05	0.17648	0.0549614	0.18484	17.2982	874.544	2808.14	2941.17	-72.7018	0.0000000E+000	0.0000000E+000	0.0000000E+000	72.7018	0.0000000E+000	0.0000000E+000	0.0000000E+000	-72.7018	0.0000000E+000	0.0000000E+000	0.0000000E+000	-17.2982	0.0000000E+000	0.0000000E+000	0.0000000E+000	17.2982	3.21098	72.7018	-4.54522e-06	-8.11512e-06	6794.69
6811.07	5.53072	1.74673	5.8	-17.5273	5.02649	0.234819	-0.0213019	13.3776	1.21332	1	10	0.00525213	0.000905539	0	-3.13167e-05	0.164409	0.0519242	0.172414	17.5273	1213.32	3841.77	4028.81	-72.4727	0.0000000E+000	0.0000000E+000	0.0000000E+000	72.4727	0.0000000E+000	0.0000000E+000	0.0000000E+000	-72.4727	0.0000000E+000	0.0000000E+000	0.0000000E+000	-17.5273	0.0000000E+000	0.0000000E+000	0.0000000E+000	17.5273	3.16633	72.4727	-1.46686e-06	-5.0021e-06	11023.4
4641.49	5.93043	1.91711	6.2326	-17.9143	5.49669	0.234905	-0.0036548	17.8862	1.69228	1	10	0.00527782	0.000846808	0	-3.14055e-05	0.152668	0.0493523	0.160447	17.9143	1692.27	5234.93	5501.66	-72.0857	0.0000000E+000	0.0000000E+000	0.0000000E+000	72.0857	0.0000000E+000	0.0000000E+000	0.0000000E+000	-72.0857	0.0000000E+000	0.0000000E+000	0.0000000E+000	-17.9143	0.0000000E+000	0.0000000E+000	0.0000000E+000	17.9143	3.09343	72.0857	-8.87883e-08	-8.58529e-07	64273
3161.01	6.35775	2.14151	6.70872	-18.6153	5.96368	0.234908	-0.00324151	23.5112	2.39571	1	10	0.00525164	0.000782807	0	-3.18469e-05	0.141261	0.0475816	0.14906	18.6153	2395.71	7112.42	7505.06	-71.3847	0.0000000E+000	0.0000000E+000	0.0000000E+000	71.3847	0.0000000E+000	0.0000000E+000	0.0000000E+000	-71.3847	0.0000000E+000	0.0000000E+000	0.0000000E+000	-18.6153	0.0000000E+000	0.0000000E+000	0.0000000E+000	18.6153	2.96882	71.3847	-4.41416e-07	-7.61454e-07	72468.6
2155.69	6.85549	2.40381	7.26471	-19.3227	6.42966	0.234908	-0.0035096	30.7138	3.36277	1	10	0.00522433	0.000719137	0	-3.24501e-05	0.129898	0.0455473	0.137652	19.3227	3362.77	9590.37	10162.8	-70.6773	0.0000000E+000	0.0000000E+000	0.0000000E+000	70.6773	0.0000000E+000	0.0000000E+000	0.0000000E+000	-70.6773	0.0000000E+000	0.0000000E+000	0.0000000E+000	-19.3227	0.0000000E+000	0.0000000E+000	0.0000000E+000	19.3227	2.85193	70.6773	-6.03188e-07	-8.24432e-07	66933.1
1468.59	7.37446	2.72961	7.86343	-20.3117	6.89696	0.234908	-0.00287848	39.7026	4.78406	1	10	0.00518786	0.000659745	0	-3.26137e-05	0.119263	0.0441445	0.127171	20.3117	4784.06	12924.9	13781.9	-69.6883	0.0000000E+000	0.0000000E+000	0.0000000E+000	69.6883	0.0000000E+000	0.0000000E+000	0.0000000E+000	-69.6883	0.0000000E+000	0.0000000E+000	0.0000000E+000	-20.3117	0.0000000E+000	0.0000000E+000	0.0000000E+000	20.3117	2.70166	69.6883	-1.63617e-07	-6.76177e-07	81608.3
1000.32	8.01234	3.11006	8.59477	-21.2142	7.36568	0.234905	-0.0035096	51.1578	6.69856	1	10	0.00516618	0.000601084	0	-3.31115e-05	0.108465	0.0421018	0.11635	21.2142	6698.56	17257.3	18511.7	-68.7858	0.0000000E+000	0.0000000E+000	0.0000000E+000	68.7858	0.0000000E+000	0.0000000E+000	0.0000000E+000	-68.7858	0.0000000E+000	0.0000000E+000	0.0000000E+000	-21.2142	0.0000000E+000	0.0000000E+000	0.0000000E+000	21.2142	2.57626	68.7858	-4.978e-07	-8.24424e-07	66932.3
681.09	8.754	3.5872	9.46047	-22.2828	7.83141	0.234898	-0.00321359	65.1419	9.36582	1	10	0.00515643	0.00054505	0	-3.31922e-05	0.0978095	0.0400802	0.105703	22.2828	9365.82	22855.8	24700.4	-67.7172	0.0000000E+000	0.0000000E+000	0.0000000E+000	67.7172	0.0000000E+000	0.0000000E+000	0.0000000E+000	-67.7172	0.0000000E+000	0.0000000E+000	0.0000000E+000	-22.2828	0.0000000E+000	0.0000000E+000	0.0000000E+000	22.2828	2.44034	67.7172	-8.07388e-08	-7.54865e-07	73095.2
463.961	9.62692	4.11692	10.4703	-23.1538	8.30018	0.234909	-0.0030479	83.3234	12.8824	1	10	0.00513982	0.000490896	0	-3.38656e-05	0.0878156	0.037554	0.0955085	23.1538	12882.4	30123.9	32762.8	-66.8462	0.0000000E+000	0.0000000E+000	0.0000000E+000	66.8462	0.0000000E+000	0.0000000E+000	0.0000000E+000	-66.8462	0.0000000E+000	0.0000000E+000	0.0000000E+000	-23.1538	0.0000000E+000	0.0000000E+000	0.0000000E+000	23.1538	2.33838	66.8462	-6.73396e-07	-7.15979e-07	77072.6
316.316	10.7109	4.71377	11.7023	-23.7538	8.76692	0.234908	-0.00359338	106.741	17.3191	1	10	0.00513106	0.000438467	0	-3.45104e-05	0.0782142	0.0344213	0.0854534	23.7538	17319.1	39353.6	42996	-66.2462	0.0000000E+000	0.0000000E+000	0.0000000E+000	66.2462	0.0000000E+000	0.0000000E+000	0.0000000E+000	-66.2462	0.0000000E+000	0.0000000E+000	0.0000000E+000	-23.7538	0.0000000E+000	0.0000000E+000	0.0000000E+000	23.7538	2.27226	66.2462	-6.44776e-07	-8.44112e-07	65372.4
215.345	12.0129	5.27315	13.1193	-23.6994	9.23443	0.234903	-0.00269418	140.157	22.643	1	10	0.00512843	0.000390906	0	-3.46815e-05	0.0697953	0.0306371	0.0762234	23.6994	22643	51583.7	56334.5	-66.3006	0.0000000E+000	0.0000000E+000	0.0000000E+000	66.3006	0.0000000E+000	0.0000000E+000	0.0000000E+000	-66.3006	0.0000000E+000	0.0000000E+000	0.0000000E+000	-23.6994	0.0000000E+000	0.0000000E+000	0.0000000E+000	23.6994	2.27813	66.3006	-1.71094e-07	-6.32869e-07	87189.1
146.737	13.5518	5.76192	14.7258	-23.0341	9.69737	0.234902	-0.00333833	188.24	28.8195	1	10	0.00512468	0.000348006	0	-3.50396e-05	0.0624937	0.0265709	0.0679078	23.0341	28819.5	67782.2	73654.5	-66.9659	0.0000000E+000	0.0000000E+000	0.0000000E+000	66.9659	0.0000000E+000	0.0000000E+000	0.0000000E+000	-66.9659	0.0000000E+000	0.0000000E+000	0.0000000E+000	-23.0341	0.0000000E+000	0.0000000E+000	0.0000000E+000	23.0341	2.35196	66.9659	-3.5814e-07	-7.84178e-07	70365
100.032	15.2718	6.10475	16.4468	-21.7886	10.1657	0.234904	-0.0033495	260.623	35.9077	1	10	0.00512599	0.000311672	0	-3.54377e-05	0.0564585	0.0225687	0.0608022	21.7886	35907.8	89827.8	96738.8	-68.2114	0.0000000E+000	0.0000000E+000	0.0000000E+000	68.2114	0.0000000E+000	0.0000000E+000	0.0000000E+000	-68.2114	0.0000000E+000	0.0000000E+000	0.0000000E+000	-21.7886	0.0000000E+000	0.0000000E+000	0.0000000E+000	21.7886	2.50163	68.2114	-3.98086e-07	-7.86811e-07	70131.1
68.104	17.1253	6.17049	18.203	-19.8148	10.6443	0.234901	-0.00236279	378.728	43.5191	1	10	0.00512048	0.000281298	0	-3.57414e-05	0.0516833	0.0186222	0.0549359	19.8148	43519.1	120781	128382	-70.1852	0.0000000E+000	0.0000000E+000	0.0000000E+000	70.1852	0.0000000E+000	0.0000000E+000	0.0000000E+000	-70.1852	0.0000000E+000	0.0000000E+000	0.0000000E+000	-19.8148	0.0000000E+000	0.0000000E+000	0.0000000E+000	19.8148	2.77535	70.1852	-3.03703e-07	-5.55022e-07	99416.5
46.4415	18.9701	5.87954	19.8604	-17.2201	11.3475	0.234901	-0.00697674	582.868	51.0836	1	11	0.0051238	0.000257991	0	-3.69078e-05	0.0480944	0.0149062	0.0503515	17.2201	51083.6	164819	172554	-72.7799	0.0000000E+000	0.0000000E+000	0.0000000E+000	72.7799	0.0000000E+000	0.0000000E+000	0.0000000E+000	-72.7799	0.0000000E+000	0.0000000E+000	0.0000000E+000	-17.2201	0.0000000E+000	0.0000000E+000	0.0000000E+000	17.2201	3.22647	72.7799	-1.16634e-06	-1.63884e-06	33669.1
31.6296	20.616	5.28694	21.2831	-14.3835	11.7934	0.234901	-0.00696539	951.749	58.7302	1	11	0.00511682	0.000240417	0	-3.76906e-05	0.0455128	0.0116717	0.0469856	14.3835	58730.2	229014	236424	-75.6165	0.0000000E+000	0.0000000E+000	0.0000000E+000	75.6165	0.0000000E+000	0.0000000E+000	0.0000000E+000	-75.6165	0.0000000E+000	0.0000000E+000	0.0000000E+000	-14.3835	0.0000000E+000	0.0000000E+000	0.0000000E+000	14.3835	3.89941	75.6165	-7.82823e-07	-1.63618e-06	33724.1
21.5517	21.9617	4.49248	22.4165	-11.5609	12.2323	0.234903	-0.00702794	1643.81	66.0221	1	11	0.00511814	0.000228321	0	-3.92714e-05	0.043705	0.00894028	0.04461	11.5609	66022.1	322752	329436	-78.4391	0.0000000E+000	0.0000000E+000	0.0000000E+000	78.4391	0.0000000E+000	0.0000000E+000	0.0000000E+000	-78.4391	0.0000000E+000	0.0000000E+000	0.0000000E+000	-11.5609	0.0000000E+000	0.0000000E+000	0.0000000E+000	11.5609	4.88855	78.4391	-1.5808e-06	-1.65089e-06	33424.2
14.6852	22.9244	3.74037	23.2275	-9.26681	12.7101	0.234904	-0.0065093	2897.52	75.1366	1	11	0.00512029	0.000220441	0	-4.00944e-05	0.0424905	0.00693282	0.0430524	9.26681	75136.6	460504	466594	-80.7332	0.0000000E+000	0.0000000E+000	0.0000000E+000	80.7332	0.0000000E+000	0.0000000E+000	0.0000000E+000	-80.7332	0.0000000E+000	0.0000000E+000	0.0000000E+000	-9.26681	0.0000000E+000	0.0000000E+000	0.0000000E+000	9.26681	6.1289	80.7332	-8.23078e-07	-1.52906e-06	36087.4
10.0032	23.5911	3.03154	23.7851	-7.32257	13.1787	0.234906	-0.00664463	5248.3	85.2579	1	11	0.00511845	0.000215196	0	-3.98196e-05	0.0417003	0.00535863	0.0420432	7.32257	85257.9	663468	668924	-82.6774	0.0000000E+000	0.0000000E+000	0.0000000E+000	82.6774	0.0000000E+000	0.0000000E+000	0.0000000E+000	-82.6774	0.0000000E+000	0.0000000E+000	0.0000000E+000	-7.32257	0.0000000E+000	0.0000000E+000	0.0000000E+000	7.32257	7.78189	82.6774	2.74868e-07	-1.56087e-06	35352.8
6.81719	24.0763	2.56164	24.2122	-6.07324	13.5364	0.234876	-0.00836103	9113.72	102.015	1	11	0.00511572	0.000211287	0	-4.10901e-05	0.0410697	0.00436968	0.0413015	6.07324	102015	958817	964229	-83.9268	0.0000000E+000	0.0000000E+000	0.0000000E+000	83.9268	0.0000000E+000	0.0000000E+000	0.0000000E+000	-83.9268	0.0000000E+000	0.0000000E+000	0.0000000E+000	-6.07324	0.0000000E+000	0.0000000E+000	0.0000000E+000	6.07324	9.39877	83.9268	-1.27056e-06	-1.96381e-06	28091.8
4.63925	24.4271	2.22705	24.5284	-5.20933	14.0383	0.234899	-0.00643818	15404.3	126.988	1	11	0.00511575	0.000208564	0	-3.9834e-05	0.0406007	0.00370162	0.0407691	5.20933	126989	1.39285e+06	1.39863e+06	-84.7907	0.0000000E+000	0.0000000E+000	0.0000000E+000	84.7907	0.0000000E+000	0.0000000E+000	0.0000000E+000	-84.7907	0.0000000E+000	0.0000000E+000	0.0000000E+000	-5.20933	0.0000000E+000	0.0000000E+000	0.0000000E+000	5.20933	10.9684	84.7907	1.2561e-06	-1.51232e-06	36485.3
3.1604	24.8134	2.12132	24.9039	-4.88639	14.7482	0.234903	-0.00602612	23739.5	172.247	1	11	0.00511888	0.000205545	0	-4.40567e-05	0.0400084	0.00342036	0.0401543	4.88639	172247	2.01479e+06	2.02214e+06	-85.1136	0.0000000E+000	0.0000000E+000	0.0000000E+000	85.1136	0.0000000E+000	0.0000000E+000	0.0000000E+000	-85.1136	0.0000000E+000	0.0000000E+000	0.0000000E+000	-4.88639	0.0000000E+000	0.0000000E+000	0.0000000E+000	4.88639	11.6971	85.1136	-4.22262e-06	-1.41555e-06	38980.8
2.15577	25.209	2.06336	25.2933	-4.67924	15.7648	0.234922	-0.00521036	35780.2	238.112	1	11	0.00512137	0.000202479	0	-4.82711e-05	0.0394043	0.00322525	0.0395361	4.67924	238112	2.90912e+06	2.91885e+06	-85.3208	0.0000000E+000	0.0000000E+000	0.0000000E+000	85.3208	0.0000000E+000	0.0000000E+000	0.0000000E+000	-85.3208	0.0000000E+000	0.0000000E+000	0.0000000E+000	-4.67924	0.0000000E+000	0.0000000E+000	0.0000000E+000	4.67924	12.2174	85.3208	-4.2144e-06	-1.22403e-06	45087.4
1.46631	25.6484	2.16986	25.7401	-4.83571	17.2381	0.234924	-0.00517701	50022.2	355.473	1	11	0.00512314	0.000199034	0	-4.81021e-05	0.0387117	0.00327501	0.03885	4.83571	355474	4.20181e+06	4.21682e+06	-85.1643	0.0000000E+000	0.0000000E+000	0.0000000E+000	85.1643	0.0000000E+000	0.0000000E+000	0.0000000E+000	-85.1643	0.0000000E+000	0.0000000E+000	0.0000000E+000	-4.83571	0.0000000E+000	0.0000000E+000	0.0000000E+000	4.83571	11.8203	85.1643	1.68989e-07	-1.2162e-06	45378.4
1.00006	26.1082	2.2799	26.2075	-4.9907	20.4291	0.234923	-0.00437427	69803.5	528.27	1	12	0.0051229	0.000195475	0	-4.45269e-05	0.0380123	0.00331943	0.038157	4.9907	528270	6.04946e+06	6.07248e+06	-85.0093	0.0000000E+000	0.0000000E+000	0.0000000E+000	85.0093	0.0000000E+000	0.0000000E+000	0.0000000E+000	-85.0093	0.0000000E+000	0.0000000E+000	0.0000000E+000	-4.9907	0.0000000E+000	0.0000000E+000	0.0000000E+000	4.9907	11.4515	85.0093	3.57513e-06	-1.02762e-06	53705.6
0.681362	26.6562	2.38716	26.7629	-5.11739	23.5491	0.234924	-0.00389942	97850.1	778.499	1	12	0.00512109	0.000191351	0	-4.24495e-05	0.0372163	0.00333285	0.0373652	5.11739	778498	8.69311e+06	8.7279e+06	-84.8826	0.0000000E+000	0.0000000E+000	0.0000000E+000	84.8826	0.0000000E+000	0.0000000E+000	0.0000000E+000	-84.8826	0.0000000E+000	0.0000000E+000	0.0000000E+000	-5.11739	0.0000000E+000	0.0000000E+000	0.0000000E+000	5.11739	11.1665	84.8826	2.07743e-06	-9.16068e-07	60246
0.464091	27.2117	2.56557	27.3324	-5.38602	28.1138	0.234922	-0.00315173	133670	1177.73	1	12	0.00512226	0.000187406	0	-4.87596e-05	0.0364251	0.00343422	0.0365866	5.38602	1.17773e+06	1.24916e+07	1.2547e+07	-84.614	0.0000000E+000	0.0000000E+000	0.0000000E+000	84.614	0.0000000E+000	0.0000000E+000	0.0000000E+000	-84.614	0.0000000E+000	0.0000000E+000	0.0000000E+000	-5.38602	0.0000000E+000	0.0000000E+000	0.0000000E+000	5.38602	10.6065	84.614	-6.31007e-06	-7.4041e-07	74537.3
0.316193	27.7605	2.78548	27.8999	-5.72988	34.7952	0.234927	-0.0023837	180704	1801.21	1	12	0.00512287	0.000183616	0	-6.74911e-05	0.0356634	0.00357847	0.0358425	5.72988	1.80121e+06	1.79511e+07	1.80412e+07	-84.2701	0.0000000E+000	0.0000000E+000	0.0000000E+000	84.2701	0.0000000E+000	0.0000000E+000	0.0000000E+000	-84.2701	0.0000000E+000	0.0000000E+000	0.0000000E+000	-5.72988	0.0000000E+000	0.0000000E+000	0.0000000E+000	5.72988	9.96611	84.2701	-1.87315e-05	-5.59997e-07	98555.4
0.215268	28.3635	3.02668	28.5245	-6.09101	44.5929	0.234918	-0.00243863	244272	2750.24	1	12	0.00512328	0.00017961	0	-9.84934e-05	0.0348596	0.00371989	0.0350575	6.09101	2.75024e+06	2.57729e+07	2.59193e+07	-83.909	0.0000000E+000	0.0000000E+000	0.0000000E+000	83.909	0.0000000E+000	0.0000000E+000	0.0000000E+000	-83.909	0.0000000E+000	0.0000000E+000	0.0000000E+000	-6.09101	0.0000000E+000	0.0000000E+000	0.0000000E+000	6.09101	9.37115	83.909	-3.10024e-05	-5.72878e-07	96331.9
0.146929	29.0729	3.39404	29.2704	-6.65871	58.9296	0.234924	-0.00250153	319151	4291.16	1	12	0.00512025	0.000174929	0	-0.000133156	0.0339338	0.00396151	0.0341642	6.65871	4.29116e+06	3.67575e+07	3.70071e+07	-83.3413	0.0000000E+000	0.0000000E+000	0.0000000E+000	83.3413	0.0000000E+000	0.0000000E+000	0.0000000E+000	-83.3413	0.0000000E+000	0.0000000E+000	0.0000000E+000	-6.65871	0.0000000E+000	0.0000000E+000	0.0000000E+000	6.65871	8.56587	83.3413	-3.46622e-05	-5.87669e-07	93912
0.0999041	29.8637	3.91108	30.1188	-7.46122	79.9995	0.234923	-0.00300041	407324	6868.45	1	12	0.00512326	0.000170102	0	-0.000156582	0.0329208	0.00431144	0.0332019	7.46122	6.86846e+06	5.24453e+07	5.28932e+07	-82.5388	0.0000000E+000	0.0000000E+000	0.0000000E+000	82.5388	0.0000000E+000	0.0000000E+000	0.0000000E+000	-82.5388	0.0000000E+000	0.0000000E+000	0.0000000E+000	-7.46122	0.0000000E+000	0.0000000E+000	0.0000000E+000	7.46122	7.63568	82.5388	-2.34261e-05	-7.04863e-07	78296.9
0.0680626	30.646	4.55814	30.9831	-8.4599	110.911	0.234924	-0.0031469	513007	11103.3	1	12	0.00512451	0.000165397	0	-0.000155223	0.0319245	0.00474831	0.0322757	8.4599	1.11033e+07	7.4651e+07	7.54722e+07	-81.5401	0.0000000E+000	0.0000000E+000	0.0000000E+000	81.5401	0.0000000E+000	0.0000000E+000	0.0000000E+000	-81.5401	0.0000000E+000	0.0000000E+000	0.0000000E+000	-8.4599	0.0000000E+000	0.0000000E+000	0.0000000E+000	8.4599	6.72334	81.5401	1.35845e-06	-7.39284e-07	74652.6
0.0464052	31.3643	5.31438	31.8113	-9.6169	156.236	0.234924	-0.00241965	645358	18011.2	1	12	0.00512357	0.000161061	0	-9.89984e-05	0.0309936	0.00525158	0.0314354	9.6169	1.80112e+07	1.06298e+08	1.07813e+08	-80.3831	0.0000000E+000	0.0000000E+000	0.0000000E+000	80.3831	0.0000000E+000	0.0000000E+000	0.0000000E+000	-80.3831	0.0000000E+000	0.0000000E+000	0.0000000E+000	-9.6169	0.0000000E+000	0.0000000E+000	0.0000000E+000	9.6169	5.90177	80.3831	5.62249e-05	-5.68434e-07	97090.2
0.0315922	32.2322	6.32438	32.8468	-11.1012	222.796	0.234923	-0.00117506	796566	29530.6	1	12	0.00512193	0.000155934	0	1.05823e-05	0.0298747	0.00586182	0.0304444	11.1012	2.95306e+07	1.50503e+08	1.53372e+08	-78.8988	0.0000000E+000	0.0000000E+000	0.0000000E+000	78.8988	0.0000000E+000	0.0000000E+000	0.0000000E+000	-78.8988	0.0000000E+000	0.0000000E+000	0.0000000E+000	-11.1012	0.0000000E+000	0.0000000E+000	0.0000000E+000	11.1012	5.0965	78.8988	0.000109581	-2.76048e-07	199924
0.0215268	33.3369	7.94507	34.2706	-13.405	320.464	0.234919	3.9593e-05	930557	50014.5	1	12	0.00512238	0.000149469	0	0.000129356	0.0283846	0.0067648	0.0291796	13.405	5.00145e+07	2.09857e+08	2.15734e+08	-76.595	0.0000000E+000	0.0000000E+000	0.0000000E+000	76.595	0.0000000E+000	0.0000000E+000	0.0000000E+000	-76.595	0.0000000E+000	0.0000000E+000	0.0000000E+000	-13.405	0.0000000E+000	0.0000000E+000	0.0000000E+000	13.405	4.19592	76.595	0.000118774	9.30114e-09	5.93333e+06
0.0146812	34.5709	10.4067	36.1032	-16.7531	463.659	0.234917	0.000603681	1.04171e+06	86552.5	1	12	0.00512296	0.000141898	0	0.000148309	0.0265227	0.00798399	0.0276984	16.7531	8.65525e+07	2.87526e+08	3.00271e+08	-73.2469	0.0000000E+000	0.0000000E+000	0.0000000E+000	73.2469	0.0000000E+000	0.0000000E+000	0.0000000E+000	-73.2469	0.0000000E+000	0.0000000E+000	0.0000000E+000	-16.7531	0.0000000E+000	0.0000000E+000	0.0000000E+000	16.7531	3.32199	73.2469	1.89528e-05	1.41815e-07	389141
0.0100092	35.8854	13.5102	38.3444	-20.6304	673.68	0.234925	0.000527357	1.17696e+06	146110	1	12	0.00512332	0.000133613	0	-6.93997e-05	0.024407	0.00918879	0.0260794	20.6304	1.4611e+08	3.88094e+08	4.14687e+08	-69.3696	0.0000000E+000	0.0000000E+000	0.0000000E+000	69.3696	0.0000000E+000	0.0000000E+000	0.0000000E+000	-69.3696	0.0000000E+000	0.0000000E+000	0.0000000E+000	-20.6304	0.0000000E+000	0.0000000E+000	0.0000000E+000	20.6304	2.65617	69.3696	-0.000217708	1.23889e-07	445476