File: txt/17398_R279_UA651_SOC00_C04.mpt
EC-Lab ASCII FILE
Nb header lines : 63

Potentio Electrochemical Impedance Spectroscopy

Run on channel : 4 (SN 66756)
User :
CE vs. WE compliance from -10 V to 10 V
Electrode connection : standard
Potential control : Ewe
Ewe ctrl range : min = -10.00 V, max = 10.00 V
Safety Limits :
	Do not start on E overload
Acquisition started on : 09/11/2025 15:38:39.795
Loaded Setting File :  C:\Users\Celltest\OneDrive - store-dot.com\Documents\EC-Lab\Data\Charmaine\R279\17382.mps
Saved on :
	File : 17398_C04.mpr
	Directory : C:\Users\Celltest\OneDrive - store-dot.com\Documents\EC-Lab\Data\Charmaine\R279\
	Host : 169.254.61.224
Device : VMP-3e (SN .003165)
Address : USB
EC-LAB for windows v11.62 (software)
Internet server v27.00 (firmware)
Command interpretor v12.03 (firmware)
Electrode material :
Initial state :
Electrolyte :
Comments :
Electrode surface area : 0.001 cm²
Characteristic mass : 0.001 g
Equivalent Weight : 0.000 g/eq.
Density : 0.000 g/cm3
Volume (V) : 0.001 cm³
Cycle Definition : Charge/Discharge alternance
Mode                Single sine
E (V)               0.0000
vs.                 Eoc
tE (h:m:s)          0:00:0.0000
record              0
dI                  0.000
unit dI             mA
dt (s)              0.000
fi                  100.000
unit fi             kHz
ff                  10.000
unit ff             mHz
Nd                  6
Points              per decade
spacing             Logarithmic
Va (mV)             5.0
pw                  0.10
Na                  2
corr                0
E range min (V)     -10.000
E range max (V)     10.000
I Range             Auto
Bandwidth           5
nc cycles           0
goto Ns'            0
nr cycles           0
inc. cycle          0

freq/Hz	Re(Z)/Ohm	-Im(Z)/Ohm	|Z|/Ohm	Phase(Z)/deg	time/s	<Ewe>/V	<I>/mA	Cs/µF	Cp/µF	cycle number	I Range	|Ewe|/V	|I|/A	Ns	(Q-Qo)/mA.h	Re(Y)/Ohm-1	Im(Y)/Ohm-1	|Y|/Ohm-1	Phase(Y)/deg	Re(C)/nF	Im(C)/nF	|C|/nF	Phase(C)/deg	Re(M)	Im(M)	|M|	Phase(M)/deg	Re(Permittivity)	Im(Permittivity)	|Permittivity|	Phase(Permittivity)/deg	Re(Resistivity)/Ohm.cm	Im(Resistivity)/Ohm.cm	|Resistivity|/Ohm.cm	Phase(Resistivity)/deg	Re(Conductivity)/mS/cm	Im(Conductivity)/mS/cm	|Conductivity|/mS/cm	Phase(Conductivity)/deg	Tan(Delta)	Loss Angle(Delta)/deg	dq/mA.h	Pwe/W	Rwe/Ohm
100004	2.25414	0.777519	2.38447	-19.0308	1.86548	0.233809	-0.0757548	2.04688	0.217637	1	9	0.00463004	0.00194175	0	-1.88839e-05	0.396459	0.13675	0.419381	19.0308	217.637	630.961	667.441	-70.9692	0.0000000E+000	0.0000000E+000	0.0000000E+000	70.9692	0.0000000E+000	0.0000000E+000	0.0000000E+000	-70.9692	0.0000000E+000	0.0000000E+000	0.0000000E+000	-19.0308	0.0000000E+000	0.0000000E+000	0.0000000E+000	19.0308	2.89914	70.9692	-1.88839e-05	-1.77121e-05	3086.39
68132	2.44845	0.822989	2.58306	-18.5789	2.4445	0.233826	-0.0691159	2.83841	0.288133	1	9	0.0050435	0.00195253	0	-3.40583e-05	0.366962	0.123346	0.387138	18.5789	288.134	857.216	904.345	-71.4211	0.0000000E+000	0.0000000E+000	0.0000000E+000	71.4211	0.0000000E+000	0.0000000E+000	0.0000000E+000	-71.4211	0.0000000E+000	0.0000000E+000	0.0000000E+000	-18.5789	0.0000000E+000	0.0000000E+000	0.0000000E+000	18.5789	2.97506	71.4211	-1.51744e-05	-1.61611e-05	3383.1
46420.4	2.63657	0.883077	2.78053	-18.5175	3.02249	0.233809	-0.0713537	3.88251	0.391612	1	9	0.00504927	0.00181594	0	-4.25408e-05	0.341024	0.114221	0.359644	18.5175	391.612	1169.22	1233.06	-71.4825	0.0000000E+000	0.0000000E+000	0.0000000E+000	71.4825	0.0000000E+000	0.0000000E+000	0.0000000E+000	-71.4825	0.0000000E+000	0.0000000E+000	0.0000000E+000	-18.5175	0.0000000E+000	0.0000000E+000	0.0000000E+000	18.5175	2.98566	71.4825	-8.48248e-06	-1.66831e-05	3276.76
31621.1	2.82759	0.969916	2.98931	-18.9329	3.45949	0.233822	-0.0718013	5.1893	0.546304	1	9	0.00532327	0.00178077	0	-5.0257e-05	0.316427	0.10854	0.334525	18.9329	546.304	1592.63	1683.73	-71.0671	0.0000000E+000	0.0000000E+000	0.0000000E+000	71.0671	0.0000000E+000	0.0000000E+000	0.0000000E+000	-71.0671	0.0000000E+000	0.0000000E+000	0.0000000E+000	-18.9329	0.0000000E+000	0.0000000E+000	0.0000000E+000	18.9329	2.91529	71.0671	-7.71623e-06	-1.67887e-05	3256.51
21544.7	3.04798	1.06432	3.22846	-19.2486	3.89649	0.233819	-0.0718945	6.94077	0.75433	1	9	0.00518414	0.00160576	0	-5.82522e-05	0.29243	0.102113	0.309745	19.2486	754.331	2160.24	2288.15	-70.7514	0.0000000E+000	0.0000000E+000	0.0000000E+000	70.7514	0.0000000E+000	0.0000000E+000	0.0000000E+000	-70.7514	0.0000000E+000	0.0000000E+000	0.0000000E+000	-19.2486	0.0000000E+000	0.0000000E+000	0.0000000E+000	19.2486	2.86378	70.7514	-7.99517e-06	-1.68103e-05	3252.24
14678.6	3.29474	1.16801	3.49565	-19.5198	4.33348	0.233812	-0.0762956	9.28302	1.0364	1	9	0.00501943	0.00143591	0	-6.64123e-05	0.269628	0.0955852	0.28607	19.5198	1036.4	2923.49	3101.76	-70.4802	0.0000000E+000	0.0000000E+000	0.0000000E+000	70.4802	0.0000000E+000	0.0000000E+000	0.0000000E+000	-70.4802	0.0000000E+000	0.0000000E+000	0.0000000E+000	-19.5198	0.0000000E+000	0.0000000E+000	0.0000000E+000	19.5198	2.82082	70.4802	-8.16008e-06	-1.78388e-05	3064.55
10002.2	3.55424	1.31316	3.78906	-20.2774	4.62949	0.23383	-0.0756056	12.1173	1.45538	1	9	0.00502977	0.00132744	0	-7.11289e-05	0.247562	0.0914648	0.263918	20.2774	1455.38	3939.19	4199.45	-69.7226	0.0000000E+000	0.0000000E+000	0.0000000E+000	69.7226	0.0000000E+000	0.0000000E+000	0.0000000E+000	-69.7226	0.0000000E+000	0.0000000E+000	0.0000000E+000	-20.2774	0.0000000E+000	0.0000000E+000	0.0000000E+000	20.2774	2.70663	69.7226	-4.71669e-06	-1.76789e-05	3092.76
6811.07	3.86407	1.49541	4.14334	-21.1567	5.21749	0.233847	-0.0384697	15.6258	2.03547	1	10	0.00487631	0.0011769	0	-7.63837e-05	0.225083	0.0871084	0.241351	21.1567	2035.47	5259.55	5639.68	-68.8433	0.0000000E+000	0.0000000E+000	0.0000000E+000	68.8433	0.0000000E+000	0.0000000E+000	0.0000000E+000	-68.8433	0.0000000E+000	0.0000000E+000	0.0000000E+000	-21.1567	0.0000000E+000	0.0000000E+000	0.0000000E+000	21.1567	2.58394	68.8433	-5.25471e-06	-8.99603e-06	6078.75
4641.49	4.20202	1.71169	4.53727	-22.1635	5.68871	0.233878	-0.0296441	20.0326	2.85101	1	10	0.00501728	0.00110579	0	-7.94688e-05	0.204112	0.0831448	0.220397	22.1635	2851.01	6998.92	7557.33	-67.8365	0.0000000E+000	0.0000000E+000	0.0000000E+000	67.8365	0.0000000E+000	0.0000000E+000	0.0000000E+000	-67.8365	0.0000000E+000	0.0000000E+000	0.0000000E+000	-22.1635	0.0000000E+000	0.0000000E+000	0.0000000E+000	22.1635	2.4549	67.8365	-3.08517e-06	-6.93311e-06	7889.55
3161.01	4.57022	1.96974	4.97662	-23.3158	6.15567	0.233882	-0.0296403	25.5614	4.00437	1	10	0.00498245	0.00100117	0	-8.27526e-05	0.18453	0.0795317	0.20094	23.3158	4004.37	9290.98	10117.2	-66.6842	0.0000000E+000	0.0000000E+000	0.0000000E+000	66.6842	0.0000000E+000	0.0000000E+000	0.0000000E+000	-66.6842	0.0000000E+000	0.0000000E+000	0.0000000E+000	-23.3158	0.0000000E+000	0.0000000E+000	0.0000000E+000	23.3158	2.32021	66.6842	-3.28382e-06	-6.93235e-06	7890.66
2155.69	5.01052	2.2769	5.5036	-24.4382	6.62269	0.233875	-0.0293046	32.4257	5.54988	1	10	0.00492488	0.000894847	0	-8.68338e-05	0.16542	0.075171	0.181699	24.4382	5549.88	12213	13414.9	-65.5618	0.0000000E+000	0.0000000E+000	0.0000000E+000	65.5618	0.0000000E+000	0.0000000E+000	0.0000000E+000	-65.5618	0.0000000E+000	0.0000000E+000	0.0000000E+000	-24.4382	0.0000000E+000	0.0000000E+000	0.0000000E+000	24.4382	2.20059	65.5618	-4.08119e-06	-6.85363e-06	7980.83
1468.59	5.50789	2.65725	6.11537	-25.7547	7.08992	0.233872	-0.0291629	40.7837	7.70027	1	10	0.00486821	0.000796061	0	-8.98892e-05	0.147278	0.0710537	0.163522	25.7547	7700.27	15960.9	17721.3	-64.2453	0.0000000E+000	0.0000000E+000	0.0000000E+000	64.2453	0.0000000E+000	0.0000000E+000	0.0000000E+000	-64.2453	0.0000000E+000	0.0000000E+000	0.0000000E+000	-25.7547	0.0000000E+000	0.0000000E+000	0.0000000E+000	25.7547	2.07278	64.2453	-3.0554e-06	-6.82038e-06	8019.5
1000.32	6.10401	3.11644	6.85355	-27.0469	7.55869	0.233917	-0.0281446	51.0531	10.5562	1	10	0.00482696	0.000704301	0	-9.40211e-05	0.129952	0.0663481	0.14591	27.0469	10556.2	20675.9	23214.8	-62.9531	0.0000000E+000	0.0000000E+000	0.0000000E+000	62.9531	0.0000000E+000	0.0000000E+000	0.0000000E+000	-62.9531	0.0000000E+000	0.0000000E+000	0.0000000E+000	-27.0469	0.0000000E+000	0.0000000E+000	0.0000000E+000	27.0469	1.95865	62.9531	-4.13184e-06	-6.5835e-06	8311.28
681.09	6.81593	3.68122	7.7465	-28.3731	8.02441	0.233868	-0.0287134	63.4781	14.335	1	10	0.00479137	0.000618521	0	-9.76272e-05	0.113583	0.0613452	0.129091	28.3731	14335	26541.8	30165.5	-61.6269	0.0000000E+000	0.0000000E+000	0.0000000E+000	61.6269	0.0000000E+000	0.0000000E+000	0.0000000E+000	-61.6269	0.0000000E+000	0.0000000E+000	0.0000000E+000	-28.3731	0.0000000E+000	0.0000000E+000	0.0000000E+000	28.3731	1.85154	61.6269	-3.60614e-06	-6.71514e-06	8144.9
463.961	7.68374	4.32877	8.81919	-29.3955	8.49321	0.233881	-0.0277063	79.2455	19.0918	1	10	0.00476904	0.000540757	0	-0.000101258	0.0987905	0.0556554	0.113389	29.3955	19091.8	33888.7	38896.5	-60.6045	0.0000000E+000	0.0000000E+000	0.0000000E+000	60.6045	0.0000000E+000	0.0000000E+000	0.0000000E+000	-60.6045	0.0000000E+000	0.0000000E+000	0.0000000E+000	-29.3955	0.0000000E+000	0.0000000E+000	0.0000000E+000	29.3955	1.77504	60.6045	-3.63104e-06	-6.47998e-06	8441.46
316.316	8.75749	5.07629	10.1224	-30.0988	8.95991	0.233901	-0.0279133	99.118	24.9276	1	10	0.00475064	0.000469321	0	-0.000105136	0.0854703	0.0495429	0.0987911	30.0988	24927.6	43004.5	49706.9	-59.9012	0.0000000E+000	0.0000000E+000	0.0000000E+000	59.9012	0.0000000E+000	0.0000000E+000	0.0000000E+000	-59.9012	0.0000000E+000	0.0000000E+000	0.0000000E+000	-30.0988	0.0000000E+000	0.0000000E+000	0.0000000E+000	30.0988	1.72518	59.9012	-3.87794e-06	-6.52894e-06	8379.55
215.345	10.1541	5.8916	11.7395	-30.1231	9.42743	0.233906	-0.0278853	125.445	31.5949	1	10	0.00475286	0.000404859	0	-0.000108893	0.0736783	0.0427494	0.0851822	30.1231	31594.9	54453.5	62955.7	-59.8769	0.0000000E+000	0.0000000E+000	0.0000000E+000	59.8769	0.0000000E+000	0.0000000E+000	0.0000000E+000	-59.8769	0.0000000E+000	0.0000000E+000	0.0000000E+000	-30.1231	0.0000000E+000	0.0000000E+000	0.0000000E+000	30.1231	1.72349	59.8769	-3.75684e-06	-6.52255e-06	8388.15
146.737	11.849	6.6025	13.5644	-29.1274	9.8904	0.233863	-0.0289895	164.275	38.9214	1	10	0.00474281	0.000349653	0	-0.00011229	0.0643996	0.0358847	0.0737226	29.1274	38921.4	69849.4	79961.3	-60.8726	0.0000000E+000	0.0000000E+000	0.0000000E+000	60.8726	0.0000000E+000	0.0000000E+000	0.0000000E+000	-60.8726	0.0000000E+000	0.0000000E+000	0.0000000E+000	-29.1274	0.0000000E+000	0.0000000E+000	0.0000000E+000	29.1274	1.79462	60.8726	-3.39718e-06	-6.77955e-06	8067.16
100.032	13.8341	7.16582	15.5798	-27.3834	10.3587	0.233883	-0.027434	222.032	46.9702	1	10	0.00473861	0.000304151	0	-0.00011551	0.0569936	0.0295217	0.0641857	27.3834	46970.2	90679.1	102122	-62.6166	0.0000000E+000	0.0000000E+000	0.0000000E+000	62.6166	0.0000000E+000	0.0000000E+000	0.0000000E+000	-62.6166	0.0000000E+000	0.0000000E+000	0.0000000E+000	-27.3834	0.0000000E+000	0.0000000E+000	0.0000000E+000	27.3834	1.93056	62.6166	-3.21968e-06	-6.41633e-06	8525.3
68.104	16.0763	7.36454	17.6829	-24.6125	10.8363	0.233868	-0.0258076	317.323	55.0412	1	10	0.00474274	0.000268211	0	-0.000118707	0.0514139	0.0235527	0.0565519	24.6125	55041.2	120151	132158	-65.3875	0.0000000E+000	0.0000000E+000	0.0000000E+000	65.3875	0.0000000E+000	0.0000000E+000	0.0000000E+000	-65.3875	0.0000000E+000	0.0000000E+000	0.0000000E+000	-24.6125	0.0000000E+000	0.0000000E+000	0.0000000E+000	24.6125	2.18293	65.3875	-3.19758e-06	-6.03558e-06	9061.97
46.4415	18.4605	7.23394	19.8273	-21.3983	11.5396	0.233889	-0.0239229	473.738	63.0613	1	11	0.00475043	0.000239591	0	-0.000123545	0.0469589	0.0184014	0.0504356	21.3983	63061.3	160928	172843	-68.6017	0.0000000E+000	0.0000000E+000	0.0000000E+000	68.6017	0.0000000E+000	0.0000000E+000	0.0000000E+000	-68.6017	0.0000000E+000	0.0000000E+000	0.0000000E+000	-21.3983	0.0000000E+000	0.0000000E+000	0.0000000E+000	21.3983	2.55193	68.6017	-4.83705e-06	-5.59532e-06	9776.79
31.6296	20.604	6.68905	21.6626	-17.9859	11.9864	0.233938	-0.0239787	752.251	71.7248	1	11	0.00475845	0.000219662	0	-0.000126359	0.0439066	0.0142542	0.0461625	17.9859	71724.8	220931	232282	-72.0141	0.0000000E+000	0.0000000E+000	0.0000000E+000	72.0141	0.0000000E+000	0.0000000E+000	0.0000000E+000	-72.0141	0.0000000E+000	0.0000000E+000	0.0000000E+000	-17.9859	0.0000000E+000	0.0000000E+000	0.0000000E+000	17.9859	3.08026	72.0141	-2.81417e-06	-5.60954e-06	9756.09
21.5517	22.1989	5.53226	22.8779	-13.9938	12.4254	0.233895	-0.0237711	1334.86	78.0567	1	11	0.00472402	0.000206489	0	-0.000129717	0.0424131	0.0105699	0.0437104	13.9938	78056.7	313212	322792	-76.0062	0.0000000E+000	0.0000000E+000	0.0000000E+000	76.0062	0.0000000E+000	0.0000000E+000	0.0000000E+000	-76.0062	0.0000000E+000	0.0000000E+000	0.0000000E+000	-13.9938	0.0000000E+000	0.0000000E+000	0.0000000E+000	13.9938	4.01262	76.0062	-3.35834e-06	-5.55994e-06	9839.48
14.6852	23.4519	4.78032	23.9341	-11.5211	12.903	0.233944	-0.0228429	2267.17	90.4407	1	11	0.00473197	0.000197708	0	-0.000132883	0.0409395	0.00834492	0.0417814	11.5211	90440.7	443695	452818	-78.4789	0.0000000E+000	0.0000000E+000	0.0000000E+000	78.4789	0.0000000E+000	0.0000000E+000	0.0000000E+000	-78.4789	0.0000000E+000	0.0000000E+000	0.0000000E+000	-11.5211	0.0000000E+000	0.0000000E+000	0.0000000E+000	11.5211	4.90592	78.4789	-3.16616e-06	-5.34396e-06	10241.5
10.0032	24.8552	3.88658	25.1572	-8.8873	13.3717	0.233904	-0.0227781	4093.68	97.7062	1	11	0.00481585	0.00019143	0	-0.00013574	0.0392727	0.00614103	0.03975	8.8873	97706.2	624845	632438	-81.1127	0.0000000E+000	0.0000000E+000	0.0000000E+000	81.1127	0.0000000E+000	0.0000000E+000	0.0000000E+000	-81.1127	0.0000000E+000	0.0000000E+000	0.0000000E+000	-8.8873	0.0000000E+000	0.0000000E+000	0.0000000E+000	8.8873	6.39514	81.1127	-2.85697e-06	-5.32789e-06	10268.8
6.81719	25.0297	3.30431	25.2468	-7.52045	13.7294	0.233915	-0.0235517	7065.36	121.027	1	11	0.00474126	0.000187796	0	-0.000136939	0.0392682	0.00518402	0.0396089	7.52045	121027	916760	924715	-82.4796	0.0000000E+000	0.0000000E+000	0.0000000E+000	82.4796	0.0000000E+000	0.0000000E+000	0.0000000E+000	-82.4796	0.0000000E+000	0.0000000E+000	0.0000000E+000	-7.52045	0.0000000E+000	0.0000000E+000	0.0000000E+000	7.52045	7.57487	82.4796	-1.19841e-06	-5.50909e-06	9931.96
4.63925	25.5796	2.7192	25.7237	-6.06797	14.2313	0.233904	-0.0213711	12616.3	140.977	1	11	0.00475568	0.000184875	0	-0.00013965	0.0386569	0.00410937	0.0388747	6.06797	140977	1.32617e+06	1.33364e+06	-83.932	0.0000000E+000	0.0000000E+000	0.0000000E+000	83.932	0.0000000E+000	0.0000000E+000	0.0000000E+000	-83.932	0.0000000E+000	0.0000000E+000	0.0000000E+000	-6.06797	0.0000000E+000	0.0000000E+000	0.0000000E+000	6.06797	9.40701	83.932	-2.7119e-06	-4.99878e-06	10944.9
3.1604	25.7986	2.35632	25.906	-5.21864	14.9412	0.233911	-0.0211076	21371.9	176.812	1	11	0.00472739	0.000182482	0	-0.000146854	0.0384411	0.00351102	0.0386011	5.21864	176812	1.93586e+06	1.94392e+06	-84.7814	0.0000000E+000	0.0000000E+000	0.0000000E+000	84.7814	0.0000000E+000	0.0000000E+000	0.0000000E+000	-84.7814	0.0000000E+000	0.0000000E+000	0.0000000E+000	-5.21864	0.0000000E+000	0.0000000E+000	0.0000000E+000	5.21864	10.9487	84.7814	-7.20374e-06	-4.93729e-06	11081.8
2.15577	26.1012	2.2641	26.1992	-4.95759	15.9568	0.233947	-0.0205181	32607.9	243.521	1	11	0.00470632	0.000179636	0	-0.000152718	0.0380262	0.00329851	0.038169	4.95759	243521	2.80738e+06	2.81793e+06	-85.0424	0.0000000E+000	0.0000000E+000	0.0000000E+000	85.0424	0.0000000E+000	0.0000000E+000	0.0000000E+000	-85.0424	0.0000000E+000	0.0000000E+000	0.0000000E+000	-4.95759	0.0000000E+000	0.0000000E+000	0.0000000E+000	4.95759	11.5283	85.0424	-5.8635e-06	-4.80016e-06	11402
1.46631	26.877	2.45603	26.989	-5.22121	17.43	0.233919	-0.0196757	44193.7	365.978	1	11	0.00476195	0.00017644	0	-0.000156557	0.0368984	0.00337179	0.0370522	5.22121	365978	4.005e+06	4.02168e+06	-84.7788	0.0000000E+000	0.0000000E+000	0.0000000E+000	84.7788	0.0000000E+000	0.0000000E+000	0.0000000E+000	-84.7788	0.0000000E+000	0.0000000E+000	0.0000000E+000	-5.22121	0.0000000E+000	0.0000000E+000	0.0000000E+000	5.22121	10.9433	84.7788	-3.83912e-06	-4.60252e-06	11888.7
1.00006	27.224	2.74457	27.362	-5.75678	20.6202	0.233956	-0.0184911	57985.3	583.405	1	12	0.00473578	0.000173079	0	-0.000167375	0.0363627	0.00366588	0.036547	5.75678	583405	5.78693e+06	5.81626e+06	-84.2432	0.0000000E+000	0.0000000E+000	0.0000000E+000	84.2432	0.0000000E+000	0.0000000E+000	0.0000000E+000	-84.2432	0.0000000E+000	0.0000000E+000	0.0000000E+000	-5.75678	0.0000000E+000	0.0000000E+000	0.0000000E+000	5.75678	9.91923	84.2432	-1.08177e-05	-4.32609e-06	12652.4
0.681362	27.9308	2.77209	28.068	-5.66796	23.7413	0.23392	-0.0169248	84262.4	821.913	1	12	0.00474638	0.000169103	0	-0.000182415	0.0354535	0.00351871	0.0356277	5.66796	821913	8.28136e+06	8.32204e+06	-84.332	0.0000000E+000	0.0000000E+000	0.0000000E+000	84.332	0.0000000E+000	0.0000000E+000	0.0000000E+000	-84.332	0.0000000E+000	0.0000000E+000	0.0000000E+000	-5.66796	0.0000000E+000	0.0000000E+000	0.0000000E+000	5.66796	10.0757	84.332	-1.504e-05	-3.95905e-06	13821.1
0.464091	28.6078	2.97472	28.762	-5.93645	28.3055	0.233946	-0.0156028	115285	1233.17	1	12	0.00475547	0.000165338	0	-0.000210739	0.0345816	0.00359589	0.034768	5.93645	1.23317e+06	1.18594e+07	1.19233e+07	-84.0636	0.0000000E+000	0.0000000E+000	0.0000000E+000	84.0636	0.0000000E+000	0.0000000E+000	0.0000000E+000	-84.0636	0.0000000E+000	0.0000000E+000	0.0000000E+000	-5.93645	0.0000000E+000	0.0000000E+000	0.0000000E+000	5.93645	9.61697	84.0636	-2.83242e-05	-3.6502e-06	14993.8
0.316193	29.1873	2.98272	29.3393	-5.83495	34.986	0.233929	-0.0144799	168754	1744.14	1	12	0.00473619	0.000161428	0	-0.000253472	0.0339074	0.00346509	0.034084	5.83495	1.74414e+06	1.70672e+07	1.71561e+07	-84.165	0.0000000E+000	0.0000000E+000	0.0000000E+000	84.165	0.0000000E+000	0.0000000E+000	0.0000000E+000	-84.165	0.0000000E+000	0.0000000E+000	0.0000000E+000	-5.83495	0.0000000E+000	0.0000000E+000	0.0000000E+000	5.83495	9.78544	84.165	-4.27331e-05	-3.38726e-06	16155.5
0.215268	29.9927	3.35506	30.1798	-6.38273	44.7838	0.233932	-0.0129603	220364	2723.39	1	12	0.00474338	0.000157171	0	-0.000305941	0.0329294	0.00368357	0.0331348	6.38273	2.72339e+06	2.43458e+07	2.44977e+07	-83.6173	0.0000000E+000	0.0000000E+000	0.0000000E+000	83.6173	0.0000000E+000	0.0000000E+000	0.0000000E+000	-83.6173	0.0000000E+000	0.0000000E+000	0.0000000E+000	-6.38273	0.0000000E+000	0.0000000E+000	0.0000000E+000	6.38273	8.93953	83.6173	-5.24691e-05	-3.03182e-06	18049.9
0.146929	30.7847	3.76645	31.0143	-6.97536	59.1194	0.233929	-0.0116555	287595	4241.53	1	12	0.0047419	0.000152894	0	-0.000358043	0.0320046	0.0039157	0.0322432	6.97536	4.24153e+06	3.46677e+07	3.49262e+07	-83.0246	0.0000000E+000	0.0000000E+000	0.0000000E+000	83.0246	0.0000000E+000	0.0000000E+000	0.0000000E+000	-83.0246	0.0000000E+000	0.0000000E+000	0.0000000E+000	-6.97536	0.0000000E+000	0.0000000E+000	0.0000000E+000	6.97536	8.1734	83.0246	-5.21023e-05	-2.72656e-06	20070.2
0.0999041	31.5816	4.26353	31.8681	-7.68847	80.1893	0.233942	-0.0100895	373652	6687.96	1	12	0.00474269	0.000148823	0	-0.000397751	0.0310973	0.00419814	0.0313794	7.68847	6.68796e+06	4.95403e+07	4.99897e+07	-82.3115	0.0000000E+000	0.0000000E+000	0.0000000E+000	82.3115	0.0000000E+000	0.0000000E+000	0.0000000E+000	-82.3115	0.0000000E+000	0.0000000E+000	0.0000000E+000	-7.68847	0.0000000E+000	0.0000000E+000	0.0000000E+000	7.68847	7.40739	82.3115	-3.97077e-05	-2.36036e-06	23186.6
0.0680626	32.4266	4.8537	32.7878	-8.51299	111.102	0.233948	-0.00825685	481768	10557.5	1	12	0.00474343	0.00014467	0	-0.000420026	0.0301631	0.0045149	0.0304991	8.51299	1.05575e+07	7.05322e+07	7.13179e+07	-81.487	0.0000000E+000	0.0000000E+000	0.0000000E+000	81.487	0.0000000E+000	0.0000000E+000	0.0000000E+000	-81.487	0.0000000E+000	0.0000000E+000	0.0000000E+000	-8.51299	0.0000000E+000	0.0000000E+000	0.0000000E+000	8.51299	6.68079	81.487	-2.22751e-05	-1.93167e-06	28333.8
0.0464052	33.2979	5.33627	33.7228	-9.10471	156.426	0.233948	-0.0055617	642711	16093.3	1	12	0.00474155	0.000140604	0	-0.000414432	0.0292799	0.00469235	0.0296535	9.10471	1.60933e+07	1.00421e+08	1.01702e+08	-80.8953	0.0000000E+000	0.0000000E+000	0.0000000E+000	80.8953	0.0000000E+000	0.0000000E+000	0.0000000E+000	-80.8953	0.0000000E+000	0.0000000E+000	0.0000000E+000	-9.10471	0.0000000E+000	0.0000000E+000	0.0000000E+000	9.10471	6.23992	80.8953	5.59379e-06	-1.30115e-06	42064.1
0.0315922	34.266	6.3405	34.8477	-10.4833	222.987	0.23395	-0.00285746	794541	26303.7	1	12	0.00473944	0.000136004	0	-0.00040157	0.0282173	0.00522127	0.0286963	10.4833	2.63037e+07	1.42153e+08	1.44566e+08	-79.5167	0.0000000E+000	0.0000000E+000	0.0000000E+000	79.5167	0.0000000E+000	0.0000000E+000	0.0000000E+000	-79.5167	0.0000000E+000	0.0000000E+000	0.0000000E+000	-10.4833	0.0000000E+000	0.0000000E+000	0.0000000E+000	10.4833	5.4043	79.5167	1.28627e-05	-6.68503e-07	81873.5
0.0215268	35.3048	7.92901	36.1842	-12.6579	320.656	0.233938	-0.00105513	932442	44773.5	1	12	0.00474386	0.000131103	0	-0.000438735	0.0269647	0.00605592	0.0276363	12.6579	4.47735e+07	1.99359e+08	2.04325e+08	-77.3421	0.0000000E+000	0.0000000E+000	0.0000000E+000	77.3421	0.0000000E+000	0.0000000E+000	0.0000000E+000	-77.3421	0.0000000E+000	0.0000000E+000	0.0000000E+000	-12.6579	0.0000000E+000	0.0000000E+000	0.0000000E+000	12.6579	4.45261	77.3421	-3.71659e-05	-2.46835e-07	221714
0.0146812	36.327	10.0583	37.6938	-15.4764	463.851	0.233946	-0.000497301	1.07779e+06	76743.8	1	12	0.00474183	0.000125799	0	-0.000612533	0.0255676	0.0070792	0.0265296	15.4764	7.67438e+07	2.77172e+08	2.876e+08	-74.5236	0.0000000E+000	0.0000000E+000	0.0000000E+000	74.5236	0.0000000E+000	0.0000000E+000	0.0000000E+000	-74.5236	0.0000000E+000	0.0000000E+000	0.0000000E+000	-15.4764	0.0000000E+000	0.0000000E+000	0.0000000E+000	15.4764	3.61165	74.5236	-0.000173798	-1.16341e-07	470431
0.0100092	37.6485	12.8021	39.7656	-18.7803	673.872	0.233954	-0.000642776	1.24205e+06	128733	1	12	0.00474191	0.000119247	0	-0.000983971	0.0238085	0.00809595	0.0251474	18.7803	1.28733e+08	3.78578e+08	3.99866e+08	-71.2197	0.0000000E+000	0.0000000E+000	0.0000000E+000	71.2197	0.0000000E+000	0.0000000E+000	0.0000000E+000	-71.2197	0.0000000E+000	0.0000000E+000	0.0000000E+000	-18.7803	0.0000000E+000	0.0000000E+000	0.0000000E+000	18.7803	2.9408	71.2197	-0.000371438	-1.5038e-07	363974