File: txt/17400_R279_UA651_SOC00_C06.mpt
EC-Lab ASCII FILE
Nb header lines : 63

Potentio Electrochemical Impedance Spectroscopy

Run on channel : 6 (SN 65795)
User :
CE vs. WE compliance from -10 V to 10 V
Electrode connection : standard
Potential control : Ewe
Ewe ctrl range : min = -10.00 V, max = 10.00 V
Safety Limits :
	Do not start on E overload
Acquisition started on : 09/11/2025 15:38:54.924
Loaded Setting File :  C:\Users\Celltest\OneDrive - store-dot.com\Documents\EC-Lab\Data\Charmaine\R279\17383.mps
Saved on :
	File : 17400_C06.mpr
	Directory : C:\Users\Celltest\OneDrive - store-dot.com\Documents\EC-Lab\Data\Charmaine\R279\
	Host : 169.254.61.224
Device : VMP-3e (SN .003165)
Address : USB
EC-LAB for windows v11.62 (software)
Internet server v27.00 (firmware)
Command interpretor v12.03 (firmware)
Electrode material :
Initial state :
Electrolyte :
Comments :
Electrode surface area : 0.001 cm²
Characteristic mass : 0.001 g
Equivalent Weight : 0.000 g/eq.
Density : 0.000 g/cm3
Volume (V) : 0.001 cm³
Cycle Definition : Charge/Discharge alternance
Mode                Single sine
E (V)               0.0000
vs.                 Eoc
tE (h:m:s)          0:00:0.0000
record              0
dI                  0.000
unit dI             mA
dt (s)              0.000
fi                  100.000
unit fi             kHz
ff                  10.000
unit ff             mHz
Nd                  6
Points              per decade
spacing             Logarithmic
Va (mV)             5.0
pw                  0.10
Na                  2
corr                0
E range min (V)     -10.000
E range max (V)     10.000
I Range             Auto
Bandwidth           5
nc cycles           0
goto Ns'            0
nr cycles           0
inc. cycle          0

freq/Hz	Re(Z)/Ohm	-Im(Z)/Ohm	|Z|/Ohm	Phase(Z)/deg	time/s	<Ewe>/V	<I>/mA	Cs/µF	Cp/µF	cycle number	I Range	|Ewe|/V	|I|/A	Ns	(Q-Qo)/mA.h	Re(Y)/Ohm-1	Im(Y)/Ohm-1	|Y|/Ohm-1	Phase(Y)/deg	Re(C)/nF	Im(C)/nF	|C|/nF	Phase(C)/deg	Re(M)	Im(M)	|M|	Phase(M)/deg	Re(Permittivity)	Im(Permittivity)	|Permittivity|	Phase(Permittivity)/deg	Re(Resistivity)/Ohm.cm	Im(Resistivity)/Ohm.cm	|Resistivity|/Ohm.cm	Phase(Resistivity)/deg	Re(Conductivity)/mS/cm	Im(Conductivity)/mS/cm	|Conductivity|/mS/cm	Phase(Conductivity)/deg	Tan(Delta)	Loss Angle(Delta)/deg	dq/mA.h	Pwe/W	Rwe/Ohm
100004	2.58529	0.800359	2.70634	-17.2016	2.37549	0.243713	-0.0365304	1.98847	0.173909	1	9	0.00454379	0.00167894	0	-8.64529e-06	0.352974	0.109275	0.369502	17.2016	173.909	561.755	588.059	-72.7984	0.0000000E+000	0.0000000E+000	0.0000000E+000	72.7984	0.0000000E+000	0.0000000E+000	0.0000000E+000	-72.7984	0.0000000E+000	0.0000000E+000	0.0000000E+000	-17.2016	0.0000000E+000	0.0000000E+000	0.0000000E+000	17.2016	3.23016	72.7984	-8.64529e-06	-8.90294e-06	6671.5
68132	2.78352	0.843716	2.90858	-16.8627	2.9535	0.243714	-0.0339416	2.76868	0.232972	1	9	0.00503833	0.00173223	0	-1.09578e-05	0.329028	0.0997321	0.343811	16.8627	232.972	768.602	803.134	-73.1373	0.0000000E+000	0.0000000E+000	0.0000000E+000	73.1373	0.0000000E+000	0.0000000E+000	0.0000000E+000	-73.1373	0.0000000E+000	0.0000000E+000	0.0000000E+000	-16.8627	0.0000000E+000	0.0000000E+000	0.0000000E+000	16.8627	3.29912	73.1373	-2.31246e-06	-8.27203e-06	7180.4
46420.4	2.99261	0.900121	3.12505	-16.7403	3.53147	0.243701	-0.0430306	3.809	0.316009	1	9	0.00516493	0.00165276	0	-1.50309e-05	0.306434	0.0921697	0.319995	16.7403	316.009	1050.63	1097.12	-73.2597	0.0000000E+000	0.0000000E+000	0.0000000E+000	73.2597	0.0000000E+000	0.0000000E+000	0.0000000E+000	-73.2597	0.0000000E+000	0.0000000E+000	0.0000000E+000	-16.7403	0.0000000E+000	0.0000000E+000	0.0000000E+000	16.7403	3.32467	73.2597	-4.07311e-06	-1.04866e-05	5663.45
31621.1	3.18825	0.982018	3.33606	-17.1194	3.96849	0.243714	-0.0367912	5.12534	0.444114	1	9	0.00516328	0.00154772	0	-1.98821e-05	0.286473	0.0882371	0.299755	17.1194	444.114	1441.87	1508.72	-72.8806	0.0000000E+000	0.0000000E+000	0.0000000E+000	72.8806	0.0000000E+000	0.0000000E+000	0.0000000E+000	-72.8806	0.0000000E+000	0.0000000E+000	0.0000000E+000	-17.1194	0.0000000E+000	0.0000000E+000	0.0000000E+000	17.1194	3.24663	72.8806	-4.85119e-06	-8.96652e-06	6624.24
21544.7	3.41828	1.07213	3.58247	-17.4137	4.40648	0.24371	-0.0393614	6.89024	0.617106	1	9	0.00503229	0.0014047	0	-2.26268e-05	0.266344	0.0835372	0.279137	17.4137	617.106	1967.53	2062.04	-72.5863	0.0000000E+000	0.0000000E+000	0.0000000E+000	72.5863	0.0000000E+000	0.0000000E+000	0.0000000E+000	-72.5863	0.0000000E+000	0.0000000E+000	0.0000000E+000	-17.4137	0.0000000E+000	0.0000000E+000	0.0000000E+000	17.4137	3.18832	72.5863	-2.74476e-06	-9.59277e-06	6191.59
14678.6	3.66815	1.19157	3.85684	-17.996	4.7025	0.243714	-0.0439059	9.09944	0.868549	1	9	0.00451278	0.00117007	0	-2.6054e-05	0.246595	0.0801048	0.25928	17.996	868.549	2673.75	2811.28	-72.004	0.0000000E+000	0.0000000E+000	0.0000000E+000	72.004	0.0000000E+000	0.0000000E+000	0.0000000E+000	-72.004	0.0000000E+000	0.0000000E+000	0.0000000E+000	-17.996	0.0000000E+000	0.0000000E+000	0.0000000E+000	17.996	3.07841	72.004	-3.42717e-06	-1.07005e-05	5550.81
10002.2	3.93201	1.33615	4.15283	-18.7685	5.14048	0.243708	-0.0429561	11.9088	1.2328	1	9	0.00482334	0.00116146	0	-2.96089e-05	0.227996	0.0774762	0.2408	18.7685	1232.8	3627.86	3831.6	-71.2315	0.0000000E+000	0.0000000E+000	0.0000000E+000	71.2315	0.0000000E+000	0.0000000E+000	0.0000000E+000	-71.2315	0.0000000E+000	0.0000000E+000	0.0000000E+000	-18.7685	0.0000000E+000	0.0000000E+000	0.0000000E+000	18.7685	2.94278	71.2315	-3.55492e-06	-1.04687e-05	5673.42
6811.07	4.23616	1.49746	4.49304	-19.4682	5.72751	0.243807	-0.0214638	15.6045	1.73332	1	10	0.00475267	0.00105779	0	-3.00066e-05	0.209842	0.0741779	0.222567	19.4682	1733.32	4903.39	5200.74	-70.5318	0.0000000E+000	0.0000000E+000	0.0000000E+000	70.5318	0.0000000E+000	0.0000000E+000	0.0000000E+000	-70.5318	0.0000000E+000	0.0000000E+000	0.0000000E+000	-19.4682	0.0000000E+000	0.0000000E+000	0.0000000E+000	19.4682	2.8289	70.5318	-3.97648e-07	-5.23301e-06	11359
4641.49	4.56592	1.69638	4.87087	-20.3815	6.1977	0.243882	-0.00106832	20.2135	2.45173	1	10	0.00477458	0.000980231	0	-2.94641e-05	0.192449	0.0715005	0.205302	20.3815	2451.73	6599.02	7039.74	-69.6185	0.0000000E+000	0.0000000E+000	0.0000000E+000	69.6185	0.0000000E+000	0.0000000E+000	0.0000000E+000	-69.6185	0.0000000E+000	0.0000000E+000	0.0000000E+000	-20.3815	0.0000000E+000	0.0000000E+000	0.0000000E+000	20.3815	2.69158	69.6185	5.42413e-07	-2.60545e-07	228285
3161.01	4.93821	1.94184	5.30628	-21.4661	6.66467	0.243881	-0.00126583	25.9287	3.47237	1	10	0.00473157	0.000891692	0	-2.95349e-05	0.175383	0.0689656	0.188456	21.4661	3472.37	8830.45	9488.63	-68.5339	0.0000000E+000	0.0000000E+000	0.0000000E+000	68.5339	0.0000000E+000	0.0000000E+000	0.0000000E+000	-68.5339	0.0000000E+000	0.0000000E+000	0.0000000E+000	-21.4661	0.0000000E+000	0.0000000E+000	0.0000000E+000	21.4661	2.54306	68.5339	-7.0774e-08	-3.08711e-07	192665
2155.69	5.36625	2.23924	5.81471	-22.6499	7.13071	0.243879	-0.0011559	32.9711	4.88965	1	10	0.00468547	0.000805796	0	-2.91694e-05	0.158714	0.0662284	0.171978	22.6499	4889.65	11717.9	12697.1	-67.3501	0.0000000E+000	0.0000000E+000	0.0000000E+000	67.3501	0.0000000E+000	0.0000000E+000	0.0000000E+000	-67.3501	0.0000000E+000	0.0000000E+000	0.0000000E+000	-22.6499	0.0000000E+000	0.0000000E+000	0.0000000E+000	22.6499	2.39646	67.3501	3.65519e-07	-2.819e-07	210987
1468.59	5.87137	2.60475	6.42322	-23.9238	7.59794	0.243881	-0.00107392	41.6057	6.84197	1	10	0.00465116	0.000724116	0	-2.95551e-05	0.14231	0.0631337	0.155685	23.9238	6841.97	15422.5	16872	-66.0762	0.0000000E+000	0.0000000E+000	0.0000000E+000	66.0762	0.0000000E+000	0.0000000E+000	0.0000000E+000	-66.0762	0.0000000E+000	0.0000000E+000	0.0000000E+000	-23.9238	0.0000000E+000	0.0000000E+000	0.0000000E+000	23.9238	2.2541	66.0762	-3.85754e-07	-2.61909e-07	227093
1000.32	6.44161	3.05261	7.12831	-25.3558	8.06671	0.243883	-0.00096958	52.1206	9.55827	1	10	0.0046171	0.000647712	0	-2.98239e-05	0.126771	0.0600756	0.140286	25.3558	9558.27	20169.8	22320	-64.6442	0.0000000E+000	0.0000000E+000	0.0000000E+000	64.6442	0.0000000E+000	0.0000000E+000	0.0000000E+000	-64.6442	0.0000000E+000	0.0000000E+000	0.0000000E+000	-25.3558	0.0000000E+000	0.0000000E+000	0.0000000E+000	25.3558	2.1102	64.6442	-2.68798e-07	-2.36464e-07	251534
681.09	7.1401	3.58681	7.99039	-26.6726	8.53245	0.243882	-0.00135901	65.1489	13.1277	1	10	0.00459903	0.000575571	0	-3.04142e-05	0.111833	0.0561789	0.12515	26.6726	13127.7	26132.7	29244.8	-63.3274	0.0000000E+000	0.0000000E+000	0.0000000E+000	63.3274	0.0000000E+000	0.0000000E+000	0.0000000E+000	-63.3274	0.0000000E+000	0.0000000E+000	0.0000000E+000	-26.6726	0.0000000E+000	0.0000000E+000	0.0000000E+000	26.6726	1.99065	63.3274	-5.90214e-07	-3.31437e-07	179456
463.961	7.98151	4.21796	9.0275	-27.8549	9.0012	0.243885	-0.000548482	81.3273	17.7544	1	10	0.0045869	0.000508104	0	-3.02439e-05	0.0979378	0.0517569	0.110773	27.8549	17754.4	33596.1	37999	-62.145	0.0000000E+000	0.0000000E+000	0.0000000E+000	62.145	0.0000000E+000	0.0000000E+000	0.0000000E+000	-62.145	0.0000000E+000	0.0000000E+000	0.0000000E+000	-27.8549	0.0000000E+000	0.0000000E+000	0.0000000E+000	27.8549	1.89227	62.145	1.70303e-07	-1.33766e-07	444654
316.316	9.02783	4.95209	10.2968	-28.7464	9.46791	0.243883	-0.00139814	101.604	23.5007	1	10	0.00457864	0.000444665	0	-3.02997e-05	0.0851482	0.0467069	0.0971172	28.7464	23500.7	42842.5	48864.7	-61.2536	0.0000000E+000	0.0000000E+000	0.0000000E+000	61.2536	0.0000000E+000	0.0000000E+000	0.0000000E+000	-61.2536	0.0000000E+000	0.0000000E+000	0.0000000E+000	-28.7464	0.0000000E+000	0.0000000E+000	0.0000000E+000	28.7464	1.82303	61.2536	-5.58908e-08	-3.40981e-07	174434
215.345	10.3484	5.71834	11.8232	-28.9244	9.93543	0.243882	-0.0011056	129.246	30.2334	1	10	0.004572	0.000386698	0	-3.0697e-05	0.074029	0.0409073	0.0845796	28.9244	30233.4	54712.7	62510.3	-61.0756	0.0000000E+000	0.0000000E+000	0.0000000E+000	61.0756	0.0000000E+000	0.0000000E+000	0.0000000E+000	-61.0756	0.0000000E+000	0.0000000E+000	0.0000000E+000	-28.9244	0.0000000E+000	0.0000000E+000	0.0000000E+000	28.9244	1.80968	61.0756	-3.97209e-07	-2.69637e-07	220587
146.737	11.9576	6.47508	13.5982	-28.4358	10.3984	0.243878	-0.00140932	167.507	37.9808	1	10	0.00457318	0.000336309	0	-3.08715e-05	0.0646669	0.0350175	0.0735393	28.4358	37980.8	70139.3	79762.6	-61.5642	0.0000000E+000	0.0000000E+000	0.0000000E+000	61.5642	0.0000000E+000	0.0000000E+000	0.0000000E+000	-61.5642	0.0000000E+000	0.0000000E+000	0.0000000E+000	-28.4358	0.0000000E+000	0.0000000E+000	0.0000000E+000	28.4358	1.8467	61.5642	-1.74575e-07	-3.43702e-07	173046
100.032	13.8773	7.0751	15.5768	-27.014	10.8667	0.243891	-0.000906236	224.879	46.3937	1	10	0.00456593	0.000293125	0	-3.09605e-05	0.0571938	0.0291593	0.0641982	27.014	46393.7	90997.7	102142	-62.986	0.0000000E+000	0.0000000E+000	0.0000000E+000	62.986	0.0000000E+000	0.0000000E+000	0.0000000E+000	-62.986	0.0000000E+000	0.0000000E+000	0.0000000E+000	-27.014	0.0000000E+000	0.0000000E+000	0.0000000E+000	27.014	1.96142	62.986	-8.89778e-08	-2.21023e-07	269125
68.104	16.073	7.39421	17.6922	-24.7043	11.3453	0.243899	0.000666369	316.05	55.2045	1	10	0.00456529	0.00025804	0	-3.08738e-05	0.0513489	0.0236226	0.056522	24.7043	55204.5	119999	132089	-65.2957	0.0000000E+000	0.0000000E+000	0.0000000E+000	65.2957	0.0000000E+000	0.0000000E+000	0.0000000E+000	-65.2957	0.0000000E+000	0.0000000E+000	0.0000000E+000	-24.7043	0.0000000E+000	0.0000000E+000	0.0000000E+000	24.7043	2.17372	65.2957	8.66966e-08	1.62527e-07	366011
46.4415	18.4827	7.32128	19.88	-21.6092	12.0486	0.243918	-0.00703953	468.087	63.4848	1	11	0.00457303	0.000230032	0	-3.17795e-05	0.0467666	0.0185249	0.0503019	21.6092	63484.8	160269	172384	-68.3907	0.0000000E+000	0.0000000E+000	0.0000000E+000	68.3907	0.0000000E+000	0.0000000E+000	0.0000000E+000	-68.3907	0.0000000E+000	0.0000000E+000	0.0000000E+000	-21.6092	0.0000000E+000	0.0000000E+000	0.0000000E+000	21.6092	2.52452	68.3907	-9.05691e-07	-1.71707e-06	34649.7
31.6296	20.6225	6.78724	21.7107	-18.2173	12.4954	0.243903	-0.00752973	741.368	72.4558	1	11	0.00456223	0.000210138	0	-3.27166e-05	0.0437516	0.0143995	0.0460603	18.2173	72455.9	220151	231768	-71.7827	0.0000000E+000	0.0000000E+000	0.0000000E+000	71.7827	0.0000000E+000	0.0000000E+000	0.0000000E+000	-71.7827	0.0000000E+000	0.0000000E+000	0.0000000E+000	-18.2173	0.0000000E+000	0.0000000E+000	0.0000000E+000	18.2173	3.03842	71.7827	-9.371e-07	-1.83653e-06	32392
21.5517	22.4735	5.91762	23.2395	-14.752	12.9343	0.243901	-0.00793096	1247.93	80.9153	1	11	0.00456607	0.000196479	0	-3.29747e-05	0.0416117	0.010957	0.0430301	14.752	80915.3	307294	317769	-75.248	0.0000000E+000	0.0000000E+000	0.0000000E+000	75.248	0.0000000E+000	0.0000000E+000	0.0000000E+000	-75.248	0.0000000E+000	0.0000000E+000	0.0000000E+000	-14.752	0.0000000E+000	0.0000000E+000	0.0000000E+000	14.752	3.79772	75.248	-2.58062e-07	-1.93437e-06	30753
14.6852	23.8311	4.93493	24.3367	-11.6994	13.4121	0.2439	-0.00709848	2196.14	90.3022	1	11	0.00456407	0.000187539	0	-3.39003e-05	0.0402365	0.00833214	0.0410901	11.6994	90302.2	436076	445327	-78.3006	0.0000000E+000	0.0000000E+000	0.0000000E+000	78.3006	0.0000000E+000	0.0000000E+000	0.0000000E+000	-78.3006	0.0000000E+000	0.0000000E+000	0.0000000E+000	-11.6994	0.0000000E+000	0.0000000E+000	0.0000000E+000	11.6994	4.82907	78.3006	-9.25672e-07	-1.73132e-06	34359.5
10.0032	24.7884	4.04322	25.116	-9.2639	13.8807	0.243916	-0.00669557	3935.08	101.978	1	11	0.00456446	0.000181735	0	-3.57997e-05	0.039296	0.00640954	0.0398153	9.2639	101978	625215	633477	-80.7361	0.0000000E+000	0.0000000E+000	0.0000000E+000	80.7361	0.0000000E+000	0.0000000E+000	0.0000000E+000	-80.7361	0.0000000E+000	0.0000000E+000	0.0000000E+000	-9.2639	0.0000000E+000	0.0000000E+000	0.0000000E+000	9.2639	6.13086	80.7361	-1.89939e-06	-1.63316e-06	36429.4
6.81719	25.4408	3.3064	25.6547	-7.40491	14.2384	0.243888	-0.00838871	7060.9	117.283	1	11	0.00455882	0.000177699	0	-3.59299e-05	0.0386541	0.00502365	0.0389791	7.40491	117283	902423	910012	-82.5951	0.0000000E+000	0.0000000E+000	0.0000000E+000	82.5951	0.0000000E+000	0.0000000E+000	0.0000000E+000	-82.5951	0.0000000E+000	0.0000000E+000	0.0000000E+000	-7.40491	0.0000000E+000	0.0000000E+000	0.0000000E+000	7.40491	7.69441	82.5951	-1.30126e-07	-2.0459e-06	29073.3
4.63925	25.9225	2.84976	26.0787	-6.27355	14.7403	0.243904	-0.00686009	12038.3	143.751	1	11	0.0045615	0.000174913	0	-3.87845e-05	0.0381159	0.00419022	0.0383455	6.27355	143751	1.30761e+06	1.31549e+06	-83.7264	0.0000000E+000	0.0000000E+000	0.0000000E+000	83.7264	0.0000000E+000	0.0000000E+000	0.0000000E+000	-83.7264	0.0000000E+000	0.0000000E+000	0.0000000E+000	-6.27355	0.0000000E+000	0.0000000E+000	0.0000000E+000	6.27355	9.09638	83.7264	-2.85465e-06	-1.6732e-06	35554
3.1604	26.3947	2.59685	26.5222	-5.61897	15.4493	0.243898	-0.00713634	19392.4	185.912	1	11	0.00456521	0.000172128	0	-3.77722e-05	0.0375231	0.00369171	0.0377043	5.61897	185912	1.88963e+06	1.89876e+06	-84.381	0.0000000E+000	0.0000000E+000	0.0000000E+000	84.381	0.0000000E+000	0.0000000E+000	0.0000000E+000	-84.381	0.0000000E+000	0.0000000E+000	0.0000000E+000	-5.61897	0.0000000E+000	0.0000000E+000	0.0000000E+000	5.61897	10.1641	84.381	1.01234e-06	-1.74054e-06	34176.9
2.15577	26.8319	2.46739	26.9451	-5.25399	16.4658	0.243914	-0.00565949	29921.4	250.898	1	11	0.00456714	0.000169498	0	-3.67724e-05	0.0369566	0.00339843	0.0371125	5.25399	250898	2.72841e+06	2.73993e+06	-84.746	0.0000000E+000	0.0000000E+000	0.0000000E+000	84.746	0.0000000E+000	0.0000000E+000	0.0000000E+000	-84.746	0.0000000E+000	0.0000000E+000	0.0000000E+000	-5.25399	0.0000000E+000	0.0000000E+000	0.0000000E+000	5.25399	10.8746	84.746	9.99796e-07	-1.38043e-06	43098.1
1.46631	27.3257	2.54323	27.4438	-5.31725	17.9391	0.243912	-0.00513776	42678.5	366.514	1	11	0.00456645	0.000166393	0	-4.02629e-05	0.0362813	0.00337673	0.0364381	5.31725	366514	3.93801e+06	3.95503e+06	-84.6827	0.0000000E+000	0.0000000E+000	0.0000000E+000	84.6827	0.0000000E+000	0.0000000E+000	0.0000000E+000	-84.6827	0.0000000E+000	0.0000000E+000	0.0000000E+000	-5.31725	0.0000000E+000	0.0000000E+000	0.0000000E+000	5.31725	10.7445	84.6827	-3.49053e-06	-1.25316e-06	47474.4
1.00006	27.8558	2.64287	27.9809	-5.4198	21.1292	0.243906	-0.00510783	60216.7	537.209	1	12	0.00456897	0.000163289	0	-5.0913e-05	0.0355789	0.0033756	0.0357386	5.4198	537210	5.66219e+06	5.68762e+06	-84.5802	0.0000000E+000	0.0000000E+000	0.0000000E+000	84.5802	0.0000000E+000	0.0000000E+000	0.0000000E+000	-84.5802	0.0000000E+000	0.0000000E+000	0.0000000E+000	-5.4198	0.0000000E+000	0.0000000E+000	0.0000000E+000	5.4198	10.54	84.5802	-1.06501e-05	-1.24583e-06	47751.5
0.681362	28.481	2.76456	28.6149	-5.54415	24.2503	0.243917	-0.00482037	84492	788.649	1	12	0.00456752	0.00015962	0	-6.05006e-05	0.0347833	0.00337631	0.0349468	5.54415	788649	8.12481e+06	8.163e+06	-84.4559	0.0000000E+000	0.0000000E+000	0.0000000E+000	84.4559	0.0000000E+000	0.0000000E+000	0.0000000E+000	-84.4559	0.0000000E+000	0.0000000E+000	0.0000000E+000	-5.54415	0.0000000E+000	0.0000000E+000	0.0000000E+000	5.54415	10.3022	84.4559	-9.58756e-06	-1.17577e-06	50601.3
0.464091	29.1663	2.98117	29.3182	-5.83611	28.8145	0.24391	-0.00507424	115035	1189.4	1	12	0.00457037	0.000155889	0	-6.65006e-05	0.0339317	0.00346826	0.0341085	5.83611	1.1894e+06	1.16365e+07	1.16971e+07	-84.1639	0.0000000E+000	0.0000000E+000	0.0000000E+000	84.1639	0.0000000E+000	0.0000000E+000	0.0000000E+000	-84.1639	0.0000000E+000	0.0000000E+000	0.0000000E+000	-5.83611	0.0000000E+000	0.0000000E+000	0.0000000E+000	5.83611	9.78348	84.1639	-6.00005e-06	-1.23766e-06	48068.4
0.316193	29.8003	3.22166	29.974	-6.17018	35.495	0.243905	-0.00504185	156239	1804.92	1	12	0.00456909	0.000152435	0	-6.53579e-05	0.033169	0.00358584	0.0333623	6.17018	1.80493e+06	1.66955e+07	1.67928e+07	-83.8298	0.0000000E+000	0.0000000E+000	0.0000000E+000	83.8298	0.0000000E+000	0.0000000E+000	0.0000000E+000	-83.8298	0.0000000E+000	0.0000000E+000	0.0000000E+000	-6.17018	0.0000000E+000	0.0000000E+000	0.0000000E+000	6.17018	9.24999	83.8298	1.14265e-06	-1.22973e-06	48376.1
0.215268	30.4864	3.46886	30.6831	-6.49142	45.2928	0.243912	-0.00432176	213135	2724.14	1	12	0.00456699	0.000148844	0	-5.72798e-05	0.0323823	0.00368458	0.0325912	6.49142	2.72414e+06	2.39413e+07	2.40958e+07	-83.5086	0.0000000E+000	0.0000000E+000	0.0000000E+000	83.5086	0.0000000E+000	0.0000000E+000	0.0000000E+000	-83.5086	0.0000000E+000	0.0000000E+000	0.0000000E+000	-6.49142	0.0000000E+000	0.0000000E+000	0.0000000E+000	6.49142	8.78859	83.5086	8.07814e-06	-1.05413e-06	56438.1
0.146929	31.3029	3.83279	31.5366	-6.98068	59.6284	0.243906	-0.00342002	282617	4174.44	1	12	0.00457128	0.000144952	0	-4.8954e-05	0.0314741	0.00385376	0.0317092	6.98068	4.17444e+06	3.40931e+07	3.43477e+07	-83.0193	0.0000000E+000	0.0000000E+000	0.0000000E+000	83.0193	0.0000000E+000	0.0000000E+000	0.0000000E+000	-83.0193	0.0000000E+000	0.0000000E+000	0.0000000E+000	-6.98068	0.0000000E+000	0.0000000E+000	0.0000000E+000	6.98068	8.16711	83.0193	8.32584e-06	-8.34165e-07	71317.2
0.0999041	32.232	4.30511	32.5182	-7.60777	80.6983	0.243902	-0.00210322	370043	6485.86	1	12	0.00456883	0.0001405	0	-5.28608e-05	0.0304813	0.00407128	0.030752	7.60777	6.48586e+06	4.85591e+07	4.89903e+07	-82.3922	0.0000000E+000	0.0000000E+000	0.0000000E+000	82.3922	0.0000000E+000	0.0000000E+000	0.0000000E+000	-82.3922	0.0000000E+000	0.0000000E+000	0.0000000E+000	-7.60777	0.0000000E+000	0.0000000E+000	0.0000000E+000	7.60777	7.48691	82.3922	-3.90685e-06	-5.12978e-07	115966
0.0680626	33.2074	4.88047	33.5641	-8.36088	111.61	0.243899	-0.00109166	479126	10130.3	1	12	0.00457087	0.000136183	0	-8.1386e-05	0.0294771	0.00433223	0.0297937	8.36088	1.01303e+07	6.89281e+07	6.96685e+07	-81.6391	0.0000000E+000	0.0000000E+000	0.0000000E+000	81.6391	0.0000000E+000	0.0000000E+000	0.0000000E+000	-81.6391	0.0000000E+000	0.0000000E+000	0.0000000E+000	-8.36088	0.0000000E+000	0.0000000E+000	0.0000000E+000	8.36088	6.80413	81.6391	-2.85252e-05	-2.66255e-07	223419
0.0464052	34.093	5.52635	34.538	-9.20734	156.935	0.243904	-0.000428335	620605	15889	1	12	0.00456977	0.000132311	0	-0.000157275	0.0285805	0.0046328	0.0289536	9.20734	1.5889e+07	9.80221e+07	9.93015e+07	-80.7927	0.0000000E+000	0.0000000E+000	0.0000000E+000	80.7927	0.0000000E+000	0.0000000E+000	0.0000000E+000	-80.7927	0.0000000E+000	0.0000000E+000	0.0000000E+000	-9.20734	0.0000000E+000	0.0000000E+000	0.0000000E+000	9.20734	6.16918	80.7927	-7.58891e-05	-1.04473e-07	569424
0.0315922	35.061	6.3702	35.635	-10.2977	223.496	0.243904	-0.000697687	790837	25272	1	12	0.00457026	0.000128252	0	-0.00028223	0.0276103	0.00501649	0.0280623	10.2977	2.5272e+07	1.39095e+08	1.41372e+08	-79.7023	0.0000000E+000	0.0000000E+000	0.0000000E+000	79.7023	0.0000000E+000	0.0000000E+000	0.0000000E+000	-79.7023	0.0000000E+000	0.0000000E+000	0.0000000E+000	-10.2977	0.0000000E+000	0.0000000E+000	0.0000000E+000	10.2977	5.50391	79.7023	-0.000124955	-1.70169e-07	349590
0.0215268	36.1693	7.74504	36.9892	-12.0864	321.165	0.243902	-0.00120206	954591	41851.7	1	12	0.00456871	0.000123514	0	-0.000428568	0.0264356	0.00566073	0.0270349	12.0864	4.18518e+07	1.95448e+08	1.99878e+08	-77.9136	0.0000000E+000	0.0000000E+000	0.0000000E+000	77.9136	0.0000000E+000	0.0000000E+000	0.0000000E+000	-77.9136	0.0000000E+000	0.0000000E+000	0.0000000E+000	-12.0864	0.0000000E+000	0.0000000E+000	0.0000000E+000	12.0864	4.67	77.9136	-0.000146337	-2.93186e-07	202903
0.0146812	37.3626	9.98423	38.6736	-14.9613	464.36	0.243898	-0.0014902	1.08579e+06	72367.7	1	12	0.00457056	0.000118183	0	-0.000515049	0.0249809	0.00667553	0.0258574	14.9613	7.23677e+07	2.70811e+08	2.80314e+08	-75.0387	0.0000000E+000	0.0000000E+000	0.0000000E+000	75.0387	0.0000000E+000	0.0000000E+000	0.0000000E+000	-75.0387	0.0000000E+000	0.0000000E+000	0.0000000E+000	-14.9613	0.0000000E+000	0.0000000E+000	0.0000000E+000	14.9613	3.74216	75.0387	-8.64819e-05	-3.63457e-07	163668
0.0100092	38.5694	12.9886	40.6977	-18.6115	674.381	0.243904	-0.00116004	1.22422e+06	124694	1	12	0.00456837	0.000112251	0	-0.000420166	0.0232864	0.00784194	0.0245714	18.6115	1.24694e+08	3.70276e+08	3.90708e+08	-71.3885	0.0000000E+000	0.0000000E+000	0.0000000E+000	71.3885	0.0000000E+000	0.0000000E+000	0.0000000E+000	-71.3885	0.0000000E+000	0.0000000E+000	0.0000000E+000	-18.6115	0.0000000E+000	0.0000000E+000	0.0000000E+000	18.6115	2.96947	71.3885	9.48835e-05	-2.82939e-07	210254