File: txt/17401_R279_UA651_SOC00_C07.mpt
EC-Lab ASCII FILE
Nb header lines : 63

Potentio Electrochemical Impedance Spectroscopy

Run on channel : 7 (SN 66126)
User :
CE vs. WE compliance from -10 V to 10 V
Electrode connection : standard
Potential control : Ewe
Ewe ctrl range : min = -10.00 V, max = 10.00 V
Safety Limits :
	Do not start on E overload
Acquisition started on : 09/11/2025 15:39:00.035
Loaded Setting File :  C:\Users\Celltest\OneDrive - store-dot.com\Documents\EC-Lab\Data\Charmaine\R279\17382_C01.mpr
Saved on :
	File : 17401_C07.mpr
	Directory : C:\Users\Celltest\OneDrive - store-dot.com\Documents\EC-Lab\Data\Charmaine\R279\
	Host : 169.254.61.224
Device : VMP-3e (SN .003165)
Address : USB
EC-LAB for windows v11.62 (software)
Internet server v27.00 (firmware)
Command interpretor v12.03 (firmware)
Electrode material :
Initial state :
Electrolyte :
Comments :
Electrode surface area : 0.001 cm²
Characteristic mass : 0.001 g
Equivalent Weight : 0.000 g/eq.
Density : 0.000 g/cm3
Volume (V) : 0.001 cm³
Cycle Definition : Charge/Discharge alternance
Mode                Single sine
E (V)               0.0000
vs.                 Eoc
tE (h:m:s)          0:00:0.0000
record              0
dI                  0.000
unit dI             mA
dt (s)              0.000
fi                  100.000
unit fi             kHz
ff                  10.000
unit ff             mHz
Nd                  6
Points              per decade
spacing             Logarithmic
Va (mV)             5.0
pw                  0.10
Na                  2
corr                0
E range min (V)     -10.000
E range max (V)     10.000
I Range             Auto
Bandwidth           5
nc cycles           0
goto Ns'            0
nr cycles           0
inc. cycle          0

freq/Hz	Re(Z)/Ohm	-Im(Z)/Ohm	|Z|/Ohm	Phase(Z)/deg	time/s	<Ewe>/V	<I>/mA	Cs/µF	Cp/µF	cycle number	I Range	|Ewe|/V	|I|/A	Ns	(Q-Qo)/mA.h	Re(Y)/Ohm-1	Im(Y)/Ohm-1	|Y|/Ohm-1	Phase(Y)/deg	Re(C)/nF	Im(C)/nF	|C|/nF	Phase(C)/deg	Re(M)	Im(M)	|M|	Phase(M)/deg	Re(Permittivity)	Im(Permittivity)	|Permittivity|	Phase(Permittivity)/deg	Re(Resistivity)/Ohm.cm	Im(Resistivity)/Ohm.cm	|Resistivity|/Ohm.cm	Phase(Resistivity)/deg	Re(Conductivity)/mS/cm	Im(Conductivity)/mS/cm	|Conductivity|/mS/cm	Phase(Conductivity)/deg	Tan(Delta)	Loss Angle(Delta)/deg	dq/mA.h	Pwe/W	Rwe/Ohm
100004	2.48259	0.508457	2.53413	-11.5746	2.07849	0.223419	0.077328	3.13004	0.126009	1	9	0.00454702	0.00179431	0	1.46428e-05	0.386589	0.0791768	0.394613	11.5746	126.009	615.252	628.024	-78.4254	0.0000000E+000	0.0000000E+000	0.0000000E+000	78.4254	0.0000000E+000	0.0000000E+000	0.0000000E+000	-78.4254	0.0000000E+000	0.0000000E+000	0.0000000E+000	-11.5746	0.0000000E+000	0.0000000E+000	0.0000000E+000	11.5746	4.8826	78.4254	1.46428e-05	1.72766e-05	2889.24
68132	2.56405	0.643879	2.64365	-14.0965	2.65649	0.223458	0.0677956	3.62797	0.215211	1	9	0.00518637	0.00196182	0	2.18815e-05	0.366873	0.0921287	0.378264	14.0965	215.211	857.008	883.617	-75.9035	0.0000000E+000	0.0000000E+000	0.0000000E+000	75.9035	0.0000000E+000	0.0000000E+000	0.0000000E+000	-75.9035	0.0000000E+000	0.0000000E+000	0.0000000E+000	-14.0965	0.0000000E+000	0.0000000E+000	0.0000000E+000	14.0965	3.98218	75.9035	7.23865e-06	1.51495e-05	3296.06
46420.4	2.7031	0.730422	2.80005	-15.1211	3.23448	0.223481	0.0732507	4.69394	0.319414	1	9	0.00513744	0.00183477	0	3.28499e-05	0.344771	0.0931627	0.357136	15.1211	319.414	1182.07	1224.46	-74.8789	0.0000000E+000	0.0000000E+000	0.0000000E+000	74.8789	0.0000000E+000	0.0000000E+000	0.0000000E+000	-74.8789	0.0000000E+000	0.0000000E+000	0.0000000E+000	-15.1211	0.0000000E+000	0.0000000E+000	0.0000000E+000	15.1211	3.70074	74.8789	1.09684e-05	1.63702e-05	3050.91
31621.1	2.86359	0.822947	2.97949	-16.0338	3.81249	0.223509	0.064705	6.11605	0.466585	1	9	0.00512251	0.00171926	0	4.20701e-05	0.322572	0.0927017	0.335628	16.0338	466.585	1623.56	1689.28	-73.9662	0.0000000E+000	0.0000000E+000	0.0000000E+000	73.9662	0.0000000E+000	0.0000000E+000	0.0000000E+000	-73.9662	0.0000000E+000	0.0000000E+000	0.0000000E+000	-16.0338	0.0000000E+000	0.0000000E+000	0.0000000E+000	16.0338	3.47967	73.9662	9.2202e-06	1.44621e-05	3454.27
21544.7	3.04739	0.932305	3.18681	-17.0107	4.39048	0.223509	0.0662875	7.92359	0.678149	1	9	0.00511027	0.00160357	0	5.33502e-05	0.300065	0.0918005	0.313793	17.0107	678.149	2216.64	2318.05	-72.9893	0.0000000E+000	0.0000000E+000	0.0000000E+000	72.9893	0.0000000E+000	0.0000000E+000	0.0000000E+000	-72.9893	0.0000000E+000	0.0000000E+000	0.0000000E+000	-17.0107	0.0000000E+000	0.0000000E+000	0.0000000E+000	17.0107	3.26866	72.9893	1.128e-05	1.48158e-05	3371.81
14678.6	3.26455	1.05352	3.43033	-17.8857	4.96849	0.223516	0.0656359	10.2918	0.970749	1	9	0.00509854	0.00148631	0	6.12364e-05	0.277428	0.0895305	0.291517	17.8857	970.749	3008.06	3160.82	-72.1143	0.0000000E+000	0.0000000E+000	0.0000000E+000	72.1143	0.0000000E+000	0.0000000E+000	0.0000000E+000	-72.1143	0.0000000E+000	0.0000000E+000	0.0000000E+000	-17.8857	0.0000000E+000	0.0000000E+000	0.0000000E+000	17.8857	3.0987	72.1143	7.88623e-06	1.46706e-05	3405.39
10002.2	3.49543	1.19717	3.69476	-18.9061	5.54648	0.223519	0.0610372	13.2913	1.39543	1	9	0.00509099	0.0013779	0	7.00176e-05	0.256052	0.0876969	0.270654	18.9061	1395.43	4074.29	4306.63	-71.0939	0.0000000E+000	0.0000000E+000	0.0000000E+000	71.0939	0.0000000E+000	0.0000000E+000	0.0000000E+000	-71.0939	0.0000000E+000	0.0000000E+000	0.0000000E+000	-18.9061	0.0000000E+000	0.0000000E+000	0.0000000E+000	18.9061	2.91974	71.0939	8.78121e-06	1.3643e-05	3662.01
6811.07	3.75308	1.38001	3.99876	-20.1885	6.10252	0.22352	0.0560662	16.9325	2.01668	1	9	0.00549669	0.0013746	0	7.9282e-05	0.234713	0.0863044	0.250078	20.1885	2016.68	5484.57	5843.59	-69.8115	0.0000000E+000	0.0000000E+000	0.0000000E+000	69.8115	0.0000000E+000	0.0000000E+000	0.0000000E+000	-69.8115	0.0000000E+000	0.0000000E+000	0.0000000E+000	-20.1885	0.0000000E+000	0.0000000E+000	0.0000000E+000	20.1885	2.7196	69.8115	9.2644e-06	1.25319e-05	3986.72
4641.49	4.09732	1.59827	4.39801	-21.3096	7.27368	0.223533	0.00184352	21.4543	2.83335	1	10	0.00471101	0.00107117	0	8.61097e-05	0.21183	0.0826297	0.227375	21.3096	2833.35	7263.57	7796.62	-68.6904	0.0000000E+000	0.0000000E+000	0.0000000E+000	68.6904	0.0000000E+000	0.0000000E+000	0.0000000E+000	-68.6904	0.0000000E+000	0.0000000E+000	0.0000000E+000	-21.3096	0.0000000E+000	0.0000000E+000	0.0000000E+000	21.3096	2.5636	68.6904	6.82772e-06	4.12087e-07	121254
3161.01	4.4559	1.83874	4.82037	-22.4237	7.96367	0.223529	0.00226792	27.3825	3.98432	1	10	0.00530005	0.00109951	0	8.74832e-05	0.191767	0.0791335	0.207453	22.4237	3984.32	9655.35	10445.1	-67.5763	0.0000000E+000	0.0000000E+000	0.0000000E+000	67.5763	0.0000000E+000	0.0000000E+000	0.0000000E+000	-67.5763	0.0000000E+000	0.0000000E+000	0.0000000E+000	-22.4237	0.0000000E+000	0.0000000E+000	0.0000000E+000	22.4237	2.42334	67.5763	1.37346e-06	5.06945e-07	98561.3
2155.69	4.85624	2.14043	5.30702	-23.786	8.65371	0.223533	0.00193287	34.4931	5.61092	1	10	0.00518079	0.000976215	0	8.69779e-05	0.172424	0.0759976	0.18843	23.786	5610.92	12730.1	13911.8	-66.214	0.0000000E+000	0.0000000E+000	0.0000000E+000	66.214	0.0000000E+000	0.0000000E+000	0.0000000E+000	-66.214	0.0000000E+000	0.0000000E+000	0.0000000E+000	-23.786	0.0000000E+000	0.0000000E+000	0.0000000E+000	23.786	2.26881	66.214	-5.05289e-07	4.32059e-07	115648
1468.59	5.32639	2.5012	5.88443	-25.1541	9.34397	0.223532	0.00248383	43.3282	7.82817	1	10	0.00509697	0.00086618	0	8.62737e-05	0.153824	0.0722338	0.16994	25.1541	7828.17	16670.3	18416.9	-64.8459	0.0000000E+000	0.0000000E+000	0.0000000E+000	64.8459	0.0000000E+000	0.0000000E+000	0.0000000E+000	-64.8459	0.0000000E+000	0.0000000E+000	0.0000000E+000	-25.1541	0.0000000E+000	0.0000000E+000	0.0000000E+000	25.1541	2.12953	64.8459	-7.04157e-07	5.55216e-07	89995
1000.32	5.89229	2.93899	6.58458	-26.5093	9.81271	0.223525	0.00202034	54.1357	10.7851	1	10	0.00518615	0.00078762	0	8.59011e-05	0.135903	0.0677862	0.15187	26.5093	10785.1	21622.6	24163.1	-63.4907	0.0000000E+000	0.0000000E+000	0.0000000E+000	63.4907	0.0000000E+000	0.0000000E+000	0.0000000E+000	-63.4907	0.0000000E+000	0.0000000E+000	0.0000000E+000	-26.5093	0.0000000E+000	0.0000000E+000	0.0000000E+000	26.5093	2.00487	63.4907	-3.72596e-07	4.51597e-07	110637
681.09	6.56651	3.46346	7.42392	-27.8091	10.2784	0.223533	0.00187329	67.4693	14.6845	1	10	0.00507292	0.000683322	0	8.58494e-05	0.119143	0.062841	0.1347	27.8091	14684.5	27840.9	31476.2	-62.1909	0.0000000E+000	0.0000000E+000	0.0000000E+000	62.1909	0.0000000E+000	0.0000000E+000	0.0000000E+000	-62.1909	0.0000000E+000	0.0000000E+000	0.0000000E+000	-27.8091	0.0000000E+000	0.0000000E+000	0.0000000E+000	27.8091	1.89594	62.1909	-5.17559e-08	4.18741e-07	119326
463.961	7.41334	4.0797	8.46177	-28.8248	10.7472	0.22353	0.00199614	84.0834	19.5454	1	10	0.00495455	0.000585521	0	8.61544e-05	0.103536	0.0569778	0.118179	28.8248	19545.4	35516.5	40539.4	-61.1752	0.0000000E+000	0.0000000E+000	0.0000000E+000	61.1752	0.0000000E+000	0.0000000E+000	0.0000000E+000	-61.1752	0.0000000E+000	0.0000000E+000	0.0000000E+000	-28.8248	0.0000000E+000	0.0000000E+000	0.0000000E+000	28.8248	1.81713	61.1752	3.05027e-07	4.46198e-07	111981
316.316	8.45706	4.75677	9.70302	-29.3561	11.2139	0.223525	0.00195891	105.776	25.4213	1	10	0.00486266	0.000501149	0	8.61235e-05	0.0898267	0.050524	0.103061	29.3561	25421.2	45196.5	51855.2	-60.6439	0.0000000E+000	0.0000000E+000	0.0000000E+000	60.6439	0.0000000E+000	0.0000000E+000	0.0000000E+000	-60.6439	0.0000000E+000	0.0000000E+000	0.0000000E+000	-29.3561	0.0000000E+000	0.0000000E+000	0.0000000E+000	29.3561	1.7779	60.6439	-3.0911e-08	4.37865e-07	114107
215.345	9.78049	5.45049	11.1967	-29.1302	11.6814	0.223526	0.00218041	135.597	32.1324	1	10	0.00480172	0.000428851	0	8.59503e-05	0.0780156	0.0434767	0.0893121	29.1302	32132.4	57659.1	66008	-60.8698	0.0000000E+000	0.0000000E+000	0.0000000E+000	60.8698	0.0000000E+000	0.0000000E+000	0.0000000E+000	-60.8698	0.0000000E+000	0.0000000E+000	0.0000000E+000	-29.1302	0.0000000E+000	0.0000000E+000	0.0000000E+000	29.1302	1.79442	60.8698	-1.7319e-07	4.8738e-07	102516
146.737	11.3891	6.06685	12.9042	-28.0437	12.1444	0.223521	0.00209851	178.779	39.5166	1	10	0.00476143	0.000368983	0	8.63804e-05	0.0683954	0.0364335	0.0774941	28.0437	39516.6	74183.4	84052	-61.9563	0.0000000E+000	0.0000000E+000	0.0000000E+000	61.9563	0.0000000E+000	0.0000000E+000	0.0000000E+000	-61.9563	0.0000000E+000	0.0000000E+000	0.0000000E+000	-28.0437	0.0000000E+000	0.0000000E+000	0.0000000E+000	28.0437	1.87727	61.9563	4.30085e-07	4.6906e-07	106514
100.032	13.2275	6.45402	14.7181	-26.0088	12.6127	0.223524	0.00184722	246.519	47.4034	1	10	0.00473476	0.000321697	0	8.69301e-05	0.0610628	0.0297939	0.0679437	26.0088	47403.4	97153.3	108101	-63.9912	0.0000000E+000	0.0000000E+000	0.0000000E+000	63.9912	0.0000000E+000	0.0000000E+000	0.0000000E+000	-63.9912	0.0000000E+000	0.0000000E+000	0.0000000E+000	-26.0088	0.0000000E+000	0.0000000E+000	0.0000000E+000	26.0088	2.0495	63.9912	5.49739e-07	4.12899e-07	121006
68.104	15.2693	6.5414	16.6115	-23.1904	13.0913	0.223527	0.00186956	357.254	55.3988	1	10	0.00472695	0.000284559	0	8.74323e-05	0.0553352	0.0237057	0.0601992	23.1904	55398.8	129315	140682	-66.8096	0.0000000E+000	0.0000000E+000	0.0000000E+000	66.8096	0.0000000E+000	0.0000000E+000	0.0000000E+000	-66.8096	0.0000000E+000	0.0000000E+000	0.0000000E+000	-23.1904	0.0000000E+000	0.0000000E+000	0.0000000E+000	23.1904	2.33426	66.8096	5.02221e-07	4.17896e-07	119561
46.4415	17.2523	6.23712	18.3451	-19.8761	13.5466	0.223519	0.00109336	549.452	63.5119	1	10	0.00471554	0.000257045	0	8.76891e-05	0.0512631	0.0185328	0.0545103	19.8761	63511.9	175679	186807	-70.1239	0.0000000E+000	0.0000000E+000	0.0000000E+000	70.1239	0.0000000E+000	0.0000000E+000	0.0000000E+000	-70.1239	0.0000000E+000	0.0000000E+000	0.0000000E+000	-19.8761	0.0000000E+000	0.0000000E+000	0.0000000E+000	19.8761	2.76607	70.1239	2.56737e-07	2.44387e-07	204433
31.6296	19.0668	5.55725	19.8601	-16.2494	14.2384	0.223518	-0.00345333	905.455	70.8962	1	11	0.00471246	0.000237282	0	8.73709e-05	0.0483407	0.0140895	0.0503521	16.2494	70896.2	243243	253364	-73.7506	0.0000000E+000	0.0000000E+000	0.0000000E+000	73.7506	0.0000000E+000	0.0000000E+000	0.0000000E+000	-73.7506	0.0000000E+000	0.0000000E+000	0.0000000E+000	-16.2494	0.0000000E+000	0.0000000E+000	0.0000000E+000	16.2494	3.43097	73.7506	-3.18216e-07	-7.71882e-07	64725.5
21.5517	20.4537	4.7149	20.9901	-12.9808	14.6774	0.223524	-0.00367622	1566.27	79.0284	1	11	0.00471157	0.000224467	0	8.76953e-05	0.0464241	0.0107015	0.0476416	12.9808	79028.4	342832	351823	-77.0191	0.0000000E+000	0.0000000E+000	0.0000000E+000	77.0191	0.0000000E+000	0.0000000E+000	0.0000000E+000	-77.0191	0.0000000E+000	0.0000000E+000	0.0000000E+000	-12.9808	0.0000000E+000	0.0000000E+000	0.0000000E+000	12.9808	4.33809	77.0191	3.24471e-07	-8.21722e-07	60802.5
14.6852	21.462	3.849	21.8044	-10.1674	15.155	0.223533	-0.00286068	2815.75	87.7408	1	11	0.00471235	0.000216119	0	8.72947e-05	0.0451421	0.0080958	0.0458623	10.1674	87740.8	489242	497047	-79.8326	0.0000000E+000	0.0000000E+000	0.0000000E+000	79.8326	0.0000000E+000	0.0000000E+000	0.0000000E+000	-79.8326	0.0000000E+000	0.0000000E+000	0.0000000E+000	-10.1674	0.0000000E+000	0.0000000E+000	0.0000000E+000	10.1674	5.57599	79.8326	-4.0064e-07	-6.39456e-07	78139.9
10.0032	22.1222	3.09697	22.3379	-7.96927	15.6237	0.223531	-0.0029861	5137.41	98.7493	1	11	0.00470786	0.000210757	0	8.57122e-05	0.0443347	0.00620659	0.044767	7.96927	98749.4	705382	712261	-82.0307	0.0000000E+000	0.0000000E+000	0.0000000E+000	82.0307	0.0000000E+000	0.0000000E+000	0.0000000E+000	-82.0307	0.0000000E+000	0.0000000E+000	0.0000000E+000	-7.96927	0.0000000E+000	0.0000000E+000	0.0000000E+000	7.96927	7.14316	82.0307	-1.58252e-06	-6.67486e-07	74857.1
6.81719	22.6146	2.54198	22.757	-6.41336	15.9814	0.223523	-0.00321608	9184.24	114.592	1	11	0.00471032	0.000206983	0	8.61472e-05	0.0436675	0.0049084	0.0439425	6.41336	114592	1.01947e+06	1.02589e+06	-83.5866	0.0000000E+000	0.0000000E+000	0.0000000E+000	83.5866	0.0000000E+000	0.0000000E+000	0.0000000E+000	-83.5866	0.0000000E+000	0.0000000E+000	0.0000000E+000	-6.41336	0.0000000E+000	0.0000000E+000	0.0000000E+000	6.41336	8.89647	83.5866	4.35061e-07	-7.18869e-07	69501.7
4.63925	22.9037	2.16657	23.0059	-5.40381	16.4843	0.223539	-0.00275612	15834.3	140.432	1	11	0.0046978	0.0002042	0	8.35348e-05	0.0432739	0.00409349	0.0434671	5.40381	140432	1.48456e+06	1.49119e+06	-84.5962	0.0000000E+000	0.0000000E+000	0.0000000E+000	84.5962	0.0000000E+000	0.0000000E+000	0.0000000E+000	-84.5962	0.0000000E+000	0.0000000E+000	0.0000000E+000	-5.40381	0.0000000E+000	0.0000000E+000	0.0000000E+000	5.40381	10.5714	84.5962	-2.61239e-06	-6.161e-07	81106.1
3.1604	23.2894	2.04006	23.3786	-5.0061	17.1932	0.223537	-0.00281744	24685.2	187.969	1	11	0.00470922	0.000201433	0	8.58684e-05	0.0426111	0.00373256	0.0427742	5.0061	187969	2.14586e+06	2.15408e+06	-84.9939	0.0000000E+000	0.0000000E+000	0.0000000E+000	84.9939	0.0000000E+000	0.0000000E+000	0.0000000E+000	-84.9939	0.0000000E+000	0.0000000E+000	0.0000000E+000	-5.0061	0.0000000E+000	0.0000000E+000	0.0000000E+000	5.0061	11.416	84.9939	2.33359e-06	-6.29801e-07	79340.4
2.15577	23.6559	1.97563	23.7383	-4.774	18.2098	0.223548	-0.00177583	37369.1	258.837	1	11	0.00471534	0.000198639	0	8.82617e-05	0.0419799	0.00350597	0.0421261	4.774	258837	3.09927e+06	3.11006e+06	-85.226	0.0000000E+000	0.0000000E+000	0.0000000E+000	85.226	0.0000000E+000	0.0000000E+000	0.0000000E+000	-85.226	0.0000000E+000	0.0000000E+000	0.0000000E+000	-4.774	0.0000000E+000	0.0000000E+000	0.0000000E+000	4.774	11.9739	85.226	2.39329e-06	-3.96982e-07	125884
1.46631	24.0456	2.02954	24.1311	-4.82454	19.683	0.223547	-0.00130968	53480.7	378.301	1	11	0.0047131	0.000195312	0	8.58424e-05	0.0412935	0.00348532	0.0414403	4.82454	378301	4.48204e+06	4.49798e+06	-85.1755	0.0000000E+000	0.0000000E+000	0.0000000E+000	85.1755	0.0000000E+000	0.0000000E+000	0.0000000E+000	-85.1755	0.0000000E+000	0.0000000E+000	0.0000000E+000	-4.82454	0.0000000E+000	0.0000000E+000	0.0000000E+000	4.82454	11.8478	85.1755	-2.4193e-06	-2.92776e-07	170688
1.00006	24.4799	2.12669	24.5721	-4.9651	22.8732	0.223548	-0.00169695	74832.3	560.547	1	12	0.00471602	0.000191926	0	7.711e-05	0.0405439	0.00352225	0.0406966	4.9651	560548	6.45235e+06	6.47665e+06	-85.0349	0.0000000E+000	0.0000000E+000	0.0000000E+000	85.0349	0.0000000E+000	0.0000000E+000	0.0000000E+000	-85.0349	0.0000000E+000	0.0000000E+000	0.0000000E+000	-4.9651	0.0000000E+000	0.0000000E+000	0.0000000E+000	4.9651	11.5108	85.0349	-8.73239e-06	-3.79352e-07	131735
0.681362	24.9846	2.22541	25.0836	-5.08997	25.9932	0.223559	-0.00149485	104962	826.179	1	12	0.0047138	0.000187924	0	6.9792e-05	0.0397095	0.00353698	0.0398668	5.08997	826178	9.27549e+06	9.31221e+06	-84.91	0.0000000E+000	0.0000000E+000	0.0000000E+000	84.91	0.0000000E+000	0.0000000E+000	0.0000000E+000	-84.91	0.0000000E+000	0.0000000E+000	0.0000000E+000	-5.08997	0.0000000E+000	0.0000000E+000	0.0000000E+000	5.08997	11.227	84.91	-7.31803e-06	-3.34187e-07	149553
0.464091	25.5179	2.41567	25.632	-5.40784	30.558	0.223552	-0.00226951	141964	1260.93	1	12	0.00471779	0.000184059	0	6.81529e-05	0.0388401	0.00367684	0.0390138	5.40784	1.26093e+06	1.33198e+07	1.33794e+07	-84.5922	0.0000000E+000	0.0000000E+000	0.0000000E+000	84.5922	0.0000000E+000	0.0000000E+000	0.0000000E+000	-84.5922	0.0000000E+000	0.0000000E+000	0.0000000E+000	-5.40784	0.0000000E+000	0.0000000E+000	0.0000000E+000	5.40784	10.5635	84.5922	-1.63906e-06	-5.07352e-07	98502.3
0.316193	26.0061	2.60826	26.1366	-5.72727	37.2403	0.223558	-0.00221443	192982	1921.85	1	12	0.00471545	0.000180415	0	7.68084e-05	0.0380696	0.00381815	0.0382605	5.72727	1.92185e+06	1.91622e+07	1.92583e+07	-84.2727	0.0000000E+000	0.0000000E+000	0.0000000E+000	84.2727	0.0000000E+000	0.0000000E+000	0.0000000E+000	-84.2727	0.0000000E+000	0.0000000E+000	0.0000000E+000	-5.72727	0.0000000E+000	0.0000000E+000	0.0000000E+000	5.72727	9.97069	84.2727	8.65544e-06	-4.95054e-07	100955
0.215268	26.5685	2.85248	26.7212	-6.12798	47.0381	0.223551	-0.00206858	259191	2953.6	1	12	0.00471772	0.000176554	0	9.51229e-05	0.0372097	0.00399495	0.0374235	6.12798	2.9536e+06	2.75104e+07	2.76685e+07	-83.872	0.0000000E+000	0.0000000E+000	0.0000000E+000	83.872	0.0000000E+000	0.0000000E+000	0.0000000E+000	-83.872	0.0000000E+000	0.0000000E+000	0.0000000E+000	-6.12798	0.0000000E+000	0.0000000E+000	0.0000000E+000	6.12798	9.31419	83.872	1.83145e-05	-4.62435e-07	108070
0.146929	27.2019	3.18696	27.3879	-6.6823	61.3748	0.223561	-0.0010052	339888	4602.28	1	12	0.00471358	0.000172104	0	0.000116339	0.0362644	0.00424873	0.0365125	6.6823	4.60227e+06	3.9282e+07	3.95507e+07	-83.3177	0.0000000E+000	0.0000000E+000	0.0000000E+000	83.3177	0.0000000E+000	0.0000000E+000	0.0000000E+000	-83.3177	0.0000000E+000	0.0000000E+000	0.0000000E+000	-6.6823	0.0000000E+000	0.0000000E+000	0.0000000E+000	6.6823	8.53535	83.3177	2.12158e-05	-2.24725e-07	222404
0.0999041	27.9423	3.67274	28.1827	-7.48803	82.4437	0.223553	-0.000106639	433757	7366.52	1	12	0.00471507	0.000167304	0	0.000124475	0.0351802	0.00462408	0.0354828	7.48803	7.36651e+06	5.60448e+07	5.65268e+07	-82.512	0.0000000E+000	0.0000000E+000	0.0000000E+000	82.512	0.0000000E+000	0.0000000E+000	0.0000000E+000	-82.512	0.0000000E+000	0.0000000E+000	0.0000000E+000	-7.48803	0.0000000E+000	0.0000000E+000	0.0000000E+000	7.48803	7.60804	82.512	8.13674e-06	-2.38395e-08	2.09635e+06
0.0680626	28.7023	4.30002	29.0226	-8.52037	113.356	0.223555	0.000699034	543802	11937.4	1	12	0.00471724	0.000162536	0	0.000106015	0.0340756	0.00510501	0.0344559	8.52037	1.19374e+07	7.9681e+07	8.05702e+07	-81.4796	0.0000000E+000	0.0000000E+000	0.0000000E+000	81.4796	0.0000000E+000	0.0000000E+000	0.0000000E+000	-81.4796	0.0000000E+000	0.0000000E+000	0.0000000E+000	-8.52037	0.0000000E+000	0.0000000E+000	0.0000000E+000	8.52037	6.67492	81.4796	-1.84601e-05	1.56273e-07	319806
0.0464052	29.3999	5.04358	29.8294	-9.73438	158.679	0.223557	0.000665698	680009	19440.3	1	12	0.00471624	0.000158107	0	3.11894e-05	0.0330413	0.00566826	0.033524	9.73438	1.94403e+07	1.13321e+08	1.14976e+08	-80.2656	0.0000000E+000	0.0000000E+000	0.0000000E+000	80.2656	0.0000000E+000	0.0000000E+000	0.0000000E+000	-80.2656	0.0000000E+000	0.0000000E+000	0.0000000E+000	-9.73438	0.0000000E+000	0.0000000E+000	0.0000000E+000	9.73438	5.82918	80.2656	-7.48259e-05	1.48822e-07	335824
0.0315922	30.2379	6.02271	30.8318	-11.2646	225.241	0.223564	0.000102114	836466	31917.8	1	12	0.00471373	0.000152885	0	-0.000100716	0.0318092	0.00633568	0.032434	11.2646	3.19178e+07	1.60248e+08	1.63396e+08	-78.7354	0.0000000E+000	0.0000000E+000	0.0000000E+000	78.7354	0.0000000E+000	0.0000000E+000	0.0000000E+000	-78.7354	0.0000000E+000	0.0000000E+000	0.0000000E+000	-11.2646	0.0000000E+000	0.0000000E+000	0.0000000E+000	11.2646	5.02064	78.7354	-0.000131906	2.28291e-08	2.18935e+06
0.0215268	31.2956	7.56206	32.1963	-13.5842	322.91	0.223554	-0.000995569	977690	53934.8	1	12	0.00471455	0.000146431	0	-0.000252325	0.0301906	0.00729505	0.0310595	13.5842	5.39348e+07	2.2321e+08	2.29633e+08	-76.4158	0.0000000E+000	0.0000000E+000	0.0000000E+000	76.4158	0.0000000E+000	0.0000000E+000	0.0000000E+000	-76.4158	0.0000000E+000	0.0000000E+000	0.0000000E+000	-13.5842	0.0000000E+000	0.0000000E+000	0.0000000E+000	13.5842	4.13851	76.4158	-0.000151609	-2.22564e-07	224549
0.0146812	32.5002	9.90861	33.9771	-16.9553	466.106	0.223555	-0.00131092	1.09407e+06	93046.1	1	12	0.00471753	0.000138844	0	-0.00031889	0.0281522	0.008583	0.0294316	16.9553	9.30461e+07	3.05191e+08	3.1906e+08	-73.0447	0.0000000E+000	0.0000000E+000	0.0000000E+000	73.0447	0.0000000E+000	0.0000000E+000	0.0000000E+000	-73.0447	0.0000000E+000	0.0000000E+000	0.0000000E+000	-16.9553	0.0000000E+000	0.0000000E+000	0.0000000E+000	16.9553	3.28	73.0447	-6.65651e-05	-2.93063e-07	170532
0.0100092	33.7761	12.8658	36.1435	-20.8525	676.127	0.223566	-0.000926246	1.23591e+06	156602	1	12	0.00471366	0.000130415	0	-0.0001546	0.0258553	0.00984864	0.0276675	20.8525	1.56602e+08	4.11123e+08	4.39939e+08	-69.1475	0.0000000E+000	0.0000000E+000	0.0000000E+000	69.1475	0.0000000E+000	0.0000000E+000	0.0000000E+000	-69.1475	0.0000000E+000	0.0000000E+000	0.0000000E+000	-20.8525	0.0000000E+000	0.0000000E+000	0.0000000E+000	20.8525	2.62526	69.1475	0.00016429	-2.07077e-07	241368