File: txt/17417_R282_UA652_SOC00_C02.mpt
EC-Lab ASCII FILE
Nb header lines : 63

Potentio Electrochemical Impedance Spectroscopy

Run on channel : 2 (SN 66139)
User :
CE vs. WE compliance from -10 V to 10 V
Electrode connection : standard
Potential control : Ewe
Ewe ctrl range : min = -10.00 V, max = 10.00 V
Safety Limits :
	Do not start on E overload
Acquisition started on : 09/08/2025 17:23:55.952
Loaded Setting File :  C:\Users\Celltest\OneDrive - store-dot.com\Documents\EC-Lab\Data\Gyutae\R270\17153_C01.mpr
Saved on :
	File : 17417_C02.mpr
	Directory : C:\Users\Celltest\OneDrive - store-dot.com\Documents\EC-Lab\Data\Gyutae\R282\
	Host : 169.254.61.224
Device : VMP-3e (SN .003165)
Address : USB
EC-LAB for windows v11.62 (software)
Internet server v27.00 (firmware)
Command interpretor v12.03 (firmware)
Electrode material :
Initial state :
Electrolyte :
Comments :
Electrode surface area : 0.001 cm²
Characteristic mass : 0.001 g
Equivalent Weight : 0.000 g/eq.
Density : 0.000 g/cm3
Volume (V) : 0.001 cm³
Cycle Definition : Charge/Discharge alternance
Mode                Single sine
E (V)               0.0000
vs.                 Eoc
tE (h:m:s)          0:00:0.0000
record              0
dI                  0.000
unit dI             mA
dt (s)              0.000
fi                  100.000
unit fi             kHz
ff                  10.000
unit ff             mHz
Nd                  6
Points              per decade
spacing             Logarithmic
Va (mV)             5.0
pw                  0.10
Na                  2
corr                0
E range min (V)     -10.000
E range max (V)     10.000
I Range             Auto
Bandwidth           5
nc cycles           0
goto Ns'            0
nr cycles           0
inc. cycle          0

freq/Hz	Re(Z)/Ohm	-Im(Z)/Ohm	|Z|/Ohm	Phase(Z)/deg	time/s	<Ewe>/V	<I>/mA	Cs/µF	Cp/µF	cycle number	I Range	|Ewe|/V	|I|/A	Ns	(Q-Qo)/mA.h	Re(Y)/Ohm-1	Im(Y)/Ohm-1	|Y|/Ohm-1	Phase(Y)/deg	Re(C)/nF	Im(C)/nF	|C|/nF	Phase(C)/deg	Re(M)	Im(M)	|M|	Phase(M)/deg	Re(Permittivity)	Im(Permittivity)	|Permittivity|	Phase(Permittivity)/deg	Re(Resistivity)/Ohm.cm	Im(Resistivity)/Ohm.cm	|Resistivity|/Ohm.cm	Phase(Resistivity)/deg	Re(Conductivity)/mS/cm	Im(Conductivity)/mS/cm	|Conductivity|/mS/cm	Phase(Conductivity)/deg	Tan(Delta)	Loss Angle(Delta)/deg	dq/mA.h	Pwe/W	Rwe/Ohm
100004	1.2334	0.217462	1.25243	-9.99906	2.02549	0.274066	-0.000966089	7.31849	0.220638	1	9	0.00483077	0.00385712	0	-1.42761e-05	0.786321	0.138636	0.798449	9.99906	220.638	1251.42	1270.72	-80.0009	0.0000000E+000	0.0000000E+000	0.0000000E+000	80.0009	0.0000000E+000	0.0000000E+000	0.0000000E+000	-80.0009	0.0000000E+000	0.0000000E+000	0.0000000E+000	-9.99906	0.0000000E+000	0.0000000E+000	0.0000000E+000	9.99906	5.67183	80.0009	-1.42761e-05	-2.64772e-07	283686
68132	1.28929	0.259079	1.31506	-11.3621	2.46348	0.274061	-0.00245591	9.01646	0.349953	1	9	0.00548745	0.00417278	0	-1.16512e-05	0.745518	0.14981	0.760422	11.3621	349.953	1741.51	1776.33	-78.6379	0.0000000E+000	0.0000000E+000	0.0000000E+000	78.6379	0.0000000E+000	0.0000000E+000	0.0000000E+000	-78.6379	0.0000000E+000	0.0000000E+000	0.0000000E+000	-11.3621	0.0000000E+000	0.0000000E+000	0.0000000E+000	11.3621	4.97642	78.6379	2.6249e-06	-6.7307e-07	111593
46420.4	1.34858	0.301086	1.38178	-12.5855	3.04148	0.274049	-0.00199035	11.3873	0.540659	1	9	0.00510768	0.00369645	0	-1.0411e-05	0.706315	0.157693	0.723704	12.5855	540.659	2421.64	2481.26	-77.4145	0.0000000E+000	0.0000000E+000	0.0000000E+000	77.4145	0.0000000E+000	0.0000000E+000	0.0000000E+000	-77.4145	0.0000000E+000	0.0000000E+000	0.0000000E+000	-12.5855	0.0000000E+000	0.0000000E+000	0.0000000E+000	12.5855	4.47905	77.4145	1.24018e-06	-5.45453e-07	137689
31621.1	1.41857	0.345109	1.45995	-13.6732	3.47848	0.274049	-0.00156202	14.5843	0.814938	1	9	0.00546839	0.00374561	0	-4.8634e-06	0.665545	0.161913	0.684956	13.6732	814.938	3349.81	3447.51	-76.3268	0.0000000E+000	0.0000000E+000	0.0000000E+000	76.3268	0.0000000E+000	0.0000000E+000	0.0000000E+000	-76.3268	0.0000000E+000	0.0000000E+000	0.0000000E+000	-13.6732	0.0000000E+000	0.0000000E+000	0.0000000E+000	13.6732	4.11051	76.3268	5.54758e-06	-4.28071e-07	175445
21544.7	1.49962	0.392023	1.55001	-14.6501	4.05649	0.274046	0.00136178	18.8438	1.20537	1	9	0.00508183	0.00327858	0	-6.44106e-06	0.624182	0.163171	0.645157	14.6501	1205.37	4610.96	4765.9	-75.3499	0.0000000E+000	0.0000000E+000	0.0000000E+000	75.3499	0.0000000E+000	0.0000000E+000	0.0000000E+000	-75.3499	0.0000000E+000	0.0000000E+000	0.0000000E+000	-14.6501	0.0000000E+000	0.0000000E+000	0.0000000E+000	14.6501	3.82533	75.3499	-1.57766e-06	3.7319e-07	201241
14678.6	1.58839	0.450336	1.651	-15.8289	4.49448	0.274047	0.000933451	24.0768	1.79135	1	9	0.00546115	0.00330779	0	-2.12899e-06	0.582727	0.165213	0.605695	15.8289	1791.35	6318.31	6567.34	-74.1711	0.0000000E+000	0.0000000E+000	0.0000000E+000	74.1711	0.0000000E+000	0.0000000E+000	0.0000000E+000	-74.1711	0.0000000E+000	0.0000000E+000	0.0000000E+000	-15.8289	0.0000000E+000	0.0000000E+000	0.0000000E+000	15.8289	3.52712	74.1711	4.31206e-06	2.55809e-07	293585
10002.2	1.69708	0.513707	1.77312	-16.8411	5.07248	0.274037	-0.00321947	30.9748	2.59992	1	9	0.00507321	0.00286117	0	-7.26463e-06	0.539788	0.163394	0.563976	16.8411	2599.92	8589.09	8973.96	-73.1589	0.0000000E+000	0.0000000E+000	0.0000000E+000	73.1589	0.0000000E+000	0.0000000E+000	0.0000000E+000	-73.1589	0.0000000E+000	0.0000000E+000	0.0000000E+000	-16.8411	0.0000000E+000	0.0000000E+000	0.0000000E+000	16.8411	3.30359	73.1589	-5.13564e-06	-8.82253e-07	85118.6
6811.07	1.81239	0.584208	1.90422	-17.8663	5.62751	0.274037	-0.00699993	39.9979	3.76478	1	9	0.00537375	0.00282202	0	-3.52826e-06	0.499825	0.161115	0.52515	17.8663	3764.78	11679.5	12271.2	-72.1337	0.0000000E+000	0.0000000E+000	0.0000000E+000	72.1337	0.0000000E+000	0.0000000E+000	0.0000000E+000	-72.1337	0.0000000E+000	0.0000000E+000	0.0000000E+000	-17.8663	0.0000000E+000	0.0000000E+000	0.0000000E+000	17.8663	3.10229	72.1337	3.73637e-06	-1.91824e-06	39148.6
4641.49	1.95236	0.672184	2.06483	-18.9982	6.32171	0.274043	-0.00502591	51.0123	5.40606	1	9	0.00532077	0.00257685	0	-9.00608e-06	0.45792	0.157659	0.484301	18.9982	5406.06	15701.9	16606.5	-71.0018	0.0000000E+000	0.0000000E+000	0.0000000E+000	71.0018	0.0000000E+000	0.0000000E+000	0.0000000E+000	-71.0018	0.0000000E+000	0.0000000E+000	0.0000000E+000	-18.9982	0.0000000E+000	0.0000000E+000	0.0000000E+000	18.9982	2.9045	71.0018	-5.47782e-06	-1.37731e-06	54526.1
3161.01	2.1126	0.773439	2.24973	-20.108	7.0117	0.274044	-0.0011151	65.0981	7.69409	1	9	0.00519346	0.00230848	0	-7.18711e-06	0.417403	0.152814	0.444497	20.108	7694.09	21016	22380.1	-69.892	0.0000000E+000	0.0000000E+000	0.0000000E+000	69.892	0.0000000E+000	0.0000000E+000	0.0000000E+000	-69.892	0.0000000E+000	0.0000000E+000	0.0000000E+000	-20.108	0.0000000E+000	0.0000000E+000	0.0000000E+000	20.108	2.73144	69.892	1.81897e-06	-3.05585e-07	245758
2155.69	2.28421	0.879617	2.44772	-21.061	7.70169	0.274041	0.00151072	83.9344	10.8394	1	9	0.00505772	0.0020663	0	-8.49716e-06	0.381252	0.146815	0.408544	21.061	10839.4	28147.9	30162.9	-68.939	0.0000000E+000	0.0000000E+000	0.0000000E+000	68.939	0.0000000E+000	0.0000000E+000	0.0000000E+000	-68.939	0.0000000E+000	0.0000000E+000	0.0000000E+000	-21.061	0.0000000E+000	0.0000000E+000	0.0000000E+000	21.061	2.59682	68.939	-1.31005e-06	4.14e-07	181397
1468.59	2.50562	1.00147	2.69835	-21.786	8.16893	0.27404	-0.00316364	108.214	14.906	1	9	0.00509395	0.0018878	0	-1.00039e-05	0.344128	0.137544	0.370597	21.786	14906	37294	40162.6	-68.214	0.0000000E+000	0.0000000E+000	0.0000000E+000	68.214	0.0000000E+000	0.0000000E+000	0.0000000E+000	-68.214	0.0000000E+000	0.0000000E+000	0.0000000E+000	-21.786	0.0000000E+000	0.0000000E+000	0.0000000E+000	21.786	2.50195	68.214	-1.50674e-06	-8.66963e-07	86621.6
1000.32	2.72856	1.14806	2.96025	-22.8192	8.63771	0.274041	-0.00258633	138.585	20.8444	1	9	0.00503259	0.00170006	0	-1.00588e-05	0.31137	0.131011	0.33781	22.8192	20844.4	49540.2	53746.9	-67.1808	0.0000000E+000	0.0000000E+000	0.0000000E+000	67.1808	0.0000000E+000	0.0000000E+000	0.0000000E+000	-67.1808	0.0000000E+000	0.0000000E+000	0.0000000E+000	-22.8192	0.0000000E+000	0.0000000E+000	0.0000000E+000	22.8192	2.37667	67.1808	-5.48986e-08	-7.0876e-07	105957
681.09	2.99412	1.30334	3.26549	-23.5236	9.35744	0.274041	-0.0261806	179.29	28.5613	1	10	0.0050117	0.00153475	0	-1.46141e-05	0.280783	0.122226	0.306233	23.5236	28561.3	65612.6	71559.5	-66.4764	0.0000000E+000	0.0000000E+000	0.0000000E+000	66.4764	0.0000000E+000	0.0000000E+000	0.0000000E+000	-66.4764	0.0000000E+000	0.0000000E+000	0.0000000E+000	-23.5236	0.0000000E+000	0.0000000E+000	0.0000000E+000	23.5236	2.29726	66.4764	-4.55534e-06	-7.17456e-06	10467.4
463.961	3.29507	1.4981	3.61964	-24.4488	9.82621	0.274047	-0.0258695	228.98	39.2237	1	10	0.00494515	0.0013662	0	-1.74056e-05	0.251498	0.114343	0.276271	24.4488	39223.7	86272.6	94770.6	-65.5512	0.0000000E+000	0.0000000E+000	0.0000000E+000	65.5512	0.0000000E+000	0.0000000E+000	0.0000000E+000	-65.5512	0.0000000E+000	0.0000000E+000	0.0000000E+000	-24.4488	0.0000000E+000	0.0000000E+000	0.0000000E+000	24.4488	2.1995	65.5512	-2.79151e-06	-7.08947e-06	10593.4
316.316	3.64174	1.73199	4.03263	-25.4355	10.2929	0.274043	-0.0260521	290.505	53.5881	1	10	0.00489154	0.00121299	0	-1.98618e-05	0.223941	0.106505	0.247977	25.4355	53588.1	112676	124770	-64.5645	0.0000000E+000	0.0000000E+000	0.0000000E+000	64.5645	0.0000000E+000	0.0000000E+000	0.0000000E+000	-64.5645	0.0000000E+000	0.0000000E+000	0.0000000E+000	-25.4355	0.0000000E+000	0.0000000E+000	0.0000000E+000	25.4355	2.10263	64.5645	-2.4562e-06	-7.1394e-06	10519.1
215.345	4.05539	2.00979	4.52609	-26.3624	10.7604	0.274044	-0.0258546	367.735	72.509	1	10	0.00485088	0.00107176	0	-2.29865e-05	0.197964	0.0981083	0.220941	26.3624	72509	146310	163291	-63.6376	0.0000000E+000	0.0000000E+000	0.0000000E+000	63.6376	0.0000000E+000	0.0000000E+000	0.0000000E+000	-63.6376	0.0000000E+000	0.0000000E+000	0.0000000E+000	-26.3624	0.0000000E+000	0.0000000E+000	0.0000000E+000	26.3624	2.01781	63.6376	-3.12466e-06	-7.08531e-06	10599.4
146.737	4.5711	2.32402	5.12796	-26.9495	11.2234	0.274046	-0.0253294	466.703	95.858	1	10	0.00483257	0.000942395	0	-2.65111e-05	0.173832	0.088379	0.195009	26.9495	95858	188543	211512	-63.0505	0.0000000E+000	0.0000000E+000	0.0000000E+000	63.0505	0.0000000E+000	0.0000000E+000	0.0000000E+000	-63.0505	0.0000000E+000	0.0000000E+000	0.0000000E+000	-26.9495	0.0000000E+000	0.0000000E+000	0.0000000E+000	26.9495	1.9669	63.0505	-3.52459e-06	-6.94141e-06	10819.3
100.032	5.19509	2.64319	5.82885	-26.9663	11.6917	0.27405	-0.0246849	601.94	123.778	1	10	0.00481149	0.000825462	0	-3.021e-05	0.152907	0.077797	0.171561	26.9663	123778	243282	272960	-63.0337	0.0000000E+000	0.0000000E+000	0.0000000E+000	63.0337	0.0000000E+000	0.0000000E+000	0.0000000E+000	-63.0337	0.0000000E+000	0.0000000E+000	0.0000000E+000	-26.9663	0.0000000E+000	0.0000000E+000	0.0000000E+000	26.9663	1.96547	63.0337	-3.6989e-06	-6.76491e-06	11101.9
68.104	5.95914	2.92977	6.6404	-26.1808	12.1704	0.274056	-0.0239715	797.652	155.272	1	10	0.00480247	0.000723221	0	-3.37524e-05	0.135144	0.0664425	0.150593	26.1808	155272	315822	351928	-63.8192	0.0000000E+000	0.0000000E+000	0.0000000E+000	63.8192	0.0000000E+000	0.0000000E+000	0.0000000E+000	-63.8192	0.0000000E+000	0.0000000E+000	0.0000000E+000	-26.1808	0.0000000E+000	0.0000000E+000	0.0000000E+000	26.1808	2.03399	63.8192	-3.54242e-06	-6.56955e-06	11432.6
46.4415	6.84512	3.14027	7.53107	-24.6438	12.6256	0.274044	-0.0259329	1091.31	189.744	1	10	0.00479773	0.000637059	0	-3.74545e-05	0.120689	0.0553674	0.132783	24.6438	189744	413601	455048	-65.3562	0.0000000E+000	0.0000000E+000	0.0000000E+000	65.3562	0.0000000E+000	0.0000000E+000	0.0000000E+000	-65.3562	0.0000000E+000	0.0000000E+000	0.0000000E+000	-24.6438	0.0000000E+000	0.0000000E+000	0.0000000E+000	24.6438	2.17979	65.3562	-3.70205e-06	-7.10674e-06	10567.4
31.6296	7.77747	3.19379	8.4077	-22.3253	13.0724	0.274036	-0.026527	1575.51	227.342	1	10	0.00479474	0.00057028	0	-4.03473e-05	0.110023	0.0451807	0.118939	22.3253	227342	553620	598481	-67.6747	0.0000000E+000	0.0000000E+000	0.0000000E+000	67.6747	0.0000000E+000	0.0000000E+000	0.0000000E+000	-67.6747	0.0000000E+000	0.0000000E+000	0.0000000E+000	-22.3253	0.0000000E+000	0.0000000E+000	0.0000000E+000	22.3253	2.43518	67.6747	-2.89288e-06	-7.26937e-06	10330.5
21.5517	8.71288	3.11535	9.25309	-19.6749	13.5113	0.274035	-0.0270746	2370.45	268.703	1	10	0.0047954	0.000518248	0	-4.48339e-05	0.101763	0.0363859	0.108072	19.6749	268703	751495	798089	-70.3251	0.0000000E+000	0.0000000E+000	0.0000000E+000	70.3251	0.0000000E+000	0.0000000E+000	0.0000000E+000	-70.3251	0.0000000E+000	0.0000000E+000	0.0000000E+000	-19.6749	0.0000000E+000	0.0000000E+000	0.0000000E+000	19.6749	2.79675	70.3251	-4.48653e-06	-7.41941e-06	10121.5
14.6852	9.51373	2.91899	9.95146	-17.057	13.99	0.274047	-0.0239119	3712.87	319.448	1	10	0.00478552	0.000480886	0	-4.83705e-05	0.0960677	0.0294753	0.100488	17.057	319448	1.04116e+06	1.08907e+06	-72.943	0.0000000E+000	0.0000000E+000	0.0000000E+000	72.943	0.0000000E+000	0.0000000E+000	0.0000000E+000	-72.943	0.0000000E+000	0.0000000E+000	0.0000000E+000	-17.057	0.0000000E+000	0.0000000E+000	0.0000000E+000	17.057	3.25926	72.943	-3.53662e-06	-6.553e-06	11460.7
10.0032	10.2677	2.70081	10.617	-14.7372	14.4587	0.274045	-0.0241839	5890.97	381.217	1	10	0.00479011	0.000451173	0	-5.14209e-05	0.0910901	0.0239602	0.0941886	14.7372	381217	1.44928e+06	1.49858e+06	-75.2628	0.0000000E+000	0.0000000E+000	0.0000000E+000	75.2628	0.0000000E+000	0.0000000E+000	0.0000000E+000	-75.2628	0.0000000E+000	0.0000000E+000	0.0000000E+000	-14.7372	0.0000000E+000	0.0000000E+000	0.0000000E+000	14.7372	3.80172	75.2628	-3.05045e-06	-6.62746e-06	11331.7
6.81719	10.9218	2.45031	11.1933	-12.645	15.0214	0.274047	-0.0236761	9527.83	456.584	1	11	0.00478755	0.000427717	0	-5.57247e-05	0.0871724	0.0195572	0.0893393	12.645	456584	2.03514e+06	2.08573e+06	-77.355	0.0000000E+000	0.0000000E+000	0.0000000E+000	77.355	0.0000000E+000	0.0000000E+000	0.0000000E+000	-77.355	0.0000000E+000	0.0000000E+000	0.0000000E+000	-12.645	0.0000000E+000	0.0000000E+000	0.0000000E+000	12.645	4.45731	77.355	-4.30372e-06	-6.48835e-06	11574.9
4.63925	11.5031	2.18342	11.7085	-10.7476	15.5243	0.274054	-0.0222874	15712.1	546.398	1	11	0.00479007	0.000409111	0	-6.25397e-05	0.08391	0.0159271	0.0854082	10.7476	546398	2.87863e+06	2.93003e+06	-79.2524	0.0000000E+000	0.0000000E+000	0.0000000E+000	79.2524	0.0000000E+000	0.0000000E+000	0.0000000E+000	-79.2524	0.0000000E+000	0.0000000E+000	0.0000000E+000	-10.7476	0.0000000E+000	0.0000000E+000	0.0000000E+000	10.7476	5.26838	79.2524	-6.81506e-06	-6.10793e-06	12296.4
3.1604	11.986	1.9781	12.1482	-9.37124	16.2332	0.274054	-0.0223211	25458.4	675	1	11	0.00478992	0.000394292	0	-6.06085e-05	0.0812183	0.0134037	0.0823169	9.37124	675000	4.09009e+06	4.14541e+06	-80.6288	0.0000000E+000	0.0000000E+000	0.0000000E+000	80.6288	0.0000000E+000	0.0000000E+000	0.0000000E+000	-80.6288	0.0000000E+000	0.0000000E+000	0.0000000E+000	-9.37124	0.0000000E+000	0.0000000E+000	0.0000000E+000	9.37124	6.05938	80.6288	1.93117e-06	-6.11718e-06	12277.8
2.15577	12.4192	1.75153	12.5421	-8.0277	17.2498	0.274062	-0.0205544	42150.3	822.041	1	11	0.00479105	0.000381997	0	-6.17197e-05	0.07895	0.0111346	0.0797313	8.0277	822041	5.82868e+06	5.88636e+06	-81.9723	0.0000000E+000	0.0000000E+000	0.0000000E+000	81.9723	0.0000000E+000	0.0000000E+000	0.0000000E+000	-81.9723	0.0000000E+000	0.0000000E+000	0.0000000E+000	-8.0277	0.0000000E+000	0.0000000E+000	0.0000000E+000	8.0277	7.0905	81.9723	-1.11116e-06	-5.6332e-06	13333.5
1.46631	12.7917	1.57877	12.8888	-7.03595	18.7231	0.274068	-0.0189973	68750.3	1031.55	1	11	0.00479184	0.000371784	0	-7.43831e-05	0.0770026	0.00950378	0.0775869	7.03595	1.03155e+06	8.35795e+06	8.42137e+06	-82.9641	0.0000000E+000	0.0000000E+000	0.0000000E+000	82.9641	0.0000000E+000	0.0000000E+000	0.0000000E+000	-82.9641	0.0000000E+000	0.0000000E+000	0.0000000E+000	-7.03595	0.0000000E+000	0.0000000E+000	0.0000000E+000	7.03595	8.10231	82.9641	-1.26634e-05	-5.20656e-06	14426.6
1.00006	13.107	1.41517	13.1832	-6.16239	20.8632	0.274068	-0.0182174	112456	1295.87	1	11	0.00479274	0.00036355	0	-9.81409e-05	0.075416	0.00814271	0.0758543	6.16239	1.29587e+06	1.20021e+07	1.20718e+07	-83.8376	0.0000000E+000	0.0000000E+000	0.0000000E+000	83.8376	0.0000000E+000	0.0000000E+000	0.0000000E+000	-83.8376	0.0000000E+000	0.0000000E+000	0.0000000E+000	-6.16239	0.0000000E+000	0.0000000E+000	0.0000000E+000	6.16239	9.26177	83.8376	-2.37578e-05	-4.99281e-06	15044.3
0.681362	13.3913	1.3145	13.4556	-5.60627	23.9831	0.274071	-0.0178597	177697	1695.88	1	11	0.00479214	0.000356144	0	-0.000127266	0.0739628	0.00726028	0.0743183	5.60627	1.69588e+06	1.72765e+07	1.73595e+07	-84.3937	0.0000000E+000	0.0000000E+000	0.0000000E+000	84.3937	0.0000000E+000	0.0000000E+000	0.0000000E+000	-84.3937	0.0000000E+000	0.0000000E+000	0.0000000E+000	-5.60627	0.0000000E+000	0.0000000E+000	0.0000000E+000	5.60627	10.1873	84.3937	-2.91249e-05	-4.89483e-06	15345.7
0.464091	13.6566	1.27083	13.7156	-5.31641	28.5479	0.27407	-0.0184663	269855	2316.73	1	11	0.00479338	0.000349485	0	-0.000153653	0.0725962	0.00675552	0.0729099	5.31641	2.31674e+06	2.48961e+07	2.50037e+07	-84.6836	0.0000000E+000	0.0000000E+000	0.0000000E+000	84.6836	0.0000000E+000	0.0000000E+000	0.0000000E+000	-84.6836	0.0000000E+000	0.0000000E+000	0.0000000E+000	-5.31641	0.0000000E+000	0.0000000E+000	0.0000000E+000	5.31641	10.7462	84.6836	-2.63871e-05	-5.06107e-06	14841.6
0.316193	13.8809	1.30147	13.9418	-5.35639	35.2302	0.274064	-0.0186083	386752	3370.28	1	11	0.00479325	0.000343805	0	-0.000169174	0.0714137	0.00669574	0.0717269	5.35639	3.37028e+06	3.59459e+07	3.61035e+07	-84.6436	0.0000000E+000	0.0000000E+000	0.0000000E+000	84.6436	0.0000000E+000	0.0000000E+000	0.0000000E+000	-84.6436	0.0000000E+000	0.0000000E+000	0.0000000E+000	-5.35639	0.0000000E+000	0.0000000E+000	0.0000000E+000	5.35639	10.6655	84.6436	-1.55215e-05	-5.09988e-06	14728.1
0.215268	14.1062	1.38895	14.1744	-5.62345	45.028	0.274059	-0.0175738	532297	5111.17	1	11	0.00479268	0.000338123	0	-0.000173296	0.0702104	0.0069132	0.0705499	5.62345	5.11117e+06	5.19089e+07	5.216e+07	-84.3765	0.0000000E+000	0.0000000E+000	0.0000000E+000	84.3765	0.0000000E+000	0.0000000E+000	0.0000000E+000	-84.3765	0.0000000E+000	0.0000000E+000	0.0000000E+000	-5.62345	0.0000000E+000	0.0000000E+000	0.0000000E+000	5.62345	10.156	84.3765	-4.12118e-06	-4.81627e-06	15594.7
0.146929	14.377	1.55516	14.4609	-6.17367	59.3647	0.274062	-0.0151998	696526	8055.61	1	11	0.00479526	0.000331601	0	-0.000177766	0.0687509	0.00743678	0.069152	6.17367	8.05561e+06	7.44718e+07	7.49062e+07	-83.8263	0.0000000E+000	0.0000000E+000	0.0000000E+000	83.8263	0.0000000E+000	0.0000000E+000	0.0000000E+000	-83.8263	0.0000000E+000	0.0000000E+000	0.0000000E+000	-6.17367	0.0000000E+000	0.0000000E+000	0.0000000E+000	6.17367	9.24472	83.8263	-4.47051e-06	-4.16569e-06	18030.6
0.0999041	14.72	1.85994	14.8371	-7.20141	80.4346	0.274063	-0.0125366	856521	13459.8	1	11	0.00479257	0.000323013	0	-0.00021363	0.0668671	0.00844895	0.0673988	7.20141	1.34598e+07	1.06525e+08	1.07372e+08	-82.7986	0.0000000E+000	0.0000000E+000	0.0000000E+000	82.7986	0.0000000E+000	0.0000000E+000	0.0000000E+000	-82.7986	0.0000000E+000	0.0000000E+000	0.0000000E+000	-7.20141	0.0000000E+000	0.0000000E+000	0.0000000E+000	7.20141	7.91425	82.7986	-3.58636e-05	-3.43581e-06	21861.1
0.0680626	15.12	2.30442	15.2946	-8.6657	111.347	0.274055	-0.0109705	1.01473e+06	23035.5	1	11	0.00479522	0.000313524	0	-0.000325076	0.0646362	0.00985113	0.0653826	8.6657	2.30355e+07	1.51143e+08	1.52888e+08	-81.3343	0.0000000E+000	0.0000000E+000	0.0000000E+000	81.3343	0.0000000E+000	0.0000000E+000	0.0000000E+000	-81.3343	0.0000000E+000	0.0000000E+000	0.0000000E+000	-8.6657	0.0000000E+000	0.0000000E+000	0.0000000E+000	8.6657	6.5613	81.3343	-0.000111446	-3.00653e-06	24981
0.0464052	15.546	2.881	15.8107	-10.499	156.67	0.274053	-0.0106799	1.19045e+06	39526.9	1	11	0.00479377	0.000303197	0	-0.000595289	0.0621893	0.011525	0.0632482	10.499	3.95269e+07	2.13289e+08	2.16921e+08	-79.501	0.0000000E+000	0.0000000E+000	0.0000000E+000	79.501	0.0000000E+000	0.0000000E+000	0.0000000E+000	-79.501	0.0000000E+000	0.0000000E+000	0.0000000E+000	-10.499	0.0000000E+000	0.0000000E+000	0.0000000E+000	10.499	5.39606	79.501	-0.000270213	-2.92687e-06	25660.6
0.0315922	16.149	3.61358	16.5484	-12.613	254.968	0.274051	-0.011997	1.39413e+06	66476.5	1	12	0.00479266	0.000289615	0	-0.00117992	0.0589706	0.0131956	0.0604289	12.613	6.64764e+07	2.97082e+08	3.04428e+08	-77.387	0.0000000E+000	0.0000000E+000	0.0000000E+000	77.387	0.0000000E+000	0.0000000E+000	0.0000000E+000	-77.387	0.0000000E+000	0.0000000E+000	0.0000000E+000	-12.613	0.0000000E+000	0.0000000E+000	0.0000000E+000	12.613	4.46897	77.387	-0.000584636	-3.28779e-06	22843.4
0.0215268	16.8822	4.57371	17.4908	-15.1587	352.636	0.27405	-0.0133466	1.61649e+06	110533	1	12	0.00479254	0.000274004	0	-0.00183322	0.0551837	0.0149504	0.057173	15.1587	1.10533e+08	4.07992e+08	4.227e+08	-74.8413	0.0000000E+000	0.0000000E+000	0.0000000E+000	74.8413	0.0000000E+000	0.0000000E+000	0.0000000E+000	-74.8413	0.0000000E+000	0.0000000E+000	0.0000000E+000	-15.1587	0.0000000E+000	0.0000000E+000	0.0000000E+000	15.1587	3.69113	74.8413	-0.000653294	-3.65763e-06	20533.4
0.0146812	17.7497	6.01754	18.742	-18.7278	495.832	0.274046	-0.0146102	1.80153e+06	185715	1	12	0.00479361	0.000255768	0	-0.00252425	0.0505311	0.0171312	0.0533561	18.7278	1.85715e+08	5.47796e+08	5.7842e+08	-71.2722	0.0000000E+000	0.0000000E+000	0.0000000E+000	71.2722	0.0000000E+000	0.0000000E+000	0.0000000E+000	-71.2722	0.0000000E+000	0.0000000E+000	0.0000000E+000	-18.7278	0.0000000E+000	0.0000000E+000	0.0000000E+000	18.7278	2.94966	71.2722	-0.000691034	-4.00387e-06	18757.2
0.0100092	18.6916	7.88587	20.287	-22.8746	705.852	0.274048	-0.0147752	2.01638e+06	304674	1	12	0.00479424	0.000236321	0	-0.00307001	0.0454162	0.0191608	0.0492926	22.8746	3.04674e+08	7.22158e+08	7.83798e+08	-67.1254	0.0000000E+000	0.0000000E+000	0.0000000E+000	67.1254	0.0000000E+000	0.0000000E+000	0.0000000E+000	-67.1254	0.0000000E+000	0.0000000E+000	0.0000000E+000	-22.8746	0.0000000E+000	0.0000000E+000	0.0000000E+000	22.8746	2.37026	67.1254	-0.000545759	-4.04913e-06	18547.8