File: txt/17419_R282_UA652_SOC00_C04.mpt
EC-Lab ASCII FILE
Nb header lines : 63

Potentio Electrochemical Impedance Spectroscopy

Run on channel : 4 (SN 66756)
User :
CE vs. WE compliance from -10 V to 10 V
Electrode connection : standard
Potential control : Ewe
Ewe ctrl range : min = -10.00 V, max = 10.00 V
Safety Limits :
	Do not start on E overload
Acquisition started on : 09/08/2025 17:24:12.772
Loaded Setting File :  C:\Users\Celltest\OneDrive - store-dot.com\Documents\EC-Lab\Data\Gyutae\R270\17155_C03.mpr
Saved on :
	File : 17419_C04.mpr
	Directory : C:\Users\Celltest\OneDrive - store-dot.com\Documents\EC-Lab\Data\Gyutae\R282\
	Host : 169.254.61.224
Device : VMP-3e (SN .003165)
Address : USB
EC-LAB for windows v11.62 (software)
Internet server v27.00 (firmware)
Command interpretor v12.03 (firmware)
Electrode material :
Initial state :
Electrolyte :
Comments :
Electrode surface area : 0.001 cm²
Characteristic mass : 0.001 g
Equivalent Weight : 0.000 g/eq.
Density : 0.000 g/cm3
Volume (V) : 0.001 cm³
Cycle Definition : Charge/Discharge alternance
Mode                Single sine
E (V)               0.0000
vs.                 Eoc
tE (h:m:s)          0:00:0.0000
record              0
dI                  0.000
unit dI             mA
dt (s)              0.000
fi                  100.000
unit fi             kHz
ff                  10.000
unit ff             mHz
Nd                  6
Points              per decade
spacing             Logarithmic
Va (mV)             5.0
pw                  0.10
Na                  2
corr                0
E range min (V)     -10.000
E range max (V)     10.000
I Range             Auto
Bandwidth           5
nc cycles           0
goto Ns'            0
nr cycles           0
inc. cycle          0

freq/Hz	Re(Z)/Ohm	-Im(Z)/Ohm	|Z|/Ohm	Phase(Z)/deg	time/s	<Ewe>/V	<I>/mA	Cs/µF	Cp/µF	cycle number	I Range	|Ewe|/V	|I|/A	Ns	(Q-Qo)/mA.h	Re(Y)/Ohm-1	Im(Y)/Ohm-1	|Y|/Ohm-1	Phase(Y)/deg	Re(C)/nF	Im(C)/nF	|C|/nF	Phase(C)/deg	Re(M)	Im(M)	|M|	Phase(M)/deg	Re(Permittivity)	Im(Permittivity)	|Permittivity|	Phase(Permittivity)/deg	Re(Resistivity)/Ohm.cm	Im(Resistivity)/Ohm.cm	|Resistivity|/Ohm.cm	Phase(Resistivity)/deg	Re(Conductivity)/mS/cm	Im(Conductivity)/mS/cm	|Conductivity|/mS/cm	Phase(Conductivity)/deg	Tan(Delta)	Loss Angle(Delta)/deg	dq/mA.h	Pwe/W	Rwe/Ohm
100004	1.80045	0.355093	1.83513	-11.157	1.8655	0.282482	-0.0918859	4.48189	0.167808	1	9	0.00459715	0.00250508	0	-2.89319e-05	0.534621	0.10544	0.54492	11.157	167.808	850.844	867.234	-78.843	0.0000000E+000	0.0000000E+000	0.0000000E+000	78.843	0.0000000E+000	0.0000000E+000	0.0000000E+000	-78.843	0.0000000E+000	0.0000000E+000	0.0000000E+000	-11.157	0.0000000E+000	0.0000000E+000	0.0000000E+000	11.157	5.07036	78.843	-2.89319e-05	-2.59561e-05	3074.27
68132	1.88437	0.402406	1.92685	-12.0544	2.4435	0.282513	-0.0946832	5.80503	0.253184	1	9	0.00507446	0.00263355	0	-4.10891e-05	0.507537	0.108384	0.518981	12.0544	253.183	1185.6	1212.33	-77.9456	0.0000000E+000	0.0000000E+000	0.0000000E+000	77.9456	0.0000000E+000	0.0000000E+000	0.0000000E+000	-77.9456	0.0000000E+000	0.0000000E+000	0.0000000E+000	-12.0544	0.0000000E+000	0.0000000E+000	0.0000000E+000	12.0544	4.68275	77.9456	-1.21572e-05	-2.67492e-05	2983.77
46420.4	1.9863	0.441728	2.03483	-12.5378	3.0215	0.28249	-0.0926691	7.7617	0.365773	1	9	0.00513777	0.00252492	0	-5.41662e-05	0.479723	0.106684	0.491442	12.5378	365.773	1644.76	1684.94	-77.4622	0.0000000E+000	0.0000000E+000	0.0000000E+000	77.4622	0.0000000E+000	0.0000000E+000	0.0000000E+000	-77.4622	0.0000000E+000	0.0000000E+000	0.0000000E+000	-12.5378	0.0000000E+000	0.0000000E+000	0.0000000E+000	12.5378	4.49666	77.4622	-1.30771e-05	-2.61781e-05	3048.38
31621.1	2.09303	0.519993	2.15666	-13.9521	3.59949	0.282491	-0.0893496	9.67934	0.562702	1	9	0.00505966	0.00234607	0	-7.10366e-05	0.450001	0.111798	0.463681	13.9521	562.701	2264.94	2333.79	-76.0479	0.0000000E+000	0.0000000E+000	0.0000000E+000	76.0479	0.0000000E+000	0.0000000E+000	0.0000000E+000	-76.0479	0.0000000E+000	0.0000000E+000	0.0000000E+000	-13.9521	0.0000000E+000	0.0000000E+000	0.0000000E+000	13.9521	4.02511	76.0479	-1.68704e-05	-2.52405e-05	3161.64
21544.7	2.21008	0.588354	2.28705	-14.9072	3.89549	0.282738	-0.0862167	12.5557	0.830932	1	9	0.00496233	0.00216975	0	-7.62838e-05	0.422528	0.112483	0.437244	14.9072	830.932	3121.3	3230.01	-75.0928	0.0000000E+000	0.0000000E+000	0.0000000E+000	75.0928	0.0000000E+000	0.0000000E+000	0.0000000E+000	-75.0928	0.0000000E+000	0.0000000E+000	0.0000000E+000	-14.9072	0.0000000E+000	0.0000000E+000	0.0000000E+000	14.9072	3.75638	75.0928	-5.24719e-06	-2.43767e-05	3279.39
14678.6	2.34756	0.661788	2.43906	-15.7434	4.33248	0.282498	-0.0809764	16.3839	1.20617	1	9	0.00485329	0.00198982	0	-8.62507e-05	0.394614	0.111243	0.409994	15.7434	1206.17	4278.66	4445.42	-74.2566	0.0000000E+000	0.0000000E+000	0.0000000E+000	74.2566	0.0000000E+000	0.0000000E+000	0.0000000E+000	-74.2566	0.0000000E+000	0.0000000E+000	0.0000000E+000	-15.7434	0.0000000E+000	0.0000000E+000	0.0000000E+000	15.7434	3.54731	74.2566	-9.96692e-06	-2.28757e-05	3488.65
10002.2	2.49369	0.748162	2.60351	-16.7004	4.7695	0.282539	-0.085508	21.2681	1.75631	1	9	0.00503068	0.00193227	0	-9.58448e-05	0.367896	0.110377	0.384097	16.7004	1756.31	5853.94	6111.73	-73.2996	0.0000000E+000	0.0000000E+000	0.0000000E+000	73.2996	0.0000000E+000	0.0000000E+000	0.0000000E+000	-73.2996	0.0000000E+000	0.0000000E+000	0.0000000E+000	-16.7004	0.0000000E+000	0.0000000E+000	0.0000000E+000	16.7004	3.33309	73.2996	-9.59409e-06	-2.41593e-05	3304.24
6811.07	2.6618	0.87046	2.80051	-18.1088	5.1475	0.282391	-0.113332	26.8445	2.59345	1	9	0.00482463	0.00172277	0	-0.00010597	0.339391	0.110987	0.357077	18.1088	2593.46	7930.58	8343.87	-71.8912	0.0000000E+000	0.0000000E+000	0.0000000E+000	71.8912	0.0000000E+000	0.0000000E+000	0.0000000E+000	-71.8912	0.0000000E+000	0.0000000E+000	0.0000000E+000	-18.1088	0.0000000E+000	0.0000000E+000	0.0000000E+000	18.1088	3.05792	71.8912	-1.01251e-05	-3.20039e-05	2491.72
4641.49	2.86051	0.990545	3.02716	-19.1001	5.61871	0.282577	-0.0344667	34.617	3.70652	1	9	0.00473891	0.00156546	0	-0.000109736	0.312157	0.108094	0.330343	19.1001	3706.52	10703.7	11327.3	-70.8999	0.0000000E+000	0.0000000E+000	0.0000000E+000	70.8999	0.0000000E+000	0.0000000E+000	0.0000000E+000	-70.8999	0.0000000E+000	0.0000000E+000	0.0000000E+000	-19.1001	0.0000000E+000	0.0000000E+000	0.0000000E+000	19.1001	2.88781	70.8999	-3.76649e-06	-9.7395e-06	8198.56
3161.01	3.09258	1.14369	3.29729	-20.2953	6.08567	0.282589	-0.0302334	44.0235	5.29651	1	9	0.00469054	0.00142254	0	-0.000114845	0.284451	0.105195	0.30328	20.2953	5296.51	14321.9	15269.9	-69.7047	0.0000000E+000	0.0000000E+000	0.0000000E+000	69.7047	0.0000000E+000	0.0000000E+000	0.0000000E+000	-69.7047	0.0000000E+000	0.0000000E+000	0.0000000E+000	-20.2953	0.0000000E+000	0.0000000E+000	0.0000000E+000	20.2953	2.70403	69.7047	-5.10879e-06	-8.54365e-06	9346.91
2155.69	3.37852	1.31183	3.62427	-21.2204	6.80668	0.282488	-0.0559884	56.2804	7.37343	1	10	0.00479806	0.00132387	0	-0.000124417	0.257209	0.0998702	0.275918	21.2204	7373.44	18989.8	20371.1	-68.7796	0.0000000E+000	0.0000000E+000	0.0000000E+000	68.7796	0.0000000E+000	0.0000000E+000	0.0000000E+000	-68.7796	0.0000000E+000	0.0000000E+000	0.0000000E+000	-21.2204	0.0000000E+000	0.0000000E+000	0.0000000E+000	21.2204	2.57543	68.7796	-9.57151e-06	-1.58161e-05	5045.47
1468.59	3.69438	1.49665	3.98603	-22.0536	7.27393	0.282514	-0.0558523	72.4101	10.2084	1	10	0.00474952	0.00119154	0	-0.000132441	0.23252	0.0941975	0.250876	22.0536	10208.4	25198.9	27188.1	-67.9464	0.0000000E+000	0.0000000E+000	0.0000000E+000	67.9464	0.0000000E+000	0.0000000E+000	0.0000000E+000	-67.9464	0.0000000E+000	0.0000000E+000	0.0000000E+000	-22.0536	0.0000000E+000	0.0000000E+000	0.0000000E+000	22.0536	2.46843	67.9464	-8.02471e-06	-1.57791e-05	5058.24
1000.32	4.05492	1.7158	4.403	-22.9352	7.74367	0.282649	-0.0572194	92.7286	14.0816	1	10	0.0047107	0.00106989	0	-0.000138688	0.209164	0.0885056	0.227118	22.9352	14081.6	33278.8	36135.4	-67.0648	0.0000000E+000	0.0000000E+000	0.0000000E+000	67.0648	0.0000000E+000	0.0000000E+000	0.0000000E+000	-67.0648	0.0000000E+000	0.0000000E+000	0.0000000E+000	-22.9352	0.0000000E+000	0.0000000E+000	0.0000000E+000	22.9352	2.36328	67.0648	-6.24693e-06	-1.6173e-05	4939.74
681.09	4.47796	1.94772	4.88321	-23.507	8.20942	0.282512	-0.0551212	119.975	19.0867	1	10	0.00468482	0.000959374	0	-0.000145351	0.187789	0.08168	0.204783	23.507	19086.7	43881.9	47853.2	-66.493	0.0000000E+000	0.0000000E+000	0.0000000E+000	66.493	0.0000000E+000	0.0000000E+000	0.0000000E+000	-66.493	0.0000000E+000	0.0000000E+000	0.0000000E+000	-23.507	0.0000000E+000	0.0000000E+000	0.0000000E+000	23.507	2.29908	66.493	-6.66273e-06	-1.55724e-05	5125.29
463.961	4.94408	2.19495	5.40941	-23.9391	8.67819	0.2825	-0.0543882	156.284	25.7314	1	10	0.00466146	0.00086173	0	-0.000152126	0.168961	0.0750109	0.184863	23.9391	25731.4	57959.4	63414.5	-66.0609	0.0000000E+000	0.0000000E+000	0.0000000E+000	66.0609	0.0000000E+000	0.0000000E+000	0.0000000E+000	-66.0609	0.0000000E+000	0.0000000E+000	0.0000000E+000	-23.9391	0.0000000E+000	0.0000000E+000	0.0000000E+000	23.9391	2.25248	66.0609	-6.77536e-06	-1.53647e-05	5194.14
316.316	5.47493	2.47571	6.00866	-24.332	9.14494	0.28252	-0.0549366	203.236	34.5019	1	10	0.00464797	0.000773546	0	-0.00015847	0.151643	0.0685716	0.166426	24.332	34501.9	76299.6	83737.8	-65.668	0.0000000E+000	0.0000000E+000	0.0000000E+000	65.668	0.0000000E+000	0.0000000E+000	0.0000000E+000	-65.668	0.0000000E+000	0.0000000E+000	0.0000000E+000	-24.332	0.0000000E+000	0.0000000E+000	0.0000000E+000	24.332	2.21146	65.668	-6.34389e-06	-1.55207e-05	5142.67
215.345	6.06912	2.79102	6.68012	-24.6964	9.61241	0.282487	-0.0542278	264.803	46.2255	1	10	0.00463668	0.000694101	0	-0.000164813	0.136006	0.0625454	0.149698	24.6964	46225.5	100518	110637	-65.3036	0.0000000E+000	0.0000000E+000	0.0000000E+000	65.3036	0.0000000E+000	0.0000000E+000	0.0000000E+000	-65.3036	0.0000000E+000	0.0000000E+000	0.0000000E+000	-24.6964	0.0000000E+000	0.0000000E+000	0.0000000E+000	24.6964	2.17451	65.3036	-6.34228e-06	-1.53187e-05	5209.26
146.737	6.7641	3.14974	7.4615	-24.9693	10.0754	0.282489	-0.0547929	344.354	61.3623	1	10	0.00463728	0.000621494	0	-0.000172033	0.121495	0.0565747	0.134021	24.9693	61362.3	131776	145363	-65.0307	0.0000000E+000	0.0000000E+000	0.0000000E+000	65.0307	0.0000000E+000	0.0000000E+000	0.0000000E+000	-65.0307	0.0000000E+000	0.0000000E+000	0.0000000E+000	-24.9693	0.0000000E+000	0.0000000E+000	0.0000000E+000	24.9693	2.14751	65.0307	-7.22003e-06	-1.54784e-05	5155.57
100.032	7.55391	3.55514	8.34869	-25.2034	10.5417	0.282512	-0.0534165	447.532	81.1524	1	10	0.00463284	0.000554918	0	-0.000179137	0.108377	0.0510059	0.119779	25.2034	81152.4	172431	190574	-64.7966	0.0000000E+000	0.0000000E+000	0.0000000E+000	64.7966	0.0000000E+000	0.0000000E+000	0.0000000E+000	-64.7966	0.0000000E+000	0.0000000E+000	0.0000000E+000	-25.2034	0.0000000E+000	0.0000000E+000	0.0000000E+000	25.2034	2.12479	64.7966	-7.1043e-06	-1.50908e-05	5288.85
68.104	8.51212	3.96401	9.38986	-24.9709	11.0203	0.282508	-0.0494364	589.54	105.066	1	10	0.00463003	0.000493088	0	-0.000185821	0.0965426	0.0449589	0.106498	24.9709	105066	225614	248879	-65.0291	0.0000000E+000	0.0000000E+000	0.0000000E+000	65.0291	0.0000000E+000	0.0000000E+000	0.0000000E+000	-65.0291	0.0000000E+000	0.0000000E+000	0.0000000E+000	-24.9709	0.0000000E+000	0.0000000E+000	0.0000000E+000	24.9709	2.14735	65.0291	-6.68422e-06	-1.39662e-05	5714.56
46.4415	9.60289	4.28517	10.5156	-24.0482	11.4755	0.28256	-0.0563466	799.733	132.804	1	10	0.00461015	0.000438409	0	-0.000192987	0.0868425	0.0387524	0.0950967	24.0482	132804	297609	325896	-65.9518	0.0000000E+000	0.0000000E+000	0.0000000E+000	65.9518	0.0000000E+000	0.0000000E+000	0.0000000E+000	-65.9518	0.0000000E+000	0.0000000E+000	0.0000000E+000	-24.0482	0.0000000E+000	0.0000000E+000	0.0000000E+000	24.0482	2.24096	65.9518	-7.16545e-06	-1.59213e-05	5014.67
31.6296	10.9865	4.54434	11.8893	-22.4714	11.9214	0.28252	-0.0575216	1107.28	161.766	1	10	0.00465007	0.000391114	0	-0.000199731	0.077723	0.0321484	0.0841094	22.4714	161766	391090	423225	-67.5286	0.0000000E+000	0.0000000E+000	0.0000000E+000	67.5286	0.0000000E+000	0.0000000E+000	0.0000000E+000	-67.5286	0.0000000E+000	0.0000000E+000	0.0000000E+000	-22.4714	0.0000000E+000	0.0000000E+000	0.0000000E+000	22.4714	2.41763	67.5286	-6.74479e-06	-1.6251e-05	4911.55
21.5517	12.3789	4.47214	13.1619	-19.8634	12.3604	0.282552	-0.0595508	1651.29	190.64	1	10	0.00466054	0.000354092	0	-0.000207657	0.0714565	0.0258152	0.0759766	19.8634	190640	527691	561072	-70.1366	0.0000000E+000	0.0000000E+000	0.0000000E+000	70.1366	0.0000000E+000	0.0000000E+000	0.0000000E+000	-70.1366	0.0000000E+000	0.0000000E+000	0.0000000E+000	-19.8634	0.0000000E+000	0.0000000E+000	0.0000000E+000	19.8634	2.768	70.1366	-7.92538e-06	-1.68262e-05	4744.72
14.6852	13.5112	4.27749	14.1722	-17.5671	13.098	0.28256	-0.0441579	2533.68	230.812	1	11	0.00460235	0.000324745	0	-0.00021664	0.0672701	0.0212969	0.0705608	17.5671	230811	729060	764724	-72.4329	0.0000000E+000	0.0000000E+000	0.0000000E+000	72.4329	0.0000000E+000	0.0000000E+000	0.0000000E+000	-72.4329	0.0000000E+000	0.0000000E+000	0.0000000E+000	-17.5671	0.0000000E+000	0.0000000E+000	0.0000000E+000	17.5671	3.15868	72.4329	-8.98358e-06	-1.24773e-05	6398.86
10.0032	14.7221	4.20307	15.3104	-15.9337	13.5667	0.282519	-0.0439335	3785.43	285.283	1	11	0.00462606	0.000302152	0	-0.000219954	0.0628058	0.0179306	0.0653152	15.9337	285283	999266	1.03919e+06	-74.0663	0.0000000E+000	0.0000000E+000	0.0000000E+000	74.0663	0.0000000E+000	0.0000000E+000	0.0000000E+000	-74.0663	0.0000000E+000	0.0000000E+000	0.0000000E+000	-15.9337	0.0000000E+000	0.0000000E+000	0.0000000E+000	15.9337	3.50272	74.0663	-3.3135e-06	-1.24121e-05	6430.61
6.81719	15.7122	3.80539	16.1664	-13.6145	13.9244	0.282503	-0.0440634	6135.01	339.927	1	11	0.00461269	0.000285325	0	-0.00022692	0.0601185	0.0145603	0.0618566	13.6145	339927	1.40353e+06	1.44411e+06	-76.3855	0.0000000E+000	0.0000000E+000	0.0000000E+000	76.3855	0.0000000E+000	0.0000000E+000	0.0000000E+000	-76.3855	0.0000000E+000	0.0000000E+000	0.0000000E+000	-13.6145	0.0000000E+000	0.0000000E+000	0.0000000E+000	13.6145	4.12892	76.3855	-6.96658e-06	-1.2448e-05	6411.28
4.63925	16.7416	3.50929	17.1055	-11.8386	14.4273	0.282527	-0.04266	9775.82	411.454	1	11	0.00463902	0.000271201	0	-0.000228782	0.0572174	0.0119936	0.0584609	11.8386	411454	1.96291e+06	2.00557e+06	-78.1614	0.0000000E+000	0.0000000E+000	0.0000000E+000	78.1614	0.0000000E+000	0.0000000E+000	0.0000000E+000	-78.1614	0.0000000E+000	0.0000000E+000	0.0000000E+000	-11.8386	0.0000000E+000	0.0000000E+000	0.0000000E+000	11.8386	4.77066	78.1614	-1.86113e-06	-1.20526e-05	6622.74
3.1604	17.6089	3.17952	17.8937	-10.2352	15.1363	0.282541	-0.0414421	15838.6	500.082	1	11	0.00463929	0.00025927	0	-0.000238497	0.0549964	0.00993031	0.0558857	10.2352	500082	2.76957e+06	2.81436e+06	-79.7648	0.0000000E+000	0.0000000E+000	0.0000000E+000	79.7648	0.0000000E+000	0.0000000E+000	0.0000000E+000	-79.7648	0.0000000E+000	0.0000000E+000	0.0000000E+000	-10.2352	0.0000000E+000	0.0000000E+000	0.0000000E+000	10.2352	5.53823	79.7648	-9.71519e-06	-1.17091e-05	6817.74
2.15577	18.1745	2.84255	18.3954	-8.88924	16.1528	0.282533	-0.0398004	25972.3	620.164	1	11	0.0046097	0.000250589	0	-0.000254961	0.0537084	0.00840018	0.0543613	8.88924	620164	3.96516e+06	4.01336e+06	-81.1108	0.0000000E+000	0.0000000E+000	0.0000000E+000	81.1108	0.0000000E+000	0.0000000E+000	0.0000000E+000	-81.1108	0.0000000E+000	0.0000000E+000	0.0000000E+000	-8.88924	0.0000000E+000	0.0000000E+000	0.0000000E+000	8.88924	6.39372	81.1108	-1.64638e-05	-1.12449e-05	7098.74
1.46631	18.8829	2.56411	19.0562	-7.7329	17.6261	0.282547	-0.0393947	42331	766.406	1	11	0.00461822	0.000242348	0	-0.000272791	0.0519992	0.00706097	0.0524764	7.7329	766406	5.64405e+06	5.69585e+06	-82.2671	0.0000000E+000	0.0000000E+000	0.0000000E+000	82.2671	0.0000000E+000	0.0000000E+000	0.0000000E+000	-82.2671	0.0000000E+000	0.0000000E+000	0.0000000E+000	-7.7329	0.0000000E+000	0.0000000E+000	0.0000000E+000	7.7329	7.36431	82.2671	-1.78302e-05	-1.11309e-05	7172.22
1.00006	19.4092	2.35301	19.5513	-6.91232	20.8163	0.282551	-0.0378927	67634.5	979.631	1	12	0.00462028	0.000236315	0	-0.000299899	0.0507756	0.0061556	0.0511474	6.91232	979631	8.08067e+06	8.13984e+06	-83.0877	0.0000000E+000	0.0000000E+000	0.0000000E+000	83.0877	0.0000000E+000	0.0000000E+000	0.0000000E+000	-83.0877	0.0000000E+000	0.0000000E+000	0.0000000E+000	-6.91232	0.0000000E+000	0.0000000E+000	0.0000000E+000	6.91232	8.24869	83.0877	-2.71079e-05	-1.07066e-05	7456.61
0.681362	19.8891	2.21498	20.0121	-6.35464	23.9372	0.282573	-0.0367404	105456	1291.9	1	12	0.00462376	0.000231049	0	-0.000320984	0.0496629	0.00553078	0.0499699	6.35464	1.2919e+06	1.16004e+07	1.16721e+07	-83.6454	0.0000000E+000	0.0000000E+000	0.0000000E+000	83.6454	0.0000000E+000	0.0000000E+000	0.0000000E+000	-83.6454	0.0000000E+000	0.0000000E+000	0.0000000E+000	-6.35464	0.0000000E+000	0.0000000E+000	0.0000000E+000	6.35464	8.97936	83.6454	-2.10851e-05	-1.03818e-05	7691.07
0.464091	20.2622	2.04836	20.3655	-5.77255	28.502	0.28256	-0.0339738	167422	1693.68	1	12	0.00461806	0.000226759	0	-0.000356328	0.0488536	0.00493872	0.0491026	5.77255	1.69368e+06	1.67538e+07	1.68392e+07	-84.2275	0.0000000E+000	0.0000000E+000	0.0000000E+000	84.2275	0.0000000E+000	0.0000000E+000	0.0000000E+000	-84.2275	0.0000000E+000	0.0000000E+000	0.0000000E+000	-5.77255	0.0000000E+000	0.0000000E+000	0.0000000E+000	5.77255	9.89196	84.2275	-3.53444e-05	-9.59963e-06	8317
0.316193	20.7264	1.91068	20.8143	-5.26695	35.1843	0.282558	-0.0312411	263439	2219.88	1	12	0.00463417	0.000222643	0	-0.000418928	0.047841	0.00441024	0.0480438	5.26695	2.21988e+06	2.40806e+07	2.41827e+07	-84.733	0.0000000E+000	0.0000000E+000	0.0000000E+000	84.733	0.0000000E+000	0.0000000E+000	0.0000000E+000	-84.733	0.0000000E+000	0.0000000E+000	0.0000000E+000	-5.26695	0.0000000E+000	0.0000000E+000	0.0000000E+000	5.26695	10.8477	84.733	-6.25994e-05	-8.8274e-06	9044.42
0.215268	21.0439	1.99436	21.1382	-5.41384	44.982	0.282564	-0.028674	370712	3299.97	1	12	0.00462578	0.000218835	0	-0.000521207	0.0470967	0.00446343	0.0473077	5.41384	3.29997e+06	3.48202e+07	3.49762e+07	-84.5862	0.0000000E+000	0.0000000E+000	0.0000000E+000	84.5862	0.0000000E+000	0.0000000E+000	0.0000000E+000	-84.5862	0.0000000E+000	0.0000000E+000	0.0000000E+000	-5.41384	0.0000000E+000	0.0000000E+000	0.0000000E+000	5.41384	10.5517	84.5862	-0.00010228	-8.10223e-06	9854.38
0.146929	21.4113	2.20629	21.5246	-5.8832	59.3187	0.282574	-0.026148	490964	5158.28	1	12	0.00462526	0.000214882	0	-0.000669795	0.0462137	0.00476203	0.0464584	5.8832	5.15828e+06	5.00592e+07	5.03243e+07	-84.1168	0.0000000E+000	0.0000000E+000	0.0000000E+000	84.1168	0.0000000E+000	0.0000000E+000	0.0000000E+000	-84.1168	0.0000000E+000	0.0000000E+000	0.0000000E+000	-5.8832	0.0000000E+000	0.0000000E+000	0.0000000E+000	5.8832	9.70463	84.1168	-0.000148588	-7.38874e-06	10806.7
0.0999041	21.8691	2.50191	22.0117	-6.5265	80.3886	0.282559	-0.0245969	636744	8226.22	1	12	0.00462301	0.000210025	0	-0.000863969	0.0451359	0.00516373	0.0454303	6.5265	8.22622e+06	7.1905e+07	7.2374e+07	-83.4735	0.0000000E+000	0.0000000E+000	0.0000000E+000	83.4735	0.0000000E+000	0.0000000E+000	0.0000000E+000	-83.4735	0.0000000E+000	0.0000000E+000	0.0000000E+000	-6.5265	0.0000000E+000	0.0000000E+000	0.0000000E+000	6.5265	8.74094	83.4735	-0.000194174	-6.95008e-06	11487.6
0.0680626	22.4676	3.0201	22.6697	-7.65583	111.301	0.282561	-0.0233524	774266	13741.8	1	12	0.00463338	0.000204387	0	-0.00109568	0.0437186	0.00587667	0.0441118	7.65583	1.37418e+07	1.0223e+08	1.03149e+08	-82.3442	0.0000000E+000	0.0000000E+000	0.0000000E+000	82.3442	0.0000000E+000	0.0000000E+000	0.0000000E+000	-82.3442	0.0000000E+000	0.0000000E+000	0.0000000E+000	-7.65583	0.0000000E+000	0.0000000E+000	0.0000000E+000	7.65583	7.43935	82.3442	-0.000231709	-6.59848e-06	12099.9
0.0464052	23.0498	3.69363	23.3439	-9.104	156.625	0.282561	-0.0222595	928538	23246.7	1	12	0.00463202	0.000198425	0	-0.00133772	0.0422981	0.00677809	0.0428378	9.104	2.32467e+07	1.45069e+08	1.4692e+08	-80.896	0.0000000E+000	0.0000000E+000	0.0000000E+000	80.896	0.0000000E+000	0.0000000E+000	0.0000000E+000	-80.896	0.0000000E+000	0.0000000E+000	0.0000000E+000	-9.104	0.0000000E+000	0.0000000E+000	0.0000000E+000	9.104	6.24042	80.896	-0.00024204	-6.28966e-06	12693.9
0.0315922	23.7465	4.51145	24.1713	-10.757	223.185	0.28242	-0.0200384	1.11667e+06	38900.6	1	12	0.0046409	0.000192001	0	-0.00157276	0.0406444	0.00772176	0.0413714	10.757	3.89006e+07	2.04758e+08	2.08421e+08	-79.2429	0.0000000E+000	0.0000000E+000	0.0000000E+000	79.2429	0.0000000E+000	0.0000000E+000	0.0000000E+000	-79.2429	0.0000000E+000	0.0000000E+000	0.0000000E+000	-10.757	0.0000000E+000	0.0000000E+000	0.0000000E+000	10.757	5.26362	79.2429	-0.000235041	-5.65924e-06	14093.9
0.0215268	24.5553	5.51782	25.1676	-12.6646	320.854	0.282412	-0.0187632	1.3399e+06	64405.7	1	12	0.0046297	0.000183955	0	-0.00184699	0.0387669	0.0087113	0.0397336	12.6646	6.44057e+07	2.86617e+08	2.93764e+08	-77.3354	0.0000000E+000	0.0000000E+000	0.0000000E+000	77.3354	0.0000000E+000	0.0000000E+000	0.0000000E+000	-77.3354	0.0000000E+000	0.0000000E+000	0.0000000E+000	-12.6646	0.0000000E+000	0.0000000E+000	0.0000000E+000	12.6646	4.45018	77.3354	-0.000274231	-5.29894e-06	15051.4
0.0146812	25.871	6.78606	26.7462	-14.6978	464.049	0.282565	-0.0179966	1.5975e+06	102838	1	12	0.00465329	0.000173979	0	-0.00233634	0.036165	0.00948621	0.0373884	14.6978	1.02838e+08	3.92056e+08	4.05319e+08	-75.3022	0.0000000E+000	0.0000000E+000	0.0000000E+000	75.3022	0.0000000E+000	0.0000000E+000	0.0000000E+000	-75.3022	0.0000000E+000	0.0000000E+000	0.0000000E+000	-14.6978	0.0000000E+000	0.0000000E+000	0.0000000E+000	14.6978	3.81238	75.3022	-0.000489348	-5.08519e-06	15701
0.0100092	26.9022	9.12681	28.4082	-18.7399	674.07	0.282555	-0.0174101	1.74222e+06	179826	1	12	0.00462655	0.000162859	0	-0.00331881	0.0333349	0.0113092	0.0352011	18.7399	1.79826e+08	5.30056e+08	5.59729e+08	-71.2601	0.0000000E+000	0.0000000E+000	0.0000000E+000	71.2601	0.0000000E+000	0.0000000E+000	0.0000000E+000	-71.2601	0.0000000E+000	0.0000000E+000	0.0000000E+000	-18.7399	0.0000000E+000	0.0000000E+000	0.0000000E+000	18.7399	2.9476	71.2601	-0.000982474	-4.91931e-06	16229.4