File: txt/17420_R282_UA652_SOC00_C05.mpt
EC-Lab ASCII FILE
Nb header lines : 64

Potentio Electrochemical Impedance Spectroscopy

Run on channel : 5 (SN 65912)
User :
CE vs. WE compliance from -10 V to 10 V
Electrode connection : standard
Potential control : Ewe
Ewe ctrl range : min = -10.00 V, max = 10.00 V
Safety Limits :
	Do not start on E overload
Acquisition started on : 09/08/2025 17:24:23.855
Loaded Setting File :  C:\Users\Celltest\OneDrive - store-dot.com\Documents\EC-Lab\Data\Michael\R278\UC74_NCMA_16706_EIS_50_SOC.mps
Saved on :
	File : 17420_C05.mpr
	Directory : C:\Users\Celltest\OneDrive - store-dot.com\Documents\EC-Lab\Data\Gyutae\R282\
	Host : 169.254.61.224
Device : VMP-3e (SN .003165)
Address : USB
EC-LAB for windows v11.62 (software)
Internet server v27.00 (firmware)
Command interpretor v12.03 (firmware)
Electrode material :
Initial state :
Electrolyte :
Comments :
Electrode surface area : 0.001 cm²
Characteristic mass : 0.001 g
Equivalent Weight : 0.000 g/eq.
Density : 0.000 g/cm3
Volume (V) : 0.001 cm³
Record Ece
Cycle Definition : Charge/Discharge alternance
Mode                Multi sine
E (V)               0.0000
vs.                 Eoc
tE (h:m:s)          0:00:0.0000
record              0
dI                  0.000
unit dI             mA
dt (s)              0.000
fi                  1.000
unit fi             MHz
ff                  0.100
unit ff             mHz
Nd                  10
Points              per decade
spacing             Logarithmic
Va (mV)             5.0
pw                  0.10
Na                  2
corr                0
E range min (V)     -10.000
E range max (V)     10.000
I Range             Auto
Bandwidth           5
nc cycles           0
goto Ns'            0
nr cycles           0
inc. cycle          0

freq/Hz	Re(Z)/Ohm	-Im(Z)/Ohm	|Z|/Ohm	Phase(Z)/deg	time/s	<Ewe>/V	<I>/mA	Cs/µF	Cp/µF	cycle number	I Range	|Ewe|/V	|I|/A	Ns	(Q-Qo)/mA.h	<Ece>/V	|Ece|/V	Phase(Zce)/deg	|Zce|/Ohm	Re(Zce)/Ohm	-Im(Zce)/Ohm	Phase(Zwe-ce)/deg	|Zwe-ce|/Ohm	Re(Zwe-ce)/Ohm	-Im(Zwe-ce)/Ohm	Re(Y)/Ohm-1	Im(Y)/Ohm-1	|Y|/Ohm-1	Phase(Y)/deg	Re(C)/nF	Im(C)/nF	|C|/nF	Phase(C)/deg	Re(M)	Im(M)	|M|	Phase(M)/deg	Re(Permittivity)	Im(Permittivity)	|Permittivity|	Phase(Permittivity)/deg	Re(Resistivity)/Ohm.cm	Im(Resistivity)/Ohm.cm	|Resistivity|/Ohm.cm	Phase(Resistivity)/deg	Re(Conductivity)/mS/cm	Im(Conductivity)/mS/cm	|Conductivity|/mS/cm	Phase(Conductivity)/deg	Tan(Delta)	Loss Angle(Delta)/deg	dq/mA.h	Pwe/W	Pce/W	Pwe-ce/W	<Ewe-Ece>/V	Rwe/Ohm	Rce/Ohm	Rwe-ce/Ohm		Ewe-Ece/V
1.00002e+06	2.94452	2.07231	3.60065	-35.1373	2.26657	0.283955	0.0601458	0.0767992	0.0254393	1	10	0.000260732	7.24125e-05	0	1.24228e-05	0.000338839	0.000191079	-67.5679	2.63876	1.00692	2.43909	-48.7856	5.99722	3.95144	4.5114	0.227119	0.159843	0.277727	35.1373	25.4393	36.1464	44.2009	-54.8627	0.0000000E+000	0.0000000E+000	0.0000000E+000	54.8627	0.0000000E+000	0.0000000E+000	0.0000000E+000	-54.8627	0.0000000E+000	0.0000000E+000	0.0000000E+000	-35.1373	0.0000000E+000	0.0000000E+000	0.0000000E+000	35.1373	1.42089	54.8627	1.24228e-05	1.70787e-05	2.03798e-08	1.70583e-05	0.283616	4721.1	5.63363	4715.47
630957	1.51807	-0.432721	1.57854	15.91	3.43556	0.282784	-0.00758127	-0.582925	-0.0438042	1	9	0.000549129	0.000347871	0	1.28593e-05	0.000243383	0.000107815	-107.111	0.309926	-0.0911881	0.296208	5.46496	1.4334	1.42689	-0.136513	0.609229	-0.173658	0.633496	-15.91	-43.8042	153.674	159.795	-105.91	0.0000000E+000	0.0000000E+000	0.0000000E+000	105.91	0.0000000E+000	0.0000000E+000	0.0000000E+000	-105.91	0.0000000E+000	0.0000000E+000	0.0000000E+000	15.91	0.0000000E+000	0.0000000E+000	0.0000000E+000	-15.91	3.50821	74.09	-1.1556e-06	-2.14386e-06	-1.84515e-09	-2.14201e-06	0.28254	37300.3	32.1032	37268.2
398103	1.89449	-0.0151221	1.89455	0.457335	4.20356	0.282546	-0.0228868	-26.437	-0.00168432	1	9	0.00188798	0.000996535	0	1.02333e-05	0.000281565	4.52327e-05	163.054	0.04539	-0.0434191	-0.0132299	0.877506	1.85129	1.85107	-0.028352	0.527813	-0.00421309	0.52783	-0.457335	-1.68433	211.011	211.017	-90.4573	0.0000000E+000	0.0000000E+000	0.0000000E+000	90.4573	0.0000000E+000	0.0000000E+000	0.0000000E+000	-90.4573	0.0000000E+000	0.0000000E+000	0.0000000E+000	0.457335	0.0000000E+000	0.0000000E+000	0.0000000E+000	-0.457335	125.279	89.5427	-2.54374e-06	-6.46658e-06	-6.44413e-09	-6.46014e-06	0.282265	12345.4	12.3025	12333.1
251206	2.02487	0.230978	2.03801	-6.50762	4.84754	0.282321	-0.0305954	2.74296	0.035233	1	9	0.00543591	0.00266727	0	5.17012e-06	-4.29852e-05	4.55758e-05	92.2956	0.0170871	-0.000684422	-0.0170734	-6.0323	2.03546	2.02419	0.213905	0.487514	0.0556109	0.490676	6.50762	35.233	308.871	310.874	-83.4924	0.0000000E+000	0.0000000E+000	0.0000000E+000	83.4924	0.0000000E+000	0.0000000E+000	0.0000000E+000	-83.4924	0.0000000E+000	0.0000000E+000	0.0000000E+000	-6.50762	0.0000000E+000	0.0000000E+000	0.0000000E+000	6.50762	8.76652	83.4924	-6.52443e-07	-8.63773e-06	1.31515e-09	-8.63905e-06	0.282364	9227.57	1.40496	9228.97
158486	2.15518	0.326234	2.17973	-8.60764	5.61352	0.282104	-0.0342449	3.07822	0.0689529	1	9	0.00540451	0.00247944	0	-2.42031e-07	-4.80276e-06	4.6724e-05	99.5367	0.0188446	-0.00312215	-0.0185842	-8.13567	2.17394	2.15206	0.30765	0.453605	0.0686631	0.458772	8.60764	68.9529	455.519	460.708	-81.3924	0.0000000E+000	0.0000000E+000	0.0000000E+000	81.3924	0.0000000E+000	0.0000000E+000	0.0000000E+000	-81.3924	0.0000000E+000	0.0000000E+000	0.0000000E+000	-8.60764	0.0000000E+000	0.0000000E+000	0.0000000E+000	8.60764	6.60623	81.3924	4.08046e-06	-9.66062e-06	1.6447e-10	-9.66079e-06	0.282109	8237.84	0.140247	8237.98
100004	2.27935	0.372202	2.30954	-9.27413	6.38154	0.282066	-0.0289569	4.27588	0.111053	1	9	0.00542572	0.00234926	0	-5.75164e-06	0.000243383	3.53696e-05	83.1568	0.0150556	0.00179391	-0.0149484	-8.90086	2.30895	2.28115	0.357253	0.427327	0.0697793	0.432986	9.27413	111.053	680.086	689.093	-80.7259	0.0000000E+000	0.0000000E+000	0.0000000E+000	80.7259	0.0000000E+000	0.0000000E+000	0.0000000E+000	-80.7259	0.0000000E+000	0.0000000E+000	0.0000000E+000	-9.27413	0.0000000E+000	0.0000000E+000	0.0000000E+000	9.27413	6.12398	80.7259	-1.54263e-06	-8.16776e-06	-7.04761e-09	-8.16071e-06	0.281823	9740.92	8.40502	9732.52
63093.8	2.38342	0.420919	2.42031	-10.0153	7.14752	0.282055	-0.0326808	5.99287	0.181255	1	9	0.00531147	0.00219454	0	-8.89606e-06	0.000167018	2.39114e-05	55.3618	0.0108958	0.00619311	-0.00896464	-9.78127	2.42487	2.38962	0.411954	0.406875	0.0718551	0.413171	10.0153	181.255	1026.35	1042.23	-79.9847	0.0000000E+000	0.0000000E+000	0.0000000E+000	79.9847	0.0000000E+000	0.0000000E+000	0.0000000E+000	-79.9847	0.0000000E+000	0.0000000E+000	0.0000000E+000	-10.0153	0.0000000E+000	0.0000000E+000	0.0000000E+000	10.0153	5.66244	79.9847	-1.51826e-06	-9.2178e-06	-5.4583e-09	-9.21234e-06	0.281888	8630.59	5.11058	8625.48
39814.1	2.50399	0.47661	2.54894	-10.7768	7.91555	0.282051	-0.0285845	8.38727	0.293242	1	9	0.00522103	0.00204831	0	-1.34885e-05	7.15621e-05	1.56442e-05	42.5237	0.00763762	0.00562891	-0.00516223	-10.6394	2.55351	2.50962	0.471448	0.3854	0.0733572	0.392319	10.7768	293.242	1540.62	1568.28	-79.2232	0.0000000E+000	0.0000000E+000	0.0000000E+000	79.2232	0.0000000E+000	0.0000000E+000	0.0000000E+000	-79.2232	0.0000000E+000	0.0000000E+000	0.0000000E+000	-10.7768	0.0000000E+000	0.0000000E+000	0.0000000E+000	10.7768	5.25375	79.2232	4.83176e-07	-8.06229e-06	-2.04557e-09	-8.06024e-06	0.28198	9867.28	2.50353	9864.78
25116.9	2.63052	0.539691	2.68531	-11.5942	8.68155	0.282054	-0.029441	11.7411	0.474253	1	9	0.00512693	0.00190925	0	-2.19487e-05	-0.000157532	8.40707e-06	-6.97205	0.00440334	0.00437078	0.0005345	-11.5866	2.6897	2.63489	0.540225	0.364798	0.0748438	0.372396	11.5942	474.253	2311.56	2359.71	-78.4058	0.0000000E+000	0.0000000E+000	0.0000000E+000	78.4058	0.0000000E+000	0.0000000E+000	0.0000000E+000	-78.4058	0.0000000E+000	0.0000000E+000	0.0000000E+000	-11.5942	0.0000000E+000	0.0000000E+000	0.0000000E+000	11.5942	4.87412	78.4058	-3.22325e-06	-8.30395e-06	4.63791e-09	-8.30858e-06	0.282211	9580.31	5.35079	9585.66
15847.7	2.79464	0.627366	2.8642	-12.6525	9.44752	0.282053	-0.0234454	16.0079	0.768016	1	9	0.00510859	0.0017836	0	-2.82211e-05	0.000109745	1.10892e-05	-118.96	0.00621731	-0.00301042	0.00543988	-12.772	2.86246	2.79163	0.632806	0.34066	0.0764744	0.349138	12.6525	768.016	3421.18	3506.32	-77.3475	0.0000000E+000	0.0000000E+000	0.0000000E+000	77.3475	0.0000000E+000	0.0000000E+000	0.0000000E+000	-77.3475	0.0000000E+000	0.0000000E+000	0.0000000E+000	-12.6525	0.0000000E+000	0.0000000E+000	0.0000000E+000	12.6525	4.45456	77.3475	-3.94065e-06	-6.61285e-06	-2.573e-09	-6.61027e-06	0.281943	12030.2	4.68086	12025.5
10002.2	2.97001	0.725177	3.05726	-13.7212	10.0895	0.282052	-0.0304092	21.9422	1.23453	1	9	0.00507497	0.00165997	0	-3.22535e-05	-6.20764e-05	2.86265e-06	-132.577	0.00172452	-0.00116678	0.00126987	-13.7496	3.05643	2.96884	0.726447	0.317755	0.0775852	0.32709	13.7212	1234.53	5056.11	5204.64	-76.2788	0.0000000E+000	0.0000000E+000	0.0000000E+000	76.2788	0.0000000E+000	0.0000000E+000	0.0000000E+000	-76.2788	0.0000000E+000	0.0000000E+000	0.0000000E+000	-13.7212	0.0000000E+000	0.0000000E+000	0.0000000E+000	13.7212	4.09557	76.2788	-2.63321e-06	-8.57698e-06	1.8877e-09	-8.57886e-06	0.282114	9275.2	2.04137	9277.24
6309.38	3.15813	0.83053	3.26551	-14.7341	10.6086	0.282052	-0.0282121	30.3723	1.96465	1	9	0.00516031	0.00158024	0	-3.52757e-05	0.000262474	3.85238e-06	-40.8293	0.00243784	0.00184462	0.00159388	-14.7529	3.2677	3.15998	0.832123	0.296161	0.0778847	0.306231	14.7341	1964.65	7470.69	7724.7	-75.2659	0.0000000E+000	0.0000000E+000	0.0000000E+000	75.2659	0.0000000E+000	0.0000000E+000	0.0000000E+000	-75.2659	0.0000000E+000	0.0000000E+000	0.0000000E+000	-14.7341	0.0000000E+000	0.0000000E+000	0.0000000E+000	14.7341	3.80255	75.2659	-1.07714e-06	-7.95727e-06	-7.40494e-09	-7.94987e-06	0.281789	9997.56	9.30361	9988.25
3983.6	3.40616	0.998923	3.54961	-16.3448	11.1731	0.28196	-0.0364793	39.9956	3.16749	1	9	0.00514747	0.00145015	0	-3.99242e-05	1.42885e-05	1.89317e-06	114.249	0.0013055	-0.000536175	-0.00119031	-16.3288	3.54876	3.40562	0.997733	0.270335	0.0792812	0.281721	16.3448	3167.49	10800.6	11255.5	-73.6552	0.0000000E+000	0.0000000E+000	0.0000000E+000	73.6552	0.0000000E+000	0.0000000E+000	0.0000000E+000	-73.6552	0.0000000E+000	0.0000000E+000	0.0000000E+000	-16.3448	0.0000000E+000	0.0000000E+000	0.0000000E+000	16.3448	3.40983	73.6552	-1.97867e-06	-1.02857e-05	-5.21233e-10	-1.02852e-05	0.281945	7729.3	0.391687	7728.91
2510.8	3.66253	1.18226	3.84862	-17.8901	12.2428	0.282049	-0.0129559	53.6158	5.05955	1	10	0.00519055	0.00134868	0	-4.67016e-05	0.000243383	8.31705e-06	-73.31	0.00616682	0.00177107	0.00590703	-17.9656	3.85212	3.6643	1.18817	0.24727	0.0798186	0.259833	17.8901	5059.55	15674	16470.3	-72.1099	0.0000000E+000	0.0000000E+000	0.0000000E+000	72.1099	0.0000000E+000	0.0000000E+000	0.0000000E+000	-72.1099	0.0000000E+000	0.0000000E+000	0.0000000E+000	-17.8901	0.0000000E+000	0.0000000E+000	0.0000000E+000	17.8901	3.0979	72.1099	-1.9786e-06	-3.65419e-06	-3.15324e-09	-3.65104e-06	0.281806	21770	18.7855	21751.2
1585.51	3.98941	1.41154	4.23176	-19.4849	13.1448	0.282046	-0.0117271	71.1147	7.91229	1	10	0.00514791	0.00121649	0	-5.00158e-05	-4.80276e-06	4.16812e-06	-82.5087	0.00342633	0.000446711	0.00339709	-19.5262	4.23332	3.98985	1.41494	0.222775	0.0788226	0.236308	19.4849	7912.29	22362.4	23720.9	-70.5151	0.0000000E+000	0.0000000E+000	0.0000000E+000	70.5151	0.0000000E+000	0.0000000E+000	0.0000000E+000	-70.5151	0.0000000E+000	0.0000000E+000	0.0000000E+000	-19.4849	0.0000000E+000	0.0000000E+000	0.0000000E+000	19.4849	2.82628	70.5151	-1.31421e-06	-3.30759e-06	5.63226e-11	-3.30765e-06	0.282051	24050.7	0.409542	24051.1
1000.32	4.39356	1.67124	4.70068	-20.826	14.0479	0.282055	-0.0118053	95.2012	12.0337	1	10	0.00510545	0.00108611	0	-5.22191e-05	0.00035793	8.08291e-06	-46.3552	0.00744208	0.00513641	0.00538533	-20.865	4.7074	4.39869	1.67662	0.198836	0.075634	0.212735	20.826	12033.7	31635.6	33847	-69.174	0.0000000E+000	0.0000000E+000	0.0000000E+000	69.174	0.0000000E+000	0.0000000E+000	0.0000000E+000	-69.174	0.0000000E+000	0.0000000E+000	0.0000000E+000	-20.826	0.0000000E+000	0.0000000E+000	0.0000000E+000	20.826	2.62892	69.174	-1.78842e-06	-3.32975e-06	-4.22549e-09	-3.32552e-06	0.281697	23892.1	30.3194	23861.8
631.01	4.86799	1.98621	5.2576	-22.1962	14.9496	0.282059	-0.0118798	126.987	18.1232	1	10	0.00507308	0.000964904	0	-5.60237e-05	0.000147927	6.55937e-06	55.2805	0.00679795	0.00387183	-0.00558757	-22.1239	5.25908	4.87186	1.98062	0.176106	0.0718539	0.190201	22.1962	18123.2	44418	47973	-67.8038	0.0000000E+000	0.0000000E+000	0.0000000E+000	67.8038	0.0000000E+000	0.0000000E+000	0.0000000E+000	-67.8038	0.0000000E+000	0.0000000E+000	0.0000000E+000	-22.1962	0.0000000E+000	0.0000000E+000	0.0000000E+000	22.1962	2.45089	67.8038	-1.56498e-06	-3.3508e-06	-1.75734e-09	-3.34905e-06	0.281911	23742.7	12.452	23730.3
398.089	5.41039	2.36804	5.90593	-23.6382	15.8508	0.282053	-0.0122261	168.83	27.1427	1	10	0.00504125	0.000853592	0	-5.8398e-05	0.000205201	1.31647e-05	-83.7493	0.0154228	0.00167921	0.0153311	-23.7678	5.91363	5.41207	2.38337	0.155115	0.0678911	0.169321	23.6382	27142.7	62014.4	67694.2	-66.3618	0.0000000E+000	0.0000000E+000	0.0000000E+000	66.3618	0.0000000E+000	0.0000000E+000	0.0000000E+000	-66.3618	0.0000000E+000	0.0000000E+000	0.0000000E+000	-23.6382	0.0000000E+000	0.0000000E+000	0.0000000E+000	23.6382	2.28476	66.3618	-1.16519e-06	-3.4484e-06	-2.5088e-09	-3.44589e-06	0.281847	23069.7	16.7838	23053
251.044	6.08508	2.84098	6.71561	-25.0268	16.749	0.282062	-0.0123788	223.152	39.9363	1	10	0.00503007	0.000749012	0	-6.21239e-05	7.15621e-05	1.17126e-05	-19.6429	0.0156374	0.0147274	0.00525662	-25.0143	6.73118	6.09981	2.84624	0.134926	0.0629938	0.148907	25.0268	39936.3	85539.2	94402.7	-64.9732	0.0000000E+000	0.0000000E+000	0.0000000E+000	64.9732	0.0000000E+000	0.0000000E+000	0.0000000E+000	-64.9732	0.0000000E+000	0.0000000E+000	0.0000000E+000	-25.0268	0.0000000E+000	0.0000000E+000	0.0000000E+000	25.0268	2.14189	64.9732	-1.7019e-06	-3.49158e-06	-8.8585e-10	-3.4907e-06	0.281991	22786	5.78104	22780.2
158.428	6.90606	3.39544	7.69562	-26.1816	17.6539	0.282053	-0.0119543	295.863	57.5964	1	10	0.00501539	0.00065172	0	-6.63819e-05	3.33797e-05	3.65371e-06	-81.5122	0.00560625	0.000827472	0.00554485	-26.2159	7.69881	6.90688	3.40098	0.116612	0.0573335	0.129944	26.1816	57596.4	117147	130540	-63.8185	0.0000000E+000	0.0000000E+000	0.0000000E+000	63.8185	0.0000000E+000	0.0000000E+000	0.0000000E+000	-63.8185	0.0000000E+000	0.0000000E+000	0.0000000E+000	-26.1816	0.0000000E+000	0.0000000E+000	0.0000000E+000	26.1816	2.03392	63.8185	-1.80687e-06	-3.37175e-06	-3.9903e-10	-3.37135e-06	0.28202	23594.3	2.79227	23591.5
100.032	7.97805	4.06313	8.95312	-26.9892	18.5538	0.282046	-0.0128591	391.58	80.6479	1	10	0.00501489	0.000560128	0	-6.92082e-05	5.24709e-05	7.30787e-06	165.012	0.0130468	-0.0126029	-0.00337421	-27.0066	8.94036	7.96545	4.05976	0.0995286	0.0506888	0.111693	26.9892	80647.9	158354	177708	-63.0108	0.0000000E+000	0.0000000E+000	0.0000000E+000	63.0108	0.0000000E+000	0.0000000E+000	0.0000000E+000	-63.0108	0.0000000E+000	0.0000000E+000	0.0000000E+000	-26.9892	0.0000000E+000	0.0000000E+000	0.0000000E+000	26.9892	1.96352	63.0108	-1.81249e-06	-3.62685e-06	-6.74728e-10	-3.62617e-06	0.281993	21933.6	4.08045	21929.5
63.0823	9.303	4.72994	10.4364	-26.9502	19.471	0.282071	-0.0100181	533.405	109.564	1	10	0.00501087	0.000480135	0	-7.21068e-05	-2.3894e-05	6.16447e-06	27.1133	0.0128391	0.0114281	-0.00585143	-26.8932	10.4439	9.31443	4.72409	0.0854127	0.0434266	0.0958186	26.9502	109564	215494	241748	-63.0498	0.0000000E+000	0.0000000E+000	0.0000000E+000	63.0498	0.0000000E+000	0.0000000E+000	0.0000000E+000	-63.0498	0.0000000E+000	0.0000000E+000	0.0000000E+000	-26.9502	0.0000000E+000	0.0000000E+000	0.0000000E+000	26.9502	1.96683	63.0498	-1.10536e-06	-2.82583e-06	2.39373e-10	-2.82606e-06	0.282095	28156.1	2.38507	28158.5
39.8089	11.0068	5.30103	12.2168	-25.7161	20.3718	0.282057	-0.0117756	754.187	141.998	1	10	0.00501182	0.000410239	0	-7.4113e-05	0.000377022	7.19262e-06	69.048	0.0175327	0.00626945	-0.0163735	-25.6342	12.2154	11.0131	5.28466	0.0737471	0.0355176	0.0818543	25.7161	141998	294839	327251	-64.2839	0.0000000E+000	0.0000000E+000	0.0000000E+000	64.2839	0.0000000E+000	0.0000000E+000	0.0000000E+000	-64.2839	0.0000000E+000	0.0000000E+000	0.0000000E+000	-25.7161	0.0000000E+000	0.0000000E+000	0.0000000E+000	25.7161	2.07635	64.2839	-1.11372e-06	-3.32139e-06	-4.43965e-09	-3.31695e-06	0.28168	23952.7	32.0173	23920.7
25.1044	12.8994	5.59972	14.0624	-23.4661	21.2511	0.282048	-0.0125389	1132.15	179.522	1	10	0.00500767	0.000356104	0	-7.73142e-05	0.000243383	8.63319e-06	-21.0715	0.0242435	0.0226224	0.00871634	-23.4619	14.0866	12.922	5.60844	0.0652305	0.0283171	0.0711117	23.4661	179522	413543	450828	-66.534	0.0000000E+000	0.0000000E+000	0.0000000E+000	66.534	0.0000000E+000	0.0000000E+000	0.0000000E+000	-66.534	0.0000000E+000	0.0000000E+000	0.0000000E+000	-23.4661	0.0000000E+000	0.0000000E+000	0.0000000E+000	23.4661	2.30357	66.534	-1.58554e-06	-3.53656e-06	-3.05175e-09	-3.53351e-06	0.281804	22493.8	19.4103	22474.4
15.8576	14.8612	5.5635	15.8685	-20.524	22.376	0.282068	-0.0059335	1804	221.748	1	11	0.00500611	0.000315475	0	-7.70619e-05	1.42885e-05	8.96202e-06	63.1575	0.028408	0.0128273	-0.0253471	-20.4221	15.8716	14.8741	5.53815	0.0590179	0.0220941	0.063018	20.524	221748	592335	632482	-69.476	0.0000000E+000	0.0000000E+000	0.0000000E+000	69.476	0.0000000E+000	0.0000000E+000	0.0000000E+000	-69.476	0.0000000E+000	0.0000000E+000	0.0000000E+000	-20.524	0.0000000E+000	0.0000000E+000	0.0000000E+000	20.524	2.6712	69.476	-2.71177e-07	-1.67365e-06	-8.47806e-11	-1.67357e-06	0.282054	47538.2	2.4081	47535.8
10.0032	16.6749	5.27163	17.4883	-17.5439	23.3579	0.282079	-0.00544129	3018.12	274.239	1	11	0.00500761	0.00028634	0	-7.91513e-05	9.06533e-05	6.44579e-06	11.7362	0.022511	0.0220404	-0.00457888	-17.5079	17.508	16.6969	5.26705	0.0545213	0.0172365	0.057181	17.5439	274239	867456	909773	-72.4561	0.0000000E+000	0.0000000E+000	0.0000000E+000	72.4561	0.0000000E+000	0.0000000E+000	0.0000000E+000	-72.4561	0.0000000E+000	0.0000000E+000	0.0000000E+000	-17.5439	0.0000000E+000	0.0000000E+000	0.0000000E+000	17.5439	3.16313	72.4561	3.61809e-07	-1.53487e-06	-4.93271e-10	-1.53438e-06	0.281988	51840.4	16.6602	51823.7
6.31058	18.2166	4.83198	18.8465	-14.8557	24.2823	0.282063	-0.00642348	5219.46	343.095	1	11	0.00499165	0.000264858	0	-7.93328e-05	0.000262474	1.38302e-05	-10.0968	0.0522174	0.0514087	0.00915432	-14.8426	18.8986	18.268	4.84114	0.0512866	0.0136039	0.0530602	14.8557	343095	1.29347e+06	1.3382e+06	-75.1443	0.0000000E+000	0.0000000E+000	0.0000000E+000	75.1443	0.0000000E+000	0.0000000E+000	0.0000000E+000	-75.1443	0.0000000E+000	0.0000000E+000	0.0000000E+000	-14.8557	0.0000000E+000	0.0000000E+000	0.0000000E+000	14.8557	3.77	75.1443	1.84807e-06	-1.81182e-06	-1.686e-09	-1.81014e-06	0.2818	43911.2	40.8617	43870.3
3.97785	19.6654	4.37685	20.1466	-12.5476	25.2893	0.282087	-0.00462722	9141.33	431.45	1	11	0.00500706	0.000248531	0	-8.47709e-05	3.33797e-05	4.41589e-06	116.336	0.017768	-0.00788251	-0.0159238	-12.5082	20.1354	19.6575	4.36093	0.0484507	0.0107835	0.0496362	12.5476	431450	1.93852e+06	1.98596e+06	-77.4524	0.0000000E+000	0.0000000E+000	0.0000000E+000	77.4524	0.0000000E+000	0.0000000E+000	0.0000000E+000	-77.4524	0.0000000E+000	0.0000000E+000	0.0000000E+000	-12.5476	0.0000000E+000	0.0000000E+000	0.0000000E+000	12.5476	4.49305	77.4524	-3.35498e-06	-1.30528e-06	-1.54455e-10	-1.30512e-06	0.282053	60962.5	7.21377	60955.2
2.51367	20.8523	3.92944	21.2193	-10.6718	26.8489	0.282092	-0.00475994	16113.1	552.562	1	11	0.0049997	0.00023562	0	-8.20723e-05	0.000224292	3.32912e-06	-16.815	0.0141292	0.0135251	0.00408731	-10.6759	21.2333	20.8658	3.93353	0.0463118	0.0087271	0.0471269	10.6718	552562	2.93226e+06	2.98387e+06	-79.3282	0.0000000E+000	0.0000000E+000	0.0000000E+000	79.3282	0.0000000E+000	0.0000000E+000	0.0000000E+000	-79.3282	0.0000000E+000	0.0000000E+000	0.0000000E+000	-10.6718	0.0000000E+000	0.0000000E+000	0.0000000E+000	10.6718	5.30667	79.3282	2.74357e-06	-1.34274e-06	-1.06762e-09	-1.34167e-06	0.281868	59263.7	47.1207	59216.6
1.58469	21.9834	3.50533	22.2612	-9.05972	29.2844	0.282088	-0.00423095	28651.6	710.412	1	11	0.00501021	0.000225065	0	-8.44818e-05	-0.00011935	5.39585e-06	16.4022	0.0239746	0.0229989	-0.00676989	-9.03321	22.2828	22.0064	3.49856	0.0443609	0.00707348	0.0449213	9.05972	710412	4.4553e+06	4.51159e+06	-80.9403	0.0000000E+000	0.0000000E+000	0.0000000E+000	80.9403	0.0000000E+000	0.0000000E+000	0.0000000E+000	-80.9403	0.0000000E+000	0.0000000E+000	0.0000000E+000	-9.05972	0.0000000E+000	0.0000000E+000	0.0000000E+000	9.05972	6.27144	80.9403	-3.50223e-06	-1.1935e-06	5.04964e-10	-1.19401e-06	0.282208	66672.6	28.2088	66700.8
1.00469	23.1125	3.12474	23.3228	-7.69953	240.102	0.282038	-0.00698371	50695.8	909.997	1	11	0.00507545	0.000217618	0	-0.00126913	-8.11676e-05	9.57338e-07	-9.14739	0.00439917	0.00434322	0.000699357	-7.69981	23.3272	23.1169	3.12544	0.04249	0.00574452	0.0428765	7.69953	909997	6.7309e+06	6.79213e+06	-82.3005	0.0000000E+000	0.0000000E+000	0.0000000E+000	82.3005	0.0000000E+000	0.0000000E+000	0.0000000E+000	-82.3005	0.0000000E+000	0.0000000E+000	0.0000000E+000	-7.69953	0.0000000E+000	0.0000000E+000	0.0000000E+000	7.69953	7.39661	82.3005	-0.00117697	-1.96967e-06	5.66852e-10	-1.97024e-06	0.282119	40385.1	11.6224	40396.7
0.632957	23.8991	2.81705	24.0646	-6.72259	240.102	0.282038	-0.00698371	89258.7	1223.16	1	11	0.00508968	0.000211501	0	-0.00126913	-8.11676e-05	1.13041e-06	2.66179	0.00534471	0.00533894	-0.000248209	-6.72051	24.0699	23.9045	2.81681	0.0412691	0.0048645	0.0415548	6.72259	1.22316e+06	1.0377e+07	1.04488e+07	-83.2774	0.0000000E+000	0.0000000E+000	0.0000000E+000	83.2774	0.0000000E+000	0.0000000E+000	0.0000000E+000	-83.2774	0.0000000E+000	0.0000000E+000	0.0000000E+000	-6.72259	0.0000000E+000	0.0000000E+000	0.0000000E+000	6.72259	8.48373	83.2774	0.000000000000000E+000	-1.96967e-06	5.66852e-10	-1.97024e-06	0.282119	40385.1	11.6224	40396.7
0.401878	24.5129	2.53764	24.6439	-5.91035	240.103	0.282038	-0.00698371	156062	1654.77	1	11	0.00510346	0.000207088	0	-0.00126913	-8.11676e-05	1.1731e-06	-4.37006	0.00566474	0.00564827	0.000431642	-5.91	24.6495	24.5185	2.53807	0.0403623	0.00417841	0.040578	5.91035	1.65477e+06	1.59846e+07	1.60701e+07	-84.0896	0.0000000E+000	0.0000000E+000	0.0000000E+000	84.0896	0.0000000E+000	0.0000000E+000	0.0000000E+000	-84.0896	0.0000000E+000	0.0000000E+000	0.0000000E+000	-5.91035	0.0000000E+000	0.0000000E+000	0.0000000E+000	5.91035	9.65973	84.0896	0.000000000000000E+000	-1.96967e-06	5.66852e-10	-1.97024e-06	0.282119	40385.1	11.6224	40396.7
0.251173	25.0794	2.53138	25.2068	-5.76362	240.103	0.282038	-0.00698371	250316	2524.46	1	11	0.00510585	0.000202558	0	-0.00126913	-8.11676e-05	1.20945e-06	-10.2499	0.00597089	0.0058756	0.00106247	-5.76468	25.2128	25.0853	2.53245	0.0394713	0.00398403	0.0396718	5.76362	2.52446e+06	2.50108e+07	2.51379e+07	-84.2364	0.0000000E+000	0.0000000E+000	0.0000000E+000	84.2364	0.0000000E+000	0.0000000E+000	0.0000000E+000	-84.2364	0.0000000E+000	0.0000000E+000	0.0000000E+000	-5.76362	0.0000000E+000	0.0000000E+000	0.0000000E+000	5.76362	9.90738	84.2364	0.000000000000000E+000	-1.96967e-06	5.66852e-10	-1.97024e-06	0.282119	40385.1	11.6224	40396.7
0.160751	25.4458	2.52529	25.5708	-5.66758	240.103	0.282038	-0.00698371	392063	3823.75	1	11	0.0050955	0.000199271	0	-0.00126913	-8.11676e-05	7.85272e-07	6.41291	0.00394073	0.00391607	-0.000440152	-5.66573	25.5746	25.4497	2.52485	0.038916	0.00386209	0.0391071	5.66758	3.82375e+06	3.85296e+07	3.87189e+07	-84.3324	0.0000000E+000	0.0000000E+000	0.0000000E+000	84.3324	0.0000000E+000	0.0000000E+000	0.0000000E+000	-84.3324	0.0000000E+000	0.0000000E+000	0.0000000E+000	-5.66758	0.0000000E+000	0.0000000E+000	0.0000000E+000	5.66758	10.0764	84.3324	0.000000000000000E+000	-1.96967e-06	5.66852e-10	-1.97024e-06	0.282119	40385.1	11.6224	40396.7
0.100469	25.9637	2.99877	26.1363	-6.58838	240.104	0.282038	-0.00698371	528255	6954.1	1	11	0.00510008	0.000195134	0	-0.00126913	-8.11676e-05	9.43603e-07	-16.2293	0.00483567	0.00464297	0.00135148	-6.59015	26.1411	25.9683	3.00012	0.0380083	0.0043899	0.038261	6.58838	6.9541e+06	6.02095e+07	6.06097e+07	-83.4116	0.0000000E+000	0.0000000E+000	0.0000000E+000	83.4116	0.0000000E+000	0.0000000E+000	0.0000000E+000	-83.4116	0.0000000E+000	0.0000000E+000	0.0000000E+000	-6.58838	0.0000000E+000	0.0000000E+000	0.0000000E+000	6.58838	8.65813	83.4116	0.000000000000000E+000	-1.96967e-06	5.66852e-10	-1.97024e-06	0.282119	40385.1	11.6224	40396.7
0.0602816	26.7048	3.58311	26.9441	-7.64201	240.104	0.282038	-0.00698371	736842	13030.7	1	11	0.00509515	0.000189101	0	-0.00126913	-8.11676e-05	8.50244e-07	-33.4457	0.00449625	0.00375171	0.00247809	-7.64617	26.9482	26.7086	3.58559	0.0367842	0.00493551	0.0371138	7.64201	1.30307e+07	9.71173e+07	9.79876e+07	-82.358	0.0000000E+000	0.0000000E+000	0.0000000E+000	82.358	0.0000000E+000	0.0000000E+000	0.0000000E+000	-82.358	0.0000000E+000	0.0000000E+000	0.0000000E+000	-7.64201	0.0000000E+000	0.0000000E+000	0.0000000E+000	7.64201	7.45296	82.358	0.000000000000000E+000	-1.96967e-06	5.66852e-10	-1.97024e-06	0.282119	40385.1	11.6224	40396.7
0.0401878	27.463	4.11981	27.7703	-8.5315	240.104	0.282038	-0.00698371	961278	21156.5	1	11	0.00509574	0.000183496	0	-0.00126913	-8.11676e-05	1.29999e-06	18.3583	0.00708459	0.00672403	-0.00223135	-8.52489	27.7766	27.4697	4.11758	0.0356112	0.00534216	0.0360097	8.5315	2.11565e+07	1.41031e+08	1.42609e+08	-81.4685	0.0000000E+000	0.0000000E+000	0.0000000E+000	81.4685	0.0000000E+000	0.0000000E+000	0.0000000E+000	-81.4685	0.0000000E+000	0.0000000E+000	0.0000000E+000	-8.5315	0.0000000E+000	0.0000000E+000	0.0000000E+000	8.5315	6.66608	81.4685	0.000000000000000E+000	-1.96967e-06	5.66852e-10	-1.97024e-06	0.282119	40385.1	11.6224	40396.7
0.0200939	28.9703	6.48924	29.6882	-12.6256	240.105	0.282038	-0.00698371	1.22057e+06	58315.2	1	11	0.00509693	0.000171682	0	-0.00126913	-8.11676e-05	7.65412e-07	-38.9379	0.00445832	0.00346781	0.00280195	-12.6294	29.6922	28.9738	6.49205	0.0328689	0.0073625	0.0336834	12.6256	5.83152e+07	2.6034e+08	2.66792e+08	-77.3744	0.0000000E+000	0.0000000E+000	0.0000000E+000	77.3744	0.0000000E+000	0.0000000E+000	0.0000000E+000	-77.3744	0.0000000E+000	0.0000000E+000	0.0000000E+000	-12.6256	0.0000000E+000	0.0000000E+000	0.0000000E+000	12.6256	4.46436	77.3744	0.000000000000000E+000	-1.96967e-06	5.66852e-10	-1.97024e-06	0.282119	40385.1	11.6224	40396.7
0.00796479	34.3773	11.362	36.2063	-18.2891	20329	0.282013	-0.00995194	1.7587e+06	173194	1	11	0.00509139	0.000140622	0	-0.0763266	-0.000138441	2.69928e-06	-6.42115	0.0191954	0.019075	0.00214673	-18.2829	36.2251	34.3964	11.3641	0.0262243	0.00866734	0.0276195	18.2891	1.73194e+08	5.24023e+08	5.51902e+08	-71.7109	0.0000000E+000	0.0000000E+000	0.0000000E+000	71.7109	0.0000000E+000	0.0000000E+000	0.0000000E+000	-71.7109	0.0000000E+000	0.0000000E+000	0.0000000E+000	-18.2891	0.0000000E+000	0.0000000E+000	0.0000000E+000	18.2891	3.02565	71.7109	-0.0750574	-2.80658e-06	1.37776e-09	-2.80795e-06	0.282151	28337.5	13.911	28351.4
0.00497799	37.1348	15.3834	40.1951	-22.5022	20329	0.282013	-0.00995194	2.07832e+06	304420	1	11	0.00509843	0.000126842	0	-0.0763266	-0.000138441	2.25144e-06	4.86206	0.01775	0.0176861	-0.00150444	-22.4906	40.2108	37.1525	15.3819	0.0229845	0.00952154	0.0248787	22.5022	3.0442e+08	7.34855e+08	7.95414e+08	-67.4978	0.0000000E+000	0.0000000E+000	0.0000000E+000	67.4978	0.0000000E+000	0.0000000E+000	0.0000000E+000	-67.4978	0.0000000E+000	0.0000000E+000	0.0000000E+000	-22.5022	0.0000000E+000	0.0000000E+000	0.0000000E+000	22.5022	2.41395	67.4978	0.000000000000000E+000	-2.80658e-06	1.37776e-09	-2.80795e-06	0.282151	28337.5	13.911	28351.4
0.00318591	40.6054	20.8937	45.6656	-27.2283	20329	0.282013	-0.00995194	2.39096e+06	500522	1	11	0.00510179	0.000111721	0	-0.0763266	-0.000138441	1.96409e-06	-11.7339	0.0175804	0.017213	0.00357526	-27.2224	45.6825	40.6226	20.8972	0.0194718	0.0100193	0.0218983	27.2283	5.00522e+08	9.72729e+08	1.09395e+09	-62.7717	0.0000000E+000	0.0000000E+000	0.0000000E+000	62.7717	0.0000000E+000	0.0000000E+000	0.0000000E+000	-62.7717	0.0000000E+000	0.0000000E+000	0.0000000E+000	-27.2283	0.0000000E+000	0.0000000E+000	0.0000000E+000	27.2283	1.94343	62.7717	0.000000000000000E+000	-2.80658e-06	1.37776e-09	-2.80795e-06	0.282151	28337.5	13.911	28351.4
0.0019912	46.218	26.3499	53.2017	-29.6884	20329	0.282013	-0.00995194	3.03338e+06	744105	1	11	0.0051017	9.58936e-05	0	-0.0763266	-0.000138441	1.98141e-06	-22.4971	0.0206626	0.0190901	0.00790625	-29.6856	53.2222	46.2371	26.3578	0.016329	0.00930954	0.0187964	29.6884	7.44105e+08	1.30517e+09	1.50238e+09	-60.3116	0.0000000E+000	0.0000000E+000	0.0000000E+000	60.3116	0.0000000E+000	0.0000000E+000	0.0000000E+000	-60.3116	0.0000000E+000	0.0000000E+000	0.0000000E+000	-29.6884	0.0000000E+000	0.0000000E+000	0.0000000E+000	29.6884	1.75401	60.3116	0.000000000000000E+000	-2.80658e-06	1.37776e-09	-2.80795e-06	0.282151	28337.5	13.911	28351.4
0.00129428	47.9685	34.3357	58.9908	-35.595	20329	0.282013	-0.00995194	3.58135e+06	1.21331e+06	1	11	0.00510206	8.6489e-05	0	-0.0763266	-0.000138441	1.79295e-06	-19.3911	0.0207304	0.0195545	0.0068828	-35.5894	59.0107	47.988	34.3426	0.0137844	0.00986683	0.0169518	35.595	1.21331e+09	1.69504e+09	2.08453e+09	-54.405	0.0000000E+000	0.0000000E+000	0.0000000E+000	54.405	0.0000000E+000	0.0000000E+000	0.0000000E+000	-54.405	0.0000000E+000	0.0000000E+000	0.0000000E+000	-35.595	0.0000000E+000	0.0000000E+000	0.0000000E+000	35.595	1.39704	54.405	0.000000000000000E+000	-2.80658e-06	1.37776e-09	-2.80795e-06	0.282151	28337.5	13.911	28351.4
0.000796479	60.9909	48.7749	78.0954	-38.6496	20329	0.282013	-0.00995194	4.09684e+06	1.59806e+06	1	11	0.00510127	6.5321e-05	0	-0.0763266	-0.000138441	7.97552e-07	-10.5112	0.0122097	0.0120048	0.00222739	-38.6454	78.1061	61.0029	48.7771	0.0100003	0.00799735	0.0128049	38.6496	1.59806e+09	1.9983e+09	2.55871e+09	-51.3504	0.0000000E+000	0.0000000E+000	0.0000000E+000	51.3504	0.0000000E+000	0.0000000E+000	0.0000000E+000	-51.3504	0.0000000E+000	0.0000000E+000	0.0000000E+000	-38.6496	0.0000000E+000	0.0000000E+000	0.0000000E+000	38.6496	1.25046	51.3504	0.000000000000000E+000	-2.80658e-06	1.37776e-09	-2.80795e-06	0.282151	28337.5	13.911	28351.4
0.000497799	66.971	63.6245	92.3753	-43.5321	20329	0.282013	-0.00995194	5.02506e+06	2.38385e+06	1	11	0.00510085	5.52187e-05	0	-0.0763266	-0.000138441	1.25417e-06	-81.4566	0.0227128	0.0033742	0.0224608	-43.5408	92.3932	66.9744	63.647	0.0078483	0.00745612	0.0108254	43.5321	2.38385e+09	2.50923e+09	3.46107e+09	-46.4679	0.0000000E+000	0.0000000E+000	0.0000000E+000	46.4679	0.0000000E+000	0.0000000E+000	0.0000000E+000	-46.4679	0.0000000E+000	0.0000000E+000	0.0000000E+000	-43.5321	0.0000000E+000	0.0000000E+000	0.0000000E+000	43.5321	1.0526	46.4679	0.000000000000000E+000	-2.80658e-06	1.37776e-09	-2.80795e-06	0.282151	28337.5	13.911	28351.4
0.000298679	71.3969	94.2543	118.243	-52.8563	20329	0.282013	-0.00995194	5.65345e+06	3.59224e+06	1	11	0.00510221	4.31503e-05	0	-0.0763266	-0.000138441	1.67499e-06	-32.2434	0.0388177	0.0328315	0.0207099	-52.8497	118.279	71.4297	94.275	0.00510657	0.00674141	0.00845716	52.8563	3.59224e+09	2.72109e+09	4.5065e+09	-37.1437	0.0000000E+000	0.0000000E+000	0.0000000E+000	37.1437	0.0000000E+000	0.0000000E+000	0.0000000E+000	-37.1437	0.0000000E+000	0.0000000E+000	0.0000000E+000	-52.8563	0.0000000E+000	0.0000000E+000	0.0000000E+000	52.8563	0.757492	37.1436	0.000000000000000E+000	-2.80658e-06	1.37776e-09	-2.80795e-06	0.282151	28337.5	13.911	28351.4
9.95598e-05	183.923	291.866	344.983	-57.7824	20329	0.282013	-0.00995194	5.47713e+06	3.92034e+06	1	11	0.00510058	1.4785e-05	0	-0.0763266	-0.000138441	2.45611e-06	68.192	0.166121	0.0617135	-0.154233	-57.76	344.885	183.985	291.711	0.0015454	0.00245238	0.00289869	57.7824	3.92034e+09	2.47046e+09	4.63381e+09	-32.2176	0.0000000E+000	0.0000000E+000	0.0000000E+000	32.2176	0.0000000E+000	0.0000000E+000	0.0000000E+000	-32.2176	0.0000000E+000	0.0000000E+000	0.0000000E+000	-57.7824	0.0000000E+000	0.0000000E+000	0.0000000E+000	57.7824	0.630164	32.2176	0.000000000000000E+000	-2.80658e-06	1.37776e-09	-2.80795e-06	0.282151	28337.5	13.911	28351.4