File: txt/17449_C05.mpt
EC-Lab ASCII FILE
Nb header lines : 64

Potentio Electrochemical Impedance Spectroscopy

Run on channel : 5 (SN 65912)
User :
CE vs. WE compliance from -10 V to 10 V
Electrode connection : standard
Potential control : Ewe
Ewe ctrl range : min = -10.00 V, max = 10.00 V
Safety Limits :
	Do not start on E overload
Acquisition started on : 09/11/2025 16:16:09.979
Technique started on : 09/11/2025 16:16:12.045
Loaded Setting File :  C:\Users\Celltest\OneDrive - store-dot.com\Documents\EC-Lab\Data\Charmaine\R279\17382_C01.mpr
Saved on :
	File : 17449_C05.mpr
	Directory : C:\Users\Celltest\OneDrive - store-dot.com\Documents\EC-Lab\Data\John\R281\
	Host : 169.254.61.224
Device : VMP-3e (SN .003165)
Address : USB
EC-LAB for windows v11.62 (software)
Internet server v27.00 (firmware)
Command interpretor v12.03 (firmware)
Electrode material :
Initial state :
Electrolyte :
Comments :
Electrode surface area : 0.001 cm²
Characteristic mass : 0.001 g
Equivalent Weight : 0.000 g/eq.
Density : 0.000 g/cm3
Volume (V) : 0.001 cm³
Cycle Definition : Charge/Discharge alternance
Mode                Single sine
E (V)               0.0000
vs.                 Eoc
tE (h:m:s)          0:00:0.0000
record              0
dI                  0.000
unit dI             mA
dt (s)              0.000
fi                  100.000
unit fi             kHz
ff                  10.000
unit ff             mHz
Nd                  6
Points              per decade
spacing             Logarithmic
Va (mV)             5.0
pw                  0.10
Na                  2
corr                0
E range min (V)     -10.000
E range max (V)     10.000
I Range             Auto
Bandwidth           5
nc cycles           0
goto Ns'            0
nr cycles           0
inc. cycle          0

freq/Hz	Re(Z)/Ohm	-Im(Z)/Ohm	|Z|/Ohm	Phase(Z)/deg	time/s	<Ewe>/V	<I>/mA	Cs/µF	Cp/µF	cycle number	I Range	|Ewe|/V	|I|/A	Ns	(Q-Qo)/mA.h	Re(Y)/Ohm-1	Im(Y)/Ohm-1	|Y|/Ohm-1	Phase(Y)/deg	Re(C)/nF	Im(C)/nF	|C|/nF	Phase(C)/deg	Re(M)	Im(M)	|M|	Phase(M)/deg	Re(Permittivity)	Im(Permittivity)	|Permittivity|	Phase(Permittivity)/deg	Re(Resistivity)/Ohm.cm	Im(Resistivity)/Ohm.cm	|Resistivity|/Ohm.cm	Phase(Resistivity)/deg	Re(Conductivity)/mS/cm	Im(Conductivity)/mS/cm	|Conductivity|/mS/cm	Phase(Conductivity)/deg	Tan(Delta)	Loss Angle(Delta)/deg	dq/mA.h	Pwe/W	Rwe/Ohm
100004	1.26488	0.257216	1.29077	-11.4945	2.06647	0.295009	-0.0168353	6.18736	0.2457	1	9	0.00469129	0.00363449	0	-6.73212e-06	0.759194	0.154384	0.774732	11.4945	245.7	1208.25	1232.98	-78.5055	0.0000000E+000	0.0000000E+000	0.0000000E+000	78.5055	0.0000000E+000	0.0000000E+000	0.0000000E+000	-78.5055	0.0000000E+000	0.0000000E+000	0.0000000E+000	-11.4945	0.0000000E+000	0.0000000E+000	0.0000000E+000	11.4945	4.91757	78.5055	-6.73212e-06	-4.96656e-06	17523.3
68132	1.32546	0.285685	1.3559	-12.1633	2.64449	0.294995	-0.0151222	8.17676	0.362996	1	9	0.00504872	0.00372352	0	-2.4865e-06	0.720962	0.155394	0.737518	12.1633	362.996	1684.15	1722.83	-77.8367	0.0000000E+000	0.0000000E+000	0.0000000E+000	77.8367	0.0000000E+000	0.0000000E+000	0.0000000E+000	-77.8367	0.0000000E+000	0.0000000E+000	0.0000000E+000	-12.1633	0.0000000E+000	0.0000000E+000	0.0000000E+000	12.1633	4.63958	77.8367	4.24562e-06	-4.46098e-06	19507.3
46420.4	1.39533	0.319771	1.4315	-12.9077	3.22247	0.294996	-0.0174497	10.7219	0.535015	1	9	0.00504657	0.00352536	0	-1.24219e-06	0.680914	0.156047	0.698566	12.9077	535.015	2334.55	2395.07	-77.0923	0.0000000E+000	0.0000000E+000	0.0000000E+000	77.0923	0.0000000E+000	0.0000000E+000	0.0000000E+000	-77.0923	0.0000000E+000	0.0000000E+000	0.0000000E+000	-12.9077	0.0000000E+000	0.0000000E+000	0.0000000E+000	12.9077	4.36353	77.0923	1.24431e-06	-5.1476e-06	16905.5
31621.1	1.47033	0.365971	1.51519	-13.9772	3.80149	0.294986	-0.0201496	13.7529	0.802336	1	9	0.00513298	0.00338769	0	-8.74368e-06	0.640443	0.159409	0.659984	13.9772	802.336	3223.47	3321.82	-76.0228	0.0000000E+000	0.0000000E+000	0.0000000E+000	76.0228	0.0000000E+000	0.0000000E+000	0.0000000E+000	-76.0228	0.0000000E+000	0.0000000E+000	0.0000000E+000	-13.9772	0.0000000E+000	0.0000000E+000	0.0000000E+000	13.9772	4.0176	76.0228	-7.50149e-06	-5.94386e-06	14639.8
21544.7	1.555	0.414003	1.60917	-14.9086	4.23849	0.294985	-0.0194793	17.8434	1.18109	1	9	0.0051567	0.00320458	0	-8.77762e-06	0.600521	0.159883	0.62144	14.9086	1181.09	4436.17	4590.7	-75.0914	0.0000000E+000	0.0000000E+000	0.0000000E+000	75.0914	0.0000000E+000	0.0000000E+000	0.0000000E+000	-75.0914	0.0000000E+000	0.0000000E+000	0.0000000E+000	-14.9086	0.0000000E+000	0.0000000E+000	0.0000000E+000	14.9086	3.75601	75.0914	-3.3938e-08	-5.74611e-06	15143.5
14678.6	1.64829	0.472958	1.7148	-16.0103	4.53448	0.294988	-0.0178221	22.9252	1.74394	1	9	0.00502333	0.0029294	0	-8.65429e-06	0.560539	0.160841	0.583159	16.0103	1743.94	6077.73	6322.99	-73.9897	0.0000000E+000	0.0000000E+000	0.0000000E+000	73.9897	0.0000000E+000	0.0000000E+000	0.0000000E+000	-73.9897	0.0000000E+000	0.0000000E+000	0.0000000E+000	-16.0103	0.0000000E+000	0.0000000E+000	0.0000000E+000	16.0103	3.48506	73.9897	1.2333e-07	-5.25732e-06	16551.8
10002.2	1.758	0.5391	1.8388	-17.0484	4.8305	0.294989	-0.017729	29.5158	2.53701	1	9	0.00471253	0.00256282	0	-1.12107e-05	0.519935	0.159441	0.543832	17.0484	2537.01	8273.18	8653.43	-72.9516	0.0000000E+000	0.0000000E+000	0.0000000E+000	72.9516	0.0000000E+000	0.0000000E+000	0.0000000E+000	-72.9516	0.0000000E+000	0.0000000E+000	0.0000000E+000	-17.0484	0.0000000E+000	0.0000000E+000	0.0000000E+000	17.0484	3.26099	72.9516	-2.55637e-06	-5.22988e-06	16638.7
6811.07	1.88337	0.624543	1.98422	-18.346	5.20852	0.294815	-0.118556	37.4147	3.70669	1	9	0.0045237	0.00227984	0	-2.34789e-05	0.47836	0.158629	0.503976	18.346	3706.69	11177.9	11776.5	-71.654	0.0000000E+000	0.0000000E+000	0.0000000E+000	71.654	0.0000000E+000	0.0000000E+000	0.0000000E+000	-71.654	0.0000000E+000	0.0000000E+000	0.0000000E+000	-18.346	0.0000000E+000	0.0000000E+000	0.0000000E+000	18.346	3.0156	71.654	-1.22683e-05	-3.49521e-05	2486.72
4641.49	2.02264	0.712938	2.14461	-19.4165	5.90267	0.294993	0.0157681	48.0962	5.31517	1	9	0.00506502	0.00236174	0	-2.44826e-05	0.439765	0.155008	0.466284	19.4165	5315.16	15079.4	15988.7	-70.5835	0.0000000E+000	0.0000000E+000	0.0000000E+000	70.5835	0.0000000E+000	0.0000000E+000	0.0000000E+000	-70.5835	0.0000000E+000	0.0000000E+000	0.0000000E+000	-19.4165	0.0000000E+000	0.0000000E+000	0.0000000E+000	19.4165	2.83705	70.5835	-1.00365e-06	4.65149e-06	18708.1
3161.01	2.17886	0.82561	2.33003	-20.7526	6.36968	0.294999	0.0147254	60.9845	7.65676	1	9	0.00498964	0.00214145	0	-2.21997e-05	0.401333	0.152073	0.429179	20.7526	7656.76	20206.9	21608.9	-69.2474	0.0000000E+000	0.0000000E+000	0.0000000E+000	69.2474	0.0000000E+000	0.0000000E+000	0.0000000E+000	-69.2474	0.0000000E+000	0.0000000E+000	0.0000000E+000	-20.7526	0.0000000E+000	0.0000000E+000	0.0000000E+000	20.7526	2.63909	69.2474	2.28286e-06	4.34399e-06	20033.3
2155.69	2.36637	0.958224	2.55302	-22.0447	6.83669	0.295	0.0109083	77.049	10.854	1	9	0.00494685	0.00193764	0	-2.26453e-05	0.363057	0.147014	0.391693	22.0447	10854	26804.5	28918.7	-67.9553	0.0000000E+000	0.0000000E+000	0.0000000E+000	67.9553	0.0000000E+000	0.0000000E+000	0.0000000E+000	-67.9553	0.0000000E+000	0.0000000E+000	0.0000000E+000	-22.0447	0.0000000E+000	0.0000000E+000	0.0000000E+000	22.0447	2.46954	67.9553	-4.45576e-07	3.21795e-06	27043.5
1468.59	2.55718	1.11809	2.79093	-23.6166	7.30394	0.294996	0.0128076	96.9269	15.556	1	9	0.00492242	0.00176372	0	-2.23029e-05	0.328295	0.143542	0.358304	23.6166	15556	35578.2	38830.3	-66.3834	0.0000000E+000	0.0000000E+000	0.0000000E+000	66.3834	0.0000000E+000	0.0000000E+000	0.0000000E+000	-66.3834	0.0000000E+000	0.0000000E+000	0.0000000E+000	-23.6166	0.0000000E+000	0.0000000E+000	0.0000000E+000	23.6166	2.2871	66.3834	3.42329e-07	3.77819e-06	23033
1000.32	2.77222	1.32558	3.07285	-25.5555	7.77268	0.294998	0.01264	120.026	22.336	1	9	0.00490114	0.00159498	0	-2.04967e-05	0.293593	0.140386	0.325431	25.5555	22336	46711.9	51777.4	-64.4445	0.0000000E+000	0.0000000E+000	0.0000000E+000	64.4445	0.0000000E+000	0.0000000E+000	0.0000000E+000	-64.4445	0.0000000E+000	0.0000000E+000	0.0000000E+000	-25.5555	0.0000000E+000	0.0000000E+000	0.0000000E+000	25.5555	2.09133	64.4445	1.80625e-06	3.72877e-06	23338.5
681.09	2.99823	1.5995	3.3982	-28.0792	8.49242	0.294959	-0.0143503	146.093	32.367	1	10	0.00496699	0.00146165	0	-2.21346e-05	0.259637	0.138512	0.294273	28.0792	32367	60671.1	68764.9	-61.9208	0.0000000E+000	0.0000000E+000	0.0000000E+000	61.9208	0.0000000E+000	0.0000000E+000	0.0000000E+000	-61.9208	0.0000000E+000	0.0000000E+000	0.0000000E+000	-28.0792	0.0000000E+000	0.0000000E+000	0.0000000E+000	28.0792	1.87447	61.9208	-1.63791e-06	-4.23275e-06	20554.2
463.961	3.2867	1.97965	3.83685	-31.0614	8.96122	0.294965	-0.013708	173.281	46.1293	1	10	0.00493266	0.0012856	0	-2.41686e-05	0.22326	0.134474	0.26063	31.0614	46129.3	76586	89405.4	-58.9386	0.0000000E+000	0.0000000E+000	0.0000000E+000	58.9386	0.0000000E+000	0.0000000E+000	0.0000000E+000	-58.9386	0.0000000E+000	0.0000000E+000	0.0000000E+000	-31.0614	0.0000000E+000	0.0000000E+000	0.0000000E+000	31.0614	1.66024	58.9386	-2.03402e-06	-4.04338e-06	21517.7
316.316	3.66884	2.48963	4.4338	-34.1603	9.42793	0.294962	-0.0133133	202.099	63.7207	1	10	0.00490832	0.00110702	0	-2.55821e-05	0.186627	0.126643	0.22554	34.1603	63720.7	93901.9	113481	-55.8397	0.0000000E+000	0.0000000E+000	0.0000000E+000	55.8397	0.0000000E+000	0.0000000E+000	0.0000000E+000	-55.8397	0.0000000E+000	0.0000000E+000	0.0000000E+000	-34.1603	0.0000000E+000	0.0000000E+000	0.0000000E+000	34.1603	1.47365	55.8397	-1.41345e-06	-3.92692e-06	22155.4
215.345	4.20891	3.14629	5.2549	-36.7792	9.89545	0.294958	-0.0137061	234.903	84.2083	1	10	0.00489714	0.000931918	0	-2.63809e-05	0.152419	0.113938	0.190298	36.7792	84208.3	112649	140644	-53.2208	0.0000000E+000	0.0000000E+000	0.0000000E+000	53.2208	0.0000000E+000	0.0000000E+000	0.0000000E+000	-53.2208	0.0000000E+000	0.0000000E+000	0.0000000E+000	-36.7792	0.0000000E+000	0.0000000E+000	0.0000000E+000	36.7792	1.33774	53.2208	-7.98853e-07	-4.04273e-06	21520.1
146.737	4.98828	3.92474	6.34717	-38.1954	10.3584	0.294954	-0.0145849	276.355	105.665	1	10	0.00488883	0.000770238	0	-2.83472e-05	0.12382	0.0974208	0.157551	38.1954	105665	134298	170883	-51.8046	0.0000000E+000	0.0000000E+000	0.0000000E+000	51.8046	0.0000000E+000	0.0000000E+000	0.0000000E+000	-51.8046	0.0000000E+000	0.0000000E+000	0.0000000E+000	-38.1954	0.0000000E+000	0.0000000E+000	0.0000000E+000	38.1954	1.27098	51.8046	-1.96633e-06	-4.30187e-06	20223.3
100.032	6.06213	4.76497	7.71066	-38.1681	10.8257	0.294963	-0.0134958	333.904	127.514	1	10	0.00488002	0.000632892	0	-3.04955e-05	0.101963	0.080145	0.12969	38.1681	127514	162227	206343	-51.8319	0.0000000E+000	0.0000000E+000	0.0000000E+000	51.8319	0.0000000E+000	0.0000000E+000	0.0000000E+000	-51.8319	0.0000000E+000	0.0000000E+000	0.0000000E+000	-38.1681	0.0000000E+000	0.0000000E+000	0.0000000E+000	38.1681	1.27223	51.8319	-2.14822e-06	-3.98075e-06	21855.9
68.104	7.47378	5.52766	9.29583	-36.4869	11.3043	0.294963	-0.0122224	422.772	149.49	1	10	0.00487147	0.00052405	0	-3.24029e-05	0.0864897	0.0639683	0.107575	36.4869	149490	202121	251397	-53.5131	0.0000000E+000	0.0000000E+000	0.0000000E+000	53.5131	0.0000000E+000	0.0000000E+000	0.0000000E+000	-53.5131	0.0000000E+000	0.0000000E+000	0.0000000E+000	-36.4869	0.0000000E+000	0.0000000E+000	0.0000000E+000	36.4869	1.35207	53.5131	-1.90744e-06	-3.60515e-06	24133
46.4415	9.17947	6.13787	11.0425	-33.7687	11.7595	0.294962	-0.0156516	558.336	172.504	1	10	0.00487587	0.000441557	0	-3.4346e-05	0.075281	0.0503368	0.0905595	33.7687	172504	257988	310347	-56.2313	0.0000000E+000	0.0000000E+000	0.0000000E+000	56.2313	0.0000000E+000	0.0000000E+000	0.0000000E+000	-56.2313	0.0000000E+000	0.0000000E+000	0.0000000E+000	-33.7687	0.0000000E+000	0.0000000E+000	0.0000000E+000	33.7687	1.49555	56.2313	-1.94308e-06	-4.61664e-06	18845.4
31.6296	11.0594	6.43599	12.7958	-30.1971	12.2064	0.294958	-0.0173961	781.829	197.792	1	10	0.00486923	0.000380534	0	-3.62285e-05	0.0675457	0.039308	0.0781507	30.1971	197792	339879	393242	-59.8029	0.0000000E+000	0.0000000E+000	0.0000000E+000	59.8029	0.0000000E+000	0.0000000E+000	0.0000000E+000	-59.8029	0.0000000E+000	0.0000000E+000	0.0000000E+000	-30.1971	0.0000000E+000	0.0000000E+000	0.0000000E+000	30.1971	1.71837	59.8029	-1.88255e-06	-5.13111e-06	16955.4
21.5517	13.0209	6.46567	14.5378	-26.4072	12.6454	0.294949	-0.0194514	1142.15	225.919	1	10	0.00487225	0.000335143	0	-3.82508e-05	0.0616086	0.0305924	0.068786	26.4072	225919	454967	507970	-63.5928	0.0000000E+000	0.0000000E+000	0.0000000E+000	63.5928	0.0000000E+000	0.0000000E+000	0.0000000E+000	-63.5928	0.0000000E+000	0.0000000E+000	0.0000000E+000	-26.4072	0.0000000E+000	0.0000000E+000	0.0000000E+000	26.4072	2.01385	63.5928	-2.02229e-06	-5.73716e-06	15163.4
14.6852	14.8786	6.19743	16.1177	-22.6133	13.383	0.294978	-0.00697749	1748.76	258.55	1	11	0.00486949	0.00030212	0	-4.25977e-05	0.0572736	0.0238563	0.0620435	22.6133	258550	620721	672415	-67.3867	0.0000000E+000	0.0000000E+000	0.0000000E+000	67.3867	0.0000000E+000	0.0000000E+000	0.0000000E+000	-67.3867	0.0000000E+000	0.0000000E+000	0.0000000E+000	-22.6133	0.0000000E+000	0.0000000E+000	0.0000000E+000	22.6133	2.40077	67.3867	-4.34687e-06	-2.05821e-06	42275.7
10.0032	16.5154	5.72995	17.4812	-19.134	13.8517	0.294976	-0.00731351	2776.71	298.325	1	11	0.00486665	0.000278394	0	-4.27645e-05	0.0540441	0.0187503	0.0572044	19.134	298325	859863	910145	-70.866	0.0000000E+000	0.0000000E+000	0.0000000E+000	70.866	0.0000000E+000	0.0000000E+000	0.0000000E+000	-70.866	0.0000000E+000	0.0000000E+000	0.0000000E+000	-19.134	0.0000000E+000	0.0000000E+000	0.0000000E+000	19.134	2.8823	70.866	-1.66847e-07	-2.15731e-06	40333.1
6.81719	17.9839	5.14285	18.7048	-15.9589	14.2094	0.294959	-0.0092775	4539.53	343.172	1	11	0.00486758	0.000260231	0	-4.31136e-05	0.0514017	0.0146993	0.0534622	15.9589	343172	1.20003e+06	1.24813e+06	-74.0411	0.0000000E+000	0.0000000E+000	0.0000000E+000	74.0411	0.0000000E+000	0.0000000E+000	0.0000000E+000	-74.0411	0.0000000E+000	0.0000000E+000	0.0000000E+000	-15.9589	0.0000000E+000	0.0000000E+000	0.0000000E+000	15.9589	3.49688	74.0411	-3.49022e-07	-2.73648e-06	31793
4.63925	19.1627	4.56967	19.7	-13.4127	14.7113	0.294978	-0.00685537	7507.37	403.948	1	11	0.00486568	0.000246989	0	-4.24508e-05	0.0493769	0.0117748	0.0507615	13.4127	403948	1.69393e+06	1.74143e+06	-76.5873	0.0000000E+000	0.0000000E+000	0.0000000E+000	76.5873	0.0000000E+000	0.0000000E+000	0.0000000E+000	-76.5873	0.0000000E+000	0.0000000E+000	0.0000000E+000	-13.4127	0.0000000E+000	0.0000000E+000	0.0000000E+000	13.4127	4.19345	76.5873	6.62807e-07	-2.02218e-06	43028.8
3.1604	20.1742	4.08333	20.5833	-11.4423	15.4202	0.294974	-0.00656058	12332.9	485.359	1	11	0.00486967	0.000236584	0	-4.77169e-05	0.0476175	0.00963794	0.0485831	11.4423	485359	2.39798e+06	2.4466e+06	-78.5577	0.0000000E+000	0.0000000E+000	0.0000000E+000	78.5577	0.0000000E+000	0.0000000E+000	0.0000000E+000	-78.5577	0.0000000E+000	0.0000000E+000	0.0000000E+000	-11.4423	0.0000000E+000	0.0000000E+000	0.0000000E+000	11.4423	4.94063	78.5577	-5.26613e-06	-1.9352e-06	44961.5
2.15577	21.0668	3.57734	21.3684	-9.63742	16.4358	0.29499	-0.00585643	20637.5	578.408	1	11	0.00487196	0.000227998	0	-5.13722e-05	0.0461376	0.00783458	0.046798	9.63742	578408	3.40622e+06	3.45498e+06	-80.3626	0.0000000E+000	0.0000000E+000	0.0000000E+000	80.3626	0.0000000E+000	0.0000000E+000	0.0000000E+000	-80.3626	0.0000000E+000	0.0000000E+000	0.0000000E+000	-9.63742	0.0000000E+000	0.0000000E+000	0.0000000E+000	9.63742	5.88896	80.3626	-3.65527e-06	-1.72759e-06	50370.3
1.46631	21.7957	3.19484	22.0286	-8.33909	17.909	0.294995	-0.00570467	33973.8	714.609	1	11	0.00487335	0.000221228	0	-4.99375e-05	0.0449155	0.00658376	0.0453954	8.33909	714609	4.87518e+06	4.92727e+06	-81.6609	0.0000000E+000	0.0000000E+000	0.0000000E+000	81.6609	0.0000000E+000	0.0000000E+000	0.0000000E+000	-81.6609	0.0000000E+000	0.0000000E+000	0.0000000E+000	-8.33909	0.0000000E+000	0.0000000E+000	0.0000000E+000	8.33909	6.82216	81.6609	1.43469e-06	-1.68285e-06	51711.2
1.00006	22.398	2.88115	22.5826	-7.32993	21.1002	0.295002	-0.00448817	55236.6	899.107	1	12	0.00487285	0.000215779	0	-4.58869e-05	0.0439201	0.00564962	0.044282	7.32993	899107	6.98965e+06	7.04724e+06	-82.6701	0.0000000E+000	0.0000000E+000	0.0000000E+000	82.6701	0.0000000E+000	0.0000000E+000	0.0000000E+000	-82.6701	0.0000000E+000	0.0000000E+000	0.0000000E+000	-7.32993	0.0000000E+000	0.0000000E+000	0.0000000E+000	7.32993	7.774	82.6701	4.05062e-06	-1.32402e-06	65728.7
0.681362	22.959	2.65598	23.1121	-6.59885	24.2201	0.294989	-0.00401921	87946.2	1161.41	1	12	0.00487362	0.000210869	0	-4.50774e-05	0.0429807	0.00497216	0.0432673	6.59885	1.16141e+06	1.00396e+07	1.01065e+07	-83.4012	0.0000000E+000	0.0000000E+000	0.0000000E+000	83.4012	0.0000000E+000	0.0000000E+000	0.0000000E+000	-83.4012	0.0000000E+000	0.0000000E+000	0.0000000E+000	-6.59885	0.0000000E+000	0.0000000E+000	0.0000000E+000	6.59885	8.64427	83.4012	8.09489e-07	-1.18563e-06	73394.8
0.464091	23.4505	2.60226	23.5945	-6.33209	28.7849	0.295002	-0.00309429	131785	1603.05	1	12	0.00487527	0.000206627	0	-5.39357e-05	0.0421242	0.00467444	0.0423828	6.33209	1.60305e+06	1.44461e+07	1.45347e+07	-83.6679	0.0000000E+000	0.0000000E+000	0.0000000E+000	83.6679	0.0000000E+000	0.0000000E+000	0.0000000E+000	-83.6679	0.0000000E+000	0.0000000E+000	0.0000000E+000	-6.33209	0.0000000E+000	0.0000000E+000	0.0000000E+000	6.33209	9.01161	83.6679	-8.8583e-06	-9.1282e-07	95337.5
0.316193	23.8897	2.66277	24.0377	-6.35998	35.4672	0.295003	-0.00267475	189032	2319.61	1	12	0.00487152	0.000202662	0	-7.62121e-05	0.0413453	0.00460838	0.0416013	6.35998	2.31961e+06	2.08111e+07	2.09399e+07	-83.64	0.0000000E+000	0.0000000E+000	0.0000000E+000	83.64	0.0000000E+000	0.0000000E+000	0.0000000E+000	-83.64	0.0000000E+000	0.0000000E+000	0.0000000E+000	-6.35998	0.0000000E+000	0.0000000E+000	0.0000000E+000	6.35998	8.97177	83.64	-2.22765e-05	-7.8906e-07	110292
0.215268	24.4052	2.85135	24.5712	-6.66386	45.2649	0.295	-0.00274052	259293	3491.7	1	12	0.00487303	0.000198322	0	-0.00011014	0.040423	0.00472277	0.040698	6.66386	3.49171e+06	2.98861e+07	3.00894e+07	-83.3361	0.0000000E+000	0.0000000E+000	0.0000000E+000	83.3361	0.0000000E+000	0.0000000E+000	0.0000000E+000	-83.3361	0.0000000E+000	0.0000000E+000	0.0000000E+000	-6.66386	0.0000000E+000	0.0000000E+000	0.0000000E+000	6.66386	8.55918	83.3361	-3.39275e-05	-8.08454e-07	107644
0.146929	25.0487	3.26274	25.2603	-7.42135	59.6006	0.295004	-0.00301008	331994	5538.86	1	12	0.00487311	0.000192916	0	-0.000144988	0.0392563	0.00511337	0.0395879	7.42135	5.53886e+06	4.25228e+07	4.2882e+07	-82.5787	0.0000000E+000	0.0000000E+000	0.0000000E+000	82.5787	0.0000000E+000	0.0000000E+000	0.0000000E+000	-82.5787	0.0000000E+000	0.0000000E+000	0.0000000E+000	-7.42135	0.0000000E+000	0.0000000E+000	0.0000000E+000	7.42135	7.67718	82.5787	-3.48478e-05	-8.87983e-07	98005.4
0.0999041	25.8188	3.88972	26.1101	-8.56744	80.6715	0.295005	-0.00344212	409561	9089.43	1	12	0.00487407	0.000186673	0	-0.000162768	0.0378719	0.00570558	0.0382993	8.56744	9.08943e+06	6.03329e+07	6.10138e+07	-81.4326	0.0000000E+000	0.0000000E+000	0.0000000E+000	81.4326	0.0000000E+000	0.0000000E+000	0.0000000E+000	-81.4326	0.0000000E+000	0.0000000E+000	0.0000000E+000	-8.56744	0.0000000E+000	0.0000000E+000	0.0000000E+000	8.56744	6.6377	81.4326	-1.77801e-05	-1.01544e-06	85704.4
0.0680626	26.7362	4.67788	27.1423	-9.92426	111.583	0.295006	-0.00342767	499876	14847.9	1	12	0.0048752	0.000179616	0	-0.000149084	0.0362915	0.00634971	0.0368428	9.92426	1.48479e+07	8.48626e+07	8.61518e+07	-80.0757	0.0000000E+000	0.0000000E+000	0.0000000E+000	80.0757	0.0000000E+000	0.0000000E+000	0.0000000E+000	-80.0757	0.0000000E+000	0.0000000E+000	0.0000000E+000	-9.92426	0.0000000E+000	0.0000000E+000	0.0000000E+000	9.92426	5.71545	80.0757	1.36838e-05	-1.01118e-06	86066.1
0.0464052	27.7822	5.47535	28.3166	-11.149	156.908	0.295003	-0.00252481	626386	23419.8	1	12	0.00487401	0.000172126	0	-7.97409e-05	0.0346485	0.00682858	0.035315	11.149	2.34198e+07	1.18833e+08	1.21119e+08	-78.851	0.0000000E+000	0.0000000E+000	0.0000000E+000	78.851	0.0000000E+000	0.0000000E+000	0.0000000E+000	-78.851	0.0000000E+000	0.0000000E+000	0.0000000E+000	-11.149	0.0000000E+000	0.0000000E+000	0.0000000E+000	11.149	5.07405	78.851	6.93429e-05	-7.44829e-07	116842
0.0315922	29.129	6.45674	29.836	-12.4981	223.468	0.295005	-0.00114359	780238	36540.2	1	12	0.00487441	0.000163373	0	2.72935e-05	0.0327223	0.00725322	0.0335165	12.4981	3.65402e+07	1.64848e+08	1.68849e+08	-77.5019	0.0000000E+000	0.0000000E+000	0.0000000E+000	77.5019	0.0000000E+000	0.0000000E+000	0.0000000E+000	-77.5019	0.0000000E+000	0.0000000E+000	0.0000000E+000	-12.4981	0.0000000E+000	0.0000000E+000	0.0000000E+000	12.4981	4.51141	77.5019	0.000107034	-3.37366e-07	257964
0.0215268	30.622	7.82768	31.6066	-14.3391	321.136	0.295007	0.000166921	944514	57931.9	1	12	0.00487323	0.000154184	0	0.000115399	0.0306533	0.00783568	0.0316389	14.3391	5.79319e+07	2.2663e+08	2.33918e+08	-75.6609	0.0000000E+000	0.0000000E+000	0.0000000E+000	75.6609	0.0000000E+000	0.0000000E+000	0.0000000E+000	-75.6609	0.0000000E+000	0.0000000E+000	0.0000000E+000	-14.3391	0.0000000E+000	0.0000000E+000	0.0000000E+000	14.3391	3.91201	75.6609	8.81051e-05	4.92428e-08	1.76735e+06
0.0146812	32.0851	9.72504	33.5265	-16.8621	464.331	0.295005	0.000793069	1.11473e+06	93793.6	1	12	0.00487171	0.000145309	0	8.3331e-05	0.0285447	0.00865195	0.0298271	16.8621	9.37936e+07	3.09446e+08	3.23348e+08	-73.1379	0.0000000E+000	0.0000000E+000	0.0000000E+000	73.1379	0.0000000E+000	0.0000000E+000	0.0000000E+000	-73.1379	0.0000000E+000	0.0000000E+000	0.0000000E+000	-16.8621	0.0000000E+000	0.0000000E+000	0.0000000E+000	16.8621	3.29922	73.1379	-3.20677e-05	2.3396e-07	371979
0.0100092	33.5808	12.1021	35.6949	-19.8186	674.351	0.295008	0.00056806	1.31389e+06	151033	1	12	0.00487272	0.00013651	0	-0.00018077	0.0263559	0.00949835	0.0280152	19.8186	1.51033e+08	4.19082e+08	4.45467e+08	-70.1814	0.0000000E+000	0.0000000E+000	0.0000000E+000	70.1814	0.0000000E+000	0.0000000E+000	0.0000000E+000	-70.1814	0.0000000E+000	0.0000000E+000	0.0000000E+000	-19.8186	0.0000000E+000	0.0000000E+000	0.0000000E+000	19.8186	2.77478	70.1814	-0.000264101	1.67582e-07	519325