File: txt/17452_C08.mpt
EC-Lab ASCII FILE
Nb header lines : 64

Potentio Electrochemical Impedance Spectroscopy

Run on channel : 8 (SN 65398)
User :
CE vs. WE compliance from -10 V to 10 V
Electrode connection : standard
Potential control : Ewe
Ewe ctrl range : min = -10.00 V, max = 10.00 V
Safety Limits :
	Do not start on E overload
Acquisition started on : 09/11/2025 16:16:39.416
Technique started on : 09/11/2025 16:16:41.297
Loaded Setting File :  C:\Users\Celltest\OneDrive - store-dot.com\Documents\EC-Lab\Data\Charmaine\R279\17383_C02.mpr
Saved on :
	File : 17452_C08.mpr
	Directory : C:\Users\Celltest\OneDrive - store-dot.com\Documents\EC-Lab\Data\John\R281\
	Host : 169.254.61.224
Device : VMP-3e (SN .003165)
Address : USB
EC-LAB for windows v11.62 (software)
Internet server v27.00 (firmware)
Command interpretor v12.03 (firmware)
Electrode material :
Initial state :
Electrolyte :
Comments :
Electrode surface area : 0.001 cm²
Characteristic mass : 0.001 g
Equivalent Weight : 0.000 g/eq.
Density : 0.000 g/cm3
Volume (V) : 0.001 cm³
Cycle Definition : Charge/Discharge alternance
Mode                Single sine
E (V)               0.0000
vs.                 Eoc
tE (h:m:s)          0:00:0.0000
record              0
dI                  0.000
unit dI             mA
dt (s)              0.000
fi                  100.000
unit fi             kHz
ff                  10.000
unit ff             mHz
Nd                  6
Points              per decade
spacing             Logarithmic
Va (mV)             5.0
pw                  0.10
Na                  2
corr                0
E range min (V)     -10.000
E range max (V)     10.000
I Range             Auto
Bandwidth           5
nc cycles           0
goto Ns'            0
nr cycles           0
inc. cycle          0

freq/Hz	Re(Z)/Ohm	-Im(Z)/Ohm	|Z|/Ohm	Phase(Z)/deg	time/s	<Ewe>/V	<I>/mA	Cs/µF	Cp/µF	cycle number	I Range	|Ewe|/V	|I|/A	Ns	(Q-Qo)/mA.h	Re(Y)/Ohm-1	Im(Y)/Ohm-1	|Y|/Ohm-1	Phase(Y)/deg	Re(C)/nF	Im(C)/nF	|C|/nF	Phase(C)/deg	Re(M)	Im(M)	|M|	Phase(M)/deg	Re(Permittivity)	Im(Permittivity)	|Permittivity|	Phase(Permittivity)/deg	Re(Resistivity)/Ohm.cm	Im(Resistivity)/Ohm.cm	|Resistivity|/Ohm.cm	Phase(Resistivity)/deg	Re(Conductivity)/mS/cm	Im(Conductivity)/mS/cm	|Conductivity|/mS/cm	Phase(Conductivity)/deg	Tan(Delta)	Loss Angle(Delta)/deg	dq/mA.h	Pwe/W	Rwe/Ohm
100004	1.45249	0.255792	1.47484	-9.9877	1.88148	0.299997	0.0255417	6.22182	0.187155	1	9	0.00475632	0.00322497	0	-1.25172e-06	0.667764	0.117597	0.678039	9.9877	187.154	1062.74	1079.09	-80.0123	0.0000000E+000	0.0000000E+000	0.0000000E+000	80.0123	0.0000000E+000	0.0000000E+000	0.0000000E+000	-80.0123	0.0000000E+000	0.0000000E+000	0.0000000E+000	-9.9877	0.0000000E+000	0.0000000E+000	0.0000000E+000	9.9877	5.67841	80.0123	-1.25172e-06	7.66246e-06	11745.4
68132	1.51189	0.293664	1.54015	-10.9921	2.45949	0.299993	0.0250767	7.95459	0.289198	1	9	0.00504503	0.00327568	0	-2.82683e-06	0.637377	0.123802	0.649289	10.9921	289.198	1488.9	1516.72	-79.0079	0.0000000E+000	0.0000000E+000	0.0000000E+000	79.0079	0.0000000E+000	0.0000000E+000	0.0000000E+000	-79.0079	0.0000000E+000	0.0000000E+000	0.0000000E+000	-10.9921	0.0000000E+000	0.0000000E+000	0.0000000E+000	10.9921	5.14836	79.0079	-1.57511e-06	7.52284e-06	11963
46420.4	1.58472	0.326543	1.61801	-11.6433	3.03749	0.299998	0.0223238	10.4996	0.427651	1	9	0.00506894	0.00313282	0	1.2012e-05	0.605326	0.124732	0.618043	11.6433	427.651	2075.39	2119	-78.3567	0.0000000E+000	0.0000000E+000	0.0000000E+000	78.3567	0.0000000E+000	0.0000000E+000	0.0000000E+000	-78.3567	0.0000000E+000	0.0000000E+000	0.0000000E+000	-11.6433	0.0000000E+000	0.0000000E+000	0.0000000E+000	11.6433	4.85301	78.3567	1.48388e-05	6.69708e-06	13438.5
31621.1	1.66373	0.378361	1.70621	-12.8121	3.61549	0.299996	0.0249279	13.3026	0.654158	1	9	0.00508892	0.00298258	0	2.17748e-05	0.571502	0.129969	0.586094	12.8121	654.158	2876.47	2949.92	-77.1879	0.0000000E+000	0.0000000E+000	0.0000000E+000	77.1879	0.0000000E+000	0.0000000E+000	0.0000000E+000	-77.1879	0.0000000E+000	0.0000000E+000	0.0000000E+000	-12.8121	0.0000000E+000	0.0000000E+000	0.0000000E+000	12.8121	4.39721	77.1879	9.76282e-06	7.47826e-06	12034.5
21544.7	1.75195	0.43524	1.80521	-13.9516	4.0525	0.299992	0.0232352	16.9727	0.98663	1	9	0.0050527	0.00279896	0	2.81898e-05	0.537611	0.133559	0.553953	13.9516	986.63	3971.44	4092.16	-76.0484	0.0000000E+000	0.0000000E+000	0.0000000E+000	76.0484	0.0000000E+000	0.0000000E+000	0.0000000E+000	-76.0484	0.0000000E+000	0.0000000E+000	0.0000000E+000	-13.9516	0.0000000E+000	0.0000000E+000	0.0000000E+000	13.9516	4.02526	76.0484	6.41501e-06	6.97039e-06	12911.1
14678.6	1.85209	0.492113	1.91635	-14.8801	4.4895	0.299992	0.0246489	22.0329	1.45295	1	9	0.00502447	0.00262189	0	3.08573e-05	0.504326	0.134003	0.521825	14.8801	1452.95	5468.23	5657.97	-75.1199	0.0000000E+000	0.0000000E+000	0.0000000E+000	75.1199	0.0000000E+000	0.0000000E+000	0.0000000E+000	-75.1199	0.0000000E+000	0.0000000E+000	0.0000000E+000	-14.8801	0.0000000E+000	0.0000000E+000	0.0000000E+000	14.8801	3.76354	75.1199	2.66744e-06	7.39447e-06	12170.6
10002.2	1.95712	0.564367	2.03686	-16.0858	4.78549	0.299989	0.0262858	28.1943	2.16452	1	9	0.00453817	0.00222802	0	3.18007e-05	0.471729	0.136031	0.490951	16.0858	2164.52	7506.13	7811.98	-73.9142	0.0000000E+000	0.0000000E+000	0.0000000E+000	73.9142	0.0000000E+000	0.0000000E+000	0.0000000E+000	-73.9142	0.0000000E+000	0.0000000E+000	0.0000000E+000	-16.0858	0.0000000E+000	0.0000000E+000	0.0000000E+000	16.0858	3.46781	73.9142	9.4345e-07	7.88544e-06	11412.6
6811.07	2.09035	0.656961	2.19115	-17.4471	5.3405	0.299718	-0.10115	35.5685	3.19742	1	9	0.00485342	0.00221501	0	1.49011e-05	0.435385	0.136834	0.456381	17.4471	3197.42	10173.7	10664.3	-72.5529	0.0000000E+000	0.0000000E+000	0.0000000E+000	72.5529	0.0000000E+000	0.0000000E+000	0.0000000E+000	-72.5529	0.0000000E+000	0.0000000E+000	0.0000000E+000	-17.4471	0.0000000E+000	0.0000000E+000	0.0000000E+000	17.4471	3.18184	72.5529	-1.68997e-05	-3.03166e-05	2963.09
4641.49	2.23676	0.763805	2.36357	-18.854	5.81171	0.300047	0.0865906	44.8932	4.68822	1	9	0.00474129	0.00200599	0	2.64452e-05	0.400388	0.136724	0.423088	18.854	4688.22	13729.2	14507.6	-71.146	0.0000000E+000	0.0000000E+000	0.0000000E+000	71.146	0.0000000E+000	0.0000000E+000	0.0000000E+000	-71.146	0.0000000E+000	0.0000000E+000	0.0000000E+000	-18.854	0.0000000E+000	0.0000000E+000	0.0000000E+000	18.854	2.92844	71.146	1.15441e-05	2.59812e-05	3465.12
3161.01	2.40535	0.87527	2.55965	-19.9957	6.27867	0.30004	0.0874276	57.5244	6.72628	1	9	0.00468057	0.0018286	0	3.48935e-05	0.367128	0.133592	0.390678	19.9957	6726.28	18484.7	19670.4	-70.0043	0.0000000E+000	0.0000000E+000	0.0000000E+000	70.0043	0.0000000E+000	0.0000000E+000	0.0000000E+000	-70.0043	0.0000000E+000	0.0000000E+000	0.0000000E+000	-19.9957	0.0000000E+000	0.0000000E+000	0.0000000E+000	19.9957	2.74812	70.0043	8.44833e-06	2.62318e-05	3431.87
2155.69	2.5975	1.01407	2.78843	-21.3257	6.74568	0.300043	0.0874834	72.8058	9.62899	1	9	0.00465214	0.00166837	0	4.55991e-05	0.334069	0.130421	0.358624	21.3257	9628.99	24664.3	26477.3	-68.6743	0.0000000E+000	0.0000000E+000	0.0000000E+000	68.6743	0.0000000E+000	0.0000000E+000	0.0000000E+000	-68.6743	0.0000000E+000	0.0000000E+000	0.0000000E+000	-21.3257	0.0000000E+000	0.0000000E+000	0.0000000E+000	21.3257	2.56147	68.6743	1.07056e-05	2.62488e-05	3429.71
1468.59	2.8131	1.18216	3.0514	-22.7938	7.21294	0.300037	0.0862371	91.6734	13.7593	1	9	0.00462806	0.0015167	0	5.68236e-05	0.302125	0.126963	0.327718	22.7938	13759.3	32742.1	35515.7	-67.2062	0.0000000E+000	0.0000000E+000	0.0000000E+000	67.2062	0.0000000E+000	0.0000000E+000	0.0000000E+000	-67.2062	0.0000000E+000	0.0000000E+000	0.0000000E+000	-22.7938	0.0000000E+000	0.0000000E+000	0.0000000E+000	22.7938	2.37963	67.2062	1.12245e-05	2.58743e-05	3479.2
1000.32	3.05335	1.3855	3.35299	-24.4068	7.93571	0.299948	-0.0122496	114.835	19.6075	1	10	0.00471522	0.00140627	0	5.85763e-05	0.271589	0.123237	0.298241	24.4068	19607.5	43210.8	47451.3	-65.5932	0.0000000E+000	0.0000000E+000	0.0000000E+000	65.5932	0.0000000E+000	0.0000000E+000	0.0000000E+000	-65.5932	0.0000000E+000	0.0000000E+000	0.0000000E+000	-24.4068	0.0000000E+000	0.0000000E+000	0.0000000E+000	24.4068	2.2038	65.5932	1.75277e-06	-3.67424e-06	24486.4
681.09	3.3234	1.66034	3.71507	-26.5463	8.40142	0.299946	-0.0127034	140.74	28.1112	1	10	0.00468617	0.0012614	0	5.59214e-05	0.240796	0.120299	0.269174	26.5463	28111.2	56268.5	62899.8	-63.4537	0.0000000E+000	0.0000000E+000	0.0000000E+000	63.4537	0.0000000E+000	0.0000000E+000	0.0000000E+000	-63.4537	0.0000000E+000	0.0000000E+000	0.0000000E+000	-26.5463	0.0000000E+000	0.0000000E+000	0.0000000E+000	26.5463	2.00164	63.4537	-2.65491e-06	-3.81034e-06	23611.5
463.961	3.63541	2.01785	4.15788	-29.0327	8.87022	0.29995	-0.0124002	170	40.0392	1	10	0.004657	0.00112004	0	5.49228e-05	0.210286	0.11672	0.240507	29.0327	40039.2	72135.5	82502.5	-60.9673	0.0000000E+000	0.0000000E+000	0.0000000E+000	60.9673	0.0000000E+000	0.0000000E+000	0.0000000E+000	-60.9673	0.0000000E+000	0.0000000E+000	0.0000000E+000	-29.0327	0.0000000E+000	0.0000000E+000	0.0000000E+000	29.0327	1.80162	60.9673	-9.98613e-07	-3.71946e-06	24189.1
316.316	4.02971	2.50128	4.74289	-31.8283	9.33693	0.299947	-0.0132689	201.158	55.9469	1	10	0.00463551	0.000977361	0	5.33569e-05	0.179138	0.111193	0.210842	31.8283	55946.9	90133.8	106086	-58.1717	0.0000000E+000	0.0000000E+000	0.0000000E+000	58.1717	0.0000000E+000	0.0000000E+000	0.0000000E+000	-58.1717	0.0000000E+000	0.0000000E+000	0.0000000E+000	-31.8283	0.0000000E+000	0.0000000E+000	0.0000000E+000	31.8283	1.61106	58.1717	-1.56593e-06	-3.97996e-06	22605.4
215.345	4.57571	3.12633	5.54175	-34.3426	9.80445	0.299947	-0.0127927	236.402	75.2362	1	10	0.00462487	0.000834551	0	5.10944e-05	0.148992	0.101798	0.180448	34.3426	75236.2	110116	133364	-55.6574	0.0000000E+000	0.0000000E+000	0.0000000E+000	55.6574	0.0000000E+000	0.0000000E+000	0.0000000E+000	-55.6574	0.0000000E+000	0.0000000E+000	0.0000000E+000	-34.3426	0.0000000E+000	0.0000000E+000	0.0000000E+000	34.3426	1.4636	55.6574	-2.2625e-06	-3.83713e-06	23446.7
146.737	5.35026	3.8686	6.60238	-35.8695	10.2674	0.299945	-0.0139701	280.366	96.2571	1	10	0.00462106	0.000699908	0	4.95768e-05	0.122737	0.0887469	0.151461	35.8695	96257.1	133123	164278	-54.1305	0.0000000E+000	0.0000000E+000	0.0000000E+000	54.1305	0.0000000E+000	0.0000000E+000	0.0000000E+000	-54.1305	0.0000000E+000	0.0000000E+000	0.0000000E+000	-35.8695	0.0000000E+000	0.0000000E+000	0.0000000E+000	35.8695	1.383	54.1305	-1.51761e-06	-4.19026e-06	21470.6
100.032	6.38855	4.66397	7.90988	-36.1314	10.7357	0.299958	-0.0126142	341.134	118.603	1	10	0.00461083	0.00058292	0	4.83799e-05	0.102109	0.0745446	0.126424	36.1314	118603	162459	201146	-53.8686	0.0000000E+000	0.0000000E+000	0.0000000E+000	53.8686	0.0000000E+000	0.0000000E+000	0.0000000E+000	-53.8686	0.0000000E+000	0.0000000E+000	0.0000000E+000	-36.1314	0.0000000E+000	0.0000000E+000	0.0000000E+000	36.1314	1.36977	53.8686	-1.19689e-06	-3.78372e-06	23779.5
68.104	7.74524	5.38901	9.43558	-34.8296	11.2143	0.299962	-0.00962516	433.649	141.455	1	10	0.00460382	0.000487922	0	4.73478e-05	0.0869957	0.0605302	0.105982	34.8296	141455	203304	247673	-55.1704	0.0000000E+000	0.0000000E+000	0.0000000E+000	55.1704	0.0000000E+000	0.0000000E+000	0.0000000E+000	-55.1704	0.0000000E+000	0.0000000E+000	0.0000000E+000	-34.8296	0.0000000E+000	0.0000000E+000	0.0000000E+000	34.8296	1.43723	55.1704	-1.03208e-06	-2.88719e-06	31164.4
46.4415	9.39693	5.95392	11.1244	-32.3584	11.6696	0.299958	-0.0149912	575.587	164.879	1	10	0.00460685	0.000414123	0	4.54768e-05	0.0759339	0.0481119	0.0898928	32.3584	164879	260225	308062	-57.6416	0.0000000E+000	0.0000000E+000	0.0000000E+000	57.6416	0.0000000E+000	0.0000000E+000	0.0000000E+000	-57.6416	0.0000000E+000	0.0000000E+000	0.0000000E+000	-32.3584	0.0000000E+000	0.0000000E+000	0.0000000E+000	32.3584	1.57828	57.6416	-1.87107e-06	-4.49674e-06	20008.9
31.6296	11.2337	6.26928	12.8647	-29.165	12.1164	0.299944	-0.0175041	802.618	190.611	1	10	0.00460341	0.000357834	0	4.34331e-05	0.0678774	0.037881	0.0777324	29.165	190611	341549	391137	-60.835	0.0000000E+000	0.0000000E+000	0.0000000E+000	60.835	0.0000000E+000	0.0000000E+000	0.0000000E+000	-60.835	0.0000000E+000	0.0000000E+000	0.0000000E+000	-29.165	0.0000000E+000	0.0000000E+000	0.0000000E+000	29.165	1.79186	60.835	-2.04366e-06	-5.25024e-06	17135.7
21.5517	13.0635	6.32315	14.5133	-25.8285	12.5553	0.299946	-0.0203554	1167.9	221.686	1	10	0.00460405	0.000317229	0	4.02508e-05	0.062019	0.0300192	0.0689022	25.8285	221686	457997	508828	-64.1715	0.0000000E+000	0.0000000E+000	0.0000000E+000	64.1715	0.0000000E+000	0.0000000E+000	0.0000000E+000	-64.1715	0.0000000E+000	0.0000000E+000	0.0000000E+000	-25.8285	0.0000000E+000	0.0000000E+000	0.0000000E+000	25.8285	2.06598	64.1715	-3.18228e-06	-6.10553e-06	14735.5
14.6852	14.9282	6.11494	16.1321	-22.2752	13.292	0.299986	-0.00812385	1772.35	254.656	1	11	0.0046032	0.000285345	0	4.11234e-05	0.0573624	0.023497	0.0619883	22.2752	254656	621683	671818	-67.7248	0.0000000E+000	0.0000000E+000	0.0000000E+000	67.7248	0.0000000E+000	0.0000000E+000	0.0000000E+000	-67.7248	0.0000000E+000	0.0000000E+000	0.0000000E+000	-22.2752	0.0000000E+000	0.0000000E+000	0.0000000E+000	22.2752	2.44126	67.7248	8.72603e-07	-2.43704e-06	36926.6
10.0032	16.5706	5.68018	17.5171	-18.921	13.7607	0.299982	-0.00839856	2801.04	294.523	1	11	0.00460171	0.000262698	0	4.13055e-05	0.0540024	0.0185113	0.057087	18.921	294523	859200	908278	-71.079	0.0000000E+000	0.0000000E+000	0.0000000E+000	71.079	0.0000000E+000	0.0000000E+000	0.0000000E+000	-71.079	0.0000000E+000	0.0000000E+000	0.0000000E+000	-18.921	0.0000000E+000	0.0000000E+000	0.0000000E+000	18.921	2.91726	71.079	1.82076e-07	-2.51941e-06	35718.3
6.81719	18.025	5.18854	18.7569	-16.0586	14.1184	0.299969	-0.00950261	4499.55	344.3	1	11	0.00460234	0.000245367	0	3.76916e-05	0.0512333	0.0147476	0.0533136	16.0586	344300	1.1961e+06	1.24467e+06	-73.9414	0.0000000E+000	0.0000000E+000	0.0000000E+000	73.9414	0.0000000E+000	0.0000000E+000	0.0000000E+000	-73.9414	0.0000000E+000	0.0000000E+000	0.0000000E+000	-16.0586	0.0000000E+000	0.0000000E+000	0.0000000E+000	16.0586	3.474	73.9414	-3.61385e-06	-2.85049e-06	31567
4.63925	19.2432	4.67424	19.8028	-13.6529	14.6203	0.299989	-0.00799412	7339.41	408.914	1	11	0.00460457	0.000232522	0	3.84912e-05	0.0490711	0.0119196	0.050498	13.6529	408914	1.68344e+06	1.73239e+06	-76.3471	0.0000000E+000	0.0000000E+000	0.0000000E+000	76.3471	0.0000000E+000	0.0000000E+000	0.0000000E+000	-76.3471	0.0000000E+000	0.0000000E+000	0.0000000E+000	-13.6529	0.0000000E+000	0.0000000E+000	0.0000000E+000	13.6529	4.11686	76.3471	7.99548e-07	-2.39815e-06	37526.2
3.1604	20.3102	4.10418	20.7207	-11.4242	15.3302	0.29999	-0.00743828	12270.2	481.39	1	11	0.00460965	0.000222466	0	3.97419e-05	0.0473048	0.00955913	0.0482609	11.4242	481390	2.38223e+06	2.43038e+06	-78.5758	0.0000000E+000	0.0000000E+000	0.0000000E+000	78.5758	0.0000000E+000	0.0000000E+000	0.0000000E+000	-78.5758	0.0000000E+000	0.0000000E+000	0.0000000E+000	-11.4242	0.0000000E+000	0.0000000E+000	0.0000000E+000	11.4242	4.94865	78.5758	1.25069e-06	-2.23141e-06	40330.6
2.15577	21.2052	3.70441	21.5264	-9.90919	16.3468	0.299994	-0.00600694	19929.6	590.195	1	11	0.00460857	0.000214089	0	3.55181e-05	0.0457616	0.00799425	0.0464547	9.90919	590195	3.37847e+06	3.42963e+06	-80.0908	0.0000000E+000	0.0000000E+000	0.0000000E+000	80.0908	0.0000000E+000	0.0000000E+000	0.0000000E+000	-80.0908	0.0000000E+000	0.0000000E+000	0.0000000E+000	-9.90919	0.0000000E+000	0.0000000E+000	0.0000000E+000	9.90919	5.72432	80.0908	-4.2238e-06	-1.80204e-06	49941.3
1.46631	21.9391	3.27351	22.182	-8.48642	17.82	0.29999	-0.00598571	33157.4	722.115	1	11	0.00460859	0.000207763	0	2.7547e-05	0.044588	0.00665292	0.0450816	8.48642	722115	4.83963e+06	4.89321e+06	-81.5136	0.0000000E+000	0.0000000E+000	0.0000000E+000	81.5136	0.0000000E+000	0.0000000E+000	0.0000000E+000	-81.5136	0.0000000E+000	0.0000000E+000	0.0000000E+000	-8.48642	0.0000000E+000	0.0000000E+000	0.0000000E+000	8.48642	6.70202	81.5136	-7.97113e-06	-1.79565e-06	50117.6
1.00006	22.6035	2.98102	22.7992	-7.513	21.0102	0.299993	-0.00594267	53386	912.679	1	12	0.00460899	0.000202156	0	1.9278e-05	0.0434846	0.0057349	0.0438612	7.513	912678	6.92035e+06	6.98028e+06	-82.487	0.0000000E+000	0.0000000E+000	0.0000000E+000	82.487	0.0000000E+000	0.0000000E+000	0.0000000E+000	-82.487	0.0000000E+000	0.0000000E+000	0.0000000E+000	-7.513	0.0000000E+000	0.0000000E+000	0.0000000E+000	7.513	7.58246	82.487	-8.26895e-06	-1.78276e-06	50481.2
0.681362	23.173	2.79081	23.3404	-6.86729	24.1302	0.300005	-0.00584575	83697.3	1196.62	1	12	0.00461221	0.000197606	0	1.93596e-05	0.0425368	0.00512287	0.0428442	6.86729	1.19662e+06	9.93589e+06	1.00077e+07	-83.1327	0.0000000E+000	0.0000000E+000	0.0000000E+000	83.1327	0.0000000E+000	0.0000000E+000	0.0000000E+000	-83.1327	0.0000000E+000	0.0000000E+000	0.0000000E+000	-6.86729	0.0000000E+000	0.0000000E+000	0.0000000E+000	6.86729	8.3033	83.1327	8.16262e-08	-1.75375e-06	51320.1
0.464091	23.6273	2.71991	23.7833	-6.56682	28.695	0.299994	-0.0057695	126085	1649.02	1	12	0.00461112	0.00019388	0	2.47e-05	0.0417704	0.00480849	0.0420463	6.56682	1.64902e+06	1.43247e+07	1.44193e+07	-83.4332	0.0000000E+000	0.0000000E+000	0.0000000E+000	83.4332	0.0000000E+000	0.0000000E+000	0.0000000E+000	-83.4332	0.0000000E+000	0.0000000E+000	0.0000000E+000	-6.56682	0.0000000E+000	0.0000000E+000	0.0000000E+000	6.56682	8.68681	83.4332	5.34036e-06	-1.73081e-06	51996.4
0.316193	24.1228	2.78503	24.283	-6.58577	35.3773	0.299987	-0.00497844	180733	2377.35	1	12	0.00460979	0.000189836	0	3.04813e-05	0.0409093	0.00472307	0.041181	6.58577	2.37734e+06	2.05916e+07	2.07284e+07	-83.4142	0.0000000E+000	0.0000000E+000	0.0000000E+000	83.4142	0.0000000E+000	0.0000000E+000	0.0000000E+000	-83.4142	0.0000000E+000	0.0000000E+000	0.0000000E+000	-6.58577	0.0000000E+000	0.0000000E+000	0.0000000E+000	6.58577	8.66159	83.4142	5.78134e-06	-1.49346e-06	60257.2
0.215268	24.7073	3.07772	24.8983	-7.10059	45.175	0.299992	-0.00359306	240222	3670.55	1	12	0.00460808	0.000185076	0	2.74441e-05	0.0398554	0.00496467	0.0401634	7.10059	3.67055e+06	2.94665e+07	2.96942e+07	-82.8994	0.0000000E+000	0.0000000E+000	0.0000000E+000	82.8994	0.0000000E+000	0.0000000E+000	0.0000000E+000	-82.8994	0.0000000E+000	0.0000000E+000	0.0000000E+000	-7.10059	0.0000000E+000	0.0000000E+000	0.0000000E+000	7.10059	8.02781	82.8994	-3.03727e-06	-1.07789e-06	83492.1
0.146929	25.2936	3.586	25.5465	-8.06933	59.5117	0.299983	-0.00289938	302067	5951.95	1	12	0.00460358	0.000180204	0	1.53801e-06	0.0387567	0.00549473	0.0391443	8.06933	5.95195e+06	4.19817e+07	4.24015e+07	-81.9307	0.0000000E+000	0.0000000E+000	0.0000000E+000	81.9307	0.0000000E+000	0.0000000E+000	0.0000000E+000	-81.9307	0.0000000E+000	0.0000000E+000	0.0000000E+000	-8.06933	0.0000000E+000	0.0000000E+000	0.0000000E+000	8.06933	7.05343	81.9307	-2.5906e-05	-8.69764e-07	103465
0.0999041	26.1017	4.19094	26.4361	-9.12166	80.5816	0.300005	-0.00143574	380124	9553.34	1	12	0.00461402	0.000174535	0	-5.27738e-05	0.0373488	0.00599678	0.0378271	9.12166	9.55334e+06	5.94995e+07	6.02615e+07	-80.8783	0.0000000E+000	0.0000000E+000	0.0000000E+000	80.8783	0.0000000E+000	0.0000000E+000	0.0000000E+000	-80.8783	0.0000000E+000	0.0000000E+000	0.0000000E+000	-9.12166	0.0000000E+000	0.0000000E+000	0.0000000E+000	9.12166	6.22813	80.8783	-5.43118e-05	-4.30731e-07	208955
0.0680626	27.1306	4.92712	27.5743	-10.2932	111.494	0.299993	-0.0014448	474590	15152.8	1	12	0.00460939	0.000167162	0	-0.000134503	0.0356819	0.00648011	0.0362656	10.2932	1.51528e+07	8.34372e+07	8.4802e+07	-79.7068	0.0000000E+000	0.0000000E+000	0.0000000E+000	79.7068	0.0000000E+000	0.0000000E+000	0.0000000E+000	-79.7068	0.0000000E+000	0.0000000E+000	0.0000000E+000	-10.2932	0.0000000E+000	0.0000000E+000	0.0000000E+000	10.2932	5.50638	79.7068	-8.17293e-05	-4.33431e-07	207637
0.0464052	28.4296	5.79455	29.0141	-11.5203	156.817	0.299994	-0.00192325	591880	23607.8	1	12	0.00461277	0.000158984	0	-0.000227232	0.0337717	0.00688339	0.034466	11.5203	2.36078e+07	1.15826e+08	1.18207e+08	-78.4797	0.0000000E+000	0.0000000E+000	0.0000000E+000	78.4797	0.0000000E+000	0.0000000E+000	0.0000000E+000	-78.4797	0.0000000E+000	0.0000000E+000	0.0000000E+000	-11.5203	0.0000000E+000	0.0000000E+000	0.0000000E+000	11.5203	4.90626	78.4797	-9.27291e-05	-5.76963e-07	155983
0.0315922	29.8554	6.97643	30.6596	-13.1526	223.378	0.299992	-0.00221388	722116	37388.6	1	12	0.00461011	0.000150364	0	-0.000281541	0.0317606	0.00742163	0.0326162	13.1526	3.73886e+07	1.60003e+08	1.64314e+08	-76.8474	0.0000000E+000	0.0000000E+000	0.0000000E+000	76.8474	0.0000000E+000	0.0000000E+000	0.0000000E+000	-76.8474	0.0000000E+000	0.0000000E+000	0.0000000E+000	-13.1526	0.0000000E+000	0.0000000E+000	0.0000000E+000	13.1526	4.27946	76.8474	-5.43086e-05	-6.64147e-07	135505
0.0215268	31.1881	8.37415	32.2928	-15.0297	321.047	0.299993	-0.00212858	882877	59370.6	1	12	0.00461135	0.000142798	0	-0.000236931	0.0299074	0.00803027	0.0309667	15.0297	5.93706e+07	2.21115e+08	2.28947e+08	-74.9703	0.0000000E+000	0.0000000E+000	0.0000000E+000	74.9703	0.0000000E+000	0.0000000E+000	0.0000000E+000	-74.9703	0.0000000E+000	0.0000000E+000	0.0000000E+000	-15.0297	0.0000000E+000	0.0000000E+000	0.0000000E+000	15.0297	3.72433	74.9703	4.46098e-05	-6.38559e-07	140935
0.0146812	32.6058	10.1078	34.1366	-17.2234	464.243	0.299984	-0.00145129	1.07251e+06	94032.1	1	12	0.00460784	0.000134982	0	-5.31263e-05	0.0279805	0.00867395	0.0292941	17.2234	9.40321e+07	3.03329e+08	3.1757e+08	-72.7766	0.0000000E+000	0.0000000E+000	0.0000000E+000	72.7766	0.0000000E+000	0.0000000E+000	0.0000000E+000	-72.7766	0.0000000E+000	0.0000000E+000	0.0000000E+000	-17.2234	0.0000000E+000	0.0000000E+000	0.0000000E+000	17.2234	3.2258	72.7766	0.000183805	-4.35363e-07	206702
0.0100092	34.4047	12.4656	36.5934	-19.9165	674.265	0.299988	-0.000419933	1.27559e+06	148023	1	12	0.00461375	0.000126082	0	0.000255705	0.0256929	0.00930909	0.0273274	19.9165	1.48023e+08	4.08541e+08	4.3453e+08	-70.0835	0.0000000E+000	0.0000000E+000	0.0000000E+000	70.0835	0.0000000E+000	0.0000000E+000	0.0000000E+000	-70.0835	0.0000000E+000	0.0000000E+000	0.0000000E+000	-19.9165	0.0000000E+000	0.0000000E+000	0.0000000E+000	19.9165	2.75998	70.0835	0.000308832	-1.25975e-07	714369