File: txt/17455_R281_UA646_SOC00_C02.mpt
EC-Lab ASCII FILE
Nb header lines : 63

Potentio Electrochemical Impedance Spectroscopy

Run on channel : 2 (SN 66139)
User :
CE vs. WE compliance from -10 V to 10 V
Electrode connection : standard
Potential control : Ewe
Ewe ctrl range : min = -10.00 V, max = 10.00 V
Safety Limits :
	Do not start on E overload
Acquisition started on : 09/11/2025 16:15:40.713
Loaded Setting File :  C:\Users\Celltest\OneDrive - store-dot.com\Documents\EC-Lab\Data\Charmaine\R279\17382_C01.mpr
Saved on :
	File : 17455_C02.mpr
	Directory : C:\Users\Celltest\OneDrive - store-dot.com\Documents\EC-Lab\Data\John\R281\
	Host : 169.254.61.224
Device : VMP-3e (SN .003165)
Address : USB
EC-LAB for windows v11.62 (software)
Internet server v27.00 (firmware)
Command interpretor v12.03 (firmware)
Electrode material :
Initial state :
Electrolyte :
Comments :
Electrode surface area : 0.001 cm²
Characteristic mass : 0.001 g
Equivalent Weight : 0.000 g/eq.
Density : 0.000 g/cm3
Volume (V) : 0.001 cm³
Cycle Definition : Charge/Discharge alternance
Mode                Single sine
E (V)               0.0000
vs.                 Eoc
tE (h:m:s)          0:00:0.0000
record              0
dI                  0.000
unit dI             mA
dt (s)              0.000
fi                  100.000
unit fi             kHz
ff                  10.000
unit ff             mHz
Nd                  6
Points              per decade
spacing             Logarithmic
Va (mV)             5.0
pw                  0.10
Na                  2
corr                0
E range min (V)     -10.000
E range max (V)     10.000
I Range             Auto
Bandwidth           5
nc cycles           0
goto Ns'            0
nr cycles           0
inc. cycle          0

freq/Hz	Re(Z)/Ohm	-Im(Z)/Ohm	|Z|/Ohm	Phase(Z)/deg	time/s	<Ewe>/V	<I>/mA	Cs/µF	Cp/µF	cycle number	I Range	|Ewe|/V	|I|/A	Ns	(Q-Qo)/mA.h	Re(Y)/Ohm-1	Im(Y)/Ohm-1	|Y|/Ohm-1	Phase(Y)/deg	Re(C)/nF	Im(C)/nF	|C|/nF	Phase(C)/deg	Re(M)	Im(M)	|M|	Phase(M)/deg	Re(Permittivity)	Im(Permittivity)	|Permittivity|	Phase(Permittivity)/deg	Re(Resistivity)/Ohm.cm	Im(Resistivity)/Ohm.cm	|Resistivity|/Ohm.cm	Phase(Resistivity)/deg	Re(Conductivity)/mS/cm	Im(Conductivity)/mS/cm	|Conductivity|/mS/cm	Phase(Conductivity)/deg	Tan(Delta)	Loss Angle(Delta)/deg	dq/mA.h	Pwe/W	Rwe/Ohm
100004	2.02229	0.332473	2.04944	-9.33616	1.8655	0.294314	-0.0138532	4.78682	0.125977	1	9	0.00459179	0.00224051	0	-6.82165e-06	0.481475	0.0791567	0.487939	9.33616	125.977	766.264	776.55	-80.6638	0.0000000E+000	0.0000000E+000	0.0000000E+000	80.6638	0.0000000E+000	0.0000000E+000	0.0000000E+000	-80.6638	0.0000000E+000	0.0000000E+000	0.0000000E+000	-9.33616	0.0000000E+000	0.0000000E+000	0.0000000E+000	9.33616	6.08256	80.6638	-6.82165e-06	-4.07719e-06	21245.2
68132	2.10353	0.380989	2.13776	-10.266	2.44348	0.294314	-0.0169446	6.13136	0.194744	1	9	0.00506423	0.00236895	0	-1.42807e-05	0.460292	0.0833673	0.46778	10.266	194.744	1075.23	1092.72	-79.734	0.0000000E+000	0.0000000E+000	0.0000000E+000	79.734	0.0000000E+000	0.0000000E+000	0.0000000E+000	-79.734	0.0000000E+000	0.0000000E+000	0.0000000E+000	-10.266	0.0000000E+000	0.0000000E+000	0.0000000E+000	10.266	5.52125	79.734	-7.45907e-06	-4.98704e-06	17369.2
46420.4	2.19522	0.430181	2.23697	-11.0873	3.0215	0.294318	-0.0132945	7.97005	0.294742	1	9	0.00508108	0.00227141	0	-2.13787e-05	0.438689	0.0859667	0.447033	11.0873	294.742	1504.07	1532.68	-78.9127	0.0000000E+000	0.0000000E+000	0.0000000E+000	78.9127	0.0000000E+000	0.0000000E+000	0.0000000E+000	-78.9127	0.0000000E+000	0.0000000E+000	0.0000000E+000	-11.0873	0.0000000E+000	0.0000000E+000	0.0000000E+000	11.0873	5.10301	78.9127	-7.09798e-06	-3.91281e-06	22138.3
31621.1	2.28726	0.485717	2.33826	-11.9891	3.59948	0.294322	-0.0117116	10.3624	0.447136	1	9	0.00511288	0.00218661	0	-2.02243e-05	0.418339	0.0888376	0.427668	11.9891	447.136	2105.58	2152.53	-78.0109	0.0000000E+000	0.0000000E+000	0.0000000E+000	78.0109	0.0000000E+000	0.0000000E+000	0.0000000E+000	-78.0109	0.0000000E+000	0.0000000E+000	0.0000000E+000	-11.9891	0.0000000E+000	0.0000000E+000	0.0000000E+000	11.9891	4.70903	78.0109	1.15441e-06	-3.44697e-06	25130.9
21544.7	2.3955	0.555872	2.45915	-13.0642	3.89547	0.294317	-0.011544	13.2894	0.679026	1	9	0.00478745	0.00194679	0	-2.26577e-05	0.39612	0.0919192	0.406645	13.0642	679.026	2926.22	3003.97	-76.9358	0.0000000E+000	0.0000000E+000	0.0000000E+000	76.9358	0.0000000E+000	0.0000000E+000	0.0000000E+000	-76.9358	0.0000000E+000	0.0000000E+000	0.0000000E+000	-13.0642	0.0000000E+000	0.0000000E+000	0.0000000E+000	13.0642	4.30944	76.9358	-2.43345e-06	-3.39759e-06	25495.3
14678.6	2.52162	0.635706	2.60052	-14.1495	4.33249	0.294321	-0.0124937	17.0561	1.01923	1	9	0.00486047	0.00186904	0	-2.42935e-05	0.372872	0.0940017	0.384538	14.1495	1019.23	4042.92	4169.42	-75.8505	0.0000000E+000	0.0000000E+000	0.0000000E+000	75.8505	0.0000000E+000	0.0000000E+000	0.0000000E+000	-75.8505	0.0000000E+000	0.0000000E+000	0.0000000E+000	-14.1495	0.0000000E+000	0.0000000E+000	0.0000000E+000	14.1495	3.96665	75.8505	-1.63576e-06	-3.67717e-06	23557.5
10002.2	2.66464	0.719751	2.76013	-15.1156	4.62848	0.294321	-0.0071862	22.1076	1.5033	1	9	0.00451358	0.00163528	0	-2.49775e-05	0.349767	0.0944762	0.362302	15.1156	1503.3	5565.47	5764.93	-74.8844	0.0000000E+000	0.0000000E+000	0.0000000E+000	74.8844	0.0000000E+000	0.0000000E+000	0.0000000E+000	-74.8844	0.0000000E+000	0.0000000E+000	0.0000000E+000	-15.1156	0.0000000E+000	0.0000000E+000	0.0000000E+000	15.1156	3.70217	74.8844	-6.84009e-07	-2.11505e-06	40956.4
6811.07	2.82589	0.828646	2.94488	-16.3429	5.18352	0.294222	-0.0253808	28.1991	2.23274	1	9	0.0048511	0.0016473	0	-3.00501e-05	0.325852	0.0955506	0.339572	16.3429	2232.74	7614.21	7934.82	-73.6571	0.0000000E+000	0.0000000E+000	0.0000000E+000	73.6571	0.0000000E+000	0.0000000E+000	0.0000000E+000	-73.6571	0.0000000E+000	0.0000000E+000	0.0000000E+000	-16.3429	0.0000000E+000	0.0000000E+000	0.0000000E+000	16.3429	3.41025	73.6571	-5.07255e-06	-7.46761e-06	11592.3
4641.49	3.01721	0.960233	3.16632	-17.6538	5.65467	0.29442	0.0421088	35.7097	3.2842	1	9	0.00477518	0.00150812	0	-2.4796e-05	0.300951	0.0957783	0.315824	17.6538	3284.2	10319.5	10829.5	-72.3462	0.0000000E+000	0.0000000E+000	0.0000000E+000	72.3462	0.0000000E+000	0.0000000E+000	0.0000000E+000	-72.3462	0.0000000E+000	0.0000000E+000	0.0000000E+000	-17.6538	0.0000000E+000	0.0000000E+000	0.0000000E+000	17.6538	3.14216	72.3462	5.25406e-06	1.23977e-05	6991.89
3161.01	3.22921	1.10381	3.41265	-18.8715	6.12169	0.294409	0.0461686	45.614	4.77206	1	9	0.00473134	0.00138641	0	-2.06067e-05	0.277276	0.094779	0.293027	18.8715	4772.06	13960.7	14753.7	-71.1285	0.0000000E+000	0.0000000E+000	0.0000000E+000	71.1285	0.0000000E+000	0.0000000E+000	0.0000000E+000	-71.1285	0.0000000E+000	0.0000000E+000	0.0000000E+000	-18.8715	0.0000000E+000	0.0000000E+000	0.0000000E+000	18.8715	2.9255	71.1285	4.18931e-06	1.35924e-05	6376.83
2155.69	3.47886	1.29639	3.71256	-20.4378	6.8427	0.294348	-0.0162417	56.9506	6.94422	1	10	0.00483356	0.00130195	0	-2.01485e-05	0.252401	0.0940567	0.269356	20.4378	6944.23	18634.8	19886.6	-69.5622	0.0000000E+000	0.0000000E+000	0.0000000E+000	69.5622	0.0000000E+000	0.0000000E+000	0.0000000E+000	-69.5622	0.0000000E+000	0.0000000E+000	0.0000000E+000	-20.4378	0.0000000E+000	0.0000000E+000	0.0000000E+000	20.4378	2.68349	69.5622	4.58167e-07	-4.78071e-06	18123
1468.59	3.76379	1.50029	4.05179	-21.7328	7.30995	0.294346	-0.0161001	72.2342	9.90379	1	10	0.00478606	0.00118122	0	-2.22322e-05	0.229262	0.0913865	0.246804	21.7328	9903.79	24845.7	26746.8	-68.2672	0.0000000E+000	0.0000000E+000	0.0000000E+000	68.2672	0.0000000E+000	0.0000000E+000	0.0000000E+000	-68.2672	0.0000000E+000	0.0000000E+000	0.0000000E+000	-21.7328	0.0000000E+000	0.0000000E+000	0.0000000E+000	21.7328	2.5087	68.2672	-2.08373e-06	-4.73901e-06	18282.2
1000.32	4.09057	1.74622	4.4477	-23.1171	7.77867	0.294347	-0.0163274	91.1133	14.0446	1	10	0.00475165	0.00106834	0	-2.39278e-05	0.206782	0.0882729	0.224835	23.1171	14044.6	32899.8	35772.2	-66.8829	0.0000000E+000	0.0000000E+000	0.0000000E+000	66.8829	0.0000000E+000	0.0000000E+000	0.0000000E+000	-66.8829	0.0000000E+000	0.0000000E+000	0.0000000E+000	-23.1171	0.0000000E+000	0.0000000E+000	0.0000000E+000	23.1171	2.34253	66.8829	-1.69554e-06	-4.80591e-06	18027.8
681.09	4.45055	2.05376	4.90156	-24.7716	8.24445	0.294342	-0.0163721	113.78	19.9755	1	10	0.00472273	0.000963516	0	-2.50988e-05	0.185244	0.0854833	0.204017	24.7716	19975.5	43287.3	47674	-65.2284	0.0000000E+000	0.0000000E+000	0.0000000E+000	65.2284	0.0000000E+000	0.0000000E+000	0.0000000E+000	-65.2284	0.0000000E+000	0.0000000E+000	0.0000000E+000	-24.7716	0.0000000E+000	0.0000000E+000	0.0000000E+000	24.7716	2.16702	65.2284	-1.171e-06	-4.81899e-06	17978.3
463.961	4.86677	2.45092	5.44908	-26.73	8.71322	0.294338	-0.0166608	139.962	28.3154	1	10	0.00470773	0.000863949	0	-2.74691e-05	0.163906	0.0825436	0.183517	26.73	28315.4	56225.5	62952.9	-63.27	0.0000000E+000	0.0000000E+000	0.0000000E+000	63.27	0.0000000E+000	0.0000000E+000	0.0000000E+000	-63.27	0.0000000E+000	0.0000000E+000	0.0000000E+000	-26.73	0.0000000E+000	0.0000000E+000	0.0000000E+000	26.73	1.98569	63.27	-2.37028e-06	-4.90391e-06	17666.5
316.316	5.35756	2.95979	6.12077	-28.9185	9.17993	0.294341	-0.0168396	169.996	39.751	1	10	0.00469781	0.00076752	0	-2.97231e-05	0.143006	0.0790039	0.163378	28.9185	39751	71953.9	82204	-61.0815	0.0000000E+000	0.0000000E+000	0.0000000E+000	61.0815	0.0000000E+000	0.0000000E+000	0.0000000E+000	-61.0815	0.0000000E+000	0.0000000E+000	0.0000000E+000	-28.9185	0.0000000E+000	0.0000000E+000	0.0000000E+000	28.9185	1.81012	61.0815	-2.25407e-06	-4.95658e-06	17479.1
215.345	5.9829	3.63642	7.00133	-31.2914	9.64745	0.294339	-0.0163609	203.241	54.8276	1	10	0.00468975	0.000669837	0	-3.1304e-05	0.122053	0.0741845	0.14283	31.2914	54827.6	90206.2	105561	-58.7086	0.0000000E+000	0.0000000E+000	0.0000000E+000	58.7086	0.0000000E+000	0.0000000E+000	0.0000000E+000	-58.7086	0.0000000E+000	0.0000000E+000	0.0000000E+000	-31.2914	0.0000000E+000	0.0000000E+000	0.0000000E+000	31.2914	1.64527	58.7086	-1.58083e-06	-4.81566e-06	17990.4
146.737	6.80395	4.46205	8.13656	-33.257	10.1104	0.294335	-0.0171674	243.078	73.1024	1	10	0.00467437	0.00057449	0	-3.34051e-05	0.102773	0.0673989	0.122902	33.257	73102.4	111470	133303	-56.743	0.0000000E+000	0.0000000E+000	0.0000000E+000	56.743	0.0000000E+000	0.0000000E+000	0.0000000E+000	-56.743	0.0000000E+000	0.0000000E+000	0.0000000E+000	-33.257	0.0000000E+000	0.0000000E+000	0.0000000E+000	33.257	1.52485	56.743	-2.1011e-06	-5.05298e-06	17145
100.032	7.95825	5.39813	9.61632	-34.1493	10.5777	0.294345	-0.0160443	294.739	92.8767	1	10	0.0046789	0.000486558	0	-3.55518e-05	0.0860597	0.0583748	0.10399	34.1493	92876.7	136925	165452	-55.8507	0.0000000E+000	0.0000000E+000	0.0000000E+000	55.8507	0.0000000E+000	0.0000000E+000	0.0000000E+000	-55.8507	0.0000000E+000	0.0000000E+000	0.0000000E+000	-34.1493	0.0000000E+000	0.0000000E+000	0.0000000E+000	34.1493	1.47426	55.8507	-2.14676e-06	-4.72255e-06	18345.8
68.104	9.4602	6.37227	11.4062	-33.9637	11.0553	0.294344	-0.0133342	366.736	114.462	1	10	0.00467244	0.00040964	0	-3.74493e-05	0.0727142	0.0489794	0.0876717	33.9637	114462	169929	204884	-56.0363	0.0000000E+000	0.0000000E+000	0.0000000E+000	56.0363	0.0000000E+000	0.0000000E+000	0.0000000E+000	-56.0363	0.0000000E+000	0.0000000E+000	0.0000000E+000	-33.9637	0.0000000E+000	0.0000000E+000	0.0000000E+000	33.9637	1.48459	56.0363	-1.89748e-06	-3.92484e-06	22074.4
46.4415	11.3229	7.25295	13.4467	-32.6419	11.5105	0.294331	-0.0185998	472.497	137.467	1	10	0.00466898	0.000347222	0	-3.98147e-05	0.0626221	0.040113	0.0743679	32.6419	137467	214606	254858	-57.3581	0.0000000E+000	0.0000000E+000	0.0000000E+000	57.3581	0.0000000E+000	0.0000000E+000	0.0000000E+000	-57.3581	0.0000000E+000	0.0000000E+000	0.0000000E+000	-32.6419	0.0000000E+000	0.0000000E+000	0.0000000E+000	32.6419	1.56114	57.3581	-2.36538e-06	-5.4745e-06	15824.5
31.6296	13.5417	7.88214	15.6686	-30.2021	11.9565	0.294323	-0.0205276	638.385	161.551	1	10	0.00466919	0.000297996	0	-4.20713e-05	0.0551583	0.0321057	0.0638218	30.2021	161551	277548	321141	-59.7979	0.0000000E+000	0.0000000E+000	0.0000000E+000	59.7979	0.0000000E+000	0.0000000E+000	0.0000000E+000	-59.7979	0.0000000E+000	0.0000000E+000	0.0000000E+000	-30.2021	0.0000000E+000	0.0000000E+000	0.0000000E+000	30.2021	1.71802	59.7979	-2.25665e-06	-6.04173e-06	14337.9
21.5517	15.9657	8.15754	17.929	-27.0644	12.6354	0.294356	-0.0131288	905.271	187.407	1	11	0.00467526	0.000260765	0	-4.46391e-05	0.0496679	0.0253774	0.0557755	27.0644	187407	366787	411891	-62.9356	0.0000000E+000	0.0000000E+000	0.0000000E+000	62.9356	0.0000000E+000	0.0000000E+000	0.0000000E+000	-62.9356	0.0000000E+000	0.0000000E+000	0.0000000E+000	-27.0644	0.0000000E+000	0.0000000E+000	0.0000000E+000	27.0644	1.95717	62.9356	-2.56771e-06	-3.86454e-06	22420.6
14.6852	18.3303	8.08146	20.0327	-23.7918	13.1141	0.294366	-0.01192	1341.07	218.249	1	11	0.00466952	0.000233095	0	-4.62635e-05	0.0456762	0.0201378	0.0499184	23.7918	218249	495030	541006	-66.2082	0.0000000E+000	0.0000000E+000	0.0000000E+000	66.2082	0.0000000E+000	0.0000000E+000	0.0000000E+000	-66.2082	0.0000000E+000	0.0000000E+000	0.0000000E+000	-23.7918	0.0000000E+000	0.0000000E+000	0.0000000E+000	23.7918	2.26819	66.2082	-1.62441e-06	-3.50886e-06	24695.1
10.0032	20.5846	7.70701	21.9801	-20.5262	13.5827	0.294366	-0.0119103	2064.41	253.809	1	11	0.0046727	0.000212588	0	-4.91933e-05	0.0426072	0.0159524	0.0454957	20.5262	253809	677898	723854	-69.4738	0.0000000E+000	0.0000000E+000	0.0000000E+000	69.4738	0.0000000E+000	0.0000000E+000	0.0000000E+000	-69.4738	0.0000000E+000	0.0000000E+000	0.0000000E+000	-20.5262	0.0000000E+000	0.0000000E+000	0.0000000E+000	20.5262	2.6709	69.4738	-2.9298e-06	-3.506e-06	24715.1
6.81719	22.5437	7.08301	23.6302	-17.4422	13.9404	0.294361	-0.0126577	3296.07	296.14	1	11	0.004663	0.000197332	0	-4.91693e-05	0.0403729	0.0126848	0.0423187	17.4422	296140	942549	987977	-72.5578	0.0000000E+000	0.0000000E+000	0.0000000E+000	72.5578	0.0000000E+000	0.0000000E+000	0.0000000E+000	-72.5578	0.0000000E+000	0.0000000E+000	0.0000000E+000	-17.4422	0.0000000E+000	0.0000000E+000	0.0000000E+000	17.4422	3.18278	72.5578	2.39103e-08	-3.72594e-06	23255.5
4.63925	24.2948	6.44871	25.1361	-14.8656	14.4423	0.294369	-0.0115259	5319.85	350.146	1	11	0.00467172	0.000185857	0	-5.32139e-05	0.0384519	0.0102065	0.0397834	14.8656	350146	1.31914e+06	1.36482e+06	-75.1344	0.0000000E+000	0.0000000E+000	0.0000000E+000	75.1344	0.0000000E+000	0.0000000E+000	0.0000000E+000	-75.1344	0.0000000E+000	0.0000000E+000	0.0000000E+000	-14.8656	0.0000000E+000	0.0000000E+000	0.0000000E+000	14.8656	3.76739	75.1344	-4.04456e-06	-3.39288e-06	25539.7
3.1604	25.8301	5.85399	26.4851	-12.7695	15.1513	0.294364	-0.0114192	8602.53	420.268	1	11	0.00467101	0.000176363	0	-5.35943e-05	0.0368232	0.00834542	0.037757	12.7695	420268	1.85439e+06	1.90141e+06	-77.2305	0.0000000E+000	0.0000000E+000	0.0000000E+000	77.2305	0.0000000E+000	0.0000000E+000	0.0000000E+000	-77.2305	0.0000000E+000	0.0000000E+000	0.0000000E+000	-12.7695	0.0000000E+000	0.0000000E+000	0.0000000E+000	12.7695	4.41238	77.2305	-3.8039e-07	-3.36141e-06	25778
2.15577	27.0984	5.2214	27.5968	-10.9063	16.1678	0.294376	-0.0102686	14139.4	506.159	1	11	0.0046715	0.000169277	0	-5.32068e-05	0.0355816	0.00685597	0.0362361	10.9063	506159	2.6269e+06	2.67522e+06	-79.0937	0.0000000E+000	0.0000000E+000	0.0000000E+000	79.0937	0.0000000E+000	0.0000000E+000	0.0000000E+000	-79.0937	0.0000000E+000	0.0000000E+000	0.0000000E+000	-10.9063	0.0000000E+000	0.0000000E+000	0.0000000E+000	10.9063	5.18986	79.0937	3.87452e-07	-3.02284e-06	28667.4
1.46631	28.2512	4.69168	28.6382	-9.42905	17.6411	0.29438	-0.00947516	23134.8	620.915	1	11	0.00467238	0.000163152	0	-5.70135e-05	0.0344467	0.00572055	0.0349184	9.42905	620916	3.73888e+06	3.79009e+06	-80.5709	0.0000000E+000	0.0000000E+000	0.0000000E+000	80.5709	0.0000000E+000	0.0000000E+000	0.0000000E+000	-80.5709	0.0000000E+000	0.0000000E+000	0.0000000E+000	-9.42905	0.0000000E+000	0.0000000E+000	0.0000000E+000	9.42905	6.02156	80.5709	-3.80661e-06	-2.78929e-06	31068.6
1.00006	29.1987	4.24552	29.5058	-8.27288	20.8313	0.294381	-0.00871475	37485.3	776.086	1	12	0.00467317	0.000158382	0	-7.00347e-05	0.033539	0.0048766	0.0338917	8.27288	776086	5.33756e+06	5.39368e+06	-81.7271	0.0000000E+000	0.0000000E+000	0.0000000E+000	81.7271	0.0000000E+000	0.0000000E+000	0.0000000E+000	-81.7271	0.0000000E+000	0.0000000E+000	0.0000000E+000	-8.27288	0.0000000E+000	0.0000000E+000	0.0000000E+000	8.27288	6.87754	81.7271	-1.30212e-05	-2.56545e-06	33779.6
0.681362	30.0188	3.89877	30.2709	-7.40002	23.9511	0.294385	-0.00848834	59912	993.845	1	12	0.00467178	0.000154332	0	-8.41108e-05	0.0327599	0.00425478	0.033035	7.40002	993845	7.65216e+06	7.71643e+06	-82.6	0.0000000E+000	0.0000000E+000	0.0000000E+000	82.6	0.0000000E+000	0.0000000E+000	0.0000000E+000	-82.6	0.0000000E+000	0.0000000E+000	0.0000000E+000	-7.40002	0.0000000E+000	0.0000000E+000	0.0000000E+000	7.40002	7.69955	82.6	-1.40762e-05	-2.49884e-06	34681.1
0.464091	30.7773	3.71024	31.0001	-6.87391	28.5159	0.294384	-0.00857724	92430.4	1324.01	1	12	0.00467324	0.000150749	0	-9.85257e-05	0.032026	0.00386078	0.0322579	6.87391	1.32401e+06	1.0983e+07	1.10625e+07	-83.1261	0.0000000E+000	0.0000000E+000	0.0000000E+000	83.1261	0.0000000E+000	0.0000000E+000	0.0000000E+000	-83.1261	0.0000000E+000	0.0000000E+000	0.0000000E+000	-6.87391	0.0000000E+000	0.0000000E+000	0.0000000E+000	6.87391	8.29523	83.1261	-1.44149e-05	-2.525e-06	34321.5
0.316193	31.4266	3.77688	31.6527	-6.85301	35.1982	0.294382	-0.008324	133271	1897.49	1	12	0.00467387	0.000147661	0	-0.000108738	0.0313672	0.00376975	0.0315929	6.85301	1.89749e+06	1.57886e+07	1.59022e+07	-83.147	0.0000000E+000	0.0000000E+000	0.0000000E+000	83.147	0.0000000E+000	0.0000000E+000	0.0000000E+000	-83.147	0.0000000E+000	0.0000000E+000	0.0000000E+000	-6.85301	0.0000000E+000	0.0000000E+000	0.0000000E+000	6.85301	8.32077	83.147	-1.02119e-05	-2.45043e-06	35365.4
0.215268	32.0244	4.00893	32.2743	-7.13538	44.9958	0.294379	-0.00759975	184422	2845.47	1	12	0.0046741	0.000144824	0	-0.000112238	0.0307444	0.0038487	0.0309844	7.13538	2.84547e+06	2.27304e+07	2.29078e+07	-82.8646	0.0000000E+000	0.0000000E+000	0.0000000E+000	82.8646	0.0000000E+000	0.0000000E+000	0.0000000E+000	-82.8646	0.0000000E+000	0.0000000E+000	0.0000000E+000	-7.13538	0.0000000E+000	0.0000000E+000	0.0000000E+000	7.13538	7.98826	82.8646	-3.50076e-06	-2.23721e-06	38735.4
0.146929	32.7363	4.40998	33.032	-7.67225	59.3313	0.294374	-0.00650318	245628	4378.04	1	12	0.00467052	0.000141394	0	-0.000111967	0.0300027	0.00404173	0.0302737	7.67225	4.37804e+06	3.24992e+07	3.27928e+07	-82.3278	0.0000000E+000	0.0000000E+000	0.0000000E+000	82.3278	0.0000000E+000	0.0000000E+000	0.0000000E+000	-82.3278	0.0000000E+000	0.0000000E+000	0.0000000E+000	-7.67225	0.0000000E+000	0.0000000E+000	0.0000000E+000	7.67225	7.42323	82.3278	2.71039e-07	-1.91437e-06	45266.2
0.0999041	33.7124	5.06198	34.0903	-8.53927	80.4011	0.294368	-0.00512033	314714	6938.97	1	12	0.00467227	0.000137056	0	-0.000119068	0.0290087	0.0043557	0.0293339	8.53927	6.93898e+06	4.6213e+07	4.67311e+07	-81.4607	0.0000000E+000	0.0000000E+000	0.0000000E+000	81.4607	0.0000000E+000	0.0000000E+000	0.0000000E+000	-81.4607	0.0000000E+000	0.0000000E+000	0.0000000E+000	-8.53927	0.0000000E+000	0.0000000E+000	0.0000000E+000	8.53927	6.65993	81.4607	-7.10095e-06	-1.50726e-06	57490
0.0680626	34.8701	5.97704	35.3787	-9.72647	111.313	0.294364	-0.0036017	391224	11166.4	1	12	0.00467275	0.000132078	0	-0.0001489	0.0278593	0.00477533	0.0282656	9.72647	1.11664e+07	6.51451e+07	6.60952e+07	-80.2735	0.0000000E+000	0.0000000E+000	0.0000000E+000	80.2735	0.0000000E+000	0.0000000E+000	0.0000000E+000	-80.2735	0.0000000E+000	0.0000000E+000	0.0000000E+000	-9.72647	0.0000000E+000	0.0000000E+000	0.0000000E+000	9.72647	5.83401	80.2735	-2.98318e-05	-1.06021e-06	81729.2
0.0464052	36.2144	7.03462	36.8913	-10.9928	156.638	0.294369	-0.00225629	487543	17727.4	1	12	0.00467361	0.000126686	0	-0.000227497	0.0266093	0.00516883	0.0271067	10.9928	1.77274e+07	9.12613e+07	9.29672e+07	-79.0072	0.0000000E+000	0.0000000E+000	0.0000000E+000	79.0072	0.0000000E+000	0.0000000E+000	0.0000000E+000	-79.0072	0.0000000E+000	0.0000000E+000	0.0000000E+000	-10.9928	0.0000000E+000	0.0000000E+000	0.0000000E+000	10.9928	5.14803	79.0072	-7.85971e-05	-6.64183e-07	130466
0.0315922	37.7498	8.07487	38.6038	-12.0739	223.199	0.294368	-0.00164093	623885	27297	1	12	0.0046722	0.000121029	0	-0.000366912	0.0253311	0.00541845	0.0259042	12.0739	2.7297e+07	1.27613e+08	1.305e+08	-77.9261	0.0000000E+000	0.0000000E+000	0.0000000E+000	77.9261	0.0000000E+000	0.0000000E+000	0.0000000E+000	-77.9261	0.0000000E+000	0.0000000E+000	0.0000000E+000	-12.0739	0.0000000E+000	0.0000000E+000	0.0000000E+000	12.0739	4.67498	77.9261	-0.000139414	-4.83036e-07	179391
0.0215268	39.5027	9.36233	40.597	-13.3334	320.867	0.29437	-0.0015393	789690	41998.9	1	12	0.00467024	0.000115039	0	-0.000550117	0.0239684	0.00568063	0.0246324	13.3334	4.19989e+07	1.77207e+08	1.82116e+08	-76.6666	0.0000000E+000	0.0000000E+000	0.0000000E+000	76.6666	0.0000000E+000	0.0000000E+000	0.0000000E+000	-76.6666	0.0000000E+000	0.0000000E+000	0.0000000E+000	-13.3334	0.0000000E+000	0.0000000E+000	0.0000000E+000	13.3334	4.21932	76.6666	-0.000183205	-4.53125e-07	191236
0.0146812	41.3544	11.2151	42.8482	-15.1734	464.062	0.294369	-0.00161591	966618	66221.5	1	12	0.00467263	0.000109051	0	-0.000718835	0.0225246	0.00610857	0.0233382	15.1734	6.62215e+07	2.44184e+08	2.53004e+08	-74.8266	0.0000000E+000	0.0000000E+000	0.0000000E+000	74.8266	0.0000000E+000	0.0000000E+000	0.0000000E+000	-74.8266	0.0000000E+000	0.0000000E+000	0.0000000E+000	-15.1734	0.0000000E+000	0.0000000E+000	0.0000000E+000	15.1734	3.68738	74.8266	-0.000168718	-4.75674e-07	182169
0.0100092	43.1249	13.9414	45.3224	-17.915	674.082	0.294367	-0.00151854	1.14055e+06	107920	1	12	0.00467387	0.000103125	0	-0.000766785	0.0209943	0.00678706	0.0220641	17.915	1.0792e+08	3.33829e+08	3.5084e+08	-72.085	0.0000000E+000	0.0000000E+000	0.0000000E+000	72.085	0.0000000E+000	0.0000000E+000	0.0000000E+000	-72.085	0.0000000E+000	0.0000000E+000	0.0000000E+000	-17.915	0.0000000E+000	0.0000000E+000	0.0000000E+000	17.915	3.09329	72.085	-4.79502e-05	-4.47008e-07	193849