File: txt/17454_R281_UA646_SOC00_C01.mpt
EC-Lab ASCII FILE
Nb header lines : 63

Potentio Electrochemical Impedance Spectroscopy

Run on channel : 1 (SN 66354)
User :
CE vs. WE compliance from -10 V to 10 V
Electrode connection : standard
Potential control : Ewe
Ewe ctrl range : min = -10.00 V, max = 10.00 V
Safety Limits :
	Do not start on E overload
Acquisition started on : 09/11/2025 16:15:27.841
Loaded Setting File :  C:\Users\Celltest\OneDrive - store-dot.com\Documents\EC-Lab\Data\Gyutae\EIS_SOC0_C01.mpr
Saved on :
	File : 17454_C01.mpr
	Directory : C:\Users\Celltest\OneDrive - store-dot.com\Documents\EC-Lab\Data\John\R281\
	Host : 169.254.61.224
Device : VMP-3e (SN .003165)
Address : USB
EC-LAB for windows v11.62 (software)
Internet server v27.00 (firmware)
Command interpretor v12.03 (firmware)
Electrode material :
Initial state :
Electrolyte :
Comments :
Electrode surface area : 0.001 cm²
Characteristic mass : 0.001 g
Equivalent Weight : 0.000 g/eq.
Density : 0.000 g/cm3
Volume (V) : 0.001 cm³
Cycle Definition : Charge/Discharge alternance
Mode                Single sine
E (V)               0.0000
vs.                 Eoc
tE (h:m:s)          0:00:0.0000
record              0
dI                  0.000
unit dI             mA
dt (s)              0.000
fi                  100.000
unit fi             kHz
ff                  10.000
unit ff             mHz
Nd                  6
Points              per decade
spacing             Logarithmic
Va (mV)             5.0
pw                  0.10
Na                  2
corr                0
E range min (V)     -10.000
E range max (V)     10.000
I Range             Auto
Bandwidth           5
nc cycles           0
goto Ns'            0
nr cycles           0
inc. cycle          0

freq/Hz	Re(Z)/Ohm	-Im(Z)/Ohm	|Z|/Ohm	Phase(Z)/deg	time/s	<Ewe>/V	<I>/mA	Cs/µF	Cp/µF	cycle number	I Range	|Ewe|/V	|I|/A	Ns	(Q-Qo)/mA.h	Re(Y)/Ohm-1	Im(Y)/Ohm-1	|Y|/Ohm-1	Phase(Y)/deg	Re(C)/nF	Im(C)/nF	|C|/nF	Phase(C)/deg	Re(M)	Im(M)	|M|	Phase(M)/deg	Re(Permittivity)	Im(Permittivity)	|Permittivity|	Phase(Permittivity)/deg	Re(Resistivity)/Ohm.cm	Im(Resistivity)/Ohm.cm	|Resistivity|/Ohm.cm	Phase(Resistivity)/deg	Re(Conductivity)/mS/cm	Im(Conductivity)/mS/cm	|Conductivity|/mS/cm	Phase(Conductivity)/deg	Tan(Delta)	Loss Angle(Delta)/deg	dq/mA.h	Pwe/W	Rwe/Ohm
100004	2.01737	0.343941	2.04648	-9.67529	2.06849	0.296243	0.0336175	4.62722	0.130699	1	9	0.00455772	0.0022271	0	4.01284e-07	0.481693	0.0821235	0.488643	9.67529	130.699	766.61	777.671	-80.3247	0.0000000E+000	0.0000000E+000	0.0000000E+000	80.3247	0.0000000E+000	0.0000000E+000	0.0000000E+000	-80.3247	0.0000000E+000	0.0000000E+000	0.0000000E+000	-9.67529	0.0000000E+000	0.0000000E+000	0.0000000E+000	9.67529	5.86547	80.3247	4.01284e-07	9.95893e-06	8812.16
68132	2.09923	0.369031	2.13142	-9.97035	2.64648	0.296249	0.0311028	6.33003	0.189755	1	9	0.00504229	0.00236569	0	4.74487e-06	0.462085	0.0812315	0.469171	9.97035	189.755	1079.42	1095.97	-80.0296	0.0000000E+000	0.0000000E+000	0.0000000E+000	80.0296	0.0000000E+000	0.0000000E+000	0.0000000E+000	-80.0296	0.0000000E+000	0.0000000E+000	0.0000000E+000	-9.97035	0.0000000E+000	0.0000000E+000	0.0000000E+000	9.97035	5.68849	80.0296	4.34358e-06	9.21416e-06	9524.82
46420.4	2.18825	0.403172	2.22508	-10.4393	3.22449	0.296246	0.0388331	8.50397	0.279196	1	9	0.0051034	0.00229358	0	7.80351e-06	0.441982	0.0814323	0.449421	10.4393	279.195	1515.36	1540.87	-79.5607	0.0000000E+000	0.0000000E+000	0.0000000E+000	79.5607	0.0000000E+000	0.0000000E+000	0.0000000E+000	-79.5607	0.0000000E+000	0.0000000E+000	0.0000000E+000	-10.4393	0.0000000E+000	0.0000000E+000	0.0000000E+000	10.4393	5.4276	79.5607	3.05864e-06	1.15041e-05	7628.69
31621.1	2.27294	0.459878	2.319	-11.4381	3.80249	0.296246	0.0371939	10.9446	0.430411	1	9	0.00508922	0.00219458	0	1.49222e-05	0.422656	0.0855148	0.43122	11.4381	430.411	2127.3	2170.41	-78.5619	0.0000000E+000	0.0000000E+000	0.0000000E+000	78.5619	0.0000000E+000	0.0000000E+000	0.0000000E+000	-78.5619	0.0000000E+000	0.0000000E+000	0.0000000E+000	-11.4381	0.0000000E+000	0.0000000E+000	0.0000000E+000	11.4381	4.94249	78.5619	7.11872e-06	1.10185e-05	7964.91
21544.7	2.37079	0.519254	2.42698	-12.354	4.09849	0.296238	0.0352939	14.2266	0.651218	1	9	0.00475091	0.00195753	0	1.88584e-05	0.402493	0.0881549	0.412034	12.354	651.218	2973.3	3043.78	-77.646	0.0000000E+000	0.0000000E+000	0.0000000E+000	77.646	0.0000000E+000	0.0000000E+000	0.0000000E+000	-77.646	0.0000000E+000	0.0000000E+000	0.0000000E+000	-12.354	0.0000000E+000	0.0000000E+000	0.0000000E+000	12.354	4.56575	77.646	3.93618e-06	1.04554e-05	8393.45
14678.6	2.4893	0.58033	2.55605	-13.123	4.53548	0.296246	0.0351821	18.6836	0.963101	1	9	0.00484194	0.0018943	0	2.35149e-05	0.381012	0.0888252	0.391229	13.123	963.101	4131.18	4241.96	-76.877	0.0000000E+000	0.0000000E+000	0.0000000E+000	76.877	0.0000000E+000	0.0000000E+000	0.0000000E+000	-76.877	0.0000000E+000	0.0000000E+000	0.0000000E+000	-13.123	0.0000000E+000	0.0000000E+000	0.0000000E+000	13.123	4.28945	76.877	4.65651e-06	1.04226e-05	8420.36
10002.2	2.61195	0.670054	2.69652	-14.3881	4.83248	0.296246	0.0376782	23.7473	1.46631	1	9	0.00452297	0.00167733	0	2.55257e-05	0.359216	0.0921514	0.370848	14.3881	1466.31	5715.83	5900.92	-75.6119	0.0000000E+000	0.0000000E+000	0.0000000E+000	75.6119	0.0000000E+000	0.0000000E+000	0.0000000E+000	-75.6119	0.0000000E+000	0.0000000E+000	0.0000000E+000	-14.3881	0.0000000E+000	0.0000000E+000	0.0000000E+000	14.3881	3.89811	75.6119	2.01083e-06	1.1162e-05	7862.55
6811.07	2.75578	0.773853	2.86237	-15.6853	5.3875	0.296162	0.0342508	30.1958	2.20705	1	9	0.00485335	0.00169557	0	2.86343e-05	0.336351	0.094451	0.349361	15.6853	2207.05	7859.55	8163.55	-74.3147	0.0000000E+000	0.0000000E+000	0.0000000E+000	74.3147	0.0000000E+000	0.0000000E+000	0.0000000E+000	-74.3147	0.0000000E+000	0.0000000E+000	0.0000000E+000	-15.6853	0.0000000E+000	0.0000000E+000	0.0000000E+000	15.6853	3.56112	74.3147	3.10853e-06	1.01438e-05	8646.86
4641.49	2.9348	0.882644	3.06465	-16.7387	5.8587	0.29635	0.103749	38.8488	3.22245	1	9	0.00478664	0.00156189	0	4.16177e-05	0.312475	0.0939772	0.326301	16.7387	3222.45	10714.7	11188.8	-73.2613	0.0000000E+000	0.0000000E+000	0.0000000E+000	73.2613	0.0000000E+000	0.0000000E+000	0.0000000E+000	-73.2613	0.0000000E+000	0.0000000E+000	0.0000000E+000	-16.7387	0.0000000E+000	0.0000000E+000	0.0000000E+000	16.7387	3.32501	73.2613	1.29834e-05	3.07459e-05	2856.42
3161.01	3.13935	1.04007	3.30715	-18.3301	6.32571	0.296353	0.0991478	48.4097	4.78792	1	9	0.0047424	0.00143398	0	5.28117e-05	0.287032	0.095094	0.302375	18.3301	4787.92	14451.9	15224.4	-71.6699	0.0000000E+000	0.0000000E+000	0.0000000E+000	71.6699	0.0000000E+000	0.0000000E+000	0.0000000E+000	-71.6699	0.0000000E+000	0.0000000E+000	0.0000000E+000	-18.3301	0.0000000E+000	0.0000000E+000	0.0000000E+000	18.3301	3.01841	71.6699	1.1194e-05	2.93828e-05	2989
2155.69	3.37206	1.18429	3.57398	-19.3516	6.7927	0.296346	0.100452	62.3412	6.84523	1	9	0.00471796	0.00132008	0	6.60903e-05	0.263992	0.0927159	0.2798	19.3516	6845.23	19490.6	20657.7	-70.6484	0.0000000E+000	0.0000000E+000	0.0000000E+000	70.6484	0.0000000E+000	0.0000000E+000	0.0000000E+000	-70.6484	0.0000000E+000	0.0000000E+000	0.0000000E+000	-19.3516	0.0000000E+000	0.0000000E+000	0.0000000E+000	19.3516	2.84732	70.6484	1.32786e-05	2.97685e-05	2950.13
1468.59	3.65031	1.38969	3.9059	-20.8421	7.51393	0.296281	-0.00903453	77.9832	9.8718	1	10	0.00479886	0.00122862	0	7.11832e-05	0.23927	0.0910913	0.256023	20.8421	9871.8	25930.3	27745.9	-69.1579	0.0000000E+000	0.0000000E+000	0.0000000E+000	69.1579	0.0000000E+000	0.0000000E+000	0.0000000E+000	-69.1579	0.0000000E+000	0.0000000E+000	0.0000000E+000	-20.8421	0.0000000E+000	0.0000000E+000	0.0000000E+000	20.8421	2.62671	69.1579	5.09295e-06	-2.67676e-06	32794.3
1000.32	3.94904	1.61788	4.26761	-22.2784	7.98367	0.296286	-0.00927306	98.3408	14.1338	1	10	0.00476489	0.00111652	0	6.92853e-05	0.216832	0.0888338	0.234323	22.2784	14133.8	34498.8	37281.8	-67.7216	0.0000000E+000	0.0000000E+000	0.0000000E+000	67.7216	0.0000000E+000	0.0000000E+000	0.0000000E+000	-67.7216	0.0000000E+000	0.0000000E+000	0.0000000E+000	-22.2784	0.0000000E+000	0.0000000E+000	0.0000000E+000	22.2784	2.44087	67.7216	-1.89793e-06	-2.74748e-06	31951.3
681.09	4.27697	1.90182	4.68075	-23.973	8.44942	0.296291	-0.00857612	122.87	20.284	1	10	0.00473467	0.00101152	0	6.76573e-05	0.195212	0.0868037	0.213641	23.973	20284	45616.5	49923	-66.027	0.0000000E+000	0.0000000E+000	0.0000000E+000	66.027	0.0000000E+000	0.0000000E+000	0.0000000E+000	-66.027	0.0000000E+000	0.0000000E+000	0.0000000E+000	-23.973	0.0000000E+000	0.0000000E+000	0.0000000E+000	23.973	2.24889	66.027	-1.62799e-06	-2.54103e-06	34548.3
463.961	4.65622	2.26983	5.18001	-25.9885	8.91821	0.29629	-0.00887614	151.128	29.0183	1	10	0.0047189	0.000910983	0	6.68434e-05	0.173529	0.0845926	0.19305	25.9885	29018.3	59526.6	66223	-64.0115	0.0000000E+000	0.0000000E+000	0.0000000E+000	64.0115	0.0000000E+000	0.0000000E+000	0.0000000E+000	-64.0115	0.0000000E+000	0.0000000E+000	0.0000000E+000	-25.9885	0.0000000E+000	0.0000000E+000	0.0000000E+000	25.9885	2.05135	64.0115	-8.13855e-07	-2.62991e-06	33380.5
316.316	5.11482	2.75328	5.80878	-28.2934	9.38492	0.296285	-0.00891714	182.746	41.0564	1	10	0.00470657	0.000810251	0	6.54589e-05	0.151586	0.0815983	0.172153	28.2934	41056.4	76271	86619.2	-61.7066	0.0000000E+000	0.0000000E+000	0.0000000E+000	61.7066	0.0000000E+000	0.0000000E+000	0.0000000E+000	-61.7066	0.0000000E+000	0.0000000E+000	0.0000000E+000	-28.2934	0.0000000E+000	0.0000000E+000	0.0000000E+000	28.2934	1.85771	61.7066	-1.38459e-06	-2.64202e-06	33226.4
215.345	5.70602	3.37233	6.62807	-30.5836	9.85245	0.29628	-0.00844569	219.157	56.7339	1	10	0.00469545	0.000708419	0	6.3743e-05	0.129885	0.0767638	0.150874	30.5836	56733.9	95994.4	111506	-59.4164	0.0000000E+000	0.0000000E+000	0.0000000E+000	59.4164	0.0000000E+000	0.0000000E+000	0.0000000E+000	-59.4164	0.0000000E+000	0.0000000E+000	0.0000000E+000	-30.5836	0.0000000E+000	0.0000000E+000	0.0000000E+000	30.5836	1.69201	59.4164	-1.71587e-06	-2.50229e-06	35080.6
146.737	6.50944	4.12507	7.70643	-32.3627	10.3154	0.296282	-0.00995697	262.935	75.3363	1	10	0.00468976	0.000608552	0	6.29404e-05	0.109607	0.0694584	0.129762	32.3627	75336.3	118882	140743	-57.6373	0.0000000E+000	0.0000000E+000	0.0000000E+000	57.6373	0.0000000E+000	0.0000000E+000	0.0000000E+000	-57.6373	0.0000000E+000	0.0000000E+000	0.0000000E+000	-32.3627	0.0000000E+000	0.0000000E+000	0.0000000E+000	32.3627	1.57802	57.6373	-8.02623e-07	-2.95007e-06	29756.3
100.032	7.57449	4.96929	9.05907	-33.2671	10.7837	0.29628	-0.00866745	320.175	96.3403	1	10	0.00468952	0.00051766	0	6.23944e-05	0.0922967	0.0605518	0.110387	33.2671	96340.3	146848	175629	-56.7329	0.0000000E+000	0.0000000E+000	0.0000000E+000	56.7329	0.0000000E+000	0.0000000E+000	0.0000000E+000	-56.7329	0.0000000E+000	0.0000000E+000	0.0000000E+000	-33.2671	0.0000000E+000	0.0000000E+000	0.0000000E+000	33.2671	1.52426	56.7329	-5.46004e-07	-2.56799e-06	34183.1
68.104	8.94821	5.79775	10.6623	-32.9401	11.2623	0.296286	-0.00558527	403.077	119.181	1	10	0.00468024	0.000438953	0	6.20314e-05	0.078711	0.0509987	0.0937885	32.9401	119181	183943	219178	-57.0599	0.0000000E+000	0.0000000E+000	0.0000000E+000	57.0599	0.0000000E+000	0.0000000E+000	0.0000000E+000	-57.0599	0.0000000E+000	0.0000000E+000	0.0000000E+000	-32.9401	0.0000000E+000	0.0000000E+000	0.0000000E+000	32.9401	1.54339	57.0599	-3.62966e-07	-1.65484e-06	53047.7
46.4415	10.6492	6.52381	12.4886	-31.4921	11.7175	0.296274	-0.0118242	525.306	143.346	1	10	0.00467955	0.000374705	0	6.06589e-05	0.0682792	0.0418285	0.0800729	31.4921	143346	233992	274409	-58.5079	0.0000000E+000	0.0000000E+000	0.0000000E+000	58.5079	0.0000000E+000	0.0000000E+000	0.0000000E+000	-58.5079	0.0000000E+000	0.0000000E+000	0.0000000E+000	-31.4921	0.0000000E+000	0.0000000E+000	0.0000000E+000	31.4921	1.63236	58.5079	-1.37249e-06	-3.5032e-06	25056.7
31.6296	12.615	7.0384	14.4457	-29.1588	12.1634	0.296267	-0.0136727	714.913	169.717	1	10	0.00468339	0.000324207	0	5.89901e-05	0.0604522	0.0337285	0.0692248	29.1588	169717	304186	348328	-60.8412	0.0000000E+000	0.0000000E+000	0.0000000E+000	60.8412	0.0000000E+000	0.0000000E+000	0.0000000E+000	-60.8412	0.0000000E+000	0.0000000E+000	0.0000000E+000	-29.1588	0.0000000E+000	0.0000000E+000	0.0000000E+000	29.1588	1.79231	60.8412	-1.66885e-06	-4.05078e-06	21668.5
21.5517	14.8435	7.33037	16.5549	-26.2822	12.8433	0.296304	-0.0089851	1007.42	197.52	1	11	0.00468804	0.000283182	0	5.68366e-05	0.0541607	0.0267469	0.0604051	26.2822	197520	399965	446079	-63.7178	0.0000000E+000	0.0000000E+000	0.0000000E+000	63.7178	0.0000000E+000	0.0000000E+000	0.0000000E+000	-63.7178	0.0000000E+000	0.0000000E+000	0.0000000E+000	-26.2822	0.0000000E+000	0.0000000E+000	0.0000000E+000	26.2822	2.02493	63.7178	-2.15344e-06	-2.66232e-06	32977.2
14.6852	16.9533	7.22303	18.4278	-23.0767	13.321	0.296318	-0.00801316	1500.45	230.522	1	11	0.00468086	0.00025401	0	5.58062e-05	0.0499234	0.0212701	0.0542657	23.0767	230522	541061	588122	-66.9233	0.0000000E+000	0.0000000E+000	0.0000000E+000	66.9233	0.0000000E+000	0.0000000E+000	0.0000000E+000	-66.9233	0.0000000E+000	0.0000000E+000	0.0000000E+000	-23.0767	0.0000000E+000	0.0000000E+000	0.0000000E+000	23.0767	2.34711	66.9233	-1.03045e-06	-2.37445e-06	36979
10.0032	18.9637	6.87101	20.1701	-19.9167	13.7897	0.296317	-0.00816826	2315.58	268.711	1	11	0.00468382	0.000232216	0	5.59874e-05	0.046613	0.016889	0.0495783	19.9167	268711	741631	788811	-70.0833	0.0000000E+000	0.0000000E+000	0.0000000E+000	70.0833	0.0000000E+000	0.0000000E+000	0.0000000E+000	-70.0833	0.0000000E+000	0.0000000E+000	0.0000000E+000	-19.9167	0.0000000E+000	0.0000000E+000	0.0000000E+000	19.9167	2.75996	70.0833	1.81203e-07	-2.4204e-06	36276.7
6.81719	20.7367	6.31231	21.6761	-16.9304	14.1474	0.296316	-0.0082217	3698.51	313.646	1	11	0.00467425	0.000215641	0	5.46545e-05	0.0441342	0.0134346	0.0461337	16.9304	313646	1.03036e+06	1.07704e+06	-73.0696	0.0000000E+000	0.0000000E+000	0.0000000E+000	73.0696	0.0000000E+000	0.0000000E+000	0.0000000E+000	-73.0696	0.0000000E+000	0.0000000E+000	0.0000000E+000	-16.9304	0.0000000E+000	0.0000000E+000	0.0000000E+000	16.9304	3.28512	73.0696	-1.33282e-06	-2.43622e-06	36040.8
4.63925	22.2894	5.71081	23.0094	-14.3707	14.6503	0.296325	-0.00707771	6007.23	370.049	1	11	0.00468166	0.000203467	0	5.5874e-05	0.0421006	0.0107867	0.0434605	14.3707	370049	1.44431e+06	1.49096e+06	-75.6293	0.0000000E+000	0.0000000E+000	0.0000000E+000	75.6293	0.0000000E+000	0.0000000E+000	0.0000000E+000	-75.6293	0.0000000E+000	0.0000000E+000	0.0000000E+000	-14.3707	0.0000000E+000	0.0000000E+000	0.0000000E+000	14.3707	3.90303	75.6293	1.21942e-06	-2.0973e-06	41867.3
3.1604	23.6261	5.22183	24.1963	-12.4631	15.3602	0.296329	-0.00610661	9643.97	449.163	1	11	0.00468371	0.000193571	0	5.18517e-05	0.0403548	0.0089192	0.0413287	12.4631	449164	2.03223e+06	2.08128e+06	-77.5369	0.0000000E+000	0.0000000E+000	0.0000000E+000	77.5369	0.0000000E+000	0.0000000E+000	0.0000000E+000	-77.5369	0.0000000E+000	0.0000000E+000	0.0000000E+000	-12.4631	0.0000000E+000	0.0000000E+000	0.0000000E+000	12.4631	4.52448	77.5369	-4.02224e-06	-1.80956e-06	48525.9
2.15577	24.7917	4.60254	25.2153	-10.5172	16.3758	0.296338	-0.00535484	16040.6	534.428	1	11	0.00468395	0.000185758	0	4.75997e-05	0.0389923	0.00723887	0.0396585	10.5172	534428	2.8787e+06	2.92789e+06	-79.4828	0.0000000E+000	0.0000000E+000	0.0000000E+000	79.4828	0.0000000E+000	0.0000000E+000	0.0000000E+000	-79.4828	0.0000000E+000	0.0000000E+000	0.0000000E+000	-10.5172	0.0000000E+000	0.0000000E+000	0.0000000E+000	10.5172	5.38651	79.4828	-4.25198e-06	-1.58684e-06	55340.2
1.46631	25.7839	4.15123	26.1159	-9.14619	17.849	0.29634	-0.00541029	26146.8	660.634	1	11	0.0046826	0.000179301	0	4.70182e-05	0.037804	0.00608649	0.0382909	9.14619	660634	4.10329e+06	4.15613e+06	-80.8538	0.0000000E+000	0.0000000E+000	0.0000000E+000	80.8538	0.0000000E+000	0.0000000E+000	0.0000000E+000	-80.8538	0.0000000E+000	0.0000000E+000	0.0000000E+000	-9.14619	0.0000000E+000	0.0000000E+000	0.0000000E+000	9.14619	6.21114	80.8538	-5.81562e-07	-1.60328e-06	54773.3
1.00006	26.5941	3.74657	26.8567	-8.01903	21.0402	0.296332	-0.00587494	42477.5	826.646	1	12	0.00468421	0.000174415	0	4.87722e-05	0.0368705	0.0051943	0.0372346	8.01903	826646	5.86775e+06	5.9257e+06	-81.981	0.0000000E+000	0.0000000E+000	0.0000000E+000	81.981	0.0000000E+000	0.0000000E+000	0.0000000E+000	-81.981	0.0000000E+000	0.0000000E+000	0.0000000E+000	-8.01903	0.0000000E+000	0.0000000E+000	0.0000000E+000	8.01903	7.09826	81.981	1.75399e-06	-1.74093e-06	50440.1
0.681362	27.3215	3.41091	27.5336	-7.11619	24.1601	0.296333	-0.00534694	68481.3	1050.96	1	12	0.00468509	0.000170159	0	4.98291e-05	0.0360395	0.0044993	0.0363193	7.11619	1.05096e+06	8.41824e+06	8.48359e+06	-82.8838	0.0000000E+000	0.0000000E+000	0.0000000E+000	82.8838	0.0000000E+000	0.0000000E+000	0.0000000E+000	-82.8838	0.0000000E+000	0.0000000E+000	0.0000000E+000	-7.11619	0.0000000E+000	0.0000000E+000	0.0000000E+000	7.11619	8.01003	82.8838	1.0569e-06	-1.58447e-06	55421
0.464091	27.9594	3.28189	28.1514	-6.69476	28.7249	0.296338	-0.00432259	104495	1420.17	1	12	0.00468726	0.000166502	0	4.40365e-05	0.03528	0.00414118	0.0355222	6.69476	1.42017e+06	1.20989e+07	1.2182e+07	-83.3052	0.0000000E+000	0.0000000E+000	0.0000000E+000	83.3052	0.0000000E+000	0.0000000E+000	0.0000000E+000	-83.3052	0.0000000E+000	0.0000000E+000	0.0000000E+000	-6.69476	0.0000000E+000	0.0000000E+000	0.0000000E+000	6.69476	8.51932	83.3052	-5.79253e-06	-1.28095e-06	68555.7
0.316193	28.5066	3.32763	28.7001	-6.65811	35.407	0.296342	-0.00367756	151263	2033.45	1	12	0.00468733	0.000163321	0	2.62849e-05	0.034608	0.00403986	0.034843	6.65811	2.03345e+06	1.74199e+07	1.75381e+07	-83.3419	0.0000000E+000	0.0000000E+000	0.0000000E+000	83.3419	0.0000000E+000	0.0000000E+000	0.0000000E+000	-83.3419	0.0000000E+000	0.0000000E+000	0.0000000E+000	-6.65811	0.0000000E+000	0.0000000E+000	0.0000000E+000	6.65811	8.56664	83.3419	-1.77517e-05	-1.08982e-06	80581.1
0.215268	29.0628	3.50962	29.274	-6.88568	45.2048	0.296333	-0.00354208	210659	3027.87	1	12	0.00468616	0.000160079	0	-5.06308e-06	0.0339136	0.0040954	0.03416	6.88568	3.02787e+06	2.50735e+07	2.52557e+07	-83.1143	0.0000000E+000	0.0000000E+000	0.0000000E+000	83.1143	0.0000000E+000	0.0000000E+000	0.0000000E+000	-83.1143	0.0000000E+000	0.0000000E+000	0.0000000E+000	-6.88568	0.0000000E+000	0.0000000E+000	0.0000000E+000	6.88568	8.28091	83.1143	-3.1348e-05	-1.04963e-06	83660.7
0.146929	29.7746	3.91746	30.0312	-7.49537	59.5402	0.296332	-0.00351212	276509	4705.12	1	12	0.00468445	0.000155986	0	-4.50469e-05	0.0330141	0.00434368	0.0332987	7.49537	4.70513e+06	3.57613e+07	3.60695e+07	-82.5046	0.0000000E+000	0.0000000E+000	0.0000000E+000	82.5046	0.0000000E+000	0.0000000E+000	0.0000000E+000	-82.5046	0.0000000E+000	0.0000000E+000	0.0000000E+000	-7.49537	0.0000000E+000	0.0000000E+000	0.0000000E+000	7.49537	7.6005	82.5046	-3.99838e-05	-1.04075e-06	84374.1
0.0999041	30.6706	4.61458	31.0158	-8.55632	80.6101	0.296334	-0.0034988	345227	7641.93	1	12	0.00468521	0.000151059	0	-7.88003e-05	0.0318828	0.00479696	0.0322416	8.55632	7.64193e+06	5.07917e+07	5.13634e+07	-81.4437	0.0000000E+000	0.0000000E+000	0.0000000E+000	81.4437	0.0000000E+000	0.0000000E+000	0.0000000E+000	-81.4437	0.0000000E+000	0.0000000E+000	0.0000000E+000	-8.55632	0.0000000E+000	0.0000000E+000	0.0000000E+000	8.55632	6.64645	81.4437	-3.37534e-05	-1.03681e-06	84696
0.0680626	31.6836	5.52563	32.1618	-9.8929	111.522	0.296329	-0.00350725	423184	12491.4	1	12	0.00468842	0.000145776	0	-9.28139e-05	0.0306304	0.00534195	0.0310927	9.8929	1.24914e+07	7.1625e+07	7.27061e+07	-80.1071	0.0000000E+000	0.0000000E+000	0.0000000E+000	80.1071	0.0000000E+000	0.0000000E+000	0.0000000E+000	-80.1071	0.0000000E+000	0.0000000E+000	0.0000000E+000	-9.8929	0.0000000E+000	0.0000000E+000	0.0000000E+000	9.8929	5.73394	80.1071	-1.40137e-05	-1.0393e-06	84490.5
0.0464052	32.8131	6.45764	33.4425	-11.1335	156.846	0.296331	-0.00285722	531104	19802.9	1	12	0.00468574	0.000140113	0	-5.83618e-05	0.0293393	0.00577398	0.029902	11.1335	1.98029e+07	1.00624e+08	1.02554e+08	-78.8665	0.0000000E+000	0.0000000E+000	0.0000000E+000	78.8665	0.0000000E+000	0.0000000E+000	0.0000000E+000	-78.8665	0.0000000E+000	0.0000000E+000	0.0000000E+000	-11.1335	0.0000000E+000	0.0000000E+000	0.0000000E+000	11.1335	5.08129	78.8665	3.44521e-05	-8.46683e-07	103713
0.0315922	34.2361	7.47981	35.0436	-12.3242	223.407	0.296331	-0.0017561	673519	30684	1	12	0.00468385	0.000133658	0	2.49173e-05	0.0278783	0.00609077	0.0285359	12.3242	3.0684e+07	1.40445e+08	1.43758e+08	-77.6758	0.0000000E+000	0.0000000E+000	0.0000000E+000	77.6758	0.0000000E+000	0.0000000E+000	0.0000000E+000	-77.6758	0.0000000E+000	0.0000000E+000	0.0000000E+000	-12.3242	0.0000000E+000	0.0000000E+000	0.0000000E+000	12.3242	4.57713	77.6758	8.32791e-05	-5.20387e-07	168743
0.0215268	35.8733	8.79643	36.9361	-13.7776	321.076	0.296331	-0.000519933	840494	47670.1	1	12	0.00468721	0.000126901	0	0.000125049	0.0262948	0.00644771	0.0270738	13.7776	4.76701e+07	1.94407e+08	2.00166e+08	-76.2224	0.0000000E+000	0.0000000E+000	0.0000000E+000	76.2224	0.0000000E+000	0.0000000E+000	0.0000000E+000	-76.2224	0.0000000E+000	0.0000000E+000	0.0000000E+000	-13.7776	0.0000000E+000	0.0000000E+000	0.0000000E+000	13.7776	4.07817	76.2224	0.000100132	-1.54072e-07	569940
0.0146812	37.5081	10.7348	39.014	-15.9711	464.272	0.29633	0.000316486	1.00987e+06	76456	1	12	0.00468492	0.000120083	0	0.0001666	0.0246424	0.00705265	0.0256318	15.9711	7.6456e+07	2.67142e+08	2.77868e+08	-74.0289	0.0000000E+000	0.0000000E+000	0.0000000E+000	74.0289	0.0000000E+000	0.0000000E+000	0.0000000E+000	-74.0289	0.0000000E+000	0.0000000E+000	0.0000000E+000	-15.9711	0.0000000E+000	0.0000000E+000	0.0000000E+000	15.9711	3.49407	74.0289	4.15514e-05	9.37842e-08	936312
0.0100092	39.0768	13.4124	41.3145	-18.9439	674.292	0.296333	0.000534841	1.18554e+06	124947	1	12	0.00468662	0.000113438	0	3.47503e-05	0.0228936	0.00785783	0.0242046	18.9439	1.24947e+08	3.64029e+08	3.84875e+08	-71.0561	0.0000000E+000	0.0000000E+000	0.0000000E+000	71.0561	0.0000000E+000	0.0000000E+000	0.0000000E+000	-71.0561	0.0000000E+000	0.0000000E+000	0.0000000E+000	-18.9439	0.0000000E+000	0.0000000E+000	0.0000000E+000	18.9439	2.91347	71.0561	-0.00013185	1.58491e-07	554058