File: txt/17457_R281_UA646_SOC00_C04.mpt
EC-Lab ASCII FILE
Nb header lines : 63

Potentio Electrochemical Impedance Spectroscopy

Run on channel : 4 (SN 66756)
User :
CE vs. WE compliance from -10 V to 10 V
Electrode connection : standard
Potential control : Ewe
Ewe ctrl range : min = -10.00 V, max = 10.00 V
Safety Limits :
	Do not start on E overload
Acquisition started on : 09/11/2025 16:15:59.049
Loaded Setting File :  C:\Users\Celltest\OneDrive - store-dot.com\Documents\EC-Lab\Data\Charmaine\R279\17382.mps
Saved on :
	File : 17457_C04.mpr
	Directory : C:\Users\Celltest\OneDrive - store-dot.com\Documents\EC-Lab\Data\John\R281\
	Host : 169.254.61.224
Device : VMP-3e (SN .003165)
Address : USB
EC-LAB for windows v11.62 (software)
Internet server v27.00 (firmware)
Command interpretor v12.03 (firmware)
Electrode material :
Initial state :
Electrolyte :
Comments :
Electrode surface area : 0.001 cm²
Characteristic mass : 0.001 g
Equivalent Weight : 0.000 g/eq.
Density : 0.000 g/cm3
Volume (V) : 0.001 cm³
Cycle Definition : Charge/Discharge alternance
Mode                Single sine
E (V)               0.0000
vs.                 Eoc
tE (h:m:s)          0:00:0.0000
record              0
dI                  0.000
unit dI             mA
dt (s)              0.000
fi                  100.000
unit fi             kHz
ff                  10.000
unit ff             mHz
Nd                  6
Points              per decade
spacing             Logarithmic
Va (mV)             5.0
pw                  0.10
Na                  2
corr                0
E range min (V)     -10.000
E range max (V)     10.000
I Range             Auto
Bandwidth           5
nc cycles           0
goto Ns'            0
nr cycles           0
inc. cycle          0

freq/Hz	Re(Z)/Ohm	-Im(Z)/Ohm	|Z|/Ohm	Phase(Z)/deg	time/s	<Ewe>/V	<I>/mA	Cs/µF	Cp/µF	cycle number	I Range	|Ewe|/V	|I|/A	Ns	(Q-Qo)/mA.h	Re(Y)/Ohm-1	Im(Y)/Ohm-1	|Y|/Ohm-1	Phase(Y)/deg	Re(C)/nF	Im(C)/nF	|C|/nF	Phase(C)/deg	Re(M)	Im(M)	|M|	Phase(M)/deg	Re(Permittivity)	Im(Permittivity)	|Permittivity|	Phase(Permittivity)/deg	Re(Resistivity)/Ohm.cm	Im(Resistivity)/Ohm.cm	|Resistivity|/Ohm.cm	Phase(Resistivity)/deg	Re(Conductivity)/mS/cm	Im(Conductivity)/mS/cm	|Conductivity|/mS/cm	Phase(Conductivity)/deg	Tan(Delta)	Loss Angle(Delta)/deg	dq/mA.h	Pwe/W	Rwe/Ohm
100004	1.91895	0.318442	1.94519	-9.42216	2.06647	0.286002	-0.049945	4.99773	0.13394	1	9	0.00455495	0.00234165	0	-1.17859e-05	0.507153	0.0841601	0.514088	9.42216	133.94	807.128	818.166	-80.5778	0.0000000E+000	0.0000000E+000	0.0000000E+000	80.5778	0.0000000E+000	0.0000000E+000	0.0000000E+000	-80.5778	0.0000000E+000	0.0000000E+000	0.0000000E+000	-9.42216	0.0000000E+000	0.0000000E+000	0.0000000E+000	9.42216	6.02605	80.5778	-1.17859e-05	-1.42844e-05	5726.34
68132	1.98835	0.353929	2.0196	-10.093	2.6445	0.286	-0.0483226	6.60013	0.202699	1	9	0.00504656	0.00249879	0	-2.52708e-05	0.487484	0.0867728	0.495147	10.093	202.699	1138.75	1156.65	-79.907	0.0000000E+000	0.0000000E+000	0.0000000E+000	79.907	0.0000000E+000	0.0000000E+000	0.0000000E+000	-79.907	0.0000000E+000	0.0000000E+000	0.0000000E+000	-10.093	0.0000000E+000	0.0000000E+000	0.0000000E+000	10.093	5.61793	79.907	-1.34849e-05	-1.38203e-05	5918.55
46420.4	2.07817	0.390188	2.11448	-10.6338	3.22249	0.286004	-0.0465883	8.78695	0.29921	1	9	0.0051338	0.00242792	0	-2.90059e-05	0.464807	0.08727	0.472929	10.6338	299.21	1593.62	1621.46	-79.3662	0.0000000E+000	0.0000000E+000	0.0000000E+000	79.3662	0.0000000E+000	0.0000000E+000	0.0000000E+000	-79.3662	0.0000000E+000	0.0000000E+000	0.0000000E+000	-10.6338	0.0000000E+000	0.0000000E+000	0.0000000E+000	10.6338	5.32608	79.3662	-3.73512e-06	-1.33244e-05	6138.97
31621.1	2.16458	0.460497	2.21302	-12.0102	3.80049	0.286008	-0.0491804	10.9299	0.473258	1	9	0.00512027	0.0023137	0	-3.30697e-05	0.44198	0.0940276	0.451871	12.0102	473.258	2224.56	2274.35	-77.9898	0.0000000E+000	0.0000000E+000	0.0000000E+000	77.9898	0.0000000E+000	0.0000000E+000	0.0000000E+000	-77.9898	0.0000000E+000	0.0000000E+000	0.0000000E+000	-12.0102	0.0000000E+000	0.0000000E+000	0.0000000E+000	12.0102	4.70053	77.9898	-4.06387e-06	-1.4066e-05	5815.49
21544.7	2.26459	0.519837	2.32349	-12.9283	4.09648	0.286008	-0.0492177	14.2106	0.711322	1	9	0.00515293	0.00221776	0	-3.63457e-05	0.419478	0.0962912	0.430387	12.9283	711.322	3098.77	3179.36	-77.0717	0.0000000E+000	0.0000000E+000	0.0000000E+000	77.0717	0.0000000E+000	0.0000000E+000	0.0000000E+000	-77.0717	0.0000000E+000	0.0000000E+000	0.0000000E+000	-12.9283	0.0000000E+000	0.0000000E+000	0.0000000E+000	12.9283	4.35634	77.0717	-3.27594e-06	-1.40767e-05	5811.08
14678.6	2.37916	0.596704	2.45285	-14.0796	4.3925	0.286005	-0.0450964	18.1709	1.07536	1	9	0.00450889	0.00183822	0	-4.08513e-05	0.395442	0.0991784	0.407689	14.0796	1075.36	4287.64	4420.43	-75.9204	0.0000000E+000	0.0000000E+000	0.0000000E+000	75.9204	0.0000000E+000	0.0000000E+000	0.0000000E+000	-75.9204	0.0000000E+000	0.0000000E+000	0.0000000E+000	-14.0796	0.0000000E+000	0.0000000E+000	0.0000000E+000	14.0796	3.98718	75.9204	-4.50561e-06	-1.28978e-05	6342.07
10002.2	2.50561	0.671875	2.59413	-15.0106	4.82949	0.286016	-0.0459169	23.6829	1.58865	1	9	0.00486705	0.00187618	0	-4.59299e-05	0.372332	0.0998402	0.385486	15.0106	1588.65	5924.53	6133.83	-74.9894	0.0000000E+000	0.0000000E+000	0.0000000E+000	74.9894	0.0000000E+000	0.0000000E+000	0.0000000E+000	-74.9894	0.0000000E+000	0.0000000E+000	0.0000000E+000	-15.0106	0.0000000E+000	0.0000000E+000	0.0000000E+000	15.0106	3.72928	74.9894	-5.0786e-06	-1.3133e-05	6228.99
6811.07	2.6619	0.789219	2.77643	-16.5144	5.20749	0.285909	-0.0628686	29.6079	2.39237	1	9	0.00469037	0.00168935	0	-5.33597e-05	0.345317	0.102382	0.360174	16.5144	2392.37	8069.05	8416.23	-73.4856	0.0000000E+000	0.0000000E+000	0.0000000E+000	73.4856	0.0000000E+000	0.0000000E+000	0.0000000E+000	-73.4856	0.0000000E+000	0.0000000E+000	0.0000000E+000	-16.5144	0.0000000E+000	0.0000000E+000	0.0000000E+000	16.5144	3.37283	73.4856	-7.42978e-06	-1.79747e-05	4547.73
4641.49	2.83684	0.908803	2.97886	-17.7632	5.67869	0.2861	0.0120057	37.7306	3.51183	1	9	0.00460857	0.00154709	0	-5.3913e-05	0.319695	0.102417	0.335699	17.7632	3511.83	10962.2	11511	-72.2368	0.0000000E+000	0.0000000E+000	0.0000000E+000	72.2368	0.0000000E+000	0.0000000E+000	0.0000000E+000	-72.2368	0.0000000E+000	0.0000000E+000	0.0000000E+000	-17.7632	0.0000000E+000	0.0000000E+000	0.0000000E+000	17.7632	3.12151	72.2368	-5.53275e-07	3.43485e-06	23830.3
3161.01	3.04146	1.06485	3.22249	-19.2957	6.14567	0.286099	0.00827601	47.283	5.16299	1	9	0.0045575	0.00141428	0	-5.30514e-05	0.292887	0.102543	0.310319	19.2957	5162.99	14746.7	15624.4	-70.7043	0.0000000E+000	0.0000000E+000	0.0000000E+000	70.7043	0.0000000E+000	0.0000000E+000	0.0000000E+000	-70.7043	0.0000000E+000	0.0000000E+000	0.0000000E+000	-19.2957	0.0000000E+000	0.0000000E+000	0.0000000E+000	19.2957	2.85623	70.7043	8.61545e-07	2.36776e-06	34569.7
2155.69	3.28194	1.24091	3.5087	-20.7118	6.61268	0.286097	0.0110547	59.4966	7.44188	1	9	0.00453306	0.00129195	0	-5.27203e-05	0.266586	0.100797	0.285006	20.7118	7441.88	19682.1	21042	-69.2882	0.0000000E+000	0.0000000E+000	0.0000000E+000	69.2882	0.0000000E+000	0.0000000E+000	0.0000000E+000	-69.2882	0.0000000E+000	0.0000000E+000	0.0000000E+000	-20.7118	0.0000000E+000	0.0000000E+000	0.0000000E+000	20.7118	2.64477	69.2882	3.31083e-07	3.1627e-06	25880.2
1468.59	3.57298	1.45111	3.85641	-22.1038	7.33396	0.286036	-0.0121272	74.6825	10.5743	1	10	0.00461917	0.00119779	0	-5.41728e-05	0.24025	0.0975738	0.259308	22.1038	10574.3	26036.5	28101.9	-67.8962	0.0000000E+000	0.0000000E+000	0.0000000E+000	67.8962	0.0000000E+000	0.0000000E+000	0.0000000E+000	-67.8962	0.0000000E+000	0.0000000E+000	0.0000000E+000	-22.1038	0.0000000E+000	0.0000000E+000	0.0000000E+000	22.1038	2.46224	67.8962	-1.45248e-06	-3.46881e-06	23586.4
1000.32	3.88672	1.70067	4.24251	-23.6322	7.8027	0.286032	-0.0127464	93.5538	15.0333	1	10	0.00458138	0.00107988	0	-5.4827e-05	0.215942	0.0944874	0.23571	23.6322	15033.3	34357.3	37502.3	-66.3678	0.0000000E+000	0.0000000E+000	0.0000000E+000	66.3678	0.0000000E+000	0.0000000E+000	0.0000000E+000	-66.3678	0.0000000E+000	0.0000000E+000	0.0000000E+000	-23.6322	0.0000000E+000	0.0000000E+000	0.0000000E+000	23.6322	2.28541	66.3678	-6.54209e-07	-3.64587e-06	22440.3
681.09	4.23225	2.00466	4.68301	-25.3452	8.26845	0.286041	-0.013291	116.567	21.3603	1	10	0.00454843	0.000971262	0	-5.60173e-05	0.192984	0.0914094	0.213538	25.3452	21360.3	45095.9	49898.9	-64.6548	0.0000000E+000	0.0000000E+000	0.0000000E+000	64.6548	0.0000000E+000	0.0000000E+000	0.0000000E+000	-64.6548	0.0000000E+000	0.0000000E+000	0.0000000E+000	-25.3452	0.0000000E+000	0.0000000E+000	0.0000000E+000	25.3452	2.1112	64.6548	-1.1903e-06	-3.80177e-06	21521.5
463.961	4.62845	2.38915	5.20871	-27.3022	8.7372	0.286036	-0.0131698	143.581	30.2081	1	10	0.00452668	0.00086906	0	-5.75971e-05	0.170599	0.088061	0.191986	27.3022	30208.1	58521.5	65858.1	-62.6978	0.0000000E+000	0.0000000E+000	0.0000000E+000	62.6978	0.0000000E+000	0.0000000E+000	0.0000000E+000	-62.6978	0.0000000E+000	0.0000000E+000	0.0000000E+000	-27.3022	0.0000000E+000	0.0000000E+000	0.0000000E+000	27.3022	1.93728	62.6978	-1.57983e-06	-3.76703e-06	21719.2
316.316	5.12108	2.90439	5.88736	-29.5594	9.2039	0.286039	-0.0135409	173.239	42.1612	1	10	0.00452272	0.000768209	0	-5.87396e-05	0.147748	0.0837942	0.169856	29.5594	42161.2	74339.6	85463.1	-60.4406	0.0000000E+000	0.0000000E+000	0.0000000E+000	60.4406	0.0000000E+000	0.0000000E+000	0.0000000E+000	-60.4406	0.0000000E+000	0.0000000E+000	0.0000000E+000	-29.5594	0.0000000E+000	0.0000000E+000	0.0000000E+000	29.5594	1.76322	60.4406	-1.14248e-06	-3.87324e-06	21124.1
215.345	5.72887	3.55769	6.74367	-31.8407	9.67145	0.286035	-0.0126494	207.739	57.8178	1	10	0.00451353	0.000669299	0	-5.97376e-05	0.125973	0.0782304	0.148287	31.8407	57817.8	93102.8	109595	-58.1593	0.0000000E+000	0.0000000E+000	0.0000000E+000	58.1593	0.0000000E+000	0.0000000E+000	0.0000000E+000	-58.1593	0.0000000E+000	0.0000000E+000	0.0000000E+000	-31.8407	0.0000000E+000	0.0000000E+000	0.0000000E+000	31.8407	1.61028	58.1593	-9.98003e-07	-3.61817e-06	22612.5
146.737	6.5617	4.36486	7.88086	-33.6319	10.1344	0.286037	-0.0140669	248.49	76.2259	1	10	0.00450238	0.000571306	0	-6.17065e-05	0.10565	0.0702786	0.12689	33.6319	76225.9	114591	137628	-56.3681	0.0000000E+000	0.0000000E+000	0.0000000E+000	56.3681	0.0000000E+000	0.0000000E+000	0.0000000E+000	-56.3681	0.0000000E+000	0.0000000E+000	0.0000000E+000	-33.6319	0.0000000E+000	0.0000000E+000	0.0000000E+000	33.6319	1.5033	56.3681	-1.96892e-06	-4.02364e-06	20334
100.032	7.6844	5.26993	9.31784	-34.4422	10.8257	0.28604	-0.0136957	301.909	96.573	1	10	0.00487233	0.000522904	0	-6.44081e-05	0.0885074	0.060698	0.107321	34.4422	96573	140819	170752	-55.5578	0.0000000E+000	0.0000000E+000	0.0000000E+000	55.5578	0.0000000E+000	0.0000000E+000	0.0000000E+000	-55.5578	0.0000000E+000	0.0000000E+000	0.0000000E+000	-34.4422	0.0000000E+000	0.0000000E+000	0.0000000E+000	34.4422	1.45816	55.5578	-2.70156e-06	-3.91753e-06	20885.4
68.104	9.18547	6.17774	11.0697	-33.923	11.3033	0.286029	-0.0108421	378.284	117.817	1	10	0.00488529	0.000441323	0	-6.56362e-05	0.0749606	0.0504152	0.090337	33.923	117817	175178	211112	-56.077	0.0000000E+000	0.0000000E+000	0.0000000E+000	56.077	0.0000000E+000	0.0000000E+000	0.0000000E+000	-56.077	0.0000000E+000	0.0000000E+000	0.0000000E+000	-33.923	0.0000000E+000	0.0000000E+000	0.0000000E+000	33.923	1.48687	56.077	-1.22809e-06	-3.10117e-06	26381.2
46.4415	10.9936	6.97705	13.0207	-32.4011	11.7586	0.286019	-0.0174987	491.181	141.031	1	10	0.00487807	0.000374639	0	-6.74434e-05	0.0648442	0.0411531	0.0768007	32.4011	141031	222221	263196	-57.5989	0.0000000E+000	0.0000000E+000	0.0000000E+000	57.5989	0.0000000E+000	0.0000000E+000	0.0000000E+000	-57.5989	0.0000000E+000	0.0000000E+000	0.0000000E+000	-32.4011	0.0000000E+000	0.0000000E+000	0.0000000E+000	32.4011	1.57568	57.5989	-1.80721e-06	-5.00494e-06	16345.2
31.6296	13.1098	7.5221	15.1145	-29.8462	12.2054	0.28602	-0.0190709	668.941	165.682	1	10	0.00486785	0.000322064	0	-6.97872e-05	0.0573861	0.0329268	0.0661615	29.8462	165682	288758	332914	-60.1538	0.0000000E+000	0.0000000E+000	0.0000000E+000	60.1538	0.0000000E+000	0.0000000E+000	0.0000000E+000	-60.1538	0.0000000E+000	0.0000000E+000	0.0000000E+000	-29.8462	0.0000000E+000	0.0000000E+000	0.0000000E+000	29.8462	1.74284	60.1538	-2.34376e-06	-5.45467e-06	14997.7
21.5517	15.4857	7.79461	17.3368	-26.718	12.8853	0.286051	-0.00607132	947.422	191.512	1	11	0.00487228	0.000281037	0	-7.17143e-05	0.0515222	0.0259333	0.0576808	26.718	191512	380481	425961	-63.282	0.0000000E+000	0.0000000E+000	0.0000000E+000	63.282	0.0000000E+000	0.0000000E+000	0.0000000E+000	-63.282	0.0000000E+000	0.0000000E+000	0.0000000E+000	-26.718	0.0000000E+000	0.0000000E+000	0.0000000E+000	26.718	1.98672	63.282	-1.92709e-06	-1.73671e-06	47115.1
14.6852	17.7519	7.64319	19.3274	-23.2946	13.363	0.286067	-0.00495339	1417.97	221.753	1	11	0.00486681	0.000251809	0	-7.1991e-05	0.0475224	0.020461	0.05174	23.2946	221753	515038	560748	-66.7054	0.0000000E+000	0.0000000E+000	0.0000000E+000	66.7054	0.0000000E+000	0.0000000E+000	0.0000000E+000	-66.7054	0.0000000E+000	0.0000000E+000	0.0000000E+000	-23.2946	0.0000000E+000	0.0000000E+000	0.0000000E+000	23.2946	2.32258	66.7054	-2.76702e-07	-1.417e-06	57751.7
10.0032	19.8488	7.21453	21.1192	-19.975	13.8307	0.28606	-0.00529066	2205.33	257.355	1	11	0.00486627	0.000230419	0	-7.17205e-05	0.0445017	0.0161753	0.0473502	19.975	257355	708040	753360	-70.025	0.0000000E+000	0.0000000E+000	0.0000000E+000	70.025	0.0000000E+000	0.0000000E+000	0.0000000E+000	-70.025	0.0000000E+000	0.0000000E+000	0.0000000E+000	-19.975	0.0000000E+000	0.0000000E+000	0.0000000E+000	19.975	2.75122	70.025	2.70515e-07	-1.51344e-06	54068.8
6.81719	21.6984	6.64488	22.6931	-17.0266	14.1884	0.28605	-0.00560106	3513.4	301.241	1	11	0.00486429	0.000214351	0	-7.44347e-05	0.0421348	0.0129033	0.0440663	17.0266	301241	983684	1.02878e+06	-72.9734	0.0000000E+000	0.0000000E+000	0.0000000E+000	72.9734	0.0000000E+000	0.0000000E+000	0.0000000E+000	-72.9734	0.0000000E+000	0.0000000E+000	0.0000000E+000	-17.0266	0.0000000E+000	0.0000000E+000	0.0000000E+000	17.0266	3.26544	72.9734	-2.71426e-06	-1.60218e-06	51070.7
4.63925	23.3044	5.98169	24.0598	-14.3957	14.6903	0.286049	-0.00552943	5735.19	354.496	1	11	0.00486389	0.000202158	0	-7.39152e-05	0.040258	0.0103333	0.0415631	14.3957	354496	1.3811e+06	1.42587e+06	-75.6043	0.0000000E+000	0.0000000E+000	0.0000000E+000	75.6043	0.0000000E+000	0.0000000E+000	0.0000000E+000	-75.6043	0.0000000E+000	0.0000000E+000	0.0000000E+000	-14.3957	0.0000000E+000	0.0000000E+000	0.0000000E+000	14.3957	3.89595	75.6043	5.19559e-07	-1.58169e-06	51732.2
3.1604	24.6574	5.35701	25.2326	-12.2575	15.3992	0.286063	-0.00430564	9400.62	423.719	1	11	0.00485923	0.000192578	0	-7.20511e-05	0.0387278	0.00841393	0.0396313	12.2575	423719	1.9503e+06	1.9958e+06	-77.7425	0.0000000E+000	0.0000000E+000	0.0000000E+000	77.7425	0.0000000E+000	0.0000000E+000	0.0000000E+000	-77.7425	0.0000000E+000	0.0000000E+000	0.0000000E+000	-12.2575	0.0000000E+000	0.0000000E+000	0.0000000E+000	12.2575	4.60282	77.7425	1.86403e-06	-1.23169e-06	66439.3
2.15577	25.8735	4.83539	26.3214	-10.5857	16.4158	0.286071	-0.0029363	15268.2	515.264	1	11	0.00487156	0.00018508	0	-7.45406e-05	0.0373453	0.0069793	0.0379918	10.5857	515264	2.75711e+06	2.80484e+06	-79.4143	0.0000000E+000	0.0000000E+000	0.0000000E+000	79.4143	0.0000000E+000	0.0000000E+000	0.0000000E+000	-79.4143	0.0000000E+000	0.0000000E+000	0.0000000E+000	-10.5857	0.0000000E+000	0.0000000E+000	0.0000000E+000	10.5857	5.35086	79.4143	-2.4895e-06	-8.39991e-07	97425.7
1.46631	26.8385	4.30832	27.1821	-9.11973	17.889	0.286072	-0.00258705	25193.4	632.9	1	11	0.00487544	0.000179362	0	-8.04752e-05	0.0363238	0.00583096	0.0367889	9.11973	632900	3.94263e+06	3.9931e+06	-80.8803	0.0000000E+000	0.0000000E+000	0.0000000E+000	80.8803	0.0000000E+000	0.0000000E+000	0.0000000E+000	-80.8803	0.0000000E+000	0.0000000E+000	0.0000000E+000	-9.11973	0.0000000E+000	0.0000000E+000	0.0000000E+000	9.11973	6.22947	80.8803	-5.93459e-06	-7.40083e-07	110579
1.00006	27.7204	3.90894	27.9947	-8.02653	21.0792	0.286081	-0.00233817	40713	793.781	1	12	0.00487183	0.000174027	0	-8.60572e-05	0.0353711	0.00498779	0.0357211	8.02653	793782	5.62913e+06	5.68482e+06	-81.9735	0.0000000E+000	0.0000000E+000	0.0000000E+000	81.9735	0.0000000E+000	0.0000000E+000	0.0000000E+000	-81.9735	0.0000000E+000	0.0000000E+000	0.0000000E+000	-8.02653	0.0000000E+000	0.0000000E+000	0.0000000E+000	8.02653	7.09154	81.9735	-5.58195e-06	-6.68905e-07	122353
0.681362	28.5142	3.63178	28.7446	-7.25852	24.1992	0.28608	-0.00275188	64316.6	1026.71	1	12	0.00487429	0.000169573	0	-8.51059e-05	0.0345104	0.00439549	0.0347892	7.25852	1.02671e+06	8.06105e+06	8.12618e+06	-82.7415	0.0000000E+000	0.0000000E+000	0.0000000E+000	82.7415	0.0000000E+000	0.0000000E+000	0.0000000E+000	-82.7415	0.0000000E+000	0.0000000E+000	0.0000000E+000	-7.25852	0.0000000E+000	0.0000000E+000	0.0000000E+000	7.25852	7.85132	82.7415	9.51222e-07	-7.87258e-07	103958
0.464091	29.1136	3.48621	29.3216	-6.82838	28.7638	0.286075	-0.00269959	98370.2	1390.58	1	12	0.00487092	0.000166121	0	-7.81496e-05	0.0338627	0.00405489	0.0341046	6.82838	1.39058e+06	1.16128e+07	1.16958e+07	-83.1716	0.0000000E+000	0.0000000E+000	0.0000000E+000	83.1716	0.0000000E+000	0.0000000E+000	0.0000000E+000	-83.1716	0.0000000E+000	0.0000000E+000	0.0000000E+000	-6.82838	0.0000000E+000	0.0000000E+000	0.0000000E+000	6.82838	8.35106	83.1716	6.95632e-06	-7.72284e-07	105970
0.316193	29.7243	3.46861	29.926	-6.65589	35.4451	0.286075	-0.00217068	145115	1949.51	1	12	0.00487157	0.000162787	0	-6.81244e-05	0.0331905	0.00387308	0.0334157	6.65589	1.94951e+06	1.67064e+07	1.68197e+07	-83.3441	0.0000000E+000	0.0000000E+000	0.0000000E+000	83.3441	0.0000000E+000	0.0000000E+000	0.0000000E+000	-83.3441	0.0000000E+000	0.0000000E+000	0.0000000E+000	-6.65589	0.0000000E+000	0.0000000E+000	0.0000000E+000	6.65589	8.56953	83.3441	1.00252e-05	-6.20977e-07	131791
0.215268	30.3924	3.71565	30.6187	-6.97016	45.2428	0.286075	-0.00138013	198978	2930.24	1	12	0.0048689	0.000159017	0	-6.23349e-05	0.0324184	0.00396335	0.0326598	6.97016	2.93024e+06	2.39681e+07	2.41465e+07	-83.0298	0.0000000E+000	0.0000000E+000	0.0000000E+000	83.0298	0.0000000E+000	0.0000000E+000	0.0000000E+000	-83.0298	0.0000000E+000	0.0000000E+000	0.0000000E+000	-6.97016	0.0000000E+000	0.0000000E+000	0.0000000E+000	6.97016	8.17956	83.0298	5.78945e-06	-3.94819e-07	207281
0.146929	31.085	4.23222	31.3717	-7.75315	59.5784	0.286077	-0.000586725	255944	4658.04	1	12	0.00487253	0.000155316	0	-7.2194e-05	0.0315844	0.00430022	0.0318758	7.75315	4.65804e+06	3.42126e+07	3.45282e+07	-82.2469	0.0000000E+000	0.0000000E+000	0.0000000E+000	82.2469	0.0000000E+000	0.0000000E+000	0.0000000E+000	-82.2469	0.0000000E+000	0.0000000E+000	0.0000000E+000	-7.75315	0.0000000E+000	0.0000000E+000	0.0000000E+000	7.75315	7.34484	82.2469	-9.85903e-06	-1.67849e-07	487583
0.0999041	31.8737	4.94368	32.2548	-8.81646	80.6483	0.286077	-0.000213332	322245	7570.06	1	12	0.0048706	0.000151004	0	-0.000108153	0.0306368	0.00475185	0.0310032	8.81646	7.57006e+06	4.88069e+07	4.93904e+07	-81.1835	0.0000000E+000	0.0000000E+000	0.0000000E+000	81.1835	0.0000000E+000	0.0000000E+000	0.0000000E+000	-81.1835	0.0000000E+000	0.0000000E+000	0.0000000E+000	-8.81646	0.0000000E+000	0.0000000E+000	0.0000000E+000	8.81646	6.44735	81.1835	-3.59587e-05	-6.10294e-08	1.34099e+06
0.0680626	32.9509	5.78624	33.4551	-9.9597	111.561	0.286077	-2.03241e-05	404125	12088.8	1	12	0.00487046	0.000145582	0	-0.000168147	0.0294404	0.00516979	0.0298908	9.9597	1.20888e+07	6.88422e+07	6.98956e+07	-80.0403	0.0000000E+000	0.0000000E+000	0.0000000E+000	80.0403	0.0000000E+000	0.0000000E+000	0.0000000E+000	-80.0403	0.0000000E+000	0.0000000E+000	0.0000000E+000	-9.9597	0.0000000E+000	0.0000000E+000	0.0000000E+000	9.9597	5.6947	80.0403	-5.9994e-05	-5.81425e-09	1.40758e+07
0.0464052	34.3668	6.73667	35.0209	-11.0906	156.885	0.286077	-0.000771545	509106	18838.5	1	12	0.00487172	0.000139109	0	-0.000247175	0.0280211	0.00549277	0.0285544	11.0906	1.88385e+07	9.61035e+07	9.79324e+07	-78.9094	0.0000000E+000	0.0000000E+000	0.0000000E+000	78.9094	0.0000000E+000	0.0000000E+000	0.0000000E+000	-78.9094	0.0000000E+000	0.0000000E+000	0.0000000E+000	-11.0906	0.0000000E+000	0.0000000E+000	0.0000000E+000	11.0906	5.10145	78.9094	-7.90281e-05	-2.20721e-07	370785
0.0315922	35.9445	8.01254	36.8268	-12.5666	223.446	0.286066	-0.00153523	628738	29763.4	1	12	0.0048734	0.000132333	0	-0.000304433	0.0265037	0.00590803	0.0271542	12.5666	2.97634e+07	1.3352e+08	1.36797e+08	-77.4334	0.0000000E+000	0.0000000E+000	0.0000000E+000	77.4334	0.0000000E+000	0.0000000E+000	0.0000000E+000	-77.4334	0.0000000E+000	0.0000000E+000	0.0000000E+000	-12.5666	0.0000000E+000	0.0000000E+000	0.0000000E+000	12.5666	4.48604	77.4334	-5.72579e-05	-4.39177e-07	186335
0.0215268	37.4679	9.53744	38.6627	-14.2813	321.114	0.286068	-0.00157725	775192	47172.4	1	12	0.00487278	0.000126033	0	-0.000281696	0.0250654	0.00638038	0.0258647	14.2813	4.71724e+07	1.85317e+08	1.91227e+08	-75.7187	0.0000000E+000	0.0000000E+000	0.0000000E+000	75.7187	0.0000000E+000	0.0000000E+000	0.0000000E+000	-75.7187	0.0000000E+000	0.0000000E+000	0.0000000E+000	-14.2813	0.0000000E+000	0.0000000E+000	0.0000000E+000	14.2813	3.92851	75.7187	2.27365e-05	-4.512e-07	181371
0.0146812	38.952	11.3691	40.5773	-16.2712	464.31	0.286069	-0.0010674	953528	74854.8	1	12	0.00487139	0.000120052	0	-0.000127789	0.0236572	0.00690495	0.0246443	16.2712	7.48548e+07	2.56462e+08	2.67163e+08	-73.7288	0.0000000E+000	0.0000000E+000	0.0000000E+000	73.7288	0.0000000E+000	0.0000000E+000	0.0000000E+000	-73.7288	0.0000000E+000	0.0000000E+000	0.0000000E+000	-16.2712	0.0000000E+000	0.0000000E+000	0.0000000E+000	16.2712	3.42613	73.7288	0.000153907	-3.0535e-07	268005
0.0100092	40.7699	13.8235	43.0496	-18.7298	674.33	0.286072	-0.000432234	1.15028e+06	118605	1	12	0.00487273	0.000113189	0	0.000160001	0.0219989	0.00745898	0.023229	18.7298	1.18605e+08	3.49802e+08	3.69362e+08	-71.2702	0.0000000E+000	0.0000000E+000	0.0000000E+000	71.2702	0.0000000E+000	0.0000000E+000	0.0000000E+000	-71.2702	0.0000000E+000	0.0000000E+000	0.0000000E+000	-18.7298	0.0000000E+000	0.0000000E+000	0.0000000E+000	18.7298	2.94931	71.2702	0.00028779	-1.2365e-07	661846