File: txt/17459_C01.mpt
EC-Lab ASCII FILE
Nb header lines : 64

Potentio Electrochemical Impedance Spectroscopy

Run on channel : 1 (SN 66354)
User :
CE vs. WE compliance from -10 V to 10 V
Electrode connection : standard
Potential control : Ewe
Ewe ctrl range : min = -10.00 V, max = 10.00 V
Safety Limits :
	Do not start on E overload
Acquisition started on : 09/12/2025 09:48:20.444
Technique started on : 09/12/2025 09:48:22.511
Loaded Setting File :  C:\Users\Celltest\OneDrive - store-dot.com\Documents\EC-Lab\Data\Gyutae\EIS_SOC0_C01.mpr
Saved on :
	File : 17459_C01.mpr
	Directory : C:\Users\Celltest\OneDrive - store-dot.com\Documents\EC-Lab\Data\Gyutae\R277\
	Host : 169.254.61.224
Device : VMP-3e (SN .003165)
Address : USB
EC-LAB for windows v11.62 (software)
Internet server v27.00 (firmware)
Command interpretor v12.03 (firmware)
Electrode material :
Initial state :
Electrolyte :
Comments :
Electrode surface area : 0.001 cm²
Characteristic mass : 0.001 g
Equivalent Weight : 0.000 g/eq.
Density : 0.000 g/cm3
Volume (V) : 0.001 cm³
Cycle Definition : Charge/Discharge alternance
Mode                Single sine
E (V)               0.0000
vs.                 Eoc
tE (h:m:s)          0:00:0.0000
record              0
dI                  0.000
unit dI             mA
dt (s)              0.000
fi                  100.000
unit fi             kHz
ff                  10.000
unit ff             mHz
Nd                  6
Points              per decade
spacing             Logarithmic
Va (mV)             5.0
pw                  0.10
Na                  2
corr                0
E range min (V)     -10.000
E range max (V)     10.000
I Range             Auto
Bandwidth           5
nc cycles           0
goto Ns'            0
nr cycles           0
inc. cycle          0

freq/Hz	Re(Z)/Ohm	-Im(Z)/Ohm	|Z|/Ohm	Phase(Z)/deg	time/s	<Ewe>/V	<I>/mA	Cs/µF	Cp/µF	cycle number	I Range	|Ewe|/V	|I|/A	Ns	(Q-Qo)/mA.h	Re(Y)/Ohm-1	Im(Y)/Ohm-1	|Y|/Ohm-1	Phase(Y)/deg	Re(C)/nF	Im(C)/nF	|C|/nF	Phase(C)/deg	Re(M)	Im(M)	|M|	Phase(M)/deg	Re(Permittivity)	Im(Permittivity)	|Permittivity|	Phase(Permittivity)/deg	Re(Resistivity)/Ohm.cm	Im(Resistivity)/Ohm.cm	|Resistivity|/Ohm.cm	Phase(Resistivity)/deg	Re(Conductivity)/mS/cm	Im(Conductivity)/mS/cm	|Conductivity|/mS/cm	Phase(Conductivity)/deg	Tan(Delta)	Loss Angle(Delta)/deg	dq/mA.h	Pwe/W	Rwe/Ohm
100004	1.14112	0.241004	1.16629	-11.9256	2.06748	0.274847	0.0766649	6.60357	0.281978	1	9	0.00463439	0.00397361	0	9.05904e-06	0.838912	0.177178	0.857418	11.9256	281.978	1335.12	1364.57	-78.0744	0.0000000E+000	0.0000000E+000	0.0000000E+000	78.0744	0.0000000E+000	0.0000000E+000	0.0000000E+000	-78.0744	0.0000000E+000	0.0000000E+000	0.0000000E+000	-11.9256	0.0000000E+000	0.0000000E+000	0.0000000E+000	11.9256	4.73485	78.0744	9.05904e-06	2.10711e-05	3585.05
68132	1.20152	0.261311	1.2296	-12.2699	2.50449	0.274848	0.0769071	8.93945	0.403734	1	9	0.00548274	0.00445895	0	2.05167e-05	0.794693	0.172833	0.81327	12.2699	403.734	1856.38	1899.78	-77.7301	0.0000000E+000	0.0000000E+000	0.0000000E+000	77.7301	0.0000000E+000	0.0000000E+000	0.0000000E+000	-77.7301	0.0000000E+000	0.0000000E+000	0.0000000E+000	-12.2699	0.0000000E+000	0.0000000E+000	0.0000000E+000	12.2699	4.59803	77.7301	1.14577e-05	2.11377e-05	3573.76
46420.4	1.2626	0.283146	1.29396	-12.6398	3.0835	0.274841	0.0752492	12.1088	0.579803	1	9	0.00507035	0.00391847	0	3.50824e-05	0.754092	0.16911	0.772821	12.6398	579.803	2585.45	2649.66	-77.3602	0.0000000E+000	0.0000000E+000	0.0000000E+000	77.3602	0.0000000E+000	0.0000000E+000	0.0000000E+000	-77.3602	0.0000000E+000	0.0000000E+000	0.0000000E+000	-12.6398	0.0000000E+000	0.0000000E+000	0.0000000E+000	12.6398	4.45918	77.3602	1.45656e-05	2.06816e-05	3652.42
31621.1	1.32918	0.318606	1.36683	-13.4795	3.66149	0.274845	0.0853079	15.7975	0.858351	1	9	0.00508795	0.00372244	0	5.80738e-05	0.711464	0.170539	0.731618	13.4795	858.351	3580.93	3682.37	-76.5205	0.0000000E+000	0.0000000E+000	0.0000000E+000	76.5205	0.0000000E+000	0.0000000E+000	0.0000000E+000	-76.5205	0.0000000E+000	0.0000000E+000	0.0000000E+000	-13.4795	0.0000000E+000	0.0000000E+000	0.0000000E+000	13.4795	4.17187	76.5205	2.29915e-05	2.34464e-05	3221.8
21544.7	1.40248	0.359328	1.44778	-14.3706	4.09848	0.274847	0.0816197	20.5584	1.26638	1	9	0.00531728	0.00367271	0	6.60166e-05	0.6691	0.171429	0.690712	14.3706	1266.38	4942.78	5102.43	-75.6294	0.0000000E+000	0.0000000E+000	0.0000000E+000	75.6294	0.0000000E+000	0.0000000E+000	0.0000000E+000	-75.6294	0.0000000E+000	0.0000000E+000	0.0000000E+000	-14.3706	0.0000000E+000	0.0000000E+000	0.0000000E+000	14.3706	3.90307	75.6294	7.94273e-06	2.24329e-05	3367.41
14678.6	1.48297	0.399634	1.53587	-15.0819	4.53548	0.274847	0.0765904	27.1315	1.83691	1	9	0.00494818	0.00322174	0	7.15717e-05	0.628669	0.169415	0.651097	15.0819	1836.91	6816.45	7059.62	-74.9181	0.0000000E+000	0.0000000E+000	0.0000000E+000	74.9181	0.0000000E+000	0.0000000E+000	0.0000000E+000	-74.9181	0.0000000E+000	0.0000000E+000	0.0000000E+000	-15.0819	0.0000000E+000	0.0000000E+000	0.0000000E+000	15.0819	3.71081	74.9181	5.5551e-06	2.10506e-05	3588.53
10002.2	1.57222	0.450509	1.63549	-15.9893	4.97249	0.274848	0.0819922	35.3199	2.67998	1	9	0.0049171	0.0030065	0	7.99248e-05	0.587783	0.168426	0.611438	15.9893	2679.98	9352.78	9729.17	-74.0107	0.0000000E+000	0.0000000E+000	0.0000000E+000	74.0107	0.0000000E+000	0.0000000E+000	0.0000000E+000	-74.0107	0.0000000E+000	0.0000000E+000	0.0000000E+000	-15.9893	0.0000000E+000	0.0000000E+000	0.0000000E+000	15.9893	3.48987	74.0107	8.35309e-06	2.25354e-05	3352.13
6811.07	1.68236	0.51095	1.75824	-16.8941	5.35051	0.274635	-0.0618468	45.7327	3.86215	1	9	0.00462644	0.0026313	0	7.64191e-05	0.544207	0.165281	0.568752	16.8941	3862.15	12716.5	13290.1	-73.1059	0.0000000E+000	0.0000000E+000	0.0000000E+000	73.1059	0.0000000E+000	0.0000000E+000	0.0000000E+000	-73.1059	0.0000000E+000	0.0000000E+000	0.0000000E+000	-16.8941	0.0000000E+000	0.0000000E+000	0.0000000E+000	16.8941	3.29261	73.1059	-3.50568e-06	-1.69853e-05	4440.57
4641.49	1.80016	0.581156	1.89164	-17.892	6.04471	0.274809	0.105556	59.0025	5.56901	1	9	0.00498149	0.00263342	0	9.64784e-05	0.503075	0.162411	0.528642	17.892	5569.02	17250.3	18126.9	-72.108	0.0000000E+000	0.0000000E+000	0.0000000E+000	72.108	0.0000000E+000	0.0000000E+000	0.0000000E+000	-72.108	0.0000000E+000	0.0000000E+000	0.0000000E+000	-17.892	0.0000000E+000	0.0000000E+000	0.0000000E+000	17.892	3.09754	72.108	2.00593e-05	2.90076e-05	2603.45
3161.01	1.94339	0.663354	2.05349	-18.8467	6.5117	0.274831	0.104196	75.9012	7.92054	1	9	0.00490545	0.00238884	0	0.000107379	0.460868	0.157312	0.486976	18.8467	7920.54	23204.4	24518.9	-71.1533	0.0000000E+000	0.0000000E+000	0.0000000E+000	71.1533	0.0000000E+000	0.0000000E+000	0.0000000E+000	-71.1533	0.0000000E+000	0.0000000E+000	0.0000000E+000	-18.8467	0.0000000E+000	0.0000000E+000	0.0000000E+000	18.8467	2.92965	71.1533	1.09004e-05	2.86363e-05	2637.64
2155.69	2.10605	0.75337	2.23674	-19.683	6.9787	0.274825	0.106245	97.9998	11.1176	1	9	0.00486288	0.00217409	0	0.000121048	0.420956	0.150583	0.447078	19.683	11117.6	31079.2	33007.9	-70.317	0.0000000E+000	0.0000000E+000	0.0000000E+000	70.317	0.0000000E+000	0.0000000E+000	0.0000000E+000	-70.317	0.0000000E+000	0.0000000E+000	0.0000000E+000	-19.683	0.0000000E+000	0.0000000E+000	0.0000000E+000	19.683	2.79551	70.317	1.36689e-05	2.91987e-05	2586.71
1468.59	2.31623	0.889518	2.48116	-21.0086	7.44595	0.27483	0.10468	121.833	15.659	1	9	0.00482157	0.00194327	0	0.000135062	0.376245	0.144492	0.403037	21.0086	15659	40774.7	43678.1	-68.9914	0.0000000E+000	0.0000000E+000	0.0000000E+000	68.9914	0.0000000E+000	0.0000000E+000	0.0000000E+000	-68.9914	0.0000000E+000	0.0000000E+000	0.0000000E+000	-21.0086	0.0000000E+000	0.0000000E+000	0.0000000E+000	21.0086	2.60392	68.9914	1.40144e-05	2.87693e-05	2625.43
1000.32	2.50108	0.93784	2.67113	-20.5547	7.91567	0.274828	0.107847	169.649	20.9131	1	9	0.00482713	0.00180715	0	0.000146283	0.350539	0.131443	0.374373	20.5547	20913.1	55772.2	59564.3	-69.4453	0.0000000E+000	0.0000000E+000	0.0000000E+000	69.4453	0.0000000E+000	0.0000000E+000	0.0000000E+000	-69.4453	0.0000000E+000	0.0000000E+000	0.0000000E+000	-20.5547	0.0000000E+000	0.0000000E+000	0.0000000E+000	20.5547	2.66685	69.4453	1.12212e-05	2.96393e-05	2548.32
681.09	2.7486	1.03316	2.93636	-20.6005	8.38145	0.274817	0.101532	226.177	28.0004	1	9	0.00482743	0.00164402	0	0.000157529	0.318781	0.119825	0.340557	20.6005	28000.4	74491.7	79580.4	-69.3995	0.0000000E+000	0.0000000E+000	0.0000000E+000	69.3995	0.0000000E+000	0.0000000E+000	0.0000000E+000	-69.3995	0.0000000E+000	0.0000000E+000	0.0000000E+000	-20.6005	0.0000000E+000	0.0000000E+000	0.0000000E+000	20.6005	2.66038	69.3995	1.12462e-05	2.79027e-05	2706.7
463.961	3.03439	1.14672	3.24384	-20.7019	9.10418	0.274811	-0.0128975	299.146	37.3832	1	10	0.00485686	0.00149726	0	0.00016399	0.288372	0.108978	0.308277	20.7019	37383.2	98921.8	105750	-69.2981	0.0000000E+000	0.0000000E+000	0.0000000E+000	69.2981	0.0000000E+000	0.0000000E+000	0.0000000E+000	-69.2981	0.0000000E+000	0.0000000E+000	0.0000000E+000	-20.7019	0.0000000E+000	0.0000000E+000	0.0000000E+000	20.7019	2.64616	69.2981	6.46022e-06	-3.54438e-06	21307.3
316.316	3.3388	1.24442	3.56317	-20.4412	9.57094	0.274805	-0.0133746	404.326	49.3167	1	10	0.00483641	0.00135733	0	0.000161634	0.262977	0.0980155	0.280649	20.4412	49316.7	132317	141209	-69.5588	0.0000000E+000	0.0000000E+000	0.0000000E+000	69.5588	0.0000000E+000	0.0000000E+000	0.0000000E+000	-69.5588	0.0000000E+000	0.0000000E+000	0.0000000E+000	-20.4412	0.0000000E+000	0.0000000E+000	0.0000000E+000	20.4412	2.68301	69.5588	-2.3557e-06	-3.6754e-06	20546.9
215.345	3.68874	1.32476	3.91942	-19.7551	10.0385	0.274811	-0.013982	557.889	63.7356	1	10	0.00482727	0.00123163	0	0.000159901	0.240124	0.0862375	0.25514	19.7551	63735.6	177469	188567	-70.2449	0.0000000E+000	0.0000000E+000	0.0000000E+000	70.2449	0.0000000E+000	0.0000000E+000	0.0000000E+000	-70.2449	0.0000000E+000	0.0000000E+000	0.0000000E+000	-19.7551	0.0000000E+000	0.0000000E+000	0.0000000E+000	19.7551	2.78445	70.2449	-1.73272e-06	-3.84242e-06	19654.6
146.737	4.06717	1.37904	4.2946	-18.7301	10.5014	0.274801	-0.0153424	786.505	81.0982	1	10	0.00481957	0.00112224	0	0.000158612	0.220519	0.0747708	0.23285	18.7301	81098.2	239180	252555	-71.2699	0.0000000E+000	0.0000000E+000	0.0000000E+000	71.2699	0.0000000E+000	0.0000000E+000	0.0000000E+000	-71.2699	0.0000000E+000	0.0000000E+000	0.0000000E+000	-18.7301	0.0000000E+000	0.0000000E+000	0.0000000E+000	18.7301	2.94927	71.2699	-1.28949e-06	-4.2161e-06	17911.2
100.032	4.46063	1.37809	4.66865	-17.1683	10.9697	0.274805	-0.0131528	1154.53	100.595	1	10	0.00480676	0.00102958	0	0.000157791	0.20465	0.0632256	0.214194	17.1683	100595	325607	340792	-72.8317	0.0000000E+000	0.0000000E+000	0.0000000E+000	72.8317	0.0000000E+000	0.0000000E+000	0.0000000E+000	-72.8317	0.0000000E+000	0.0000000E+000	0.0000000E+000	-17.1683	0.0000000E+000	0.0000000E+000	0.0000000E+000	17.1683	3.23683	72.8317	-8.21011e-07	-3.61446e-06	20893.3
68.104	4.86407	1.32015	5.04004	-15.1847	11.4483	0.274809	-0.0107843	1770.21	121.451	1	10	0.00481286	0.000954926	0	0.000157142	0.191484	0.0519703	0.198411	15.1847	121451	447486	463675	-74.8153	0.0000000E+000	0.0000000E+000	0.0000000E+000	74.8153	0.0000000E+000	0.0000000E+000	0.0000000E+000	-74.8153	0.0000000E+000	0.0000000E+000	0.0000000E+000	-15.1847	0.0000000E+000	0.0000000E+000	0.0000000E+000	15.1847	3.68449	74.8153	-6.48765e-07	-2.96363e-06	25482.2
46.4415	5.21729	1.2167	5.35728	-13.127	11.9035	0.274797	-0.0176643	2816.64	145.28	1	10	0.00480867	0.000897595	0	0.000155973	0.181784	0.042393	0.186662	13.127	145280	622973	639689	-76.873	0.0000000E+000	0.0000000E+000	0.0000000E+000	76.873	0.0000000E+000	0.0000000E+000	0.0000000E+000	-76.873	0.0000000E+000	0.0000000E+000	0.0000000E+000	-13.127	0.0000000E+000	0.0000000E+000	0.0000000E+000	13.127	4.28807	76.873	-1.16925e-06	-4.85408e-06	15556.6
31.6296	5.51977	1.0826	5.62493	-11.0966	12.3504	0.274796	-0.0187823	4647.94	172.17	1	10	0.00480958	0.000855047	0	0.000153556	0.174456	0.0342162	0.17778	11.0966	172170	877836	894560	-78.9034	0.0000000E+000	0.0000000E+000	0.0000000E+000	78.9034	0.0000000E+000	0.0000000E+000	0.0000000E+000	-78.9034	0.0000000E+000	0.0000000E+000	0.0000000E+000	-11.0966	0.0000000E+000	0.0000000E+000	0.0000000E+000	11.0966	5.09864	78.9034	-2.41714e-06	-5.16132e-06	14630.6
21.5517	5.77133	0.945248	5.84823	-9.30151	12.7904	0.274799	-0.0200607	7812.54	204.096	1	10	0.00480766	0.000822072	0	0.000153565	0.168744	0.0276374	0.170992	9.30151	204096	1.24614e+06	1.26274e+06	-80.6985	0.0000000E+000	0.0000000E+000	0.0000000E+000	80.6985	0.0000000E+000	0.0000000E+000	0.0000000E+000	-80.6985	0.0000000E+000	0.0000000E+000	0.0000000E+000	-9.30151	0.0000000E+000	0.0000000E+000	0.0000000E+000	9.30151	6.10563	80.6985	9.50863e-09	-5.51266e-06	13698.4
14.6852	5.97378	0.816549	6.02933	-7.78345	13.2691	0.274815	-0.010257	13272.7	243.436	1	10	0.00480986	0.000797744	0	0.000153241	0.164328	0.0224618	0.165856	7.78345	243437	1.78095e+06	1.79752e+06	-82.2165	0.0000000E+000	0.0000000E+000	0.0000000E+000	82.2165	0.0000000E+000	0.0000000E+000	0.0000000E+000	-82.2165	0.0000000E+000	0.0000000E+000	0.0000000E+000	-7.78345	0.0000000E+000	0.0000000E+000	0.0000000E+000	7.78345	7.31589	82.2165	-3.23797e-07	-2.81877e-06	26793
10.0032	6.14905	0.68623	6.18722	-6.36783	13.7377	0.27481	-0.0127093	23185.2	285.207	1	10	0.00481813	0.000778722	0	0.000151814	0.160626	0.0179258	0.161623	6.36783	285207	2.55563e+06	2.57149e+06	-83.6322	0.0000000E+000	0.0000000E+000	0.0000000E+000	83.6322	0.0000000E+000	0.0000000E+000	0.0000000E+000	-83.6322	0.0000000E+000	0.0000000E+000	0.0000000E+000	-6.36783	0.0000000E+000	0.0000000E+000	0.0000000E+000	6.36783	8.96062	83.6322	-1.42705e-06	-3.49264e-06	21622.7
6.81719	6.26996	0.609245	6.29949	-5.54994	14.0954	0.27481	-0.0151616	38319.8	358.423	1	10	0.00481284	0.000764004	0	0.000145916	0.157999	0.0153526	0.158743	5.54994	358423	3.68866e+06	3.70603e+06	-84.4501	0.0000000E+000	0.0000000E+000	0.0000000E+000	84.4501	0.0000000E+000	0.0000000E+000	0.0000000E+000	-84.4501	0.0000000E+000	0.0000000E+000	0.0000000E+000	-5.54994	0.0000000E+000	0.0000000E+000	0.0000000E+000	5.54994	10.2914	84.4501	-5.89834e-06	-4.16656e-06	18125.3
4.63925	6.38613	0.526116	6.40776	-4.70963	14.5983	0.274831	-0.00441128	65206.4	439.583	1	10	0.00481048	0.000750727	0	0.000145259	0.155534	0.0128135	0.156061	4.70963	439583	5.33577e+06	5.35384e+06	-85.2904	0.0000000E+000	0.0000000E+000	0.0000000E+000	85.2904	0.0000000E+000	0.0000000E+000	0.0000000E+000	-85.2904	0.0000000E+000	0.0000000E+000	0.0000000E+000	-4.70963	0.0000000E+000	0.0000000E+000	0.0000000E+000	4.70963	12.1382	85.2904	-6.56551e-07	-1.21235e-06	62301.8
3.1604	6.47487	0.479545	6.49261	-4.23573	15.3072	0.274833	-0.00536537	105014	572.888	1	10	0.00480781	0.000740506	0	0.000156659	0.153601	0.011376	0.154021	4.23573	572888	7.7352e+06	7.75639e+06	-85.7643	0.0000000E+000	0.0000000E+000	0.0000000E+000	85.7643	0.0000000E+000	0.0000000E+000	0.0000000E+000	-85.7643	0.0000000E+000	0.0000000E+000	0.0000000E+000	-4.23573	0.0000000E+000	0.0000000E+000	0.0000000E+000	4.23573	13.5021	85.7643	1.13994e-05	-1.47458e-06	51223.4
2.15577	6.5749	0.447146	6.59009	-3.89058	16.8378	0.274859	-0.00149657	165108	760.125	1	11	0.0048124	0.000730248	0	0.000151312	0.151393	0.010296	0.151743	3.89058	760124	1.1177e+07	1.12028e+07	-86.1094	0.0000000E+000	0.0000000E+000	0.0000000E+000	86.1094	0.0000000E+000	0.0000000E+000	0.0000000E+000	-86.1094	0.0000000E+000	0.0000000E+000	0.0000000E+000	-3.89058	0.0000000E+000	0.0000000E+000	0.0000000E+000	3.89058	14.7042	86.1094	-5.34708e-06	-4.11346e-07	183659
1.46631	6.64445	0.436332	6.65876	-3.75714	18.3111	0.274848	-0.00272548	248758	1068.13	1	11	0.00481488	0.000723089	0	0.000132036	0.149855	0.00984078	0.150178	3.75714	1.06813e+06	1.62655e+07	1.63005e+07	-86.2429	0.0000000E+000	0.0000000E+000	0.0000000E+000	86.2429	0.0000000E+000	0.0000000E+000	0.0000000E+000	-86.2429	0.0000000E+000	0.0000000E+000	0.0000000E+000	-3.75714	0.0000000E+000	0.0000000E+000	0.0000000E+000	3.75714	15.228	86.2429	-1.92758e-05	-7.49091e-07	100844
1.00006	6.7224	0.461464	6.73822	-3.92695	20.4512	0.274853	-0.00413384	344869	1617.48	1	11	0.00481244	0.0007142	0	0.000122398	0.148059	0.0101636	0.148407	3.92695	1.61748e+06	2.35628e+07	2.36182e+07	-86.0731	0.0000000E+000	0.0000000E+000	0.0000000E+000	86.0731	0.0000000E+000	0.0000000E+000	0.0000000E+000	-86.0731	0.0000000E+000	0.0000000E+000	0.0000000E+000	-3.92695	0.0000000E+000	0.0000000E+000	0.0000000E+000	3.92695	14.5676	86.0731	-9.63784e-06	-1.1362e-06	66488.5
0.681362	6.79431	0.525073	6.81456	-4.41911	23.571	0.274857	-0.00612493	444859	2641.11	1	11	0.00481383	0.000706404	0	0.000132459	0.146308	0.0113069	0.146745	4.41911	2.64111e+06	3.41752e+07	3.42771e+07	-85.5809	0.0000000E+000	0.0000000E+000	0.0000000E+000	85.5809	0.0000000E+000	0.0000000E+000	0.0000000E+000	-85.5809	0.0000000E+000	0.0000000E+000	0.0000000E+000	-4.41911	0.0000000E+000	0.0000000E+000	0.0000000E+000	4.41911	12.9397	85.5809	1.0061e-05	-1.68348e-06	44875.1
0.464091	6.86982	0.612921	6.89711	-5.0984	28.1357	0.274856	-0.00579486	559516	4418.63	1	11	0.00481332	0.000697875	0	0.000169868	0.144415	0.0128846	0.144988	5.0984	4.41863e+06	4.95255e+07	4.97222e+07	-84.9016	0.0000000E+000	0.0000000E+000	0.0000000E+000	84.9016	0.0000000E+000	0.0000000E+000	0.0000000E+000	-84.9016	0.0000000E+000	0.0000000E+000	0.0000000E+000	-5.0984	0.0000000E+000	0.0000000E+000	0.0000000E+000	5.0984	11.2083	84.9016	3.74092e-05	-1.59275e-06	47430.9
0.316193	6.97275	0.734887	7.01137	-6.01643	34.817	0.274854	-0.00185411	684932	7524.58	1	11	0.00481359	0.00068654	0	0.000222714	0.14184	0.0149491	0.142625	6.01643	7.52458e+06	7.13947e+07	7.17902e+07	-83.9836	0.0000000E+000	0.0000000E+000	0.0000000E+000	83.9836	0.0000000E+000	0.0000000E+000	0.0000000E+000	-83.9836	0.0000000E+000	0.0000000E+000	0.0000000E+000	-6.01643	0.0000000E+000	0.0000000E+000	0.0000000E+000	6.01643	9.4882	83.9836	5.28459e-05	-5.09611e-07	148240
0.215268	7.10879	0.929039	7.16924	-7.44571	44.6136	0.274852	0.0025576	795806	13363.7	1	11	0.00481181	0.000671173	0	0.000262073	0.138309	0.0180754	0.139485	7.44571	1.33637e+07	1.02256e+08	1.03126e+08	-82.5543	0.0000000E+000	0.0000000E+000	0.0000000E+000	82.5543	0.0000000E+000	0.0000000E+000	0.0000000E+000	-82.5543	0.0000000E+000	0.0000000E+000	0.0000000E+000	-7.44571	0.0000000E+000	0.0000000E+000	0.0000000E+000	7.44571	7.65177	82.5543	3.93589e-05	7.02962e-07	107465
0.146929	7.25738	1.20695	7.35705	-9.44225	58.9512	0.274853	0.0051954	897478	24154.3	1	11	0.00481362	0.000654286	0	0.000243022	0.134082	0.0222988	0.135924	9.44225	2.41543e+07	1.4524e+08	1.47234e+08	-80.5577	0.0000000E+000	0.0000000E+000	0.0000000E+000	80.5577	0.0000000E+000	0.0000000E+000	0.0000000E+000	-80.5577	0.0000000E+000	0.0000000E+000	0.0000000E+000	-9.44225	0.0000000E+000	0.0000000E+000	0.0000000E+000	9.44225	6.01299	80.5577	-1.90506e-05	1.42797e-06	52903.1
0.0999041	7.41861	1.56018	7.58089	-11.8766	80.0211	0.274855	0.00437406	1.02109e+06	43248.4	1	11	0.00481627	0.000635317	0	0.000119079	0.129087	0.0271477	0.131911	11.8766	4.32485e+07	2.05645e+08	2.10144e+08	-78.1234	0.0000000E+000	0.0000000E+000	0.0000000E+000	78.1234	0.0000000E+000	0.0000000E+000	0.0000000E+000	-78.1234	0.0000000E+000	0.0000000E+000	0.0000000E+000	-11.8766	0.0000000E+000	0.0000000E+000	0.0000000E+000	11.8766	4.75498	78.1234	-0.000123943	1.20223e-06	62837.5
0.0680626	7.64461	2.01193	7.90493	-14.7449	110.933	0.274855	0.00209728	1.16225e+06	75288.4	1	11	0.00481349	0.000608922	0	-0.000103344	0.122337	0.0321971	0.126503	14.7449	7.52884e+07	2.86069e+08	2.9581e+08	-75.2551	0.0000000E+000	0.0000000E+000	0.0000000E+000	75.2551	0.0000000E+000	0.0000000E+000	0.0000000E+000	-75.2551	0.0000000E+000	0.0000000E+000	0.0000000E+000	-14.7449	0.0000000E+000	0.0000000E+000	0.0000000E+000	14.7449	3.79964	75.2551	-0.000222423	5.76448e-07	131053
0.0464052	7.99444	2.62403	8.41407	-18.1715	156.258	0.274853	-0.00162949	1.30703e+06	127119	1	11	0.00481304	0.000572023	0	-0.000394732	0.112921	0.0370643	0.118849	18.1715	1.27119e+08	3.87284e+08	4.07612e+08	-71.8285	0.0000000E+000	0.0000000E+000	0.0000000E+000	71.8285	0.0000000E+000	0.0000000E+000	0.0000000E+000	-71.8285	0.0000000E+000	0.0000000E+000	0.0000000E+000	-18.1715	0.0000000E+000	0.0000000E+000	0.0000000E+000	18.1715	3.04663	71.8285	-0.000291388	-4.47871e-07	168675
0.0315922	8.37157	3.56821	9.10029	-23.0852	222.818	0.274852	-0.00259621	1.41185e+06	217060	1	11	0.00481518	0.000529124	0	-0.000491371	0.101087	0.0430864	0.109887	23.0852	2.1706e+08	5.09256e+08	5.53586e+08	-66.9148	0.0000000E+000	0.0000000E+000	0.0000000E+000	66.9148	0.0000000E+000	0.0000000E+000	0.0000000E+000	-66.9148	0.0000000E+000	0.0000000E+000	0.0000000E+000	-23.0852	0.0000000E+000	0.0000000E+000	0.0000000E+000	23.0852	2.34615	66.9148	-9.66395e-05	-7.13572e-07	105867
0.0215268	8.77641	4.76545	9.98674	-28.5012	320.487	0.274852	-0.00173322	1.55145e+06	353262	1	11	0.00481228	0.000481867	0	-0.000127643	0.0879974	0.0477811	0.100133	28.5012	3.53262e+08	6.50595e+08	7.40316e+08	-61.4988	0.0000000E+000	0.0000000E+000	0.0000000E+000	61.4988	0.0000000E+000	0.0000000E+000	0.0000000E+000	-61.4988	0.0000000E+000	0.0000000E+000	0.0000000E+000	-28.5012	0.0000000E+000	0.0000000E+000	0.0000000E+000	28.5012	1.84168	61.4988	0.000363728	-4.76379e-07	158579
0.0146812	9.41824	6.26054	11.3092	-33.613	463.683	0.274853	-0.00054648	1.7316e+06	530651	1	11	0.00481308	0.000425591	0	0.000712453	0.0736389	0.0489496	0.0884237	33.613	5.30651e+08	7.98301e+08	9.58579e+08	-56.387	0.0000000E+000	0.0000000E+000	0.0000000E+000	56.387	0.0000000E+000	0.0000000E+000	0.0000000E+000	-56.387	0.0000000E+000	0.0000000E+000	0.0000000E+000	-33.613	0.0000000E+000	0.0000000E+000	0.0000000E+000	33.613	1.50438	56.387	0.000840095	-1.50201e-07	502951
0.0100092	10.385	8.31727	13.3051	-38.691	673.704	0.27485	0.000626469	1.91179e+06	747083	1	11	0.00481353	0.000361782	0	0.00164156	0.058664	0.0469837	0.0751593	38.691	7.47083e+08	9.32811e+08	1.1951e+09	-51.309	0.0000000E+000	0.0000000E+000	0.0000000E+000	51.309	0.0000000E+000	0.0000000E+000	0.0000000E+000	-51.309	0.0000000E+000	0.0000000E+000	0.0000000E+000	-38.691	0.0000000E+000	0.0000000E+000	0.0000000E+000	38.691	1.2486	51.309	0.000929106	1.72185e-07	438728