File: txt/17451_C07.mpt
EC-Lab ASCII FILE
Nb header lines : 64

Potentio Electrochemical Impedance Spectroscopy

Run on channel : 7 (SN 66126)
User :
CE vs. WE compliance from -10 V to 10 V
Electrode connection : standard
Potential control : Ewe
Ewe ctrl range : min = -10.00 V, max = 10.00 V
Safety Limits :
	Do not start on E overload
Acquisition started on : 09/11/2025 16:16:31.856
Technique started on : 09/11/2025 16:16:33.924
Loaded Setting File :  C:\Users\Celltest\OneDrive - store-dot.com\Documents\EC-Lab\Data\Charmaine\R279\17382_C01.mpr
Saved on :
	File : 17451_C07.mpr
	Directory : C:\Users\Celltest\OneDrive - store-dot.com\Documents\EC-Lab\Data\John\R281\
	Host : 169.254.61.224
Device : VMP-3e (SN .003165)
Address : USB
EC-LAB for windows v11.62 (software)
Internet server v27.00 (firmware)
Command interpretor v12.03 (firmware)
Electrode material :
Initial state :
Electrolyte :
Comments :
Electrode surface area : 0.001 cm²
Characteristic mass : 0.001 g
Equivalent Weight : 0.000 g/eq.
Density : 0.000 g/cm3
Volume (V) : 0.001 cm³
Cycle Definition : Charge/Discharge alternance
Mode                Single sine
E (V)               0.0000
vs.                 Eoc
tE (h:m:s)          0:00:0.0000
record              0
dI                  0.000
unit dI             mA
dt (s)              0.000
fi                  100.000
unit fi             kHz
ff                  10.000
unit ff             mHz
Nd                  6
Points              per decade
spacing             Logarithmic
Va (mV)             5.0
pw                  0.10
Na                  2
corr                0
E range min (V)     -10.000
E range max (V)     10.000
I Range             Auto
Bandwidth           5
nc cycles           0
goto Ns'            0
nr cycles           0
inc. cycle          0

freq/Hz	Re(Z)/Ohm	-Im(Z)/Ohm	|Z|/Ohm	Phase(Z)/deg	time/s	<Ewe>/V	<I>/mA	Cs/µF	Cp/µF	cycle number	I Range	|Ewe|/V	|I|/A	Ns	(Q-Qo)/mA.h	Re(Y)/Ohm-1	Im(Y)/Ohm-1	|Y|/Ohm-1	Phase(Y)/deg	Re(C)/nF	Im(C)/nF	|C|/nF	Phase(C)/deg	Re(M)	Im(M)	|M|	Phase(M)/deg	Re(Permittivity)	Im(Permittivity)	|Permittivity|	Phase(Permittivity)/deg	Re(Resistivity)/Ohm.cm	Im(Resistivity)/Ohm.cm	|Resistivity|/Ohm.cm	Phase(Resistivity)/deg	Re(Conductivity)/mS/cm	Im(Conductivity)/mS/cm	|Conductivity|/mS/cm	Phase(Conductivity)/deg	Tan(Delta)	Loss Angle(Delta)/deg	dq/mA.h	Pwe/W	Rwe/Ohm
100004	1.36164	0.261525	1.38653	-10.8721	2.06848	0.298396	0.0602925	6.08543	0.2165	1	9	0.00463746	0.00334465	0	-1.41573e-06	0.708279	0.136036	0.721225	10.8721	216.5	1127.22	1147.82	-79.1279	0.0000000E+000	0.0000000E+000	0.0000000E+000	79.1279	0.0000000E+000	0.0000000E+000	0.0000000E+000	-79.1279	0.0000000E+000	0.0000000E+000	0.0000000E+000	-10.8721	0.0000000E+000	0.0000000E+000	0.0000000E+000	10.8721	5.20656	79.1279	-1.41573e-06	1.7991e-05	4949.13
68132	1.42652	0.295071	1.45672	-11.6866	2.64648	0.2984	0.0585052	7.91667	0.32482	1	9	0.00506517	0.0034771	0	8.33166e-06	0.672243	0.139051	0.686474	11.6866	324.82	1570.35	1603.59	-78.3134	0.0000000E+000	0.0000000E+000	0.0000000E+000	78.3134	0.0000000E+000	0.0000000E+000	0.0000000E+000	-78.3134	0.0000000E+000	0.0000000E+000	0.0000000E+000	-11.6866	0.0000000E+000	0.0000000E+000	0.0000000E+000	11.6866	4.83451	78.3134	9.74739e-06	1.74579e-05	5100.39
46420.4	1.49891	0.332451	1.53533	-12.5055	3.22448	0.298409	0.0566248	10.313	0.483543	1	9	0.00508186	0.00330995	0	1.91987e-05	0.635873	0.141034	0.651326	12.5055	483.543	2180.13	2233.11	-77.4945	0.0000000E+000	0.0000000E+000	0.0000000E+000	77.4945	0.0000000E+000	0.0000000E+000	0.0000000E+000	-77.4945	0.0000000E+000	0.0000000E+000	0.0000000E+000	-12.5055	0.0000000E+000	0.0000000E+000	0.0000000E+000	12.5055	4.50865	77.4945	1.0867e-05	1.68974e-05	5269.94
31621.1	1.57436	0.380565	1.6197	-13.5892	3.80248	0.29841	0.057295	13.2256	0.730128	1	9	0.00511493	0.00315794	0	3.42872e-05	0.600113	0.145063	0.617396	13.5892	730.128	3020.48	3107.47	-76.4108	0.0000000E+000	0.0000000E+000	0.0000000E+000	76.4108	0.0000000E+000	0.0000000E+000	0.0000000E+000	-76.4108	0.0000000E+000	0.0000000E+000	0.0000000E+000	-13.5892	0.0000000E+000	0.0000000E+000	0.0000000E+000	13.5892	4.13691	76.4108	1.50885e-05	1.70974e-05	5208.3
21544.7	1.66296	0.434974	1.71891	-14.6582	4.2395	0.298403	0.0564014	16.9831	1.08752	1	9	0.00521473	0.00303374	0	4.31925e-05	0.56283	0.147217	0.581765	14.6582	1087.52	4157.74	4297.61	-75.3418	0.0000000E+000	0.0000000E+000	0.0000000E+000	75.3418	0.0000000E+000	0.0000000E+000	0.0000000E+000	-75.3418	0.0000000E+000	0.0000000E+000	0.0000000E+000	-14.6582	0.0000000E+000	0.0000000E+000	0.0000000E+000	14.6582	3.82313	75.3418	8.90528e-06	1.68303e-05	5290.7
14678.6	1.76068	0.494798	1.82888	-15.6968	4.6765	0.298409	0.0526591	21.9133	1.60396	1	9	0.00491634	0.00268817	0	5.28658e-05	0.526391	0.14793	0.546782	15.6968	1603.96	5707.48	5928.57	-74.3032	0.0000000E+000	0.0000000E+000	0.0000000E+000	74.3032	0.0000000E+000	0.0000000E+000	0.0000000E+000	-74.3032	0.0000000E+000	0.0000000E+000	0.0000000E+000	-15.6968	0.0000000E+000	0.0000000E+000	0.0000000E+000	15.6968	3.55838	74.3032	9.67337e-06	1.5714e-05	5666.81
10002.2	1.86963	0.569384	1.95441	-16.9378	5.11448	0.298403	0.0582259	27.9459	2.37191	1	9	0.00491364	0.00251413	0	5.74975e-05	0.489469	0.149065	0.511664	16.9378	2371.91	7788.41	8141.58	-73.0622	0.0000000E+000	0.0000000E+000	0.0000000E+000	73.0622	0.0000000E+000	0.0000000E+000	0.0000000E+000	-73.0622	0.0000000E+000	0.0000000E+000	0.0000000E+000	-16.9378	0.0000000E+000	0.0000000E+000	0.0000000E+000	16.9378	3.2836	73.0622	4.63165e-06	1.73748e-05	5124.91
6811.07	2.00211	0.665388	2.10978	-18.3839	5.49252	0.298184	-0.0656027	35.118	3.49305	1	9	0.00463506	0.00219694	0	5.22341e-05	0.449793	0.149486	0.473983	18.3839	3493.05	10510.4	11075.6	-71.6161	0.0000000E+000	0.0000000E+000	0.0000000E+000	71.6161	0.0000000E+000	0.0000000E+000	0.0000000E+000	-71.6161	0.0000000E+000	0.0000000E+000	0.0000000E+000	-18.3839	0.0000000E+000	0.0000000E+000	0.0000000E+000	18.3839	3.00893	71.6161	-5.26343e-06	-1.95617e-05	4545.3
4641.49	2.14996	0.768901	2.28332	-19.6788	5.96371	0.298409	0.0872514	44.5957	5.05709	1	9	0.00450144	0.00197145	0	6.27778e-05	0.41238	0.147481	0.437959	19.6788	5057.09	14140.4	15017.5	-70.3212	0.0000000E+000	0.0000000E+000	0.0000000E+000	70.3212	0.0000000E+000	0.0000000E+000	0.0000000E+000	-70.3212	0.0000000E+000	0.0000000E+000	0.0000000E+000	-19.6788	0.0000000E+000	0.0000000E+000	0.0000000E+000	19.6788	2.79615	70.3212	1.05437e-05	2.60366e-05	3420.11
3161.01	2.32044	0.886049	2.48386	-20.8991	6.6537	0.298408	0.0849614	56.8246	7.23101	1	9	0.00493794	0.00198801	0	7.77558e-05	0.376113	0.143617	0.4026	20.8991	7231.01	18937	20270.7	-69.1009	0.0000000E+000	0.0000000E+000	0.0000000E+000	69.1009	0.0000000E+000	0.0000000E+000	0.0000000E+000	-69.1009	0.0000000E+000	0.0000000E+000	0.0000000E+000	-20.8991	0.0000000E+000	0.0000000E+000	0.0000000E+000	20.8991	2.61886	69.1009	1.4978e-05	2.53532e-05	3512.28
2155.69	2.51108	1.02416	2.71191	-22.1883	7.12069	0.298401	0.0875679	72.0888	10.2814	1	9	0.00489992	0.00180682	0	8.61932e-05	0.341438	0.139257	0.368744	22.1883	10281.4	25208.4	27224.5	-67.8117	0.0000000E+000	0.0000000E+000	0.0000000E+000	67.8117	0.0000000E+000	0.0000000E+000	0.0000000E+000	-67.8117	0.0000000E+000	0.0000000E+000	0.0000000E+000	-22.1883	0.0000000E+000	0.0000000E+000	0.0000000E+000	22.1883	2.45186	67.8117	8.43742e-06	2.61304e-05	3407.66
1468.59	2.71332	1.19365	2.96427	-23.7457	7.58794	0.298412	0.08498	90.7911	14.7218	1	9	0.0048772	0.00164533	0	9.65091e-05	0.308792	0.135844	0.337351	23.7457	14721.8	33464.6	36559.6	-66.2543	0.0000000E+000	0.0000000E+000	0.0000000E+000	66.2543	0.0000000E+000	0.0000000E+000	0.0000000E+000	-66.2543	0.0000000E+000	0.0000000E+000	0.0000000E+000	-23.7457	0.0000000E+000	0.0000000E+000	0.0000000E+000	23.7457	2.27313	66.2543	1.03159e-05	2.5359e-05	3511.55
1000.32	2.98022	1.40825	3.29619	-25.2922	8.31071	0.298367	-0.014827	112.98	20.6222	1	10	0.00496577	0.00150652	0	9.98599e-05	0.274299	0.129615	0.303381	25.2922	20622.2	43642	48269.1	-64.7078	0.0000000E+000	0.0000000E+000	0.0000000E+000	64.7078	0.0000000E+000	0.0000000E+000	0.0000000E+000	-64.7078	0.0000000E+000	0.0000000E+000	0.0000000E+000	-25.2922	0.0000000E+000	0.0000000E+000	0.0000000E+000	25.2922	2.11626	64.7078	3.3508e-06	-4.42388e-06	20123.2
681.09	3.24993	1.68562	3.66106	-27.4141	8.77642	0.298363	-0.0154989	138.63	29.3874	1	10	0.00493033	0.00134669	0	9.88203e-05	0.242471	0.125761	0.273145	27.4141	29387.4	56659.9	63827.6	-62.5859	0.0000000E+000	0.0000000E+000	0.0000000E+000	62.5859	0.0000000E+000	0.0000000E+000	0.0000000E+000	-62.5859	0.0000000E+000	0.0000000E+000	0.0000000E+000	-27.4141	0.0000000E+000	0.0000000E+000	0.0000000E+000	27.4141	1.92804	62.586	-1.03958e-06	-4.62431e-06	19250.6
463.961	3.55947	2.06139	4.11329	-30.0764	9.24522	0.298365	-0.0148568	166.409	41.7947	1	10	0.00489506	0.00119006	0	9.64847e-05	0.210381	0.121838	0.243114	30.0764	41794.7	72168.1	83396.8	-59.9236	0.0000000E+000	0.0000000E+000	0.0000000E+000	59.9236	0.0000000E+000	0.0000000E+000	0.0000000E+000	-59.9236	0.0000000E+000	0.0000000E+000	0.0000000E+000	-30.0764	0.0000000E+000	0.0000000E+000	0.0000000E+000	30.0764	1.72673	59.9236	-2.33561e-06	-4.43274e-06	20082.8
316.316	3.95866	2.56641	4.71778	-32.9554	9.71192	0.298365	-0.0154189	196.053	58.0162	1	10	0.00487785	0.00103393	0	9.40142e-05	0.177858	0.115306	0.211964	32.9554	58016.2	89489.4	106650	-57.0446	0.0000000E+000	0.0000000E+000	0.0000000E+000	57.0446	0.0000000E+000	0.0000000E+000	0.0000000E+000	-57.0446	0.0000000E+000	0.0000000E+000	0.0000000E+000	-32.9554	0.0000000E+000	0.0000000E+000	0.0000000E+000	32.9554	1.54249	57.0446	-2.47046e-06	-4.60046e-06	19350.6
215.345	4.51657	3.21374	5.54324	-35.4335	10.1795	0.298357	-0.0153873	229.973	77.2982	1	10	0.00487051	0.00087864	0	9.22633e-05	0.146988	0.104588	0.1804	35.4335	77298.2	108634	133328	-54.5665	0.0000000E+000	0.0000000E+000	0.0000000E+000	54.5665	0.0000000E+000	0.0000000E+000	0.0000000E+000	-54.5665	0.0000000E+000	0.0000000E+000	0.0000000E+000	-35.4335	0.0000000E+000	0.0000000E+000	0.0000000E+000	35.4335	1.4054	54.5665	-1.75093e-06	-4.59089e-06	19389.8
146.737	5.28575	3.9827	6.61824	-36.9973	10.6424	0.298354	-0.0167386	272.334	98.6217	1	10	0.00485489	0.000733562	0	9.05959e-05	0.120676	0.090927	0.151098	36.9973	98621.7	130888	163884	-53.0027	0.0000000E+000	0.0000000E+000	0.0000000E+000	53.0027	0.0000000E+000	0.0000000E+000	0.0000000E+000	-53.0027	0.0000000E+000	0.0000000E+000	0.0000000E+000	-36.9973	0.0000000E+000	0.0000000E+000	0.0000000E+000	36.9973	1.32718	53.0027	-1.6674e-06	-4.99404e-06	17824.3
100.032	6.35856	4.81529	7.97611	-37.1363	11.1097	0.298361	-0.015445	330.414	120.426	1	10	0.0048509	0.000608179	0	8.88975e-05	0.0999486	0.0756902	0.125374	37.1363	120426	159022	199476	-52.8637	0.0000000E+000	0.0000000E+000	0.0000000E+000	52.8637	0.0000000E+000	0.0000000E+000	0.0000000E+000	-52.8637	0.0000000E+000	0.0000000E+000	0.0000000E+000	-37.1363	0.0000000E+000	0.0000000E+000	0.0000000E+000	37.1363	1.32049	52.8636	-1.69838e-06	-4.60818e-06	19317.7
68.104	7.73222	5.61597	9.55648	-35.9912	11.5883	0.298367	-0.0127255	416.124	143.707	1	10	0.00484265	0.00050674	0	8.72855e-05	0.0846659	0.0614934	0.104641	35.9912	143707	197859	244540	-54.0088	0.0000000E+000	0.0000000E+000	0.0000000E+000	54.0088	0.0000000E+000	0.0000000E+000	0.0000000E+000	-54.0088	0.0000000E+000	0.0000000E+000	0.0000000E+000	-35.9912	0.0000000E+000	0.0000000E+000	0.0000000E+000	35.9912	1.37683	54.0088	-1.612e-06	-3.79687e-06	23446.4
46.4415	9.4481	6.28297	11.3465	-33.6239	12.0435	0.298354	-0.0183432	545.441	167.247	1	10	0.00485239	0.000427656	0	8.54157e-05	0.0733877	0.0488027	0.0881331	33.6239	167247	251499	302032	-56.3761	0.0000000E+000	0.0000000E+000	0.0000000E+000	56.3761	0.0000000E+000	0.0000000E+000	0.0000000E+000	-56.3761	0.0000000E+000	0.0000000E+000	0.0000000E+000	-33.6239	0.0000000E+000	0.0000000E+000	0.0000000E+000	33.6239	1.50376	56.3761	-1.86985e-06	-5.47276e-06	16265.2
31.6296	11.3612	6.68651	13.1828	-30.4785	12.4894	0.298346	-0.0201934	752.536	193.603	1	10	0.00484761	0.000367722	0	8.31539e-05	0.0653745	0.0384755	0.0758564	30.4785	193603	328954	381697	-59.5215	0.0000000E+000	0.0000000E+000	0.0000000E+000	59.5215	0.0000000E+000	0.0000000E+000	0.0000000E+000	-59.5215	0.0000000E+000	0.0000000E+000	0.0000000E+000	-30.4785	0.0000000E+000	0.0000000E+000	0.0000000E+000	30.4785	1.69912	59.5215	-2.26181e-06	-6.02461e-06	14774.4
21.5517	13.3624	6.7991	14.9927	-26.9681	12.9263	0.298351	-0.0224847	1086.14	223.372	1	10	0.00484738	0.000323316	0	8.15551e-05	0.0594462	0.0302476	0.0666991	26.9681	223372	438998	492559	-63.032	0.0000000E+000	0.0000000E+000	0.0000000E+000	63.032	0.0000000E+000	0.0000000E+000	0.0000000E+000	-63.032	0.0000000E+000	0.0000000E+000	0.0000000E+000	-26.9681	0.0000000E+000	0.0000000E+000	0.0000000E+000	26.9681	1.96532	63.032	-1.59877e-06	-6.70835e-06	13269.1
14.6852	15.3768	6.62477	16.7432	-23.3077	13.663	0.298395	-0.00806371	1635.95	256.116	1	11	0.00484393	0.000289307	0	7.71712e-05	0.0548517	0.0236317	0.0597258	23.3077	256116	594473	647297	-66.6923	0.0000000E+000	0.0000000E+000	0.0000000E+000	66.6923	0.0000000E+000	0.0000000E+000	0.0000000E+000	-66.6923	0.0000000E+000	0.0000000E+000	0.0000000E+000	-23.3077	0.0000000E+000	0.0000000E+000	0.0000000E+000	23.3077	2.32111	66.6923	-4.38384e-06	-2.40617e-06	37004.6
10.0032	17.1693	6.22075	18.2615	-19.9163	14.1317	0.298393	-0.00820237	2557.63	296.79	1	11	0.00484243	0.000265171	0	7.50457e-05	0.0514848	0.0186538	0.0547599	19.9163	296790	819143	871252	-70.0837	0.0000000E+000	0.0000000E+000	0.0000000E+000	70.0837	0.0000000E+000	0.0000000E+000	0.0000000E+000	-70.0837	0.0000000E+000	0.0000000E+000	0.0000000E+000	-19.9163	0.0000000E+000	0.0000000E+000	0.0000000E+000	19.9163	2.76001	70.0837	-2.12553e-06	-2.44753e-06	36378.8
6.81719	18.7475	5.70053	19.595	-16.9129	14.4894	0.298392	-0.00878495	4095.43	346.608	1	11	0.00483496	0.000246744	0	7.68416e-05	0.0488261	0.0148465	0.0510334	16.9129	346608	1.1399e+06	1.19143e+06	-73.0871	0.0000000E+000	0.0000000E+000	0.0000000E+000	73.0871	0.0000000E+000	0.0000000E+000	0.0000000E+000	-73.0871	0.0000000E+000	0.0000000E+000	0.0000000E+000	-16.9129	0.0000000E+000	0.0000000E+000	0.0000000E+000	16.9129	3.28873	73.0871	1.79592e-06	-2.62136e-06	33966.3
4.63925	20.1526	5.10438	20.789	-14.2133	14.9923	0.298396	-0.00703589	6720.93	405.182	1	11	0.00484627	0.000233117	0	7.42909e-05	0.0466299	0.0118107	0.0481024	14.2133	405182	1.59969e+06	1.65021e+06	-75.7867	0.0000000E+000	0.0000000E+000	0.0000000E+000	75.7867	0.0000000E+000	0.0000000E+000	0.0000000E+000	-75.7867	0.0000000E+000	0.0000000E+000	0.0000000E+000	-14.2133	0.0000000E+000	0.0000000E+000	0.0000000E+000	14.2133	3.94809	75.7867	-2.55072e-06	-2.09948e-06	42410.5
3.1604	21.2835	4.5497	21.7643	-12.0663	15.7012	0.298396	-0.00692854	11068.7	483.694	1	11	0.00484444	0.000222586	0	7.00526e-05	0.0449316	0.00960489	0.0459468	12.0663	483694	2.26272e+06	2.31384e+06	-77.9337	0.0000000E+000	0.0000000E+000	0.0000000E+000	77.9337	0.0000000E+000	0.0000000E+000	0.0000000E+000	-77.9337	0.0000000E+000	0.0000000E+000	0.0000000E+000	-12.0663	0.0000000E+000	0.0000000E+000	0.0000000E+000	12.0663	4.678	77.9337	-4.23828e-06	-2.06745e-06	43067.7
2.15577	22.2793	4.08719	22.6511	-10.3954	16.7178	0.298402	-0.0061143	18063.1	588.115	1	11	0.00484286	0.000213802	0	7.05579e-05	0.0434232	0.00796607	0.0441479	10.3954	588115	3.20583e+06	3.25933e+06	-79.6046	0.0000000E+000	0.0000000E+000	0.0000000E+000	79.6046	0.0000000E+000	0.0000000E+000	0.0000000E+000	-79.6046	0.0000000E+000	0.0000000E+000	0.0000000E+000	-10.3954	0.0000000E+000	0.0000000E+000	0.0000000E+000	10.3954	5.45102	79.6046	5.05285e-07	-1.82452e-06	48804
1.46631	23.1177	3.62117	23.3996	-8.90253	18.191	0.298409	-0.00572192	29974	717.841	1	11	0.00484739	0.000207157	0	7.38242e-05	0.042221	0.00661354	0.0427359	8.90253	717842	4.58272e+06	4.6386e+06	-81.0975	0.0000000E+000	0.0000000E+000	0.0000000E+000	81.0975	0.0000000E+000	0.0000000E+000	0.0000000E+000	-81.0975	0.0000000E+000	0.0000000E+000	0.0000000E+000	-8.90253	0.0000000E+000	0.0000000E+000	0.0000000E+000	8.90253	6.38403	81.0975	3.26629e-06	-1.70747e-06	52151.9
1.00006	23.8524	3.26983	24.0755	-7.80581	21.3821	0.298409	-0.00524032	48670.6	897.777	1	12	0.00484493	0.000201239	0	7.29096e-05	0.0411512	0.00564126	0.0415361	7.80581	897777	6.549e+06	6.61025e+06	-82.1942	0.0000000E+000	0.0000000E+000	0.0000000E+000	82.1942	0.0000000E+000	0.0000000E+000	0.0000000E+000	-82.1942	0.0000000E+000	0.0000000E+000	0.0000000E+000	-7.80581	0.0000000E+000	0.0000000E+000	0.0000000E+000	7.80581	7.29468	82.1942	-9.14647e-07	-1.56376e-06	56944.7
0.681362	24.4813	3.0393	24.6692	-7.07694	24.502	0.298407	-0.00429066	76854.3	1166.55	1	12	0.00484812	0.000196525	0	6.46643e-05	0.0402275	0.00499416	0.0405363	7.07694	1.16655e+06	9.39648e+06	9.46861e+06	-82.9231	0.0000000E+000	0.0000000E+000	0.0000000E+000	82.9231	0.0000000E+000	0.0000000E+000	0.0000000E+000	-82.9231	0.0000000E+000	0.0000000E+000	0.0000000E+000	-7.07694	0.0000000E+000	0.0000000E+000	0.0000000E+000	7.07694	8.05491	82.9231	-8.24524e-06	-1.28036e-06	69548.1
0.464091	25.0024	2.91671	25.172	-6.65389	29.0668	0.298411	-0.00397873	117577	1578.62	1	12	0.00484756	0.000192578	0	4.70134e-05	0.0394591	0.00460319	0.0397267	6.65389	1.57862e+06	1.35321e+07	1.36239e+07	-83.3461	0.0000000E+000	0.0000000E+000	0.0000000E+000	83.3461	0.0000000E+000	0.0000000E+000	0.0000000E+000	-83.3461	0.0000000E+000	0.0000000E+000	0.0000000E+000	-6.65389	0.0000000E+000	0.0000000E+000	0.0000000E+000	6.65389	8.57213	83.3461	-1.76509e-05	-1.1873e-06	75001.6
0.316193	25.5419	2.94868	25.7115	-6.58536	35.7491	0.298414	-0.00399104	170703	2245.12	1	12	0.00484619	0.000188483	0	2.37006e-05	0.0386365	0.00446039	0.0388931	6.58536	2.24512e+06	1.94476e+07	1.95767e+07	-83.4146	0.0000000E+000	0.0000000E+000	0.0000000E+000	83.4146	0.0000000E+000	0.0000000E+000	0.0000000E+000	-83.4146	0.0000000E+000	0.0000000E+000	0.0000000E+000	-6.58536	0.0000000E+000	0.0000000E+000	0.0000000E+000	6.58536	8.66213	83.4146	-2.33128e-05	-1.19098e-06	74771
0.215268	26.1433	3.21722	26.3405	-7.0156	45.5469	0.298417	-0.00416529	229806	3428.26	1	12	0.00484398	0.000183899	0	2.75781e-06	0.0376801	0.00463695	0.0379643	7.0156	3.42826e+06	2.78582e+07	2.80684e+07	-82.9844	0.0000000E+000	0.0000000E+000	0.0000000E+000	82.9844	0.0000000E+000	0.0000000E+000	0.0000000E+000	-82.9844	0.0000000E+000	0.0000000E+000	0.0000000E+000	-7.0156	0.0000000E+000	0.0000000E+000	0.0000000E+000	7.0156	8.12605	82.9844	-2.09428e-05	-1.24299e-06	71643.8
0.146929	26.8075	3.71994	27.0644	-7.9002	59.8836	0.298415	-0.00423294	291190	5501.15	1	12	0.0048476	0.000179114	0	-3.53106e-06	0.0365983	0.00507856	0.0369489	7.9002	5.50115e+06	3.96437e+07	4.00235e+07	-82.0998	0.0000000E+000	0.0000000E+000	0.0000000E+000	82.0998	0.0000000E+000	0.0000000E+000	0.0000000E+000	-82.0998	0.0000000E+000	0.0000000E+000	0.0000000E+000	-7.9002	0.0000000E+000	0.0000000E+000	0.0000000E+000	7.9002	7.20643	82.0998	-6.28888e-06	-1.26317e-06	70498.4
0.0999041	27.5924	4.34622	27.9326	-8.95139	80.9536	0.298424	-0.00365746	366543	8874.11	1	12	0.0048492	0.000173603	0	1.55451e-05	0.0353644	0.00557042	0.0358004	8.95139	8.87411e+06	5.63382e+07	5.70328e+07	-81.0486	0.0000000E+000	0.0000000E+000	0.0000000E+000	81.0486	0.0000000E+000	0.0000000E+000	0.0000000E+000	-81.0486	0.0000000E+000	0.0000000E+000	0.0000000E+000	-8.95139	0.0000000E+000	0.0000000E+000	0.0000000E+000	8.95139	6.34861	81.0486	1.90762e-05	-1.09147e-06	81593.1
0.0680626	28.6204	5.11486	29.0739	-10.1326	111.866	0.298409	-0.00337168	457170	14149.4	1	12	0.00484628	0.000166688	0	5.46473e-05	0.0338587	0.006051	0.0343951	10.1326	1.41494e+07	7.91738e+07	8.04282e+07	-79.8674	0.0000000E+000	0.0000000E+000	0.0000000E+000	79.8674	0.0000000E+000	0.0000000E+000	0.0000000E+000	-79.8674	0.0000000E+000	0.0000000E+000	0.0000000E+000	-10.1326	0.0000000E+000	0.0000000E+000	0.0000000E+000	10.1326	5.59554	79.8674	3.91023e-05	-1.00614e-06	88504.6
0.0464052	29.965	5.96512	30.553	-11.2586	157.189	0.298415	-0.00153415	574956	21916.2	1	12	0.00485014	0.000158745	0	0.000106481	0.0321001	0.00639015	0.03273	11.2586	2.19162e+07	1.10093e+08	1.12253e+08	-78.7414	0.0000000E+000	0.0000000E+000	0.0000000E+000	78.7414	0.0000000E+000	0.0000000E+000	0.0000000E+000	-78.7414	0.0000000E+000	0.0000000E+000	0.0000000E+000	-11.2586	0.0000000E+000	0.0000000E+000	0.0000000E+000	11.2586	5.02338	78.7414	5.18338e-05	-4.57815e-07	194515
0.0315922	31.4639	7.13474	32.2627	-12.7763	223.75	0.298414	-0.000200815	706094	34531.7	1	12	0.00484658	0.000150223	0	0.000120929	0.0302281	0.00685452	0.0309956	12.7763	3.45317e+07	1.52283e+08	1.56149e+08	-77.2237	0.0000000E+000	0.0000000E+000	0.0000000E+000	77.2237	0.0000000E+000	0.0000000E+000	0.0000000E+000	-77.2237	0.0000000E+000	0.0000000E+000	0.0000000E+000	-12.7763	0.0000000E+000	0.0000000E+000	0.0000000E+000	12.7763	4.40996	77.2237	1.44482e-05	-5.99259e-08	1.48601e+06
0.0215268	32.9115	8.54003	34.0015	-14.5465	321.42	0.298415	0.000569106	865728	54614.1	1	12	0.00484805	0.000142584	0	4.28317e-05	0.0284677	0.00738693	0.0294105	14.5465	5.46141e+07	2.10472e+08	2.17442e+08	-75.4535	0.0000000E+000	0.0000000E+000	0.0000000E+000	75.4535	0.0000000E+000	0.0000000E+000	0.0000000E+000	-75.4535	0.0000000E+000	0.0000000E+000	0.0000000E+000	-14.5465	0.0000000E+000	0.0000000E+000	0.0000000E+000	14.5465	3.85379	75.4535	-7.80976e-05	1.6983e-07	524358
0.0146812	34.3997	10.2824	35.9035	-16.6419	464.615	0.298415	0.000409504	1.05431e+06	86472.4	1	12	0.00484663	0.00013499	0	-0.00017694	0.0266858	0.00797661	0.0278524	16.6419	8.64724e+07	2.89294e+08	3.01941e+08	-73.3581	0.0000000E+000	0.0000000E+000	0.0000000E+000	73.3581	0.0000000E+000	0.0000000E+000	0.0000000E+000	-73.3581	0.0000000E+000	0.0000000E+000	0.0000000E+000	-16.6419	0.0000000E+000	0.0000000E+000	0.0000000E+000	16.6419	3.34551	73.3581	-0.000219772	1.22202e-07	728723
0.0100092	36.2306	12.6247	38.3672	-19.2111	674.637	0.298415	-0.000218688	1.25951e+06	136372	1	12	0.00484449	0.000126266	0	-0.000536128	0.0246125	0.00857635	0.026064	19.2111	1.36372e+08	3.91362e+08	4.14441e+08	-70.7889	0.0000000E+000	0.0000000E+000	0.0000000E+000	70.7889	0.0000000E+000	0.0000000E+000	0.0000000E+000	-70.7889	0.0000000E+000	0.0000000E+000	0.0000000E+000	-19.2111	0.0000000E+000	0.0000000E+000	0.0000000E+000	19.2111	2.86981	70.7889	-0.000359188	-6.52598e-08	1.36457e+06