File: txt/17456_R281_UA646_SOC00_C03.mpt
EC-Lab ASCII FILE
Nb header lines : 63

Potentio Electrochemical Impedance Spectroscopy

Run on channel : 3 (SN 65921)
User :
CE vs. WE compliance from -10 V to 10 V
Electrode connection : standard
Potential control : Ewe
Ewe ctrl range : min = -10.00 V, max = 10.00 V
Safety Limits :
	Do not start on E overload
Acquisition started on : 09/11/2025 16:15:48.615
Loaded Setting File :  C:\Users\Celltest\OneDrive - store-dot.com\Documents\EC-Lab\Data\Charmaine\R279\17382_C01.mpr
Saved on :
	File : 17456_C03.mpr
	Directory : C:\Users\Celltest\OneDrive - store-dot.com\Documents\EC-Lab\Data\John\R281\
	Host : 169.254.61.224
Device : VMP-3e (SN .003165)
Address : USB
EC-LAB for windows v11.62 (software)
Internet server v27.00 (firmware)
Command interpretor v12.03 (firmware)
Electrode material :
Initial state :
Electrolyte :
Comments :
Electrode surface area : 0.001 cm²
Characteristic mass : 0.001 g
Equivalent Weight : 0.000 g/eq.
Density : 0.000 g/cm3
Volume (V) : 0.001 cm³
Cycle Definition : Charge/Discharge alternance
Mode                Single sine
E (V)               0.0000
vs.                 Eoc
tE (h:m:s)          0:00:0.0000
record              0
dI                  0.000
unit dI             mA
dt (s)              0.000
fi                  100.000
unit fi             kHz
ff                  10.000
unit ff             mHz
Nd                  6
Points              per decade
spacing             Logarithmic
Va (mV)             5.0
pw                  0.10
Na                  2
corr                0
E range min (V)     -10.000
E range max (V)     10.000
I Range             Auto
Bandwidth           5
nc cycles           0
goto Ns'            0
nr cycles           0
inc. cycle          0

freq/Hz	Re(Z)/Ohm	-Im(Z)/Ohm	|Z|/Ohm	Phase(Z)/deg	time/s	<Ewe>/V	<I>/mA	Cs/µF	Cp/µF	cycle number	I Range	|Ewe|/V	|I|/A	Ns	(Q-Qo)/mA.h	Re(Y)/Ohm-1	Im(Y)/Ohm-1	|Y|/Ohm-1	Phase(Y)/deg	Re(C)/nF	Im(C)/nF	|C|/nF	Phase(C)/deg	Re(M)	Im(M)	|M|	Phase(M)/deg	Re(Permittivity)	Im(Permittivity)	|Permittivity|	Phase(Permittivity)/deg	Re(Resistivity)/Ohm.cm	Im(Resistivity)/Ohm.cm	|Resistivity|/Ohm.cm	Phase(Resistivity)/deg	Re(Conductivity)/mS/cm	Im(Conductivity)/mS/cm	|Conductivity|/mS/cm	Phase(Conductivity)/deg	Tan(Delta)	Loss Angle(Delta)/deg	dq/mA.h	Pwe/W	Rwe/Ohm
100004	2.48647	0.349875	2.51096	-8.0096	2.0245	0.291137	0.0464241	4.54873	0.0883154	1	9	0.0048982	0.00195073	0	6.49477e-06	0.394368	0.0554923	0.398253	8.0096	88.3155	627.634	633.817	-81.9904	0.0000000E+000	0.0000000E+000	0.0000000E+000	81.9904	0.0000000E+000	0.0000000E+000	0.0000000E+000	-81.9904	0.0000000E+000	0.0000000E+000	0.0000000E+000	-8.0096	0.0000000E+000	0.0000000E+000	0.0000000E+000	8.0096	7.10673	81.9904	6.49477e-06	1.35158e-05	6271.26
68132	2.56803	0.399157	2.59886	-8.83497	2.46248	0.29114	0.0460138	5.85228	0.138053	1	9	0.00527377	0.00202926	0	1.11678e-05	0.380218	0.0590985	0.384784	8.83497	138.053	888.181	898.846	-81.165	0.0000000E+000	0.0000000E+000	0.0000000E+000	81.165	0.0000000E+000	0.0000000E+000	0.0000000E+000	-81.165	0.0000000E+000	0.0000000E+000	0.0000000E+000	-8.83497	0.0000000E+000	0.0000000E+000	0.0000000E+000	8.83497	6.43363	81.165	4.67298e-06	1.33965e-05	6327.23
46420.4	2.65628	0.449408	2.69403	-9.60276	2.90049	0.291125	0.0425642	7.62905	0.212299	1	9	0.00530861	0.00197051	0	1.70826e-05	0.36599	0.0619207	0.371191	9.60276	212.299	1254.82	1272.65	-80.3972	0.0000000E+000	0.0000000E+000	0.0000000E+000	80.3972	0.0000000E+000	0.0000000E+000	0.0000000E+000	-80.3972	0.0000000E+000	0.0000000E+000	0.0000000E+000	-9.60276	0.0000000E+000	0.0000000E+000	0.0000000E+000	9.60276	5.91062	80.3972	5.91484e-06	1.23915e-05	6839.67
31621.1	2.75215	0.524488	2.80168	-10.7897	3.33748	0.291138	0.0423591	9.59636	0.33631	1	9	0.00529311	0.00188926	0	1.9029e-05	0.350618	0.0668187	0.356928	10.7897	336.311	1764.72	1796.48	-79.2103	0.0000000E+000	0.0000000E+000	0.0000000E+000	79.2103	0.0000000E+000	0.0000000E+000	0.0000000E+000	-79.2103	0.0000000E+000	0.0000000E+000	0.0000000E+000	-10.7897	0.0000000E+000	0.0000000E+000	0.0000000E+000	10.7897	5.24731	79.2103	1.94641e-06	1.23324e-05	6873.11
21544.7	2.87352	0.588989	2.93326	-11.5836	3.7745	0.291138	0.0460138	12.5422	0.505692	1	9	0.00530774	0.0018095	0	2.19626e-05	0.333974	0.0684552	0.340918	11.5836	505.692	2467.14	2518.43	-78.4164	0.0000000E+000	0.0000000E+000	0.0000000E+000	78.4164	0.0000000E+000	0.0000000E+000	0.0000000E+000	-78.4164	0.0000000E+000	0.0000000E+000	0.0000000E+000	-11.5836	0.0000000E+000	0.0000000E+000	0.0000000E+000	11.5836	4.87873	78.4164	2.93363e-06	1.33964e-05	6327.19
14678.6	3.00801	0.679577	3.08382	-12.7307	4.2115	0.291143	0.0464427	15.955	0.77481	1	9	0.00530745	0.00172106	0	2.389e-05	0.316301	0.0714594	0.324273	12.7307	774.81	3429.54	3515.98	-77.2693	0.0000000E+000	0.0000000E+000	0.0000000E+000	77.2693	0.0000000E+000	0.0000000E+000	0.0000000E+000	-77.2693	0.0000000E+000	0.0000000E+000	0.0000000E+000	-12.7307	0.0000000E+000	0.0000000E+000	0.0000000E+000	12.7307	4.4263	77.2693	1.92734e-06	1.35215e-05	6268.86
10002.2	3.15658	0.77739	3.2509	-13.8352	4.64848	0.291137	0.0406249	20.4684	1.17046	1	9	0.00527381	0.00162226	0	2.81861e-05	0.298683	0.0735584	0.307607	13.8352	1170.46	4752.63	4894.63	-76.1647	0.0000000E+000	0.0000000E+000	0.0000000E+000	76.1647	0.0000000E+000	0.0000000E+000	0.0000000E+000	-76.1647	0.0000000E+000	0.0000000E+000	0.0000000E+000	-13.8352	0.0000000E+000	0.0000000E+000	0.0000000E+000	13.8352	4.06049	76.1647	4.29615e-06	1.18274e-05	7166.47
6811.07	3.34512	0.901739	3.46453	-15.0865	5.2035	0.291126	0.0283926	25.9134	1.75549	1	9	0.00519171	0.00149853	0	3.46266e-05	0.278691	0.0751264	0.288639	15.0865	1755.49	6512.21	6744.67	-74.9135	0.0000000E+000	0.0000000E+000	0.0000000E+000	74.9135	0.0000000E+000	0.0000000E+000	0.0000000E+000	-74.9135	0.0000000E+000	0.0000000E+000	0.0000000E+000	-15.0865	0.0000000E+000	0.0000000E+000	0.0000000E+000	15.0865	3.70963	74.9135	6.44046e-06	8.26582e-06	10253.6
4641.49	3.55224	1.02358	3.69677	-16.0744	5.89667	0.291154	0.0482141	33.4996	2.56828	1	9	0.00511647	0.00138404	0	4.52239e-05	0.25993	0.0748994	0.270506	16.0744	2568.28	8912.92	9275.57	-73.9256	0.0000000E+000	0.0000000E+000	0.0000000E+000	73.9256	0.0000000E+000	0.0000000E+000	0.0000000E+000	-73.9256	0.0000000E+000	0.0000000E+000	0.0000000E+000	-16.0744	0.0000000E+000	0.0000000E+000	0.0000000E+000	16.0744	3.47039	73.9256	1.05973e-05	1.40377e-05	6038.76
3161.01	3.75304	1.1896	3.93706	-17.5871	6.84069	0.291174	-0.00519494	42.3246	3.86413	1	10	0.00484625	0.00123093	0	4.83853e-05	0.242125	0.0767463	0.253997	17.5871	3864.13	12190.8	12788.6	-72.4129	0.0000000E+000	0.0000000E+000	0.0000000E+000	72.4129	0.0000000E+000	0.0000000E+000	0.0000000E+000	-72.4129	0.0000000E+000	0.0000000E+000	0.0000000E+000	-17.5871	0.0000000E+000	0.0000000E+000	0.0000000E+000	17.5871	3.15487	72.4129	3.16146e-06	-1.51263e-06	56049.5
2155.69	4.01785	1.38254	4.24907	-18.9883	7.30768	0.291165	-0.00569648	53.4017	5.6536	1	10	0.00506642	0.00119236	0	4.82225e-05	0.222539	0.0765758	0.235346	18.9883	5653.6	16430.1	17375.6	-71.0117	0.0000000E+000	0.0000000E+000	0.0000000E+000	71.0117	0.0000000E+000	0.0000000E+000	0.0000000E+000	-71.0117	0.0000000E+000	0.0000000E+000	0.0000000E+000	-18.9883	0.0000000E+000	0.0000000E+000	0.0000000E+000	18.9883	2.90613	71.0117	-1.628e-07	-1.65862e-06	51113.1
1468.59	4.33405	1.60625	4.62212	-20.3353	7.77493	0.291167	-0.00508121	67.4695	8.14797	1	10	0.00508445	0.00110003	0	4.83326e-05	0.202867	0.0751848	0.216351	20.3353	8147.97	21985.2	23446.5	-69.6647	0.0000000E+000	0.0000000E+000	0.0000000E+000	69.6647	0.0000000E+000	0.0000000E+000	0.0000000E+000	-69.6647	0.0000000E+000	0.0000000E+000	0.0000000E+000	-20.3353	0.0000000E+000	0.0000000E+000	0.0000000E+000	20.3353	2.69825	69.6647	1.10082e-07	-1.47948e-06	57302.6
1000.32	4.69054	1.87111	5.04997	-21.7476	8.24369	0.291168	-0.00485003	85.0321	11.6735	1	10	0.00503768	0.000997565	0	4.69592e-05	0.183927	0.0733702	0.198021	21.7476	11673.5	29263.5	31505.9	-68.2524	0.0000000E+000	0.0000000E+000	0.0000000E+000	68.2524	0.0000000E+000	0.0000000E+000	0.0000000E+000	-68.2524	0.0000000E+000	0.0000000E+000	0.0000000E+000	-21.7476	0.0000000E+000	0.0000000E+000	0.0000000E+000	21.7476	2.50683	68.2524	-1.37335e-06	-1.41217e-06	60034.2
681.09	5.09327	2.18108	5.54062	-23.182	8.70943	0.291163	-0.00523038	107.138	16.6024	1	10	0.00498353	0.000899452	0	4.56967e-05	0.165913	0.0710485	0.180485	23.182	16602.4	38769.9	42175.2	-66.818	0.0000000E+000	0.0000000E+000	0.0000000E+000	66.818	0.0000000E+000	0.0000000E+000	0.0000000E+000	-66.818	0.0000000E+000	0.0000000E+000	0.0000000E+000	-23.182	0.0000000E+000	0.0000000E+000	0.0000000E+000	23.182	2.3352	66.818	-1.2625e-06	-1.52289e-06	55667.7
463.961	5.54645	2.57964	6.117	-24.943	9.17818	0.291168	-0.00498987	132.978	23.6495	1	10	0.00493854	0.000807347	0	4.53207e-05	0.148231	0.0689418	0.163479	24.943	23649.5	50848.4	56079	-65.057	0.0000000E+000	0.0000000E+000	0.0000000E+000	65.057	0.0000000E+000	0.0000000E+000	0.0000000E+000	-65.057	0.0000000E+000	0.0000000E+000	0.0000000E+000	-24.943	0.0000000E+000	0.0000000E+000	0.0000000E+000	24.943	2.15009	65.057	-3.75989e-07	-1.45289e-06	58351.7
316.316	6.08142	3.06753	6.81127	-26.7668	9.64494	0.29117	-0.00460953	164.025	33.2684	1	10	0.00490342	0.000719898	0	4.44747e-05	0.131084	0.0661199	0.146815	26.7668	33268.3	65955	73870.5	-63.2332	0.0000000E+000	0.0000000E+000	0.0000000E+000	63.2332	0.0000000E+000	0.0000000E+000	0.0000000E+000	-63.2332	0.0000000E+000	0.0000000E+000	0.0000000E+000	-26.7668	0.0000000E+000	0.0000000E+000	0.0000000E+000	26.7668	1.98252	63.2332	-8.46031e-07	-1.34216e-06	63166.9
215.345	6.74925	3.71224	7.70279	-28.8118	10.1124	0.291163	-0.00507937	199.09	46.2408	1	10	0.00488343	0.000633981	0	4.32627e-05	0.113752	0.0625661	0.129823	28.8118	46240.8	84070.8	95948.4	-61.1882	0.0000000E+000	0.0000000E+000	0.0000000E+000	61.1882	0.0000000E+000	0.0000000E+000	0.0000000E+000	-61.1882	0.0000000E+000	0.0000000E+000	0.0000000E+000	-28.8118	0.0000000E+000	0.0000000E+000	0.0000000E+000	28.8118	1.81811	61.1882	-1.21199e-06	-1.47893e-06	57322.7
146.737	7.62063	4.50231	8.85126	-30.5748	10.5754	0.291172	-0.00528446	240.904	62.331	1	10	0.00486635	0.000549792	0	4.28935e-05	0.0972704	0.0574679	0.112978	30.5748	62331	105502	122539	-59.4252	0.0000000E+000	0.0000000E+000	0.0000000E+000	59.4252	0.0000000E+000	0.0000000E+000	0.0000000E+000	-59.4252	0.0000000E+000	0.0000000E+000	0.0000000E+000	-30.5748	0.0000000E+000	0.0000000E+000	0.0000000E+000	30.5748	1.69261	59.4252	-3.6921e-07	-1.53869e-06	55099.6
100.032	8.75027	5.38839	10.2763	-31.6246	11.0437	0.291163	-0.00484259	295.272	81.1835	1	10	0.00486017	0.00047295	0	4.2731e-05	0.0828608	0.0510254	0.0973114	31.6246	81183.5	131835	154826	-58.3754	0.0000000E+000	0.0000000E+000	0.0000000E+000	58.3754	0.0000000E+000	0.0000000E+000	0.0000000E+000	-58.3754	0.0000000E+000	0.0000000E+000	0.0000000E+000	-31.6246	0.0000000E+000	0.0000000E+000	0.0000000E+000	31.6246	1.62391	58.3754	-1.62481e-07	-1.40998e-06	60125.4
68.104	10.242	6.3218	12.0359	-31.6847	11.5213	0.291168	-0.00439699	369.664	101.984	1	10	0.00485184	0.000403114	0	4.24879e-05	0.070701	0.0436398	0.0830847	31.6847	101984	165224	194164	-58.3153	0.0000000E+000	0.0000000E+000	0.0000000E+000	58.3153	0.0000000E+000	0.0000000E+000	0.0000000E+000	-58.3153	0.0000000E+000	0.0000000E+000	0.0000000E+000	-31.6847	0.0000000E+000	0.0000000E+000	0.0000000E+000	31.6847	1.6201	58.3153	-2.43131e-07	-1.28026e-06	66220
46.4415	12.0873	7.12462	14.0308	-30.5165	11.9766	0.291162	-0.00536464	481.007	124.026	1	10	0.00484792	0.000345521	0	4.19492e-05	0.0613996	0.0361909	0.071272	30.5165	124026	210416	244249	-59.4835	0.0000000E+000	0.0000000E+000	0.0000000E+000	59.4835	0.0000000E+000	0.0000000E+000	0.0000000E+000	-59.4835	0.0000000E+000	0.0000000E+000	0.0000000E+000	-30.5165	0.0000000E+000	0.0000000E+000	0.0000000E+000	30.5165	1.69655	59.4835	-5.38713e-07	-1.56198e-06	54274.3
31.6296	14.2257	7.74815	16.1989	-28.5753	12.4244	0.291159	-0.00605634	649.425	148.578	1	10	0.0048419	0.000298903	0	4.11742e-05	0.0542129	0.0295276	0.0617326	28.5753	148578	272791	310629	-61.4247	0.0000000E+000	0.0000000E+000	0.0000000E+000	61.4247	0.0000000E+000	0.0000000E+000	0.0000000E+000	-61.4247	0.0000000E+000	0.0000000E+000	0.0000000E+000	-28.5753	0.0000000E+000	0.0000000E+000	0.0000000E+000	28.5753	1.83601	61.4247	-7.75e-07	-1.76336e-06	48075
21.5517	16.5816	8.05559	18.4348	-25.9112	13.1043	0.291169	-0.0087131	916.728	175.049	1	11	0.00484674	0.000262913	0	3.95803e-05	0.0487921	0.023704	0.0542453	25.9112	175049	360320	400590	-64.0888	0.0000000E+000	0.0000000E+000	0.0000000E+000	64.0888	0.0000000E+000	0.0000000E+000	0.0000000E+000	-64.0888	0.0000000E+000	0.0000000E+000	0.0000000E+000	-25.9112	0.0000000E+000	0.0000000E+000	0.0000000E+000	25.9112	2.05839	64.0888	-1.59392e-06	-2.53698e-06	33417.3
14.6852	18.9341	8.00756	20.5577	-22.9244	13.582	0.291176	-0.00830328	1353.45	205.348	1	11	0.00484538	0.000235696	0	3.85491e-05	0.0448016	0.0189474	0.0486435	22.9244	205348	485552	527189	-67.0756	0.0000000E+000	0.0000000E+000	0.0000000E+000	67.0756	0.0000000E+000	0.0000000E+000	0.0000000E+000	-67.0756	0.0000000E+000	0.0000000E+000	0.0000000E+000	-22.9244	0.0000000E+000	0.0000000E+000	0.0000000E+000	22.9244	2.36452	67.0756	-1.03121e-06	-2.41772e-06	35067.6
10.0032	21.1589	7.61328	22.4869	-19.7895	14.0507	0.291178	-0.00821528	2089.82	239.55	1	11	0.00484473	0.000215447	0	3.87474e-05	0.0418441	0.0150562	0.0444704	19.7895	239550	665757	707542	-70.2105	0.0000000E+000	0.0000000E+000	0.0000000E+000	70.2105	0.0000000E+000	0.0000000E+000	0.0000000E+000	-70.2105	0.0000000E+000	0.0000000E+000	0.0000000E+000	-19.7895	0.0000000E+000	0.0000000E+000	0.0000000E+000	19.7895	2.7792	70.2105	1.98326e-07	-2.39211e-06	35443.5
6.81719	23.1586	7.03684	24.2041	-16.9016	14.4084	0.291163	-0.00943094	3317.7	280.424	1	11	0.00484086	0.000200002	0	3.707e-05	0.0395307	0.0120116	0.0413153	16.9016	280424	922888	964552	-73.0984	0.0000000E+000	0.0000000E+000	0.0000000E+000	73.0984	0.0000000E+000	0.0000000E+000	0.0000000E+000	-73.0984	0.0000000E+000	0.0000000E+000	0.0000000E+000	-16.9016	0.0000000E+000	0.0000000E+000	0.0000000E+000	16.9016	3.29105	73.0984	-1.67735e-06	-2.74594e-06	30873.2
4.63925	24.8411	6.43244	25.6604	-14.5175	14.9103	0.29118	-0.00776444	5333.3	335.136	1	11	0.00484192	0.000188692	0	3.82581e-05	0.0377262	0.00976896	0.0389705	14.5175	335136	1.29424e+06	1.33693e+06	-75.4825	0.0000000E+000	0.0000000E+000	0.0000000E+000	75.4825	0.0000000E+000	0.0000000E+000	0.0000000E+000	-75.4825	0.0000000E+000	0.0000000E+000	0.0000000E+000	-14.5175	0.0000000E+000	0.0000000E+000	0.0000000E+000	14.5175	3.86185	75.4825	1.18806e-06	-2.26085e-06	37501.8
3.1604	26.3928	5.87247	27.0383	-12.5441	15.6192	0.291173	-0.00734315	8575.47	404.521	1	11	0.00484828	0.000179312	0	3.44669e-05	0.0361018	0.00803273	0.0369846	12.5441	404521	1.81806e+06	1.86252e+06	-77.4559	0.0000000E+000	0.0000000E+000	0.0000000E+000	77.4559	0.0000000E+000	0.0000000E+000	0.0000000E+000	-77.4559	0.0000000E+000	0.0000000E+000	0.0000000E+000	-12.5441	0.0000000E+000	0.0000000E+000	0.0000000E+000	12.5441	4.49434	77.4559	-3.79117e-06	-2.13812e-06	39652.2
2.15577	27.6591	5.22272	28.1479	-10.693	16.6348	0.291194	-0.00636489	14135.8	486.657	1	11	0.00484404	0.000172092	0	2.97784e-05	0.0349097	0.00659182	0.0355266	10.693	486658	2.5773e+06	2.62284e+06	-79.307	0.0000000E+000	0.0000000E+000	0.0000000E+000	79.307	0.0000000E+000	0.0000000E+000	0.0000000E+000	-79.307	0.0000000E+000	0.0000000E+000	0.0000000E+000	-10.693	0.0000000E+000	0.0000000E+000	0.0000000E+000	10.693	5.29592	79.307	-4.6885e-06	-1.85342e-06	45750
1.46631	28.8291	4.71259	29.2118	-9.28382	18.108	0.291187	-0.00669968	23032.2	599.43	1	11	0.00484972	0.000166019	0	2.79337e-05	0.0337844	0.00552261	0.0342328	9.28382	599430	3.667e+06	3.71567e+06	-80.7162	0.0000000E+000	0.0000000E+000	0.0000000E+000	80.7162	0.0000000E+000	0.0000000E+000	0.0000000E+000	-80.7162	0.0000000E+000	0.0000000E+000	0.0000000E+000	-9.28382	0.0000000E+000	0.0000000E+000	0.0000000E+000	9.28382	6.11747	80.7162	-1.84475e-06	-1.95086e-06	43462.9
1.00006	29.7599	4.29017	30.0675	-8.20322	21.2991	0.291193	-0.00646013	37095.2	755.217	1	12	0.00484763	0.000161225	0	2.82008e-05	0.0329182	0.00474547	0.0332585	8.20322	755216	5.23876e+06	5.29291e+06	-81.7968	0.0000000E+000	0.0000000E+000	0.0000000E+000	81.7968	0.0000000E+000	0.0000000E+000	0.0000000E+000	-81.7968	0.0000000E+000	0.0000000E+000	0.0000000E+000	-8.20322	0.0000000E+000	0.0000000E+000	0.0000000E+000	8.20322	6.93676	81.7968	2.67095e-07	-1.88114e-06	45075.3
0.681362	30.598	3.91202	30.8471	-7.28585	24.4191	0.291184	-0.00614483	59709.2	960.316	1	12	0.00484367	0.000157022	0	2.88306e-05	0.0321562	0.00411123	0.032418	7.28585	960316	7.51116e+06	7.5723e+06	-82.7141	0.0000000E+000	0.0000000E+000	0.0000000E+000	82.7141	0.0000000E+000	0.0000000E+000	0.0000000E+000	-82.7141	0.0000000E+000	0.0000000E+000	0.0000000E+000	-7.28585	0.0000000E+000	0.0000000E+000	0.0000000E+000	7.28585	7.82155	82.7141	6.29797e-07	-1.78928e-06	47386.8
0.464091	31.3411	3.76162	31.566	-6.84401	28.9839	0.291185	-0.00517965	91168.1	1294.65	1	12	0.00484892	0.000153612	0	2.33631e-05	0.0314539	0.00377516	0.0316796	6.84401	1.29465e+06	1.07868e+07	1.08642e+07	-83.156	0.0000000E+000	0.0000000E+000	0.0000000E+000	83.156	0.0000000E+000	0.0000000E+000	0.0000000E+000	-83.156	0.0000000E+000	0.0000000E+000	0.0000000E+000	-6.84401	0.0000000E+000	0.0000000E+000	0.0000000E+000	6.84401	8.33181	83.156	-5.46748e-06	-1.50824e-06	56217.1
0.316193	32.001	3.80769	32.2267	-6.78552	35.666	0.291184	-0.00465799	132192	1845.42	1	12	0.00484648	0.000150387	0	6.18809e-06	0.0308128	0.00366631	0.0310301	6.78552	1.84542e+06	1.55095e+07	1.56189e+07	-83.2145	0.0000000E+000	0.0000000E+000	0.0000000E+000	83.2145	0.0000000E+000	0.0000000E+000	0.0000000E+000	-83.2145	0.0000000E+000	0.0000000E+000	0.0000000E+000	-6.78552	0.0000000E+000	0.0000000E+000	0.0000000E+000	6.78552	8.40431	83.2145	-1.7175e-05	-1.35633e-06	62512.7
0.215268	32.6531	4.02083	32.8997	-7.01994	45.4636	0.29119	-0.00413657	183876	2746.45	1	12	0.00484892	0.000147385	0	-2.49041e-05	0.0301675	0.00371476	0.0303954	7.01994	2.74645e+06	2.23039e+07	2.24723e+07	-82.9801	0.0000000E+000	0.0000000E+000	0.0000000E+000	82.9801	0.0000000E+000	0.0000000E+000	0.0000000E+000	-82.9801	0.0000000E+000	0.0000000E+000	0.0000000E+000	-7.01994	0.0000000E+000	0.0000000E+000	0.0000000E+000	7.01994	8.12098	82.9801	-3.10922e-05	-1.20453e-06	70394
0.146929	33.461	4.41482	33.751	-7.51614	59.8002	0.291184	-0.00402523	245358	4198.1	1	12	0.00484825	0.000143647	0	-6.67695e-05	0.0293742	0.0038756	0.0296287	7.51614	4.1981e+06	3.18184e+07	3.20942e+07	-82.4839	0.0000000E+000	0.0000000E+000	0.0000000E+000	82.4839	0.0000000E+000	0.0000000E+000	0.0000000E+000	-82.4839	0.0000000E+000	0.0000000E+000	0.0000000E+000	-7.51614	0.0000000E+000	0.0000000E+000	0.0000000E+000	7.51614	7.57926	82.4839	-4.18654e-05	-1.17208e-06	72339.6
0.0999041	34.4734	5.16452	34.8581	-8.52022	80.87	0.291186	-0.00391145	308466	6771.11	1	12	0.0048458	0.000139015	0	-0.000107623	0.0283712	0.00425033	0.0286878	8.52022	6.77111e+06	4.51974e+07	4.57018e+07	-81.4798	0.0000000E+000	0.0000000E+000	0.0000000E+000	81.4798	0.0000000E+000	0.0000000E+000	0.0000000E+000	-81.4798	0.0000000E+000	0.0000000E+000	0.0000000E+000	-8.52022	0.0000000E+000	0.0000000E+000	0.0000000E+000	8.52022	6.67504	81.4798	-4.08537e-05	-1.13896e-06	74444.5
0.0680626	35.6639	6.13262	36.1874	-9.75692	111.781	0.291183	-0.00386664	381299	10950.7	1	12	0.00484846	0.000133982	0	-0.000133632	0.0272343	0.00468309	0.027634	9.75692	1.09507e+07	6.36835e+07	6.46182e+07	-80.2431	0.0000000E+000	0.0000000E+000	0.0000000E+000	80.2431	0.0000000E+000	0.0000000E+000	0.0000000E+000	-80.2431	0.0000000E+000	0.0000000E+000	0.0000000E+000	-9.75692	0.0000000E+000	0.0000000E+000	0.0000000E+000	9.75692	5.81545	80.2431	-2.60085e-05	-1.1259e-06	75306.5
0.0464052	36.9802	7.17994	37.6708	-10.9876	157.105	0.29118	-0.00340367	477675	17352.6	1	12	0.00484572	0.000128633	0	-0.000117709	0.0260591	0.00505955	0.0265458	10.9876	1.73526e+07	8.93745e+07	9.10435e+07	-79.0124	0.0000000E+000	0.0000000E+000	0.0000000E+000	79.0124	0.0000000E+000	0.0000000E+000	0.0000000E+000	-79.0124	0.0000000E+000	0.0000000E+000	0.0000000E+000	-10.9876	0.0000000E+000	0.0000000E+000	0.0000000E+000	10.9876	5.15049	79.0124	1.59225e-05	-9.91082e-07	85548.9
0.0315922	38.5775	8.21293	39.4421	-12.0185	223.666	0.291178	-0.00239929	613398	26596.2	1	12	0.00484764	0.000122905	0	-5.46694e-05	0.0247979	0.00527933	0.0253536	12.0185	2.65962e+07	1.24927e+08	1.27726e+08	-77.9815	0.0000000E+000	0.0000000E+000	0.0000000E+000	77.9815	0.0000000E+000	0.0000000E+000	0.0000000E+000	-77.9815	0.0000000E+000	0.0000000E+000	0.0000000E+000	-12.0185	0.0000000E+000	0.0000000E+000	0.0000000E+000	12.0185	4.69717	77.9815	6.30399e-05	-6.9862e-07	121360
0.0215268	40.3958	9.47902	41.493	-13.2058	321.334	0.291182	-0.00111607	779969	40705.6	1	12	0.00484532	0.000116774	0	3.32796e-05	0.0234631	0.00550571	0.0241004	13.2058	4.07056e+07	1.73471e+08	1.78183e+08	-76.7942	0.0000000E+000	0.0000000E+000	0.0000000E+000	76.7942	0.0000000E+000	0.0000000E+000	0.0000000E+000	-76.7942	0.0000000E+000	0.0000000E+000	0.0000000E+000	-13.2058	0.0000000E+000	0.0000000E+000	0.0000000E+000	13.2058	4.2616	76.7942	8.7949e-05	-3.24979e-07	260900
0.0146812	42.2562	11.3339	43.7498	-15.0144	464.529	0.291185	-0.00015461	956490	64192.7	1	12	0.00484625	0.000110772	0	8.16278e-05	0.0220769	0.00592143	0.0228572	15.0144	6.41927e+07	2.3933e+08	2.4779e+08	-74.9856	0.0000000E+000	0.0000000E+000	0.0000000E+000	74.9856	0.0000000E+000	0.0000000E+000	0.0000000E+000	-74.9856	0.0000000E+000	0.0000000E+000	0.0000000E+000	-15.0144	0.0000000E+000	0.0000000E+000	0.0000000E+000	15.0144	3.72831	74.9856	4.83481e-05	-4.50202e-08	1.88334e+06
0.0100092	43.9796	14.0182	46.1597	-17.6793	674.548	0.291181	0.000140496	1.13431e+06	104613	1	12	0.00484662	0.000104997	0	-1.93299e-05	0.0206408	0.00657908	0.0216639	17.6793	1.04613e+08	3.28207e+08	3.44476e+08	-72.3207	0.0000000E+000	0.0000000E+000	0.0000000E+000	72.3207	0.0000000E+000	0.0000000E+000	0.0000000E+000	-72.3207	0.0000000E+000	0.0000000E+000	0.0000000E+000	-17.6793	0.0000000E+000	0.0000000E+000	0.0000000E+000	17.6793	3.13733	72.3207	-0.000100958	4.09097e-08	2.07253e+06