File: txt/17461_R277_UA655_SOC00_C03.mpt
EC-Lab ASCII FILE
Nb header lines : 63

Potentio Electrochemical Impedance Spectroscopy

Run on channel : 3 (SN 65921)
User :
CE vs. WE compliance from -10 V to 10 V
Electrode connection : standard
Potential control : Ewe
Ewe ctrl range : min = -10.00 V, max = 10.00 V
Safety Limits :
	Do not start on E overload
Acquisition started on : 09/12/2025 09:48:42.600
Loaded Setting File :  C:\Users\Celltest\OneDrive - store-dot.com\Documents\EC-Lab\Data\Charmaine\R279\17382_C01.mpr
Saved on :
	File : 17461_C03.mpr
	Directory : C:\Users\Celltest\OneDrive - store-dot.com\Documents\EC-Lab\Data\Gyutae\R277\
	Host : 169.254.61.224
Device : VMP-3e (SN .003165)
Address : USB
EC-LAB for windows v11.62 (software)
Internet server v27.00 (firmware)
Command interpretor v12.03 (firmware)
Electrode material :
Initial state :
Electrolyte :
Comments :
Electrode surface area : 0.001 cm²
Characteristic mass : 0.001 g
Equivalent Weight : 0.000 g/eq.
Density : 0.000 g/cm3
Volume (V) : 0.001 cm³
Cycle Definition : Charge/Discharge alternance
Mode                Single sine
E (V)               0.0000
vs.                 Eoc
tE (h:m:s)          0:00:0.0000
record              0
dI                  0.000
unit dI             mA
dt (s)              0.000
fi                  100.000
unit fi             kHz
ff                  10.000
unit ff             mHz
Nd                  6
Points              per decade
spacing             Logarithmic
Va (mV)             5.0
pw                  0.10
Na                  2
corr                0
E range min (V)     -10.000
E range max (V)     10.000
I Range             Auto
Bandwidth           5
nc cycles           0
goto Ns'            0
nr cycles           0
inc. cycle          0

freq/Hz	Re(Z)/Ohm	-Im(Z)/Ohm	|Z|/Ohm	Phase(Z)/deg	time/s	<Ewe>/V	<I>/mA	Cs/µF	Cp/µF	cycle number	I Range	|Ewe|/V	|I|/A	Ns	(Q-Qo)/mA.h	Re(Y)/Ohm-1	Im(Y)/Ohm-1	|Y|/Ohm-1	Phase(Y)/deg	Re(C)/nF	Im(C)/nF	|C|/nF	Phase(C)/deg	Re(M)	Im(M)	|M|	Phase(M)/deg	Re(Permittivity)	Im(Permittivity)	|Permittivity|	Phase(Permittivity)/deg	Re(Resistivity)/Ohm.cm	Im(Resistivity)/Ohm.cm	|Resistivity|/Ohm.cm	Phase(Resistivity)/deg	Re(Conductivity)/mS/cm	Im(Conductivity)/mS/cm	|Conductivity|/mS/cm	Phase(Conductivity)/deg	Tan(Delta)	Loss Angle(Delta)/deg	dq/mA.h	Pwe/W	Rwe/Ohm
100004	1.3054	0.275819	1.33422	-11.9306	1.86548	0.274733	-0.00847202	5.77005	0.246589	1	9	0.00457442	0.00342853	0	-1.45941e-05	0.733311	0.154942	0.749501	11.9306	246.589	1167.06	1192.82	-78.0694	0.0000000E+000	0.0000000E+000	0.0000000E+000	78.0694	0.0000000E+000	0.0000000E+000	0.0000000E+000	-78.0694	0.0000000E+000	0.0000000E+000	0.0000000E+000	-11.9306	0.0000000E+000	0.0000000E+000	0.0000000E+000	11.9306	4.73281	78.0694	-1.45941e-05	-2.32754e-06	32428.2
68132	1.37207	0.30112	1.40472	-12.3782	2.30249	0.274748	0.000347893	7.75764	0.356475	1	9	0.00549279	0.00391024	0	-1.28565e-05	0.695338	0.152602	0.711886	12.3782	356.475	1624.29	1662.95	-77.6218	0.0000000E+000	0.0000000E+000	0.0000000E+000	77.6218	0.0000000E+000	0.0000000E+000	0.0000000E+000	-77.6218	0.0000000E+000	0.0000000E+000	0.0000000E+000	-12.3782	0.0000000E+000	0.0000000E+000	0.0000000E+000	12.3782	4.55654	77.6218	1.73755e-06	9.55827e-08	789748
46420.4	1.44654	0.330144	1.48374	-12.8564	2.8805	0.274746	-0.00794991	10.3851	0.514162	1	9	0.00502751	0.0033884	0	-2.92912e-06	0.657077	0.149964	0.673973	12.8564	514.162	2252.83	2310.76	-77.1436	0.0000000E+000	0.0000000E+000	0.0000000E+000	77.1436	0.0000000E+000	0.0000000E+000	0.0000000E+000	-77.1436	0.0000000E+000	0.0000000E+000	0.0000000E+000	-12.8564	0.0000000E+000	0.0000000E+000	0.0000000E+000	12.8564	4.38155	77.1436	9.92741e-06	-2.1842e-06	34559.6
31621.1	1.52229	0.367263	1.56597	-13.5638	3.31748	0.274713	-0.00420191	13.7046	0.753794	1	9	0.00548102	0.00350008	0	7.99519e-07	0.620771	0.149765	0.638582	13.5638	753.794	3124.46	3214.1	-76.4362	0.0000000E+000	0.0000000E+000	0.0000000E+000	76.4362	0.0000000E+000	0.0000000E+000	0.0000000E+000	-76.4362	0.0000000E+000	0.0000000E+000	0.0000000E+000	-13.5638	0.0000000E+000	0.0000000E+000	0.0000000E+000	13.5638	4.14497	76.4362	3.72864e-06	-1.15432e-06	65378.1
21544.7	1.60797	0.410614	1.65957	-14.325	3.7545	0.274735	0.00346192	17.9906	1.10134	1	9	0.00532328	0.00320763	0	-1.21488e-06	0.583831	0.149088	0.602566	14.325	1101.34	4312.88	4451.28	-75.675	0.0000000E+000	0.0000000E+000	0.0000000E+000	75.675	0.0000000E+000	0.0000000E+000	0.0000000E+000	-75.675	0.0000000E+000	0.0000000E+000	0.0000000E+000	-14.325	0.0000000E+000	0.0000000E+000	0.0000000E+000	14.325	3.91601	75.675	-2.0144e-06	9.51111e-07	79359.2
14678.6	1.70418	0.460205	1.76523	-15.112	4.19149	0.274738	-0.000472553	23.5605	1.60135	1	9	0.00515483	0.00292021	0	-5.00664e-06	0.546909	0.14769	0.5665	15.112	1601.35	5929.95	6142.36	-74.888	0.0000000E+000	0.0000000E+000	0.0000000E+000	74.888	0.0000000E+000	0.0000000E+000	0.0000000E+000	-74.888	0.0000000E+000	0.0000000E+000	0.0000000E+000	-15.112	0.0000000E+000	0.0000000E+000	0.0000000E+000	15.112	3.70309	74.888	-3.79176e-06	-1.29828e-07	581390
10002.2	1.80803	0.516763	1.88043	-15.9507	4.62848	0.274747	0.00955941	30.7916	2.3254	1	9	0.0051061	0.00271538	0	-5.0171e-06	0.511317	0.146142	0.531792	15.9507	2325.4	8136.06	8461.85	-74.0493	0.0000000E+000	0.0000000E+000	0.0000000E+000	74.0493	0.0000000E+000	0.0000000E+000	0.0000000E+000	-74.0493	0.0000000E+000	0.0000000E+000	0.0000000E+000	-15.9507	0.0000000E+000	0.0000000E+000	0.0000000E+000	15.9507	3.49877	74.0493	-1.04657e-08	2.62642e-06	28741
6811.07	1.92941	0.584936	2.01613	-16.8656	5.00651	0.274671	-0.0232216	39.9481	3.3626	1	9	0.00523251	0.00259532	0	-4.84772e-06	0.474665	0.143903	0.495999	16.8656	3362.6	11091.5	11590.1	-73.1344	0.0000000E+000	0.0000000E+000	0.0000000E+000	73.1344	0.0000000E+000	0.0000000E+000	0.0000000E+000	-73.1344	0.0000000E+000	0.0000000E+000	0.0000000E+000	-16.8656	0.0000000E+000	0.0000000E+000	0.0000000E+000	16.8656	3.2985	73.1344	1.69389e-07	-6.37832e-06	11828.2
4641.49	2.06415	0.659412	2.16692	-17.7166	5.47771	0.274758	0.0248871	52.0004	4.81543	1	9	0.00520656	0.00240275	0	9.87113e-08	0.439599	0.140434	0.461485	17.7166	4815.43	15073.7	15824.2	-72.2834	0.0000000E+000	0.0000000E+000	0.0000000E+000	72.2834	0.0000000E+000	0.0000000E+000	0.0000000E+000	-72.2834	0.0000000E+000	0.0000000E+000	0.0000000E+000	-17.7166	0.0000000E+000	0.0000000E+000	0.0000000E+000	17.7166	3.13029	72.2834	4.94643e-06	6.83793e-06	11040.2
3161.01	2.22363	0.758254	2.34936	-18.8293	5.94467	0.274745	0.024943	66.4017	6.9169	1	9	0.00515746	0.00219527	0	1.8979e-06	0.40287	0.137378	0.425649	18.8293	6916.9	20284.2	21431.1	-71.1707	0.0000000E+000	0.0000000E+000	0.0000000E+000	71.1707	0.0000000E+000	0.0000000E+000	0.0000000E+000	-71.1707	0.0000000E+000	0.0000000E+000	0.0000000E+000	-18.8293	0.0000000E+000	0.0000000E+000	0.0000000E+000	18.8293	2.93256	71.1707	1.79919e-06	6.85297e-06	11014.9
2155.69	2.40163	0.865001	2.55265	-19.8077	6.4117	0.274764	0.0250362	85.3527	9.80092	1	9	0.00509893	0.0019975	0	6.61437e-06	0.368572	0.13275	0.391749	19.8077	9800.92	27211.7	28922.9	-70.1924	0.0000000E+000	0.0000000E+000	0.0000000E+000	70.1924	0.0000000E+000	0.0000000E+000	0.0000000E+000	-70.1924	0.0000000E+000	0.0000000E+000	0.0000000E+000	-19.8077	0.0000000E+000	0.0000000E+000	0.0000000E+000	19.8077	2.77644	70.1924	4.71646e-06	6.87904e-06	10974.7
1468.59	2.61582	0.97996	2.79335	-20.5374	6.87895	0.274764	0.0260058	110.589	13.6106	1	9	0.00505756	0.00181057	0	9.53108e-06	0.33524	0.12559	0.357993	20.5374	13610.6	36330.8	38796.6	-69.4626	0.0000000E+000	0.0000000E+000	0.0000000E+000	69.4626	0.0000000E+000	0.0000000E+000	0.0000000E+000	-69.4626	0.0000000E+000	0.0000000E+000	0.0000000E+000	-20.5374	0.0000000E+000	0.0000000E+000	0.0000000E+000	20.5374	2.66931	69.4626	2.91672e-06	7.14546e-06	10565.5
1000.32	2.85421	1.11002	3.06246	-21.2515	7.3477	0.274754	0.0281502	143.334	18.831	1	9	0.00502894	0.00164213	0	1.25442e-05	0.30433	0.118357	0.326535	21.2515	18831	48420.2	51953	-68.7485	0.0000000E+000	0.0000000E+000	0.0000000E+000	68.7485	0.0000000E+000	0.0000000E+000	0.0000000E+000	-68.7485	0.0000000E+000	0.0000000E+000	0.0000000E+000	-21.2515	0.0000000E+000	0.0000000E+000	0.0000000E+000	21.2515	2.5713	68.7485	3.01314e-06	7.73437e-06	9760.27
681.09	3.11504	1.24335	3.35401	-21.7592	8.06743	0.274757	-0.0274452	187.941	25.8275	1	10	0.00507179	0.00151216	0	1.05575e-05	0.276907	0.110526	0.298151	21.7592	25827.5	64706.9	69670.9	-68.2408	0.0000000E+000	0.0000000E+000	0.0000000E+000	68.2408	0.0000000E+000	0.0000000E+000	0.0000000E+000	-68.2408	0.0000000E+000	0.0000000E+000	0.0000000E+000	-21.7592	0.0000000E+000	0.0000000E+000	0.0000000E+000	21.7592	2.50535	68.2408	-1.98676e-06	-7.54076e-06	10011.1
463.961	3.42447	1.39136	3.69633	-22.1118	8.53619	0.274759	-0.0269903	246.547	34.933	1	10	0.00503685	0.00136266	0	7.89027e-06	0.250641	0.101835	0.270539	22.1118	34933	85978.6	92804.3	-67.8882	0.0000000E+000	0.0000000E+000	0.0000000E+000	67.8882	0.0000000E+000	0.0000000E+000	0.0000000E+000	-67.8882	0.0000000E+000	0.0000000E+000	0.0000000E+000	-22.1118	0.0000000E+000	0.0000000E+000	0.0000000E+000	22.1118	2.46124	67.8882	-2.6672e-06	-7.41582e-06	10179.9
316.316	3.77187	1.55876	4.08127	-22.4533	9.00294	0.274754	-0.0260319	322.79	47.0856	1	10	0.00501046	0.00122767	0	4.80341e-06	0.226447	0.0935812	0.245022	22.4533	47085.6	113937	123283	-67.5467	0.0000000E+000	0.0000000E+000	0.0000000E+000	67.5467	0.0000000E+000	0.0000000E+000	0.0000000E+000	-67.5467	0.0000000E+000	0.0000000E+000	0.0000000E+000	-22.4533	0.0000000E+000	0.0000000E+000	0.0000000E+000	22.4533	2.41979	67.5467	-3.08686e-06	-7.15238e-06	10554.5
215.345	4.18095	1.72816	4.52403	-22.4573	9.47041	0.274753	-0.0259872	427.665	62.4048	1	10	0.00499203	0.00110345	0	8.03744e-07	0.204279	0.0844368	0.221042	22.4573	62404.8	150977	163366	-67.5427	0.0000000E+000	0.0000000E+000	0.0000000E+000	67.5427	0.0000000E+000	0.0000000E+000	0.0000000E+000	-67.5427	0.0000000E+000	0.0000000E+000	0.0000000E+000	-22.4573	0.0000000E+000	0.0000000E+000	0.0000000E+000	22.4573	2.41931	67.5427	-3.99967e-06	-7.14005e-06	10572.6
146.737	4.65075	1.90514	5.02583	-22.276	9.93339	0.274758	-0.0242328	569.315	81.8068	1	10	0.00498379	0.000991634	0	-2.13484e-06	0.184122	0.0754241	0.198972	22.276	81806.8	199704	215810	-67.724	0.0000000E+000	0.0000000E+000	0.0000000E+000	67.724	0.0000000E+000	0.0000000E+000	0.0000000E+000	-67.724	0.0000000E+000	0.0000000E+000	0.0000000E+000	-22.276	0.0000000E+000	0.0000000E+000	0.0000000E+000	22.276	2.44116	67.724	-2.93858e-06	-6.65815e-06	11338.3
100.032	5.1949	2.04725	5.58375	-21.5088	10.4017	0.27476	-0.0242663	777.159	104.472	1	10	0.00497728	0.000891387	0	-4.88543e-06	0.166619	0.0656628	0.179091	21.5088	104472	265098	284941	-68.4912	0.0000000E+000	0.0000000E+000	0.0000000E+000	68.4912	0.0000000E+000	0.0000000E+000	0.0000000E+000	-68.4912	0.0000000E+000	0.0000000E+000	0.0000000E+000	-21.5088	0.0000000E+000	0.0000000E+000	0.0000000E+000	21.5088	2.5375	68.4912	-2.75059e-06	-6.66741e-06	11322.7
68.104	5.79623	2.11357	6.16956	-20.0342	10.8803	0.274761	-0.0230321	1105.68	129.765	1	10	0.00496832	0.000805296	0	-7.62301e-06	0.152278	0.0555277	0.162086	20.0342	129765	355865	378786	-69.9658	0.0000000E+000	0.0000000E+000	0.0000000E+000	69.9658	0.0000000E+000	0.0000000E+000	0.0000000E+000	-69.9658	0.0000000E+000	0.0000000E+000	0.0000000E+000	-20.0342	0.0000000E+000	0.0000000E+000	0.0000000E+000	20.0342	2.74238	69.9658	-2.73758e-06	-6.32831e-06	11929.5
46.4415	6.41626	2.10045	6.75131	-18.1266	11.3356	0.274752	-0.0244546	1631.55	157.924	1	10	0.00496701	0.00073571	0	-1.08936e-05	0.140768	0.0460824	0.148119	18.1266	157924	482413	507604	-71.8734	0.0000000E+000	0.0000000E+000	0.0000000E+000	71.8734	0.0000000E+000	0.0000000E+000	0.0000000E+000	-71.8734	0.0000000E+000	0.0000000E+000	0.0000000E+000	-18.1266	0.0000000E+000	0.0000000E+000	0.0000000E+000	18.1266	3.05471	71.8734	-3.2706e-06	-6.71896e-06	11235.2
31.6296	7.02059	1.99269	7.29791	-15.8458	11.7824	0.274746	-0.0251855	2525.15	188.265	1	10	0.00497477	0.00068167	0	-1.37861e-05	0.131819	0.0374148	0.137026	15.8458	188265	663290	689491	-74.1542	0.0000000E+000	0.0000000E+000	0.0000000E+000	74.1542	0.0000000E+000	0.0000000E+000	0.0000000E+000	-74.1542	0.0000000E+000	0.0000000E+000	0.0000000E+000	-15.8458	0.0000000E+000	0.0000000E+000	0.0000000E+000	15.8458	3.52317	74.1542	-2.8925e-06	-6.91963e-06	10908.9
21.5517	7.53691	1.81638	7.75269	-13.5497	12.2213	0.274753	-0.0260133	4065.67	223.171	1	10	0.00496818	0.000640833	0	-1.88518e-05	0.125397	0.0302204	0.128987	13.5497	223171	926033	952545	-76.4502	0.0000000E+000	0.0000000E+000	0.0000000E+000	76.4502	0.0000000E+000	0.0000000E+000	0.0000000E+000	-76.4502	0.0000000E+000	0.0000000E+000	0.0000000E+000	-13.5497	0.0000000E+000	0.0000000E+000	0.0000000E+000	13.5497	4.14942	76.4502	-5.06574e-06	-7.14723e-06	10562
14.6852	7.98074	1.61787	8.14308	-11.4598	12.6991	0.274753	-0.0214939	6698.81	264.428	1	10	0.00497167	0.000610539	0	-2.12968e-05	0.120356	0.0243987	0.122804	11.4598	264428	1.30439e+06	1.33092e+06	-78.5402	0.0000000E+000	0.0000000E+000	0.0000000E+000	78.5402	0.0000000E+000	0.0000000E+000	0.0000000E+000	-78.5402	0.0000000E+000	0.0000000E+000	0.0000000E+000	-11.4598	0.0000000E+000	0.0000000E+000	0.0000000E+000	11.4598	4.93287	78.5402	-2.44495e-06	-5.90552e-06	12782.8
10.0032	8.34128	1.43397	8.46364	-9.75454	13.1677	0.274756	-0.0224131	11095.3	318.499	1	10	0.00496896	0.000587095	0	-2.01728e-05	0.116444	0.0200183	0.118152	9.75454	318499	1.85268e+06	1.87985e+06	-80.2455	0.0000000E+000	0.0000000E+000	0.0000000E+000	80.2455	0.0000000E+000	0.0000000E+000	0.0000000E+000	-80.2455	0.0000000E+000	0.0000000E+000	0.0000000E+000	-9.75454	0.0000000E+000	0.0000000E+000	0.0000000E+000	9.75454	5.8169	80.2455	1.12395e-06	-6.15813e-06	12258.7
6.81719	8.65636	1.25209	8.74645	-8.23041	13.5254	0.274724	-0.0313177	18645.7	382.109	1	10	0.00496989	0.000568218	0	-2.62695e-05	0.113155	0.0163671	0.114332	8.23041	382109	2.64172e+06	2.66921e+06	-81.7696	0.0000000E+000	0.0000000E+000	0.0000000E+000	81.7696	0.0000000E+000	0.0000000E+000	0.0000000E+000	-81.7696	0.0000000E+000	0.0000000E+000	0.0000000E+000	-8.23041	0.0000000E+000	0.0000000E+000	0.0000000E+000	8.23041	6.91353	81.7696	-6.09671e-06	-8.60371e-06	8772.18
4.63925	8.92479	1.09345	8.99152	-6.98495	14.2973	0.274761	-0.0225025	31374.3	463.984	1	11	0.0049697	0.00055271	0	-2.89275e-05	0.11039	0.0135248	0.111216	6.98495	463984	3.78707e+06	3.81539e+06	-83.0151	0.0000000E+000	0.0000000E+000	0.0000000E+000	83.0151	0.0000000E+000	0.0000000E+000	0.0000000E+000	-83.0151	0.0000000E+000	0.0000000E+000	0.0000000E+000	-6.98495	0.0000000E+000	0.0000000E+000	0.0000000E+000	6.98495	8.16207	83.0151	-2.658e-06	-6.18279e-06	12210.2
3.1604	9.14759	0.953821	9.19718	-5.95273	15.0062	0.274774	-0.0207228	52797.3	567.853	1	11	0.00496744	0.000540105	0	-3.98254e-05	0.108143	0.0112761	0.108729	5.95273	567853	5.44598e+06	5.4755e+06	-84.0473	0.0000000E+000	0.0000000E+000	0.0000000E+000	84.0473	0.0000000E+000	0.0000000E+000	0.0000000E+000	-84.0473	0.0000000E+000	0.0000000E+000	0.0000000E+000	-5.95273	0.0000000E+000	0.0000000E+000	0.0000000E+000	5.95273	9.59047	84.0473	-1.08979e-05	-5.69407e-06	13259.5
2.15577	9.32199	0.861021	9.36167	-5.27713	16.0218	0.274773	-0.0214353	85744.1	725.313	1	11	0.0049695	0.000530835	0	-3.96265e-05	0.106366	0.00982443	0.106819	5.27713	725313	7.85273e+06	7.88615e+06	-84.7229	0.0000000E+000	0.0000000E+000	0.0000000E+000	84.7229	0.0000000E+000	0.0000000E+000	0.0000000E+000	-84.7229	0.0000000E+000	0.0000000E+000	0.0000000E+000	-5.27713	0.0000000E+000	0.0000000E+000	0.0000000E+000	5.27713	10.8267	84.7229	1.98864e-07	-5.88985e-06	12818.7
1.46631	9.46329	0.791245	9.49631	-4.7795	17.495	0.274774	-0.020295	137178	952.347	1	11	0.00497327	0.000523705	0	-3.40007e-05	0.104938	0.00877407	0.105304	4.7795	952346	1.13901e+07	1.14298e+07	-85.2205	0.0000000E+000	0.0000000E+000	0.0000000E+000	85.2205	0.0000000E+000	0.0000000E+000	0.0000000E+000	-85.2205	0.0000000E+000	0.0000000E+000	0.0000000E+000	-4.7795	0.0000000E+000	0.0000000E+000	0.0000000E+000	4.7795	11.96	85.2205	5.62582e-06	-5.57652e-06	13539
1.00006	9.60332	0.76215	9.63351	-4.53767	19.6351	0.27478	-0.0164085	208810	1306.96	1	11	0.00496878	0.000515781	0	-3.55547e-05	0.103479	0.00821242	0.103804	4.53767	1.30696e+06	1.64681e+07	1.65199e+07	-85.4623	0.0000000E+000	0.0000000E+000	0.0000000E+000	85.4623	0.0000000E+000	0.0000000E+000	0.0000000E+000	-85.4623	0.0000000E+000	0.0000000E+000	0.0000000E+000	-4.53767	0.0000000E+000	0.0000000E+000	0.0000000E+000	4.53767	12.6003	85.4623	-1.55394e-06	-4.50872e-06	16746.2
0.681362	9.72288	0.789889	9.75491	-4.64452	22.755	0.27478	-0.0135338	295717	1938.93	1	11	0.00496904	0.000509389	0	-5.41911e-05	0.102176	0.00830079	0.102512	4.64452	1.93893e+06	2.38666e+07	2.39452e+07	-85.3555	0.0000000E+000	0.0000000E+000	0.0000000E+000	85.3555	0.0000000E+000	0.0000000E+000	0.0000000E+000	-85.3555	0.0000000E+000	0.0000000E+000	0.0000000E+000	-4.64452	0.0000000E+000	0.0000000E+000	0.0000000E+000	4.64452	12.3092	85.3555	-1.86364e-05	-3.71881e-06	20303.2
0.464091	9.8406	0.865011	9.87854	-5.02352	27.3198	0.274781	-0.010841	396456	3039.86	1	11	0.00497461	0.000503577	0	-9.85242e-05	0.100841	0.00886413	0.10123	5.02352	3.03986e+06	3.45822e+07	3.47156e+07	-84.9765	0.0000000E+000	0.0000000E+000	0.0000000E+000	84.9765	0.0000000E+000	0.0000000E+000	0.0000000E+000	-84.9765	0.0000000E+000	0.0000000E+000	0.0000000E+000	-5.02352	0.0000000E+000	0.0000000E+000	0.0000000E+000	5.02352	11.3763	84.9765	-4.43331e-05	-2.97891e-06	25346.4
0.316193	9.98469	0.98392	10.033	-5.62792	34.0021	0.274781	-0.00995374	511573	4919.96	1	11	0.00496988	0.000495351	0	-0.000162688	0.0991902	0.00977449	0.0996706	5.62792	4.91996e+06	4.99271e+07	5.01689e+07	-84.3721	0.0000000E+000	0.0000000E+000	0.0000000E+000	84.3721	0.0000000E+000	0.0000000E+000	0.0000000E+000	-84.3721	0.0000000E+000	0.0000000E+000	0.0000000E+000	-5.62792	0.0000000E+000	0.0000000E+000	0.0000000E+000	5.62792	10.1479	84.3721	-6.4164e-05	-2.7351e-06	27605.8
0.215268	10.1721	1.19808	10.2424	-6.71736	43.7998	0.274773	-0.0113719	617102	8443.42	1	11	0.00497711	0.00048593	0	-0.000228716	0.0969627	0.0114203	0.097633	6.71736	8.44342e+06	7.16879e+07	7.21834e+07	-83.2826	0.0000000E+000	0.0000000E+000	0.0000000E+000	83.2826	0.0000000E+000	0.0000000E+000	0.0000000E+000	-83.2826	0.0000000E+000	0.0000000E+000	0.0000000E+000	-6.71736	0.0000000E+000	0.0000000E+000	0.0000000E+000	6.71736	8.49039	83.2826	-6.60273e-05	-3.1247e-06	24162.4
0.146929	10.3794	1.51269	10.4891	-8.29188	58.1354	0.274777	-0.0112441	716081	14893.2	1	11	0.0049755	0.00047435	0	-0.000262867	0.0943405	0.0137491	0.0953371	8.29188	1.48932e+07	1.02191e+08	1.0327e+08	-81.7081	0.0000000E+000	0.0000000E+000	0.0000000E+000	81.7081	0.0000000E+000	0.0000000E+000	0.0000000E+000	-81.7081	0.0000000E+000	0.0000000E+000	0.0000000E+000	-8.29188	0.0000000E+000	0.0000000E+000	0.0000000E+000	8.29188	6.86156	81.7081	-3.41513e-05	-3.08963e-06	24437.4
0.0999041	10.6064	1.91801	10.7785	-10.2503	79.2052	0.274771	-0.00994704	830589	26301.1	1	11	0.00497294	0.000461377	0	-0.000228757	0.0912968	0.0165096	0.0927776	10.2503	2.63011e+07	1.45443e+08	1.47802e+08	-79.7497	0.0000000E+000	0.0000000E+000	0.0000000E+000	79.7497	0.0000000E+000	0.0000000E+000	0.0000000E+000	-79.7497	0.0000000E+000	0.0000000E+000	0.0000000E+000	-10.2503	0.0000000E+000	0.0000000E+000	0.0000000E+000	10.2503	5.52992	79.7497	3.411e-05	-2.73316e-06	27623.4
0.0680626	10.8976	2.41382	11.1617	-12.4894	110.117	0.274766	-0.0072323	968737	45305.8	1	11	0.00497589	0.000445799	0	-0.000118651	0.0874717	0.019375	0.0895918	12.4894	4.53058e+07	2.0454e+08	2.09498e+08	-77.5106	0.0000000E+000	0.0000000E+000	0.0000000E+000	77.5106	0.0000000E+000	0.0000000E+000	0.0000000E+000	-77.5106	0.0000000E+000	0.0000000E+000	0.0000000E+000	-12.4894	0.0000000E+000	0.0000000E+000	0.0000000E+000	12.4894	4.51466	77.5106	0.000110106	-1.98719e-06	37991.5
0.0464052	11.3287	3.02059	11.7245	-14.9296	155.441	0.274783	-0.00141642	1.13543e+06	75363.2	1	11	0.00497794	0.000424577	0	8.01866e-05	0.0824126	0.0219738	0.0852918	14.9296	7.53632e+07	2.82649e+08	2.92523e+08	-75.0704	0.0000000E+000	0.0000000E+000	0.0000000E+000	75.0704	0.0000000E+000	0.0000000E+000	0.0000000E+000	-75.0704	0.0000000E+000	0.0000000E+000	0.0000000E+000	-14.9296	0.0000000E+000	0.0000000E+000	0.0000000E+000	14.9296	3.75049	75.0704	0.000198838	-3.89207e-07	193998
0.0315922	11.8219	3.97116	12.4711	-18.568	222.002	0.274768	-8.78021e-05	1.26859e+06	128632	1	11	0.00497281	0.000398747	0	0.000201082	0.0760114	0.0255334	0.0801854	18.568	1.28632e+08	3.8293e+08	4.03957e+08	-71.432	0.0000000E+000	0.0000000E+000	0.0000000E+000	71.432	0.0000000E+000	0.0000000E+000	0.0000000E+000	-71.432	0.0000000E+000	0.0000000E+000	0.0000000E+000	-18.568	0.0000000E+000	0.0000000E+000	0.0000000E+000	18.568	2.97695	71.432	0.000120895	-2.41252e-08	3.1294e+06
0.0215268	12.3011	5.25217	13.3755	-23.1208	319.671	0.274767	0.000721041	1.40767e+06	217051	1	11	0.00497253	0.000371765	0	2.76547e-05	0.0687585	0.0293576	0.0747637	23.1208	2.17051e+08	5.08356e+08	5.52754e+08	-66.8791	0.0000000E+000	0.0000000E+000	0.0000000E+000	66.8791	0.0000000E+000	0.0000000E+000	0.0000000E+000	-66.8791	0.0000000E+000	0.0000000E+000	0.0000000E+000	-23.1208	0.0000000E+000	0.0000000E+000	0.0000000E+000	23.1208	2.34211	66.8791	-0.000173427	1.98118e-07	381070
0.0146812	12.8903	6.84919	14.597	-27.9836	462.865	0.274759	0.000187515	1.58278e+06	348475	1	11	0.00497411	0.000340763	0	-0.000589613	0.0604975	0.0321449	0.0685072	27.9836	3.48475e+08	6.55838e+08	7.4267e+08	-62.0164	0.0000000E+000	0.0000000E+000	0.0000000E+000	62.0164	0.0000000E+000	0.0000000E+000	0.0000000E+000	-62.0164	0.0000000E+000	0.0000000E+000	0.0000000E+000	-27.9836	0.0000000E+000	0.0000000E+000	0.0000000E+000	27.9836	1.88202	62.0164	-0.000617267	5.15214e-08	1.46527e+06
0.0100092	13.7853	9.13868	16.5393	-33.5416	772.96	0.274772	-0.000922872	1.73996e+06	531213	1	12	0.00497309	0.000300683	0	-0.00152404	0.0503941	0.0334077	0.0604619	33.5416	5.31213e+08	8.01312e+08	9.61399e+08	-56.4584	0.0000000E+000	0.0000000E+000	0.0000000E+000	56.4584	0.0000000E+000	0.0000000E+000	0.0000000E+000	-56.4584	0.0000000E+000	0.0000000E+000	0.0000000E+000	-33.5416	0.0000000E+000	0.0000000E+000	0.0000000E+000	33.5416	1.50846	56.4584	-0.00093443	-2.5358e-07	297736