File: txt/17467_C08.mpt
EC-Lab ASCII FILE
Nb header lines : 64

Potentio Electrochemical Impedance Spectroscopy

Run on channel : 8 (SN 65398)
User :
CE vs. WE compliance from -10 V to 10 V
Electrode connection : standard
Potential control : Ewe
Ewe ctrl range : min = -10.00 V, max = 10.00 V
Safety Limits :
	Do not start on E overload
Acquisition started on : 09/12/2025 10:01:20.182
Technique started on : 09/12/2025 10:01:22.206
Loaded Setting File :  C:\Users\Celltest\OneDrive - store-dot.com\Documents\EC-Lab\Data\Charmaine\R279\17383_C02.mpr
Saved on :
	File : 17467_C08.mpr
	Directory : C:\Users\Celltest\OneDrive - store-dot.com\Documents\EC-Lab\Data\Gyutae\R277\
	Host : 169.254.61.224
Device : VMP-3e (SN .003165)
Address : USB
EC-LAB for windows v11.62 (software)
Internet server v27.00 (firmware)
Command interpretor v12.03 (firmware)
Electrode material :
Initial state :
Electrolyte :
Comments :
Electrode surface area : 0.001 cm²
Characteristic mass : 0.001 g
Equivalent Weight : 0.000 g/eq.
Density : 0.000 g/cm3
Volume (V) : 0.001 cm³
Cycle Definition : Charge/Discharge alternance
Mode                Single sine
E (V)               0.0000
vs.                 Eoc
tE (h:m:s)          0:00:0.0000
record              0
dI                  0.000
unit dI             mA
dt (s)              0.000
fi                  100.000
unit fi             kHz
ff                  10.000
unit ff             mHz
Nd                  6
Points              per decade
spacing             Logarithmic
Va (mV)             5.0
pw                  0.10
Na                  2
corr                0
E range min (V)     -10.000
E range max (V)     10.000
I Range             Auto
Bandwidth           5
nc cycles           0
goto Ns'            0
nr cycles           0
inc. cycle          0

freq/Hz	Re(Z)/Ohm	-Im(Z)/Ohm	|Z|/Ohm	Phase(Z)/deg	time/s	<Ewe>/V	<I>/mA	Cs/µF	Cp/µF	cycle number	I Range	|Ewe|/V	|I|/A	Ns	(Q-Qo)/mA.h	Re(Y)/Ohm-1	Im(Y)/Ohm-1	|Y|/Ohm-1	Phase(Y)/deg	Re(C)/nF	Im(C)/nF	|C|/nF	Phase(C)/deg	Re(M)	Im(M)	|M|	Phase(M)/deg	Re(Permittivity)	Im(Permittivity)	|Permittivity|	Phase(Permittivity)/deg	Re(Resistivity)/Ohm.cm	Im(Resistivity)/Ohm.cm	|Resistivity|/Ohm.cm	Phase(Resistivity)/deg	Re(Conductivity)/mS/cm	Im(Conductivity)/mS/cm	|Conductivity|/mS/cm	Phase(Conductivity)/deg	Tan(Delta)	Loss Angle(Delta)/deg	dq/mA.h	Pwe/W	Rwe/Ohm
100004	1.82463	0.341054	1.85623	-10.5874	2.0245	0.276844	0.00660581	4.66639	0.157531	1	9	0.00491564	0.00264819	0	-5.43235e-06	0.529556	0.0989832	0.538727	10.5874	157.531	842.783	857.38	-79.4126	0.0000000E+000	0.0000000E+000	0.0000000E+000	79.4126	0.0000000E+000	0.0000000E+000	0.0000000E+000	-79.4126	0.0000000E+000	0.0000000E+000	0.0000000E+000	-10.5874	0.0000000E+000	0.0000000E+000	0.0000000E+000	10.5874	5.34996	79.4126	-5.43235e-06	1.82878e-06	41909.1
68132	1.91054	0.386566	1.94925	-11.4384	2.4615	0.276851	0.00880075	6.0429	0.23766	1	9	0.00539312	0.00276677	0	-2.81134e-06	0.502828	0.101739	0.513018	11.4384	237.66	1174.6	1198.4	-78.5616	0.0000000E+000	0.0000000E+000	0.0000000E+000	78.5616	0.0000000E+000	0.0000000E+000	0.0000000E+000	-78.5616	0.0000000E+000	0.0000000E+000	0.0000000E+000	-11.4384	0.0000000E+000	0.0000000E+000	0.0000000E+000	11.4384	4.94233	78.5616	2.62101e-06	2.4365e-06	31457.7
46420.4	1.99798	0.443138	2.04654	-12.5053	2.8985	0.27685	0.00774047	7.737	0.362754	1	9	0.00529157	0.00258562	0	2.74621e-06	0.477038	0.105803	0.48863	12.5053	362.754	1635.55	1675.3	-77.4947	0.0000000E+000	0.0000000E+000	0.0000000E+000	77.4947	0.0000000E+000	0.0000000E+000	0.0000000E+000	-77.4947	0.0000000E+000	0.0000000E+000	0.0000000E+000	-12.5053	0.0000000E+000	0.0000000E+000	0.0000000E+000	12.5053	4.50872	77.4947	5.55754e-06	2.14295e-06	35766.6
31621.1	2.10222	0.50482	2.16198	-13.5031	3.33648	0.276854	0.010605	9.97026	0.543593	1	9	0.00496684	0.00229735	0	2.62093e-06	0.449752	0.108002	0.462538	13.5031	543.593	2263.69	2328.04	-76.4969	0.0000000E+000	0.0000000E+000	0.0000000E+000	76.4969	0.0000000E+000	0.0000000E+000	0.0000000E+000	-76.4969	0.0000000E+000	0.0000000E+000	0.0000000E+000	-13.5031	0.0000000E+000	0.0000000E+000	0.0000000E+000	13.5031	4.1643	76.4969	-1.25271e-07	2.93605e-06	26105.9
21544.7	2.22903	0.572453	2.30136	-14.4033	3.77349	0.276858	0.0165388	12.9045	0.798454	1	9	0.00512423	0.00222661	0	5.70862e-06	0.420868	0.108086	0.434525	14.4033	798.454	3109.03	3209.93	-75.5967	0.0000000E+000	0.0000000E+000	0.0000000E+000	75.5967	0.0000000E+000	0.0000000E+000	0.0000000E+000	-75.5967	0.0000000E+000	0.0000000E+000	0.0000000E+000	-14.4033	0.0000000E+000	0.0000000E+000	0.0000000E+000	14.4033	3.89382	75.5967	3.08768e-06	4.57889e-06	16739.9
14678.6	2.35805	0.651498	2.44639	-15.4448	4.35148	0.276852	0.0131534	16.6427	1.18031	1	9	0.00553349	0.0022619	0	1.06359e-05	0.394004	0.108858	0.408765	15.4448	1180.31	4272.05	4432.1	-74.5552	0.0000000E+000	0.0000000E+000	0.0000000E+000	74.5552	0.0000000E+000	0.0000000E+000	0.0000000E+000	-74.5552	0.0000000E+000	0.0000000E+000	0.0000000E+000	-15.4448	0.0000000E+000	0.0000000E+000	0.0000000E+000	15.4448	3.61942	74.5552	4.92731e-06	3.64155e-06	21048
10002.2	2.49899	0.734862	2.6048	-16.3867	4.78849	0.276854	0.00612216	21.653	1.72338	1	9	0.0053731	0.00206277	0	1.28728e-05	0.368312	0.108307	0.383907	16.3867	1723.38	5860.57	6108.7	-73.6133	0.0000000E+000	0.0000000E+000	0.0000000E+000	73.6133	0.0000000E+000	0.0000000E+000	0.0000000E+000	-73.6133	0.0000000E+000	0.0000000E+000	0.0000000E+000	-16.3867	0.0000000E+000	0.0000000E+000	0.0000000E+000	16.3867	3.40063	73.6133	2.23692e-06	1.69495e-06	45221.7
6811.07	2.67091	0.841128	2.80022	-17.4804	5.34451	0.276842	-0.00589417	27.7807	2.50659	1	9	0.00514757	0.00183828	0	7.47133e-06	0.340623	0.10727	0.357115	17.4804	2506.59	7959.38	8344.74	-72.5196	0.0000000E+000	0.0000000E+000	0.0000000E+000	72.5196	0.0000000E+000	0.0000000E+000	0.0000000E+000	-72.5196	0.0000000E+000	0.0000000E+000	0.0000000E+000	-17.4804	0.0000000E+000	0.0000000E+000	0.0000000E+000	17.4804	3.17539	72.5196	-5.40151e-06	-1.63176e-06	46968.9
4641.49	2.86345	0.9571	3.01917	-18.4821	5.81569	0.276882	0.019701	35.8266	3.60036	1	9	0.00533465	0.00176693	0	1.12704e-05	0.314134	0.104998	0.331217	18.4821	3600.36	10771.5	11357.3	-71.5179	0.0000000E+000	0.0000000E+000	0.0000000E+000	71.5179	0.0000000E+000	0.0000000E+000	0.0000000E+000	-71.5179	0.0000000E+000	0.0000000E+000	0.0000000E+000	-18.4821	0.0000000E+000	0.0000000E+000	0.0000000E+000	18.4821	2.9918	71.5179	3.79909e-06	5.45484e-06	14054.2
3161.01	3.09576	1.09927	3.28514	-19.5494	6.28269	0.276878	0.0238118	45.8025	5.12853	1	9	0.00532738	0.00162166	0	1.35155e-05	0.286854	0.101859	0.304401	19.5494	5128.53	14442.9	15326.4	-70.4506	0.0000000E+000	0.0000000E+000	0.0000000E+000	70.4506	0.0000000E+000	0.0000000E+000	0.0000000E+000	-70.4506	0.0000000E+000	0.0000000E+000	0.0000000E+000	-19.5494	0.0000000E+000	0.0000000E+000	0.0000000E+000	19.5494	2.81619	70.4506	2.24513e-06	6.59296e-06	11627.8
2155.69	3.34404	1.26791	3.57634	-20.7644	6.74968	0.276876	0.0224167	58.23	7.31886	1	9	0.00527358	0.00147458	0	1.63963e-05	0.261453	0.099131	0.279616	20.7644	7318.86	19303.1	20644.1	-69.2356	0.0000000E+000	0.0000000E+000	0.0000000E+000	69.2356	0.0000000E+000	0.0000000E+000	0.0000000E+000	-69.2356	0.0000000E+000	0.0000000E+000	0.0000000E+000	-20.7644	0.0000000E+000	0.0000000E+000	0.0000000E+000	20.7644	2.63745	69.2356	2.88074e-06	6.20666e-06	12351.3
1468.59	3.64737	1.44194	3.92205	-21.5707	7.47096	0.27688	-0.0163936	75.1577	10.1587	1	10	0.00531744	0.00135578	0	1.6206e-05	0.237112	0.0937387	0.254969	21.5707	10158.7	25696.4	27631.6	-68.4293	0.0000000E+000	0.0000000E+000	0.0000000E+000	68.4293	0.0000000E+000	0.0000000E+000	0.0000000E+000	-68.4293	0.0000000E+000	0.0000000E+000	0.0000000E+000	-21.5707	0.0000000E+000	0.0000000E+000	0.0000000E+000	21.5707	2.5295	68.4293	-1.90325e-07	-4.53906e-06	16889.5
1000.32	3.97713	1.65475	4.30764	-22.5906	7.9397	0.27688	-0.0167805	96.1497	14.1885	1	10	0.00524999	0.00121876	0	1.31212e-05	0.214334	0.0891774	0.232146	22.5906	14188.5	34101.4	36935.3	-67.4094	0.0000000E+000	0.0000000E+000	0.0000000E+000	67.4094	0.0000000E+000	0.0000000E+000	0.0000000E+000	-67.4094	0.0000000E+000	0.0000000E+000	0.0000000E+000	-22.5906	0.0000000E+000	0.0000000E+000	0.0000000E+000	22.5906	2.40346	67.4094	-3.08479e-06	-4.64618e-06	16500.1
681.09	4.35988	1.89347	4.75329	-23.4751	8.40543	0.276882	-0.0167563	123.412	19.5833	1	10	0.00520582	0.0010952	0	1.0459e-05	0.192968	0.0838052	0.210381	23.4751	19583.3	45092.2	49161.1	-66.5249	0.0000000E+000	0.0000000E+000	0.0000000E+000	66.5249	0.0000000E+000	0.0000000E+000	0.0000000E+000	-66.5249	0.0000000E+000	0.0000000E+000	0.0000000E+000	-23.4751	0.0000000E+000	0.0000000E+000	0.0000000E+000	23.4751	2.30258	66.5249	-2.66218e-06	-4.63953e-06	16524
463.961	4.78943	2.1787	5.26169	-24.4607	8.87418	0.276879	-0.0163267	157.449	26.9952	1	10	0.00517133	0.000982828	0	8.61591e-06	0.172995	0.0786952	0.190053	24.4607	26995.2	59343.4	65195	-65.5393	0.0000000E+000	0.0000000E+000	0.0000000E+000	65.5393	0.0000000E+000	0.0000000E+000	0.0000000E+000	-65.5393	0.0000000E+000	0.0000000E+000	0.0000000E+000	-24.4607	0.0000000E+000	0.0000000E+000	0.0000000E+000	24.4607	2.19829	65.5393	-1.84309e-06	-4.52052e-06	16958.7
316.316	5.29656	2.52337	5.86694	-25.4739	9.34094	0.276883	-0.0169181	199.397	36.8857	1	10	0.00515248	0.000878223	0	6.08457e-06	0.153876	0.0733092	0.170447	25.4739	36885.7	77423	85760.6	-64.5261	0.0000000E+000	0.0000000E+000	0.0000000E+000	64.5261	0.0000000E+000	0.0000000E+000	0.0000000E+000	-64.5261	0.0000000E+000	0.0000000E+000	0.0000000E+000	-25.4739	0.0000000E+000	0.0000000E+000	0.0000000E+000	25.4739	2.099	64.5261	-2.53134e-06	-4.68435e-06	16366
215.345	5.91378	2.93472	6.60192	-26.3929	9.80843	0.276877	-0.0167303	251.837	49.7636	1	10	0.00513906	0.000778419	0	3.35613e-06	0.135683	0.0673326	0.151471	26.3929	49763.6	100279	111948	-63.6071	0.0000000E+000	0.0000000E+000	0.0000000E+000	63.6071	0.0000000E+000	0.0000000E+000	0.0000000E+000	-63.6071	0.0000000E+000	0.0000000E+000	0.0000000E+000	-26.3929	0.0000000E+000	0.0000000E+000	0.0000000E+000	26.3929	2.01511	63.6071	-2.72844e-06	-4.63224e-06	16549.5
146.737	6.66381	3.38255	7.47315	-26.9123	10.2714	0.276869	-0.0166615	320.653	65.6925	1	10	0.00513029	0.000686496	0	1.64101e-06	0.119321	0.0605671	0.133812	26.9123	65692.5	129418	145136	-63.0877	0.0000000E+000	0.0000000E+000	0.0000000E+000	63.0877	0.0000000E+000	0.0000000E+000	0.0000000E+000	-63.0877	0.0000000E+000	0.0000000E+000	0.0000000E+000	-26.9123	0.0000000E+000	0.0000000E+000	0.0000000E+000	26.9123	1.97006	63.0877	-1.71512e-06	-4.61305e-06	16617.3
100.032	7.58368	3.85557	8.5075	-26.9489	10.7397	0.276873	-0.0167191	412.66	84.7549	1	10	0.00512352	0.000602235	0	2.52328e-07	0.104779	0.0532701	0.117543	26.9489	84754.9	166708	187016	-63.0511	0.0000000E+000	0.0000000E+000	0.0000000E+000	63.0511	0.0000000E+000	0.0000000E+000	0.0000000E+000	-63.0511	0.0000000E+000	0.0000000E+000	0.0000000E+000	-26.9489	0.0000000E+000	0.0000000E+000	0.0000000E+000	26.9489	1.96694	63.0511	-1.38868e-06	-4.62908e-06	16560.3
68.104	8.70106	4.26693	9.69098	-26.123	11.2183	0.276876	-0.0149801	547.687	106.176	1	10	0.00511579	0.000527892	0	-1.24152e-06	0.0926481	0.0454339	0.103189	26.123	106176	216513	241146	-63.877	0.0000000E+000	0.0000000E+000	0.0000000E+000	63.877	0.0000000E+000	0.0000000E+000	0.0000000E+000	-63.877	0.0000000E+000	0.0000000E+000	0.0000000E+000	-26.123	0.0000000E+000	0.0000000E+000	0.0000000E+000	26.123	2.03918	63.877	-1.49384e-06	-4.14761e-06	18483
46.4415	9.98916	4.56226	10.9817	-24.5472	11.6735	0.27687	-0.0172065	751.161	129.645	1	10	0.00512062	0.000466287	0	-3.1595e-06	0.0828305	0.0378305	0.0910607	24.5472	129645	283860	312064	-65.4528	0.0000000E+000	0.0000000E+000	0.0000000E+000	65.4528	0.0000000E+000	0.0000000E+000	0.0000000E+000	-65.4528	0.0000000E+000	0.0000000E+000	0.0000000E+000	-24.5472	0.0000000E+000	0.0000000E+000	0.0000000E+000	24.5472	2.18952	65.4528	-1.91798e-06	-4.76394e-06	16091
31.6296	11.3496	4.59345	12.2439	-22.0343	12.1195	0.276871	-0.0191353	1095.44	154.179	1	10	0.00510855	0.000417231	0	-5.61027e-06	0.0757076	0.0306406	0.0816731	22.0343	154179	380949	410966	-67.9657	0.0000000E+000	0.0000000E+000	0.0000000E+000	67.9657	0.0000000E+000	0.0000000E+000	0.0000000E+000	-67.9657	0.0000000E+000	0.0000000E+000	0.0000000E+000	-22.0343	0.0000000E+000	0.0000000E+000	0.0000000E+000	22.0343	2.47083	67.9657	-2.45078e-06	-5.29799e-06	14469.1
21.5517	12.6996	4.42232	13.4475	-19.1994	12.5583	0.276858	-0.0209599	1669.89	180.594	1	10	0.00512099	0.000380812	0	-8.05968e-06	0.0702269	0.0244548	0.074363	19.1994	180594	518611	549155	-70.8006	0.0000000E+000	0.0000000E+000	0.0000000E+000	70.8006	0.0000000E+000	0.0000000E+000	0.0000000E+000	-70.8006	0.0000000E+000	0.0000000E+000	0.0000000E+000	-19.1994	0.0000000E+000	0.0000000E+000	0.0000000E+000	19.1994	2.8717	70.8006	-2.4494e-06	-5.80293e-06	13209
14.6852	13.91	4.13845	14.5126	-16.5686	13.2961	0.276896	-0.0142592	2618.81	212.956	1	11	0.00511724	0.000352607	0	-7.5257e-06	0.0660447	0.0196493	0.0689057	16.5686	212956	715780	746787	-73.4314	0.0000000E+000	0.0000000E+000	0.0000000E+000	73.4314	0.0000000E+000	0.0000000E+000	0.0000000E+000	-73.4314	0.0000000E+000	0.0000000E+000	0.0000000E+000	-16.5686	0.0000000E+000	0.0000000E+000	0.0000000E+000	16.5686	3.36117	73.4314	5.3398e-07	-3.94832e-06	19418.7
10.0032	14.9428	3.74299	15.4044	-14.0626	13.7647	0.276896	-0.0141286	4250.72	250.963	1	11	0.00511669	0.000332157	0	-1.01213e-05	0.0629709	0.0157735	0.0649164	14.0626	250963	1.00189e+06	1.03285e+06	-75.9374	0.0000000E+000	0.0000000E+000	0.0000000E+000	75.9374	0.0000000E+000	0.0000000E+000	0.0000000E+000	-75.9374	0.0000000E+000	0.0000000E+000	0.0000000E+000	-14.0626	0.0000000E+000	0.0000000E+000	0.0000000E+000	14.0626	3.9922	75.9374	-2.5956e-06	-3.91214e-06	19598.3
6.81719	15.8392	3.3231	16.184	-11.8489	14.1224	0.276881	-0.0150419	7025.41	296.199	1	11	0.00511546	0.00031608	0	-1.23516e-05	0.0604727	0.0126873	0.0617892	11.8489	296199	1.4118e+06	1.44254e+06	-78.1511	0.0000000E+000	0.0000000E+000	0.0000000E+000	78.1511	0.0000000E+000	0.0000000E+000	0.0000000E+000	-78.1511	0.0000000E+000	0.0000000E+000	0.0000000E+000	-11.8489	0.0000000E+000	0.0000000E+000	0.0000000E+000	11.8489	4.76639	78.1511	-2.23033e-06	-4.16481e-06	18407.4
4.63925	16.5732	2.95368	16.8344	-10.1052	14.6253	0.2769	-0.0134143	11614.7	357.555	1	11	0.00511152	0.000303636	0	-1.57327e-05	0.0584808	0.0104225	0.0594023	10.1052	357554	2.00625e+06	2.03786e+06	-79.8948	0.0000000E+000	0.0000000E+000	0.0000000E+000	79.8948	0.0000000E+000	0.0000000E+000	0.0000000E+000	-79.8948	0.0000000E+000	0.0000000E+000	0.0000000E+000	-10.1052	0.0000000E+000	0.0000000E+000	0.0000000E+000	10.1052	5.61104	79.8948	-3.38112e-06	-3.71441e-06	20642.2
3.1604	17.2021	2.61461	17.3997	-8.64242	15.3363	0.276894	-0.0134166	19260.7	434.912	1	11	0.00511358	0.000293889	0	-1.3251e-05	0.0568196	0.00863619	0.0574722	8.64242	434912	2.86139e+06	2.89425e+06	-81.3576	0.0000000E+000	0.0000000E+000	0.0000000E+000	81.3576	0.0000000E+000	0.0000000E+000	0.0000000E+000	-81.3576	0.0000000E+000	0.0000000E+000	0.0000000E+000	-8.64242	0.0000000E+000	0.0000000E+000	0.0000000E+000	8.64242	6.57924	81.3576	2.48174e-06	-3.71497e-06	20638.2
2.15577	17.7709	2.29953	17.9191	-7.373	16.3527	0.27691	-0.011485	32105.5	528.719	1	11	0.00511724	0.000285575	0	-1.47395e-05	0.055345	0.00716155	0.0558064	7.373	528719	4.08599e+06	4.12005e+06	-82.627	0.0000000E+000	0.0000000E+000	0.0000000E+000	82.627	0.0000000E+000	0.0000000E+000	0.0000000E+000	-82.627	0.0000000E+000	0.0000000E+000	0.0000000E+000	-7.373	0.0000000E+000	0.0000000E+000	0.0000000E+000	7.373	7.72808	82.627	-1.48852e-06	-3.18031e-06	24110.6
1.46631	18.2264	2.04183	18.3404	-6.39199	17.826	0.276909	-0.0105062	53158.6	658.868	1	11	0.00511885	0.000279103	0	-2.45889e-05	0.0541856	0.00607022	0.0545245	6.39199	658868	5.88136e+06	5.91815e+06	-83.608	0.0000000E+000	0.0000000E+000	0.0000000E+000	83.608	0.0000000E+000	0.0000000E+000	0.0000000E+000	-83.608	0.0000000E+000	0.0000000E+000	0.0000000E+000	-6.39199	0.0000000E+000	0.0000000E+000	0.0000000E+000	6.39199	8.92646	83.608	-9.84942e-06	-2.90928e-06	26356.7
1.00006	18.6025	1.84016	18.6933	-5.6493	21.0171	0.276904	-0.00984527	86484.4	838.057	1	12	0.00511514	0.000273634	0	-4.36256e-05	0.0532352	0.005266	0.053495	5.6493	838057	8.4721e+06	8.51345e+06	-84.3507	0.0000000E+000	0.0000000E+000	0.0000000E+000	84.3507	0.0000000E+000	0.0000000E+000	0.0000000E+000	-84.3507	0.0000000E+000	0.0000000E+000	0.0000000E+000	-5.6493	0.0000000E+000	0.0000000E+000	0.0000000E+000	5.6493	10.1092	84.3507	-1.90367e-05	-2.7262e-06	28125.6
0.681362	18.9454	1.70732	19.0222	-5.14945	24.1371	0.276922	-0.00938021	136813	1102.14	1	12	0.0051154	0.000268918	0	-5.57151e-05	0.0523581	0.00471839	0.0525702	5.14945	1.10214e+06	1.223e+07	1.22795e+07	-84.8505	0.0000000E+000	0.0000000E+000	0.0000000E+000	84.8505	0.0000000E+000	0.0000000E+000	0.0000000E+000	-84.8505	0.0000000E+000	0.0000000E+000	0.0000000E+000	-5.14945	0.0000000E+000	0.0000000E+000	0.0000000E+000	5.14945	11.0966	84.8505	-1.20895e-05	-2.59758e-06	29521.9
0.464091	19.2206	1.68517	19.2943	-5.01062	28.7019	0.27692	-0.00963619	203504	1552.4	1	12	0.00512029	0.000265378	0	-5.91049e-05	0.0516307	0.00452674	0.0518287	5.01062	1.5524e+06	1.77062e+07	1.77741e+07	-84.9894	0.0000000E+000	0.0000000E+000	0.0000000E+000	84.9894	0.0000000E+000	0.0000000E+000	0.0000000E+000	-84.9894	0.0000000E+000	0.0000000E+000	0.0000000E+000	-5.01062	0.0000000E+000	0.0000000E+000	0.0000000E+000	5.01062	11.4057	84.9894	-3.38985e-06	-2.66845e-06	28737.4
0.316193	19.4513	1.75985	19.5308	-5.16973	35.3842	0.276911	-0.00909021	286017	2322.22	1	12	0.00511699	0.000261996	0	-5.27197e-05	0.0509929	0.00461356	0.0512012	5.16973	2.32222e+06	2.56671e+07	2.5772e+07	-84.8303	0.0000000E+000	0.0000000E+000	0.0000000E+000	84.8303	0.0000000E+000	0.0000000E+000	0.0000000E+000	-84.8303	0.0000000E+000	0.0000000E+000	0.0000000E+000	-5.16973	0.0000000E+000	0.0000000E+000	0.0000000E+000	5.16973	11.0528	84.8303	6.3852e-06	-2.51718e-06	30462.5
0.215268	19.7135	1.92899	19.8077	-5.58868	45.182	0.276921	-0.00671428	383275	3635.01	1	12	0.00511395	0.000258181	0	-3.99587e-05	0.0502455	0.0049166	0.0504855	5.58868	3.63501e+06	3.71483e+07	3.73257e+07	-84.4113	0.0000000E+000	0.0000000E+000	0.0000000E+000	84.4113	0.0000000E+000	0.0000000E+000	0.0000000E+000	-84.4113	0.0000000E+000	0.0000000E+000	0.0000000E+000	-5.58868	0.0000000E+000	0.0000000E+000	0.0000000E+000	5.58868	10.2196	84.4113	1.27611e-05	-1.85932e-06	41243.6
0.146929	20.0428	2.26421	20.1703	-6.44531	59.5176	0.276916	-0.00436188	478405	6028.46	1	12	0.00511569	0.000253625	0	-3.67706e-05	0.0492645	0.00556535	0.0495779	6.44531	6.02845e+06	5.33639e+07	5.37033e+07	-83.5547	0.0000000E+000	0.0000000E+000	0.0000000E+000	83.5547	0.0000000E+000	0.0000000E+000	0.0000000E+000	-83.5547	0.0000000E+000	0.0000000E+000	0.0000000E+000	-6.44531	0.0000000E+000	0.0000000E+000	0.0000000E+000	6.44531	8.85199	83.5547	3.18812e-06	-1.20787e-06	63485.5
0.0999041	20.4292	2.80641	20.6211	-7.8219	80.5885	0.276913	-0.00210935	567657	10513.9	1	12	0.00511379	0.000247989	0	-6.59056e-05	0.0480429	0.00659977	0.0484941	7.8219	1.05139e+07	7.65361e+07	7.72549e+07	-82.1781	0.0000000E+000	0.0000000E+000	0.0000000E+000	82.1781	0.0000000E+000	0.0000000E+000	0.0000000E+000	-82.1781	0.0000000E+000	0.0000000E+000	0.0000000E+000	-7.8219	0.0000000E+000	0.0000000E+000	0.0000000E+000	7.8219	7.27948	82.1781	-2.9135e-05	-5.84107e-07	131279
0.0680626	20.8439	3.54709	21.1435	-9.65776	111.501	0.276908	-0.00110897	659233	18553.7	1	12	0.00511315	0.00024183	0	-0.000144227	0.0466255	0.00793447	0.0472958	9.65776	1.85536e+07	1.09027e+08	1.10595e+08	-80.3422	0.0000000E+000	0.0000000E+000	0.0000000E+000	80.3422	0.0000000E+000	0.0000000E+000	0.0000000E+000	-80.3422	0.0000000E+000	0.0000000E+000	0.0000000E+000	-9.65776	0.0000000E+000	0.0000000E+000	0.0000000E+000	9.65776	5.87632	80.3422	-7.83214e-05	-3.07084e-07	249698
0.0464052	21.4086	4.3909	21.8543	-11.5906	156.825	0.27691	-0.00180907	781088	31530.8	1	12	0.00511604	0.000234098	0	-0.000308447	0.0448246	0.00919351	0.0457577	11.5906	3.15308e+07	1.53734e+08	1.56934e+08	-78.4094	0.0000000E+000	0.0000000E+000	0.0000000E+000	78.4094	0.0000000E+000	0.0000000E+000	0.0000000E+000	-78.4094	0.0000000E+000	0.0000000E+000	0.0000000E+000	-11.5906	0.0000000E+000	0.0000000E+000	0.0000000E+000	11.5906	4.87568	78.4094	-0.00016422	-5.00951e-07	153067
0.0315922	22.2158	5.58745	22.9077	-14.1175	223.386	0.276905	-0.00245804	901627	53640.2	1	12	0.00511499	0.000223287	0	-0.000523787	0.042335	0.0106476	0.0436535	14.1175	5.36403e+07	2.13275e+08	2.19917e+08	-75.8825	0.0000000E+000	0.0000000E+000	0.0000000E+000	75.8825	0.0000000E+000	0.0000000E+000	0.0000000E+000	-75.8825	0.0000000E+000	0.0000000E+000	0.0000000E+000	-14.1175	0.0000000E+000	0.0000000E+000	0.0000000E+000	14.1175	3.97603	75.8825	-0.00021534	-6.80643e-07	112653
0.0215268	23.1439	7.37707	24.2911	-17.6796	321.055	0.276905	-0.00260709	1.00221e+06	92433.5	1	12	0.00511847	0.000210713	0	-0.000675332	0.0392229	0.0125023	0.0411673	17.6796	9.24335e+07	2.89989e+08	3.04364e+08	-72.3204	0.0000000E+000	0.0000000E+000	0.0000000E+000	72.3204	0.0000000E+000	0.0000000E+000	0.0000000E+000	-72.3204	0.0000000E+000	0.0000000E+000	0.0000000E+000	-17.6796	0.0000000E+000	0.0000000E+000	0.0000000E+000	17.6796	3.13727	72.3204	-0.000151545	-7.21915e-07	106212
0.0146812	24.0665	9.74963	25.9664	-22.0535	464.251	0.276907	-0.0021195	1.11191e+06	156756	1	12	0.00511655	0.000197045	0	-0.000603961	0.0356936	0.0144599	0.0385114	22.0535	1.56756e+08	3.86946e+08	4.17492e+08	-67.9465	0.0000000E+000	0.0000000E+000	0.0000000E+000	67.9465	0.0000000E+000	0.0000000E+000	0.0000000E+000	-67.9465	0.0000000E+000	0.0000000E+000	0.0000000E+000	-22.0535	0.0000000E+000	0.0000000E+000	0.0000000E+000	22.0535	2.46845	67.9465	7.13711e-05	-5.86905e-07	130647
0.0100092	25.3196	12.684	28.319	-26.6088	674.272	0.276903	-0.00153083	1.25362e+06	251490	1	12	0.00511891	0.000180759	0	-0.000210673	0.0315719	0.0158161	0.0353119	26.6088	2.5149e+08	5.02022e+08	5.61492e+08	-63.3912	0.0000000E+000	0.0000000E+000	0.0000000E+000	63.3912	0.0000000E+000	0.0000000E+000	0.0000000E+000	-63.3912	0.0000000E+000	0.0000000E+000	0.0000000E+000	-26.6088	0.0000000E+000	0.0000000E+000	0.0000000E+000	26.6088	1.99619	63.3912	0.000393287	-4.2389e-07	180885