File: txt/17460_R277_UA655_SOC00_C02.mpt
EC-Lab ASCII FILE
Nb header lines : 63

Potentio Electrochemical Impedance Spectroscopy

Run on channel : 2 (SN 66139)
User :
CE vs. WE compliance from -10 V to 10 V
Electrode connection : standard
Potential control : Ewe
Ewe ctrl range : min = -10.00 V, max = 10.00 V
Safety Limits :
	Do not start on E overload
Acquisition started on : 09/12/2025 09:48:31.821
Loaded Setting File :  C:\Users\Celltest\OneDrive - store-dot.com\Documents\EC-Lab\Data\Charmaine\R279\17382_C01.mpr
Saved on :
	File : 17460_C02.mpr
	Directory : C:\Users\Celltest\OneDrive - store-dot.com\Documents\EC-Lab\Data\Gyutae\R277\
	Host : 169.254.61.224
Device : VMP-3e (SN .003165)
Address : USB
EC-LAB for windows v11.62 (software)
Internet server v27.00 (firmware)
Command interpretor v12.03 (firmware)
Electrode material :
Initial state :
Electrolyte :
Comments :
Electrode surface area : 0.001 cm²
Characteristic mass : 0.001 g
Equivalent Weight : 0.000 g/eq.
Density : 0.000 g/cm3
Volume (V) : 0.001 cm³
Cycle Definition : Charge/Discharge alternance
Mode                Single sine
E (V)               0.0000
vs.                 Eoc
tE (h:m:s)          0:00:0.0000
record              0
dI                  0.000
unit dI             mA
dt (s)              0.000
fi                  100.000
unit fi             kHz
ff                  10.000
unit ff             mHz
Nd                  6
Points              per decade
spacing             Logarithmic
Va (mV)             5.0
pw                  0.10
Na                  2
corr                0
E range min (V)     -10.000
E range max (V)     10.000
I Range             Auto
Bandwidth           5
nc cycles           0
goto Ns'            0
nr cycles           0
inc. cycle          0

freq/Hz	Re(Z)/Ohm	-Im(Z)/Ohm	|Z|/Ohm	Phase(Z)/deg	time/s	<Ewe>/V	<I>/mA	Cs/µF	Cp/µF	cycle number	I Range	|Ewe|/V	|I|/A	Ns	(Q-Qo)/mA.h	Re(Y)/Ohm-1	Im(Y)/Ohm-1	|Y|/Ohm-1	Phase(Y)/deg	Re(C)/nF	Im(C)/nF	|C|/nF	Phase(C)/deg	Re(M)	Im(M)	|M|	Phase(M)/deg	Re(Permittivity)	Im(Permittivity)	|Permittivity|	Phase(Permittivity)/deg	Re(Resistivity)/Ohm.cm	Im(Resistivity)/Ohm.cm	|Resistivity|/Ohm.cm	Phase(Resistivity)/deg	Re(Conductivity)/mS/cm	Im(Conductivity)/mS/cm	|Conductivity|/mS/cm	Phase(Conductivity)/deg	Tan(Delta)	Loss Angle(Delta)/deg	dq/mA.h	Pwe/W	Rwe/Ohm
100004	1.23306	0.241427	1.25647	-11.0781	1.86547	0.275595	-0.0189372	6.59203	0.243378	1	9	0.00453894	0.00361244	0	-1.65414e-05	0.781048	0.152925	0.795878	11.0781	243.378	1243.03	1266.63	-78.9219	0.0000000E+000	0.0000000E+000	0.0000000E+000	78.9219	0.0000000E+000	0.0000000E+000	0.0000000E+000	-78.9219	0.0000000E+000	0.0000000E+000	0.0000000E+000	-11.0781	0.0000000E+000	0.0000000E+000	0.0000000E+000	11.0781	5.1074	78.9219	-1.65414e-05	-5.21901e-06	14553.1
68132	1.29539	0.263078	1.32183	-11.48	2.44348	0.275588	-0.0125682	8.87941	0.351722	1	9	0.00506377	0.00383087	0	-1.66747e-05	0.74139	0.150567	0.756525	11.48	351.722	1731.87	1767.22	-78.52	0.0000000E+000	0.0000000E+000	0.0000000E+000	78.52	0.0000000E+000	0.0000000E+000	0.0000000E+000	-78.52	0.0000000E+000	0.0000000E+000	0.0000000E+000	-11.48	0.0000000E+000	0.0000000E+000	0.0000000E+000	11.48	4.92397	78.52	-1.33324e-07	-3.46364e-06	21927.4
46420.4	1.35743	0.286889	1.38741	-11.9337	3.0215	0.275591	-0.0105569	11.9508	0.510992	1	9	0.00507659	0.00365903	0	-1.85917e-05	0.705188	0.14904	0.720766	11.9337	510.992	2417.78	2471.19	-78.0663	0.0000000E+000	0.0000000E+000	0.0000000E+000	78.0663	0.0000000E+000	0.0000000E+000	0.0000000E+000	-78.0663	0.0000000E+000	0.0000000E+000	0.0000000E+000	-11.9337	0.0000000E+000	0.0000000E+000	0.0000000E+000	11.9337	4.73154	78.0663	-1.91696e-06	-2.90939e-06	26105.3
31621.1	1.42429	0.322069	1.46025	-12.7418	3.59948	0.275584	-0.0126427	15.6277	0.760219	1	9	0.00508287	0.00348083	0	-2.32164e-05	0.667951	0.151041	0.684815	12.7418	760.218	3361.92	3446.8	-77.2582	0.0000000E+000	0.0000000E+000	0.0000000E+000	77.2582	0.0000000E+000	0.0000000E+000	0.0000000E+000	-77.2582	0.0000000E+000	0.0000000E+000	0.0000000E+000	-12.7418	0.0000000E+000	0.0000000E+000	0.0000000E+000	12.7418	4.42231	77.2582	-4.6247e-06	-3.48412e-06	21797.9
21544.7	1.49622	0.364651	1.54002	-13.6968	4.0365	0.275584	-0.0124751	20.2583	1.13581	1	9	0.00533081	0.00346152	0	-2.95113e-05	0.630877	0.153754	0.649343	13.6968	1135.81	4660.42	4796.83	-76.3032	0.0000000E+000	0.0000000E+000	0.0000000E+000	76.3032	0.0000000E+000	0.0000000E+000	0.0000000E+000	-76.3032	0.0000000E+000	0.0000000E+000	0.0000000E+000	-13.6968	0.0000000E+000	0.0000000E+000	0.0000000E+000	13.6968	4.10317	76.3032	-6.29491e-06	-3.43794e-06	22090.8
14678.6	1.5792	0.406949	1.63079	-14.4503	4.3325	0.275583	-0.0100168	26.6438	1.65912	1	9	0.00538253	0.00330056	0	-3.01932e-05	0.5938	0.153018	0.613199	14.4503	1659.12	6438.37	6648.7	-75.5497	0.0000000E+000	0.0000000E+000	0.0000000E+000	75.5497	0.0000000E+000	0.0000000E+000	0.0000000E+000	-75.5497	0.0000000E+000	0.0000000E+000	0.0000000E+000	-14.4503	0.0000000E+000	0.0000000E+000	0.0000000E+000	14.4503	3.88059	75.5497	-6.81877e-07	-2.76048e-06	27512
10002.2	1.67623	0.46226	1.7388	-15.4175	4.62849	0.275582	-0.0147471	34.4221	2.43282	1	9	0.00507972	0.00292139	0	-3.06077e-05	0.554414	0.152893	0.57511	15.4175	2432.82	8821.81	9151.12	-74.5825	0.0000000E+000	0.0000000E+000	0.0000000E+000	74.5825	0.0000000E+000	0.0000000E+000	0.0000000E+000	-74.5825	0.0000000E+000	0.0000000E+000	0.0000000E+000	-15.4175	0.0000000E+000	0.0000000E+000	0.0000000E+000	15.4175	3.62616	74.5825	-4.14528e-07	-4.06403e-06	18687.2
6811.07	1.78025	0.52869	1.85709	-16.5401	5.00652	0.275463	-0.0857937	44.1981	3.5821	1	9	0.00485056	0.00261191	0	-3.62788e-05	0.516194	0.153297	0.538476	16.5401	3582.1	12062	12582.6	-73.4599	0.0000000E+000	0.0000000E+000	0.0000000E+000	73.4599	0.0000000E+000	0.0000000E+000	0.0000000E+000	-73.4599	0.0000000E+000	0.0000000E+000	0.0000000E+000	-16.5401	0.0000000E+000	0.0000000E+000	0.0000000E+000	16.5401	3.36728	73.4599	-5.67108e-06	-2.3633e-05	3210.77
4641.49	1.90195	0.606326	1.99626	-17.6818	5.47669	0.275572	-0.0037223	56.5532	5.21717	1	9	0.00473338	0.00237113	0	-3.53861e-05	0.477271	0.15215	0.500937	17.6818	5217.17	16365.5	17176.9	-72.3182	0.0000000E+000	0.0000000E+000	0.0000000E+000	72.3182	0.0000000E+000	0.0000000E+000	0.0000000E+000	-72.3182	0.0000000E+000	0.0000000E+000	0.0000000E+000	-17.6818	0.0000000E+000	0.0000000E+000	0.0000000E+000	17.6818	3.13685	72.3182	8.92671e-07	-1.02576e-06	74032.5
3161.01	2.04668	0.685952	2.15857	-18.5287	5.9437	0.275579	0.00754457	73.4007	7.41232	1	9	0.00466667	0.00216192	0	-3.62602e-05	0.439255	0.147218	0.463269	18.5287	7412.32	22116.2	23325.3	-71.4713	0.0000000E+000	0.0000000E+000	0.0000000E+000	71.4713	0.0000000E+000	0.0000000E+000	0.0000000E+000	-71.4713	0.0000000E+000	0.0000000E+000	0.0000000E+000	-18.5287	0.0000000E+000	0.0000000E+000	0.0000000E+000	18.5287	2.98371	71.4713	-8.74074e-07	2.07912e-06	36526.8
2155.69	2.20195	0.788242	2.33878	-19.6961	6.41069	0.27557	0.00288882	93.6643	10.6393	1	9	0.00461614	0.00197373	0	-3.47807e-05	0.402557	0.144105	0.427572	19.6961	10639.3	29720.8	31567.7	-70.3039	0.0000000E+000	0.0000000E+000	0.0000000E+000	70.3039	0.0000000E+000	0.0000000E+000	0.0000000E+000	-70.3039	0.0000000E+000	0.0000000E+000	0.0000000E+000	-19.6961	0.0000000E+000	0.0000000E+000	0.0000000E+000	19.6961	2.7935	70.3039	1.47948e-06	7.96071e-07	95391.7
1468.59	2.4115	0.87196	2.5643	-19.8792	6.87793	0.275576	0.00685551	124.286	14.3707	1	9	0.00461888	0.00180122	0	-3.54483e-05	0.366732	0.132605	0.38997	19.8792	14370.7	39743.7	42262.1	-70.1208	0.0000000E+000	0.0000000E+000	0.0000000E+000	70.1208	0.0000000E+000	0.0000000E+000	0.0000000E+000	-70.1208	0.0000000E+000	0.0000000E+000	0.0000000E+000	-19.8792	0.0000000E+000	0.0000000E+000	0.0000000E+000	19.8792	2.7656	70.1208	-6.67615e-07	1.88921e-06	40197.8
1000.32	2.60681	1.02691	2.80178	-21.5011	7.34668	0.275567	0.00415518	154.935	20.8134	1	9	0.00457105	0.00163148	0	-3.49418e-05	0.332078	0.130816	0.356916	21.5011	20813.4	52835	56786.7	-68.4989	0.0000000E+000	0.0000000E+000	0.0000000E+000	68.4989	0.0000000E+000	0.0000000E+000	0.0000000E+000	-68.4989	0.0000000E+000	0.0000000E+000	0.0000000E+000	-21.5011	0.0000000E+000	0.0000000E+000	0.0000000E+000	21.5011	2.53851	68.4989	5.06555e-07	1.14503e-06	66318.9
681.09	2.8444	1.15592	3.0703	-22.1161	8.06642	0.275569	-0.0333051	202.157	28.6538	1	10	0.00462167	0.00150528	0	-3.99329e-05	0.301737	0.122621	0.325701	22.1161	28653.8	70509	76108.8	-67.8839	0.0000000E+000	0.0000000E+000	0.0000000E+000	67.8839	0.0000000E+000	0.0000000E+000	0.0000000E+000	-67.8839	0.0000000E+000	0.0000000E+000	0.0000000E+000	-22.1161	0.0000000E+000	0.0000000E+000	0.0000000E+000	22.1161	2.46072	67.8839	-4.99118e-06	-9.17785e-06	8274.1
463.961	3.12011	1.31751	3.38688	-22.8926	8.53522	0.275576	-0.0317293	260.366	39.3999	1	10	0.00459378	0.00135634	0	-4.32495e-05	0.272001	0.114857	0.295257	22.8926	39399.9	93306.1	101284	-67.1074	0.0000000E+000	0.0000000E+000	0.0000000E+000	67.1074	0.0000000E+000	0.0000000E+000	0.0000000E+000	-67.1074	0.0000000E+000	0.0000000E+000	0.0000000E+000	-22.8926	0.0000000E+000	0.0000000E+000	0.0000000E+000	22.8926	2.36818	67.1074	-3.3166e-06	-8.74382e-06	8685.21
316.316	3.4478	1.50017	3.76004	-23.5143	9.00192	0.275569	-0.0318224	335.396	53.3896	1	10	0.00457461	0.00121664	0	-4.65746e-05	0.24387	0.10611	0.265955	23.5143	53389.6	122704	133816	-66.4857	0.0000000E+000	0.0000000E+000	0.0000000E+000	66.4857	0.0000000E+000	0.0000000E+000	0.0000000E+000	-66.4857	0.0000000E+000	0.0000000E+000	0.0000000E+000	-23.5143	0.0000000E+000	0.0000000E+000	0.0000000E+000	23.5143	2.29827	66.4857	-3.32504e-06	-8.76927e-06	8659.58
215.345	3.84383	1.70928	4.20674	-23.9739	9.46941	0.275577	-0.0316324	432.387	71.3852	1	10	0.00457031	0.00108643	0	-5.07165e-05	0.217206	0.0965878	0.237714	23.9739	71385.2	160531	175687	-66.0261	0.0000000E+000	0.0000000E+000	0.0000000E+000	66.0261	0.0000000E+000	0.0000000E+000	0.0000000E+000	-66.0261	0.0000000E+000	0.0000000E+000	0.0000000E+000	-23.9739	0.0000000E+000	0.0000000E+000	0.0000000E+000	23.9739	2.2488	66.0261	-4.14194e-06	-8.71716e-06	8711.84
146.737	4.31577	1.91024	4.71963	-23.875	9.9324	0.275573	-0.0316194	567.796	93.0145	1	10	0.00455991	0.000966158	0	-5.47642e-05	0.19375	0.0857573	0.211881	23.875	93014.5	210146	229811	-66.125	0.0000000E+000	0.0000000E+000	0.0000000E+000	66.125	0.0000000E+000	0.0000000E+000	0.0000000E+000	-66.125	0.0000000E+000	0.0000000E+000	0.0000000E+000	-23.875	0.0000000E+000	0.0000000E+000	0.0000000E+000	23.875	2.25929	66.125	-4.04771e-06	-8.71347e-06	8715.33
100.032	4.87701	2.0741	5.29973	-23.0391	10.4007	0.275566	-0.0305801	767.098	117.491	1	10	0.00455608	0.000859681	0	-5.87933e-05	0.173639	0.0738452	0.188689	23.0391	117491	276266	300211	-66.9609	0.0000000E+000	0.0000000E+000	0.0000000E+000	66.9609	0.0000000E+000	0.0000000E+000	0.0000000E+000	-66.9609	0.0000000E+000	0.0000000E+000	0.0000000E+000	-23.0391	0.0000000E+000	0.0000000E+000	0.0000000E+000	23.0391	2.35138	66.9609	-4.02902e-06	-8.42681e-06	9011.28
68.104	5.50574	2.1438	5.90839	-21.2747	10.8783	0.275574	-0.0278365	1090.09	143.514	1	10	0.00454973	0.000770046	0	-6.24531e-05	0.157717	0.0614111	0.169251	21.2747	143514	368575	395529	-68.7253	0.0000000E+000	0.0000000E+000	0.0000000E+000	68.7253	0.0000000E+000	0.0000000E+000	0.0000000E+000	-68.7253	0.0000000E+000	0.0000000E+000	0.0000000E+000	-21.2747	0.0000000E+000	0.0000000E+000	0.0000000E+000	21.2747	2.56821	68.7253	-3.65982e-06	-7.671e-06	9899.74
46.4415	6.14358	2.1259	6.501	-19.0875	11.3335	0.275564	-0.0327593	1612.02	172.384	1	10	0.00454485	0.0006991	0	-6.67556e-05	0.145365	0.0503017	0.153822	19.0875	172384	498166	527149	-70.9125	0.0000000E+000	0.0000000E+000	0.0000000E+000	70.9125	0.0000000E+000	0.0000000E+000	0.0000000E+000	-70.9125	0.0000000E+000	0.0000000E+000	0.0000000E+000	-19.0875	0.0000000E+000	0.0000000E+000	0.0000000E+000	19.0875	2.88987	70.9125	-4.30249e-06	-9.02731e-06	8411.79
31.6296	6.75476	2.00292	7.04546	-16.5161	11.7794	0.275557	-0.0341097	2512.25	203.036	1	10	0.00454657	0.000645319	0	-7.07567e-05	0.136079	0.0403502	0.141935	16.5161	203036	684729	714197	-73.4838	0.0000000E+000	0.0000000E+000	0.0000000E+000	73.4838	0.0000000E+000	0.0000000E+000	0.0000000E+000	-73.4838	0.0000000E+000	0.0000000E+000	0.0000000E+000	-16.5161	0.0000000E+000	0.0000000E+000	0.0000000E+000	16.5161	3.37245	73.4838	-4.00111e-06	-9.39917e-06	8078.54
21.5517	7.27975	1.81534	7.50268	-14.0022	12.2173	0.275559	-0.0350895	4068	238.156	1	10	0.00455081	0.000606558	0	-7.64694e-05	0.129325	0.0322496	0.133286	14.0022	238156	955040	984287	-75.9978	0.0000000E+000	0.0000000E+000	0.0000000E+000	75.9978	0.0000000E+000	0.0000000E+000	0.0000000E+000	-75.9978	0.0000000E+000	0.0000000E+000	0.0000000E+000	-14.0022	0.0000000E+000	0.0000000E+000	0.0000000E+000	14.0022	4.01014	75.9978	-5.71268e-06	-9.66921e-06	7853.04
14.6852	7.71112	1.59633	7.87462	-11.6959	12.695	0.275577	-0.0263371	6789.21	279	1	10	0.00454667	0.000577382	0	-7.93422e-05	0.124354	0.0257432	0.12699	11.6959	279000	1.34772e+06	1.3763e+06	-78.3041	0.0000000E+000	0.0000000E+000	0.0000000E+000	78.3041	0.0000000E+000	0.0000000E+000	0.0000000E+000	-78.3041	0.0000000E+000	0.0000000E+000	0.0000000E+000	-11.6959	0.0000000E+000	0.0000000E+000	0.0000000E+000	11.6959	4.83054	78.3041	-2.87283e-06	-7.25788e-06	10463.5
10.0032	8.07283	1.40417	8.19404	-9.86721	13.1637	0.27557	-0.0282388	11330.8	332.741	1	10	0.0045479	0.000555025	0	-7.87486e-05	0.120235	0.0209134	0.12204	9.86721	332741	1.91298e+06	1.9417e+06	-80.1328	0.0000000E+000	0.0000000E+000	0.0000000E+000	80.1328	0.0000000E+000	0.0000000E+000	0.0000000E+000	-80.1328	0.0000000E+000	0.0000000E+000	0.0000000E+000	-9.86721	0.0000000E+000	0.0000000E+000	0.0000000E+000	9.86721	5.74917	80.1328	5.93617e-07	-7.78175e-06	9758.55
6.81719	8.35468	1.2171	8.44287	-8.28846	13.5214	0.275559	-0.0336608	19181.8	398.621	1	10	0.00454384	0.000538186	0	-8.59832e-05	0.117206	0.0170744	0.118443	8.28846	398621	2.73631e+06	2.76519e+06	-81.7115	0.0000000E+000	0.0000000E+000	0.0000000E+000	81.7115	0.0000000E+000	0.0000000E+000	0.0000000E+000	-81.7115	0.0000000E+000	0.0000000E+000	0.0000000E+000	-8.28846	0.0000000E+000	0.0000000E+000	0.0000000E+000	8.28846	6.86443	81.7115	-7.23464e-06	-9.27555e-06	8186.35
4.63925	8.60892	1.07134	8.67532	-7.09372	14.2943	0.275596	-0.0196261	32021.7	488.346	1	11	0.00454117	0.000523458	0	-8.75713e-05	0.114387	0.0142349	0.115269	7.09372	488346	3.92418e+06	3.95445e+06	-82.9063	0.0000000E+000	0.0000000E+000	0.0000000E+000	82.9063	0.0000000E+000	0.0000000E+000	0.0000000E+000	-82.9063	0.0000000E+000	0.0000000E+000	0.0000000E+000	-7.09372	0.0000000E+000	0.0000000E+000	0.0000000E+000	7.09372	8.03566	82.9063	-1.5881e-06	-5.40888e-06	14042.3
3.1604	8.82111	0.918428	8.8688	-5.94405	15.0042	0.275593	-0.0189447	54831.9	588.023	1	11	0.00454337	0.000512287	0	-9.85123e-05	0.112149	0.0116766	0.112755	5.94405	588023	5.64771e+06	5.67824e+06	-84.056	0.0000000E+000	0.0000000E+000	0.0000000E+000	84.056	0.0000000E+000	0.0000000E+000	0.0000000E+000	-84.056	0.0000000E+000	0.0000000E+000	0.0000000E+000	-5.94405	0.0000000E+000	0.0000000E+000	0.0000000E+000	5.94405	9.60458	84.056	-1.0941e-05	-5.22102e-06	14547.3
2.15577	8.99929	0.833988	9.03785	-5.29463	16.0208	0.275602	-0.0181953	88523.4	753.785	1	11	0.00454657	0.000503059	0	-9.93112e-05	0.110174	0.0102101	0.110646	5.29463	753785	8.13385e+06	8.1687e+06	-84.7054	0.0000000E+000	0.0000000E+000	0.0000000E+000	84.7054	0.0000000E+000	0.0000000E+000	0.0000000E+000	-84.7054	0.0000000E+000	0.0000000E+000	0.0000000E+000	-5.29463	0.0000000E+000	0.0000000E+000	0.0000000E+000	5.29463	10.7907	84.7054	-7.98926e-07	-5.01465e-06	15146.9
1.46631	9.13265	0.766548	9.16476	-4.79787	17.494	0.275603	-0.0175017	141597	990.584	1	11	0.00454593	0.000496023	0	-9.31746e-05	0.108731	0.00912635	0.109114	4.79787	990585	1.18018e+07	1.18433e+07	-85.2021	0.0000000E+000	0.0000000E+000	0.0000000E+000	85.2021	0.0000000E+000	0.0000000E+000	0.0000000E+000	-85.2021	0.0000000E+000	0.0000000E+000	0.0000000E+000	-4.79787	0.0000000E+000	0.0000000E+000	0.0000000E+000	4.79787	11.914	85.2021	6.13662e-06	-4.82353e-06	15747.2
1.00006	9.26596	0.738936	9.29538	-4.55954	19.6342	0.275605	-0.0148126	215370	1361.02	1	11	0.00454695	0.000489163	0	-9.19552e-05	0.10724	0.00855209	0.10758	4.55954	1.36102e+06	1.70667e+07	1.71208e+07	-85.4405	0.0000000E+000	0.0000000E+000	0.0000000E+000	85.4405	0.0000000E+000	0.0000000E+000	0.0000000E+000	-85.4405	0.0000000E+000	0.0000000E+000	0.0000000E+000	-4.55954	0.0000000E+000	0.0000000E+000	0.0000000E+000	4.55954	12.5396	85.4405	1.21939e-06	-4.08243e-06	18606.1
0.681362	9.38966	0.762489	9.42057	-4.64252	22.7541	0.275599	-0.0117643	306343	2006.88	1	11	0.00454779	0.000482751	0	-0.000105211	0.105802	0.0085917	0.106151	4.64252	2.00688e+06	2.47137e+07	2.4795e+07	-85.3575	0.0000000E+000	0.0000000E+000	0.0000000E+000	85.3575	0.0000000E+000	0.0000000E+000	0.0000000E+000	-85.3575	0.0000000E+000	0.0000000E+000	0.0000000E+000	-4.64252	0.0000000E+000	0.0000000E+000	0.0000000E+000	4.64252	12.3145	85.3575	-1.32558e-05	-3.24222e-06	23426.8
0.464091	9.50183	0.835017	9.53845	-5.02223	27.3189	0.275606	-0.0087272	410698	3147.44	1	11	0.00454644	0.000476643	0	-0.00014248	0.104436	0.00917782	0.104839	5.02223	3.14743e+06	3.58153e+07	3.59534e+07	-84.9778	0.0000000E+000	0.0000000E+000	0.0000000E+000	84.9778	0.0000000E+000	0.0000000E+000	0.0000000E+000	-84.9778	0.0000000E+000	0.0000000E+000	0.0000000E+000	-5.02223	0.0000000E+000	0.0000000E+000	0.0000000E+000	5.02223	11.3792	84.9778	-3.7269e-05	-2.40527e-06	31580.1
0.316193	9.63493	0.946751	9.68134	-5.612	34.0012	0.275603	-0.00801281	531657	5084.32	1	11	0.00454673	0.000469639	0	-0.000202005	0.102796	0.010101	0.103292	5.612	5.08433e+06	5.17423e+07	5.19915e+07	-84.388	0.0000000E+000	0.0000000E+000	0.0000000E+000	84.388	0.0000000E+000	0.0000000E+000	0.0000000E+000	-84.388	0.0000000E+000	0.0000000E+000	0.0000000E+000	-5.612	0.0000000E+000	0.0000000E+000	0.0000000E+000	5.612	10.1768	84.388	-5.95247e-05	-2.20836e-06	34395.3
0.215268	9.80789	1.13804	9.8737	-6.61862	43.7989	0.275604	-0.00897413	649655	8630.58	1	11	0.00454632	0.000460448	0	-0.00026888	0.100604	0.0116734	0.101279	6.61862	8.63058e+06	7.43802e+07	7.48792e+07	-83.3814	0.0000000E+000	0.0000000E+000	0.0000000E+000	83.3814	0.0000000E+000	0.0000000E+000	0.0000000E+000	-83.3814	0.0000000E+000	0.0000000E+000	0.0000000E+000	-6.61862	0.0000000E+000	0.0000000E+000	0.0000000E+000	6.61862	8.61822	83.3814	-6.68757e-05	-2.47331e-06	30711
0.146929	10.0086	1.43616	10.1111	-8.16584	58.1356	0.275607	-0.00977572	754239	15216.8	1	11	0.0045486	0.000449864	0	-0.000313261	0.0978987	0.0140478	0.0989015	8.16584	1.52168e+07	1.06045e+08	1.07131e+08	-81.8342	0.0000000E+000	0.0000000E+000	0.0000000E+000	81.8342	0.0000000E+000	0.0000000E+000	0.0000000E+000	-81.8342	0.0000000E+000	0.0000000E+000	0.0000000E+000	-8.16584	0.0000000E+000	0.0000000E+000	0.0000000E+000	8.16584	6.96895	81.8342	-4.4381e-05	-2.69426e-06	28193
0.0999041	10.2111	1.84402	10.3763	-10.2367	79.2056	0.275606	-0.00896259	863917	27284.6	1	11	0.00454694	0.000438205	0	-0.000295762	0.0948396	0.017127	0.0963737	10.2367	2.72847e+07	1.51087e+08	1.53531e+08	-79.7633	0.0000000E+000	0.0000000E+000	0.0000000E+000	79.7633	0.0000000E+000	0.0000000E+000	0.0000000E+000	-79.7633	0.0000000E+000	0.0000000E+000	0.0000000E+000	-10.2367	0.0000000E+000	0.0000000E+000	0.0000000E+000	10.2367	5.53743	79.7633	1.74994e-05	-2.47015e-06	30750.7
0.0680626	10.4622	2.35193	10.7233	-12.6697	110.118	0.275607	-0.00643412	994229	47827.9	1	11	0.00454687	0.000424019	0	-0.000198445	0.0909844	0.0204536	0.093255	12.6697	4.78279e+07	2.12754e+08	2.18064e+08	-77.3303	0.0000000E+000	0.0000000E+000	0.0000000E+000	77.3303	0.0000000E+000	0.0000000E+000	0.0000000E+000	-77.3303	0.0000000E+000	0.0000000E+000	0.0000000E+000	-12.6697	0.0000000E+000	0.0000000E+000	0.0000000E+000	12.6697	4.44833	77.3303	9.73172e-05	-1.77329e-06	42835.2
0.0464052	10.8362	2.96287	11.2339	-15.2923	155.441	0.275607	-0.00214016	1.15755e+06	80519.6	1	11	0.00454533	0.000404607	0	6.32528e-06	0.0858641	0.0234773	0.0890159	15.2923	8.05196e+07	2.94486e+08	3.05296e+08	-74.7077	0.0000000E+000	0.0000000E+000	0.0000000E+000	74.7077	0.0000000E+000	0.0000000E+000	0.0000000E+000	-74.7077	0.0000000E+000	0.0000000E+000	0.0000000E+000	-15.2923	0.0000000E+000	0.0000000E+000	0.0000000E+000	15.2923	3.65732	74.7077	0.00020477	-5.89842e-07	128779
0.0315922	11.3203	3.93321	11.9841	-19.1597	222.002	0.275605	0.000115254	1.28083e+06	137967	1	11	0.00454769	0.000379476	0	0.000179174	0.0788215	0.0273864	0.0834437	19.1597	1.37967e+08	3.97086e+08	4.20372e+08	-70.8403	0.0000000E+000	0.0000000E+000	0.0000000E+000	70.8403	0.0000000E+000	0.0000000E+000	0.0000000E+000	-70.8403	0.0000000E+000	0.0000000E+000	0.0000000E+000	-19.1597	0.0000000E+000	0.0000000E+000	0.0000000E+000	19.1597	2.87813	70.8403	0.000172848	3.17645e-08	2.39129e+06
0.0215268	11.7989	5.29778	12.9337	-24.1804	319.672	0.275602	0.000727554	1.39556e+06	234148	1	11	0.00454556	0.000351452	0	9.03069e-05	0.0705337	0.0316701	0.0773175	24.1804	2.34148e+08	5.2148e+08	5.71635e+08	-65.8196	0.0000000E+000	0.0000000E+000	0.0000000E+000	65.8196	0.0000000E+000	0.0000000E+000	0.0000000E+000	-65.8196	0.0000000E+000	0.0000000E+000	0.0000000E+000	-24.1804	0.0000000E+000	0.0000000E+000	0.0000000E+000	24.1804	2.22714	65.8196	-8.88667e-05	2.00516e-07	378807
0.0146812	12.3757	6.98678	14.2118	-29.4471	462.868	0.275601	0.000245095	1.55161e+06	375008	1	11	0.00454751	0.000319982	0	-0.000436922	0.0612739	0.0345924	0.0703642	29.4471	3.75008e+08	6.64255e+08	7.62801e+08	-60.5529	0.0000000E+000	0.0000000E+000	0.0000000E+000	60.5529	0.0000000E+000	0.0000000E+000	0.0000000E+000	-60.5529	0.0000000E+000	0.0000000E+000	0.0000000E+000	-29.4471	0.0000000E+000	0.0000000E+000	0.0000000E+000	29.4471	1.77131	60.5529	-0.000527229	6.75484e-08	1.12446e+06
0.0100092	13.3022	9.31138	16.2373	-34.9916	772.964	0.275601	-0.000698882	1.70769e+06	561576	1	12	0.00454708	0.000280039	0	-0.0013306	0.050454	0.0353172	0.0615866	34.9916	5.61576e+08	8.02265e+08	9.79284e+08	-55.0084	0.0000000E+000	0.0000000E+000	0.0000000E+000	55.0084	0.0000000E+000	0.0000000E+000	0.0000000E+000	-55.0084	0.0000000E+000	0.0000000E+000	0.0000000E+000	-34.9916	0.0000000E+000	0.0000000E+000	0.0000000E+000	34.9916	1.42859	55.0084	-0.000893681	-1.92612e-07	394345