File: txt/17463_C05.mpt
EC-Lab ASCII FILE
Nb header lines : 64

Potentio Electrochemical Impedance Spectroscopy

Run on channel : 5 (SN 65912)
User :
CE vs. WE compliance from -10 V to 10 V
Electrode connection : standard
Potential control : Ewe
Ewe ctrl range : min = -10.00 V, max = 10.00 V
Safety Limits :
	Do not start on E overload
Acquisition started on : 09/12/2025 09:49:02.392
Technique started on : 09/12/2025 09:49:04.416
Loaded Setting File :  C:\Users\Celltest\OneDrive - store-dot.com\Documents\EC-Lab\Data\Charmaine\R279\17382_C01.mpr
Saved on :
	File : 17463_C05.mpr
	Directory : C:\Users\Celltest\OneDrive - store-dot.com\Documents\EC-Lab\Data\Gyutae\R277\
	Host : 169.254.61.224
Device : VMP-3e (SN .003165)
Address : USB
EC-LAB for windows v11.62 (software)
Internet server v27.00 (firmware)
Command interpretor v12.03 (firmware)
Electrode material :
Initial state :
Electrolyte :
Comments :
Electrode surface area : 0.001 cm²
Characteristic mass : 0.001 g
Equivalent Weight : 0.000 g/eq.
Density : 0.000 g/cm3
Volume (V) : 0.001 cm³
Cycle Definition : Charge/Discharge alternance
Mode                Single sine
E (V)               0.0000
vs.                 Eoc
tE (h:m:s)          0:00:0.0000
record              0
dI                  0.000
unit dI             mA
dt (s)              0.000
fi                  100.000
unit fi             kHz
ff                  10.000
unit ff             mHz
Nd                  6
Points              per decade
spacing             Logarithmic
Va (mV)             5.0
pw                  0.10
Na                  2
corr                0
E range min (V)     -10.000
E range max (V)     10.000
I Range             Auto
Bandwidth           5
nc cycles           0
goto Ns'            0
nr cycles           0
inc. cycle          0

freq/Hz	Re(Z)/Ohm	-Im(Z)/Ohm	|Z|/Ohm	Phase(Z)/deg	time/s	<Ewe>/V	<I>/mA	Cs/µF	Cp/µF	cycle number	I Range	|Ewe|/V	|I|/A	Ns	(Q-Qo)/mA.h	Re(Y)/Ohm-1	Im(Y)/Ohm-1	|Y|/Ohm-1	Phase(Y)/deg	Re(C)/nF	Im(C)/nF	|C|/nF	Phase(C)/deg	Re(M)	Im(M)	|M|	Phase(M)/deg	Re(Permittivity)	Im(Permittivity)	|Permittivity|	Phase(Permittivity)/deg	Re(Resistivity)/Ohm.cm	Im(Resistivity)/Ohm.cm	|Resistivity|/Ohm.cm	Phase(Resistivity)/deg	Re(Conductivity)/mS/cm	Im(Conductivity)/mS/cm	|Conductivity|/mS/cm	Phase(Conductivity)/deg	Tan(Delta)	Loss Angle(Delta)/deg	dq/mA.h	Pwe/W	Rwe/Ohm
100004	1.84154	0.336195	1.87197	-10.3461	2.02449	0.274899	-0.0391047	4.73383	0.152685	1	9	0.00493794	0.00263783	0	-7.8499e-06	0.52551	0.0959384	0.534196	10.3461	152.685	836.344	850.167	-79.6539	0.0000000E+000	0.0000000E+000	0.0000000E+000	79.6539	0.0000000E+000	0.0000000E+000	0.0000000E+000	-79.6539	0.0000000E+000	0.0000000E+000	0.0000000E+000	-10.3461	0.0000000E+000	0.0000000E+000	0.0000000E+000	10.3461	5.47758	79.6539	-7.8499e-06	-1.07498e-05	7029.82
68132	1.92631	0.399772	1.96736	-11.7243	2.46249	0.274898	-0.0396819	5.84328	0.241276	1	9	0.00544266	0.00276648	0	-1.51545e-05	0.497692	0.103287	0.508296	11.7243	241.276	1162.6	1187.37	-78.2757	0.0000000E+000	0.0000000E+000	0.0000000E+000	78.2757	0.0000000E+000	0.0000000E+000	0.0000000E+000	-78.2757	0.0000000E+000	0.0000000E+000	0.0000000E+000	-11.7243	0.0000000E+000	0.0000000E+000	0.0000000E+000	11.7243	4.81853	78.2757	-7.30462e-06	-1.09085e-05	6927.55
46420.4	2.02305	0.446863	2.07182	-12.4558	2.89949	0.274888	-0.0394957	7.67251	0.35693	1	9	0.00545586	0.00263337	0	-2.00835e-05	0.471307	0.104105	0.482668	12.4558	356.93	1615.91	1654.86	-77.5442	0.0000000E+000	0.0000000E+000	0.0000000E+000	77.5442	0.0000000E+000	0.0000000E+000	0.0000000E+000	-77.5442	0.0000000E+000	0.0000000E+000	0.0000000E+000	-12.4558	0.0000000E+000	0.0000000E+000	0.0000000E+000	12.4558	4.52723	77.5442	-4.92901e-06	-1.08569e-05	6959.95
31621.1	2.1238	0.506667	2.1834	-13.418	3.33649	0.274895	-0.0368703	9.93392	0.534929	1	9	0.0053687	0.00245887	0	-2.6347e-05	0.445498	0.106281	0.458	13.418	534.929	2242.27	2305.2	-76.582	0.0000000E+000	0.0000000E+000	0.0000000E+000	76.582	0.0000000E+000	0.0000000E+000	0.0000000E+000	-76.582	0.0000000E+000	0.0000000E+000	0.0000000E+000	-13.418	0.0000000E+000	0.0000000E+000	0.0000000E+000	13.418	4.19172	76.582	-6.26349e-06	-1.01354e-05	7455.72
21544.7	2.24503	0.564744	2.31498	-14.1199	3.7745	0.274884	-0.0431452	13.0806	0.778464	1	9	0.00530712	0.00229252	0	-3.1313e-05	0.418919	0.10538	0.43197	14.1199	778.464	3094.64	3191.05	-75.8801	0.0000000E+000	0.0000000E+000	0.0000000E+000	75.8801	0.0000000E+000	0.0000000E+000	0.0000000E+000	-75.8801	0.0000000E+000	0.0000000E+000	0.0000000E+000	-14.1199	0.0000000E+000	0.0000000E+000	0.0000000E+000	14.1199	3.97531	75.8801	-4.96598e-06	-1.18599e-05	6371.12
14678.6	2.38348	0.63451	2.46649	-14.9071	4.21148	0.274885	-0.0461244	17.0882	1.13088	1	9	0.00517186	0.00209685	0	-3.37021e-05	0.391789	0.104299	0.405434	14.9071	1130.88	4248.03	4395.98	-75.0929	0.0000000E+000	0.0000000E+000	0.0000000E+000	75.0929	0.0000000E+000	0.0000000E+000	0.0000000E+000	-75.0929	0.0000000E+000	0.0000000E+000	0.0000000E+000	-14.9071	0.0000000E+000	0.0000000E+000	0.0000000E+000	14.9071	3.75641	75.0929	-2.38905e-06	-1.26789e-05	5959.63
10002.2	2.52585	0.71004	2.62375	-15.7012	4.64849	0.274888	-0.0424563	22.4099	1.6412	1	9	0.00516488	0.00196851	0	-3.80503e-05	0.366913	0.103143	0.381134	15.7012	1641.2	5838.3	6064.59	-74.2988	0.0000000E+000	0.0000000E+000	0.0000000E+000	74.2988	0.0000000E+000	0.0000000E+000	0.0000000E+000	-74.2988	0.0000000E+000	0.0000000E+000	0.0000000E+000	-15.7012	0.0000000E+000	0.0000000E+000	0.0000000E+000	15.7012	3.55733	74.2988	-4.34822e-06	-1.16707e-05	6474.61
6811.07	2.69847	0.81318	2.81833	-16.7701	5.20351	0.27486	-0.0598101	28.7355	2.39226	1	9	0.00508775	0.00180524	0	-5.06874e-05	0.33973	0.102377	0.35482	16.7701	2392.26	7938.5	8291.12	-73.2299	0.0000000E+000	0.0000000E+000	0.0000000E+000	73.2299	0.0000000E+000	0.0000000E+000	0.0000000E+000	-73.2299	0.0000000E+000	0.0000000E+000	0.0000000E+000	-16.7701	0.0000000E+000	0.0000000E+000	0.0000000E+000	16.7701	3.31841	73.2299	-1.26371e-05	-1.64394e-05	4595.55
4641.49	2.87585	0.919145	3.01916	-17.7243	5.67467	0.274929	-0.0173194	37.306	3.4576	1	9	0.00519072	0.00171926	0	-5.24492e-05	0.315496	0.100835	0.331218	17.7243	3457.6	10818.2	11357.4	-72.2757	0.0000000E+000	0.0000000E+000	0.0000000E+000	72.2757	0.0000000E+000	0.0000000E+000	0.0000000E+000	-72.2757	0.0000000E+000	0.0000000E+000	0.0000000E+000	-17.7243	0.0000000E+000	0.0000000E+000	0.0000000E+000	17.7243	3.12883	72.2757	-1.76177e-06	-4.76162e-06	15874
3161.01	3.09373	1.0566	3.26919	-18.8565	6.14171	0.274925	-0.0199448	47.6523	4.97766	1	9	0.00517752	0.00158373	0	-5.54218e-05	0.28947	0.0988623	0.305886	18.8565	4977.66	14574.6	15401.2	-71.1435	0.0000000E+000	0.0000000E+000	0.0000000E+000	71.1435	0.0000000E+000	0.0000000E+000	0.0000000E+000	-71.1435	0.0000000E+000	0.0000000E+000	0.0000000E+000	-18.8565	0.0000000E+000	0.0000000E+000	0.0000000E+000	18.8565	2.92801	71.1435	-2.97262e-06	-5.48334e-06	13784.3
2155.69	3.32682	1.19904	3.53631	-19.82	6.60767	0.274929	-0.0203359	61.5744	7.07893	1	9	0.00513339	0.00145163	0	-5.72404e-05	0.26603	0.0958813	0.282781	19.82	7078.93	19641	20877.8	-70.18	0.0000000E+000	0.0000000E+000	0.0000000E+000	70.18	0.0000000E+000	0.0000000E+000	0.0000000E+000	-70.18	0.0000000E+000	0.0000000E+000	0.0000000E+000	-19.82	0.0000000E+000	0.0000000E+000	0.0000000E+000	19.82	2.77457	70.18	-1.81867e-06	-5.59093e-06	13519.4
1468.59	3.62294	1.38384	3.87824	-20.9051	7.32896	0.274932	-0.0151694	78.3131	9.97093	1	10	0.00520232	0.00134141	0	-5.98461e-05	0.240876	0.092006	0.257849	20.9051	9970.93	26104.3	27943.8	-69.0949	0.0000000E+000	0.0000000E+000	0.0000000E+000	69.0949	0.0000000E+000	0.0000000E+000	0.0000000E+000	-69.0949	0.0000000E+000	0.0000000E+000	0.0000000E+000	-20.9051	0.0000000E+000	0.0000000E+000	0.0000000E+000	20.9051	2.61804	69.0949	-2.60562e-06	-4.17057e-06	18124.1
1000.32	3.93963	1.57093	4.24128	-21.7397	7.79768	0.274931	-0.0153277	101.28	13.8945	1	10	0.0051279	0.00120904	0	-6.24742e-05	0.219008	0.0873299	0.235778	21.7397	13894.5	34845.1	37513.2	-68.2603	0.0000000E+000	0.0000000E+000	0.0000000E+000	68.2603	0.0000000E+000	0.0000000E+000	0.0000000E+000	-68.2603	0.0000000E+000	0.0000000E+000	0.0000000E+000	-21.7397	0.0000000E+000	0.0000000E+000	0.0000000E+000	21.7397	2.50783	68.2603	-2.62812e-06	-4.21406e-06	17936.9
681.09	4.30934	1.79426	4.66796	-22.6052	8.26342	0.274923	-0.0151936	130.236	19.2419	1	10	0.0050806	0.0010884	0	-6.41507e-05	0.197769	0.0823442	0.214227	22.6052	19241.9	46214	50059.8	-67.3948	0.0000000E+000	0.0000000E+000	0.0000000E+000	67.3948	0.0000000E+000	0.0000000E+000	0.0000000E+000	-67.3948	0.0000000E+000	0.0000000E+000	0.0000000E+000	-22.6052	0.0000000E+000	0.0000000E+000	0.0000000E+000	22.6052	2.40173	67.3948	-1.67647e-06	-4.17707e-06	18094.6
463.961	4.73191	2.03931	5.15264	-23.3145	8.73222	0.274923	-0.0151862	168.212	26.3488	1	10	0.00504804	0.000979699	0	-6.63127e-05	0.178228	0.0768108	0.194075	23.3145	26348.8	61138.6	66574.7	-66.6855	0.0000000E+000	0.0000000E+000	0.0000000E+000	66.6855	0.0000000E+000	0.0000000E+000	0.0000000E+000	-66.6855	0.0000000E+000	0.0000000E+000	0.0000000E+000	-23.3145	0.0000000E+000	0.0000000E+000	0.0000000E+000	23.3145	2.32035	66.6855	-2.16201e-06	-4.17503e-06	18103.5
316.316	5.21551	2.32799	5.71148	-24.054	9.19893	0.274921	-0.0144564	216.132	35.9072	1	10	0.00503033	0.000880739	0	-6.87884e-05	0.159882	0.0713646	0.175086	24.054	35907.2	80444.8	88094.8	-65.946	0.0000000E+000	0.0000000E+000	0.0000000E+000	65.946	0.0000000E+000	0.0000000E+000	0.0000000E+000	-65.946	0.0000000E+000	0.0000000E+000	0.0000000E+000	-24.054	0.0000000E+000	0.0000000E+000	0.0000000E+000	24.054	2.24035	65.946	-2.47572e-06	-3.97438e-06	19017.3
215.345	5.77292	2.66857	6.35987	-24.8091	9.66645	0.274925	-0.0151769	276.954	48.7606	1	10	0.00501127	0.000787953	0	-7.0957e-05	0.142725	0.0659755	0.157236	24.8091	48760.6	105484	116209	-65.1909	0.0000000E+000	0.0000000E+000	0.0000000E+000	65.1909	0.0000000E+000	0.0000000E+000	0.0000000E+000	-65.1909	0.0000000E+000	0.0000000E+000	0.0000000E+000	-24.8091	0.0000000E+000	0.0000000E+000	0.0000000E+000	24.8091	2.1633	65.1909	-2.1686e-06	-4.17251e-06	18114.7
146.737	6.45889	3.03198	7.13514	-25.1467	10.1294	0.274921	-0.0148809	357.728	64.5954	1	10	0.0050057	0.000701557	0	-7.24274e-05	0.126868	0.0595556	0.140152	25.1467	64595.4	137604	152012	-64.8533	0.0000000E+000	0.0000000E+000	0.0000000E+000	64.8533	0.0000000E+000	0.0000000E+000	0.0000000E+000	-64.8533	0.0000000E+000	0.0000000E+000	0.0000000E+000	-25.1467	0.0000000E+000	0.0000000E+000	0.0000000E+000	25.1467	2.13025	64.8533	-1.47041e-06	-4.09107e-06	18474.8
100.032	7.26643	3.42212	8.03193	-25.2181	10.5977	0.274922	-0.0148269	464.928	84.3989	1	10	0.00499711	0.000622155	0	-7.37308e-05	0.112637	0.0530463	0.124503	25.2181	84398.9	179210	198089	-64.7819	0.0000000E+000	0.0000000E+000	0.0000000E+000	64.7819	0.0000000E+000	0.0000000E+000	0.0000000E+000	-64.7819	0.0000000E+000	0.0000000E+000	0.0000000E+000	-25.2181	0.0000000E+000	0.0000000E+000	0.0000000E+000	25.2181	2.12337	64.7819	-1.30336e-06	-4.07624e-06	18542.1
68.104	8.24316	3.76876	9.06384	-24.5698	11.0763	0.274926	-0.0142982	620.082	107.206	1	10	0.00499635	0.000551239	0	-7.51465e-05	0.100339	0.0458747	0.110328	24.5698	107206	234486	257831	-65.4302	0.0000000E+000	0.0000000E+000	0.0000000E+000	65.4302	0.0000000E+000	0.0000000E+000	0.0000000E+000	-65.4302	0.0000000E+000	0.0000000E+000	0.0000000E+000	-24.5698	0.0000000E+000	0.0000000E+000	0.0000000E+000	24.5698	2.18724	65.4302	-1.41574e-06	-3.93094e-06	19228
46.4415	9.37467	4.01337	10.1976	-23.1761	11.5315	0.274922	-0.0155772	853.895	132.259	1	10	0.00499566	0.000489885	0	-7.66084e-05	0.0901484	0.0385932	0.0980621	23.1761	132259	308938	336058	-66.8239	0.0000000E+000	0.0000000E+000	0.0000000E+000	66.8239	0.0000000E+000	0.0000000E+000	0.0000000E+000	-66.8239	0.0000000E+000	0.0000000E+000	0.0000000E+000	-23.1761	0.0000000E+000	0.0000000E+000	0.0000000E+000	23.1761	2.33586	66.8239	-1.46193e-06	-4.28251e-06	17649
31.6296	10.5844	4.09054	11.3474	-21.1299	11.9774	0.27492	-0.0161915	1230.12	159.852	1	10	0.00499252	0.000439972	0	-7.87296e-05	0.082201	0.031768	0.0881261	21.1299	159852	413623	443437	-68.8701	0.0000000E+000	0.0000000E+000	0.0000000E+000	68.8701	0.0000000E+000	0.0000000E+000	0.0000000E+000	-68.8701	0.0000000E+000	0.0000000E+000	0.0000000E+000	-21.1299	0.0000000E+000	0.0000000E+000	0.0000000E+000	21.1299	2.58754	68.8701	-2.1212e-06	-4.45138e-06	16979.2
21.5517	11.7908	3.94663	12.4337	-18.5065	12.4163	0.274913	-0.0173998	1871.16	188.522	1	10	0.00499842	0.000402004	0	-7.98126e-05	0.0762673	0.0255284	0.0804263	18.5065	188522	563218	593932	-71.4935	0.0000000E+000	0.0000000E+000	0.0000000E+000	71.4935	0.0000000E+000	0.0000000E+000	0.0000000E+000	-71.4935	0.0000000E+000	0.0000000E+000	0.0000000E+000	-18.5065	0.0000000E+000	0.0000000E+000	0.0000000E+000	18.5065	2.98755	71.4935	-1.08295e-06	-4.78344e-06	15799.8
14.6852	12.858	3.62939	13.3605	-15.7626	12.8941	0.274927	-0.013332	2986.12	220.36	1	10	0.00498881	0.000373401	0	-8.10923e-05	0.0720332	0.0203325	0.0748478	15.7626	220360	780682	811186	-74.2374	0.0000000E+000	0.0000000E+000	0.0000000E+000	74.2374	0.0000000E+000	0.0000000E+000	0.0000000E+000	-74.2374	0.0000000E+000	0.0000000E+000	0.0000000E+000	-15.7626	0.0000000E+000	0.0000000E+000	0.0000000E+000	15.7626	3.54276	74.2374	-1.27972e-06	-3.66532e-06	20621.6
10.0032	13.7932	3.23316	14.1671	-13.1921	13.6167	0.274936	-0.0103112	4921.01	256.3	1	11	0.00498558	0.000351913	0	-8.71126e-05	0.0687235	0.0161089	0.0705862	13.1921	256299	1.09342e+06	1.12306e+06	-76.8079	0.0000000E+000	0.0000000E+000	0.0000000E+000	76.8079	0.0000000E+000	0.0000000E+000	0.0000000E+000	-76.8079	0.0000000E+000	0.0000000E+000	0.0000000E+000	-13.1921	0.0000000E+000	0.0000000E+000	0.0000000E+000	13.1921	4.26617	76.8079	-6.02025e-06	-2.83493e-06	26663.7
6.81719	14.5616	2.87041	14.8418	-11.1513	13.9744	0.274913	-0.012198	8133.37	304.217	1	11	0.00498863	0.000336119	0	-8.50628e-05	0.066105	0.0130307	0.0673771	11.1513	304217	1.5433e+06	1.57299e+06	-78.8487	0.0000000E+000	0.0000000E+000	0.0000000E+000	78.8487	0.0000000E+000	0.0000000E+000	0.0000000E+000	-78.8487	0.0000000E+000	0.0000000E+000	0.0000000E+000	-11.1513	0.0000000E+000	0.0000000E+000	0.0000000E+000	11.1513	5.07301	78.8487	2.04975e-06	-3.35338e-06	22537.6
4.63925	15.1681	2.49461	15.3719	-9.33948	14.4763	0.274927	-0.00969263	13752.1	362.176	1	11	0.00498827	0.000324505	0	-8.79061e-05	0.0641914	0.0105572	0.0650537	9.33948	362176	2.20216e+06	2.23174e+06	-80.6605	0.0000000E+000	0.0000000E+000	0.0000000E+000	80.6605	0.0000000E+000	0.0000000E+000	0.0000000E+000	-80.6605	0.0000000E+000	0.0000000E+000	0.0000000E+000	-9.33948	0.0000000E+000	0.0000000E+000	0.0000000E+000	9.33948	6.08036	80.6605	-2.84333e-06	-2.66477e-06	28364.6
3.1604	15.6779	2.18812	15.8298	-7.94531	15.1863	0.274928	-0.00991295	23014.8	439.742	1	11	0.00499268	0.000315397	0	-9.44215e-05	0.0625655	0.00873211	0.0631719	7.94531	439742	3.15075e+06	3.18129e+06	-82.0547	0.0000000E+000	0.0000000E+000	0.0000000E+000	82.0547	0.0000000E+000	0.0000000E+000	0.0000000E+000	-82.0547	0.0000000E+000	0.0000000E+000	0.0000000E+000	-7.94531	0.0000000E+000	0.0000000E+000	0.0000000E+000	7.94531	7.16499	82.0547	-6.51539e-06	-2.72535e-06	27734.2
2.15577	16.1235	1.9577	16.2419	-6.9229	16.2028	0.274946	-0.00911754	37711.4	547.885	1	11	0.00499291	0.000307409	0	-9.45917e-05	0.0611202	0.00742114	0.061569	6.9229	547885	4.51235e+06	4.54549e+06	-83.0771	0.0000000E+000	0.0000000E+000	0.0000000E+000	83.0771	0.0000000E+000	0.0000000E+000	0.0000000E+000	-83.0771	0.0000000E+000	0.0000000E+000	0.0000000E+000	-6.9229	0.0000000E+000	0.0000000E+000	0.0000000E+000	6.9229	8.23595	83.0771	-1.70147e-07	-2.50683e-06	30155.7
1.46631	16.4864	1.75238	16.5793	-6.06733	17.676	0.274947	-0.00868358	61939.2	691.978	1	11	0.0049934	0.000301183	0	-9.00464e-05	0.0599784	0.00637526	0.0603163	6.06733	691978	6.51013e+06	6.5468e+06	-83.9327	0.0000000E+000	0.0000000E+000	0.0000000E+000	83.9327	0.0000000E+000	0.0000000E+000	0.0000000E+000	-83.9327	0.0000000E+000	0.0000000E+000	0.0000000E+000	-6.06733	0.0000000E+000	0.0000000E+000	0.0000000E+000	6.06733	9.408	83.9327	4.54523e-06	-2.38752e-06	31662.9
1.00006	16.8135	1.62452	16.8918	-5.51878	20.8662	0.274947	-0.00708106	97964	906.075	1	12	0.00499238	0.00029555	0	-9.01026e-05	0.0589258	0.0056934	0.0592002	5.51878	906075	9.37773e+06	9.4214e+06	-84.4812	0.0000000E+000	0.0000000E+000	0.0000000E+000	84.4812	0.0000000E+000	0.0000000E+000	0.0000000E+000	-84.4812	0.0000000E+000	0.0000000E+000	0.0000000E+000	-5.51878	0.0000000E+000	0.0000000E+000	0.0000000E+000	5.51878	10.3498	84.4812	-5.6171e-08	-1.94691e-06	38828.4
0.681362	17.1192	1.5649	17.1906	-5.223	23.9861	0.274951	-0.00562104	149264	1236.93	1	12	0.00499505	0.000290568	0	-0.000100229	0.0579297	0.00529547	0.0581713	5.223	1.23693e+06	1.35314e+07	1.35878e+07	-84.777	0.0000000E+000	0.0000000E+000	0.0000000E+000	84.777	0.0000000E+000	0.0000000E+000	0.0000000E+000	-84.777	0.0000000E+000	0.0000000E+000	0.0000000E+000	-5.223	0.0000000E+000	0.0000000E+000	0.0000000E+000	5.223	10.9395	84.777	-1.01268e-05	-1.54551e-06	48914.6
0.464091	17.374	1.56255	17.4441	-5.13913	28.5509	0.274953	-0.00478366	219475	1760.97	1	12	0.00499193	0.000286167	0	-0.000124359	0.0570955	0.00513494	0.0573259	5.13913	1.76097e+06	1.95803e+07	1.96593e+07	-84.8609	0.0000000E+000	0.0000000E+000	0.0000000E+000	84.8609	0.0000000E+000	0.0000000E+000	0.0000000E+000	-84.8609	0.0000000E+000	0.0000000E+000	0.0000000E+000	-5.13913	0.0000000E+000	0.0000000E+000	0.0000000E+000	5.13913	11.119	84.8609	-2.41298e-05	-1.31528e-06	57477.6
0.316193	17.6549	1.6455	17.7315	-5.32476	35.2332	0.274954	-0.00468103	305894	2634.36	1	12	0.00499191	0.000281528	0	-0.000157907	0.0561536	0.00523369	0.056397	5.32476	2.63437e+06	2.82648e+07	2.83873e+07	-84.6752	0.0000000E+000	0.0000000E+000	0.0000000E+000	84.6752	0.0000000E+000	0.0000000E+000	0.0000000E+000	-84.6752	0.0000000E+000	0.0000000E+000	0.0000000E+000	-5.32476	0.0000000E+000	0.0000000E+000	0.0000000E+000	5.32476	10.7293	84.6752	-3.35475e-05	-1.28707e-06	58737.9
0.215268	17.9742	1.84695	18.0689	-5.86687	45.031	0.27495	-0.00552956	400300	4182.49	1	12	0.00499505	0.000276445	0	-0.000190114	0.0550539	0.0056571	0.0553438	5.86687	4.18249e+06	4.07033e+07	4.09176e+07	-84.1331	0.0000000E+000	0.0000000E+000	0.0000000E+000	84.1331	0.0000000E+000	0.0000000E+000	0.0000000E+000	-84.1331	0.0000000E+000	0.0000000E+000	0.0000000E+000	-5.86687	0.0000000E+000	0.0000000E+000	0.0000000E+000	5.86687	9.73183	84.1331	-3.22077e-05	-1.52035e-06	49723.6
0.146929	18.305	2.19733	18.4364	-6.84503	59.3676	0.274954	-0.00577739	492966	7002.54	1	12	0.00499274	0.000270809	0	-0.000202642	0.0538538	0.00646461	0.0542404	6.84503	7.00254e+06	5.83351e+07	5.87539e+07	-83.155	0.0000000E+000	0.0000000E+000	0.0000000E+000	83.155	0.0000000E+000	0.0000000E+000	0.0000000E+000	-83.155	0.0000000E+000	0.0000000E+000	0.0000000E+000	-6.84503	0.0000000E+000	0.0000000E+000	0.0000000E+000	6.84503	8.33056	83.155	-1.25273e-05	-1.58851e-06	47591.3
0.0999041	18.665	2.65986	18.8535	-8.11036	80.4375	0.274953	-0.00541702	598933	11920.9	1	12	0.00499435	0.000264903	0	-0.000177464	0.05251	0.00748296	0.0530405	8.11036	1.19209e+07	8.36524e+07	8.44976e+07	-81.8896	0.0000000E+000	0.0000000E+000	0.0000000E+000	81.8896	0.0000000E+000	0.0000000E+000	0.0000000E+000	-81.8896	0.0000000E+000	0.0000000E+000	0.0000000E+000	-8.11036	0.0000000E+000	0.0000000E+000	0.0000000E+000	8.11036	7.01727	81.8896	2.51774e-05	-1.48942e-06	50757.3
0.0680626	19.0983	3.24534	19.372	-9.64407	111.35	0.274957	-0.00414721	720528	20221.9	1	12	0.00499164	0.000257673	0	-0.000112514	0.0508913	0.00864788	0.0516208	9.64407	2.02219e+07	1.19002e+08	1.20708e+08	-80.3559	0.0000000E+000	0.0000000E+000	0.0000000E+000	80.3559	0.0000000E+000	0.0000000E+000	0.0000000E+000	-80.3559	0.0000000E+000	0.0000000E+000	0.0000000E+000	-9.64407	0.0000000E+000	0.0000000E+000	0.0000000E+000	9.64407	5.88482	80.3559	6.49501e-05	-1.1403e-06	66299.4
0.0464052	19.7081	3.98432	20.1068	-11.4292	156.674	0.274955	-0.00159476	860795	33800.3	1	12	0.00499215	0.000248281	0	-9.33649e-06	0.0487481	0.00985523	0.0497344	11.4292	3.38003e+07	1.6719e+08	1.70573e+08	-78.5708	0.0000000E+000	0.0000000E+000	0.0000000E+000	78.5708	0.0000000E+000	0.0000000E+000	0.0000000E+000	-78.5708	0.0000000E+000	0.0000000E+000	0.0000000E+000	-11.4292	0.0000000E+000	0.0000000E+000	0.0000000E+000	11.4292	4.94642	78.5708	0.000103178	-4.38486e-07	172412
0.0315922	20.4342	5.1365	21.0699	-14.11	223.234	0.274957	1.66448e-05	980783	58288.4	1	12	0.0049926	0.000236954	0	5.11156e-05	0.0460291	0.0115702	0.0474611	14.11	5.82884e+07	2.31885e+08	2.39099e+08	-75.89	0.0000000E+000	0.0000000E+000	0.0000000E+000	75.89	0.0000000E+000	0.0000000E+000	0.0000000E+000	-75.89	0.0000000E+000	0.0000000E+000	0.0000000E+000	-14.11	0.0000000E+000	0.0000000E+000	0.0000000E+000	14.11	3.97824	75.89	6.04521e-05	4.57661e-09	1.65191e+07
0.0215268	21.1404	6.68837	22.1732	-17.5563	320.902	0.274955	0.000320394	1.1054e+06	100578	1	12	0.00499105	0.000225094	0	-5.66336e-05	0.0429988	0.0136039	0.0450995	17.5563	1.00578e+08	3.17905e+08	3.33436e+08	-72.4437	0.0000000E+000	0.0000000E+000	0.0000000E+000	72.4437	0.0000000E+000	0.0000000E+000	0.0000000E+000	-72.4437	0.0000000E+000	0.0000000E+000	0.0000000E+000	-17.5563	0.0000000E+000	0.0000000E+000	0.0000000E+000	17.5563	3.16077	72.4437	-0.000107749	8.80939e-08	858175
0.0146812	21.9523	8.59924	23.5765	-21.3914	464.096	0.27495	-7.72644e-05	1.26066e+06	167711	1	12	0.00499158	0.000211719	0	-0.000432185	0.0394931	0.0154704	0.0424151	21.3914	1.67711e+08	4.28135e+08	4.59812e+08	-68.6086	0.0000000E+000	0.0000000E+000	0.0000000E+000	68.6086	0.0000000E+000	0.0000000E+000	0.0000000E+000	-68.6086	0.0000000E+000	0.0000000E+000	0.0000000E+000	-21.3914	0.0000000E+000	0.0000000E+000	0.0000000E+000	21.3914	2.55282	68.6086	-0.000375552	-2.12439e-08	3.55856e+06
0.0100092	23.2138	11.1531	25.7541	-25.662	674.117	0.274951	-0.000629659	1.42569e+06	267378	1	12	0.00499257	0.000193856	0	-0.00102851	0.0349989	0.0168153	0.0388288	25.662	2.67378e+08	5.56515e+08	6.17414e+08	-64.338	0.0000000E+000	0.0000000E+000	0.0000000E+000	64.338	0.0000000E+000	0.0000000E+000	0.0000000E+000	-64.338	0.0000000E+000	0.0000000E+000	0.0000000E+000	-25.662	0.0000000E+000	0.0000000E+000	0.0000000E+000	25.662	2.08137	64.338	-0.000596328	-1.73125e-07	436667