File: txt/17462_R277_UA655_SOC00_C04.mpt
EC-Lab ASCII FILE
Nb header lines : 63

Potentio Electrochemical Impedance Spectroscopy

Run on channel : 4 (SN 66756)
User :
CE vs. WE compliance from -10 V to 10 V
Electrode connection : standard
Potential control : Ewe
Ewe ctrl range : min = -10.00 V, max = 10.00 V
Safety Limits :
	Do not start on E overload
Acquisition started on : 09/12/2025 09:48:52.517
Loaded Setting File :  C:\Users\Celltest\OneDrive - store-dot.com\Documents\EC-Lab\Data\Charmaine\R279\17382.mps
Saved on :
	File : 17462_C04.mpr
	Directory : C:\Users\Celltest\OneDrive - store-dot.com\Documents\EC-Lab\Data\Gyutae\R277\
	Host : 169.254.61.224
Device : VMP-3e (SN .003165)
Address : USB
EC-LAB for windows v11.62 (software)
Internet server v27.00 (firmware)
Command interpretor v12.03 (firmware)
Electrode material :
Initial state :
Electrolyte :
Comments :
Electrode surface area : 0.001 cm²
Characteristic mass : 0.001 g
Equivalent Weight : 0.000 g/eq.
Density : 0.000 g/cm3
Volume (V) : 0.001 cm³
Cycle Definition : Charge/Discharge alternance
Mode                Single sine
E (V)               0.0000
vs.                 Eoc
tE (h:m:s)          0:00:0.0000
record              0
dI                  0.000
unit dI             mA
dt (s)              0.000
fi                  100.000
unit fi             kHz
ff                  10.000
unit ff             mHz
Nd                  6
Points              per decade
spacing             Logarithmic
Va (mV)             5.0
pw                  0.10
Na                  2
corr                0
E range min (V)     -10.000
E range max (V)     10.000
I Range             Auto
Bandwidth           5
nc cycles           0
goto Ns'            0
nr cycles           0
inc. cycle          0

freq/Hz	Re(Z)/Ohm	-Im(Z)/Ohm	|Z|/Ohm	Phase(Z)/deg	time/s	<Ewe>/V	<I>/mA	Cs/µF	Cp/µF	cycle number	I Range	|Ewe|/V	|I|/A	Ns	(Q-Qo)/mA.h	Re(Y)/Ohm-1	Im(Y)/Ohm-1	|Y|/Ohm-1	Phase(Y)/deg	Re(C)/nF	Im(C)/nF	|C|/nF	Phase(C)/deg	Re(M)	Im(M)	|M|	Phase(M)/deg	Re(Permittivity)	Im(Permittivity)	|Permittivity|	Phase(Permittivity)/deg	Re(Resistivity)/Ohm.cm	Im(Resistivity)/Ohm.cm	|Resistivity|/Ohm.cm	Phase(Resistivity)/deg	Re(Conductivity)/mS/cm	Im(Conductivity)/mS/cm	|Conductivity|/mS/cm	Phase(Conductivity)/deg	Tan(Delta)	Loss Angle(Delta)/deg	dq/mA.h	Pwe/W	Rwe/Ohm
100004	1.60735	0.33017	1.64091	-11.6078	2.2265	0.280796	-0.0466442	4.82022	0.19515	1	9	0.00496451	0.00302545	0	-1.15273e-05	0.596953	0.122621	0.609416	11.6078	195.15	950.044	969.88	-78.3922	0.0000000E+000	0.0000000E+000	0.0000000E+000	78.3922	0.0000000E+000	0.0000000E+000	0.0000000E+000	-78.3922	0.0000000E+000	0.0000000E+000	0.0000000E+000	-11.6078	0.0000000E+000	0.0000000E+000	0.0000000E+000	11.6078	4.86827	78.3922	-1.15273e-05	-1.30975e-05	6019.96
68132	1.69427	0.362452	1.7326	-12.0752	2.80449	0.280799	-0.0446115	6.44493	0.282047	1	9	0.00505976	0.00292032	0	-1.28691e-05	0.564396	0.12074	0.577167	12.0752	282.047	1318.42	1348.25	-77.9248	0.0000000E+000	0.0000000E+000	0.0000000E+000	77.9248	0.0000000E+000	0.0000000E+000	0.0000000E+000	-77.9248	0.0000000E+000	0.0000000E+000	0.0000000E+000	-12.0752	0.0000000E+000	0.0000000E+000	0.0000000E+000	12.0752	4.67446	77.9248	-1.34183e-06	-1.25269e-05	6294.32
46420.4	1.7816	0.398033	1.82553	-12.5938	3.38249	0.280805	-0.0401918	8.61375	0.409501	1	9	0.00505018	0.00276642	0	-1.23586e-05	0.534608	0.119438	0.547787	12.5938	409.501	1832.93	1878.12	-77.4062	0.0000000E+000	0.0000000E+000	0.0000000E+000	77.4062	0.0000000E+000	0.0000000E+000	0.0000000E+000	-77.4062	0.0000000E+000	0.0000000E+000	0.0000000E+000	-12.5938	0.0000000E+000	0.0000000E+000	0.0000000E+000	12.5938	4.47602	77.4062	5.10514e-07	-1.12861e-05	6986.62
31621.1	1.87384	0.448568	1.92678	-13.4624	3.96048	0.280796	-0.0488634	11.2206	0.608145	1	9	0.00499167	0.00259068	0	-1.50364e-05	0.50474	0.120827	0.519001	13.4624	608.144	2540.45	2612.23	-76.5376	0.0000000E+000	0.0000000E+000	0.0000000E+000	76.5376	0.0000000E+000	0.0000000E+000	0.0000000E+000	-76.5376	0.0000000E+000	0.0000000E+000	0.0000000E+000	-13.4624	0.0000000E+000	0.0000000E+000	0.0000000E+000	13.4624	4.17738	76.5376	-2.67783e-06	-1.37207e-05	5746.55
21544.7	1.97955	0.502294	2.04229	-14.2378	4.39749	0.280805	-0.0424856	14.7069	0.889621	1	9	0.00519801	0.00254519	0	-2.4171e-05	0.474607	0.120427	0.489647	14.2378	889.621	3506.02	3617.12	-75.7622	0.0000000E+000	0.0000000E+000	0.0000000E+000	75.7622	0.0000000E+000	0.0000000E+000	0.0000000E+000	-75.7622	0.0000000E+000	0.0000000E+000	0.0000000E+000	-14.2378	0.0000000E+000	0.0000000E+000	0.0000000E+000	14.2378	3.94102	75.7622	-9.13452e-06	-1.19302e-05	6609.42
14678.6	2.10899	0.559939	2.18206	-14.8691	4.69348	0.280804	-0.0454507	19.364	1.2751	1	9	0.00483775	0.00221706	0	-2.94378e-05	0.442938	0.1176	0.458283	14.8691	1275.1	4802.62	4969.01	-75.131	0.0000000E+000	0.0000000E+000	0.0000000E+000	75.131	0.0000000E+000	0.0000000E+000	0.0000000E+000	-75.131	0.0000000E+000	0.0000000E+000	0.0000000E+000	-14.8691	0.0000000E+000	0.0000000E+000	0.0000000E+000	14.8691	3.76646	75.131	-5.2668e-06	-1.27627e-05	6178.21
10002.2	2.22681	0.637098	2.31615	-15.966	4.9895	0.280796	-0.042784	24.9757	1.88971	1	9	0.00450645	0.00194566	0	-3.36935e-05	0.415096	0.11876	0.43175	15.966	1889.71	6604.98	6869.99	-74.034	0.0000000E+000	0.0000000E+000	0.0000000E+000	74.034	0.0000000E+000	0.0000000E+000	0.0000000E+000	-74.034	0.0000000E+000	0.0000000E+000	0.0000000E+000	-15.966	0.0000000E+000	0.0000000E+000	0.0000000E+000	15.966	3.49524	74.034	-4.25575e-06	-1.20136e-05	6563.11
6811.07	2.36587	0.728359	2.47545	-17.1115	5.54451	0.280649	-0.0852469	32.0819	2.77742	1	9	0.00486397	0.00196488	0	-4.88674e-05	0.386085	0.11886	0.403967	17.1115	2777.42	9021.69	9439.54	-72.8885	0.0000000E+000	0.0000000E+000	0.0000000E+000	72.8885	0.0000000E+000	0.0000000E+000	0.0000000E+000	-72.8885	0.0000000E+000	0.0000000E+000	0.0000000E+000	-17.1115	0.0000000E+000	0.0000000E+000	0.0000000E+000	17.1115	3.24822	72.8885	-1.51738e-05	-2.39245e-05	3292.19
4641.49	2.53244	0.825837	2.66369	-18.0613	6.01568	0.280855	0.0030171	41.5211	3.99106	1	9	0.00476602	0.00178925	0	-4.75871e-05	0.35692	0.116393	0.375418	18.0613	3991.07	12238.7	12873	-71.9387	0.0000000E+000	0.0000000E+000	0.0000000E+000	71.9387	0.0000000E+000	0.0000000E+000	0.0000000E+000	-71.9387	0.0000000E+000	0.0000000E+000	0.0000000E+000	-18.0613	0.0000000E+000	0.0000000E+000	0.0000000E+000	18.0613	3.06651	71.9387	1.28028e-06	8.4737e-07	93087.7
3161.01	2.72243	0.946217	2.88218	-19.1656	6.48269	0.28085	3.33149e-05	53.2112	5.73513	1	9	0.00470753	0.00163332	0	-4.80154e-05	0.327729	0.113907	0.34696	19.1656	5735.13	16501	17469.2	-70.8344	0.0000000E+000	0.0000000E+000	0.0000000E+000	70.8344	0.0000000E+000	0.0000000E+000	0.0000000E+000	-70.8344	0.0000000E+000	0.0000000E+000	0.0000000E+000	-19.1656	0.0000000E+000	0.0000000E+000	0.0000000E+000	19.1656	2.87717	70.8344	-4.28273e-07	9.35649e-09	8.43016e+06
2155.69	2.94505	1.08153	3.13736	-20.1651	6.94969	0.280843	0.00104034	68.2646	8.11231	1	9	0.00467448	0.00148994	0	-4.86073e-05	0.299202	0.109878	0.31874	20.1651	8112.31	22090.1	23532.6	-69.8349	0.0000000E+000	0.0000000E+000	0.0000000E+000	69.8349	0.0000000E+000	0.0000000E+000	0.0000000E+000	-69.8349	0.0000000E+000	0.0000000E+000	0.0000000E+000	-20.1651	0.0000000E+000	0.0000000E+000	0.0000000E+000	20.1651	2.72304	69.8349	-5.91942e-07	2.92171e-07	269954
1468.59	3.22436	1.23751	3.45368	-20.9968	7.67096	0.280812	-0.0162154	87.5732	11.2436	1	10	0.00476478	0.00137962	0	-5.07632e-05	0.27032	0.103749	0.289546	20.9968	11243.6	29295.3	31378.9	-69.0032	0.0000000E+000	0.0000000E+000	0.0000000E+000	69.0032	0.0000000E+000	0.0000000E+000	0.0000000E+000	-69.0032	0.0000000E+000	0.0000000E+000	0.0000000E+000	-20.9968	0.0000000E+000	0.0000000E+000	0.0000000E+000	20.9968	2.60552	69.0032	-2.15586e-06	-4.55349e-06	17317.6
1000.32	3.52027	1.40575	3.79058	-21.7683	8.13971	0.2808	-0.0170473	113.181	15.5661	1	10	0.00471538	0.00124397	0	-5.38665e-05	0.245	0.0978359	0.263812	21.7683	15566.1	38980.5	41973.6	-68.2317	0.0000000E+000	0.0000000E+000	0.0000000E+000	68.2317	0.0000000E+000	0.0000000E+000	0.0000000E+000	-68.2317	0.0000000E+000	0.0000000E+000	0.0000000E+000	-21.7683	0.0000000E+000	0.0000000E+000	0.0000000E+000	21.7683	2.50419	68.2317	-3.10338e-06	-4.78688e-06	16471.9
681.09	3.86539	1.59382	4.18108	-22.4078	8.60541	0.280806	-0.016885	146.615	21.3047	1	10	0.0046869	0.00112098	0	-5.64967e-05	0.221113	0.0911718	0.239172	22.4078	21304.7	51669.1	55889.1	-67.5922	0.0000000E+000	0.0000000E+000	0.0000000E+000	67.5922	0.0000000E+000	0.0000000E+000	0.0000000E+000	-67.5922	0.0000000E+000	0.0000000E+000	0.0000000E+000	-22.4078	0.0000000E+000	0.0000000E+000	0.0000000E+000	22.4078	2.42524	67.5922	-2.63018e-06	-4.74141e-06	16630.5
463.961	4.2518	1.797	4.61595	-22.9111	9.07421	0.280799	-0.0167283	190.893	28.9311	1	10	0.00466138	0.00100984	0	-5.84471e-05	0.199549	0.0843385	0.21664	22.9111	28931.1	68452.5	74315.2	-67.0889	0.0000000E+000	0.0000000E+000	0.0000000E+000	67.0889	0.0000000E+000	0.0000000E+000	0.0000000E+000	-67.0889	0.0000000E+000	0.0000000E+000	0.0000000E+000	-22.9111	0.0000000E+000	0.0000000E+000	0.0000000E+000	22.9111	2.36605	67.0889	-1.95038e-06	-4.69729e-06	16785.8
316.316	4.68749	2.03254	5.10919	-23.442	9.54092	0.280804	-0.0167918	247.549	39.1772	1	10	0.00464612	0.000909366	0	-6.10738e-05	0.179571	0.0778636	0.195726	23.442	39177.2	90351.7	98479.8	-66.558	0.0000000E+000	0.0000000E+000	0.0000000E+000	66.558	0.0000000E+000	0.0000000E+000	0.0000000E+000	-66.558	0.0000000E+000	0.0000000E+000	0.0000000E+000	-23.442	0.0000000E+000	0.0000000E+000	0.0000000E+000	23.442	2.30623	66.558	-2.6267e-06	-4.71519e-06	16722.7
215.345	5.20947	2.30069	5.69489	-23.8279	10.0084	0.280799	-0.0170212	321.239	52.4292	1	10	0.00464156	0.000815039	0	-6.38247e-05	0.160629	0.0709393	0.175596	23.8279	52429.2	118716	129778	-66.1721	0.0000000E+000	0.0000000E+000	0.0000000E+000	66.1721	0.0000000E+000	0.0000000E+000	0.0000000E+000	-66.1721	0.0000000E+000	0.0000000E+000	0.0000000E+000	-23.8279	0.0000000E+000	0.0000000E+000	0.0000000E+000	23.8279	2.26431	66.1721	-2.75087e-06	-4.77954e-06	16497.1
146.737	5.81168	2.56758	6.35359	-23.8356	10.4714	0.280804	-0.0180041	422.431	68.9865	1	10	0.00463195	0.000729029	0	-6.55671e-05	0.143967	0.0636041	0.157391	23.8356	68986.5	156150	170710	-66.1644	0.0000000E+000	0.0000000E+000	0.0000000E+000	66.1644	0.0000000E+000	0.0000000E+000	0.0000000E+000	-66.1644	0.0000000E+000	0.0000000E+000	0.0000000E+000	-23.8356	0.0000000E+000	0.0000000E+000	0.0000000E+000	23.8356	2.26349	66.1644	-1.7424e-06	-5.05562e-06	15596.7
100.032	6.53037	2.81111	7.10972	-23.2903	10.9387	0.280799	-0.0168589	565.983	88.4818	1	10	0.00463074	0.000651325	0	-6.70504e-05	0.129191	0.0556126	0.140653	23.2903	88481.8	205548	223784	-66.7097	0.0000000E+000	0.0000000E+000	0.0000000E+000	66.7097	0.0000000E+000	0.0000000E+000	0.0000000E+000	-66.7097	0.0000000E+000	0.0000000E+000	0.0000000E+000	-23.2903	0.0000000E+000	0.0000000E+000	0.0000000E+000	23.2903	2.32306	66.7097	-1.48334e-06	-4.73397e-06	16655.8
68.104	7.35065	2.98859	7.93496	-22.1254	11.4173	0.280802	-0.0141751	781.955	110.923	1	10	0.00462177	0.000582456	0	-6.83957e-05	0.116744	0.0474652	0.126025	22.1254	110923	272824	294512	-67.8746	0.0000000E+000	0.0000000E+000	0.0000000E+000	67.8746	0.0000000E+000	0.0000000E+000	0.0000000E+000	-67.8746	0.0000000E+000	0.0000000E+000	0.0000000E+000	-22.1254	0.0000000E+000	0.0000000E+000	0.0000000E+000	22.1254	2.45957	67.8746	-1.34534e-06	-3.98038e-06	19809.6
46.4415	8.25703	3.06628	8.80799	-20.3727	11.8725	0.280789	-0.0200258	1117.64	135.448	1	10	0.00462589	0.000525193	0	-7.03277e-05	0.106432	0.0395238	0.113533	20.3727	135448	364741	389078	-69.6274	0.0000000E+000	0.0000000E+000	0.0000000E+000	69.6274	0.0000000E+000	0.0000000E+000	0.0000000E+000	-69.6274	0.0000000E+000	0.0000000E+000	0.0000000E+000	-20.3727	0.0000000E+000	0.0000000E+000	0.0000000E+000	20.3727	2.69285	69.6274	-1.93198e-06	-5.62303e-06	14021.3
31.6296	9.13979	2.97061	9.61043	-18.0052	12.3194	0.28079	-0.0219562	1693.87	161.841	1	10	0.00462598	0.00048135	0	-7.31028e-05	0.098958	0.0321633	0.104054	18.0052	161841	497941	523582	-71.9948	0.0000000E+000	0.0000000E+000	0.0000000E+000	71.9948	0.0000000E+000	0.0000000E+000	0.0000000E+000	-71.9948	0.0000000E+000	0.0000000E+000	0.0000000E+000	-18.0052	0.0000000E+000	0.0000000E+000	0.0000000E+000	18.0052	3.07673	71.9948	-2.77503e-06	-6.16508e-06	12788.6
21.5517	9.94381	2.76735	10.3217	-15.5518	12.7584	0.280777	-0.0244312	2668.55	191.822	1	10	0.00462824	0.000448399	0	-7.50238e-05	0.0933362	0.0259753	0.0968832	15.5518	191822	689268	715462	-74.4482	0.0000000E+000	0.0000000E+000	0.0000000E+000	74.4482	0.0000000E+000	0.0000000E+000	0.0000000E+000	-74.4482	0.0000000E+000	0.0000000E+000	0.0000000E+000	-15.5518	0.0000000E+000	0.0000000E+000	0.0000000E+000	15.5518	3.59326	74.4482	-1.921e-06	-6.85972e-06	11492.6
14.6852	10.65	2.4965	10.9387	-13.1927	13.236	0.280807	-0.0143951	4341.21	226.122	1	10	0.00462299	0.000422628	0	-7.61894e-05	0.0890061	0.0208642	0.0914188	13.1927	226123	964631	990780	-76.8073	0.0000000E+000	0.0000000E+000	0.0000000E+000	76.8073	0.0000000E+000	0.0000000E+000	0.0000000E+000	-76.8073	0.0000000E+000	0.0000000E+000	0.0000000E+000	-13.1927	0.0000000E+000	0.0000000E+000	0.0000000E+000	13.1927	4.26597	76.8073	-1.1657e-06	-4.04226e-06	19507.1
10.0032	11.2343	2.22209	11.4519	-11.1884	13.7047	0.280791	-0.0162043	7160.12	269.579	1	10	0.00462218	0.000403616	0	-7.72513e-05	0.085662	0.0169436	0.0873216	11.1884	269579	1.36292e+06	1.38932e+06	-78.8116	0.0000000E+000	0.0000000E+000	0.0000000E+000	78.8116	0.0000000E+000	0.0000000E+000	0.0000000E+000	-78.8116	0.0000000E+000	0.0000000E+000	0.0000000E+000	-11.1884	0.0000000E+000	0.0000000E+000	0.0000000E+000	11.1884	5.05573	78.8116	-1.06185e-06	-4.55002e-06	17328.2
6.81719	11.7788	1.949	11.939	-9.39539	14.2674	0.280823	-0.00732486	11978.5	319.22	1	11	0.00462755	0.000387599	0	-7.82641e-05	0.0826355	0.0136734	0.0837591	9.39539	319220	1.92922e+06	1.95545e+06	-80.6046	0.0000000E+000	0.0000000E+000	0.0000000E+000	80.6046	0.0000000E+000	0.0000000E+000	0.0000000E+000	-80.6046	0.0000000E+000	0.0000000E+000	0.0000000E+000	-9.39539	0.0000000E+000	0.0000000E+000	0.0000000E+000	9.39539	6.04353	80.6046	-1.01276e-06	-2.05699e-06	38338.4
4.63925	12.2163	1.70744	12.3351	-7.95652	14.7703	0.280828	-0.00645279	20092.2	384.977	1	11	0.0046185	0.00037442	0	-7.70209e-05	0.0802892	0.0112218	0.0810697	7.95652	384977	2.75442e+06	2.78119e+06	-82.0435	0.0000000E+000	0.0000000E+000	0.0000000E+000	82.0435	0.0000000E+000	0.0000000E+000	0.0000000E+000	-82.0435	0.0000000E+000	0.0000000E+000	0.0000000E+000	-7.95652	0.0000000E+000	0.0000000E+000	0.0000000E+000	7.95652	7.15476	82.0435	1.24317e-06	-1.81212e-06	43520.4
3.1604	12.5571	1.50653	12.6471	-6.84132	15.4792	0.280832	-0.00513405	33427.4	474.32	1	11	0.00462393	0.000365612	0	-8.42999e-05	0.0785064	0.00941875	0.0790694	6.84132	474321	3.95352e+06	3.98187e+06	-83.1587	0.0000000E+000	0.0000000E+000	0.0000000E+000	83.1587	0.0000000E+000	0.0000000E+000	0.0000000E+000	-83.1587	0.0000000E+000	0.0000000E+000	0.0000000E+000	-6.84132	0.0000000E+000	0.0000000E+000	0.0000000E+000	6.84132	8.33512	83.1587	-7.279e-06	-1.44181e-06	54699.9
2.15577	12.8558	1.33282	12.9247	-5.91895	16.4958	0.280847	-0.00404121	55392.2	589.042	1	11	0.00462471	0.000357819	0	-8.79148e-05	0.0769587	0.00797862	0.0773711	5.91895	589042	5.68167e+06	5.71212e+06	-84.0811	0.0000000E+000	0.0000000E+000	0.0000000E+000	84.0811	0.0000000E+000	0.0000000E+000	0.0000000E+000	-84.0811	0.0000000E+000	0.0000000E+000	0.0000000E+000	-5.91895	0.0000000E+000	0.0000000E+000	0.0000000E+000	5.91895	9.6456	84.0811	-3.61492e-06	-1.13496e-06	69495.7
1.46631	13.0986	1.21221	13.1546	-5.28736	17.969	0.280843	-0.00478668	89540.1	760.356	1	11	0.00462373	0.000351492	0	-8.30528e-05	0.0756957	0.00700523	0.0760191	5.28736	760356	8.21609e+06	8.2512e+06	-84.7126	0.0000000E+000	0.0000000E+000	0.0000000E+000	84.7126	0.0000000E+000	0.0000000E+000	0.0000000E+000	-84.7126	0.0000000E+000	0.0000000E+000	0.0000000E+000	-5.28736	0.0000000E+000	0.0000000E+000	0.0000000E+000	5.28736	10.8056	84.7126	4.86204e-06	-1.34431e-06	58671.8
1.00006	13.2983	1.1284	13.3461	-4.85007	20.1093	0.280842	-0.00445275	141036	1008.19	1	11	0.00462673	0.000346672	0	-7.37099e-05	0.0746599	0.00633507	0.0749282	4.85007	1.00819e+06	1.18817e+07	1.19244e+07	-85.1499	0.0000000E+000	0.0000000E+000	0.0000000E+000	85.1499	0.0000000E+000	0.0000000E+000	0.0000000E+000	-85.1499	0.0000000E+000	0.0000000E+000	0.0000000E+000	-4.85007	0.0000000E+000	0.0000000E+000	0.0000000E+000	4.85007	11.7852	85.1499	9.34291e-06	-1.25052e-06	63071.5
0.681362	13.4979	1.10169	13.5428	-4.66612	23.2313	0.280842	-0.00342521	212022	1403.09	1	11	0.00462768	0.000341708	0	-6.72041e-05	0.0735953	0.00600682	0.07384	4.66612	1.40309e+06	1.71906e+07	1.72478e+07	-85.3339	0.0000000E+000	0.0000000E+000	0.0000000E+000	85.3339	0.0000000E+000	0.0000000E+000	0.0000000E+000	-85.3339	0.0000000E+000	0.0000000E+000	0.0000000E+000	-4.66612	0.0000000E+000	0.0000000E+000	0.0000000E+000	4.66612	12.252	85.3339	6.50577e-06	-9.61942e-07	81992.6
0.464091	13.6837	1.16665	13.7334	-4.87313	27.7956	0.280844	-0.00148472	293953	2121.3	1	11	0.00462727	0.000336936	0	-7.3551e-05	0.0725521	0.00618564	0.0728153	4.87313	2.1213e+06	2.4881e+07	2.49712e+07	-85.1269	0.0000000E+000	0.0000000E+000	0.0000000E+000	85.1269	0.0000000E+000	0.0000000E+000	0.0000000E+000	-85.1269	0.0000000E+000	0.0000000E+000	0.0000000E+000	-4.87313	0.0000000E+000	0.0000000E+000	0.0000000E+000	4.87313	11.7291	85.1269	-6.3469e-06	-4.16974e-07	189157
0.316193	13.8505	1.30566	13.9119	-5.38525	34.4761	0.280847	-0.000275572	385512	3395.67	1	11	0.00462665	0.000332568	0	-9.96119e-05	0.0715638	0.00674618	0.071881	5.38525	3.39567e+06	3.60214e+07	3.61811e+07	-84.6147	0.0000000E+000	0.0000000E+000	0.0000000E+000	84.6147	0.0000000E+000	0.0000000E+000	0.0000000E+000	-84.6147	0.0000000E+000	0.0000000E+000	0.0000000E+000	-5.38525	0.0000000E+000	0.0000000E+000	0.0000000E+000	5.38525	10.608	84.6147	-2.6061e-05	-7.73937e-08	1.01914e+06
0.215268	14.0555	1.50223	14.1356	-6.1005	44.2738	0.280847	-0.000670284	492159	5558.38	1	11	0.00462686	0.00032732	0	-0.0001457	0.0703428	0.00751809	0.0707434	6.1005	5.55838e+06	5.20068e+07	5.2303e+07	-83.8995	0.0000000E+000	0.0000000E+000	0.0000000E+000	83.8995	0.0000000E+000	0.0000000E+000	0.0000000E+000	-83.8995	0.0000000E+000	0.0000000E+000	0.0000000E+000	-6.1005	0.0000000E+000	0.0000000E+000	0.0000000E+000	6.1005	9.35647	83.8995	-4.60879e-05	-1.88247e-07	418997
0.146929	14.3359	1.80991	14.4497	-7.19552	58.6095	0.280841	-0.00239792	598489	9389.7	1	11	0.00462968	0.0003204	0	-0.000199516	0.0686605	0.00866839	0.0692055	7.19552	9.3897e+06	7.43738e+07	7.49642e+07	-82.8045	0.0000000E+000	0.0000000E+000	0.0000000E+000	82.8045	0.0000000E+000	0.0000000E+000	0.0000000E+000	-82.8045	0.0000000E+000	0.0000000E+000	0.0000000E+000	-7.19552	0.0000000E+000	0.0000000E+000	0.0000000E+000	7.19552	7.92079	82.8045	-5.38162e-05	-6.73433e-07	117119
0.0999041	14.6747	2.29139	14.8525	-8.87482	79.6794	0.280846	-0.00370903	695244	16547.6	1	11	0.00462945	0.000311695	0	-0.000231662	0.0665225	0.0103872	0.0673286	8.87482	1.65476e+07	1.05976e+08	1.0726e+08	-81.1252	0.0000000E+000	0.0000000E+000	0.0000000E+000	81.1252	0.0000000E+000	0.0000000E+000	0.0000000E+000	-81.1252	0.0000000E+000	0.0000000E+000	0.0000000E+000	-8.87482	0.0000000E+000	0.0000000E+000	0.0000000E+000	8.87482	6.40428	81.1252	-3.21462e-05	-1.04167e-06	75719.5
0.0680626	15.0408	2.92945	15.3234	-11.0213	110.592	0.28085	-0.00389059	798225	29173.3	1	11	0.00463045	0.000302181	0	-0.000212945	0.0640559	0.012476	0.0652595	11.0213	2.91733e+07	1.49786e+08	1.526e+08	-78.9787	0.0000000E+000	0.0000000E+000	0.0000000E+000	78.9787	0.0000000E+000	0.0000000E+000	0.0000000E+000	-78.9787	0.0000000E+000	0.0000000E+000	0.0000000E+000	-11.0213	0.0000000E+000	0.0000000E+000	0.0000000E+000	11.0213	5.13435	78.9787	1.87176e-05	-1.09267e-06	72187
0.0464052	15.4356	3.67698	15.8676	-13.3989	155.916	0.28085	-0.00231724	932743	50087	1	11	0.00462733	0.000291622	0	-8.11905e-05	0.0613062	0.014604	0.0630217	13.3989	5.0087e+07	2.10261e+08	2.16144e+08	-76.6011	0.0000000E+000	0.0000000E+000	0.0000000E+000	76.6011	0.0000000E+000	0.0000000E+000	0.0000000E+000	-76.6011	0.0000000E+000	0.0000000E+000	0.0000000E+000	-13.3989	0.0000000E+000	0.0000000E+000	0.0000000E+000	13.3989	4.19791	76.6011	0.000131754	-6.50796e-07	121200
0.0315922	16.0068	4.7071	16.6846	-16.3869	254.213	0.280838	-0.00110978	1.07025e+06	85184.8	1	12	0.00462479	0.00027719	0	0.000136552	0.0575009	0.0169092	0.0599355	16.3869	8.51848e+07	2.89677e+08	3.01943e+08	-73.6131	0.0000000E+000	0.0000000E+000	0.0000000E+000	73.6131	0.0000000E+000	0.0000000E+000	0.0000000E+000	-73.6131	0.0000000E+000	0.0000000E+000	0.0000000E+000	-16.3869	0.0000000E+000	0.0000000E+000	0.0000000E+000	16.3869	3.40057	73.6131	0.000217743	-3.11668e-07	253057
0.0215268	16.7993	6.11864	17.8789	-20.0126	351.882	0.280834	0.000316685	1.20833e+06	141519	1	12	0.00462566	0.000258722	0	0.000330895	0.0525545	0.0191414	0.0559319	20.0126	1.41519e+08	3.88554e+08	4.13524e+08	-69.9874	0.0000000E+000	0.0000000E+000	0.0000000E+000	69.9874	0.0000000E+000	0.0000000E+000	0.0000000E+000	-69.9874	0.0000000E+000	0.0000000E+000	0.0000000E+000	-20.0126	0.0000000E+000	0.0000000E+000	0.0000000E+000	20.0126	2.7456	69.9874	0.000194343	8.8936e-08	886795
0.0146812	17.5625	8.19618	19.3809	-25.0178	495.078	0.280838	0.000618272	1.32266e+06	236550	1	12	0.00462715	0.000238748	0	0.00027821	0.0467562	0.0218204	0.0515972	25.0178	2.3655e+08	5.06872e+08	5.59352e+08	-64.9822	0.0000000E+000	0.0000000E+000	0.0000000E+000	64.9822	0.0000000E+000	0.0000000E+000	0.0000000E+000	-64.9822	0.0000000E+000	0.0000000E+000	0.0000000E+000	-25.0178	0.0000000E+000	0.0000000E+000	0.0000000E+000	25.0178	2.14277	64.9822	-5.26844e-05	1.73634e-07	454231
0.0100092	18.4784	10.7986	21.4024	-30.3017	705.098	0.280839	0.000190154	1.47249e+06	374857	1	12	0.00462497	0.000216096	0	-0.000216925	0.0403404	0.0235746	0.0467237	30.3017	3.74857e+08	6.41449e+08	7.4295e+08	-59.6983	0.0000000E+000	0.0000000E+000	0.0000000E+000	59.6983	0.0000000E+000	0.0000000E+000	0.0000000E+000	-59.6983	0.0000000E+000	0.0000000E+000	0.0000000E+000	-30.3017	0.0000000E+000	0.0000000E+000	0.0000000E+000	30.3017	1.71118	59.6983	-0.000495136	5.34028e-08	1.4769e+06