File: txt/17465_C06.mpt
EC-Lab ASCII FILE
Nb header lines : 64

Potentio Electrochemical Impedance Spectroscopy

Run on channel : 6 (SN 65795)
User :
CE vs. WE compliance from -10 V to 10 V
Electrode connection : standard
Potential control : Ewe
Ewe ctrl range : min = -10.00 V, max = 10.00 V
Safety Limits :
	Do not start on E overload
Acquisition started on : 09/12/2025 10:00:54.865
Technique started on : 09/12/2025 10:00:56.730
Loaded Setting File :  C:\Users\Celltest\OneDrive - store-dot.com\Documents\EC-Lab\Data\Charmaine\R279\17383.mps
Saved on :
	File : 17465_C06.mpr
	Directory : C:\Users\Celltest\OneDrive - store-dot.com\Documents\EC-Lab\Data\Gyutae\R277\
	Host : 169.254.61.224
Device : VMP-3e (SN .003165)
Address : USB
EC-LAB for windows v11.62 (software)
Internet server v27.00 (firmware)
Command interpretor v12.03 (firmware)
Electrode material :
Initial state :
Electrolyte :
Comments :
Electrode surface area : 0.001 cm²
Characteristic mass : 0.001 g
Equivalent Weight : 0.000 g/eq.
Density : 0.000 g/cm3
Volume (V) : 0.001 cm³
Cycle Definition : Charge/Discharge alternance
Mode                Single sine
E (V)               0.0000
vs.                 Eoc
tE (h:m:s)          0:00:0.0000
record              0
dI                  0.000
unit dI             mA
dt (s)              0.000
fi                  100.000
unit fi             kHz
ff                  10.000
unit ff             mHz
Nd                  6
Points              per decade
spacing             Logarithmic
Va (mV)             5.0
pw                  0.10
Na                  2
corr                0
E range min (V)     -10.000
E range max (V)     10.000
I Range             Auto
Bandwidth           5
nc cycles           0
goto Ns'            0
nr cycles           0
inc. cycle          0

freq/Hz	Re(Z)/Ohm	-Im(Z)/Ohm	|Z|/Ohm	Phase(Z)/deg	time/s	<Ewe>/V	<I>/mA	Cs/µF	Cp/µF	cycle number	I Range	|Ewe|/V	|I|/A	Ns	(Q-Qo)/mA.h	Re(Y)/Ohm-1	Im(Y)/Ohm-1	|Y|/Ohm-1	Phase(Y)/deg	Re(C)/nF	Im(C)/nF	|C|/nF	Phase(C)/deg	Re(M)	Im(M)	|M|	Phase(M)/deg	Re(Permittivity)	Im(Permittivity)	|Permittivity|	Phase(Permittivity)/deg	Re(Resistivity)/Ohm.cm	Im(Resistivity)/Ohm.cm	|Resistivity|/Ohm.cm	Phase(Resistivity)/deg	Re(Conductivity)/mS/cm	Im(Conductivity)/mS/cm	|Conductivity|/mS/cm	Phase(Conductivity)/deg	Tan(Delta)	Loss Angle(Delta)/deg	dq/mA.h	Pwe/W	Rwe/Ohm
100004	1.1073	0.243075	1.13367	-12.3812	1.86549	0.273012	0.0497964	6.54732	0.301003	1	9	0.00471439	0.00415852	0	-8.10833e-06	0.861575	0.189133	0.88209	12.3812	301.003	1371.19	1403.84	-77.6188	0.0000000E+000	0.0000000E+000	0.0000000E+000	77.6188	0.0000000E+000	0.0000000E+000	0.0000000E+000	-77.6188	0.0000000E+000	0.0000000E+000	0.0000000E+000	-12.3812	0.0000000E+000	0.0000000E+000	0.0000000E+000	12.3812	4.5554	77.6188	-8.10833e-06	1.3595e-05	5482.56
68132	1.16797	0.270775	1.19894	-13.0526	2.4435	0.272999	0.0468537	8.627	0.440027	1	9	0.0050346	0.00419919	0	7.87959e-06	0.812517	0.18837	0.834067	13.0526	440.027	1898.02	1948.36	-76.9474	0.0000000E+000	0.0000000E+000	0.0000000E+000	76.9474	0.0000000E+000	0.0000000E+000	0.0000000E+000	-76.9474	0.0000000E+000	0.0000000E+000	0.0000000E+000	-13.0526	0.0000000E+000	0.0000000E+000	0.0000000E+000	13.0526	4.31342	76.9474	1.59879e-05	1.2791e-05	5826.63
46420.4	1.23694	0.302709	1.27344	-13.7514	3.02148	0.27299	0.0486417	11.3262	0.639999	1	9	0.00509047	0.00399742	0	1.09931e-05	0.762765	0.186667	0.785274	13.7514	639.999	2615.19	2692.36	-76.2486	0.0000000E+000	0.0000000E+000	0.0000000E+000	76.2486	0.0000000E+000	0.0000000E+000	0.0000000E+000	-76.2486	0.0000000E+000	0.0000000E+000	0.0000000E+000	-13.7514	0.0000000E+000	0.0000000E+000	0.0000000E+000	13.7514	4.08623	76.2486	3.11351e-06	1.32787e-05	5612.27
31621.1	1.30633	0.344973	1.35111	-14.7929	3.60049	0.272984	0.0501503	14.5901	0.951142	1	9	0.00499451	0.0036966	0	2.63031e-05	0.7156	0.188974	0.740132	14.7929	951.142	3601.75	3725.22	-75.2071	0.0000000E+000	0.0000000E+000	0.0000000E+000	75.2071	0.0000000E+000	0.0000000E+000	0.0000000E+000	-75.2071	0.0000000E+000	0.0000000E+000	0.0000000E+000	-14.7929	0.0000000E+000	0.0000000E+000	0.0000000E+000	14.7929	3.78676	75.2071	1.531e-05	1.36902e-05	5443.33
21544.7	1.39007	0.388311	1.44329	-15.6075	4.03748	0.272975	0.0465184	19.0239	1.37707	1	9	0.00541183	0.00374965	0	3.63341e-05	0.667315	0.186412	0.692863	15.6075	1377.07	4929.59	5118.32	-74.3925	0.0000000E+000	0.0000000E+000	0.0000000E+000	74.3925	0.0000000E+000	0.0000000E+000	0.0000000E+000	-74.3925	0.0000000E+000	0.0000000E+000	0.0000000E+000	-15.6075	0.0000000E+000	0.0000000E+000	0.0000000E+000	15.6075	3.57978	74.3925	1.0031e-05	1.26983e-05	5868.1
14678.6	1.47719	0.438765	1.54097	-16.5428	4.33349	0.272983	0.0476545	24.7118	2.00344	1	9	0.00511268	0.00331782	0	3.97696e-05	0.622079	0.184774	0.64894	16.5428	2003.44	6744.98	7036.24	-73.4572	0.0000000E+000	0.0000000E+000	0.0000000E+000	73.4572	0.0000000E+000	0.0000000E+000	0.0000000E+000	-73.4572	0.0000000E+000	0.0000000E+000	0.0000000E+000	-16.5428	0.0000000E+000	0.0000000E+000	0.0000000E+000	16.5428	3.3667	73.4572	3.43552e-06	1.30089e-05	5728.37
10002.2	1.57473	0.499809	1.65214	-17.6091	4.62948	0.272988	0.0505786	31.8361	2.91362	1	9	0.00464631	0.00281229	0	4.44622e-05	0.576913	0.183109	0.605275	17.6091	2913.61	9179.81	9631.1	-72.3909	0.0000000E+000	0.0000000E+000	0.0000000E+000	72.3909	0.0000000E+000	0.0000000E+000	0.0000000E+000	-72.3909	0.0000000E+000	0.0000000E+000	0.0000000E+000	-17.6091	0.0000000E+000	0.0000000E+000	0.0000000E+000	17.6091	3.15066	72.3909	4.69259e-06	1.38074e-05	5397.3
6811.07	1.69581	0.571136	1.7894	-18.6132	5.18452	0.272742	-0.109391	40.9134	4.16801	1	9	0.0049225	0.00275092	0	3.01275e-05	0.529616	0.178371	0.558846	18.6132	4168.01	12375.6	13058.6	-71.3868	0.0000000E+000	0.0000000E+000	0.0000000E+000	71.3868	0.0000000E+000	0.0000000E+000	0.0000000E+000	-71.3868	0.0000000E+000	0.0000000E+000	0.0000000E+000	-18.6132	0.0000000E+000	0.0000000E+000	0.0000000E+000	18.6132	2.96918	71.3868	-1.43347e-05	-2.98356e-05	2493.27
4641.49	1.82193	0.654965	1.93608	-19.773	5.65569	0.272942	0.0691291	52.3534	5.99148	1	9	0.00476902	0.00246323	0	4.06939e-05	0.486054	0.174731	0.516507	19.773	5991.48	16666.6	17710.8	-70.227	0.0000000E+000	0.0000000E+000	0.0000000E+000	70.227	0.0000000E+000	0.0000000E+000	0.0000000E+000	-70.227	0.0000000E+000	0.0000000E+000	0.0000000E+000	-19.773	0.0000000E+000	0.0000000E+000	0.0000000E+000	19.773	2.78172	70.227	1.05663e-05	1.88682e-05	3948.29
3161.01	1.97804	0.747062	2.11442	-20.6904	6.1227	0.272944	0.0665588	67.3965	8.41337	1	9	0.00469239	0.00221924	0	4.78208e-05	0.442441	0.1671	0.472944	20.6904	8413.37	22276.6	23812.4	-69.3096	0.0000000E+000	0.0000000E+000	0.0000000E+000	69.3096	0.0000000E+000	0.0000000E+000	0.0000000E+000	-69.3096	0.0000000E+000	0.0000000E+000	0.0000000E+000	-20.6904	0.0000000E+000	0.0000000E+000	0.0000000E+000	20.6904	2.64776	69.3096	7.12696e-06	1.81668e-05	4100.79
2155.69	2.14293	0.857029	2.30795	-21.7981	6.58969	0.272944	0.0690173	86.1466	11.8789	1	9	0.0046455	0.00201282	0	5.63113e-05	0.402304	0.160895	0.433284	21.7981	11878.9	29702.2	31989.5	-68.2019	0.0000000E+000	0.0000000E+000	0.0000000E+000	68.2019	0.0000000E+000	0.0000000E+000	0.0000000E+000	-68.2019	0.0000000E+000	0.0000000E+000	0.0000000E+000	-21.7981	0.0000000E+000	0.0000000E+000	0.0000000E+000	21.7981	2.50042	68.2019	8.49048e-06	1.88379e-05	3954.72
1468.59	2.32393	0.984168	2.52373	-22.9523	7.05694	0.27294	0.0637651	110.116	16.7457	1	9	0.00461422	0.00182833	0	6.52792e-05	0.364868	0.154519	0.396239	22.9523	16745.6	39541.7	42941.4	-67.0477	0.0000000E+000	0.0000000E+000	0.0000000E+000	67.0477	0.0000000E+000	0.0000000E+000	0.0000000E+000	-67.0477	0.0000000E+000	0.0000000E+000	0.0000000E+000	-22.9523	0.0000000E+000	0.0000000E+000	0.0000000E+000	22.9523	2.36131	67.0477	8.96788e-06	1.7404e-05	4280.4
1000.32	2.53804	1.14263	2.78339	-24.2374	7.5257	0.272941	0.0635788	139.243	23.466	1	9	0.00460099	0.00165302	0	7.1267e-05	0.327605	0.147488	0.359274	24.2374	23466	52123.2	57161.9	-65.7626	0.0000000E+000	0.0000000E+000	0.0000000E+000	65.7626	0.0000000E+000	0.0000000E+000	0.0000000E+000	-65.7626	0.0000000E+000	0.0000000E+000	0.0000000E+000	-24.2374	0.0000000E+000	0.0000000E+000	0.0000000E+000	24.2374	2.22123	65.7626	5.98778e-06	1.73532e-05	4292.95
681.09	2.78519	1.35197	3.09598	-25.8926	8.24544	0.272921	-0.019593	172.842	32.9599	1	10	0.00466048	0.00150533	0	7.33251e-05	0.290575	0.141049	0.322999	25.8926	32959.9	67900.6	75477.4	-64.1074	0.0000000E+000	0.0000000E+000	0.0000000E+000	64.1074	0.0000000E+000	0.0000000E+000	0.0000000E+000	-64.1074	0.0000000E+000	0.0000000E+000	0.0000000E+000	-25.8926	0.0000000E+000	0.0000000E+000	0.0000000E+000	25.8926	2.0601	64.1074	2.05809e-06	-5.34736e-06	13929.5
463.961	3.08287	1.61979	3.4825	-27.7181	8.71419	0.27292	-0.0189837	211.778	45.8158	1	10	0.00463781	0.00133175	0	7.09277e-05	0.254199	0.13356	0.28715	27.7181	45815.8	87199.2	98502.7	-62.2819	0.0000000E+000	0.0000000E+000	0.0000000E+000	62.2819	0.0000000E+000	0.0000000E+000	0.0000000E+000	-62.2819	0.0000000E+000	0.0000000E+000	0.0000000E+000	-27.7181	0.0000000E+000	0.0000000E+000	0.0000000E+000	27.7181	1.90325	62.2819	-2.39735e-06	-5.18104e-06	14376.5
316.316	3.46015	1.94049	3.96713	-29.2842	9.1809	0.272918	-0.0190769	259.291	62.038	1	10	0.00461484	0.00116327	0	6.7827e-05	0.219858	0.123299	0.252072	29.2842	62038	110622	126830	-60.7158	0.0000000E+000	0.0000000E+000	0.0000000E+000	60.7158	0.0000000E+000	0.0000000E+000	0.0000000E+000	-60.7158	0.0000000E+000	0.0000000E+000	0.0000000E+000	-29.2842	0.0000000E+000	0.0000000E+000	0.0000000E+000	29.2842	1.78313	60.7158	-3.10068e-06	-5.20643e-06	14306.2
215.345	3.94573	2.31186	4.57312	-30.3666	9.64842	0.272925	-0.0184061	319.687	81.6999	1	10	0.0045954	0.00100487	0	6.4882e-05	0.188669	0.110544	0.218669	30.3666	81699.9	139440	161612	-59.6334	0.0000000E+000	0.0000000E+000	0.0000000E+000	59.6334	0.0000000E+000	0.0000000E+000	0.0000000E+000	-59.6334	0.0000000E+000	0.0000000E+000	0.0000000E+000	-30.3666	0.0000000E+000	0.0000000E+000	0.0000000E+000	30.3666	1.70674	59.6334	-2.94505e-06	-5.0235e-06	14828
146.737	4.57674	2.69491	5.31122	-30.4907	10.1114	0.272925	-0.0187508	402.472	103.618	1	10	0.00458364	0.000863011	0	6.31214e-05	0.162244	0.0955335	0.188281	30.4907	103618	175973	204214	-59.5093	0.0000000E+000	0.0000000E+000	0.0000000E+000	59.5093	0.0000000E+000	0.0000000E+000	0.0000000E+000	-59.5093	0.0000000E+000	0.0000000E+000	0.0000000E+000	-30.4907	0.0000000E+000	0.0000000E+000	0.0000000E+000	30.4907	1.69829	59.5093	-1.76062e-06	-5.11758e-06	14555.4
100.032	5.3721	3.04276	6.17397	-29.5273	10.5797	0.272924	-0.018026	522.893	127.005	1	10	0.0045806	0.000741921	0	6.17488e-05	0.140934	0.0798251	0.16197	29.5273	127005	224232	257701	-60.4727	0.0000000E+000	0.0000000E+000	0.0000000E+000	60.4727	0.0000000E+000	0.0000000E+000	0.0000000E+000	-60.4727	0.0000000E+000	0.0000000E+000	0.0000000E+000	-29.5273	0.0000000E+000	0.0000000E+000	0.0000000E+000	29.5273	1.76553	60.4727	-1.37252e-06	-4.91974e-06	15140.6
68.104	6.29271	3.30445	7.10757	-27.705	11.0583	0.272937	-0.015669	707.21	152.864	1	10	0.00457499	0.000643679	0	6.03418e-05	0.124565	0.0654119	0.140695	27.705	152864	291100	328796	-62.295	0.0000000E+000	0.0000000E+000	0.0000000E+000	62.295	0.0000000E+000	0.0000000E+000	0.0000000E+000	-62.295	0.0000000E+000	0.0000000E+000	0.0000000E+000	-27.705	0.0000000E+000	0.0000000E+000	0.0000000E+000	27.705	1.90431	62.295	-1.40703e-06	-4.27665e-06	17419
46.4415	7.30721	3.39029	8.05539	-24.8896	11.5135	0.272931	-0.0193136	1010.83	179.051	1	10	0.00457414	0.000567836	0	5.8459e-05	0.11261	0.0522472	0.12414	24.8896	179051	385915	425429	-65.1104	0.0000000E+000	0.0000000E+000	0.0000000E+000	65.1104	0.0000000E+000	0.0000000E+000	0.0000000E+000	-65.1104	0.0000000E+000	0.0000000E+000	0.0000000E+000	-24.8896	0.0000000E+000	0.0000000E+000	0.0000000E+000	24.8896	2.15534	65.1104	-1.88283e-06	-5.27128e-06	14131.6
31.6296	8.30158	3.32229	8.94169	-21.8113	11.9594	0.27293	-0.0211042	1514.57	209.086	1	10	0.00456869	0.000510942	0	5.57651e-05	0.10383	0.0415526	0.111836	21.8113	209086	522454	562740	-68.1887	0.0000000E+000	0.0000000E+000	0.0000000E+000	68.1887	0.0000000E+000	0.0000000E+000	0.0000000E+000	-68.1887	0.0000000E+000	0.0000000E+000	0.0000000E+000	-21.8113	0.0000000E+000	0.0000000E+000	0.0000000E+000	21.8113	2.49875	68.1887	-2.69393e-06	-5.75996e-06	12932.5
21.5517	9.23314	3.0964	9.73851	-18.5393	12.3973	0.272921	-0.0240128	2384.96	241.108	1	10	0.00457661	0.00046995	0	5.38271e-05	0.0973564	0.0326492	0.102685	18.5393	241108	718956	758308	-71.4607	0.0000000E+000	0.0000000E+000	0.0000000E+000	71.4607	0.0000000E+000	0.0000000E+000	0.0000000E+000	-71.4607	0.0000000E+000	0.0000000E+000	0.0000000E+000	-18.5393	0.0000000E+000	0.0000000E+000	0.0000000E+000	18.5393	2.98189	71.4607	-1.93799e-06	-6.55358e-06	11365.7
14.6852	10.0011	2.81342	10.3893	-15.7119	12.8761	0.272924	-0.0161758	3852.18	282.493	1	10	0.00457005	0.000439882	0	5.24791e-05	0.0926568	0.0260655	0.0962533	15.7119	282493	1.0042e+06	1.04317e+06	-74.2881	0.0000000E+000	0.0000000E+000	0.0000000E+000	74.2881	0.0000000E+000	0.0000000E+000	0.0000000E+000	-74.2881	0.0000000E+000	0.0000000E+000	0.0000000E+000	-15.7119	0.0000000E+000	0.0000000E+000	0.0000000E+000	15.7119	3.55477	74.2881	-1.34798e-06	-4.41476e-06	16872.3
10.0032	10.6794	2.52327	10.9734	-13.2938	13.3437	0.272928	-0.0169379	6305.47	333.397	1	10	0.00457054	0.00041651	0	5.13246e-05	0.0886874	0.0209546	0.0911293	13.2938	333396	1.41105e+06	1.4499e+06	-76.7062	0.0000000E+000	0.0000000E+000	0.0000000E+000	76.7062	0.0000000E+000	0.0000000E+000	0.0000000E+000	-76.7062	0.0000000E+000	0.0000000E+000	0.0000000E+000	-13.2938	0.0000000E+000	0.0000000E+000	0.0000000E+000	13.2938	4.23236	76.7062	-1.1545e-06	-4.62282e-06	16113.5
6.81719	11.2913	2.23697	11.5107	-11.2061	13.9064	0.272931	-0.0140699	10436.5	394.157	1	11	0.00456583	0.000396658	0	4.94487e-05	0.0852191	0.0168832	0.0868754	11.2061	394157	1.98954e+06	2.0282e+06	-78.7939	0.0000000E+000	0.0000000E+000	0.0000000E+000	78.7939	0.0000000E+000	0.0000000E+000	0.0000000E+000	-78.7939	0.0000000E+000	0.0000000E+000	0.0000000E+000	-11.2061	0.0000000E+000	0.0000000E+000	0.0000000E+000	11.2061	5.04757	78.7939	-1.87586e-06	-3.8401e-06	19398.3
4.63925	11.8083	1.95768	11.9695	-9.41336	14.4083	0.272945	-0.0118897	17523.9	468.775	1	11	0.00457672	0.000382367	0	5.01751e-05	0.082421	0.0136645	0.083546	9.41336	468775	2.82755e+06	2.86614e+06	-80.5866	0.0000000E+000	0.0000000E+000	0.0000000E+000	80.5866	0.0000000E+000	0.0000000E+000	0.0000000E+000	-80.5866	0.0000000E+000	0.0000000E+000	0.0000000E+000	-9.41336	0.0000000E+000	0.0000000E+000	0.0000000E+000	9.41336	6.03178	80.5866	7.26423e-07	-3.24523e-06	22956.4
3.1604	12.1997	1.72595	12.3211	-8.05251	15.1183	0.272944	-0.0111097	29177.6	572.54	1	11	0.00457333	0.000371178	0	4.17047e-05	0.0803611	0.0113691	0.0811613	8.05251	572540	4.04692e+06	4.08722e+06	-81.9475	0.0000000E+000	0.0000000E+000	0.0000000E+000	81.9475	0.0000000E+000	0.0000000E+000	0.0000000E+000	-81.9475	0.0000000E+000	0.0000000E+000	0.0000000E+000	-8.05251	0.0000000E+000	0.0000000E+000	0.0000000E+000	8.05251	7.06836	81.9475	-8.47045e-06	-3.03233e-06	24568.1
2.15577	12.5565	1.49896	12.6456	-6.80759	16.1348	0.272951	-0.010798	49252.6	692.032	1	11	0.00457425	0.000361726	0	3.58724e-05	0.0785211	0.00937363	0.0790786	6.80759	692032	5.79702e+06	5.83818e+06	-83.1924	0.0000000E+000	0.0000000E+000	0.0000000E+000	83.1924	0.0000000E+000	0.0000000E+000	0.0000000E+000	-83.1924	0.0000000E+000	0.0000000E+000	0.0000000E+000	-6.80759	0.0000000E+000	0.0000000E+000	0.0000000E+000	6.80759	8.37681	83.1924	-5.83226e-06	-2.94732e-06	25278
1.46631	12.8361	1.35384	12.9073	-6.0208	17.6081	0.272952	-0.0107215	80172.7	882.046	1	11	0.00457491	0.000354443	0	3.79363e-05	0.0770481	0.00812637	0.0774755	6.0208	882046	8.36289e+06	8.40928e+06	-83.9792	0.0000000E+000	0.0000000E+000	0.0000000E+000	83.9792	0.0000000E+000	0.0000000E+000	0.0000000E+000	-83.9792	0.0000000E+000	0.0000000E+000	0.0000000E+000	-6.0208	0.0000000E+000	0.0000000E+000	0.0000000E+000	6.0208	9.48125	83.9792	2.0639e-06	-2.92647e-06	25458.3
1.00006	13.0713	1.22812	13.1289	-5.36749	19.7482	0.27296	-0.00980718	129584	1133.91	1	11	0.00457633	0.00034857	0	4.43797e-05	0.0758341	0.00712503	0.0761681	5.36749	1.13391e+06	1.20686e+07	1.21218e+07	-84.6325	0.0000000E+000	0.0000000E+000	0.0000000E+000	84.6325	0.0000000E+000	0.0000000E+000	0.0000000E+000	-84.6325	0.0000000E+000	0.0000000E+000	0.0000000E+000	-5.36749	0.0000000E+000	0.0000000E+000	0.0000000E+000	5.36749	10.6433	84.6325	6.4434e-06	-2.67696e-06	27832.6
0.681362	13.2836	1.17311	13.3353	-5.04681	22.8681	0.272951	-0.00853486	199115	1540.89	1	11	0.00457584	0.000343136	0	4.71709e-05	0.074698	0.00659673	0.0749887	5.04681	1.54089e+06	1.74482e+07	1.75161e+07	-84.9532	0.0000000E+000	0.0000000E+000	0.0000000E+000	84.9532	0.0000000E+000	0.0000000E+000	0.0000000E+000	-84.9532	0.0000000E+000	0.0000000E+000	0.0000000E+000	-5.04681	0.0000000E+000	0.0000000E+000	0.0000000E+000	5.04681	11.3235	84.9532	2.7912e-06	-2.3296e-06	31980.7
0.464091	13.4827	1.20433	13.5364	-5.10437	27.4328	0.272953	-0.00559364	284754	2254.03	1	11	0.00457779	0.000338184	0	3.68588e-05	0.073582	0.00657268	0.073875	5.10437	2.25403e+06	2.52342e+07	2.53346e+07	-84.8956	0.0000000E+000	0.0000000E+000	0.0000000E+000	84.8956	0.0000000E+000	0.0000000E+000	0.0000000E+000	-84.8956	0.0000000E+000	0.0000000E+000	0.0000000E+000	-5.10437	0.0000000E+000	0.0000000E+000	0.0000000E+000	5.10437	11.1951	84.8956	-1.03122e-05	-1.5268e-06	48797
0.316193	13.6617	1.31701	13.725	-5.50639	34.1151	0.27296	-0.00376115	382189	3519.08	1	11	0.00457776	0.000333533	0	6.11846e-06	0.0725233	0.00699136	0.0728595	5.50639	3.51908e+06	3.65044e+07	3.66736e+07	-84.4936	0.0000000E+000	0.0000000E+000	0.0000000E+000	84.4936	0.0000000E+000	0.0000000E+000	0.0000000E+000	-84.4936	0.0000000E+000	0.0000000E+000	0.0000000E+000	-5.50639	0.0000000E+000	0.0000000E+000	0.0000000E+000	5.50639	10.3733	84.4936	-3.07403e-05	-1.02664e-06	72573.5
0.215268	13.8722	1.50435	13.9536	-6.18915	43.9127	0.272956	-0.00376748	491465	5712.41	1	11	0.00457708	0.000328022	0	-4.87344e-05	0.0712486	0.00772642	0.0716663	6.18915	5.71241e+06	5.26766e+07	5.29854e+07	-83.8109	0.0000000E+000	0.0000000E+000	0.0000000E+000	83.8109	0.0000000E+000	0.0000000E+000	0.0000000E+000	-83.8109	0.0000000E+000	0.0000000E+000	0.0000000E+000	-6.18915	0.0000000E+000	0.0000000E+000	0.0000000E+000	6.18915	9.22142	83.8109	-5.48529e-05	-1.02836e-06	72450.6
0.146929	14.1461	1.80783	14.2612	-7.28274	58.2484	0.272955	-0.00456191	599179	9628.54	1	11	0.0045769	0.000320935	0	-0.000115057	0.0695549	0.00888888	0.0701206	7.28274	9.62854e+06	7.53426e+07	7.59554e+07	-82.7173	0.0000000E+000	0.0000000E+000	0.0000000E+000	82.7173	0.0000000E+000	0.0000000E+000	0.0000000E+000	-82.7173	0.0000000E+000	0.0000000E+000	0.0000000E+000	-7.28274	0.0000000E+000	0.0000000E+000	0.0000000E+000	7.28274	7.82493	82.7173	-6.6323e-05	-1.2452e-06	59833.3
0.0999041	14.4839	2.30412	14.6661	-9.03892	79.3183	0.272948	-0.00564021	691405	17065.3	1	11	0.00457767	0.000312127	0	-0.000164697	0.0673379	0.0107122	0.0681846	9.03892	1.70653e+07	1.07274e+08	1.08623e+08	-80.9611	0.0000000E+000	0.0000000E+000	0.0000000E+000	80.9611	0.0000000E+000	0.0000000E+000	0.0000000E+000	-80.9611	0.0000000E+000	0.0000000E+000	0.0000000E+000	-9.03892	0.0000000E+000	0.0000000E+000	0.0000000E+000	9.03892	6.28611	80.9611	-4.96395e-05	-1.53949e-06	48393.3
0.0680626	14.8712	2.98807	15.1685	-11.3611	110.23	0.272948	-0.00512375	782566	30368.2	1	11	0.00457958	0.000301914	0	-0.000165918	0.0646345	0.012987	0.0659263	11.3611	3.03682e+07	1.51139e+08	1.54159e+08	-78.6389	0.0000000E+000	0.0000000E+000	0.0000000E+000	78.6389	0.0000000E+000	0.0000000E+000	0.0000000E+000	-78.6389	0.0000000E+000	0.0000000E+000	0.0000000E+000	-11.3611	0.0000000E+000	0.0000000E+000	0.0000000E+000	11.3611	4.97687	78.6389	-1.22109e-06	-1.39852e-06	53271.1
0.0464052	15.2787	3.80039	15.7443	-13.9682	155.555	0.272949	-0.00307332	902455	52582	1	11	0.00457485	0.000290572	0	-4.9815e-05	0.0616371	0.0153315	0.0635152	13.9682	5.2582e+07	2.11395e+08	2.17837e+08	-76.0318	0.0000000E+000	0.0000000E+000	0.0000000E+000	76.0318	0.0000000E+000	0.0000000E+000	0.0000000E+000	-76.0318	0.0000000E+000	0.0000000E+000	0.0000000E+000	-13.9682	0.0000000E+000	0.0000000E+000	0.0000000E+000	13.9682	4.0203	76.0318	0.000116103	-8.38861e-07	88812.3
0.0315922	15.9126	4.92678	16.6578	-17.2034	253.852	0.272946	-0.00144104	1.02253e+06	89447.4	1	12	0.00457129	0.000274423	0	0.00015824	0.0573461	0.0177553	0.0600319	17.2034	8.94474e+07	2.88898e+08	3.02428e+08	-72.7966	0.0000000E+000	0.0000000E+000	0.0000000E+000	72.7966	0.0000000E+000	0.0000000E+000	0.0000000E+000	-72.7966	0.0000000E+000	0.0000000E+000	0.0000000E+000	-17.2034	0.0000000E+000	0.0000000E+000	0.0000000E+000	17.2034	3.22981	72.7966	0.000208055	-3.93325e-07	189409
0.0215268	16.7999	6.44066	17.9922	-20.9755	351.521	0.272939	5.21896e-05	1.14792e+06	147096	1	12	0.00457638	0.000254353	0	0.000358801	0.0518965	0.0198957	0.0555796	20.9755	1.47096e+08	3.83689e+08	4.10919e+08	-69.0245	0.0000000E+000	0.0000000E+000	0.0000000E+000	69.0245	0.0000000E+000	0.0000000E+000	0.0000000E+000	-69.0245	0.0000000E+000	0.0000000E+000	0.0000000E+000	-20.9755	0.0000000E+000	0.0000000E+000	0.0000000E+000	20.9755	2.60842	69.0245	0.000200561	1.42446e-08	5.22975e+06
0.0146812	17.7119	8.65256	19.7124	-26.0363	494.717	0.272935	0.000471982	1.2529e+06	241393	1	12	0.00457626	0.000232151	0	0.000328338	0.0455813	0.0222672	0.0507295	26.0363	2.41393e+08	4.94135e+08	5.49946e+08	-63.9637	0.0000000E+000	0.0000000E+000	0.0000000E+000	63.9637	0.0000000E+000	0.0000000E+000	0.0000000E+000	-63.9637	0.0000000E+000	0.0000000E+000	0.0000000E+000	-26.0363	0.0000000E+000	0.0000000E+000	0.0000000E+000	26.0363	2.04702	63.9637	-3.04627e-05	1.28821e-07	578274
0.0100092	18.7994	11.3563	21.9632	-31.1353	704.738	0.272932	6.34333e-05	1.40018e+06	374342	1	12	0.00457645	0.000208369	0	-0.000127079	0.038972	0.0235422	0.0455307	31.1353	3.74342e+08	6.1969e+08	7.2398e+08	-58.8647	0.0000000E+000	0.0000000E+000	0.0000000E+000	58.8647	0.0000000E+000	0.0000000E+000	0.0000000E+000	-58.8647	0.0000000E+000	0.0000000E+000	0.0000000E+000	-31.1353	0.0000000E+000	0.0000000E+000	0.0000000E+000	31.1353	1.65541	58.8647	-0.000455417	1.7313e-08	4.30266e+06