File: txt/17468_R277_UA656_SOC00_C05.mpt
EC-Lab ASCII FILE
Nb header lines : 63

Potentio Electrochemical Impedance Spectroscopy

Run on channel : 5 (SN 65912)
User :
CE vs. WE compliance from -10 V to 10 V
Electrode connection : standard
Potential control : Ewe
Ewe ctrl range : min = -10.00 V, max = 10.00 V
Safety Limits :
	Do not start on E overload
Acquisition started on : 09/12/2025 10:00:42.666
Loaded Setting File :  C:\Users\Celltest\OneDrive - store-dot.com\Documents\EC-Lab\Data\Charmaine\R279\17382_C01.mpr
Saved on :
	File : 17468_C05.mpr
	Directory : C:\Users\Celltest\OneDrive - store-dot.com\Documents\EC-Lab\Data\Gyutae\R277\
	Host : 169.254.61.224
Device : VMP-3e (SN .003165)
Address : USB
EC-LAB for windows v11.62 (software)
Internet server v27.00 (firmware)
Command interpretor v12.03 (firmware)
Electrode material :
Initial state :
Electrolyte :
Comments :
Electrode surface area : 0.001 cm²
Characteristic mass : 0.001 g
Equivalent Weight : 0.000 g/eq.
Density : 0.000 g/cm3
Volume (V) : 0.001 cm³
Cycle Definition : Charge/Discharge alternance
Mode                Single sine
E (V)               0.0000
vs.                 Eoc
tE (h:m:s)          0:00:0.0000
record              0
dI                  0.000
unit dI             mA
dt (s)              0.000
fi                  100.000
unit fi             kHz
ff                  10.000
unit ff             mHz
Nd                  6
Points              per decade
spacing             Logarithmic
Va (mV)             5.0
pw                  0.10
Na                  2
corr                0
E range min (V)     -10.000
E range max (V)     10.000
I Range             Auto
Bandwidth           5
nc cycles           0
goto Ns'            0
nr cycles           0
inc. cycle          0

freq/Hz	Re(Z)/Ohm	-Im(Z)/Ohm	|Z|/Ohm	Phase(Z)/deg	time/s	<Ewe>/V	<I>/mA	Cs/µF	Cp/µF	cycle number	I Range	|Ewe|/V	|I|/A	Ns	(Q-Qo)/mA.h	Re(Y)/Ohm-1	Im(Y)/Ohm-1	|Y|/Ohm-1	Phase(Y)/deg	Re(C)/nF	Im(C)/nF	|C|/nF	Phase(C)/deg	Re(M)	Im(M)	|M|	Phase(M)/deg	Re(Permittivity)	Im(Permittivity)	|Permittivity|	Phase(Permittivity)/deg	Re(Resistivity)/Ohm.cm	Im(Resistivity)/Ohm.cm	|Resistivity|/Ohm.cm	Phase(Resistivity)/deg	Re(Conductivity)/mS/cm	Im(Conductivity)/mS/cm	|Conductivity|/mS/cm	Phase(Conductivity)/deg	Tan(Delta)	Loss Angle(Delta)/deg	dq/mA.h	Pwe/W	Rwe/Ohm
100004	5.13274	1.3026	5.29545	-14.2401	2.0265	0.744022	-0.0276466	1.22178	0.0739283	1	10	0.00494702	0.000934203	0	-4.62641e-06	0.183039	0.0464523	0.188841	14.2401	73.9283	291.305	300.539	-75.7599	0.0000000E+000	0.0000000E+000	0.0000000E+000	75.7599	0.0000000E+000	0.0000000E+000	0.0000000E+000	-75.7599	0.0000000E+000	0.0000000E+000	0.0000000E+000	-14.2401	0.0000000E+000	0.0000000E+000	0.0000000E+000	14.2401	3.94037	75.7599	-4.62641e-06	-2.05697e-05	26911.9
68132	5.4419	1.44588	5.6307	-14.8794	2.46349	0.744025	-0.0275163	1.61561	0.106531	1	10	0.0053309	0.000946756	0	-7.15058e-06	0.171643	0.0456044	0.177598	14.8794	106.531	400.953	414.864	-75.1206	0.0000000E+000	0.0000000E+000	0.0000000E+000	75.1206	0.0000000E+000	0.0000000E+000	0.0000000E+000	-75.1206	0.0000000E+000	0.0000000E+000	0.0000000E+000	-14.8794	0.0000000E+000	0.0000000E+000	0.0000000E+000	14.8794	3.76373	75.1206	-2.52417e-06	-2.04728e-05	27039.4
46420.4	5.79041	1.59705	6.00661	-15.4193	2.90049	0.744032	-0.0253157	2.14681	0.151765	1	10	0.00535619	0.000891717	0	-9.86404e-06	0.160491	0.0442648	0.166483	15.4193	151.765	550.252	570.798	-74.5807	0.0000000E+000	0.0000000E+000	0.0000000E+000	74.5807	0.0000000E+000	0.0000000E+000	0.0000000E+000	-74.5807	0.0000000E+000	0.0000000E+000	0.0000000E+000	-15.4193	0.0000000E+000	0.0000000E+000	0.0000000E+000	15.4193	3.6257	74.5807	-2.71346e-06	-1.88357e-05	29390.1
31621.1	6.16671	1.78554	6.42	-16.1481	3.3385	0.744034	-0.0259766	2.81886	0.218043	1	10	0.00528099	0.000822584	0	-1.36834e-05	0.149618	0.043321	0.155763	16.1481	218.043	753.053	783.985	-73.8519	0.0000000E+000	0.0000000E+000	0.0000000E+000	73.8519	0.0000000E+000	0.0000000E+000	0.0000000E+000	-73.8519	0.0000000E+000	0.0000000E+000	0.0000000E+000	-16.1481	0.0000000E+000	0.0000000E+000	0.0000000E+000	16.1481	3.4537	73.8519	-3.81939e-06	-1.93275e-05	28642.4
21544.7	6.58889	1.98468	6.88131	-16.7632	3.77549	0.744018	-0.0275219	3.72211	0.30962	1	10	0.00520384	0.000756229	0	-1.595e-05	0.139146	0.041913	0.145321	16.7632	309.62	1027.9	1073.52	-73.2368	0.0000000E+000	0.0000000E+000	0.0000000E+000	73.2368	0.0000000E+000	0.0000000E+000	0.0000000E+000	-73.2368	0.0000000E+000	0.0000000E+000	0.0000000E+000	-16.7632	0.0000000E+000	0.0000000E+000	0.0000000E+000	16.7632	3.31987	73.2368	-2.26655e-06	-2.04768e-05	27033.7
14678.6	7.06731	2.20957	7.40466	-17.3617	4.21247	0.744018	-0.0272221	4.90713	0.436951	1	10	0.00511716	0.000691073	0	-1.91116e-05	0.128897	0.0402992	0.13505	17.3617	436.951	1397.59	1464.3	-72.6383	0.0000000E+000	0.0000000E+000	0.0000000E+000	72.6383	0.0000000E+000	0.0000000E+000	0.0000000E+000	-72.6383	0.0000000E+000	0.0000000E+000	0.0000000E+000	-17.3617	0.0000000E+000	0.0000000E+000	0.0000000E+000	17.3617	3.1985	72.6383	-3.16159e-06	-2.02538e-05	27331.4
10002.2	7.59196	2.477	7.98583	-18.0698	4.50849	0.74402	-0.0282349	6.42388	0.618031	1	10	0.00544491	0.000681822	0	-2.04208e-05	0.119046	0.0388407	0.125222	18.0698	618.031	1894.25	1992.52	-71.9302	0.0000000E+000	0.0000000E+000	0.0000000E+000	71.9302	0.0000000E+000	0.0000000E+000	0.0000000E+000	-71.9302	0.0000000E+000	0.0000000E+000	0.0000000E+000	-18.0698	0.0000000E+000	0.0000000E+000	0.0000000E+000	18.0698	3.06498	71.9302	-1.30922e-06	-2.10073e-05	26351.1
6811.07	8.18313	2.74258	8.63049	-18.5286	5.06353	0.744066	-0.0113083	8.52011	0.860387	1	10	0.00500849	0.000580326	0	-2.09399e-05	0.109862	0.0368204	0.115868	18.5286	860.387	2567.16	2707.51	-71.4714	0.0000000E+000	0.0000000E+000	0.0000000E+000	71.4714	0.0000000E+000	0.0000000E+000	0.0000000E+000	-71.4714	0.0000000E+000	0.0000000E+000	0.0000000E+000	-18.5286	0.0000000E+000	0.0000000E+000	0.0000000E+000	18.5286	2.98373	71.4714	-5.19151e-07	-8.41411e-06	65798.3
4641.49	8.85247	3.08147	9.37346	-19.1926	5.53469	0.744168	0.0027085	11.1277	1.2026	1	10	0.00500413	0.000533861	0	-2.09042e-05	0.100755	0.0350718	0.106684	19.1926	1202.6	3454.84	3658.17	-70.8074	0.0000000E+000	0.0000000E+000	0.0000000E+000	70.8074	0.0000000E+000	0.0000000E+000	0.0000000E+000	-70.8074	0.0000000E+000	0.0000000E+000	0.0000000E+000	-19.1926	0.0000000E+000	0.0000000E+000	0.0000000E+000	19.1926	2.87281	70.8074	3.56984e-08	2.01558e-06	274753
3161.01	9.58204	3.42813	10.1768	-19.6855	6.0017	0.744174	0.00300823	14.6871	1.66659	1	10	0.00496314	0.000487691	0	-2.02046e-05	0.0925197	0.0331004	0.0982626	19.6855	1666.59	4658.31	4947.46	-70.3145	0.0000000E+000	0.0000000E+000	0.0000000E+000	70.3145	0.0000000E+000	0.0000000E+000	0.0000000E+000	-70.3145	0.0000000E+000	0.0000000E+000	0.0000000E+000	-19.6855	0.0000000E+000	0.0000000E+000	0.0000000E+000	19.6855	2.79512	70.3145	6.99681e-07	2.23865e-06	247379
2155.69	10.4117	3.82646	11.0926	-20.1792	6.46868	0.744175	0.00365052	19.2947	2.29597	1	10	0.00493558	0.000444944	0	-2.01633e-05	0.0846169	0.031098	0.0901505	20.1792	2295.97	6247.28	6655.82	-69.8208	0.0000000E+000	0.0000000E+000	0.0000000E+000	69.8208	0.0000000E+000	0.0000000E+000	0.0000000E+000	-69.8208	0.0000000E+000	0.0000000E+000	0.0000000E+000	-20.1792	0.0000000E+000	0.0000000E+000	0.0000000E+000	20.1792	2.72097	69.8208	4.12538e-08	2.71663e-06	203855
1468.59	11.3467	4.24491	12.1147	-20.5113	6.93592	0.744172	0.00316275	25.53	3.13444	1	10	0.00491193	0.000405451	0	-1.99862e-05	0.0773111	0.0289228	0.0825441	20.5113	3134.44	8378.4	8945.52	-69.4887	0.0000000E+000	0.0000000E+000	0.0000000E+000	69.4887	0.0000000E+000	0.0000000E+000	0.0000000E+000	-69.4887	0.0000000E+000	0.0000000E+000	0.0000000E+000	-20.5113	0.0000000E+000	0.0000000E+000	0.0000000E+000	20.5113	2.67302	69.4887	1.77121e-07	2.35363e-06	235293
1000.32	12.3679	4.72197	13.2386	-20.8965	7.40471	0.744164	0.00261168	33.6944	4.28666	1	10	0.00489725	0.000369922	0	-1.94278e-05	0.0705683	0.0269425	0.0755366	20.8965	4286.66	11227.7	12018.2	-69.1035	0.0000000E+000	0.0000000E+000	0.0000000E+000	69.1035	0.0000000E+000	0.0000000E+000	0.0000000E+000	-69.1035	0.0000000E+000	0.0000000E+000	0.0000000E+000	-20.8965	0.0000000E+000	0.0000000E+000	0.0000000E+000	20.8965	2.61922	69.1035	5.58408e-07	1.94352e-06	284936
681.09	13.5032	5.23159	14.4812	-21.1781	7.87044	0.744171	0.00297844	44.6666	5.82963	1	10	0.00488921	0.000337625	0	-1.88132e-05	0.0643913	0.0249474	0.0690551	21.1781	5829.63	15046.8	16136.6	-68.8219	0.0000000E+000	0.0000000E+000	0.0000000E+000	68.8219	0.0000000E+000	0.0000000E+000	0.0000000E+000	-68.8219	0.0000000E+000	0.0000000E+000	0.0000000E+000	-21.1781	0.0000000E+000	0.0000000E+000	0.0000000E+000	21.1781	2.58108	68.8219	6.14562e-07	2.21647e-06	249853
463.961	14.7637	5.84407	15.8783	-21.5957	8.33919	0.744173	0.00297658	58.698	7.95146	1	10	0.00488437	0.000307613	0	-1.86176e-05	0.0585582	0.0231797	0.062979	21.5957	7951.46	20087.5	21604	-68.4043	0.0000000E+000	0.0000000E+000	0.0000000E+000	68.4043	0.0000000E+000	0.0000000E+000	0.0000000E+000	-68.4043	0.0000000E+000	0.0000000E+000	0.0000000E+000	-21.5957	0.0000000E+000	0.0000000E+000	0.0000000E+000	21.5957	2.52627	68.4043	1.95585e-07	2.21509e-06	250010
316.316	16.1438	6.52747	17.4135	-22.0151	8.80593	0.74417	0.00296168	77.0822	10.8311	1	10	0.00487561	0.00027999	0	-1.8215e-05	0.0532394	0.0215264	0.0574267	22.0151	10831.1	26787.5	28894.3	-67.9849	0.0000000E+000	0.0000000E+000	0.0000000E+000	67.9849	0.0000000E+000	0.0000000E+000	0.0000000E+000	-67.9849	0.0000000E+000	0.0000000E+000	0.0000000E+000	-22.0151	0.0000000E+000	0.0000000E+000	0.0000000E+000	22.0151	2.47321	67.9849	4.02654e-07	2.204e-06	251266
215.345	17.668	7.34049	19.1322	-22.5613	9.27345	0.744168	0.00295238	100.684	14.8211	1	10	0.00487531	0.000254822	0	-1.76949e-05	0.0482678	0.0200537	0.0522679	22.5613	14821.1	35673.3	38629.7	-67.4387	0.0000000E+000	0.0000000E+000	0.0000000E+000	67.4387	0.0000000E+000	0.0000000E+000	0.0000000E+000	-67.4387	0.0000000E+000	0.0000000E+000	0.0000000E+000	-22.5613	0.0000000E+000	0.0000000E+000	0.0000000E+000	22.5613	2.40693	67.4387	5.20064e-07	2.19706e-06	252057
146.737	19.4083	8.31557	21.1147	-23.1929	9.73638	0.744172	0.00289652	130.433	20.2302	1	10	0.00487189	0.000230734	0	-1.74485e-05	0.0435329	0.0186518	0.0473603	23.1929	20230.2	47216.8	51368.1	-66.8071	0.0000000E+000	0.0000000E+000	0.0000000E+000	66.8071	0.0000000E+000	0.0000000E+000	0.0000000E+000	-66.8071	0.0000000E+000	0.0000000E+000	0.0000000E+000	-23.1929	0.0000000E+000	0.0000000E+000	0.0000000E+000	23.1929	2.33398	66.8071	2.46394e-07	2.15551e-06	256919
100.032	21.3744	9.48821	23.3857	-23.9367	10.4587	0.744158	-0.00212969	167.686	27.6036	1	11	0.00487764	0.000208574	0	-1.73826e-05	0.0390835	0.0173494	0.0427612	23.9367	27603.6	62183.4	68034.8	-66.0633	0.0000000E+000	0.0000000E+000	0.0000000E+000	66.0633	0.0000000E+000	0.0000000E+000	0.0000000E+000	-66.0633	0.0000000E+000	0.0000000E+000	0.0000000E+000	-23.9367	0.0000000E+000	0.0000000E+000	0.0000000E+000	23.9367	2.25273	66.0633	6.59481e-08	-1.58483e-06	349420
68.104	23.7684	10.7839	26.1004	-24.4042	10.9373	0.744155	-0.00203736	216.706	36.994	1	11	0.00487048	0.000186606	0	-1.7476e-05	0.0348904	0.0158301	0.0383136	24.4042	36994	81536.8	89536.6	-65.5958	0.0000000E+000	0.0000000E+000	0.0000000E+000	65.5958	0.0000000E+000	0.0000000E+000	0.0000000E+000	-65.5958	0.0000000E+000	0.0000000E+000	0.0000000E+000	-24.4042	0.0000000E+000	0.0000000E+000	0.0000000E+000	24.4042	2.20406	65.5958	-9.34266e-08	-1.51611e-06	365255
46.4415	26.6745	12.1336	29.3045	-24.4596	11.3925	0.744155	-0.00233503	282.439	48.4209	1	11	0.00487099	0.00016622	0	-1.77075e-05	0.0310619	0.0141292	0.0341244	24.4596	48420.9	106449	116944	-65.5405	0.0000000E+000	0.0000000E+000	0.0000000E+000	65.5405	0.0000000E+000	0.0000000E+000	0.0000000E+000	-65.5405	0.0000000E+000	0.0000000E+000	0.0000000E+000	-24.4596	0.0000000E+000	0.0000000E+000	0.0000000E+000	24.4596	2.19841	65.5405	-2.3154e-07	-1.73763e-06	318692
31.6296	30.0603	13.3725	32.9006	-23.9821	11.8384	0.744146	-0.00248191	376.283	62.1631	1	11	0.00487591	0.000148202	0	-1.80622e-05	0.0277707	0.0123539	0.0303946	23.9821	62163.1	139738	152941	-66.0179	0.0000000E+000	0.0000000E+000	0.0000000E+000	66.0179	0.0000000E+000	0.0000000E+000	0.0000000E+000	-66.0179	0.0000000E+000	0.0000000E+000	0.0000000E+000	-23.9821	0.0000000E+000	0.0000000E+000	0.0000000E+000	23.9821	2.24792	66.0179	-3.54646e-07	-1.8469e-06	299828
21.5517	33.7056	14.3104	36.6177	-23.0047	12.2774	0.744147	-0.00274477	516.043	78.8149	1	11	0.00486286	0.000132801	0	-1.84352e-05	0.0251374	0.0106726	0.0273092	23.0047	78814.9	185634	201673	-66.9953	0.0000000E+000	0.0000000E+000	0.0000000E+000	66.9953	0.0000000E+000	0.0000000E+000	0.0000000E+000	-66.9953	0.0000000E+000	0.0000000E+000	0.0000000E+000	-23.0047	0.0000000E+000	0.0000000E+000	0.0000000E+000	23.0047	2.35532	66.9953	-3.7298e-07	-2.04251e-06	271115
14.6852	37.7787	15.0173	40.654	-21.6781	12.755	0.744151	-0.00216711	721.691	98.4747	1	11	0.00487015	0.000119795	0	-1.85363e-05	0.0228581	0.00908622	0.0245978	21.6781	98474.8	247732	266586	-68.3219	0.0000000E+000	0.0000000E+000	0.0000000E+000	68.3219	0.0000000E+000	0.0000000E+000	0.0000000E+000	-68.3219	0.0000000E+000	0.0000000E+000	0.0000000E+000	-21.6781	0.0000000E+000	0.0000000E+000	0.0000000E+000	21.6781	2.51569	68.3219	-1.01164e-07	-1.61266e-06	343383
10.0032	41.9419	15.3499	44.6625	-20.1016	13.2237	0.744153	-0.0022211	1036.52	122.433	1	11	0.00486132	0.000108846	0	-1.80543e-05	0.0210262	0.00769518	0.0223901	20.1016	122433	334536	356236	-69.8984	0.0000000E+000	0.0000000E+000	0.0000000E+000	69.8984	0.0000000E+000	0.0000000E+000	0.0000000E+000	-69.8984	0.0000000E+000	0.0000000E+000	0.0000000E+000	-20.1016	0.0000000E+000	0.0000000E+000	0.0000000E+000	20.1016	2.73239	69.8984	4.82038e-07	-1.65284e-06	335038
6.81719	46.2794	15.3326	48.7532	-18.3303	13.5814	0.744123	-0.0039133	1522.65	150.6	1	11	0.00486409	9.97696e-05	0	-1.96034e-05	0.0194707	0.00645073	0.0205115	18.3303	150600	454566	478863	-71.6697	0.0000000E+000	0.0000000E+000	0.0000000E+000	71.6697	0.0000000E+000	0.0000000E+000	0.0000000E+000	-71.6697	0.0000000E+000	0.0000000E+000	0.0000000E+000	-18.3303	0.0000000E+000	0.0000000E+000	0.0000000E+000	18.3303	3.01837	71.6697	-1.54916e-06	-2.91197e-06	190152
4.63925	50.5709	14.7482	52.6775	-16.2585	14.0833	0.744148	-0.0021982	2326.12	182.331	1	11	0.00487192	9.24858e-05	0	-1.87111e-05	0.0182242	0.00531482	0.0189834	16.2585	182331	625204	651249	-73.7415	0.0000000E+000	0.0000000E+000	0.0000000E+000	73.7415	0.0000000E+000	0.0000000E+000	0.0000000E+000	-73.7415	0.0000000E+000	0.0000000E+000	0.0000000E+000	-16.2585	0.0000000E+000	0.0000000E+000	0.0000000E+000	16.2585	3.42895	73.7415	8.92349e-07	-1.63579e-06	338526
3.1604	54.7226	13.6315	56.3949	-13.9878	14.7923	0.744152	-0.00236473	3694.33	215.845	1	11	0.00487148	8.63816e-05	0	-1.86844e-05	0.0172063	0.00428611	0.0177321	13.9878	215845	866495	892974	-76.0122	0.0000000E+000	0.0000000E+000	0.0000000E+000	76.0122	0.0000000E+000	0.0000000E+000	0.0000000E+000	-76.0122	0.0000000E+000	0.0000000E+000	0.0000000E+000	-13.9878	0.0000000E+000	0.0000000E+000	0.0000000E+000	13.9878	4.01443	76.0122	2.67193e-08	-1.75972e-06	314689
2.15577	58.1959	12.3432	59.4905	-11.9749	16.3238	0.744172	-0.000493908	5981.22	257.485	1	12	0.00487041	8.18687e-05	0	-2.08178e-05	0.0164436	0.00348766	0.0168094	11.9749	257485	1.21399e+06	1.241e+06	-78.0251	0.0000000E+000	0.0000000E+000	0.0000000E+000	78.0251	0.0000000E+000	0.0000000E+000	0.0000000E+000	-78.0251	0.0000000E+000	0.0000000E+000	0.0000000E+000	-11.9749	0.0000000E+000	0.0000000E+000	0.0000000E+000	11.9749	4.7148	78.0251	-2.13344e-06	-3.67552e-07	1.5067e+06
1.46631	61.089	10.8328	62.042	-10.0556	17.7971	0.744176	-0.000519685	10019.7	305.467	1	12	0.00486865	7.84734e-05	0	-2.1648e-05	0.0158705	0.00281429	0.0161181	10.0556	305466	1.7226e+06	1.74948e+06	-79.9444	0.0000000E+000	0.0000000E+000	0.0000000E+000	79.9444	0.0000000E+000	0.0000000E+000	0.0000000E+000	-79.9444	0.0000000E+000	0.0000000E+000	0.0000000E+000	-10.0556	0.0000000E+000	0.0000000E+000	0.0000000E+000	10.0556	5.63925	79.9444	-8.30208e-07	-3.86737e-07	1.43198e+06
1.00006	63.2657	9.58087	63.9871	-8.61136	19.9372	0.744175	-0.000704322	16610.7	372.403	1	12	0.00486859	7.60871e-05	0	-2.04074e-05	0.015452	0.00234002	0.0156282	8.61136	372403	2.4591e+06	2.48714e+06	-81.3886	0.0000000E+000	0.0000000E+000	0.0000000E+000	81.3886	0.0000000E+000	0.0000000E+000	0.0000000E+000	-81.3886	0.0000000E+000	0.0000000E+000	0.0000000E+000	-8.61136	0.0000000E+000	0.0000000E+000	0.0000000E+000	8.61136	6.60334	81.3886	1.24062e-06	-5.24139e-07	1.05658e+06
0.681362	65.0529	8.68725	65.6304	-7.60635	23.0583	0.744176	-0.000601191	26888.1	471.101	1	12	0.0048688	7.41852e-05	0	-1.75042e-05	0.0151028	0.00201684	0.0152368	7.60635	471101	3.52776e+06	3.55907e+06	-82.3937	0.0000000E+000	0.0000000E+000	0.0000000E+000	82.3937	0.0000000E+000	0.0000000E+000	0.0000000E+000	-82.3937	0.0000000E+000	0.0000000E+000	0.0000000E+000	-7.60635	0.0000000E+000	0.0000000E+000	0.0000000E+000	7.60635	7.48832	82.3937	2.9032e-06	-4.47392e-07	1.23784e+06
0.464091	66.7146	8.18627	67.215	-6.99555	27.6225	0.744173	-0.000338986	41892	621.399	1	12	0.00486974	7.24502e-05	0	-1.40346e-05	0.0147669	0.00181198	0.0148776	6.99555	621399	5.06414e+06	5.10212e+06	-83.0044	0.0000000E+000	0.0000000E+000	0.0000000E+000	83.0044	0.0000000E+000	0.0000000E+000	0.0000000E+000	-83.0044	0.0000000E+000	0.0000000E+000	0.0000000E+000	-6.99555	0.0000000E+000	0.0000000E+000	0.0000000E+000	6.99555	8.14958	83.0044	3.46961e-06	-2.52264e-07	2.19529e+06
0.316193	68.4224	8.39378	68.9353	-6.99387	34.303	0.744176	-0.000139023	59966.7	889.082	1	12	0.00487211	7.06765e-05	0	-1.29422e-05	0.0143984	0.00176634	0.0145064	6.99387	889083	7.2474e+06	7.30173e+06	-83.0061	0.0000000E+000	0.0000000E+000	0.0000000E+000	83.0061	0.0000000E+000	0.0000000E+000	0.0000000E+000	-83.0061	0.0000000E+000	0.0000000E+000	0.0000000E+000	-6.99387	0.0000000E+000	0.0000000E+000	0.0000000E+000	6.99387	8.15156	83.0061	1.09235e-06	-1.03457e-07	5.35291e+06
0.215268	70.1886	9.18507	70.7871	-7.45552	44.1008	0.744182	8.12809e-05	80493	1355.24	1	12	0.00487416	6.88566e-05	0	-1.73749e-05	0.0140074	0.00183305	0.0141269	7.45552	1.35524e+06	1.03562e+07	1.04445e+07	-82.5445	0.0000000E+000	0.0000000E+000	0.0000000E+000	82.5445	0.0000000E+000	0.0000000E+000	0.0000000E+000	-82.5445	0.0000000E+000	0.0000000E+000	0.0000000E+000	-7.45552	0.0000000E+000	0.0000000E+000	0.0000000E+000	7.45552	7.64159	82.5445	-4.43262e-06	6.04878e-08	9.15568e+06
0.146929	72.294	10.3654	73.0333	-8.15934	58.4364	0.744184	5.54591e-05	104503	2105.02	1	12	0.00487076	6.66924e-05	0	-2.94843e-05	0.0135538	0.00194331	0.0136924	8.15934	2.10502e+06	1.46816e+07	1.48318e+07	-81.8407	0.0000000E+000	0.0000000E+000	0.0000000E+000	81.8407	0.0000000E+000	0.0000000E+000	0.0000000E+000	-81.8407	0.0000000E+000	0.0000000E+000	0.0000000E+000	-8.15934	0.0000000E+000	0.0000000E+000	0.0000000E+000	8.15934	6.97457	81.8407	-1.21095e-05	4.12718e-08	1.34186e+07
0.0999041	75.2373	11.9645	76.1827	-9.0357	79.5063	0.744182	5.46801e-07	133151	3284.11	1	12	0.00487207	6.39525e-05	0	-4.71821e-05	0.0129635	0.00206149	0.0131263	9.0357	3.28411e+06	2.06518e+07	2.09113e+07	-80.9643	0.0000000E+000	0.0000000E+000	0.0000000E+000	80.9643	0.0000000E+000	0.0000000E+000	0.0000000E+000	-80.9643	0.0000000E+000	0.0000000E+000	0.0000000E+000	-9.0357	0.0000000E+000	0.0000000E+000	0.0000000E+000	9.0357	6.28839	80.9643	-1.76978e-05	4.06919e-10	1.36097e+09
0.0680626	78.9446	14.0652	80.1878	-10.1021	110.418	0.744182	-0.000109111	166251	5114.95	1	12	0.0048712	6.07475e-05	0	-6.36813e-05	0.0122774	0.00218741	0.0124707	10.1021	5.11495e+06	2.8709e+07	2.91611e+07	-79.8979	0.0000000E+000	0.0000000E+000	0.0000000E+000	79.8979	0.0000000E+000	0.0000000E+000	0.0000000E+000	-79.8979	0.0000000E+000	0.0000000E+000	0.0000000E+000	-10.1021	0.0000000E+000	0.0000000E+000	0.0000000E+000	10.1021	5.61276	79.8979	-1.64992e-05	-8.11985e-08	6.82041e+06
0.0464052	83.2843	16.5069	84.9044	-11.2107	155.743	0.744181	-0.000352358	207773	7853.4	1	12	0.00487049	5.73644e-05	0	-6.61341e-05	0.0115532	0.00228984	0.011778	11.2107	7.8534e+06	3.96238e+07	4.03946e+07	-78.7893	0.0000000E+000	0.0000000E+000	0.0000000E+000	78.7893	0.0000000E+000	0.0000000E+000	0.0000000E+000	-78.7893	0.0000000E+000	0.0000000E+000	0.0000000E+000	-11.2107	0.0000000E+000	0.0000000E+000	0.0000000E+000	11.2107	5.04543	78.7893	-2.4528e-06	-2.62218e-07	2.112e+06
0.0315922	87.9828	18.7801	89.9648	-12.0491	222.304	0.744176	-0.000454567	268251	11689.4	1	12	0.00487005	5.41328e-05	0	-4.13222e-05	0.0108706	0.00232034	0.0111155	12.0491	1.16894e+07	5.47637e+07	5.59973e+07	-77.9509	0.0000000E+000	0.0000000E+000	0.0000000E+000	77.9509	0.0000000E+000	0.0000000E+000	0.0000000E+000	-77.9509	0.0000000E+000	0.0000000E+000	0.0000000E+000	-12.0491	0.0000000E+000	0.0000000E+000	0.0000000E+000	12.0491	4.6849	77.9509	2.48119e-05	-3.38277e-07	1.63711e+06
0.0215268	92.9553	20.9777	95.293	-12.7172	319.973	0.744178	-0.000331355	352438	17079.6	1	12	0.00487052	5.1111e-05	0	1.503e-05	0.0102365	0.00231013	0.010494	12.7172	1.70796e+07	7.56821e+07	7.75854e+07	-77.2828	0.0000000E+000	0.0000000E+000	0.0000000E+000	77.2828	0.0000000E+000	0.0000000E+000	0.0000000E+000	-77.2828	0.0000000E+000	0.0000000E+000	0.0000000E+000	-12.7172	0.0000000E+000	0.0000000E+000	0.0000000E+000	12.7172	4.43115	77.2828	5.63522e-05	-2.46587e-07	2.24586e+06
0.0146812	97.9485	23.7719	100.792	-13.6418	463.168	0.744178	2.55897e-05	456032	25367.2	1	12	0.00487128	4.833e-05	0	9.59255e-05	0.00964154	0.00233998	0.00992143	13.6418	2.53672e+07	1.04522e+08	1.07556e+08	-76.3582	0.0000000E+000	0.0000000E+000	0.0000000E+000	76.3582	0.0000000E+000	0.0000000E+000	0.0000000E+000	-76.3582	0.0000000E+000	0.0000000E+000	0.0000000E+000	-13.6418	0.0000000E+000	0.0000000E+000	0.0000000E+000	13.6418	4.12035	76.3582	8.08954e-05	1.90433e-08	2.90812e+07
0.0100092	102.797	28.1512	106.582	-15.3151	673.189	0.744174	0.000332513	564840	39405.3	1	12	0.00487136	4.57055e-05	0	0.000170806	0.00904929	0.00247818	0.00938249	15.3151	3.94053e+07	1.43892e+08	1.4919e+08	-74.6849	0.0000000E+000	0.0000000E+000	0.0000000E+000	74.6849	0.0000000E+000	0.0000000E+000	0.0000000E+000	-74.6849	0.0000000E+000	0.0000000E+000	0.0000000E+000	-15.3151	0.0000000E+000	0.0000000E+000	0.0000000E+000	15.3151	3.65159	74.6849	7.48808e-05	2.47447e-07	2.23803e+06