File: txt/17464_R277_UA656_SOC00_C01.mpt
EC-Lab ASCII FILE
Nb header lines : 63

Potentio Electrochemical Impedance Spectroscopy

Run on channel : 1 (SN 66354)
User :
CE vs. WE compliance from -10 V to 10 V
Electrode connection : standard
Potential control : Ewe
Ewe ctrl range : min = -10.00 V, max = 10.00 V
Safety Limits :
	Do not start on E overload
Acquisition started on : 09/12/2025 10:00:37.767
Loaded Setting File :  C:\Users\Celltest\OneDrive - store-dot.com\Documents\EC-Lab\Data\Gyutae\EIS_SOC0_C01.mpr
Saved on :
	File : 17464_C01.mpr
	Directory : C:\Users\Celltest\OneDrive - store-dot.com\Documents\EC-Lab\Data\Gyutae\R277\
	Host : 169.254.61.224
Device : VMP-3e (SN .003165)
Address : USB
EC-LAB for windows v11.62 (software)
Internet server v27.00 (firmware)
Command interpretor v12.03 (firmware)
Electrode material :
Initial state :
Electrolyte :
Comments :
Electrode surface area : 0.001 cm²
Characteristic mass : 0.001 g
Equivalent Weight : 0.000 g/eq.
Density : 0.000 g/cm3
Volume (V) : 0.001 cm³
Cycle Definition : Charge/Discharge alternance
Mode                Single sine
E (V)               0.0000
vs.                 Eoc
tE (h:m:s)          0:00:0.0000
record              0
dI                  0.000
unit dI             mA
dt (s)              0.000
fi                  100.000
unit fi             kHz
ff                  10.000
unit ff             mHz
Nd                  6
Points              per decade
spacing             Logarithmic
Va (mV)             5.0
pw                  0.10
Na                  2
corr                0
E range min (V)     -10.000
E range max (V)     10.000
I Range             Auto
Bandwidth           5
nc cycles           0
goto Ns'            0
nr cycles           0
inc. cycle          0

freq/Hz	Re(Z)/Ohm	-Im(Z)/Ohm	|Z|/Ohm	Phase(Z)/deg	time/s	<Ewe>/V	<I>/mA	Cs/µF	Cp/µF	cycle number	I Range	|Ewe|/V	|I|/A	Ns	(Q-Qo)/mA.h	Re(Y)/Ohm-1	Im(Y)/Ohm-1	|Y|/Ohm-1	Phase(Y)/deg	Re(C)/nF	Im(C)/nF	|C|/nF	Phase(C)/deg	Re(M)	Im(M)	|M|	Phase(M)/deg	Re(Permittivity)	Im(Permittivity)	|Permittivity|	Phase(Permittivity)/deg	Re(Resistivity)/Ohm.cm	Im(Resistivity)/Ohm.cm	|Resistivity|/Ohm.cm	Phase(Resistivity)/deg	Re(Conductivity)/mS/cm	Im(Conductivity)/mS/cm	|Conductivity|/mS/cm	Phase(Conductivity)/deg	Tan(Delta)	Loss Angle(Delta)/deg	dq/mA.h	Pwe/W	Rwe/Ohm
100004	0.907819	0.196725	0.92889	-12.227	1.86448	0.267022	0.0701827	8.08992	0.362857	1	9	0.0045212	0.00486731	0	1.28222e-06	1.05213	0.227998	1.07655	12.227	362.857	1674.46	1713.33	-77.773	0.0000000E+000	0.0000000E+000	0.0000000E+000	77.773	0.0000000E+000	0.0000000E+000	0.0000000E+000	-77.773	0.0000000E+000	0.0000000E+000	0.0000000E+000	-12.227	0.0000000E+000	0.0000000E+000	0.0000000E+000	12.227	4.61465	77.773	1.28222e-06	1.87403e-05	3804.68
68132	0.958348	0.223	0.983951	-13.0991	2.30148	0.267034	0.0698287	10.4753	0.538054	1	9	0.0054075	0.0054957	0	8.4684e-06	0.989865	0.230333	1.01631	13.0991	538.054	2312.3	2374.08	-76.9008	0.0000000E+000	0.0000000E+000	0.0000000E+000	76.9008	0.0000000E+000	0.0000000E+000	0.0000000E+000	-76.9008	0.0000000E+000	0.0000000E+000	0.0000000E+000	-13.0991	0.0000000E+000	0.0000000E+000	0.0000000E+000	13.0991	4.29753	76.9008	7.18619e-06	1.86467e-05	3824.13
46420.4	1.00936	0.247832	1.03934	-13.7952	2.8795	0.267033	0.0713003	13.8342	0.786605	1	9	0.00504518	0.00485424	0	1.97762e-05	0.934399	0.229427	0.962153	13.7952	786.605	3203.64	3298.8	-76.2048	0.0000000E+000	0.0000000E+000	0.0000000E+000	76.2048	0.0000000E+000	0.0000000E+000	0.0000000E+000	-76.2048	0.0000000E+000	0.0000000E+000	0.0000000E+000	-13.7952	0.0000000E+000	0.0000000E+000	0.0000000E+000	13.7952	4.07274	76.2048	1.13078e-05	1.90395e-05	3745.19
31621.1	1.06811	0.284197	1.10527	-14.8998	3.45748	0.267035	0.0742434	17.7102	1.17092	1	9	0.00502499	0.0045464	0	2.30036e-05	0.874337	0.23264	0.904758	14.8998	1170.92	4400.7	4553.81	-75.1002	0.0000000E+000	0.0000000E+000	0.0000000E+000	75.1002	0.0000000E+000	0.0000000E+000	0.0000000E+000	-75.1002	0.0000000E+000	0.0000000E+000	0.0000000E+000	-14.8998	0.0000000E+000	0.0000000E+000	0.0000000E+000	14.8998	3.75833	75.1002	3.2274e-06	1.98256e-05	3596.75
21544.7	1.13548	0.322903	1.1805	-15.8745	4.03548	0.267034	0.0823648	22.8775	1.71168	1	9	0.00519488	0.00440059	0	3.01379e-05	0.814795	0.231708	0.847101	15.8745	1711.68	6019.05	6257.7	-74.1255	0.0000000E+000	0.0000000E+000	0.0000000E+000	74.1255	0.0000000E+000	0.0000000E+000	0.0000000E+000	-74.1255	0.0000000E+000	0.0000000E+000	0.0000000E+000	-15.8745	0.0000000E+000	0.0000000E+000	0.0000000E+000	15.8745	3.51647	74.1255	7.13437e-06	2.19942e-05	3242.08
14678.6	1.20753	0.364732	1.26141	-16.8069	4.3315	0.267035	0.071561	29.7277	2.48541	1	9	0.00487925	0.00386809	0	3.86757e-05	0.758901	0.229225	0.792764	16.8069	2485.41	8228.5	8595.66	-73.1931	0.0000000E+000	0.0000000E+000	0.0000000E+000	73.1931	0.0000000E+000	0.0000000E+000	0.0000000E+000	-73.1931	0.0000000E+000	0.0000000E+000	0.0000000E+000	-16.8069	0.0000000E+000	0.0000000E+000	0.0000000E+000	16.8069	3.31073	73.1931	8.53774e-06	1.91093e-05	3731.58
10002.2	1.2883	0.418372	1.35453	-17.9911	4.7685	0.267029	0.0726787	38.033	3.62835	1	9	0.00479762	0.00354191	0	4.78898e-05	0.702167	0.228027	0.738264	17.9911	3628.35	11172.8	11747.2	-72.0089	0.0000000E+000	0.0000000E+000	0.0000000E+000	72.0089	0.0000000E+000	0.0000000E+000	0.0000000E+000	-72.0089	0.0000000E+000	0.0000000E+000	0.0000000E+000	-17.9911	0.0000000E+000	0.0000000E+000	0.0000000E+000	17.9911	3.07931	72.0089	9.21409e-06	1.94073e-05	3674.11
6811.07	1.38926	0.477991	1.46919	-18.9863	5.3225	0.266872	-0.0650134	48.8861	5.17448	1	9	0.00499594	0.00340047	0	4.76537e-05	0.643616	0.221443	0.680646	18.9863	5174.49	15039.5	15904.7	-71.0137	0.0000000E+000	0.0000000E+000	0.0000000E+000	71.0137	0.0000000E+000	0.0000000E+000	0.0000000E+000	-71.0137	0.0000000E+000	0.0000000E+000	0.0000000E+000	-18.9863	0.0000000E+000	0.0000000E+000	0.0000000E+000	18.9863	2.90646	71.0137	-2.36028e-07	-1.73502e-05	4104.88
4641.49	1.49933	0.553234	1.59814	-20.2535	5.7927	0.266947	0.0560073	61.9804	7.42752	1	9	0.00479653	0.00300133	0	5.45505e-05	0.58704	0.216611	0.625728	20.2535	7427.52	20129.4	21456	-69.7465	0.0000000E+000	0.0000000E+000	0.0000000E+000	69.7465	0.0000000E+000	0.0000000E+000	0.0000000E+000	-69.7465	0.0000000E+000	0.0000000E+000	0.0000000E+000	-20.2535	0.0000000E+000	0.0000000E+000	0.0000000E+000	20.2535	2.71011	69.7465	6.89671e-06	1.4951e-05	4766.29
3161.01	1.62381	0.633407	1.74298	-21.3095	6.25969	0.266948	0.058522	79.4897	10.4977	1	9	0.00469149	0.00269165	0	6.02654e-05	0.534506	0.208497	0.573732	21.3095	10497.7	26912	28887	-68.6905	0.0000000E+000	0.0000000E+000	0.0000000E+000	68.6905	0.0000000E+000	0.0000000E+000	0.0000000E+000	-68.6905	0.0000000E+000	0.0000000E+000	0.0000000E+000	-21.3095	0.0000000E+000	0.0000000E+000	0.0000000E+000	21.3095	2.56361	68.6905	5.7149e-06	1.56223e-05	4561.5
2155.69	1.76602	0.73093	1.91131	-22.4839	6.72668	0.26695	0.054573	101.009	14.7723	1	9	0.00463925	0.00242727	0	6.60835e-05	0.483432	0.200085	0.523202	22.4839	14772.3	35691.8	38628.1	-67.5161	0.0000000E+000	0.0000000E+000	0.0000000E+000	67.5161	0.0000000E+000	0.0000000E+000	0.0000000E+000	-67.5161	0.0000000E+000	0.0000000E+000	0.0000000E+000	-22.4839	0.0000000E+000	0.0000000E+000	0.0000000E+000	22.4839	2.41613	67.5161	5.8182e-06	1.45683e-05	4891.61
1468.59	1.91619	0.839928	2.09219	-23.6694	7.19392	0.266948	0.050177	129.026	20.795	1	9	0.0046038	0.00220047	0	7.39831e-05	0.43776	0.191885	0.477968	23.6694	20795	47441.2	51798.7	-66.3306	0.0000000E+000	0.0000000E+000	0.0000000E+000	66.3306	0.0000000E+000	0.0000000E+000	0.0000000E+000	-66.3306	0.0000000E+000	0.0000000E+000	0.0000000E+000	-23.6694	0.0000000E+000	0.0000000E+000	0.0000000E+000	23.6694	2.28137	66.3306	7.89953e-06	1.33946e-05	5320.12
1000.32	2.10186	0.986042	2.32165	-25.1327	7.66268	0.266948	0.0504005	161.356	29.1059	1	9	0.00459499	0.00197919	0	7.91474e-05	0.389949	0.182937	0.430727	25.1327	29105.9	62042.5	68530.4	-64.8673	0.0000000E+000	0.0000000E+000	0.0000000E+000	64.8673	0.0000000E+000	0.0000000E+000	0.0000000E+000	-64.8673	0.0000000E+000	0.0000000E+000	0.0000000E+000	-25.1327	0.0000000E+000	0.0000000E+000	0.0000000E+000	25.1327	2.13161	64.8673	5.16437e-06	1.34543e-05	5296.52
681.09	2.31287	1.172	2.59286	-26.8727	8.12845	0.266936	0.0488358	199.383	40.7365	1	9	0.00457698	0.00176522	0	8.53774e-05	0.344026	0.174328	0.385674	26.8727	40736.5	80391	90123.2	-63.1273	0.0000000E+000	0.0000000E+000	0.0000000E+000	63.1273	0.0000000E+000	0.0000000E+000	0.0000000E+000	-63.1273	0.0000000E+000	0.0000000E+000	0.0000000E+000	-26.8727	0.0000000E+000	0.0000000E+000	0.0000000E+000	26.8727	1.97344	63.1273	6.22997e-06	1.3036e-05	5465.99
463.961	2.59401	1.41794	2.95625	-28.662	8.85118	0.266992	-0.0176643	241.925	55.6562	1	10	0.00463029	0.00156627	0	8.54859e-05	0.296816	0.162246	0.338266	28.662	55656.2	101819	116037	-61.338	0.0000000E+000	0.0000000E+000	0.0000000E+000	61.338	0.0000000E+000	0.0000000E+000	0.0000000E+000	-61.338	0.0000000E+000	0.0000000E+000	0.0000000E+000	-28.662	0.0000000E+000	0.0000000E+000	0.0000000E+000	28.662	1.82942	61.338	1.08459e-07	-4.71621e-06	15114.8
316.316	2.9499	1.68931	3.39937	-29.7983	9.31793	0.266991	-0.0185215	297.845	73.555	1	10	0.00460213	0.00135382	0	8.31367e-05	0.255277	0.146188	0.294172	29.7983	73555	128443	148013	-60.2017	0.0000000E+000	0.0000000E+000	0.0000000E+000	60.2017	0.0000000E+000	0.0000000E+000	0.0000000E+000	-60.2017	0.0000000E+000	0.0000000E+000	0.0000000E+000	-29.7983	0.0000000E+000	0.0000000E+000	0.0000000E+000	29.7983	1.74622	60.2017	-2.34921e-06	-4.94507e-06	14415.2
215.345	3.41634	1.97042	3.94384	-29.9748	9.78545	0.266985	-0.0185643	375.083	93.628	1	10	0.00458576	0.00116276	0	8.1768e-05	0.219645	0.126683	0.25356	29.9748	93628	162333	187399	-60.0252	0.0000000E+000	0.0000000E+000	0.0000000E+000	60.0252	0.0000000E+000	0.0000000E+000	0.0000000E+000	-60.0252	0.0000000E+000	0.0000000E+000	0.0000000E+000	-29.9748	0.0000000E+000	0.0000000E+000	0.0000000E+000	29.9748	1.73381	60.0252	-1.36869e-06	-4.9564e-06	14381.6
146.737	3.98968	2.22781	4.56954	-29.1787	10.2484	0.266982	-0.0196079	486.857	115.721	1	10	0.00457364	0.0010009	0	7.94807e-05	0.19107	0.106692	0.21884	29.1787	115721	207240	237360	-60.8213	0.0000000E+000	0.0000000E+000	0.0000000E+000	60.8213	0.0000000E+000	0.0000000E+000	0.0000000E+000	-60.8213	0.0000000E+000	0.0000000E+000	0.0000000E+000	-29.1787	0.0000000E+000	0.0000000E+000	0.0000000E+000	29.1787	1.79085	60.8213	-2.28729e-06	-5.23495e-06	13616.1
100.032	4.66976	2.40021	5.25049	-27.2027	10.7167	0.266984	-0.0184357	662.876	138.526	1	10	0.00456779	0.000869974	0	7.72094e-05	0.169393	0.087066	0.190458	27.2027	138526	269510	303027	-62.7973	0.0000000E+000	0.0000000E+000	0.0000000E+000	62.7973	0.0000000E+000	0.0000000E+000	0.0000000E+000	-62.7973	0.0000000E+000	0.0000000E+000	0.0000000E+000	-27.2027	0.0000000E+000	0.0000000E+000	0.0000000E+000	27.2027	1.94556	62.7973	-2.27128e-06	-4.92204e-06	14481.8
68.104	5.40939	2.4824	5.95179	-24.6506	11.1953	0.266987	-0.0150088	941.405	163.766	1	10	0.00456493	0.000766985	0	7.51998e-05	0.152705	0.0700772	0.168017	24.6506	163766	356863	392645	-65.3494	0.0000000E+000	0.0000000E+000	0.0000000E+000	65.3494	0.0000000E+000	0.0000000E+000	0.0000000E+000	-65.3494	0.0000000E+000	0.0000000E+000	0.0000000E+000	-24.6506	0.0000000E+000	0.0000000E+000	0.0000000E+000	24.6506	2.1791	65.3494	-2.00961e-06	-4.00717e-06	17788.7
46.4415	6.14347	2.41478	6.60101	-21.458	11.6506	0.266978	-0.0208471	1419.18	189.919	1	10	0.00456487	0.000691541	0	7.31296e-05	0.140991	0.0554186	0.151492	21.458	189919	483177	519162	-68.542	0.0000000E+000	0.0000000E+000	0.0000000E+000	68.542	0.0000000E+000	0.0000000E+000	0.0000000E+000	-68.542	0.0000000E+000	0.0000000E+000	0.0000000E+000	-21.458	0.0000000E+000	0.0000000E+000	0.0000000E+000	21.458	2.54412	68.542	-2.07018e-06	-5.56571e-06	12806.5
31.6296	6.81031	2.25862	7.17507	-18.3479	12.0975	0.266974	-0.022213	2227.84	220.758	1	10	0.00456015	0.000635554	0	7.05667e-05	0.132286	0.0438723	0.139372	18.3479	220758	665643	701295	-71.6521	0.0000000E+000	0.0000000E+000	0.0000000E+000	71.6521	0.0000000E+000	0.0000000E+000	0.0000000E+000	-71.6521	0.0000000E+000	0.0000000E+000	0.0000000E+000	-18.3479	0.0000000E+000	0.0000000E+000	0.0000000E+000	18.3479	3.01526	71.6521	-2.56287e-06	-5.93029e-06	12018.8
21.5517	7.4213	2.07338	7.70549	-15.6094	12.5363	0.266971	-0.0236628	3561.72	257.879	1	10	0.00458508	0.00059504	0	6.98886e-05	0.124991	0.0349203	0.129778	15.6094	257879	923034	958380	-74.3906	0.0000000E+000	0.0000000E+000	0.0000000E+000	74.3906	0.0000000E+000	0.0000000E+000	0.0000000E+000	-74.3906	0.0000000E+000	0.0000000E+000	0.0000000E+000	-15.6094	0.0000000E+000	0.0000000E+000	0.0000000E+000	15.6094	3.57933	74.3906	-6.78149e-07	-6.31727e-06	11282.3
14.6852	7.87246	1.81809	8.07967	-13.0041	13.014	0.266987	-0.0146958	5961.11	301.835	1	10	0.00456063	0.000564458	0	6.78742e-05	0.120593	0.0278502	0.123767	13.0041	301835	1.30697e+06	1.34137e+06	-76.9959	0.0000000E+000	0.0000000E+000	0.0000000E+000	76.9959	0.0000000E+000	0.0000000E+000	0.0000000E+000	-76.9959	0.0000000E+000	0.0000000E+000	0.0000000E+000	-13.0041	0.0000000E+000	0.0000000E+000	0.0000000E+000	13.0041	4.33008	76.9959	-2.01435e-06	-3.92358e-06	18167.6
10.0032	8.26978	1.59393	8.42199	-10.9095	13.4827	0.266987	-0.0166655	9981.89	357.537	1	10	0.0045562	0.000540988	0	6.23109e-05	0.116591	0.0224719	0.118737	10.9095	357537	1.85501e+06	1.88915e+06	-79.0905	0.0000000E+000	0.0000000E+000	0.0000000E+000	79.0905	0.0000000E+000	0.0000000E+000	0.0000000E+000	-79.0905	0.0000000E+000	0.0000000E+000	0.0000000E+000	-10.9095	0.0000000E+000	0.0000000E+000	0.0000000E+000	10.9095	5.1883	79.0905	-5.56334e-06	-4.44947e-06	16020.4
6.81719	8.62312	1.37285	8.73172	-9.04592	13.8404	0.266986	-0.0184823	17005.6	420.378	1	10	0.00456312	0.000522592	0	6.39701e-05	0.113101	0.0180063	0.114525	9.04592	420378	2.64046e+06	2.67372e+06	-80.9541	0.0000000E+000	0.0000000E+000	0.0000000E+000	80.9541	0.0000000E+000	0.0000000E+000	0.0000000E+000	-80.9541	0.0000000E+000	0.0000000E+000	0.0000000E+000	-9.04592	0.0000000E+000	0.0000000E+000	0.0000000E+000	9.04592	6.28116	80.9541	1.65916e-06	-4.93452e-06	14445.5
4.63925	8.92895	1.20033	9.00927	-7.65642	14.6133	0.267022	-0.00736705	28580.7	507.332	1	11	0.00456113	0.000506271	0	6.08633e-05	0.110007	0.0147884	0.110997	7.65642	507332	3.77392e+06	3.80787e+06	-82.3436	0.0000000E+000	0.0000000E+000	0.0000000E+000	82.3436	0.0000000E+000	0.0000000E+000	0.0000000E+000	-82.3436	0.0000000E+000	0.0000000E+000	0.0000000E+000	-7.65642	0.0000000E+000	0.0000000E+000	0.0000000E+000	7.65642	7.43877	82.3436	-3.10681e-06	-1.96717e-06	36245.4
3.1604	9.17448	1.04853	9.2342	-6.51992	15.3223	0.267017	-0.00686553	48028.4	619.243	1	11	0.00456783	0.000494665	0	6.57142e-05	0.107593	0.0122965	0.108293	6.51992	619243	5.41828e+06	5.45355e+06	-83.4801	0.0000000E+000	0.0000000E+000	0.0000000E+000	83.4801	0.0000000E+000	0.0000000E+000	0.0000000E+000	-83.4801	0.0000000E+000	0.0000000E+000	0.0000000E+000	-6.51992	0.0000000E+000	0.0000000E+000	0.0000000E+000	6.51992	8.74985	83.4801	4.85098e-06	-1.83321e-06	38892.4
2.15577	9.36297	0.92604	9.40865	-5.64844	16.3388	0.26703	-0.00396442	79723.9	772.312	1	11	0.00456576	0.000485272	0	5.8884e-05	0.105769	0.010461	0.106285	5.64844	772312	7.80867e+06	7.84677e+06	-84.3516	0.0000000E+000	0.0000000E+000	0.0000000E+000	84.3516	0.0000000E+000	0.0000000E+000	0.0000000E+000	-84.3516	0.0000000E+000	0.0000000E+000	0.0000000E+000	-5.64844	0.0000000E+000	0.0000000E+000	0.0000000E+000	5.64844	10.1108	84.3516	-6.83019e-06	-1.05862e-06	67356.5
1.46631	9.52447	0.841789	9.5616	-5.05078	17.8121	0.267024	-0.00369603	128941	999.394	1	11	0.00456752	0.000477694	0	4.46529e-05	0.104179	0.00920752	0.104585	5.05078	999394	1.13077e+07	1.13518e+07	-84.9492	0.0000000E+000	0.0000000E+000	0.0000000E+000	84.9492	0.0000000E+000	0.0000000E+000	0.0000000E+000	-84.9492	0.0000000E+000	0.0000000E+000	0.0000000E+000	-5.05078	0.0000000E+000	0.0000000E+000	0.0000000E+000	5.05078	11.3146	84.9492	-1.42311e-05	-9.8693e-07	72246.1
1.00006	9.67349	0.800757	9.70658	-4.73207	19.9522	0.267026	-0.00493547	198743	1352.57	1	11	0.00456934	0.000470747	0	3.42327e-05	0.102672	0.00849902	0.103023	4.73207	1.35257e+06	1.63397e+07	1.63956e+07	-85.2679	0.0000000E+000	0.0000000E+000	0.0000000E+000	85.2679	0.0000000E+000	0.0000000E+000	0.0000000E+000	-85.2679	0.0000000E+000	0.0000000E+000	0.0000000E+000	-4.73207	0.0000000E+000	0.0000000E+000	0.0000000E+000	4.73207	12.0804	85.2679	-1.04202e-05	-1.3179e-06	54103.6
0.681362	9.80051	0.820917	9.83483	-4.78807	23.0731	0.267028	-0.00623981	284539	1982.47	1	11	0.00456954	0.000464628	0	3.48801e-05	0.101325	0.00848722	0.101679	4.78807	1.98247e+06	2.36677e+07	2.37506e+07	-85.2119	0.0000000E+000	0.0000000E+000	0.0000000E+000	85.2119	0.0000000E+000	0.0000000E+000	0.0000000E+000	-85.2119	0.0000000E+000	0.0000000E+000	0.0000000E+000	-4.78807	0.0000000E+000	0.0000000E+000	0.0000000E+000	4.78807	11.9385	85.2119	6.47338e-07	-1.6662e-06	42794.3
0.464091	9.91363	0.887723	9.95329	-5.11695	27.6379	0.267024	-0.00637511	386313	3072.99	1	11	0.00456792	0.000458935	0	5.37533e-05	0.100069	0.00896074	0.100469	5.11695	3.07299e+06	3.43176e+07	3.44549e+07	-84.8831	0.0000000E+000	0.0000000E+000	0.0000000E+000	84.8831	0.0000000E+000	0.0000000E+000	0.0000000E+000	-84.8831	0.0000000E+000	0.0000000E+000	0.0000000E+000	-5.11695	0.0000000E+000	0.0000000E+000	0.0000000E+000	5.11695	11.1675	84.8831	1.88732e-05	-1.70231e-06	41885.4
0.316193	10.0391	1.0049	10.0893	-5.71616	34.3202	0.267025	-0.00409772	500895	4969.01	1	11	0.00456528	0.000452489	0	8.67625e-05	0.0986224	0.00987193	0.0991153	5.71616	4.96901e+06	4.96413e+07	4.98894e+07	-84.2838	0.0000000E+000	0.0000000E+000	0.0000000E+000	84.2838	0.0000000E+000	0.0000000E+000	0.0000000E+000	-84.2838	0.0000000E+000	0.0000000E+000	0.0000000E+000	-5.71616	0.0000000E+000	0.0000000E+000	0.0000000E+000	5.71616	9.99019	84.2838	3.30093e-05	-1.09419e-06	65164.2
0.215268	10.2155	1.2149	10.2875	-6.78213	44.1179	0.267022	-0.000711582	608558	8487.11	1	11	0.00456663	0.000443901	0	0.000116735	0.0965251	0.0114794	0.0972053	6.78213	8.4871e+06	7.13643e+07	7.18672e+07	-83.2179	0.0000000E+000	0.0000000E+000	0.0000000E+000	83.2179	0.0000000E+000	0.0000000E+000	0.0000000E+000	-83.2179	0.0000000E+000	0.0000000E+000	0.0000000E+000	-6.78213	0.0000000E+000	0.0000000E+000	0.0000000E+000	6.78213	8.40856	83.2179	2.99721e-05	-1.90008e-07	375252
0.146929	10.4125	1.5475	10.5268	-8.45339	58.4551	0.267022	0.00194651	699977	15126.8	1	11	0.00456992	0.000434121	0	0.000115151	0.0939633	0.0139648	0.0949954	8.45339	1.51268e+07	1.01782e+08	1.029e+08	-81.5466	0.0000000E+000	0.0000000E+000	0.0000000E+000	81.5466	0.0000000E+000	0.0000000E+000	0.0000000E+000	-81.5466	0.0000000E+000	0.0000000E+000	0.0000000E+000	-8.45339	0.0000000E+000	0.0000000E+000	0.0000000E+000	8.45339	6.72859	81.5466	-1.58362e-06	5.19762e-07	137180
0.0999041	10.6173	2.00006	10.804	-10.6683	79.525	0.267025	0.00271033	796513	27296.7	1	11	0.00456872	0.000422872	0	4.75631e-05	0.0909583	0.0171345	0.0925581	10.6683	2.72967e+07	1.44904e+08	1.47452e+08	-79.3317	0.0000000E+000	0.0000000E+000	0.0000000E+000	79.3317	0.0000000E+000	0.0000000E+000	0.0000000E+000	-79.3317	0.0000000E+000	0.0000000E+000	0.0000000E+000	-10.6683	0.0000000E+000	0.0000000E+000	0.0000000E+000	10.6683	5.30847	79.3317	-6.75879e-05	7.23725e-07	98521.5
0.0680626	10.8952	2.56722	11.1936	-13.2586	110.437	0.267026	0.0019109	910855	47910.9	1	11	0.0045683	0.000408117	0	-9.43901e-05	0.0869555	0.0204891	0.0893368	13.2586	4.79109e+07	2.03333e+08	2.08902e+08	-76.7414	0.0000000E+000	0.0000000E+000	0.0000000E+000	76.7414	0.0000000E+000	0.0000000E+000	0.0000000E+000	-76.7414	0.0000000E+000	0.0000000E+000	0.0000000E+000	-13.2586	0.0000000E+000	0.0000000E+000	0.0000000E+000	13.2586	4.24399	76.7414	-0.000141953	5.10261e-07	139738
0.0464052	11.3353	3.30052	11.8061	-16.234	155.761	0.267023	-0.000665591	1.03913e+06	81212.8	1	11	0.00456957	0.000387052	0	-0.000314945	0.0813249	0.0236794	0.0847022	16.234	8.12128e+07	2.78918e+08	2.90501e+08	-73.766	0.0000000E+000	0.0000000E+000	0.0000000E+000	73.766	0.0000000E+000	0.0000000E+000	0.0000000E+000	-73.766	0.0000000E+000	0.0000000E+000	0.0000000E+000	-16.234	0.0000000E+000	0.0000000E+000	0.0000000E+000	16.234	3.43442	73.766	-0.000220555	-1.77728e-07	401181
0.0315922	11.8789	4.44368	12.6828	-20.51	222.323	0.267024	-0.00160021	1.1337e+06	139172	1	11	0.00456696	0.000360091	0	-0.000458876	0.0738488	0.0276256	0.0788468	20.51	1.39172e+08	3.72035e+08	3.97214e+08	-69.49	0.0000000E+000	0.0000000E+000	0.0000000E+000	69.49	0.0000000E+000	0.0000000E+000	0.0000000E+000	-69.49	0.0000000E+000	0.0000000E+000	0.0000000E+000	-20.51	0.0000000E+000	0.0000000E+000	0.0000000E+000	20.51	2.6732	69.49	-0.000143931	-4.27295e-07	166868
0.0215268	12.4461	5.94719	13.794	-25.5402	319.991	0.267017	-0.00168499	1.24317e+06	231086	1	11	0.00456784	0.000331147	0	-0.00032468	0.0654114	0.0312559	0.0724954	25.5402	2.31086e+08	4.83609e+08	5.35983e+08	-64.4598	0.0000000E+000	0.0000000E+000	0.0000000E+000	64.4598	0.0000000E+000	0.0000000E+000	0.0000000E+000	-64.4598	0.0000000E+000	0.0000000E+000	0.0000000E+000	-25.5402	0.0000000E+000	0.0000000E+000	0.0000000E+000	25.5402	2.09277	64.4598	0.000134196	-4.4992e-07	158469
0.0146812	13.216	7.75167	15.3216	-30.3932	463.187	0.267014	-0.000576693	1.39851e+06	357971	1	11	0.00456788	0.000298134	0	0.000199813	0.056298	0.0330208	0.0652674	30.3932	3.57971e+08	6.10312e+08	7.07548e+08	-59.6068	0.0000000E+000	0.0000000E+000	0.0000000E+000	59.6068	0.0000000E+000	0.0000000E+000	0.0000000E+000	-59.6068	0.0000000E+000	0.0000000E+000	0.0000000E+000	-30.3932	0.0000000E+000	0.0000000E+000	0.0000000E+000	30.3932	1.70492	59.6068	0.000524493	-1.53985e-07	463009
0.0100092	14.3453	10.2198	17.6134	-35.4666	773.282	0.267021	-0.00047359	1.55589e+06	523814	1	12	0.004566	0.000259234	0	0.000923155	0.0462405	0.0329424	0.0567749	35.4666	5.23814e+08	7.35266e+08	9.02772e+08	-54.5334	0.0000000E+000	0.0000000E+000	0.0000000E+000	54.5334	0.0000000E+000	0.0000000E+000	0.0000000E+000	-54.5334	0.0000000E+000	0.0000000E+000	0.0000000E+000	-35.4666	0.0000000E+000	0.0000000E+000	0.0000000E+000	35.4666	1.40368	54.5334	0.000723342	-1.26459e-07	563823