File: txt/17483_R279_UA653_SOC00_C02.mpt
EC-Lab ASCII FILE
Nb header lines : 63

Potentio Electrochemical Impedance Spectroscopy

Run on channel : 2 (SN 66139)
User :
CE vs. WE compliance from -10 V to 10 V
Electrode connection : standard
Potential control : Ewe
Ewe ctrl range : min = -10.00 V, max = 10.00 V
Safety Limits :
	Do not start on E overload
Acquisition started on : 09/15/2025 08:58:56.927
Loaded Setting File :  C:\Users\Celltest\OneDrive - store-dot.com\Documents\EC-Lab\Data\Charmaine\R279\17382_C01.mpr
Saved on :
	File : 17483_C02.mpr
	Directory : C:\Users\Celltest\OneDrive - store-dot.com\Documents\EC-Lab\Data\Charmaine\R279\
	Host : 169.254.61.224
Device : VMP-3e (SN .003165)
Address : USB
EC-LAB for windows v11.62 (software)
Internet server v27.00 (firmware)
Command interpretor v12.03 (firmware)
Electrode material :
Initial state :
Electrolyte :
Comments :
Electrode surface area : 0.001 cm²
Characteristic mass : 0.001 g
Equivalent Weight : 0.000 g/eq.
Density : 0.000 g/cm3
Volume (V) : 0.001 cm³
Cycle Definition : Charge/Discharge alternance
Mode                Single sine
E (V)               0.0000
vs.                 Eoc
tE (h:m:s)          0:00:0.0000
record              0
dI                  0.000
unit dI             mA
dt (s)              0.000
fi                  100.000
unit fi             kHz
ff                  10.000
unit ff             mHz
Nd                  6
Points              per decade
spacing             Logarithmic
Va (mV)             5.0
pw                  0.10
Na                  2
corr                0
E range min (V)     -10.000
E range max (V)     10.000
I Range             Auto
Bandwidth           5
nc cycles           0
goto Ns'            0
nr cycles           0
inc. cycle          0

freq/Hz	Re(Z)/Ohm	-Im(Z)/Ohm	|Z|/Ohm	Phase(Z)/deg	time/s	<Ewe>/V	<I>/mA	Cs/µF	Cp/µF	cycle number	I Range	|Ewe|/V	|I|/A	Ns	(Q-Qo)/mA.h	Re(Y)/Ohm-1	Im(Y)/Ohm-1	|Y|/Ohm-1	Phase(Y)/deg	Re(C)/nF	Im(C)/nF	|C|/nF	Phase(C)/deg	Re(M)	Im(M)	|M|	Phase(M)/deg	Re(Permittivity)	Im(Permittivity)	|Permittivity|	Phase(Permittivity)/deg	Re(Resistivity)/Ohm.cm	Im(Resistivity)/Ohm.cm	|Resistivity|/Ohm.cm	Phase(Resistivity)/deg	Re(Conductivity)/mS/cm	Im(Conductivity)/mS/cm	|Conductivity|/mS/cm	Phase(Conductivity)/deg	Tan(Delta)	Loss Angle(Delta)/deg	dq/mA.h	Pwe/W	Rwe/Ohm
100004	1.00455	0.237054	1.03214	-13.2778	2.02549	0.260177	-0.0102775	6.71361	0.354141	1	9	0.00492682	0.00477342	0	-9.47968e-06	0.942964	0.222522	0.968863	13.2778	354.142	1500.72	1541.94	-76.7222	0.0000000E+000	0.0000000E+000	0.0000000E+000	76.7222	0.0000000E+000	0.0000000E+000	0.0000000E+000	-76.7222	0.0000000E+000	0.0000000E+000	0.0000000E+000	-13.2778	0.0000000E+000	0.0000000E+000	0.0000000E+000	13.2778	4.23762	76.7222	-9.47968e-06	-2.67397e-06	25315.2
68132	1.06403	0.266058	1.09679	-14.0388	2.46349	0.260173	-0.0116556	8.77996	0.516649	1	9	0.00546938	0.0049867	0	-1.1008e-05	0.884517	0.22117	0.911749	14.0388	516.649	2066.21	2129.83	-75.9612	0.0000000E+000	0.0000000E+000	0.0000000E+000	75.9612	0.0000000E+000	0.0000000E+000	0.0000000E+000	-75.9612	0.0000000E+000	0.0000000E+000	0.0000000E+000	-14.0388	0.0000000E+000	0.0000000E+000	0.0000000E+000	14.0388	3.99926	75.9612	-1.52833e-06	-3.03247e-06	22321.7
46420.4	1.12752	0.29302	1.16497	-14.5678	2.90148	0.260166	-0.0121584	11.7008	0.740246	1	9	0.00547122	0.00469643	0	-1.46414e-05	0.830791	0.215906	0.858388	14.5678	740.246	2848.42	2943.03	-75.4322	0.0000000E+000	0.0000000E+000	0.0000000E+000	75.4322	0.0000000E+000	0.0000000E+000	0.0000000E+000	-75.4322	0.0000000E+000	0.0000000E+000	0.0000000E+000	-14.5678	0.0000000E+000	0.0000000E+000	0.0000000E+000	14.5678	3.84793	75.4322	-3.63338e-06	-3.16321e-06	21398
31621.1	1.19749	0.324598	1.24071	-15.1664	3.3385	0.26017	-0.0119164	15.5059	1.06133	1	9	0.00542503	0.00437253	0	-2.07102e-05	0.777919	0.210866	0.805992	15.1664	1061.33	3915.41	4056.7	-74.8336	0.0000000E+000	0.0000000E+000	0.0000000E+000	74.8336	0.0000000E+000	0.0000000E+000	0.0000000E+000	-74.8336	0.0000000E+000	0.0000000E+000	0.0000000E+000	-15.1664	0.0000000E+000	0.0000000E+000	0.0000000E+000	15.1664	3.68916	74.8336	-6.06878e-06	-3.10028e-06	21833
21544.7	1.27082	0.360492	1.32096	-15.837	3.7755	0.260169	-0.00841526	20.492	1.52615	1	9	0.005391	0.00408113	0	-2.42917e-05	0.728291	0.206594	0.757026	15.837	1526.15	5380.03	5592.31	-74.163	0.0000000E+000	0.0000000E+000	0.0000000E+000	74.163	0.0000000E+000	0.0000000E+000	0.0000000E+000	-74.163	0.0000000E+000	0.0000000E+000	0.0000000E+000	-15.837	0.0000000E+000	0.0000000E+000	0.0000000E+000	15.837	3.52523	74.163	-3.58153e-06	-2.18939e-06	30916.3
14678.6	1.35214	0.402584	1.4108	-16.5802	4.21349	0.260172	-0.0154361	26.9327	2.1931	1	9	0.00536081	0.00379983	0	-3.1954e-05	0.679344	0.202266	0.708816	16.5802	2193.1	7365.89	7685.44	-73.4198	0.0000000E+000	0.0000000E+000	0.0000000E+000	73.4198	0.0000000E+000	0.0000000E+000	0.0000000E+000	-73.4198	0.0000000E+000	0.0000000E+000	0.0000000E+000	-16.5802	0.0000000E+000	0.0000000E+000	0.0000000E+000	16.5802	3.35867	73.4198	-7.66232e-06	-4.01604e-06	16854.7
10002.2	1.43805	0.454843	1.50827	-17.5517	4.65048	0.260172	-0.00943953	34.9834	3.18145	1	9	0.00528299	0.00350268	0	-3.24985e-05	0.632144	0.199941	0.663011	17.5517	3181.45	10058.7	10549.8	-72.4483	0.0000000E+000	0.0000000E+000	0.0000000E+000	72.4483	0.0000000E+000	0.0000000E+000	0.0000000E+000	-72.4483	0.0000000E+000	0.0000000E+000	0.0000000E+000	-17.5517	0.0000000E+000	0.0000000E+000	0.0000000E+000	17.5517	3.16165	72.4483	-5.44438e-07	-2.4559e-06	27561.9
6811.07	1.5402	0.516498	1.62449	-18.5387	5.20651	0.260147	-0.019198	45.2414	4.57339	1	9	0.00517919	0.00318819	0	-3.93251e-05	0.583635	0.195719	0.615577	18.5387	4573.39	13637.9	14384.3	-71.4613	0.0000000E+000	0.0000000E+000	0.0000000E+000	71.4613	0.0000000E+000	0.0000000E+000	0.0000000E+000	-71.4613	0.0000000E+000	0.0000000E+000	0.0000000E+000	-18.5387	0.0000000E+000	0.0000000E+000	0.0000000E+000	18.5387	2.982	71.4613	-6.8266e-06	-4.99429e-06	13550.7
4641.49	1.64931	0.594339	1.75313	-19.8169	5.9007	0.260164	-0.0138718	57.6937	6.63084	1	9	0.00510323	0.00291092	0	-3.96579e-05	0.536629	0.193377	0.570408	19.8169	6630.84	18400.8	19559.1	-70.1831	0.0000000E+000	0.0000000E+000	0.0000000E+000	70.1831	0.0000000E+000	0.0000000E+000	0.0000000E+000	-70.1831	0.0000000E+000	0.0000000E+000	0.0000000E+000	-19.8169	0.0000000E+000	0.0000000E+000	0.0000000E+000	19.8169	2.77503	70.1831	-3.32856e-07	-3.60895e-06	18754.9
3161.01	1.76255	0.697564	1.89557	-21.5922	6.3677	0.260162	-0.0109294	72.1788	9.77464	1	9	0.00523958	0.00276413	0	-4.32188e-05	0.490527	0.194136	0.527547	21.5922	9774.63	24697.7	26561.7	-68.4078	0.0000000E+000	0.0000000E+000	0.0000000E+000	68.4078	0.0000000E+000	0.0000000E+000	0.0000000E+000	-68.4078	0.0000000E+000	0.0000000E+000	0.0000000E+000	-21.5922	0.0000000E+000	0.0000000E+000	0.0000000E+000	21.5922	2.52672	68.4078	-3.56088e-06	-2.84341e-06	23803.9
2155.69	1.89434	0.825688	2.06647	-23.551	6.83469	0.260163	-0.00776348	89.4166	14.2755	1	9	0.00520261	0.00251764	0	-4.26309e-05	0.44361	0.193357	0.483918	23.551	14275.5	32751.8	35727.7	-66.449	0.0000000E+000	0.0000000E+000	0.0000000E+000	66.449	0.0000000E+000	0.0000000E+000	0.0000000E+000	-66.449	0.0000000E+000	0.0000000E+000	0.0000000E+000	-23.551	0.0000000E+000	0.0000000E+000	0.0000000E+000	23.551	2.29426	66.449	5.87931e-07	-2.01977e-06	33511.1
1468.59	2.04171	0.998837	2.27294	-26.0687	7.30193	0.260151	-0.00634815	108.499	20.9527	1	9	0.00513726	0.00226019	0	-4.22981e-05	0.395202	0.193339	0.43996	26.0687	20952.7	42829	47679.6	-63.9313	0.0000000E+000	0.0000000E+000	0.0000000E+000	63.9313	0.0000000E+000	0.0000000E+000	0.0000000E+000	-63.9313	0.0000000E+000	0.0000000E+000	0.0000000E+000	-26.0687	0.0000000E+000	0.0000000E+000	0.0000000E+000	26.0687	2.04408	63.9313	3.32783e-07	-1.65148e-06	40980.6
1000.32	2.22652	1.23575	2.54646	-29.0309	7.77071	0.260154	-0.00914161	128.751	30.3206	1	9	0.00507181	0.00199171	0	-4.51405e-05	0.343363	0.190571	0.392703	29.0309	30320.6	54630.4	62480.5	-60.9691	0.0000000E+000	0.0000000E+000	0.0000000E+000	60.9691	0.0000000E+000	0.0000000E+000	0.0000000E+000	-60.9691	0.0000000E+000	0.0000000E+000	0.0000000E+000	-29.0309	0.0000000E+000	0.0000000E+000	0.0000000E+000	29.0309	1.80176	60.9691	-2.84244e-06	-2.37822e-06	28458.2
681.09	2.45187	1.55648	2.90418	-32.4079	8.23645	0.260155	-0.0110412	150.132	43.1232	1	9	0.00501903	0.00172821	0	-4.76751e-05	0.290703	0.184542	0.344331	32.4079	43123.2	67930.6	80462.2	-57.5921	0.0000000E+000	0.0000000E+000	0.0000000E+000	57.5921	0.0000000E+000	0.0000000E+000	0.0000000E+000	-57.5921	0.0000000E+000	0.0000000E+000	0.0000000E+000	-32.4079	0.0000000E+000	0.0000000E+000	0.0000000E+000	32.4079	1.57527	57.5921	-2.53459e-06	-2.87241e-06	23562.3
463.961	2.74624	1.97116	3.38043	-35.6694	8.95922	0.260171	-0.0190654	174.027	59.1719	1	10	0.00504477	0.00149235	0	-4.85371e-05	0.240323	0.172495	0.29582	35.6694	59171.9	82439.2	101477	-54.3306	0.0000000E+000	0.0000000E+000	0.0000000E+000	54.3306	0.0000000E+000	0.0000000E+000	0.0000000E+000	-54.3306	0.0000000E+000	0.0000000E+000	0.0000000E+000	-35.6694	0.0000000E+000	0.0000000E+000	0.0000000E+000	35.6694	1.39321	54.3306	-8.62021e-07	-4.96027e-06	13646.2
316.316	3.16985	2.50592	4.04074	-38.328	9.42593	0.260172	-0.0184396	200.785	77.2225	1	10	0.0049935	0.00123579	0	-5.17052e-05	0.194141	0.153477	0.247479	38.328	77222.5	97682.3	124520	-51.672	0.0000000E+000	0.0000000E+000	0.0000000E+000	51.672	0.0000000E+000	0.0000000E+000	0.0000000E+000	-51.672	0.0000000E+000	0.0000000E+000	0.0000000E+000	-38.328	0.0000000E+000	0.0000000E+000	0.0000000E+000	38.328	1.26495	51.672	-3.16806e-06	-4.79747e-06	14109.5
215.345	3.78177	3.1429	4.91728	-39.7289	9.89342	0.260171	-0.0188493	235.155	96.0656	1	10	0.00495552	0.00100778	0	-5.4637e-05	0.156403	0.129982	0.203365	39.7289	96065.6	115593	150301	-50.2711	0.0000000E+000	0.0000000E+000	0.0000000E+000	50.2711	0.0000000E+000	0.0000000E+000	0.0000000E+000	-50.2711	0.0000000E+000	0.0000000E+000	0.0000000E+000	-39.7289	0.0000000E+000	0.0000000E+000	0.0000000E+000	39.7289	1.20327	50.2711	-2.93177e-06	-4.90405e-06	13802.7
146.737	4.65136	3.84048	6.03195	-39.5454	10.3564	0.260169	-0.0188885	282.419	114.485	1	10	0.00493695	0.000818466	0	-5.64871e-05	0.127839	0.105553	0.165784	39.5454	114485	138658	179813	-50.4546	0.0000000E+000	0.0000000E+000	0.0000000E+000	50.4546	0.0000000E+000	0.0000000E+000	0.0000000E+000	-50.4546	0.0000000E+000	0.0000000E+000	0.0000000E+000	-39.5454	0.0000000E+000	0.0000000E+000	0.0000000E+000	39.5454	1.21114	50.4547	-1.85013e-06	-4.91419e-06	13773.9
100.032	5.80844	4.51762	7.35846	-37.8747	10.8247	0.260167	-0.0183576	352.185	132.745	1	10	0.00492436	0.000669211	0	-5.81056e-05	0.107272	0.0834327	0.135898	37.8747	132745	170674	216219	-52.1253	0.0000000E+000	0.0000000E+000	0.0000000E+000	52.1253	0.0000000E+000	0.0000000E+000	0.0000000E+000	-52.1253	0.0000000E+000	0.0000000E+000	0.0000000E+000	-37.8747	0.0000000E+000	0.0000000E+000	0.0000000E+000	37.8747	1.28573	52.1253	-1.6185e-06	-4.77605e-06	14172.1
68.104	7.26966	5.01109	8.82943	-34.5791	11.3033	0.260175	-0.0167092	466.354	150.215	1	10	0.00491396	0.000556544	0	-5.97783e-05	0.0932498	0.0642786	0.113258	34.5791	150215	217919	264676	-55.4209	0.0000000E+000	0.0000000E+000	0.0000000E+000	55.4209	0.0000000E+000	0.0000000E+000	0.0000000E+000	-55.4209	0.0000000E+000	0.0000000E+000	0.0000000E+000	-34.5791	0.0000000E+000	0.0000000E+000	0.0000000E+000	34.5791	1.45071	55.4209	-1.67273e-06	-4.34732e-06	15570.7
46.4415	8.94834	5.21273	10.3559	-30.2223	11.7585	0.260167	-0.0196354	657.428	166.571	1	10	0.00491431	0.00047454	0	-6.17768e-05	0.083438	0.0486057	0.096563	30.2223	166571	285942	330921	-59.7777	0.0000000E+000	0.0000000E+000	0.0000000E+000	59.7777	0.0000000E+000	0.0000000E+000	0.0000000E+000	-59.7777	0.0000000E+000	0.0000000E+000	0.0000000E+000	-30.2223	0.0000000E+000	0.0000000E+000	0.0000000E+000	30.2223	1.71663	59.7776	-1.99846e-06	-5.10849e-06	13249.9
31.6296	10.6029	4.97124	11.7105	-25.1198	12.2044	0.260163	-0.02101	1012.19	182.407	1	10	0.00491098	0.000419367	0	-6.44534e-05	0.0773173	0.0362506	0.0853936	25.1198	182408	389049	429687	-64.8802	0.0000000E+000	0.0000000E+000	0.0000000E+000	64.8802	0.0000000E+000	0.0000000E+000	0.0000000E+000	-64.8802	0.0000000E+000	0.0000000E+000	0.0000000E+000	-25.1198	0.0000000E+000	0.0000000E+000	0.0000000E+000	25.1198	2.13285	64.8802	-2.6766e-06	-5.46602e-06	12382.8
21.5517	12.0582	4.40423	12.8374	-20.0645	12.6433	0.260155	-0.0220549	1676.75	197.358	1	10	0.00490999	0.000382476	0	-6.62152e-05	0.0731697	0.026725	0.0778976	20.0645	197358	540343	575257	-69.9355	0.0000000E+000	0.0000000E+000	0.0000000E+000	69.9355	0.0000000E+000	0.0000000E+000	0.0000000E+000	-69.9355	0.0000000E+000	0.0000000E+000	0.0000000E+000	-20.0645	0.0000000E+000	0.0000000E+000	0.0000000E+000	20.0645	2.73788	69.9355	-1.76184e-06	-5.73771e-06	11795.8
14.6852	13.1912	3.67058	13.6924	-15.5497	13.3811	0.260178	-0.0128363	2952.61	212.187	1	11	0.00491373	0.000358866	0	-6.75326e-05	0.0703602	0.0195784	0.0730333	15.5497	212187	762550	791521	-74.4502	0.0000000E+000	0.0000000E+000	0.0000000E+000	74.4502	0.0000000E+000	0.0000000E+000	0.0000000E+000	-74.4502	0.0000000E+000	0.0000000E+000	0.0000000E+000	-15.5497	0.0000000E+000	0.0000000E+000	0.0000000E+000	15.5497	3.59376	74.4502	-1.31741e-06	-3.33973e-06	20268.9
10.0032	13.9505	2.97654	14.2645	-12.0443	13.8497	0.260181	-0.0126695	5345.27	232.745	1	11	0.00491087	0.000344273	0	-7.15121e-05	0.068561	0.0146285	0.0701042	12.0443	232745	1.09083e+06	1.11539e+06	-77.9557	0.0000000E+000	0.0000000E+000	0.0000000E+000	77.9557	0.0000000E+000	0.0000000E+000	0.0000000E+000	-77.9557	0.0000000E+000	0.0000000E+000	0.0000000E+000	-12.0443	0.0000000E+000	0.0000000E+000	0.0000000E+000	12.0443	4.68681	77.9557	-3.97948e-06	-3.29635e-06	20536
6.81719	14.4746	2.33521	14.6618	-9.16463	14.2074	0.260173	-0.0131797	9997.45	253.61	1	11	0.00490741	0.000334707	0	-7.06481e-05	0.0673339	0.0108631	0.0682046	9.16463	253610	1.57199e+06	1.59231e+06	-80.8354	0.0000000E+000	0.0000000E+000	0.0000000E+000	80.8354	0.0000000E+000	0.0000000E+000	0.0000000E+000	-80.8354	0.0000000E+000	0.0000000E+000	0.0000000E+000	-9.16463	0.0000000E+000	0.0000000E+000	0.0000000E+000	9.16463	6.19843	80.8354	8.64001e-07	-3.42901e-06	19740.4
4.63925	14.8367	1.89505	14.9572	-7.27882	14.7103	0.260184	-0.0118962	18103.1	290.597	1	11	0.00490926	0.00032822	0	-7.66053e-05	0.0663186	0.00847069	0.0668573	7.27882	290597	2.27514e+06	2.29362e+06	-82.7212	0.0000000E+000	0.0000000E+000	0.0000000E+000	82.7212	0.0000000E+000	0.0000000E+000	0.0000000E+000	-82.7212	0.0000000E+000	0.0000000E+000	0.0000000E+000	-7.27882	0.0000000E+000	0.0000000E+000	0.0000000E+000	7.27882	7.82918	82.7212	-5.95715e-06	-3.0952e-06	21871.2
3.1604	15.1248	1.56269	15.2053	-5.89883	15.4192	0.260181	-0.0118532	32226	340.376	1	11	0.00490769	0.000322761	0	-7.53206e-05	0.0654181	0.00675896	0.0657663	5.89883	340376	3.2944e+06	3.31194e+06	-84.1012	0.0000000E+000	0.0000000E+000	0.0000000E+000	84.1012	0.0000000E+000	0.0000000E+000	0.0000000E+000	-84.1012	0.0000000E+000	0.0000000E+000	0.0000000E+000	-5.89883	0.0000000E+000	0.0000000E+000	0.0000000E+000	5.89883	9.67873	84.1012	1.28468e-06	-3.08397e-06	21950.2
2.15577	15.3591	1.33901	15.4173	-4.98246	16.4358	0.26019	-0.0104461	55136	415.893	1	11	0.0049118	0.000318589	0	-7.23996e-05	0.0646169	0.00563331	0.064862	4.98246	415894	4.77051e+06	4.7886e+06	-85.0175	0.0000000E+000	0.0000000E+000	0.0000000E+000	85.0175	0.0000000E+000	0.0000000E+000	0.0000000E+000	-85.0175	0.0000000E+000	0.0000000E+000	0.0000000E+000	-4.98246	0.0000000E+000	0.0000000E+000	0.0000000E+000	4.98246	11.4705	85.0175	2.921e-06	-2.71796e-06	24908
1.46631	15.5802	1.20249	15.6265	-4.4134	17.909	0.26019	-0.00931973	90263.4	534.508	1	11	0.00490971	0.000314192	0	-7.67884e-05	0.0638042	0.00492448	0.0639939	4.4134	534508	6.92537e+06	6.94597e+06	-85.5866	0.0000000E+000	0.0000000E+000	0.0000000E+000	85.5866	0.0000000E+000	0.0000000E+000	0.0000000E+000	-85.5866	0.0000000E+000	0.0000000E+000	0.0000000E+000	-4.4134	0.0000000E+000	0.0000000E+000	0.0000000E+000	4.4134	12.9565	85.5866	-4.38882e-06	-2.4249e-06	27918.2
1.00006	15.7991	1.1289	15.8394	-4.08703	20.0491	0.260195	-0.00856314	140973	716.096	1	11	0.0049132	0.000310189	0	-9.13545e-05	0.0629733	0.00449965	0.0631338	4.08703	716097	1.00219e+07	1.00474e+07	-85.913	0.0000000E+000	0.0000000E+000	0.0000000E+000	85.913	0.0000000E+000	0.0000000E+000	0.0000000E+000	-85.913	0.0000000E+000	0.0000000E+000	0.0000000E+000	-4.08703	0.0000000E+000	0.0000000E+000	0.0000000E+000	4.08703	13.9951	85.913	-1.45661e-05	-2.22809e-06	30385.5
0.681362	16.0243	1.07944	16.0607	-3.85376	24.687	0.260194	-0.00791823	216393	977.493	1	12	0.0049086	0.000305629	0	-0.000116714	0.0621232	0.00418477	0.062264	3.85376	977492	1.45109e+07	1.45438e+07	-86.1462	0.0000000E+000	0.0000000E+000	0.0000000E+000	86.1462	0.0000000E+000	0.0000000E+000	0.0000000E+000	-86.1462	0.0000000E+000	0.0000000E+000	0.0000000E+000	-3.85376	0.0000000E+000	0.0000000E+000	0.0000000E+000	3.85376	14.8451	86.1462	-2.53597e-05	-2.06028e-06	32860.1
0.464091	16.2669	1.06734	16.3019	-3.75403	29.2518	0.260195	-0.00836429	321304	1377.35	1	12	0.00491272	0.000301359	0	-0.000133686	0.061211	0.0040163	0.0613426	3.75403	1.37735e+06	2.09917e+07	2.10368e+07	-86.246	0.0000000E+000	0.0000000E+000	0.0000000E+000	86.246	0.0000000E+000	0.0000000E+000	0.0000000E+000	-86.246	0.0000000E+000	0.0000000E+000	0.0000000E+000	-3.75403	0.0000000E+000	0.0000000E+000	0.0000000E+000	3.75403	15.2406	86.246	-1.69722e-05	-2.17634e-06	31107.8
0.316193	16.4794	1.10369	16.5163	-3.8316	35.9342	0.260194	-0.00870457	456058	2036.51	1	12	0.00491234	0.000297423	0	-0.000137827	0.0604108	0.00404594	0.0605461	3.8316	2.03651e+06	3.04076e+07	3.04757e+07	-86.1684	0.0000000E+000	0.0000000E+000	0.0000000E+000	86.1684	0.0000000E+000	0.0000000E+000	0.0000000E+000	-86.1684	0.0000000E+000	0.0000000E+000	0.0000000E+000	-3.8316	0.0000000E+000	0.0000000E+000	0.0000000E+000	3.8316	14.9312	86.1684	-4.14102e-06	-2.26487e-06	29891.6
0.215268	16.6751	1.18274	16.717	-4.05713	45.7319	0.260186	-0.00842672	625101	3129.08	1	12	0.00491155	0.000293806	0	-0.00012487	0.0596696	0.00423229	0.0598195	4.05713	3.12908e+06	4.41158e+07	4.42266e+07	-85.9429	0.0000000E+000	0.0000000E+000	0.0000000E+000	85.9429	0.0000000E+000	0.0000000E+000	0.0000000E+000	-85.9429	0.0000000E+000	0.0000000E+000	0.0000000E+000	-4.05713	0.0000000E+000	0.0000000E+000	0.0000000E+000	4.05713	14.0986	85.9429	1.29573e-05	-2.19251e-06	30876.3
0.146929	16.8827	1.30847	16.9333	-4.43177	60.0686	0.260188	-0.0065829	827845	4943.02	1	12	0.00491204	0.000290081	0	-9.83679e-05	0.0588786	0.0045633	0.0590551	4.43177	4.94302e+06	6.37779e+07	6.39692e+07	-85.5682	0.0000000E+000	0.0000000E+000	0.0000000E+000	85.5682	0.0000000E+000	0.0000000E+000	0.0000000E+000	-85.5682	0.0000000E+000	0.0000000E+000	0.0000000E+000	-4.43177	0.0000000E+000	0.0000000E+000	0.0000000E+000	4.43177	12.9026	85.5682	2.65022e-05	-1.71279e-06	39524.9
0.0999041	17.122	1.55273	17.1923	-5.18175	81.1386	0.260192	-0.00369494	1.02599e+06	8368.85	1	12	0.00491191	0.000285705	0	-7.54463e-05	0.057928	0.00525326	0.0581657	5.18175	8.36884e+06	9.22838e+07	9.26625e+07	-84.8183	0.0000000E+000	0.0000000E+000	0.0000000E+000	84.8183	0.0000000E+000	0.0000000E+000	0.0000000E+000	-84.8183	0.0000000E+000	0.0000000E+000	0.0000000E+000	-5.18175	0.0000000E+000	0.0000000E+000	0.0000000E+000	5.18175	11.0271	84.8183	2.29216e-05	-9.61396e-07	70418.5
0.0680626	17.3958	1.96192	17.5061	-6.4347	112.051	0.260183	-0.00157913	1.19187e+06	14969.7	1	12	0.00491273	0.000280629	0	-8.45651e-05	0.056763	0.00640181	0.0571229	6.4347	1.49697e+07	1.32732e+08	1.33574e+08	-83.5653	0.0000000E+000	0.0000000E+000	0.0000000E+000	83.5653	0.0000000E+000	0.0000000E+000	0.0000000E+000	-83.5653	0.0000000E+000	0.0000000E+000	0.0000000E+000	-6.4347	0.0000000E+000	0.0000000E+000	0.0000000E+000	6.4347	8.86672	83.5653	-9.11884e-06	-4.10864e-07	164763
0.0464052	17.6799	2.56763	17.8654	-8.26321	157.374	0.260189	-0.000309832	1.33574e+06	27590.5	1	12	0.00491186	0.000274937	0	-0.000187012	0.055393	0.00804463	0.0559741	8.26321	2.75905e+07	1.8998e+08	1.91973e+08	-81.7368	0.0000000E+000	0.0000000E+000	0.0000000E+000	81.7368	0.0000000E+000	0.0000000E+000	0.0000000E+000	-81.7368	0.0000000E+000	0.0000000E+000	0.0000000E+000	-8.26321	0.0000000E+000	0.0000000E+000	0.0000000E+000	8.26321	6.8857	81.7368	-0.000102447	-8.06149e-08	839774
0.0315922	18.0282	3.359	18.3384	-10.5543	223.935	0.260183	-0.000870201	1.49979e+06	50318.3	1	12	0.00491164	0.000267833	0	-0.000433162	0.0536078	0.00998817	0.0545303	10.5543	5.03183e+07	2.70065e+08	2.74712e+08	-79.4457	0.0000000E+000	0.0000000E+000	0.0000000E+000	79.4457	0.0000000E+000	0.0000000E+000	0.0000000E+000	-79.4457	0.0000000E+000	0.0000000E+000	0.0000000E+000	-10.5543	0.0000000E+000	0.0000000E+000	0.0000000E+000	10.5543	5.36713	79.4457	-0.00024615	-2.26411e-07	298992
0.0215268	18.605	4.44059	19.1276	-13.424	321.605	0.260181	-0.00220273	1.66495e+06	89734.4	1	12	0.00491174	0.000256788	0	-0.000802083	0.050852	0.0121372	0.0522804	13.424	8.97344e+07	3.75966e+08	3.86527e+08	-76.576	0.0000000E+000	0.0000000E+000	0.0000000E+000	76.576	0.0000000E+000	0.0000000E+000	0.0000000E+000	-76.576	0.0000000E+000	0.0000000E+000	0.0000000E+000	-13.424	0.0000000E+000	0.0000000E+000	0.0000000E+000	13.424	4.18977	76.576	-0.000368921	-5.73109e-07	118118
0.0146812	19.3776	6.01463	20.2896	-17.2439	464.801	0.260181	-0.00316349	1.8024e+06	158388	1	12	0.00491175	0.000242082	0	-0.00113886	0.047071	0.0146104	0.0492864	17.2439	1.58388e+08	5.10285e+08	5.34301e+08	-72.7561	0.0000000E+000	0.0000000E+000	0.0000000E+000	72.7561	0.0000000E+000	0.0000000E+000	0.0000000E+000	-72.7561	0.0000000E+000	0.0000000E+000	0.0000000E+000	-17.2439	0.0000000E+000	0.0000000E+000	0.0000000E+000	17.2439	3.22175	72.7561	-0.000336774	-8.2308e-07	82244.8
0.0100092	20.1929	8.12111	21.7648	-21.9088	674.822	0.260177	-0.00292052	1.95797e+06	272601	1	12	0.00491253	0.00022571	0	-0.00115969	0.0426275	0.0171437	0.0459457	21.9088	2.72601e+08	6.77816e+08	7.30579e+08	-68.0912	0.0000000E+000	0.0000000E+000	0.0000000E+000	68.0912	0.0000000E+000	0.0000000E+000	0.0000000E+000	-68.0912	0.0000000E+000	0.0000000E+000	0.0000000E+000	-21.9088	0.0000000E+000	0.0000000E+000	0.0000000E+000	21.9088	2.48647	68.0912	-2.08292e-05	-7.59853e-07	89085.9