File: txt/17482_R279_UA653_SOC00_C01.mpt
EC-Lab ASCII FILE
Nb header lines : 63

Potentio Electrochemical Impedance Spectroscopy

Run on channel : 1 (SN 66354)
User :
CE vs. WE compliance from -10 V to 10 V
Electrode connection : standard
Potential control : Ewe
Ewe ctrl range : min = -10.00 V, max = 10.00 V
Safety Limits :
	Do not start on E overload
Acquisition started on : 09/15/2025 08:58:46.793
Loaded Setting File :  C:\Users\Celltest\OneDrive - store-dot.com\Documents\EC-Lab\Data\Gyutae\EIS_SOC0_C01.mpr
Saved on :
	File : 17482_C01.mpr
	Directory : C:\Users\Celltest\OneDrive - store-dot.com\Documents\EC-Lab\Data\Charmaine\R279\
	Host : 169.254.61.224
Device : VMP-3e (SN .003165)
Address : USB
EC-LAB for windows v11.62 (software)
Internet server v27.00 (firmware)
Command interpretor v12.03 (firmware)
Electrode material :
Initial state :
Electrolyte :
Comments :
Electrode surface area : 0.001 cm²
Characteristic mass : 0.001 g
Equivalent Weight : 0.000 g/eq.
Density : 0.000 g/cm3
Volume (V) : 0.001 cm³
Cycle Definition : Charge/Discharge alternance
Mode                Single sine
E (V)               0.0000
vs.                 Eoc
tE (h:m:s)          0:00:0.0000
record              0
dI                  0.000
unit dI             mA
dt (s)              0.000
fi                  100.000
unit fi             kHz
ff                  10.000
unit ff             mHz
Nd                  6
Points              per decade
spacing             Logarithmic
Va (mV)             5.0
pw                  0.10
Na                  2
corr                0
E range min (V)     -10.000
E range max (V)     10.000
I Range             Auto
Bandwidth           5
nc cycles           0
goto Ns'            0
nr cycles           0
inc. cycle          0

freq/Hz	Re(Z)/Ohm	-Im(Z)/Ohm	|Z|/Ohm	Phase(Z)/deg	time/s	<Ewe>/V	<I>/mA	Cs/µF	Cp/µF	cycle number	I Range	|Ewe|/V	|I|/A	Ns	(Q-Qo)/mA.h	Re(Y)/Ohm-1	Im(Y)/Ohm-1	|Y|/Ohm-1	Phase(Y)/deg	Re(C)/nF	Im(C)/nF	|C|/nF	Phase(C)/deg	Re(M)	Im(M)	|M|	Phase(M)/deg	Re(Permittivity)	Im(Permittivity)	|Permittivity|	Phase(Permittivity)/deg	Re(Resistivity)/Ohm.cm	Im(Resistivity)/Ohm.cm	|Resistivity|/Ohm.cm	Phase(Resistivity)/deg	Re(Conductivity)/mS/cm	Im(Conductivity)/mS/cm	|Conductivity|/mS/cm	Phase(Conductivity)/deg	Tan(Delta)	Loss Angle(Delta)/deg	dq/mA.h	Pwe/W	Rwe/Ohm
100004	1.3196	0.387029	1.37519	-16.346	1.86448	0.273886	0.0772796	4.11207	0.325704	1	9	0.00464091	0.00337474	0	1.10608e-05	0.69778	0.204653	0.727173	16.346	325.704	1110.51	1157.29	-73.654	0.0000000E+000	0.0000000E+000	0.0000000E+000	73.654	0.0000000E+000	0.0000000E+000	0.0000000E+000	-73.654	0.0000000E+000	0.0000000E+000	0.0000000E+000	-16.346	0.0000000E+000	0.0000000E+000	0.0000000E+000	16.346	3.40957	73.654	1.10608e-05	2.11658e-05	3544.1
68132	1.41404	0.430549	1.47814	-16.9345	2.44249	0.273895	0.0776894	5.42557	0.460322	1	9	0.00504056	0.00341007	0	2.59442e-05	0.647192	0.197058	0.676527	16.9345	460.322	1511.83	1580.35	-73.0655	0.0000000E+000	0.0000000E+000	0.0000000E+000	73.0655	0.0000000E+000	0.0000000E+000	0.0000000E+000	-73.0655	0.0000000E+000	0.0000000E+000	0.0000000E+000	-16.9345	0.0000000E+000	0.0000000E+000	0.0000000E+000	16.9345	3.28428	73.0655	1.48835e-05	2.12787e-05	3525.52
46420.4	1.51922	0.471583	1.59073	-17.2449	3.02048	0.273899	0.0833334	7.27033	0.638966	1	9	0.00504763	0.00317316	0	4.5417e-05	0.600383	0.186366	0.628643	17.2449	638.966	2058.45	2155.34	-72.7551	0.0000000E+000	0.0000000E+000	0.0000000E+000	72.7551	0.0000000E+000	0.0000000E+000	0.0000000E+000	-72.7551	0.0000000E+000	0.0000000E+000	0.0000000E+000	-17.2449	0.0000000E+000	0.0000000E+000	0.0000000E+000	17.2449	3.22153	72.7551	1.94728e-05	2.28249e-05	3286.79
31621.1	1.6322	0.529947	1.71608	-17.9877	3.59849	0.273896	0.0876363	9.49752	0.905731	1	9	0.00504742	0.00294125	0	4.95025e-05	0.554241	0.179952	0.582723	17.9877	905.731	2789.6	2932.95	-72.0123	0.0000000E+000	0.0000000E+000	0.0000000E+000	72.0123	0.0000000E+000	0.0000000E+000	0.0000000E+000	-72.0123	0.0000000E+000	0.0000000E+000	0.0000000E+000	-17.9877	0.0000000E+000	0.0000000E+000	0.0000000E+000	17.9877	3.07994	72.0123	4.08544e-06	2.40032e-05	3125.37
21544.7	1.76486	0.591264	1.86127	-18.5219	4.03548	0.273896	0.0808373	12.4939	1.26079	1	9	0.00512086	0.00275127	0	5.89315e-05	0.509438	0.170672	0.537267	18.5219	1260.79	3763.32	3968.9	-71.4781	0.0000000E+000	0.0000000E+000	0.0000000E+000	71.4781	0.0000000E+000	0.0000000E+000	0.0000000E+000	-71.4781	0.0000000E+000	0.0000000E+000	0.0000000E+000	-18.5219	0.0000000E+000	0.0000000E+000	0.0000000E+000	18.5219	2.9849	71.4781	9.42902e-06	2.2141e-05	3388.24
14678.6	1.90179	0.648919	2.00945	-18.8404	4.47349	0.273891	0.0837991	16.7088	1.74249	1	9	0.00492614	0.00245148	0	6.86123e-05	0.470985	0.160707	0.497648	18.8404	1742.49	5106.73	5395.82	-71.1596	0.0000000E+000	0.0000000E+000	0.0000000E+000	71.1596	0.0000000E+000	0.0000000E+000	0.0000000E+000	-71.1596	0.0000000E+000	0.0000000E+000	0.0000000E+000	-18.8404	0.0000000E+000	0.0000000E+000	0.0000000E+000	18.8404	2.93071	71.1596	9.68076e-06	2.29518e-05	3268.43
10002.2	2.05511	0.722341	2.17836	-19.3658	4.91049	0.273903	0.0796452	22.0283	2.42217	1	9	0.00496401	0.00227878	0	7.76517e-05	0.433087	0.152223	0.45906	19.3658	2422.17	6891.26	7304.54	-70.6342	0.0000000E+000	0.0000000E+000	0.0000000E+000	70.6342	0.0000000E+000	0.0000000E+000	0.0000000E+000	-70.6342	0.0000000E+000	0.0000000E+000	0.0000000E+000	-19.3658	0.0000000E+000	0.0000000E+000	0.0000000E+000	19.3658	2.84507	70.6342	9.03943e-06	2.18151e-05	3439.04
6811.07	2.21657	0.816245	2.36209	-20.216	5.2885	0.27366	-0.0110878	28.6276	3.41849	1	9	0.00470081	0.00199011	0	7.85647e-05	0.397274	0.146295	0.423354	20.216	3418.49	9283.15	9892.57	-69.784	0.0000000E+000	0.0000000E+000	0.0000000E+000	69.784	0.0000000E+000	0.0000000E+000	0.0000000E+000	-69.784	0.0000000E+000	0.0000000E+000	0.0000000E+000	-20.216	0.0000000E+000	0.0000000E+000	0.0000000E+000	20.216	2.71557	69.784	9.12988e-07	-3.03427e-06	24681.3
4641.49	2.39198	0.907148	2.55822	-20.769	5.75967	0.273924	0.134111	37.7994	4.75299	1	9	0.00457887	0.00178987	0	9.61851e-05	0.365496	0.138613	0.390897	20.769	4752.99	12532.7	13403.7	-69.231	0.0000000E+000	0.0000000E+000	0.0000000E+000	69.231	0.0000000E+000	0.0000000E+000	0.0000000E+000	-69.231	0.0000000E+000	0.0000000E+000	0.0000000E+000	-20.769	0.0000000E+000	0.0000000E+000	0.0000000E+000	20.769	2.63681	69.231	1.76204e-05	3.67363e-05	2042.52
3161.01	2.57739	1.03472	2.77733	-21.8735	6.22668	0.273921	0.132882	48.66	6.75398	1	9	0.00451363	0.00162517	0	0.000113288	0.334137	0.134142	0.360058	21.8735	6753.98	16823.6	18128.7	-68.1265	0.0000000E+000	0.0000000E+000	0.0000000E+000	68.1265	0.0000000E+000	0.0000000E+000	0.0000000E+000	-68.1265	0.0000000E+000	0.0000000E+000	0.0000000E+000	-21.8735	0.0000000E+000	0.0000000E+000	0.0000000E+000	21.8735	2.49091	68.1265	1.71028e-05	3.6399e-05	2061.39
2155.69	2.79929	1.19059	3.04196	-23.0409	6.91671	0.273914	0.135154	62.0115	9.49922	1	9	0.00498443	0.00163856	0	0.00013469	0.302511	0.128663	0.328735	23.0409	9499.22	22334.4	24270.6	-66.9591	0.0000000E+000	0.0000000E+000	0.0000000E+000	66.9591	0.0000000E+000	0.0000000E+000	0.0000000E+000	-66.9591	0.0000000E+000	0.0000000E+000	0.0000000E+000	-23.0409	0.0000000E+000	0.0000000E+000	0.0000000E+000	23.0409	2.35118	66.9591	2.14026e-05	3.70206e-05	2026.68
1468.59	3.03149	1.40393	3.3408	-24.8496	7.38396	0.273922	0.135005	77.1923	13.6321	1	9	0.0049616	0.00148515	0	0.000150604	0.271615	0.125789	0.299329	24.8496	13632.1	29435.7	32439.1	-65.1504	0.0000000E+000	0.0000000E+000	0.0000000E+000	65.1504	0.0000000E+000	0.0000000E+000	0.0000000E+000	-65.1504	0.0000000E+000	0.0000000E+000	0.0000000E+000	-24.8496	0.0000000E+000	0.0000000E+000	0.0000000E+000	24.8496	2.15929	65.1504	1.59138e-05	3.69809e-05	2028.97
1000.32	3.33467	1.66822	3.72867	-26.5773	8.10771	0.273853	0.00537195	95.3733	19.091	1	10	0.00504885	0.00135406	0	0.000160774	0.239853	0.11999	0.268192	26.5773	19091	38161.5	42670.5	-63.4227	0.0000000E+000	0.0000000E+000	0.0000000E+000	63.4227	0.0000000E+000	0.0000000E+000	0.0000000E+000	-63.4227	0.0000000E+000	0.0000000E+000	0.0000000E+000	-26.5773	0.0000000E+000	0.0000000E+000	0.0000000E+000	26.5773	1.99893	63.4227	1.017e-05	1.47113e-06	50978.4
681.09	3.66582	2.02152	4.18626	-28.8745	8.57345	0.273869	0.00580241	115.595	26.9551	1	10	0.00501366	0.00119765	0	0.000162429	0.209179	0.115352	0.238876	28.8745	26955.1	48880.3	55819.9	-61.1255	0.0000000E+000	0.0000000E+000	0.0000000E+000	61.1255	0.0000000E+000	0.0000000E+000	0.0000000E+000	-61.1255	0.0000000E+000	0.0000000E+000	0.0000000E+000	-28.8745	0.0000000E+000	0.0000000E+000	0.0000000E+000	28.8745	1.8134	61.1255	1.65454e-06	1.5891e-06	47199.2
463.961	4.07621	2.47371	4.76809	-31.2521	9.0422	0.273859	0.0050328	138.672	37.3248	1	10	0.00498936	0.0010464	0	0.000162731	0.179294	0.108808	0.209727	31.2521	37324.9	61504.4	71943.9	-58.7479	0.0000000E+000	0.0000000E+000	0.0000000E+000	58.7479	0.0000000E+000	0.0000000E+000	0.0000000E+000	-58.7479	0.0000000E+000	0.0000000E+000	0.0000000E+000	-31.2521	0.0000000E+000	0.0000000E+000	0.0000000E+000	31.2521	1.64781	58.7479	3.02026e-07	1.37828e-06	54414.9
316.316	4.60038	3.04143	5.51487	-33.4697	9.5089	0.273861	0.00476632	165.433	50.316	1	10	0.00496441	0.000900187	0	0.000163105	0.15126	0.100002	0.181328	33.4697	50316	76106.6	91235.5	-56.5303	0.0000000E+000	0.0000000E+000	0.0000000E+000	56.5303	0.0000000E+000	0.0000000E+000	0.0000000E+000	-56.5303	0.0000000E+000	0.0000000E+000	0.0000000E+000	-33.4697	0.0000000E+000	0.0000000E+000	0.0000000E+000	33.4697	1.51257	56.5303	3.73697e-07	1.30531e-06	57457.5
215.345	5.30606	3.72603	6.48364	-35.0773	9.97643	0.273856	0.00431349	198.354	65.508	1	10	0.00495189	0.000763751	0	0.000164181	0.126222	0.0886356	0.154234	35.0773	65508	93286.9	113990	-54.9227	0.0000000E+000	0.0000000E+000	0.0000000E+000	54.9227	0.0000000E+000	0.0000000E+000	0.0000000E+000	-54.9227	0.0000000E+000	0.0000000E+000	0.0000000E+000	-35.0773	0.0000000E+000	0.0000000E+000	0.0000000E+000	35.0773	1.42405	54.9227	1.07654e-06	1.18128e-06	63488.4
146.737	6.24504	4.51614	7.70689	-35.8728	10.4394	0.273851	0.00261959	240.166	82.4687	1	10	0.00494424	0.000641535	0	0.000164795	0.105142	0.0760343	0.129754	35.8728	82468.7	114040	140734	-54.1272	0.0000000E+000	0.0000000E+000	0.0000000E+000	54.1272	0.0000000E+000	0.0000000E+000	0.0000000E+000	-54.1272	0.0000000E+000	0.0000000E+000	0.0000000E+000	-35.8728	0.0000000E+000	0.0000000E+000	0.0000000E+000	35.8728	1.38283	54.1272	6.13558e-07	7.17379e-07	104540
100.032	7.49644	5.35284	9.21138	-35.5288	10.9077	0.27385	0.00392215	297.233	100.373	1	10	0.00494088	0.000536388	0	0.000165487	0.0883498	0.0630862	0.108561	35.5288	100373	140568	172725	-54.4712	0.0000000E+000	0.0000000E+000	0.0000000E+000	54.4712	0.0000000E+000	0.0000000E+000	0.0000000E+000	-54.4712	0.0000000E+000	0.0000000E+000	0.0000000E+000	-35.5288	0.0000000E+000	0.0000000E+000	0.0000000E+000	35.5288	1.40046	54.4712	6.92093e-07	1.07408e-06	69821.2
68.104	9.11181	6.14718	10.9915	-34.0051	11.3863	0.27386	0.0065776	380.165	118.908	1	10	0.0049397	0.000449411	0	0.000166482	0.0754208	0.0508818	0.0909794	34.0051	118908	176254	212614	-55.9949	0.0000000E+000	0.0000000E+000	0.0000000E+000	55.9949	0.0000000E+000	0.0000000E+000	0.0000000E+000	-55.9949	0.0000000E+000	0.0000000E+000	0.0000000E+000	-34.0051	0.0000000E+000	0.0000000E+000	0.0000000E+000	34.0051	1.48227	55.9949	9.95148e-07	1.80134e-06	41635.3
46.4415	11.1028	6.67901	12.9569	-31.0295	11.8415	0.273849	0.000275339	513.1	136.341	1	10	0.00493861	0.000381157	0	0.000166913	0.0661349	0.0397843	0.0771791	31.0295	136341	226644	264492	-58.9705	0.0000000E+000	0.0000000E+000	0.0000000E+000	58.9705	0.0000000E+000	0.0000000E+000	0.0000000E+000	-58.9705	0.0000000E+000	0.0000000E+000	0.0000000E+000	-31.0295	0.0000000E+000	0.0000000E+000	0.0000000E+000	31.0295	1.66234	58.9705	4.31283e-07	7.54014e-08	994587
31.6296	13.2899	6.76231	14.9114	-26.9684	12.2874	0.273836	-0.000878151	744.101	153.032	1	10	0.00493105	0.000330689	0	0.000166925	0.05977	0.0304128	0.0670626	26.9684	153032	300753	337448	-63.0316	0.0000000E+000	0.0000000E+000	0.0000000E+000	63.0316	0.0000000E+000	0.0000000E+000	0.0000000E+000	-63.0316	0.0000000E+000	0.0000000E+000	0.0000000E+000	-26.9684	0.0000000E+000	0.0000000E+000	0.0000000E+000	26.9684	1.96529	63.0316	1.15402e-08	-2.4047e-07	311833
21.5517	15.5354	6.32431	16.7734	-22.1507	12.9673	0.273885	0.00653952	1167.68	166.001	1	11	0.00494366	0.000294732	0	0.000167775	0.0552181	0.0224787	0.0596182	22.1507	166001	407774	440268	-67.8493	0.0000000E+000	0.0000000E+000	0.0000000E+000	67.8493	0.0000000E+000	0.0000000E+000	0.0000000E+000	-67.8493	0.0000000E+000	0.0000000E+000	0.0000000E+000	-22.1507	0.0000000E+000	0.0000000E+000	0.0000000E+000	22.1507	2.45646	67.8493	8.50395e-07	1.79108e-06	41881.4
14.6852	17.2658	5.51252	18.1245	-17.7069	13.445	0.27389	0.00742135	1966.04	181.87	1	11	0.0049344	0.000272251	0	0.000169124	0.0525601	0.0167811	0.055174	17.7069	181870	569637	597966	-72.2931	0.0000000E+000	0.0000000E+000	0.0000000E+000	72.2931	0.0000000E+000	0.0000000E+000	0.0000000E+000	-72.2931	0.0000000E+000	0.0000000E+000	0.0000000E+000	-17.7069	0.0000000E+000	0.0000000E+000	0.0000000E+000	17.7069	3.13211	72.2931	1.34925e-06	2.03263e-06	36905.7
10.0032	18.5296	4.57643	19.0864	-13.8732	13.9137	0.273884	0.00707521	3476.6	199.875	1	11	0.00492533	0.000258054	0	0.000170479	0.0508649	0.0125626	0.0523933	13.8732	199875	809281	833598	-76.1268	0.0000000E+000	0.0000000E+000	0.0000000E+000	76.1268	0.0000000E+000	0.0000000E+000	0.0000000E+000	-76.1268	0.0000000E+000	0.0000000E+000	0.0000000E+000	-13.8732	0.0000000E+000	0.0000000E+000	0.0000000E+000	13.8732	4.04893	76.1268	1.35417e-06	1.93778e-06	38710.3
6.81719	19.4853	3.63679	19.8218	-10.5722	14.2714	0.273885	0.00718208	6419.42	216.097	1	11	0.00492785	0.000248608	0	0.000169248	0.0495932	0.00925623	0.0504496	10.5722	216097	1.15781e+06	1.1778e+06	-79.4278	0.0000000E+000	0.0000000E+000	0.0000000E+000	79.4278	0.0000000E+000	0.0000000E+000	0.0000000E+000	-79.4278	0.0000000E+000	0.0000000E+000	0.0000000E+000	-10.5722	0.0000000E+000	0.0000000E+000	0.0000000E+000	10.5722	5.35782	79.4278	-1.23037e-06	1.96706e-06	38134.4
4.63925	20.0982	2.90008	20.3064	-8.21083	14.7733	0.273899	0.0077727	11829.4	241.277	1	11	0.00492995	0.000242778	0	0.000170772	0.0487408	0.00703305	0.0492456	8.21083	241277	1.67211e+06	1.68943e+06	-81.7892	0.0000000E+000	0.0000000E+000	0.0000000E+000	81.7892	0.0000000E+000	0.0000000E+000	0.0000000E+000	-81.7892	0.0000000E+000	0.0000000E+000	0.0000000E+000	-8.21083	0.0000000E+000	0.0000000E+000	0.0000000E+000	8.21083	6.93024	81.7892	1.52358e-06	2.12894e-06	35238.6
3.1604	20.5484	2.3618	20.6837	-6.5567	15.4823	0.273901	0.00845473	21322.4	278.012	1	11	0.00493453	0.000238571	0	0.0001763	0.048031	0.00552059	0.0483472	6.5567	278012	2.4188e+06	2.43472e+06	-83.4433	0.0000000E+000	0.0000000E+000	0.0000000E+000	83.4433	0.0000000E+000	0.0000000E+000	0.0000000E+000	-83.4433	0.0000000E+000	0.0000000E+000	0.0000000E+000	-6.5567	0.0000000E+000	0.0000000E+000	0.0000000E+000	6.5567	8.70033	83.4433	5.52814e-06	2.31576e-06	32396.2
2.15577	20.9248	1.99343	21.0195	-5.44194	16.4988	0.273911	0.00957186	37035.4	333.099	1	11	0.00493607	0.000234833	0	0.000178217	0.0473604	0.00451186	0.0475748	5.44194	333099	3.4965e+06	3.51233e+06	-84.5581	0.0000000E+000	0.0000000E+000	0.0000000E+000	84.5581	0.0000000E+000	0.0000000E+000	0.0000000E+000	-84.5581	0.0000000E+000	0.0000000E+000	0.0000000E+000	-5.44194	0.0000000E+000	0.0000000E+000	0.0000000E+000	5.44194	10.4969	84.5581	1.91743e-06	2.62183e-06	28616.2
1.46631	21.2248	1.74725	21.2966	-4.70603	17.972	0.273918	0.00977899	62121.3	418.146	1	11	0.0049357	0.00023176	0	0.000176269	0.0467976	0.00385242	0.0469559	4.70603	418146	5.07946e+06	5.09664e+06	-85.294	0.0000000E+000	0.0000000E+000	0.0000000E+000	85.294	0.0000000E+000	0.0000000E+000	0.0000000E+000	-85.294	0.0000000E+000	0.0000000E+000	0.0000000E+000	-4.70603	0.0000000E+000	0.0000000E+000	0.0000000E+000	4.70603	12.1476	85.294	-1.94846e-06	2.67864e-06	28010.9
1.00006	21.532	1.58986	21.5906	-4.22287	21.1622	0.273913	0.00834976	100100	542.774	1	12	0.00493667	0.000228648	0	0.000177516	0.0461906	0.00341057	0.0463163	4.22287	542773	7.35099e+06	7.371e+06	-85.7771	0.0000000E+000	0.0000000E+000	0.0000000E+000	85.7771	0.0000000E+000	0.0000000E+000	0.0000000E+000	-85.7771	0.0000000E+000	0.0000000E+000	0.0000000E+000	-4.22287	0.0000000E+000	0.0000000E+000	0.0000000E+000	4.22287	13.5434	85.7771	1.24756e-06	2.28711e-06	32804.9
0.681362	21.85	1.48334	21.9003	-3.8837	24.2833	0.27391	0.00727506	157471	722.409	1	12	0.00493914	0.000225529	0	0.000185864	0.0455567	0.00309272	0.0456615	3.8837	722409	1.06413e+07	1.06658e+07	-86.1163	0.0000000E+000	0.0000000E+000	0.0000000E+000	86.1163	0.0000000E+000	0.0000000E+000	0.0000000E+000	-86.1163	0.0000000E+000	0.0000000E+000	0.0000000E+000	-3.8837	0.0000000E+000	0.0000000E+000	0.0000000E+000	3.8837	14.7303	86.1163	8.34794e-06	1.99272e-06	37650.6
0.464091	22.1449	1.44027	22.1916	-3.7212	28.8486	0.273908	0.0063989	238107	1002.96	1	12	0.00493797	0.000222515	0	0.000206591	0.044967	0.0029246	0.045062	3.7212	1.00296e+06	1.5421e+07	1.54535e+07	-86.2788	0.0000000E+000	0.0000000E+000	0.0000000E+000	86.2788	0.0000000E+000	0.0000000E+000	0.0000000E+000	-86.2788	0.0000000E+000	0.0000000E+000	0.0000000E+000	-3.7212	0.0000000E+000	0.0000000E+000	0.0000000E+000	3.7212	15.3754	86.2788	2.07266e-05	1.75271e-06	42805.6
0.316193	22.451	1.42611	22.4962	-3.63461	35.5291	0.273914	0.00594029	352951	1418.41	1	12	0.00493669	0.000219445	0	0.000238386	0.0443625	0.00281796	0.0444519	3.63461	1.41841e+06	2.23298e+07	2.23748e+07	-86.3654	0.0000000E+000	0.0000000E+000	0.0000000E+000	86.3654	0.0000000E+000	0.0000000E+000	0.0000000E+000	-86.3654	0.0000000E+000	0.0000000E+000	0.0000000E+000	-3.63461	0.0000000E+000	0.0000000E+000	0.0000000E+000	3.63461	15.7428	86.3654	3.17952e-05	1.62713e-06	46111.2
0.215268	22.7738	1.48274	22.822	-3.72513	45.3269	0.273908	0.00554291	498626	2104.75	1	12	0.00493673	0.000216315	0	0.000272527	0.0437248	0.00284682	0.0438174	3.72513	2.10475e+06	3.23273e+07	3.23957e+07	-86.2749	0.0000000E+000	0.0000000E+000	0.0000000E+000	86.2749	0.0000000E+000	0.0000000E+000	0.0000000E+000	-86.2749	0.0000000E+000	0.0000000E+000	0.0000000E+000	-3.72513	0.0000000E+000	0.0000000E+000	0.0000000E+000	3.72513	15.3592	86.2749	3.4141e-05	1.51825e-06	49415.9
0.146929	23.082	1.63774	23.1401	-4.05849	59.6636	0.273902	0.0054708	661408	3313.05	1	12	0.00493619	0.000213318	0	0.000295022	0.0431067	0.00305854	0.0432151	4.05849	3.31305e+06	4.66937e+07	4.68111e+07	-85.9415	0.0000000E+000	0.0000000E+000	0.0000000E+000	85.9415	0.0000000E+000	0.0000000E+000	0.0000000E+000	-85.9415	0.0000000E+000	0.0000000E+000	0.0000000E+000	-4.05849	0.0000000E+000	0.0000000E+000	0.0000000E+000	4.05849	14.0939	85.9415	2.24951e-05	1.49846e-06	50066.2
0.0999041	23.3822	1.91404	23.4604	-4.67973	80.7334	0.273904	0.0049619	832312	5540.09	1	12	0.00493754	0.000210463	0	0.000289065	0.0424829	0.0034776	0.042625	4.67973	5.54009e+06	6.76786e+07	6.7905e+07	-85.3203	0.0000000E+000	0.0000000E+000	0.0000000E+000	85.3203	0.0000000E+000	0.0000000E+000	0.0000000E+000	-85.3203	0.0000000E+000	0.0000000E+000	0.0000000E+000	-4.67973	0.0000000E+000	0.0000000E+000	0.0000000E+000	4.67973	12.2162	85.3203	-5.95752e-06	1.35908e-06	55201.4
0.0680626	23.6899	2.3182	23.803	-5.58895	111.646	0.273903	0.004005	1.0087e+06	9567.49	1	12	0.00493792	0.000207449	0	0.000248336	0.0418118	0.00409154	0.0420115	5.58895	9.56749e+06	9.7771e+07	9.8238e+07	-84.411	0.0000000E+000	0.0000000E+000	0.0000000E+000	84.411	0.0000000E+000	0.0000000E+000	0.0000000E+000	-84.411	0.0000000E+000	0.0000000E+000	0.0000000E+000	-5.58895	0.0000000E+000	0.0000000E+000	0.0000000E+000	5.58895	10.2191	84.411	-4.07283e-05	1.09698e-06	68390.2
0.0464052	24.091	2.84949	24.259	-6.74562	156.97	0.273906	0.00170394	1.20361e+06	16606.4	1	12	0.00493452	0.00020341	0	0.000159271	0.0409365	0.00484198	0.0412218	6.74562	1.66064e+07	1.40399e+08	1.41378e+08	-83.2544	0.0000000E+000	0.0000000E+000	0.0000000E+000	83.2544	0.0000000E+000	0.0000000E+000	0.0000000E+000	-83.2544	0.0000000E+000	0.0000000E+000	0.0000000E+000	-6.74562	0.0000000E+000	0.0000000E+000	0.0000000E+000	6.74562	8.4545	83.2544	-8.90653e-05	4.66721e-07	160748
0.0315922	24.6531	3.69797	24.9289	-8.53077	223.531	0.273902	-0.000639558	1.36231e+06	29977.6	1	12	0.00493814	0.000198089	0	6.31933e-05	0.0396702	0.00595054	0.040114	8.53077	2.99776e+07	1.9985e+08	2.02086e+08	-81.4692	0.0000000E+000	0.0000000E+000	0.0000000E+000	81.4692	0.0000000E+000	0.0000000E+000	0.0000000E+000	-81.4692	0.0000000E+000	0.0000000E+000	0.0000000E+000	-8.53077	0.0000000E+000	0.0000000E+000	0.0000000E+000	8.53077	6.66666	81.4692	-9.60779e-05	-1.75176e-07	428267
0.0215268	25.2697	4.97689	25.7552	-11.1418	321.199	0.273897	-0.00196435	1.48554e+06	55471.5	1	12	0.00493588	0.000191646	0	4.79749e-05	0.0380953	0.0075029	0.0388272	11.1418	5.54715e+07	2.81652e+08	2.87063e+08	-78.8582	0.0000000E+000	0.0000000E+000	0.0000000E+000	78.8582	0.0000000E+000	0.0000000E+000	0.0000000E+000	-78.8582	0.0000000E+000	0.0000000E+000	0.0000000E+000	-11.1418	0.0000000E+000	0.0000000E+000	0.0000000E+000	11.1418	5.07742	78.8582	-1.52183e-05	-5.38028e-07	139434
0.0146812	25.9198	6.6251	26.753	-14.3378	464.394	0.273894	-0.00201507	1.63632e+06	100347	1	12	0.00493636	0.000184516	0	0.000228793	0.0362147	0.00925648	0.0373789	14.3378	1.00347e+08	3.92594e+08	4.05216e+08	-75.6621	0.0000000E+000	0.0000000E+000	0.0000000E+000	75.6621	0.0000000E+000	0.0000000E+000	0.0000000E+000	-75.6621	0.0000000E+000	0.0000000E+000	0.0000000E+000	-14.3378	0.0000000E+000	0.0000000E+000	0.0000000E+000	14.3378	3.91236	75.6621	0.000180818	-5.51916e-07	135923
0.0100092	26.8765	8.61299	28.2229	-17.7688	674.415	0.273899	-0.00130637	1.84616e+06	171939	1	12	0.00493742	0.000174944	0	0.000649538	0.033742	0.0108131	0.0354322	17.7688	1.71939e+08	5.36528e+08	5.63405e+08	-72.2312	0.0000000E+000	0.0000000E+000	0.0000000E+000	72.2312	0.0000000E+000	0.0000000E+000	0.0000000E+000	-72.2312	0.0000000E+000	0.0000000E+000	0.0000000E+000	-17.7688	0.0000000E+000	0.0000000E+000	0.0000000E+000	17.7688	3.12046	72.2312	0.000420744	-3.57814e-07	209664