File: txt/17489_R279_UA654_SOC00_C07.mpt
EC-Lab ASCII FILE
Nb header lines : 63

Potentio Electrochemical Impedance Spectroscopy

Run on channel : 7 (SN 66126)
User :
CE vs. WE compliance from -10 V to 10 V
Electrode connection : standard
Potential control : Ewe
Ewe ctrl range : min = -10.00 V, max = 10.00 V
Safety Limits :
	Do not start on E overload
Acquisition started on : 09/15/2025 09:00:10.151
Loaded Setting File :  C:\Users\Celltest\OneDrive - store-dot.com\Documents\EC-Lab\Data\Charmaine\R279\17382_C01.mpr
Saved on :
	File : 17489_C07.mpr
	Directory : C:\Users\Celltest\OneDrive - store-dot.com\Documents\EC-Lab\Data\Charmaine\R279\
	Host : 169.254.61.224
Device : VMP-3e (SN .003165)
Address : USB
EC-LAB for windows v11.62 (software)
Internet server v27.00 (firmware)
Command interpretor v12.03 (firmware)
Electrode material :
Initial state :
Electrolyte :
Comments :
Electrode surface area : 0.001 cm²
Characteristic mass : 0.001 g
Equivalent Weight : 0.000 g/eq.
Density : 0.000 g/cm3
Volume (V) : 0.001 cm³
Cycle Definition : Charge/Discharge alternance
Mode                Single sine
E (V)               0.0000
vs.                 Eoc
tE (h:m:s)          0:00:0.0000
record              0
dI                  0.000
unit dI             mA
dt (s)              0.000
fi                  100.000
unit fi             kHz
ff                  10.000
unit ff             mHz
Nd                  6
Points              per decade
spacing             Logarithmic
Va (mV)             5.0
pw                  0.10
Na                  2
corr                0
E range min (V)     -10.000
E range max (V)     10.000
I Range             Auto
Bandwidth           5
nc cycles           0
goto Ns'            0
nr cycles           0
inc. cycle          0

freq/Hz	Re(Z)/Ohm	-Im(Z)/Ohm	|Z|/Ohm	Phase(Z)/deg	time/s	<Ewe>/V	<I>/mA	Cs/µF	Cp/µF	cycle number	I Range	|Ewe|/V	|I|/A	Ns	(Q-Qo)/mA.h	Re(Y)/Ohm-1	Im(Y)/Ohm-1	|Y|/Ohm-1	Phase(Y)/deg	Re(C)/nF	Im(C)/nF	|C|/nF	Phase(C)/deg	Re(M)	Im(M)	|M|	Phase(M)/deg	Re(Permittivity)	Im(Permittivity)	|Permittivity|	Phase(Permittivity)/deg	Re(Resistivity)/Ohm.cm	Im(Resistivity)/Ohm.cm	|Resistivity|/Ohm.cm	Phase(Resistivity)/deg	Re(Conductivity)/mS/cm	Im(Conductivity)/mS/cm	|Conductivity|/mS/cm	Phase(Conductivity)/deg	Tan(Delta)	Loss Angle(Delta)/deg	dq/mA.h	Pwe/W	Rwe/Ohm
100004	1.91429	0.281342	1.93485	-8.36089	2.06649	0.27826	0.0358843	5.65678	0.119604	1	9	0.00459092	0.00237275	0	5.22747e-06	0.511343	0.0751519	0.516836	8.36089	119.604	813.797	822.539	-81.6391	0.0000000E+000	0.0000000E+000	0.0000000E+000	81.6391	0.0000000E+000	0.0000000E+000	0.0000000E+000	-81.6391	0.0000000E+000	0.0000000E+000	0.0000000E+000	-8.36089	0.0000000E+000	0.0000000E+000	0.0000000E+000	8.36089	6.80412	81.6391	5.22747e-06	9.98516e-06	7754.38
68132	1.97943	0.312436	2.00393	-8.96966	2.6445	0.278277	0.0377833	7.47666	0.181745	1	9	0.00504021	0.00251516	0	9.41459e-06	0.492916	0.0778027	0.499019	8.96966	181.745	1151.44	1165.7	-81.0303	0.0000000E+000	0.0000000E+000	0.0000000E+000	81.0303	0.0000000E+000	0.0000000E+000	0.0000000E+000	-81.0303	0.0000000E+000	0.0000000E+000	0.0000000E+000	-8.96966	0.0000000E+000	0.0000000E+000	0.0000000E+000	8.96966	6.33547	81.0303	4.18712e-06	1.05142e-05	7365.09
46420.4	2.05226	0.343526	2.08081	-9.50259	3.2225	0.278273	0.033166	9.98051	0.272023	1	9	0.00506512	0.00243421	0	1.51715e-05	0.473988	0.0793404	0.480582	9.50259	272.023	1625.09	1647.7	-80.4974	0.0000000E+000	0.0000000E+000	0.0000000E+000	80.4974	0.0000000E+000	0.0000000E+000	0.0000000E+000	-80.4974	0.0000000E+000	0.0000000E+000	0.0000000E+000	-9.50259	0.0000000E+000	0.0000000E+000	0.0000000E+000	9.50259	5.9741	80.4974	5.75693e-06	9.2292e-06	8390.29
31621.1	2.13341	0.395966	2.16985	-10.5146	3.65949	0.278278	0.0357912	12.7111	0.423295	1	9	0.00538431	0.00248143	0	1.57484e-05	0.453123	0.0841008	0.460862	10.5146	423.295	2280.65	2319.6	-79.4854	0.0000000E+000	0.0000000E+000	0.0000000E+000	79.4854	0.0000000E+000	0.0000000E+000	0.0000000E+000	-79.4854	0.0000000E+000	0.0000000E+000	0.0000000E+000	-10.5146	0.0000000E+000	0.0000000E+000	0.0000000E+000	10.5146	5.38786	79.4854	5.76924e-07	9.95991e-06	7775.05
21544.7	2.22418	0.444769	2.26821	-11.3083	4.09648	0.278286	0.0322351	16.6091	0.638628	1	9	0.00527346	0.00232494	0	1.64502e-05	0.432317	0.0864505	0.440876	11.3083	638.628	3193.61	3256.84	-78.6917	0.0000000E+000	0.0000000E+000	0.0000000E+000	78.6917	0.0000000E+000	0.0000000E+000	0.0000000E+000	-78.6917	0.0000000E+000	0.0000000E+000	0.0000000E+000	-11.3083	0.0000000E+000	0.0000000E+000	0.0000000E+000	11.3083	5.00075	78.6917	7.01772e-07	8.97058e-06	8633
14678.6	2.32871	0.500224	2.38183	-12.1234	4.5335	0.278283	0.0332219	21.6756	0.956049	1	9	0.00503242	0.00211284	0	1.71572e-05	0.410483	0.0881748	0.419846	12.1234	956.049	4450.72	4552.25	-77.8766	0.0000000E+000	0.0000000E+000	0.0000000E+000	77.8766	0.0000000E+000	0.0000000E+000	0.0000000E+000	-77.8766	0.0000000E+000	0.0000000E+000	0.0000000E+000	-12.1234	0.0000000E+000	0.0000000E+000	0.0000000E+000	12.1234	4.65532	77.8766	7.06973e-07	9.24509e-06	8376.51
10002.2	2.43964	0.56787	2.50485	-13.1033	4.82949	0.278285	0.0329426	28.0204	1.44015	1	9	0.00511129	0.00204055	0	1.81305e-05	0.38883	0.0905074	0.399225	13.1033	1440.15	6187.04	6352.44	-76.8967	0.0000000E+000	0.0000000E+000	0.0000000E+000	76.8967	0.0000000E+000	0.0000000E+000	0.0000000E+000	-76.8967	0.0000000E+000	0.0000000E+000	0.0000000E+000	-13.1033	0.0000000E+000	0.0000000E+000	0.0000000E+000	13.1033	4.29612	76.8967	9.73361e-07	9.16742e-06	8447.56
6811.07	2.56786	0.648099	2.64838	-14.165	5.20752	0.278245	0.0142501	36.0548	2.15916	1	9	0.0050648	0.00191241	0	1.92432e-05	0.366108	0.0924017	0.377589	14.165	2159.16	8554.89	8823.16	-75.835	0.0000000E+000	0.0000000E+000	0.0000000E+000	75.835	0.0000000E+000	0.0000000E+000	0.0000000E+000	-75.835	0.0000000E+000	0.0000000E+000	0.0000000E+000	-14.165	0.0000000E+000	0.0000000E+000	0.0000000E+000	14.165	3.96214	75.835	1.11265e-06	3.96501e-06	19525.8
4641.49	2.70666	0.741074	2.80628	-15.3121	5.67869	0.27831	0.056513	46.2702	3.22674	1	9	0.00501496	0.00178705	0	2.49875e-05	0.343694	0.0941025	0.356344	15.3121	3226.74	11785.2	12218.9	-74.6879	0.0000000E+000	0.0000000E+000	0.0000000E+000	74.6879	0.0000000E+000	0.0000000E+000	0.0000000E+000	-74.6879	0.0000000E+000	0.0000000E+000	0.0000000E+000	-15.3121	0.0000000E+000	0.0000000E+000	0.0000000E+000	15.3121	3.65234	74.6879	5.74432e-06	1.57281e-05	4924.7
3161.01	2.86564	0.855849	2.99071	-16.6287	6.1457	0.278309	0.0514117	58.8297	4.81772	1	9	0.00496879	0.00166141	0	3.24285e-05	0.320385	0.0956859	0.334369	16.6287	4817.73	16131.2	16835.2	-73.3713	0.0000000E+000	0.0000000E+000	0.0000000E+000	73.3713	0.0000000E+000	0.0000000E+000	0.0000000E+000	-73.3713	0.0000000E+000	0.0000000E+000	0.0000000E+000	-16.6287	0.0000000E+000	0.0000000E+000	0.0000000E+000	16.6287	3.3483	73.3713	7.44095e-06	1.43083e-05	5413.34
2155.69	3.05176	0.989829	3.20827	-17.9703	6.61271	0.278318	0.0527708	74.5888	7.09991	1	9	0.00494376	0.00154094	0	3.73489e-05	0.296489	0.0961654	0.311695	17.9703	7099.91	21889.8	23012.5	-72.0297	0.0000000E+000	0.0000000E+000	0.0000000E+000	72.0297	0.0000000E+000	0.0000000E+000	0.0000000E+000	-72.0297	0.0000000E+000	0.0000000E+000	0.0000000E+000	-17.9703	0.0000000E+000	0.0000000E+000	0.0000000E+000	17.9703	3.08312	72.0297	4.92039e-06	1.46871e-05	5274.09
1468.59	3.26273	1.16525	3.46456	-19.6537	7.33393	0.278305	-0.00864907	93.0036	10.5206	1	10	0.0050046	0.00144451	0	4.07477e-05	0.271821	0.0970784	0.288637	19.6537	10520.6	29458	31280.3	-70.3463	0.0000000E+000	0.0000000E+000	0.0000000E+000	70.3463	0.0000000E+000	0.0000000E+000	0.0000000E+000	-70.3463	0.0000000E+000	0.0000000E+000	0.0000000E+000	-19.6537	0.0000000E+000	0.0000000E+000	0.0000000E+000	19.6537	2.80002	70.3463	3.39889e-06	-2.40708e-06	32177.5
1000.32	3.48891	1.39523	3.75755	-21.7967	7.8027	0.278307	-0.00885009	114.034	15.7224	1	10	0.00497072	0.00132286	0	3.99554e-05	0.247104	0.0988184	0.266131	21.7967	15722.4	39315.3	42342.5	-68.2033	0.0000000E+000	0.0000000E+000	0.0000000E+000	68.2033	0.0000000E+000	0.0000000E+000	0.0000000E+000	-68.2033	0.0000000E+000	0.0000000E+000	0.0000000E+000	-21.7967	0.0000000E+000	0.0000000E+000	0.0000000E+000	21.7967	2.50059	68.2033	-7.9236e-07	-2.46304e-06	31446.8
681.09	3.75519	1.69528	4.12013	-24.2968	8.26843	0.278307	-0.00982919	137.84	23.3366	1	10	0.00493751	0.00119839	0	3.97936e-05	0.221213	0.0998668	0.242711	24.2968	23336.6	51692.4	56716	-65.7032	0.0000000E+000	0.0000000E+000	0.0000000E+000	65.7032	0.0000000E+000	0.0000000E+000	0.0000000E+000	-65.7032	0.0000000E+000	0.0000000E+000	0.0000000E+000	-24.2968	0.0000000E+000	0.0000000E+000	0.0000000E+000	24.2968	2.21508	65.7032	-1.61775e-07	-2.73553e-06	28314.3
463.961	4.08815	2.08723	4.59016	-27.0469	8.73721	0.278313	-0.00913675	164.349	33.9825	1	10	0.0049139	0.00107053	0	3.82429e-05	0.194031	0.0990641	0.217857	27.0469	33982.5	66559.6	74732.8	-62.9531	0.0000000E+000	0.0000000E+000	0.0000000E+000	62.9531	0.0000000E+000	0.0000000E+000	0.0000000E+000	-62.9531	0.0000000E+000	0.0000000E+000	0.0000000E+000	-27.0469	0.0000000E+000	0.0000000E+000	0.0000000E+000	27.0469	1.95865	62.9531	-1.55075e-06	-2.54288e-06	30460.8
316.316	4.52439	2.59322	5.21487	-29.8199	9.20391	0.278307	-0.00948484	194.026	47.9791	1	10	0.00489809	0.000939255	0	3.67927e-05	0.166369	0.095357	0.191759	29.8199	47979.1	83708.9	96484.1	-60.1801	0.0000000E+000	0.0000000E+000	0.0000000E+000	60.1801	0.0000000E+000	0.0000000E+000	0.0000000E+000	-60.1801	0.0000000E+000	0.0000000E+000	0.0000000E+000	-29.8199	0.0000000E+000	0.0000000E+000	0.0000000E+000	29.8199	1.7447	60.1801	-1.45014e-06	-2.63969e-06	29342.3
215.345	5.1204	3.21491	6.046	-32.1232	9.67145	0.278302	-0.010678	229.889	65.0008	1	10	0.00488565	0.00080808	0	3.60083e-05	0.140077	0.0879494	0.165399	32.1232	65000.8	103527	122241	-57.8768	0.0000000E+000	0.0000000E+000	0.0000000E+000	57.8768	0.0000000E+000	0.0000000E+000	0.0000000E+000	-57.8768	0.0000000E+000	0.0000000E+000	0.0000000E+000	-32.1232	0.0000000E+000	0.0000000E+000	0.0000000E+000	32.1232	1.5927	57.8768	-7.84418e-07	-2.9717e-06	26063.1
146.737	5.91698	3.93349	7.10514	-33.6151	10.1344	0.278303	-0.0100079	275.741	84.5107	1	10	0.00486681	0.000684971	0	3.48472e-05	0.117207	0.077917	0.140743	33.6151	84510.7	127126	152654	-56.3849	0.0000000E+000	0.0000000E+000	0.0000000E+000	56.3849	0.0000000E+000	0.0000000E+000	0.0000000E+000	-56.3849	0.0000000E+000	0.0000000E+000	0.0000000E+000	-33.6151	0.0000000E+000	0.0000000E+000	0.0000000E+000	33.6151	1.50426	56.3849	-1.16109e-06	-2.78523e-06	27808.3
100.032	7.00269	4.69826	8.43275	-33.8585	10.6027	0.278305	-0.00985154	338.645	105.119	1	10	0.00486481	0.000576895	0	3.38186e-05	0.0984751	0.0660691	0.118585	33.8585	105119	156678	188674	-56.1415	0.0000000E+000	0.0000000E+000	0.0000000E+000	56.1415	0.0000000E+000	0.0000000E+000	0.0000000E+000	-56.1415	0.0000000E+000	0.0000000E+000	0.0000000E+000	-33.8585	0.0000000E+000	0.0000000E+000	0.0000000E+000	33.8585	1.49049	56.1415	-1.02863e-06	-2.74173e-06	28249.9
68.104	8.42193	5.42085	10.0157	-32.7677	11.0813	0.27831	-0.00705761	431.102	126.285	1	10	0.00486479	0.000485716	0	3.30294e-05	0.0839553	0.0540386	0.0998432	32.7677	126285	196198	233328	-57.2323	0.0000000E+000	0.0000000E+000	0.0000000E+000	57.2323	0.0000000E+000	0.0000000E+000	0.0000000E+000	-57.2323	0.0000000E+000	0.0000000E+000	0.0000000E+000	-32.7677	0.0000000E+000	0.0000000E+000	0.0000000E+000	32.7677	1.55362	57.2323	-7.89223e-07	-1.9642e-06	39434
46.4415	10.1619	5.9262	11.7637	-30.2499	11.5366	0.278306	-0.011752	578.278	146.759	1	10	0.00485632	0.000412824	0	3.19347e-05	0.0734327	0.0428245	0.0850076	30.2499	146759	251653	291321	-59.7501	0.0000000E+000	0.0000000E+000	0.0000000E+000	59.7501	0.0000000E+000	0.0000000E+000	0.0000000E+000	-59.7501	0.0000000E+000	0.0000000E+000	0.0000000E+000	-30.2499	0.0000000E+000	0.0000000E+000	0.0000000E+000	30.2499	1.71474	59.7501	-1.09469e-06	-3.27065e-06	23681.5
31.6296	12.1277	6.03032	13.5442	-26.4382	11.9834	0.278289	-0.0134366	834.424	165.409	1	10	0.00485768	0.000358653	0	3.02614e-05	0.0661105	0.0328724	0.0738322	26.4382	165409	332657	371512	-63.5618	0.0000000E+000	0.0000000E+000	0.0000000E+000	63.5618	0.0000000E+000	0.0000000E+000	0.0000000E+000	-63.5618	0.0000000E+000	0.0000000E+000	0.0000000E+000	-26.4382	0.0000000E+000	0.0000000E+000	0.0000000E+000	26.4382	2.01112	63.5618	-1.67327e-06	-3.73925e-06	20711.3
21.5517	13.9768	5.71082	15.0984	-22.2246	12.4224	0.278287	-0.0150839	1293.12	185	1	10	0.00485521	0.00032157	0	2.97027e-05	0.0613115	0.0250515	0.066232	22.2246	185000	452772	489109	-67.7754	0.0000000E+000	0.0000000E+000	0.0000000E+000	67.7754	0.0000000E+000	0.0000000E+000	0.0000000E+000	-67.7754	0.0000000E+000	0.0000000E+000	0.0000000E+000	-22.2246	0.0000000E+000	0.0000000E+000	0.0000000E+000	22.2246	2.44742	67.7754	-5.58695e-07	-4.19766e-06	18449.3
14.6852	15.6681	5.05516	16.4634	-17.8818	13.1591	0.278332	-0.00615548	2143.91	202.133	1	11	0.00485898	0.000295138	0	2.69653e-05	0.0578065	0.0186507	0.0607408	17.8818	202133	626496	658297	-72.1182	0.0000000E+000	0.0000000E+000	0.0000000E+000	72.1182	0.0000000E+000	0.0000000E+000	0.0000000E+000	-72.1182	0.0000000E+000	0.0000000E+000	0.0000000E+000	-17.8818	0.0000000E+000	0.0000000E+000	0.0000000E+000	17.8818	3.09942	72.1182	-2.73743e-06	-1.71327e-06	45216.9
10.0032	16.8759	4.28608	17.4117	-14.2505	13.6277	0.278337	-0.0064	3712.11	224.936	1	11	0.00485725	0.000278965	0	2.41809e-05	0.0556654	0.0141377	0.0574327	14.2505	224936	885659	913777	-75.7495	0.0000000E+000	0.0000000E+000	0.0000000E+000	75.7495	0.0000000E+000	0.0000000E+000	0.0000000E+000	-75.7495	0.0000000E+000	0.0000000E+000	0.0000000E+000	-14.2505	0.0000000E+000	0.0000000E+000	0.0000000E+000	14.2505	3.93738	75.7495	-2.78441e-06	-1.78136e-06	43490.2
6.81719	17.7168	3.5229	18.0636	-11.2463	13.9854	0.278329	-0.0071382	6626.95	252.061	1	11	0.00484934	0.000268459	0	2.67531e-05	0.0542969	0.0107967	0.0553599	11.2463	252061	1.26762e+06	1.29244e+06	-78.7537	0.0000000E+000	0.0000000E+000	0.0000000E+000	78.7537	0.0000000E+000	0.0000000E+000	0.0000000E+000	-78.7537	0.0000000E+000	0.0000000E+000	0.0000000E+000	-11.2463	0.0000000E+000	0.0000000E+000	0.0000000E+000	11.2463	5.02902	78.7537	2.57226e-06	-1.98677e-06	38991.4
4.63925	18.4034	2.90014	18.6306	-8.95542	14.4873	0.278331	-0.00542343	11829.1	286.642	1	11	0.00486602	0.000261185	0	2.27092e-05	0.0530209	0.00835541	0.0536753	8.95542	286642	1.81895e+06	1.84139e+06	-81.0446	0.0000000E+000	0.0000000E+000	0.0000000E+000	81.0446	0.0000000E+000	0.0000000E+000	0.0000000E+000	-81.0446	0.0000000E+000	0.0000000E+000	0.0000000E+000	-8.95542	0.0000000E+000	0.0000000E+000	0.0000000E+000	8.95542	6.3457	81.0446	-4.04393e-06	-1.50951e-06	51320.1
3.1604	18.8666	2.48328	19.0293	-7.49835	15.1982	0.278337	-0.00537264	20279.3	345.349	1	11	0.00485912	0.000255349	0	2.04546e-05	0.0521012	0.00685772	0.0525505	7.49835	345349	2.62377e+06	2.6464e+06	-82.5016	0.0000000E+000	0.0000000E+000	0.0000000E+000	82.5016	0.0000000E+000	0.0000000E+000	0.0000000E+000	-82.5016	0.0000000E+000	0.0000000E+000	0.0000000E+000	-7.49835	0.0000000E+000	0.0000000E+000	0.0000000E+000	7.49835	7.59744	82.5016	-2.2546e-06	-1.49541e-06	51806.4
2.15577	19.2726	2.21774	19.3998	-6.56427	16.2148	0.278351	-0.00430457	33289.6	435.045	1	11	0.00486136	0.000250588	0	2.39192e-05	0.051209	0.00589272	0.0515469	6.56427	435045	3.78063e+06	3.80558e+06	-83.4357	0.0000000E+000	0.0000000E+000	0.0000000E+000	83.4357	0.0000000E+000	0.0000000E+000	0.0000000E+000	-83.4357	0.0000000E+000	0.0000000E+000	0.0000000E+000	-6.56427	0.0000000E+000	0.0000000E+000	0.0000000E+000	6.56427	8.69021	83.4357	3.46459e-06	-1.19818e-06	64664.2
1.46631	19.6591	2.02267	19.7629	-5.87432	17.688	0.278358	-0.00339893	53662.3	562.105	1	11	0.00486132	0.000245982	0	2.78026e-05	0.0503341	0.00517873	0.0505998	5.87432	562106	5.46332e+06	5.49216e+06	-84.1257	0.0000000E+000	0.0000000E+000	0.0000000E+000	84.1257	0.0000000E+000	0.0000000E+000	0.0000000E+000	-84.1257	0.0000000E+000	0.0000000E+000	0.0000000E+000	-5.87432	0.0000000E+000	0.0000000E+000	0.0000000E+000	5.87432	9.71939	84.1257	3.88337e-06	-9.46121e-07	81895.8
1.00006	20.054	1.96931	20.1505	-5.60847	20.8792	0.278358	-0.00317405	80812.5	771.853	1	12	0.00486151	0.00024126	0	2.38885e-05	0.049389	0.00485001	0.0496266	5.60847	771854	7.86e+06	7.89781e+06	-84.3915	0.0000000E+000	0.0000000E+000	0.0000000E+000	84.3915	0.0000000E+000	0.0000000E+000	0.0000000E+000	-84.3915	0.0000000E+000	0.0000000E+000	0.0000000E+000	-5.60847	0.0000000E+000	0.0000000E+000	0.0000000E+000	5.60847	10.1833	84.3915	-3.91402e-06	-8.83524e-07	87698
0.681362	20.454	1.95407	20.5472	-5.45718	23.9991	0.278364	-0.00255948	119537	1081.13	1	12	0.00485953	0.000236506	0	1.14438e-05	0.0484479	0.00462846	0.0486685	5.45718	1.08113e+06	1.13166e+07	1.13682e+07	-84.5428	0.0000000E+000	0.0000000E+000	0.0000000E+000	84.5428	0.0000000E+000	0.0000000E+000	0.0000000E+000	-84.5428	0.0000000E+000	0.0000000E+000	0.0000000E+000	-5.45718	0.0000000E+000	0.0000000E+000	0.0000000E+000	5.45718	10.4674	84.5428	-1.24447e-05	-7.12468e-07	108758
0.464091	20.895	1.95483	20.9862	-5.34475	28.5639	0.278361	-0.00271938	175432	1522.15	1	12	0.00485898	0.000231532	0	-6.69285e-06	0.0474431	0.00443854	0.0476503	5.34475	1.52215e+06	1.62701e+07	1.63412e+07	-84.6553	0.0000000E+000	0.0000000E+000	0.0000000E+000	84.6553	0.0000000E+000	0.0000000E+000	0.0000000E+000	-84.6553	0.0000000E+000	0.0000000E+000	0.0000000E+000	-5.34475	0.0000000E+000	0.0000000E+000	0.0000000E+000	5.34475	10.6889	84.6553	-1.81367e-05	-7.5697e-07	102362
0.316193	21.3577	1.99642	21.4508	-5.34021	35.2461	0.278358	-0.00345991	252126	2183.89	1	12	0.0048591	0.000226523	0	-2.23261e-05	0.0464159	0.00433873	0.0466182	5.34021	2.18389e+06	2.33633e+07	2.34652e+07	-84.6598	0.0000000E+000	0.0000000E+000	0.0000000E+000	84.6598	0.0000000E+000	0.0000000E+000	0.0000000E+000	-84.6598	0.0000000E+000	0.0000000E+000	0.0000000E+000	-5.34021	0.0000000E+000	0.0000000E+000	0.0000000E+000	5.34021	10.698	84.6598	-1.56332e-05	-9.63093e-07	80452.3
0.215268	21.8006	2.10072	21.9016	-5.50406	45.0439	0.278363	-0.00394827	351943	3237.86	1	12	0.00485993	0.000221898	0	-2.48364e-05	0.0454483	0.00437942	0.0456588	5.50406	3.23786e+06	3.36015e+07	3.37571e+07	-84.4959	0.0000000E+000	0.0000000E+000	0.0000000E+000	84.4959	0.0000000E+000	0.0000000E+000	0.0000000E+000	-84.4959	0.0000000E+000	0.0000000E+000	0.0000000E+000	-5.50406	0.0000000E+000	0.0000000E+000	0.0000000E+000	5.50406	10.3777	84.4959	-2.51031e-06	-1.09905e-06	70502.6
0.146929	22.2135	2.24915	22.3271	-5.78159	59.3795	0.278364	-0.0039039	481609	4887.29	1	12	0.00486051	0.000217696	0	-5.74855e-06	0.0445608	0.00451186	0.0447887	5.78159	4.88729e+06	4.82688e+07	4.85156e+07	-84.2184	0.0000000E+000	0.0000000E+000	0.0000000E+000	84.2184	0.0000000E+000	0.0000000E+000	0.0000000E+000	-84.2184	0.0000000E+000	0.0000000E+000	0.0000000E+000	-5.78159	0.0000000E+000	0.0000000E+000	0.0000000E+000	5.78159	9.87639	84.2184	1.90879e-05	-1.08671e-06	71304.2
0.0999041	22.6264	2.4634	22.7601	-6.21347	80.4495	0.278366	-0.00307178	646699	7575.69	1	12	0.0048603	0.000213545	0	3.52688e-05	0.0436784	0.00475538	0.0439365	6.21347	7.57569e+06	6.9583e+07	6.99942e+07	-83.7865	0.0000000E+000	0.0000000E+000	0.0000000E+000	83.7865	0.0000000E+000	0.0000000E+000	0.0000000E+000	-83.7865	0.0000000E+000	0.0000000E+000	0.0000000E+000	-6.21347	0.0000000E+000	0.0000000E+000	0.0000000E+000	6.21347	9.18504	83.7865	4.10174e-05	-8.55079e-07	90620.6
0.0680626	23.0746	2.83991	23.2487	-7.0164	111.362	0.278367	-0.0019337	823393	12286.2	1	12	0.00486201	0.000209131	0	8.53552e-05	0.0426911	0.00525421	0.0430132	7.0164	1.22862e+07	9.98272e+07	1.0058e+08	-82.9836	0.0000000E+000	0.0000000E+000	0.0000000E+000	82.9836	0.0000000E+000	0.0000000E+000	0.0000000E+000	-82.9836	0.0000000E+000	0.0000000E+000	0.0000000E+000	-7.0164	0.0000000E+000	0.0000000E+000	0.0000000E+000	7.0164	8.12512	82.9836	5.00864e-05	-5.38279e-07	143955
0.0464052	23.5963	3.48115	23.8517	-8.3923	156.686	0.278365	-0.000374664	985213	20986.5	1	12	0.00486105	0.000203803	0	0.000111695	0.0414768	0.00611907	0.0419258	8.3923	2.09865e+07	1.42252e+08	1.43792e+08	-81.6077	0.0000000E+000	0.0000000E+000	0.0000000E+000	81.6077	0.0000000E+000	0.0000000E+000	0.0000000E+000	-81.6077	0.0000000E+000	0.0000000E+000	0.0000000E+000	-8.3923	0.0000000E+000	0.0000000E+000	0.0000000E+000	8.3923	6.77829	81.6077	2.63396e-05	-1.04293e-07	742971
0.0315922	24.111	4.46059	24.5201	-10.4813	223.246	0.278366	0.000238106	1.1294e+06	37375.5	1	12	0.00485923	0.000198173	0	4.66887e-05	0.0401023	0.00741903	0.0407828	10.4813	3.73755e+07	2.02027e+08	2.05455e+08	-79.5187	0.0000000E+000	0.0000000E+000	0.0000000E+000	79.5187	0.0000000E+000	0.0000000E+000	0.0000000E+000	-79.5187	0.0000000E+000	0.0000000E+000	0.0000000E+000	-10.4813	0.0000000E+000	0.0000000E+000	0.0000000E+000	10.4813	5.40534	79.5187	-6.50062e-05	6.62806e-08	1.16909e+06
0.0215268	24.6769	5.72189	25.3316	-13.0546	320.915	0.278364	-0.000255242	1.29212e+06	65926	1	12	0.0048616	0.000191919	0	-0.000180479	0.0384562	0.00891694	0.0394765	13.0546	6.5926e+07	2.8432e+08	2.91863e+08	-76.9454	0.0000000E+000	0.0000000E+000	0.0000000E+000	76.9454	0.0000000E+000	0.0000000E+000	0.0000000E+000	-76.9454	0.0000000E+000	0.0000000E+000	0.0000000E+000	-13.0546	0.0000000E+000	0.0000000E+000	0.0000000E+000	13.0546	4.31271	76.9454	-0.000227167	-7.10503e-08	1.09059e+06
0.0146812	25.5733	7.39205	26.6203	-16.1221	464.111	0.278372	-0.00104185	1.46654e+06	113084	1	12	0.0048601	0.000182571	0	-0.000568337	0.036088	0.0104313	0.0375654	16.1221	1.13084e+08	3.91221e+08	4.07237e+08	-73.8779	0.0000000E+000	0.0000000E+000	0.0000000E+000	73.8779	0.0000000E+000	0.0000000E+000	0.0000000E+000	-73.8779	0.0000000E+000	0.0000000E+000	0.0000000E+000	-16.1221	0.0000000E+000	0.0000000E+000	0.0000000E+000	16.1221	3.45958	73.8779	-0.000387858	-2.90022e-07	267190
0.0100092	26.8695	9.83475	28.6128	-20.1036	674.133	0.27837	-0.00191512	1.61681e+06	191013	1	12	0.00485781	0.000169778	0	-0.000987818	0.03282	0.0120127	0.0349494	20.1036	1.91013e+08	5.21868e+08	5.55727e+08	-69.8964	0.0000000E+000	0.0000000E+000	0.0000000E+000	69.8964	0.0000000E+000	0.0000000E+000	0.0000000E+000	-69.8964	0.0000000E+000	0.0000000E+000	0.0000000E+000	-20.1036	0.0000000E+000	0.0000000E+000	0.0000000E+000	20.1036	2.7321	69.8964	-0.000419482	-5.33113e-07	145354