File: txt/17484_R279_UA653_SOC00_C03.mpt
EC-Lab ASCII FILE
Nb header lines : 63

Potentio Electrochemical Impedance Spectroscopy

Run on channel : 3 (SN 65921)
User :
CE vs. WE compliance from -10 V to 10 V
Electrode connection : standard
Potential control : Ewe
Ewe ctrl range : min = -10.00 V, max = 10.00 V
Safety Limits :
	Do not start on E overload
Acquisition started on : 09/15/2025 08:59:18.803
Loaded Setting File :  C:\Users\Celltest\OneDrive - store-dot.com\Documents\EC-Lab\Data\Charmaine\R279\17382_C01.mpr
Saved on :
	File : 17484_C03.mpr
	Directory : C:\Users\Celltest\OneDrive - store-dot.com\Documents\EC-Lab\Data\Charmaine\R279\
	Host : 169.254.61.224
Device : VMP-3e (SN .003165)
Address : USB
EC-LAB for windows v11.62 (software)
Internet server v27.00 (firmware)
Command interpretor v12.03 (firmware)
Electrode material :
Initial state :
Electrolyte :
Comments :
Electrode surface area : 0.001 cm²
Characteristic mass : 0.001 g
Equivalent Weight : 0.000 g/eq.
Density : 0.000 g/cm3
Volume (V) : 0.001 cm³
Cycle Definition : Charge/Discharge alternance
Mode                Single sine
E (V)               0.0000
vs.                 Eoc
tE (h:m:s)          0:00:0.0000
record              0
dI                  0.000
unit dI             mA
dt (s)              0.000
fi                  100.000
unit fi             kHz
ff                  10.000
unit ff             mHz
Nd                  6
Points              per decade
spacing             Logarithmic
Va (mV)             5.0
pw                  0.10
Na                  2
corr                0
E range min (V)     -10.000
E range max (V)     10.000
I Range             Auto
Bandwidth           5
nc cycles           0
goto Ns'            0
nr cycles           0
inc. cycle          0

freq/Hz	Re(Z)/Ohm	-Im(Z)/Ohm	|Z|/Ohm	Phase(Z)/deg	time/s	<Ewe>/V	<I>/mA	Cs/µF	Cp/µF	cycle number	I Range	|Ewe|/V	|I|/A	Ns	(Q-Qo)/mA.h	Re(Y)/Ohm-1	Im(Y)/Ohm-1	|Y|/Ohm-1	Phase(Y)/deg	Re(C)/nF	Im(C)/nF	|C|/nF	Phase(C)/deg	Re(M)	Im(M)	|M|	Phase(M)/deg	Re(Permittivity)	Im(Permittivity)	|Permittivity|	Phase(Permittivity)/deg	Re(Resistivity)/Ohm.cm	Im(Resistivity)/Ohm.cm	|Resistivity|/Ohm.cm	Phase(Resistivity)/deg	Re(Conductivity)/mS/cm	Im(Conductivity)/mS/cm	|Conductivity|/mS/cm	Phase(Conductivity)/deg	Tan(Delta)	Loss Angle(Delta)/deg	dq/mA.h	Pwe/W	Rwe/Ohm
100004	1.31109	0.290282	1.34284	-12.4841	1.86448	0.266506	0.00348057	5.48257	0.256196	1	9	0.00451053	0.00335894	0	-4.23715e-06	0.72708	0.160979	0.744688	12.4841	256.196	1157.14	1185.16	-77.5159	0.0000000E+000	0.0000000E+000	0.0000000E+000	77.5159	0.0000000E+000	0.0000000E+000	0.0000000E+000	-77.5159	0.0000000E+000	0.0000000E+000	0.0000000E+000	-12.4841	0.0000000E+000	0.0000000E+000	0.0000000E+000	12.4841	4.51662	77.5159	-4.23715e-06	9.27593e-07	76569.7
68132	1.38454	0.304041	1.41753	-12.3854	2.3015	0.266526	0.00743367	7.6831	0.353457	1	9	0.0054983	0.00387879	0	-9.61686e-06	0.689035	0.15131	0.705453	12.3854	353.457	1609.57	1647.92	-77.6146	0.0000000E+000	0.0000000E+000	0.0000000E+000	77.6146	0.0000000E+000	0.0000000E+000	0.0000000E+000	-77.6146	0.0000000E+000	0.0000000E+000	0.0000000E+000	-12.3854	0.0000000E+000	0.0000000E+000	0.0000000E+000	12.3854	4.55379	77.6146	-5.37971e-06	1.98127e-06	35853.9
46420.4	1.45648	0.323771	1.49203	-12.5329	2.8795	0.266511	-0.00185241	10.5895	0.498648	1	9	0.0050712	0.00339886	0	-1.03004e-05	0.654257	0.145439	0.670227	12.5329	498.647	2243.16	2297.91	-77.4671	0.0000000E+000	0.0000000E+000	0.0000000E+000	77.4671	0.0000000E+000	0.0000000E+000	0.0000000E+000	-77.4671	0.0000000E+000	0.0000000E+000	0.0000000E+000	-12.5329	0.0000000E+000	0.0000000E+000	0.0000000E+000	12.5329	4.49849	77.4671	-6.83567e-07	-4.93688e-07	143872
31621.1	1.5294	0.349227	1.56877	-12.8625	3.45749	0.266514	-0.00187106	14.4123	0.714223	1	9	0.0050516	0.00322011	0	-9.90951e-06	0.621448	0.141903	0.637443	12.8625	714.223	3127.86	3208.37	-77.1375	0.0000000E+000	0.0000000E+000	0.0000000E+000	77.1375	0.0000000E+000	0.0000000E+000	0.0000000E+000	-77.1375	0.0000000E+000	0.0000000E+000	0.0000000E+000	-12.8625	0.0000000E+000	0.0000000E+000	0.0000000E+000	12.8625	4.37939	77.1375	3.90917e-07	-4.98663e-07	142440
21544.7	1.60974	0.376474	1.65318	-13.1633	3.89448	0.266518	0.00493502	19.6221	1.01759	1	9	0.0052241	0.00316003	0	-4.51437e-06	0.589001	0.137751	0.604894	13.1633	1017.59	4351.07	4468.48	-76.8367	0.0000000E+000	0.0000000E+000	0.0000000E+000	76.8367	0.0000000E+000	0.0000000E+000	0.0000000E+000	-76.8367	0.0000000E+000	0.0000000E+000	0.0000000E+000	-13.1633	0.0000000E+000	0.0000000E+000	0.0000000E+000	13.1633	4.27585	76.8367	5.39514e-06	1.31527e-06	54005.6
14678.6	1.69351	0.412514	1.74303	-13.6898	4.3315	0.26653	0.0104545	26.2844	1.47219	1	9	0.00502899	0.0028852	0	-2.15159e-06	0.557415	0.135778	0.573714	13.6898	1472.19	6043.86	6220.58	-76.3102	0.0000000E+000	0.0000000E+000	0.0000000E+000	76.3102	0.0000000E+000	0.0000000E+000	0.0000000E+000	-76.3102	0.0000000E+000	0.0000000E+000	0.0000000E+000	-13.6898	0.0000000E+000	0.0000000E+000	0.0000000E+000	13.6898	4.10535	76.3102	2.36278e-06	2.78643e-06	25494.4
10002.2	1.78393	0.458307	1.84186	-14.4082	4.62848	0.266519	0.00487906	34.719	2.14965	1	9	0.00497259	0.00269977	0	-3.42722e-06	0.525854	0.135097	0.54293	14.4082	2149.65	8367.36	8639.08	-75.5918	0.0000000E+000	0.0000000E+000	0.0000000E+000	75.5918	0.0000000E+000	0.0000000E+000	0.0000000E+000	-75.5918	0.0000000E+000	0.0000000E+000	0.0000000E+000	-14.4082	0.0000000E+000	0.0000000E+000	0.0000000E+000	14.4082	3.89243	75.5918	-1.27563e-06	1.30036e-06	54625
6811.07	1.88144	0.518594	1.9516	-15.4102	5.00651	0.266386	-0.0573266	45.0586	3.18163	1	9	0.00486383	0.00249222	0	-1.00099e-05	0.493978	0.136158	0.512399	15.4102	3181.63	11542.8	11973.3	-74.5898	0.0000000E+000	0.0000000E+000	0.0000000E+000	74.5898	0.0000000E+000	0.0000000E+000	0.0000000E+000	-74.5898	0.0000000E+000	0.0000000E+000	0.0000000E+000	-15.4102	0.0000000E+000	0.0000000E+000	0.0000000E+000	15.4102	3.62796	74.5898	-6.58268e-06	-1.5271e-05	4646.8
4641.49	1.9891	0.594695	2.07609	-16.6455	5.47671	0.266518	0.038033	57.6592	4.73112	1	9	0.00477688	0.0023009	0	-7.82167e-06	0.46149	0.137975	0.481674	16.6455	4731.12	15824.3	16516.4	-73.3545	0.0000000E+000	0.0000000E+000	0.0000000E+000	73.3545	0.0000000E+000	0.0000000E+000	0.0000000E+000	-73.3545	0.0000000E+000	0.0000000E+000	0.0000000E+000	-16.6455	0.0000000E+000	0.0000000E+000	0.0000000E+000	16.6455	3.34473	73.3545	2.18823e-06	1.01365e-05	7007.53
3161.01	2.10214	0.6866	2.21143	-18.0881	5.94367	0.266523	0.0359259	73.3314	7.06891	1	9	0.00471618	0.00213264	0	-4.98011e-06	0.429849	0.140397	0.452197	18.0881	7068.91	21642.6	22767.8	-71.9119	0.0000000E+000	0.0000000E+000	0.0000000E+000	71.9119	0.0000000E+000	0.0000000E+000	0.0000000E+000	-71.9119	0.0000000E+000	0.0000000E+000	0.0000000E+000	-18.0881	0.0000000E+000	0.0000000E+000	0.0000000E+000	18.0881	3.06167	71.9119	2.84157e-06	9.57509e-06	7418.68
2155.69	2.23501	0.814091	2.37866	-20.0139	6.41071	0.266532	0.0398604	90.6904	10.6229	1	9	0.0046754	0.00196556	0	5.56948e-08	0.395017	0.143883	0.420405	20.0139	10622.9	29164.2	31038.6	-69.9861	0.0000000E+000	0.0000000E+000	0.0000000E+000	69.9861	0.0000000E+000	0.0000000E+000	0.0000000E+000	-69.9861	0.0000000E+000	0.0000000E+000	0.0000000E+000	-20.0139	0.0000000E+000	0.0000000E+000	0.0000000E+000	20.0139	2.74541	69.9861	5.0358e-06	1.06241e-05	6686.63
1468.59	2.39377	0.980606	2.58684	-22.2764	6.87796	0.266528	0.0429371	110.516	15.8809	1	9	0.00464737	0.00179654	0	5.17493e-06	0.357721	0.14654	0.386572	22.2764	15880.9	38767.2	41893.9	-67.7236	0.0000000E+000	0.0000000E+000	0.0000000E+000	67.7236	0.0000000E+000	0.0000000E+000	0.0000000E+000	-67.7236	0.0000000E+000	0.0000000E+000	0.0000000E+000	-22.2764	0.0000000E+000	0.0000000E+000	0.0000000E+000	22.2764	2.44111	67.7236	5.11923e-06	1.1444e-05	6207.41
1000.32	2.57172	1.20637	2.84061	-25.1309	7.3467	0.266535	0.0365786	131.887	23.787	1	9	0.00462888	0.00162954	0	8.34437e-06	0.318714	0.149506	0.352037	25.1309	23787	50708.6	56010.6	-64.8691	0.0000000E+000	0.0000000E+000	0.0000000E+000	64.8691	0.0000000E+000	0.0000000E+000	0.0000000E+000	-64.8691	0.0000000E+000	0.0000000E+000	0.0000000E+000	-25.1309	0.0000000E+000	0.0000000E+000	0.0000000E+000	25.1309	2.13178	64.8691	3.16944e-06	9.74948e-06	7286.66
681.09	2.78786	1.50173	3.1666	-28.3099	8.06643	0.266515	-0.0275645	155.606	34.9962	1	10	0.00469078	0.00148133	0	7.91677e-06	0.278026	0.149763	0.315796	28.3099	34996.2	64968.2	73794.3	-61.6901	0.0000000E+000	0.0000000E+000	0.0000000E+000	61.6901	0.0000000E+000	0.0000000E+000	0.0000000E+000	-61.6901	0.0000000E+000	0.0000000E+000	0.0000000E+000	-28.3099	0.0000000E+000	0.0000000E+000	0.0000000E+000	28.3099	1.85644	61.6901	-4.27596e-07	-7.34636e-06	9668.78
463.961	3.09203	1.88701	3.62236	-31.395	8.53518	0.26653	-0.0266286	181.788	49.3323	1	10	0.00465339	0.00128463	0	5.00527e-06	0.235647	0.143811	0.276063	31.395	49332.3	80835.2	94699.5	-58.605	0.0000000E+000	0.0000000E+000	0.0000000E+000	58.605	0.0000000E+000	0.0000000E+000	0.0000000E+000	-58.605	0.0000000E+000	0.0000000E+000	0.0000000E+000	-31.395	0.0000000E+000	0.0000000E+000	0.0000000E+000	31.395	1.63859	58.605	-2.9115e-06	-7.09732e-06	10009.2
316.316	3.51488	2.36692	4.23754	-33.9564	9.00193	0.266515	-0.0266397	212.576	66.3218	1	10	0.00462648	0.00109178	0	1.45376e-06	0.195742	0.131813	0.235986	33.9564	66321.8	98487.8	118737	-56.0436	0.0000000E+000	0.0000000E+000	0.0000000E+000	56.0436	0.0000000E+000	0.0000000E+000	0.0000000E+000	-56.0436	0.0000000E+000	0.0000000E+000	0.0000000E+000	-33.9564	0.0000000E+000	0.0000000E+000	0.0000000E+000	33.9564	1.485	56.0436	-3.55151e-06	-7.09989e-06	10004.4
215.345	4.11737	2.93729	5.05771	-35.5036	9.46946	0.266527	-0.0256311	251.617	84.8643	1	10	0.00461547	0.000912562	0	-2.66207e-06	0.160958	0.114826	0.197718	35.5036	84864.3	118959	146128	-54.4964	0.0000000E+000	0.0000000E+000	0.0000000E+000	54.4964	0.0000000E+000	0.0000000E+000	0.0000000E+000	-54.4964	0.0000000E+000	0.0000000E+000	0.0000000E+000	-35.5036	0.0000000E+000	0.0000000E+000	0.0000000E+000	35.5036	1.40176	54.4964	-4.11584e-06	-6.83137e-06	10398.6
146.737	4.93334	3.54529	6.07511	-35.7025	9.93239	0.266502	-0.027173	305.934	104.189	1	10	0.00459984	0.000757162	0	-5.65075e-06	0.13367	0.0960602	0.164606	35.7025	104189	144981	178536	-54.2975	0.0000000E+000	0.0000000E+000	0.0000000E+000	54.2975	0.0000000E+000	0.0000000E+000	0.0000000E+000	-54.2975	0.0000000E+000	0.0000000E+000	0.0000000E+000	-35.7025	0.0000000E+000	0.0000000E+000	0.0000000E+000	35.7025	1.39152	54.2975	-2.98867e-06	-7.24166e-06	9807.6
100.032	6.00379	4.0989	7.26956	-34.3221	10.4007	0.266499	-0.0264776	388.162	123.405	1	10	0.00459358	0.000631892	0	-8.43707e-06	0.113608	0.0775624	0.13756	34.3221	123405	180755	218863	-55.6779	0.0000000E+000	0.0000000E+000	0.0000000E+000	55.6779	0.0000000E+000	0.0000000E+000	0.0000000E+000	-55.6779	0.0000000E+000	0.0000000E+000	0.0000000E+000	-34.3221	0.0000000E+000	0.0000000E+000	0.0000000E+000	34.3221	1.46473	55.6779	-2.78633e-06	-7.05623e-06	10065.1
68.104	7.33146	4.50705	8.60603	-31.5813	10.8793	0.266497	-0.0247343	518.508	142.211	1	10	0.00459066	0.000533424	0	-1.12391e-05	0.0989885	0.0608537	0.116198	31.5813	142211	231330	271547	-58.4187	0.0000000E+000	0.0000000E+000	0.0000000E+000	58.4187	0.0000000E+000	0.0000000E+000	0.0000000E+000	-58.4187	0.0000000E+000	0.0000000E+000	0.0000000E+000	-31.5813	0.0000000E+000	0.0000000E+000	0.0000000E+000	31.5813	1.62666	58.4187	-2.80207e-06	-6.59163e-06	10774.4
46.4415	8.80793	4.58958	9.93196	-27.5228	11.3345	0.266499	-0.027751	746.69	159.447	1	10	0.00458397	0.000461538	0	-1.45045e-05	0.0892902	0.0465268	0.100685	27.5228	159447	305997	345047	-62.4772	0.0000000E+000	0.0000000E+000	0.0000000E+000	62.4772	0.0000000E+000	0.0000000E+000	0.0000000E+000	-62.4772	0.0000000E+000	0.0000000E+000	0.0000000E+000	-27.5228	0.0000000E+000	0.0000000E+000	0.0000000E+000	27.5228	1.91911	62.4772	-3.26534e-06	-7.39562e-06	9603.25
31.6296	10.2699	4.35062	11.1535	-22.9588	11.7814	0.266509	-0.0277286	1156.58	175.978	1	10	0.00458639	0.000411207	0	-1.78793e-05	0.082556	0.0349729	0.0896582	22.9588	175978	415409	451146	-67.0412	0.0000000E+000	0.0000000E+000	0.0000000E+000	67.0412	0.0000000E+000	0.0000000E+000	0.0000000E+000	-67.0412	0.0000000E+000	0.0000000E+000	0.0000000E+000	-22.9588	0.0000000E+000	0.0000000E+000	0.0000000E+000	22.9588	2.36057	67.0412	-3.37486e-06	-7.38992e-06	9611.34
21.5517	11.511	3.81567	12.1269	-18.3394	12.2203	0.266498	-0.0297291	1935.39	191.605	1	10	0.00458247	0.000377876	0	-2.19876e-05	0.0782729	0.025946	0.0824612	18.3394	191605	578029	608959	-71.6606	0.0000000E+000	0.0000000E+000	0.0000000E+000	71.6606	0.0000000E+000	0.0000000E+000	0.0000000E+000	-71.6606	0.0000000E+000	0.0000000E+000	0.0000000E+000	-18.3394	0.0000000E+000	0.0000000E+000	0.0000000E+000	18.3394	3.01677	71.6606	-4.10821e-06	-7.92277e-06	8964.21
14.6852	12.4435	3.19584	12.8474	-14.4038	12.6991	0.266513	-0.023735	3391.23	209.845	1	10	0.00458383	0.000356792	0	-2.4427e-05	0.0753903	0.0193623	0.077837	14.4038	209845	817066	843583	-75.5962	0.0000000E+000	0.0000000E+000	0.0000000E+000	75.5962	0.0000000E+000	0.0000000E+000	0.0000000E+000	-75.5962	0.0000000E+000	0.0000000E+000	0.0000000E+000	-14.4038	0.0000000E+000	0.0000000E+000	0.0000000E+000	14.4038	3.89366	75.5962	-2.43949e-06	-6.32567e-06	11228.7
10.0032	13.1307	2.58276	13.3823	-11.1278	13.4217	0.266533	-0.022398	6160.22	229.457	1	11	0.00458347	0.000342502	0	-2.88187e-05	0.0733204	0.0144218	0.0747253	11.1278	229457	1.16656e+06	1.18891e+06	-78.8722	0.0000000E+000	0.0000000E+000	0.0000000E+000	78.8722	0.0000000E+000	0.0000000E+000	0.0000000E+000	-78.8722	0.0000000E+000	0.0000000E+000	0.0000000E+000	-11.1278	0.0000000E+000	0.0000000E+000	0.0000000E+000	11.1278	5.08399	78.8722	-4.39165e-06	-5.96982e-06	11899.8
6.81719	13.5608	2.0599	13.7164	-8.63727	13.7794	0.266516	-0.0236685	11333.6	255.613	1	11	0.00456893	0.000333101	0	-2.77655e-05	0.0720788	0.0109489	0.0729057	8.63727	255613	1.68276e+06	1.70206e+06	-81.3627	0.0000000E+000	0.0000000E+000	0.0000000E+000	81.3627	0.0000000E+000	0.0000000E+000	0.0000000E+000	-81.3627	0.0000000E+000	0.0000000E+000	0.0000000E+000	-8.63727	0.0000000E+000	0.0000000E+000	0.0000000E+000	8.63727	6.58323	81.3627	1.05322e-06	-6.30803e-06	11260.4
4.63925	13.88	1.66579	13.9796	-6.84355	14.2813	0.266542	-0.0216349	20594.5	292.417	1	11	0.00457982	0.000327607	0	-3.54386e-05	0.0710231	0.00852375	0.0715328	6.84355	292417	2.43653e+06	2.45402e+06	-83.1565	0.0000000E+000	0.0000000E+000	0.0000000E+000	83.1565	0.0000000E+000	0.0000000E+000	0.0000000E+000	-83.1565	0.0000000E+000	0.0000000E+000	0.0000000E+000	-6.84355	0.0000000E+000	0.0000000E+000	0.0000000E+000	6.84355	8.33238	83.1565	-7.67308e-06	-5.76661e-06	12320
3.1604	14.1592	1.39708	14.2279	-5.63511	14.9912	0.266536	-0.0210149	36046.1	347.549	1	11	0.00458	0.000321902	0	-3.80976e-05	0.0699447	0.00690141	0.0702843	5.63511	347549	3.52236e+06	3.53946e+06	-84.3649	0.0000000E+000	0.0000000E+000	0.0000000E+000	84.3649	0.0000000E+000	0.0000000E+000	0.0000000E+000	-84.3649	0.0000000E+000	0.0000000E+000	0.0000000E+000	-5.63511	0.0000000E+000	0.0000000E+000	0.0000000E+000	5.63511	10.1348	84.3649	-2.65906e-06	-5.60122e-06	12683.2
2.15577	14.3526	1.20627	14.4032	-4.80416	16.0067	0.266544	-0.0198465	61203.1	429.285	1	11	0.00458863	0.000318584	0	-3.70053e-05	0.0691851	0.0058147	0.069429	4.80416	429285	5.10776e+06	5.12577e+06	-85.1958	0.0000000E+000	0.0000000E+000	0.0000000E+000	85.1958	0.0000000E+000	0.0000000E+000	0.0000000E+000	-85.1958	0.0000000E+000	0.0000000E+000	0.0000000E+000	-4.80416	0.0000000E+000	0.0000000E+000	0.0000000E+000	4.80416	11.8983	85.1958	1.09233e-06	-5.28997e-06	13430.3
1.46631	14.5632	1.08882	14.6039	-4.27575	17.48	0.266543	-0.0183242	99687.2	554.132	1	11	0.00458558	0.000313998	0	-4.16282e-05	0.0682844	0.00510527	0.068475	4.27575	554132	7.41167e+06	7.43235e+06	-85.7242	0.0000000E+000	0.0000000E+000	0.0000000E+000	85.7242	0.0000000E+000	0.0000000E+000	0.0000000E+000	-85.7242	0.0000000E+000	0.0000000E+000	0.0000000E+000	-4.27575	0.0000000E+000	0.0000000E+000	0.0000000E+000	4.27575	13.3753	85.7242	-4.62294e-06	-4.88418e-06	14545.9
1.00006	14.7512	1.03201	14.7873	-4.00193	19.6203	0.266563	-0.015552	154209	751.098	1	11	0.00458993	0.000310397	0	-5.77452e-05	0.0674607	0.00471959	0.0676256	4.00193	751098	1.0736e+07	1.07623e+07	-85.9981	0.0000000E+000	0.0000000E+000	0.0000000E+000	85.9981	0.0000000E+000	0.0000000E+000	0.0000000E+000	-85.9981	0.0000000E+000	0.0000000E+000	0.0000000E+000	-4.00193	0.0000000E+000	0.0000000E+000	0.0000000E+000	4.00193	14.2938	85.9981	-1.6117e-05	-4.14559e-06	17140.1
0.681362	14.9596	1.00024	14.993	-3.82527	22.7423	0.266537	-0.0156729	233527	1039.37	1	11	0.00459072	0.000306191	0	-8.56936e-05	0.0665492	0.00444967	0.0666978	3.82527	1.03937e+06	1.55448e+07	1.55795e+07	-86.1747	0.0000000E+000	0.0000000E+000	0.0000000E+000	86.1747	0.0000000E+000	0.0000000E+000	0.0000000E+000	-86.1747	0.0000000E+000	0.0000000E+000	0.0000000E+000	-3.82527	0.0000000E+000	0.0000000E+000	0.0000000E+000	3.82527	14.956	86.1747	-2.79484e-05	-4.1774e-06	17006.3
0.464091	15.1608	1.00237	15.1939	-3.78265	27.3055	0.266533	-0.0151857	342130	1489.04	1	11	0.00459374	0.000302342	0	-0.000121829	0.0656726	0.004342	0.065816	3.78265	1.48904e+06	2.25217e+07	2.25709e+07	-86.2173	0.0000000E+000	0.0000000E+000	0.0000000E+000	86.2173	0.0000000E+000	0.0000000E+000	0.0000000E+000	-86.2173	0.0000000E+000	0.0000000E+000	0.0000000E+000	-3.78265	0.0000000E+000	0.0000000E+000	0.0000000E+000	3.78265	15.125	86.2173	-3.6135e-05	-4.04747e-06	17551.6
0.316193	15.3673	1.06437	15.4041	-3.96207	33.9869	0.266515	-0.015664	472908	2257.79	1	11	0.0045843	0.000297602	0	-0.000156444	0.0647624	0.00448555	0.0649176	3.96207	2.25779e+06	3.2598e+07	3.26761e+07	-86.0379	0.0000000E+000	0.0000000E+000	0.0000000E+000	86.0379	0.0000000E+000	0.0000000E+000	0.0000000E+000	-86.0379	0.0000000E+000	0.0000000E+000	0.0000000E+000	-3.96207	0.0000000E+000	0.0000000E+000	0.0000000E+000	3.96207	14.438	86.0379	-3.46156e-05	-4.17468e-06	17014.5
0.215268	15.5534	1.19198	15.599	-4.38245	43.7847	0.266529	-0.013947	620258	3621.72	1	11	0.00459184	0.000294367	0	-0.000175066	0.0639191	0.00489862	0.0641066	4.38245	3.62172e+06	4.72576e+07	4.73962e+07	-85.6175	0.0000000E+000	0.0000000E+000	0.0000000E+000	85.6175	0.0000000E+000	0.0000000E+000	0.0000000E+000	-85.6175	0.0000000E+000	0.0000000E+000	0.0000000E+000	-4.38245	0.0000000E+000	0.0000000E+000	0.0000000E+000	4.38245	13.0484	85.6175	-1.8622e-05	-3.71727e-06	19110.2
0.146929	15.7223	1.37267	15.7821	-4.98967	58.1212	0.266506	-0.0129829	789129	5969.65	1	11	0.00459254	0.000290997	0	-0.000174733	0.0631228	0.00551106	0.0633629	4.98967	5.96965e+06	6.83753e+07	6.86354e+07	-85.0103	0.0000000E+000	0.0000000E+000	0.0000000E+000	85.0103	0.0000000E+000	0.0000000E+000	0.0000000E+000	-85.0103	0.0000000E+000	0.0000000E+000	0.0000000E+000	-4.98967	0.0000000E+000	0.0000000E+000	0.0000000E+000	4.98967	11.4538	85.0103	3.33559e-07	-3.46001e-06	20527.5
0.0999041	15.9216	1.63074	16.0049	-5.84801	79.1909	0.266528	-0.00825717	976907	10141.8	1	11	0.00458904	0.000286727	0	-0.000150693	0.0621557	0.00636617	0.0624809	5.84801	1.01418e+07	9.90189e+07	9.95369e+07	-84.152	0.0000000E+000	0.0000000E+000	0.0000000E+000	84.152	0.0000000E+000	0.0000000E+000	0.0000000E+000	-84.152	0.0000000E+000	0.0000000E+000	0.0000000E+000	-5.84801	0.0000000E+000	0.0000000E+000	0.0000000E+000	5.84801	9.76344	84.152	2.40392e-05	-2.20076e-06	32278.3
0.0680626	16.1996	2.05474	16.3294	-7.22876	124.857	0.266529	-0.0049017	1.13803e+06	18019	1	12	0.00458753	0.000280938	0	-0.000145818	0.0607526	0.00770583	0.0612394	7.22876	1.8019e+07	1.42062e+08	1.432e+08	-82.7712	0.0000000E+000	0.0000000E+000	0.0000000E+000	82.7712	0.0000000E+000	0.0000000E+000	0.0000000E+000	-82.7712	0.0000000E+000	0.0000000E+000	0.0000000E+000	-7.22876	0.0000000E+000	0.0000000E+000	0.0000000E+000	7.22876	7.88399	82.7712	4.87573e-06	-1.30645e-06	54374.8
0.0464052	16.5537	2.7008	16.7726	-9.26638	170.181	0.266532	-0.00165322	1.26988e+06	32926.6	1	12	0.00458632	0.000273442	0	-0.00017477	0.0588432	0.00960049	0.0596212	9.26638	3.29266e+07	2.01813e+08	2.04482e+08	-80.7336	0.0000000E+000	0.0000000E+000	0.0000000E+000	80.7336	0.0000000E+000	0.0000000E+000	0.0000000E+000	-80.7336	0.0000000E+000	0.0000000E+000	0.0000000E+000	-9.26638	0.0000000E+000	0.0000000E+000	0.0000000E+000	9.26638	6.12918	80.7336	-2.89526e-05	-4.40635e-07	161220
0.0315922	16.8917	3.60115	17.2713	-12.0347	236.742	0.266529	-0.000854717	1.39894e+06	60817.6	1	12	0.00458636	0.000265547	0	-0.000348796	0.0566269	0.0120723	0.0578994	12.0347	6.08176e+07	2.85274e+08	2.91685e+08	-77.9653	0.0000000E+000	0.0000000E+000	0.0000000E+000	77.9653	0.0000000E+000	0.0000000E+000	0.0000000E+000	-77.9653	0.0000000E+000	0.0000000E+000	0.0000000E+000	-12.0347	0.0000000E+000	0.0000000E+000	0.0000000E+000	12.0347	4.69065	77.9653	-0.000174026	-2.27807e-07	311833
0.0215268	17.3874	4.72856	18.0189	-15.2138	334.41	0.266537	-0.00124599	1.56355e+06	107675	1	12	0.00458605	0.000254513	0	-0.000716779	0.0535523	0.0145637	0.0554973	15.2138	1.07675e+08	3.9593e+08	4.10311e+08	-74.7862	0.0000000E+000	0.0000000E+000	0.0000000E+000	74.7862	0.0000000E+000	0.0000000E+000	0.0000000E+000	-74.7862	0.0000000E+000	0.0000000E+000	0.0000000E+000	-15.2138	0.0000000E+000	0.0000000E+000	0.0000000E+000	15.2138	3.6771	74.7862	-0.000367983	-3.32102e-07	213916
0.0146812	18.1928	6.24214	19.2339	-18.9376	477.605	0.266531	-0.00263954	1.7367e+06	182918	1	12	0.00458971	0.000238626	0	-0.00122931	0.0491773	0.0168732	0.0519915	18.9376	1.82918e+08	5.33119e+08	5.63627e+08	-71.0624	0.0000000E+000	0.0000000E+000	0.0000000E+000	71.0624	0.0000000E+000	0.0000000E+000	0.0000000E+000	-71.0624	0.0000000E+000	0.0000000E+000	0.0000000E+000	-18.9376	0.0000000E+000	0.0000000E+000	0.0000000E+000	18.9376	2.91452	71.0624	-0.000512529	-7.03517e-07	100976
0.0100092	19.1871	8.41524	20.9514	-23.6817	687.625	0.266534	-0.00285551	1.88954e+06	304834	1	12	0.0045878	0.000218974	0	-0.00161256	0.0437103	0.0191708	0.0477295	23.6817	3.04834e+08	6.95033e+08	7.58943e+08	-66.3183	0.0000000E+000	0.0000000E+000	0.0000000E+000	66.3183	0.0000000E+000	0.0000000E+000	0.0000000E+000	-66.3183	0.0000000E+000	0.0000000E+000	0.0000000E+000	-23.6817	0.0000000E+000	0.0000000E+000	0.0000000E+000	23.6817	2.28004	66.3183	-0.000383255	-7.61092e-07	93340.3