File: txt/17485_R279_UA653_SOC00_C04.mpt
EC-Lab ASCII FILE
Nb header lines : 63

Potentio Electrochemical Impedance Spectroscopy

Run on channel : 4 (SN 66756)
User :
CE vs. WE compliance from -10 V to 10 V
Electrode connection : standard
Potential control : Ewe
Ewe ctrl range : min = -10.00 V, max = 10.00 V
Safety Limits :
	Do not start on E overload
Acquisition started on : 09/15/2025 08:59:30.852
Loaded Setting File :  C:\Users\Celltest\OneDrive - store-dot.com\Documents\EC-Lab\Data\Charmaine\R279\17382.mps
Saved on :
	File : 17485_C04.mpr
	Directory : C:\Users\Celltest\OneDrive - store-dot.com\Documents\EC-Lab\Data\Charmaine\R279\
	Host : 169.254.61.224
Device : VMP-3e (SN .003165)
Address : USB
EC-LAB for windows v11.62 (software)
Internet server v27.00 (firmware)
Command interpretor v12.03 (firmware)
Electrode material :
Initial state :
Electrolyte :
Comments :
Electrode surface area : 0.001 cm²
Characteristic mass : 0.001 g
Equivalent Weight : 0.000 g/eq.
Density : 0.000 g/cm3
Volume (V) : 0.001 cm³
Cycle Definition : Charge/Discharge alternance
Mode                Single sine
E (V)               0.0000
vs.                 Eoc
tE (h:m:s)          0:00:0.0000
record              0
dI                  0.000
unit dI             mA
dt (s)              0.000
fi                  100.000
unit fi             kHz
ff                  10.000
unit ff             mHz
Nd                  6
Points              per decade
spacing             Logarithmic
Va (mV)             5.0
pw                  0.10
Na                  2
corr                0
E range min (V)     -10.000
E range max (V)     10.000
I Range             Auto
Bandwidth           5
nc cycles           0
goto Ns'            0
nr cycles           0
inc. cycle          0

freq/Hz	Re(Z)/Ohm	-Im(Z)/Ohm	|Z|/Ohm	Phase(Z)/deg	time/s	<Ewe>/V	<I>/mA	Cs/µF	Cp/µF	cycle number	I Range	|Ewe|/V	|I|/A	Ns	(Q-Qo)/mA.h	Re(Y)/Ohm-1	Im(Y)/Ohm-1	|Y|/Ohm-1	Phase(Y)/deg	Re(C)/nF	Im(C)/nF	|C|/nF	Phase(C)/deg	Re(M)	Im(M)	|M|	Phase(M)/deg	Re(Permittivity)	Im(Permittivity)	|Permittivity|	Phase(Permittivity)/deg	Re(Resistivity)/Ohm.cm	Im(Resistivity)/Ohm.cm	|Resistivity|/Ohm.cm	Phase(Resistivity)/deg	Re(Conductivity)/mS/cm	Im(Conductivity)/mS/cm	|Conductivity|/mS/cm	Phase(Conductivity)/deg	Tan(Delta)	Loss Angle(Delta)/deg	dq/mA.h	Pwe/W	Rwe/Ohm
100004	1.19092	0.193101	1.20647	-9.21008	1.7155	0.270225	-0.0706823	8.24173	0.211133	1	9	0.00521777	0.00432482	0	-3.1878e-05	0.818178	0.132664	0.828864	9.21008	211.133	1302.12	1319.13	-80.7899	0.0000000E+000	0.0000000E+000	0.0000000E+000	80.7899	0.0000000E+000	0.0000000E+000	0.0000000E+000	-80.7899	0.0000000E+000	0.0000000E+000	0.0000000E+000	-9.21008	0.0000000E+000	0.0000000E+000	0.0000000E+000	9.21008	6.16731	80.7899	-3.1878e-05	-1.91001e-05	3823.09
68132	1.22288	0.252869	1.24876	-11.683	2.29348	0.270212	-0.0768923	9.23789	0.3788	1	9	0.00527537	0.0042245	0	-4.96789e-05	0.784207	0.162159	0.800797	11.683	378.8	1831.89	1870.64	-78.317	0.0000000E+000	0.0000000E+000	0.0000000E+000	78.317	0.0000000E+000	0.0000000E+000	0.0000000E+000	-78.317	0.0000000E+000	0.0000000E+000	0.0000000E+000	-11.683	0.0000000E+000	0.0000000E+000	0.0000000E+000	11.683	4.83604	78.317	-1.7801e-05	-2.07772e-05	3514.17
46420.4	1.28199	0.284873	1.31326	-12.5282	2.73147	0.270214	-0.0784588	12.0354	0.566317	1	9	0.00547223	0.0041669	0	-5.83618e-05	0.743331	0.165176	0.761462	12.5282	566.317	2548.55	2610.72	-77.4718	0.0000000E+000	0.0000000E+000	0.0000000E+000	77.4718	0.0000000E+000	0.0000000E+000	0.0000000E+000	-77.4718	0.0000000E+000	0.0000000E+000	0.0000000E+000	-12.5282	0.0000000E+000	0.0000000E+000	0.0000000E+000	12.5282	4.50023	77.4718	-8.68284e-06	-2.12007e-05	3444.02
31621.1	1.34706	0.320112	1.38457	-13.3677	3.30949	0.270196	-0.0795031	15.7232	0.840457	1	9	0.00508598	0.00367333	0	-7.90888e-05	0.702678	0.166983	0.722247	13.3677	840.457	3536.71	3635.2	-76.6323	0.0000000E+000	0.0000000E+000	0.0000000E+000	76.6323	0.0000000E+000	0.0000000E+000	0.0000000E+000	-76.6323	0.0000000E+000	0.0000000E+000	0.0000000E+000	-13.3677	0.0000000E+000	0.0000000E+000	0.0000000E+000	13.3677	4.20808	76.6323	-2.0727e-05	-2.14815e-05	3398.56
21544.7	1.41924	0.357493	1.46357	-14.1381	3.74648	0.270209	-0.0742629	20.6639	1.23287	1	9	0.00540754	0.00369475	0	-9.23435e-05	0.662563	0.166893	0.683259	14.1381	1232.87	4894.49	5047.37	-75.8619	0.0000000E+000	0.0000000E+000	0.0000000E+000	75.8619	0.0000000E+000	0.0000000E+000	0.0000000E+000	-75.8619	0.0000000E+000	0.0000000E+000	0.0000000E+000	-14.1381	0.0000000E+000	0.0000000E+000	0.0000000E+000	14.1381	3.96999	75.8619	-1.32548e-05	-2.00665e-05	3638.55
14678.6	1.50214	0.406424	1.55615	-15.1396	4.18348	0.270238	-0.0748037	26.6782	1.81974	1	9	0.00549859	0.00353345	0	-0.00010269	0.620307	0.167832	0.64261	15.1396	1819.74	6725.77	6967.6	-74.8604	0.0000000E+000	0.0000000E+000	0.0000000E+000	74.8604	0.0000000E+000	0.0000000E+000	0.0000000E+000	-74.8604	0.0000000E+000	0.0000000E+000	0.0000000E+000	-15.1396	0.0000000E+000	0.0000000E+000	0.0000000E+000	15.1396	3.696	74.8604	-1.03469e-05	-2.02148e-05	3612.63
10002.2	1.58768	0.463634	1.65399	-16.2789	4.62149	0.270218	-0.0765007	34.32	2.69671	1	9	0.00547922	0.00331273	0	-0.000110446	0.58036	0.169477	0.604599	16.2789	2696.71	9234.65	9620.35	-73.7211	0.0000000E+000	0.0000000E+000	0.0000000E+000	73.7211	0.0000000E+000	0.0000000E+000	0.0000000E+000	-73.7211	0.0000000E+000	0.0000000E+000	0.0000000E+000	-16.2789	0.0000000E+000	0.0000000E+000	0.0000000E+000	16.2789	3.42442	73.7211	-7.75596e-06	-2.06719e-05	3532.23
6811.07	1.68668	0.531833	1.76854	-17.5007	5.17752	0.270208	-0.0794472	43.937	3.97328	1	9	0.00545205	0.0030828	0	-0.00013105	0.539265	0.170037	0.565437	17.5007	3973.28	12601.1	13212.6	-72.4993	0.0000000E+000	0.0000000E+000	0.0000000E+000	72.4993	0.0000000E+000	0.0000000E+000	0.0000000E+000	-72.4993	0.0000000E+000	0.0000000E+000	0.0000000E+000	-17.5007	0.0000000E+000	0.0000000E+000	0.0000000E+000	17.5007	3.17145	72.4993	-2.06038e-05	-2.14673e-05	3401.11
4641.49	1.79606	0.613883	1.89807	-18.8701	5.87071	0.27022	-0.0777875	55.857	5.84282	1	9	0.00542222	0.00285669	0	-0.000146367	0.498534	0.170396	0.52685	18.8701	5842.82	17094.6	18065.5	-71.1299	0.0000000E+000	0.0000000E+000	0.0000000E+000	71.1299	0.0000000E+000	0.0000000E+000	0.0000000E+000	-71.1299	0.0000000E+000	0.0000000E+000	0.0000000E+000	-18.8701	0.0000000E+000	0.0000000E+000	0.0000000E+000	18.8701	2.92574	71.1299	-1.53168e-05	-2.10197e-05	3473.82
3161.01	1.9191	0.727362	2.05231	-20.7573	6.56069	0.270223	-0.0746172	69.2219	8.69477	1	9	0.00526313	0.00256449	0	-0.000157452	0.455628	0.172689	0.487255	20.7573	8694.76	22940.6	24533	-69.2427	0.0000000E+000	0.0000000E+000	0.0000000E+000	69.2427	0.0000000E+000	0.0000000E+000	0.0000000E+000	-69.2427	0.0000000E+000	0.0000000E+000	0.0000000E+000	-20.7573	0.0000000E+000	0.0000000E+000	0.0000000E+000	20.7573	2.63843	69.2427	-1.10846e-05	-2.01633e-05	3621.45
2155.69	2.05668	0.863085	2.23044	-22.7653	7.25068	0.270235	-0.0764448	85.5422	12.8088	1	9	0.00499173	0.00223801	0	-0.00017243	0.413416	0.173489	0.448342	22.7653	12808.8	30522.5	33101.2	-67.2347	0.0000000E+000	0.0000000E+000	0.0000000E+000	67.2347	0.0000000E+000	0.0000000E+000	0.0000000E+000	-67.2347	0.0000000E+000	0.0000000E+000	0.0000000E+000	-22.7653	0.0000000E+000	0.0000000E+000	0.0000000E+000	22.7653	2.38294	67.2347	-1.49782e-05	-2.0658e-05	3535.03
1468.59	2.21726	1.05014	2.45337	-25.3432	7.71793	0.270218	-0.0724726	103.198	18.9078	1	9	0.00516276	0.00210435	0	-0.000183172	0.368374	0.17447	0.407602	25.3432	18907.8	39921.7	44172.9	-64.6568	0.0000000E+000	0.0000000E+000	0.0000000E+000	64.6568	0.0000000E+000	0.0000000E+000	0.0000000E+000	-64.6568	0.0000000E+000	0.0000000E+000	0.0000000E+000	-25.3432	0.0000000E+000	0.0000000E+000	0.0000000E+000	25.3432	2.11139	64.6568	-1.0742e-05	-1.95834e-05	3728.56
1000.32	2.40662	1.2855	2.72843	-28.1089	8.18667	0.270243	-0.0739459	123.768	27.4744	1	9	0.0051115	0.00187343	0	-0.00019248	0.323283	0.172682	0.366512	28.1089	27474.4	51435.6	58313.5	-61.8911	0.0000000E+000	0.0000000E+000	0.0000000E+000	61.8911	0.0000000E+000	0.0000000E+000	0.0000000E+000	-61.8911	0.0000000E+000	0.0000000E+000	0.0000000E+000	-28.1089	0.0000000E+000	0.0000000E+000	0.0000000E+000	28.1089	1.87213	61.8911	-9.30777e-06	-1.99834e-05	3654.61
681.09	2.66477	1.61369	3.11529	-31.1977	8.90642	0.270361	-0.0596328	144.809	38.8544	1	10	0.00509362	0.00163504	0	-0.000205296	0.274577	0.166274	0.320997	31.1977	38854.4	64162.2	75009.7	-58.8023	0.0000000E+000	0.0000000E+000	0.0000000E+000	58.8023	0.0000000E+000	0.0000000E+000	0.0000000E+000	-58.8023	0.0000000E+000	0.0000000E+000	0.0000000E+000	-31.1977	0.0000000E+000	0.0000000E+000	0.0000000E+000	31.1977	1.65135	58.8024	-1.28165e-05	-1.61224e-05	4533.77
463.961	2.97793	2.03266	3.60552	-34.3164	9.37522	0.270249	-0.0577043	168.762	53.6373	1	10	0.00496697	0.0013776	0	-0.000212101	0.229075	0.156361	0.277352	34.3164	53637.3	78581	95141.6	-55.6836	0.0000000E+000	0.0000000E+000	0.0000000E+000	55.6836	0.0000000E+000	0.0000000E+000	0.0000000E+000	-55.6836	0.0000000E+000	0.0000000E+000	0.0000000E+000	-34.3164	0.0000000E+000	0.0000000E+000	0.0000000E+000	34.3164	1.46504	55.6836	-6.80473e-06	-1.55945e-05	4683.34
316.316	3.42578	2.5521	4.27191	-36.6849	9.84192	0.270232	-0.0574358	197.152	70.3643	1	10	0.0048779	0.00114185	0	-0.000218658	0.187722	0.139847	0.234087	36.6849	70364.3	94452.8	117781	-53.3151	0.0000000E+000	0.0000000E+000	0.0000000E+000	53.3151	0.0000000E+000	0.0000000E+000	0.0000000E+000	-53.3151	0.0000000E+000	0.0000000E+000	0.0000000E+000	-36.6849	0.0000000E+000	0.0000000E+000	0.0000000E+000	36.6849	1.34234	53.3151	-6.55753e-06	-1.5521e-05	4704.95
215.345	4.04698	3.17816	5.14575	-38.1432	10.3094	0.270232	-0.0565256	232.547	88.7084	1	10	0.0048218	0.000937044	0	-0.000225612	0.152839	0.120027	0.194335	38.1432	88708.4	112959	143627	-51.8568	0.0000000E+000	0.0000000E+000	0.0000000E+000	51.8568	0.0000000E+000	0.0000000E+000	0.0000000E+000	-51.8568	0.0000000E+000	0.0000000E+000	0.0000000E+000	-38.1432	0.0000000E+000	0.0000000E+000	0.0000000E+000	38.1432	1.27337	51.8568	-6.95341e-06	-1.5275e-05	4780.7
146.737	4.91126	3.8706	6.25317	-38.2419	10.7724	0.270239	-0.0565666	280.221	107.364	1	10	0.00478653	0.000765457	0	-0.000233094	0.125601	0.0989871	0.159919	38.2419	107364	136230	173452	-51.7581	0.0000000E+000	0.0000000E+000	0.0000000E+000	51.7581	0.0000000E+000	0.0000000E+000	0.0000000E+000	-51.7581	0.0000000E+000	0.0000000E+000	0.0000000E+000	-38.2419	0.0000000E+000	0.0000000E+000	0.0000000E+000	38.2419	1.26886	51.7581	-7.4826e-06	-1.52865e-05	4777.36
100.032	6.0465	4.54626	7.56496	-36.9389	11.2407	0.270216	-0.0545262	349.967	126.393	1	10	0.00475866	0.00062904	0	-0.000240561	0.105655	0.0794404	0.132188	36.9389	126393	168102	210317	-53.0611	0.0000000E+000	0.0000000E+000	0.0000000E+000	53.0611	0.0000000E+000	0.0000000E+000	0.0000000E+000	-53.0611	0.0000000E+000	0.0000000E+000	0.0000000E+000	-36.9389	0.0000000E+000	0.0000000E+000	0.0000000E+000	36.9389	1.32999	53.0611	-7.46699e-06	-1.47339e-05	4955.71
68.104	7.53817	5.0674	9.08309	-33.9103	11.7193	0.270248	-0.0534575	461.171	143.538	1	10	0.00475359	0.000523345	0	-0.000247858	0.0913689	0.0614212	0.110095	33.9103	143538	213524	257285	-56.0897	0.0000000E+000	0.0000000E+000	0.0000000E+000	56.0897	0.0000000E+000	0.0000000E+000	0.0000000E+000	-56.0897	0.0000000E+000	0.0000000E+000	0.0000000E+000	-33.9103	0.0000000E+000	0.0000000E+000	0.0000000E+000	33.9103	1.48758	56.0897	-7.29669e-06	-1.44468e-05	5055.37
46.4415	9.16982	5.23518	10.559	-29.7227	12.1745	0.270229	-0.0556677	654.609	160.916	1	10	0.00472305	0.000447301	0	-0.000255114	0.0822459	0.0469553	0.0947058	29.7227	160916	281856	324556	-60.2774	0.0000000E+000	0.0000000E+000	0.0000000E+000	60.2774	0.0000000E+000	0.0000000E+000	0.0000000E+000	-60.2774	0.0000000E+000	0.0000000E+000	0.0000000E+000	-29.7227	0.0000000E+000	0.0000000E+000	0.0000000E+000	29.7227	1.75158	60.2774	-7.25582e-06	-1.5043e-05	4854.33
31.6296	10.9052	5.07061	12.0264	-24.9371	12.6205	0.270217	-0.0552331	992.355	176.407	1	10	0.00474001	0.000394134	0	-0.000261644	0.0753984	0.0350581	0.0831504	24.9371	176407	379393	418400	-65.0629	0.0000000E+000	0.0000000E+000	0.0000000E+000	65.0629	0.0000000E+000	0.0000000E+000	0.0000000E+000	-65.0629	0.0000000E+000	0.0000000E+000	0.0000000E+000	-24.9371	0.0000000E+000	0.0000000E+000	0.0000000E+000	24.9371	2.15067	65.0629	-6.53055e-06	-1.49249e-05	4892.3
21.5517	12.2649	4.50087	13.0647	-20.1516	13.0593	0.270212	-0.0554793	1640.75	194.731	1	10	0.00469909	0.000359678	0	-0.000269338	0.0718565	0.0263692	0.0765421	20.1516	194731	530645	565247	-69.8484	0.0000000E+000	0.0000000E+000	0.0000000E+000	69.8484	0.0000000E+000	0.0000000E+000	0.0000000E+000	-69.8484	0.0000000E+000	0.0000000E+000	0.0000000E+000	-20.1516	0.0000000E+000	0.0000000E+000	0.0000000E+000	20.1516	2.72502	69.8484	-7.69356e-06	-1.49912e-05	4870.51
14.6852	13.4604	3.92061	14.0197	-16.2393	13.796	0.270255	-0.0481198	2764.32	216.181	1	11	0.00471496	0.000336309	0	-0.00027867	0.0684823	0.0199469	0.0713281	16.2393	216181	742198	773041	-73.7607	0.0000000E+000	0.0000000E+000	0.0000000E+000	73.7607	0.0000000E+000	0.0000000E+000	0.0000000E+000	-73.7607	0.0000000E+000	0.0000000E+000	0.0000000E+000	-16.2393	0.0000000E+000	0.0000000E+000	0.0000000E+000	16.2393	3.43323	73.7607	-9.33164e-06	-1.30046e-05	5616.28
10.0032	14.291	3.1744	14.6393	-12.5235	14.2647	0.270224	-0.0476695	5012.1	235.669	1	11	0.0047153	0.000322099	0	-0.000282253	0.066684	0.0148122	0.0683093	12.5235	235669	1.06097e+06	1.08683e+06	-77.4765	0.0000000E+000	0.0000000E+000	0.0000000E+000	77.4765	0.0000000E+000	0.0000000E+000	0.0000000E+000	-77.4765	0.0000000E+000	0.0000000E+000	0.0000000E+000	-12.5235	0.0000000E+000	0.0000000E+000	0.0000000E+000	12.5235	4.50195	77.4765	-3.58337e-06	-1.28814e-05	5668.69
6.81719	14.763	2.33447	14.9464	-8.98578	14.6224	0.270215	-0.0478369	10000.6	243.966	1	11	0.00468535	0.000313477	0	-0.000290132	0.0660846	0.01045	0.0669058	8.98578	243966	1.54282e+06	1.56199e+06	-81.0142	0.0000000E+000	0.0000000E+000	0.0000000E+000	81.0142	0.0000000E+000	0.0000000E+000	0.0000000E+000	-81.0142	0.0000000E+000	0.0000000E+000	0.0000000E+000	-8.98578	0.0000000E+000	0.0000000E+000	0.0000000E+000	8.98578	6.32391	81.0142	-7.8789e-06	-1.29262e-05	5648.67
4.63925	15.5129	2.04513	15.6471	-7.51022	15.1243	0.270292	-0.0469023	16774.6	286.565	1	11	0.00478649	0.000305902	0	-0.000292042	0.0633613	0.00835317	0.0639096	7.51022	286566	2.17368e+06	2.19249e+06	-82.4898	0.0000000E+000	0.0000000E+000	0.0000000E+000	82.4898	0.0000000E+000	0.0000000E+000	0.0000000E+000	-82.4898	0.0000000E+000	0.0000000E+000	0.0000000E+000	-7.51022	0.0000000E+000	0.0000000E+000	0.0000000E+000	7.51022	7.5853	82.4898	-1.91045e-06	-1.26773e-05	5762.88
3.1604	15.6411	1.68503	15.7316	-6.14884	15.8333	0.270219	-0.044484	29886.2	342.881	1	11	0.00473933	0.000301262	0	-0.000301855	0.0632008	0.0068087	0.0635665	6.14884	342881	3.18274e+06	3.20115e+06	-83.8512	0.0000000E+000	0.0000000E+000	0.0000000E+000	83.8512	0.0000000E+000	0.0000000E+000	0.0000000E+000	-83.8512	0.0000000E+000	0.0000000E+000	0.0000000E+000	-6.14884	0.0000000E+000	0.0000000E+000	0.0000000E+000	6.14884	9.28235	83.8512	-9.81236e-06	-1.20204e-05	6074.53
2.15577	15.958	1.39014	16.0184	-4.9786	16.8498	0.270246	-0.042912	53108	399.978	1	11	0.00475576	0.000296893	0	-0.000320219	0.0621926	0.00541774	0.0624281	4.9786	399978	4.59152e+06	4.60891e+06	-85.0214	0.0000000E+000	0.0000000E+000	0.0000000E+000	85.0214	0.0000000E+000	0.0000000E+000	0.0000000E+000	-85.0214	0.0000000E+000	0.0000000E+000	0.0000000E+000	-4.9786	0.0000000E+000	0.0000000E+000	0.0000000E+000	4.9786	11.4794	85.0214	-1.83639e-05	-1.15968e-05	6297.68
1.46631	16.1605	1.3052	16.2131	-4.61746	18.323	0.270256	-0.04168	83160.5	538.937	1	11	0.00474479	0.000292651	0	-0.000340436	0.0614782	0.00496528	0.0616784	4.61746	538937	6.67291e+06	6.69464e+06	-85.3825	0.0000000E+000	0.0000000E+000	0.0000000E+000	85.3825	0.0000000E+000	0.0000000E+000	0.0000000E+000	-85.3825	0.0000000E+000	0.0000000E+000	0.0000000E+000	-4.61746	0.0000000E+000	0.0000000E+000	0.0000000E+000	4.61746	12.3816	85.3825	-2.02174e-05	-1.12643e-05	6484.06
1.00006	16.3378	1.20369	16.3821	-4.21366	21.5133	0.270267	-0.038656	132214	713.786	1	12	0.00472978	0.000288717	0	-0.000368628	0.0608772	0.00448513	0.0610422	4.21366	713785	9.6883e+06	9.71455e+06	-85.7863	0.0000000E+000	0.0000000E+000	0.0000000E+000	85.7863	0.0000000E+000	0.0000000E+000	0.0000000E+000	-85.7863	0.0000000E+000	0.0000000E+000	0.0000000E+000	-4.21366	0.0000000E+000	0.0000000E+000	0.0000000E+000	4.21366	13.5731	85.7863	-2.81924e-05	-1.04475e-05	6991.6
0.681362	16.5502	1.13837	16.5893	-3.93479	24.6343	0.270273	-0.0369815	205191	966.211	1	12	0.00472748	0.000284972	0	-0.000387326	0.0601378	0.00413647	0.0602799	3.93479	966210	1.40472e+07	1.40804e+07	-86.0652	0.0000000E+000	0.0000000E+000	0.0000000E+000	86.0652	0.0000000E+000	0.0000000E+000	0.0000000E+000	-86.0652	0.0000000E+000	0.0000000E+000	0.0000000E+000	-3.93479	0.0000000E+000	0.0000000E+000	0.0000000E+000	3.93479	14.5384	86.0652	-1.86976e-05	-9.99509e-06	7308.32
0.464091	16.7531	1.14469	16.7921	-3.90879	29.199	0.270264	-0.0334721	299591	1392.18	1	12	0.00472733	0.000281521	0	-0.000418712	0.0594132	0.00405955	0.0595518	3.90879	1.39218e+06	2.03751e+07	2.04226e+07	-86.0912	0.0000000E+000	0.0000000E+000	0.0000000E+000	86.0912	0.0000000E+000	0.0000000E+000	0.0000000E+000	-86.0912	0.0000000E+000	0.0000000E+000	0.0000000E+000	-3.90879	0.0000000E+000	0.0000000E+000	0.0000000E+000	3.90879	14.6354	86.0912	-3.13861e-05	-9.04631e-06	8074.33
0.316193	17.0074	1.11861	17.0442	-3.76302	35.8812	0.27026	-0.0290614	449976	1938.18	1	12	0.00473523	0.000277821	0	-0.000476295	0.0585445	0.00385057	0.058671	3.76302	1.93818e+06	2.94682e+07	2.95319e+07	-86.237	0.0000000E+000	0.0000000E+000	0.0000000E+000	86.237	0.0000000E+000	0.0000000E+000	0.0000000E+000	-86.237	0.0000000E+000	0.0000000E+000	0.0000000E+000	-3.76302	0.0000000E+000	0.0000000E+000	0.0000000E+000	3.76302	15.2041	86.237	-5.75832e-05	-7.85412e-06	9299.63
0.215268	17.2134	1.17294	17.2533	-3.89818	45.6789	0.270264	-0.0242971	630325	2913.22	1	12	0.00473669	0.000274538	0	-0.000571032	0.0578258	0.00394033	0.0579599	3.89818	2.91322e+06	4.27526e+07	4.28518e+07	-86.1018	0.0000000E+000	0.0000000E+000	0.0000000E+000	86.1018	0.0000000E+000	0.0000000E+000	0.0000000E+000	-86.1018	0.0000000E+000	0.0000000E+000	0.0000000E+000	-3.89818	0.0000000E+000	0.0000000E+000	0.0000000E+000	3.89818	14.6754	86.1018	-9.47363e-05	-6.56662e-06	11123.3
0.146929	17.4418	1.34489	17.4936	-4.4092	60.0162	0.270257	-0.0200347	805428	4760.4	1	12	0.00474052	0.000270986	0	-0.000707291	0.0569947	0.00439471	0.0571639	4.4092	4.7604e+06	6.17373e+07	6.19206e+07	-85.5908	0.0000000E+000	0.0000000E+000	0.0000000E+000	85.5908	0.0000000E+000	0.0000000E+000	0.0000000E+000	-85.5908	0.0000000E+000	0.0000000E+000	0.0000000E+000	-4.4092	0.0000000E+000	0.0000000E+000	0.0000000E+000	4.4092	12.9689	85.5908	-0.000136259	-5.41453e-06	13489.4
0.0999041	17.6763	1.5668	17.7456	-5.06536	81.0861	0.270281	-0.0168489	1.01677e+06	7926.25	1	12	0.00473869	0.000267035	0	-0.000874957	0.0561319	0.00497544	0.056352	5.06536	7.92626e+06	8.94225e+07	8.97731e+07	-84.9346	0.0000000E+000	0.0000000E+000	0.0000000E+000	84.9346	0.0000000E+000	0.0000000E+000	0.0000000E+000	-84.9346	0.0000000E+000	0.0000000E+000	0.0000000E+000	-5.06536	0.0000000E+000	0.0000000E+000	0.0000000E+000	5.06536	11.2818	84.9346	-0.000167666	-4.55394e-06	16041.5
0.0680626	17.9459	2.03163	18.0606	-6.45888	111.998	0.270271	-0.0134774	1.15098e+06	14564.5	1	12	0.00473764	0.00026232	0	-0.00104524	0.0550179	0.0062285	0.0553693	6.45888	1.45645e+07	1.28652e+08	1.29473e+08	-83.5411	0.0000000E+000	0.0000000E+000	0.0000000E+000	83.5411	0.0000000E+000	0.0000000E+000	0.0000000E+000	-83.5411	0.0000000E+000	0.0000000E+000	0.0000000E+000	-6.45888	0.0000000E+000	0.0000000E+000	0.0000000E+000	6.45888	8.83325	83.5411	-0.000170282	-3.64254e-06	20053.7
0.0464052	18.2299	2.70577	18.4296	-8.44248	157.323	0.270269	-0.0109811	1.26754e+06	27322	1	12	0.00474165	0.000257284	0	-0.0011587	0.0536726	0.00796634	0.0542606	8.44248	2.7322e+07	1.8408e+08	1.86096e+08	-81.5575	0.0000000E+000	0.0000000E+000	0.0000000E+000	81.5575	0.0000000E+000	0.0000000E+000	0.0000000E+000	-81.5575	0.0000000E+000	0.0000000E+000	0.0000000E+000	-8.44248	0.0000000E+000	0.0000000E+000	0.0000000E+000	8.44248	6.73742	81.5575	-0.000113465	-2.96786e-06	24612.1
0.0315922	18.4796	3.57865	18.823	-10.9599	223.884	0.27027	-0.00794196	1.40773e+06	50884.4	1	12	0.0047349	0.000251549	0	-0.00114054	0.0521576	0.0101005	0.0531266	10.9599	5.08844e+07	2.62759e+08	2.67641e+08	-79.0401	0.0000000E+000	0.0000000E+000	0.0000000E+000	79.0401	0.0000000E+000	0.0000000E+000	0.0000000E+000	-79.0401	0.0000000E+000	0.0000000E+000	0.0000000E+000	-10.9599	0.0000000E+000	0.0000000E+000	0.0000000E+000	10.9599	5.16385	79.0401	1.81637e-05	-2.14647e-06	34030.6
0.0215268	18.9333	4.67546	19.502	-13.8713	321.553	0.270275	-0.00483542	1.58131e+06	90887.7	1	12	0.00473271	0.000242678	0	-0.000965834	0.0497813	0.0122932	0.0512767	13.8713	9.08877e+07	3.6805e+08	3.79106e+08	-76.1287	0.0000000E+000	0.0000000E+000	0.0000000E+000	76.1287	0.0000000E+000	0.0000000E+000	0.0000000E+000	-76.1287	0.0000000E+000	0.0000000E+000	0.0000000E+000	-13.8713	0.0000000E+000	0.0000000E+000	0.0000000E+000	13.8713	4.0495	76.1287	0.000174706	-1.30689e-06	55894.9
0.0146812	19.694	6.24222	20.6596	-17.5865	464.748	0.270262	-0.00289491	1.73668e+06	158546	1	12	0.00473336	0.000229112	0	-0.000755327	0.0461413	0.014625	0.0484036	17.5865	1.58546e+08	5.00207e+08	5.24732e+08	-72.4135	0.0000000E+000	0.0000000E+000	0.0000000E+000	72.4135	0.0000000E+000	0.0000000E+000	0.0000000E+000	-72.4135	0.0000000E+000	0.0000000E+000	0.0000000E+000	-17.5865	0.0000000E+000	0.0000000E+000	0.0000000E+000	17.5865	3.15497	72.4135	0.000210507	-7.82384e-07	93357.7
0.0100092	20.6335	8.50026	22.3158	-22.3899	674.769	0.270271	-0.00212744	1.87064e+06	271412	1	12	0.00473753	0.000212295	0	-0.000796394	0.0414331	0.017069	0.0448113	22.3899	2.71412e+08	6.58824e+08	7.12541e+08	-67.6101	0.0000000E+000	0.0000000E+000	0.0000000E+000	67.6101	0.0000000E+000	0.0000000E+000	0.0000000E+000	-67.6101	0.0000000E+000	0.0000000E+000	0.0000000E+000	-22.3899	0.0000000E+000	0.0000000E+000	0.0000000E+000	22.3899	2.42739	67.6101	-4.10672e-05	-5.74985e-07	127040