File: txt/17490_R279_UA654_SOC00_C08.mpt
EC-Lab ASCII FILE
Nb header lines : 63

Potentio Electrochemical Impedance Spectroscopy

Run on channel : 8 (SN 65398)
User :
CE vs. WE compliance from -10 V to 10 V
Electrode connection : standard
Potential control : Ewe
Ewe ctrl range : min = -10.00 V, max = 10.00 V
Safety Limits :
	Do not start on E overload
Acquisition started on : 09/15/2025 10:08:35.287
Loaded Setting File :  C:\Users\Celltest\OneDrive - store-dot.com\Documents\EC-Lab\Data\Charmaine\R279\17382.mps
Saved on :
	File : 17490_C08.mpr
	Directory : C:\Users\Celltest\OneDrive - store-dot.com\Documents\EC-Lab\Data\Charmaine\R279\
	Host : 169.254.61.224
Device : VMP-3e (SN .003165)
Address : USB
EC-LAB for windows v11.62 (software)
Internet server v27.00 (firmware)
Command interpretor v12.03 (firmware)
Electrode material :
Initial state :
Electrolyte :
Comments :
Electrode surface area : 0.001 cm²
Characteristic mass : 0.001 g
Equivalent Weight : 0.000 g/eq.
Density : 0.000 g/cm3
Volume (V) : 0.001 cm³
Cycle Definition : Charge/Discharge alternance
Mode                Single sine
E (V)               0.0000
vs.                 Eoc
tE (h:m:s)          0:00:0.0000
record              0
dI                  0.000
unit dI             mA
dt (s)              0.000
fi                  100.000
unit fi             kHz
ff                  10.000
unit ff             mHz
Nd                  6
Points              per decade
spacing             Logarithmic
Va (mV)             5.0
pw                  0.10
Na                  2
corr                0
E range min (V)     -10.000
E range max (V)     10.000
I Range             Auto
Bandwidth           5
nc cycles           0
goto Ns'            0
nr cycles           0
inc. cycle          0

freq/Hz	Re(Z)/Ohm	-Im(Z)/Ohm	|Z|/Ohm	Phase(Z)/deg	time/s	<Ewe>/V	<I>/mA	Cs/µF	Cp/µF	cycle number	I Range	|Ewe|/V	|I|/A	Ns	(Q-Qo)/mA.h	Re(Y)/Ohm-1	Im(Y)/Ohm-1	|Y|/Ohm-1	Phase(Y)/deg	Re(C)/nF	Im(C)/nF	|C|/nF	Phase(C)/deg	Re(M)	Im(M)	|M|	Phase(M)/deg	Re(Permittivity)	Im(Permittivity)	|Permittivity|	Phase(Permittivity)/deg	Re(Resistivity)/Ohm.cm	Im(Resistivity)/Ohm.cm	|Resistivity|/Ohm.cm	Phase(Resistivity)/deg	Re(Conductivity)/mS/cm	Im(Conductivity)/mS/cm	|Conductivity|/mS/cm	Phase(Conductivity)/deg	Tan(Delta)	Loss Angle(Delta)/deg	dq/mA.h	Pwe/W	Rwe/Ohm
100004	1.15319	0.231826	1.17626	-11.3667	1.86549	0.261806	0.0155902	6.86501	0.266661	1	9	0.00456157	0.00387802	0	-1.76102e-06	0.833476	0.167554	0.850151	11.3667	266.661	1326.47	1353.01	-78.6333	0.0000000E+000	0.0000000E+000	0.0000000E+000	78.6333	0.0000000E+000	0.0000000E+000	0.0000000E+000	-78.6333	0.0000000E+000	0.0000000E+000	0.0000000E+000	-11.3667	0.0000000E+000	0.0000000E+000	0.0000000E+000	11.3667	4.97437	78.6333	-1.76102e-06	4.08159e-06	16793
68132	1.20983	0.267436	1.23904	-12.4649	2.30249	0.261812	0.0211519	8.7347	0.406929	1	9	0.0054364	0.00438759	0	3.52112e-07	0.788052	0.174201	0.807076	12.4649	406.929	1840.87	1885.31	-77.5351	0.0000000E+000	0.0000000E+000	0.0000000E+000	77.5351	0.0000000E+000	0.0000000E+000	0.0000000E+000	-77.5351	0.0000000E+000	0.0000000E+000	0.0000000E+000	-12.4649	0.0000000E+000	0.0000000E+000	0.0000000E+000	12.4649	4.52382	77.5351	2.11313e-06	5.53782e-06	12377.7
46420.4	1.276	0.301975	1.31125	-13.3145	2.88048	0.261819	0.0184175	11.3538	0.602161	1	9	0.00507257	0.0038685	0	-7.66467e-07	0.742133	0.175631	0.762632	13.3145	602.161	2544.45	2614.73	-76.6855	0.0000000E+000	0.0000000E+000	0.0000000E+000	76.6855	0.0000000E+000	0.0000000E+000	0.0000000E+000	-76.6855	0.0000000E+000	0.0000000E+000	0.0000000E+000	-13.3145	0.0000000E+000	0.0000000E+000	0.0000000E+000	13.3145	4.22553	76.6855	-1.11858e-06	4.82205e-06	14215.7
31621.1	1.34363	0.347025	1.38772	-14.4815	3.31748	0.261815	0.0155158	14.5038	0.906982	1	9	0.00538368	0.00387951	0	1.90581e-06	0.697711	0.180201	0.720606	14.4815	906.982	3511.71	3626.94	-75.5185	0.0000000E+000	0.0000000E+000	0.0000000E+000	75.5185	0.0000000E+000	0.0000000E+000	0.0000000E+000	-75.5185	0.0000000E+000	0.0000000E+000	0.0000000E+000	-14.4815	0.0000000E+000	0.0000000E+000	0.0000000E+000	14.4815	3.87186	75.5185	2.67228e-06	4.06226e-06	16874.2
21544.7	1.42624	0.393294	1.47947	-15.4165	3.75448	0.261822	0.0157576	18.7829	1.32734	1	9	0.00540977	0.00365655	0	2.25233e-06	0.651597	0.179682	0.675917	15.4165	1327.34	4813.48	4993.13	-74.5835	0.0000000E+000	0.0000000E+000	0.0000000E+000	74.5835	0.0000000E+000	0.0000000E+000	0.0000000E+000	-74.5835	0.0000000E+000	0.0000000E+000	0.0000000E+000	-15.4165	0.0000000E+000	0.0000000E+000	0.0000000E+000	15.4165	3.6264	74.5835	3.46522e-07	4.12568e-06	16615.6
14678.6	1.51318	0.446426	1.57766	-16.4373	4.1915	0.261816	0.0101028	24.2877	1.94472	1	9	0.00526561	0.00333761	0	6.02084e-06	0.607944	0.179358	0.63385	16.4373	1944.72	6591.73	6872.61	-73.5627	0.0000000E+000	0.0000000E+000	0.0000000E+000	73.5627	0.0000000E+000	0.0000000E+000	0.0000000E+000	-73.5627	0.0000000E+000	0.0000000E+000	0.0000000E+000	-16.4373	0.0000000E+000	0.0000000E+000	0.0000000E+000	16.4373	3.38955	73.5627	3.76851e-06	2.64508e-06	25915.1
10002.2	1.61761	0.507464	1.69534	-17.4172	4.62849	0.261807	0.0138044	31.3558	2.8094	1	9	0.00508269	0.00299803	0	5.84858e-06	0.562807	0.176559	0.589851	17.4172	2809.4	8955.35	9385.68	-72.5827	0.0000000E+000	0.0000000E+000	0.0000000E+000	72.5827	0.0000000E+000	0.0000000E+000	0.0000000E+000	-72.5827	0.0000000E+000	0.0000000E+000	0.0000000E+000	-17.4172	0.0000000E+000	0.0000000E+000	0.0000000E+000	17.4172	3.18764	72.5827	-1.72261e-07	3.61409e-06	18965.4
6811.07	1.73235	0.58618	1.82884	-18.6944	5.00649	0.261744	-0.0193427	39.8634	4.0953	1	9	0.00529927	0.00289762	0	4.51525e-06	0.517948	0.175259	0.546796	18.6944	4095.3	12102.9	12777	-71.3056	0.0000000E+000	0.0000000E+000	0.0000000E+000	71.3056	0.0000000E+000	0.0000000E+000	0.0000000E+000	-71.3056	0.0000000E+000	0.0000000E+000	0.0000000E+000	-18.6944	0.0000000E+000	0.0000000E+000	0.0000000E+000	18.6944	2.95532	71.3056	-1.33332e-06	-5.06285e-06	13531.9
4641.49	1.86055	0.671587	1.97805	-19.8476	5.47771	0.261795	0.0280529	51.0576	5.88559	1	9	0.00529441	0.00267658	0	8.5431e-06	0.475518	0.171643	0.505548	19.8476	5885.59	16305.3	17335.1	-70.1524	0.0000000E+000	0.0000000E+000	0.0000000E+000	70.1524	0.0000000E+000	0.0000000E+000	0.0000000E+000	-70.1524	0.0000000E+000	0.0000000E+000	0.0000000E+000	-19.8476	0.0000000E+000	0.0000000E+000	0.0000000E+000	19.8476	2.77038	70.1524	4.02784e-06	7.34412e-06	9332.2
3161.01	2.00183	0.772033	2.14555	-21.0898	5.94467	0.261797	0.0273646	65.2166	8.44411	1	9	0.00522804	0.00243669	0	1.32817e-05	0.434862	0.16771	0.466082	21.0898	8444.11	21895	23466.9	-68.9102	0.0000000E+000	0.0000000E+000	0.0000000E+000	68.9102	0.0000000E+000	0.0000000E+000	0.0000000E+000	-68.9102	0.0000000E+000	0.0000000E+000	0.0000000E+000	-21.0898	0.0000000E+000	0.0000000E+000	0.0000000E+000	21.0898	2.59294	68.9102	4.73864e-06	7.16397e-06	9566.96
2155.69	2.15193	0.90759	2.33549	-22.8679	6.41171	0.261787	0.0280529	81.3475	12.2847	1	9	0.00516897	0.00221322	0	1.50089e-05	0.394522	0.166392	0.428175	22.8679	12284.7	29127.6	31612.2	-67.1321	0.0000000E+000	0.0000000E+000	0.0000000E+000	67.1321	0.0000000E+000	0.0000000E+000	0.0000000E+000	-67.1321	0.0000000E+000	0.0000000E+000	0.0000000E+000	-22.8679	0.0000000E+000	0.0000000E+000	0.0000000E+000	22.8679	2.37104	67.1321	1.72716e-06	7.34388e-06	9331.91
1468.59	2.32362	1.08575	2.56477	-25.0451	6.87896	0.261796	0.0286109	99.8139	17.8876	1	9	0.00511935	0.00199603	0	1.93949e-05	0.353238	0.165056	0.389899	25.0451	17887.6	38281.4	42254.3	-64.9549	0.0000000E+000	0.0000000E+000	0.0000000E+000	64.9549	0.0000000E+000	0.0000000E+000	0.0000000E+000	-64.9549	0.0000000E+000	0.0000000E+000	0.0000000E+000	-25.0451	0.0000000E+000	0.0000000E+000	0.0000000E+000	25.0451	2.14011	64.9549	4.38601e-06	7.49023e-06	9150.23
1000.32	2.52028	1.31303	2.84181	-27.5189	7.3477	0.261795	0.0303408	121.173	25.8682	1	9	0.00508368	0.00178889	0	2.2769e-05	0.312075	0.162587	0.351888	27.5189	25868.2	49652.4	55986.9	-62.4811	0.0000000E+000	0.0000000E+000	0.0000000E+000	62.4811	0.0000000E+000	0.0000000E+000	0.0000000E+000	-62.4811	0.0000000E+000	0.0000000E+000	0.0000000E+000	-27.5189	0.0000000E+000	0.0000000E+000	0.0000000E+000	27.5189	1.91944	62.4811	3.3741e-06	7.94306e-06	8628.47
681.09	2.7512	1.63058	3.19811	-30.6544	8.06743	0.261804	-0.0117269	143.309	37.2539	1	10	0.00513794	0.00160656	0	2.36017e-05	0.26899	0.159425	0.312685	30.6544	37253.9	62856.7	73067.2	-59.3456	0.0000000E+000	0.0000000E+000	0.0000000E+000	59.3456	0.0000000E+000	0.0000000E+000	0.0000000E+000	-59.3456	0.0000000E+000	0.0000000E+000	0.0000000E+000	-30.6544	0.0000000E+000	0.0000000E+000	0.0000000E+000	30.6544	1.68725	59.3456	8.32657e-07	-3.07015e-06	22325
463.961	3.05018	2.05502	3.67787	-33.9697	8.53619	0.261811	-0.0114926	166.925	52.1151	1	10	0.00509244	0.00138462	0	2.15507e-05	0.225493	0.151923	0.271897	33.9697	52115.1	77352.1	93270.2	-56.0303	0.0000000E+000	0.0000000E+000	0.0000000E+000	56.0303	0.0000000E+000	0.0000000E+000	0.0000000E+000	-56.0303	0.0000000E+000	0.0000000E+000	0.0000000E+000	-33.9697	0.0000000E+000	0.0000000E+000	0.0000000E+000	33.9697	1.48426	56.0303	-2.05094e-06	-3.00888e-06	22780.9
316.316	3.45058	2.6064	4.32433	-37.0656	9.0029	0.261806	-0.0117158	193.045	70.1297	1	10	0.00505444	0.00116884	0	1.96557e-05	0.184525	0.139381	0.23125	37.0656	70129.7	92844	116354	-52.9344	0.0000000E+000	0.0000000E+000	0.0000000E+000	52.9344	0.0000000E+000	0.0000000E+000	0.0000000E+000	-52.9344	0.0000000E+000	0.0000000E+000	0.0000000E+000	-37.0656	0.0000000E+000	0.0000000E+000	0.0000000E+000	37.0656	1.32389	52.9344	-1.89505e-06	-3.06725e-06	22346.4
215.345	4.0246	3.31537	5.21431	-39.4809	9.47044	0.261811	-0.0117641	222.923	90.1205	1	10	0.00503557	0.000965721	0	1.8615e-05	0.148023	0.121938	0.19178	39.4809	90120.5	109399	141739	-50.5191	0.0000000E+000	0.0000000E+000	0.0000000E+000	50.5191	0.0000000E+000	0.0000000E+000	0.0000000E+000	-50.5191	0.0000000E+000	0.0000000E+000	0.0000000E+000	-39.4809	0.0000000E+000	0.0000000E+000	0.0000000E+000	39.4809	1.21392	50.5191	-1.04067e-06	-3.07998e-06	22255
146.737	4.83155	4.14332	6.36482	-40.6149	9.93338	0.261806	-0.0128931	261.777	110.932	1	10	0.00501512	0.000787942	0	1.73101e-05	0.119265	0.102276	0.157114	40.6149	110932	129358	170409	-49.3851	0.0000000E+000	0.0000000E+000	0.0000000E+000	49.3851	0.0000000E+000	0.0000000E+000	0.0000000E+000	-49.3851	0.0000000E+000	0.0000000E+000	0.0000000E+000	-40.6149	0.0000000E+000	0.0000000E+000	0.0000000E+000	40.6149	1.16611	49.3851	-1.3049e-06	-3.37551e-06	20305.9
100.032	5.97549	5.04102	7.81782	-40.1515	10.4017	0.261817	-0.0113921	315.619	131.228	1	10	0.00501114	0.00064099	0	1.61517e-05	0.0977692	0.0824796	0.127913	40.1515	131228	155555	203515	-49.8485	0.0000000E+000	0.0000000E+000	0.0000000E+000	49.8485	0.0000000E+000	0.0000000E+000	0.0000000E+000	-49.8485	0.0000000E+000	0.0000000E+000	0.0000000E+000	-40.1515	0.0000000E+000	0.0000000E+000	0.0000000E+000	40.1515	1.18537	49.8485	-1.1584e-06	-2.98266e-06	22982.3
68.104	7.49892	5.89872	9.5409	-38.1889	10.8803	0.261817	-0.00996182	396.177	151.435	1	10	0.00500154	0.000524221	0	1.51037e-05	0.0823797	0.0648007	0.104812	38.1889	151435	192516	244939	-51.8111	0.0000000E+000	0.0000000E+000	0.0000000E+000	51.8111	0.0000000E+000	0.0000000E+000	0.0000000E+000	-51.8111	0.0000000E+000	0.0000000E+000	0.0000000E+000	-38.1889	0.0000000E+000	0.0000000E+000	0.0000000E+000	38.1889	1.27128	51.8111	-1.048e-06	-2.60817e-06	26282
46.4415	9.40339	6.54792	11.4586	-34.8509	11.3356	0.261812	-0.0134046	523.372	170.905	1	10	0.00500098	0.00043644	0	1.39359e-05	0.0716181	0.0498703	0.0872709	34.8509	170905	245435	299077	-55.1491	0.0000000E+000	0.0000000E+000	0.0000000E+000	55.1491	0.0000000E+000	0.0000000E+000	0.0000000E+000	-55.1491	0.0000000E+000	0.0000000E+000	0.0000000E+000	-34.8509	0.0000000E+000	0.0000000E+000	0.0000000E+000	34.8509	1.43609	55.1491	-1.1678e-06	-3.5095e-06	19531.5
31.6296	11.5658	6.75409	13.3935	-30.2837	11.7825	0.26181	-0.0153186	745.007	189.456	1	10	0.0049939	0.000372861	0	1.20789e-05	0.0644746	0.0376514	0.0746633	30.2837	189456	324426	375694	-59.7163	0.0000000E+000	0.0000000E+000	0.0000000E+000	59.7163	0.0000000E+000	0.0000000E+000	0.0000000E+000	-59.7163	0.0000000E+000	0.0000000E+000	0.0000000E+000	-30.2837	0.0000000E+000	0.0000000E+000	0.0000000E+000	30.2837	1.71241	59.7163	-1.85705e-06	-4.01055e-06	17091
21.5517	13.7205	6.47263	15.1706	-25.2556	12.2213	0.261802	-0.0173515	1140.92	207.689	1	10	0.0049958	0.000329308	0	1.12827e-05	0.0596162	0.0281239	0.065917	25.2556	207689	440253	486783	-64.7444	0.0000000E+000	0.0000000E+000	0.0000000E+000	64.7444	0.0000000E+000	0.0000000E+000	0.0000000E+000	-64.7444	0.0000000E+000	0.0000000E+000	0.0000000E+000	-25.2556	0.0000000E+000	0.0000000E+000	0.0000000E+000	25.2556	2.11977	64.7444	-7.96109e-07	-4.54266e-06	15088.1
14.6852	15.6173	5.78498	16.6543	-20.3257	12.958	0.261826	-0.00574488	1873.44	226.043	1	11	0.00499893	0.000300158	0	8.78731e-06	0.0563058	0.0208568	0.0600445	20.3257	226043	610231	650751	-69.6743	0.0000000E+000	0.0000000E+000	0.0000000E+000	69.6743	0.0000000E+000	0.0000000E+000	0.0000000E+000	-69.6743	0.0000000E+000	0.0000000E+000	0.0000000E+000	-20.3257	0.0000000E+000	0.0000000E+000	0.0000000E+000	20.3257	2.69963	69.6743	-2.49543e-06	-1.50416e-06	45575.5
10.0032	17.0239	4.89596	17.7139	-16.0449	13.4267	0.261841	-0.00555355	3249.7	248.251	1	11	0.00499187	0.000281805	0	6.01087e-06	0.0542537	0.0156031	0.0564528	16.0449	248251	863199	898187	-73.9551	0.0000000E+000	0.0000000E+000	0.0000000E+000	73.9551	0.0000000E+000	0.0000000E+000	0.0000000E+000	-73.9551	0.0000000E+000	0.0000000E+000	0.0000000E+000	-16.0449	0.0000000E+000	0.0000000E+000	0.0000000E+000	16.0449	3.47712	73.9551	-2.77643e-06	-1.45415e-06	47148.3
6.81719	18.0483	4.03227	18.4933	-12.5939	13.7844	0.261822	-0.00718488	5789.83	275.256	1	11	0.00499434	0.000270062	0	8.56603e-06	0.0527727	0.0117902	0.0540737	12.5939	275256	1.23204e+06	1.26241e+06	-77.4061	0.0000000E+000	0.0000000E+000	0.0000000E+000	77.4061	0.0000000E+000	0.0000000E+000	0.0000000E+000	-77.4061	0.0000000E+000	0.0000000E+000	0.0000000E+000	-12.5939	0.0000000E+000	0.0000000E+000	0.0000000E+000	12.5939	4.47597	77.4061	2.55515e-06	-1.88116e-06	36440.7
4.63925	18.7857	3.3486	19.0819	-10.107	14.2873	0.261839	-0.00492857	10244.9	315.496	1	11	0.0049945	0.000261741	0	4.39918e-06	0.0515925	0.00919649	0.0524058	10.107	315496	1.76994e+06	1.79784e+06	-79.893	0.0000000E+000	0.0000000E+000	0.0000000E+000	79.893	0.0000000E+000	0.0000000E+000	0.0000000E+000	-79.893	0.0000000E+000	0.0000000E+000	0.0000000E+000	-10.107	0.0000000E+000	0.0000000E+000	0.0000000E+000	10.107	5.61002	79.893	-4.16684e-06	-1.29049e-06	53126.8
3.1604	19.3494	2.798	19.5506	-8.22817	14.9962	0.261835	-0.00510203	17998.3	368.642	1	11	0.00499846	0.000255668	0	2.70385e-06	0.0506227	0.00732026	0.0511493	8.22817	368642	2.54932e+06	2.57584e+06	-81.7718	0.0000000E+000	0.0000000E+000	0.0000000E+000	81.7718	0.0000000E+000	0.0000000E+000	0.0000000E+000	-81.7718	0.0000000E+000	0.0000000E+000	0.0000000E+000	-8.22817	0.0000000E+000	0.0000000E+000	0.0000000E+000	8.22817	6.91543	81.7718	-1.69534e-06	-1.33589e-06	51319.7
2.15577	19.7847	2.47749	19.9392	-7.13757	16.0128	0.26184	-0.00370991	29799.4	460.06	1	11	0.00500058	0.000250791	0	6.59002e-06	0.0497639	0.00623155	0.0501525	7.13757	460060	3.67394e+06	3.70263e+06	-82.8624	0.0000000E+000	0.0000000E+000	0.0000000E+000	82.8624	0.0000000E+000	0.0000000E+000	0.0000000E+000	-82.8624	0.0000000E+000	0.0000000E+000	0.0000000E+000	-7.13757	0.0000000E+000	0.0000000E+000	0.0000000E+000	7.13757	7.98579	82.8624	3.88618e-06	-9.71403e-07	70578.5
1.46631	20.225	2.25889	20.3508	-6.37281	17.486	0.26184	-0.00275532	48050.7	592.005	1	11	0.00500356	0.000245866	0	1.02177e-05	0.0488345	0.0054542	0.0491381	6.37281	592006	5.30055e+06	5.33351e+06	-83.6272	0.0000000E+000	0.0000000E+000	0.0000000E+000	83.6272	0.0000000E+000	0.0000000E+000	0.0000000E+000	-83.6272	0.0000000E+000	0.0000000E+000	0.0000000E+000	-6.37281	0.0000000E+000	0.0000000E+000	0.0000000E+000	6.37281	8.95355	83.6272	3.6277e-06	-7.21453e-07	95030.7
1.00006	20.6314	2.16341	20.7445	-5.98615	20.6762	0.261852	-0.00154506	73562.1	800.062	1	12	0.00500012	0.000241033	0	6.47865e-06	0.0479426	0.00502726	0.0482055	5.98615	800062	7.62982e+06	7.67165e+06	-84.0138	0.0000000E+000	0.0000000E+000	0.0000000E+000	84.0138	0.0000000E+000	0.0000000E+000	0.0000000E+000	-84.0138	0.0000000E+000	0.0000000E+000	0.0000000E+000	-5.98615	0.0000000E+000	0.0000000E+000	0.0000000E+000	5.98615	9.53653	84.0138	-3.73908e-06	-4.04578e-07	169476
0.681362	21.0579	2.13218	21.1656	-5.78165	23.7962	0.261844	-0.00106406	109552	1111.74	1	12	0.00499919	0.000236194	0	-5.05212e-06	0.0470061	0.0047595	0.0472465	5.78165	1.11174e+06	1.09799e+07	1.1036e+07	-84.2183	0.0000000E+000	0.0000000E+000	0.0000000E+000	84.2183	0.0000000E+000	0.0000000E+000	0.0000000E+000	-84.2183	0.0000000E+000	0.0000000E+000	0.0000000E+000	-5.78165	0.0000000E+000	0.0000000E+000	0.0000000E+000	5.78165	9.87627	84.2183	-1.15308e-05	-2.78617e-07	246081
0.464091	21.5386	2.11915	21.6426	-5.61915	28.361	0.261849	-0.000612978	161829	1551.53	1	12	0.00499905	0.000230982	0	-2.00224e-05	0.0459832	0.0045242	0.0462052	5.61915	1.55153e+06	1.57694e+07	1.58456e+07	-84.3809	0.0000000E+000	0.0000000E+000	0.0000000E+000	84.3809	0.0000000E+000	0.0000000E+000	0.0000000E+000	-84.3809	0.0000000E+000	0.0000000E+000	0.0000000E+000	-5.61915	0.0000000E+000	0.0000000E+000	0.0000000E+000	5.61915	10.1638	84.3809	-1.49702e-05	-1.60508e-07	427175
0.316193	22.0334	2.17551	22.1405	-5.63895	35.0433	0.261853	-0.000654216	231370	2233.85	1	12	0.00500224	0.000225932	0	-2.82957e-05	0.0449475	0.00443799	0.0451661	5.63895	2.23385e+06	2.26242e+07	2.27342e+07	-84.3611	0.0000000E+000	0.0000000E+000	0.0000000E+000	84.3611	0.0000000E+000	0.0000000E+000	0.0000000E+000	-84.3611	0.0000000E+000	0.0000000E+000	0.0000000E+000	-5.63895	0.0000000E+000	0.0000000E+000	0.0000000E+000	5.63895	10.1279	84.3611	-8.27331e-06	-1.71308e-07	400254
0.215268	22.4829	2.26639	22.5968	-5.75626	44.841	0.261847	-0.00116043	326217	3281.56	1	12	0.00499654	0.000221117	0	-2.05013e-05	0.0440308	0.00443853	0.044254	5.75626	3.28156e+06	3.25535e+07	3.27185e+07	-84.2437	0.0000000E+000	0.0000000E+000	0.0000000E+000	84.2437	0.0000000E+000	0.0000000E+000	0.0000000E+000	-84.2437	0.0000000E+000	0.0000000E+000	0.0000000E+000	-5.75626	0.0000000E+000	0.0000000E+000	0.0000000E+000	5.75626	9.92013	84.2437	7.79432e-06	-3.03854e-07	225647
0.146929	22.8838	2.38276	23.0075	-5.94447	59.1777	0.261859	-0.000777458	454604	4875.9	1	12	0.00499613	0.000217153	0	1.29299e-05	0.0432304	0.00450134	0.0434642	5.94447	4.8759e+06	4.68277e+07	4.70809e+07	-84.0555	0.0000000E+000	0.0000000E+000	0.0000000E+000	84.0555	0.0000000E+000	0.0000000E+000	0.0000000E+000	-84.0555	0.0000000E+000	0.0000000E+000	0.0000000E+000	-5.94447	0.0000000E+000	0.0000000E+000	0.0000000E+000	5.94447	9.6039	84.0555	3.34313e-05	-2.03585e-07	336815
0.0999041	23.2972	2.55808	23.4372	-6.26608	80.2466	0.261852	-0.000670348	622764	7418.88	1	12	0.00500397	0.000213506	0	6.85045e-05	0.0424123	0.00465695	0.0426672	6.26608	7.41888e+06	6.75661e+07	6.79722e+07	-83.7339	0.0000000E+000	0.0000000E+000	0.0000000E+000	83.7339	0.0000000E+000	0.0000000E+000	0.0000000E+000	-83.7339	0.0000000E+000	0.0000000E+000	0.0000000E+000	-6.26608	0.0000000E+000	0.0000000E+000	0.0000000E+000	6.26608	9.10731	83.7339	5.55746e-05	-1.75532e-07	390622
0.0680626	23.7289	2.89607	23.9049	-6.95843	111.16	0.261844	-0.000649527	807427	11850.7	1	12	0.00499578	0.000208985	0	0.000128007	0.0415242	0.00506796	0.0418323	6.95843	1.18507e+07	9.70986e+07	9.78191e+07	-83.0416	0.0000000E+000	0.0000000E+000	0.0000000E+000	83.0416	0.0000000E+000	0.0000000E+000	0.0000000E+000	-83.0416	0.0000000E+000	0.0000000E+000	0.0000000E+000	-6.95843	0.0000000E+000	0.0000000E+000	0.0000000E+000	6.95843	8.19348	83.0416	5.95028e-05	-1.70075e-07	403131
0.0464052	24.191	3.51881	24.4456	-8.27618	156.483	0.26184	-0.000145243	974669	20195.2	1	12	0.00499819	0.000204462	0	0.000150189	0.0404812	0.00588838	0.0409072	8.27618	2.01952e+07	1.38837e+08	1.40299e+08	-81.7238	0.0000000E+000	0.0000000E+000	0.0000000E+000	81.7238	0.0000000E+000	0.0000000E+000	0.0000000E+000	-81.7238	0.0000000E+000	0.0000000E+000	0.0000000E+000	-8.27618	0.0000000E+000	0.0000000E+000	0.0000000E+000	8.27618	6.87476	81.7238	2.2182e-05	-3.80303e-08	1.80278e+06
0.0315922	24.6077	4.47078	25.0105	-10.2973	223.044	0.261839	-0.00078315	1.12683e+06	36006.3	1	12	0.00500245	0.000200014	0	5.78765e-05	0.0393392	0.00714724	0.0399832	10.2973	3.60063e+07	1.98183e+08	2.01427e+08	-79.7027	0.0000000E+000	0.0000000E+000	0.0000000E+000	79.7027	0.0000000E+000	0.0000000E+000	0.0000000E+000	-79.7027	0.0000000E+000	0.0000000E+000	0.0000000E+000	-10.2973	0.0000000E+000	0.0000000E+000	0.0000000E+000	10.2973	5.50411	79.7027	-9.23128e-05	-2.05059e-07	334340
0.0215268	25.0866	5.6832	25.7223	-12.7645	320.713	0.261841	-0.00209036	1.30091e+06	63506	1	12	0.00500091	0.00019442	0	-0.000225959	0.037916	0.00858962	0.0388768	12.7645	6.3506e+07	2.80326e+08	2.8743e+08	-77.2355	0.0000000E+000	0.0000000E+000	0.0000000E+000	77.2355	0.0000000E+000	0.0000000E+000	0.0000000E+000	-77.2355	0.0000000E+000	0.0000000E+000	0.0000000E+000	-12.7645	0.0000000E+000	0.0000000E+000	0.0000000E+000	12.7645	4.41417	77.2355	-0.000283836	-5.47343e-07	125261
0.0146812	25.8923	7.29202	26.8995	-15.7288	463.909	0.261838	-0.00379286	1.48666e+06	109249	1	12	0.00500164	0.000185938	0	-0.000718187	0.0357834	0.0100776	0.0371754	15.7288	1.09249e+08	3.87919e+08	4.03009e+08	-74.2712	0.0000000E+000	0.0000000E+000	0.0000000E+000	74.2712	0.0000000E+000	0.0000000E+000	0.0000000E+000	-74.2712	0.0000000E+000	0.0000000E+000	0.0000000E+000	-15.7288	0.0000000E+000	0.0000000E+000	0.0000000E+000	15.7288	3.55077	74.2712	-0.000492227	-9.93114e-07	69034.3
0.0100092	27.0198	9.68815	28.7042	-19.7257	673.931	0.261837	-0.00502805	1.64128e+06	186970	1	12	0.00500126	0.000174235	0	-0.00128503	0.0327938	0.0117585	0.0348381	19.7257	1.8697e+08	5.21451e+08	5.53958e+08	-70.2743	0.0000000E+000	0.0000000E+000	0.0000000E+000	70.2743	0.0000000E+000	0.0000000E+000	0.0000000E+000	-70.2743	0.0000000E+000	0.0000000E+000	0.0000000E+000	-19.7257	0.0000000E+000	0.0000000E+000	0.0000000E+000	19.7257	2.78896	70.2743	-0.000566838	-1.31653e-06	52075.3