File: txt/17499_R280_UC81_SOC50_C07.mpt
EC-Lab ASCII FILE
Nb header lines : 64

Potentio Electrochemical Impedance Spectroscopy

Run on channel : 7 (SN 66126)
User :
CE vs. WE compliance from -10 V to 10 V
Electrode connection : standard
Potential control : Ewe
Ewe ctrl range : min = -10.00 V, max = 10.00 V
Safety Limits :
	Do not start on E overload
Acquisition started on : 09/15/2025 12:23:28.095
Loaded Setting File :  C:\Users\Celltest\OneDrive - store-dot.com\Documents\EC-Lab\Data\John\17498_R280-G002, UC81 half-cell.mps
Saved on :
	File : 17499_R280-G002, UC81 half-cell_C06_C07.mpr
	Directory : C:\Users\Celltest\OneDrive - store-dot.com\Documents\EC-Lab\Data\John\
	Host : 169.254.61.224
Device : VMP-3e (SN .003165)
Address : USB
EC-LAB for windows v11.62 (software)
Internet server v27.00 (firmware)
Command interpretor v12.03 (firmware)
Electrode material :
Initial state :
Electrolyte :
Comments :
Electrode surface area : 0.001 cm²
Characteristic mass : 0.001 g
Equivalent Weight : 0.000 g/eq.
Density : 0.000 g/cm3
Volume (V) : 0.001 cm³
Record Ece
Cycle Definition : Charge/Discharge alternance
Mode                Multi sine
E (V)               0.0000
vs.                 Eoc
tE (h:m:s)          0:00:0.0000
record              0
dI                  0.000
unit dI             mA
dt (s)              0.000
fi                  1.000
unit fi             MHz
ff                  0.100
unit ff             mHz
Nd                  10
Points              per decade
spacing             Logarithmic
Va (mV)             5.0
pw                  0.10
Na                  2
corr                0
E range min (V)     -10.000
E range max (V)     10.000
I Range             Auto
Bandwidth           5
nc cycles           0
goto Ns'            0
nr cycles           0
inc. cycle          0

freq/Hz	Re(Z)/Ohm	-Im(Z)/Ohm	|Z|/Ohm	Phase(Z)/deg	time/s	<Ewe>/V	<I>/mA	Cs/µF	Cp/µF	cycle number	I Range	|Ewe|/V	|I|/A	Ns	(Q-Qo)/mA.h	<Ece>/V	|Ece|/V	Phase(Zce)/deg	|Zce|/Ohm	Re(Zce)/Ohm	-Im(Zce)/Ohm	Phase(Zwe-ce)/deg	|Zwe-ce|/Ohm	Re(Zwe-ce)/Ohm	-Im(Zwe-ce)/Ohm	Re(Y)/Ohm-1	Im(Y)/Ohm-1	|Y|/Ohm-1	Phase(Y)/deg	Re(C)/nF	Im(C)/nF	|C|/nF	Phase(C)/deg	Re(M)	Im(M)	|M|	Phase(M)/deg	Re(Permittivity)	Im(Permittivity)	|Permittivity|	Phase(Permittivity)/deg	Re(Resistivity)/Ohm.cm	Im(Resistivity)/Ohm.cm	|Resistivity|/Ohm.cm	Phase(Resistivity)/deg	Re(Conductivity)/mS/cm	Im(Conductivity)/mS/cm	|Conductivity|/mS/cm	Phase(Conductivity)/deg	Tan(Delta)	Loss Angle(Delta)/deg	dq/mA.h	Pwe/W	Pce/W	Pwe-ce/W	<Ewe-Ece>/V	Rwe/Ohm	Rce/Ohm	Rwe-ce/Ohm		Ewe-Ece/V
1.00002e+06	2.51029	2.75091	3.72412	-47.6186	2.23456	3.78083	-0.0796812	0.0578542	0.0315675	1	10	0.000223045	5.9892e-05	0	-4.11954e-05	-0.00026937	0.000197758	-62.0186	3.30192	1.54921	2.91592	-54.3836	6.97084	4.0595	5.66684	0.180999	0.198348	0.268519	47.6186	31.5675	28.8064	42.7354	-42.3814	0.0000000E+000	0.0000000E+000	0.0000000E+000	42.3814	0.0000000E+000	0.0000000E+000	0.0000000E+000	-42.3814	0.0000000E+000	0.0000000E+000	0.0000000E+000	-47.6186	0.0000000E+000	0.0000000E+000	0.0000000E+000	47.6186	0.912531	42.3814	-4.11954e-05	-0.000301261	2.14637e-08	-0.000301282	3.7811	47449.4	3.3806	47452.8
630957	0.730843	0.00365738	0.730852	-0.286725	3.40355	3.7809	-0.0108657	68.9685	0.00172715	1	9	0.000235309	0.000321965	0	-4.88965e-05	-0.000345672	0.000120213	-97.6419	0.373374	-0.0496514	0.370058	-28.75	0.776972	0.681192	0.373715	1.36825	0.00684717	1.36827	0.286725	1.72718	345.132	345.137	-89.7133	0.0000000E+000	0.0000000E+000	0.0000000E+000	89.7133	0.0000000E+000	0.0000000E+000	0.0000000E+000	-89.7133	0.0000000E+000	0.0000000E+000	0.0000000E+000	-0.286725	0.0000000E+000	0.0000000E+000	0.0000000E+000	0.286725	199.827	89.7133	-7.62658e-07	-4.1082e-05	3.75596e-09	-4.10858e-05	3.78124	347967	31.8132	347999
398103	0.989483	0.0145598	0.989591	-0.84302	4.16956	3.78109	0.0208595	27.458	0.00594386	1	9	0.000898592	0.000908044	0	-4.55114e-05	-0.000460124	4.8033e-05	174.276	0.0528972	-0.0526334	-0.00527564	-0.567781	0.936896	0.93685	0.00928416	1.01041	0.0148677	1.01052	0.84302	5.94384	403.944	403.988	-89.157	0.0000000E+000	0.0000000E+000	0.0000000E+000	89.157	0.0000000E+000	0.0000000E+000	0.0000000E+000	-89.157	0.0000000E+000	0.0000000E+000	0.0000000E+000	-0.84302	0.0000000E+000	0.0000000E+000	0.0000000E+000	0.84302	67.96	89.157	1.90497e-06	7.88714e-05	-9.59794e-09	7.8881e-05	3.78155	181265	22.0583	181287
251206	1.12724	0.144069	1.13641	-7.28329	4.93656	3.78099	0.00559273	4.39763	0.0706786	1	9	0.00275533	0.00242459	0	-4.47598e-05	-0.000536426	4.11991e-05	102.965	0.0169922	-0.00381226	-0.016559	-6.47539	1.13064	1.12343	0.12751	0.872861	0.111557	0.879961	7.28329	70.6786	553.013	557.511	-82.7167	0.0000000E+000	0.0000000E+000	0.0000000E+000	82.7167	0.0000000E+000	0.0000000E+000	0.0000000E+000	-82.7167	0.0000000E+000	0.0000000E+000	0.0000000E+000	-7.28329	0.0000000E+000	0.0000000E+000	0.0000000E+000	7.28329	7.82433	82.7167	-1.70391e-06	2.11461e-05	-3.00008e-09	2.11491e-05	3.78153	676055	95.9149	676151
158486	1.21465	0.206644	1.2321	-9.65509	5.57855	3.78099	0.0112154	4.85966	0.136697	1	9	0.00523609	0.00424972	0	-5.68191e-05	-0.000288445	5.23465e-05	84.8908	0.0123176	0.00109695	-0.0122687	-9.08366	1.23119	1.21575	0.194375	0.800125	0.136123	0.811622	9.65509	136.697	803.502	815.047	-80.3449	0.0000000E+000	0.0000000E+000	0.0000000E+000	80.3449	0.0000000E+000	0.0000000E+000	0.0000000E+000	-80.3449	0.0000000E+000	0.0000000E+000	0.0000000E+000	-9.65509	0.0000000E+000	0.0000000E+000	0.0000000E+000	9.65509	5.87798	80.3449	-1.06897e-05	4.24055e-05	-3.23504e-09	4.24087e-05	3.78128	337124	25.7186	337149
100004	1.28869	0.237593	1.31041	-10.4462	6.34456	3.78103	0.0232054	6.6984	0.220203	1	9	0.00534376	0.00407793	0	-5.38295e-05	-0.000173993	3.9802e-05	88.1191	0.00976034	0.000320351	-0.00975508	-10.0237	1.30899	1.28901	0.227838	0.750472	0.138363	0.76312	10.4462	220.203	1194.37	1214.5	-79.5538	0.0000000E+000	0.0000000E+000	0.0000000E+000	79.5538	0.0000000E+000	0.0000000E+000	0.0000000E+000	-79.5538	0.0000000E+000	0.0000000E+000	0.0000000E+000	-10.4462	0.0000000E+000	0.0000000E+000	0.0000000E+000	10.4462	5.42395	79.5538	-8.12605e-06	8.77404e-05	-4.03758e-09	8.77444e-05	3.7812	162937	7.49793	162945
63093.8	1.35552	0.278928	1.38392	-11.6276	7.11052	3.78104	0.0218649	9.04361	0.36737	1	9	0.0053376	0.00385687	0	-3.46934e-05	-0.000460124	2.10926e-05	78.7647	0.00546883	0.00106554	-0.00536402	-11.4011	1.38389	1.35658	0.273563	0.707757	0.145636	0.722586	11.6276	367.37	1785.33	1822.73	-78.3724	0.0000000E+000	0.0000000E+000	0.0000000E+000	78.3724	0.0000000E+000	0.0000000E+000	0.0000000E+000	-78.3724	0.0000000E+000	0.0000000E+000	0.0000000E+000	-11.6276	0.0000000E+000	0.0000000E+000	0.0000000E+000	11.6276	4.85975	78.3724	2.83428e-06	8.2672e-05	-1.00606e-08	8.26821e-05	3.7815	172927	21.044	172948
39814.1	1.4278	0.329641	1.46536	-13.0002	7.87652	3.78105	0.0229447	12.1267	0.613669	1	9	0.00535992	0.00365774	0	-2.52842e-05	-0.000383823	1.34333e-05	26.8316	0.00367257	0.00327718	-0.00165769	-12.9084	1.46819	1.43108	0.327983	0.664934	0.153515	0.682425	13.0002	613.669	2658.04	2727.96	-76.9998	0.0000000E+000	0.0000000E+000	0.0000000E+000	76.9998	0.0000000E+000	0.0000000E+000	0.0000000E+000	-76.9998	0.0000000E+000	0.0000000E+000	0.0000000E+000	-13.0002	0.0000000E+000	0.0000000E+000	0.0000000E+000	13.0002	4.3314	76.9998	6.8679e-06	8.67552e-05	-8.80671e-09	8.6764e-05	3.78143	164789	16.7281	164806
25116.9	1.52258	0.402753	1.57495	-14.8166	8.64256	3.78105	0.0206361	15.7331	1.02887	1	9	0.0053986	0.0034278	0	-2.50275e-05	-0.000193068	5.23499e-06	-60.3991	0.00152722	0.000754378	0.0013279	-14.8562	1.57602	1.52333	0.404081	0.61383	0.162371	0.634942	14.8166	1028.87	3889.57	4023.35	-75.1834	0.0000000E+000	0.0000000E+000	0.0000000E+000	75.1834	0.0000000E+000	0.0000000E+000	0.0000000E+000	-75.1834	0.0000000E+000	0.0000000E+000	0.0000000E+000	-14.8166	0.0000000E+000	0.0000000E+000	0.0000000E+000	14.8166	3.78042	75.1834	1.20384e-06	7.80261e-05	-3.98418e-09	7.80301e-05	3.78124	183225	9.35585	183234
15847.7	1.63353	0.486207	1.70435	-16.5752	9.28452	3.78105	0.0185881	20.6554	1.68096	1	9	0.00456519	0.00267855	0	-1.95987e-05	1.67614e-05	1.02522e-05	-88.1014	0.00382751	0.000126811	0.00382541	-16.6972	1.70557	1.63366	0.490033	0.562352	0.16738	0.586733	16.5752	1680.96	5647.58	5892.44	-73.4248	0.0000000E+000	0.0000000E+000	0.0000000E+000	73.4248	0.0000000E+000	0.0000000E+000	0.0000000E+000	-73.4248	0.0000000E+000	0.0000000E+000	0.0000000E+000	-16.5752	0.0000000E+000	0.0000000E+000	0.0000000E+000	16.5752	3.35974	73.4248	-7.43065e-07	7.02826e-05	3.11562e-10	7.02823e-05	3.78103	203412	0.901724	203411
10002.2	1.76814	0.582337	1.86157	-18.2293	9.92855	3.78105	0.0259981	27.3243	2.67386	1	9	0.004554	0.00244632	0	-1.7629e-05	-0.000212144	6.07359e-05	30.0309	0.0248274	0.0214945	-0.0124253	-17.6641	1.87819	1.78964	0.569912	0.510221	0.168041	0.53718	18.2293	2673.86	8118.61	8547.59	-71.7707	0.0000000E+000	0.0000000E+000	0.0000000E+000	71.7707	0.0000000E+000	0.0000000E+000	0.0000000E+000	-71.7707	0.0000000E+000	0.0000000E+000	0.0000000E+000	-18.2293	0.0000000E+000	0.0000000E+000	0.0000000E+000	18.2293	3.03629	71.7707	7.04016e-07	9.83002e-05	-5.51533e-09	9.83057e-05	3.78126	145436	8.15997	145444
6309.38	1.93529	0.69175	2.0552	-19.6689	10.5705	3.78104	0.0153858	36.4657	4.13117	1	9	0.00477669	0.00232419	0	-1.1112e-05	-2.31406e-06	1.37682e-05	-25.8846	0.00592384	0.00532953	0.00258611	-19.6868	2.06109	1.94062	0.694336	0.45818	0.163772	0.48657	19.6689	4131.17	11557.6	12273.8	-70.3311	0.0000000E+000	0.0000000E+000	0.0000000E+000	70.3311	0.0000000E+000	0.0000000E+000	0.0000000E+000	-70.3311	0.0000000E+000	0.0000000E+000	0.0000000E+000	-19.6689	0.0000000E+000	0.0000000E+000	0.0000000E+000	19.6689	2.79767	70.3311	2.39656e-06	5.81743e-05	-3.56036e-11	5.81744e-05	3.78104	245748	0.150402	245749
3983.6	2.13577	0.816249	2.28643	-20.9159	11.1331	3.78089	-0.065342	48.9465	6.23809	1	9	0.00463724	0.00202816	0	-1.56125e-05	-0.000307521	7.07554e-06	-41.7851	0.00348865	0.00260131	0.00232463	-20.947	2.28969	2.13837	0.818574	0.408543	0.156137	0.437363	20.9159	6238.09	16322.3	17473.8	-69.0841	0.0000000E+000	0.0000000E+000	0.0000000E+000	69.0841	0.0000000E+000	0.0000000E+000	0.0000000E+000	-69.0841	0.0000000E+000	0.0000000E+000	0.0000000E+000	-20.9159	0.0000000E+000	0.0000000E+000	0.0000000E+000	20.9159	2.61656	69.0841	-5.42617e-06	-0.000247051	2.0094e-08	-0.000247071	3.7812	57863.1	4.70633	57867.8
2510.8	2.36661	0.963057	2.55506	-22.1431	11.9578	3.78096	0.0156464	65.8196	9.35098	1	9	0.00455538	0.00178289	0	-2.25305e-05	-0.000231219	1.03125e-05	-32.2588	0.00578416	0.00489135	0.00308727	-22.1658	2.56076	2.3715	0.966144	0.362514	0.147519	0.39138	22.1431	9350.97	22979.1	24808.8	-67.8569	0.0000000E+000	0.0000000E+000	0.0000000E+000	67.8569	0.0000000E+000	0.0000000E+000	0.0000000E+000	-67.8569	0.0000000E+000	0.0000000E+000	0.0000000E+000	-22.1431	0.0000000E+000	0.0000000E+000	0.0000000E+000	22.1431	2.4574	67.8569	9.31452e-07	5.91586e-05	-3.61776e-09	5.91622e-05	3.78119	241650	14.7777	241665
1585.51	2.6292	1.14331	2.86703	-23.5018	12.8598	3.78096	0.0242852	87.7987	13.9621	1	9	0.00451699	0.0015755	0	-1.86243e-05	-0.000421973	5.33676e-06	18.9087	0.00338735	0.00320456	-0.00109771	-23.4562	2.86953	2.63241	1.14221	0.31986	0.139091	0.348793	23.5018	13962.1	32107.9	35012.2	-66.4982	0.0000000E+000	0.0000000E+000	0.0000000E+000	66.4982	0.0000000E+000	0.0000000E+000	0.0000000E+000	-66.4982	0.0000000E+000	0.0000000E+000	0.0000000E+000	-23.5018	0.0000000E+000	0.0000000E+000	0.0000000E+000	23.5018	2.29964	66.4982	3.39999e-06	9.18214e-05	-1.02477e-08	9.18317e-05	3.78138	155690	17.3757	155707
1000.32	2.96816	1.36539	3.26715	-24.703	14.0068	3.78098	-0.0574526	116.527	20.3516	1	10	0.00459931	0.00140774	0	-2.05729e-05	-0.000307521	1.0392e-05	76.9608	0.00738203	0.00166551	-0.00719169	-24.5761	3.26567	2.96983	1.3582	0.278067	0.127914	0.306077	24.703	20351.6	44241.6	48698.1	-65.297	0.0000000E+000	0.0000000E+000	0.0000000E+000	65.297	0.0000000E+000	0.0000000E+000	0.0000000E+000	-65.297	0.0000000E+000	0.0000000E+000	0.0000000E+000	-24.703	0.0000000E+000	0.0000000E+000	0.0000000E+000	24.703	2.17386	65.297	-4.39438e-06	-0.000217227	1.76679e-08	-0.000217245	3.78129	65810.5	5.3526	65815.8
631.01	3.37175	1.6432	3.75083	-25.982	14.9076	3.78102	-0.0538787	153.495	29.459	1	10	0.00455236	0.00121369	0	-3.55556e-05	-0.000288445	7.38239e-06	23.6164	0.00608258	0.00557316	-0.00243675	-25.9113	3.75478	3.37732	1.64076	0.239662	0.116798	0.266607	25.982	29459	60448.2	67244.4	-64.018	0.0000000E+000	0.0000000E+000	0.0000000E+000	64.018	0.0000000E+000	0.0000000E+000	0.0000000E+000	-64.018	0.0000000E+000	0.0000000E+000	0.0000000E+000	-25.982	0.0000000E+000	0.0000000E+000	0.0000000E+000	25.982	2.05194	64.018	-8.13521e-06	-0.000203717	1.55411e-08	-0.000203732	3.78131	70176.5	5.35361	70181.9
398.089	3.91312	1.95619	4.37483	-26.5607	15.8088	3.78098	-0.0564325	204.376	40.8628	1	10	0.00452206	0.00103365	0	-4.9625e-05	-0.000231219	1.89323e-05	101.799	0.0183159	-0.00374522	-0.0179289	-26.3721	4.36349	3.90937	1.93826	0.204456	0.102209	0.22858	26.5607	40862.8	81741	91385.8	-63.4393	0.0000000E+000	0.0000000E+000	0.0000000E+000	63.4393	0.0000000E+000	0.0000000E+000	0.0000000E+000	-63.4393	0.0000000E+000	0.0000000E+000	0.0000000E+000	-26.5607	0.0000000E+000	0.0000000E+000	0.0000000E+000	26.5607	2.00038	63.4393	-6.21772e-06	-0.00021337	1.30483e-08	-0.000213383	3.78121	67000	4.09727	67004.1
251.044	4.64148	2.22024	5.14518	-25.564	16.707	3.78097	-0.0570207	285.542	53.1703	1	10	0.00451006	0.000876562	0	-6.32081e-05	-0.000307521	2.79057e-06	70.5494	0.00318354	0.0010601	-0.00300185	-25.5287	5.14484	4.64254	2.21724	0.17533	0.0838686	0.194357	25.564	53170.3	111154	123217	-64.436	0.0000000E+000	0.0000000E+000	0.0000000E+000	64.436	0.0000000E+000	0.0000000E+000	0.0000000E+000	-64.436	0.0000000E+000	0.0000000E+000	0.0000000E+000	-25.564	0.0000000E+000	0.0000000E+000	0.0000000E+000	25.564	2.09053	64.436	-6.23223e-06	-0.000215594	1.75351e-08	-0.000215611	3.78128	66308.7	5.39314	66314.1
158.428	5.48396	2.3383	5.96166	-23.0929	17.8278	3.78097	-0.057017	429.622	66.0926	1	10	0.00487087	0.000817032	0	-7.80827e-05	-0.000383823	1.25851e-05	6.0568	0.0154034	0.0153174	-0.00162528	-23.021	5.97512	5.49927	2.33668	0.154298	0.0657909	0.167738	23.0929	66092.6	155005	168508	-66.9071	0.0000000E+000	0.0000000E+000	0.0000000E+000	66.9071	0.0000000E+000	0.0000000E+000	0.0000000E+000	-66.9071	0.0000000E+000	0.0000000E+000	0.0000000E+000	-23.0929	0.0000000E+000	0.0000000E+000	0.0000000E+000	23.0929	2.34527	66.9071	-8.47864e-06	-0.00021558	2.18844e-08	-0.000215602	3.78136	66313.1	6.73172	66319.8
100.032	6.36373	2.24756	6.74897	-19.4523	18.7278	3.78097	-0.0580519	707.898	78.5085	1	10	0.00487205	0.000721896	0	-9.16541e-05	-2.13895e-05	7.41936e-06	-82.334	0.0102776	0.00137101	0.0101857	-19.5299	6.75366	6.3651	2.25774	0.139713	0.0493442	0.148171	19.4523	78508.5	222289	235746	-70.5477	0.0000000E+000	0.0000000E+000	0.0000000E+000	70.5477	0.0000000E+000	0.0000000E+000	0.0000000E+000	-70.5477	0.0000000E+000	0.0000000E+000	0.0000000E+000	-19.4523	0.0000000E+000	0.0000000E+000	0.0000000E+000	19.4523	2.8314	70.5477	-6.19012e-06	-0.000219493	1.2417e-09	-0.000219494	3.781	65130.9	0.368454	65131.3
63.0823	7.10774	1.96266	7.37374	-15.4364	19.645	3.78099	-0.0537373	1285.49	91.0714	1	10	0.00485684	0.000658667	0	-0.000105085	-0.000364747	7.57799e-06	-75.2951	0.011505	0.00292045	0.0111282	-15.5137	7.37952	7.11066	1.97379	0.130724	0.0360969	0.135616	15.4364	91071.4	329814	342157	-74.5636	0.0000000E+000	0.0000000E+000	0.0000000E+000	74.5636	0.0000000E+000	0.0000000E+000	0.0000000E+000	-74.5636	0.0000000E+000	0.0000000E+000	0.0000000E+000	-15.4364	0.0000000E+000	0.0000000E+000	0.0000000E+000	15.4364	3.62149	74.5636	-6.73219e-06	-0.00020318	1.96005e-08	-0.000203199	3.78135	70360.6	6.7876	70367.4
39.8089	7.67784	1.61763	7.8464	-11.8976	20.5468	3.78097	-0.0560007	2471.5	105.046	1	10	0.00485965	0.000619348	0	-0.000120189	-0.000193068	5.99498e-06	-104.021	0.00967951	-0.00234516	0.00939112	-11.9682	7.84605	7.6755	1.62702	0.124709	0.0262748	0.127447	11.8976	105046	498584	509530	-78.1024	0.0000000E+000	0.0000000E+000	0.0000000E+000	78.1024	0.0000000E+000	0.0000000E+000	0.0000000E+000	-78.1024	0.0000000E+000	0.0000000E+000	0.0000000E+000	-11.8976	0.0000000E+000	0.0000000E+000	0.0000000E+000	11.8976	4.74635	78.1024	-7.42271e-06	-0.000211737	1.0812e-08	-0.000211748	3.78116	67516.4	3.4476	67519.9
25.1044	8.08754	1.25031	8.18362	-8.78817	21.426	3.78097	-0.0573558	5070.52	118.357	1	10	0.00485707	0.000593511	0	-0.000134401	5.49122e-05	6.37825e-06	-64.6472	0.0107466	0.00460161	0.00971161	-8.85039	8.18966	8.09215	1.26002	0.120761	0.0186692	0.122195	8.78817	118358	765589	774683	-81.2118	0.0000000E+000	0.0000000E+000	0.0000000E+000	81.2118	0.0000000E+000	0.0000000E+000	0.0000000E+000	-81.2118	0.0000000E+000	0.0000000E+000	0.0000000E+000	-8.78817	0.0000000E+000	0.0000000E+000	0.0000000E+000	8.78817	6.46844	81.2118	-6.53976e-06	-0.00021686	-3.14953e-09	-0.000216857	3.78091	65921.3	0.957396	65920.4
15.8576	8.35408	0.959036	8.40895	-6.5488	22.304	3.78096	-0.0600027	10465.2	136.124	1	10	0.00486579	0.000578645	0	-0.000151359	-0.000193068	1.23524e-05	-63.7213	0.0213471	0.00945117	0.0191409	-6.67086	8.42054	8.36353	0.978177	0.118145	0.0135629	0.118921	6.5488	136124	1.18577e+06	1.19355e+06	-83.4512	0.0000000E+000	0.0000000E+000	0.0000000E+000	83.4512	0.0000000E+000	0.0000000E+000	0.0000000E+000	-83.4512	0.0000000E+000	0.0000000E+000	0.0000000E+000	-6.5488	0.0000000E+000	0.0000000E+000	0.0000000E+000	6.5488	8.71092	83.4512	-9.13762e-06	-0.000226867	1.15846e-08	-0.000226879	3.78115	63013.1	3.21766	63016.4
10.0032	8.48534	0.713444	8.51529	-4.8061	23.2848	3.78096	-0.0570989	22300.8	156.546	1	10	0.0048488	0.000569423	0	-0.00016209	-0.000288445	3.83253e-06	133.938	0.00673055	-0.00467022	-0.00484658	-4.77622	8.51023	8.48067	0.708597	0.117023	0.00983924	0.117436	4.8061	156546	1.86188e+06	1.86845e+06	-85.1939	0.0000000E+000	0.0000000E+000	0.0000000E+000	85.1939	0.0000000E+000	0.0000000E+000	0.0000000E+000	-85.1939	0.0000000E+000	0.0000000E+000	0.0000000E+000	-4.8061	0.0000000E+000	0.0000000E+000	0.0000000E+000	4.8061	11.8935	85.1939	-5.79259e-06	-0.000215889	1.64699e-08	-0.000215905	3.78125	66217.7	5.05168	66222.8
6.31058	8.6222	0.540222	8.6391	-3.58517	24.2093	3.78097	-0.058629	46685.1	182.552	1	10	0.00485834	0.000562366	0	-0.000178937	-0.000383823	6.79159e-06	-1.22021	0.0120768	0.0120741	0.000257177	-3.58187	8.65117	8.63427	0.54048	0.115526	0.00723828	0.115753	3.58517	182552	2.91361e+06	2.91932e+06	-86.4148	0.0000000E+000	0.0000000E+000	0.0000000E+000	86.4148	0.0000000E+000	0.0000000E+000	0.0000000E+000	-86.4148	0.0000000E+000	0.0000000E+000	0.0000000E+000	-3.58517	0.0000000E+000	0.0000000E+000	0.0000000E+000	3.58517	15.9605	86.4148	-8.62804e-06	-0.000221675	2.25031e-08	-0.000221697	3.78136	64489.8	6.54664	64496.4
3.97785	8.71062	0.456907	8.72259	-3.00264	25.5133	3.78101	-0.0419393	87567.6	240.275	1	11	0.00485677	0.000556803	0	-0.000190527	-0.000307521	6.25831e-06	-37.4739	0.0112397	0.00892019	0.00683824	-3.04439	8.73186	8.71954	0.463746	0.114487	0.00600533	0.114645	3.00264	240275	4.58067e+06	4.58697e+06	-86.9974	0.0000000E+000	0.0000000E+000	0.0000000E+000	86.9974	0.0000000E+000	0.0000000E+000	0.0000000E+000	-86.9974	0.0000000E+000	0.0000000E+000	0.0000000E+000	-3.00264	0.0000000E+000	0.0000000E+000	0.0000000E+000	3.00264	19.0643	86.9974	-1.06083e-05	-0.000158573	1.28972e-08	-0.000158586	3.78131	90154.2	7.33252	90161.6
2.51367	8.7929	0.418258	8.80285	-2.72337	27.0729	3.78101	-0.0412458	151380	341.75	1	11	0.00485771	0.000551834	0	-0.000212316	-0.000421973	6.11558e-06	24.1147	0.0110823	0.0101151	-0.00452783	-2.69084	8.81274	8.80302	0.41373	0.113471	0.00539756	0.1136	2.72337	341750	7.18451e+06	7.19263e+06	-87.2766	0.0000000E+000	0.0000000E+000	0.0000000E+000	87.2766	0.0000000E+000	0.0000000E+000	0.0000000E+000	-87.2766	0.0000000E+000	0.0000000E+000	0.0000000E+000	-2.72337	0.0000000E+000	0.0000000E+000	0.0000000E+000	2.72337	21.0227	87.2766	-7.52169e-06	-0.000155951	1.74046e-08	-0.000155968	3.78143	91670	10.2307	91680.3
1.58469	8.87724	0.41873	8.88711	-2.70058	29.5085	3.78102	-0.0395817	239852	532.463	1	11	0.00485929	0.000546779	0	-0.000220334	-5.95403e-05	3.76206e-06	-101.655	0.00688041	-0.00138994	0.00673855	-2.7444	8.88604	8.87585	0.425468	0.112398	0.00530167	0.112523	2.70058	532463	1.12884e+07	1.1301e+07	-87.2994	0.0000000E+000	0.0000000E+000	0.0000000E+000	87.2994	0.0000000E+000	0.0000000E+000	0.0000000E+000	-87.2994	0.0000000E+000	0.0000000E+000	0.0000000E+000	-2.70058	0.0000000E+000	0.0000000E+000	0.0000000E+000	2.70058	21.2004	87.2994	-5.99977e-06	-0.000149659	2.35671e-09	-0.000149661	3.78108	95524.3	1.50424	95525.8
1.00469	8.99358	0.441521	9.00441	-2.81056	240.328	3.78097	-0.0322826	358786	862.635	1	11	0.00505806	0.000561731	0	-0.00445438	0.000150289	3.92455e-07	3.03698	0.000698652	0.000697671	-3.70149e-05	-2.8101	9.0051	8.99428	0.441483	0.110923	0.00544554	0.111057	2.81056	862634	1.75715e+07	1.75926e+07	-87.1894	0.0000000E+000	0.0000000E+000	0.0000000E+000	87.1894	0.0000000E+000	0.0000000E+000	0.0000000E+000	-87.1894	0.0000000E+000	0.0000000E+000	0.0000000E+000	-2.81056	0.0000000E+000	0.0000000E+000	0.0000000E+000	2.81056	20.3696	87.1894	-0.0042142	-0.000122059	-4.85173e-09	-0.000122055	3.78081	117121	4.65543	117116
0.632957	9.10297	0.485015	9.11589	-3.04989	240.328	3.78097	-0.0322826	518431	1467.58	1	11	0.00507259	0.000556456	0	-0.00445438	0.000150289	7.10698e-07	-0.266387	0.00127719	0.00127717	5.93804e-06	-3.0495	9.11716	9.10425	0.485021	0.109543	0.00583657	0.109699	3.04989	1.46758e+06	2.75443e+07	2.75833e+07	-86.9501	0.0000000E+000	0.0000000E+000	0.0000000E+000	86.9501	0.0000000E+000	0.0000000E+000	0.0000000E+000	-86.9501	0.0000000E+000	0.0000000E+000	0.0000000E+000	-3.04989	0.0000000E+000	0.0000000E+000	0.0000000E+000	3.04989	18.7684	86.9501	0.000000000000000E+000	-0.000122059	-4.85173e-09	-0.000122055	3.78081	117121	4.65543	117116
0.401878	9.1838	0.571482	9.20156	-3.56076	240.328	3.78097	-0.0322826	692986	2673.04	1	11	0.00508604	0.000552736	0	-0.00445438	0.000150289	5.4076e-07	16.4382	0.000978332	0.000938344	-0.000276849	-3.55868	9.20248	9.18474	0.571205	0.108467	0.00674962	0.108677	3.56076	2.67304e+06	4.29562e+07	4.30393e+07	-86.4392	0.0000000E+000	0.0000000E+000	0.0000000E+000	86.4392	0.0000000E+000	0.0000000E+000	0.0000000E+000	-86.4392	0.0000000E+000	0.0000000E+000	0.0000000E+000	-3.56076	0.0000000E+000	0.0000000E+000	0.0000000E+000	3.56076	16.0702	86.4392	0.000000000000000E+000	-0.000122059	-4.85173e-09	-0.000122055	3.78081	117121	4.65543	117116
0.251173	9.33784	0.673238	9.36208	-4.12377	240.328	3.78097	-0.0322826	941190	4867.11	1	11	0.00508859	0.000543532	0	-0.00445438	0.000150289	6.51375e-07	-7.42902	0.00119841	0.00118835	0.000154952	-4.12419	9.36327	9.33903	0.673393	0.106537	0.00768112	0.106814	4.12377	4.86711e+06	6.75069e+07	6.76822e+07	-85.8762	0.0000000E+000	0.0000000E+000	0.0000000E+000	85.8762	0.0000000E+000	0.0000000E+000	0.0000000E+000	-85.8762	0.0000000E+000	0.0000000E+000	0.0000000E+000	-4.12377	0.0000000E+000	0.0000000E+000	0.0000000E+000	4.12377	13.87	85.8762	0.000000000000000E+000	-0.000122059	-4.85173e-09	-0.000122055	3.78081	117121	4.65543	117116
0.160751	9.48636	0.797221	9.5198	-4.80377	240.328	3.78097	-0.0322826	1.2419e+06	8709.42	1	11	0.00507833	0.00053345	0	-0.00445438	0.000150289	7.67981e-07	-0.384806	0.00143965	0.00143962	9.66881e-06	-4.8031	9.52124	9.4878	0.79723	0.104675	0.00879676	0.105044	4.80377	8.70942e+06	1.03636e+08	1.04001e+08	-85.1962	0.0000000E+000	0.0000000E+000	0.0000000E+000	85.1962	0.0000000E+000	0.0000000E+000	0.0000000E+000	-85.1962	0.0000000E+000	0.0000000E+000	0.0000000E+000	-4.80377	0.0000000E+000	0.0000000E+000	0.0000000E+000	4.80377	11.8993	85.1962	0.000000000000000E+000	-0.000122059	-4.85173e-09	-0.000122055	3.78081	117121	4.65543	117116
0.100469	9.61232	1.14978	9.68084	-6.82106	240.329	3.78097	-0.0322826	1.37775e+06	19434.6	1	11	0.00508181	0.000524934	0	-0.00445438	0.000150289	6.66951e-07	-9.45029	0.00127054	0.0012533	0.000208613	-6.8214	9.68211	9.61357	1.14999	0.102566	0.0122685	0.103297	6.82106	1.94346e+07	1.62476e+08	1.63634e+08	-83.1789	0.0000000E+000	0.0000000E+000	0.0000000E+000	83.1789	0.0000000E+000	0.0000000E+000	0.0000000E+000	-83.1789	0.0000000E+000	0.0000000E+000	0.0000000E+000	-6.82106	0.0000000E+000	0.0000000E+000	0.0000000E+000	6.82106	8.36012	83.1789	0.000000000000000E+000	-0.000122059	-4.85173e-09	-0.000122055	3.78081	117121	4.65543	117116
0.0602816	9.88211	1.46157	9.9896	-8.41308	240.329	3.78097	-0.0322826	1.80641e+06	38668.5	1	11	0.00507779	0.000508307	0	-0.00445438	0.000150289	7.41751e-07	1.60287	0.00145926	0.00145868	-4.08179e-05	-8.41162	9.99104	9.88357	1.46153	0.0990268	0.0146461	0.100104	8.41308	3.86685e+07	2.6145e+08	2.64294e+08	-81.5869	0.0000000E+000	0.0000000E+000	0.0000000E+000	81.5869	0.0000000E+000	0.0000000E+000	0.0000000E+000	-81.5869	0.0000000E+000	0.0000000E+000	0.0000000E+000	-8.41308	0.0000000E+000	0.0000000E+000	0.0000000E+000	8.41308	6.76131	81.5869	0.000000000000000E+000	-0.000122059	-4.85173e-09	-0.000122055	3.78081	117121	4.65543	117116
0.0401878	10.3552	1.85498	10.5201	-10.1559	240.329	3.78097	-0.0322826	2.13494e+06	66378.6	1	11	0.00507817	0.000482712	0	-0.00445438	0.000150289	5.89891e-07	-29.933	0.00122204	0.00105903	0.000609781	-10.1582	10.5212	10.3563	1.85559	0.0935669	0.0167611	0.0950563	10.1559	6.63786e+07	3.70551e+08	3.7645e+08	-79.8441	0.0000000E+000	0.0000000E+000	0.0000000E+000	79.8441	0.0000000E+000	0.0000000E+000	0.0000000E+000	-79.8441	0.0000000E+000	0.0000000E+000	0.0000000E+000	-10.1559	0.0000000E+000	0.0000000E+000	0.0000000E+000	10.1559	5.58239	79.8441	0.000000000000000E+000	-0.000122059	-4.85173e-09	-0.000122055	3.78081	117121	4.65543	117116
0.0200939	11.2914	3.02839	11.6904	-15.0137	240.329	3.78097	-0.0322826	2.61544e+06	175513	1	11	0.00507779	0.000434355	0	-0.00445438	0.000150289	8.22016e-07	144.647	0.0018925	-0.00154354	-0.00109501	-15.0104	11.6886	11.2898	3.0273	0.0826201	0.0221591	0.0855401	15.0137	1.75513e+08	6.54399e+08	6.77527e+08	-74.9863	0.0000000E+000	0.0000000E+000	0.0000000E+000	74.9863	0.0000000E+000	0.0000000E+000	0.0000000E+000	-74.9863	0.0000000E+000	0.0000000E+000	0.0000000E+000	-15.0137	0.0000000E+000	0.0000000E+000	0.0000000E+000	15.0137	3.7285	74.9863	0.000000000000000E+000	-0.000122059	-4.85173e-09	-0.000122055	3.78081	117121	4.65543	117116
0.00796479	13.7607	3.95616	14.3181	-16.0397	20329.3	3.78095	0.0011862	5.05094e+06	385608	1	11	0.00507205	0.000354239	0	-0.016117	-0.000154917	3.81243e-07	-53.1662	0.00107623	0.000645196	0.000861391	-16.0423	14.319	13.7614	3.95702	0.0671226	0.0192975	0.0698415	16.0397	3.85608e+08	1.34127e+09	1.3956e+09	-73.9603	0.0000000E+000	0.0000000E+000	0.0000000E+000	73.9603	0.0000000E+000	0.0000000E+000	0.0000000E+000	-73.9603	0.0000000E+000	0.0000000E+000	0.0000000E+000	-16.0397	0.0000000E+000	0.0000000E+000	0.0000000E+000	16.0397	3.47831	73.9603	-0.0116626	4.48496e-06	-1.83763e-10	4.48515e-06	3.78111	3.18746e+06	130.6	3.18759e+06
0.00497799	15.363	4.27813	15.9475	-15.5609	20329.3	3.78095	0.0011862	7.47329e+06	537816	1	11	0.0050783	0.000318438	0	-0.016117	-0.000154917	4.76843e-07	-0.0159844	0.00149744	0.00149744	4.17756e-07	-15.5595	15.949	15.3645	4.27813	0.0604072	0.0168216	0.0627057	15.5609	5.37816e+08	1.93132e+09	2.00481e+09	-74.4391	0.0000000E+000	0.0000000E+000	0.0000000E+000	74.4391	0.0000000E+000	0.0000000E+000	0.0000000E+000	-74.4391	0.0000000E+000	0.0000000E+000	0.0000000E+000	-15.5609	0.0000000E+000	0.0000000E+000	0.0000000E+000	15.5609	3.59105	74.4391	0.000000000000000E+000	4.48496e-06	-1.83763e-10	4.48515e-06	3.78111	3.18746e+06	130.6	3.18759e+06
0.00318591	16.3735	5.1798	17.1732	-17.5549	20329.3	3.78095	0.0011862	9.64436e+06	877393	1	11	0.0050818	0.000295914	0	-0.016117	-0.000154917	4.15207e-07	-76.0593	0.00140314	0.000338041	0.00136181	-17.5589	17.174	16.3738	5.18116	0.0555182	0.0175634	0.0582301	17.5549	8.77393e+08	2.77346e+09	2.90893e+09	-72.4451	0.0000000E+000	0.0000000E+000	0.0000000E+000	72.4451	0.0000000E+000	0.0000000E+000	0.0000000E+000	-72.4451	0.0000000E+000	0.0000000E+000	0.0000000E+000	-17.5549	0.0000000E+000	0.0000000E+000	0.0000000E+000	17.5549	3.16102	72.4451	0.000000000000000E+000	4.48496e-06	-1.83763e-10	4.48515e-06	3.78111	3.18746e+06	130.6	3.18759e+06
0.0019912	17.7241	5.599	18.5874	-17.5312	20329.3	3.78095	0.0011862	1.42756e+07	1.29532e+06	1	11	0.00508179	0.000273399	0	-0.016117	-0.000154917	8.16564e-07	13.173	0.00298671	0.00290812	-0.000680647	-17.5265	18.59	17.727	5.59832	0.0513009	0.0162058	0.0537998	17.5312	1.29532e+09	4.10045e+09	4.30018e+09	-72.4688	0.0000000E+000	0.0000000E+000	0.0000000E+000	72.4688	0.0000000E+000	0.0000000E+000	0.0000000E+000	-72.4688	0.0000000E+000	0.0000000E+000	0.0000000E+000	-17.5312	0.0000000E+000	0.0000000E+000	0.0000000E+000	17.5312	3.16559	72.4688	0.000000000000000E+000	4.48496e-06	-1.83763e-10	4.48515e-06	3.78111	3.18746e+06	130.6	3.18759e+06
0.00129428	18.246	6.0567	19.225	-18.3634	20329.3	3.78095	0.0011862	2.03028e+07	2.0151e+06	1	11	0.00508354	0.000264424	0	-0.016117	-0.000154917	1.28257e-06	-1.48414	0.00485044	0.00484881	0.000125628	-18.3592	19.2296	18.2509	6.05683	0.0493669	0.0163872	0.0520156	18.3634	2.0151e+09	6.07055e+09	6.39627e+09	-71.6366	0.0000000E+000	0.0000000E+000	0.0000000E+000	71.6366	0.0000000E+000	0.0000000E+000	0.0000000E+000	-71.6366	0.0000000E+000	0.0000000E+000	0.0000000E+000	-18.3634	0.0000000E+000	0.0000000E+000	0.0000000E+000	18.3634	3.01253	71.6366	0.000000000000000E+000	4.48496e-06	-1.83763e-10	4.48515e-06	3.78111	3.18746e+06	130.6	3.18759e+06
0.000796479	20.3081	7.34615	21.5959	-19.8869	20329.3	3.78095	0.0011862	2.72011e+07	3.14748e+06	1	11	0.00508336	0.000235386	0	-0.016117	-0.000154917	1.92672e-06	-84.9548	0.0081854	0.000719843	0.00815368	-19.9066	21.5994	20.3088	7.35431	0.0435437	0.0157513	0.0463051	19.8869	3.14748e+09	8.70105e+09	9.25283e+09	-70.1131	0.0000000E+000	0.0000000E+000	0.0000000E+000	70.1131	0.0000000E+000	0.0000000E+000	0.0000000E+000	-70.1131	0.0000000E+000	0.0000000E+000	0.0000000E+000	-19.8869	0.0000000E+000	0.0000000E+000	0.0000000E+000	19.8869	2.76445	70.1131	0.000000000000000E+000	4.48496e-06	-1.83763e-10	4.48515e-06	3.78111	3.18746e+06	130.6	3.18759e+06
0.000497799	20.5726	8.85517	22.3975	-23.2887	20329.3	3.78095	0.0011862	3.61051e+07	5.64371e+06	1	11	0.00508065	0.00022684	0	-0.016117	-0.000154917	2.04049e-06	-49.8453	0.00899528	0.00580064	0.00687514	-23.299	22.4055	20.5784	8.86205	0.0410102	0.0176522	0.0446479	23.2887	5.64371e+09	1.31117e+10	1.42747e+10	-66.7113	0.0000000E+000	0.0000000E+000	0.0000000E+000	66.7113	0.0000000E+000	0.0000000E+000	0.0000000E+000	-66.7113	0.0000000E+000	0.0000000E+000	0.0000000E+000	-23.2887	0.0000000E+000	0.0000000E+000	0.0000000E+000	23.2887	2.32323	66.7113	0.000000000000000E+000	4.48496e-06	-1.83763e-10	4.48515e-06	3.78111	3.18746e+06	130.6	3.18759e+06
0.000298679	20.916	12.3759	24.3031	-30.6125	20329.3	3.78095	0.0011862	4.30565e+07	1.11652e+07	1	11	0.00508263	0.000209135	0	-0.016117	-0.000154917	2.23104e-06	70.9402	0.010668	0.00348367	-0.0100831	-30.5879	24.301	20.9195	12.3658	0.0354123	0.0209533	0.041147	30.6125	1.11652e+10	1.88699e+10	2.19257e+10	-59.3875	0.0000000E+000	0.0000000E+000	0.0000000E+000	59.3875	0.0000000E+000	0.0000000E+000	0.0000000E+000	-59.3875	0.0000000E+000	0.0000000E+000	0.0000000E+000	-30.6125	0.0000000E+000	0.0000000E+000	0.0000000E+000	30.6125	1.69006	59.3875	0.000000000000000E+000	4.48496e-06	-1.83763e-10	4.48515e-06	3.78111	3.18746e+06	130.6	3.18759e+06
9.95598e-05	24.8242	36.1223	43.8299	-55.5021	20329.3	3.78095	0.0011862	4.42549e+07	3.00587e+07	1	11	0.00507965	0.000115895	0	-0.016117	-0.000154917	4.97416e-06	-80.2572	0.0429197	0.00726312	0.0423007	-55.5256	43.8689	24.8315	36.1646	0.0129221	0.0188033	0.0228155	55.5021	3.00587e+10	2.06571e+10	3.64725e+10	-34.4979	0.0000000E+000	0.0000000E+000	0.0000000E+000	34.4979	0.0000000E+000	0.0000000E+000	0.0000000E+000	-34.4979	0.0000000E+000	0.0000000E+000	0.0000000E+000	-55.5021	0.0000000E+000	0.0000000E+000	0.0000000E+000	55.5021	0.687227	34.4979	0.000000000000000E+000	4.48496e-06	-1.83763e-10	4.48515e-06	3.78111	3.18746e+06	130.6	3.18759e+06