File: txt/17492_R280_UC81_SOC50_C01.mpt
EC-Lab ASCII FILE
Nb header lines : 64

Potentio Electrochemical Impedance Spectroscopy

Run on channel : 1 (SN 66354)
User :
CE vs. WE compliance from -10 V to 10 V
Electrode connection : standard
Potential control : Ewe
Ewe ctrl range : min = -10.00 V, max = 10.00 V
Safety Limits :
	Do not start on E overload
Acquisition started on : 09/15/2025 12:21:46.045
Loaded Setting File :  C:\Users\Celltest\OneDrive - store-dot.com\Documents\EC-Lab\Data\Michael\R278\UC78_17221_EIS_50SOC.mps
Saved on :
	File : 17492_R280-G001, UC81 half-cell_C01.mpr
	Directory : C:\Users\Celltest\OneDrive - store-dot.com\Documents\EC-Lab\Data\John\
	Host : 169.254.61.224
Device : VMP-3e (SN .003165)
Address : USB
EC-LAB for windows v11.62 (software)
Internet server v27.00 (firmware)
Command interpretor v12.03 (firmware)
Electrode material :
Initial state :
Electrolyte :
Comments :
Electrode surface area : 0.001 cm²
Characteristic mass : 0.001 g
Equivalent Weight : 0.000 g/eq.
Density : 0.000 g/cm3
Volume (V) : 0.001 cm³
Record Ece
Cycle Definition : Charge/Discharge alternance
Mode                Multi sine
E (V)               0.0000
vs.                 Eoc
tE (h:m:s)          0:00:0.0000
record              0
dI                  0.000
unit dI             mA
dt (s)              0.000
fi                  1.000
unit fi             MHz
ff                  0.100
unit ff             mHz
Nd                  10
Points              per decade
spacing             Logarithmic
Va (mV)             5.0
pw                  0.10
Na                  2
corr                0
E range min (V)     -10.000
E range max (V)     10.000
I Range             Auto
Bandwidth           5
nc cycles           0
goto Ns'            0
nr cycles           0
inc. cycle          0

freq/Hz	Re(Z)/Ohm	-Im(Z)/Ohm	|Z|/Ohm	Phase(Z)/deg	time/s	<Ewe>/V	<I>/mA	Cs/µF	Cp/µF	cycle number	I Range	|Ewe|/V	|I|/A	Ns	(Q-Qo)/mA.h	<Ece>/V	|Ece|/V	Phase(Zce)/deg	|Zce|/Ohm	Re(Zce)/Ohm	-Im(Zce)/Ohm	Phase(Zwe-ce)/deg	|Zwe-ce|/Ohm	Re(Zwe-ce)/Ohm	-Im(Zwe-ce)/Ohm	Re(Y)/Ohm-1	Im(Y)/Ohm-1	|Y|/Ohm-1	Phase(Y)/deg	Re(C)/nF	Im(C)/nF	|C|/nF	Phase(C)/deg	Re(M)	Im(M)	|M|	Phase(M)/deg	Re(Permittivity)	Im(Permittivity)	|Permittivity|	Phase(Permittivity)/deg	Re(Resistivity)/Ohm.cm	Im(Resistivity)/Ohm.cm	|Resistivity|/Ohm.cm	Phase(Resistivity)/deg	Re(Conductivity)/mS/cm	Im(Conductivity)/mS/cm	|Conductivity|/mS/cm	Phase(Conductivity)/deg	Tan(Delta)	Loss Angle(Delta)/deg	dq/mA.h	Pwe/W	Pce/W	Pwe-ce/W	<Ewe-Ece>/V	Rwe/Ohm	Rce/Ohm	Rwe-ce/Ohm		Ewe-Ece/V
1.00002e+06	1.05744	-0.196558	1.07556	10.53	2.69355	3.78442	0.0934665	-0.809696	-0.0270418	1	9	0.000216888	0.000201652	0	-3.85972e-06	-0.000315441	0.000192965	-7.93698	0.956925	0.947758	0.132136	1.84013	2.00624	2.0052	-0.064422	0.914093	-0.169912	0.929751	-10.53	-27.0418	145.48	147.972	-100.53	0.0000000E+000	0.0000000E+000	0.0000000E+000	100.53	0.0000000E+000	0.0000000E+000	0.0000000E+000	-100.53	0.0000000E+000	0.0000000E+000	0.0000000E+000	10.53	0.0000000E+000	0.0000000E+000	0.0000000E+000	-10.53	5.37982	79.47	-3.85972e-06	0.000353716	-2.94832e-08	0.000353746	3.78473	40489.6	3.37491	40493
630957	0.522262	0.0730317	0.527344	-7.96046	3.45955	3.78413	0.061316	3.4539	0.0662436	1	9	0.000180028	0.000341387	0	8.91231e-06	0.00010426	0.000124118	-113.22	0.363569	-0.143339	0.33412	-47.0567	0.556197	0.378923	0.407152	1.87802	0.262618	1.8963	7.96046	66.2437	473.72	478.329	-82.0395	0.0000000E+000	0.0000000E+000	0.0000000E+000	82.0395	0.0000000E+000	0.0000000E+000	0.0000000E+000	-82.0395	0.0000000E+000	0.0000000E+000	0.0000000E+000	-7.96046	0.0000000E+000	0.0000000E+000	0.0000000E+000	7.96046	7.15117	82.0395	5.86986e-06	0.000232028	6.39281e-09	0.000232022	3.78403	61715.2	1.70037	61713.6
398103	0.771545	-0.0234005	0.7719	1.73721	4.22551	3.7842	0.0763668	-17.0844	-0.015701	1	9	0.000768104	0.000995083	0	2.40468e-05	4.70281e-05	3.34623e-05	-10.3759	0.0336276	0.0330777	0.0060565	1.23484	0.804809	0.804623	-0.017344	1.29491	-0.0392738	1.29551	-1.73721	-15.701	517.683	517.921	-91.7372	0.0000000E+000	0.0000000E+000	0.0000000E+000	91.7372	0.0000000E+000	0.0000000E+000	0.0000000E+000	-91.7372	0.0000000E+000	0.0000000E+000	0.0000000E+000	1.73721	0.0000000E+000	0.0000000E+000	0.0000000E+000	-1.73721	32.9713	88.2628	7.32132e-06	0.000288987	3.59138e-09	0.000288984	3.78416	49553	0.615818	49552.4
251206	0.856191	0.0871597	0.860616	-5.81265	4.99453	3.78413	0.0638121	7.26899	0.0745568	1	9	0.00224982	0.0026142	0	3.72703e-05	0.000142415	6.21234e-05	114.828	0.0237639	-0.0099785	-0.0215673	-4.4323	0.848751	0.846212	0.0655924	1.15598	0.117679	1.16196	5.81265	74.5567	732.389	736.174	-84.1873	0.0000000E+000	0.0000000E+000	0.0000000E+000	84.1873	0.0000000E+000	0.0000000E+000	0.0000000E+000	-84.1873	0.0000000E+000	0.0000000E+000	0.0000000E+000	-5.81265	0.0000000E+000	0.0000000E+000	0.0000000E+000	5.81265	9.82324	84.1873	5.44194e-06	0.000241473	9.08777e-09	0.000241464	3.78399	59301.1	2.23178	59298.9
158486	0.921361	0.142385	0.932298	-8.78487	5.76051	3.78407	0.0661592	7.05285	0.164507	1	9	0.00509702	0.00546716	0	5.84124e-05	0.000218724	6.37583e-05	95.4104	0.011662	-0.00109961	-0.0116101	-8.08794	0.929507	0.920261	0.130775	1.06004	0.163816	1.07262	8.78487	164.507	1064.51	1077.14	-81.2151	0.0000000E+000	0.0000000E+000	0.0000000E+000	81.2151	0.0000000E+000	0.0000000E+000	0.0000000E+000	-81.2151	0.0000000E+000	0.0000000E+000	0.0000000E+000	-8.78487	0.0000000E+000	0.0000000E+000	0.0000000E+000	8.78487	6.47091	81.2151	1.48113e-05	0.000250351	1.44706e-08	0.000250337	3.78386	57196.5	3.30602	57193.2
100004	0.974315	0.171902	0.989363	-10.0059	6.52852	3.78407	0.0594534	9.25813	0.279494	1	9	0.00527837	0.00533511	0	7.29202e-05	4.70281e-05	4.8682e-05	89.1002	0.00912483	0.00014329	-0.00912371	-9.4834	0.98796	0.974458	0.162778	0.995377	0.175618	1.01075	10.0059	279.494	1584.13	1608.6	-79.9941	0.0000000E+000	0.0000000E+000	0.0000000E+000	79.9941	0.0000000E+000	0.0000000E+000	0.0000000E+000	-79.9941	0.0000000E+000	0.0000000E+000	0.0000000E+000	-10.0059	0.0000000E+000	0.0000000E+000	0.0000000E+000	10.0059	5.66786	79.9941	2.59685e-05	0.000224976	2.79598e-09	0.000224973	3.78402	63647.7	0.791007	63646.9
63093.8	1.02379	0.207586	1.04462	-11.462	7.29452	3.78407	0.0531947	12.1517	0.479855	1	9	0.0052686	0.00504353	0	6.90188e-05	8.87343e-06	3.60759e-05	97.8827	0.0071529	-0.00098099	-0.00708532	-11.091	1.04228	1.02281	0.2005	0.93819	0.190229	0.957282	11.462	479.855	2366.6	2414.75	-78.538	0.0000000E+000	0.0000000E+000	0.0000000E+000	78.538	0.0000000E+000	0.0000000E+000	0.0000000E+000	-78.538	0.0000000E+000	0.0000000E+000	0.0000000E+000	-11.462	0.0000000E+000	0.0000000E+000	0.0000000E+000	11.462	4.9319	78.538	-6.04637e-06	0.000201292	4.7202e-10	0.000201292	3.78406	71136.2	0.166811	71136
39814.1	1.08078	0.248674	1.10902	-12.9576	8.06255	3.78406	0.0606083	16.0751	0.808236	1	9	0.00533045	0.00480646	0	8.39985e-05	-0.000143745	2.09298e-05	19.3374	0.0043545	0.00410884	-0.00144191	-12.8378	1.1127	1.08489	0.247232	0.878739	0.202188	0.901699	12.9576	808.236	3512.72	3604.5	-77.0424	0.0000000E+000	0.0000000E+000	0.0000000E+000	77.0424	0.0000000E+000	0.0000000E+000	0.0000000E+000	-77.0424	0.0000000E+000	0.0000000E+000	0.0000000E+000	-12.9576	0.0000000E+000	0.0000000E+000	0.0000000E+000	12.9576	4.34616	77.0424	3.5879e-06	0.000229345	-8.71214e-09	0.000229354	3.7842	62434.7	2.37171	62437
25116.9	1.15165	0.304539	1.19123	-14.8121	8.82854	3.78407	0.0550201	20.8071	1.35989	1	9	0.00535527	0.00449556	0	9.50811e-05	0.000256878	1.45694e-05	11.5415	0.00324084	0.00317531	-0.000648419	-14.7431	1.19414	1.15482	0.303891	0.81157	0.21461	0.839466	14.8121	1359.89	5142.57	5319.33	-75.1879	0.0000000E+000	0.0000000E+000	0.0000000E+000	75.1879	0.0000000E+000	0.0000000E+000	0.0000000E+000	-75.1879	0.0000000E+000	0.0000000E+000	0.0000000E+000	-14.8121	0.0000000E+000	0.0000000E+000	0.0000000E+000	14.8121	3.78161	75.1879	1.31137e-06	0.0002082	1.41335e-08	0.000208186	3.78381	68776	4.66881	68771.3
15847.7	1.23621	0.366803	1.28948	-16.5264	9.47252	3.78406	0.0561377	27.3792	2.21542	1	9	0.00484511	0.00375741	0	0.000102631	0.00010426	1.20404e-05	42.6642	0.00320446	0.00235636	-0.00217166	-16.4043	1.29113	1.23857	0.364632	0.743467	0.220598	0.775504	16.5264	2215.42	7466.48	7788.23	-73.4736	0.0000000E+000	0.0000000E+000	0.0000000E+000	73.4736	0.0000000E+000	0.0000000E+000	0.0000000E+000	-73.4736	0.0000000E+000	0.0000000E+000	0.0000000E+000	-16.5264	0.0000000E+000	0.0000000E+000	0.0000000E+000	16.5264	3.37024	73.4736	5.65918e-06	0.000212429	5.85292e-09	0.000212423	3.78396	67406.8	1.85722	67404.9
10002.2	1.33355	0.444357	1.40563	-18.4288	10.1145	3.78405	0.0534554	35.809	3.5786	1	9	0.00463089	0.00329453	0	0.000113269	6.61054e-05	3.40419e-06	127.867	0.00103329	-0.000634263	-0.000815715	-18.4054	1.40477	1.33291	0.443541	0.674941	0.2249	0.711425	18.4288	3578.6	10739.6	11320.2	-71.5712	0.0000000E+000	0.0000000E+000	0.0000000E+000	71.5712	0.0000000E+000	0.0000000E+000	0.0000000E+000	-71.5712	0.0000000E+000	0.0000000E+000	0.0000000E+000	-18.4288	0.0000000E+000	0.0000000E+000	0.0000000E+000	18.4288	3.00107	71.5712	5.64177e-06	0.000202278	3.53369e-09	0.000202275	3.78399	70789	1.23664	70787.7
6309.38	1.45874	0.529971	1.55203	-19.9665	10.7566	3.78407	0.0565848	47.5972	5.54993	1	9	0.00479036	0.00308652	0	0.000119251	0.000409497	9.1336e-06	-102.996	0.00295919	-0.000665496	0.00288338	-20.0749	1.55239	1.45807	0.532854	0.605591	0.220016	0.644319	19.9665	5549.93	15276.1	16253	-70.0335	0.0000000E+000	0.0000000E+000	0.0000000E+000	70.0335	0.0000000E+000	0.0000000E+000	0.0000000E+000	-70.0335	0.0000000E+000	0.0000000E+000	0.0000000E+000	-19.9665	0.0000000E+000	0.0000000E+000	0.0000000E+000	19.9665	2.75248	70.0335	1.07834e-06	0.000214121	2.31713e-08	0.000214097	3.78366	66874.3	7.23687	66867.1
3983.6	1.6041	0.634642	1.72508	-21.5856	11.321	3.78391	-0.0698192	62.9529	8.52029	1	9	0.00462018	0.00267824	0	0.000118983	4.70281e-05	6.33636e-06	-91.4011	0.00236586	-5.78481e-05	0.00236516	-21.6593	1.7259	1.60404	0.637007	0.539029	0.21326	0.579683	21.5856	8520.29	21535.6	23159.8	-68.4144	0.0000000E+000	0.0000000E+000	0.0000000E+000	68.4144	0.0000000E+000	0.0000000E+000	0.0000000E+000	-68.4144	0.0000000E+000	0.0000000E+000	0.0000000E+000	-21.5856	0.0000000E+000	0.0000000E+000	0.0000000E+000	21.5856	2.52756	68.4144	-6.57378e-06	-0.000264189	-3.28346e-09	-0.000264186	3.78386	54195.8	0.673569	54195.1
2510.8	1.78417	0.77749	1.94622	-23.5462	12.1458	3.78389	-0.00857307	81.5291	13.0113	1	9	0.00452855	0.00232685	0	0.000105475	8.87343e-06	1.10921e-05	-47.2036	0.004767	0.00323868	0.00349789	-23.6024	1.95058	1.78741	0.780988	0.471036	0.205264	0.513818	23.5462	13011.3	29858.1	32569.9	-66.4538	0.0000000E+000	0.0000000E+000	0.0000000E+000	66.4538	0.0000000E+000	0.0000000E+000	0.0000000E+000	-66.4538	0.0000000E+000	0.0000000E+000	0.0000000E+000	-23.5462	0.0000000E+000	0.0000000E+000	0.0000000E+000	23.5462	2.29478	66.4538	-2.34938e-06	-3.24396e-05	-7.60726e-11	-3.24395e-05	3.78388	441370	1.03504	441369
1585.51	2.00272	0.947419	2.21551	-25.3172	13.0478	3.78389	-0.00559273	105.952	19.3752	1	9	0.00450125	0.0020317	0	0.00010223	0.000180569	6.54429e-06	-24.224	0.0032211	0.00293748	0.00132163	-25.3157	2.21873	2.00566	0.948741	0.408011	0.193016	0.451363	25.3172	19375.2	40956.6	45308.3	-64.6828	0.0000000E+000	0.0000000E+000	0.0000000E+000	64.6828	0.0000000E+000	0.0000000E+000	0.0000000E+000	-64.6828	0.0000000E+000	0.0000000E+000	0.0000000E+000	-25.3172	0.0000000E+000	0.0000000E+000	0.0000000E+000	25.3172	2.11387	64.6828	-1.77635e-06	-2.11623e-05	-1.00988e-09	-2.11613e-05	3.78371	676573	32.2864	676540
1000.32	2.2675	1.15913	2.54659	-27.0758	14.1638	3.78389	-0.00685939	137.262	28.4378	1	9	0.00495842	0.00194708	0	9.84367e-05	0.000199647	4.93612e-06	20.8606	0.00253514	0.00236896	-0.000902753	-27.0335	2.54829	2.26986	1.15823	0.349646	0.178737	0.392682	27.0758	28437.8	55630.1	62477.3	-62.9241	0.0000000E+000	0.0000000E+000	0.0000000E+000	62.9241	0.0000000E+000	0.0000000E+000	0.0000000E+000	-62.9241	0.0000000E+000	0.0000000E+000	0.0000000E+000	-27.0758	0.0000000E+000	0.0000000E+000	0.0000000E+000	27.0758	1.9562	62.9241	-2.42262e-06	-2.59552e-05	-1.36945e-09	-2.59538e-05	3.78369	551637	29.1056	551608
631.01	2.60843	1.4124	2.96627	-28.4345	15.0646	3.78389	-0.00626333	178.577	40.4875	1	9	0.00494823	0.00166817	0	9.85243e-05	0.000371342	1.30214e-05	-111.551	0.00780582	-0.00286734	0.00726011	-28.5841	2.96722	2.60556	1.41966	0.296454	0.160523	0.337124	28.4345	40487.5	74772.4	85030.2	-61.5655	0.0000000E+000	0.0000000E+000	0.0000000E+000	61.5655	0.0000000E+000	0.0000000E+000	0.0000000E+000	-61.5655	0.0000000E+000	0.0000000E+000	0.0000000E+000	-28.4345	0.0000000E+000	0.0000000E+000	0.0000000E+000	28.4345	1.8468	61.5655	8.04853e-07	-2.36998e-05	-2.32584e-09	-2.36974e-05	3.78352	604135	59.2883	604075
398.089	3.1277	1.67189	3.54651	-28.1264	16.2118	3.78396	-0.0489053	239.129	53.1429	1	10	0.00498071	0.0014044	0	8.49074e-05	2.79507e-05	2.10837e-05	106.501	0.0150126	-0.00426412	-0.0143943	-27.9533	3.53598	3.12344	1.65749	0.24867	0.132925	0.281967	28.1264	53142.9	99417.6	112730	-61.8736	0.0000000E+000	0.0000000E+000	0.0000000E+000	61.8736	0.0000000E+000	0.0000000E+000	0.0000000E+000	-61.8736	0.0000000E+000	0.0000000E+000	0.0000000E+000	-28.1264	0.0000000E+000	0.0000000E+000	0.0000000E+000	28.1264	1.87076	61.8736	-6.49206e-06	-0.000185056	-1.36694e-09	-0.000185054	3.78393	77373.2	0.571528	77372.6
251.044	3.7682	1.86783	4.20573	-26.3668	17.1101	3.78395	-0.0478171	339.416	66.946	1	10	0.00496108	0.0011796	0	7.44186e-05	4.70281e-05	6.57614e-06	-6.46883	0.00557489	0.00553939	0.000628082	-26.341	4.21097	3.77374	1.86846	0.213036	0.105598	0.237771	26.3668	66946	135058	150740	-63.6332	0.0000000E+000	0.0000000E+000	0.0000000E+000	63.6332	0.0000000E+000	0.0000000E+000	0.0000000E+000	-63.6332	0.0000000E+000	0.0000000E+000	0.0000000E+000	-26.3668	0.0000000E+000	0.0000000E+000	0.0000000E+000	26.3668	2.01742	63.6332	-5.41182e-06	-0.000180937	-2.24874e-09	-0.000180935	3.78391	79133.9	0.983499	79133
158.428	4.49953	1.88612	4.87885	-22.7425	18.0149	3.78396	-0.0470717	532.621	79.6013	1	10	0.00494547	0.00101365	0	6.50714e-05	-0.000143745	6.8652e-06	-47.9885	0.00677273	0.00453285	0.00503221	-22.7764	4.88498	4.50406	1.89115	0.18903	0.079238	0.204966	22.7425	79601.3	189897	205906	-67.2575	0.0000000E+000	0.0000000E+000	0.0000000E+000	67.2575	0.0000000E+000	0.0000000E+000	0.0000000E+000	-67.2575	0.0000000E+000	0.0000000E+000	0.0000000E+000	-22.7425	0.0000000E+000	0.0000000E+000	0.0000000E+000	22.7425	2.3856	67.2575	-5.06658e-06	-0.000178117	6.76632e-09	-0.000178124	3.7841	80387.1	3.05375	80390.2
100.032	5.188	1.7275	5.46805	-18.4167	18.9148	3.78395	-0.0481264	921.008	91.925	1	10	0.00494178	0.000903755	0	5.32652e-05	-0.00010559	1.44469e-05	-39.7407	0.0159854	0.0122919	0.0102197	-18.4775	5.48295	5.20029	1.73772	0.173514	0.0577767	0.18288	18.4167	91925	276068	290970	-71.5833	0.0000000E+000	0.0000000E+000	0.0000000E+000	71.5833	0.0000000E+000	0.0000000E+000	0.0000000E+000	-71.5833	0.0000000E+000	0.0000000E+000	0.0000000E+000	-18.4167	0.0000000E+000	0.0000000E+000	0.0000000E+000	18.4167	3.00319	71.5833	-5.34896e-06	-0.000182108	5.08169e-09	-0.000182113	3.78405	78625.2	2.19402	78627.4
63.0823	5.74248	1.42607	5.9169	-13.9466	19.832	3.78396	-0.0445746	1769.18	102.77	1	10	0.0049328	0.000833679	0	4.23395e-05	-0.000200977	6.1534e-06	31.0212	0.00738102	0.00632536	-0.00380385	-13.8961	5.92213	5.7488	1.42227	0.164025	0.0407336	0.169007	13.9466	102770	413831	426401	-76.0534	0.0000000E+000	0.0000000E+000	0.0000000E+000	76.0534	0.0000000E+000	0.0000000E+000	0.0000000E+000	-76.0534	0.0000000E+000	0.0000000E+000	0.0000000E+000	-13.9466	0.0000000E+000	0.0000000E+000	0.0000000E+000	13.9466	4.02678	76.0534	-5.83857e-06	-0.000168669	8.95848e-09	-0.000168678	3.78416	84890.5	4.50877	84895
39.8089	6.11553	1.10518	6.21458	-10.2437	20.7329	3.78396	-0.0468071	3617.5	114.406	1	10	0.00493204	0.000793623	0	2.91836e-05	0.000161492	8.26029e-06	-3.4269	0.0104083	0.0103897	0.000622159	-10.2324	6.22492	6.12592	1.1058	0.158347	0.0286159	0.160912	10.2437	114406	633066	643321	-79.7563	0.0000000E+000	0.0000000E+000	0.0000000E+000	79.7563	0.0000000E+000	0.0000000E+000	0.0000000E+000	-79.7563	0.0000000E+000	0.0000000E+000	0.0000000E+000	-10.2437	0.0000000E+000	0.0000000E+000	0.0000000E+000	10.2437	5.53353	79.7563	-6.29924e-06	-0.000177116	-7.55896e-09	-0.000177108	3.7838	80841.6	3.45016	80838.1
25.1044	6.35144	0.813885	6.40338	-7.30219	21.612	3.78396	-0.0480072	7789.45	125.839	1	10	0.00493394	0.000770522	0	1.7828e-05	6.61054e-05	4.97129e-06	148.926	0.00645185	-0.005526	-0.0033301	-7.27889	6.39747	6.34592	0.810555	0.154901	0.0198493	0.156168	7.30219	125839	982028	990058	-82.6978	0.0000000E+000	0.0000000E+000	0.0000000E+000	82.6978	0.0000000E+000	0.0000000E+000	0.0000000E+000	-82.6978	0.0000000E+000	0.0000000E+000	0.0000000E+000	-7.30219	0.0000000E+000	0.0000000E+000	0.0000000E+000	7.30219	7.80386	82.6978	-5.78483e-06	-0.000181657	-3.17353e-09	-0.000181654	3.78389	78820.7	1.37699	78819.3
15.8576	6.50317	0.604149	6.53117	-5.30758	22.4901	3.78396	-0.048637	16612.7	142.149	1	10	0.00494224	0.000756716	0	4.12807e-06	-1.02039e-05	1.46673e-05	12.5901	0.0193828	0.0189167	-0.00422497	-5.25547	6.54962	6.52208	0.599924	0.152455	0.0141632	0.153112	5.30758	142149	1.53012e+06	1.53671e+06	-84.6924	0.0000000E+000	0.0000000E+000	0.0000000E+000	84.6924	0.0000000E+000	0.0000000E+000	0.0000000E+000	-84.6924	0.0000000E+000	0.0000000E+000	0.0000000E+000	-5.30758	0.0000000E+000	0.0000000E+000	0.0000000E+000	5.30758	10.7642	84.6924	-7.09949e-06	-0.00018404	4.96286e-10	-0.000184041	3.78397	77800	0.209796	77800.2
10.0032	6.59326	0.447522	6.60843	-3.88304	23.4718	3.78395	-0.0468667	35552.2	163.042	1	10	0.00493649	0.000746999	0	-3.58776e-06	0.000256878	5.12128e-06	38.1585	0.0068558	0.00539075	-0.00423579	-3.84326	6.61352	6.59865	0.443286	0.150975	0.0102475	0.151322	3.88304	163042	2.40206e+06	2.40759e+06	-86.117	0.0000000E+000	0.0000000E+000	0.0000000E+000	86.117	0.0000000E+000	0.0000000E+000	0.0000000E+000	-86.117	0.0000000E+000	0.0000000E+000	0.0000000E+000	-3.88304	0.0000000E+000	0.0000000E+000	0.0000000E+000	3.88304	14.7328	86.117	-7.10109e-06	-0.000177341	-1.2039e-08	-0.000177329	3.78369	80738.6	5.48104	80733.1
6.31058	6.6444	0.36248	6.65428	-3.12264	24.3963	3.78396	-0.0425509	69577.1	206.459	1	10	0.00493273	0.000741288	0	-1.69019e-05	0.000237801	9.49541e-06	-15.6469	0.0128093	0.0123347	0.00345478	-3.14651	6.66678	6.65673	0.365935	0.150056	0.00818621	0.150279	3.12264	206459	3.78447e+06	3.79009e+06	-86.8774	0.0000000E+000	0.0000000E+000	0.0000000E+000	86.8774	0.0000000E+000	0.0000000E+000	0.0000000E+000	-86.8774	0.0000000E+000	0.0000000E+000	0.0000000E+000	-3.12264	0.0000000E+000	0.0000000E+000	0.0000000E+000	3.12264	18.3304	86.8774	-1.04391e-05	-0.000161011	-1.01187e-08	-0.000161001	3.78373	88927.9	5.58863	88922.3
3.97785	6.70996	0.311387	6.71718	-2.657	25.4033	3.78399	-0.0318583	128491	276.12	1	10	0.00493324	0.000734422	0	-1.53833e-05	0.00010426	5.27501e-06	5.19718	0.00718254	0.00715301	-0.00065062	-2.64864	6.72429	6.71711	0.310736	0.148712	0.00690123	0.148872	2.657	276120	5.95001e+06	5.95641e+06	-87.343	0.0000000E+000	0.0000000E+000	0.0000000E+000	87.343	0.0000000E+000	0.0000000E+000	0.0000000E+000	-87.343	0.0000000E+000	0.0000000E+000	0.0000000E+000	-2.657	0.0000000E+000	0.0000000E+000	0.0000000E+000	2.657	21.5486	87.343	1.39561e-06	-0.000120551	-3.32155e-09	-0.000120548	3.78388	118775	3.27261	118772
2.51367	6.78295	0.311724	6.79011	-2.63129	27.3249	3.784	-0.0280134	203115	428.083	1	11	0.00493236	0.000726404	0	-4.37197e-05	-0.000162822	3.3169e-06	12.2317	0.00456619	0.00446253	-0.000967421	-2.62141	6.79452	6.78741	0.310756	0.147118	0.00676109	0.147273	2.63129	428082	9.31486e+06	9.32469e+06	-87.3687	0.0000000E+000	0.0000000E+000	0.0000000E+000	87.3687	0.0000000E+000	0.0000000E+000	0.0000000E+000	-87.3687	0.0000000E+000	0.0000000E+000	0.0000000E+000	-2.63129	0.0000000E+000	0.0000000E+000	0.0000000E+000	2.63129	21.7595	87.3687	-1.1801e-05	-0.000106003	4.56121e-09	-0.000106007	3.78417	135078	5.8123	135084
1.58469	6.85312	0.325547	6.86085	-2.71971	29.7605	3.78399	-0.0286762	308505	694.601	1	11	0.00493359	0.000719093	0	-3.89197e-05	-1.02039e-05	4.67245e-06	13.4148	0.0064977	0.00632041	-0.00150746	-2.70464	6.86709	6.85945	0.32404	0.14559	0.00691605	0.145754	2.71971	694600	1.46221e+07	1.46386e+07	-87.2803	0.0000000E+000	0.0000000E+000	0.0000000E+000	87.2803	0.0000000E+000	0.0000000E+000	0.0000000E+000	-87.2803	0.0000000E+000	0.0000000E+000	0.0000000E+000	-2.71971	0.0000000E+000	0.0000000E+000	0.0000000E+000	2.71971	21.0511	87.2803	5.31529e-06	-0.00010851	2.92608e-10	-0.000108511	3.784	131956	0.355831	131956
1.00469	7.14447	0.353434	7.1532	-2.83209	240.579	3.78398	-0.0220795	448207	1094.19	1	11	0.0050082	0.000700134	0	-0.00412619	2.79507e-05	6.57005e-07	-5.53367	0.000938399	0.000934026	9.04905e-05	-2.83244	7.15414	7.1454	0.353524	0.139627	0.00690728	0.139798	2.83209	1.09419e+06	2.21185e+07	2.21455e+07	-87.1679	0.0000000E+000	0.0000000E+000	0.0000000E+000	87.1679	0.0000000E+000	0.0000000E+000	0.0000000E+000	-87.1679	0.0000000E+000	0.0000000E+000	0.0000000E+000	-2.83209	0.0000000E+000	0.0000000E+000	0.0000000E+000	2.83209	20.2144	87.1679	-0.0040855	-8.35484e-05	-6.17139e-10	-8.35478e-05	3.78395	171380	1.26591	171378
0.632957	7.2303	0.40346	7.24155	-3.19387	240.58	3.78398	-0.0220795	623225	1934.57	1	11	0.00502128	0.000693398	0	-0.00412619	2.79507e-05	5.39611e-07	-5.32501	0.000778212	0.000774854	7.22222e-05	-3.1941	7.24233	7.23108	0.403533	0.137877	0.00769374	0.138092	3.19387	1.93456e+06	3.46688e+07	3.47228e+07	-86.8061	0.0000000E+000	0.0000000E+000	0.0000000E+000	86.8061	0.0000000E+000	0.0000000E+000	0.0000000E+000	-86.8061	0.0000000E+000	0.0000000E+000	0.0000000E+000	-3.19387	0.0000000E+000	0.0000000E+000	0.0000000E+000	3.19387	17.9207	86.8061	0.000000000000000E+000	-8.35484e-05	-6.17139e-10	-8.35478e-05	3.78395	171380	1.26591	171378
0.401878	7.28905	0.483472	7.30507	-3.79478	240.581	3.78398	-0.0220795	819134	3587.97	1	11	0.00503456	0.000689187	0	-0.00412619	2.79507e-05	4.53347e-07	-36.5136	0.0006578	0.000528684	0.0003914	-3.79757	7.30562	7.28958	0.483863	0.136591	0.00905988	0.136891	3.79478	3.58797e+06	5.4094e+07	5.42128e+07	-86.2052	0.0000000E+000	0.0000000E+000	0.0000000E+000	86.2052	0.0000000E+000	0.0000000E+000	0.0000000E+000	-86.2052	0.0000000E+000	0.0000000E+000	0.0000000E+000	-3.79478	0.0000000E+000	0.0000000E+000	0.0000000E+000	3.79478	15.0765	86.2052	0.000000000000000E+000	-8.35484e-05	-6.17139e-10	-8.35478e-05	3.78395	171380	1.26591	171378
0.251173	7.42529	0.594044	7.44902	-4.57408	240.582	3.78398	-0.0220795	1.06666e+06	6783.71	1	11	0.00503541	0.000675983	0	-0.00412619	2.79507e-05	6.06721e-07	-34.9638	0.000897538	0.000735545	0.000514342	-4.57757	7.44979	7.42603	0.594559	0.133818	0.0107058	0.134246	4.57408	6.78371e+06	8.47934e+07	8.50643e+07	-85.4259	0.0000000E+000	0.0000000E+000	0.0000000E+000	85.4259	0.0000000E+000	0.0000000E+000	0.0000000E+000	-85.4259	0.0000000E+000	0.0000000E+000	0.0000000E+000	-4.57408	0.0000000E+000	0.0000000E+000	0.0000000E+000	4.57408	12.4996	85.4259	0.000000000000000E+000	-8.35484e-05	-6.17139e-10	-8.35478e-05	3.78395	171380	1.26591	171378
0.160751	7.55485	0.67697	7.58512	-5.12045	240.583	3.78398	-0.0220795	1.4625e+06	11649.6	1	11	0.0050303	0.00066318	0	-0.00412619	2.79507e-05	2.34014e-07	2.42405	0.000352867	0.000352551	-1.49245e-05	-5.1201	7.58547	7.5552	0.676955	0.131311	0.0117664	0.131837	5.12045	1.16496e+07	1.30007e+08	1.30528e+08	-84.8796	0.0000000E+000	0.0000000E+000	0.0000000E+000	84.8796	0.0000000E+000	0.0000000E+000	0.0000000E+000	-84.8796	0.0000000E+000	0.0000000E+000	0.0000000E+000	-5.12045	0.0000000E+000	0.0000000E+000	0.0000000E+000	5.12045	11.1598	84.8796	0.000000000000000E+000	-8.35484e-05	-6.17139e-10	-8.35478e-05	3.78395	171380	1.26591	171378
0.100469	7.67037	0.982017	7.73298	-7.29574	240.583	3.78398	-0.0220795	1.61312e+06	26014.3	1	11	0.00503266	0.000650805	0	-0.00412619	2.79507e-05	2.87336e-07	5.04431	0.000441508	0.000439798	-3.88201e-05	-7.29504	7.73341	7.67081	0.981979	0.128269	0.016422	0.129316	7.29574	2.60143e+07	2.03193e+08	2.04852e+08	-82.7043	0.0000000E+000	0.0000000E+000	0.0000000E+000	82.7043	0.0000000E+000	0.0000000E+000	0.0000000E+000	-82.7043	0.0000000E+000	0.0000000E+000	0.0000000E+000	-7.29574	0.0000000E+000	0.0000000E+000	0.0000000E+000	7.29574	7.81083	82.7043	0.000000000000000E+000	-8.35484e-05	-6.17139e-10	-8.35478e-05	3.78395	171380	1.26591	171378
0.0602816	7.89442	1.26124	7.99453	-9.07706	240.584	3.78398	-0.0220795	2.09333e+06	52101.1	1	11	0.00502814	0.000628947	0	-0.00412619	2.79507e-05	3.90288e-07	33.2928	0.000620542	0.000518697	-0.000340627	-9.07407	7.99499	7.89494	1.2609	0.123519	0.0197338	0.125085	9.07706	5.21011e+07	3.26114e+08	3.30249e+08	-80.9229	0.0000000E+000	0.0000000E+000	0.0000000E+000	80.9229	0.0000000E+000	0.0000000E+000	0.0000000E+000	-80.9229	0.0000000E+000	0.0000000E+000	0.0000000E+000	-9.07706	0.0000000E+000	0.0000000E+000	0.0000000E+000	9.07706	6.25925	80.9229	0.000000000000000E+000	-8.35484e-05	-6.17139e-10	-8.35478e-05	3.78395	171380	1.26591	171378
0.0401878	8.27991	1.55755	8.42514	-10.6535	240.585	3.78398	-0.0220795	2.54265e+06	86898.7	1	11	0.00502845	0.000596839	0	-0.00412619	2.79507e-05	4.88267e-07	-59.0115	0.000818088	0.000421206	0.000701323	-10.6576	8.42568	8.28034	1.55825	0.116647	0.0219425	0.118692	10.6535	8.68986e+07	4.61954e+08	4.70056e+08	-79.3465	0.0000000E+000	0.0000000E+000	0.0000000E+000	79.3465	0.0000000E+000	0.0000000E+000	0.0000000E+000	-79.3465	0.0000000E+000	0.0000000E+000	0.0000000E+000	-10.6535	0.0000000E+000	0.0000000E+000	0.0000000E+000	10.6535	5.316	79.3465	0.000000000000000E+000	-8.35484e-05	-6.17139e-10	-8.35478e-05	3.78395	171380	1.26591	171378
0.0200939	9.09036	2.57961	9.44929	-15.8426	240.586	3.78398	-0.0220795	3.07045e+06	228830	1	11	0.00502954	0.000532267	0	-0.00412619	2.79507e-05	1.25148e-06	-38.9776	0.00235123	0.00182783	0.00147896	-15.8482	9.45145	9.09219	2.58109	0.101808	0.0288906	0.105828	15.8426	2.2883e+08	8.06379e+08	8.38219e+08	-74.1574	0.0000000E+000	0.0000000E+000	0.0000000E+000	74.1574	0.0000000E+000	0.0000000E+000	0.0000000E+000	-74.1574	0.0000000E+000	0.0000000E+000	0.0000000E+000	-15.8426	0.0000000E+000	0.0000000E+000	0.0000000E+000	15.8426	3.52392	74.1574	0.000000000000000E+000	-8.35484e-05	-6.17139e-10	-8.35478e-05	3.78395	171380	1.26591	171378
0.00796479	11.4889	3.40076	11.9816	-16.489	20329.5	3.78399	0.00124543	5.87584e+06	473359	1	11	0.00502162	0.00041911	0	-0.0159465	0.000275956	5.86878e-07	-18.5438	0.0014003	0.00132759	0.000445335	-16.4892	11.983	11.4902	3.40121	0.0800287	0.0236889	0.0834611	16.489	4.73359e+08	1.59916e+09	1.66775e+09	-73.511	0.0000000E+000	0.0000000E+000	0.0000000E+000	73.511	0.0000000E+000	0.0000000E+000	0.0000000E+000	-73.511	0.0000000E+000	0.0000000E+000	0.0000000E+000	-16.489	0.0000000E+000	0.0000000E+000	0.0000000E+000	16.489	3.37832	73.511	-0.0118204	4.71269e-06	3.43683e-10	4.71235e-06	3.78371	3.0383e+06	221.575	3.03808e+06
0.00497799	12.8887	3.52547	13.3621	-15.298	20329.5	3.78399	0.00124543	9.06879e+06	631292	1	11	0.0050288	0.000376347	0	-0.0159465	0.000275956	4.21125e-07	-16.164	0.00111898	0.00107475	0.000311511	-15.2981	13.3633	12.8897	3.52578	0.0721865	0.0197453	0.0748383	15.298	6.31292e+08	2.30793e+09	2.39271e+09	-74.702	0.0000000E+000	0.0000000E+000	0.0000000E+000	74.702	0.0000000E+000	0.0000000E+000	0.0000000E+000	-74.702	0.0000000E+000	0.0000000E+000	0.0000000E+000	-15.298	0.0000000E+000	0.0000000E+000	0.0000000E+000	15.298	3.65588	74.702	0.000000000000000E+000	4.71269e-06	3.43683e-10	4.71235e-06	3.78371	3.0383e+06	221.575	3.03808e+06
0.00318591	13.751	4.43937	14.4498	-17.8922	20329.5	3.78399	0.00124543	1.12529e+07	1.06214e+06	1	11	0.00503178	0.000348224	0	-0.0159465	0.000275956	5.33636e-07	-32.8922	0.00153245	0.00128679	0.000832214	-17.8937	14.4513	13.7523	4.44021	0.0658579	0.0212616	0.0692049	17.8922	1.06214e+09	3.28999e+09	3.45719e+09	-72.1078	0.0000000E+000	0.0000000E+000	0.0000000E+000	72.1078	0.0000000E+000	0.0000000E+000	0.0000000E+000	-72.1078	0.0000000E+000	0.0000000E+000	0.0000000E+000	-17.8922	0.0000000E+000	0.0000000E+000	0.0000000E+000	17.8922	3.09751	72.1078	0.000000000000000E+000	4.71269e-06	3.43683e-10	4.71235e-06	3.78371	3.0383e+06	221.575	3.03808e+06
0.0019912	14.7897	4.74832	15.5332	-17.7996	20329.5	3.78399	0.00124543	1.68332e+07	1.57298e+06	1	11	0.00503514	0.000324153	0	-0.0159465	0.000275956	7.1161e-07	-23.6925	0.00219529	0.00201026	0.000882128	-17.8004	15.5354	14.7917	4.7492	0.0612965	0.0196797	0.0643782	17.7996	1.57298e+09	4.89939e+09	5.1457e+09	-72.2004	0.0000000E+000	0.0000000E+000	0.0000000E+000	72.2004	0.0000000E+000	0.0000000E+000	0.0000000E+000	-72.2004	0.0000000E+000	0.0000000E+000	0.0000000E+000	-17.7996	0.0000000E+000	0.0000000E+000	0.0000000E+000	17.7996	3.11471	72.2004	0.000000000000000E+000	4.71269e-06	3.43683e-10	4.71235e-06	3.78371	3.0383e+06	221.575	3.03808e+06
0.00129428	15.1421	5.24223	16.0239	-19.0959	20329.5	3.78399	0.00124543	2.34572e+07	2.51058e+06	1	11	0.00503586	0.000314273	0	-0.0159465	0.000275956	7.93856e-07	-19.5817	0.00252601	0.00237992	0.000846595	-19.096	16.0264	15.1445	5.24307	0.0589727	0.0204165	0.0624069	19.0959	2.51058e+09	7.25177e+09	7.67406e+09	-70.9041	0.0000000E+000	0.0000000E+000	0.0000000E+000	70.9041	0.0000000E+000	0.0000000E+000	0.0000000E+000	-70.9041	0.0000000E+000	0.0000000E+000	0.0000000E+000	-19.0959	0.0000000E+000	0.0000000E+000	0.0000000E+000	19.0959	2.88849	70.9041	0.000000000000000E+000	4.71269e-06	3.43683e-10	4.71235e-06	3.78371	3.0383e+06	221.575	3.03808e+06
0.000796479	16.8274	6.24767	17.9498	-20.3689	20329.5	3.78399	0.00124543	3.19836e+07	3.87477e+06	1	11	0.00503441	0.000280472	0	-0.0159465	0.000275956	1.00724e-06	15.3919	0.00359124	0.00346243	-0.000953187	-20.3622	17.9527	16.8309	6.24672	0.0522274	0.019391	0.055711	20.3689	3.87477e+09	1.04363e+10	1.11323e+10	-69.6311	0.0000000E+000	0.0000000E+000	0.0000000E+000	69.6311	0.0000000E+000	0.0000000E+000	0.0000000E+000	-69.6311	0.0000000E+000	0.0000000E+000	0.0000000E+000	-20.3689	0.0000000E+000	0.0000000E+000	0.0000000E+000	20.3689	2.69339	69.6311	0.000000000000000E+000	4.71269e-06	3.43683e-10	4.71235e-06	3.78371	3.0383e+06	221.575	3.03808e+06
0.000497799	16.7248	7.87778	18.4872	-25.2216	20329.5	3.78399	0.00124543	4.05847e+07	7.36931e+06	1	11	0.0050371	0.000272464	0	-0.0159465	0.000275956	5.79714e-07	-9.0935	0.00212767	0.00210093	0.00033627	-25.2198	18.4893	16.7269	7.87811	0.0489347	0.0230495	0.0540914	25.2216	7.36931e+09	1.56453e+10	1.7294e+10	-64.7784	0.0000000E+000	0.0000000E+000	0.0000000E+000	64.7784	0.0000000E+000	0.0000000E+000	0.0000000E+000	-64.7784	0.0000000E+000	0.0000000E+000	0.0000000E+000	-25.2216	0.0000000E+000	0.0000000E+000	0.0000000E+000	25.2216	2.12303	64.7784	0.000000000000000E+000	4.71269e-06	3.43683e-10	4.71235e-06	3.78371	3.0383e+06	221.575	3.03808e+06
0.000298679	16.9856	11.404	20.4588	-33.8772	20329.5	3.78399	0.00124543	4.67258e+07	1.45182e+07	1	11	0.00503767	0.000246235	0	-0.0159465	0.000275956	1.11454e-06	-22.1824	0.00452632	0.00419131	0.00170894	-33.8746	20.4632	16.9898	11.4057	0.0405808	0.0272457	0.0488787	33.8772	1.45182e+10	2.1624e+10	2.60456e+10	-56.1228	0.0000000E+000	0.0000000E+000	0.0000000E+000	56.1228	0.0000000E+000	0.0000000E+000	0.0000000E+000	-56.1228	0.0000000E+000	0.0000000E+000	0.0000000E+000	-33.8772	0.0000000E+000	0.0000000E+000	0.0000000E+000	33.8772	1.48944	56.1228	0.000000000000000E+000	4.71269e-06	3.43683e-10	4.71235e-06	3.78371	3.0383e+06	221.575	3.03808e+06
9.95598e-05	19.794	34.731	39.9756	-60.3202	20329.5	3.78399	0.00124543	4.60276e+07	3.47428e+07	1	11	0.00503697	0.000126001	0	-0.0159465	0.000275956	1.20954e-06	-5.5158	0.00959941	0.00955496	0.000922699	-60.309	39.9811	19.8035	34.7319	0.0123864	0.0217334	0.0250153	60.3202	3.47428e+10	1.98007e+10	3.99891e+10	-29.6798	0.0000000E+000	0.0000000E+000	0.0000000E+000	29.6798	0.0000000E+000	0.0000000E+000	0.0000000E+000	-29.6798	0.0000000E+000	0.0000000E+000	0.0000000E+000	-60.3202	0.0000000E+000	0.0000000E+000	0.0000000E+000	60.3202	0.569923	29.6798	0.000000000000000E+000	4.71269e-06	3.43683e-10	4.71235e-06	3.78371	3.0383e+06	221.575	3.03808e+06