File: txt/17493_R280_UC81_SOC50_C02.mpt
EC-Lab ASCII FILE
Nb header lines : 64

Potentio Electrochemical Impedance Spectroscopy

Run on channel : 2 (SN 66139)
User :
CE vs. WE compliance from -10 V to 10 V
Electrode connection : standard
Potential control : Ewe
Ewe ctrl range : min = -10.00 V, max = 10.00 V
Safety Limits :
	Do not start on E overload
Acquisition started on : 09/15/2025 12:22:00.780
Loaded Setting File :  C:\Users\Celltest\OneDrive - store-dot.com\Documents\EC-Lab\Data\John\17492_R280-G001, UC81 half-cell.mps
Saved on :
	File : 17493_R280-G001, UC81 half-cell_C02.mpr
	Directory : C:\Users\Celltest\OneDrive - store-dot.com\Documents\EC-Lab\Data\John\
	Host : 169.254.61.224
Device : VMP-3e (SN .003165)
Address : USB
EC-LAB for windows v11.62 (software)
Internet server v27.00 (firmware)
Command interpretor v12.03 (firmware)
Electrode material :
Initial state :
Electrolyte :
Comments :
Electrode surface area : 0.001 cm²
Characteristic mass : 0.001 g
Equivalent Weight : 0.000 g/eq.
Density : 0.000 g/cm3
Volume (V) : 0.001 cm³
Record Ece
Cycle Definition : Charge/Discharge alternance
Mode                Multi sine
E (V)               0.0000
vs.                 Eoc
tE (h:m:s)          0:00:0.0000
record              0
dI                  0.000
unit dI             mA
dt (s)              0.000
fi                  1.000
unit fi             MHz
ff                  0.100
unit ff             mHz
Nd                  10
Points              per decade
spacing             Logarithmic
Va (mV)             5.0
pw                  0.10
Na                  2
corr                0
E range min (V)     -10.000
E range max (V)     10.000
I Range             Auto
Bandwidth           5
nc cycles           0
goto Ns'            0
nr cycles           0
inc. cycle          0

freq/Hz	Re(Z)/Ohm	-Im(Z)/Ohm	|Z|/Ohm	Phase(Z)/deg	time/s	<Ewe>/V	<I>/mA	Cs/µF	Cp/µF	cycle number	I Range	|Ewe|/V	|I|/A	Ns	(Q-Qo)/mA.h	<Ece>/V	|Ece|/V	Phase(Zce)/deg	|Zce|/Ohm	Re(Zce)/Ohm	-Im(Zce)/Ohm	Phase(Zwe-ce)/deg	|Zwe-ce|/Ohm	Re(Zwe-ce)/Ohm	-Im(Zwe-ce)/Ohm	Re(Y)/Ohm-1	Im(Y)/Ohm-1	|Y|/Ohm-1	Phase(Y)/deg	Re(C)/nF	Im(C)/nF	|C|/nF	Phase(C)/deg	Re(M)	Im(M)	|M|	Phase(M)/deg	Re(Permittivity)	Im(Permittivity)	|Permittivity|	Phase(Permittivity)/deg	Re(Resistivity)/Ohm.cm	Im(Resistivity)/Ohm.cm	|Resistivity|/Ohm.cm	Phase(Resistivity)/deg	Re(Conductivity)/mS/cm	Im(Conductivity)/mS/cm	|Conductivity|/mS/cm	Phase(Conductivity)/deg	Tan(Delta)	Loss Angle(Delta)/deg	dq/mA.h	Pwe/W	Pce/W	Pwe-ce/W	<Ewe-Ece>/V	Rwe/Ohm	Rce/Ohm	Rwe-ce/Ohm		Ewe-Ece/V
1.00002e+06	0.961497	-0.285517	1.00299	16.5388	2.23453	3.78309	-0.0478588	-0.557417	-0.0451697	1	9	0.000207726	0.000207106	0	-4.37447e-05	0.00017889	0.000177867	-0.00576255	0.858822	0.858822	8.63763e-05	8.91156	1.84256	1.82032	-0.28543	0.955766	-0.283815	0.997015	-16.5388	-45.1697	152.112	158.677	-106.539	0.0000000E+000	0.0000000E+000	0.0000000E+000	106.539	0.0000000E+000	0.0000000E+000	0.0000000E+000	-106.539	0.0000000E+000	0.0000000E+000	0.0000000E+000	16.5388	0.0000000E+000	0.0000000E+000	0.0000000E+000	-16.5388	3.36757	73.4612	-4.37447e-05	-0.000181054	-8.56144e-09	-0.000181045	3.78291	79046.9	3.73786	79043.2
630957	0.645137	-0.000840768	0.645138	0.0746701	3.00255	3.78303	-0.0577289	-300.016	-0.000509556	1	9	0.000217874	0.000337717	0	-5.75598e-05	4.52537e-05	0.000112867	-101.888	0.334206	-0.0688452	0.327038	-29.5111	0.662206	0.576292	0.326197	1.55006	-0.00202009	1.55006	-0.0746701	-0.509548	390.992	390.992	-90.0747	0.0000000E+000	0.0000000E+000	0.0000000E+000	90.0747	0.0000000E+000	0.0000000E+000	0.0000000E+000	-90.0747	0.0000000E+000	0.0000000E+000	0.0000000E+000	0.0746701	0.0000000E+000	0.0000000E+000	0.0000000E+000	-0.0746701	767.318	89.9253	-6.50458e-06	-0.00021839	-2.61245e-09	-0.000218388	3.78298	65530.9	0.783899	65530.1
398103	0.902997	-0.0163425	0.903145	1.03683	3.76855	3.78318	-0.0356048	-24.4628	-0.0080099	1	9	0.000874087	0.000967825	0	-6.32822e-05	0.00017889	3.54926e-05	-166.675	0.0366725	-0.0356852	0.00845221	0.521229	0.867348	0.867312	-0.00789029	1.10706	-0.0200356	1.10724	-1.03683	-8.00989	442.584	442.656	-91.0368	0.0000000E+000	0.0000000E+000	0.0000000E+000	91.0368	0.0000000E+000	0.0000000E+000	0.0000000E+000	-91.0368	0.0000000E+000	0.0000000E+000	0.0000000E+000	1.03683	0.0000000E+000	0.0000000E+000	0.0000000E+000	-1.03683	55.2546	88.9632	-2.17637e-06	-0.000134699	-6.36934e-09	-0.000134693	3.783	106255	5.0243	106250
251206	1.01066	0.0925018	1.01489	-5.22947	4.53553	3.78309	-0.0410055	6.8492	0.0568989	1	9	0.00263068	0.00259209	0	-6.67891e-05	7.07199e-06	2.86121e-05	76.7753	0.0110382	0.00252523	-0.0107455	-4.61332	1.01648	1.01319	0.0817563	0.981229	0.0898077	0.98533	5.22947	56.8988	621.67	624.269	-84.7705	0.0000000E+000	0.0000000E+000	0.0000000E+000	84.7705	0.0000000E+000	0.0000000E+000	0.0000000E+000	-84.7705	0.0000000E+000	0.0000000E+000	0.0000000E+000	-5.22947	0.0000000E+000	0.0000000E+000	0.0000000E+000	5.22947	10.9259	84.7705	-3.14367e-06	-0.000155128	-2.8999e-10	-0.000155127	3.78309	92258.3	0.172465	92258.2
158486	1.07634	0.151834	1.08699	-8.0295	5.17752	3.78304	-0.0467413	6.61391	0.129046	1	9	0.00521722	0.00479968	0	-8.48065e-05	0.000369798	2.35823e-05	100.272	0.0049133	-0.000876179	-0.00483455	-7.78327	1.08546	1.07546	0.147	0.910949	0.128504	0.919968	8.0295	129.046	914.794	923.851	-81.9705	0.0000000E+000	0.0000000E+000	0.0000000E+000	81.9705	0.0000000E+000	0.0000000E+000	0.0000000E+000	-81.9705	0.0000000E+000	0.0000000E+000	0.0000000E+000	-8.0295	0.0000000E+000	0.0000000E+000	0.0000000E+000	8.0295	7.08889	81.9705	-1.20136e-05	-0.000176824	-1.72848e-08	-0.000176807	3.78267	80935.7	7.9116	80927.8
100004	1.13236	0.189816	1.14816	-9.51594	5.94356	3.783	-0.042756	8.38437	0.229156	1	9	0.00534488	0.00465517	0	-0.000102367	2.61628e-05	2.19574e-05	93.3274	0.00471679	-0.000273766	-0.00470884	-9.28624	1.14712	1.13209	0.185107	0.858973	0.143988	0.870958	9.51594	229.156	1367.05	1386.12	-80.4841	0.0000000E+000	0.0000000E+000	0.0000000E+000	80.4841	0.0000000E+000	0.0000000E+000	0.0000000E+000	-80.4841	0.0000000E+000	0.0000000E+000	0.0000000E+000	-9.51594	0.0000000E+000	0.0000000E+000	0.0000000E+000	9.51594	5.96557	80.4841	-8.33588e-06	-0.000161746	-1.11862e-09	-0.000161745	3.78298	88479	0.611911	88478.4
63093.8	1.18993	0.228198	1.21162	-10.856	6.70951	3.783	-0.0487153	11.054	0.392116	1	9	0.00533768	0.00440542	0	-0.000140189	0.00017889	1.44229e-05	67.2068	0.00327389	0.00126832	-0.00301823	-10.7047	1.2123	1.1912	0.22518	0.810572	0.155447	0.825343	10.856	392.116	2044.68	2081.94	-79.144	0.0000000E+000	0.0000000E+000	0.0000000E+000	79.144	0.0000000E+000	0.0000000E+000	0.0000000E+000	-79.144	0.0000000E+000	0.0000000E+000	0.0000000E+000	-10.856	0.0000000E+000	0.0000000E+000	0.0000000E+000	10.856	5.21447	79.144	-1.77173e-05	-0.00018429	-8.71466e-09	-0.000184281	3.78282	77655.2	3.67214	77651.5
39814.1	1.25116	0.277215	1.28151	-12.4929	7.47554	3.783	-0.0415269	14.4201	0.674775	1	9	0.00536241	0.00418446	0	-0.000158818	4.52537e-05	2.27528e-05	99.7259	0.00543744	-0.000918576	-0.00535929	-12.2675	1.27946	1.25024	0.271855	0.761856	0.168801	0.780332	12.4929	674.775	3045.49	3119.34	-77.5071	0.0000000E+000	0.0000000E+000	0.0000000E+000	77.5071	0.0000000E+000	0.0000000E+000	0.0000000E+000	-77.5071	0.0000000E+000	0.0000000E+000	0.0000000E+000	-12.4929	0.0000000E+000	0.0000000E+000	0.0000000E+000	12.4929	4.51334	77.5071	-5.97402e-06	-0.000157096	-1.87924e-09	-0.000157094	3.78295	91097.6	1.08974	91096.5
25116.9	1.33111	0.33811	1.37338	-14.2521	8.24153	3.783	-0.0422718	18.7412	1.13587	1	9	0.00535506	0.00389918	0	-0.000181444	0.00017889	7.79049e-06	45.5611	0.00199798	0.00139888	-0.00142655	-14.1801	1.37439	1.33251	0.336683	0.70572	0.179257	0.728131	14.2521	1135.87	4471.84	4613.85	-75.7479	0.0000000E+000	0.0000000E+000	0.0000000E+000	75.7479	0.0000000E+000	0.0000000E+000	0.0000000E+000	-75.7479	0.0000000E+000	0.0000000E+000	0.0000000E+000	-14.2521	0.0000000E+000	0.0000000E+000	0.0000000E+000	14.2521	3.93692	75.7479	-6.19302e-06	-0.000159914	-7.56198e-09	-0.000159907	3.78282	89492.3	4.23189	89488
15847.7	1.42801	0.413787	1.48675	-16.1597	8.88552	3.783	-0.0418249	24.2704	1.87998	1	9	0.00477985	0.00321496	0	-0.000188102	2.61628e-05	7.26493e-06	23.9331	0.00225973	0.00206543	-0.000916703	-16.1037	1.48848	1.43008	0.412871	0.646031	0.187197	0.672606	16.1597	1879.98	6487.95	6754.84	-73.8403	0.0000000E+000	0.0000000E+000	0.0000000E+000	73.8403	0.0000000E+000	0.0000000E+000	0.0000000E+000	-73.8403	0.0000000E+000	0.0000000E+000	0.0000000E+000	-16.1597	0.0000000E+000	0.0000000E+000	0.0000000E+000	16.1597	3.45108	73.8403	-1.98419e-06	-0.000158223	-1.09426e-09	-0.000158222	3.78297	90448.6	0.625533	90448
10002.2	1.54056	0.501651	1.62018	-18.0367	9.52754	3.783	-0.0411172	31.7192	3.04088	1	9	0.00467715	0.00288681	0	-0.000194005	0.000274344	7.71838e-06	-62.3295	0.00267367	0.00124162	0.00236789	-18.1027	1.62209	1.5418	0.504019	0.586884	0.191106	0.617215	18.0367	3040.88	9338.48	9821.1	-71.9633	0.0000000E+000	0.0000000E+000	0.0000000E+000	71.9633	0.0000000E+000	0.0000000E+000	0.0000000E+000	-71.9633	0.0000000E+000	0.0000000E+000	0.0000000E+000	-18.0367	0.0000000E+000	0.0000000E+000	0.0000000E+000	18.0367	3.07098	71.9633	-2.85144e-06	-0.000155546	-1.12802e-08	-0.000155535	3.78273	92005.4	6.67224	91998.7
6309.38	1.67994	0.599787	1.7838	-19.6481	10.1715	3.78299	-0.0418249	42.0568	4.75487	1	9	0.00474481	0.00265995	0	-0.000200068	6.43445e-05	1.01431e-05	0.33707	0.00381327	0.0038132	-2.24333e-05	-19.6063	1.78738	1.68375	0.599765	0.527961	0.188497	0.560601	19.6481	4754.87	13317.9	14141.2	-70.3519	0.0000000E+000	0.0000000E+000	0.0000000E+000	70.3519	0.0000000E+000	0.0000000E+000	0.0000000E+000	-70.3519	0.0000000E+000	0.0000000E+000	0.0000000E+000	-19.6481	0.0000000E+000	0.0000000E+000	0.0000000E+000	19.6481	2.80089	70.3519	-4.16991e-06	-0.000158223	-2.6912e-09	-0.00015822	3.78292	90448.2	1.53843	90446.7
3983.6	1.84965	0.721834	1.98551	-21.3185	10.7341	3.78285	-0.121457	55.3486	7.31542	1	9	0.00459868	0.00231612	0	-0.000211825	-5.02005e-05	6.37889e-06	-87.3763	0.00275412	0.000126073	0.00275124	-21.3911	1.98663	1.84977	0.724586	0.469187	0.183103	0.50365	21.3185	7315.42	18745.2	20122.1	-68.6815	0.0000000E+000	0.0000000E+000	0.0000000E+000	68.6815	0.0000000E+000	0.0000000E+000	0.0000000E+000	-68.6815	0.0000000E+000	0.0000000E+000	0.0000000E+000	-21.3185	0.0000000E+000	0.0000000E+000	0.0000000E+000	21.3185	2.56242	68.6815	-1.08661e-05	-0.000459453	6.09719e-09	-0.000459459	3.7829	31145.7	0.413321	31146.1
2510.8	2.06023	0.876097	2.23877	-23.0372	11.5588	3.78291	-0.0525517	72.3527	11.08	1	9	0.00450683	0.00201308	0	-0.000235808	-5.02005e-05	6.40432e-06	-65.657	0.00318135	0.00131134	0.00289851	-23.0923	2.24111	2.06154	0.878996	0.411052	0.174796	0.446673	23.0372	11080	26055.8	28313.8	-66.9628	0.0000000E+000	0.0000000E+000	0.0000000E+000	66.9628	0.0000000E+000	0.0000000E+000	0.0000000E+000	-66.9628	0.0000000E+000	0.0000000E+000	0.0000000E+000	-23.0372	0.0000000E+000	0.0000000E+000	0.0000000E+000	23.0372	2.3516	66.9628	-7.95855e-06	-0.000198798	2.63813e-09	-0.000198801	3.78296	71984.4	0.95526	71985.4
1585.51	2.29879	1.05322	2.52858	-24.6155	12.6748	3.78291	-0.0494231	95.3087	16.5355	1	9	0.00496058	0.0019618	0	-0.000251779	-0.000241109	1.07895e-05	17.9246	0.00549979	0.00523285	-0.00169265	-24.5313	2.53264	2.30403	1.05153	0.359539	0.164727	0.395479	24.6155	16535.5	36090.9	39698.6	-65.3845	0.0000000E+000	0.0000000E+000	0.0000000E+000	65.3845	0.0000000E+000	0.0000000E+000	0.0000000E+000	-65.3845	0.0000000E+000	0.0000000E+000	0.0000000E+000	-24.6155	0.0000000E+000	0.0000000E+000	0.0000000E+000	24.6155	2.18263	65.3845	-6.1789e-06	-0.000186963	1.19163e-08	-0.000186975	3.78315	76541.3	4.87847	76546.2
1000.32	2.61153	1.29066	2.91306	-26.2994	13.5768	3.78291	-0.0490878	123.273	24.1989	1	9	0.00493698	0.00169477	0	-0.000264216	0.000255253	4.63354e-06	-33.8732	0.00273402	0.00226998	0.00152382	-26.3064	2.91577	2.6138	1.29219	0.307749	0.152095	0.343282	26.2994	24198.9	48964.1	54617.5	-63.7006	0.0000000E+000	0.0000000E+000	0.0000000E+000	63.7006	0.0000000E+000	0.0000000E+000	0.0000000E+000	-63.7006	0.0000000E+000	0.0000000E+000	0.0000000E+000	-26.2994	0.0000000E+000	0.0000000E+000	0.0000000E+000	26.2994	2.0234	63.7006	-5.12913e-06	-0.000185695	-1.25298e-08	-0.000185682	3.78265	77064	5.19992	77058.8
631.01	3.00444	1.52518	3.3694	-26.9143	14.7236	3.78292	-0.0798461	165.372	33.8846	1	10	0.0049904	0.00148109	0	-0.000284025	-5.02005e-05	1.89063e-05	-74.5152	0.0127651	0.00340806	0.0123017	-27.0742	3.37802	3.00785	1.53749	0.264642	0.134344	0.296789	26.9143	33884.6	66748.7	74856.9	-63.0857	0.0000000E+000	0.0000000E+000	0.0000000E+000	63.0857	0.0000000E+000	0.0000000E+000	0.0000000E+000	-63.0857	0.0000000E+000	0.0000000E+000	0.0000000E+000	-26.9143	0.0000000E+000	0.0000000E+000	0.0000000E+000	26.9143	1.96989	63.0857	-1.35107e-05	-0.000302051	4.00832e-09	-0.000302055	3.78297	47377.7	0.628717	47378.3
398.089	3.55065	1.78991	3.97629	-26.7531	15.6248	3.78291	-0.0799653	223.361	45.2601	1	10	0.00496506	0.00124867	0	-0.000303229	0.00019798	1.53205e-05	83.2008	0.0122695	0.00145258	-0.0121832	-26.5867	3.97212	3.5521	1.77773	0.22457	0.113208	0.251491	26.7531	45260.1	89782.3	100545	-63.2469	0.0000000E+000	0.0000000E+000	0.0000000E+000	63.2469	0.0000000E+000	0.0000000E+000	0.0000000E+000	-63.2469	0.0000000E+000	0.0000000E+000	0.0000000E+000	-26.7531	0.0000000E+000	0.0000000E+000	0.0000000E+000	26.7531	1.9837	63.2469	-1.0199e-05	-0.000302502	-1.58316e-08	-0.000302486	3.78272	47306.9	2.47583	47304.5
251.044	4.2338	1.97344	4.67114	-24.991	16.523	3.78291	-0.0785609	321.251	57.3388	1	10	0.00494279	0.00105815	0	-0.000323475	0.000140708	1.69992e-05	-143.799	0.016065	-0.0129637	0.0094883	-25.1639	4.66342	4.22084	1.98293	0.194037	0.0904438	0.21408	24.991	57338.8	123014	135721	-65.009	0.0000000E+000	0.0000000E+000	0.0000000E+000	65.009	0.0000000E+000	0.0000000E+000	0.0000000E+000	-65.009	0.0000000E+000	0.0000000E+000	0.0000000E+000	-24.991	0.0000000E+000	0.0000000E+000	0.0000000E+000	24.991	2.14539	65.009	-1.04094e-05	-0.000297188	-1.10541e-08	-0.000297177	3.78277	48152.5	1.79107	48150.8
158.428	4.99308	1.99878	5.37829	-21.8167	17.4279	3.78292	-0.0764636	502.599	69.4168	1	10	0.00492267	0.000915286	0	-0.000344464	0.000312525	5.25049e-06	45.6381	0.00573644	0.00401086	-0.0041012	-21.7603	5.38049	4.99709	1.99468	0.172616	0.0690999	0.185933	21.8167	69416.8	173407	186786	-68.1833	0.0000000E+000	0.0000000E+000	0.0000000E+000	68.1833	0.0000000E+000	0.0000000E+000	0.0000000E+000	-68.1833	0.0000000E+000	0.0000000E+000	0.0000000E+000	-21.8167	0.0000000E+000	0.0000000E+000	0.0000000E+000	21.8167	2.49806	68.1833	-1.00862e-05	-0.000289256	-2.38968e-08	-0.000289232	3.78261	49473.5	4.08725	49469.4
100.032	5.72077	1.82594	6.0051	-17.7019	18.3278	3.78293	-0.0755509	871.356	80.5612	1	10	0.00491848	0.000819051	0	-0.000363379	0.000121617	3.85879e-06	-72.3929	0.0047113	0.00142511	0.00449059	-17.7385	6.00782	5.72219	1.83043	0.15864	0.0506343	0.166525	17.7019	80561.2	252403	264948	-72.2981	0.0000000E+000	0.0000000E+000	0.0000000E+000	72.2981	0.0000000E+000	0.0000000E+000	0.0000000E+000	-72.2981	0.0000000E+000	0.0000000E+000	0.0000000E+000	-17.7019	0.0000000E+000	0.0000000E+000	0.0000000E+000	17.7019	3.13306	72.2981	-9.58314e-06	-0.000285803	-9.18828e-09	-0.000285794	3.7828	50071.2	1.60974	50069.6
63.0823	6.28923	1.50072	6.46581	-13.4208	19.245	3.78292	-0.0726043	1681.17	90.5667	1	10	0.00491057	0.000759468	0	-0.00038261	0.00040798	4.18517e-06	-109.975	0.00551066	-0.00188253	0.00517914	-13.4694	6.46518	6.28735	1.5059	0.150436	0.0358968	0.15466	13.4208	90566.7	379547	390202	-76.5792	0.0000000E+000	0.0000000E+000	0.0000000E+000	76.5792	0.0000000E+000	0.0000000E+000	0.0000000E+000	-76.5792	0.0000000E+000	0.0000000E+000	0.0000000E+000	-13.4208	0.0000000E+000	0.0000000E+000	0.0000000E+000	13.4208	4.1908	76.5792	-8.8928e-06	-0.000274656	-2.96211e-08	-0.000274627	3.78252	52103.3	5.61923	52097.7
39.8089	6.69848	1.16146	6.79843	-9.83684	20.1459	3.78292	-0.0741391	3442.18	100.468	1	10	0.00491739	0.000723312	0	-0.000399517	0.000427071	8.62579e-06	-34.1412	0.0119254	0.00987015	0.00669294	-9.87814	6.8093	6.70835	1.16816	0.14493	0.0251298	0.147093	9.83684	100468	579427	588073	-80.1632	0.0000000E+000	0.0000000E+000	0.0000000E+000	80.1632	0.0000000E+000	0.0000000E+000	0.0000000E+000	-80.1632	0.0000000E+000	0.0000000E+000	0.0000000E+000	-9.83684	0.0000000E+000	0.0000000E+000	0.0000000E+000	9.83684	5.76727	80.1632	-8.57087e-06	-0.000280462	-3.16626e-08	-0.00028043	3.78249	51024.7	5.7604	51018.9
25.1044	6.94916	0.851695	7.00116	-6.98737	21.025	3.78292	-0.0743849	7443.65	110.157	1	10	0.00491484	0.000702004	0	-0.00041787	-3.11097e-05	1.05151e-05	-120.168	0.0149787	-0.00752734	0.0129499	-7.10015	6.99528	6.94164	0.864645	0.141773	0.0173758	0.142833	6.98737	110157	898798	905523	-83.0126	0.0000000E+000	0.0000000E+000	0.0000000E+000	83.0126	0.0000000E+000	0.0000000E+000	0.0000000E+000	-83.0126	0.0000000E+000	0.0000000E+000	0.0000000E+000	-6.98737	0.0000000E+000	0.0000000E+000	0.0000000E+000	6.98737	8.15922	83.0126	-8.97056e-06	-0.000281392	2.31409e-09	-0.000281394	3.78295	50856	0.418226	50856.4
15.8576	7.05123	0.624263	7.07881	-5.05935	21.903	3.78291	-0.0773353	16077.4	125.035	1	10	0.00488914	0.000690672	0	-0.00043373	0.000102526	2.12015e-05	-45.8929	0.0306969	0.0213651	0.0220416	-5.22128	7.10207	7.0726	0.646305	0.140716	0.012458	0.141267	5.05935	125035	1.4123e+06	1.41783e+06	-84.9407	0.0000000E+000	0.0000000E+000	0.0000000E+000	84.9407	0.0000000E+000	0.0000000E+000	0.0000000E+000	-84.9407	0.0000000E+000	0.0000000E+000	0.0000000E+000	-5.05935	0.0000000E+000	0.0000000E+000	0.0000000E+000	5.05935	11.2953	84.9407	-7.78426e-06	-0.000292553	-7.92889e-09	-0.000292545	3.78281	48915.8	1.32574	48914.4
10.0032	7.1792	0.474402	7.19486	-3.78061	22.8848	3.78292	-0.0731407	33537.8	145.809	1	10	0.00491672	0.000683366	0	-0.000454139	0.000350707	8.26455e-06	14.6112	0.0120939	0.0117028	-0.00305079	-3.75027	7.20633	7.1909	0.471351	0.138686	0.00916436	0.138988	3.78061	145809	2.20655e+06	2.21136e+06	-86.2194	0.0000000E+000	0.0000000E+000	0.0000000E+000	86.2194	0.0000000E+000	0.0000000E+000	0.0000000E+000	-86.2194	0.0000000E+000	0.0000000E+000	0.0000000E+000	-3.78061	0.0000000E+000	0.0000000E+000	0.0000000E+000	3.78061	15.1332	86.2194	-7.08599e-06	-0.000276685	-2.5651e-08	-0.00027666	3.78257	51721.1	4.79497	51716.3
6.31058	7.23344	0.392193	7.24406	-3.10351	23.8093	3.78292	-0.0752678	64305.9	188.489	1	10	0.00490345	0.000676892	0	-0.000467697	6.43445e-05	1.12787e-05	-132.911	0.0166624	-0.0113448	0.0122037	-3.2049	7.23341	7.22209	0.404397	0.137842	0.00747369	0.138044	3.10351	188489	3.47641e+06	3.48152e+06	-86.8965	0.0000000E+000	0.0000000E+000	0.0000000E+000	86.8965	0.0000000E+000	0.0000000E+000	0.0000000E+000	-86.8965	0.0000000E+000	0.0000000E+000	0.0000000E+000	-3.10351	0.0000000E+000	0.0000000E+000	0.0000000E+000	3.10351	18.4436	86.8965	-1.31915e-06	-0.000284732	-4.84307e-09	-0.000284727	3.78286	50259.5	0.854875	50258.7
3.97785	7.31762	0.34431	7.32571	-2.69391	24.8164	3.78295	-0.0632707	116204	256.698	1	10	0.0049111	0.000670392	0	-0.000497096	0.000293435	7.27065e-06	54.2219	0.0108454	0.00634072	-0.00879871	-2.62289	7.33164	7.32396	0.335512	0.136355	0.00641579	0.136505	2.69391	256698	5.45558e+06	5.46162e+06	-87.3061	0.0000000E+000	0.0000000E+000	0.0000000E+000	87.3061	0.0000000E+000	0.0000000E+000	0.0000000E+000	-87.3061	0.0000000E+000	0.0000000E+000	0.0000000E+000	-2.69391	0.0000000E+000	0.0000000E+000	0.0000000E+000	2.69391	21.253	87.3061	-1.58467e-05	-0.00023935	-1.85658e-08	-0.000239331	3.78265	59789.9	4.63776	59785.2
2.51367	7.37542	0.325813	7.38261	-2.52942	26.738	3.78296	-0.0553513	194331	378.494	1	11	0.00491101	0.000665213	0	-0.000514628	0.000159799	3.9116e-06	-2.21493	0.00588022	0.00587582	0.000227259	-2.52917	7.38849	7.38129	0.32604	0.135321	0.00597789	0.135453	2.52942	378494	8.56796e+06	8.57632e+06	-87.4706	0.0000000E+000	0.0000000E+000	0.0000000E+000	87.4706	0.0000000E+000	0.0000000E+000	0.0000000E+000	-87.4706	0.0000000E+000	0.0000000E+000	0.0000000E+000	-2.52942	0.0000000E+000	0.0000000E+000	0.0000000E+000	2.52942	22.637	87.4706	-7.60138e-06	-0.000209392	-8.84507e-09	-0.000209383	3.7828	68344.6	2.88699	68341.7
1.58469	7.45445	0.352157	7.46276	-2.70471	29.1724	3.78296	-0.053246	285194	635.06	1	11	0.00491179	0.000658173	0	-0.000572019	0.000159799	2.2284e-06	63.3134	0.00338574	0.00152057	-0.00302508	-2.68097	7.46414	7.45597	0.349132	0.133849	0.00632321	0.133999	2.70471	635060	1.34429e+07	1.34579e+07	-87.2953	0.0000000E+000	0.0000000E+000	0.0000000E+000	87.2953	0.0000000E+000	0.0000000E+000	0.0000000E+000	-87.2953	0.0000000E+000	0.0000000E+000	0.0000000E+000	-2.70471	0.0000000E+000	0.0000000E+000	0.0000000E+000	2.70471	21.1679	87.2953	-3.47043e-05	-0.000201428	-8.50865e-09	-0.000201419	3.7828	71046.8	3.00114	71043.8
1.00469	7.69707	0.388832	7.70688	-2.89195	239.99	3.78294	-0.0401475	407403	1037.03	1	11	0.00497961	0.000646125	0	-0.00565167	0.000331616	1.82767e-07	77.5018	0.000282867	6.12148e-05	-0.000276163	-2.88988	7.70693	7.69713	0.388556	0.129589	0.00654644	0.129754	2.89195	1.03703e+06	2.05284e+07	2.05545e+07	-87.108	0.0000000E+000	0.0000000E+000	0.0000000E+000	87.108	0.0000000E+000	0.0000000E+000	0.0000000E+000	-87.108	0.0000000E+000	0.0000000E+000	0.0000000E+000	-2.89195	0.0000000E+000	0.0000000E+000	0.0000000E+000	2.89195	19.7953	87.108	-0.00504332	-0.000151876	-1.33136e-08	-0.000151862	3.78261	94226	8.25994	94217.8
0.632957	7.7936	0.447286	7.80643	-3.28468	239.992	3.78294	-0.0401475	562161	1845.55	1	11	0.00499201	0.000639474	0	-0.00565167	0.000331616	2.58541e-07	0.177097	0.000404302	0.0004043	-1.24966e-06	-3.2845	7.80683	7.79401	0.447285	0.127889	0.00733974	0.1281	3.28468	1.84555e+06	3.21573e+07	3.22102e+07	-86.7153	0.0000000E+000	0.0000000E+000	0.0000000E+000	86.7153	0.0000000E+000	0.0000000E+000	0.0000000E+000	-86.7153	0.0000000E+000	0.0000000E+000	0.0000000E+000	-3.28468	0.0000000E+000	0.0000000E+000	0.0000000E+000	3.28468	17.4242	86.7153	0.000000000000000E+000	-0.000151876	-1.33136e-08	-0.000151862	3.78261	94226	8.25994	94217.8
0.401878	7.86371	0.538495	7.88212	-3.91741	239.993	3.78294	-0.0401475	735436	3432.59	1	11	0.0050058	0.000635083	0	-0.00565167	0.000331616	9.03487e-08	34.7889	0.000142263	0.000116835	-8.11687e-05	-3.91677	7.88223	7.86382	0.538414	0.126573	0.00866753	0.126869	3.91741	3.43259e+06	5.01265e+07	5.02439e+07	-86.0826	0.0000000E+000	0.0000000E+000	0.0000000E+000	86.0826	0.0000000E+000	0.0000000E+000	0.0000000E+000	-86.0826	0.0000000E+000	0.0000000E+000	0.0000000E+000	-3.91741	0.0000000E+000	0.0000000E+000	0.0000000E+000	3.91741	14.6031	86.0826	0.000000000000000E+000	-0.000151876	-1.33136e-08	-0.000151862	3.78261	94226	8.25994	94217.8
0.251173	8.01395	0.662783	8.04131	-4.72782	239.994	3.78294	-0.0401475	956037	6494.78	1	11	0.00500621	0.000622562	0	-0.00565167	0.000331616	2.05519e-07	-54.4682	0.000330118	0.00019185	0.000268647	-4.72961	8.04152	8.01414	0.663052	0.123935	0.0102499	0.124358	4.72782	6.49478e+06	7.85307e+07	7.87988e+07	-85.2722	0.0000000E+000	0.0000000E+000	0.0000000E+000	85.2722	0.0000000E+000	0.0000000E+000	0.0000000E+000	-85.2722	0.0000000E+000	0.0000000E+000	0.0000000E+000	-4.72782	0.0000000E+000	0.0000000E+000	0.0000000E+000	4.72782	12.0914	85.2722	0.000000000000000E+000	-0.000151876	-1.33136e-08	-0.000151862	3.78261	94226	8.25994	94217.8
0.160751	8.16522	0.757605	8.20029	-5.30098	239.996	3.78294	-0.0401475	1.30684e+06	11154.5	1	11	0.00500143	0.000609909	0	-0.00565167	0.000331616	7.12863e-07	1.11056	0.0011688	0.00116858	-2.26534e-05	-5.30007	8.20145	8.16639	0.757582	0.121425	0.0112664	0.121947	5.30098	1.11545e+07	1.2022e+08	1.20736e+08	-84.699	0.0000000E+000	0.0000000E+000	0.0000000E+000	84.699	0.0000000E+000	0.0000000E+000	0.0000000E+000	-84.699	0.0000000E+000	0.0000000E+000	0.0000000E+000	-5.30098	0.0000000E+000	0.0000000E+000	0.0000000E+000	5.30098	10.7777	84.699	0.000000000000000E+000	-0.000151876	-1.33136e-08	-0.000151862	3.78261	94226	8.25994	94217.8
0.100469	8.30042	1.09085	8.37179	-7.48696	239.997	3.78294	-0.0401475	1.45219e+06	24655.5	1	11	0.00500436	0.000597765	0	-0.00565167	0.000331616	5.57491e-07	22.9979	0.000932626	0.0008585	-0.000364374	-7.48372	8.3726	8.30128	1.09048	0.11843	0.0155642	0.119449	7.48696	2.46555e+07	1.87607e+08	1.8922e+08	-82.513	0.0000000E+000	0.0000000E+000	0.0000000E+000	82.513	0.0000000E+000	0.0000000E+000	0.0000000E+000	-82.513	0.0000000E+000	0.0000000E+000	0.0000000E+000	-7.48696	0.0000000E+000	0.0000000E+000	0.0000000E+000	7.48696	7.60914	82.513	0.000000000000000E+000	-0.000151876	-1.33136e-08	-0.000151862	3.78261	94226	8.25994	94217.8
0.0602816	8.55997	1.38325	8.67102	-9.17937	239.999	3.78294	-0.0401475	1.90868e+06	48573.1	1	11	0.00500052	0.000576693	0	-0.00565167	0.000331616	5.86677e-07	109.174	0.00101731	-0.000334122	-0.000960878	-9.17346	8.67053	8.55964	1.38229	0.11385	0.0183976	0.115327	9.17937	4.85731e+07	3.00585e+08	3.04484e+08	-80.8206	0.0000000E+000	0.0000000E+000	0.0000000E+000	80.8206	0.0000000E+000	0.0000000E+000	0.0000000E+000	-80.8206	0.0000000E+000	0.0000000E+000	0.0000000E+000	-9.17937	0.0000000E+000	0.0000000E+000	0.0000000E+000	9.17937	6.1883	80.8206	0.000000000000000E+000	-0.000151876	-1.33136e-08	-0.000151862	3.78261	94226	8.25994	94217.8
0.0401878	8.97156	1.70364	9.13188	-10.7521	240	3.78294	-0.0401475	2.3246e+06	80906.7	1	11	0.00499868	0.000547388	0	-0.00565167	0.000331616	6.70723e-07	10.4053	0.00122532	0.00120517	-0.000221304	-10.7493	9.13303	8.97277	1.70342	0.107584	0.0204295	0.109506	10.7521	8.09067e+07	4.26063e+08	4.33677e+08	-79.2479	0.0000000E+000	0.0000000E+000	0.0000000E+000	79.2479	0.0000000E+000	0.0000000E+000	0.0000000E+000	-79.2479	0.0000000E+000	0.0000000E+000	0.0000000E+000	-10.7521	0.0000000E+000	0.0000000E+000	0.0000000E+000	10.7521	5.2661	79.2479	0.000000000000000E+000	-0.000151876	-1.33136e-08	-0.000151862	3.78261	94226	8.25994	94217.8
0.0200939	9.85736	2.8215	10.2532	-15.9728	240.001	3.78294	-0.0401475	2.80722e+06	212577	1	11	0.004999	0.000487554	0	-0.00565167	0.000331616	5.08612e-07	-88.8076	0.00104319	2.17088e-05	0.00104296	-15.9784	10.2535	9.85738	2.82254	0.093765	0.0268386	0.0975304	15.9728	2.12577e+08	7.42672e+08	7.72496e+08	-74.0272	0.0000000E+000	0.0000000E+000	0.0000000E+000	74.0272	0.0000000E+000	0.0000000E+000	0.0000000E+000	-74.0272	0.0000000E+000	0.0000000E+000	0.0000000E+000	-15.9728	0.0000000E+000	0.0000000E+000	0.0000000E+000	15.9728	3.49366	74.0272	0.000000000000000E+000	-0.000151876	-1.33136e-08	-0.000151862	3.78261	94226	8.25994	94217.8
0.00796479	12.4377	3.75851	12.9932	-16.8141	20328.9	3.78297	0.000282107	5.31656e+06	444865	1	11	0.00499488	0.000384422	0	-0.0264149	0.00017889	3.29835e-07	-45.7784	0.000858002	0.000598401	0.000614884	-16.8159	12.994	12.4383	3.75912	0.0736729	0.0222629	0.0769632	16.8141	4.44865e+08	1.47216e+09	1.5379e+09	-73.1859	0.0000000E+000	0.0000000E+000	0.0000000E+000	73.1859	0.0000000E+000	0.0000000E+000	0.0000000E+000	-73.1859	0.0000000E+000	0.0000000E+000	0.0000000E+000	-16.8141	0.0000000E+000	0.0000000E+000	0.0000000E+000	16.8141	3.30922	73.1859	-0.0207633	1.0672e-06	5.04661e-11	1.06715e-06	3.78279	1.34097e+07	634.119	1.3409e+07
0.00497799	14.0139	3.94365	14.5582	-15.7171	20328.9	3.78297	0.000282107	8.10713e+06	594904	1	11	0.00500203	0.000343587	0	-0.0264149	0.00017889	1.86853e-07	-43.5303	0.000543829	0.000394282	0.000374556	-15.7181	14.5587	14.0143	3.94403	0.0661213	0.0186072	0.0686896	15.7171	5.94904e+08	2.11401e+09	2.19612e+09	-74.2829	0.0000000E+000	0.0000000E+000	0.0000000E+000	74.2829	0.0000000E+000	0.0000000E+000	0.0000000E+000	-74.2829	0.0000000E+000	0.0000000E+000	0.0000000E+000	-15.7171	0.0000000E+000	0.0000000E+000	0.0000000E+000	15.7171	3.55354	74.2829	0.000000000000000E+000	1.0672e-06	5.04661e-11	1.06715e-06	3.78279	1.34097e+07	634.119	1.3409e+07
0.00318591	14.9969	4.98077	15.8024	-18.3724	20328.9	3.78297	0.000282107	1.00297e+07	996412	1	11	0.00500428	0.00031668	0	-0.0264149	0.00017889	3.73601e-07	-119.773	0.00117974	-0.000585822	0.00102402	-18.3766	15.8021	14.9963	4.9818	0.0600561	0.0199459	0.0632817	18.3724	9.96412e+08	3.00015e+09	3.16129e+09	-71.6276	0.0000000E+000	0.0000000E+000	0.0000000E+000	71.6276	0.0000000E+000	0.0000000E+000	0.0000000E+000	-71.6276	0.0000000E+000	0.0000000E+000	0.0000000E+000	-18.3724	0.0000000E+000	0.0000000E+000	0.0000000E+000	18.3724	3.01095	71.6276	0.000000000000000E+000	1.0672e-06	5.04661e-11	1.06715e-06	3.78279	1.34097e+07	634.119	1.3409e+07
0.0019912	16.1961	5.28791	17.0375	-18.0815	20328.9	3.78297	0.000282107	1.51155e+07	1.45607e+06	1	11	0.00500798	0.000293939	0	-0.0264149	0.00017889	3.43786e-07	-95.5789	0.00116958	-0.000113701	0.00116404	-18.0854	17.0377	16.196	5.28908	0.0557956	0.0182169	0.0586942	18.0815	1.45607e+09	4.45971e+09	4.69139e+09	-71.9185	0.0000000E+000	0.0000000E+000	0.0000000E+000	71.9185	0.0000000E+000	0.0000000E+000	0.0000000E+000	-71.9185	0.0000000E+000	0.0000000E+000	0.0000000E+000	-18.0815	0.0000000E+000	0.0000000E+000	0.0000000E+000	18.0815	3.06285	71.9185	0.000000000000000E+000	1.0672e-06	5.04661e-11	1.06715e-06	3.78279	1.34097e+07	634.119	1.3409e+07
0.00129428	16.6391	5.76471	17.6094	-19.1089	20328.9	3.78297	0.000282107	2.13312e+07	2.28601e+06	1	11	0.00500963	0.000284486	0	-0.0264149	0.00017889	7.38388e-07	55.6944	0.00259552	0.00146285	-0.00214401	-19.1007	17.6101	16.6406	5.76256	0.0536586	0.0185903	0.0567877	19.1089	2.28601e+09	6.5983e+09	6.98308e+09	-70.8911	0.0000000E+000	0.0000000E+000	0.0000000E+000	70.8911	0.0000000E+000	0.0000000E+000	0.0000000E+000	-70.8911	0.0000000E+000	0.0000000E+000	0.0000000E+000	-19.1089	0.0000000E+000	0.0000000E+000	0.0000000E+000	19.1089	2.88638	70.8911	0.000000000000000E+000	1.0672e-06	5.04661e-11	1.06715e-06	3.78279	1.34097e+07	634.119	1.3409e+07
0.000796479	18.7139	6.74572	19.8926	-19.8225	20328.9	3.78297	0.000282107	2.96222e+07	3.40636e+06	1	11	0.00500441	0.000251571	0	-0.0264149	0.00017889	8.64011e-07	-13.6255	0.00343446	0.0033378	0.000809073	-19.8214	19.896	18.7173	6.74653	0.0472913	0.0170469	0.0502699	19.8225	3.40636e+09	9.4499e+09	1.00451e+10	-70.1776	0.0000000E+000	0.0000000E+000	0.0000000E+000	70.1776	0.0000000E+000	0.0000000E+000	0.0000000E+000	-70.1776	0.0000000E+000	0.0000000E+000	0.0000000E+000	-19.8225	0.0000000E+000	0.0000000E+000	0.0000000E+000	19.8225	2.7742	70.1776	0.000000000000000E+000	1.0672e-06	5.04661e-11	1.06715e-06	3.78279	1.34097e+07	634.119	1.3409e+07
0.000497799	18.7148	8.18388	20.4259	-23.6195	20328.9	3.78297	0.000282107	3.90667e+07	6.27135e+06	1	11	0.00501019	0.000245286	0	-0.0264149	0.00017889	1.48623e-06	-19.0627	0.00605918	0.0057269	0.00197894	-23.6182	20.432	18.7205	8.18586	0.044856	0.0196153	0.0489573	23.6195	6.27135e+09	1.43412e+10	1.56525e+10	-66.3805	0.0000000E+000	0.0000000E+000	0.0000000E+000	66.3805	0.0000000E+000	0.0000000E+000	0.0000000E+000	-66.3805	0.0000000E+000	0.0000000E+000	0.0000000E+000	-23.6195	0.0000000E+000	0.0000000E+000	0.0000000E+000	23.6195	2.28679	66.3805	0.000000000000000E+000	1.0672e-06	5.04661e-11	1.06715e-06	3.78279	1.34097e+07	634.119	1.3409e+07
0.000298679	19.0533	11.5994	22.3064	-31.3325	20329	3.78297	0.000282107	4.59388e+07	1.2422e+07	1	11	0.00501008	0.000224603	0	-0.0264149	0.00017889	1.52428e-06	-50.6146	0.00678656	0.0043063	0.0052453	-31.3382	22.3128	19.0576	11.6046	0.0382924	0.0233119	0.0448303	31.3325	1.2422e+10	2.04046e+10	2.38883e+10	-58.6675	0.0000000E+000	0.0000000E+000	0.0000000E+000	58.6675	0.0000000E+000	0.0000000E+000	0.0000000E+000	-58.6675	0.0000000E+000	0.0000000E+000	0.0000000E+000	-31.3325	0.0000000E+000	0.0000000E+000	0.0000000E+000	31.3325	1.64261	58.6675	0.000000000000000E+000	1.0672e-06	5.04661e-11	1.06715e-06	3.78279	1.34097e+07	634.119	1.3409e+07
9.95598e-05	22.3866	35.1461	41.6702	-57.5046	20329	3.78297	0.000282107	4.5484e+07	3.23565e+07	1	11	0.00501287	0.000120299	0	-0.0264149	0.00017889	2.01478e-06	105.202	0.0167481	-0.00439168	-0.0161621	-57.4978	41.6542	22.3822	35.13	0.0128925	0.0202407	0.0239979	57.5046	3.23565e+10	2.06097e+10	3.83628e+10	-32.4954	0.0000000E+000	0.0000000E+000	0.0000000E+000	32.4954	0.0000000E+000	0.0000000E+000	0.0000000E+000	-32.4954	0.0000000E+000	0.0000000E+000	0.0000000E+000	-57.5046	0.0000000E+000	0.0000000E+000	0.0000000E+000	57.5046	0.636957	32.4954	0.000000000000000E+000	1.0672e-06	5.04661e-11	1.06715e-06	3.78279	1.34097e+07	634.119	1.3409e+07