File: txt/17494_R280_UC81_SOC50_C03.mpt
EC-Lab ASCII FILE
Nb header lines : 64

Potentio Electrochemical Impedance Spectroscopy

Run on channel : 3 (SN 65921)
User :
CE vs. WE compliance from -10 V to 10 V
Electrode connection : standard
Potential control : Ewe
Ewe ctrl range : min = -10.00 V, max = 10.00 V
Safety Limits :
	Do not start on E overload
Acquisition started on : 09/15/2025 12:22:15.638
Loaded Setting File :  C:\Users\Celltest\OneDrive - store-dot.com\Documents\EC-Lab\Data\John\17493_R280-G001, UC81 half-cell.mps
Saved on :
	File : 17494_R280-G001, UC81 half-cell_C03.mpr
	Directory : C:\Users\Celltest\OneDrive - store-dot.com\Documents\EC-Lab\Data\Gyutae\
	Host : 169.254.61.224
Device : VMP-3e (SN .003165)
Address : USB
EC-LAB for windows v11.62 (software)
Internet server v27.00 (firmware)
Command interpretor v12.03 (firmware)
Electrode material :
Initial state :
Electrolyte :
Comments :
Electrode surface area : 0.001 cm²
Characteristic mass : 0.001 g
Equivalent Weight : 0.000 g/eq.
Density : 0.000 g/cm3
Volume (V) : 0.001 cm³
Record Ece
Cycle Definition : Charge/Discharge alternance
Mode                Multi sine
E (V)               0.0000
vs.                 Eoc
tE (h:m:s)          0:00:0.0000
record              0
dI                  0.000
unit dI             mA
dt (s)              0.000
fi                  1.000
unit fi             MHz
ff                  0.100
unit ff             mHz
Nd                  10
Points              per decade
spacing             Logarithmic
Va (mV)             5.0
pw                  0.10
Na                  2
corr                0
E range min (V)     -10.000
E range max (V)     10.000
I Range             Auto
Bandwidth           5
nc cycles           0
goto Ns'            0
nr cycles           0
inc. cycle          0

freq/Hz	Re(Z)/Ohm	-Im(Z)/Ohm	|Z|/Ohm	Phase(Z)/deg	time/s	<Ewe>/V	<I>/mA	Cs/µF	Cp/µF	cycle number	I Range	|Ewe|/V	|I|/A	Ns	(Q-Qo)/mA.h	<Ece>/V	|Ece|/V	Phase(Zce)/deg	|Zce|/Ohm	Re(Zce)/Ohm	-Im(Zce)/Ohm	Phase(Zwe-ce)/deg	|Zwe-ce|/Ohm	Re(Zwe-ce)/Ohm	-Im(Zwe-ce)/Ohm	Re(Y)/Ohm-1	Im(Y)/Ohm-1	|Y|/Ohm-1	Phase(Y)/deg	Re(C)/nF	Im(C)/nF	|C|/nF	Phase(C)/deg	Re(M)	Im(M)	|M|	Phase(M)/deg	Re(Permittivity)	Im(Permittivity)	|Permittivity|	Phase(Permittivity)/deg	Re(Resistivity)/Ohm.cm	Im(Resistivity)/Ohm.cm	|Resistivity|/Ohm.cm	Phase(Resistivity)/deg	Re(Conductivity)/mS/cm	Im(Conductivity)/mS/cm	|Conductivity|/mS/cm	Phase(Conductivity)/deg	Tan(Delta)	Loss Angle(Delta)/deg	dq/mA.h	Pwe/W	Pce/W	Pwe-ce/W	<Ewe-Ece>/V	Rwe/Ohm	Rce/Ohm	Rwe-ce/Ohm		Ewe-Ece/V
1.00002e+06	2.98397	1.8633	3.51795	-31.9822	1.77452	3.78184	-0.0586783	0.0854138	0.0239617	1	10	0.000245387	6.97528e-05	0	-3.81833e-05	-0.000208064	0.000198481	-63.0997	2.84549	1.28741	2.5376	-45.8557	6.13291	4.27138	4.4009	0.24111	0.150558	0.284257	31.9822	23.9617	38.3731	45.24	-58.0178	0.0000000E+000	0.0000000E+000	0.0000000E+000	58.0178	0.0000000E+000	0.0000000E+000	0.0000000E+000	-58.0178	0.0000000E+000	0.0000000E+000	0.0000000E+000	-31.9822	0.0000000E+000	0.0000000E+000	0.0000000E+000	31.9822	1.60144	58.0178	-3.81833e-05	-0.000221912	1.22088e-08	-0.000221924	3.78204	64450.3	3.54583	64453.8
630957	0.85351	-0.322325	0.912344	20.6889	3.06756	3.78152	-0.0315195	-0.782576	-0.0976781	1	9	0.000323879	0.000354997	0	-5.44355e-05	2.10652e-05	0.000114913	-102.224	0.323701	-0.0685365	0.316362	0.435233	0.784996	0.784973	-0.00596297	1.02539	-0.387237	1.09608	-20.6889	-97.6781	258.649	276.479	-110.689	0.0000000E+000	0.0000000E+000	0.0000000E+000	110.689	0.0000000E+000	0.0000000E+000	0.0000000E+000	-110.689	0.0000000E+000	0.0000000E+000	0.0000000E+000	20.6889	0.0000000E+000	0.0000000E+000	0.0000000E+000	-20.6889	2.64798	69.3111	-3.03146e-06	-0.000119192	-6.63965e-10	-0.000119191	3.7815	119974	0.668322	119973
398103	1.1049	-0.105968	1.10997	5.47832	3.83352	3.78161	-0.00724141	-3.77267	-0.0343854	1	9	0.00108839	0.000980556	0	-5.71336e-05	-0.00018897	4.95664e-05	166.191	0.0505493	-0.0490884	-0.0120651	6.37881	1.06239	1.05581	-0.118033	0.896807	-0.0860102	0.900923	-5.47832	-34.3854	358.528	360.173	-95.4783	0.0000000E+000	0.0000000E+000	0.0000000E+000	95.4783	0.0000000E+000	0.0000000E+000	0.0000000E+000	-95.4783	0.0000000E+000	0.0000000E+000	0.0000000E+000	5.47832	0.0000000E+000	0.0000000E+000	0.0000000E+000	-5.47832	10.4268	84.5217	-5.99108e-07	-2.73841e-05	1.3684e-09	-2.73855e-05	3.78179	522220	26.0957	522246
251206	1.18937	0.0904936	1.19281	-4.35098	4.60252	3.78149	-0.0257017	7.00119	0.0402964	1	9	0.0031133	0.00261006	0	-6.05234e-05	-3.6217e-05	4.6318e-05	100.053	0.017746	-0.00309774	-0.0174735	-3.52235	1.18852	1.18627	0.0730201	0.835941	0.0636028	0.838357	4.35098	40.2964	529.621	531.152	-85.649	0.0000000E+000	0.0000000E+000	0.0000000E+000	85.649	0.0000000E+000	0.0000000E+000	0.0000000E+000	-85.649	0.0000000E+000	0.0000000E+000	0.0000000E+000	-4.35098	0.0000000E+000	0.0000000E+000	0.0000000E+000	4.35098	13.1432	85.649	-3.50123e-06	-9.71905e-05	9.30837e-10	-9.71914e-05	3.78152	147130	1.40913	147131
158486	1.25975	0.173367	1.27163	-7.83582	5.24455	3.78144	-0.030326	5.79245	0.107665	1	9	0.00530443	0.00417137	0	-6.87825e-05	4.01593e-05	4.78053e-05	78.5774	0.0114603	0.00226965	-0.0112333	-7.32076	1.2724	1.26202	0.162134	0.779051	0.107213	0.786394	7.83582	107.665	782.339	789.713	-82.1642	0.0000000E+000	0.0000000E+000	0.0000000E+000	82.1642	0.0000000E+000	0.0000000E+000	0.0000000E+000	-82.1642	0.0000000E+000	0.0000000E+000	0.0000000E+000	-7.83582	0.0000000E+000	0.0000000E+000	0.0000000E+000	7.83582	7.2664	82.1642	-4.49539e-06	-0.000114676	-1.21787e-09	-0.000114675	3.7814	124693	1.32425	124691
100004	1.32672	0.20806	1.34294	-8.91266	6.01255	3.78143	-0.0329739	7.64919	0.183603	1	9	0.00535111	0.00398463	0	-8.8468e-05	0.00013563	3.62915e-05	92.7113	0.00910789	-0.000430832	-0.0090977	-8.53153	1.34113	1.32629	0.198962	0.735644	0.115365	0.744635	8.91266	183.603	1170.77	1185.08	-81.0873	0.0000000E+000	0.0000000E+000	0.0000000E+000	81.0873	0.0000000E+000	0.0000000E+000	0.0000000E+000	-81.0873	0.0000000E+000	0.0000000E+000	0.0000000E+000	-8.91266	0.0000000E+000	0.0000000E+000	0.0000000E+000	8.91266	6.37665	81.0873	-1.81986e-06	-0.000124689	-4.47224e-09	-0.000124684	3.7813	114680	4.11324	114675
63093.8	1.38878	0.249977	1.4111	-10.2038	6.78056	3.78145	-0.0268951	10.091	0.316678	1	9	0.00534527	0.00378802	0	-9.64718e-05	-0.000246252	4.64445e-05	-41.7291	0.0122609	0.00915031	0.00816096	-10.4622	1.42157	1.39793	0.258138	0.697458	0.125541	0.708667	10.2038	316.678	1759.35	1787.62	-79.7962	0.0000000E+000	0.0000000E+000	0.0000000E+000	79.7962	0.0000000E+000	0.0000000E+000	0.0000000E+000	-79.7962	0.0000000E+000	0.0000000E+000	0.0000000E+000	-10.2038	0.0000000E+000	0.0000000E+000	0.0000000E+000	10.2038	5.55564	79.7962	-5.13358e-06	-0.000101702	6.62295e-09	-0.000101709	3.7817	140600	9.15602	140609
39814.1	1.45823	0.295229	1.48781	-11.4453	7.54856	3.78144	-0.0279393	13.5402	0.533146	1	9	0.00534503	0.00359254	0	-8.8888e-05	7.83474e-05	1.44749e-05	-40.7495	0.00402915	0.00305237	0.00263004	-11.521	1.49133	1.46128	0.297859	0.658762	0.133371	0.672127	11.4453	533.146	2633.37	2686.8	-78.5547	0.0000000E+000	0.0000000E+000	0.0000000E+000	78.5547	0.0000000E+000	0.0000000E+000	0.0000000E+000	-78.5547	0.0000000E+000	0.0000000E+000	0.0000000E+000	-11.4453	0.0000000E+000	0.0000000E+000	0.0000000E+000	11.4453	4.93931	78.5547	3.1755e-06	-0.000105651	-2.18897e-09	-0.000105648	3.78136	135345	2.8042	135342
25116.9	1.54137	0.353677	1.58143	-12.9231	8.31453	3.78145	-0.0254779	17.9162	0.896109	1	9	0.00533396	0.00337287	0	-9.76253e-05	5.92533e-05	9.00219e-06	-19.0488	0.002669	0.00252285	0.000871092	-12.9334	1.58408	1.5439	0.354548	0.616322	0.141419	0.632339	12.9231	896.109	3905.37	4006.86	-77.0769	0.0000000E+000	0.0000000E+000	0.0000000E+000	77.0769	0.0000000E+000	0.0000000E+000	0.0000000E+000	-77.0769	0.0000000E+000	0.0000000E+000	0.0000000E+000	-12.9231	0.0000000E+000	0.0000000E+000	0.0000000E+000	12.9231	4.35814	77.0769	-4.4639e-06	-9.63434e-05	-1.50965e-09	-9.63419e-05	3.78139	148421	2.32568	148418
15847.7	1.63511	0.427566	1.69009	-14.6542	8.95652	3.78144	-0.0128354	23.4883	1.50327	1	9	0.00521104	0.00308329	0	-0.000104498	-0.000169875	1.06261e-05	-47.5089	0.00344636	0.00232794	0.00254129	-14.7174	1.69298	1.63744	0.430107	0.572438	0.149687	0.591685	14.6542	1503.27	5748.87	5942.17	-75.3458	0.0000000E+000	0.0000000E+000	0.0000000E+000	75.3458	0.0000000E+000	0.0000000E+000	0.0000000E+000	-75.3458	0.0000000E+000	0.0000000E+000	0.0000000E+000	-14.6542	0.0000000E+000	0.0000000E+000	0.0000000E+000	14.6542	3.82423	75.3458	-3.56233e-06	-4.85361e-05	2.18041e-09	-4.85383e-05	3.78161	294611	13.2349	294624
10002.2	1.7607	0.511149	1.8334	-16.1885	9.47456	3.78144	-0.0156324	31.1297	2.41968	1	9	0.00497554	0.00271383	0	-0.00010976	0.000192912	7.80327e-06	-117.653	0.00287537	-0.00133451	0.00254692	-16.2766	1.83283	1.75937	0.513696	0.523808	0.152067	0.545435	16.1885	2419.68	8334.81	8678.93	-73.8115	0.0000000E+000	0.0000000E+000	0.0000000E+000	73.8115	0.0000000E+000	0.0000000E+000	0.0000000E+000	-73.8115	0.0000000E+000	0.0000000E+000	0.0000000E+000	-16.1885	0.0000000E+000	0.0000000E+000	0.0000000E+000	16.1885	3.4446	73.8115	-3.20707e-06	-5.91129e-05	-3.01567e-09	-5.91099e-05	3.78124	241897	12.3405	241885
6309.38	1.90339	0.616948	2.00088	-17.9592	9.99451	3.78145	-0.0187651	40.8869	3.88724	1	9	0.00477025	0.00238408	0	-0.000108937	-9.34992e-05	1.17714e-05	59.529	0.0049375	0.00250382	-0.00425556	-17.8212	2.00195	1.90589	0.612693	0.47543	0.154102	0.499781	17.9592	3887.24	11992.8	12607	-72.0408	0.0000000E+000	0.0000000E+000	0.0000000E+000	72.0408	0.0000000E+000	0.0000000E+000	0.0000000E+000	-72.0408	0.0000000E+000	0.0000000E+000	0.0000000E+000	-17.9592	0.0000000E+000	0.0000000E+000	0.0000000E+000	17.9592	3.08516	72.0408	-2.28726e-07	-7.09592e-05	1.75452e-09	-7.0961e-05	3.78155	201516	4.98262	201520
3983.6	2.07654	0.72317	2.19886	-19.201	10.5571	3.78129	-0.106368	55.2464	5.97569	1	9	0.00465035	0.00211489	0	-0.000119913	0.000173818	1.00029e-05	-100.003	0.00472977	-0.000821571	0.00465787	-19.3226	2.19963	2.07572	0.727828	0.429481	0.14957	0.45478	19.201	5975.69	17158.9	18169.6	-70.799	0.0000000E+000	0.0000000E+000	0.0000000E+000	70.799	0.0000000E+000	0.0000000E+000	0.0000000E+000	-70.799	0.0000000E+000	0.0000000E+000	0.0000000E+000	-19.201	0.0000000E+000	0.0000000E+000	0.0000000E+000	19.201	2.87145	70.799	-8.25933e-06	-0.000402207	-1.84886e-08	-0.000402188	3.78111	35549.2	1.63412	35547.6
2510.8	2.28926	0.875539	2.45098	-20.9296	11.3818	3.78138	-0.0175717	72.3989	9.23855	1	9	0.00456792	0.00186371	0	-0.00013219	0.000269288	6.20007e-06	-65.1546	0.00332673	0.0013978	0.00301883	-20.9838	2.45336	2.29066	0.878558	0.381081	0.145746	0.408	20.9296	9238.55	24156	25862.3	-69.0704	0.0000000E+000	0.0000000E+000	0.0000000E+000	69.0704	0.0000000E+000	0.0000000E+000	0.0000000E+000	-69.0704	0.0000000E+000	0.0000000E+000	0.0000000E+000	-20.9296	0.0000000E+000	0.0000000E+000	0.0000000E+000	20.9296	2.61469	69.0704	-2.68321e-06	-6.64452e-05	-4.73185e-09	-6.64405e-05	3.78111	215197	15.3251	215182
1585.51	2.53442	1.0557	2.74551	-22.614	12.2828	3.78138	-0.0111199	95.0845	14.0588	1	9	0.00453198	0.00165069	0	-0.000135608	7.83474e-05	6.7368e-06	-97.0128	0.0040812	-0.000498277	0.00405067	-22.696	2.74661	2.53393	1.05975	0.336228	0.140054	0.364231	22.614	14058.8	33750.9	36561.9	-67.386	0.0000000E+000	0.0000000E+000	0.0000000E+000	67.386	0.0000000E+000	0.0000000E+000	0.0000000E+000	-67.386	0.0000000E+000	0.0000000E+000	0.0000000E+000	-22.614	0.0000000E+000	0.0000000E+000	0.0000000E+000	22.614	2.4007	67.386	-9.02767e-07	-4.20487e-05	-8.71217e-10	-4.20478e-05	3.78131	340055	7.04568	340048
1000.32	2.85594	1.26185	3.12228	-23.8374	13.1848	3.78138	-0.00847209	126.088	20.5941	1	9	0.00451089	0.00144474	0	-0.000137581	4.01593e-05	9.82047e-06	-11.7497	0.00679738	0.00665496	0.0013842	-23.8114	3.12893	2.86259	1.26323	0.292957	0.129438	0.320278	23.8374	20594.1	46610.7	50957.6	-66.1626	0.0000000E+000	0.0000000E+000	0.0000000E+000	66.1626	0.0000000E+000	0.0000000E+000	0.0000000E+000	-66.1626	0.0000000E+000	0.0000000E+000	0.0000000E+000	-23.8374	0.0000000E+000	0.0000000E+000	0.0000000E+000	23.8374	2.2633	66.1626	-1.72404e-06	-3.20362e-05	-3.40233e-10	-3.20358e-05	3.78134	446334	4.74018	446329
631.01	3.25199	1.48198	3.57375	-24.4994	14.3336	3.78139	-0.0843293	170.194	29.2668	1	10	0.00454493	0.00127175	0	-0.000160776	7.83474e-05	1.19125e-05	-99.7857	0.00936704	-0.00159205	0.00923076	-24.6445	3.57614	3.2504	1.49121	0.254625	0.116036	0.279818	24.4994	29266.8	64222.1	70576.4	-65.5006	0.0000000E+000	0.0000000E+000	0.0000000E+000	65.5006	0.0000000E+000	0.0000000E+000	0.0000000E+000	-65.5006	0.0000000E+000	0.0000000E+000	0.0000000E+000	-24.4994	0.0000000E+000	0.0000000E+000	0.0000000E+000	24.4994	2.19436	65.5006	-1.13915e-05	-0.000318882	-6.60698e-09	-0.000318876	3.78132	44840.8	0.929065	44839.9
398.089	3.78733	1.68787	4.14642	-24.0207	15.2348	3.78139	-0.0837289	236.865	39.2494	1	10	0.00451953	0.00108999	0	-0.000181765	-0.000112593	1.29841e-05	17.5565	0.0119121	0.0113573	-0.00359324	-23.9117	4.15534	3.79869	1.68428	0.220286	0.0981732	0.241172	24.0207	39249.4	88069.8	96419.9	-65.9793	0.0000000E+000	0.0000000E+000	0.0000000E+000	65.9793	0.0000000E+000	0.0000000E+000	0.0000000E+000	-65.9793	0.0000000E+000	0.0000000E+000	0.0000000E+000	-24.0207	0.0000000E+000	0.0000000E+000	0.0000000E+000	24.0207	2.24385	65.9793	-9.85437e-06	-0.000316612	9.42731e-09	-0.000316621	3.7815	45162.2	1.34474	45163.6
251.044	4.42581	1.82523	4.78741	-22.4115	16.346	3.78138	-0.0831845	347.338	50.4878	1	10	0.00488213	0.00101978	0	-0.000208572	-1.71229e-05	1.38617e-05	116.667	0.0135928	-0.00610052	-0.0121469	-22.3048	4.77714	4.41971	1.81308	0.193104	0.0796374	0.208881	22.4115	50487.8	122423	132425	-67.5885	0.0000000E+000	0.0000000E+000	0.0000000E+000	67.5885	0.0000000E+000	0.0000000E+000	0.0000000E+000	-67.5885	0.0000000E+000	0.0000000E+000	0.0000000E+000	-22.4115	0.0000000E+000	0.0000000E+000	0.0000000E+000	22.4115	2.4248	67.5885	-1.07132e-05	-0.000314553	1.42436e-09	-0.000314554	3.7814	45457.8	0.205843	45458
158.428	5.11726	1.80167	5.42516	-19.396	17.2509	3.78138	-0.0815625	557.586	61.4945	1	10	0.0048678	0.000897263	0	-0.000229339	-3.6217e-05	6.01008e-06	-8.75845	0.00669824	0.00662013	0.00101994	-19.3829	5.43174	5.12388	1.80269	0.173865	0.0612138	0.184326	19.396	61494.6	174662	185172	-70.604	0.0000000E+000	0.0000000E+000	0.0000000E+000	70.604	0.0000000E+000	0.0000000E+000	0.0000000E+000	-70.604	0.0000000E+000	0.0000000E+000	0.0000000E+000	-19.396	0.0000000E+000	0.0000000E+000	0.0000000E+000	19.396	2.84029	70.604	-1.03476e-05	-0.000308418	2.95395e-09	-0.000308421	3.78141	46361.7	0.44404	46362.2
100.032	5.74518	1.60412	5.96492	-15.6004	18.1498	3.78138	-0.0821591	991.846	71.7313	1	10	0.00485411	0.000813777	0	-0.000249307	-9.34992e-05	1.0349e-05	-32.6794	0.0127172	0.0107041	0.0068665	-15.6362	5.97708	5.75588	1.61099	0.161471	0.0450846	0.167647	15.6004	71731.3	256907	266733	-74.3997	0.0000000E+000	0.0000000E+000	0.0000000E+000	74.3997	0.0000000E+000	0.0000000E+000	0.0000000E+000	-74.3997	0.0000000E+000	0.0000000E+000	0.0000000E+000	-15.6004	0.0000000E+000	0.0000000E+000	0.0000000E+000	15.6004	3.58151	74.3997	-9.01541e-06	-0.000310675	7.68181e-09	-0.000310682	3.78147	46025.1	1.13803	46026.2
63.0823	6.24144	1.31519	6.3785	-11.8992	19.066	3.78139	-0.0776844	1918.34	81.5573	1	10	0.00485421	0.000761027	0	-0.000269517	-0.000150781	7.40782e-06	-41.8788	0.00973399	0.00724752	0.006498	-11.9428	6.38694	6.24869	1.32168	0.153408	0.0323259	0.156777	11.8992	81557.2	387044	395543	-78.1008	0.0000000E+000	0.0000000E+000	0.0000000E+000	78.1008	0.0000000E+000	0.0000000E+000	0.0000000E+000	-78.1008	0.0000000E+000	0.0000000E+000	0.0000000E+000	-11.8992	0.0000000E+000	0.0000000E+000	0.0000000E+000	11.8992	4.74567	78.1008	-9.75438e-06	-0.000293755	1.17134e-08	-0.000293767	3.78154	48676.3	1.94095	48678.2
39.8089	6.58527	1.03147	6.66556	-8.90205	19.9668	3.78138	-0.0799441	3876	92.8158	1	10	0.0048546	0.000728311	0	-0.000290454	7.83474e-05	6.93676e-06	-72.7641	0.00952446	0.00282216	0.00909674	-8.9755	6.66976	6.58809	1.04056	0.148218	0.0232157	0.150025	8.90205	92815.8	592570	599795	-81.0979	0.0000000E+000	0.0000000E+000	0.0000000E+000	81.0979	0.0000000E+000	0.0000000E+000	0.0000000E+000	-81.0979	0.0000000E+000	0.0000000E+000	0.0000000E+000	-8.90205	0.0000000E+000	0.0000000E+000	0.0000000E+000	8.90205	6.38437	81.0979	-1.05347e-05	-0.000302299	-6.26341e-09	-0.000302293	3.7813	47300.2	0.980027	47299.3
25.1044	6.80136	0.738486	6.84134	-6.19684	20.846	3.78138	-0.0812381	8584.75	100.03	1	10	0.00484296	0.000707896	0	-0.000310715	-0.000112593	6.04227e-06	-0.484124	0.00853552	0.00853522	7.21205e-05	-6.18974	6.84983	6.8099	0.738558	0.145316	0.0157783	0.14617	6.19684	100030	921263	926677	-83.8032	0.0000000E+000	0.0000000E+000	0.0000000E+000	83.8032	0.0000000E+000	0.0000000E+000	0.0000000E+000	-83.8032	0.0000000E+000	0.0000000E+000	0.0000000E+000	-6.19684	0.0000000E+000	0.0000000E+000	0.0000000E+000	6.19684	9.20988	83.8032	-9.2331e-06	-0.000307192	9.14686e-09	-0.000307201	3.78149	46546.9	1.38597	46548.3
15.8576	6.94585	0.582756	6.97025	-4.79588	21.7241	3.78136	-0.0869955	17222.5	120.385	1	10	0.00486559	0.000698051	0	-0.000334677	-0.000169875	1.57824e-05	132.245	0.0226092	-0.0152001	-0.0167371	-4.66893	6.95372	6.93065	0.566019	0.142965	0.0119947	0.143467	4.79588	120385	1.43487e+06	1.43991e+06	-85.2041	0.0000000E+000	0.0000000E+000	0.0000000E+000	85.2041	0.0000000E+000	0.0000000E+000	0.0000000E+000	-85.2041	0.0000000E+000	0.0000000E+000	0.0000000E+000	-4.79588	0.0000000E+000	0.0000000E+000	0.0000000E+000	4.79588	11.919	85.2041	-1.30785e-05	-0.000328961	1.47784e-08	-0.000328976	3.78153	43466.2	1.95269	43468.1
10.0032	7.01129	0.437583	7.02494	-3.57126	22.7058	3.78139	-0.077718	36359.7	141.077	1	10	0.00484991	0.000690386	0	-0.000351363	7.83474e-05	8.04246e-06	125.257	0.0116492	-0.0067245	-0.0095124	-3.49717	7.01764	7.00457	0.428071	0.142074	0.00886698	0.14235	3.57126	141077	2.26045e+06	2.26485e+06	-86.4287	0.0000000E+000	0.0000000E+000	0.0000000E+000	86.4287	0.0000000E+000	0.0000000E+000	0.0000000E+000	-86.4287	0.0000000E+000	0.0000000E+000	0.0000000E+000	-3.57126	0.0000000E+000	0.0000000E+000	0.0000000E+000	3.57126	16.0228	86.4287	-5.86678e-06	-0.000293882	-6.089e-09	-0.000293876	3.78131	48655.2	1.0081	48654.2
6.31058	7.0746	0.365573	7.08404	-2.95807	23.6303	3.78135	-0.0896765	68988.6	183.723	1	10	0.00484071	0.000683326	0	-0.00037642	-1.71229e-05	7.57393e-06	-55.4434	0.0110839	0.00628702	0.00912834	-3.02911	7.09079	7.08088	0.374701	0.140974	0.00728471	0.141162	2.95807	183723	3.55542e+06	3.56016e+06	-87.0419	0.0000000E+000	0.0000000E+000	0.0000000E+000	87.0419	0.0000000E+000	0.0000000E+000	0.0000000E+000	-87.0419	0.0000000E+000	0.0000000E+000	0.0000000E+000	-2.95807	0.0000000E+000	0.0000000E+000	0.0000000E+000	2.95807	19.3521	87.0419	-9.5672e-06	-0.000339099	1.53553e-09	-0.0003391	3.78137	42166.6	0.190941	42166.8
3.97785	7.13809	0.327006	7.14558	-2.62296	24.6373	3.78141	-0.0734037	122353	256.243	1	10	0.00484577	0.00067815	0	-0.000391357	4.01593e-05	7.7493e-06	20.3459	0.0114271	0.0107142	-0.00397305	-2.58726	7.1561	7.1488	0.323033	0.1398	0.00640443	0.139947	2.62296	256243	5.59344e+06	5.59931e+06	-87.377	0.0000000E+000	0.0000000E+000	0.0000000E+000	87.377	0.0000000E+000	0.0000000E+000	0.0000000E+000	-87.377	0.0000000E+000	0.0000000E+000	0.0000000E+000	-2.62296	0.0000000E+000	0.0000000E+000	0.0000000E+000	2.62296	21.8286	87.377	-1.2454e-05	-0.000277569	-2.94784e-09	-0.000277566	3.78137	51515.2	0.547101	51514.7
2.51367	7.21125	0.324772	7.21856	-2.57867	26.559	3.78142	-0.0689532	194954	394.628	1	11	0.00485036	0.000671929	0	-0.00043316	-5.53111e-05	4.50304e-06	47.9664	0.00670166	0.0044872	-0.00497768	-2.53763	7.22282	7.21574	0.319794	0.138391	0.0062327	0.138532	2.57867	394628	8.76234e+06	8.77122e+06	-87.4213	0.0000000E+000	0.0000000E+000	0.0000000E+000	87.4213	0.0000000E+000	0.0000000E+000	0.0000000E+000	-87.4213	0.0000000E+000	0.0000000E+000	0.0000000E+000	-2.57867	0.0000000E+000	0.0000000E+000	0.0000000E+000	2.57867	22.2041	87.4213	-1.16768e-05	-0.000260741	3.81388e-09	-0.000260745	3.78147	54840.3	0.802153	54841.1
1.58469	7.28536	0.34608	7.29358	-2.7197	28.9945	3.78141	-0.0673545	290202	653.39	1	11	0.00485158	0.000665185	0	-0.000458286	-0.00018897	2.59509e-06	50.5397	0.00390131	0.00247945	-0.00301206	-2.69515	7.29591	7.28784	0.343068	0.136953	0.00650572	0.137107	2.7197	653390	1.37546e+07	1.37701e+07	-87.2803	0.0000000E+000	0.0000000E+000	0.0000000E+000	87.2803	0.0000000E+000	0.0000000E+000	0.0000000E+000	-87.2803	0.0000000E+000	0.0000000E+000	0.0000000E+000	-2.7197	0.0000000E+000	0.0000000E+000	0.0000000E+000	2.7197	21.0511	87.2803	-1.71232e-05	-0.000254695	1.27279e-08	-0.000254708	3.7816	56141.9	2.8056	56144.8
1.00469	7.52768	0.388189	7.53768	-2.95203	239.812	3.78141	-0.0597137	408078	1082.32	1	11	0.00503917	0.00066853	0	-0.00672223	-0.00018897	6.43901e-07	4.18852	0.000963159	0.000960586	-7.03475e-05	-2.95112	7.53863	7.52864	0.388119	0.132491	0.00683232	0.132667	2.95203	1.08232e+06	2.09881e+07	2.10159e+07	-87.048	0.0000000E+000	0.0000000E+000	0.0000000E+000	87.048	0.0000000E+000	0.0000000E+000	0.0000000E+000	-87.048	0.0000000E+000	0.0000000E+000	0.0000000E+000	-2.95203	0.0000000E+000	0.0000000E+000	0.0000000E+000	2.95203	19.3918	87.048	-0.00622695	-0.000225802	1.12841e-08	-0.000225813	3.7816	63325.6	3.16459	63328.8
0.632957	7.62676	0.452357	7.64016	-3.39434	239.814	3.78141	-0.0597137	555859	1948.6	1	11	0.00505297	0.00066137	0	-0.00672223	-0.00018897	7.95545e-07	-13.1631	0.00120287	0.00117127	0.000273924	-3.39587	7.64135	7.62793	0.452631	0.130658	0.00774955	0.130887	3.39434	1.9486e+06	3.28534e+07	3.29112e+07	-86.6057	0.0000000E+000	0.0000000E+000	0.0000000E+000	86.6057	0.0000000E+000	0.0000000E+000	0.0000000E+000	-86.6057	0.0000000E+000	0.0000000E+000	0.0000000E+000	-3.39434	0.0000000E+000	0.0000000E+000	0.0000000E+000	3.39434	16.86	86.6057	0.000000000000000E+000	-0.000225802	1.12841e-08	-0.000225813	3.7816	63325.6	3.16459	63328.8
0.401878	7.70022	0.545117	7.71949	-4.04935	239.816	3.78141	-0.0597137	726501	3622.76	1	11	0.00506557	0.000656205	0	-0.00672223	-0.00018897	6.76847e-07	7.13838	0.00103146	0.00102346	-0.000128175	-4.04787	7.7205	7.70124	0.544989	0.129219	0.00914771	0.129542	4.04935	3.62276e+06	5.11743e+07	5.13024e+07	-85.9506	0.0000000E+000	0.0000000E+000	0.0000000E+000	85.9506	0.0000000E+000	0.0000000E+000	0.0000000E+000	-85.9506	0.0000000E+000	0.0000000E+000	0.0000000E+000	-4.04935	0.0000000E+000	0.0000000E+000	0.0000000E+000	4.04935	14.1258	85.9506	0.000000000000000E+000	-0.000225802	1.12841e-08	-0.000225813	3.7816	63325.6	3.16459	63328.8
0.251173	7.84485	0.682138	7.87445	-4.96957	239.818	3.78141	-0.0597137	928911	6970.73	1	11	0.00506542	0.000643273	0	-0.00672223	-0.00018897	7.18109e-07	-26.0056	0.00111634	0.00100331	0.000489468	-4.97249	7.87549	7.84585	0.682627	0.126516	0.011001	0.126993	4.96957	6.97072e+06	8.0166e+07	8.04685e+07	-85.0304	0.0000000E+000	0.0000000E+000	0.0000000E+000	85.0304	0.0000000E+000	0.0000000E+000	0.0000000E+000	-85.0304	0.0000000E+000	0.0000000E+000	0.0000000E+000	-4.96957	0.0000000E+000	0.0000000E+000	0.0000000E+000	4.96957	11.5004	85.0304	0.000000000000000E+000	-0.000225802	1.12841e-08	-0.000225813	3.7816	63325.6	3.16459	63328.8
0.160751	8.00362	0.781882	8.04172	-5.57958	239.819	3.78141	-0.0597137	1.26627e+06	11970.4	1	11	0.0050596	0.00062917	0	-0.00672223	-0.00018897	8.0316e-07	-0.280514	0.00127654	0.00127653	6.24978e-06	-5.57874	8.04299	8.00489	0.781888	0.123762	0.0120905	0.124352	5.57958	1.19704e+07	1.22534e+08	1.23117e+08	-84.4204	0.0000000E+000	0.0000000E+000	0.0000000E+000	84.4204	0.0000000E+000	0.0000000E+000	0.0000000E+000	-84.4204	0.0000000E+000	0.0000000E+000	0.0000000E+000	-5.57958	0.0000000E+000	0.0000000E+000	0.0000000E+000	5.57958	10.2363	84.4204	0.000000000000000E+000	-0.000225802	1.12841e-08	-0.000225813	3.7816	63325.6	3.16459	63328.8
0.100469	8.15224	1.11612	8.22829	-7.79588	239.821	3.78141	-0.0597137	1.4193e+06	26114.3	1	11	0.00506202	0.000615198	0	-0.00672223	-0.00018897	4.531e-07	-23.0647	0.000736511	0.000677637	0.000288544	-7.79723	8.229	8.15292	1.11641	0.120409	0.0164851	0.121532	7.79588	2.61143e+07	1.90741e+08	1.9252e+08	-82.2041	0.0000000E+000	0.0000000E+000	0.0000000E+000	82.2041	0.0000000E+000	0.0000000E+000	0.0000000E+000	-82.2041	0.0000000E+000	0.0000000E+000	0.0000000E+000	-7.79588	0.0000000E+000	0.0000000E+000	0.0000000E+000	7.79588	7.30409	82.2041	0.000000000000000E+000	-0.000225802	1.12841e-08	-0.000225813	3.7816	63325.6	3.16459	63328.8
0.0602816	8.42799	1.42222	8.54715	-9.57841	239.823	3.78141	-0.0597137	1.85638e+06	51399.6	1	11	0.00505919	0.000591916	0	-0.00672223	-0.00018897	5.05169e-07	18.9089	0.000853448	0.000807392	-0.000276572	-9.57568	8.5479	8.4288	1.42194	0.115367	0.0194682	0.116998	9.57841	5.13996e+07	3.04591e+08	3.08897e+08	-80.4216	0.0000000E+000	0.0000000E+000	0.0000000E+000	80.4216	0.0000000E+000	0.0000000E+000	0.0000000E+000	-80.4216	0.0000000E+000	0.0000000E+000	0.0000000E+000	-9.57841	0.0000000E+000	0.0000000E+000	0.0000000E+000	9.57841	5.92593	80.4216	0.000000000000000E+000	-0.000225802	1.12841e-08	-0.000225813	3.7816	63325.6	3.16459	63328.8
0.0401878	8.82089	1.73901	8.99068	-11.1527	239.825	3.78141	-0.0597137	2.27732e+06	85200.8	1	11	0.00505836	0.000562623	0	-0.00672223	-0.00018897	1.09217e-06	23.2793	0.00194121	0.00178317	-0.000767194	-11.1457	8.99228	8.82267	1.73824	0.109126	0.0215138	0.111226	11.1527	8.52008e+07	4.3217e+08	4.40488e+08	-78.8473	0.0000000E+000	0.0000000E+000	0.0000000E+000	78.8473	0.0000000E+000	0.0000000E+000	0.0000000E+000	-78.8473	0.0000000E+000	0.0000000E+000	0.0000000E+000	-11.1527	0.0000000E+000	0.0000000E+000	0.0000000E+000	11.1527	5.07236	78.8473	0.000000000000000E+000	-0.000225802	1.12841e-08	-0.000225813	3.7816	63325.6	3.16459	63328.8
0.0200939	9.72432	2.86996	10.139	-16.443	239.826	3.78141	-0.0597137	2.75982e+06	221128	1	11	0.00506019	0.000499083	0	-0.00672223	-0.00018897	1.15356e-06	-24.791	0.00231137	0.00209836	0.000969178	-16.4449	10.1413	9.72642	2.87093	0.0945954	0.0279182	0.0986291	16.443	2.21128e+08	7.49249e+08	7.81199e+08	-73.557	0.0000000E+000	0.0000000E+000	0.0000000E+000	73.557	0.0000000E+000	0.0000000E+000	0.0000000E+000	-73.557	0.0000000E+000	0.0000000E+000	0.0000000E+000	-16.443	0.0000000E+000	0.0000000E+000	0.0000000E+000	16.443	3.38831	73.557	0.000000000000000E+000	-0.000225802	1.12841e-08	-0.000225813	3.7816	63325.6	3.16459	63328.8
0.00796479	12.3093	3.99747	12.9422	-17.9913	20328.7	3.78142	0.000542868	4.99874e+06	476889	1	11	0.00505348	0.000390466	0	-0.0351048	-0.000322628	4.4322e-07	-150.013	0.0011351	-0.000983156	0.000567333	-17.995	12.9414	12.3084	3.99804	0.0734887	0.0238655	0.0772668	17.9913	4.76889e+08	1.46848e+09	1.54397e+09	-72.0087	0.0000000E+000	0.0000000E+000	0.0000000E+000	72.0087	0.0000000E+000	0.0000000E+000	0.0000000E+000	-72.0087	0.0000000E+000	0.0000000E+000	0.0000000E+000	-17.9913	0.0000000E+000	0.0000000E+000	0.0000000E+000	17.9913	3.07928	72.0087	-0.0283825	2.05281e-06	-1.75144e-10	2.05299e-06	3.78174	6.96563e+06	594.303	6.96623e+06
0.00497799	13.9938	4.31973	14.6454	-17.1548	20328.7	3.78142	0.000542868	7.40133e+06	643903	1	11	0.0050611	0.000345577	0	-0.0351048	-0.000322628	7.07105e-07	-149.951	0.00204616	-0.00177115	0.00102459	-17.1607	14.644	13.9921	4.32075	0.0652431	0.0201398	0.0682809	17.1548	6.43903e+08	2.08594e+09	2.18306e+09	-72.8452	0.0000000E+000	0.0000000E+000	0.0000000E+000	72.8452	0.0000000E+000	0.0000000E+000	0.0000000E+000	-72.8452	0.0000000E+000	0.0000000E+000	0.0000000E+000	-17.1548	0.0000000E+000	0.0000000E+000	0.0000000E+000	17.1548	3.23952	72.8452	0.000000000000000E+000	2.05281e-06	-1.75144e-10	2.05299e-06	3.78174	6.96563e+06	594.303	6.96623e+06
0.00318591	15.1533	5.51866	16.1269	-20.011	20328.7	3.78142	0.000542868	9.05216e+06	1.06002e+06	1	11	0.00506275	0.000313931	0	-0.0351048	-0.000322628	6.5049e-07	-153.108	0.00207208	-0.001848	0.000937229	-20.0164	16.1255	15.1515	5.5196	0.0582644	0.0212192	0.062008	20.011	1.06002e+09	2.91065e+09	3.09766e+09	-69.989	0.0000000E+000	0.0000000E+000	0.0000000E+000	69.989	0.0000000E+000	0.0000000E+000	0.0000000E+000	-69.989	0.0000000E+000	0.0000000E+000	0.0000000E+000	-20.011	0.0000000E+000	0.0000000E+000	0.0000000E+000	20.011	2.74583	69.989	0.000000000000000E+000	2.05281e-06	-1.75144e-10	2.05299e-06	3.78174	6.96563e+06	594.303	6.96623e+06
0.0019912	16.5367	5.83412	17.5356	-19.4328	20328.7	3.78142	0.000542868	1.37003e+07	1.51649e+06	1	11	0.00506688	0.000288948	0	-0.0351048	-0.000322628	5.81577e-07	-59.7476	0.00201274	0.00101404	0.00173863	-19.4371	17.5372	16.5377	5.83586	0.0537781	0.0189729	0.0570268	19.4328	1.51649e+09	4.29845e+09	4.55811e+09	-70.5672	0.0000000E+000	0.0000000E+000	0.0000000E+000	70.5672	0.0000000E+000	0.0000000E+000	0.0000000E+000	-70.5672	0.0000000E+000	0.0000000E+000	0.0000000E+000	-19.4328	0.0000000E+000	0.0000000E+000	0.0000000E+000	19.4328	2.83447	70.5672	0.000000000000000E+000	2.05281e-06	-1.75144e-10	2.05299e-06	3.78174	6.96563e+06	594.303	6.96623e+06
0.00129428	17.0703	6.36709	18.2191	-20.4551	20328.7	3.78142	0.000542868	1.93131e+07	2.35873e+06	1	11	0.00506738	0.000278135	0	-0.0351048	-0.000322628	4.26479e-07	56.2352	0.00153335	0.000852212	-0.00127471	-20.4504	18.2195	17.0712	6.36581	0.0514265	0.0191816	0.0548874	20.4551	2.35873e+09	6.32383e+09	6.7494e+09	-69.5449	0.0000000E+000	0.0000000E+000	0.0000000E+000	69.5449	0.0000000E+000	0.0000000E+000	0.0000000E+000	-69.5449	0.0000000E+000	0.0000000E+000	0.0000000E+000	-20.4551	0.0000000E+000	0.0000000E+000	0.0000000E+000	20.4551	2.68103	69.5449	0.000000000000000E+000	2.05281e-06	-1.75144e-10	2.05299e-06	3.78174	6.96563e+06	594.303	6.96623e+06
0.000796479	19.6248	7.30282	20.9395	-20.4114	20328.7	3.78142	0.000542868	2.73625e+07	3.32816e+06	1	11	0.0050663	0.00024195	0	-0.0351048	-0.000322628	1.13994e-06	-140.657	0.00471149	-0.0036437	0.00298691	-20.4225	20.9371	19.6211	7.30581	0.0447581	0.0166555	0.0477566	20.4114	3.32816e+09	8.94371e+09	9.54288e+09	-69.5886	0.0000000E+000	0.0000000E+000	0.0000000E+000	69.5886	0.0000000E+000	0.0000000E+000	0.0000000E+000	-69.5886	0.0000000E+000	0.0000000E+000	0.0000000E+000	-20.4114	0.0000000E+000	0.0000000E+000	0.0000000E+000	20.4114	2.68729	69.5886	0.000000000000000E+000	2.05281e-06	-1.75144e-10	2.05299e-06	3.78174	6.96563e+06	594.303	6.96623e+06
0.000497799	19.7165	8.51408	21.4763	-23.3559	20328.7	3.78142	0.000542868	3.75516e+07	5.90183e+06	1	11	0.00506716	0.000235942	0	-0.0351048	-0.000322628	7.86559e-07	14.275	0.0033337	0.00323076	-0.000822007	-23.3505	21.4789	19.7197	8.51326	0.0427477	0.0184595	0.046563	23.3559	5.90183e+09	1.36672e+10	1.4887e+10	-66.6441	0.0000000E+000	0.0000000E+000	0.0000000E+000	66.6441	0.0000000E+000	0.0000000E+000	0.0000000E+000	-66.6441	0.0000000E+000	0.0000000E+000	0.0000000E+000	-23.3559	0.0000000E+000	0.0000000E+000	0.0000000E+000	23.3559	2.31575	66.6441	0.000000000000000E+000	2.05281e-06	-1.75144e-10	2.05299e-06	3.78174	6.96563e+06	594.303	6.96623e+06
0.000298679	20.1387	11.7625	23.3222	-30.2883	20328.7	3.78142	0.000542868	4.53016e+07	1.15233e+07	1	11	0.00506775	0.000217293	0	-0.0351048	-0.000322628	1.11844e-06	52.5826	0.00514713	0.00312748	-0.00408801	-30.2757	23.3228	20.1418	11.7585	0.0370248	0.0216254	0.0428777	30.2883	1.15233e+10	1.97291e+10	2.28479e+10	-59.7117	0.0000000E+000	0.0000000E+000	0.0000000E+000	59.7117	0.0000000E+000	0.0000000E+000	0.0000000E+000	-59.7117	0.0000000E+000	0.0000000E+000	0.0000000E+000	-30.2883	0.0000000E+000	0.0000000E+000	0.0000000E+000	30.2883	1.7121	59.7117	0.000000000000000E+000	2.05281e-06	-1.75144e-10	2.05299e-06	3.78174	6.96563e+06	594.303	6.96623e+06
9.95598e-05	24.1252	36.0161	43.3496	-56.1841	20328.7	3.78142	0.000542868	4.43853e+07	3.06382e+07	1	11	0.00506797	0.000116909	0	-0.0351048	-0.000322628	2.12392e-06	-72.9592	0.0181672	0.00532393	0.0173696	-56.191	43.367	24.1305	36.0335	0.0128381	0.0191658	0.0230683	56.1841	3.06382e+10	2.05228e+10	3.68766e+10	-33.8159	0.0000000E+000	0.0000000E+000	0.0000000E+000	33.8159	0.0000000E+000	0.0000000E+000	0.0000000E+000	-33.8159	0.0000000E+000	0.0000000E+000	0.0000000E+000	-56.1841	0.0000000E+000	0.0000000E+000	0.0000000E+000	56.1841	0.669844	33.8159	0.000000000000000E+000	2.05281e-06	-1.75144e-10	2.05299e-06	3.78174	6.96563e+06	594.303	6.96623e+06