File: txt/17497_R280_UC81_SOC50_C05.mpt
EC-Lab ASCII FILE
Nb header lines : 64

Potentio Electrochemical Impedance Spectroscopy

Run on channel : 5 (SN 65912)
User :
CE vs. WE compliance from -10 V to 10 V
Electrode connection : standard
Potential control : Ewe
Ewe ctrl range : min = -10.00 V, max = 10.00 V
Safety Limits :
	Do not start on E overload
Acquisition started on : 09/15/2025 12:22:53.145
Loaded Setting File :  C:\Users\Celltest\OneDrive - store-dot.com\Documents\EC-Lab\Data\John\17495_R280-G001, UC81 half-cell.mps
Saved on :
	File : 17497_R280-G001, UC81 half-cell_C05.mpr
	Directory : C:\Users\Celltest\OneDrive - store-dot.com\Documents\EC-Lab\Data\John\
	Host : 169.254.61.224
Device : VMP-3e (SN .003165)
Address : USB
EC-LAB for windows v11.62 (software)
Internet server v27.00 (firmware)
Command interpretor v12.03 (firmware)
Electrode material :
Initial state :
Electrolyte :
Comments :
Electrode surface area : 0.001 cm²
Characteristic mass : 0.001 g
Equivalent Weight : 0.000 g/eq.
Density : 0.000 g/cm3
Volume (V) : 0.001 cm³
Record Ece
Cycle Definition : Charge/Discharge alternance
Mode                Multi sine
E (V)               0.0000
vs.                 Eoc
tE (h:m:s)          0:00:0.0000
record              0
dI                  0.000
unit dI             mA
dt (s)              0.000
fi                  1.000
unit fi             MHz
ff                  0.100
unit ff             mHz
Nd                  10
Points              per decade
spacing             Logarithmic
Va (mV)             5.0
pw                  0.10
Na                  2
corr                0
E range min (V)     -10.000
E range max (V)     10.000
I Range             Auto
Bandwidth           5
nc cycles           0
goto Ns'            0
nr cycles           0
inc. cycle          0

freq/Hz	Re(Z)/Ohm	-Im(Z)/Ohm	|Z|/Ohm	Phase(Z)/deg	time/s	<Ewe>/V	<I>/mA	Cs/µF	Cp/µF	cycle number	I Range	|Ewe|/V	|I|/A	Ns	(Q-Qo)/mA.h	<Ece>/V	|Ece|/V	Phase(Zce)/deg	|Zce|/Ohm	Re(Zce)/Ohm	-Im(Zce)/Ohm	Phase(Zwe-ce)/deg	|Zwe-ce|/Ohm	Re(Zwe-ce)/Ohm	-Im(Zwe-ce)/Ohm	Re(Y)/Ohm-1	Im(Y)/Ohm-1	|Y|/Ohm-1	Phase(Y)/deg	Re(C)/nF	Im(C)/nF	|C|/nF	Phase(C)/deg	Re(M)	Im(M)	|M|	Phase(M)/deg	Re(Permittivity)	Im(Permittivity)	|Permittivity|	Phase(Permittivity)/deg	Re(Resistivity)/Ohm.cm	Im(Resistivity)/Ohm.cm	|Resistivity|/Ohm.cm	Phase(Resistivity)/deg	Re(Conductivity)/mS/cm	Im(Conductivity)/mS/cm	|Conductivity|/mS/cm	Phase(Conductivity)/deg	Tan(Delta)	Loss Angle(Delta)/deg	dq/mA.h	Pwe/W	Pce/W	Pwe-ce/W	<Ewe-Ece>/V	Rwe/Ohm	Rce/Ohm	Rwe-ce/Ohm		Ewe-Ece/V
1.00002e+06	1.02192	-0.269608	1.05688	14.7794	2.69354	3.78587	0.171021	-0.590309	-0.0384142	1	9	0.000227154	0.000214928	0	4.46815e-05	0.000265815	0.000190277	-1.26985	0.885304	0.885087	0.0196195	7.4683	1.92332	1.907	-0.249989	0.914875	-0.241368	0.946179	-14.7794	-38.4142	145.604	150.586	-104.779	0.0000000E+000	0.0000000E+000	0.0000000E+000	104.779	0.0000000E+000	0.0000000E+000	0.0000000E+000	-104.779	0.0000000E+000	0.0000000E+000	0.0000000E+000	14.7794	0.0000000E+000	0.0000000E+000	0.0000000E+000	-14.7794	3.79038	75.2206	4.46815e-05	0.000647462	4.54599e-08	0.000647416	3.7856	22136.9	1.55429	22135.3
630957	0.656926	-0.00211857	0.656929	0.184777	3.45956	3.78474	0.0546092	-119.063	-0.0012383	1	9	0.000244407	0.000372045	0	5.9198e-05	9.39943e-05	0.00011407	-101.6	0.306603	-0.061651	0.300341	-26.6101	0.665799	0.595275	0.298222	1.52223	-0.00490915	1.52223	-0.184777	-1.2383	383.972	383.974	-90.1848	0.0000000E+000	0.0000000E+000	0.0000000E+000	90.1848	0.0000000E+000	0.0000000E+000	0.0000000E+000	-90.1848	0.0000000E+000	0.0000000E+000	0.0000000E+000	0.184777	0.0000000E+000	0.0000000E+000	0.0000000E+000	-0.184777	310.079	89.8152	5.759e-06	0.000206682	5.13295e-09	0.000206676	3.78464	69305.9	1.72122	69304.1
398103	0.930951	0.00930429	0.930998	-0.572617	4.22553	3.7845	0.025227	42.9676	0.00429151	1	9	0.00097442	0.00104664	0	6.73345e-05	0.000151268	3.894e-05	-173.86	0.0372048	-0.0369914	0.00397966	-0.851334	0.894059	0.89396	0.013284	1.07406	0.0107346	1.07412	0.572617	4.2915	429.392	429.413	-89.4274	0.0000000E+000	0.0000000E+000	0.0000000E+000	89.4274	0.0000000E+000	0.0000000E+000	0.0000000E+000	-89.4274	0.0000000E+000	0.0000000E+000	0.0000000E+000	-0.572617	0.0000000E+000	0.0000000E+000	0.0000000E+000	0.572617	100.056	89.4274	3.07794e-06	9.54717e-05	3.81604e-09	9.54679e-05	3.78435	150018	5.99626	150012
251206	1.05206	0.116465	1.05849	-6.31705	4.99152	3.78428	-0.00478822	5.43993	0.0658591	1	9	0.0029206	0.00275923	0	6.87402e-05	-5.87355e-05	4.84118e-05	92.7607	0.0175454	-0.000845069	-0.0175251	-5.37683	1.05586	1.05121	0.0989402	0.939009	0.10395	0.944745	6.31705	65.8591	594.921	598.556	-83.683	0.0000000E+000	0.0000000E+000	0.0000000E+000	83.683	0.0000000E+000	0.0000000E+000	0.0000000E+000	-83.683	0.0000000E+000	0.0000000E+000	0.0000000E+000	-6.31705	0.0000000E+000	0.0000000E+000	0.0000000E+000	6.31705	9.03325	83.683	2.31608e-06	-1.812e-05	2.81238e-10	-1.81202e-05	3.78434	790332	12.2667	790344
158486	1.12549	0.177381	1.13938	-8.95629	5.63354	3.78411	-0.00672464	5.66139	0.137213	1	9	0.00524673	0.00460488	0	6.30707e-05	5.58118e-05	5.07875e-05	88.2163	0.0110291	0.000343297	-0.0110237	-8.40537	1.13806	1.12584	0.166357	0.866966	0.136636	0.877667	8.95629	137.213	870.624	881.37	-81.0437	0.0000000E+000	0.0000000E+000	0.0000000E+000	81.0437	0.0000000E+000	0.0000000E+000	0.0000000E+000	-81.0437	0.0000000E+000	0.0000000E+000	0.0000000E+000	-8.95629	0.0000000E+000	0.0000000E+000	0.0000000E+000	8.95629	6.34508	81.0437	-6.82886e-06	-2.54468e-05	-3.75315e-10	-2.54464e-05	3.78405	562722	8.2996	562714
100004	1.18869	0.211172	1.2073	-10.0736	6.40154	3.78405	-0.0120499	7.53648	0.230574	1	9	0.00533609	0.00441986	0	5.04988e-05	-0.000192374	4.13919e-05	87.8453	0.00936497	0.000352106	-0.00935835	-9.6329	1.20604	1.18904	0.201813	0.815527	0.144879	0.828296	10.0736	230.574	1297.9	1318.22	-79.9264	0.0000000E+000	0.0000000E+000	0.0000000E+000	79.9264	0.0000000E+000	0.0000000E+000	0.0000000E+000	-79.9264	0.0000000E+000	0.0000000E+000	0.0000000E+000	-10.0736	0.0000000E+000	0.0000000E+000	0.0000000E+000	10.0736	5.62901	79.9264	-8.16378e-06	-4.55976e-05	2.3181e-09	-4.55999e-05	3.78424	314030	15.9647	314046
63093.8	1.2504	0.25243	1.27563	-11.4134	7.16953	3.78404	-0.0151409	9.99292	0.391314	1	9	0.00533025	0.00417852	0	6.09942e-05	-9.69179e-05	2.40939e-05	90.3972	0.00576612	-3.99736e-05	-0.00576598	-11.1597	1.27446	1.25036	0.246664	0.768425	0.155129	0.783927	11.4134	391.314	1938.36	1977.47	-78.5866	0.0000000E+000	0.0000000E+000	0.0000000E+000	78.5866	0.0000000E+000	0.0000000E+000	0.0000000E+000	-78.5866	0.0000000E+000	0.0000000E+000	0.0000000E+000	-11.4134	0.0000000E+000	0.0000000E+000	0.0000000E+000	11.4134	4.95347	78.5866	9.33361e-06	-5.72937e-05	1.46742e-09	-5.72951e-05	3.78414	249923	6.40108	249929
39814.1	1.31667	0.310645	1.35282	-13.2751	7.93556	3.78403	-0.011752	12.8682	0.678527	1	9	0.00540228	0.00399334	0	7.18052e-05	0.000170359	2.30516e-05	83.7457	0.00577251	0.000628865	-0.00573816	-13.0324	1.35213	1.3173	0.304907	0.719443	0.16974	0.739195	13.2751	678.527	2875.94	2954.9	-76.7249	0.0000000E+000	0.0000000E+000	0.0000000E+000	76.7249	0.0000000E+000	0.0000000E+000	0.0000000E+000	-76.7249	0.0000000E+000	0.0000000E+000	0.0000000E+000	-13.2751	0.0000000E+000	0.0000000E+000	0.0000000E+000	13.2751	4.23851	76.7249	7.30992e-06	-4.447e-05	-2.00207e-09	-4.4468e-05	3.78385	321989	14.4961	321975
25116.9	1.40679	0.382165	1.45777	-15.198	8.70152	3.78402	-0.0152898	16.5807	1.13953	1	9	0.00526392	0.00361093	0	7.98241e-05	-2.0553e-05	1.2962e-05	44.65	0.00358967	0.00255374	-0.00252273	-15.0762	1.45958	1.40934	0.379642	0.661986	0.179833	0.685977	15.198	1139.52	4194.71	4346.74	-74.802	0.0000000E+000	0.0000000E+000	0.0000000E+000	74.802	0.0000000E+000	0.0000000E+000	0.0000000E+000	-74.802	0.0000000E+000	0.0000000E+000	0.0000000E+000	-15.198	0.0000000E+000	0.0000000E+000	0.0000000E+000	15.198	3.68111	74.802	-2.73188e-06	-5.78569e-05	3.14252e-10	-5.78573e-05	3.78404	247486	1.34423	247487
15847.7	1.5133	0.465294	1.58322	-17.091	9.21956	3.78402	-0.0132416	21.5837	1.86423	1	9	0.0049187	0.00310677	0	8.05622e-05	0.000227633	7.47164e-06	32.9116	0.00240496	0.00201898	-0.00130672	-17.0244	1.58477	1.51532	0.463987	0.60373	0.185628	0.631624	17.091	1864.23	6063.14	6343.26	-72.909	0.0000000E+000	0.0000000E+000	0.0000000E+000	72.909	0.0000000E+000	0.0000000E+000	0.0000000E+000	-72.909	0.0000000E+000	0.0000000E+000	0.0000000E+000	-17.091	0.0000000E+000	0.0000000E+000	0.0000000E+000	17.091	3.25236	72.909	1.0969e-06	-5.01066e-05	-3.01423e-09	-5.01036e-05	3.78379	285766	17.1907	285749
10002.2	1.64889	0.56816	1.74403	-19.0124	9.86156	3.78403	-0.0125713	28.0061	2.97225	1	9	0.00497526	0.00285274	0	7.90018e-05	-3.96442e-05	7.34845e-06	32.2015	0.00257593	0.0021797	-0.00137271	-18.9465	1.74565	1.65107	0.566787	0.542105	0.186793	0.573384	19.0124	2972.25	8625.94	9123.66	-70.9876	0.0000000E+000	0.0000000E+000	0.0000000E+000	70.9876	0.0000000E+000	0.0000000E+000	0.0000000E+000	-70.9876	0.0000000E+000	0.0000000E+000	0.0000000E+000	-19.0124	0.0000000E+000	0.0000000E+000	0.0000000E+000	19.0124	2.90216	70.9876	1.09044e-06	-4.75703e-05	4.98381e-10	-4.75708e-05	3.78407	301005	3.15354	301008
6309.38	1.8062	0.684263	1.93147	-20.7488	10.3816	3.78402	-0.00974111	36.8646	4.6268	1	9	0.00465397	0.00240955	0	8.12839e-05	3.67206e-05	7.96412e-06	-106.047	0.00330524	-0.000913653	0.00317645	-20.8465	1.93174	1.80529	0.68744	0.484161	0.18342	0.51774	20.7488	4626.8	12213	13060.1	-69.2512	0.0000000E+000	0.0000000E+000	0.0000000E+000	69.2512	0.0000000E+000	0.0000000E+000	0.0000000E+000	-69.2512	0.0000000E+000	0.0000000E+000	0.0000000E+000	-20.7488	0.0000000E+000	0.0000000E+000	0.0000000E+000	20.7488	2.63963	69.2512	1.51552e-06	-3.68605e-05	-3.577e-10	-3.68602e-05	3.78398	388458	3.76965	388454
3983.6	2.0105	0.818362	2.17067	-22.1485	10.9441	3.78384	-0.116843	48.8201	6.93906	1	9	0.0045231	0.00208373	0	7.27284e-05	0.000303998	5.74049e-06	-27.4189	0.00275491	0.00244544	0.00126862	-22.1552	2.17342	2.01295	0.819631	0.426692	0.173683	0.460686	22.1485	6939.06	17047.4	18405.6	-67.8515	0.0000000E+000	0.0000000E+000	0.0000000E+000	67.8515	0.0000000E+000	0.0000000E+000	0.0000000E+000	-67.8515	0.0000000E+000	0.0000000E+000	0.0000000E+000	-22.1485	0.0000000E+000	0.0000000E+000	0.0000000E+000	22.1485	2.45674	67.8515	-7.48824e-06	-0.000442115	-3.55199e-08	-0.000442079	3.78354	32384	2.60177	32381.4
2510.8	2.2426	0.981925	2.44815	-23.6463	11.9458	3.78397	0.00865533	64.5549	10.3851	1	9	0.0049536	0.00202341	0	5.71888e-05	0.000208542	6.85959e-06	-36.1923	0.00339012	0.00273596	0.00200186	-23.6635	2.45146	2.24534	0.983927	0.374176	0.163834	0.408472	23.6463	10385.1	23718.3	25892.2	-66.3537	0.0000000E+000	0.0000000E+000	0.0000000E+000	66.3537	0.0000000E+000	0.0000000E+000	0.0000000E+000	-66.3537	0.0000000E+000	0.0000000E+000	0.0000000E+000	-23.6463	0.0000000E+000	0.0000000E+000	0.0000000E+000	23.6463	2.28388	66.3537	1.99648e-06	3.27515e-05	1.805e-09	3.27497e-05	3.78376	437184	24.094	437160
1585.51	2.52496	1.15875	2.77815	-24.6513	12.8478	3.78397	0.0139806	86.6284	15.0706	1	9	0.00491587	0.00176947	0	5.9223e-05	-0.000211465	9.44967e-06	37.0632	0.00534038	0.00426147	-0.00321863	-24.5544	2.78069	2.52922	1.15554	0.327146	0.150134	0.359951	24.6513	15070.6	32839.3	36132.3	-65.3487	0.0000000E+000	0.0000000E+000	0.0000000E+000	65.3487	0.0000000E+000	0.0000000E+000	0.0000000E+000	-65.3487	0.0000000E+000	0.0000000E+000	0.0000000E+000	-24.6513	0.0000000E+000	0.0000000E+000	0.0000000E+000	24.6513	2.17903	65.3487	4.95983e-08	5.29022e-05	-2.95641e-09	5.29052e-05	3.78418	270658	15.1256	270673
1000.32	2.84902	1.39683	3.17302	-26.1181	13.7498	3.78397	0.009847	113.903	22.074	1	9	0.004895	0.00154269	0	6.04149e-05	0.000132177	5.88215e-06	22.9187	0.0038129	0.00351191	-0.00148484	-26.0661	3.17552	2.85253	1.39535	0.282976	0.138739	0.315157	26.1181	22074	45022.6	50142.8	-63.8819	0.0000000E+000	0.0000000E+000	0.0000000E+000	63.8819	0.0000000E+000	0.0000000E+000	0.0000000E+000	-63.8819	0.0000000E+000	0.0000000E+000	0.0000000E+000	-26.1181	0.0000000E+000	0.0000000E+000	0.0000000E+000	26.1181	2.03962	63.8819	-1.02572e-07	3.72607e-05	1.30154e-09	3.72594e-05	3.78383	384276	13.423	384263
631.01	3.24258	1.66712	3.64605	-27.2092	14.8975	3.78395	-0.0292272	151.292	31.6306	1	10	0.0049429	0.00135569	0	5.2292e-05	7.49031e-05	1.28192e-05	-73.2969	0.00945589	0.00271775	0.00905691	-27.3161	3.65261	3.2453	1.67618	0.24392	0.125407	0.27427	27.2092	31630.6	61522.1	69177	-62.7908	0.0000000E+000	0.0000000E+000	0.0000000E+000	62.7908	0.0000000E+000	0.0000000E+000	0.0000000E+000	-62.7908	0.0000000E+000	0.0000000E+000	0.0000000E+000	-27.2092	0.0000000E+000	0.0000000E+000	0.0000000E+000	27.2092	1.94502	62.7908	-4.33433e-06	-0.000110594	-2.18921e-09	-0.000110592	3.78387	129467	2.56279	129464
398.089	3.78269	1.99351	4.27584	-27.7897	15.7988	3.78396	-0.027641	200.549	43.5929	1	10	0.00490275	0.00114662	0	4.60533e-05	-5.87355e-05	1.80062e-05	34.902	0.0157037	0.0128792	-0.00898527	-27.603	4.28307	3.79556	1.98453	0.206898	0.109038	0.233872	27.7897	43592.9	82717.4	93501.4	-62.2103	0.0000000E+000	0.0000000E+000	0.0000000E+000	62.2103	0.0000000E+000	0.0000000E+000	0.0000000E+000	-62.2103	0.0000000E+000	0.0000000E+000	0.0000000E+000	-27.7897	0.0000000E+000	0.0000000E+000	0.0000000E+000	27.7897	1.8975	62.2103	-2.55417e-06	-0.000104592	1.62351e-09	-0.000104594	3.78402	136897	2.12494	136899
251.044	4.52306	2.29207	5.07067	-26.8737	16.697	3.78396	-0.0288064	276.593	56.5155	1	10	0.0048966	0.000965671	0	3.85739e-05	9.39943e-05	8.34265e-06	-91.9109	0.00863922	-0.000288072	0.00863442	-26.9621	5.07432	4.52277	2.30071	0.175915	0.0891451	0.197213	26.8737	56515.5	111525	125027	-63.1263	0.0000000E+000	0.0000000E+000	0.0000000E+000	63.1263	0.0000000E+000	0.0000000E+000	0.0000000E+000	-63.1263	0.0000000E+000	0.0000000E+000	0.0000000E+000	-26.8737	0.0000000E+000	0.0000000E+000	0.0000000E+000	26.8737	1.97335	63.1263	-3.30041e-06	-0.000109002	-2.70764e-09	-0.000109	3.78386	131358	3.26296	131355
158.428	5.41495	2.43499	5.93724	-24.2124	17.6018	3.78396	-0.0270639	412.563	69.3927	1	10	0.00488604	0.000822947	0	3.0949e-05	1.76294e-05	8.5117e-06	-4.76727	0.0103429	0.0103072	0.000859587	-24.1792	5.947	5.42526	2.43585	0.153612	0.0690759	0.168428	24.2124	69392.7	154316	169201	-65.7876	0.0000000E+000	0.0000000E+000	0.0000000E+000	65.7876	0.0000000E+000	0.0000000E+000	0.0000000E+000	-65.7876	0.0000000E+000	0.0000000E+000	0.0000000E+000	-24.2124	0.0000000E+000	0.0000000E+000	0.0000000E+000	24.2124	2.22381	65.7876	-3.45171e-06	-0.000102409	-4.7712e-10	-0.000102408	3.78394	139816	0.6514	139815
100.032	6.34263	2.33835	6.75995	-20.2375	18.5008	3.78395	-0.0270527	680.411	81.415	1	10	0.00488037	0.000721954	0	2.42941e-05	-0.0001351	6.5062e-06	77.9571	0.00901192	0.00188029	-0.00881359	-20.1619	6.75867	6.34451	2.32954	0.138798	0.0511709	0.14793	20.2375	81415	220833	235363	-69.7625	0.0000000E+000	0.0000000E+000	0.0000000E+000	69.7625	0.0000000E+000	0.0000000E+000	0.0000000E+000	-69.7625	0.0000000E+000	0.0000000E+000	0.0000000E+000	-20.2375	0.0000000E+000	0.0000000E+000	0.0000000E+000	20.2375	2.71244	69.7625	-4.07596e-06	-0.000102366	3.65483e-09	-0.00010237	3.78409	139873	4.99396	139878
63.0823	7.12354	2.04003	7.4099	-15.9806	19.417	3.78395	-0.0252506	1236.73	93.7399	1	10	0.00487399	0.000657767	0	1.8055e-05	-0.000154192	9.71025e-06	-19.5078	0.0147624	0.013915	0.00492969	-15.9876	7.42463	7.13746	2.04496	0.129739	0.0371545	0.134955	15.9806	93739.9	327329	340487	-74.0194	0.0000000E+000	0.0000000E+000	0.0000000E+000	74.0194	0.0000000E+000	0.0000000E+000	0.0000000E+000	-74.0194	0.0000000E+000	0.0000000E+000	0.0000000E+000	-15.9806	0.0000000E+000	0.0000000E+000	0.0000000E+000	15.9806	3.49188	74.0194	-2.96623e-06	-9.5547e-05	3.89343e-09	-9.55509e-05	3.78411	149856	6.10645	149862
39.8089	7.72963	1.64498	7.90273	-12.0142	20.3179	3.78395	-0.027332	2430.4	105.305	1	10	0.00487049	0.000616305	0	1.29785e-05	9.39943e-05	8.48214e-06	-64.061	0.0137629	0.00602009	0.0123764	-12.0928	7.9112	7.73565	1.65736	0.123767	0.0263395	0.126539	12.0142	105305	494817	505898	-77.9858	0.0000000E+000	0.0000000E+000	0.0000000E+000	77.9858	0.0000000E+000	0.0000000E+000	0.0000000E+000	-77.9858	0.0000000E+000	0.0000000E+000	0.0000000E+000	-12.0142	0.0000000E+000	0.0000000E+000	0.0000000E+000	12.0142	4.69891	77.9858	-2.66164e-06	-0.000103423	-2.56905e-09	-0.00010342	3.78385	138444	3.43898	138440
25.1044	8.13789	1.23487	8.23105	-8.62844	21.1961	3.78395	-0.0280692	5133.9	115.553	1	10	0.00487343	0.000592079	0	5.97151e-06	-3.96442e-05	8.84748e-06	34.4085	0.0149431	0.0123285	-0.00844418	-8.55755	8.24198	8.15022	1.22643	0.120116	0.0182268	0.121491	8.62844	115553	761502	770219	-81.3716	0.0000000E+000	0.0000000E+000	0.0000000E+000	81.3716	0.0000000E+000	0.0000000E+000	0.0000000E+000	-81.3716	0.0000000E+000	0.0000000E+000	0.0000000E+000	-8.62844	0.0000000E+000	0.0000000E+000	0.0000000E+000	8.62844	6.59007	81.3716	-3.42606e-06	-0.000106213	1.11278e-09	-0.000106214	3.78399	134808	1.41237	134809
15.8576	8.38255	0.917581	8.43262	-6.24691	22.074	3.78395	-0.0316362	10938	129.51	1	10	0.00487748	0.000578406	0	1.51189e-06	-3.96442e-05	6.43795e-06	-31.2905	0.0111305	0.00951152	0.00578094	-6.27888	8.44271	8.39206	0.923362	0.117883	0.0129038	0.118587	6.24691	129510	1.18313e+06	1.1902e+06	-83.7531	0.0000000E+000	0.0000000E+000	0.0000000E+000	83.7531	0.0000000E+000	0.0000000E+000	0.0000000E+000	-83.7531	0.0000000E+000	0.0000000E+000	0.0000000E+000	-6.24691	0.0000000E+000	0.0000000E+000	0.0000000E+000	6.24691	9.13549	83.7531	-1.99318e-06	-0.00011971	1.25419e-09	-0.000119711	3.78399	119608	1.25313	119609
10.0032	8.52639	0.696525	8.55479	-4.67015	23.0559	3.78395	-0.0273692	22842.5	151.425	1	10	0.00487541	0.000569904	0	-7.5534e-06	5.58118e-05	4.32062e-06	-57.8992	0.00758132	0.00402879	0.00642224	-4.7108	8.55933	8.53042	0.702947	0.116505	0.00951738	0.116894	4.67015	151425	1.85365e+06	1.85982e+06	-85.3298	0.0000000E+000	0.0000000E+000	0.0000000E+000	85.3298	0.0000000E+000	0.0000000E+000	0.0000000E+000	-85.3298	0.0000000E+000	0.0000000E+000	0.0000000E+000	-4.67015	0.0000000E+000	0.0000000E+000	0.0000000E+000	4.67015	12.2413	85.3298	-2.99925e-06	-0.000103564	-1.52753e-09	-0.000103562	3.7839	138256	2.03922	138254
6.31058	8.60498	0.540055	8.62191	-3.59121	23.9803	3.78393	-0.0404496	46699.6	183.224	1	10	0.00486586	0.000564359	0	-1.11857e-05	0.000113085	6.67306e-06	-24.6942	0.0118241	0.0107428	0.00493984	-3.61947	8.63294	8.61572	0.544995	0.115756	0.00726492	0.115984	3.59121	183224	2.9194e+06	2.92514e+06	-86.4088	0.0000000E+000	0.0000000E+000	0.0000000E+000	86.4088	0.0000000E+000	0.0000000E+000	0.0000000E+000	-86.4088	0.0000000E+000	0.0000000E+000	0.0000000E+000	-3.59121	0.0000000E+000	0.0000000E+000	0.0000000E+000	3.59121	15.9335	86.4088	3.27809e-07	-0.000153058	-4.57426e-09	-0.000153054	3.78381	93546.8	2.79572	93544
3.97785	8.71214	0.449826	8.72374	-2.95568	25.2833	3.78399	-0.0129703	88946.2	236.489	1	11	0.00487673	0.000559019	0	-2.40414e-05	-1.46181e-06	9.49213e-06	-114.565	0.01698	-0.00705909	0.0154431	-3.05943	8.7175	8.70508	0.465269	0.114477	0.0059107	0.11463	2.95568	236488	4.58026e+06	4.58637e+06	-87.0443	0.0000000E+000	0.0000000E+000	0.0000000E+000	87.0443	0.0000000E+000	0.0000000E+000	0.0000000E+000	-87.0443	0.0000000E+000	0.0000000E+000	0.0000000E+000	-2.95568	0.0000000E+000	0.0000000E+000	0.0000000E+000	2.95568	19.3678	87.0443	-4.69799e-06	-4.90796e-05	1.89601e-11	-4.90796e-05	3.78399	291741	0.112704	291741
2.51367	8.78976	0.420333	8.79981	-2.73784	26.843	3.784	-0.0113618	150632	343.683	1	11	0.00487575	0.000554074	0	-2.14414e-05	-0.000154192	4.00672e-06	85.0626	0.00723138	0.000622391	-0.00720455	-2.69079	8.80009	8.79038	0.413128	0.113509	0.00542809	0.113639	2.73784	343683	7.18691e+06	7.19512e+06	-87.2622	0.0000000E+000	0.0000000E+000	0.0000000E+000	87.2622	0.0000000E+000	0.0000000E+000	0.0000000E+000	-87.2622	0.0000000E+000	0.0000000E+000	0.0000000E+000	-2.73784	0.0000000E+000	0.0000000E+000	0.0000000E+000	2.73784	20.9114	87.2622	-2.27841e-06	-4.2993e-05	1.75189e-09	-4.29947e-05	3.78415	333046	13.5711	333060
1.58469	8.87015	0.40474	8.87938	-2.61256	29.2773	3.78398	-0.0112717	248142	515.571	1	11	0.00487459	0.000548979	0	-4.89691e-05	5.58118e-05	2.90313e-06	-66.4669	0.00528824	0.00211148	0.00484842	-2.64319	8.88171	8.87226	0.409588	0.112503	0.00513347	0.112621	2.61256	515571	1.12991e+07	1.13108e+07	-87.3874	0.0000000E+000	0.0000000E+000	0.0000000E+000	87.3874	0.0000000E+000	0.0000000E+000	0.0000000E+000	-87.3874	0.0000000E+000	0.0000000E+000	0.0000000E+000	-2.61256	0.0000000E+000	0.0000000E+000	0.0000000E+000	2.61256	21.9157	87.3874	-1.52585e-05	-4.26518e-05	-6.29092e-10	-4.26512e-05	3.78393	335708	4.95152	335703
1.00469	9.03573	0.439537	9.04642	-2.78492	240.094	3.78397	-0.0133501	360405	850.803	1	11	0.00507488	0.000560982	0	-0.00297355	3.67206e-05	7.4713e-07	-0.00436791	0.00133182	0.00133182	1.01531e-07	-2.78451	9.04775	9.03706	0.439537	0.11041	0.00537085	0.110541	2.78492	850803	1.74903e+07	1.7511e+07	-87.2151	0.0000000E+000	0.0000000E+000	0.0000000E+000	87.2151	0.0000000E+000	0.0000000E+000	0.0000000E+000	-87.2151	0.0000000E+000	0.0000000E+000	0.0000000E+000	-2.78492	0.0000000E+000	0.0000000E+000	0.0000000E+000	2.78492	20.5574	87.2151	-0.00291596	-5.05165e-05	-4.90226e-10	-5.0516e-05	3.78393	283440	2.75058	283438
0.632957	9.14544	0.484093	9.15825	-3.03	240.094	3.78397	-0.0133501	519418	1451.28	1	11	0.0050892	0.000555696	0	-0.00297355	3.67206e-05	8.97881e-07	-3.08669	0.00161578	0.00161343	8.70046e-05	-3.03001	9.15986	9.14706	0.48418	0.109039	0.00577171	0.109191	3.03	1.45128e+06	2.74174e+07	2.74558e+07	-86.97	0.0000000E+000	0.0000000E+000	0.0000000E+000	86.97	0.0000000E+000	0.0000000E+000	0.0000000E+000	-86.97	0.0000000E+000	0.0000000E+000	0.0000000E+000	-3.03	0.0000000E+000	0.0000000E+000	0.0000000E+000	3.03	18.8919	86.97	0.000000000000000E+000	-5.05165e-05	-4.90226e-10	-5.0516e-05	3.78393	283440	2.75058	283438
0.401878	9.22086	0.569449	9.23842	-3.53391	240.095	3.78397	-0.0133501	695459	2642.32	1	11	0.00510232	0.000552293	0	-0.00297355	3.67206e-05	7.03655e-07	-4.70383	0.00127406	0.00126977	0.000104479	-3.53407	9.2397	9.22213	0.569553	0.108038	0.00667205	0.108244	3.53391	2.64232e+06	4.2786e+07	4.28675e+07	-86.4661	0.0000000E+000	0.0000000E+000	0.0000000E+000	86.4661	0.0000000E+000	0.0000000E+000	0.0000000E+000	-86.4661	0.0000000E+000	0.0000000E+000	0.0000000E+000	-3.53391	0.0000000E+000	0.0000000E+000	0.0000000E+000	3.53391	16.1926	86.4661	0.000000000000000E+000	-5.05165e-05	-4.90226e-10	-5.0516e-05	3.78393	283440	2.75058	283438
0.251173	9.38029	0.674211	9.40449	-4.11108	240.095	3.78397	-0.0133501	939833	4830.27	1	11	0.00510377	0.000542695	0	-0.00297355	3.67206e-05	8.30628e-07	0.928272	0.00153056	0.00153036	-2.47962e-05	-4.11026	9.40602	9.38182	0.674186	0.106059	0.00762299	0.106332	4.11108	4.83027e+06	6.72035e+07	6.73769e+07	-85.8889	0.0000000E+000	0.0000000E+000	0.0000000E+000	85.8889	0.0000000E+000	0.0000000E+000	0.0000000E+000	-85.8889	0.0000000E+000	0.0000000E+000	0.0000000E+000	-4.11108	0.0000000E+000	0.0000000E+000	0.0000000E+000	4.11108	13.913	85.8889	0.000000000000000E+000	-5.05165e-05	-4.90226e-10	-5.0516e-05	3.78393	283440	2.75058	283438
0.160751	9.52063	0.791718	9.5535	-4.75368	240.095	3.78397	-0.0133501	1.25053e+06	8588.41	1	11	0.00509595	0.000533412	0	-0.00297355	3.67206e-05	4.55748e-07	4.01686	0.000854402	0.000852303	-5.98509e-05	-4.75289	9.55434	9.52149	0.791659	0.104314	0.00867454	0.104674	4.75368	8.58841e+06	1.03278e+08	1.03634e+08	-85.2463	0.0000000E+000	0.0000000E+000	0.0000000E+000	85.2463	0.0000000E+000	0.0000000E+000	0.0000000E+000	-85.2463	0.0000000E+000	0.0000000E+000	0.0000000E+000	-4.75368	0.0000000E+000	0.0000000E+000	0.0000000E+000	4.75368	12.0253	85.2463	0.000000000000000E+000	-5.05165e-05	-4.90226e-10	-5.0516e-05	3.78393	283440	2.75058	283438
0.100469	9.64735	1.14721	9.71532	-6.78148	240.096	3.78397	-0.0133501	1.38084e+06	19253.8	1	11	0.00509822	0.000524761	0	-0.00297355	3.67206e-05	4.7005e-07	-20.3415	0.00089574	0.00083988	0.000311372	-6.78271	9.71619	9.64819	1.14752	0.10221	0.0121543	0.10293	6.78148	1.92538e+07	1.61912e+08	1.63053e+08	-83.2185	0.0000000E+000	0.0000000E+000	0.0000000E+000	83.2185	0.0000000E+000	0.0000000E+000	0.0000000E+000	-83.2185	0.0000000E+000	0.0000000E+000	0.0000000E+000	-6.78148	0.0000000E+000	0.0000000E+000	0.0000000E+000	6.78148	8.40938	83.2185	0.000000000000000E+000	-5.05165e-05	-4.90226e-10	-5.0516e-05	3.78393	283440	2.75058	283438
0.0602816	9.91167	1.46422	10.0192	-8.40336	240.096	3.78397	-0.0133501	1.80313e+06	38509.9	1	11	0.00509369	0.00050839	0	-0.00297355	3.67206e-05	4.45319e-07	-4.52073	0.000875939	0.000873213	6.90413e-05	-8.40302	10.0201	9.91255	1.46429	0.0987364	0.014586	0.099808	8.40336	3.85099e+07	2.60683e+08	2.63512e+08	-81.5966	0.0000000E+000	0.0000000E+000	0.0000000E+000	81.5966	0.0000000E+000	0.0000000E+000	0.0000000E+000	-81.5966	0.0000000E+000	0.0000000E+000	0.0000000E+000	-8.40336	0.0000000E+000	0.0000000E+000	0.0000000E+000	8.40336	6.76924	81.5966	0.000000000000000E+000	-5.05165e-05	-4.90226e-10	-5.0516e-05	3.78393	283440	2.75058	283438
0.0401878	10.396	1.84154	10.5579	-10.0451	240.097	3.78397	-0.0133501	2.15052e+06	65427	1	11	0.00509347	0.000482434	0	-0.00297355	3.67206e-05	3.83315e-07	5.74874	0.000794544	0.000790548	-7.95865e-05	-10.044	10.5586	10.3968	1.84147	0.0932642	0.0165208	0.0947162	10.0451	6.5427e+07	3.69353e+08	3.75103e+08	-79.9549	0.0000000E+000	0.0000000E+000	0.0000000E+000	79.9549	0.0000000E+000	0.0000000E+000	0.0000000E+000	-79.9549	0.0000000E+000	0.0000000E+000	0.0000000E+000	-10.0451	0.0000000E+000	0.0000000E+000	0.0000000E+000	10.0451	5.64527	79.9549	0.000000000000000E+000	-5.05165e-05	-4.90226e-10	-5.0516e-05	3.78393	283440	2.75058	283438
0.0200939	11.3575	2.97121	11.7397	-14.6604	240.097	3.78397	-0.0133501	2.66578e+06	170755	1	11	0.00509498	0.000433995	0	-0.00297355	3.67206e-05	8.8679e-07	-74.4613	0.00204332	0.000547383	0.00196863	-14.669	11.7408	11.3581	2.97318	0.0824076	0.0215584	0.0851808	14.6604	1.70755e+08	6.52715e+08	6.74681e+08	-75.3396	0.0000000E+000	0.0000000E+000	0.0000000E+000	75.3396	0.0000000E+000	0.0000000E+000	0.0000000E+000	-75.3396	0.0000000E+000	0.0000000E+000	0.0000000E+000	-14.6604	0.0000000E+000	0.0000000E+000	0.0000000E+000	14.6604	3.82253	75.3396	0.000000000000000E+000	-5.05165e-05	-4.90226e-10	-5.0516e-05	3.78393	283440	2.75058	283438
0.00796479	13.9302	3.77883	14.4336	-15.1773	20329	3.78398	-0.0001285	5.28796e+06	362454	1	11	0.00508764	0.000352485	0	-0.0163136	0.000113085	2.19985e-07	-126.052	0.000624096	-0.000367295	0.00050457	-15.1797	14.4334	13.9298	3.77934	0.0668661	0.0181387	0.0692826	15.1773	3.62454e+08	1.33614e+09	1.38443e+09	-74.8227	0.0000000E+000	0.0000000E+000	0.0000000E+000	74.8227	0.0000000E+000	0.0000000E+000	0.0000000E+000	-74.8227	0.0000000E+000	0.0000000E+000	0.0000000E+000	-15.1773	0.0000000E+000	0.0000000E+000	0.0000000E+000	15.1773	3.68637	74.8227	-0.0133401	-4.86241e-07	-1.45315e-11	-4.86227e-07	3.78387	2.94473e+07	880.043	2.94464e+07
0.00497799	15.4846	3.9471	15.9798	-14.3004	20329	3.78398	-0.0001285	8.10004e+06	494201	1	11	0.00509621	0.000318917	0	-0.0163136	0.000113085	3.65847e-07	-50.7747	0.00114715	0.000725428	0.00088866	-14.3029	15.9807	15.4853	3.94799	0.06064	0.0154574	0.0625791	14.3004	4.94201e+08	1.93877e+09	2.00076e+09	-75.6996	0.0000000E+000	0.0000000E+000	0.0000000E+000	75.6996	0.0000000E+000	0.0000000E+000	0.0000000E+000	-75.6996	0.0000000E+000	0.0000000E+000	0.0000000E+000	-14.3004	0.0000000E+000	0.0000000E+000	0.0000000E+000	14.3004	3.92303	75.6996	0.000000000000000E+000	-4.86241e-07	-1.45315e-11	-4.86227e-07	3.78387	2.94473e+07	880.043	2.94464e+07
0.00318591	16.3305	4.78666	17.0176	-16.3364	20329	3.78398	-0.0001285	1.04365e+07	825699	1	11	0.00509872	0.000299615	0	-0.0163136	0.000113085	2.29608e-07	-44.0308	0.000766345	0.000550977	0.000532644	-16.3376	17.0183	16.3311	4.78719	0.0563903	0.0165286	0.0587627	16.3364	8.25699e+08	2.81702e+09	2.93554e+09	-73.6636	0.0000000E+000	0.0000000E+000	0.0000000E+000	73.6636	0.0000000E+000	0.0000000E+000	0.0000000E+000	-73.6636	0.0000000E+000	0.0000000E+000	0.0000000E+000	-16.3364	0.0000000E+000	0.0000000E+000	0.0000000E+000	16.3364	3.41168	73.6636	0.000000000000000E+000	-4.86241e-07	-1.45315e-11	-4.86227e-07	3.78387	2.94473e+07	880.043	2.94464e+07
0.0019912	17.5323	5.17232	18.2794	-16.4369	20329	3.78398	-0.0001285	1.54533e+07	1.23728e+06	1	11	0.00510089	0.000279052	0	-0.0163136	0.000113085	5.61505e-07	-22.8976	0.00201219	0.00185363	0.000782914	-16.4376	18.2814	17.5342	5.1731	0.0524707	0.0154797	0.0547065	16.4369	1.23728e+09	4.19395e+09	4.37265e+09	-73.5631	0.0000000E+000	0.0000000E+000	0.0000000E+000	73.5631	0.0000000E+000	0.0000000E+000	0.0000000E+000	-73.5631	0.0000000E+000	0.0000000E+000	0.0000000E+000	-16.4369	0.0000000E+000	0.0000000E+000	0.0000000E+000	16.4369	3.38964	73.5631	0.000000000000000E+000	-4.86241e-07	-1.45315e-11	-4.86227e-07	3.78387	2.94473e+07	880.043	2.94464e+07
0.00129428	17.9503	5.54985	18.7886	-17.1805	20329	3.78398	-0.0001285	2.2157e+07	1.93323e+06	1	11	0.00510148	0.000271519	0	-0.0163136	0.000113085	3.24751e-07	-1.06172	0.00119605	0.00119585	2.21621e-05	-17.1795	18.7898	17.9515	5.54988	0.0508488	0.0157214	0.0532237	17.1805	1.93323e+09	6.25278e+09	6.54482e+09	-72.8195	0.0000000E+000	0.0000000E+000	0.0000000E+000	72.8195	0.0000000E+000	0.0000000E+000	0.0000000E+000	-72.8195	0.0000000E+000	0.0000000E+000	0.0000000E+000	-17.1805	0.0000000E+000	0.0000000E+000	0.0000000E+000	17.1805	3.23437	72.8195	0.000000000000000E+000	-4.86241e-07	-1.45315e-11	-4.86227e-07	3.78387	2.94473e+07	880.043	2.94464e+07
0.000796479	19.6825	6.80668	20.8262	-19.0766	20329	3.78398	-0.0001285	2.93569e+07	3.13589e+06	1	11	0.00510014	0.00024489	0	-0.0163136	0.000113085	5.39028e-07	-97.5268	0.0022011	-0.000288323	0.00218213	-19.0826	20.8267	19.6822	6.80886	0.0453795	0.0156933	0.0480164	19.0766	3.13589e+09	9.06787e+09	9.5948e+09	-70.9234	0.0000000E+000	0.0000000E+000	0.0000000E+000	70.9234	0.0000000E+000	0.0000000E+000	0.0000000E+000	-70.9234	0.0000000E+000	0.0000000E+000	0.0000000E+000	-19.0766	0.0000000E+000	0.0000000E+000	0.0000000E+000	19.0766	2.89164	70.9234	0.000000000000000E+000	-4.86241e-07	-1.45315e-11	-4.86227e-07	3.78387	2.94473e+07	880.043	2.94464e+07
0.000497799	19.8282	8.41464	21.5398	-22.9953	20329	3.78398	-0.0001285	3.79954e+07	5.79854e+06	1	11	0.00510063	0.000236801	0	-0.0163136	0.000113085	3.01415e-07	-26.0441	0.00127287	0.00114361	0.000558868	-22.9955	21.541	19.8293	8.4152	0.0427366	0.0181365	0.0464257	22.9953	5.79854e+09	1.36636e+10	1.48431e+10	-67.0047	0.0000000E+000	0.0000000E+000	0.0000000E+000	67.0047	0.0000000E+000	0.0000000E+000	0.0000000E+000	-67.0047	0.0000000E+000	0.0000000E+000	0.0000000E+000	-22.9953	0.0000000E+000	0.0000000E+000	0.0000000E+000	22.9953	2.35639	67.0047	0.000000000000000E+000	-4.86241e-07	-1.45315e-11	-4.86227e-07	3.78387	2.94473e+07	880.043	2.94464e+07
0.000298679	20.1851	11.9649	23.4648	-30.6577	20329	3.78398	-0.0001285	4.45354e+07	1.15795e+07	1	11	0.00510058	0.000217372	0	-0.0163136	0.000113085	9.58756e-07	-113.559	0.00441068	-0.00176289	0.00404305	-30.6684	23.4654	20.1833	11.9689	0.0366604	0.0217308	0.042617	30.6577	1.15795e+10	1.95349e+10	2.2709e+10	-59.3423	0.0000000E+000	0.0000000E+000	0.0000000E+000	59.3423	0.0000000E+000	0.0000000E+000	0.0000000E+000	-59.3423	0.0000000E+000	0.0000000E+000	0.0000000E+000	-30.6577	0.0000000E+000	0.0000000E+000	0.0000000E+000	30.6577	1.68703	59.3423	0.000000000000000E+000	-4.86241e-07	-1.45315e-11	-4.86227e-07	3.78387	2.94473e+07	880.043	2.94464e+07
9.95598e-05	23.3162	34.8843	41.959	-56.2417	20329	3.78398	-0.0001285	4.58254e+07	3.16749e+07	1	11	0.00509883	0.000121519	0	-0.0163136	0.000113085	2.29955e-07	147.744	0.00189233	-0.00160029	-0.00100995	-56.2428	41.9572	23.3146	34.8832	0.0132437	0.0198143	0.0238328	56.2417	3.16749e+10	2.11711e+10	3.80988e+10	-33.7583	0.0000000E+000	0.0000000E+000	0.0000000E+000	33.7583	0.0000000E+000	0.0000000E+000	0.0000000E+000	-33.7583	0.0000000E+000	0.0000000E+000	0.0000000E+000	-56.2417	0.0000000E+000	0.0000000E+000	0.0000000E+000	56.2417	0.668387	33.7583	0.000000000000000E+000	-4.86241e-07	-1.45315e-11	-4.86227e-07	3.78387	2.94473e+07	880.043	2.94464e+07