File: txt/17498_R280_UC81_SOC50_C06.mpt
EC-Lab ASCII FILE
Nb header lines : 64

Potentio Electrochemical Impedance Spectroscopy

Run on channel : 6 (SN 65795)
User :
CE vs. WE compliance from -10 V to 10 V
Electrode connection : standard
Potential control : Ewe
Ewe ctrl range : min = -10.00 V, max = 10.00 V
Safety Limits :
	Do not start on E overload
Acquisition started on : 09/15/2025 12:23:10.075
Loaded Setting File :  C:\Users\Celltest\OneDrive - store-dot.com\Documents\EC-Lab\Data\John\17497_R280-G001, UC81 half-cell.mps
Saved on :
	File : 17498_R280-G002, UC81 half-cell_C06.mpr
	Directory : C:\Users\Celltest\OneDrive - store-dot.com\Documents\EC-Lab\Data\John\
	Host : 169.254.61.224
Device : VMP-3e (SN .003165)
Address : USB
EC-LAB for windows v11.62 (software)
Internet server v27.00 (firmware)
Command interpretor v12.03 (firmware)
Electrode material :
Initial state :
Electrolyte :
Comments :
Electrode surface area : 0.001 cm²
Characteristic mass : 0.001 g
Equivalent Weight : 0.000 g/eq.
Density : 0.000 g/cm3
Volume (V) : 0.001 cm³
Record Ece
Cycle Definition : Charge/Discharge alternance
Mode                Multi sine
E (V)               0.0000
vs.                 Eoc
tE (h:m:s)          0:00:0.0000
record              0
dI                  0.000
unit dI             mA
dt (s)              0.000
fi                  1.000
unit fi             MHz
ff                  0.100
unit ff             mHz
Nd                  10
Points              per decade
spacing             Logarithmic
Va (mV)             5.0
pw                  0.10
Na                  2
corr                0
E range min (V)     -10.000
E range max (V)     10.000
I Range             Auto
Bandwidth           5
nc cycles           0
goto Ns'            0
nr cycles           0
inc. cycle          0

freq/Hz	Re(Z)/Ohm	-Im(Z)/Ohm	|Z|/Ohm	Phase(Z)/deg	time/s	<Ewe>/V	<I>/mA	Cs/µF	Cp/µF	cycle number	I Range	|Ewe|/V	|I|/A	Ns	(Q-Qo)/mA.h	<Ece>/V	|Ece|/V	Phase(Zce)/deg	|Zce|/Ohm	Re(Zce)/Ohm	-Im(Zce)/Ohm	Phase(Zwe-ce)/deg	|Zwe-ce|/Ohm	Re(Zwe-ce)/Ohm	-Im(Zwe-ce)/Ohm	Re(Y)/Ohm-1	Im(Y)/Ohm-1	|Y|/Ohm-1	Phase(Y)/deg	Re(C)/nF	Im(C)/nF	|C|/nF	Phase(C)/deg	Re(M)	Im(M)	|M|	Phase(M)/deg	Re(Permittivity)	Im(Permittivity)	|Permittivity|	Phase(Permittivity)/deg	Re(Resistivity)/Ohm.cm	Im(Resistivity)/Ohm.cm	|Resistivity|/Ohm.cm	Phase(Resistivity)/deg	Re(Conductivity)/mS/cm	Im(Conductivity)/mS/cm	|Conductivity|/mS/cm	Phase(Conductivity)/deg	Tan(Delta)	Loss Angle(Delta)/deg	dq/mA.h	Pwe/W	Pce/W	Pwe-ce/W	<Ewe-Ece>/V	Rwe/Ohm	Rce/Ohm	Rwe-ce/Ohm		Ewe-Ece/V
1.00002e+06	2.05676	3.4878	4.04908	-59.4721	2.23355	3.78355	0.018524	0.045631	0.0338572	1	10	0.00020456	5.05202e-05	0	-2.55027e-06	0.000305258	0.000200995	-65.1869	3.9785	1.66962	3.61121	-62.3043	8.0176	3.72638	7.09901	0.12545	0.212735	0.24697	59.4721	33.8572	19.9657	39.3057	-30.528	0.0000000E+000	0.0000000E+000	0.0000000E+000	30.528	0.0000000E+000	0.0000000E+000	0.0000000E+000	-30.528	0.0000000E+000	0.0000000E+000	0.0000000E+000	-59.4721	0.0000000E+000	0.0000000E+000	0.0000000E+000	59.4721	0.589702	30.528	-2.55027e-06	7.00865e-05	5.6546e-09	7.00809e-05	3.78324	204251	16.479	204234
630957	0.548547	-0.136031	0.565162	13.9275	3.40357	3.78333	0.0714013	-1.85431	-0.107427	1	9	0.000138394	0.000244875	0	1.12805e-05	0.000228865	9.92041e-05	-87.0844	0.405121	0.0206062	0.404597	-25.2612	0.629336	0.569153	0.268566	1.71738	-0.425884	1.7694	-13.9275	-107.427	433.2	446.321	-103.927	0.0000000E+000	0.0000000E+000	0.0000000E+000	103.927	0.0000000E+000	0.0000000E+000	0.0000000E+000	-103.927	0.0000000E+000	0.0000000E+000	0.0000000E+000	13.9275	0.0000000E+000	0.0000000E+000	0.0000000E+000	-13.9275	4.03252	76.0725	7.30824e-06	0.000270134	1.63413e-08	0.000270118	3.7831	52986.8	3.20534	52983.6
398103	0.940114	-0.169122	0.955205	10.1981	4.17156	3.78344	0.073897	-2.36387	-0.0741021	1	9	0.000669781	0.000701191	0	2.64238e-05	0.000515336	3.79429e-05	117.837	0.054112	-0.0252682	-0.04785	13.3422	0.940223	0.914846	-0.216972	1.03036	-0.185356	1.0469	-10.1981	-74.1021	411.919	418.531	-100.198	0.0000000E+000	0.0000000E+000	0.0000000E+000	100.198	0.0000000E+000	0.0000000E+000	0.0000000E+000	-100.198	0.0000000E+000	0.0000000E+000	0.0000000E+000	10.1981	0.0000000E+000	0.0000000E+000	0.0000000E+000	-10.1981	5.5588	79.8018	7.37537e-06	0.000279585	3.80818e-08	0.000279547	3.78292	51198.8	6.9737	51191.8
251206	1.04549	0.0335058	1.04602	-1.83559	4.93855	3.78333	0.0693153	18.909	0.0194012	1	9	0.00199434	0.00190659	0	3.93464e-05	0.000228865	7.95094e-05	68.735	0.0417024	0.0151247	-0.038863	0.289398	1.06062	1.06061	-0.00535713	0.955511	0.0306223	0.956002	1.83559	19.4012	605.377	605.688	-88.1644	0.0000000E+000	0.0000000E+000	0.0000000E+000	88.1644	0.0000000E+000	0.0000000E+000	0.0000000E+000	-88.1644	0.0000000E+000	0.0000000E+000	0.0000000E+000	-1.83559	0.0000000E+000	0.0000000E+000	0.0000000E+000	1.83559	31.2031	88.1644	4.44187e-06	0.000262242	1.58639e-08	0.000262227	3.7831	54581.4	3.3018	54578.1
158486	1.10819	0.126771	1.11541	-6.52598	5.58054	3.7833	0.0585129	7.92153	0.102324	1	9	0.00538965	0.00483197	0	4.92262e-05	0.000190669	0.000100161	62.4461	0.0207287	0.00958875	-0.0183776	-5.5388	1.12302	1.11777	0.108393	0.89072	0.101894	0.896529	6.52598	102.324	894.478	900.312	-83.474	0.0000000E+000	0.0000000E+000	0.0000000E+000	83.474	0.0000000E+000	0.0000000E+000	0.0000000E+000	-83.474	0.0000000E+000	0.0000000E+000	0.0000000E+000	-6.52598	0.0000000E+000	0.0000000E+000	0.0000000E+000	6.52598	8.74164	83.474	6.02109e-07	0.000221372	1.11566e-08	0.000221361	3.78311	64657.5	3.25859	64654.2
100004	1.15257	0.169685	1.16499	-8.37514	6.34653	3.78325	0.0593324	9.37906	0.198977	1	9	0.0053943	0.00463033	0	6.80804e-05	3.78851e-05	5.31797e-05	64.8075	0.0114851	0.00488874	-0.0103926	-7.836	1.16837	1.15746	0.159293	0.849221	0.125026	0.858375	8.37514	198.977	1351.53	1366.1	-81.6249	0.0000000E+000	0.0000000E+000	0.0000000E+000	81.6249	0.0000000E+000	0.0000000E+000	0.0000000E+000	-81.6249	0.0000000E+000	0.0000000E+000	0.0000000E+000	-8.37514	0.0000000E+000	0.0000000E+000	0.0000000E+000	8.37514	6.79238	81.6249	1.41519e-05	0.00022447	2.24781e-09	0.000224468	3.78322	63763.7	0.638522	63763
63093.8	1.19669	0.220738	1.21687	-10.4512	7.11255	3.78324	0.0584385	11.4276	0.376026	1	9	0.0053039	0.00435862	0	8.90173e-05	3.78851e-05	2.54277e-05	54.5419	0.00583389	0.00338428	-0.00475194	-10.2027	1.21935	1.20007	0.215986	0.808144	0.149068	0.821778	10.4512	376.026	2038.55	2072.94	-79.5488	0.0000000E+000	0.0000000E+000	0.0000000E+000	79.5488	0.0000000E+000	0.0000000E+000	0.0000000E+000	-79.5488	0.0000000E+000	0.0000000E+000	0.0000000E+000	-10.4512	0.0000000E+000	0.0000000E+000	0.0000000E+000	10.4512	5.42131	79.5488	4.58655e-06	0.000221087	2.21395e-09	0.000221084	3.7832	64738.8	0.648291	64738.2
39814.1	1.25712	0.275539	1.28696	-12.3627	7.87853	3.78324	0.0605989	14.5078	0.665017	1	9	0.00528348	0.00410538	0	0.000100602	5.69831e-05	1.85676e-05	20.5031	0.00452275	0.00423625	-0.00158413	-12.2538	1.29077	1.26136	0.273954	0.759004	0.16636	0.777022	12.3627	665.017	3034.09	3106.11	-77.6373	0.0000000E+000	0.0000000E+000	0.0000000E+000	77.6373	0.0000000E+000	0.0000000E+000	0.0000000E+000	-77.6373	0.0000000E+000	0.0000000E+000	0.0000000E+000	-12.3627	0.0000000E+000	0.0000000E+000	0.0000000E+000	12.3627	4.56242	77.6373	1.22226e-06	0.00022926	3.45312e-09	0.000229257	3.78318	62430.8	0.940333	62429.8
25116.9	1.3405	0.346703	1.38461	-14.501	8.64652	3.78324	0.0476731	18.2767	1.14592	1	9	0.0053027	0.00382974	0	0.000110174	-0.000229487	9.22527e-06	102.604	0.00240885	-0.000525632	-0.00235081	-14.4122	1.38352	1.33998	0.344352	0.699216	0.180843	0.722224	14.501	1145.92	4430.63	4576.42	-75.499	0.0000000E+000	0.0000000E+000	0.0000000E+000	75.499	0.0000000E+000	0.0000000E+000	0.0000000E+000	-75.499	0.0000000E+000	0.0000000E+000	0.0000000E+000	-14.501	0.0000000E+000	0.0000000E+000	0.0000000E+000	14.501	3.86643	75.499	2.95991e-06	0.000180359	-1.09404e-08	0.00018037	3.78347	79357.8	4.81377	79362.6
15847.7	1.43622	0.426278	1.49815	-16.5312	9.41253	3.78324	0.0551231	23.5592	1.90738	1	9	0.00528671	0.00352883	0	0.000122585	-7.67031e-05	7.37616e-06	80.6242	0.00209025	0.000340523	-0.00206233	-16.4518	1.49789	1.43656	0.424216	0.6399	0.189926	0.667491	16.5312	1907.38	6426.39	6703.47	-73.4688	0.0000000E+000	0.0000000E+000	0.0000000E+000	73.4688	0.0000000E+000	0.0000000E+000	0.0000000E+000	-73.4688	0.0000000E+000	0.0000000E+000	0.0000000E+000	-16.5312	0.0000000E+000	0.0000000E+000	0.0000000E+000	16.5312	3.36921	73.4688	7.05356e-06	0.000208544	-4.22812e-09	0.000208548	3.78331	68632.5	1.39149	68633.9
10002.2	1.55415	0.518934	1.6385	-18.4643	10.1805	3.78322	0.0519569	30.6627	3.0757	1	9	0.00526684	0.00321443	0	0.000135219	0.000362552	7.7478e-06	77.9959	0.00241032	0.000501302	-0.00235761	-18.3805	1.63823	1.55465	0.516577	0.578897	0.193295	0.610315	18.4643	3075.7	9211.38	9711.31	-71.5357	0.0000000E+000	0.0000000E+000	0.0000000E+000	71.5357	0.0000000E+000	0.0000000E+000	0.0000000E+000	-71.5357	0.0000000E+000	0.0000000E+000	0.0000000E+000	-18.4643	0.0000000E+000	0.0000000E+000	0.0000000E+000	18.4643	2.99489	71.5357	9.14785e-06	0.000196564	1.88371e-08	0.000196545	3.78286	72814.6	6.97793	72807.6
6309.38	1.7017	0.624896	1.81281	-20.1642	10.9465	3.78322	0.0555701	40.3669	4.79665	1	9	0.00523671	0.00288873	0	0.000135434	0.000247963	1.21227e-05	-13.2058	0.00419654	0.00408557	0.000958695	-20.1482	1.81697	1.70578	0.625854	0.517821	0.190154	0.551631	20.1642	4796.65	13062.1	13915	-69.8358	0.0000000E+000	0.0000000E+000	0.0000000E+000	69.8358	0.0000000E+000	0.0000000E+000	0.0000000E+000	-69.8358	0.0000000E+000	0.0000000E+000	0.0000000E+000	-20.1642	0.0000000E+000	0.0000000E+000	0.0000000E+000	20.1642	2.72317	69.8358	-2.41168e-06	0.000210234	1.37794e-08	0.00021022	3.78297	68080.1	4.46217	68075.6
3983.6	1.8728	0.752413	2.01829	-21.8882	11.778	3.78323	0.0604126	53.0992	7.37959	1	9	0.00513438	0.00254392	0	0.000143729	0.000209767	6.81666e-06	-5.16834	0.00267958	0.00266869	0.000241383	-21.8664	2.02086	1.87547	0.752654	0.459752	0.184709	0.495468	21.8882	7379.59	18368.2	19795.2	-68.1118	0.0000000E+000	0.0000000E+000	0.0000000E+000	68.1118	0.0000000E+000	0.0000000E+000	0.0000000E+000	-68.1118	0.0000000E+000	0.0000000E+000	0.0000000E+000	-21.8882	0.0000000E+000	0.0000000E+000	0.0000000E+000	21.8882	2.48906	68.1118	5.59517e-06	0.000228555	1.26726e-08	0.000228542	3.78302	62623.2	3.47225	62619.7
2510.8	2.08865	0.904799	2.27621	-23.4221	12.7798	3.78321	0.0493494	70.0576	11.0697	1	9	0.00548933	0.00241161	0	0.000157144	-0.000172193	9.40365e-06	-39.2294	0.00389933	0.00302049	0.00246604	-23.4488	2.27996	2.09167	0.907265	0.403127	0.174633	0.439327	23.4221	11069.7	25553.4	27848.1	-66.5779	0.0000000E+000	0.0000000E+000	0.0000000E+000	66.5779	0.0000000E+000	0.0000000E+000	0.0000000E+000	-66.5779	0.0000000E+000	0.0000000E+000	0.0000000E+000	-23.4221	0.0000000E+000	0.0000000E+000	0.0000000E+000	23.4221	2.30842	66.5779	8.73342e-06	0.000186699	-8.49763e-09	0.000186708	3.78338	76661.8	3.48927	76665.3
1585.51	2.33742	1.08326	2.57624	-24.8651	13.8958	3.78322	0.0517706	92.6654	16.3838	1	9	0.00495155	0.00192201	0	0.00017527	0.000133375	8.08385e-06	8.61239	0.00420594	0.00415851	-0.000629835	-24.8136	2.57974	2.34158	1.08263	0.352181	0.163216	0.388163	24.8651	16383.8	35352.3	38964.2	-65.1349	0.0000000E+000	0.0000000E+000	0.0000000E+000	65.1349	0.0000000E+000	0.0000000E+000	0.0000000E+000	-65.1349	0.0000000E+000	0.0000000E+000	0.0000000E+000	-24.8651	0.0000000E+000	0.0000000E+000	0.0000000E+000	24.8651	2.15776	65.1349	6.15466e-06	0.000195859	6.90492e-09	0.000195852	3.78308	73076.6	2.57628	73074
1000.32	2.66513	1.31682	2.9727	-26.2937	14.7978	3.78321	0.0511001	120.824	23.7086	1	9	0.00485114	0.0016319	0	0.000187063	0.000152473	1.12113e-05	-53.2694	0.0068701	0.00410868	0.00550608	-26.3536	2.97883	2.66924	1.32233	0.301589	0.149013	0.336394	26.2937	23708.6	47984.1	53521.7	-63.7063	0.0000000E+000	0.0000000E+000	0.0000000E+000	63.7063	0.0000000E+000	0.0000000E+000	0.0000000E+000	-63.7063	0.0000000E+000	0.0000000E+000	0.0000000E+000	-26.2937	0.0000000E+000	0.0000000E+000	0.0000000E+000	26.2937	2.02391	63.7063	4.47509e-06	0.000193323	7.7914e-09	0.000193315	3.78306	74035.4	2.98382	74032.4
631.01	3.07091	1.59439	3.46013	-27.4379	15.9456	3.78324	-0.0111095	158.194	33.5886	1	10	0.00479024	0.00138441	0	0.000184107	-0.000114899	4.2596e-06	-71.5527	0.00307684	0.000973613	0.00291874	-27.4734	3.46234	3.07188	1.59731	0.256496	0.13317	0.289006	27.4379	33588.6	64694.1	72893.9	-62.562	0.0000000E+000	0.0000000E+000	0.0000000E+000	62.562	0.0000000E+000	0.0000000E+000	0.0000000E+000	-62.562	0.0000000E+000	0.0000000E+000	0.0000000E+000	-27.4379	0.0000000E+000	0.0000000E+000	0.0000000E+000	27.4379	1.92607	62.562	-2.69361e-06	-4.203e-05	1.27648e-09	-4.20313e-05	3.78335	340540	10.3424	340551
398.089	3.62644	1.8821	4.08575	-27.429	16.8469	3.78322	-0.0125741	212.421	45.0753	1	10	0.00470348	0.00115119	0	0.000180855	1.87871e-05	1.39764e-05	-18.0682	0.0121408	0.0115421	0.00376545	-27.4014	4.09773	3.63798	1.88586	0.217238	0.112745	0.244753	27.429	45075.3	86851.3	97851.6	-62.571	0.0000000E+000	0.0000000E+000	0.0000000E+000	62.571	0.0000000E+000	0.0000000E+000	0.0000000E+000	-62.571	0.0000000E+000	0.0000000E+000	0.0000000E+000	-27.429	0.0000000E+000	0.0000000E+000	0.0000000E+000	27.429	1.92681	62.571	-7.24747e-07	-4.75704e-05	-2.3623e-10	-4.75702e-05	3.7832	300875	1.49411	300873
251.044	4.32683	2.09631	4.80791	-25.8498	17.745	3.78322	-0.0121567	302.422	57.4928	1	10	0.00463253	0.000963523	0	0.000177913	0.000209767	4.14517e-06	-49.4689	0.0043021	0.00279576	0.00326982	-25.8703	4.81185	4.32963	2.09958	0.187179	0.0906867	0.20799	25.8498	57492.8	118666	131860	-64.1502	0.0000000E+000	0.0000000E+000	0.0000000E+000	64.1502	0.0000000E+000	0.0000000E+000	0.0000000E+000	-64.1502	0.0000000E+000	0.0000000E+000	0.0000000E+000	-25.8498	0.0000000E+000	0.0000000E+000	0.0000000E+000	25.8498	2.06402	64.1502	-9.12785e-07	-4.59914e-05	-2.55008e-09	-4.59889e-05	3.78301	311204	17.2553	311187
158.428	5.14144	2.15169	5.57353	-22.7092	18.6498	3.78322	-0.0117058	466.883	69.5834	1	10	0.00459176	0.000823851	0	0.000175396	0.000190669	3.49351e-06	55.32	0.00424046	0.00241279	-0.00348711	-22.6666	5.57441	5.14386	2.1482	0.16551	0.0692658	0.17942	22.7092	69583.4	166269	180242	-67.2908	0.0000000E+000	0.0000000E+000	0.0000000E+000	67.2908	0.0000000E+000	0.0000000E+000	0.0000000E+000	-67.2908	0.0000000E+000	0.0000000E+000	0.0000000E+000	-22.7092	0.0000000E+000	0.0000000E+000	0.0000000E+000	22.7092	2.3895	67.2908	-1.25441e-06	-4.42856e-05	-2.23193e-09	-4.42833e-05	3.78303	323192	16.2885	323176
100.032	5.94191	1.98864	6.26586	-18.5044	19.5498	3.78322	-0.011117	800.066	80.589	1	10	0.00457707	0.000730478	0	0.000172293	9.51792e-05	4.97262e-06	69.7404	0.00680735	0.00235721	-0.0063862	-18.4421	6.26607	5.94426	1.98225	0.151344	0.0506518	0.159595	18.5044	80589	240794	253922	-71.4956	0.0000000E+000	0.0000000E+000	0.0000000E+000	71.4956	0.0000000E+000	0.0000000E+000	0.0000000E+000	-71.4956	0.0000000E+000	0.0000000E+000	0.0000000E+000	-18.5044	0.0000000E+000	0.0000000E+000	0.0000000E+000	18.5044	2.98793	71.4956	-2.36174e-06	-4.20581e-05	-1.05811e-09	-4.2057e-05	3.78313	340310	8.56159	340301
63.0823	6.58738	1.67441	6.79686	-14.2617	20.467	3.78322	-0.0110164	1506.78	91.4449	1	10	0.00457034	0.00067242	0	0.000169814	-5.76051e-05	6.217e-06	23.3009	0.0092457	0.00849163	-0.00365722	-14.2142	6.80419	6.59587	1.67076	0.142592	0.0362449	0.147127	14.2617	91444.9	359757	371197	-75.7383	0.0000000E+000	0.0000000E+000	0.0000000E+000	75.7383	0.0000000E+000	0.0000000E+000	0.0000000E+000	-75.7383	0.0000000E+000	0.0000000E+000	0.0000000E+000	-14.2617	0.0000000E+000	0.0000000E+000	0.0000000E+000	14.2617	3.93414	75.7383	-1.60596e-06	-4.16774e-05	6.346e-10	-4.1678e-05	3.78328	343418	5.22904	343423
39.8089	7.04606	1.28888	7.16297	-10.3661	21.3678	3.78322	-0.0100288	3101.89	100.431	1	10	0.00456719	0.000637611	0	0.000167982	9.51792e-05	4.32623e-06	-85.9982	0.00678506	0.000473518	0.00676852	-10.4187	7.16466	7.04653	1.29565	0.137328	0.0251204	0.139607	10.3661	100431	549035	558144	-79.6339	0.0000000E+000	0.0000000E+000	0.0000000E+000	79.6339	0.0000000E+000	0.0000000E+000	0.0000000E+000	-79.6339	0.0000000E+000	0.0000000E+000	0.0000000E+000	-10.3661	0.0000000E+000	0.0000000E+000	0.0000000E+000	10.3661	5.46679	79.6339	-7.85313e-07	-3.79414e-05	-9.54537e-10	-3.79404e-05	3.78313	377234	9.49055	377225
25.1044	7.32061	0.962058	7.38356	-7.48678	22.2471	3.78324	-0.0096301	6589.74	111.877	1	10	0.00456465	0.000618218	0	0.000166136	0.000343454	6.56748e-06	57.7938	0.0106232	0.00566185	-0.0089887	-7.41194	7.38801	7.32627	0.953069	0.134281	0.017647	0.135436	7.48678	111877	851306	858626	-82.5132	0.0000000E+000	0.0000000E+000	0.0000000E+000	82.5132	0.0000000E+000	0.0000000E+000	0.0000000E+000	-82.5132	0.0000000E+000	0.0000000E+000	0.0000000E+000	-7.48678	0.0000000E+000	0.0000000E+000	0.0000000E+000	7.48678	7.60933	82.5132	-1.8097e-06	-3.64329e-05	-3.30749e-09	-3.64296e-05	3.78289	392855	35.6646	392820
15.8576	7.4987	0.688363	7.53023	-5.24491	23.125	3.78323	-0.0110462	14580.3	121.838	1	10	0.00457489	0.000607536	0	0.000167128	0.000209767	1.34931e-05	-104.415	0.0222095	-0.00552873	0.0215104	-5.41182	7.52673	7.49317	0.709873	0.132242	0.0121395	0.132798	5.24491	121838	1.32725e+06	1.33283e+06	-84.7551	0.0000000E+000	0.0000000E+000	0.0000000E+000	84.7551	0.0000000E+000	0.0000000E+000	0.0000000E+000	-84.7551	0.0000000E+000	0.0000000E+000	0.0000000E+000	-5.24491	0.0000000E+000	0.0000000E+000	0.0000000E+000	5.24491	10.8935	84.7551	1.36812e-06	-4.17903e-05	-2.31713e-09	-4.17879e-05	3.78302	342492	18.99	342473
10.0032	7.57828	0.52768	7.59663	-3.98311	24.1069	3.78323	-0.00999158	30151.6	145.482	1	10	0.00456437	0.000600842	0	0.000161428	0.000190669	1.00369e-05	35.3158	0.0167047	0.0136307	-0.00965671	-3.90345	7.60957	7.59191	0.518024	0.131319	0.00914385	0.131637	3.98311	145482	2.08934e+06	2.0944e+06	-86.0169	0.0000000E+000	0.0000000E+000	0.0000000E+000	86.0169	0.0000000E+000	0.0000000E+000	0.0000000E+000	-86.0169	0.0000000E+000	0.0000000E+000	0.0000000E+000	-3.98311	0.0000000E+000	0.0000000E+000	0.0000000E+000	3.98311	14.3615	86.0169	-5.739e-06	-3.78004e-05	-1.90509e-09	-3.77985e-05	3.78304	378642	19.083	378623
6.31058	7.67254	0.433684	7.68479	-3.23515	25.0313	3.78321	-0.013543	58153.7	185.208	1	10	0.00456508	0.00059404	0	0.00016246	3.78851e-05	8.27958e-06	-64.3912	0.0139377	0.00602424	0.0125686	-3.3261	7.69152	7.67857	0.446252	0.12992	0.0073436	0.130127	3.23515	185208	3.27662e+06	3.28185e+06	-86.7648	0.0000000E+000	0.0000000E+000	0.0000000E+000	86.7648	0.0000000E+000	0.0000000E+000	0.0000000E+000	-86.7648	0.0000000E+000	0.0000000E+000	0.0000000E+000	-3.23515	0.0000000E+000	0.0000000E+000	0.0000000E+000	3.23515	17.6916	86.7648	-3.12383e-06	-5.1236e-05	-5.13077e-10	-5.12355e-05	3.78318	279349	2.7974	279346
3.97785	7.72634	0.376552	7.73551	-2.79017	26.0384	3.78324	-0.0079047	106254	251.778	1	10	0.00456326	0.00058991	0	0.000158471	-0.000191291	3.89536e-06	-18.3092	0.0066033	0.00626901	0.00207439	-2.80324	7.74188	7.73261	0.378627	0.129121	0.00629284	0.129274	2.79017	251778	5.16615e+06	5.17228e+06	-87.2098	0.0000000E+000	0.0000000E+000	0.0000000E+000	87.2098	0.0000000E+000	0.0000000E+000	0.0000000E+000	-87.2098	0.0000000E+000	0.0000000E+000	0.0000000E+000	-2.79017	0.0000000E+000	0.0000000E+000	0.0000000E+000	2.79017	20.5187	87.2098	2.69699e-06	-2.99054e-05	1.5121e-09	-2.99069e-05	3.78343	478606	24.1997	478630
2.51367	7.80054	0.357141	7.80871	-2.62141	27.9599	3.78324	-0.0124981	177285	370.844	1	11	0.0045638	0.00058445	0	0.00015109	0.000438944	3.57349e-06	5.85114	0.00611427	0.00608242	-0.000623314	-2.6148	7.81476	7.80663	0.356518	0.127928	0.00585707	0.128062	2.62141	370844	8.09985e+06	8.10833e+06	-87.3786	0.0000000E+000	0.0000000E+000	0.0000000E+000	87.3786	0.0000000E+000	0.0000000E+000	0.0000000E+000	-87.3786	0.0000000E+000	0.0000000E+000	0.0000000E+000	-2.62141	0.0000000E+000	0.0000000E+000	0.0000000E+000	2.62141	21.8416	87.3786	-1.04268e-05	-4.72832e-05	-5.48595e-09	-4.72777e-05	3.7828	302706	35.1209	302671
1.58469	7.8766	0.369861	7.88528	-2.68846	30.3955	3.78323	-0.0143812	271543	597.423	1	11	0.0045653	0.000578965	0	0.000129714	9.51792e-05	3.22429e-06	-12.6033	0.00556907	0.00543488	0.00121517	-2.69542	7.89076	7.88203	0.371076	0.126679	0.00594846	0.126819	2.68846	597423	1.27228e+07	1.27368e+07	-87.3115	0.0000000E+000	0.0000000E+000	0.0000000E+000	87.3115	0.0000000E+000	0.0000000E+000	0.0000000E+000	-87.3115	0.0000000E+000	0.0000000E+000	0.0000000E+000	-2.68846	0.0000000E+000	0.0000000E+000	0.0000000E+000	2.68846	21.2961	87.3115	-7.43955e-06	-5.44075e-05	-1.36879e-09	-5.44061e-05	3.78313	263067	6.61829	263060
1.00469	7.96691	0.397859	7.97684	-2.85892	241.214	3.78323	-0.0153606	398159	990.499	1	11	0.00500482	0.000627419	0	-0.00310431	0.000171571	4.97977e-07	3.97478	0.000793692	0.000791783	-5.50166e-05	-2.85824	7.97763	7.9677	0.397804	0.125207	0.0062527	0.125363	2.85892	990499	1.98342e+07	1.98589e+07	-87.1411	0.0000000E+000	0.0000000E+000	0.0000000E+000	87.1411	0.0000000E+000	0.0000000E+000	0.0000000E+000	-87.1411	0.0000000E+000	0.0000000E+000	0.0000000E+000	-2.85892	0.0000000E+000	0.0000000E+000	0.0000000E+000	2.85892	20.0245	87.1411	-0.0032375	-5.81125e-05	-2.63543e-09	-5.81099e-05	3.78306	246295	11.1696	246284
0.632957	8.06668	0.453358	8.07941	-3.21671	241.214	3.78323	-0.0153606	554632	1746.33	1	11	0.00501737	0.000621007	0	-0.00310431	0.000171571	6.99732e-07	-5.85099	0.00112677	0.0011209	0.000114865	-3.21708	8.08054	8.0678	0.453473	0.123576	0.00694515	0.123771	3.21671	1.74633e+06	3.10729e+07	3.11219e+07	-86.7833	0.0000000E+000	0.0000000E+000	0.0000000E+000	86.7833	0.0000000E+000	0.0000000E+000	0.0000000E+000	-86.7833	0.0000000E+000	0.0000000E+000	0.0000000E+000	-3.21671	0.0000000E+000	0.0000000E+000	0.0000000E+000	3.21671	17.7932	86.7833	0.000000000000000E+000	-5.81125e-05	-2.63543e-09	-5.81099e-05	3.78306	246295	11.1696	246284
0.401878	8.14159	0.54671	8.15992	-3.84166	241.215	3.78323	-0.0153606	724385	3251.71	1	11	0.00503113	0.000616567	0	-0.00310431	0.000171571	5.90012e-07	-5.03755	0.000956932	0.000953236	8.40269e-05	-3.8418	8.16088	8.14254	0.546794	0.122275	0.00821079	0.12255	3.84166	3.25171e+06	4.84243e+07	4.85334e+07	-86.1583	0.0000000E+000	0.0000000E+000	0.0000000E+000	86.1583	0.0000000E+000	0.0000000E+000	0.0000000E+000	-86.1583	0.0000000E+000	0.0000000E+000	0.0000000E+000	-3.84166	0.0000000E+000	0.0000000E+000	0.0000000E+000	3.84166	14.892	86.1583	0.000000000000000E+000	-5.81125e-05	-2.63543e-09	-5.81099e-05	3.78306	246295	11.1696	246284
0.251173	8.2912	0.6715	8.31835	-4.63025	241.215	3.78323	-0.0153606	943627	6149.2	1	11	0.00503218	0.000604949	0	-0.00310431	0.000171571	8.09792e-07	-1.15707	0.00133861	0.00133834	2.7031e-05	-4.62969	8.31968	8.29254	0.671527	0.119824	0.00970447	0.120216	4.63025	6.1492e+06	7.59259e+07	7.61745e+07	-85.3698	0.0000000E+000	0.0000000E+000	0.0000000E+000	85.3698	0.0000000E+000	0.0000000E+000	0.0000000E+000	-85.3698	0.0000000E+000	0.0000000E+000	0.0000000E+000	-4.63025	0.0000000E+000	0.0000000E+000	0.0000000E+000	4.63025	12.3473	85.3698	0.000000000000000E+000	-5.81125e-05	-2.63543e-09	-5.81099e-05	3.78306	246295	11.1696	246284
0.160751	8.44774	0.778268	8.48351	-5.26365	241.215	3.78323	-0.0153606	1.27215e+06	10706.4	1	11	0.00502736	0.000592604	0	-0.00310431	0.000171571	4.47016e-07	19.3526	0.000754325	0.000711704	-0.000249969	-5.26153	8.4842	8.44845	0.778018	0.117379	0.0108138	0.117876	5.26365	1.07064e+07	1.16213e+08	1.16705e+08	-84.7364	0.0000000E+000	0.0000000E+000	0.0000000E+000	84.7364	0.0000000E+000	0.0000000E+000	0.0000000E+000	-84.7364	0.0000000E+000	0.0000000E+000	0.0000000E+000	-5.26365	0.0000000E+000	0.0000000E+000	0.0000000E+000	5.26365	10.8545	84.7364	0.000000000000000E+000	-5.81125e-05	-2.63543e-09	-5.81099e-05	3.78306	246295	11.1696	246284
0.100469	8.58049	1.11537	8.65268	-7.40631	241.216	3.78323	-0.0153606	1.42026e+06	23599.6	1	11	0.00502894	0.0005812	0	-0.00310431	0.000171571	7.09081e-07	-33.4202	0.00122003	0.0010183	0.000671962	-7.40985	8.65378	8.58151	1.11604	0.114607	0.0148977	0.115571	7.40631	2.35996e+07	1.8155e+08	1.83078e+08	-82.5937	0.0000000E+000	0.0000000E+000	0.0000000E+000	82.5937	0.0000000E+000	0.0000000E+000	0.0000000E+000	-82.5937	0.0000000E+000	0.0000000E+000	0.0000000E+000	-7.40631	0.0000000E+000	0.0000000E+000	0.0000000E+000	7.40631	7.69294	82.5937	0.000000000000000E+000	-5.81125e-05	-2.63543e-09	-5.81099e-05	3.78306	246295	11.1696	246284
0.0602816	8.85675	1.39914	8.96658	-8.97711	241.216	3.78323	-0.0153606	1.887e+06	45945.6	1	11	0.00502704	0.000560642	0	-0.00310431	0.000171571	2.91328e-07	-24.0721	0.000519633	0.000474442	0.000211951	-8.97797	8.96708	8.85722	1.39936	0.110159	0.0174024	0.111525	8.97711	4.59456e+07	2.90841e+08	2.94448e+08	-81.0229	0.0000000E+000	0.0000000E+000	0.0000000E+000	81.0229	0.0000000E+000	0.0000000E+000	0.0000000E+000	-81.0229	0.0000000E+000	0.0000000E+000	0.0000000E+000	-8.97711	0.0000000E+000	0.0000000E+000	0.0000000E+000	8.97711	6.33012	81.0229	0.000000000000000E+000	-5.81125e-05	-2.63543e-09	-5.81099e-05	3.78306	246295	11.1696	246284
0.0401878	9.28228	1.75063	9.44592	-10.6805	241.217	3.78323	-0.0153606	2.26221e+06	77701.9	1	11	0.00502737	0.000532227	0	-0.00310431	0.000171571	4.1673e-07	-11.5364	0.000782994	0.000767176	0.000156591	-10.6805	9.4467	9.28304	1.75078	0.104032	0.0196203	0.105866	10.6805	7.77019e+07	4.11996e+08	4.19259e+08	-79.3195	0.0000000E+000	0.0000000E+000	0.0000000E+000	79.3195	0.0000000E+000	0.0000000E+000	0.0000000E+000	-79.3195	0.0000000E+000	0.0000000E+000	0.0000000E+000	-10.6805	0.0000000E+000	0.0000000E+000	0.0000000E+000	10.6805	5.30226	79.3195	0.000000000000000E+000	-5.81125e-05	-2.63543e-09	-5.81099e-05	3.78306	246295	11.1696	246284
0.0200939	10.197	2.84507	10.5865	-15.5896	241.217	3.78323	-0.0153606	2.78397e+06	201070	1	11	0.00502543	0.000474704	0	-0.00310431	0.000171571	1.09949e-06	0.348271	0.00231615	0.00231611	-1.40786e-05	-15.5862	10.5887	10.1993	2.84505	0.0909852	0.0253858	0.0944603	15.5896	2.0107e+08	7.20654e+08	7.48179e+08	-74.4104	0.0000000E+000	0.0000000E+000	0.0000000E+000	74.4104	0.0000000E+000	0.0000000E+000	0.0000000E+000	-74.4104	0.0000000E+000	0.0000000E+000	0.0000000E+000	-15.5896	0.0000000E+000	0.0000000E+000	0.0000000E+000	15.5896	3.5841	74.4104	0.000000000000000E+000	-5.81125e-05	-2.63543e-09	-5.81099e-05	3.78306	246295	11.1696	246284
0.00796479	12.635	3.78911	13.1909	-16.6935	20330.1	3.78325	0.00145673	5.27362e+06	435144	1	11	0.0050182	0.000380428	0	-0.0101725	-1.9409e-05	1.73192e-07	-163.13	0.000455256	-0.000435664	0.000132117	-16.6946	13.1906	12.6346	3.78924	0.0726147	0.0217764	0.0758097	16.6935	4.35144e+08	1.45101e+09	1.51485e+09	-73.3065	0.0000000E+000	0.0000000E+000	0.0000000E+000	73.3065	0.0000000E+000	0.0000000E+000	0.0000000E+000	-73.3065	0.0000000E+000	0.0000000E+000	0.0000000E+000	-16.6935	0.0000000E+000	0.0000000E+000	0.0000000E+000	16.6935	3.33455	73.3065	-0.00706816	5.51116e-06	-2.82736e-11	5.51119e-06	3.78327	2.59709e+06	13.3237	2.59711e+06
0.00497799	14.2294	4.00171	14.7814	-15.7075	20330.1	3.78325	0.00145673	7.98952e+06	585573	1	11	0.00502526	0.000339972	0	-0.0101725	-1.9409e-05	2.99386e-07	-118.221	0.000880619	-0.000416422	0.000775939	-15.7108	14.7812	14.229	4.00248	0.0651262	0.0183153	0.0676526	15.7075	5.85572e+08	2.0822e+09	2.16297e+09	-74.2925	0.0000000E+000	0.0000000E+000	0.0000000E+000	74.2925	0.0000000E+000	0.0000000E+000	0.0000000E+000	-74.2925	0.0000000E+000	0.0000000E+000	0.0000000E+000	-15.7075	0.0000000E+000	0.0000000E+000	0.0000000E+000	15.7075	3.55583	74.2925	0.000000000000000E+000	5.51116e-06	-2.82736e-11	5.51119e-06	3.78327	2.59709e+06	13.3237	2.59711e+06
0.00318591	15.1924	5.00032	15.9941	-18.2181	20330.1	3.78325	0.00145673	9.99052e+06	976477	1	11	0.00502803	0.000314367	0	-0.0101725	-1.9409e-05	3.33214e-07	-121.015	0.00105995	-0.000546155	0.000908411	-18.2218	15.9939	15.1919	5.00123	0.0593888	0.0195468	0.0625229	18.2181	9.76477e+08	2.96682e+09	3.12338e+09	-71.7819	0.0000000E+000	0.0000000E+000	0.0000000E+000	71.7819	0.0000000E+000	0.0000000E+000	0.0000000E+000	-71.7819	0.0000000E+000	0.0000000E+000	0.0000000E+000	-18.2181	0.0000000E+000	0.0000000E+000	0.0000000E+000	18.2181	3.03829	71.7819	0.000000000000000E+000	5.51116e-06	-2.82736e-11	5.51119e-06	3.78327	2.59709e+06	13.3237	2.59711e+06
0.0019912	16.4182	5.31824	17.2581	-17.9483	20330.1	3.78325	0.00145673	1.50293e+07	1.42721e+06	1	11	0.00503094	0.000291512	0	-0.0101725	-1.9409e-05	5.81552e-07	-136.774	0.00199495	-0.00145364	0.0013663	-17.9541	17.2571	16.4168	5.31961	0.055124	0.0178559	0.0579438	17.9483	1.42721e+09	4.40602e+09	4.63141e+09	-72.0517	0.0000000E+000	0.0000000E+000	0.0000000E+000	72.0517	0.0000000E+000	0.0000000E+000	0.0000000E+000	-72.0517	0.0000000E+000	0.0000000E+000	0.0000000E+000	-17.9483	0.0000000E+000	0.0000000E+000	0.0000000E+000	17.9483	3.08715	72.0517	0.000000000000000E+000	5.51116e-06	-2.82736e-11	5.51119e-06	3.78327	2.59709e+06	13.3237	2.59711e+06
0.00129428	16.9015	5.78568	17.8643	-18.897	20330.1	3.78325	0.00145673	2.12539e+07	2.22932e+06	1	11	0.00503279	0.000281722	0	-0.0101725	-1.9409e-05	1.10569e-06	-86.9453	0.00392474	0.000209147	0.00391916	-18.9087	17.8658	16.9017	5.7896	0.0529604	0.0181293	0.0559774	18.897	2.22932e+09	6.51244e+09	6.88344e+09	-71.103	0.0000000E+000	0.0000000E+000	0.0000000E+000	71.103	0.0000000E+000	0.0000000E+000	0.0000000E+000	-71.103	0.0000000E+000	0.0000000E+000	0.0000000E+000	-18.897	0.0000000E+000	0.0000000E+000	0.0000000E+000	18.897	2.92126	71.103	0.000000000000000E+000	5.51116e-06	-2.82736e-11	5.51119e-06	3.78327	2.59709e+06	13.3237	2.59711e+06
0.000796479	18.9024	6.81091	20.092	-19.8151	20330.1	3.78325	0.00145673	2.93387e+07	3.37136e+06	1	11	0.00503072	0.000250384	0	-0.0101725	-1.9409e-05	1.0381e-06	-44.8907	0.00414601	0.00293726	0.00292607	-19.8201	20.0957	18.9053	6.81383	0.0468242	0.0168717	0.0497711	19.8151	3.37136e+09	9.35656e+09	9.94542e+09	-70.1849	0.0000000E+000	0.0000000E+000	0.0000000E+000	70.1849	0.0000000E+000	0.0000000E+000	0.0000000E+000	-70.1849	0.0000000E+000	0.0000000E+000	0.0000000E+000	-19.8151	0.0000000E+000	0.0000000E+000	0.0000000E+000	19.8151	2.77531	70.1849	0.000000000000000E+000	5.51116e-06	-2.82736e-11	5.51119e-06	3.78327	2.59709e+06	13.3237	2.59711e+06
0.000497799	18.9683	8.31994	20.7127	-23.6834	20330.1	3.78325	0.00145673	3.84278e+07	6.20028e+06	1	11	0.00503378	0.000243028	0	-0.0101725	-1.9409e-05	9.45435e-07	108.205	0.00389022	-0.00121537	-0.0036955	-23.6754	20.7101	18.9671	8.31625	0.0442133	0.019393	0.0482795	23.6834	6.20028e+09	1.41358e+10	1.54358e+10	-66.3166	0.0000000E+000	0.0000000E+000	0.0000000E+000	66.3166	0.0000000E+000	0.0000000E+000	0.0000000E+000	-66.3166	0.0000000E+000	0.0000000E+000	0.0000000E+000	-23.6834	0.0000000E+000	0.0000000E+000	0.0000000E+000	23.6834	2.27986	66.3166	0.000000000000000E+000	5.51116e-06	-2.82736e-11	5.51119e-06	3.78327	2.59709e+06	13.3237	2.59711e+06
0.000298679	19.3484	11.7318	22.6273	-31.2303	20330.1	3.78325	0.00145673	4.54203e+07	1.221e+07	1	11	0.00503338	0.000222448	0	-0.0101725	-1.9409e-05	1.9296e-06	-117.971	0.00867441	-0.00406852	0.0076611	-31.2523	22.6278	19.3443	11.7395	0.0377902	0.0229139	0.0441944	31.2303	1.221e+10	2.0137e+10	2.35495e+10	-58.7697	0.0000000E+000	0.0000000E+000	0.0000000E+000	58.7697	0.0000000E+000	0.0000000E+000	0.0000000E+000	-58.7697	0.0000000E+000	0.0000000E+000	0.0000000E+000	-31.2303	0.0000000E+000	0.0000000E+000	0.0000000E+000	31.2303	1.64922	58.7697	0.000000000000000E+000	5.51116e-06	-2.82736e-11	5.51119e-06	3.78327	2.59709e+06	13.3237	2.59711e+06
9.95598e-05	22.4291	34.6736	41.2956	-57.1026	20330.1	3.78325	0.00145673	4.61038e+07	3.25033e+07	1	11	0.00503516	0.00012193	0	-0.0101725	-1.9409e-05	2.83528e-06	136.664	0.0232534	-0.0169133	-0.0159581	-57.1103	41.273	22.4122	34.6577	0.0131524	0.0203325	0.0242156	57.1026	3.25033e+10	2.10252e+10	3.87108e+10	-32.8974	0.0000000E+000	0.0000000E+000	0.0000000E+000	32.8974	0.0000000E+000	0.0000000E+000	0.0000000E+000	-32.8974	0.0000000E+000	0.0000000E+000	0.0000000E+000	-57.1026	0.0000000E+000	0.0000000E+000	0.0000000E+000	57.1026	0.646864	32.8974	0.000000000000000E+000	5.51116e-06	-2.82736e-11	5.51119e-06	3.78327	2.59709e+06	13.3237	2.59711e+06