File: txt/17491_R279_UA654_SOC00_C02.mpt
EC-Lab ASCII FILE
Nb header lines : 63

Potentio Electrochemical Impedance Spectroscopy

Run on channel : 2 (SN 66139)
User :
CE vs. WE compliance from -10 V to 10 V
Electrode connection : standard
Potential control : Ewe
Ewe ctrl range : min = -10.00 V, max = 10.00 V
Safety Limits :
	Do not start on E overload
Acquisition started on : 09/15/2025 10:08:12.107
Loaded Setting File :  C:\Users\Celltest\OneDrive - store-dot.com\Documents\EC-Lab\Data\Charmaine\R279\17382_C01.mpr
Saved on :
	File : 17491_C02.mpr
	Directory : C:\Users\Celltest\OneDrive - store-dot.com\Documents\EC-Lab\Data\Charmaine\R279\
	Host : 169.254.61.224
Device : VMP-3e (SN .003165)
Address : USB
EC-LAB for windows v11.62 (software)
Internet server v27.00 (firmware)
Command interpretor v12.03 (firmware)
Electrode material :
Initial state :
Electrolyte :
Comments :
Electrode surface area : 0.001 cm²
Characteristic mass : 0.001 g
Equivalent Weight : 0.000 g/eq.
Density : 0.000 g/cm3
Volume (V) : 0.001 cm³
Cycle Definition : Charge/Discharge alternance
Mode                Single sine
E (V)               0.0000
vs.                 Eoc
tE (h:m:s)          0:00:0.0000
record              0
dI                  0.000
unit dI             mA
dt (s)              0.000
fi                  100.000
unit fi             kHz
ff                  10.000
unit ff             mHz
Nd                  6
Points              per decade
spacing             Logarithmic
Va (mV)             5.0
pw                  0.10
Na                  2
corr                0
E range min (V)     -10.000
E range max (V)     10.000
I Range             Auto
Bandwidth           5
nc cycles           0
goto Ns'            0
nr cycles           0
inc. cycle          0

freq/Hz	Re(Z)/Ohm	-Im(Z)/Ohm	|Z|/Ohm	Phase(Z)/deg	time/s	<Ewe>/V	<I>/mA	Cs/µF	Cp/µF	cycle number	I Range	|Ewe|/V	|I|/A	Ns	(Q-Qo)/mA.h	Re(Y)/Ohm-1	Im(Y)/Ohm-1	|Y|/Ohm-1	Phase(Y)/deg	Re(C)/nF	Im(C)/nF	|C|/nF	Phase(C)/deg	Re(M)	Im(M)	|M|	Phase(M)/deg	Re(Permittivity)	Im(Permittivity)	|Permittivity|	Phase(Permittivity)/deg	Re(Resistivity)/Ohm.cm	Im(Resistivity)/Ohm.cm	|Resistivity|/Ohm.cm	Phase(Resistivity)/deg	Re(Conductivity)/mS/cm	Im(Conductivity)/mS/cm	|Conductivity|/mS/cm	Phase(Conductivity)/deg	Tan(Delta)	Loss Angle(Delta)/deg	dq/mA.h	Pwe/W	Rwe/Ohm
100004	1.01079	0.232471	1.03718	-12.9521	1.86449	0.264822	0.00292616	6.84598	0.343924	1	9	0.00481351	0.00464095	0	-7.82278e-06	0.93962	0.216102	0.964151	12.9521	343.924	1495.4	1534.44	-77.0479	0.0000000E+000	0.0000000E+000	0.0000000E+000	77.0479	0.0000000E+000	0.0000000E+000	0.0000000E+000	-77.0479	0.0000000E+000	0.0000000E+000	0.0000000E+000	-12.9521	0.0000000E+000	0.0000000E+000	0.0000000E+000	12.9521	4.34805	77.0479	-7.82278e-06	7.74911e-07	90501.5
68132	1.06911	0.259728	1.10021	-13.6548	2.44248	0.264809	0.00339173	8.99392	0.501231	1	9	0.00504281	0.0045835	0	-6.61785e-06	0.883228	0.21457	0.908918	13.6548	501.231	2063.2	2123.21	-76.3452	0.0000000E+000	0.0000000E+000	0.0000000E+000	76.3452	0.0000000E+000	0.0000000E+000	0.0000000E+000	-76.3452	0.0000000E+000	0.0000000E+000	0.0000000E+000	-13.6548	0.0000000E+000	0.0000000E+000	0.0000000E+000	13.6548	4.11627	76.3452	1.20493e-06	8.98161e-07	78075.1
46420.4	1.13043	0.292017	1.16754	-14.4842	3.02048	0.264805	0.00527263	11.7409	0.734472	1	9	0.00505281	0.00432773	0	-1.54364e-05	0.829278	0.214222	0.8565	14.4842	734.472	2843.23	2936.56	-75.5158	0.0000000E+000	0.0000000E+000	0.0000000E+000	75.5158	0.0000000E+000	0.0000000E+000	0.0000000E+000	-75.5158	0.0000000E+000	0.0000000E+000	0.0000000E+000	-14.4842	0.0000000E+000	0.0000000E+000	0.0000000E+000	14.4842	3.87112	75.5158	-8.81853e-06	1.39622e-06	50222.6
31621.1	1.20177	0.331297	1.2466	-15.4121	3.59848	0.2648	-0.00130128	15.1924	1.07301	1	9	0.00511222	0.00410092	0	-2.17874e-05	0.773333	0.213187	0.80218	15.4121	1073.01	3892.32	4037.52	-74.5879	0.0000000E+000	0.0000000E+000	0.0000000E+000	74.5879	0.0000000E+000	0.0000000E+000	0.0000000E+000	-74.5879	0.0000000E+000	0.0000000E+000	0.0000000E+000	-15.4121	0.0000000E+000	0.0000000E+000	0.0000000E+000	15.4121	3.62749	74.5879	-6.351e-06	-3.4458e-07	203491
21544.7	1.28158	0.37702	1.33589	-16.393	4.0365	0.264802	-0.00215795	19.5937	1.56065	1	9	0.00543202	0.00406622	0	-1.85421e-05	0.718135	0.211264	0.748566	16.393	1560.65	5305.01	5529.81	-73.607	0.0000000E+000	0.0000000E+000	0.0000000E+000	73.607	0.0000000E+000	0.0000000E+000	0.0000000E+000	-73.607	0.0000000E+000	0.0000000E+000	0.0000000E+000	-16.393	0.0000000E+000	0.0000000E+000	0.0000000E+000	16.393	3.39924	73.607	3.24525e-06	-5.71429e-07	122710
14678.6	1.3679	0.426605	1.43288	-17.321	4.3325	0.264805	0.000318893	25.4161	2.2529	1	9	0.00476144	0.00332299	0	-2.13083e-05	0.666246	0.207781	0.697895	17.321	2252.9	7223.88	7567.03	-72.679	0.0000000E+000	0.0000000E+000	0.0000000E+000	72.679	0.0000000E+000	0.0000000E+000	0.0000000E+000	-72.679	0.0000000E+000	0.0000000E+000	0.0000000E+000	-17.321	0.0000000E+000	0.0000000E+000	0.0000000E+000	17.321	3.20648	72.679	-2.76618e-06	8.44443e-08	830389
10002.2	1.46292	0.481361	1.54008	-18.2134	4.76949	0.264799	0.000542364	33.0561	3.22932	1	9	0.00499874	0.00324578	0	-2.02771e-05	0.616787	0.202949	0.649319	18.2134	3229.32	9814.29	10331.9	-71.7866	0.0000000E+000	0.0000000E+000	0.0000000E+000	71.7866	0.0000000E+000	0.0000000E+000	0.0000000E+000	-71.7866	0.0000000E+000	0.0000000E+000	0.0000000E+000	-18.2134	0.0000000E+000	0.0000000E+000	0.0000000E+000	18.2134	3.03912	71.7866	1.03126e-06	1.43617e-07	488230
6811.07	1.57653	0.547906	1.66902	-19.1644	5.1485	0.26461	-0.139986	42.648	4.59606	1	9	0.00465766	0.00279065	0	-3.02465e-05	0.565948	0.196689	0.599152	19.1644	4596.06	13224.6	14000.5	-70.8356	0.0000000E+000	0.0000000E+000	0.0000000E+000	70.8356	0.0000000E+000	0.0000000E+000	0.0000000E+000	-70.8356	0.0000000E+000	0.0000000E+000	0.0000000E+000	-19.1644	0.0000000E+000	0.0000000E+000	0.0000000E+000	19.1644	2.87737	70.8356	-9.96945e-06	-3.70419e-05	1890.26
4641.49	1.69104	0.628677	1.80412	-20.3936	5.8427	0.264763	0.0149938	54.5426	6.62309	1	9	0.00487562	0.00270249	0	-2.76187e-05	0.519545	0.193151	0.554287	20.3936	6623.09	17815	19006.3	-69.6064	0.0000000E+000	0.0000000E+000	0.0000000E+000	69.6064	0.0000000E+000	0.0000000E+000	0.0000000E+000	-69.6064	0.0000000E+000	0.0000000E+000	0.0000000E+000	-20.3936	0.0000000E+000	0.0000000E+000	0.0000000E+000	20.3936	2.68983	69.6064	2.6278e-06	3.96979e-06	17658.2
3161.01	1.82593	0.726708	1.96523	-21.7023	6.30971	0.264762	0.0135784	69.2841	9.4739	1	9	0.00478837	0.00243655	0	-2.66164e-05	0.472779	0.188163	0.508847	21.7023	9473.9	23804.1	25620.1	-68.2977	0.0000000E+000	0.0000000E+000	0.0000000E+000	68.2977	0.0000000E+000	0.0000000E+000	0.0000000E+000	-68.2977	0.0000000E+000	0.0000000E+000	0.0000000E+000	-21.7023	0.0000000E+000	0.0000000E+000	0.0000000E+000	21.7023	2.5126	68.2977	1.00231e-06	3.59505e-06	19498.8
2155.69	1.96289	0.852267	2.13993	-23.47	6.7767	0.264758	0.0159994	86.628	13.7408	1	9	0.00474219	0.00221605	0	-2.54797e-05	0.428645	0.186113	0.467305	23.47	13740.8	31646.9	34501.2	-66.53	0.0000000E+000	0.0000000E+000	0.0000000E+000	66.53	0.0000000E+000	0.0000000E+000	0.0000000E+000	-66.53	0.0000000E+000	0.0000000E+000	0.0000000E+000	-23.47	0.0000000E+000	0.0000000E+000	0.0000000E+000	23.47	2.30314	66.53	1.1367e-06	4.23596e-06	16548
1468.59	2.11246	1.01774	2.34484	-25.7238	7.24395	0.264764	0.0190163	106.484	20.06	1	9	0.0047074	0.00200756	0	-2.20338e-05	0.384204	0.185102	0.426469	25.7238	20060	41637.2	46217.5	-64.2762	0.0000000E+000	0.0000000E+000	0.0000000E+000	64.2762	0.0000000E+000	0.0000000E+000	0.0000000E+000	-64.2762	0.0000000E+000	0.0000000E+000	0.0000000E+000	-25.7238	0.0000000E+000	0.0000000E+000	0.0000000E+000	25.7238	2.07564	64.2762	3.44587e-06	5.03482e-06	13923
1000.32	2.30117	1.24546	2.6166	-28.4235	7.7127	0.264763	0.0129266	127.747	28.9426	1	9	0.00469649	0.00179489	0	-2.2185e-05	0.336106	0.18191	0.382176	28.4235	28942.6	53475.8	60805.7	-61.5765	0.0000000E+000	0.0000000E+000	0.0000000E+000	61.5765	0.0000000E+000	0.0000000E+000	0.0000000E+000	-61.5765	0.0000000E+000	0.0000000E+000	0.0000000E+000	-28.4235	0.0000000E+000	0.0000000E+000	0.0000000E+000	28.4235	1.84765	61.5765	-1.5119e-07	3.42248e-06	20482
681.09	2.51662	1.54758	2.95438	-31.5892	8.17844	0.264766	0.0155524	150.995	41.432	1	9	0.00468382	0.00158538	0	-2.12424e-05	0.288326	0.177305	0.33848	31.5892	41432	67375.2	79095	-58.4108	0.0000000E+000	0.0000000E+000	0.0000000E+000	58.4108	0.0000000E+000	0.0000000E+000	0.0000000E+000	-58.4108	0.0000000E+000	0.0000000E+000	0.0000000E+000	-31.5892	0.0000000E+000	0.0000000E+000	0.0000000E+000	31.5892	1.62616	58.4108	9.42592e-07	4.11776e-06	17024.1
463.961	2.80407	1.95591	3.41883	-34.8967	8.90122	0.264772	-0.0289987	175.384	57.4027	1	10	0.00474552	0.00138805	0	-2.32056e-05	0.239902	0.167338	0.292498	34.8967	57402.7	82295	100337	-55.1033	0.0000000E+000	0.0000000E+000	0.0000000E+000	55.1033	0.0000000E+000	0.0000000E+000	0.0000000E+000	-55.1033	0.0000000E+000	0.0000000E+000	0.0000000E+000	-34.8967	0.0000000E+000	0.0000000E+000	0.0000000E+000	34.8967	1.43364	55.1033	-1.96319e-06	-7.67806e-06	9130.49
316.316	3.20317	2.47969	4.05083	-37.7447	9.36793	0.264776	-0.0292781	202.909	76.0343	1	10	0.00471596	0.0011642	0	-2.75038e-05	0.195206	0.151116	0.246863	37.7447	76034.3	98218.3	124210	-52.2553	0.0000000E+000	0.0000000E+000	0.0000000E+000	52.2553	0.0000000E+000	0.0000000E+000	0.0000000E+000	-52.2553	0.0000000E+000	0.0000000E+000	0.0000000E+000	-37.7447	0.0000000E+000	0.0000000E+000	0.0000000E+000	37.7447	1.29176	52.2553	-4.29822e-06	-7.75213e-06	9043.47
215.345	3.76882	3.14051	4.9058	-39.8041	9.83543	0.264775	-0.0281326	235.334	96.4424	1	10	0.00469678	0.000957394	0	-3.08702e-05	0.156598	0.130491	0.203841	39.8041	96442.4	115737	150653	-50.1959	0.0000000E+000	0.0000000E+000	0.0000000E+000	50.1959	0.0000000E+000	0.0000000E+000	0.0000000E+000	-50.1959	0.0000000E+000	0.0000000E+000	0.0000000E+000	-39.8041	0.0000000E+000	0.0000000E+000	0.0000000E+000	39.8041	1.20006	50.1959	-3.36631e-06	-7.44881e-06	9411.68
146.737	4.56395	3.89136	5.9977	-40.4519	10.2984	0.264774	-0.0285536	278.726	117.331	1	10	0.00468255	0.000780725	0	-3.4111e-05	0.126874	0.108176	0.166731	40.4519	117331	137610	180840	-49.5481	0.0000000E+000	0.0000000E+000	0.0000000E+000	49.5481	0.0000000E+000	0.0000000E+000	0.0000000E+000	-49.5481	0.0000000E+000	0.0000000E+000	0.0000000E+000	-40.4519	0.0000000E+000	0.0000000E+000	0.0000000E+000	40.4519	1.17284	49.5481	-3.24084e-06	-7.56024e-06	9272.9
100.032	5.67128	4.69369	7.36167	-39.612	10.7667	0.264777	-0.0284176	338.974	137.798	1	10	0.00468066	0.000635815	0	-3.72932e-05	0.104647	0.0866087	0.135839	39.612	137798	166498	216125	-50.388	0.0000000E+000	0.0000000E+000	0.0000000E+000	50.388	0.0000000E+000	0.0000000E+000	0.0000000E+000	-50.388	0.0000000E+000	0.0000000E+000	0.0000000E+000	-39.612	0.0000000E+000	0.0000000E+000	0.0000000E+000	39.612	1.20828	50.388	-3.18218e-06	-7.52434e-06	9317.38
68.104	7.11057	5.41175	8.93573	-37.2742	11.2453	0.264777	-0.0258044	431.827	158.389	1	10	0.00467381	0.000523047	0	-4.03384e-05	0.0890521	0.0677763	0.11191	37.2742	158389	208110	261528	-52.7258	0.0000000E+000	0.0000000E+000	0.0000000E+000	52.7258	0.0000000E+000	0.0000000E+000	0.0000000E+000	-52.7258	0.0000000E+000	0.0000000E+000	0.0000000E+000	-37.2742	0.0000000E+000	0.0000000E+000	0.0000000E+000	37.2742	1.31391	52.7258	-3.04527e-06	-6.83239e-06	10260.9
46.4415	8.87505	5.8919	10.6527	-33.5791	11.7006	0.264761	-0.0305577	581.645	177.928	1	10	0.00466729	0.00043813	0	-4.36371e-05	0.0782074	0.0519197	0.0938725	33.5791	177928	268016	321701	-56.4209	0.0000000E+000	0.0000000E+000	0.0000000E+000	56.4209	0.0000000E+000	0.0000000E+000	0.0000000E+000	-56.4209	0.0000000E+000	0.0000000E+000	0.0000000E+000	-33.5791	0.0000000E+000	0.0000000E+000	0.0000000E+000	33.5791	1.50631	56.4209	-3.29865e-06	-8.0905e-06	8664.29
31.6296	10.804	5.95266	12.3353	-28.8534	12.1475	0.264765	-0.0322825	845.31	196.851	1	10	0.00466605	0.000378267	0	-4.75533e-05	0.071004	0.039121	0.081068	28.8534	196851	357281	407921	-61.1466	0.0000000E+000	0.0000000E+000	0.0000000E+000	61.1466	0.0000000E+000	0.0000000E+000	0.0000000E+000	-61.1466	0.0000000E+000	0.0000000E+000	0.0000000E+000	-28.8534	0.0000000E+000	0.0000000E+000	0.0000000E+000	28.8534	1.81498	61.1466	-3.91618e-06	-8.54728e-06	8201.5
21.5517	12.6881	5.58123	13.8614	-23.7436	12.5863	0.264763	-0.0340259	1323.15	214.512	1	10	0.0046665	0.000336654	0	-5.03121e-05	0.0660363	0.0290479	0.0721427	23.7436	214512	487664	532758	-66.2564	0.0000000E+000	0.0000000E+000	0.0000000E+000	66.2564	0.0000000E+000	0.0000000E+000	0.0000000E+000	-66.2564	0.0000000E+000	0.0000000E+000	0.0000000E+000	-23.7436	0.0000000E+000	0.0000000E+000	0.0000000E+000	23.7436	2.27336	66.2564	-2.75879e-06	-9.00881e-06	7781.22
14.6852	14.2773	4.91715	15.1003	-19.0039	13.323	0.264793	-0.0168793	2204.09	233.714	1	11	0.00467933	0.000309884	0	-5.48085e-05	0.0626145	0.0215647	0.0662239	19.0039	233714	678604	717723	-70.9961	0.0000000E+000	0.0000000E+000	0.0000000E+000	70.9961	0.0000000E+000	0.0000000E+000	0.0000000E+000	-70.9961	0.0000000E+000	0.0000000E+000	0.0000000E+000	-19.0039	0.0000000E+000	0.0000000E+000	0.0000000E+000	19.0039	2.90357	70.9961	-4.49648e-06	-4.46953e-06	15687.4
10.0032	15.3991	4.08773	15.9324	-14.8664	13.7917	0.264802	-0.0168948	3892.24	256.212	1	11	0.00466551	0.000292831	0	-5.92177e-05	0.0606641	0.0161034	0.0627651	14.8664	256212	965191	998618	-75.1336	0.0000000E+000	0.0000000E+000	0.0000000E+000	75.1336	0.0000000E+000	0.0000000E+000	0.0000000E+000	-75.1336	0.0000000E+000	0.0000000E+000	0.0000000E+000	-14.8664	0.0000000E+000	0.0000000E+000	0.0000000E+000	14.8664	3.76716	75.1336	-4.40911e-06	-4.47378e-06	15673.5
6.81719	16.2125	3.34842	16.5547	-11.6694	14.1494	0.264791	-0.0176504	6972.28	285.241	1	11	0.00466541	0.000281818	0	-5.77151e-05	0.0591573	0.0122179	0.0604058	11.6694	285242	1.38109e+06	1.41024e+06	-78.3306	0.0000000E+000	0.0000000E+000	0.0000000E+000	78.3306	0.0000000E+000	0.0000000E+000	0.0000000E+000	-78.3306	0.0000000E+000	0.0000000E+000	0.0000000E+000	-11.6694	0.0000000E+000	0.0000000E+000	0.0000000E+000	11.6694	4.84184	78.3306	1.5026e-06	-4.67367e-06	15002
4.63925	16.7838	2.75626	17.0086	-9.32598	14.6513	0.264798	-0.0160835	12446.6	326.857	1	11	0.00466357	0.00027419	0	-6.37802e-05	0.0580168	0.00952763	0.0587939	9.32598	326856	1.99033e+06	2.01699e+06	-80.674	0.0000000E+000	0.0000000E+000	0.0000000E+000	80.674	0.0000000E+000	0.0000000E+000	0.0000000E+000	-80.674	0.0000000E+000	0.0000000E+000	0.0000000E+000	-9.32598	0.0000000E+000	0.0000000E+000	0.0000000E+000	9.32598	6.08932	80.674	-6.0651e-06	-4.25887e-06	16463.9
3.1604	17.2626	2.32646	17.4187	-7.67544	15.3602	0.264791	-0.0161683	21646.2	386.14	1	11	0.00466897	0.000268044	0	-6.69671e-05	0.0568953	0.00766771	0.0574096	7.67544	386140	2.8652e+06	2.8911e+06	-82.3246	0.0000000E+000	0.0000000E+000	0.0000000E+000	82.3246	0.0000000E+000	0.0000000E+000	0.0000000E+000	-82.3246	0.0000000E+000	0.0000000E+000	0.0000000E+000	-7.67544	0.0000000E+000	0.0000000E+000	0.0000000E+000	7.67544	7.42011	82.3246	-3.18691e-06	-4.28123e-06	16377.2
2.15577	17.6079	2.06082	17.7281	-6.67549	16.3768	0.264806	-0.0147383	35824.3	484.098	1	11	0.00466833	0.000263329	0	-6.56923e-05	0.0560251	0.00655715	0.0564076	6.67549	484098	4.1362e+06	4.16443e+06	-83.3245	0.0000000E+000	0.0000000E+000	0.0000000E+000	83.3245	0.0000000E+000	0.0000000E+000	0.0000000E+000	-83.3245	0.0000000E+000	0.0000000E+000	0.0000000E+000	-6.67549	0.0000000E+000	0.0000000E+000	0.0000000E+000	6.67549	8.54413	83.3245	1.27473e-06	-3.90279e-06	17967.1
1.46631	17.9765	1.87994	18.0746	-5.97015	17.85	0.264807	-0.0137375	57736.4	624.601	1	11	0.00466939	0.00025834	0	-6.70943e-05	0.0550263	0.00575451	0.0553263	5.97015	624601	5.97261e+06	6.00518e+06	-84.0299	0.0000000E+000	0.0000000E+000	0.0000000E+000	84.0299	0.0000000E+000	0.0000000E+000	0.0000000E+000	-84.0299	0.0000000E+000	0.0000000E+000	0.0000000E+000	-5.97015	0.0000000E+000	0.0000000E+000	0.0000000E+000	5.97015	9.56229	84.0299	-1.40197e-06	-3.63779e-06	19276.2
1.00006	18.3378	1.81128	18.4271	-5.64097	21.0403	0.264808	-0.0125807	87863.1	848.917	1	12	0.00467025	0.000253445	0	-8.21374e-05	0.0540052	0.00533424	0.054268	5.64097	848917	8.59464e+06	8.63646e+06	-84.359	0.0000000E+000	0.0000000E+000	0.0000000E+000	84.359	0.0000000E+000	0.0000000E+000	0.0000000E+000	-84.359	0.0000000E+000	0.0000000E+000	0.0000000E+000	-5.64097	0.0000000E+000	0.0000000E+000	0.0000000E+000	5.64097	10.1242	84.359	-1.50431e-05	-3.33148e-06	21048.7
0.681362	18.7226	1.78965	18.8079	-5.46019	24.1613	0.264807	-0.0116812	130519	1181.76	1	12	0.00467079	0.000248342	0	-0.000104169	0.0529278	0.00505926	0.0531691	5.46019	1.18176e+06	1.23631e+07	1.24194e+07	-84.5398	0.0000000E+000	0.0000000E+000	0.0000000E+000	84.5398	0.0000000E+000	0.0000000E+000	0.0000000E+000	-84.5398	0.0000000E+000	0.0000000E+000	0.0000000E+000	-5.46019	0.0000000E+000	0.0000000E+000	0.0000000E+000	5.46019	10.4616	84.5398	-2.20315e-05	-3.09327e-06	22669.5
0.464091	19.1563	1.7875	19.2395	-5.33091	28.726	0.264809	-0.0112844	191854	1656.06	1	12	0.00467108	0.000242786	0	-0.000131967	0.0517516	0.00482901	0.0519764	5.33091	1.65606e+06	1.77477e+07	1.78248e+07	-84.6691	0.0000000E+000	0.0000000E+000	0.0000000E+000	84.6691	0.0000000E+000	0.0000000E+000	0.0000000E+000	-84.6691	0.0000000E+000	0.0000000E+000	0.0000000E+000	-5.33091	0.0000000E+000	0.0000000E+000	0.0000000E+000	5.33091	10.7168	84.6691	-2.77982e-05	-2.9882e-06	23466.9
0.316193	19.6008	1.84204	19.6871	-5.36876	35.4083	0.264811	-0.0110253	273256	2392.22	1	12	0.00467304	0.000237365	0	-0.000156862	0.0505717	0.00475262	0.0507946	5.36876	2.39222e+06	2.54552e+07	2.55673e+07	-84.6312	0.0000000E+000	0.0000000E+000	0.0000000E+000	84.6312	0.0000000E+000	0.0000000E+000	0.0000000E+000	-84.6312	0.0000000E+000	0.0000000E+000	0.0000000E+000	-5.36876	0.0000000E+000	0.0000000E+000	0.0000000E+000	5.36876	10.6408	84.6312	-2.48949e-05	-2.91962e-06	24018.4
0.215268	20.0008	1.9336	20.0941	-5.52197	45.206	0.264806	-0.0106848	382362	3540.56	1	12	0.00467038	0.000232426	0	-0.000170269	0.049535	0.00478885	0.0497659	5.52197	3.54056e+06	3.66229e+07	3.67937e+07	-84.478	0.0000000E+000	0.0000000E+000	0.0000000E+000	84.478	0.0000000E+000	0.0000000E+000	0.0000000E+000	-84.478	0.0000000E+000	0.0000000E+000	0.0000000E+000	-5.52197	0.0000000E+000	0.0000000E+000	0.0000000E+000	5.52197	10.3438	84.478	-1.34075e-05	-2.82941e-06	24783.4
0.146929	20.3774	2.06398	20.4817	-5.78361	59.5427	0.264804	-0.00945129	524818	5329.5	1	12	0.00467063	0.000228039	0	-0.000167731	0.0485756	0.00492009	0.0488241	5.78361	5.3295e+06	5.26176e+07	5.28868e+07	-84.2164	0.0000000E+000	0.0000000E+000	0.0000000E+000	84.2164	0.0000000E+000	0.0000000E+000	0.0000000E+000	-84.2164	0.0000000E+000	0.0000000E+000	0.0000000E+000	-5.78361	0.0000000E+000	0.0000000E+000	0.0000000E+000	5.78361	9.8729	84.2164	2.5382e-06	-2.50274e-06	28017.8
0.0999041	20.7716	2.23316	20.8913	-6.13632	80.6127	0.26481	-0.00719627	713373	8151.28	1	12	0.00467263	0.000223664	0	-0.000152513	0.0475925	0.00511669	0.0478668	6.13632	8.15129e+06	7.58186e+07	7.62555e+07	-83.8637	0.0000000E+000	0.0000000E+000	0.0000000E+000	83.8637	0.0000000E+000	0.0000000E+000	0.0000000E+000	-83.8637	0.0000000E+000	0.0000000E+000	0.0000000E+000	-6.13632	0.0000000E+000	0.0000000E+000	0.0000000E+000	6.13632	9.30143	83.8637	1.52187e-05	-1.90564e-06	36798.2
0.0680626	21.1854	2.58576	21.3426	-6.95876	111.525	0.264799	-0.00502385	904322	13274.1	1	12	0.00466921	0.000218774	0	-0.000143061	0.0465095	0.00567667	0.0468547	6.95876	1.32741e+07	1.08756e+08	1.09563e+08	-83.0412	0.0000000E+000	0.0000000E+000	0.0000000E+000	83.0412	0.0000000E+000	0.0000000E+000	0.0000000E+000	-83.0412	0.0000000E+000	0.0000000E+000	0.0000000E+000	-6.95876	0.0000000E+000	0.0000000E+000	0.0000000E+000	6.95876	8.19309	83.0412	9.45119e-06	-1.33031e-06	52708.3
0.0464052	21.6565	3.18658	21.8897	-8.37055	156.848	0.264801	-0.00219113	1.07629e+06	22808.7	1	12	0.00467251	0.000213457	0	-0.000174734	0.045197	0.00665038	0.0456836	8.37055	2.28086e+07	1.55011e+08	1.5668e+08	-81.6294	0.0000000E+000	0.0000000E+000	0.0000000E+000	81.6294	0.0000000E+000	0.0000000E+000	0.0000000E+000	-81.6294	0.0000000E+000	0.0000000E+000	0.0000000E+000	-8.37055	0.0000000E+000	0.0000000E+000	0.0000000E+000	8.37055	6.79615	81.6294	-3.16723e-05	-5.80213e-07	120852
0.0315922	22.0993	4.07769	22.4724	-10.4544	223.409	0.264802	-0.0010016	1.23545e+06	40677.6	1	12	0.00467178	0.00020789	0	-0.000312963	0.0437603	0.00807449	0.0444991	10.4544	4.06776e+07	2.20456e+08	2.24177e+08	-79.5456	0.0000000E+000	0.0000000E+000	0.0000000E+000	79.5456	0.0000000E+000	0.0000000E+000	0.0000000E+000	-79.5456	0.0000000E+000	0.0000000E+000	0.0000000E+000	-10.4544	0.0000000E+000	0.0000000E+000	0.0000000E+000	10.4544	5.41958	79.5456	-0.000138229	-2.65225e-07	264379
0.0215268	22.6613	5.21751	23.2542	-12.9657	321.078	0.264801	-0.00119548	1.41703e+06	71334.8	1	12	0.00467191	0.000200906	0	-0.000602686	0.0419066	0.00964852	0.043003	12.9657	7.13348e+07	3.0983e+08	3.17936e+08	-77.0343	0.0000000E+000	0.0000000E+000	0.0000000E+000	77.0343	0.0000000E+000	0.0000000E+000	0.0000000E+000	-77.0343	0.0000000E+000	0.0000000E+000	0.0000000E+000	-12.9657	0.0000000E+000	0.0000000E+000	0.0000000E+000	12.9657	4.34332	77.0343	-0.000289723	-3.16565e-07	221502
0.0146812	23.5536	6.78628	24.5117	-16.0728	464.275	0.264798	-0.00206315	1.59745e+06	122445	1	12	0.00467111	0.000190566	0	-0.00101324	0.039202	0.0112949	0.0407968	16.0728	1.22445e+08	4.2498e+08	4.42268e+08	-73.9272	0.0000000E+000	0.0000000E+000	0.0000000E+000	73.9272	0.0000000E+000	0.0000000E+000	0.0000000E+000	-73.9272	0.0000000E+000	0.0000000E+000	0.0000000E+000	-16.0728	0.0000000E+000	0.0000000E+000	0.0000000E+000	16.0728	3.47077	73.9272	-0.000410551	-5.46319e-07	128347
0.0100092	24.6819	9.0575	26.2913	-20.1516	674.296	0.264798	-0.00244795	1.75555e+06	208356	1	12	0.0046701	0.000177629	0	-0.00136261	0.035707	0.0131034	0.0380354	20.1516	2.08356e+08	5.67774e+08	6.04798e+08	-69.8484	0.0000000E+000	0.0000000E+000	0.0000000E+000	69.8484	0.0000000E+000	0.0000000E+000	0.0000000E+000	-69.8484	0.0000000E+000	0.0000000E+000	0.0000000E+000	-20.1516	0.0000000E+000	0.0000000E+000	0.0000000E+000	20.1516	2.72502	69.8484	-0.000349373	-6.48214e-07	108171