File: txt/17495_R280_UC81_SOC50_C04.mpt
EC-Lab ASCII FILE
Nb header lines : 64

Potentio Electrochemical Impedance Spectroscopy

Run on channel : 4 (SN 66756)
User :
CE vs. WE compliance from -10 V to 10 V
Electrode connection : standard
Potential control : Ewe
Ewe ctrl range : min = -10.00 V, max = 10.00 V
Safety Limits :
	Do not start on E overload
Acquisition started on : 09/15/2025 12:22:32.413
Loaded Setting File :  C:\Users\Celltest\OneDrive - store-dot.com\Documents\EC-Lab\Data\Gyutae\17494_R280-G001, UC81 half-cell_C03.mpr
Saved on :
	File : 17495_R280-G001, UC81 half-cell_C04.mpr
	Directory : C:\Users\Celltest\OneDrive - store-dot.com\Documents\EC-Lab\Data\John\
	Host : 169.254.61.224
Device : VMP-3e (SN .003165)
Address : USB
EC-LAB for windows v11.62 (software)
Internet server v27.00 (firmware)
Command interpretor v12.03 (firmware)
Electrode material :
Initial state :
Electrolyte :
Comments :
Electrode surface area : 0.001 cm²
Characteristic mass : 0.001 g
Equivalent Weight : 0.000 g/eq.
Density : 0.000 g/cm3
Volume (V) : 0.001 cm³
Record Ece
Cycle Definition : Charge/Discharge alternance
Mode                Multi sine
E (V)               0.0000
vs.                 Eoc
tE (h:m:s)          0:00:0.0000
record              0
dI                  0.000
unit dI             mA
dt (s)              0.000
fi                  1.000
unit fi             MHz
ff                  0.100
unit ff             mHz
Nd                  10
Points              per decade
spacing             Logarithmic
Va (mV)             5.0
pw                  0.10
Na                  2
corr                0
E range min (V)     -10.000
E range max (V)     10.000
I Range             Auto
Bandwidth           5
nc cycles           0
goto Ns'            0
nr cycles           0
inc. cycle          0

freq/Hz	Re(Z)/Ohm	-Im(Z)/Ohm	|Z|/Ohm	Phase(Z)/deg	time/s	<Ewe>/V	<I>/mA	Cs/µF	Cp/µF	cycle number	I Range	|Ewe|/V	|I|/A	Ns	(Q-Qo)/mA.h	<Ece>/V	|Ece|/V	Phase(Zce)/deg	|Zce|/Ohm	Re(Zce)/Ohm	-Im(Zce)/Ohm	Phase(Zwe-ce)/deg	|Zwe-ce|/Ohm	Re(Zwe-ce)/Ohm	-Im(Zwe-ce)/Ohm	Re(Y)/Ohm-1	Im(Y)/Ohm-1	|Y|/Ohm-1	Phase(Y)/deg	Re(C)/nF	Im(C)/nF	|C|/nF	Phase(C)/deg	Re(M)	Im(M)	|M|	Phase(M)/deg	Re(Permittivity)	Im(Permittivity)	|Permittivity|	Phase(Permittivity)/deg	Re(Resistivity)/Ohm.cm	Im(Resistivity)/Ohm.cm	|Resistivity|/Ohm.cm	Phase(Resistivity)/deg	Re(Conductivity)/mS/cm	Im(Conductivity)/mS/cm	|Conductivity|/mS/cm	Phase(Conductivity)/deg	Tan(Delta)	Loss Angle(Delta)/deg	dq/mA.h	Pwe/W	Pce/W	Pwe-ce/W	<Ewe-Ece>/V	Rwe/Ohm	Rce/Ohm	Rwe-ce/Ohm		Ewe-Ece/V
1.00002e+06	2.0303	3.14844	3.7463	-57.1837	2.23353	3.78495	0.124518	0.0505495	0.0357028	1	10	0.000209103	5.58159e-05	0	2.42088e-05	3.03501e-06	0.000184433	-66.1884	3.3043	1.33405	3.02303	-61.4033	7.02893	3.36434	6.17147	0.144662	0.224331	0.26693	57.1837	35.7028	23.0232	42.4824	-32.8163	0.0000000E+000	0.0000000E+000	0.0000000E+000	32.8163	0.0000000E+000	0.0000000E+000	0.0000000E+000	-32.8163	0.0000000E+000	0.0000000E+000	0.0000000E+000	-57.1837	0.0000000E+000	0.0000000E+000	0.0000000E+000	57.1837	0.644858	32.8163	2.42088e-05	0.000471296	3.77915e-10	0.000471296	3.78495	30396.7	0.024374	30396.7
630957	0.639879	-0.0918237	0.646434	8.16628	3.40252	3.78393	0.021759	-2.74705	-0.0554277	1	9	0.000182313	0.000282029	0	2.76688e-05	-0.000188065	0.000105773	-95.6776	0.375042	-0.0371029	0.373202	-25.0234	0.665217	0.602776	0.281378	1.53126	-0.219739	1.54695	-8.16628	-55.4277	386.251	390.208	-98.1663	0.0000000E+000	0.0000000E+000	0.0000000E+000	98.1663	0.0000000E+000	0.0000000E+000	0.0000000E+000	-98.1663	0.0000000E+000	0.0000000E+000	0.0000000E+000	8.16628	0.0000000E+000	0.0000000E+000	0.0000000E+000	-8.16628	6.96857	81.8337	3.40801e-07	8.23343e-05	-4.09209e-09	8.23384e-05	3.78412	173902	8.64309	173911
398103	0.96957	-0.0767134	0.9726	4.52388	4.16851	3.78381	-0.0193427	-5.21138	-0.0324211	1	9	0.000804176	0.000826831	0	2.72191e-05	-0.000360054	3.32965e-05	167.485	0.04027	-0.0393132	-0.00872615	5.24762	0.934172	0.930256	-0.0854395	1.02497	-0.0810967	1.02817	-4.52388	-32.4211	409.765	411.046	-94.5239	0.0000000E+000	0.0000000E+000	0.0000000E+000	94.5239	0.0000000E+000	0.0000000E+000	0.0000000E+000	-94.5239	0.0000000E+000	0.0000000E+000	0.0000000E+000	4.52388	0.0000000E+000	0.0000000E+000	0.0000000E+000	-4.52388	12.6389	85.4761	-9.58354e-07	-7.3189e-05	6.9644e-09	-7.31959e-05	3.78417	195620	18.6145	195639
251206	1.06847	0.0732342	1.07097	-3.921	4.93756	3.78359	-0.0225129	8.65119	0.0404525	1	9	0.00240437	0.00224504	0	2.58619e-05	-0.000130735	5.00192e-05	77.3547	0.0222799	0.00487739	-0.0217395	-2.74671	1.07458	1.07334	0.0514947	0.931544	0.0638493	0.933729	3.921	40.4525	590.192	591.576	-86.079	0.0000000E+000	0.0000000E+000	0.0000000E+000	86.079	0.0000000E+000	0.0000000E+000	0.0000000E+000	-86.079	0.0000000E+000	0.0000000E+000	0.0000000E+000	-3.921	0.0000000E+000	0.0000000E+000	0.0000000E+000	3.921	14.5897	86.079	-3.08803e-07	-8.51796e-05	2.94321e-09	-8.51825e-05	3.78372	168064	5.80711	168069
158486	1.12509	0.147166	1.13467	-7.45223	5.70352	3.78352	-0.0236317	6.82371	0.114788	1	9	0.00514853	0.00453747	0	9.80316e-06	-5.42949e-05	5.73885e-05	60.0041	0.0126477	0.00632307	-0.0109537	-6.86491	1.13958	1.13141	0.136213	0.873869	0.114306	0.881313	7.45223	114.788	877.557	885.032	-82.5478	0.0000000E+000	0.0000000E+000	0.0000000E+000	82.5478	0.0000000E+000	0.0000000E+000	0.0000000E+000	-82.5478	0.0000000E+000	0.0000000E+000	0.0000000E+000	-7.45223	0.0000000E+000	0.0000000E+000	0.0000000E+000	7.45223	7.645	82.5478	-6.77227e-06	-8.9411e-05	1.28308e-09	-8.94123e-05	3.78357	160103	2.29754	160106
100004	1.17492	0.192764	1.19063	-9.31726	6.47154	3.7835	-0.0276225	8.25615	0.21641	1	9	0.00534738	0.00449122	0	1.10532e-05	-3.51849e-05	3.50505e-05	65.8885	0.00780423	0.00318814	-0.00712332	-8.95477	1.19265	1.17811	0.185641	0.828811	0.135979	0.839892	9.31726	216.41	1319.05	1336.68	-80.6827	0.0000000E+000	0.0000000E+000	0.0000000E+000	80.6827	0.0000000E+000	0.0000000E+000	0.0000000E+000	-80.6827	0.0000000E+000	0.0000000E+000	0.0000000E+000	-9.31726	0.0000000E+000	0.0000000E+000	0.0000000E+000	9.31726	6.09512	80.6827	-4.63104e-06	-0.00010451	9.71896e-10	-0.000104511	3.78353	136971	1.27378	136973
63093.8	1.22458	0.24234	1.24833	-11.194	7.23755	3.78349	-0.0196782	10.409	0.392286	1	9	0.00526061	0.00421413	0	8.74129e-06	-1.60749e-05	2.01251e-05	51.6113	0.00477563	0.00296564	-0.00374322	-10.9994	1.25052	1.22754	0.238597	0.785832	0.155514	0.801072	11.194	392.286	1982.27	2020.71	-78.806	0.0000000E+000	0.0000000E+000	0.0000000E+000	78.806	0.0000000E+000	0.0000000E+000	0.0000000E+000	-78.806	0.0000000E+000	0.0000000E+000	0.0000000E+000	-11.194	0.0000000E+000	0.0000000E+000	0.0000000E+000	11.194	5.05313	78.806	-2.14561e-06	-7.44523e-05	3.16326e-10	-7.44526e-05	3.78351	192268	0.81689	192269
39814.1	1.28944	0.300059	1.32389	-13.0999	8.00554	3.78348	-0.0236318	13.3223	0.684365	1	9	0.00522476	0.00394653	0	2.7515e-06	-0.000226284	1.50334e-05	73.4056	0.00380926	0.0010879	-0.00365061	-12.9354	1.32413	1.29052	0.296408	0.735694	0.1712	0.755351	13.0999	684.365	2940.91	3019.48	-76.9001	0.0000000E+000	0.0000000E+000	0.0000000E+000	76.9001	0.0000000E+000	0.0000000E+000	0.0000000E+000	-76.9001	0.0000000E+000	0.0000000E+000	0.0000000E+000	-13.0999	0.0000000E+000	0.0000000E+000	0.0000000E+000	13.0999	4.29728	76.9001	2.70745e-06	-8.94103e-05	5.3475e-09	-8.94156e-05	3.78371	160101	9.57544	160111
25116.9	1.37413	0.372998	1.42385	-15.1866	8.77152	3.7835	-0.0215058	16.9882	1.16582	1	9	0.00523424	0.00367611	0	8.69457e-06	-0.000149845	9.31834e-06	59.7251	0.00253484	0.00127794	-0.00218913	-15.0882	1.42452	1.37541	0.370809	0.677793	0.183982	0.702319	15.1866	1165.82	4294.88	4450.29	-74.8134	0.0000000E+000	0.0000000E+000	0.0000000E+000	74.8134	0.0000000E+000	0.0000000E+000	0.0000000E+000	-74.8134	0.0000000E+000	0.0000000E+000	0.0000000E+000	-15.1866	0.0000000E+000	0.0000000E+000	0.0000000E+000	15.1866	3.68401	74.8134	-7.14455e-07	-8.13673e-05	3.22253e-09	-8.13705e-05	3.78365	175929	6.96763	175936
15847.7	1.48021	0.458544	1.54961	-17.2121	9.53954	3.7835	-0.0320983	21.9015	1.91775	1	9	0.00522661	0.00337286	0	8.17093e-06	0.000117695	8.93623e-06	2.19344	0.00264945	0.00264751	-0.000101403	-17.1796	1.55211	1.48286	0.458443	0.616425	0.190958	0.645325	17.2121	1917.75	6190.62	6480.86	-72.7879	0.0000000E+000	0.0000000E+000	0.0000000E+000	72.7879	0.0000000E+000	0.0000000E+000	0.0000000E+000	-72.7879	0.0000000E+000	0.0000000E+000	0.0000000E+000	-17.2121	0.0000000E+000	0.0000000E+000	0.0000000E+000	17.2121	3.22806	72.7879	-8.77748e-07	-0.000121444	-3.7778e-09	-0.00012144	3.78339	117873	3.6667	117869
10002.2	1.60622	0.555215	1.69947	-19.0686	10.3075	3.78349	-0.0309794	28.6591	3.05885	1	9	0.00522873	0.00307668	0	-3.58713e-06	-0.000168955	1.51769e-05	-101.415	0.00493287	-0.000976319	0.00483529	-19.2333	1.70013	1.60524	0.56005	0.556132	0.192236	0.588419	19.0686	3058.86	8849.14	9362.9	-70.9314	0.0000000E+000	0.0000000E+000	0.0000000E+000	70.9314	0.0000000E+000	0.0000000E+000	0.0000000E+000	-70.9314	0.0000000E+000	0.0000000E+000	0.0000000E+000	-19.0686	0.0000000E+000	0.0000000E+000	0.0000000E+000	19.0686	2.89296	70.9314	-9.02118e-06	-0.00011721	5.2341e-09	-0.000117215	3.78366	122129	5.45378	122135
6309.38	1.7676	0.675028	1.8921	-20.9014	11.0736	3.7835	-0.0370215	37.369	4.75626	1	9	0.0050981	0.00269441	0	-6.35882e-06	-0.000149845	1.37234e-05	-12.3588	0.0050933	0.00497526	0.00109014	-20.8785	1.89714	1.77257	0.676118	0.493734	0.188552	0.528512	20.9014	4756.25	12454.5	13331.8	-69.0986	0.0000000E+000	0.0000000E+000	0.0000000E+000	69.0986	0.0000000E+000	0.0000000E+000	0.0000000E+000	-69.0986	0.0000000E+000	0.0000000E+000	0.0000000E+000	-20.9014	0.0000000E+000	0.0000000E+000	0.0000000E+000	20.9014	2.61855	69.0986	2.84208e-06	-0.000140071	5.54748e-09	-0.000140076	3.78365	102197	4.0475	102201
3983.6	1.96105	0.811223	2.12221	-22.4733	11.907	3.7835	-0.0198648	49.2497	7.19626	1	9	0.00499351	0.00235297	0	-5.85608e-06	-0.000207174	4.33768e-06	16.268	0.00184349	0.00176968	-0.000516418	-22.4422	2.12365	1.96282	0.810707	0.435422	0.18012	0.471206	22.4733	7196.26	17396.2	18825.9	-67.5267	0.0000000E+000	0.0000000E+000	0.0000000E+000	67.5267	0.0000000E+000	0.0000000E+000	0.0000000E+000	-67.5267	0.0000000E+000	0.0000000E+000	0.0000000E+000	-22.4733	0.0000000E+000	0.0000000E+000	0.0000000E+000	22.4733	2.41739	67.5267	3.26238e-06	-7.51584e-05	4.11547e-09	-7.51625e-05	3.78371	190463	10.4292	190473
2510.8	2.19824	0.971056	2.40317	-23.833	12.7318	3.78347	-0.0263545	65.2775	10.6582	1	9	0.00524804	0.0021838	0	-1.58501e-05	4.12549e-05	5.20428e-06	-58.7957	0.00238313	0.00123468	0.00203835	-23.8656	2.40512	2.19948	0.973094	0.380633	0.168142	0.416117	23.833	10658.2	24127.6	26376.9	-66.167	0.0000000E+000	0.0000000E+000	0.0000000E+000	66.167	0.0000000E+000	0.0000000E+000	0.0000000E+000	-66.167	0.0000000E+000	0.0000000E+000	0.0000000E+000	-23.833	0.0000000E+000	0.0000000E+000	0.0000000E+000	23.833	2.26377	66.167	-4.43429e-06	-9.97116e-05	-1.08725e-09	-9.97105e-05	3.78343	143561	1.56538	143559
1585.51	2.47018	1.15923	2.72866	-25.1402	13.6338	3.78348	-0.0276972	86.5931	15.6287	1	9	0.00517672	0.00189717	0	-2.57528e-05	-7.34048e-05	1.12902e-05	-52.081	0.00595111	0.00365723	0.00469471	-25.1967	2.73397	2.47383	1.16392	0.331764	0.155693	0.36648	25.1402	15628.7	33302.9	36787.7	-64.8598	0.0000000E+000	0.0000000E+000	0.0000000E+000	64.8598	0.0000000E+000	0.0000000E+000	0.0000000E+000	-64.8598	0.0000000E+000	0.0000000E+000	0.0000000E+000	-25.1402	0.0000000E+000	0.0000000E+000	0.0000000E+000	25.1402	2.13088	64.8598	-5.73467e-06	-0.000104792	2.03311e-09	-0.000104794	3.78356	136602	2.65026	136604
1000.32	2.78865	1.37525	3.10932	-26.2506	14.5358	3.78348	-0.0304572	115.691	22.6324	1	9	0.00505777	0.00162665	0	-3.5359e-05	-0.000436494	4.10185e-06	-15.6176	0.00252166	0.00242856	0.000678867	-26.242	3.1118	2.79108	1.37593	0.288445	0.142249	0.321614	26.2506	22632.4	45892.7	51170	-63.7494	0.0000000E+000	0.0000000E+000	0.0000000E+000	63.7494	0.0000000E+000	0.0000000E+000	0.0000000E+000	-63.7494	0.0000000E+000	0.0000000E+000	0.0000000E+000	-26.2506	0.0000000E+000	0.0000000E+000	0.0000000E+000	26.2506	2.02775	63.7494	-4.11733e-06	-0.000115234	1.32944e-08	-0.000115248	3.78392	124223	14.3314	124237
631.01	3.22505	1.65121	3.62318	-27.1122	15.6835	3.78348	-0.0226593	152.751	31.7253	1	10	0.00504153	0.00139147	0	-4.2633e-05	-0.000207174	5.16164e-06	-104.231	0.0037095	-0.000911919	0.00359566	-27.1693	3.62401	3.22414	1.6548	0.245673	0.125783	0.276001	27.1122	31725.3	61964.2	69613.6	-62.8878	0.0000000E+000	0.0000000E+000	0.0000000E+000	62.8878	0.0000000E+000	0.0000000E+000	0.0000000E+000	-62.8878	0.0000000E+000	0.0000000E+000	0.0000000E+000	-27.1122	0.0000000E+000	0.0000000E+000	0.0000000E+000	27.1122	1.95315	62.8878	-2.32509e-06	-8.5731e-05	4.69443e-09	-8.57357e-05	3.78368	166972	9.14301	166981
398.089	3.77233	1.95063	4.24681	-27.343	16.5849	3.78348	-0.0211859	204.958	43.2403	1	10	0.00496343	0.00116874	0	-4.84352e-05	-0.000379164	1.88752e-05	7.68157	0.01615	0.0160051	-0.00215873	-27.2183	4.26004	3.78833	1.94847	0.209163	0.108156	0.235471	27.343	43240.3	83622.6	94140.6	-62.657	0.0000000E+000	0.0000000E+000	0.0000000E+000	62.657	0.0000000E+000	0.0000000E+000	0.0000000E+000	-62.657	0.0000000E+000	0.0000000E+000	0.0000000E+000	-27.343	0.0000000E+000	0.0000000E+000	0.0000000E+000	27.343	1.93391	62.657	-3.10043e-06	-8.01565e-05	8.03293e-09	-8.01645e-05	3.78386	178585	17.897	178603
251.044	4.49363	2.21248	5.00877	-26.2137	17.483	3.78348	-0.0235135	286.544	55.9096	1	10	0.0049145	0.00098118	0	-5.52783e-05	-0.000245394	1.24072e-05	-18.0321	0.0126452	0.0120241	0.00391431	-26.1932	5.02128	4.50565	2.21639	0.179116	0.0881895	0.19965	26.2137	55909.6	113555	126572	-63.7863	0.0000000E+000	0.0000000E+000	0.0000000E+000	63.7863	0.0000000E+000	0.0000000E+000	0.0000000E+000	-63.7863	0.0000000E+000	0.0000000E+000	0.0000000E+000	-26.2137	0.0000000E+000	0.0000000E+000	0.0000000E+000	26.2137	2.03104	63.7863	-3.40529e-06	-8.89631e-05	5.77009e-09	-8.89688e-05	3.78373	160907	10.4363	160917
158.428	5.33214	2.32722	5.81787	-23.579	18.3879	3.78349	-0.0241066	431.667	69.0712	1	10	0.00488686	0.000839973	0	-6.34847e-05	-0.000264504	1.25713e-05	-84.1559	0.0149663	0.00152391	0.0148885	-23.7072	5.82524	5.33366	2.34211	0.157533	0.0687559	0.171884	23.579	69071.2	158256	172672	-66.421	0.0000000E+000	0.0000000E+000	0.0000000E+000	66.421	0.0000000E+000	0.0000000E+000	0.0000000E+000	-66.421	0.0000000E+000	0.0000000E+000	0.0000000E+000	-23.579	0.0000000E+000	0.0000000E+000	0.0000000E+000	23.579	2.2912	66.421	-3.95495e-06	-9.12072e-05	6.37631e-09	-9.12136e-05	3.78376	156948	10.9723	156959
100.032	6.20817	2.21028	6.58989	-19.5971	19.2879	3.78349	-0.0240805	719.838	80.9787	1	10	0.00486929	0.000738902	0	-6.9727e-05	-3.51849e-05	7.01169e-06	-88.6835	0.00948934	0.000218013	0.00948683	-19.6741	6.59329	6.20839	2.21976	0.142957	0.0508967	0.151748	19.5971	80978.7	227451	241436	-70.4029	0.0000000E+000	0.0000000E+000	0.0000000E+000	70.4029	0.0000000E+000	0.0000000E+000	0.0000000E+000	-70.4029	0.0000000E+000	0.0000000E+000	0.0000000E+000	-19.5971	0.0000000E+000	0.0000000E+000	0.0000000E+000	19.5971	2.80878	70.4029	-2.71476e-06	-9.11084e-05	8.47271e-10	-9.11093e-05	3.78352	157118	1.46113	157119
63.0823	6.94773	1.90457	7.20405	-15.3299	20.2049	3.78349	-0.0319699	1324.69	92.5886	1	10	0.00485674	0.000674169	0	-7.67739e-05	-0.000226284	1.29881e-05	-12.9809	0.0192654	0.018773	0.0043275	-15.3236	7.2233	6.9665	1.9089	0.133872	0.0366982	0.138811	15.3299	92588.6	337755	350216	-74.6701	0.0000000E+000	0.0000000E+000	0.0000000E+000	74.6701	0.0000000E+000	0.0000000E+000	0.0000000E+000	-74.6701	0.0000000E+000	0.0000000E+000	0.0000000E+000	-15.3299	0.0000000E+000	0.0000000E+000	0.0000000E+000	15.3299	3.64792	74.6701	-2.88917e-06	-0.000120958	7.23428e-09	-0.000120965	3.78372	118346	7.07806	118353
39.8089	7.49532	1.53111	7.6501	-11.5453	21.1058	3.78348	-0.0215627	2611.16	104.595	1	10	0.00485946	0.000635215	0	-8.14638e-05	0.000117695	1.16006e-05	84.8814	0.0182624	0.00162933	-0.0181896	-11.4093	7.64808	7.49695	1.51292	0.128072	0.026162	0.130717	11.5453	104595	512030	522604	-78.4547	0.0000000E+000	0.0000000E+000	0.0000000E+000	78.4547	0.0000000E+000	0.0000000E+000	0.0000000E+000	-78.4547	0.0000000E+000	0.0000000E+000	0.0000000E+000	-11.5453	0.0000000E+000	0.0000000E+000	0.0000000E+000	11.5453	4.89536	78.4547	-2.60791e-06	-8.15819e-05	-2.53781e-09	-8.15794e-05	3.78336	175464	5.45826	175459
25.1044	7.87846	1.00686	7.94254	-7.28284	21.9851	3.78349	-0.0213799	6296.55	101.186	1	10	0.00486439	0.000612448	0	-8.93684e-05	2.2145e-05	3.21787e-06	111.701	0.00525411	-0.0019428	-0.00488172	-7.24967	7.93999	7.87652	1.00197	0.124889	0.0159606	0.125904	7.28284	101186	791758	798198	-82.7172	0.0000000E+000	0.0000000E+000	0.0000000E+000	82.7172	0.0000000E+000	0.0000000E+000	0.0000000E+000	-82.7172	0.0000000E+000	0.0000000E+000	0.0000000E+000	-7.28284	0.0000000E+000	0.0000000E+000	0.0000000E+000	7.28284	7.82481	82.7172	-2.82965e-06	-8.08905e-05	-4.73457e-10	-8.08901e-05	3.78346	176965	1.03578	176964
15.8576	8.10687	0.86082	8.15244	-6.06119	22.863	3.78348	-0.022167	11659.3	129.993	1	10	0.00484881	0.000594768	0	-9.48053e-05	-1.60749e-05	1.32419e-05	52.564	0.022264	0.0135337	-0.0176783	-5.92778	8.16406	8.1204	0.843142	0.121977	0.012952	0.122663	6.06119	129993	1.22422e+06	1.23111e+06	-83.9388	0.0000000E+000	0.0000000E+000	0.0000000E+000	83.9388	0.0000000E+000	0.0000000E+000	0.0000000E+000	-83.9388	0.0000000E+000	0.0000000E+000	0.0000000E+000	-6.06119	0.0000000E+000	0.0000000E+000	0.0000000E+000	6.06119	9.41761	83.9388	-3.36513e-06	-8.38682e-05	3.56333e-10	-8.38686e-05	3.78349	170681	0.725176	170682
10.0032	8.45696	0.541795	8.47429	-3.66564	23.8438	3.78348	-0.0355956	29366.1	120.035	1	10	0.00486851	0.000574504	0	-0.00010239	-0.000130735	1.1555e-05	-70.0859	0.020113	0.00685069	0.0189103	-3.79016	8.48236	8.46381	0.560705	0.117763	0.00754445	0.118004	3.66564	120035	1.87365e+06	1.87749e+06	-86.3344	0.0000000E+000	0.0000000E+000	0.0000000E+000	86.3344	0.0000000E+000	0.0000000E+000	0.0000000E+000	-86.3344	0.0000000E+000	0.0000000E+000	0.0000000E+000	-3.66564	0.0000000E+000	0.0000000E+000	0.0000000E+000	3.66564	15.6092	86.3344	-8.89619e-07	-0.000134675	4.65358e-09	-0.00013468	3.78361	106291	3.67278	106294
6.31058	8.27984	0.68624	8.30823	-4.73789	24.7683	3.78348	-0.0263448	36751.5	250.732	1	10	0.00486681	0.000585782	0	-0.00010649	-0.000130735	7.31361e-06	16.4686	0.0124852	0.011973	-0.00353943	-4.70679	8.31987	8.29182	0.682701	0.119951	0.00994166	0.120363	4.73789	250732	3.02521e+06	3.03558e+06	-85.2621	0.0000000E+000	0.0000000E+000	0.0000000E+000	85.2621	0.0000000E+000	0.0000000E+000	0.0000000E+000	-85.2621	0.0000000E+000	0.0000000E+000	0.0000000E+000	-4.73789	0.0000000E+000	0.0000000E+000	0.0000000E+000	4.73789	12.0655	85.2621	2.70466e-06	-9.9675e-05	3.44417e-09	-9.96784e-05	3.78361	143614	4.96246	143619
3.97785	8.36706	0.452387	8.37928	-3.09483	26.0713	3.7835	-0.0115871	88442.6	257.791	1	11	0.00486063	0.000580077	0	-0.000120456	-0.000130735	6.86417e-06	32.9969	0.0118332	0.00992452	-0.00644429	-3.04722	8.38885	8.37699	0.445942	0.119168	0.00644312	0.119342	3.09483	257791	4.76794e+06	4.7749e+06	-86.9052	0.0000000E+000	0.0000000E+000	0.0000000E+000	86.9052	0.0000000E+000	0.0000000E+000	0.0000000E+000	-86.9052	0.0000000E+000	0.0000000E+000	0.0000000E+000	-3.09483	0.0000000E+000	0.0000000E+000	0.0000000E+000	3.09483	18.4954	86.9052	-9.38363e-06	-4.38398e-05	1.51483e-09	-4.38413e-05	3.78363	326527	11.2828	326539
2.51367	8.36557	0.589962	8.38634	-4.03397	27.6309	3.78351	-0.0214248	107322	531.117	1	11	0.00485847	0.000579331	0	-0.000114789	-0.000264504	6.36385e-06	15.4918	0.0109848	0.0105857	-0.00293405	-4.00892	8.3967	8.37615	0.587028	0.118946	0.0083884	0.119242	4.03397	531117	7.53115e+06	7.54985e+06	-85.966	0.0000000E+000	0.0000000E+000	0.0000000E+000	85.966	0.0000000E+000	0.0000000E+000	0.0000000E+000	-85.966	0.0000000E+000	0.0000000E+000	0.0000000E+000	-4.03397	0.0000000E+000	0.0000000E+000	0.0000000E+000	4.03397	14.1798	85.966	1.73088e-06	-8.1061e-05	5.66696e-09	-8.10667e-05	3.78377	176594	12.3457	176607
1.58469	8.60735	0.418359	8.61751	-2.78266	30.0665	3.78351	-0.0171596	240065	565.8	1	11	0.00486278	0.000564291	0	-0.000140572	3.03501e-06	4.83951e-06	4.8247	0.00857628	0.00854589	-0.000721328	-2.77512	8.62601	8.61589	0.417638	0.115906	0.0056336	0.116043	2.78266	565799	1.16408e+07	1.16545e+07	-87.2173	0.0000000E+000	0.0000000E+000	0.0000000E+000	87.2173	0.0000000E+000	0.0000000E+000	0.0000000E+000	-87.2173	0.0000000E+000	0.0000000E+000	0.0000000E+000	-2.78266	0.0000000E+000	0.0000000E+000	0.0000000E+000	2.78266	20.5741	87.2173	-1.79607e-05	-6.49233e-05	-5.20795e-11	-6.49233e-05	3.7835	220490	0.17687	220490
1.00469	8.82107	0.430232	8.83155	-2.79229	240.885	3.78347	-0.0153761	368200	873.806	1	11	0.00506361	0.000573355	0	-0.00328394	4.12549e-05	3.67463e-07	11.5477	0.000640899	0.000627926	-0.000128298	-2.79126	8.83217	8.82169	0.430104	0.113096	0.00551605	0.11323	2.79229	873807	1.79157e+07	1.7937e+07	-87.2077	0.0000000E+000	0.0000000E+000	0.0000000E+000	87.2077	0.0000000E+000	0.0000000E+000	0.0000000E+000	-87.2077	0.0000000E+000	0.0000000E+000	0.0000000E+000	-2.79229	0.0000000E+000	0.0000000E+000	0.0000000E+000	2.79229	20.5031	87.2077	-0.00312405	-5.81752e-05	-6.34342e-10	-5.81746e-05	3.78343	246061	2.68305	246058
0.632957	8.91999	0.49178	8.93353	-3.15566	240.887	3.78347	-0.0153761	511299	1549.42	1	11	0.00507646	0.000568248	0	-0.00328394	4.12549e-05	6.64507e-07	10.4701	0.0011694	0.00114993	-0.000212505	-3.15389	8.93467	8.92114	0.491568	0.111768	0.00616204	0.111938	3.15566	1.54942e+06	2.81037e+07	2.81464e+07	-86.8443	0.0000000E+000	0.0000000E+000	0.0000000E+000	86.8443	0.0000000E+000	0.0000000E+000	0.0000000E+000	-86.8443	0.0000000E+000	0.0000000E+000	0.0000000E+000	-3.15566	0.0000000E+000	0.0000000E+000	0.0000000E+000	3.15566	18.1382	86.8443	0.000000000000000E+000	-5.81752e-05	-6.34342e-10	-5.81746e-05	3.78343	246061	2.68305	246058
0.401878	9.00017	0.578311	9.01873	-3.67652	240.888	3.78347	-0.0153761	684802	2815.77	1	11	0.00508979	0.000564358	0	-0.00328394	4.12549e-05	7.74941e-07	7.39957	0.00137314	0.0013617	-0.000176844	-3.67484	9.02008	9.00153	0.578134	0.110652	0.00711002	0.11088	3.67652	2.81577e+06	4.38214e+07	4.39118e+07	-86.3235	0.0000000E+000	0.0000000E+000	0.0000000E+000	86.3235	0.0000000E+000	0.0000000E+000	0.0000000E+000	-86.3235	0.0000000E+000	0.0000000E+000	0.0000000E+000	-3.67652	0.0000000E+000	0.0000000E+000	0.0000000E+000	3.67652	15.5628	86.3235	0.000000000000000E+000	-5.81752e-05	-6.34342e-10	-5.81746e-05	3.78343	246061	2.68305	246058
0.251173	9.15539	0.675066	9.18024	-4.21703	240.889	3.78347	-0.0153761	938643	5075.57	1	11	0.00509016	0.000554469	0	-0.00328394	4.12549e-05	5.22505e-07	-11.1782	0.000942352	0.000924474	0.000182685	-4.21774	9.18118	9.15631	0.675249	0.108635	0.0080101	0.10893	4.21703	5.07557e+06	6.88359e+07	6.90228e+07	-85.783	0.0000000E+000	0.0000000E+000	0.0000000E+000	85.783	0.0000000E+000	0.0000000E+000	0.0000000E+000	-85.783	0.0000000E+000	0.0000000E+000	0.0000000E+000	-4.21703	0.0000000E+000	0.0000000E+000	0.0000000E+000	4.21703	13.5622	85.783	0.000000000000000E+000	-5.81752e-05	-6.34342e-10	-5.81746e-05	3.78343	246061	2.68305	246058
0.160751	9.29811	0.796129	9.33213	-4.89388	240.891	3.78347	-0.0153761	1.24361e+06	9050.83	1	11	0.00508522	0.000544915	0	-0.00328394	4.12549e-05	6.22401e-07	12.3525	0.0011422	0.00111576	-0.000244345	-4.8918	9.33322	9.29922	0.795885	0.106766	0.0091416	0.107157	4.89388	9.05083e+06	1.05706e+08	1.06093e+08	-85.1061	0.0000000E+000	0.0000000E+000	0.0000000E+000	85.1061	0.0000000E+000	0.0000000E+000	0.0000000E+000	-85.1061	0.0000000E+000	0.0000000E+000	0.0000000E+000	-4.89388	0.0000000E+000	0.0000000E+000	0.0000000E+000	4.89388	11.6791	85.1061	0.000000000000000E+000	-5.81752e-05	-6.34342e-10	-5.81746e-05	3.78343	246061	2.68305	246058
0.100469	9.43211	1.14995	9.50196	-6.9511	240.892	3.78347	-0.0153761	1.37755e+06	20176.2	1	11	0.00508775	0.000535442	0	-0.00328394	4.12549e-05	4.77086e-07	19.762	0.000891013	0.000838537	-0.000301264	-6.94868	9.50275	9.43295	1.14965	0.104468	0.0127366	0.105241	6.9511	2.01761e+07	1.65489e+08	1.66715e+08	-83.0489	0.0000000E+000	0.0000000E+000	0.0000000E+000	83.0489	0.0000000E+000	0.0000000E+000	0.0000000E+000	-83.0489	0.0000000E+000	0.0000000E+000	0.0000000E+000	-6.9511	0.0000000E+000	0.0000000E+000	0.0000000E+000	6.9511	8.20222	83.0489	0.000000000000000E+000	-5.81752e-05	-6.34342e-10	-5.81746e-05	3.78343	246061	2.68305	246058
0.0602816	9.6944	1.46228	9.80406	-8.57768	240.893	3.78347	-0.0153761	1.80553e+06	40165.5	1	11	0.00508373	0.000518533	0	-0.00328394	4.12549e-05	3.01166e-07	41.1051	0.000580804	0.000437639	-0.000381845	-8.57509	9.80443	9.69483	1.4619	0.100858	0.0152131	0.101999	8.57768	4.01655e+07	2.66283e+08	2.69296e+08	-81.4223	0.0000000E+000	0.0000000E+000	0.0000000E+000	81.4223	0.0000000E+000	0.0000000E+000	0.0000000E+000	-81.4223	0.0000000E+000	0.0000000E+000	0.0000000E+000	-8.57768	0.0000000E+000	0.0000000E+000	0.0000000E+000	8.57768	6.62966	81.4223	0.000000000000000E+000	-5.81752e-05	-6.34342e-10	-5.81746e-05	3.78343	246061	2.68305	246058
0.0401878	10.1733	1.82603	10.3358	-10.1758	240.894	3.78347	-0.0153761	2.1688e+06	67692.8	1	11	0.00508278	0.000491763	0	-0.00328394	4.12549e-05	1.02003e-06	31.5326	0.00207424	0.00176796	-0.00108479	-10.1682	10.3374	10.175	1.82494	0.0952288	0.0170929	0.0967507	10.1758	6.76928e+07	3.77133e+08	3.8316e+08	-79.8242	0.0000000E+000	0.0000000E+000	0.0000000E+000	79.8242	0.0000000E+000	0.0000000E+000	0.0000000E+000	-79.8242	0.0000000E+000	0.0000000E+000	0.0000000E+000	-10.1758	0.0000000E+000	0.0000000E+000	0.0000000E+000	10.1758	5.57125	79.8242	0.000000000000000E+000	-5.81752e-05	-6.34342e-10	-5.81746e-05	3.78343	246061	2.68305	246058
0.0200939	11.1194	2.95509	11.5054	-14.8829	240.896	3.78347	-0.0153761	2.68032e+06	176817	1	11	0.00508404	0.000441884	0	-0.00328394	4.12549e-05	4.51576e-07	-33.5681	0.00102194	0.000851506	0.000565057	-14.8845	11.5064	11.1203	2.95565	0.084	0.0223238	0.0869158	14.8829	1.76817e+08	6.65328e+08	6.88422e+08	-75.1171	0.0000000E+000	0.0000000E+000	0.0000000E+000	75.1171	0.0000000E+000	0.0000000E+000	0.0000000E+000	-75.1171	0.0000000E+000	0.0000000E+000	0.0000000E+000	-14.8829	0.0000000E+000	0.0000000E+000	0.0000000E+000	14.8829	3.76281	75.1171	0.000000000000000E+000	-5.81752e-05	-6.34342e-10	-5.81746e-05	3.78343	246061	2.68305	246058
0.00796479	13.7486	3.8049	14.2654	-15.4693	20329.8	3.78346	0.000571764	5.25173e+06	373612	1	11	0.00507452	0.000355722	0	-0.0145786	7.94748e-05	4.2313e-07	-3.76469	0.0011895	0.00118693	7.8101e-05	-15.4683	14.2666	13.7498	3.80498	0.0675601	0.0186971	0.0700996	15.4693	3.73612e+08	1.35001e+09	1.40075e+09	-74.5307	0.0000000E+000	0.0000000E+000	0.0000000E+000	74.5307	0.0000000E+000	0.0000000E+000	0.0000000E+000	-74.5307	0.0000000E+000	0.0000000E+000	0.0000000E+000	-15.4693	0.0000000E+000	0.0000000E+000	0.0000000E+000	15.4693	3.6134	74.5307	-0.0112947	2.16325e-06	4.54409e-11	2.1632e-06	3.78338	6.61717e+06	138.999	6.61703e+06
0.00497799	15.3245	3.97487	15.8316	-14.5409	20329.8	3.78346	0.000571764	8.04347e+06	507036	1	11	0.00508281	0.000321054	0	-0.0145786	7.94748e-05	4.78399e-07	-16.3062	0.00149009	0.00143015	0.000418373	-14.5411	15.8331	15.3259	3.97529	0.0611415	0.0158589	0.0631648	14.5409	5.07036e+08	1.9548e+09	2.01949e+09	-75.4591	0.0000000E+000	0.0000000E+000	0.0000000E+000	75.4591	0.0000000E+000	0.0000000E+000	0.0000000E+000	-75.4591	0.0000000E+000	0.0000000E+000	0.0000000E+000	-14.5409	0.0000000E+000	0.0000000E+000	0.0000000E+000	14.5409	3.85535	75.4591	0.000000000000000E+000	2.16325e-06	4.54409e-11	2.1632e-06	3.78338	6.61717e+06	138.999	6.61703e+06
0.00318591	16.2003	4.83901	16.9076	-16.6308	20329.8	3.78346	0.000571764	1.03236e+07	845626	1	11	0.00508443	0.000300719	0	-0.0145786	7.94748e-05	4.4218e-07	14.4124	0.00147041	0.00142414	-0.000365985	-16.6282	16.9089	16.2018	4.83864	0.0566709	0.0169275	0.059145	16.6308	8.45626e+08	2.83104e+09	2.95464e+09	-73.3692	0.0000000E+000	0.0000000E+000	0.0000000E+000	73.3692	0.0000000E+000	0.0000000E+000	0.0000000E+000	-73.3692	0.0000000E+000	0.0000000E+000	0.0000000E+000	-16.6308	0.0000000E+000	0.0000000E+000	0.0000000E+000	16.6308	3.34786	73.3692	0.000000000000000E+000	2.16325e-06	4.54409e-11	2.1632e-06	3.78338	6.61717e+06	138.999	6.61703e+06
0.0019912	17.4248	5.22404	18.191	-16.689	20329.8	3.78346	0.000571764	1.53003e+07	1.26182e+06	1	11	0.00509011	0.000279814	0	-0.0145786	7.94748e-05	7.78148e-07	-26.1502	0.00278094	0.00249629	0.00122563	-16.6904	18.1938	17.4273	5.22526	0.0526566	0.0157867	0.0549722	16.689	1.26182e+09	4.20881e+09	4.39389e+09	-73.311	0.0000000E+000	0.0000000E+000	0.0000000E+000	73.311	0.0000000E+000	0.0000000E+000	0.0000000E+000	-73.311	0.0000000E+000	0.0000000E+000	0.0000000E+000	-16.689	0.0000000E+000	0.0000000E+000	0.0000000E+000	16.689	3.3355	73.311	0.000000000000000E+000	2.16325e-06	4.54409e-11	2.1632e-06	3.78338	6.61717e+06	138.999	6.61703e+06
0.00129428	17.8529	5.58251	18.7054	-17.3642	20329.8	3.78346	0.000571764	2.20274e+07	1.96196e+06	1	11	0.00508867	0.000272043	0	-0.0145786	7.94748e-05	7.81345e-07	-8.87163	0.00287214	0.00283778	0.000442944	-17.3629	18.7082	17.8557	5.58296	0.0510242	0.015955	0.0534606	17.3642	1.96196e+09	6.27436e+09	6.57395e+09	-72.6358	0.0000000E+000	0.0000000E+000	0.0000000E+000	72.6358	0.0000000E+000	0.0000000E+000	0.0000000E+000	-72.6358	0.0000000E+000	0.0000000E+000	0.0000000E+000	-17.3642	0.0000000E+000	0.0000000E+000	0.0000000E+000	17.3642	3.198	72.6358	0.000000000000000E+000	2.16325e-06	4.54409e-11	2.1632e-06	3.78338	6.61717e+06	138.999	6.61703e+06
0.000796479	19.6248	6.80019	20.7695	-19.1118	20329.8	3.78346	0.000571764	2.93849e+07	3.15002e+06	1	11	0.00508713	0.000244932	0	-0.0145786	7.94748e-05	1.32019e-06	-74.1626	0.00539003	0.00147098	0.00518543	-19.1239	20.7726	19.6262	6.80538	0.0454936	0.015764	0.0481474	19.1118	3.15002e+09	9.09069e+09	9.62098e+09	-70.8882	0.0000000E+000	0.0000000E+000	0.0000000E+000	70.8882	0.0000000E+000	0.0000000E+000	0.0000000E+000	-70.8882	0.0000000E+000	0.0000000E+000	0.0000000E+000	-19.1118	0.0000000E+000	0.0000000E+000	0.0000000E+000	19.1118	2.88591	70.8882	0.000000000000000E+000	2.16325e-06	4.54409e-11	2.1632e-06	3.78338	6.61717e+06	138.999	6.61703e+06
0.000497799	19.738	8.3641	21.437	-22.9651	20329.8	3.78346	0.000571764	3.82249e+07	5.81911e+06	1	11	0.00508971	0.000237426	0	-0.0145786	7.94748e-05	1.53868e-06	-25.371	0.00648065	0.00585561	0.00277682	-22.9659	21.4435	19.7438	8.36688	0.042951	0.0182008	0.0466483	22.9651	5.81911e+09	1.37322e+10	1.49143e+10	-67.0349	0.0000000E+000	0.0000000E+000	0.0000000E+000	67.0349	0.0000000E+000	0.0000000E+000	0.0000000E+000	-67.0349	0.0000000E+000	0.0000000E+000	0.0000000E+000	-22.9651	0.0000000E+000	0.0000000E+000	0.0000000E+000	22.9651	2.35984	67.0349	0.000000000000000E+000	2.16325e-06	4.54409e-11	2.1632e-06	3.78338	6.61717e+06	138.999	6.61703e+06
0.000298679	20.1162	11.8664	23.3553	-30.536	20329.8	3.78346	0.000571764	4.49052e+07	1.15921e+07	1	11	0.00508919	0.000217903	0	-0.0145786	7.94748e-05	1.56431e-06	47.0146	0.00717893	0.00489468	-0.00525158	-30.5188	23.3569	20.1211	11.8611	0.0368785	0.0217544	0.0428168	30.536	1.15921e+10	1.96512e+10	2.28155e+10	-59.464	0.0000000E+000	0.0000000E+000	0.0000000E+000	59.464	0.0000000E+000	0.0000000E+000	0.0000000E+000	-59.464	0.0000000E+000	0.0000000E+000	0.0000000E+000	-30.536	0.0000000E+000	0.0000000E+000	0.0000000E+000	30.536	1.69523	59.464	0.000000000000000E+000	2.16325e-06	4.54409e-11	2.1632e-06	3.78338	6.61717e+06	138.999	6.61703e+06
9.95598e-05	23.2683	34.7563	41.826	-56.1989	20329.8	3.78346	0.000571764	4.59941e+07	3.17597e+07	1	11	0.00508832	0.000121654	0	-0.0145786	7.94748e-05	2.12315e-06	-91.1309	0.0174523	-0.000344443	0.0174489	-56.2125	41.8403	23.268	34.7738	0.0133006	0.0198674	0.0239086	56.1989	3.17597e+10	2.12622e+10	3.82199e+10	-33.8011	0.0000000E+000	0.0000000E+000	0.0000000E+000	33.8011	0.0000000E+000	0.0000000E+000	0.0000000E+000	-33.8011	0.0000000E+000	0.0000000E+000	0.0000000E+000	-56.1989	0.0000000E+000	0.0000000E+000	0.0000000E+000	56.1989	0.66947	33.8011	0.000000000000000E+000	2.16325e-06	4.54409e-11	2.1632e-06	3.78338	6.61717e+06	138.999	6.61703e+06