File: txt/17500_R280_UC81_SOC50_C08.mpt
EC-Lab ASCII FILE
Nb header lines : 64

Potentio Electrochemical Impedance Spectroscopy

Run on channel : 8 (SN 65398)
User :
CE vs. WE compliance from -10 V to 10 V
Electrode connection : standard
Potential control : Ewe
Ewe ctrl range : min = -10.00 V, max = 10.00 V
Safety Limits :
	Do not start on E overload
Acquisition started on : 09/15/2025 12:23:49.298
Loaded Setting File :  C:\Users\Celltest\OneDrive - store-dot.com\Documents\EC-Lab\Data\John\17499_R280-G002, UC81 half-cell_C06.mps
Saved on :
	File : 17500_R280-G002, UC81 half-cell_C06_C07_C08.mpr
	Directory : C:\Users\Celltest\OneDrive - store-dot.com\Documents\EC-Lab\Data\John\
	Host : 169.254.61.224
Device : VMP-3e (SN .003165)
Address : USB
EC-LAB for windows v11.62 (software)
Internet server v27.00 (firmware)
Command interpretor v12.03 (firmware)
Electrode material :
Initial state :
Electrolyte :
Comments :
Electrode surface area : 0.001 cm²
Characteristic mass : 0.001 g
Equivalent Weight : 0.000 g/eq.
Density : 0.000 g/cm3
Volume (V) : 0.001 cm³
Record Ece
Cycle Definition : Charge/Discharge alternance
Mode                Multi sine
E (V)               0.0000
vs.                 Eoc
tE (h:m:s)          0:00:0.0000
record              0
dI                  0.000
unit dI             mA
dt (s)              0.000
fi                  1.000
unit fi             MHz
ff                  0.100
unit ff             mHz
Nd                  10
Points              per decade
spacing             Logarithmic
Va (mV)             5.0
pw                  0.10
Na                  2
corr                0
E range min (V)     -10.000
E range max (V)     10.000
I Range             Auto
Bandwidth           5
nc cycles           0
goto Ns'            0
nr cycles           0
inc. cycle          0

freq/Hz	Re(Z)/Ohm	-Im(Z)/Ohm	|Z|/Ohm	Phase(Z)/deg	time/s	<Ewe>/V	<I>/mA	Cs/µF	Cp/µF	cycle number	I Range	|Ewe|/V	|I|/A	Ns	(Q-Qo)/mA.h	<Ece>/V	|Ece|/V	Phase(Zce)/deg	|Zce|/Ohm	Re(Zce)/Ohm	-Im(Zce)/Ohm	Phase(Zwe-ce)/deg	|Zwe-ce|/Ohm	Re(Zwe-ce)/Ohm	-Im(Zwe-ce)/Ohm	Re(Y)/Ohm-1	Im(Y)/Ohm-1	|Y|/Ohm-1	Phase(Y)/deg	Re(C)/nF	Im(C)/nF	|C|/nF	Phase(C)/deg	Re(M)	Im(M)	|M|	Phase(M)/deg	Re(Permittivity)	Im(Permittivity)	|Permittivity|	Phase(Permittivity)/deg	Re(Resistivity)/Ohm.cm	Im(Resistivity)/Ohm.cm	|Resistivity|/Ohm.cm	Phase(Resistivity)/deg	Re(Conductivity)/mS/cm	Im(Conductivity)/mS/cm	|Conductivity|/mS/cm	Phase(Conductivity)/deg	Tan(Delta)	Loss Angle(Delta)/deg	dq/mA.h	Pwe/W	Pce/W	Pwe-ce/W	<Ewe-Ece>/V	Rwe/Ohm	Rce/Ohm	Rwe-ce/Ohm		Ewe-Ece/V
1.00002e+06	3.78649	2.36126	4.46241	-31.9477	2.23356	3.77894	-0.030444	0.0674012	0.018872	1	10	0.00019897	4.45881e-05	0	-3.05639e-05	-8.91312e-05	0.000201105	-69.904	4.51029	1.54971	4.2357	-51.031	8.48498	5.3362	6.59696	0.190151	0.118579	0.224094	31.9477	18.872	30.2629	35.6651	-58.0523	0.0000000E+000	0.0000000E+000	0.0000000E+000	58.0523	0.0000000E+000	0.0000000E+000	0.0000000E+000	-58.0523	0.0000000E+000	0.0000000E+000	0.0000000E+000	-31.9477	0.0000000E+000	0.0000000E+000	0.0000000E+000	31.9477	1.60359	58.0523	-3.05639e-05	-0.000115046	2.71351e-09	-0.000115049	3.77903	124128	2.92771	124131
630957	0.662743	-0.778438	1.02235	49.5897	3.40256	3.77853	-0.0284574	-0.324038	-0.187866	1	9	0.00021893	0.000214145	0	-4.39314e-05	0.000426246	0.000109082	-89.6598	0.509386	0.00302496	0.509377	22.0054	0.718081	0.665768	-0.269061	0.634086	-0.744778	0.978141	-49.5897	-187.866	159.944	246.73	-139.59	0.0000000E+000	0.0000000E+000	0.0000000E+000	139.59	0.0000000E+000	0.0000000E+000	0.0000000E+000	-139.59	0.0000000E+000	0.0000000E+000	0.0000000E+000	49.5897	0.0000000E+000	0.0000000E+000	0.0000000E+000	-49.5897	0.851375	40.4103	-3.52381e-06	-0.000107527	-1.21298e-08	-0.000107515	3.77811	132779	14.9784	132764
398103	1.29835	-0.417807	1.36392	17.8381	4.16853	3.77862	-0.015325	-0.956861	-0.089789	1	9	0.00080411	0.000589559	0	-4.71956e-05	4.44852e-05	7.16012e-05	143.106	0.121449	-0.0971286	-0.0729098	22.2208	1.29759	1.20122	-0.490716	0.697935	-0.224595	0.733182	-17.8381	-89.789	279.023	293.114	-107.838	0.0000000E+000	0.0000000E+000	0.0000000E+000	107.838	0.0000000E+000	0.0000000E+000	0.0000000E+000	-107.838	0.0000000E+000	0.0000000E+000	0.0000000E+000	17.8381	0.0000000E+000	0.0000000E+000	0.0000000E+000	-17.8381	3.10753	72.1619	-7.47236e-07	-5.79072e-05	-6.81734e-10	-5.79066e-05	3.77858	246566	2.90279	246564
251206	1.35364	-0.112335	1.35829	4.74397	4.93452	3.77852	-0.0222074	-5.63992	-0.0385762	1	9	0.00179534	0.00132176	0	-4.99253e-05	6.3091e-06	7.47952e-05	90.5882	0.0565876	-0.000580924	-0.0565846	7.11616	1.36356	1.35306	-0.16892	0.733696	-0.0608878	0.736218	-4.74397	-38.5762	464.843	466.441	-94.744	0.0000000E+000	0.0000000E+000	0.0000000E+000	94.744	0.0000000E+000	0.0000000E+000	0.0000000E+000	-94.744	0.0000000E+000	0.0000000E+000	0.0000000E+000	4.74397	0.0000000E+000	0.0000000E+000	0.0000000E+000	-4.74397	12.05	85.256	-2.07219e-06	-8.3911e-05	-1.40108e-10	-8.39108e-05	3.77852	170147	0.2841	170147
158486	1.29841	0.0919292	1.30166	-4.04985	5.70052	3.77848	-0.0299826	10.9238	0.0544859	1	9	0.00493015	0.00378758	0	-5.87812e-05	0.00019719	8.47665e-05	68.9397	0.0223801	0.00804231	-0.0208852	-3.11263	1.30839	1.30646	0.071044	0.766329	0.0542569	0.768247	4.04985	54.486	769.563	771.489	-85.9501	0.0000000E+000	0.0000000E+000	0.0000000E+000	85.9501	0.0000000E+000	0.0000000E+000	0.0000000E+000	-85.9501	0.0000000E+000	0.0000000E+000	0.0000000E+000	-4.04985	0.0000000E+000	0.0000000E+000	0.0000000E+000	4.04985	14.1241	85.9501	-7.85855e-06	-0.000113288	-5.91225e-09	-0.000113283	3.77828	126022	6.57681	126016
100004	1.31278	0.174168	1.32429	-7.55733	6.59054	3.77847	-0.0241418	9.13769	0.158055	1	9	0.00528676	0.00399215	0	-4.71014e-05	-0.000241836	4.89428e-05	64.4038	0.0122598	0.00529653	-0.0110566	-7.05443	1.32814	1.31808	0.163111	0.748564	0.0993123	0.755123	7.55733	158.055	1191.33	1201.77	-82.4427	0.0000000E+000	0.0000000E+000	0.0000000E+000	82.4427	0.0000000E+000	0.0000000E+000	0.0000000E+000	-82.4427	0.0000000E+000	0.0000000E+000	0.0000000E+000	-7.55733	0.0000000E+000	0.0000000E+000	0.0000000E+000	7.55733	7.53747	82.4427	6.03743e-07	-9.12192e-05	5.83835e-09	-9.1225e-05	3.77871	156512	10.0173	156522
63093.8	1.35738	0.233177	1.37727	-9.74738	7.35655	3.77848	-0.0182639	10.818	0.310087	1	9	0.00537057	0.00389944	0	-5.42448e-05	6.3091e-06	2.51869e-05	50.3242	0.0064591	0.00412376	-0.00497137	-9.51505	1.3805	1.36151	0.228206	0.715594	0.122928	0.726076	9.74738	310.087	1805.09	1831.54	-80.2526	0.0000000E+000	0.0000000E+000	0.0000000E+000	80.2526	0.0000000E+000	0.0000000E+000	0.0000000E+000	-80.2526	0.0000000E+000	0.0000000E+000	0.0000000E+000	-9.74738	0.0000000E+000	0.0000000E+000	0.0000000E+000	9.74738	5.82125	80.2526	4.32701e-06	-6.90096e-05	-1.15229e-10	-6.90095e-05	3.77847	206883	0.345442	206882
39814.1	1.42068	0.294068	1.4508	-11.6945	8.12456	3.77848	-0.0236954	13.5937	0.558492	1	9	0.00507685	0.00349935	0	-6.83481e-05	-0.000146395	1.81459e-05	61.6942	0.00518552	0.00245886	-0.00456548	-11.4985	1.45229	1.42314	0.289502	0.674968	0.139712	0.689276	11.6945	558.492	2698.16	2755.35	-78.3055	0.0000000E+000	0.0000000E+000	0.0000000E+000	78.3055	0.0000000E+000	0.0000000E+000	0.0000000E+000	-78.3055	0.0000000E+000	0.0000000E+000	0.0000000E+000	-11.6945	0.0000000E+000	0.0000000E+000	0.0000000E+000	11.6945	4.83114	78.3055	-8.10131e-06	-8.95325e-05	3.4689e-09	-8.9536e-05	3.77862	159460	6.17822	159466
25116.9	1.5065	0.363318	1.54969	-13.5589	8.89052	3.77848	-0.0175198	17.4408	0.958627	1	9	0.00497718	0.00321172	0	-6.42054e-05	8.26613e-05	1.9315e-05	56.6451	0.00601391	0.00330659	-0.0050233	-13.35	1.55174	1.50981	0.358295	0.627304	0.151285	0.645289	13.5589	958.627	3974.95	4088.92	-76.4411	0.0000000E+000	0.0000000E+000	0.0000000E+000	76.4411	0.0000000E+000	0.0000000E+000	0.0000000E+000	-76.4411	0.0000000E+000	0.0000000E+000	0.0000000E+000	-13.5589	0.0000000E+000	0.0000000E+000	0.0000000E+000	13.5589	4.14651	76.4411	-7.01326e-07	-6.61983e-05	-1.44821e-09	-6.61968e-05	3.77839	215668	4.71816	215664
15847.7	1.60449	0.447669	1.66577	-15.5897	9.65653	3.77847	-0.0159573	22.4335	1.62025	1	9	0.00476124	0.00285828	0	-7.26679e-05	-8.91312e-05	8.76713e-06	-74.0104	0.00306727	0.000844922	0.00294861	-15.6795	1.66738	1.60533	0.450618	0.578238	0.161335	0.600324	15.5897	1620.25	5807.12	6028.92	-74.4103	0.0000000E+000	0.0000000E+000	0.0000000E+000	74.4103	0.0000000E+000	0.0000000E+000	0.0000000E+000	-74.4103	0.0000000E+000	0.0000000E+000	0.0000000E+000	-15.5897	0.0000000E+000	0.0000000E+000	0.0000000E+000	15.5897	3.58409	74.4103	-1.69929e-06	-6.02943e-05	1.4223e-09	-6.02958e-05	3.77856	236786	5.58559	236791
10002.2	1.72856	0.546541	1.8129	-17.5461	10.4226	3.77847	-0.016441	29.1139	2.64605	1	9	0.00569305	0.0031403	0	-7.90063e-05	-0.000260924	8.56565e-05	58.0685	0.0272766	0.0144267	-0.0231491	-16.7142	1.81987	1.74298	0.523392	0.525938	0.166293	0.551602	17.5461	2646.05	8368.71	8777.06	-72.4539	0.0000000E+000	0.0000000E+000	0.0000000E+000	72.4539	0.0000000E+000	0.0000000E+000	0.0000000E+000	-72.4539	0.0000000E+000	0.0000000E+000	0.0000000E+000	-17.5461	0.0000000E+000	0.0000000E+000	0.0000000E+000	17.5461	3.16272	72.4539	-5.64952e-06	-6.21216e-05	4.28984e-09	-6.21259e-05	3.77873	229820	15.8703	229836
6309.38	1.88642	0.661898	1.99917	-19.3347	11.3145	3.77847	-0.0172594	38.1103	4.17758	1	9	0.00526603	0.0026341	0	-8.16022e-05	0.000235366	1.03626e-05	-8.3094	0.00393403	0.00389273	0.00056854	-19.3132	2.00303	1.89031	0.662467	0.471996	0.165612	0.500207	19.3347	4177.58	11906.2	12617.8	-70.6653	0.0000000E+000	0.0000000E+000	0.0000000E+000	70.6653	0.0000000E+000	0.0000000E+000	0.0000000E+000	-70.6653	0.0000000E+000	0.0000000E+000	0.0000000E+000	-19.3347	0.0000000E+000	0.0000000E+000	0.0000000E+000	19.3347	2.85001	70.6653	2.77868e-06	-6.52143e-05	-4.06228e-09	-6.52102e-05	3.77824	218922	13.6369	218909
3983.6	2.06819	0.804224	2.21905	-21.2488	12.0011	3.77847	-0.0125719	49.6784	6.5251	1	9	0.00548113	0.00247003	0	-8.17254e-05	0.000349894	7.48122e-06	-29.5183	0.00302879	0.00263565	0.00149229	-21.26	2.22205	2.07083	0.805716	0.420007	0.163321	0.450643	21.2488	6525.1	16780.3	18004.3	-68.7512	0.0000000E+000	0.0000000E+000	0.0000000E+000	68.7512	0.0000000E+000	0.0000000E+000	0.0000000E+000	-68.7512	0.0000000E+000	0.0000000E+000	0.0000000E+000	-21.2488	0.0000000E+000	0.0000000E+000	0.0000000E+000	21.2488	2.57166	68.7512	8.06423e-07	-4.75028e-05	-4.39885e-09	-4.74984e-05	3.77813	300548	27.8313	300520
2510.8	2.30022	0.963618	2.49391	-22.73	13.0028	3.77846	-0.0231746	65.7813	9.82092	1	9	0.00506806	0.00203218	0	-9.22235e-05	0.000101749	7.80362e-06	37.3917	0.00384002	0.00305091	-0.0023319	-22.6536	2.49582	2.30327	0.961286	0.369836	0.154933	0.400978	22.73	9820.92	23443.2	25417.2	-67.27	0.0000000E+000	0.0000000E+000	0.0000000E+000	67.27	0.0000000E+000	0.0000000E+000	0.0000000E+000	-67.27	0.0000000E+000	0.0000000E+000	0.0000000E+000	-22.73	0.0000000E+000	0.0000000E+000	0.0000000E+000	22.73	2.38707	67.27	-2.28344e-06	-8.75642e-05	-2.358e-09	-8.75619e-05	3.77836	163043	4.39056	163039
1585.51	2.57817	1.15468	2.82493	-24.126	13.9048	3.77847	-0.0170362	86.9344	14.5243	1	9	0.00500654	0.00177227	0	-9.73098e-05	-0.000108219	4.52118e-06	-74.7474	0.00255107	0.000671124	0.00246121	-24.166	2.82655	2.57884	1.15714	0.323069	0.144692	0.353991	24.126	14524.3	32430.1	35534	-65.874	0.0000000E+000	0.0000000E+000	0.0000000E+000	65.874	0.0000000E+000	0.0000000E+000	0.0000000E+000	-65.874	0.0000000E+000	0.0000000E+000	0.0000000E+000	-24.126	0.0000000E+000	0.0000000E+000	0.0000000E+000	24.126	2.23281	65.874	-3.47488e-06	-6.43709e-05	1.84365e-09	-6.43728e-05	3.77858	221790	6.35229	221796
1000.32	2.90038	1.39964	3.22044	-25.7607	14.8068	3.77847	-0.0186731	113.675	21.4719	1	9	0.00491742	0.00152694	0	-0.000103387	-5.09551e-05	1.36515e-05	-63.5639	0.00894041	0.00398026	0.00800553	-25.858	3.2275	2.90436	1.40765	0.279657	0.134955	0.310517	25.7607	21471.9	44494.5	49404.5	-64.2393	0.0000000E+000	0.0000000E+000	0.0000000E+000	64.2393	0.0000000E+000	0.0000000E+000	0.0000000E+000	-64.2393	0.0000000E+000	0.0000000E+000	0.0000000E+000	-25.7607	0.0000000E+000	0.0000000E+000	0.0000000E+000	25.7607	2.07223	64.2393	-2.82371e-06	-7.0556e-05	9.51491e-10	-7.05569e-05	3.77853	202348	2.72879	202351
631.01	3.31987	1.68458	3.72282	-26.9043	15.9535	3.77845	-0.0560298	149.724	30.6572	1	10	0.00491729	0.00132085	0	-0.000118325	0.000178102	8.5218e-06	-39.8242	0.00645175	0.00495503	0.00413192	-26.9265	3.72911	3.32483	1.68871	0.23954	0.121548	0.268614	26.9043	30657.2	60417.4	67750.5	-63.0957	0.0000000E+000	0.0000000E+000	0.0000000E+000	63.0957	0.0000000E+000	0.0000000E+000	0.0000000E+000	-63.0957	0.0000000E+000	0.0000000E+000	0.0000000E+000	-26.9043	0.0000000E+000	0.0000000E+000	0.0000000E+000	26.9043	1.97074	63.0957	-7.15542e-06	-0.000211706	-9.979e-09	-0.000211696	3.77827	67436.4	3.17869	67433.2
398.089	3.88994	2.00373	4.37568	-27.2532	16.8549	3.77849	-0.0525852	199.527	41.8396	1	10	0.00485548	0.00110965	0	-0.00013105	0.000178102	1.02296e-05	68.6335	0.00921871	0.00335867	-0.0085851	-27.1331	4.37474	3.8933	1.99514	0.203166	0.104652	0.228536	27.2532	41839.6	81225.4	91368	-62.7468	0.0000000E+000	0.0000000E+000	0.0000000E+000	62.7468	0.0000000E+000	0.0000000E+000	0.0000000E+000	-62.7468	0.0000000E+000	0.0000000E+000	0.0000000E+000	-27.2532	0.0000000E+000	0.0000000E+000	0.0000000E+000	27.2532	1.94135	62.7468	-6.24787e-06	-0.000198693	-9.3655e-09	-0.000198683	3.77831	71854.7	3.38692	71851.3
251.044	4.61525	2.27618	5.14603	-26.2519	17.753	3.77848	-0.0533701	278.524	54.492	1	10	0.00479147	0.0009311	0	-0.000144993	2.53972e-05	7.79468e-06	-114.715	0.00837147	-0.0035001	0.00760466	-26.3451	5.14626	4.61175	2.28379	0.174282	0.0859535	0.194325	26.2519	54492.1	110490	123196	-63.7481	0.0000000E+000	0.0000000E+000	0.0000000E+000	63.7481	0.0000000E+000	0.0000000E+000	0.0000000E+000	-63.7481	0.0000000E+000	0.0000000E+000	0.0000000E+000	-26.2519	0.0000000E+000	0.0000000E+000	0.0000000E+000	26.2519	2.02763	63.7481	-6.76112e-06	-0.000201658	-1.35545e-09	-0.000201657	3.77846	70797.8	0.475869	70797.3
158.428	5.50786	2.39869	6.00751	-23.5333	18.6579	3.77847	-0.0545121	418.805	66.7686	1	10	0.00476099	0.000792505	0	-0.00016005	0.000139925	6.37953e-06	-5.73755	0.00804982	0.0080095	0.000804756	-23.5099	6.01518	5.51587	2.3995	0.152614	0.0664638	0.166458	23.5333	66768.6	153313	167222	-66.4667	0.0000000E+000	0.0000000E+000	0.0000000E+000	66.4667	0.0000000E+000	0.0000000E+000	0.0000000E+000	-66.4667	0.0000000E+000	0.0000000E+000	0.0000000E+000	-23.5333	0.0000000E+000	0.0000000E+000	0.0000000E+000	23.5333	2.29619	66.4667	-7.14071e-06	-0.000205973	-7.62763e-09	-0.000205965	3.77833	69314.4	2.56687	69311.8
100.032	6.4183	2.28561	6.81312	-19.6012	19.5568	3.77847	-0.0526819	696.111	78.3414	1	10	0.004754	0.00069777	0	-0.000173004	0.000120837	5.02768e-06	105.012	0.00720534	-0.00186631	-0.00695944	-19.5513	6.80903	6.41644	2.27865	0.13827	0.0492391	0.146776	19.6012	78341.4	219993	233526	-70.3988	0.0000000E+000	0.0000000E+000	0.0000000E+000	70.3988	0.0000000E+000	0.0000000E+000	0.0000000E+000	-70.3988	0.0000000E+000	0.0000000E+000	0.0000000E+000	-19.6012	0.0000000E+000	0.0000000E+000	0.0000000E+000	19.6012	2.80813	70.3988	-6.8622e-06	-0.000199057	-6.36594e-09	-0.00019905	3.77834	71722.3	2.29372	71720
63.0823	7.19649	1.94423	7.4545	-15.1183	20.474	3.77848	-0.0502193	1297.67	88.2721	1	10	0.00475202	0.00063747	0	-0.000186264	2.53972e-05	2.63755e-06	-121.163	0.00413753	-0.00214105	0.00354048	-15.1489	7.45335	7.19435	1.94777	0.129504	0.0349873	0.134147	15.1183	88272.1	326736	338450	-74.8817	0.0000000E+000	0.0000000E+000	0.0000000E+000	74.8817	0.0000000E+000	0.0000000E+000	0.0000000E+000	-74.8817	0.0000000E+000	0.0000000E+000	0.0000000E+000	-15.1183	0.0000000E+000	0.0000000E+000	0.0000000E+000	15.1183	3.70146	74.8817	-6.20438e-06	-0.000189753	-1.27543e-09	-0.000189751	3.77846	75239.7	0.505725	75239.2
39.8089	7.7435	1.54033	7.89521	-11.2504	21.3749	3.77848	-0.0483816	2595.53	98.7928	1	10	0.00474614	0.000601141	0	-0.000197153	-0.000280012	1.19096e-05	-58.1526	0.0198116	0.0104538	0.0168291	-11.3552	7.90876	7.75395	1.55716	0.124225	0.0247107	0.126659	11.2504	98792.9	496649	506379	-78.7496	0.0000000E+000	0.0000000E+000	0.0000000E+000	78.7496	0.0000000E+000	0.0000000E+000	0.0000000E+000	-78.7496	0.0000000E+000	0.0000000E+000	0.0000000E+000	-11.2504	0.0000000E+000	0.0000000E+000	0.0000000E+000	11.2504	5.02717	78.7496	-5.50307e-06	-0.000182809	1.35474e-08	-0.000182822	3.77876	78097.4	5.78757	78103.2
25.1044	8.09051	1.14269	8.1708	-8.03917	22.254	3.7785	-0.0473772	5548.08	108.509	1	10	0.00473847	0.000579927	0	-0.000208793	-0.000127307	4.27045e-06	-110.149	0.00736378	-0.00253653	0.00691312	-8.08966	8.16926	8.08797	1.1496	0.121184	0.0171158	0.122387	8.03917	108509	768274	775899	-81.9608	0.0000000E+000	0.0000000E+000	0.0000000E+000	81.9608	0.0000000E+000	0.0000000E+000	0.0000000E+000	-81.9608	0.0000000E+000	0.0000000E+000	0.0000000E+000	-8.03917	0.0000000E+000	0.0000000E+000	0.0000000E+000	8.03917	7.08025	81.9608	-5.8081e-06	-0.000179015	6.03147e-09	-0.000179021	3.77862	79753.4	2.6871	79756.1
15.8576	8.28725	0.865917	8.33237	-5.96507	23.132	3.77849	-0.0478087	11590.6	125.176	1	10	0.00473795	0.00056862	0	-0.000218144	0.000139925	1.43728e-05	61.4727	0.0252765	0.0120715	-0.0222077	-5.80475	8.3421	8.29932	0.843709	0.119364	0.0124721	0.120014	5.96507	125176	1.198e+06	1.20452e+06	-84.0349	0.0000000E+000	0.0000000E+000	0.0000000E+000	84.0349	0.0000000E+000	0.0000000E+000	0.0000000E+000	-84.0349	0.0000000E+000	0.0000000E+000	0.0000000E+000	-5.96507	0.0000000E+000	0.0000000E+000	0.0000000E+000	5.96507	9.57049	84.0349	-4.29701e-06	-0.000180645	-6.68966e-09	-0.000180638	3.77835	79033.4	2.92678	79030.5
10.0032	8.43705	0.630805	8.4606	-4.27583	24.1138	3.7785	-0.046968	25222.4	140.208	1	10	0.00474202	0.000560483	0	-0.000232314	0.000120837	8.22976e-06	-11.6624	0.0146833	0.0143802	0.00296816	-4.28859	8.47516	8.45143	0.633774	0.117866	0.00881238	0.118195	4.27583	140208	1.87529e+06	1.88053e+06	-85.7242	0.0000000E+000	0.0000000E+000	0.0000000E+000	85.7242	0.0000000E+000	0.0000000E+000	0.0000000E+000	-85.7242	0.0000000E+000	0.0000000E+000	0.0000000E+000	-4.27583	0.0000000E+000	0.0000000E+000	0.0000000E+000	4.27583	13.375	85.7242	-4.86865e-06	-0.000177469	-5.6755e-09	-0.000177463	3.77838	80448.3	2.57276	80445.7
6.31058	8.51298	0.489116	8.52702	-3.28833	25.0383	3.77847	-0.0514283	51563.1	169.656	1	10	0.00473951	0.000555822	0	-0.000240713	4.44852e-05	7.58932e-06	-13.4041	0.0136542	0.0132823	0.0031653	-3.30442	8.54046	8.52626	0.492281	0.117081	0.00672694	0.117274	3.28833	169655	2.95283e+06	2.9577e+06	-86.7117	0.0000000E+000	0.0000000E+000	0.0000000E+000	86.7117	0.0000000E+000	0.0000000E+000	0.0000000E+000	-86.7117	0.0000000E+000	0.0000000E+000	0.0000000E+000	-3.28833	0.0000000E+000	0.0000000E+000	0.0000000E+000	3.28833	17.4048	86.7117	-3.67408e-07	-0.00019432	-2.2878e-09	-0.000194318	3.77842	73470.7	0.864995	73469.8
3.97785	8.5954	0.42458	8.60587	-2.8279	26.3423	3.77851	-0.0454285	94234.9	229.372	1	11	0.00474022	0.000550812	0	-0.000263126	-0.000108219	9.00851e-06	-82.1987	0.016355	0.00221999	0.0162036	-2.93488	8.60891	8.59762	0.440784	0.116058	0.00573284	0.1162	2.8279	229372	4.64352e+06	4.64918e+06	-87.1721	0.0000000E+000	0.0000000E+000	0.0000000E+000	87.1721	0.0000000E+000	0.0000000E+000	0.0000000E+000	-87.1721	0.0000000E+000	0.0000000E+000	0.0000000E+000	-2.8279	0.0000000E+000	0.0000000E+000	0.0000000E+000	2.8279	20.2445	87.1721	-1.20972e-05	-0.000171652	4.91623e-09	-0.000171657	3.77861	83174.9	2.38219	83177.3
2.51367	8.677	0.395326	8.686	-2.6086	27.9019	3.77851	-0.0439852	160161	331.762	1	11	0.00474459	0.000546234	0	-0.000273195	2.53972e-05	4.45886e-06	75.6057	0.00816291	0.00202924	-0.00790666	-2.5559	8.68767	8.67903	0.387419	0.115009	0.00523981	0.115128	2.6086	331762	7.28184e+06	7.28939e+06	-87.3914	0.0000000E+000	0.0000000E+000	0.0000000E+000	87.3914	0.0000000E+000	0.0000000E+000	0.0000000E+000	-87.3914	0.0000000E+000	0.0000000E+000	0.0000000E+000	-2.6086	0.0000000E+000	0.0000000E+000	0.0000000E+000	2.6086	21.949	87.3914	-8.84377e-06	-0.000166198	-1.1171e-09	-0.000166197	3.77849	85904.3	0.577403	85903.7
1.58469	8.75358	0.395651	8.76252	-2.58794	30.3373	3.77851	-0.043238	253843	517.526	1	11	0.00474508	0.00054152	0	-0.000321899	0.000159014	6.61483e-06	43.6391	0.0122153	0.00884022	-0.00842995	-2.53032	8.77097	8.76242	0.387221	0.114006	0.00515294	0.114122	2.58794	517525	1.145e+07	1.14617e+07	-87.4121	0.0000000E+000	0.0000000E+000	0.0000000E+000	87.4121	0.0000000E+000	0.0000000E+000	0.0000000E+000	-87.4121	0.0000000E+000	0.0000000E+000	0.0000000E+000	-2.58794	0.0000000E+000	0.0000000E+000	0.0000000E+000	2.58794	22.1245	87.4121	-2.76361e-05	-0.000163375	-6.87544e-09	-0.000163368	3.77835	87388.5	3.67763	87384.8
1.00469	8.85018	0.43137	8.86069	-2.79047	241.155	3.77848	-0.0393311	367229	870.365	1	11	0.00519732	0.00058656	0	-0.00510649	-7.00431e-05	1.12562e-06	-8.34838	0.00191902	0.00189869	0.000278626	-2.79167	8.8626	8.85208	0.431649	0.112724	0.00549433	0.112858	2.79047	870365	1.78568e+07	1.7878e+07	-87.2095	0.0000000E+000	0.0000000E+000	0.0000000E+000	87.2095	0.0000000E+000	0.0000000E+000	0.0000000E+000	-87.2095	0.0000000E+000	0.0000000E+000	0.0000000E+000	-2.79047	0.0000000E+000	0.0000000E+000	0.0000000E+000	2.79047	20.5164	87.2095	-0.00475913	-0.000148612	2.75487e-09	-0.000148614	3.77855	96068.7	1.78086	96070.5
0.632957	8.95751	0.484609	8.97061	-3.09673	241.156	3.77848	-0.0393311	518865	1514.24	1	11	0.00520972	0.000580754	0	-0.00510649	-7.00431e-05	1.24897e-06	-2.50758	0.0021506	0.00214854	9.40922e-05	-3.09659	8.97276	8.95966	0.484703	0.111312	0.0060221	0.111475	3.09673	1.51424e+06	2.79891e+07	2.80301e+07	-86.9033	0.0000000E+000	0.0000000E+000	0.0000000E+000	86.9033	0.0000000E+000	0.0000000E+000	0.0000000E+000	-86.9033	0.0000000E+000	0.0000000E+000	0.0000000E+000	-3.09673	0.0000000E+000	0.0000000E+000	0.0000000E+000	3.09673	18.484	86.9033	0.000000000000000E+000	-0.000148612	2.75487e-09	-0.000148614	3.77855	96068.7	1.78086	96070.5
0.401878	9.0376	0.575926	9.05593	-3.64628	241.157	3.77848	-0.0393311	687638	2781.17	1	11	0.00522439	0.000576902	0	-0.00510649	-7.00431e-05	1.0224e-06	-1.60405	0.00177222	0.00177153	4.96085e-05	-3.64588	9.0577	9.03937	0.575976	0.110201	0.00702264	0.110425	3.64628	2.78117e+06	4.36429e+07	4.37314e+07	-86.3537	0.0000000E+000	0.0000000E+000	0.0000000E+000	86.3537	0.0000000E+000	0.0000000E+000	0.0000000E+000	-86.3537	0.0000000E+000	0.0000000E+000	0.0000000E+000	-3.64628	0.0000000E+000	0.0000000E+000	0.0000000E+000	3.64628	15.6923	86.3537	0.000000000000000E+000	-0.000148612	2.75487e-09	-0.000148614	3.77855	96068.7	1.78086	96070.5
0.251173	9.19654	0.693307	9.22264	-4.31125	241.158	3.77848	-0.0393311	913947	5164.9	1	11	0.00522453	0.00056649	0	-0.00510649	-7.00431e-05	1.3483e-06	-8.01835	0.0023801	0.00235683	0.000332001	-4.3122	9.22501	9.1989	0.693639	0.108122	0.00815108	0.108429	4.31125	5.1649e+06	6.85111e+07	6.87055e+07	-85.6888	0.0000000E+000	0.0000000E+000	0.0000000E+000	85.6888	0.0000000E+000	0.0000000E+000	0.0000000E+000	-85.6888	0.0000000E+000	0.0000000E+000	0.0000000E+000	-4.31125	0.0000000E+000	0.0000000E+000	0.0000000E+000	4.31125	13.2648	85.6888	0.000000000000000E+000	-0.000148612	2.75487e-09	-0.000148614	3.77855	96068.7	1.78086	96070.5
0.160751	9.36308	0.802264	9.39739	-4.89735	241.159	3.77848	-0.0393311	1.2341e+06	8994.33	1	11	0.00522043	0.000555519	0	-0.00510649	-7.00431e-05	7.36366e-07	-11.5093	0.00132555	0.00129889	0.000264482	-4.89828	9.39871	9.36438	0.802528	0.106024	0.00908453	0.106412	4.89735	8.99433e+06	1.04971e+08	1.05356e+08	-85.1026	0.0000000E+000	0.0000000E+000	0.0000000E+000	85.1026	0.0000000E+000	0.0000000E+000	0.0000000E+000	-85.1026	0.0000000E+000	0.0000000E+000	0.0000000E+000	-4.89735	0.0000000E+000	0.0000000E+000	0.0000000E+000	4.89735	11.6708	85.1026	0.000000000000000E+000	-0.000148612	2.75487e-09	-0.000148614	3.77855	96068.7	1.78086	96070.5
0.100469	9.49812	1.1507	9.56757	-6.90774	241.16	3.77848	-0.0393311	1.37665e+06	19913.4	1	11	0.00522319	0.000545927	0	-0.00510649	-7.00431e-05	9.34894e-07	-5.09851	0.00171249	0.00170572	0.000152186	-6.90742	9.56928	9.49983	1.15085	0.103761	0.0125707	0.10452	6.90774	1.99134e+07	1.64369e+08	1.65571e+08	-83.0923	0.0000000E+000	0.0000000E+000	0.0000000E+000	83.0923	0.0000000E+000	0.0000000E+000	0.0000000E+000	-83.0923	0.0000000E+000	0.0000000E+000	0.0000000E+000	-6.90774	0.0000000E+000	0.0000000E+000	0.0000000E+000	6.90774	8.2542	83.0923	0.000000000000000E+000	-0.000148612	2.75487e-09	-0.000148614	3.77855	96068.7	1.78086	96070.5
0.0602816	9.76303	1.43778	9.86833	-8.37759	241.162	3.77848	-0.0393311	1.8363e+06	38979.8	1	11	0.00521818	0.00052878	0	-0.00510649	-7.00431e-05	8.3533e-07	-18.3218	0.00157973	0.00149965	0.000496594	-8.37918	9.86989	9.76453	1.43827	0.100253	0.014764	0.101334	8.37759	3.89798e+07	2.64687e+08	2.67542e+08	-81.6224	0.0000000E+000	0.0000000E+000	0.0000000E+000	81.6224	0.0000000E+000	0.0000000E+000	0.0000000E+000	-81.6224	0.0000000E+000	0.0000000E+000	0.0000000E+000	-8.37759	0.0000000E+000	0.0000000E+000	0.0000000E+000	8.37759	6.79036	81.6224	0.000000000000000E+000	-0.000148612	2.75487e-09	-0.000148614	3.77855	96068.7	1.78086	96070.5
0.0401878	10.1968	1.80491	10.3553	-10.0379	241.163	3.77848	-0.0393311	2.19417e+06	66659.1	1	11	0.00521675	0.000503777	0	-0.00510649	-7.00431e-05	6.96748e-07	7.69543	0.00138305	0.00137059	-0.0001852	-10.0355	10.3566	10.1981	1.80472	0.0950911	0.0168319	0.0965693	10.0379	6.66591e+07	3.76588e+08	3.82442e+08	-79.9622	0.0000000E+000	0.0000000E+000	0.0000000E+000	79.9622	0.0000000E+000	0.0000000E+000	0.0000000E+000	-79.9622	0.0000000E+000	0.0000000E+000	0.0000000E+000	-10.0379	0.0000000E+000	0.0000000E+000	0.0000000E+000	10.0379	5.64946	79.9622	0.000000000000000E+000	-0.000148612	2.75487e-09	-0.000148614	3.77855	96068.7	1.78086	96070.5
0.0200939	11.1186	3.03366	11.5251	-15.2614	241.164	3.77848	-0.0393311	2.6109e+06	180899	1	11	0.00521981	0.00045291	0	-0.00510649	-7.00431e-05	1.12806e-06	-7.31424	0.0024907	0.00247043	0.000317094	-15.2597	11.5275	11.1211	3.03397	0.0837076	0.0228392	0.0867675	15.2614	1.80899e+08	6.63012e+08	6.87248e+08	-74.7386	0.0000000E+000	0.0000000E+000	0.0000000E+000	74.7386	0.0000000E+000	0.0000000E+000	0.0000000E+000	-74.7386	0.0000000E+000	0.0000000E+000	0.0000000E+000	-15.2614	0.0000000E+000	0.0000000E+000	0.0000000E+000	15.2614	3.66509	74.7386	0.000000000000000E+000	-0.000148612	2.75487e-09	-0.000148614	3.77855	96068.7	1.78086	96070.5
0.00796479	13.3687	4.05051	13.9688	-16.856	20330.1	3.7785	0.00526568	4.93329e+06	414796	1	11	0.00521288	0.000373179	0	-0.003237	-0.000260924	4.63219e-07	-52.3882	0.00124128	0.000757563	0.000983296	-16.859	13.9698	13.3694	4.05149	0.0685123	0.0207582	0.0715879	16.856	4.14796e+08	1.36903e+09	1.43049e+09	-73.144	0.0000000E+000	0.0000000E+000	0.0000000E+000	73.144	0.0000000E+000	0.0000000E+000	0.0000000E+000	-73.144	0.0000000E+000	0.0000000E+000	0.0000000E+000	-16.856	0.0000000E+000	0.0000000E+000	0.0000000E+000	16.856	3.3005	73.144	0.00186949	1.98964e-05	-1.37394e-09	1.98977e-05	3.77876	717572	49.5518	717622
0.00497799	15.1093	4.35321	15.7239	-16.0725	20330.1	3.7785	0.00526568	7.34439e+06	562930	1	11	0.00522034	0.000332	0	-0.003237	-0.000260924	4.30924e-07	-57.0347	0.00129796	0.000706263	0.00108899	-16.0756	15.7249	15.11	4.3543	0.0611115	0.0176071	0.0635974	16.0725	5.62931e+08	1.95384e+09	2.03332e+09	-73.9275	0.0000000E+000	0.0000000E+000	0.0000000E+000	73.9275	0.0000000E+000	0.0000000E+000	0.0000000E+000	-73.9275	0.0000000E+000	0.0000000E+000	0.0000000E+000	-16.0725	0.0000000E+000	0.0000000E+000	0.0000000E+000	16.0725	3.47084	73.9275	0.000000000000000E+000	1.98964e-05	-1.37394e-09	1.98977e-05	3.77876	717572	49.5518	717622
0.00318591	16.1845	5.42692	17.0701	-18.5371	20330.1	3.7785	0.00526568	9.2052e+06	930391	1	11	0.00522251	0.000305945	0	-0.003237	-0.000260924	3.83342e-07	-52.6507	0.00125298	0.000760147	0.000996058	-18.5395	17.0712	16.1853	5.42791	0.0555425	0.0186243	0.0585819	18.5371	9.30391e+08	2.77467e+09	2.92651e+09	-71.4629	0.0000000E+000	0.0000000E+000	0.0000000E+000	71.4629	0.0000000E+000	0.0000000E+000	0.0000000E+000	-71.4629	0.0000000E+000	0.0000000E+000	0.0000000E+000	-18.5371	0.0000000E+000	0.0000000E+000	0.0000000E+000	18.5371	2.98226	71.4629	0.000000000000000E+000	1.98964e-05	-1.37394e-09	1.98977e-05	3.77876	717572	49.5518	717622
0.0019912	17.5466	5.77594	18.4728	-18.2204	20330.1	3.7785	0.00526568	1.38383e+07	1.35289e+06	1	11	0.00522675	0.000282943	0	-0.003237	-0.000260924	8.63105e-07	-56.4066	0.00305046	0.0016878	0.00254099	-18.2262	18.4752	17.5483	5.77849	0.0514194	0.0169261	0.0541336	18.2204	1.35289e+09	4.10991e+09	4.32686e+09	-71.7796	0.0000000E+000	0.0000000E+000	0.0000000E+000	71.7796	0.0000000E+000	0.0000000E+000	0.0000000E+000	-71.7796	0.0000000E+000	0.0000000E+000	0.0000000E+000	-18.2204	0.0000000E+000	0.0000000E+000	0.0000000E+000	18.2204	3.03788	71.7796	0.000000000000000E+000	1.98964e-05	-1.37394e-09	1.98977e-05	3.77876	717572	49.5518	717622
0.00129428	18.0841	6.16382	19.1057	-18.8212	20330.1	3.7785	0.00526568	1.995e+07	2.07642e+06	1	11	0.00522646	0.000273555	0	-0.003237	-0.000260924	8.37083e-07	-86.4025	0.00306002	0.000192008	0.00305399	-18.8297	19.1069	18.0843	6.16687	0.0495417	0.0168859	0.0523403	18.8212	2.07642e+09	6.09205e+09	6.4362e+09	-71.1788	0.0000000E+000	0.0000000E+000	0.0000000E+000	71.1788	0.0000000E+000	0.0000000E+000	0.0000000E+000	-71.1788	0.0000000E+000	0.0000000E+000	0.0000000E+000	-18.8212	0.0000000E+000	0.0000000E+000	0.0000000E+000	18.8212	2.93392	71.1788	0.000000000000000E+000	1.98964e-05	-1.37394e-09	1.98977e-05	3.77876	717572	49.5518	717622
0.000796479	20.4425	7.24605	21.6887	-19.5174	20330.1	3.7785	0.00526568	2.75769e+07	3.07807e+06	1	11	0.00522484	0.000240901	0	-0.003237	-0.000260924	1.87964e-06	-26.1778	0.00780256	0.00700225	0.00344216	-19.5198	21.6965	20.4495	7.24949	0.0434576	0.015404	0.0461069	19.5174	3.07807e+09	8.68384e+09	9.21322e+09	-70.4826	0.0000000E+000	0.0000000E+000	0.0000000E+000	70.4826	0.0000000E+000	0.0000000E+000	0.0000000E+000	-70.4826	0.0000000E+000	0.0000000E+000	0.0000000E+000	-19.5174	0.0000000E+000	0.0000000E+000	0.0000000E+000	19.5174	2.82119	70.4826	0.000000000000000E+000	1.98964e-05	-1.37394e-09	1.98977e-05	3.77876	717572	49.5518	717622
0.000497799	20.5894	8.49126	22.2716	-22.4117	20330.1	3.7785	0.00526568	3.76525e+07	5.47313e+06	1	11	0.00522777	0.000234728	0	-0.003237	-0.000260924	1.84891e-06	94.969	0.00787679	-0.000682257	-0.00784719	-22.3938	22.268	20.5887	8.48342	0.0415088	0.0171187	0.0449003	22.4117	5.47313e+09	1.32711e+10	1.43554e+10	-67.5882	0.0000000E+000	0.0000000E+000	0.0000000E+000	67.5882	0.0000000E+000	0.0000000E+000	0.0000000E+000	-67.5882	0.0000000E+000	0.0000000E+000	0.0000000E+000	-22.4117	0.0000000E+000	0.0000000E+000	0.0000000E+000	22.4117	2.42477	67.5882	0.000000000000000E+000	1.98964e-05	-1.37394e-09	1.98977e-05	3.77876	717572	49.5518	717622
0.000298679	20.9773	11.7609	24.0492	-29.277	20330.1	3.7785	0.00526568	4.53081e+07	1.08356e+07	1	11	0.00522527	0.000217274	0	-0.003237	-0.000260924	3.46312e-06	-102.215	0.0159389	-0.00337231	0.0155781	-29.3133	24.0539	20.9739	11.7764	0.03627	0.0203346	0.0415814	29.277	1.08356e+10	1.93269e+10	2.21571e+10	-60.723	0.0000000E+000	0.0000000E+000	0.0000000E+000	60.723	0.0000000E+000	0.0000000E+000	0.0000000E+000	-60.723	0.0000000E+000	0.0000000E+000	0.0000000E+000	-29.277	0.0000000E+000	0.0000000E+000	0.0000000E+000	29.277	1.78366	60.723	0.000000000000000E+000	1.98964e-05	-1.37394e-09	1.98977e-05	3.77876	717572	49.5518	717622
9.95598e-05	24.9975	34.7676	42.8213	-54.2843	20330.1	3.7785	0.00526568	4.59792e+07	3.03104e+07	1	11	0.00523362	0.00012222	0	-0.003237	-0.000260924	2.53509e-06	74.577	0.020742	0.00551622	-0.0199951	-54.2627	42.8083	25.003	34.7476	0.0136326	0.0189608	0.0233529	54.2843	3.03104e+10	2.17928e+10	3.73316e+10	-35.7157	0.0000000E+000	0.0000000E+000	0.0000000E+000	35.7157	0.0000000E+000	0.0000000E+000	0.0000000E+000	-35.7157	0.0000000E+000	0.0000000E+000	0.0000000E+000	-54.2843	0.0000000E+000	0.0000000E+000	0.0000000E+000	54.2843	0.718989	35.7157	0.000000000000000E+000	1.98964e-05	-1.37394e-09	1.98977e-05	3.77876	717572	49.5518	717622