File: txt/17544_R290_UC82_50SOC_C01.mpt
EC-Lab ASCII FILE
Nb header lines : 64

Potentio Electrochemical Impedance Spectroscopy

Run on channel : 1 (SN 66354)
User :
CE vs. WE compliance from -10 V to 10 V
Electrode connection : standard
Potential control : Ewe
Ewe ctrl range : min = -10.00 V, max = 10.00 V
Safety Limits :
	Do not start on E overload
Acquisition started on : 09/16/2025 16:51:03.280
Loaded Setting File :  C:\Users\Celltest\OneDrive - store-dot.com\Documents\EC-Lab\Data\Michael\UC74_NCMA_16706_EIS_50_SOC.mps
Saved on :
	File : 17544_R290_UC82_50SOC_C01.mpr
	Directory : C:\Users\Celltest\OneDrive - store-dot.com\Documents\EC-Lab\Data\Michael\R290\
	Host : 169.254.61.224
Device : VMP-3e (SN .003165)
Address : USB
EC-LAB for windows v11.62 (software)
Internet server v27.00 (firmware)
Command interpretor v12.03 (firmware)
Electrode material :
Initial state :
Electrolyte :
Comments :
Electrode surface area : 0.001 cm²
Characteristic mass : 0.001 g
Equivalent Weight : 0.000 g/eq.
Density : 0.000 g/cm3
Volume (V) : 0.001 cm³
Record Ece
Cycle Definition : Charge/Discharge alternance
Mode                Multi sine
E (V)               0.0000
vs.                 Eoc
tE (h:m:s)          0:00:0.0000
record              0
dI                  0.000
unit dI             mA
dt (s)              0.000
fi                  1.000
unit fi             MHz
ff                  0.100
unit ff             mHz
Nd                  10
Points              per decade
spacing             Logarithmic
Va (mV)             5.0
pw                  0.10
Na                  2
corr                0
E range min (V)     -10.000
E range max (V)     10.000
I Range             Auto
Bandwidth           5
nc cycles           0
goto Ns'            0
nr cycles           0
inc. cycle          0

freq/Hz	Re(Z)/Ohm	-Im(Z)/Ohm	|Z|/Ohm	Phase(Z)/deg	time/s	<Ewe>/V	<I>/mA	Cs/µF	Cp/µF	cycle number	I Range	|Ewe|/V	|I|/A	Ns	(Q-Qo)/mA.h	<Ece>/V	|Ece|/V	Phase(Zce)/deg	|Zce|/Ohm	Re(Zce)/Ohm	-Im(Zce)/Ohm	Phase(Zwe-ce)/deg	|Zwe-ce|/Ohm	Re(Zwe-ce)/Ohm	-Im(Zwe-ce)/Ohm	Re(Y)/Ohm-1	Im(Y)/Ohm-1	|Y|/Ohm-1	Phase(Y)/deg	Re(C)/nF	Im(C)/nF	|C|/nF	Phase(C)/deg	Re(M)	Im(M)	|M|	Phase(M)/deg	Re(Permittivity)	Im(Permittivity)	|Permittivity|	Phase(Permittivity)/deg	Re(Resistivity)/Ohm.cm	Im(Resistivity)/Ohm.cm	|Resistivity|/Ohm.cm	Phase(Resistivity)/deg	Re(Conductivity)/mS/cm	Im(Conductivity)/mS/cm	|Conductivity|/mS/cm	Phase(Conductivity)/deg	Tan(Delta)	Loss Angle(Delta)/deg	dq/mA.h	Pwe/W	Pce/W	Pwe-ce/W	<Ewe-Ece>/V	Rwe/Ohm	Rce/Ohm	Rwe-ce/Ohm		Ewe-Ece/V
1.00002e+06	1.07913	-0.144495	1.08877	7.6265	2.69353	3.78985	0.116452	-1.10143	-0.0193998	1	9	0.000217611	0.00019987	0	1.46084e-05	0.000161492	0.000199121	-5.03624	0.996257	0.992411	0.0874572	1.57719	2.07233	2.07155	-0.0570381	0.910347	-0.121895	0.918472	-7.6265	-19.3998	144.884	146.177	-97.6265	0.0000000E+000	0.0000000E+000	0.0000000E+000	97.6265	0.0000000E+000	0.0000000E+000	0.0000000E+000	-97.6265	0.0000000E+000	0.0000000E+000	0.0000000E+000	7.6265	0.0000000E+000	0.0000000E+000	0.0000000E+000	-7.6265	7.4683	82.3735	1.46084e-05	0.000441338	1.88061e-08	0.000441319	3.78969	32544.2	1.38676	32542.8
630957	0.41587	0.154709	0.443715	-20.4059	3.45956	3.78955	0.0823647	1.63044	0.198212	1	9	0.0001604	0.000361493	0	3.27643e-05	0.000295033	9.27976e-05	-115.14	0.256706	-0.109056	0.232389	-51.5997	0.493944	0.306814	0.387099	2.11227	0.785794	2.2537	20.4059	198.212	532.807	568.482	-69.5941	0.0000000E+000	0.0000000E+000	0.0000000E+000	69.5941	0.0000000E+000	0.0000000E+000	0.0000000E+000	-69.5941	0.0000000E+000	0.0000000E+000	0.0000000E+000	-20.4059	0.0000000E+000	0.0000000E+000	0.0000000E+000	20.4059	2.68807	69.5941	9.14239e-06	0.000312126	2.43003e-08	0.000312101	3.78926	46009.4	3.58203	46005.9
398103	0.55591	0.165999	0.580165	-16.6261	4.22553	3.78962	0.0972292	2.40834	0.197164	1	9	0.000564955	0.000973783	0	5.52387e-05	-0.000258209	6.59752e-05	169.432	0.0677514	-0.0666023	-0.0124255	-17.4249	0.512842	0.489308	0.153574	1.65159	0.493177	1.72365	16.6261	197.164	660.275	689.084	-73.3739	0.0000000E+000	0.0000000E+000	0.0000000E+000	73.3739	0.0000000E+000	0.0000000E+000	0.0000000E+000	-73.3739	0.0000000E+000	0.0000000E+000	0.0000000E+000	-16.6261	0.0000000E+000	0.0000000E+000	0.0000000E+000	16.6261	3.34887	73.3739	1.23688e-05	0.000368461	-2.51054e-08	0.000368486	3.78987	38976.1	2.65567	38978.8
251206	0.64238	0.374806	0.743728	-30.262	4.99151	3.78955	0.0942117	1.69038	0.429306	1	9	0.00191121	0.00256977	0	7.79697e-05	0.000142415	6.14278e-05	120.343	0.023904	-0.0120758	-0.0206295	-29.3322	0.722997	0.630305	0.354176	1.16135	0.677606	1.34458	30.262	429.306	735.789	851.874	-59.738	0.0000000E+000	0.0000000E+000	0.0000000E+000	59.738	0.0000000E+000	0.0000000E+000	0.0000000E+000	-59.738	0.0000000E+000	0.0000000E+000	0.0000000E+000	-30.262	0.0000000E+000	0.0000000E+000	0.0000000E+000	30.262	1.7139	59.738	1.19621e-05	0.00035702	1.34171e-08	0.000357006	3.7894	40223.8	1.51165	40222.2
158486	0.742625	0.542663	0.919769	-36.157	5.75752	3.78952	0.0829237	1.85054	0.644172	1	9	0.0051051	0.00555042	0	8.44696e-05	-0.00039175	5.81813e-05	101.746	0.0104823	-0.00213401	-0.0102628	-35.7155	0.912018	0.740491	0.5324	0.877833	0.641465	1.08723	36.157	644.172	881.538	1091.82	-53.843	0.0000000E+000	0.0000000E+000	0.0000000E+000	53.843	0.0000000E+000	0.0000000E+000	0.0000000E+000	-53.843	0.0000000E+000	0.0000000E+000	0.0000000E+000	-36.157	0.0000000E+000	0.0000000E+000	0.0000000E+000	36.157	1.36848	53.843	-3.28435e-06	0.000314241	-3.24854e-08	0.000314273	3.78991	45698.9	4.72422	45703.6
100004	0.85161	0.788848	1.16083	-42.809	6.52353	3.78948	0.0910823	2.01749	0.931669	1	9	0.00532661	0.00458863	0	0.000113798	0.000371342	5.43078e-05	89.9625	0.0118353	7.7452e-06	-0.0118353	-42.3772	1.15282	0.851618	0.777013	0.631983	0.585407	0.861454	42.809	931.669	1005.79	1371	-47.191	0.0000000E+000	0.0000000E+000	0.0000000E+000	47.191	0.0000000E+000	0.0000000E+000	0.0000000E+000	-47.191	0.0000000E+000	0.0000000E+000	0.0000000E+000	-42.809	0.0000000E+000	0.0000000E+000	0.0000000E+000	42.809	1.07956	47.191	1.40179e-05	0.000345155	3.38227e-08	0.000345121	3.78911	41605	4.07699	41600.9
63093.8	1.06445	1.10365	1.53333	-46.0357	7.28956	3.78945	0.0886608	2.28561	1.18411	1	9	0.00541406	0.00353091	0	0.000129106	0.000161492	3.33898e-05	74.3954	0.00945643	0.00254376	-0.00910787	-45.73	1.52856	1.067	1.09454	0.452747	0.469417	0.652175	46.0357	1184.11	1142.06	1645.12	-43.9643	0.0000000E+000	0.0000000E+000	0.0000000E+000	43.9643	0.0000000E+000	0.0000000E+000	0.0000000E+000	-43.9643	0.0000000E+000	0.0000000E+000	0.0000000E+000	-46.0357	0.0000000E+000	0.0000000E+000	0.0000000E+000	46.0357	0.964487	43.9643	2.16199e-05	0.000335975	1.4318e-08	0.000335961	3.78929	42741	1.82146	42739.2
39814.1	1.46032	1.46017	2.06509	-44.9971	8.30354	3.78944	0.0892196	2.73767	1.36869	1	9	0.00518665	0.00251158	0	0.000153483	0.00010426	1.90654e-05	80.6682	0.007591	0.00123089	-0.00749054	-44.8256	2.06068	1.46155	1.45268	0.342426	0.342391	0.484239	44.9971	1368.69	1368.83	1935.73	-45.0029	0.0000000E+000	0.0000000E+000	0.0000000E+000	45.0029	0.0000000E+000	0.0000000E+000	0.0000000E+000	-45.0029	0.0000000E+000	0.0000000E+000	0.0000000E+000	-44.9971	0.0000000E+000	0.0000000E+000	0.0000000E+000	44.9971	1.0001	45.0029	1.45467e-05	0.000338093	9.30203e-09	0.000338083	3.78934	42473.2	1.16858	42472.1
25116.9	1.99591	1.86001	2.72824	-42.9816	9.19355	3.78943	0.0845255	3.40673	1.58345	1	9	0.00470219	0.00172352	0	0.000174524	0.000142415	8.77279e-06	-68.8895	0.00509003	0.00183327	0.00474843	-43.0282	2.73282	1.99774	1.86476	0.268148	0.249891	0.366537	42.9816	1583.45	1699.14	2322.58	-47.0184	0.0000000E+000	0.0000000E+000	0.0000000E+000	47.0184	0.0000000E+000	0.0000000E+000	0.0000000E+000	-47.0184	0.0000000E+000	0.0000000E+000	0.0000000E+000	-42.9816	0.0000000E+000	0.0000000E+000	0.0000000E+000	42.9816	1.07306	47.0184	9.08978e-06	0.000320304	1.20377e-08	0.000320292	3.78929	44831.8	1.68487	44830.1
15847.7	2.82091	2.00848	3.46287	-35.4508	9.95952	3.78943	0.0876176	5.0002	1.68209	1	9	0.00486028	0.00140354	0	0.000194002	0.000123337	1.45332e-05	-100.355	0.0103547	-0.00186114	0.0101861	-35.6057	3.46728	2.81904	2.01866	0.235242	0.167492	0.288777	35.4508	1682.09	2362.49	2900.13	-54.5492	0.0000000E+000	0.0000000E+000	0.0000000E+000	54.5492	0.0000000E+000	0.0000000E+000	0.0000000E+000	-54.5492	0.0000000E+000	0.0000000E+000	0.0000000E+000	-35.4508	0.0000000E+000	0.0000000E+000	0.0000000E+000	35.4508	1.4045	54.5492	9.62752e-06	0.000332021	1.08065e-08	0.00033201	3.78931	43249.7	1.40768	43248.3
10002.2	3.57962	1.92884	4.06622	-28.3175	10.6016	3.78944	0.0857549	8.2495	1.85626	1	9	0.0048724	0.00119826	0	0.000208533	-0.00010559	1.84908e-05	-114.249	0.0154313	-0.00633772	0.0140698	-28.5343	4.06734	3.57329	1.94291	0.216499	0.116658	0.245929	28.3175	1856.26	3444.92	3913.21	-61.6825	0.0000000E+000	0.0000000E+000	0.0000000E+000	61.6825	0.0000000E+000	0.0000000E+000	0.0000000E+000	-61.6825	0.0000000E+000	0.0000000E+000	0.0000000E+000	-28.3175	0.0000000E+000	0.0000000E+000	0.0000000E+000	28.3175	1.85584	61.6825	8.03734e-06	0.000324963	-9.05489e-09	0.000324972	3.78954	44189.2	1.2313	44190.4
6309.38	4.1849	1.75574	4.53828	-22.7601	11.2775	3.78936	-0.0232379	14.3673	2.15036	1	10	0.00484904	0.00106847	0	0.000209373	-0.000124668	1.54661e-05	-53.5066	0.0144749	0.00860868	0.0116368	-22.8532	4.55072	4.19351	1.76737	0.20319	0.0852466	0.220348	22.7601	2150.36	5125.49	5558.3	-67.2399	0.0000000E+000	0.0000000E+000	0.0000000E+000	67.2399	0.0000000E+000	0.0000000E+000	0.0000000E+000	-67.2399	0.0000000E+000	0.0000000E+000	0.0000000E+000	-22.7601	0.0000000E+000	0.0000000E+000	0.0000000E+000	22.7601	2.38356	67.2399	-1.36271e-06	-8.80568e-05	2.89702e-09	-8.80596e-05	3.78948	163068	5.36484	163073
3983.6	4.66002	1.56446	4.91562	-18.5579	11.8401	3.78924	-0.0468108	25.5376	2.58673	1	10	0.00473577	0.000963411	0	0.000203691	8.87343e-06	1.3012e-05	-52.7301	0.0135061	0.00817892	0.0107481	-18.6461	4.9268	4.6682	1.57521	0.192855	0.0647451	0.203433	18.5579	2586.73	7705.05	8127.66	-71.4421	0.0000000E+000	0.0000000E+000	0.0000000E+000	71.4421	0.0000000E+000	0.0000000E+000	0.0000000E+000	-71.4421	0.0000000E+000	0.0000000E+000	0.0000000E+000	-18.5579	0.0000000E+000	0.0000000E+000	0.0000000E+000	18.5579	2.97868	71.4421	-3.49236e-06	-0.000177377	-4.15373e-10	-0.000177377	3.78923	80948	0.18956	80947.9
2510.8	5.03906	1.44951	5.2434	-16.0481	12.6648	3.78921	-0.0182736	43.7306	3.34198	1	10	0.00467194	0.000891012	0	0.000198604	0.000123337	7.95665e-06	-9.42815	0.00892989	0.00880927	0.00146281	-16.0369	5.25227	5.04787	1.45098	0.183284	0.0527225	0.190716	16.0481	3341.98	11618	12089.1	-73.9519	0.0000000E+000	0.0000000E+000	0.0000000E+000	73.9519	0.0000000E+000	0.0000000E+000	0.0000000E+000	-73.9519	0.0000000E+000	0.0000000E+000	0.0000000E+000	-16.0481	0.0000000E+000	0.0000000E+000	0.0000000E+000	16.0481	3.47639	73.9519	-2.25604e-06	-6.92426e-05	-2.25382e-09	-6.92404e-05	3.78909	207360	6.74947	207353
1585.51	5.3731	1.39183	5.55044	-14.5226	13.5668	3.78921	-0.0173568	72.1215	4.53508	1	10	0.00462553	0.000833363	0	0.000194378	0.000142415	6.61375e-06	35.4448	0.00793622	0.00646544	-0.00460236	-14.4599	5.55554	5.37956	1.38723	0.17441	0.0451786	0.180166	14.5226	4535.08	17507.4	18085.3	-75.4774	0.0000000E+000	0.0000000E+000	0.0000000E+000	75.4774	0.0000000E+000	0.0000000E+000	0.0000000E+000	-75.4774	0.0000000E+000	0.0000000E+000	0.0000000E+000	-14.5226	0.0000000E+000	0.0000000E+000	0.0000000E+000	14.5226	3.86044	75.4774	-1.47458e-06	-6.57685e-05	-2.47186e-09	-6.5766e-05	3.78907	218313	8.20512	218304
1000.32	5.73885	1.4353	5.91561	-14.0418	14.4688	3.78921	-0.0172264	110.85	6.52568	1	10	0.00460472	0.000778402	0	0.000191062	-0.000162822	1.05864e-05	71.5008	0.0136002	0.00431523	-0.0128974	-13.9105	5.91668	5.74316	1.42241	0.163993	0.0410152	0.169044	14.0418	6525.68	26091.9	26895.6	-75.9582	0.0000000E+000	0.0000000E+000	0.0000000E+000	75.9582	0.0000000E+000	0.0000000E+000	0.0000000E+000	-75.9582	0.0000000E+000	0.0000000E+000	0.0000000E+000	-14.0418	0.0000000E+000	0.0000000E+000	0.0000000E+000	14.0418	3.99835	75.9582	-1.91674e-06	-6.52743e-05	2.80484e-09	-6.52771e-05	3.78937	219966	9.45193	219975
631.01	6.16017	1.50935	6.34238	-13.7673	15.3705	3.7892	-0.0178227	167.107	9.46389	1	10	0.00458633	0.000723124	0	0.000186063	2.79507e-05	8.14097e-06	-1.11384	0.0112581	0.0112559	0.000218845	-13.745	6.35337	6.17142	1.50957	0.15314	0.037522	0.157669	13.7673	9463.89	38625.3	39767.8	-76.2327	0.0000000E+000	0.0000000E+000	0.0000000E+000	76.2327	0.0000000E+000	0.0000000E+000	0.0000000E+000	-76.2327	0.0000000E+000	0.0000000E+000	0.0000000E+000	-13.7673	0.0000000E+000	0.0000000E+000	0.0000000E+000	13.7673	4.08134	76.2327	-2.40462e-06	-6.75337e-05	-4.98157e-10	-6.75332e-05	3.78918	212606	1.56827	212604
398.089	6.63044	1.54179	6.80734	-13.0905	16.2718	3.78921	-0.0167642	259.307	13.3018	1	10	0.00455037	0.00066845	0	0.000182267	-0.000143745	4.15459e-05	53.342	0.0621526	0.0371074	-0.0498597	-12.6127	6.83243	6.66755	1.49193	0.143083	0.0332713	0.1469	13.0905	13301.8	57204.1	58730.3	-76.9095	0.0000000E+000	0.0000000E+000	0.0000000E+000	76.9095	0.0000000E+000	0.0000000E+000	0.0000000E+000	-76.9095	0.0000000E+000	0.0000000E+000	0.0000000E+000	-13.0905	0.0000000E+000	0.0000000E+000	0.0000000E+000	13.0905	4.30049	76.9095	-1.6248e-06	-6.35231e-05	2.40977e-09	-6.35255e-05	3.78935	226030	8.57451	226038
251.044	7.19645	1.4565	7.34237	-11.4417	17.1701	3.7892	-0.0176885	435.269	17.1281	1	10	0.00457529	0.000623136	0	0.000177285	0.000218724	5.19206e-06	-27.0569	0.00833215	0.00742024	0.00379008	-11.4591	7.35039	7.20387	1.46029	0.133489	0.0270172	0.136196	11.4417	17128.1	84628.4	86344.3	-78.5583	0.0000000E+000	0.0000000E+000	0.0000000E+000	78.5583	0.0000000E+000	0.0000000E+000	0.0000000E+000	-78.5583	0.0000000E+000	0.0000000E+000	0.0000000E+000	-11.4417	0.0000000E+000	0.0000000E+000	0.0000000E+000	11.4417	4.94091	78.5583	-2.24247e-06	-6.70253e-05	-3.8689e-09	-6.70215e-05	3.78899	214218	12.3653	214206
158.428	7.68069	1.31518	7.79248	-9.71667	18.0748	3.78921	-0.0157803	763.837	21.7582	1	10	0.00457144	0.000586647	0	0.000172503	2.79507e-05	1.06917e-05	50.251	0.0182252	0.0116536	-0.0140125	-9.60079	7.80162	7.69234	1.30117	0.126488	0.0216588	0.128329	9.71667	21758.2	127068	128917	-80.2833	0.0000000E+000	0.0000000E+000	0.0000000E+000	80.2833	0.0000000E+000	0.0000000E+000	0.0000000E+000	-80.2833	0.0000000E+000	0.0000000E+000	0.0000000E+000	-9.71667	0.0000000E+000	0.0000000E+000	0.0000000E+000	9.71667	5.84001	80.2833	-2.13803e-06	-5.97949e-05	-4.41071e-10	-5.97945e-05	3.78918	240123	1.77124	240121
100.032	8.0664	1.09283	8.14009	-7.71545	18.9758	3.7892	-0.0168052	1455.88	26.2408	1	10	0.00455562	0.000559652	0	0.000168041	4.70281e-05	2.04998e-05	-111.993	0.0366296	-0.0137174	0.0339641	-7.96559	8.13113	8.05268	1.1268	0.121737	0.0164929	0.122849	7.71545	26240.8	193688	195457	-82.2845	0.0000000E+000	0.0000000E+000	0.0000000E+000	82.2845	0.0000000E+000	0.0000000E+000	0.0000000E+000	-82.2845	0.0000000E+000	0.0000000E+000	0.0000000E+000	-7.71545	0.0000000E+000	0.0000000E+000	0.0000000E+000	7.71545	7.38117	82.2845	-2.74012e-06	-6.36784e-05	-7.90317e-10	-6.36776e-05	3.78916	225478	2.79842	225475
63.0823	8.36866	0.891679	8.41603	-6.0819	19.892	3.78922	-0.012318	2829.46	31.7619	1	10	0.00457654	0.000543788	0	0.000164804	0.000123337	8.09727e-06	-128.389	0.0148905	-0.00924699	0.0116713	-6.16766	8.40808	8.35942	0.90335	0.118152	0.0125891	0.118821	6.0819	31761.9	298094	299782	-83.9181	0.0000000E+000	0.0000000E+000	0.0000000E+000	83.9181	0.0000000E+000	0.0000000E+000	0.0000000E+000	-83.9181	0.0000000E+000	0.0000000E+000	0.0000000E+000	-6.0819	0.0000000E+000	0.0000000E+000	0.0000000E+000	6.0819	9.38529	83.9181	-1.7191e-06	-4.66755e-05	-1.51927e-09	-4.6674e-05	3.7891	307617	10.0128	307607
39.8089	8.56039	0.674423	8.58692	-4.50469	20.7928	3.7892	-0.0159741	5927.99	36.5677	1	10	0.0045651	0.000531634	0	0.000161508	0.000466729	1.06165e-05	24.0763	0.0199697	0.0182324	-0.00814668	-4.44108	8.60446	8.57863	0.666277	0.116096	0.00914656	0.116456	4.50469	36567.7	464150	465589	-85.4953	0.0000000E+000	0.0000000E+000	0.0000000E+000	85.4953	0.0000000E+000	0.0000000E+000	0.0000000E+000	-85.4953	0.0000000E+000	0.0000000E+000	0.0000000E+000	-4.50469	0.0000000E+000	0.0000000E+000	0.0000000E+000	4.50469	12.6929	85.4953	-1.54812e-06	-6.05291e-05	-7.45558e-09	-6.05217e-05	3.78873	237209	29.2178	237180
25.1044	8.69854	0.518847	8.714	-3.41351	21.6721	3.7892	-0.0172003	12218.8	43.3185	1	10	0.00456609	0.000523994	0	0.00015726	-1.02039e-05	1.12911e-05	43.3049	0.0215481	0.0156809	-0.0147794	-3.31054	8.72879	8.71422	0.504068	0.114554	0.00683289	0.114758	3.41351	43318.6	726241	727532	-86.5865	0.0000000E+000	0.0000000E+000	0.0000000E+000	86.5865	0.0000000E+000	0.0000000E+000	0.0000000E+000	-86.5865	0.0000000E+000	0.0000000E+000	0.0000000E+000	-3.41351	0.0000000E+000	0.0000000E+000	0.0000000E+000	3.41351	16.7651	86.5865	-2.61773e-06	-6.51753e-05	1.75509e-10	-6.51754e-05	3.78921	220299	0.593239	220299
15.8576	8.82639	0.394191	8.83519	-2.55716	22.5501	3.78919	-0.024356	25461.1	50.6826	1	10	0.0045837	0.000518801	0	0.000155476	2.79507e-05	1.91157e-05	17.7875	0.0368459	0.0350845	-0.011256	-2.47441	8.86974	8.86147	0.382935	0.113071	0.00504981	0.113184	2.55716	50682.6	1.13484e+06	1.13597e+06	-87.4428	0.0000000E+000	0.0000000E+000	0.0000000E+000	87.4428	0.0000000E+000	0.0000000E+000	0.0000000E+000	-87.4428	0.0000000E+000	0.0000000E+000	0.0000000E+000	-2.55716	0.0000000E+000	0.0000000E+000	0.0000000E+000	2.55716	22.3911	87.4428	-5.49684e-07	-9.22896e-05	-6.80768e-10	-9.22889e-05	3.78916	155575	1.14759	155574
10.0032	8.84366	0.309728	8.84908	-2.00583	23.5318	3.7892	-0.0163021	51369	62.931	1	10	0.00456775	0.000516183	0	0.000147316	0.000256878	7.13096e-06	-56.2349	0.0138148	0.0076781	0.0114846	-2.07833	8.85716	8.85134	0.321212	0.112937	0.00395534	0.113006	2.00583	62931.1	1.79687e+06	1.79797e+06	-87.9942	0.0000000E+000	0.0000000E+000	0.0000000E+000	87.9942	0.0000000E+000	0.0000000E+000	0.0000000E+000	-87.9942	0.0000000E+000	0.0000000E+000	0.0000000E+000	-2.00583	0.0000000E+000	0.0000000E+000	0.0000000E+000	2.00583	28.553	87.9942	-5.89888e-06	-6.17719e-05	-4.18765e-09	-6.17677e-05	3.78895	232437	15.7574	232421
6.31058	8.90583	0.271234	8.90996	-1.74445	24.4563	3.78921	-0.0316459	92983.5	86.1676	1	10	0.00457109	0.000513032	0	0.000143577	0.000199647	3.73365e-06	-3.73191	0.00727762	0.00726219	0.000473686	-1.74607	8.91723	8.91309	0.271708	0.112182	0.00341659	0.112234	1.74445	86167.8	2.82927e+06	2.83058e+06	-88.2555	0.0000000E+000	0.0000000E+000	0.0000000E+000	88.2555	0.0000000E+000	0.0000000E+000	0.0000000E+000	-88.2555	0.0000000E+000	0.0000000E+000	0.0000000E+000	-1.74445	0.0000000E+000	0.0000000E+000	0.0000000E+000	1.74445	32.8344	88.2555	-4.72599e-06	-0.000119913	-6.31799e-09	-0.000119907	3.78901	119738	6.30877	119732
3.97785	8.98647	0.241387	8.98971	-1.53866	25.7094	3.78932	-0.0124608	165751	119.507	1	11	0.00456647	0.000507966	0	0.000142975	0.000199647	3.94371e-05	49.9872	0.0776372	0.0499175	-0.0594624	-1.15335	9.03821	9.03638	0.181925	0.111198	0.00298692	0.111238	1.53866	119508	4.44907e+06	4.45068e+06	-88.4613	0.0000000E+000	0.0000000E+000	0.0000000E+000	88.4613	0.0000000E+000	0.0000000E+000	0.0000000E+000	-88.4613	0.0000000E+000	0.0000000E+000	0.0000000E+000	-1.53866	0.0000000E+000	0.0000000E+000	0.0000000E+000	1.53866	37.2284	88.4613	3.46505e-06	-4.7218e-05	-2.48776e-09	-4.72155e-05	3.78912	304099	16.022	304083
2.51367	9.02226	0.249341	9.0257	-1.58304	27.269	3.7893	-0.0120009	253932	193.795	1	11	0.00456144	0.000505383	0	0.000127485	4.70281e-05	7.63225e-06	-45.1877	0.0151019	0.0106436	0.0107136	-1.64907	9.03664	9.0329	0.260055	0.110752	0.00306078	0.110795	1.58304	193795	7.01236e+06	7.01504e+06	-88.417	0.0000000E+000	0.0000000E+000	0.0000000E+000	88.417	0.0000000E+000	0.0000000E+000	0.0000000E+000	-88.417	0.0000000E+000	0.0000000E+000	0.0000000E+000	-1.58304	0.0000000E+000	0.0000000E+000	0.0000000E+000	1.58304	36.1844	88.417	-1.09956e-05	-4.54752e-05	-5.64381e-10	-4.54746e-05	3.78925	315750	3.91869	315746
1.58469	9.08618	0.266135	9.09007	-1.67772	29.7046	3.78929	-0.0133836	377376	323.478	1	11	0.00456469	0.000502162	0	0.000118608	0.00010426	4.96698e-06	-49.7356	0.00989119	0.00639283	0.00754768	-1.72406	9.09669	9.09257	0.273683	0.109963	0.00322083	0.11001	1.67772	323478	1.10439e+07	1.10487e+07	-88.3223	0.0000000E+000	0.0000000E+000	0.0000000E+000	88.3223	0.0000000E+000	0.0000000E+000	0.0000000E+000	-88.3223	0.0000000E+000	0.0000000E+000	0.0000000E+000	-1.67772	0.0000000E+000	0.0000000E+000	0.0000000E+000	1.67772	34.1412	88.3223	-1.58449e-07	-5.07144e-05	-1.39538e-09	-5.0713e-05	3.78919	283129	7.79012	283121
1.00469	9.15712	0.285235	9.16156	-1.78413	240.524	3.78927	-0.0050547	555372	538.332	1	11	0.00500837	0.000546672	0	-0.0024384	-6.74358e-05	4.80649e-07	12.7699	0.000879227	0.00085748	-0.000194341	-1.78275	9.16242	9.15798	0.285041	0.109099	0.00339831	0.109152	1.78413	538331	1.72825e+07	1.72909e+07	-88.2159	0.0000000E+000	0.0000000E+000	0.0000000E+000	88.2159	0.0000000E+000	0.0000000E+000	0.0000000E+000	-88.2159	0.0000000E+000	0.0000000E+000	0.0000000E+000	-1.78413	0.0000000E+000	0.0000000E+000	0.0000000E+000	1.78413	32.1038	88.2159	-0.00256422	-1.91536e-05	3.40867e-10	-1.91539e-05	3.78933	749653	13.3412	749666
0.632957	9.22265	0.338745	9.22887	-2.10351	240.524	3.78927	-0.0050547	742289	1000.05	1	11	0.00502062	0.000544013	0	-0.0024384	-6.74358e-05	6.10665e-07	-7.40494	0.00112252	0.00111316	0.000144672	-2.10415	9.22999	9.22376	0.33889	0.108283	0.00397719	0.108356	2.10351	1.00005e+06	2.72273e+07	2.72457e+07	-87.8965	0.0000000E+000	0.0000000E+000	0.0000000E+000	87.8965	0.0000000E+000	0.0000000E+000	0.0000000E+000	-87.8965	0.0000000E+000	0.0000000E+000	0.0000000E+000	-2.10351	0.0000000E+000	0.0000000E+000	0.0000000E+000	2.10351	27.2259	87.8965	0.000000000000000E+000	-1.91536e-05	3.40867e-10	-1.91539e-05	3.78933	749653	13.3412	749666
0.401878	9.28544	0.414375	9.29468	-2.5552	240.524	3.78927	-0.0050547	955726	1899.55	1	11	0.0050347	0.000541675	0	-0.0024384	-6.74358e-05	4.414e-07	13.3158	0.000814879	0.000792971	-0.000187681	-2.55383	9.29547	9.28623	0.414187	0.107481	0.00479649	0.107588	2.5552	1.89955e+06	4.25657e+07	4.26081e+07	-87.4448	0.0000000E+000	0.0000000E+000	0.0000000E+000	87.4448	0.0000000E+000	0.0000000E+000	0.0000000E+000	-87.4448	0.0000000E+000	0.0000000E+000	0.0000000E+000	-2.5552	0.0000000E+000	0.0000000E+000	0.0000000E+000	2.5552	22.4083	87.4448	0.000000000000000E+000	-1.91536e-05	3.40867e-10	-1.91539e-05	3.78933	749653	13.3412	749666
0.251173	9.39066	0.532358	9.40574	-3.24464	240.524	3.78927	-0.0050547	1.19026e+06	3812.98	1	11	0.00503522	0.000535335	0	-0.0024384	-6.74358e-05	2.65321e-07	-38.1031	0.000495618	0.000390002	0.000305835	-3.24636	9.40614	9.39105	0.532664	0.106148	0.00601753	0.106318	3.24464	3.81298e+06	6.726e+07	6.7368e+07	-86.7554	0.0000000E+000	0.0000000E+000	0.0000000E+000	86.7554	0.0000000E+000	0.0000000E+000	0.0000000E+000	-86.7554	0.0000000E+000	0.0000000E+000	0.0000000E+000	-3.24464	0.0000000E+000	0.0000000E+000	0.0000000E+000	3.24464	17.6397	86.7554	0.000000000000000E+000	-1.91536e-05	3.40867e-10	-1.91539e-05	3.78933	749653	13.3412	749666
0.160751	9.53475	0.640194	9.55622	-3.84126	240.524	3.78927	-0.0050547	1.54652e+06	6940.74	1	11	0.00503174	0.000526541	0	-0.0024384	-6.74358e-05	5.51332e-07	6.3256	0.00104708	0.00104071	-0.000115366	-3.84015	9.55725	9.53579	0.640078	0.104409	0.00701034	0.104644	3.84126	6.94074e+06	1.03372e+08	1.03605e+08	-86.1587	0.0000000E+000	0.0000000E+000	0.0000000E+000	86.1587	0.0000000E+000	0.0000000E+000	0.0000000E+000	-86.1587	0.0000000E+000	0.0000000E+000	0.0000000E+000	-3.84126	0.0000000E+000	0.0000000E+000	0.0000000E+000	3.84126	14.8935	86.1587	0.000000000000000E+000	-1.91536e-05	3.40867e-10	-1.91539e-05	3.78933	749653	13.3412	749666
0.100469	9.68772	0.876732	9.72731	-5.17115	240.524	3.78927	-0.0050547	1.80684e+06	14678	1	11	0.00503224	0.000517331	0	-0.0024384	-6.74358e-05	4.49161e-07	1.94335	0.000868228	0.000867729	-2.94428e-05	-5.17051	9.72817	9.68858	0.876703	0.102385	0.00926577	0.102803	5.17115	1.4678e+07	1.62189e+08	1.62852e+08	-84.8289	0.0000000E+000	0.0000000E+000	0.0000000E+000	84.8289	0.0000000E+000	0.0000000E+000	0.0000000E+000	-84.8289	0.0000000E+000	0.0000000E+000	0.0000000E+000	-5.17115	0.0000000E+000	0.0000000E+000	0.0000000E+000	5.17115	11.0498	84.8289	0.000000000000000E+000	-1.91536e-05	3.40867e-10	-1.91539e-05	3.78933	749653	13.3412	749666
0.0602816	9.97729	1.05735	10.0332	-6.04936	240.525	3.78927	-0.0050547	2.497e+06	27731.7	1	11	0.00502883	0.000501221	0	-0.0024384	-6.74358e-05	3.21647e-07	79.446	0.000641728	0.00011754	-0.000630872	-6.0457	10.0332	9.97741	1.05672	0.0991145	0.0105037	0.0996695	6.04936	2.77317e+07	2.61681e+08	2.63146e+08	-83.9506	0.0000000E+000	0.0000000E+000	0.0000000E+000	83.9506	0.0000000E+000	0.0000000E+000	0.0000000E+000	-83.9506	0.0000000E+000	0.0000000E+000	0.0000000E+000	-6.04936	0.0000000E+000	0.0000000E+000	0.0000000E+000	6.04936	9.43616	83.9506	0.000000000000000E+000	-1.91536e-05	3.40867e-10	-1.91539e-05	3.78933	749653	13.3412	749666
0.0401878	10.3013	1.24144	10.3758	-6.87173	240.525	3.78927	-0.0050547	3.19008e+06	45667.3	1	11	0.00503021	0.000484801	0	-0.0024384	-6.74358e-05	4.04778e-07	1.46795	0.000834937	0.000834663	-2.13892e-05	-6.87106	10.3767	10.3021	1.24141	0.0956855	0.0115313	0.0963779	6.87173	4.56673e+07	3.78942e+08	3.81684e+08	-83.1283	0.0000000E+000	0.0000000E+000	0.0000000E+000	83.1283	0.0000000E+000	0.0000000E+000	0.0000000E+000	-83.1283	0.0000000E+000	0.0000000E+000	0.0000000E+000	-6.87173	0.0000000E+000	0.0000000E+000	0.0000000E+000	6.87173	8.29788	83.1283	0.000000000000000E+000	-1.91536e-05	3.40867e-10	-1.91539e-05	3.78933	749653	13.3412	749666
0.0200939	11.0585	1.76836	11.199	-9.08525	240.525	3.78927	-0.0050547	4.47904e+06	111679	1	11	0.00502794	0.000448963	0	-0.0024384	-6.74358e-05	9.50391e-07	-26.5139	0.00211686	0.00189422	0.000944996	-9.08849	11.201	11.0604	1.76931	0.0881735	0.0140998	0.0892937	9.08525	1.11679e+08	6.98384e+08	7.07257e+08	-80.9147	0.0000000E+000	0.0000000E+000	0.0000000E+000	80.9147	0.0000000E+000	0.0000000E+000	0.0000000E+000	-80.9147	0.0000000E+000	0.0000000E+000	0.0000000E+000	-9.08525	0.0000000E+000	0.0000000E+000	0.0000000E+000	9.08525	6.25352	80.9147	0.000000000000000E+000	-1.91536e-05	3.40867e-10	-1.91539e-05	3.78933	749653	13.3412	749666
0.00796479	12.6579	1.95765	12.8084	-8.79161	20329.4	3.78926	0.00185438	1.02073e+07	238447	1	11	0.00502191	0.000392079	0	-0.0124051	0.000142415	5.97435e-07	-8.21395	0.00152376	0.00150813	0.0002177	-8.79154	12.8099	12.6594	1.95787	0.0771565	0.0119329	0.0780738	8.79161	2.38447e+08	1.54177e+09	1.5601e+09	-81.2084	0.0000000E+000	0.0000000E+000	0.0000000E+000	81.2084	0.0000000E+000	0.0000000E+000	0.0000000E+000	-81.2084	0.0000000E+000	0.0000000E+000	0.0000000E+000	-8.79161	0.0000000E+000	0.0000000E+000	0.0000000E+000	8.79161	6.46587	81.2084	-0.00996667	7.02673e-06	2.64091e-10	7.02647e-06	3.78912	2.04341e+06	76.799	2.04334e+06
0.00497799	13.28	1.9893	13.4282	-8.51936	20329.4	3.78926	0.00185438	1.60719e+07	352721	1	11	0.00502871	0.000374489	0	-0.0124051	0.000142415	5.02775e-07	7.85076	0.00134256	0.00132998	-0.000183385	-8.51774	13.4295	13.2813	1.98912	0.0736485	0.0110323	0.0744702	8.51936	3.52721e+08	2.35467e+09	2.38094e+09	-81.4806	0.0000000E+000	0.0000000E+000	0.0000000E+000	81.4806	0.0000000E+000	0.0000000E+000	0.0000000E+000	-81.4806	0.0000000E+000	0.0000000E+000	0.0000000E+000	-8.51936	0.0000000E+000	0.0000000E+000	0.0000000E+000	8.51936	6.67573	81.4806	0.000000000000000E+000	7.02673e-06	2.64091e-10	7.02647e-06	3.78912	2.04341e+06	76.799	2.04334e+06
0.00318591	13.6867	2.62041	13.9353	-10.8385	20329.4	3.78926	0.00185438	1.90641e+07	674097	1	11	0.0050317	0.000361076	0	-0.0124051	0.000142415	4.65889e-07	-17.4943	0.00129028	0.0012306	0.000387872	-10.8391	13.9366	13.6879	2.6208	0.07048	0.0134939	0.0717602	10.8385	6.74097e+08	3.52089e+09	3.58484e+09	-79.1615	0.0000000E+000	0.0000000E+000	0.0000000E+000	79.1615	0.0000000E+000	0.0000000E+000	0.0000000E+000	-79.1615	0.0000000E+000	0.0000000E+000	0.0000000E+000	-10.8385	0.0000000E+000	0.0000000E+000	0.0000000E+000	10.8385	5.22312	79.1615	0.000000000000000E+000	7.02673e-06	2.64091e-10	7.02647e-06	3.78912	2.04341e+06	76.799	2.04334e+06
0.0019912	14.0881	3.02072	14.4083	-12.1019	20329.4	3.78926	0.00185438	2.64604e+07	1.16302e+06	1	11	0.00503443	0.000349411	0	-0.0124051	0.000142415	7.86767e-07	-8.59519	0.0022517	0.00222641	0.000336521	-12.1013	14.4106	14.0904	3.02105	0.0678619	0.0145506	0.0694043	12.1019	1.16302e+09	5.42415e+09	5.54743e+09	-77.8981	0.0000000E+000	0.0000000E+000	0.0000000E+000	77.8981	0.0000000E+000	0.0000000E+000	0.0000000E+000	-77.8981	0.0000000E+000	0.0000000E+000	0.0000000E+000	-12.1019	0.0000000E+000	0.0000000E+000	0.0000000E+000	12.1019	4.66384	77.8981	0.000000000000000E+000	7.02673e-06	2.64091e-10	7.02647e-06	3.78912	2.04341e+06	76.799	2.04334e+06
0.00129428	14.0418	3.94562	14.5856	-15.6949	20329.4	3.78926	0.00185438	3.11657e+07	2.28066e+06	1	11	0.00503448	0.000345168	0	-0.0124051	0.000142415	7.07474e-07	-31.0617	0.00204965	0.00175575	0.00105754	-15.6971	14.5876	14.0435	3.94668	0.0660046	0.0185467	0.0685608	15.6949	2.28066e+09	8.11646e+09	8.4308e+09	-74.3051	0.0000000E+000	0.0000000E+000	0.0000000E+000	74.3051	0.0000000E+000	0.0000000E+000	0.0000000E+000	-74.3051	0.0000000E+000	0.0000000E+000	0.0000000E+000	-15.6949	0.0000000E+000	0.0000000E+000	0.0000000E+000	15.6949	3.55882	74.3051	0.000000000000000E+000	7.02673e-06	2.64091e-10	7.02647e-06	3.78912	2.04341e+06	76.799	2.04334e+06
0.000796479	14.9513	5.32636	15.8718	-19.6082	20329.4	3.78926	0.00185438	3.75159e+07	4.225e+06	1	11	0.00503232	0.000317061	0	-0.0124051	0.000142415	8.9666e-07	-45.4886	0.00282803	0.00198259	0.0020167	-19.6127	15.8743	14.9533	5.32838	0.0593513	0.0211437	0.063005	19.6082	4.22499e+09	1.18598e+10	1.25899e+10	-70.3918	0.0000000E+000	0.0000000E+000	0.0000000E+000	70.3918	0.0000000E+000	0.0000000E+000	0.0000000E+000	-70.3918	0.0000000E+000	0.0000000E+000	0.0000000E+000	-19.6082	0.0000000E+000	0.0000000E+000	0.0000000E+000	19.6082	2.80705	70.3918	0.000000000000000E+000	7.02673e-06	2.64091e-10	7.02647e-06	3.78912	2.04341e+06	76.799	2.04334e+06
0.000497799	14.6483	7.89593	16.6408	-28.3262	20329.4	3.78926	0.00185438	4.04914e+07	9.11631e+06	1	11	0.00503432	0.000302528	0	-0.0124051	0.000142415	3.68951e-07	24.3928	0.00121956	0.0011107	-0.000503668	-28.3229	16.6416	14.6494	7.89542	0.0528976	0.0285137	0.0600931	28.3262	9.11631e+09	1.69123e+10	1.92128e+10	-61.6738	0.0000000E+000	0.0000000E+000	0.0000000E+000	61.6738	0.0000000E+000	0.0000000E+000	0.0000000E+000	-61.6738	0.0000000E+000	0.0000000E+000	0.0000000E+000	-28.3262	0.0000000E+000	0.0000000E+000	0.0000000E+000	28.3262	1.85517	61.6738	0.000000000000000E+000	7.02673e-06	2.64091e-10	7.02647e-06	3.78912	2.04341e+06	76.799	2.04334e+06
0.000298679	14.5441	12.1198	18.9319	-39.8049	20329.4	3.78926	0.00185438	4.39664e+07	1.80185e+07	1	11	0.00503378	0.000265889	0	-0.0124051	0.000142415	1.06314e-06	24.6935	0.00399844	0.00363281	-0.0016704	-39.7939	18.9337	14.5477	12.1181	0.0405785	0.0338145	0.0528208	39.8049	1.80185e+10	2.16227e+10	2.81462e+10	-50.1951	0.0000000E+000	0.0000000E+000	0.0000000E+000	50.1951	0.0000000E+000	0.0000000E+000	0.0000000E+000	-50.1951	0.0000000E+000	0.0000000E+000	0.0000000E+000	-39.8049	0.0000000E+000	0.0000000E+000	0.0000000E+000	39.8049	1.20003	50.1951	0.000000000000000E+000	7.02673e-06	2.64091e-10	7.02647e-06	3.78912	2.04341e+06	76.799	2.04334e+06
9.95598e-05	16.6182	38.7542	42.1669	-66.7899	20329.4	3.78926	0.00185438	4.12494e+07	3.48426e+07	1	11	0.00503602	0.000119431	0	-0.0124051	0.000142415	1.60002e-06	-27.1909	0.0133971	0.0119166	0.00612188	-66.7783	42.1773	16.6301	38.7603	0.0093463	0.0217959	0.0237153	66.7899	3.48426e+10	1.49409e+10	3.79109e+10	-23.2101	0.0000000E+000	0.0000000E+000	0.0000000E+000	23.2101	0.0000000E+000	0.0000000E+000	0.0000000E+000	-23.2101	0.0000000E+000	0.0000000E+000	0.0000000E+000	-66.7899	0.0000000E+000	0.0000000E+000	0.0000000E+000	66.7899	0.42881	23.2101	0.000000000000000E+000	7.02673e-06	2.64091e-10	7.02647e-06	3.78912	2.04341e+06	76.799	2.04334e+06