File: txt/17549_R290_UC83_50SOC_C05.mpt
EC-Lab ASCII FILE
Nb header lines : 64

Potentio Electrochemical Impedance Spectroscopy

Run on channel : 5 (SN 65912)
User :
CE vs. WE compliance from -10 V to 10 V
Electrode connection : standard
Potential control : Ewe
Ewe ctrl range : min = -10.00 V, max = 10.00 V
Safety Limits :
	Do not start on E overload
Acquisition started on : 09/16/2025 16:58:01.491
Loaded Setting File :  C:\Users\Celltest\OneDrive - store-dot.com\Documents\EC-Lab\Data\Michael\R290\17544_R290_UC82_50SOC.mps
Saved on :
	File : 17549_R290_UC83_50SOC_C05.mpr
	Directory : C:\Users\Celltest\OneDrive - store-dot.com\Documents\EC-Lab\Data\Michael\R290\
	Host : 169.254.61.224
Device : VMP-3e (SN .003165)
Address : USB
EC-LAB for windows v11.62 (software)
Internet server v27.00 (firmware)
Command interpretor v12.03 (firmware)
Electrode material :
Initial state :
Electrolyte :
Comments :
Electrode surface area : 0.001 cm²
Characteristic mass : 0.001 g
Equivalent Weight : 0.000 g/eq.
Density : 0.000 g/cm3
Volume (V) : 0.001 cm³
Record Ece
Cycle Definition : Charge/Discharge alternance
Mode                Multi sine
E (V)               0.0000
vs.                 Eoc
tE (h:m:s)          0:00:0.0000
record              0
dI                  0.000
unit dI             mA
dt (s)              0.000
fi                  1.000
unit fi             MHz
ff                  0.100
unit ff             mHz
Nd                  10
Points              per decade
spacing             Logarithmic
Va (mV)             5.0
pw                  0.10
Na                  2
corr                0
E range min (V)     -10.000
E range max (V)     10.000
I Range             Auto
Bandwidth           5
nc cycles           0
goto Ns'            0
nr cycles           0
inc. cycle          0

freq/Hz	Re(Z)/Ohm	-Im(Z)/Ohm	|Z|/Ohm	Phase(Z)/deg	time/s	<Ewe>/V	<I>/mA	Cs/µF	Cp/µF	cycle number	I Range	|Ewe|/V	|I|/A	Ns	(Q-Qo)/mA.h	<Ece>/V	|Ece|/V	Phase(Zce)/deg	|Zce|/Ohm	Re(Zce)/Ohm	-Im(Zce)/Ohm	Phase(Zwe-ce)/deg	|Zwe-ce|/Ohm	Re(Zwe-ce)/Ohm	-Im(Zwe-ce)/Ohm	Re(Y)/Ohm-1	Im(Y)/Ohm-1	|Y|/Ohm-1	Phase(Y)/deg	Re(C)/nF	Im(C)/nF	|C|/nF	Phase(C)/deg	Re(M)	Im(M)	|M|	Phase(M)/deg	Re(Permittivity)	Im(Permittivity)	|Permittivity|	Phase(Permittivity)/deg	Re(Resistivity)/Ohm.cm	Im(Resistivity)/Ohm.cm	|Resistivity|/Ohm.cm	Phase(Resistivity)/deg	Re(Conductivity)/mS/cm	Im(Conductivity)/mS/cm	|Conductivity|/mS/cm	Phase(Conductivity)/deg	Tan(Delta)	Loss Angle(Delta)/deg	dq/mA.h	Pwe/W	Pce/W	Pwe-ce/W	<Ewe-Ece>/V	Rwe/Ohm	Rce/Ohm	Rwe-ce/Ohm		Ewe-Ece/V
1.00002e+06	0.964441	-0.0945288	0.969062	5.59791	2.69354	3.79366	0.0813474	-1.68364	-0.0160204	1	9	0.000212825	0.00021962	0	1.28158e-05	0.000208542	0.000195737	-0.448434	0.891254	0.891227	0.00697547	2.7013	1.85773	1.85567	-0.0875533	1.027	-0.100661	1.03193	-5.59791	-16.0204	163.45	164.233	-95.5979	0.0000000E+000	0.0000000E+000	0.0000000E+000	95.5979	0.0000000E+000	0.0000000E+000	0.0000000E+000	-95.5979	0.0000000E+000	0.0000000E+000	0.0000000E+000	5.59791	0.0000000E+000	0.0000000E+000	0.0000000E+000	-5.59791	10.2026	84.4021	1.28158e-05	0.000308604	1.69643e-08	0.000308587	3.79345	46635.3	2.56359	46632.8
630957	0.371582	0.220998	0.432335	-30.742	3.45952	3.79251	-0.0356601	1.14138	0.298242	1	9	0.000158299	0.00036615	0	8.60013e-06	-5.87355e-05	0.00010681	-105.478	0.29171	-0.0778497	0.28113	-59.6734	0.581732	0.293733	0.502129	1.98799	1.18235	2.31302	30.742	298.242	501.458	583.445	-59.258	0.0000000E+000	0.0000000E+000	0.0000000E+000	59.258	0.0000000E+000	0.0000000E+000	0.0000000E+000	-59.258	0.0000000E+000	0.0000000E+000	0.0000000E+000	-30.742	0.0000000E+000	0.0000000E+000	0.0000000E+000	30.742	1.68138	59.258	-3.56626e-06	-0.000135241	2.09451e-09	-0.000135243	3.79257	106352	1.64709	106353
398103	0.568488	0.172475	0.594076	-16.8774	4.22556	3.79227	-0.059717	2.31792	0.195374	1	9	0.000599845	0.00100971	0	-2.64677e-06	1.76294e-05	4.65764e-05	165.994	0.0461285	-0.044757	-0.0111646	-17.119	0.54801	0.523731	0.16131	1.61078	0.4887	1.68329	16.8774	195.374	643.964	672.949	-73.1226	0.0000000E+000	0.0000000E+000	0.0000000E+000	73.1226	0.0000000E+000	0.0000000E+000	0.0000000E+000	-73.1226	0.0000000E+000	0.0000000E+000	0.0000000E+000	-16.8774	0.0000000E+000	0.0000000E+000	0.0000000E+000	16.8774	3.29606	73.1226	-6.1684e-06	-0.000226463	-1.05278e-09	-0.000226462	3.79226	63504.1	0.295216	63503.8
251206	0.666686	0.346476	0.751343	-27.4609	4.99156	3.79206	-0.08504	1.82859	0.388854	1	9	0.00202326	0.00269286	0	-1.4372e-05	-0.000326012	5.24775e-05	97.26	0.0194876	-0.0024627	-0.0193314	-26.2213	0.740416	0.664223	0.327145	1.18099	0.613758	1.33095	27.4609	388.854	748.23	843.241	-62.5391	0.0000000E+000	0.0000000E+000	0.0000000E+000	62.5391	0.0000000E+000	0.0000000E+000	0.0000000E+000	-62.5391	0.0000000E+000	0.0000000E+000	0.0000000E+000	-27.4609	0.0000000E+000	0.0000000E+000	0.0000000E+000	27.4609	1.92419	62.5391	-8.22119e-06	-0.000322477	2.77241e-08	-0.000322505	3.79239	44591.5	3.83364	44595.3
158486	0.755506	0.544432	0.931234	-35.7772	5.75953	3.79189	-0.0902535	1.84453	0.630457	1	9	0.00510384	0.00548072	0	-2.40783e-05	-0.0001351	5.97688e-05	84.2033	0.0109053	0.00110143	-0.0108495	-35.1926	0.925832	0.756608	0.533583	0.871206	0.627807	1.07384	35.7772	630.457	874.882	1078.38	-54.2228	0.0000000E+000	0.0000000E+000	0.0000000E+000	54.2228	0.0000000E+000	0.0000000E+000	0.0000000E+000	-54.2228	0.0000000E+000	0.0000000E+000	0.0000000E+000	-35.7772	0.0000000E+000	0.0000000E+000	0.0000000E+000	35.7772	1.3877	54.2228	-7.13591e-06	-0.000342232	1.21933e-08	-0.000342244	3.79203	42013.8	1.4969	42015.3
100004	0.884896	0.789483	1.18589	-41.7386	6.52755	3.7918	-0.09219	2.01586	0.893431	1	9	0.0053915	0.0045464	0	-2.35783e-05	-0.000211465	4.15851e-05	86.3872	0.00914682	0.000576376	-0.00912864	-41.3893	1.18026	0.885472	0.780354	0.629226	0.56138	0.843252	41.7386	893.431	1001.41	1342.03	-48.2614	0.0000000E+000	0.0000000E+000	0.0000000E+000	48.2614	0.0000000E+000	0.0000000E+000	0.0000000E+000	-48.2614	0.0000000E+000	0.0000000E+000	0.0000000E+000	-41.7386	0.0000000E+000	0.0000000E+000	0.0000000E+000	41.7386	1.12086	48.2614	5.83374e-06	-0.000349566	1.9495e-08	-0.000349586	3.79201	41130.3	2.2938	41132.6
63093.8	1.09893	1.1201	1.56916	-45.5467	7.29352	3.79178	-0.0785975	2.25204	1.1475	1	9	0.00545926	0.00347909	0	-2.24401e-05	-0.000116009	2.56695e-05	63.1707	0.00737823	0.00333004	-0.006584	-45.2911	1.56681	1.10226	1.11352	0.446307	0.454905	0.637282	45.5467	1147.5	1125.81	1607.55	-44.4533	0.0000000E+000	0.0000000E+000	0.0000000E+000	44.4533	0.0000000E+000	0.0000000E+000	0.0000000E+000	-44.4533	0.0000000E+000	0.0000000E+000	0.0000000E+000	-45.5467	0.0000000E+000	0.0000000E+000	0.0000000E+000	45.5467	0.981098	44.4533	-1.60542e-06	-0.000298024	9.11803e-09	-0.000298034	3.7919	48243	1.47599	48244.5
39814.1	1.47278	1.51415	2.11228	-45.7936	8.18353	3.79179	-0.0858593	2.64006	1.35659	1	9	0.00505796	0.00239455	0	-4.18799e-05	-0.000192374	1.9338e-05	14.2886	0.00807584	0.00782601	-0.00199317	-45.6041	2.11632	1.48061	1.51216	0.330091	0.339364	0.473421	45.7936	1356.59	1319.52	1892.48	-44.2064	0.0000000E+000	0.0000000E+000	0.0000000E+000	44.2064	0.0000000E+000	0.0000000E+000	0.0000000E+000	-44.2064	0.0000000E+000	0.0000000E+000	0.0000000E+000	-45.7936	0.0000000E+000	0.0000000E+000	0.0000000E+000	45.7936	0.972676	44.2064	-1.52967e-05	-0.00032556	1.65171e-08	-0.000325577	3.79198	44162.8	2.24057	44165.1
25116.9	2.07265	1.92322	2.82748	-42.8585	8.95152	3.79178	-0.0763632	3.29476	1.52435	1	9	0.00518486	0.00183374	0	-5.55548e-05	7.49031e-05	2.70928e-06	103.492	0.00147746	-0.000344706	-0.00143669	-42.8419	2.82625	2.0723	1.92179	0.259254	0.240564	0.353671	42.8585	1524.35	1642.78	2241.06	-47.1415	0.0000000E+000	0.0000000E+000	0.0000000E+000	47.1415	0.0000000E+000	0.0000000E+000	0.0000000E+000	-47.1415	0.0000000E+000	0.0000000E+000	0.0000000E+000	-42.8585	0.0000000E+000	0.0000000E+000	0.0000000E+000	42.8585	1.07769	47.1415	-8.02922e-06	-0.000289552	-5.71983e-09	-0.000289547	3.79171	49654.6	0.980879	49653.6
15847.7	2.8582	2.15795	3.58134	-37.0529	9.59555	3.79179	-0.0689524	4.65387	1.68967	1	9	0.00494883	0.00138184	0	-6.64631e-05	-0.0001351	1.58125e-05	-95.8275	0.0114431	-0.00116185	0.011384	-37.2092	3.58729	2.85704	2.16933	0.222844	0.168247	0.279225	37.0529	1689.67	2237.97	2804.2	-52.9471	0.0000000E+000	0.0000000E+000	0.0000000E+000	52.9471	0.0000000E+000	0.0000000E+000	0.0000000E+000	-52.9471	0.0000000E+000	0.0000000E+000	0.0000000E+000	-37.0529	0.0000000E+000	0.0000000E+000	0.0000000E+000	37.0529	1.3245	52.9471	-6.77622e-06	-0.000261453	9.3155e-09	-0.000261462	3.79192	54991.3	1.95933	54993.3
10002.2	3.68223	2.13105	4.25443	-30.0597	10.3926	3.79178	-0.0603251	7.46672	1.87342	1	10	0.00468293	0.00110072	0	-8.09555e-05	0.000208542	1.59366e-05	-111.624	0.0144784	-0.0053354	0.0134594	-30.2524	4.25658	3.67689	2.14451	0.203436	0.117736	0.235049	30.0597	1873.42	3237.06	3740.09	-59.9403	0.0000000E+000	0.0000000E+000	0.0000000E+000	59.9403	0.0000000E+000	0.0000000E+000	0.0000000E+000	-59.9403	0.0000000E+000	0.0000000E+000	0.0000000E+000	-30.0597	0.0000000E+000	0.0000000E+000	0.0000000E+000	30.0597	1.72789	59.9403	-8.792e-06	-0.000228739	-1.25803e-08	-0.000228727	3.79157	62855.7	3.45696	62852.2
6309.38	4.37629	1.94911	4.79071	-24.0072	10.9105	3.79178	-0.0596512	12.9419	2.14224	1	10	0.00465221	0.00097109	0	-8.82251e-05	-3.96442e-05	5.90959e-06	33.7474	0.00608552	0.00506008	-0.0033807	-23.9457	4.79396	4.38135	1.94572	0.19068	0.084925	0.208737	24.0072	2142.24	4809.94	5265.43	-65.9928	0.0000000E+000	0.0000000E+000	0.0000000E+000	65.9928	0.0000000E+000	0.0000000E+000	0.0000000E+000	-65.9928	0.0000000E+000	0.0000000E+000	0.0000000E+000	-24.0072	0.0000000E+000	0.0000000E+000	0.0000000E+000	24.0072	2.24528	65.9928	-3.67732e-06	-0.000226184	2.36483e-09	-0.000226186	3.79182	63565.9	0.664601	63566.6
3983.6	4.92746	1.72389	5.22031	-19.2825	11.4751	3.79169	-0.0704193	23.1759	2.52732	1	10	0.00455522	0.000872595	0	-9.89801e-05	-0.0001351	5.3602e-06	-4.56551	0.00614283	0.00612334	0.000488963	-19.2654	5.22625	4.93358	1.72437	0.180813	0.063258	0.191559	19.2825	2527.32	7223.95	7653.29	-70.7175	0.0000000E+000	0.0000000E+000	0.0000000E+000	70.7175	0.0000000E+000	0.0000000E+000	0.0000000E+000	-70.7175	0.0000000E+000	0.0000000E+000	0.0000000E+000	-19.2825	0.0000000E+000	0.0000000E+000	0.0000000E+000	19.2825	2.85835	70.7175	-6.38012e-06	-0.000267008	9.51367e-09	-0.000267018	3.79183	53844.5	1.91851	53846.4
2510.8	5.35145	1.55739	5.57346	-16.2262	12.5138	3.79165	-0.046407	40.7014	3.17801	1	10	0.00499748	0.000896656	0	-0.00011598	-3.96442e-05	5.06972e-06	-45.4711	0.00565403	0.00396499	0.00403074	-16.2546	5.5784	5.35542	1.56142	0.172275	0.0501358	0.179422	16.2262	3178.01	10920.1	11373.2	-73.7738	0.0000000E+000	0.0000000E+000	0.0000000E+000	73.7738	0.0000000E+000	0.0000000E+000	0.0000000E+000	-73.7738	0.0000000E+000	0.0000000E+000	0.0000000E+000	-16.2262	0.0000000E+000	0.0000000E+000	0.0000000E+000	16.2262	3.43616	73.7738	-9.65272e-06	-0.000175959	1.83977e-09	-0.000175961	3.79169	81704.4	0.854273	81705.2
1585.51	5.71997	1.49127	5.91117	-14.6125	13.4158	3.79166	-0.0461724	67.3123	4.28413	1	10	0.00494529	0.000836602	0	-0.000127536	1.76294e-05	6.28897e-06	6.71001	0.00751728	0.00746579	-0.000878351	-14.5861	5.91817	5.72743	1.4904	0.163699	0.0426787	0.169171	14.6125	4284.13	16432.3	16981.6	-75.3875	0.0000000E+000	0.0000000E+000	0.0000000E+000	75.3875	0.0000000E+000	0.0000000E+000	0.0000000E+000	-75.3875	0.0000000E+000	0.0000000E+000	0.0000000E+000	-14.6125	0.0000000E+000	0.0000000E+000	0.0000000E+000	14.6125	3.83562	75.3875	-6.33383e-06	-0.00017507	-8.13993e-10	-0.000175069	3.79164	82119.5	0.381817	82119.2
1000.32	6.10945	1.49437	6.28956	-13.7446	14.3179	3.79166	-0.0460645	106.469	6.01033	1	10	0.00492211	0.000782585	0	-0.000139216	-7.78267e-05	9.4659e-06	34.9595	0.0120957	0.0099131	-0.0069308	-13.662	6.29755	6.11937	1.48744	0.154441	0.0377761	0.158994	13.7446	6010.33	24572.1	25296.5	-76.2554	0.0000000E+000	0.0000000E+000	0.0000000E+000	76.2554	0.0000000E+000	0.0000000E+000	0.0000000E+000	-76.2554	0.0000000E+000	0.0000000E+000	0.0000000E+000	-13.7446	0.0000000E+000	0.0000000E+000	0.0000000E+000	13.7446	4.08832	76.2554	-5.99811e-06	-0.000174661	3.58504e-09	-0.000174664	3.79173	82312	1.68952	82313.6
631.01	6.54052	1.52899	6.71686	-13.1579	15.2195	3.79167	-0.0450778	164.96	8.54786	1	10	0.00489861	0.000729301	0	-0.000149455	-9.69179e-05	6.67691e-06	36.7187	0.00915522	0.00733864	-0.00547379	-13.0982	6.72276	6.54786	1.52352	0.14497	0.0338901	0.148879	13.1579	8547.86	36564.8	37550.7	-76.8421	0.0000000E+000	0.0000000E+000	0.0000000E+000	76.8421	0.0000000E+000	0.0000000E+000	0.0000000E+000	-76.8421	0.0000000E+000	0.0000000E+000	0.0000000E+000	-13.1579	0.0000000E+000	0.0000000E+000	0.0000000E+000	13.1579	4.27766	76.8421	-5.05594e-06	-0.00017092	4.36884e-09	-0.000170924	3.79176	84113.9	2.15002	84116.1
398.089	7.05091	1.54052	7.21724	-12.3247	16.1208	3.79166	-0.0436703	259.52	11.8241	1	10	0.0048957	0.000678334	0	-0.0001603	-3.96442e-05	1.78215e-05	13.15	0.0262725	0.0255836	-0.00597702	-12.2352	7.24097	7.07649	1.53455	0.135364	0.0295751	0.138557	12.3247	11824.1	54118.1	55394.8	-77.6753	0.0000000E+000	0.0000000E+000	0.0000000E+000	77.6753	0.0000000E+000	0.0000000E+000	0.0000000E+000	-77.6753	0.0000000E+000	0.0000000E+000	0.0000000E+000	-12.3247	0.0000000E+000	0.0000000E+000	0.0000000E+000	12.3247	4.57695	77.6753	-5.81304e-06	-0.000165583	1.73128e-09	-0.000165585	3.7917	86824.7	0.907808	86825.6
251.044	7.55641	1.49619	7.70311	-11.1998	17.019	3.79165	-0.0450145	423.725	15.9854	1	10	0.00488239	0.00063382	0	-0.000170702	0.00018945	7.99759e-06	151.04	0.0126181	-0.0110403	-0.00610969	-11.1712	7.6911	7.54537	1.49008	0.127345	0.0252147	0.129818	11.1998	15985.4	80733.3	82300.7	-78.8002	0.0000000E+000	0.0000000E+000	0.0000000E+000	78.8002	0.0000000E+000	0.0000000E+000	0.0000000E+000	-78.8002	0.0000000E+000	0.0000000E+000	0.0000000E+000	-11.1998	0.0000000E+000	0.0000000E+000	0.0000000E+000	11.1998	5.05044	78.8002	-5.54646e-06	-0.000170679	-8.52801e-09	-0.000170671	3.79146	84231.9	4.20865	84227.7
158.428	8.04597	1.34431	8.1575	-9.4853	17.9239	3.79166	-0.0428363	747.286	20.2943	1	10	0.00488222	0.000598495	0	-0.00018081	9.39943e-05	7.67362e-06	-50.5543	0.0128215	0.00814612	0.00990113	-9.5444	8.16717	8.05411	1.35421	0.120911	0.0202016	0.122587	9.4853	20294.3	121465	123149	-80.5147	0.0000000E+000	0.0000000E+000	0.0000000E+000	80.5147	0.0000000E+000	0.0000000E+000	0.0000000E+000	-80.5147	0.0000000E+000	0.0000000E+000	0.0000000E+000	-9.4853	0.0000000E+000	0.0000000E+000	0.0000000E+000	9.4853	5.98519	80.5147	-5.17882e-06	-0.00016242	-4.02636e-09	-0.000162416	3.79156	88515.1	2.19427	88512.9
100.032	8.45665	1.16812	8.53695	-7.86454	18.8238	3.79166	-0.0440575	1362.05	25.5014	1	10	0.00488235	0.000571908	0	-0.000191316	-0.000230556	3.15665e-06	140.309	0.00551951	-0.00424727	-0.00352501	-7.84499	8.53226	8.45241	1.1646	0.116036	0.0160281	0.117138	7.86454	25501.4	184618	186371	-82.1355	0.0000000E+000	0.0000000E+000	0.0000000E+000	82.1355	0.0000000E+000	0.0000000E+000	0.0000000E+000	-82.1355	0.0000000E+000	0.0000000E+000	0.0000000E+000	-7.86454	0.0000000E+000	0.0000000E+000	0.0000000E+000	7.86454	7.23952	82.1355	-4.61717e-06	-0.000167051	1.01577e-08	-0.000167062	3.7919	86061.6	5.23307	86066.9
63.0823	8.77716	0.94496	8.82788	-6.14486	19.741	3.79166	-0.04109	2669.93	30.5923	1	10	0.00488337	0.000553176	0	-0.000201852	0.000227633	8.06159e-06	-66.0097	0.0145733	0.00592525	0.0133144	-6.2266	8.83521	8.78309	0.958274	0.112627	0.0121255	0.113277	6.14486	30592.3	284154	285796	-83.8551	0.0000000E+000	0.0000000E+000	0.0000000E+000	83.8551	0.0000000E+000	0.0000000E+000	0.0000000E+000	-83.8551	0.0000000E+000	0.0000000E+000	0.0000000E+000	-6.14486	0.0000000E+000	0.0000000E+000	0.0000000E+000	6.14486	9.2884	83.8551	-4.79002e-06	-0.000155799	-9.35343e-09	-0.00015579	3.79143	92276.9	5.53986	92271.4
39.8089	9.00583	0.772871	9.03893	-4.90505	20.6418	3.79166	-0.0419129	5172.88	37.8192	1	10	0.00488105	0.000540003	0	-0.0002127	-1.46181e-06	1.03299e-05	68.8058	0.0191293	0.00691582	-0.0178354	-4.78873	9.04432	9.01275	0.755036	0.110227	0.0094596	0.110633	4.90505	37819.2	440686	442306	-85.095	0.0000000E+000	0.0000000E+000	0.0000000E+000	85.095	0.0000000E+000	0.0000000E+000	0.0000000E+000	-85.095	0.0000000E+000	0.0000000E+000	0.0000000E+000	-4.90505	0.0000000E+000	0.0000000E+000	0.0000000E+000	4.90505	11.6524	85.095	-5.48362e-06	-0.000158919	6.12684e-11	-0.000158919	3.79166	90465.3	0.0348772	90465.4
25.1044	9.14163	0.556419	9.15855	-3.4831	21.5201	3.79167	-0.0419575	11393.8	42.0551	1	10	0.00487304	0.000532076	0	-0.000224088	-0.000211465	4.82637e-06	-43.5804	0.00907083	0.00657098	0.00625317	-3.51962	9.16549	9.1482	0.562673	0.108986	0.0066336	0.109188	3.4831	42055.1	690940	692218	-86.5169	0.0000000E+000	0.0000000E+000	0.0000000E+000	86.5169	0.0000000E+000	0.0000000E+000	0.0000000E+000	-86.5169	0.0000000E+000	0.0000000E+000	0.0000000E+000	-3.4831	0.0000000E+000	0.0000000E+000	0.0000000E+000	3.4831	16.4294	86.5169	-4.56919e-06	-0.000159089	8.87256e-09	-0.000159098	3.79188	90369.1	5.03998	90374.1
15.8576	9.2629	0.427467	9.27276	-2.64223	22.398	3.79164	-0.0484251	23479	49.8962	1	10	0.00488728	0.000527057	0	-0.000237038	5.58118e-05	2.25991e-05	44.4178	0.0428779	0.0306257	-0.0300096	-2.44888	9.30202	9.29353	0.397458	0.107728	0.00497147	0.107843	2.64223	49896.2	1.08122e+06	1.08237e+06	-87.3578	0.0000000E+000	0.0000000E+000	0.0000000E+000	87.3578	0.0000000E+000	0.0000000E+000	0.0000000E+000	-87.3578	0.0000000E+000	0.0000000E+000	0.0000000E+000	-2.64223	0.0000000E+000	0.0000000E+000	0.0000000E+000	2.64223	21.6693	87.3578	-7.48203e-06	-0.000183611	-2.70269e-09	-0.000183608	3.79159	78299.1	1.15254	78298
10.0032	9.31844	0.338544	9.32459	-2.08067	23.3798	3.79166	-0.0405203	46996.5	61.9494	1	10	0.00487101	0.000522383	0	-0.000247214	-0.00028783	1.00431e-05	35.1687	0.0192255	0.015716	-0.0110736	-2.00929	9.3399	9.33416	0.327471	0.107173	0.00389364	0.107243	2.08067	61949.4	1.70516e+06	1.70628e+06	-87.9193	0.0000000E+000	0.0000000E+000	0.0000000E+000	87.9193	0.0000000E+000	0.0000000E+000	0.0000000E+000	-87.9193	0.0000000E+000	0.0000000E+000	0.0000000E+000	-2.08067	0.0000000E+000	0.0000000E+000	0.0000000E+000	2.08067	27.525	87.9193	-6.52623e-07	-0.000153639	1.1663e-08	-0.000153651	3.79195	93574.4	7.10335	93581.5
6.31058	9.39988	0.298895	9.40463	-1.82126	24.3043	3.79163	-0.064689	84378.6	85.2287	1	10	0.00487991	0.000518884	0	-0.000262931	1.76294e-05	1.12959e-05	-9.39277	0.0217696	0.0214778	0.00355283	-1.8387	9.42621	9.42135	0.302448	0.106277	0.00337937	0.106331	1.82126	85228.5	2.68034e+06	2.68169e+06	-88.1787	0.0000000E+000	0.0000000E+000	0.0000000E+000	88.1787	0.0000000E+000	0.0000000E+000	0.0000000E+000	-88.1787	0.0000000E+000	0.0000000E+000	0.0000000E+000	-1.82126	0.0000000E+000	0.0000000E+000	0.0000000E+000	1.82126	31.4488	88.1787	-2.91814e-06	-0.000245276	-1.14043e-09	-0.000245275	3.79161	58613.2	0.272526	58612.9
3.97785	9.47717	0.263721	9.48084	-1.59396	25.5574	3.79172	-0.0381805	151714	117.388	1	11	0.00488757	0.000515521	0	-0.000279887	0.000208542	1.44057e-05	49.17	0.0279439	0.0182702	-0.0211438	-1.4634	9.49854	9.49544	0.242578	0.105435	0.00293395	0.105476	1.59396	117388	4.21849e+06	4.22012e+06	-88.406	0.0000000E+000	0.0000000E+000	0.0000000E+000	88.406	0.0000000E+000	0.0000000E+000	0.0000000E+000	-88.406	0.0000000E+000	0.0000000E+000	0.0000000E+000	-1.59396	0.0000000E+000	0.0000000E+000	0.0000000E+000	1.59396	35.9363	88.406	-9.80751e-06	-0.00014477	-7.96222e-09	-0.000144762	3.79152	99310.5	5.46199	99305
2.51367	9.51701	0.281577	9.52117	-1.6947	27.117	3.79173	-0.0373535	224861	196.665	1	11	0.00488064	0.000512609	0	-0.000283831	0.000303998	1.95042e-06	50.6565	0.0038049	0.00241219	-0.00294255	-1.67657	9.5235	9.51942	0.278634	0.104983	0.0031061	0.105029	1.6947	196665	6.64708e+06	6.64998e+06	-88.3053	0.0000000E+000	0.0000000E+000	0.0000000E+000	88.3053	0.0000000E+000	0.0000000E+000	0.0000000E+000	-88.3053	0.0000000E+000	0.0000000E+000	0.0000000E+000	-1.6947	0.0000000E+000	0.0000000E+000	0.0000000E+000	1.6947	33.799	88.3053	-8.95291e-07	-0.000141634	-1.13554e-08	-0.000141623	3.79142	101509	8.13841	101501
1.58469	9.57679	0.304549	9.58163	-1.82143	29.5523	3.79172	-0.0354352	329777	333.162	1	11	0.00488061	0.000509371	0	-0.0003141	5.58118e-05	3.93894e-06	1.82641	0.00773294	0.00772901	-0.000246461	-1.81849	9.58935	9.58452	0.304303	0.104314	0.00331725	0.104366	1.82143	333162	1.04765e+07	1.04818e+07	-88.1786	0.0000000E+000	0.0000000E+000	0.0000000E+000	88.1786	0.0000000E+000	0.0000000E+000	0.0000000E+000	-88.1786	0.0000000E+000	0.0000000E+000	0.0000000E+000	-1.82143	0.0000000E+000	0.0000000E+000	0.0000000E+000	1.82143	31.4458	88.1786	-2.13678e-05	-0.000134361	-1.97771e-09	-0.000134359	3.79167	107004	1.57504	107003
1.00469	9.67293	0.329323	9.67854	-1.94993	240.369	3.79171	-0.0234054	481022	556.915	1	11	0.00507408	0.000524262	0	-0.00399137	7.49031e-05	8.58241e-07	-5.39697	0.00163705	0.00162979	0.000153973	-1.95051	9.68017	9.67456	0.329477	0.103262	0.00351562	0.103321	1.94993	556915	1.63578e+07	1.63673e+07	-88.0501	0.0000000E+000	0.0000000E+000	0.0000000E+000	88.0501	0.0000000E+000	0.0000000E+000	0.0000000E+000	-88.0501	0.0000000E+000	0.0000000E+000	0.0000000E+000	-1.94993	0.0000000E+000	0.0000000E+000	0.0000000E+000	1.94993	29.3722	88.0501	-0.00364727	-8.87466e-05	-1.75314e-09	-8.87448e-05	3.79164	162001	3.20024	161998
0.632957	9.75352	0.393646	9.76146	-2.31117	240.369	3.79171	-0.0234054	638764	1038.78	1	11	0.00508805	0.000521239	0	-0.00399137	7.49031e-05	7.35804e-07	-1.85108	0.00141165	0.00141091	4.55988e-05	-2.3111	9.76287	9.75493	0.393691	0.10236	0.0041312	0.102444	2.31117	1.03878e+06	2.57382e+07	2.57591e+07	-87.6888	0.0000000E+000	0.0000000E+000	0.0000000E+000	87.6888	0.0000000E+000	0.0000000E+000	0.0000000E+000	-87.6888	0.0000000E+000	0.0000000E+000	0.0000000E+000	-2.31117	0.0000000E+000	0.0000000E+000	0.0000000E+000	2.31117	24.7774	87.6888	0.000000000000000E+000	-8.87466e-05	-1.75314e-09	-8.87448e-05	3.79164	162001	3.20024	161998
0.401878	9.83382	0.48321	9.84569	-2.81311	240.369	3.79171	-0.0234054	819579	1974.1	1	11	0.00510193	0.000518189	0	-0.00399137	7.49031e-05	5.66201e-07	-2.84749	0.00109265	0.0010913	5.42803e-05	-2.81311	9.84678	9.83491	0.483264	0.101445	0.00498475	0.101567	2.81311	1.9741e+06	4.01751e+07	4.02235e+07	-87.1869	0.0000000E+000	0.0000000E+000	0.0000000E+000	87.1869	0.0000000E+000	0.0000000E+000	0.0000000E+000	-87.1869	0.0000000E+000	0.0000000E+000	0.0000000E+000	-2.81311	0.0000000E+000	0.0000000E+000	0.0000000E+000	2.81311	20.3511	87.1869	0.000000000000000E+000	-8.87466e-05	-1.75314e-09	-8.87448e-05	3.79164	162001	3.20024	161998
0.251173	9.96391	0.619004	9.98312	-3.55491	240.37	3.79171	-0.0234054	1.02365e+06	3935.57	1	11	0.00510476	0.000511339	0	-0.00399137	7.49031e-05	8.26405e-07	-22.7272	0.00161616	0.00149067	0.000624394	-3.55795	9.98465	9.9654	0.619629	0.0999763	0.00621099	0.100169	3.55491	3.93557e+06	6.33496e+07	6.34717e+07	-86.4451	0.0000000E+000	0.0000000E+000	0.0000000E+000	86.4451	0.0000000E+000	0.0000000E+000	0.0000000E+000	-86.4451	0.0000000E+000	0.0000000E+000	0.0000000E+000	-3.55491	0.0000000E+000	0.0000000E+000	0.0000000E+000	3.55491	16.0967	86.4451	0.000000000000000E+000	-8.87466e-05	-1.75314e-09	-8.87448e-05	3.79164	162001	3.20024	161998
0.160751	10.131	0.721455	10.1566	-4.07331	240.37	3.79171	-0.0234054	1.37233e+06	6924.28	1	11	0.00509508	0.00050165	0	-0.00399137	7.49031e-05	6.01808e-07	-15.9447	0.00119966	0.0011535	0.000329556	-4.0747	10.1578	10.1321	0.721784	0.098209	0.00699372	0.0984577	4.07331	6.92429e+06	9.72339e+07	9.74801e+07	-85.9267	0.0000000E+000	0.0000000E+000	0.0000000E+000	85.9267	0.0000000E+000	0.0000000E+000	0.0000000E+000	-85.9267	0.0000000E+000	0.0000000E+000	0.0000000E+000	-4.07331	0.0000000E+000	0.0000000E+000	0.0000000E+000	4.07331	14.0424	85.9267	0.000000000000000E+000	-8.87466e-05	-1.75314e-09	-8.87448e-05	3.79164	162001	3.20024	161998
0.100469	10.3041	0.970895	10.3498	-5.38275	240.37	3.79171	-0.0234054	1.6316e+06	14358.2	1	11	0.00509863	0.000492633	0	-0.00399137	7.49031e-05	6.83787e-07	-12.9133	0.00138803	0.00135292	0.00031019	-5.38376	10.3511	10.3055	0.971205	0.0961946	0.00906385	0.0966207	5.38275	1.43582e+07	1.52383e+08	1.53058e+08	-84.6172	0.0000000E+000	0.0000000E+000	0.0000000E+000	84.6172	0.0000000E+000	0.0000000E+000	0.0000000E+000	-84.6172	0.0000000E+000	0.0000000E+000	0.0000000E+000	-5.38275	0.0000000E+000	0.0000000E+000	0.0000000E+000	5.38275	10.613	84.6172	0.000000000000000E+000	-8.87466e-05	-1.75314e-09	-8.87448e-05	3.79164	162001	3.20024	161998
0.0602816	10.6119	1.15914	10.675	-6.23372	240.371	3.79171	-0.0234054	2.27771e+06	26855.6	1	11	0.00509361	0.000477153	0	-0.00399137	7.49031e-05	7.247e-07	5.00309	0.0015188	0.00151301	-0.000132454	-6.23214	10.6765	10.6134	1.15901	0.0931229	0.0101718	0.0936768	6.23372	2.68556e+07	2.45862e+08	2.47324e+08	-83.7663	0.0000000E+000	0.0000000E+000	0.0000000E+000	83.7663	0.0000000E+000	0.0000000E+000	0.0000000E+000	-83.7663	0.0000000E+000	0.0000000E+000	0.0000000E+000	-6.23372	0.0000000E+000	0.0000000E+000	0.0000000E+000	6.23372	9.15497	83.7663	0.000000000000000E+000	-8.87466e-05	-1.75314e-09	-8.87448e-05	3.79164	162001	3.20024	161998
0.0401878	10.9553	1.36339	11.0398	-7.09404	240.371	3.79171	-0.0234054	2.90473e+06	44302.4	1	11	0.00509397	0.00046142	0	-0.00399137	7.49031e-05	9.50942e-07	2.87666	0.0020609	0.0020583	-0.000103429	-7.09219	11.0418	10.9573	1.36329	0.0898882	0.0111867	0.0905816	7.09404	4.43024e+07	3.55983e+08	3.58729e+08	-82.906	0.0000000E+000	0.0000000E+000	0.0000000E+000	82.906	0.0000000E+000	0.0000000E+000	0.0000000E+000	-82.906	0.0000000E+000	0.0000000E+000	0.0000000E+000	-7.09404	0.0000000E+000	0.0000000E+000	0.0000000E+000	7.09404	8.03529	82.906	0.000000000000000E+000	-8.87466e-05	-1.75314e-09	-8.87448e-05	3.79164	162001	3.20024	161998
0.0200939	11.7451	2.01897	11.9174	-9.75373	240.372	3.79171	-0.0234054	3.92308e+06	112596	1	11	0.00509417	0.000427457	0	-0.00399137	7.49031e-05	9.95304e-07	11.2594	0.00232843	0.00228361	-0.000454629	-9.74971	11.9196	11.7474	2.01851	0.0826981	0.0142157	0.083911	9.75373	1.12596e+08	6.55016e+08	6.64623e+08	-80.2463	0.0000000E+000	0.0000000E+000	0.0000000E+000	80.2463	0.0000000E+000	0.0000000E+000	0.0000000E+000	-80.2463	0.0000000E+000	0.0000000E+000	0.0000000E+000	-9.75373	0.0000000E+000	0.0000000E+000	0.0000000E+000	9.75373	5.81739	80.2463	0.000000000000000E+000	-8.87466e-05	-1.75314e-09	-8.87448e-05	3.79164	162001	3.20024	161998
0.00796479	13.6232	2.36013	13.8261	-9.82857	20329.3	3.7917	0.000212348	8.4666e+06	246706	1	11	0.0050886	0.000368042	0	-0.0240525	-0.000211465	6.62227e-07	-5.40719	0.00179933	0.00179132	0.000169556	-9.82799	13.8279	13.625	2.3603	0.0712652	0.0123462	0.0723267	9.82857	2.46706e+08	1.42404e+09	1.44526e+09	-80.1714	0.0000000E+000	0.0000000E+000	0.0000000E+000	80.1714	0.0000000E+000	0.0000000E+000	0.0000000E+000	-80.1714	0.0000000E+000	0.0000000E+000	0.0000000E+000	-9.82857	0.0000000E+000	0.0000000E+000	0.0000000E+000	9.82857	5.77222	80.1714	-0.0200611	8.0516e-07	-4.49042e-11	8.05205e-07	3.79192	1.78561e+07	995.843	1.78571e+07
0.00497799	14.3945	2.4491	14.6014	-9.65593	20329.3	3.7917	0.000212348	1.30545e+07	367271	1	11	0.00509606	0.000349013	0	-0.0240525	-0.000211465	9.954e-08	89.0956	0.000285204	4.50147e-06	-0.000285169	-9.65482	14.6013	14.3945	2.44882	0.0675165	0.0114874	0.0684868	9.65593	3.67271e+08	2.15862e+09	2.18964e+09	-80.3441	0.0000000E+000	0.0000000E+000	0.0000000E+000	80.3441	0.0000000E+000	0.0000000E+000	0.0000000E+000	-80.3441	0.0000000E+000	0.0000000E+000	0.0000000E+000	-9.65593	0.0000000E+000	0.0000000E+000	0.0000000E+000	9.65593	5.87746	80.3441	0.000000000000000E+000	8.0516e-07	-4.49042e-11	8.05205e-07	3.79192	1.78561e+07	995.843	1.78571e+07
0.00318591	14.9765	3.17708	15.3098	-11.977	20329.3	3.7917	0.000212348	1.57238e+07	677132	1	11	0.00509849	0.000333021	0	-0.0240525	-0.000211465	2.42971e-07	-141.291	0.000729597	-0.000569327	0.000456266	-11.9791	15.3094	14.976	3.17754	0.0638956	0.0135546	0.0653175	11.977	6.77132e+08	3.19196e+09	3.26299e+09	-78.023	0.0000000E+000	0.0000000E+000	0.0000000E+000	78.023	0.0000000E+000	0.0000000E+000	0.0000000E+000	-78.023	0.0000000E+000	0.0000000E+000	0.0000000E+000	-11.977	0.0000000E+000	0.0000000E+000	0.0000000E+000	11.977	4.71394	78.023	0.000000000000000E+000	8.0516e-07	-4.49042e-11	8.05205e-07	3.79192	1.78561e+07	995.843	1.78571e+07
0.0019912	15.5578	3.56856	15.9619	-12.9187	20329.3	3.7917	0.000212348	2.23982e+07	1.11952e+06	1	11	0.00509983	0.000319501	0	-0.0240525	-0.000211465	3.45886e-07	3.91338	0.00108258	0.00108006	-7.38844e-05	-12.9176	15.9629	15.5589	3.56849	0.0610636	0.0140064	0.0626494	12.9187	1.11952e+09	4.88077e+09	5.00752e+09	-77.0813	0.0000000E+000	0.0000000E+000	0.0000000E+000	77.0813	0.0000000E+000	0.0000000E+000	0.0000000E+000	-77.0813	0.0000000E+000	0.0000000E+000	0.0000000E+000	-12.9187	0.0000000E+000	0.0000000E+000	0.0000000E+000	12.9187	4.35969	77.0813	0.000000000000000E+000	8.0516e-07	-4.49042e-11	8.05205e-07	3.79192	1.78561e+07	995.843	1.78571e+07
0.00129428	15.6277	4.58611	16.2867	-16.3549	20329.3	3.7917	0.000212348	2.68131e+07	2.12604e+06	1	11	0.00510092	0.000313196	0	-0.0240525	-0.000211465	6.41082e-07	-21.0791	0.0020469	0.00190994	0.000736183	-16.3555	16.2887	15.6296	4.58685	0.0589153	0.0172893	0.0613998	16.3549	2.12604e+09	7.2447e+09	7.55022e+09	-73.6451	0.0000000E+000	0.0000000E+000	0.0000000E+000	73.6451	0.0000000E+000	0.0000000E+000	0.0000000E+000	-73.6451	0.0000000E+000	0.0000000E+000	0.0000000E+000	-16.3549	0.0000000E+000	0.0000000E+000	0.0000000E+000	16.3549	3.40761	73.6451	0.000000000000000E+000	8.0516e-07	-4.49042e-11	8.05205e-07	3.79192	1.78561e+07	995.843	1.78571e+07
0.000796479	16.7862	5.90982	17.7961	-19.3954	20329.3	3.7917	0.000212348	3.38121e+07	3.72881e+06	1	11	0.00509972	0.000286564	0	-0.0240525	-0.000211465	8.6301e-07	35.9923	0.00301158	0.00243666	-0.00176984	-19.3874	17.7978	16.7886	5.90805	0.0530031	0.0186605	0.056192	19.3954	3.72881e+09	1.05913e+10	1.12285e+10	-70.6046	0.0000000E+000	0.0000000E+000	0.0000000E+000	70.6046	0.0000000E+000	0.0000000E+000	0.0000000E+000	-70.6046	0.0000000E+000	0.0000000E+000	0.0000000E+000	-19.3954	0.0000000E+000	0.0000000E+000	0.0000000E+000	19.3954	2.84039	70.6046	0.000000000000000E+000	8.0516e-07	-4.49042e-11	8.05205e-07	3.79192	1.78561e+07	995.843	1.78571e+07
0.000497799	16.5356	8.52942	18.6058	-27.2857	20329.3	3.7917	0.000212348	3.7484e+07	7.8775e+06	1	11	0.00510004	0.00027411	0	-0.0240525	-0.000211465	1.00565e-06	-106.343	0.00366879	-0.00103236	0.00352055	-27.2968	18.6065	16.5345	8.53294	0.0477663	0.024639	0.0537467	27.2857	7.8775e+09	1.52717e+10	1.71837e+10	-62.7143	0.0000000E+000	0.0000000E+000	0.0000000E+000	62.7143	0.0000000E+000	0.0000000E+000	0.0000000E+000	-62.7143	0.0000000E+000	0.0000000E+000	0.0000000E+000	-27.2857	0.0000000E+000	0.0000000E+000	0.0000000E+000	27.2857	1.93865	62.7143	0.000000000000000E+000	8.0516e-07	-4.49042e-11	8.05205e-07	3.79192	1.78561e+07	995.843	1.78571e+07
0.000298679	16.4535	12.9427	20.934	-38.1894	20329.3	3.7917	0.000212348	4.11708e+07	1.57375e+07	1	11	0.0051022	0.000243728	0	-0.0240525	-0.000211465	9.48196e-07	-57.8237	0.00389039	0.00207173	0.00329288	-38.193	20.9376	16.4556	12.946	0.0375452	0.0295339	0.0477692	38.1894	1.57375e+10	2.00064e+10	2.54544e+10	-51.8106	0.0000000E+000	0.0000000E+000	0.0000000E+000	51.8106	0.0000000E+000	0.0000000E+000	0.0000000E+000	-51.8106	0.0000000E+000	0.0000000E+000	0.0000000E+000	-38.1894	0.0000000E+000	0.0000000E+000	0.0000000E+000	38.1894	1.27126	51.8106	0.000000000000000E+000	8.0516e-07	-4.49042e-11	8.05205e-07	3.79192	1.78561e+07	995.843	1.78571e+07
9.95598e-05	18.8572	41.3322	45.4306	-65.4759	20329.3	3.7917	0.000212348	3.86766e+07	3.2013e+07	1	11	0.00510084	0.000112278	0	-0.0240525	-0.000211465	2.55705e-06	98.7618	0.0227744	-0.00346917	-0.0225086	-65.4681	45.4087	18.8537	41.3097	0.00913648	0.0200259	0.0220116	65.4759	3.2013e+10	1.46055e+10	3.51874e+10	-24.5241	0.0000000E+000	0.0000000E+000	0.0000000E+000	24.5241	0.0000000E+000	0.0000000E+000	0.0000000E+000	-24.5241	0.0000000E+000	0.0000000E+000	0.0000000E+000	-65.4759	0.0000000E+000	0.0000000E+000	0.0000000E+000	65.4759	0.456234	24.5241	0.000000000000000E+000	8.0516e-07	-4.49042e-11	8.05205e-07	3.79192	1.78561e+07	995.843	1.78571e+07