File: txt/17548_R290_UC82_50SOC_C04.mpt
EC-Lab ASCII FILE
Nb header lines : 64

Potentio Electrochemical Impedance Spectroscopy

Run on channel : 4 (SN 66756)
User :
CE vs. WE compliance from -10 V to 10 V
Electrode connection : standard
Potential control : Ewe
Ewe ctrl range : min = -10.00 V, max = 10.00 V
Safety Limits :
	Do not start on E overload
Acquisition started on : 09/16/2025 16:52:27.804
Loaded Setting File :  C:\Users\Celltest\OneDrive - store-dot.com\Documents\EC-Lab\Data\Michael\UC74_NCMA_16706_EIS_50_SOC.mps
Saved on :
	File : 17548_R290_UC82_50SOC_C04.mpr
	Directory : C:\Users\Celltest\OneDrive - store-dot.com\Documents\EC-Lab\Data\Michael\R290\
	Host : 169.254.61.224
Device : VMP-3e (SN .003165)
Address : USB
EC-LAB for windows v11.62 (software)
Internet server v27.00 (firmware)
Command interpretor v12.03 (firmware)
Electrode material :
Initial state :
Electrolyte :
Comments :
Electrode surface area : 0.001 cm²
Characteristic mass : 0.001 g
Equivalent Weight : 0.000 g/eq.
Density : 0.000 g/cm3
Volume (V) : 0.001 cm³
Record Ece
Cycle Definition : Charge/Discharge alternance
Mode                Multi sine
E (V)               0.0000
vs.                 Eoc
tE (h:m:s)          0:00:0.0000
record              0
dI                  0.000
unit dI             mA
dt (s)              0.000
fi                  1.000
unit fi             MHz
ff                  0.100
unit ff             mHz
Nd                  10
Points              per decade
spacing             Logarithmic
Va (mV)             5.0
pw                  0.10
Na                  2
corr                0
E range min (V)     -10.000
E range max (V)     10.000
I Range             Auto
Bandwidth           5
nc cycles           0
goto Ns'            0
nr cycles           0
inc. cycle          0

freq/Hz	Re(Z)/Ohm	-Im(Z)/Ohm	|Z|/Ohm	Phase(Z)/deg	time/s	<Ewe>/V	<I>/mA	Cs/µF	Cp/µF	cycle number	I Range	|Ewe|/V	|I|/A	Ns	(Q-Qo)/mA.h	<Ece>/V	|Ece|/V	Phase(Zce)/deg	|Zce|/Ohm	Re(Zce)/Ohm	-Im(Zce)/Ohm	Phase(Zwe-ce)/deg	|Zwe-ce|/Ohm	Re(Zwe-ce)/Ohm	-Im(Zwe-ce)/Ohm	Re(Y)/Ohm-1	Im(Y)/Ohm-1	|Y|/Ohm-1	Phase(Y)/deg	Re(C)/nF	Im(C)/nF	|C|/nF	Phase(C)/deg	Re(M)	Im(M)	|M|	Phase(M)/deg	Re(Permittivity)	Im(Permittivity)	|Permittivity|	Phase(Permittivity)/deg	Re(Resistivity)/Ohm.cm	Im(Resistivity)/Ohm.cm	|Resistivity|/Ohm.cm	Phase(Resistivity)/deg	Re(Conductivity)/mS/cm	Im(Conductivity)/mS/cm	|Conductivity|/mS/cm	Phase(Conductivity)/deg	Tan(Delta)	Loss Angle(Delta)/deg	dq/mA.h	Pwe/W	Pce/W	Pwe-ce/W	<Ewe-Ece>/V	Rwe/Ohm	Rce/Ohm	Rwe-ce/Ohm		Ewe-Ece/V
1.00002e+06	0.931631	-0.14818	0.943342	9.03746	2.23456	3.78908	0.110601	-1.07404	-0.0265011	1	9	0.000195757	0.000207514	0	-1.11171e-05	4.12549e-05	0.00018038	3.91064	0.869245	0.867221	-0.0592831	6.57891	1.81078	1.79885	-0.207463	1.0469	-0.166515	1.06006	-9.03746	-26.5011	166.616	168.711	-99.0375	0.0000000E+000	0.0000000E+000	0.0000000E+000	99.0375	0.0000000E+000	0.0000000E+000	0.0000000E+000	-99.0375	0.0000000E+000	0.0000000E+000	0.0000000E+000	9.03746	0.0000000E+000	0.0000000E+000	0.0000000E+000	-9.03746	6.28714	80.9625	-1.11171e-05	0.000419076	4.56284e-09	0.000419072	3.78904	34258.9	0.373006	34258.6
630957	0.390338	0.23035	0.453238	-30.5461	3.00055	3.78803	-0.063801	1.09505	0.28285	1	9	0.000150026	0.00033101	0	-2.3314e-05	4.12549e-05	0.00010876	-100.984	0.328569	-0.0626027	0.32255	-59.3424	0.642735	0.327735	0.5529	1.90015	1.12134	2.20635	30.5461	282.85	479.301	556.537	-59.4539	0.0000000E+000	0.0000000E+000	0.0000000E+000	59.4539	0.0000000E+000	0.0000000E+000	0.0000000E+000	-59.4539	0.0000000E+000	0.0000000E+000	0.0000000E+000	-30.5461	0.0000000E+000	0.0000000E+000	0.0000000E+000	30.5461	1.69454	59.4539	-8.41444e-06	-0.00024168	-2.63211e-09	-0.000241677	3.78798	59372.5	0.646618	59371.8
398103	0.587255	0.146351	0.605217	-13.9937	3.77052	3.7879	-0.105835	2.73167	0.159734	1	9	0.000567667	0.000937957	0	-4.36086e-05	-7.34048e-05	3.35012e-05	168.803	0.0357173	-0.0350374	-0.0069357	-14.169	0.569545	0.552218	0.139415	1.60326	0.399552	1.6523	13.9937	159.734	640.957	660.561	-76.0063	0.0000000E+000	0.0000000E+000	0.0000000E+000	76.0063	0.0000000E+000	0.0000000E+000	0.0000000E+000	-76.0063	0.0000000E+000	0.0000000E+000	0.0000000E+000	-13.9937	0.0000000E+000	0.0000000E+000	0.0000000E+000	13.9937	4.01265	76.0063	-1.16669e-05	-0.000400892	7.7688e-09	-0.0004009	3.78797	35790.6	0.693577	35791.3
251206	0.711477	0.310477	0.77627	-23.5757	4.53652	3.78767	-0.114227	2.04061	0.326433	1	9	0.0019466	0.00250763	0	-6.67698e-05	-0.000111625	4.07553e-05	82.8665	0.0162525	0.00201827	-0.0161267	-22.4185	0.771827	0.713495	0.294351	1.18069	0.515233	1.28821	23.5757	326.433	748.04	816.163	-66.4243	0.0000000E+000	0.0000000E+000	0.0000000E+000	66.4243	0.0000000E+000	0.0000000E+000	0.0000000E+000	-66.4243	0.0000000E+000	0.0000000E+000	0.0000000E+000	-23.5757	0.0000000E+000	0.0000000E+000	0.0000000E+000	23.5757	2.29156	66.4243	-1.27308e-05	-0.000432655	1.27505e-08	-0.000432667	3.78779	33159.2	0.977219	33160.2
158486	0.834929	0.470495	0.958369	-29.4019	5.30254	3.7876	-0.123327	2.13439	0.51442	1	9	0.00509621	0.00531758	0	-8.53397e-05	-0.000360054	5.07739e-05	60.7248	0.00954832	0.00466918	-0.00832881	-28.831	0.958396	0.839598	0.462166	0.909042	0.512258	1.04344	29.4019	514.42	912.878	1047.84	-60.5981	0.0000000E+000	0.0000000E+000	0.0000000E+000	60.5981	0.0000000E+000	0.0000000E+000	0.0000000E+000	-60.5981	0.0000000E+000	0.0000000E+000	0.0000000E+000	-29.4019	0.0000000E+000	0.0000000E+000	0.0000000E+000	29.4019	1.77458	60.5981	-7.33748e-06	-0.000467115	4.44045e-08	-0.000467159	3.78796	30711.8	2.9195	30714.7
100004	1.01519	0.616381	1.18766	-31.2643	6.07053	3.78757	-0.125826	2.58199	0.695453	1	9	0.00538452	0.00453372	0	-0.000116938	-0.000188065	2.82324e-05	73.2907	0.00622721	0.00179043	-0.00596427	-30.9732	1.18611	1.01698	0.610417	0.719718	0.436982	0.841991	31.2643	695.453	1145.42	1340.02	-58.7357	0.0000000E+000	0.0000000E+000	0.0000000E+000	58.7357	0.0000000E+000	0.0000000E+000	0.0000000E+000	-58.7357	0.0000000E+000	0.0000000E+000	0.0000000E+000	-31.2643	0.0000000E+000	0.0000000E+000	0.0000000E+000	31.2643	1.64702	58.7357	-1.51778e-05	-0.000476576	2.36635e-08	-0.000476599	3.78776	30101.6	1.49464	30103.1
63093.8	1.26512	0.729141	1.46019	-29.9567	6.83652	3.78756	-0.114003	3.45957	0.862627	1	9	0.00540784	0.00370351	0	-0.000127687	-7.34048e-05	3.09359e-05	54.6245	0.00835315	0.00483591	-0.00681095	-29.6306	1.46101	1.26995	0.72233	0.593348	0.341972	0.68484	29.9567	862.627	1496.73	1727.52	-60.0433	0.0000000E+000	0.0000000E+000	0.0000000E+000	60.0433	0.0000000E+000	0.0000000E+000	0.0000000E+000	-60.0433	0.0000000E+000	0.0000000E+000	0.0000000E+000	-29.9567	0.0000000E+000	0.0000000E+000	0.0000000E+000	29.9567	1.73508	60.0433	-1.30862e-05	-0.000431794	8.36838e-09	-0.000431802	3.78763	33223.3	0.643884	33223.9
39814.1	1.55229	0.767729	1.73177	-26.3159	7.60255	3.78757	-0.114488	5.20686	1.02332	1	9	0.00533236	0.00307914	0	-0.000156962	6.03649e-05	2.15344e-05	19.4756	0.00699363	0.00659348	-0.00233172	-26.1506	1.73665	1.55889	0.765398	0.517599	0.255993	0.577444	26.3159	1023.32	2069.08	2308.31	-63.6841	0.0000000E+000	0.0000000E+000	0.0000000E+000	63.6841	0.0000000E+000	0.0000000E+000	0.0000000E+000	-63.6841	0.0000000E+000	0.0000000E+000	0.0000000E+000	-26.3159	0.0000000E+000	0.0000000E+000	0.0000000E+000	26.3159	2.02193	63.6841	-1.91867e-05	-0.000433631	-6.91105e-09	-0.000433624	3.78751	33082.7	0.527259	33082.2
25116.9	1.82183	0.747679	1.96929	-22.3132	8.36855	3.78757	-0.103373	8.47498	1.22166	1	9	0.00519946	0.00264027	0	-0.000176486	-0.000398274	1.31444e-05	14.6759	0.00497844	0.00481602	-0.00126129	-22.2263	1.97327	1.82665	0.746418	0.469775	0.192795	0.507798	22.3132	1221.66	2976.76	3217.69	-67.6868	0.0000000E+000	0.0000000E+000	0.0000000E+000	67.6868	0.0000000E+000	0.0000000E+000	0.0000000E+000	-67.6868	0.0000000E+000	0.0000000E+000	0.0000000E+000	-22.3132	0.0000000E+000	0.0000000E+000	0.0000000E+000	22.3132	2.43665	67.6868	-8.10505e-06	-0.000391534	4.1171e-08	-0.000391575	3.78797	36639.7	3.85277	36643.5
15847.7	2.04154	0.694261	2.15636	-18.7815	9.01054	3.78758	-0.10535	14.4654	1.49946	1	9	0.00537733	0.00249371	0	-0.000197314	-0.000264504	1.686e-05	-123.614	0.006761	-0.00374282	0.00563049	-18.9553	2.15463	2.03779	0.699891	0.439052	0.149308	0.463745	18.7815	1499.46	4409.31	4657.3	-71.2185	0.0000000E+000	0.0000000E+000	0.0000000E+000	71.2185	0.0000000E+000	0.0000000E+000	0.0000000E+000	-71.2185	0.0000000E+000	0.0000000E+000	0.0000000E+000	-18.7815	0.0000000E+000	0.0000000E+000	0.0000000E+000	18.7815	2.94059	71.2185	-7.90291e-06	-0.000399022	2.78656e-08	-0.00039905	3.78784	35952.3	2.51072	35954.8
10002.2	2.22266	0.657449	2.31785	-16.4779	9.52853	3.78757	-0.0991215	24.2026	1.94721	1	9	0.00543339	0.00234414	0	-0.000209227	-0.000360054	9.40286e-06	-26.7566	0.00401121	0.00358172	0.00180585	-16.4956	2.3218	2.22624	0.659254	0.413714	0.122374	0.431434	16.4779	1947.21	6583	6864.95	-73.5221	0.0000000E+000	0.0000000E+000	0.0000000E+000	73.5221	0.0000000E+000	0.0000000E+000	0.0000000E+000	-73.5221	0.0000000E+000	0.0000000E+000	0.0000000E+000	-16.4779	0.0000000E+000	0.0000000E+000	0.0000000E+000	16.4779	3.38073	73.5221	-5.89214e-06	-0.00037543	3.56891e-08	-0.000375466	3.78793	38211.4	3.63245	38215
6309.38	2.37084	0.653531	2.45926	-15.4111	10.0485	3.78757	-0.0956156	38.5982	2.72577	1	9	0.00534213	0.00217225	0	-0.000223618	-0.000168955	4.4737e-06	-41.5303	0.00205948	0.00154173	0.00136547	-15.4322	2.46111	2.37238	0.654897	0.392005	0.108058	0.406626	15.4111	2725.77	9888.38	10257.2	-74.5889	0.0000000E+000	0.0000000E+000	0.0000000E+000	74.5889	0.0000000E+000	0.0000000E+000	0.0000000E+000	-74.5889	0.0000000E+000	0.0000000E+000	0.0000000E+000	-15.4111	0.0000000E+000	0.0000000E+000	0.0000000E+000	15.4111	3.62773	74.5889	-5.95671e-06	-0.00036215	1.61547e-08	-0.000362167	3.78774	39612.4	1.76702	39614.2
3983.6	2.52226	0.673683	2.61068	-14.9543	10.6111	3.78743	-0.161445	59.3046	3.94906	1	9	0.00527123	0.0020191	0	-0.00024274	-5.42949e-05	1.34836e-05	-108.147	0.00667802	-0.00207988	0.00634587	-15.1007	2.61031	2.52018	0.680029	0.370069	0.0988439	0.383042	14.9543	3949.06	14785.2	15303.5	-75.0457	0.0000000E+000	0.0000000E+000	0.0000000E+000	75.0457	0.0000000E+000	0.0000000E+000	0.0000000E+000	-75.0457	0.0000000E+000	0.0000000E+000	0.0000000E+000	-14.9543	0.0000000E+000	0.0000000E+000	0.0000000E+000	14.9543	3.74398	75.0457	-1.0765e-05	-0.000611463	8.76565e-09	-0.000611471	3.78748	23459.5	0.336305	23459.9
2510.8	2.69722	0.74726	2.79882	-15.4853	11.4358	3.78747	-0.10729	84.8273	6.04685	1	9	0.00521699	0.001864	0	-0.00026818	7.94748e-05	5.85667e-06	35.8507	0.003142	0.00254673	-0.00184019	-15.4351	2.80078	2.69977	0.74542	0.344323	0.0953942	0.357293	15.4853	6046.85	21826	22648.1	-74.5147	0.0000000E+000	0.0000000E+000	0.0000000E+000	74.5147	0.0000000E+000	0.0000000E+000	0.0000000E+000	-74.5147	0.0000000E+000	0.0000000E+000	0.0000000E+000	-15.4853	0.0000000E+000	0.0000000E+000	0.0000000E+000	15.4853	3.60948	74.5147	-1.18416e-05	-0.000406356	-8.52683e-09	-0.000406348	3.78739	35301.3	0.74075	35300.6
1585.51	2.89255	0.851112	3.01517	-16.3961	12.3378	3.78747	-0.0877459	117.941	9.39754	1	9	0.0051786	0.00171751	0	-0.000292231	-3.51849e-05	6.44722e-06	-22.423	0.00375381	0.00347	0.00143186	-16.4036	3.01891	2.89602	0.852544	0.318169	0.0936187	0.331656	16.3961	9397.54	31938.1	33292	-73.6039	0.0000000E+000	0.0000000E+000	0.0000000E+000	73.6039	0.0000000E+000	0.0000000E+000	0.0000000E+000	-73.6039	0.0000000E+000	0.0000000E+000	0.0000000E+000	-16.3961	0.0000000E+000	0.0000000E+000	0.0000000E+000	16.3961	3.39856	73.6039	-1.21674e-05	-0.000332335	3.08733e-09	-0.000332338	3.7875	43164	0.400986	43164.4
1000.32	3.15525	0.99561	3.3086	-17.5126	13.4848	3.78748	-0.096114	159.805	14.4704	1	10	0.00521934	0.00157751	0	-0.000325401	-0.000168955	1.06981e-05	-85.5502	0.00678167	0.000526161	0.00676122	-17.6214	3.31115	3.15578	1.00237	0.288234	0.0909494	0.302242	17.5126	14470.4	45859.1	48088	-72.4874	0.0000000E+000	0.0000000E+000	0.0000000E+000	72.4874	0.0000000E+000	0.0000000E+000	0.0000000E+000	-72.4874	0.0000000E+000	0.0000000E+000	0.0000000E+000	-17.5126	0.0000000E+000	0.0000000E+000	0.0000000E+000	17.5126	3.16916	72.4874	-2.12979e-05	-0.00036403	1.62389e-08	-0.000364046	3.78765	39406.2	1.75786	39407.9
631.01	3.48866	1.14584	3.67201	-18.1826	14.3865	3.78749	-0.142752	220.121	21.4337	1	10	0.00517733	0.00140994	0	-0.00035247	-0.000379164	8.88438e-06	-26.459	0.00630123	0.0056412	0.00280756	-18.1967	3.67825	3.4943	1.14864	0.258732	0.0849794	0.27233	18.1826	21433.7	65258.1	68687.9	-71.8174	0.0000000E+000	0.0000000E+000	0.0000000E+000	71.8174	0.0000000E+000	0.0000000E+000	0.0000000E+000	-71.8174	0.0000000E+000	0.0000000E+000	0.0000000E+000	-18.1826	0.0000000E+000	0.0000000E+000	0.0000000E+000	18.1826	3.04464	71.8174	-1.40667e-05	-0.000540673	5.41266e-08	-0.000540727	3.78787	26531.9	2.6561	26534.5
398.089	3.89973	1.24939	4.09498	-17.7644	15.2879	3.78749	-0.115839	319.994	29.7875	1	10	0.00514037	0.00125529	0	-0.000378596	3.03501e-06	1.90418e-05	100.498	0.0151693	-0.00276386	-0.0149154	-17.5771	4.08782	3.89696	1.23448	0.232558	0.0745066	0.244201	17.7644	29787.5	92976	97631.1	-72.2356	0.0000000E+000	0.0000000E+000	0.0000000E+000	72.2356	0.0000000E+000	0.0000000E+000	0.0000000E+000	-72.2356	0.0000000E+000	0.0000000E+000	0.0000000E+000	-17.7644	0.0000000E+000	0.0000000E+000	0.0000000E+000	17.7644	3.1213	72.2356	-1.36333e-05	-0.000438739	-3.51573e-10	-0.000438739	3.78748	32696.1	0.0262002	32696.1
251.044	4.38367	1.27398	4.56504	-16.205	16.1861	3.78748	-0.0979641	497.629	38.7566	1	10	0.00513285	0.00112438	0	-0.00040371	-7.34048e-05	4.94302e-06	70.6627	0.00439621	0.00145571	-0.0041482	-16.1499	4.56528	4.38512	1.26984	0.210353	0.061133	0.219056	16.205	38756.6	133358	138875	-73.795	0.0000000E+000	0.0000000E+000	0.0000000E+000	73.795	0.0000000E+000	0.0000000E+000	0.0000000E+000	-73.795	0.0000000E+000	0.0000000E+000	0.0000000E+000	-16.205	0.0000000E+000	0.0000000E+000	0.0000000E+000	16.205	3.44091	73.795	-1.21958e-05	-0.000371037	7.19104e-09	-0.000371044	3.78755	38661.9	0.749303	38662.6
158.428	4.8474	1.16268	4.98489	-13.488	17.0908	3.78749	-0.0965765	864.024	47.0042	1	10	0.00511507	0.00102611	0	-0.000431289	-0.000245394	5.84902e-06	110.986	0.00570016	-0.00204144	-0.00532206	-13.4339	4.98167	4.84536	1.15736	0.195073	0.0467897	0.200606	13.488	47004.2	195968	201526	-76.512	0.0000000E+000	0.0000000E+000	0.0000000E+000	76.512	0.0000000E+000	0.0000000E+000	0.0000000E+000	-76.512	0.0000000E+000	0.0000000E+000	0.0000000E+000	-13.488	0.0000000E+000	0.0000000E+000	0.0000000E+000	13.488	4.16915	76.512	-1.23332e-05	-0.000365782	2.36993e-08	-0.000365806	3.78773	39217.5	2.54093	39220
100.032	5.19541	0.998853	5.29055	-10.8827	17.9898	3.78749	-0.0938647	1592.87	56.778	1	10	0.0051133	0.000966497	0	-0.000453875	7.94748e-05	3.70025e-05	-63.7888	0.0382852	0.0169098	0.0343484	-11.212	5.31373	5.21232	1.0332	0.185617	0.0356861	0.189016	10.8827	56778	295324	300732	-79.1173	0.0000000E+000	0.0000000E+000	0.0000000E+000	79.1173	0.0000000E+000	0.0000000E+000	0.0000000E+000	-79.1173	0.0000000E+000	0.0000000E+000	0.0000000E+000	-10.8827	0.0000000E+000	0.0000000E+000	0.0000000E+000	10.8827	5.20138	79.1173	-1.0862e-05	-0.000355511	-7.45988e-09	-0.000355504	3.78741	40350.5	0.846696	40349.7
63.0823	5.46495	0.795013	5.52248	-8.27703	18.905	3.78748	-0.0918354	3173.5	65.7687	1	10	0.00511956	0.00092704	0	-0.000478355	-0.000398274	1.15666e-05	60.6033	0.0124769	0.00612433	-0.0108704	-8.15637	5.52698	5.47108	0.784142	0.179192	0.0260679	0.181078	8.27703	65768.7	452097	456855	-81.723	0.0000000E+000	0.0000000E+000	0.0000000E+000	81.723	0.0000000E+000	0.0000000E+000	0.0000000E+000	-81.723	0.0000000E+000	0.0000000E+000	0.0000000E+000	-8.27703	0.0000000E+000	0.0000000E+000	0.0000000E+000	8.27703	6.87404	81.723	-1.09968e-05	-0.000347825	3.65757e-08	-0.000347861	3.78788	41242	4.33682	41246.4
39.8089	5.60045	0.576973	5.63009	-5.88201	19.8058	3.78748	-0.100448	6929.22	72.7721	1	10	0.00510439	0.000906626	0	-0.000502996	-9.25148e-05	1.01355e-05	-2.43617	0.0111794	0.0111693	0.000475194	-5.87519	5.64125	5.61162	0.577448	0.176682	0.0182022	0.177617	5.88201	72772.1	706370	710108	-84.118	0.0000000E+000	0.0000000E+000	0.0000000E+000	84.118	0.0000000E+000	0.0000000E+000	0.0000000E+000	-84.118	0.0000000E+000	0.0000000E+000	0.0000000E+000	-5.88201	0.0000000E+000	0.0000000E+000	0.0000000E+000	5.88201	9.7066	84.118	-1.234e-05	-0.000380446	9.29296e-09	-0.000380455	3.78757	37705.7	0.921018	37706.6
25.1044	5.7107	0.419865	5.72611	-4.20497	20.685	3.78748	-0.0990235	15099.4	81.182	1	10	0.00511053	0.000892496	0	-0.000527462	-0.000245394	1.01538e-05	-27.2442	0.0113769	0.0101148	0.00520815	-4.24944	5.73658	5.72081	0.425073	0.174168	0.0128053	0.174639	4.20497	81182.1	1.10418e+06	1.10716e+06	-85.795	0.0000000E+000	0.0000000E+000	0.0000000E+000	85.795	0.0000000E+000	0.0000000E+000	0.0000000E+000	-85.795	0.0000000E+000	0.0000000E+000	0.0000000E+000	-4.20497	0.0000000E+000	0.0000000E+000	0.0000000E+000	4.20497	13.6013	85.795	-1.03156e-05	-0.000375049	2.42998e-08	-0.000375074	3.78772	38248.3	2.47814	38250.8
15.8576	5.91546	0.356801	5.92622	-3.45171	21.563	3.78747	-0.104723	28129.2	101.966	1	10	0.00511963	0.000863896	0	-0.000554448	-0.000321834	1.27255e-05	98.8799	0.0147304	-0.00227384	-0.0145538	-3.3125	5.92309	5.91319	0.342247	0.168436	0.0101595	0.168742	3.45171	101966	1.69051e+06	1.69358e+06	-86.5483	0.0000000E+000	0.0000000E+000	0.0000000E+000	86.5483	0.0000000E+000	0.0000000E+000	0.0000000E+000	-86.5483	0.0000000E+000	0.0000000E+000	0.0000000E+000	-3.45171	0.0000000E+000	0.0000000E+000	0.0000000E+000	3.45171	16.5792	86.5483	-1.50844e-05	-0.000396636	3.37035e-08	-0.00039667	3.78779	36166.5	3.07319	36169.5
10.0032	5.87977	0.255782	5.88533	-2.49091	22.5449	3.78747	-0.0860649	62203	117.492	1	10	0.0051056	0.000867513	0	-0.000574261	9.85848e-05	5.50631e-06	66.6531	0.00634724	0.0025154	-0.00582754	-2.43319	5.88759	5.88229	0.249954	0.169753	0.00738462	0.169914	2.49091	117492	2.70084e+06	2.7034e+06	-87.5091	0.0000000E+000	0.0000000E+000	0.0000000E+000	87.5091	0.0000000E+000	0.0000000E+000	0.0000000E+000	-87.5091	0.0000000E+000	0.0000000E+000	0.0000000E+000	-2.49091	0.0000000E+000	0.0000000E+000	0.0000000E+000	2.49091	22.9874	87.5091	-3.42566e-06	-0.000325968	-8.48469e-09	-0.000325959	3.78737	44007.1	1.14547	44006
6.31058	5.92014	0.191899	5.92325	-1.85657	23.4693	3.78747	-0.0925964	131425	137.944	1	10	0.00510956	0.000862627	0	-0.000600958	0.000194135	9.69335e-06	-6.77763	0.011237	0.0111585	0.00132615	-1.86587	5.93445	5.9313	0.193225	0.168738	0.00546955	0.168826	1.85657	137944	4.25562e+06	4.25785e+06	-88.1434	0.0000000E+000	0.0000000E+000	0.0000000E+000	88.1434	0.0000000E+000	0.0000000E+000	0.0000000E+000	-88.1434	0.0000000E+000	0.0000000E+000	0.0000000E+000	-1.85657	0.0000000E+000	0.0000000E+000	0.0000000E+000	1.85657	30.8504	88.1434	-4.94739e-06	-0.000350707	-1.79762e-08	-0.000350689	3.78728	40903	2.09657	40900.9
3.97785	5.96016	0.210351	5.96387	-2.0213	24.4764	3.78751	-0.0800593	190207	236.625	1	10	0.00511042	0.000856897	0	-0.000625985	-7.34048e-05	2.09428e-05	105.876	0.0244403	-0.00668578	-0.0235081	-1.79758	5.9564	5.95347	0.186843	0.167572	0.00591411	0.167676	2.0213	236625	6.70461e+06	6.70878e+06	-87.9787	0.0000000E+000	0.0000000E+000	0.0000000E+000	87.9787	0.0000000E+000	0.0000000E+000	0.0000000E+000	-87.9787	0.0000000E+000	0.0000000E+000	0.0000000E+000	-2.0213	0.0000000E+000	0.0000000E+000	0.0000000E+000	2.0213	28.3343	87.9787	-2.05053e-05	-0.000303226	5.87674e-09	-0.000303232	3.78759	47308.9	0.916881	47309.8
2.51367	6.02546	0.197624	6.0287	-1.87852	26.478	3.78753	-0.0762788	320384	344.274	1	11	0.00510924	0.000847487	0	-0.000673324	0.000213245	3.51356e-06	26.0272	0.00414586	0.00372541	-0.00181919	-1.8601	6.03236	6.02918	0.195805	0.165784	0.00543742	0.165873	1.87852	344274	1.04967e+07	1.05024e+07	-88.1215	0.0000000E+000	0.0000000E+000	0.0000000E+000	88.1215	0.0000000E+000	0.0000000E+000	0.0000000E+000	-88.1215	0.0000000E+000	0.0000000E+000	0.0000000E+000	-1.87852	0.0000000E+000	0.0000000E+000	0.0000000E+000	1.87852	30.4895	88.1215	-2.19812e-05	-0.000288908	-1.6266e-08	-0.000288892	3.78732	49653.8	2.7956	49651
1.58469	6.05594	0.26651	6.0618	-2.51985	28.9124	3.78752	-0.0684791	376846	728.429	1	11	0.00511463	0.000843748	0	-0.000708321	-3.51849e-05	6.74472e-06	82.2698	0.00799375	0.00107522	-0.00792111	-2.44461	6.06253	6.05701	0.258589	0.164808	0.00725287	0.164968	2.51985	728430	1.65522e+07	1.65682e+07	-87.4801	0.0000000E+000	0.0000000E+000	0.0000000E+000	87.4801	0.0000000E+000	0.0000000E+000	0.0000000E+000	-87.4801	0.0000000E+000	0.0000000E+000	0.0000000E+000	-2.51985	0.0000000E+000	0.0000000E+000	0.0000000E+000	2.51985	22.7231	87.4801	-2.49797e-05	-0.000259366	2.40943e-09	-0.000259368	3.78756	55309.2	0.513805	55309.7
1.00469	6.11669	0.26529	6.12244	-2.48345	239.73	3.7875	-0.0490608	597124	1121.14	1	11	0.00506294	0.000826947	0	-0.00714675	-0.000264504	6.34238e-07	-4.19335	0.000766963	0.00076491	5.60822e-05	-2.48366	6.12321	6.11746	0.265347	0.16318	0.00707737	0.163333	2.48345	1.12114e+06	2.58496e+07	2.58739e+07	-87.5165	0.0000000E+000	0.0000000E+000	0.0000000E+000	87.5165	0.0000000E+000	0.0000000E+000	0.0000000E+000	-87.5165	0.0000000E+000	0.0000000E+000	0.0000000E+000	-2.48345	0.0000000E+000	0.0000000E+000	0.0000000E+000	2.48345	23.0566	87.5165	-0.00638645	-0.000185818	1.29768e-08	-0.000185831	3.78776	77200.1	5.39136	77205.5
0.632957	6.18761	0.324864	6.19613	-3.0054	239.73	3.7875	-0.0490608	774006	2127.68	1	11	0.0050768	0.00081935	0	-0.00714675	-0.000264504	7.3027e-07	9.29552	0.00089128	0.000879576	-0.000143965	-3.00364	6.197	6.18849	0.32472	0.161169	0.00846174	0.161391	3.0054	2.12768e+06	4.05254e+07	4.05812e+07	-86.9946	0.0000000E+000	0.0000000E+000	0.0000000E+000	86.9946	0.0000000E+000	0.0000000E+000	0.0000000E+000	-86.9946	0.0000000E+000	0.0000000E+000	0.0000000E+000	-3.0054	0.0000000E+000	0.0000000E+000	0.0000000E+000	3.0054	19.0468	86.9946	0.000000000000000E+000	-0.000185818	1.29768e-08	-0.000185831	3.78776	77200.1	5.39136	77205.5
0.401878	6.24221	0.408818	6.25558	-3.7471	239.731	3.7875	-0.0490608	968715	4137.34	1	11	0.00509048	0.000813751	0	-0.00714675	-0.000264504	6.19257e-07	-16.1744	0.000760991	0.00073087	0.000211983	-3.7486	6.25632	6.24294	0.40903	0.159516	0.0104471	0.159857	3.7471	4.13734e+06	6.31727e+07	6.3308e+07	-86.2529	0.0000000E+000	0.0000000E+000	0.0000000E+000	86.2529	0.0000000E+000	0.0000000E+000	0.0000000E+000	-86.2529	0.0000000E+000	0.0000000E+000	0.0000000E+000	-3.7471	0.0000000E+000	0.0000000E+000	0.0000000E+000	3.7471	15.2689	86.2529	0.000000000000000E+000	-0.000185818	1.29768e-08	-0.000185831	3.78776	77200.1	5.39136	77205.5
0.251173	6.35345	0.541446	6.37648	-4.87102	239.731	3.7875	-0.0490608	1.17028e+06	8438	1	11	0.0050902	0.000798278	0	-0.00714675	-0.000264504	7.26476e-07	26.1402	0.000910054	0.000816973	-0.000400941	-4.86681	6.37726	6.35427	0.541045	0.15626	0.0133166	0.156826	4.87102	8.43799e+06	9.90134e+07	9.93723e+07	-85.129	0.0000000E+000	0.0000000E+000	0.0000000E+000	85.129	0.0000000E+000	0.0000000E+000	0.0000000E+000	-85.129	0.0000000E+000	0.0000000E+000	0.0000000E+000	-4.87102	0.0000000E+000	0.0000000E+000	0.0000000E+000	4.87102	11.7342	85.129	0.000000000000000E+000	-0.000185818	1.29768e-08	-0.000185831	3.78776	77200.1	5.39136	77205.5
0.160751	6.49988	0.634347	6.53076	-5.57405	239.732	3.7875	-0.0490608	1.56077e+06	14725.4	1	11	0.00508545	0.000778692	0	-0.00714675	-0.000264504	6.65386e-07	16.6142	0.000854492	0.000818818	-0.000244321	-5.57122	6.53155	6.5007	0.634103	0.152397	0.014873	0.153121	5.57405	1.47253e+07	1.50884e+08	1.51601e+08	-84.4259	0.0000000E+000	0.0000000E+000	0.0000000E+000	84.4259	0.0000000E+000	0.0000000E+000	0.0000000E+000	-84.4259	0.0000000E+000	0.0000000E+000	0.0000000E+000	-5.57405	0.0000000E+000	0.0000000E+000	0.0000000E+000	5.57405	10.2466	84.4259	0.000000000000000E+000	-0.000185818	1.29768e-08	-0.000185831	3.78776	77200.1	5.39136	77205.5
0.100469	6.65309	0.869192	6.70963	-7.44324	239.732	3.7875	-0.0490608	1.82251e+06	30584.7	1	11	0.00508801	0.000758314	0	-0.00714675	-0.000264504	6.77838e-07	-58.1277	0.000893875	0.000471991	0.000759103	-7.44914	6.7102	6.65356	0.869951	0.147784	0.0193072	0.14904	7.44324	3.05847e+07	2.34106e+08	2.36096e+08	-82.5568	0.0000000E+000	0.0000000E+000	0.0000000E+000	82.5568	0.0000000E+000	0.0000000E+000	0.0000000E+000	-82.5568	0.0000000E+000	0.0000000E+000	0.0000000E+000	-7.44324	0.0000000E+000	0.0000000E+000	0.0000000E+000	7.44324	7.65434	82.5568	0.000000000000000E+000	-0.000185818	1.29768e-08	-0.000185831	3.78776	77200.1	5.39136	77205.5
0.0602816	6.93596	1.03457	7.0127	-8.48368	239.733	3.7875	-0.0490608	2.55198e+06	55542.2	1	11	0.00508272	0.000724788	0	-0.00714675	-0.000264504	8.83257e-07	-29.0645	0.00121864	0.00106518	0.000592009	-8.48718	7.01384	6.93703	1.03516	0.141038	0.0210372	0.142598	8.48368	5.55422e+07	3.72367e+08	3.76487e+08	-81.5163	0.0000000E+000	0.0000000E+000	0.0000000E+000	81.5163	0.0000000E+000	0.0000000E+000	0.0000000E+000	-81.5163	0.0000000E+000	0.0000000E+000	0.0000000E+000	-8.48368	0.0000000E+000	0.0000000E+000	0.0000000E+000	8.48368	6.70422	81.5163	0.000000000000000E+000	-0.000185818	1.29768e-08	-0.000185831	3.78776	77200.1	5.39136	77205.5
0.0401878	7.25062	1.21985	7.35251	-9.55002	239.734	3.7875	-0.0490608	3.24655e+06	89363.4	1	11	0.00508238	0.000691244	0	-0.00714675	-0.000264504	7.67484e-07	-30.3589	0.00111029	0.000958046	0.000561159	-9.5531	7.35355	7.25157	1.22041	0.134123	0.0225649	0.136008	9.55002	8.93633e+07	5.31165e+08	5.3863e+08	-80.45	0.0000000E+000	0.0000000E+000	0.0000000E+000	80.45	0.0000000E+000	0.0000000E+000	0.0000000E+000	-80.45	0.0000000E+000	0.0000000E+000	0.0000000E+000	-9.55002	0.0000000E+000	0.0000000E+000	0.0000000E+000	9.55002	5.94388	80.45	0.000000000000000E+000	-0.000185818	1.29768e-08	-0.000185831	3.78776	77200.1	5.39136	77205.5
0.0200939	7.9757	1.75397	8.16629	-12.4027	239.734	3.7875	-0.0490608	4.5158e+06	208319	1	11	0.00508421	0.000622585	0	-0.00714675	-0.000264504	9.50338e-07	38.1908	0.00152644	0.00119971	-0.00094377	-12.3944	8.16726	7.9769	1.75302	0.119597	0.026301	0.122455	12.4027	2.08319e+08	9.47275e+08	9.69911e+08	-77.5973	0.0000000E+000	0.0000000E+000	0.0000000E+000	77.5973	0.0000000E+000	0.0000000E+000	0.0000000E+000	-77.5973	0.0000000E+000	0.0000000E+000	0.0000000E+000	-12.4027	0.0000000E+000	0.0000000E+000	0.0000000E+000	12.4027	4.54724	77.5973	0.000000000000000E+000	-0.000185818	1.29768e-08	-0.000185831	3.78776	77200.1	5.39136	77205.5
0.00796479	9.47755	2.00344	9.68698	-11.9359	20328.6	3.78749	0.00105621	9.974e+06	426624	1	11	0.00507442	0.000523839	0	-0.0450579	-0.000188065	5.29382e-07	-63.7885	0.00101058	0.000446359	0.000906662	-11.9406	9.68761	9.47799	2.00435	0.100999	0.0213501	0.103231	11.9359	4.26624e+08	2.0182e+09	2.0628e+09	-78.0641	0.0000000E+000	0.0000000E+000	0.0000000E+000	78.0641	0.0000000E+000	0.0000000E+000	0.0000000E+000	-78.0641	0.0000000E+000	0.0000000E+000	0.0000000E+000	-11.9359	0.0000000E+000	0.0000000E+000	0.0000000E+000	11.9359	4.73063	78.0641	-0.0379112	4.00037e-06	-1.98635e-10	4.00057e-06	3.78768	3.58594e+06	178.057	3.58612e+06
0.00497799	10.1193	2.04606	10.324	-11.4308	20328.6	3.78749	0.00105621	1.5626e+07	613741	1	11	0.00508231	0.00049228	0	-0.0450579	-0.000188065	3.91238e-07	-77.3229	0.000794747	0.000174412	0.000775373	-11.4348	10.3244	10.1194	2.04684	0.0949401	0.0191964	0.0968613	11.4308	6.13741e+08	3.0354e+09	3.09682e+09	-78.5692	0.0000000E+000	0.0000000E+000	0.0000000E+000	78.5692	0.0000000E+000	0.0000000E+000	0.0000000E+000	-78.5692	0.0000000E+000	0.0000000E+000	0.0000000E+000	-11.4308	0.0000000E+000	0.0000000E+000	0.0000000E+000	11.4308	4.94573	78.5692	0.000000000000000E+000	4.00037e-06	-1.98635e-10	4.00057e-06	3.78768	3.58594e+06	178.057	3.58612e+06
0.00318591	10.5888	2.7234	10.9335	-14.4236	20328.6	3.78749	0.00105621	1.83432e+07	1.13811e+06	1	11	0.00508476	0.000465065	0	-0.0450579	-0.000188065	2.64025e-07	-134.708	0.000567718	-0.000399389	0.000403475	-14.4262	10.9332	10.5884	2.7238	0.0885796	0.0227823	0.0914624	14.4236	1.13811e+09	4.42506e+09	4.56908e+09	-75.5764	0.0000000E+000	0.0000000E+000	0.0000000E+000	75.5764	0.0000000E+000	0.0000000E+000	0.0000000E+000	-75.5764	0.0000000E+000	0.0000000E+000	0.0000000E+000	-14.4236	0.0000000E+000	0.0000000E+000	0.0000000E+000	14.4236	3.88809	75.5764	0.000000000000000E+000	4.00037e-06	-1.98635e-10	4.00057e-06	3.78768	3.58594e+06	178.057	3.58612e+06
0.0019912	11.097	3.10547	11.5234	-15.6341	20328.6	3.78749	0.00105621	2.57382e+07	1.86928e+06	1	11	0.00508773	0.000441514	0	-0.0450579	-0.000188065	6.44156e-07	81.567	0.00145897	0.000213962	-0.00144319	-15.6269	11.5232	11.0972	3.10403	0.0835696	0.0233867	0.0867802	15.6341	1.86928e+09	6.67966e+09	6.93628e+09	-74.3659	0.0000000E+000	0.0000000E+000	0.0000000E+000	74.3659	0.0000000E+000	0.0000000E+000	0.0000000E+000	-74.3659	0.0000000E+000	0.0000000E+000	0.0000000E+000	-15.6341	0.0000000E+000	0.0000000E+000	0.0000000E+000	15.6341	3.57338	74.3659	0.000000000000000E+000	4.00037e-06	-1.98635e-10	4.00057e-06	3.78768	3.58594e+06	178.057	3.58612e+06
0.00129428	11.0291	3.932	11.709	-19.6218	20328.6	3.78749	0.00105621	3.12737e+07	3.52668e+06	1	11	0.00508953	0.000434668	0	-0.0450579	-0.000188065	1.12669e-06	28.3638	0.00259207	0.00228089	-0.00123141	-19.6123	11.7107	11.0313	3.93077	0.0804449	0.0286796	0.0854043	19.6218	3.52667e+09	9.89216e+09	1.0502e+10	-70.3782	0.0000000E+000	0.0000000E+000	0.0000000E+000	70.3782	0.0000000E+000	0.0000000E+000	0.0000000E+000	-70.3782	0.0000000E+000	0.0000000E+000	0.0000000E+000	-19.6218	0.0000000E+000	0.0000000E+000	0.0000000E+000	19.6218	2.80495	70.3782	0.000000000000000E+000	4.00037e-06	-1.98635e-10	4.00057e-06	3.78768	3.58594e+06	178.057	3.58612e+06
0.000796479	12.038	5.22686	13.1238	-23.4703	20328.6	3.78749	0.00105621	3.82301e+07	6.06414e+06	1	11	0.00508651	0.00038758	0	-0.0450579	-0.000188065	3.62707e-06	0.67806	0.00935824	0.00935759	-0.000110746	-23.4536	13.1323	12.0474	5.22675	0.0698934	0.0303475	0.0761975	23.4703	6.06414e+09	1.39663e+10	1.5226e+10	-66.5297	0.0000000E+000	0.0000000E+000	0.0000000E+000	66.5297	0.0000000E+000	0.0000000E+000	0.0000000E+000	-66.5297	0.0000000E+000	0.0000000E+000	0.0000000E+000	-23.4703	0.0000000E+000	0.0000000E+000	0.0000000E+000	23.4703	2.3031	66.5297	0.000000000000000E+000	4.00037e-06	-1.98635e-10	4.00057e-06	3.78768	3.58594e+06	178.057	3.58612e+06
0.000497799	11.6906	7.54831	13.9157	-32.8492	20328.7	3.78749	0.00105621	4.23561e+07	1.24625e+07	1	11	0.00508861	0.000365673	0	-0.0450579	-0.000188065	1.37188e-06	-50.8549	0.00375166	0.00236837	0.0029096	-32.854	13.9193	11.693	7.55122	0.0603706	0.0389796	0.0718611	32.8492	1.24625e+10	1.93015e+10	2.29752e+10	-57.1508	0.0000000E+000	0.0000000E+000	0.0000000E+000	57.1508	0.0000000E+000	0.0000000E+000	0.0000000E+000	-57.1508	0.0000000E+000	0.0000000E+000	0.0000000E+000	-32.8492	0.0000000E+000	0.0000000E+000	0.0000000E+000	32.8492	1.54877	57.1508	0.000000000000000E+000	4.00037e-06	-1.98635e-10	4.00057e-06	3.78768	3.58594e+06	178.057	3.58612e+06
0.000298679	11.4691	11.4075	16.1763	-44.8457	20328.7	3.78749	0.00105621	4.67114e+07	2.32299e+07	1	11	0.00508916	0.000314606	0	-0.0450579	-0.000188065	2.34967e-06	15.0431	0.00746861	0.00721266	-0.00193845	-44.8229	16.1801	11.4763	11.4056	0.04383	0.0435947	0.0618188	44.8457	2.32299e+10	2.33554e+10	3.29409e+10	-45.1543	0.0000000E+000	0.0000000E+000	0.0000000E+000	45.1543	0.0000000E+000	0.0000000E+000	0.0000000E+000	-45.1543	0.0000000E+000	0.0000000E+000	0.0000000E+000	-44.8457	0.0000000E+000	0.0000000E+000	0.0000000E+000	44.8457	1.0054	45.1543	0.000000000000000E+000	4.00037e-06	-1.98635e-10	4.00057e-06	3.78768	3.58594e+06	178.057	3.58612e+06
9.95598e-05	13.4704	39.3877	41.6274	-71.1195	20328.7	3.78749	0.00105621	4.0586e+07	3.63361e+07	1	11	0.00509071	0.000122292	0	-0.0450579	-0.000188065	7.0911e-07	23.9621	0.00579849	0.00529874	-0.00235495	-71.1115	41.6269	13.4757	39.3853	0.00777362	0.0227301	0.0240226	71.1195	3.6336e+10	1.24268e+10	3.84023e+10	-18.8805	0.0000000E+000	0.0000000E+000	0.0000000E+000	18.8805	0.0000000E+000	0.0000000E+000	0.0000000E+000	-18.8805	0.0000000E+000	0.0000000E+000	0.0000000E+000	-71.1195	0.0000000E+000	0.0000000E+000	0.0000000E+000	71.1195	0.341996	18.8805	0.000000000000000E+000	4.00037e-06	-1.98635e-10	4.00057e-06	3.78768	3.58594e+06	178.057	3.58612e+06