File: txt/17546_R290_UC82_50SOC_C03.mpt
EC-Lab ASCII FILE
Nb header lines : 64

Potentio Electrochemical Impedance Spectroscopy

Run on channel : 3 (SN 65921)
User :
CE vs. WE compliance from -10 V to 10 V
Electrode connection : standard
Potential control : Ewe
Ewe ctrl range : min = -10.00 V, max = 10.00 V
Safety Limits :
	Do not start on E overload
Acquisition started on : 09/16/2025 16:52:04.007
Loaded Setting File :  C:\Users\Celltest\OneDrive - store-dot.com\Documents\EC-Lab\Data\Michael\UC74_NCMA_16706_EIS_50_SOC.mps
Saved on :
	File : 17546_R290_UC82_50SOC_C03.mpr
	Directory : C:\Users\Celltest\OneDrive - store-dot.com\Documents\EC-Lab\Data\Michael\R290\
	Host : 169.254.61.224
Device : VMP-3e (SN .003165)
Address : USB
EC-LAB for windows v11.62 (software)
Internet server v27.00 (firmware)
Command interpretor v12.03 (firmware)
Electrode material :
Initial state :
Electrolyte :
Comments :
Electrode surface area : 0.001 cm²
Characteristic mass : 0.001 g
Equivalent Weight : 0.000 g/eq.
Density : 0.000 g/cm3
Volume (V) : 0.001 cm³
Record Ece
Cycle Definition : Charge/Discharge alternance
Mode                Multi sine
E (V)               0.0000
vs.                 Eoc
tE (h:m:s)          0:00:0.0000
record              0
dI                  0.000
unit dI             mA
dt (s)              0.000
fi                  1.000
unit fi             MHz
ff                  0.100
unit ff             mHz
Nd                  10
Points              per decade
spacing             Logarithmic
Va (mV)             5.0
pw                  0.10
Na                  2
corr                0
E range min (V)     -10.000
E range max (V)     10.000
I Range             Auto
Bandwidth           5
nc cycles           0
goto Ns'            0
nr cycles           0
inc. cycle          0

freq/Hz	Re(Z)/Ohm	-Im(Z)/Ohm	|Z|/Ohm	Phase(Z)/deg	time/s	<Ewe>/V	<I>/mA	Cs/µF	Cp/µF	cycle number	I Range	|Ewe|/V	|I|/A	Ns	(Q-Qo)/mA.h	<Ece>/V	|Ece|/V	Phase(Zce)/deg	|Zce|/Ohm	Re(Zce)/Ohm	-Im(Zce)/Ohm	Phase(Zwe-ce)/deg	|Zwe-ce|/Ohm	Re(Zwe-ce)/Ohm	-Im(Zwe-ce)/Ohm	Re(Y)/Ohm-1	Im(Y)/Ohm-1	|Y|/Ohm-1	Phase(Y)/deg	Re(C)/nF	Im(C)/nF	|C|/nF	Phase(C)/deg	Re(M)	Im(M)	|M|	Phase(M)/deg	Re(Permittivity)	Im(Permittivity)	|Permittivity|	Phase(Permittivity)/deg	Re(Resistivity)/Ohm.cm	Im(Resistivity)/Ohm.cm	|Resistivity|/Ohm.cm	Phase(Resistivity)/deg	Re(Conductivity)/mS/cm	Im(Conductivity)/mS/cm	|Conductivity|/mS/cm	Phase(Conductivity)/deg	Tan(Delta)	Loss Angle(Delta)/deg	dq/mA.h	Pwe/W	Pce/W	Pwe-ce/W	<Ewe-Ece>/V	Rwe/Ohm	Rce/Ohm	Rwe-ce/Ohm		Ewe-Ece/V
1.00002e+06	0.9042	-0.542759	1.05459	30.9749	2.23452	3.78879	-0.0169005	-0.293228	-0.0776694	1	9	0.00023067	0.000218729	0	-3.58149e-05	2.10652e-05	0.000199498	0.134348	0.912077	0.912075	-0.00213865	16.6997	1.89625	1.81627	-0.544898	0.813009	-0.48802	0.948234	-30.9749	-77.6694	129.392	150.913	-120.975	0.0000000E+000	0.0000000E+000	0.0000000E+000	120.975	0.0000000E+000	0.0000000E+000	0.0000000E+000	-120.975	0.0000000E+000	0.0000000E+000	0.0000000E+000	30.9749	0.0000000E+000	0.0000000E+000	0.0000000E+000	-30.9749	1.66593	59.0251	-3.58149e-05	-6.40323e-05	-3.56011e-10	-6.4032e-05	3.78877	224183	1.24643	224182
630957	0.4724	0.017327	0.472718	-2.10059	3.00055	3.78843	-0.0718712	14.5578	0.0195587	1	9	0.000161793	0.000342261	0	-4.96765e-05	-0.000131687	0.000116657	-105.931	0.34084	-0.093555	0.327749	-42.3293	0.512446	0.378845	0.345076	2.11401	0.077539	2.11543	2.10059	19.5587	533.245	533.604	-87.8994	0.0000000E+000	0.0000000E+000	0.0000000E+000	87.8994	0.0000000E+000	0.0000000E+000	0.0000000E+000	-87.8994	0.0000000E+000	0.0000000E+000	0.0000000E+000	-2.10059	0.0000000E+000	0.0000000E+000	0.0000000E+000	2.10059	27.2638	87.8994	-6.68911e-06	-0.000272279	9.46452e-09	-0.000272288	3.78856	52711.4	1.83227	52713.2
398103	0.594564	0.115574	0.605693	-11.0002	3.76655	3.78853	-0.0601237	3.4591	0.125945	1	9	0.000591853	0.000977151	0	-5.93567e-05	-0.00028444	5.98301e-05	171.155	0.0612291	-0.060501	-0.0094143	-11.2426	0.544512	0.534063	0.10616	1.62067	0.315033	1.651	11.0002	125.945	647.915	660.042	-78.9997	0.0000000E+000	0.0000000E+000	0.0000000E+000	78.9997	0.0000000E+000	0.0000000E+000	0.0000000E+000	-78.9997	0.0000000E+000	0.0000000E+000	0.0000000E+000	-11.0002	0.0000000E+000	0.0000000E+000	0.0000000E+000	11.0002	5.14443	78.9997	-4.95117e-06	-0.00022778	1.71016e-08	-0.000227797	3.78881	63012.2	4.73091	63017
251206	0.674839	0.312958	0.743875	-24.8796	4.53554	3.78842	-0.0660533	2.02443	0.358324	1	9	0.00193186	0.00259703	0	-6.88003e-05	4.01593e-05	4.54592e-05	98.1304	0.0175043	-0.00247557	-0.0173284	-23.7345	0.734486	0.672363	0.29563	1.21955	0.56557	1.34431	24.8796	358.324	772.662	851.706	-65.1204	0.0000000E+000	0.0000000E+000	0.0000000E+000	65.1204	0.0000000E+000	0.0000000E+000	0.0000000E+000	-65.1204	0.0000000E+000	0.0000000E+000	0.0000000E+000	-24.8796	0.0000000E+000	0.0000000E+000	0.0000000E+000	24.8796	2.15632	65.1204	-5.76167e-06	-0.000250237	-2.65265e-09	-0.000250235	3.78838	57353.9	0.607982	57353.3
158486	0.776474	0.506615	0.92713	-33.1227	5.30355	3.78836	-0.07161	1.98222	0.591868	1	9	0.0050956	0.0054961	0	-8.06618e-05	0.000212006	5.1027e-05	81.0371	0.00928422	0.00144644	-0.00917086	-32.597	0.923369	0.777921	0.497444	0.903328	0.589381	1.0786	33.1227	591.868	907.14	1083.15	-56.8773	0.0000000E+000	0.0000000E+000	0.0000000E+000	56.8773	0.0000000E+000	0.0000000E+000	0.0000000E+000	-56.8773	0.0000000E+000	0.0000000E+000	0.0000000E+000	-33.1227	0.0000000E+000	0.0000000E+000	0.0000000E+000	33.1227	1.53267	56.8773	-6.95812e-06	-0.000271284	-1.51817e-08	-0.000271269	3.78815	52902.7	2.96056	52899.7
100004	0.943188	0.702963	1.17633	-36.6974	6.06952	3.78831	-0.0584081	2.26398	0.808492	1	9	0.00538385	0.00457681	0	-5.49135e-05	-0.000112593	3.94159e-05	85.1285	0.00861209	0.000731345	-0.00858098	-36.3396	1.17181	0.943919	0.694382	0.681612	0.508009	0.850099	36.6974	808.492	1084.78	1352.92	-53.3026	0.0000000E+000	0.0000000E+000	0.0000000E+000	53.3026	0.0000000E+000	0.0000000E+000	0.0000000E+000	-53.3026	0.0000000E+000	0.0000000E+000	0.0000000E+000	-36.6974	0.0000000E+000	0.0000000E+000	0.0000000E+000	36.6974	1.34173	53.3026	1.25045e-05	-0.000221268	6.57636e-09	-0.000221275	3.78843	64859.4	1.9277	64861.3
63093.8	1.21196	0.912081	1.51682	-36.9639	6.83752	3.78834	-0.0474438	2.76567	0.999999	1	9	0.00545062	0.00359346	0	-6.18701e-05	-5.53111e-05	2.99517e-05	113.979	0.00833505	-0.00338733	-0.00761571	-36.8103	1.50954	1.20857	0.904465	0.52677	0.39643	0.659275	36.9639	999.999	1328.78	1663.03	-53.0361	0.0000000E+000	0.0000000E+000	0.0000000E+000	53.0361	0.0000000E+000	0.0000000E+000	0.0000000E+000	-53.0361	0.0000000E+000	0.0000000E+000	0.0000000E+000	-36.9639	0.0000000E+000	0.0000000E+000	0.0000000E+000	36.9639	1.32879	53.0361	-7.67759e-06	-0.000179733	2.62417e-09	-0.000179736	3.7884	79849.1	1.16582	79850.2
39814.1	1.58198	1.04768	1.89744	-33.5149	7.85156	3.78835	-0.0476676	3.81553	1.16326	1	9	0.00504675	0.00265977	0	-7.57522e-05	-0.000112593	1.67164e-05	45.0214	0.0062849	0.00444244	-0.00444575	-33.3291	1.8987	1.58642	1.04323	0.439403	0.291	0.527026	33.5149	1163.26	1756.5	2106.76	-56.4851	0.0000000E+000	0.0000000E+000	0.0000000E+000	56.4851	0.0000000E+000	0.0000000E+000	0.0000000E+000	-56.4851	0.0000000E+000	0.0000000E+000	0.0000000E+000	-33.5149	0.0000000E+000	0.0000000E+000	0.0000000E+000	33.5149	1.50998	56.485	-5.39183e-06	-0.000180581	5.36705e-09	-0.000180587	3.78846	79474.4	2.36205	79476.7
25116.9	2.00127	1.08781	2.27781	-28.5267	8.61955	3.78837	-0.0433788	5.82509	1.32853	1	9	0.00497232	0.00218294	0	-7.73744e-05	-0.000227158	4.04193e-05	-71.0704	0.018516	0.0060067	0.0175146	-28.8397	2.29148	2.00728	1.10532	0.38572	0.209661	0.439019	28.5267	1328.53	2444.14	2781.87	-61.4733	0.0000000E+000	0.0000000E+000	0.0000000E+000	61.4733	0.0000000E+000	0.0000000E+000	0.0000000E+000	-61.4733	0.0000000E+000	0.0000000E+000	0.0000000E+000	-28.5267	0.0000000E+000	0.0000000E+000	0.0000000E+000	28.5267	1.83973	61.4733	-4.54655e-06	-0.000164335	9.85383e-09	-0.000164345	3.7886	87332.3	5.2366	87337.5
15847.7	2.39541	1.02352	2.60491	-23.1363	9.26353	3.78831	-0.0554993	9.81198	1.51484	1	9	0.00454729	0.00174566	0	-8.69468e-05	-9.34992e-05	1.06606e-05	-58.7645	0.00610692	0.00316679	0.00522168	-23.2144	2.60988	2.39857	1.02875	0.353015	0.150838	0.38389	23.1363	1514.84	3545.25	3855.33	-66.8637	0.0000000E+000	0.0000000E+000	0.0000000E+000	66.8637	0.0000000E+000	0.0000000E+000	0.0000000E+000	-66.8637	0.0000000E+000	0.0000000E+000	0.0000000E+000	-23.1363	0.0000000E+000	0.0000000E+000	0.0000000E+000	23.1363	2.34035	66.8637	-4.27667e-06	-0.000210248	5.18914e-09	-0.000210254	3.7884	68258.7	1.68469	68260.4
10002.2	2.68499	0.908077	2.83439	-18.6858	9.90556	3.78831	-0.0560214	17.5227	1.79857	1	9	0.00475421	0.00167733	0	-9.75443e-05	2.10652e-05	1.03767e-05	-12.3235	0.00618644	0.0060439	0.00132038	-18.672	2.84054	2.69103	0.909398	0.334213	0.113033	0.35281	18.6858	1798.57	5317.98	5613.89	-71.3142	0.0000000E+000	0.0000000E+000	0.0000000E+000	71.3142	0.0000000E+000	0.0000000E+000	0.0000000E+000	-71.3142	0.0000000E+000	0.0000000E+000	0.0000000E+000	-18.6858	0.0000000E+000	0.0000000E+000	0.0000000E+000	18.6858	2.95678	71.3142	-5.51282e-06	-0.000212226	-1.1801e-09	-0.000212225	3.78829	67622.5	0.376021	67622.1
6309.38	2.89545	0.827583	3.0114	-15.9511	10.4235	3.78833	-0.0525904	30.4805	2.30201	1	9	0.00453839	0.00150707	0	-0.00010234	5.92533e-05	1.36785e-05	-67.6028	0.00907619	0.00345825	0.00839153	-16.0863	3.01704	2.89891	0.835975	0.319286	0.0912588	0.332071	15.9511	2302.01	8054.02	8376.54	-74.0489	0.0000000E+000	0.0000000E+000	0.0000000E+000	74.0489	0.0000000E+000	0.0000000E+000	0.0000000E+000	-74.0489	0.0000000E+000	0.0000000E+000	0.0000000E+000	-15.9511	0.0000000E+000	0.0000000E+000	0.0000000E+000	15.9511	3.49868	74.0489	-2.31568e-06	-0.00019923	-3.11615e-09	-0.000199227	3.78827	72034.7	1.1267	72033.5
3983.6	3.09308	0.812932	3.19812	-14.7256	11.131	3.7881	-0.141163	49.1462	3.17547	1	9	0.00484623	0.00151534	0	-0.000121715	0.000154724	6.30765e-06	-27.697	0.00416254	0.00368559	0.00193473	-14.7423	3.20218	3.09676	0.814866	0.302413	0.079481	0.312683	14.7256	3175.47	12082.2	12492.5	-75.2744	0.0000000E+000	0.0000000E+000	0.0000000E+000	75.2744	0.0000000E+000	0.0000000E+000	0.0000000E+000	-75.2744	0.0000000E+000	0.0000000E+000	0.0000000E+000	-14.7256	0.0000000E+000	0.0000000E+000	0.0000000E+000	14.7256	3.80485	75.2744	-1.47208e-05	-0.000534737	-2.18412e-08	-0.000534716	3.78794	26835	1.09607	26833.9
2510.8	3.29303	0.85201	3.40146	-14.5061	11.9558	3.78834	0.0322525	74.3983	4.66789	1	9	0.00477894	0.00140497	0	-0.00012738	2.10652e-05	5.05315e-06	-22.321	0.00359664	0.00332714	0.00136598	-14.5143	3.40503	3.29636	0.853376	0.284619	0.0736398	0.293991	14.5061	4667.89	18041.4	18635.5	-75.4939	0.0000000E+000	0.0000000E+000	0.0000000E+000	75.4939	0.0000000E+000	0.0000000E+000	0.0000000E+000	-75.4939	0.0000000E+000	0.0000000E+000	0.0000000E+000	-14.5061	0.0000000E+000	0.0000000E+000	0.0000000E+000	14.5061	3.86501	75.4939	3.01184e-06	0.000122183	6.79405e-10	0.000122183	3.78832	117459	0.653134	117458
1585.51	3.47093	0.923944	3.5918	-14.9062	13.1029	3.78826	-0.078818	108.644	7.18906	1	10	0.00481919	0.00134172	0	-0.000133423	0.000192912	8.03895e-06	-27.6879	0.00599154	0.00530546	0.002784	-14.9273	3.59765	3.47624	0.926728	0.269043	0.0716177	0.278412	14.9062	7189.06	27006.8	27947.3	-75.0938	0.0000000E+000	0.0000000E+000	0.0000000E+000	75.0938	0.0000000E+000	0.0000000E+000	0.0000000E+000	-75.0938	0.0000000E+000	0.0000000E+000	0.0000000E+000	-14.9062	0.0000000E+000	0.0000000E+000	0.0000000E+000	14.9062	3.75665	75.0938	-9.97239e-06	-0.000298583	-1.52049e-08	-0.000298568	3.78807	48063.4	2.44756	48060.9
1000.32	3.73462	1.04913	3.87918	-15.6911	14.0058	3.78825	-0.0782214	151.653	11.0925	1	10	0.00479278	0.00123551	0	-0.000151361	-0.00028444	2.91787e-06	-53.4907	0.00236166	0.00140508	0.00189821	-15.7125	3.88104	3.73602	1.05103	0.24818	0.0697187	0.257787	15.6911	11092.5	39486.4	41014.9	-74.3089	0.0000000E+000	0.0000000E+000	0.0000000E+000	74.3089	0.0000000E+000	0.0000000E+000	0.0000000E+000	-74.3089	0.0000000E+000	0.0000000E+000	0.0000000E+000	-15.6911	0.0000000E+000	0.0000000E+000	0.0000000E+000	15.6911	3.55973	74.3089	-9.30265e-06	-0.000296322	2.22493e-08	-0.000296345	3.78854	48429.9	3.63634	48433.5
631.01	4.0741	1.19591	4.246	-16.3591	14.9086	3.78824	-0.0807458	210.904	16.7311	1	10	0.00476629	0.00112254	0	-0.000171944	-0.00018897	9.77982e-06	-50.6461	0.00871224	0.00552451	0.00673669	-16.4252	4.2532	4.07963	1.20265	0.225981	0.0663345	0.235516	16.3591	16731.1	56997.5	59402.4	-73.6409	0.0000000E+000	0.0000000E+000	0.0000000E+000	73.6409	0.0000000E+000	0.0000000E+000	0.0000000E+000	-73.6409	0.0000000E+000	0.0000000E+000	0.0000000E+000	-16.3591	0.0000000E+000	0.0000000E+000	0.0000000E+000	16.3591	3.40669	73.6409	-1.01222e-05	-0.000305884	1.52585e-08	-0.0003059	3.78843	46915.6	2.3403	46917.9
398.089	4.50739	1.30855	4.69349	-16.1886	15.8098	3.78826	-0.0762786	305.528	23.7485	1	10	0.00474741	0.00101149	0	-0.000190451	-0.000246252	4.92425e-05	49.9366	0.0486833	0.0313342	-0.0372589	-15.6474	4.71341	4.53872	1.27129	0.204613	0.0594014	0.213061	16.1886	23748.5	81803.7	85181.2	-73.8114	0.0000000E+000	0.0000000E+000	0.0000000E+000	73.8114	0.0000000E+000	0.0000000E+000	0.0000000E+000	-73.8114	0.0000000E+000	0.0000000E+000	0.0000000E+000	-16.1886	0.0000000E+000	0.0000000E+000	0.0000000E+000	16.1886	3.44458	73.8114	-8.85789e-06	-0.000288963	1.87837e-08	-0.000288982	3.78851	49663.5	3.22832	49666.7
251.044	5.00442	1.34656	5.18242	-15.0601	16.7081	3.78825	-0.0772109	470.809	31.7856	1	10	0.00473055	0.000912807	0	-0.000210096	2.10652e-05	5.46071e-06	-14.6751	0.00598233	0.00578717	0.00151555	-15.0596	5.1884	5.01021	1.34807	0.186333	0.0501372	0.19296	15.0601	31785.6	118130	122331	-74.9399	0.0000000E+000	0.0000000E+000	0.0000000E+000	74.9399	0.0000000E+000	0.0000000E+000	0.0000000E+000	-74.9399	0.0000000E+000	0.0000000E+000	0.0000000E+000	-15.0601	0.0000000E+000	0.0000000E+000	0.0000000E+000	15.0601	3.71645	74.9399	-9.60187e-06	-0.000292494	-1.62646e-09	-0.000292492	3.78823	49063.7	0.272827	49063.4
158.428	5.50297	1.25317	5.64386	-12.8289	17.6128	3.78826	-0.0731165	801.637	39.5225	1	10	0.00473622	0.00083918	0	-0.000229948	-0.00018897	3.07027e-06	53.7665	0.00365865	0.00216255	-0.00295112	-12.7949	5.64531	5.50514	1.25022	0.172761	0.0393421	0.177184	12.8289	39522.5	173553	177996	-77.1711	0.0000000E+000	0.0000000E+000	0.0000000E+000	77.1711	0.0000000E+000	0.0000000E+000	0.0000000E+000	-77.1711	0.0000000E+000	0.0000000E+000	0.0000000E+000	-12.8289	0.0000000E+000	0.0000000E+000	0.0000000E+000	12.8289	4.39125	77.1711	-9.47473e-06	-0.000276984	1.38168e-08	-0.000276998	3.78845	51811.2	2.5845	51813.8
100.032	5.89822	1.05689	5.99217	-10.1589	18.5128	3.78825	-0.0749959	1505.4	46.8319	1	10	0.00472973	0.000789319	0	-0.000248807	-0.000131687	1.22761e-05	71.7076	0.0155528	0.00488151	-0.0147669	-10.0117	5.99439	5.90311	1.04212	0.164268	0.0294348	0.166885	10.1589	46831.9	261357	265520	-79.8411	0.0000000E+000	0.0000000E+000	0.0000000E+000	79.8411	0.0000000E+000	0.0000000E+000	0.0000000E+000	-79.8411	0.0000000E+000	0.0000000E+000	0.0000000E+000	-10.1589	0.0000000E+000	0.0000000E+000	0.0000000E+000	10.1589	5.58075	79.8411	-1.02375e-05	-0.000284104	9.87601e-09	-0.000284113	3.78839	50512.8	1.75593	50514.6
63.0823	6.21024	0.834803	6.26609	-7.65602	19.43	3.78826	-0.0711365	3022.24	53.6418	1	10	0.00472857	0.000754629	0	-0.000266459	1.97113e-06	4.20454e-06	68.8895	0.00557166	0.00200673	-0.00519774	-7.60648	6.26739	6.21224	0.829606	0.158166	0.0212613	0.159589	7.65602	53641.8	399050	402639	-82.344	0.0000000E+000	0.0000000E+000	0.0000000E+000	82.344	0.0000000E+000	0.0000000E+000	0.0000000E+000	-82.344	0.0000000E+000	0.0000000E+000	0.0000000E+000	-7.65602	0.0000000E+000	0.0000000E+000	0.0000000E+000	7.65602	7.43916	82.344	-9.12546e-06	-0.000269483	-1.40219e-10	-0.000269483	3.78825	53253.3	0.0277091	53253.3
39.8089	6.37953	0.634965	6.41105	-5.68402	20.3309	3.78826	-0.0737281	6296.37	61.7634	1	10	0.00472452	0.000736934	0	-0.000283595	-1.71229e-05	7.33812e-06	5.57513	0.00995764	0.00991054	-0.000967394	-5.66668	6.42082	6.38944	0.633998	0.155214	0.0154487	0.155981	5.68402	61763.4	620540	623607	-84.316	0.0000000E+000	0.0000000E+000	0.0000000E+000	84.316	0.0000000E+000	0.0000000E+000	0.0000000E+000	-84.316	0.0000000E+000	0.0000000E+000	0.0000000E+000	-5.68402	0.0000000E+000	0.0000000E+000	0.0000000E+000	5.68402	10.0471	84.316	-8.38938e-06	-0.000279301	1.26244e-09	-0.000279302	3.78828	51381.5	0.232244	51381.7
25.1044	6.49584	0.458206	6.51198	-4.03487	21.2101	3.78825	-0.0736833	13835.9	68.5022	1	10	0.00472528	0.000725628	0	-0.000301212	7.83474e-05	4.32557e-06	79.3058	0.00596114	0.00110619	-0.00585761	-3.98278	6.51268	6.49695	0.452349	0.153182	0.0108052	0.153563	4.03487	68502.1	971133	973546	-85.9651	0.0000000E+000	0.0000000E+000	0.0000000E+000	85.9651	0.0000000E+000	0.0000000E+000	0.0000000E+000	-85.9651	0.0000000E+000	0.0000000E+000	0.0000000E+000	-4.03487	0.0000000E+000	0.0000000E+000	0.0000000E+000	4.03487	14.1767	85.9651	-9.77442e-06	-0.000279131	-5.7729e-09	-0.000279125	3.78817	51412.5	1.0633	51411.5
15.8576	6.55696	0.357224	6.56669	-3.1184	22.088	3.78823	-0.0800858	28095.9	83.1441	1	10	0.00472554	0.000719624	0	-0.000315317	9.74414e-05	2.49489e-05	79.5245	0.0346693	0.0063034	-0.0340915	-2.8186	6.57122	6.56327	0.323133	0.152058	0.00828416	0.152284	3.1184	83144.2	1.52614e+06	1.5284e+06	-86.8816	0.0000000E+000	0.0000000E+000	0.0000000E+000	86.8816	0.0000000E+000	0.0000000E+000	0.0000000E+000	-86.8816	0.0000000E+000	0.0000000E+000	0.0000000E+000	-3.1184	0.0000000E+000	0.0000000E+000	0.0000000E+000	3.1184	18.3553	86.8816	-6.11444e-06	-0.000303384	-7.80368e-09	-0.000303376	3.78813	47302.1	1.21671	47300.9
10.0032	6.60478	0.279903	6.61071	-2.42667	23.0698	3.78824	-0.0734969	56842.6	101.904	1	10	0.00471561	0.000713329	0	-0.000339328	-7.44051e-05	1.06128e-05	63.9882	0.0148779	0.0065248	-0.0133708	-2.3086	6.61667	6.6113	0.266532	0.151134	0.00640488	0.15127	2.42667	101904	2.4046e+06	2.40676e+06	-87.5733	0.0000000E+000	0.0000000E+000	0.0000000E+000	87.5733	0.0000000E+000	0.0000000E+000	0.0000000E+000	-87.5733	0.0000000E+000	0.0000000E+000	0.0000000E+000	-2.42667	0.0000000E+000	0.0000000E+000	0.0000000E+000	2.42667	23.5967	87.5733	-1.42437e-05	-0.000278424	5.46855e-09	-0.000278429	3.78832	51542.9	1.01236	51543.9
6.31058	6.65748	0.227123	6.66135	-1.95391	23.9943	3.78822	-0.0898592	111043	129.088	1	10	0.00472649	0.000709539	0	-0.000355507	-3.6217e-05	9.01271e-06	21.9712	0.0127022	0.0117797	-0.00475242	-1.90968	6.67297	6.66926	0.222371	0.150032	0.00511842	0.15012	1.95391	129088	3.78387e+06	3.78607e+06	-88.0461	0.0000000E+000	0.0000000E+000	0.0000000E+000	88.0461	0.0000000E+000	0.0000000E+000	0.0000000E+000	-88.0461	0.0000000E+000	0.0000000E+000	0.0000000E+000	-1.95391	0.0000000E+000	0.0000000E+000	0.0000000E+000	1.95391	29.3122	88.0461	-1.0668e-05	-0.000340407	3.25443e-09	-0.00034041	3.78826	42157.3	0.403042	42157.7
3.97785	6.69618	0.209293	6.69945	-1.79023	25.0013	3.78827	-0.0765975	191168	186.573	1	10	0.00470215	0.000701871	0	-0.00037799	1.97113e-06	2.19133e-05	-0.415002	0.0312213	0.0312205	0.000226139	-1.78386	6.73066	6.7274	0.209519	0.149193	0.00466313	0.149266	1.79023	186573	5.96926e+06	5.97218e+06	-88.2098	0.0000000E+000	0.0000000E+000	0.0000000E+000	88.2098	0.0000000E+000	0.0000000E+000	0.0000000E+000	-88.2098	0.0000000E+000	0.0000000E+000	0.0000000E+000	-1.79023	0.0000000E+000	0.0000000E+000	0.0000000E+000	1.79023	31.9942	88.2098	-7.10451e-06	-0.000290172	-1.50983e-10	-0.000290172	3.78827	49456.9	0.0257336	49456.9
2.51367	6.74547	0.218272	6.749	-1.85335	26.9229	3.78829	-0.0660788	290077	303.41	1	11	0.0047242	0.000699985	0	-0.000414318	-7.44051e-05	5.14441e-06	16.7026	0.00734931	0.00703924	-0.00211221	-1.83351	6.75597	6.75251	0.21616	0.148093	0.00479202	0.14817	1.85335	303410	9.37657e+06	9.38148e+06	-88.1467	0.0000000E+000	0.0000000E+000	0.0000000E+000	88.1467	0.0000000E+000	0.0000000E+000	0.0000000E+000	-88.1467	0.0000000E+000	0.0000000E+000	0.0000000E+000	-1.85335	0.0000000E+000	0.0000000E+000	0.0000000E+000	1.85335	30.904	88.1467	-2.44605e-05	-0.000250326	4.9166e-09	-0.000250331	3.78837	57329.9	1.12601	57331.1
1.58469	6.79023	0.240059	6.79447	-2.02477	29.3586	3.7883	-0.0662208	418369	522.256	1	11	0.00471761	0.000694331	0	-0.000473797	-0.000169875	3.78068e-06	-42.2786	0.00544507	0.00402872	0.0036631	-2.05442	6.79863	6.79426	0.243722	0.147087	0.00520003	0.147179	2.02477	522256	1.47724e+07	1.47816e+07	-87.9752	0.0000000E+000	0.0000000E+000	0.0000000E+000	87.9752	0.0000000E+000	0.0000000E+000	0.0000000E+000	-87.9752	0.0000000E+000	0.0000000E+000	0.0000000E+000	-2.02477	0.0000000E+000	0.0000000E+000	0.0000000E+000	2.02477	28.2857	87.9752	-2.78148e-05	-0.000250864	1.12493e-08	-0.000250875	3.78847	57207.1	2.56529	57209.6
1.00469	6.85338	0.268929	6.85865	-2.24715	240.177	3.78828	-0.0401621	589046	905.619	1	11	0.0050397	0.000734794	0	-0.00602398	-0.000322628	6.98262e-07	-5.18148	0.000950282	0.000946399	8.58206e-05	-2.24756	6.8596	6.85433	0.269014	0.145689	0.00571688	0.145801	2.24715	905618	2.30788e+07	2.30966e+07	-87.7529	0.0000000E+000	0.0000000E+000	0.0000000E+000	87.7529	0.0000000E+000	0.0000000E+000	0.0000000E+000	-87.7529	0.0000000E+000	0.0000000E+000	0.0000000E+000	-2.24715	0.0000000E+000	0.0000000E+000	0.0000000E+000	2.24715	25.484	87.7529	-0.00553135	-0.000152145	1.29574e-08	-0.000152158	3.7886	94324.7	8.03314	94332.7
0.632957	6.91395	0.329466	6.92179	-2.72821	240.178	3.78828	-0.0401621	763195	1729.1	1	11	0.00505224	0.000729903	0	-0.00602398	-0.000322628	7.62494e-07	-15.7329	0.00104465	0.00100551	0.00028326	-2.73016	6.92281	6.91495	0.329749	0.144307	0.00687659	0.144471	2.72821	1.72909e+06	3.62856e+07	3.63268e+07	-87.2718	0.0000000E+000	0.0000000E+000	0.0000000E+000	87.2718	0.0000000E+000	0.0000000E+000	0.0000000E+000	-87.2718	0.0000000E+000	0.0000000E+000	0.0000000E+000	-2.72821	0.0000000E+000	0.0000000E+000	0.0000000E+000	2.72821	20.9853	87.2718	0.000000000000000E+000	-0.000152145	1.29574e-08	-0.000152158	3.7886	94324.7	8.03314	94332.7
0.401878	6.97672	0.415459	6.98908	-3.4079	240.179	3.78828	-0.0401621	953232	3368.32	1	11	0.00506625	0.00072488	0	-0.00602398	-0.000322628	8.38221e-07	15.7745	0.00115636	0.00111281	-0.000314359	-3.40478	6.99018	6.97784	0.415144	0.142827	0.00850526	0.14308	3.4079	3.36833e+06	5.65637e+07	5.66639e+07	-86.5921	0.0000000E+000	0.0000000E+000	0.0000000E+000	86.5921	0.0000000E+000	0.0000000E+000	0.0000000E+000	-86.5921	0.0000000E+000	0.0000000E+000	0.0000000E+000	-3.4079	0.0000000E+000	0.0000000E+000	0.0000000E+000	3.4079	16.7928	86.5921	0.000000000000000E+000	-0.000152145	1.29574e-08	-0.000152158	3.7886	94324.7	8.03314	94332.7
0.251173	7.0903	0.538541	7.11072	-4.34354	240.18	3.78828	-0.0401621	1.1766e+06	6748.98	1	11	0.00506555	0.000712382	0	-0.00602398	-0.000322628	5.91435e-07	-5.13476	0.000830221	0.000826889	7.43036e-05	-4.34363	7.11155	7.09112	0.538615	0.140229	0.010651	0.140633	4.34354	6.74899e+06	8.88554e+07	8.91113e+07	-85.6565	0.0000000E+000	0.0000000E+000	0.0000000E+000	85.6565	0.0000000E+000	0.0000000E+000	0.0000000E+000	-85.6565	0.0000000E+000	0.0000000E+000	0.0000000E+000	-4.34354	0.0000000E+000	0.0000000E+000	0.0000000E+000	4.34354	13.1657	85.6565	0.000000000000000E+000	-0.000152145	1.29574e-08	-0.000152158	3.7886	94324.7	8.03314	94332.7
0.160751	7.24096	0.638542	7.26906	-5.03957	240.181	3.78828	-0.0401621	1.55052e+06	11964.6	1	11	0.00506175	0.000696342	0	-0.00602398	-0.000322628	4.94877e-07	-8.75005	0.000710682	0.000702411	0.000108112	-5.03994	7.26977	7.24166	0.63865	0.137038	0.0120846	0.137569	5.03957	1.19646e+07	1.35677e+08	1.36203e+08	-84.9604	0.0000000E+000	0.0000000E+000	0.0000000E+000	84.9604	0.0000000E+000	0.0000000E+000	0.0000000E+000	-84.9604	0.0000000E+000	0.0000000E+000	0.0000000E+000	-5.03957	0.0000000E+000	0.0000000E+000	0.0000000E+000	5.03957	11.3398	84.9604	0.000000000000000E+000	-0.000152145	1.29574e-08	-0.000152158	3.7886	94324.7	8.03314	94332.7
0.100469	7.39776	0.868354	7.44855	-6.69478	240.182	3.78828	-0.0401621	1.82427e+06	24793.6	1	11	0.00506432	0.000679907	0	-0.00602398	-0.000322628	6.75538e-07	-14.676	0.000993575	0.000961159	0.000251725	-6.69584	7.44954	7.39873	0.868606	0.133339	0.0156514	0.134254	6.69478	2.47936e+07	2.11224e+08	2.12674e+08	-83.3052	0.0000000E+000	0.0000000E+000	0.0000000E+000	83.3052	0.0000000E+000	0.0000000E+000	0.0000000E+000	-83.3052	0.0000000E+000	0.0000000E+000	0.0000000E+000	-6.69478	0.0000000E+000	0.0000000E+000	0.0000000E+000	6.69478	8.5193	83.3052	0.000000000000000E+000	-0.000152145	1.29574e-08	-0.000152158	3.7886	94324.7	8.03314	94332.7
0.0602816	7.68192	1.03486	7.75131	-7.67236	240.183	3.78828	-0.0401621	2.55124e+06	45474.5	1	11	0.0050592	0.000652689	0	-0.00602398	-0.000322628	9.56651e-07	-32.8091	0.00146571	0.0012319	0.00079418	-7.67697	7.75264	7.68315	1.03566	0.127855	0.0172239	0.12901	7.67236	4.54745e+07	3.37563e+08	3.40612e+08	-82.3276	0.0000000E+000	0.0000000E+000	0.0000000E+000	82.3276	0.0000000E+000	0.0000000E+000	0.0000000E+000	-82.3276	0.0000000E+000	0.0000000E+000	0.0000000E+000	-7.67236	0.0000000E+000	0.0000000E+000	0.0000000E+000	7.67236	7.42312	82.3276	0.000000000000000E+000	-0.000152145	1.29574e-08	-0.000152158	3.7886	94324.7	8.03314	94332.7
0.0401878	8.01161	1.21234	8.10282	-8.60486	240.184	3.78828	-0.0401621	3.26666e+06	73127	1	11	0.00505859	0.0006243	0	-0.00602398	-0.000322628	9.55188e-07	18.1962	0.00153001	0.0014535	-0.000477781	-8.59998	8.10418	8.01306	1.21186	0.122025	0.0184651	0.123414	8.60486	7.3127e+07	4.83253e+08	4.88754e+08	-81.3951	0.0000000E+000	0.0000000E+000	0.0000000E+000	81.3951	0.0000000E+000	0.0000000E+000	0.0000000E+000	-81.3951	0.0000000E+000	0.0000000E+000	0.0000000E+000	-8.60486	0.0000000E+000	0.0000000E+000	0.0000000E+000	8.60486	6.6084	81.3951	0.000000000000000E+000	-0.000152145	1.29574e-08	-0.000152158	3.7886	94324.7	8.03314	94332.7
0.0200939	8.7163	1.72694	8.88573	-11.2067	240.185	3.78828	-0.0401621	4.58648e+06	173239	1	11	0.00506057	0.000569516	0	-0.00602398	-0.000322628	9.318e-07	45.7978	0.00163612	0.00114069	-0.00117291	-11.1979	8.88662	8.71744	1.72577	0.110394	0.0218721	0.11254	11.2067	1.73239e+08	8.74384e+08	8.9138e+08	-78.7933	0.0000000E+000	0.0000000E+000	0.0000000E+000	78.7933	0.0000000E+000	0.0000000E+000	0.0000000E+000	-78.7933	0.0000000E+000	0.0000000E+000	0.0000000E+000	-11.2067	0.0000000E+000	0.0000000E+000	0.0000000E+000	11.2067	5.04726	78.7933	0.000000000000000E+000	-0.000152145	1.29574e-08	-0.000152158	3.7886	94324.7	8.03314	94332.7
0.00796479	10.317	1.91931	10.494	-10.5385	20329	3.78833	0.00152525	1.04112e+07	348265	1	11	0.00505369	0.000481579	0	-0.0349158	0.0002311	5.56699e-07	-160.078	0.00115599	-0.00108681	0.000393895	-10.5417	10.493	10.3159	1.91971	0.0936851	0.0174286	0.0952925	10.5385	3.48265e+08	1.87205e+09	1.90417e+09	-79.4615	0.0000000E+000	0.0000000E+000	0.0000000E+000	79.4615	0.0000000E+000	0.0000000E+000	0.0000000E+000	-79.4615	0.0000000E+000	0.0000000E+000	0.0000000E+000	-10.5385	0.0000000E+000	0.0000000E+000	0.0000000E+000	10.5385	5.37535	79.4615	-0.0288918	5.77813e-06	3.52484e-10	5.77778e-06	3.7881	2.48375e+06	151.517	2.4836e+06
0.00497799	10.9259	1.96125	11.1005	-10.1765	20329	3.78833	0.00152525	1.63017e+07	508881	1	11	0.0050599	0.000455827	0	-0.0349158	0.0002311	6.30193e-07	-122.05	0.00138253	-0.000733653	0.00117181	-10.1832	11.1	10.9251	1.96243	0.0886689	0.0159166	0.0900861	10.1765	5.0888e+08	2.8349e+09	2.88021e+09	-79.8235	0.0000000E+000	0.0000000E+000	0.0000000E+000	79.8235	0.0000000E+000	0.0000000E+000	0.0000000E+000	-79.8235	0.0000000E+000	0.0000000E+000	0.0000000E+000	-10.1765	0.0000000E+000	0.0000000E+000	0.0000000E+000	10.1765	5.57085	79.8235	0.000000000000000E+000	5.77813e-06	3.52484e-10	5.77778e-06	3.7881	2.48375e+06	151.517	2.4836e+06
0.00318591	11.3436	2.59755	11.6372	-12.8977	20329	3.78833	0.00152525	1.92319e+07	958189	1	11	0.00506258	0.000435033	0	-0.0349158	0.0002311	4.11224e-07	-136.502	0.00094527	-0.000685697	0.000650658	-12.9015	11.6367	11.3429	2.5982	0.0837631	0.0191807	0.0859311	12.8977	9.58189e+08	4.18445e+09	4.29276e+09	-77.1023	0.0000000E+000	0.0000000E+000	0.0000000E+000	77.1023	0.0000000E+000	0.0000000E+000	0.0000000E+000	-77.1023	0.0000000E+000	0.0000000E+000	0.0000000E+000	-12.8977	0.0000000E+000	0.0000000E+000	0.0000000E+000	12.8977	4.36704	77.1023	0.000000000000000E+000	5.77813e-06	3.52484e-10	5.77778e-06	3.7881	2.48375e+06	151.517	2.4836e+06
0.0019912	11.7947	2.97697	12.1646	-14.1656	20329	3.78833	0.00152525	2.68492e+07	1.60801e+06	1	11	0.00506522	0.000416392	0	-0.0349158	0.0002311	4.36455e-07	76.7365	0.00104818	0.000240484	-0.00102022	-14.1606	12.1645	11.7949	2.97595	0.0797064	0.0201179	0.0822061	14.1656	1.60801e+09	6.37088e+09	6.57067e+09	-75.8344	0.0000000E+000	0.0000000E+000	0.0000000E+000	75.8344	0.0000000E+000	0.0000000E+000	0.0000000E+000	-75.8344	0.0000000E+000	0.0000000E+000	0.0000000E+000	-14.1656	0.0000000E+000	0.0000000E+000	0.0000000E+000	14.1656	3.96197	75.8344	0.000000000000000E+000	5.77813e-06	3.52484e-10	5.77778e-06	3.7881	2.48375e+06	151.517	2.4836e+06
0.00129428	11.6906	3.81163	12.2963	-18.0582	20329	3.78833	0.00152525	3.22613e+07	3.09996e+06	1	11	0.00506706	0.000412081	0	-0.0349158	0.0002311	6.21107e-07	-24.2569	0.00150725	0.00137418	0.000619219	-18.0589	12.2978	11.692	3.81225	0.0773195	0.0252094	0.0813254	18.0582	3.09996e+09	9.50784e+09	1.00004e+10	-71.9418	0.0000000E+000	0.0000000E+000	0.0000000E+000	71.9418	0.0000000E+000	0.0000000E+000	0.0000000E+000	-71.9418	0.0000000E+000	0.0000000E+000	0.0000000E+000	-18.0582	0.0000000E+000	0.0000000E+000	0.0000000E+000	18.0582	3.06708	71.9418	0.000000000000000E+000	5.77813e-06	3.52484e-10	5.77778e-06	3.7881	2.48375e+06	151.517	2.4836e+06
0.000796479	12.5932	5.18433	13.6186	-22.3758	20329	3.78833	0.00152525	3.85437e+07	5.58563e+06	1	11	0.00506326	0.000371789	0	-0.0349158	0.0002311	1.59674e-06	38.4527	0.00429473	0.0033633	-0.00267076	-22.36	13.6207	12.5966	5.18166	0.0679002	0.0279529	0.0734289	22.3758	5.58563e+09	1.3568e+10	1.46728e+10	-67.6242	0.0000000E+000	0.0000000E+000	0.0000000E+000	67.6242	0.0000000E+000	0.0000000E+000	0.0000000E+000	-67.6242	0.0000000E+000	0.0000000E+000	0.0000000E+000	-22.3758	0.0000000E+000	0.0000000E+000	0.0000000E+000	22.3758	2.4291	67.6242	0.000000000000000E+000	5.77813e-06	3.52484e-10	5.77778e-06	3.7881	2.48375e+06	151.517	2.4836e+06
0.000497799	12.2824	7.59502	14.441	-31.7312	20329	3.78833	0.00152525	4.20956e+07	1.16439e+07	1	11	0.00506579	0.000350792	0	-0.0349158	0.0002311	5.59671e-07	118.066	0.00159545	-0.000750642	-0.00140783	-31.728	14.4396	12.2817	7.59361	0.0588965	0.0364195	0.0692473	31.7312	1.16439e+10	1.88302e+10	2.21395e+10	-58.2688	0.0000000E+000	0.0000000E+000	0.0000000E+000	58.2688	0.0000000E+000	0.0000000E+000	0.0000000E+000	-58.2688	0.0000000E+000	0.0000000E+000	0.0000000E+000	-31.7312	0.0000000E+000	0.0000000E+000	0.0000000E+000	31.7312	1.61717	58.2688	0.000000000000000E+000	5.77813e-06	3.52484e-10	5.77778e-06	3.7881	2.48375e+06	151.517	2.4836e+06
0.000298679	12.0623	11.5872	16.7261	-43.8491	20329	3.78833	0.00152525	4.59872e+07	2.20701e+07	1	11	0.00506955	0.000303093	0	-0.0349158	0.0002311	1.30037e-06	16.5694	0.00429034	0.00411219	-0.00122351	-43.8364	16.7282	12.0664	11.586	0.0431163	0.0414181	0.0597869	43.8491	2.20701e+10	2.2975e+10	3.18582e+10	-46.1509	0.0000000E+000	0.0000000E+000	0.0000000E+000	46.1509	0.0000000E+000	0.0000000E+000	0.0000000E+000	-46.1509	0.0000000E+000	0.0000000E+000	0.0000000E+000	-43.8491	0.0000000E+000	0.0000000E+000	0.0000000E+000	43.8491	1.041	46.1509	0.000000000000000E+000	5.77813e-06	3.52484e-10	5.77778e-06	3.7881	2.48375e+06	151.517	2.4836e+06
9.95598e-05	14.0113	39.2953	41.7186	-70.3755	20329	3.78833	0.00152525	4.06814e+07	3.60926e+07	1	11	0.00506256	0.00012135	0	-0.0349158	0.0002311	5.80632e-06	-103.215	0.0478476	-0.0109385	0.0465805	-70.4111	41.7588	14.0004	39.3419	0.00805047	0.0225778	0.0239702	70.3755	3.60926e+10	1.28694e+10	3.83183e+10	-19.6245	0.0000000E+000	0.0000000E+000	0.0000000E+000	19.6245	0.0000000E+000	0.0000000E+000	0.0000000E+000	-19.6245	0.0000000E+000	0.0000000E+000	0.0000000E+000	-70.3755	0.0000000E+000	0.0000000E+000	0.0000000E+000	70.3755	0.356566	19.6245	0.000000000000000E+000	5.77813e-06	3.52484e-10	5.77778e-06	3.7881	2.48375e+06	151.517	2.4836e+06