File: txt/17545_R290_UC82_50SOC_C02.mpt
EC-Lab ASCII FILE
Nb header lines : 64

Potentio Electrochemical Impedance Spectroscopy

Run on channel : 2 (SN 66139)
User :
CE vs. WE compliance from -10 V to 10 V
Electrode connection : standard
Potential control : Ewe
Ewe ctrl range : min = -10.00 V, max = 10.00 V
Safety Limits :
	Do not start on E overload
Acquisition started on : 09/16/2025 16:51:35.302
Loaded Setting File :  C:\Users\Celltest\OneDrive - store-dot.com\Documents\EC-Lab\Data\Michael\UC74_NCMA_16706_EIS_50_SOC.mps
Saved on :
	File : 17545_R290_UC82_50SOC_C02.mpr
	Directory : C:\Users\Celltest\OneDrive - store-dot.com\Documents\EC-Lab\Data\Michael\R290\
	Host : 169.254.61.224
Device : VMP-3e (SN .003165)
Address : USB
EC-LAB for windows v11.62 (software)
Internet server v27.00 (firmware)
Command interpretor v12.03 (firmware)
Electrode material :
Initial state :
Electrolyte :
Comments :
Electrode surface area : 0.001 cm²
Characteristic mass : 0.001 g
Equivalent Weight : 0.000 g/eq.
Density : 0.000 g/cm3
Volume (V) : 0.001 cm³
Record Ece
Cycle Definition : Charge/Discharge alternance
Mode                Multi sine
E (V)               0.0000
vs.                 Eoc
tE (h:m:s)          0:00:0.0000
record              0
dI                  0.000
unit dI             mA
dt (s)              0.000
fi                  1.000
unit fi             MHz
ff                  0.100
unit ff             mHz
Nd                  10
Points              per decade
spacing             Logarithmic
Va (mV)             5.0
pw                  0.10
Na                  2
corr                0
E range min (V)     -10.000
E range max (V)     10.000
I Range             Auto
Bandwidth           5
nc cycles           0
goto Ns'            0
nr cycles           0
inc. cycle          0

freq/Hz	Re(Z)/Ohm	-Im(Z)/Ohm	|Z|/Ohm	Phase(Z)/deg	time/s	<Ewe>/V	<I>/mA	Cs/µF	Cp/µF	cycle number	I Range	|Ewe|/V	|I|/A	Ns	(Q-Qo)/mA.h	<Ece>/V	|Ece|/V	Phase(Zce)/deg	|Zce|/Ohm	Re(Zce)/Ohm	-Im(Zce)/Ohm	Phase(Zwe-ce)/deg	|Zwe-ce|/Ohm	Re(Zwe-ce)/Ohm	-Im(Zwe-ce)/Ohm	Re(Y)/Ohm-1	Im(Y)/Ohm-1	|Y|/Ohm-1	Phase(Y)/deg	Re(C)/nF	Im(C)/nF	|C|/nF	Phase(C)/deg	Re(M)	Im(M)	|M|	Phase(M)/deg	Re(Permittivity)	Im(Permittivity)	|Permittivity|	Phase(Permittivity)/deg	Re(Resistivity)/Ohm.cm	Im(Resistivity)/Ohm.cm	|Resistivity|/Ohm.cm	Phase(Resistivity)/deg	Re(Conductivity)/mS/cm	Im(Conductivity)/mS/cm	|Conductivity|/mS/cm	Phase(Conductivity)/deg	Tan(Delta)	Loss Angle(Delta)/deg	dq/mA.h	Pwe/W	Pce/W	Pwe-ce/W	<Ewe-Ece>/V	Rwe/Ohm	Rce/Ohm	Rwe-ce/Ohm		Ewe-Ece/V
1.00002e+06	2.31001	2.30496	3.26328	-44.9373	1.77454	3.78777	-0.102373	0.0690476	0.0344482	1	10	0.000193148	5.91882e-05	0	-4.30708e-05	0.000293435	0.000179089	-66.7626	3.02576	1.19379	2.7803	-55.4328	6.17548	3.5038	5.08527	0.216923	0.216449	0.30644	44.9373	34.4482	34.5237	48.7706	-45.0627	0.0000000E+000	0.0000000E+000	0.0000000E+000	45.0627	0.0000000E+000	0.0000000E+000	0.0000000E+000	-45.0627	0.0000000E+000	0.0000000E+000	0.0000000E+000	-44.9373	0.0000000E+000	0.0000000E+000	0.0000000E+000	44.9373	1.00219	45.0627	-4.30708e-05	-0.000387763	-3.00396e-08	-0.000387733	3.78747	36999.8	2.86634	36997
630957	0.521844	-0.0519458	0.524423	5.68465	2.94356	3.78773	-0.0758677	-4.85591	-0.0476438	1	9	0.000141017	0.000268899	0	-7.15439e-05	4.52537e-05	0.000113281	-102.799	0.421275	-0.0933282	0.410807	-39.9445	0.558934	0.428516	0.358861	1.89748	-0.18888	1.90686	-5.68465	-47.6438	478.627	480.993	-95.6846	0.0000000E+000	0.0000000E+000	0.0000000E+000	95.6846	0.0000000E+000	0.0000000E+000	0.0000000E+000	-95.6846	0.0000000E+000	0.0000000E+000	0.0000000E+000	5.68465	0.0000000E+000	0.0000000E+000	0.0000000E+000	-5.68465	10.0459	84.3154	-7.84684e-06	-0.000287366	-3.43329e-09	-0.000287363	3.78768	49925.4	0.596482	49924.8
398103	0.659864	0.0798393	0.664676	-6.89889	3.71152	3.78787	-0.0604851	5.00734	0.0722472	1	9	0.000539849	0.000812198	0	-8.71058e-05	0.000293435	4.02487e-05	160.081	0.0495553	-0.0465906	-0.0168835	-5.8612	0.616496	0.613273	0.0629559	1.4936	0.180716	1.50449	6.89889	72.2471	597.115	601.47	-83.1011	0.0000000E+000	0.0000000E+000	0.0000000E+000	83.1011	0.0000000E+000	0.0000000E+000	0.0000000E+000	-83.1011	0.0000000E+000	0.0000000E+000	0.0000000E+000	-6.89889	0.0000000E+000	0.0000000E+000	0.0000000E+000	6.89889	8.2649	83.1011	-7.05695e-06	-0.00022911	-1.77484e-08	-0.000229092	3.78757	62624.8	4.85135	62619.9
251206	0.734729	0.29212	0.790671	-21.6822	4.47757	3.78781	-0.0632413	2.16884	0.296046	1	9	0.00176573	0.00223321	0	-0.000100937	0.000159799	3.63869e-05	82.5939	0.0162936	0.00210025	-0.0161576	-20.5323	0.786811	0.736829	0.275962	1.17526	0.467272	1.26475	21.6822	296.046	744.604	801.298	-68.3178	0.0000000E+000	0.0000000E+000	0.0000000E+000	68.3178	0.0000000E+000	0.0000000E+000	0.0000000E+000	-68.3178	0.0000000E+000	0.0000000E+000	0.0000000E+000	-21.6822	0.0000000E+000	0.0000000E+000	0.0000000E+000	21.6822	2.51516	68.3178	-8.71642e-06	-0.000239546	-1.01059e-08	-0.000239536	3.78765	59894.6	2.52681	59892
158486	0.818335	0.488583	0.953092	-30.8391	5.24355	3.78776	-0.0721802	2.05537	0.540129	1	9	0.00504567	0.005294	0	-0.000112306	0.000312525	3.22382e-05	55.7365	0.00608957	0.00342842	-0.00503277	-30.4738	0.953475	0.821763	0.48355	0.900868	0.537859	1.04922	30.8391	540.129	904.67	1053.64	-59.1609	0.0000000E+000	0.0000000E+000	0.0000000E+000	59.1609	0.0000000E+000	0.0000000E+000	0.0000000E+000	-59.1609	0.0000000E+000	0.0000000E+000	0.0000000E+000	-30.8391	0.0000000E+000	0.0000000E+000	0.0000000E+000	30.8391	1.67491	59.1609	-2.5708e-06	-0.000273401	-2.25582e-08	-0.000273379	3.78745	52476.4	4.3298	52472.1
100004	0.975063	0.687494	1.19306	-35.1867	6.01155	3.78771	-0.0726644	2.31492	0.768682	1	9	0.00537611	0.00450615	0	-0.000144818	0.000331616	1.53046e-05	60.7731	0.00339637	0.00165835	-0.00296399	-35.0245	1.19271	0.976722	0.68453	0.685026	0.482995	0.83818	35.1867	768.683	1090.21	1333.95	-54.8133	0.0000000E+000	0.0000000E+000	0.0000000E+000	54.8133	0.0000000E+000	0.0000000E+000	0.0000000E+000	-54.8133	0.0000000E+000	0.0000000E+000	0.0000000E+000	-35.1867	0.0000000E+000	0.0000000E+000	0.0000000E+000	35.1867	1.41829	54.8132	-1.54649e-05	-0.000275232	-2.40967e-08	-0.000275208	3.78738	52126.1	4.56367	52121.5
63093.8	1.22322	0.900591	1.51899	-36.3622	6.77752	3.78771	-0.0720313	2.80095	0.984578	1	9	0.00533124	0.00350973	0	-0.000152029	0.000121617	2.32054e-05	-87.6757	0.00661175	0.000268149	0.00660631	-36.5563	1.52313	1.22349	0.907197	0.530145	0.390317	0.658332	36.3622	984.579	1337.3	1660.65	-53.6378	0.0000000E+000	0.0000000E+000	0.0000000E+000	53.6378	0.0000000E+000	0.0000000E+000	0.0000000E+000	-53.6378	0.0000000E+000	0.0000000E+000	0.0000000E+000	-36.3622	0.0000000E+000	0.0000000E+000	0.0000000E+000	36.3622	1.35824	53.6378	2.62313e-06	-0.000272834	-8.76023e-09	-0.000272825	3.78759	52584.2	1.68839	52582.5
39814.1	1.57462	1.07994	1.90937	-34.4438	7.54755	3.78769	-0.0638372	3.70157	1.18413	1	9	0.00527544	0.00276292	0	-0.000163624	0.000484343	1.12988e-05	0.723146	0.00408943	0.00408911	-5.16125e-05	-34.3732	1.91272	1.57871	1.07988	0.431912	0.296222	0.523732	34.4438	1184.13	1726.55	2093.6	-55.5562	0.0000000E+000	0.0000000E+000	0.0000000E+000	55.5562	0.0000000E+000	0.0000000E+000	0.0000000E+000	-55.5562	0.0000000E+000	0.0000000E+000	0.0000000E+000	-34.4438	0.0000000E+000	0.0000000E+000	0.0000000E+000	34.4438	1.45807	55.5562	-6.60381e-06	-0.000241796	-3.09191e-08	-0.000241765	3.78721	59333.6	7.58716	59326
25116.9	2.0026	1.1534	2.311	-29.9399	8.31352	3.78769	-0.0709512	5.4938	1.36847	1	9	0.00521482	0.00225652	0	-0.000187526	-0.000164746	6.93096e-06	66.1141	0.00307153	0.00124372	-0.00280846	-29.8642	2.31068	2.00384	1.15059	0.374967	0.215963	0.432713	29.9399	1368.47	2376	2741.91	-60.0601	0.0000000E+000	0.0000000E+000	0.0000000E+000	60.0601	0.0000000E+000	0.0000000E+000	0.0000000E+000	-60.0601	0.0000000E+000	0.0000000E+000	0.0000000E+000	-29.9399	0.0000000E+000	0.0000000E+000	0.0000000E+000	29.9399	1.73625	60.0601	-1.26311e-05	-0.000268741	1.16889e-08	-0.000268753	3.78786	53384.5	2.32196	53386.8
15847.7	2.41566	1.12454	2.66459	-24.963	9.07955	3.78769	-0.0609693	8.93055	1.59064	1	9	0.00518398	0.00194551	0	-0.000201497	0.000236162	1.09761e-05	-72.0768	0.00564174	0.0017362	0.00536794	-25.0518	2.66843	2.4174	1.12991	0.340233	0.158386	0.375293	24.963	1590.64	3416.89	3768.99	-65.037	0.0000000E+000	0.0000000E+000	0.0000000E+000	65.037	0.0000000E+000	0.0000000E+000	0.0000000E+000	-65.037	0.0000000E+000	0.0000000E+000	0.0000000E+000	-24.963	0.0000000E+000	0.0000000E+000	0.0000000E+000	24.963	2.14813	65.037	-6.54198e-06	-0.000230933	-1.43986e-08	-0.000230918	3.78745	62124.5	3.87346	62120.6
10002.2	2.76172	1.05176	2.95522	-20.8486	9.84755	3.78769	-0.0629433	15.1289	1.91629	1	9	0.00509351	0.00172357	0	-0.000214982	4.52537e-05	5.96339e-06	-29.5003	0.00345991	0.00301134	0.00170376	-20.8587	2.95864	2.76473	1.05346	0.316229	0.120431	0.338385	20.8486	1916.29	5031.82	5384.36	-69.1514	0.0000000E+000	0.0000000E+000	0.0000000E+000	69.1514	0.0000000E+000	0.0000000E+000	0.0000000E+000	-69.1514	0.0000000E+000	0.0000000E+000	0.0000000E+000	-20.8486	0.0000000E+000	0.0000000E+000	0.0000000E+000	20.8486	2.62581	69.1514	-4.98609e-06	-0.00023841	-2.84842e-09	-0.000238407	3.78764	60176.2	0.718959	60175.5
6309.38	3.03403	0.963991	3.18349	-17.6264	10.4895	3.78768	-0.0597029	26.1674	2.39938	1	9	0.0054209	0.00170281	0	-0.000227622	0.000446161	3.29245e-06	-21.5274	0.00193353	0.00179865	0.000709501	-17.6288	3.18542	3.03583	0.964701	0.299373	0.0951186	0.31412	17.6264	2399.38	7551.72	7923.73	-72.3736	0.0000000E+000	0.0000000E+000	0.0000000E+000	72.3736	0.0000000E+000	0.0000000E+000	0.0000000E+000	-72.3736	0.0000000E+000	0.0000000E+000	0.0000000E+000	-17.6264	0.0000000E+000	0.0000000E+000	0.0000000E+000	17.6264	3.14736	72.3736	-4.69688e-06	-0.000226136	-2.66371e-08	-0.000226109	3.78724	63442.2	7.47302	63434.7
3983.6	3.26698	0.953328	3.40323	-16.2676	11.176	3.78765	-0.0450653	41.9085	3.28854	1	9	0.0051313	0.00150777	0	-0.000237175	0.000140708	9.96742e-06	-56.2318	0.00661069	0.00367445	0.00549542	-16.339	3.4083	3.27065	0.958823	0.282074	0.0823112	0.293838	16.2676	3288.54	11269.6	11739.6	-73.7324	0.0000000E+000	0.0000000E+000	0.0000000E+000	73.7324	0.0000000E+000	0.0000000E+000	0.0000000E+000	-73.7324	0.0000000E+000	0.0000000E+000	0.0000000E+000	-16.2676	0.0000000E+000	0.0000000E+000	0.0000000E+000	16.2676	3.42692	73.7324	-3.08813e-06	-0.000170692	-6.34104e-09	-0.000170685	3.78751	84048	3.12231	84044.9
2510.8	3.48287	0.971354	3.61578	-15.5835	12.0008	3.78762	-0.0688654	65.2574	4.70956	1	9	0.00517873	0.00143226	0	-0.000252384	0.000388889	8.05447e-06	22.5156	0.00562363	0.00519497	-0.00215348	-15.5286	3.62021	3.48806	0.9692	0.266399	0.0742972	0.276565	15.5835	4709.56	16886.5	17530.9	-74.4165	0.0000000E+000	0.0000000E+000	0.0000000E+000	74.4165	0.0000000E+000	0.0000000E+000	0.0000000E+000	-74.4165	0.0000000E+000	0.0000000E+000	0.0000000E+000	-15.5835	0.0000000E+000	0.0000000E+000	0.0000000E+000	15.5835	3.58558	74.4165	-8.06805e-06	-0.000260836	-2.6781e-08	-0.000260809	3.78723	55000.2	5.64708	54994.6
1585.51	3.73278	1.03317	3.87312	-15.4712	13.1478	3.78763	-0.0871736	97.1586	6.91354	1	10	0.00517667	0.00133656	0	-0.000277207	0.000102526	7.62578e-06	-44.3465	0.00570552	0.00408016	0.00398814	-15.5119	3.87812	3.73686	1.03716	0.248834	0.068873	0.25819	15.4712	6913.54	24978.2	25917.4	-74.5288	0.0000000E+000	0.0000000E+000	0.0000000E+000	74.5288	0.0000000E+000	0.0000000E+000	0.0000000E+000	-74.5288	0.0000000E+000	0.0000000E+000	0.0000000E+000	-15.4712	0.0000000E+000	0.0000000E+000	0.0000000E+000	15.4712	3.61294	74.5288	-1.1793e-05	-0.000330182	-8.93758e-09	-0.000330173	3.78753	43449.3	1.17612	43448.2
1000.32	4.03611	1.14377	4.19505	-15.8219	14.0498	3.78765	-0.0850465	139.105	10.3406	1	10	0.0051567	0.00122924	0	-0.000299701	0.00017889	1.0559e-05	-115.043	0.00858989	-0.00363612	0.00778235	-15.9377	4.19368	4.03248	1.15155	0.229345	0.0649929	0.238376	15.8219	10340.6	36489.7	37926.6	-74.1781	0.0000000E+000	0.0000000E+000	0.0000000E+000	74.1781	0.0000000E+000	0.0000000E+000	0.0000000E+000	-74.1781	0.0000000E+000	0.0000000E+000	0.0000000E+000	-15.8219	0.0000000E+000	0.0000000E+000	0.0000000E+000	15.8219	3.52877	74.1781	-1.14775e-05	-0.000322126	-1.52139e-08	-0.000322111	3.78747	44536.2	2.10343	44534.1
631.01	4.4007	1.27331	4.58121	-16.1374	14.9515	3.78765	-0.0852625	198.085	15.3023	1	10	0.00511099	0.00111564	0	-0.00031945	0.00040798	1.40302e-05	25.9641	0.0125759	0.0113066	-0.00550584	-16.0321	4.59055	4.41201	1.2678	0.209682	0.0606698	0.218283	16.1374	15302.3	52886.6	55055.9	-73.8626	0.0000000E+000	0.0000000E+000	0.0000000E+000	73.8626	0.0000000E+000	0.0000000E+000	0.0000000E+000	-73.8626	0.0000000E+000	0.0000000E+000	0.0000000E+000	-16.1374	0.0000000E+000	0.0000000E+000	0.0000000E+000	16.1374	3.45612	73.8626	-9.54004e-06	-0.000322944	-3.47854e-08	-0.00032291	3.78724	44423.3	4.78498	44418.5
398.089	4.86048	1.357	5.04635	-15.5992	15.8529	3.78764	-0.08508	294.619	21.3041	1	10	0.00507629	0.00100593	0	-0.000340256	7.07199e-06	1.08463e-05	85.9452	0.0107823	0.000762427	-0.0107554	-15.4792	5.04421	4.86124	1.34624	0.190864	0.0532874	0.198163	15.5992	21304.1	76306.8	79225	-74.4008	0.0000000E+000	0.0000000E+000	0.0000000E+000	74.4008	0.0000000E+000	0.0000000E+000	0.0000000E+000	-74.4008	0.0000000E+000	0.0000000E+000	0.0000000E+000	-15.5992	0.0000000E+000	0.0000000E+000	0.0000000E+000	15.5992	3.58178	74.4008	-1.11626e-05	-0.000322252	-6.01685e-10	-0.000322252	3.78763	44518.6	0.0831217	44518.5
251.044	5.36774	1.35113	5.53517	-14.1286	16.751	3.78764	-0.0842456	469.217	27.9578	1	10	0.00505712	0.000913633	0	-0.000360738	0.000274344	1.19717e-05	-4.10058	0.0131034	0.0130698	0.00093699	-14.105	5.54808	5.38081	1.35206	0.175198	0.0440995	0.180663	14.1286	27957.8	111070	114535	-75.8714	0.0000000E+000	0.0000000E+000	0.0000000E+000	75.8714	0.0000000E+000	0.0000000E+000	0.0000000E+000	-75.8714	0.0000000E+000	0.0000000E+000	0.0000000E+000	-14.1286	0.0000000E+000	0.0000000E+000	0.0000000E+000	14.1286	3.97279	75.8714	-1.07008e-05	-0.000319092	-2.31122e-08	-0.000319069	3.78737	44959.5	3.25648	44956.3
158.428	5.84285	1.22329	5.96953	-11.8249	17.6559	3.78764	-0.0821073	821.219	34.4853	1	10	0.00504289	0.000844771	0	-0.000381389	-0.000107473	7.66306e-06	13.5101	0.00907117	0.00882016	-0.00211918	-11.7877	5.97773	5.85167	1.22117	0.163962	0.0343279	0.167517	11.8249	34485.3	164714	168286	-78.1751	0.0000000E+000	0.0000000E+000	0.0000000E+000	78.1751	0.0000000E+000	0.0000000E+000	0.0000000E+000	-78.1751	0.0000000E+000	0.0000000E+000	0.0000000E+000	-11.8249	0.0000000E+000	0.0000000E+000	0.0000000E+000	11.8249	4.77636	78.1751	-1.03897e-05	-0.000310993	8.82432e-09	-0.000311002	3.78775	46130.4	1.30893	46131.7
100.032	6.22349	1.0311	6.30833	-9.40724	18.5548	3.78764	-0.082003	1543.05	41.2243	1	10	0.00503246	0.000797748	0	-0.00040122	0.000369798	4.27805e-06	-39.9031	0.00536266	0.00411386	0.0034401	-9.43194	6.31295	6.22761	1.03454	0.156389	0.0259103	0.158521	9.40724	41224.3	248821	252212	-80.5928	0.0000000E+000	0.0000000E+000	0.0000000E+000	80.5928	0.0000000E+000	0.0000000E+000	0.0000000E+000	-80.5928	0.0000000E+000	0.0000000E+000	0.0000000E+000	-9.40724	0.0000000E+000	0.0000000E+000	0.0000000E+000	9.40724	6.03577	80.5928	-9.03048e-06	-0.000310598	-3.03245e-08	-0.000310567	3.78727	46189	4.50957	46184.5
63.0823	6.5092	0.801644	6.55837	-7.02094	19.472	3.78764	-0.0797082	3147.25	47.0221	1	10	0.00503268	0.000767367	0	-0.000421561	0.000350707	5.43708e-06	47.4381	0.00708537	0.00479245	-0.00521871	-6.97061	6.5625	6.51399	0.796425	0.151333	0.0186376	0.152477	7.02094	47022.1	381810	384695	-82.9791	0.0000000E+000	0.0000000E+000	0.0000000E+000	82.9791	0.0000000E+000	0.0000000E+000	0.0000000E+000	-82.9791	0.0000000E+000	0.0000000E+000	0.0000000E+000	-7.02094	0.0000000E+000	0.0000000E+000	0.0000000E+000	7.02094	8.11981	82.9791	-9.83937e-06	-0.000301907	-2.79543e-08	-0.000301879	3.78729	47518.9	4.39989	47514.5
39.8089	6.67544	0.605408	6.70283	-5.18208	20.3729	3.78763	-0.0805464	6603.77	53.873	1	10	0.00502702	0.000749985	0	-0.00044245	-1.20189e-05	9.04851e-06	29.8027	0.0120649	0.0104692	-0.00599644	-5.12304	6.71272	6.6859	0.599411	0.148581	0.0134751	0.149191	5.18208	53873	594022	596460	-84.8179	0.0000000E+000	0.0000000E+000	0.0000000E+000	84.8179	0.0000000E+000	0.0000000E+000	0.0000000E+000	-84.8179	0.0000000E+000	0.0000000E+000	0.0000000E+000	-5.18208	0.0000000E+000	0.0000000E+000	0.0000000E+000	5.18208	11.0263	84.8179	-1.05301e-05	-0.00030508	9.68076e-10	-0.000305081	3.78764	47024.2	0.149216	47024.4
25.1044	6.78759	0.443562	6.80207	-3.7389	21.252	3.78763	-0.0805613	14292.7	60.7774	1	10	0.00502538	0.000738802	0	-0.00046273	0.000236162	5.59986e-06	80.0361	0.00757965	0.0013115	-0.00746533	-3.67544	6.8029	6.78891	0.436097	0.146701	0.00958677	0.147014	3.7389	60777.4	930043	932027	-86.2611	0.0000000E+000	0.0000000E+000	0.0000000E+000	86.2611	0.0000000E+000	0.0000000E+000	0.0000000E+000	-86.2611	0.0000000E+000	0.0000000E+000	0.0000000E+000	-3.7389	0.0000000E+000	0.0000000E+000	0.0000000E+000	3.7389	15.3025	86.2611	-9.00745e-06	-0.000305136	-1.90255e-08	-0.000305117	3.78739	47015.5	2.93146	47012.6
15.8576	6.8641	0.346396	6.87283	-2.88897	22.13	3.78765	-0.0804272	28974.1	73.6011	1	10	0.00503536	0.000732647	0	-0.000486011	0.000102526	5.38644e-06	-47.3047	0.00735203	0.00498541	0.00540352	-2.93184	6.87809	6.86908	0.351799	0.145315	0.00733333	0.1455	2.88897	73601.2	1.45846e+06	1.46032e+06	-87.111	0.0000000E+000	0.0000000E+000	0.0000000E+000	87.111	0.0000000E+000	0.0000000E+000	0.0000000E+000	-87.111	0.0000000E+000	0.0000000E+000	0.0000000E+000	-2.88897	0.0000000E+000	0.0000000E+000	0.0000000E+000	2.88897	19.8158	87.111	-1.2579e-05	-0.00030463	-8.2459e-09	-0.000304622	3.78754	47094.1	1.27477	47092.8
10.0032	6.90983	0.27371	6.91525	-2.26839	23.1118	3.78763	-0.0785534	58128.8	91.0659	1	10	0.00503095	0.000727516	0	-0.000502678	0.000236162	1.45864e-05	-70.2571	0.0200495	0.00677273	0.018871	-2.42224	6.92278	6.9166	0.29258	0.144495	0.00572367	0.144608	2.26839	91065.9	2.29897e+06	2.30077e+06	-87.7316	0.0000000E+000	0.0000000E+000	0.0000000E+000	87.7316	0.0000000E+000	0.0000000E+000	0.0000000E+000	-87.7316	0.0000000E+000	0.0000000E+000	0.0000000E+000	-2.26839	0.0000000E+000	0.0000000E+000	0.0000000E+000	2.26839	25.2451	87.7316	-4.12794e-06	-0.000297532	-1.85513e-08	-0.000297513	3.7874	48217.3	3.00639	48214.3
6.31058	6.94792	0.224487	6.95154	-1.85058	24.0353	3.78764	-0.0797939	112347	117.16	1	10	0.00502374	0.00072268	0	-0.00052585	0.000255253	7.75738e-06	-115.514	0.0107342	-0.00462351	0.0096874	-1.93166	6.94724	6.94329	0.234174	0.143778	0.00464546	0.143853	1.85058	117160	3.62613e+06	3.62802e+06	-88.1494	0.0000000E+000	0.0000000E+000	0.0000000E+000	88.1494	0.0000000E+000	0.0000000E+000	0.0000000E+000	-88.1494	0.0000000E+000	0.0000000E+000	0.0000000E+000	-1.85058	0.0000000E+000	0.0000000E+000	0.0000000E+000	1.85058	30.9502	88.1494	-5.34496e-06	-0.000302231	-2.03676e-08	-0.00030221	3.78738	47467.7	3.1989	47464.5
3.97785	6.99701	0.22112	7.00051	-1.81007	25.0424	3.78765	-0.0728073	180943	180.527	1	10	0.00502671	0.000718049	0	-0.000545539	0.000427071	8.6906e-06	-14.7738	0.0121031	0.0117029	0.00308634	-1.83225	7.0123	7.00872	0.224207	0.142776	0.00451201	0.142847	1.81007	180527	5.71249e+06	5.71534e+06	-88.1899	0.0000000E+000	0.0000000E+000	0.0000000E+000	88.1899	0.0000000E+000	0.0000000E+000	0.0000000E+000	-88.1899	0.0000000E+000	0.0000000E+000	0.0000000E+000	-1.81007	0.0000000E+000	0.0000000E+000	0.0000000E+000	1.81007	31.6435	88.1899	-1.63243e-05	-0.000275769	-3.10939e-08	-0.000275738	3.78723	52023	5.86577	52017.1
2.51367	7.03806	0.231286	7.04186	-1.88219	26.9639	3.78767	-0.0721419	273755	295.315	1	11	0.00502987	0.000714281	0	-0.000581435	0.000274344	2.64687e-06	102.149	0.00370564	-0.000779889	-0.00362264	-1.85293	7.04096	7.03728	0.227663	0.141931	0.00466417	0.142008	1.88219	295315	8.98647e+06	8.99132e+06	-88.1178	0.0000000E+000	0.0000000E+000	0.0000000E+000	88.1178	0.0000000E+000	0.0000000E+000	0.0000000E+000	-88.1178	0.0000000E+000	0.0000000E+000	0.0000000E+000	-1.88219	0.0000000E+000	0.0000000E+000	0.0000000E+000	1.88219	30.4301	88.1178	-7.66062e-06	-0.000273249	-1.97917e-08	-0.00027323	3.78739	52503	3.80284	52499.2
1.58469	7.09549	0.251408	7.09995	-2.02926	29.3994	3.78766	-0.0696564	399483	500.894	1	11	0.00503378	0.000708989	0	-0.000615312	0.000140708	2.12765e-06	-69.6038	0.00300097	0.00104587	0.00281283	-2.05164	7.10109	7.09654	0.254221	0.140758	0.00498734	0.140846	2.02926	500894	1.41367e+07	1.41456e+07	-87.9707	0.0000000E+000	0.0000000E+000	0.0000000E+000	87.9707	0.0000000E+000	0.0000000E+000	0.0000000E+000	-87.9707	0.0000000E+000	0.0000000E+000	0.0000000E+000	-2.02926	0.0000000E+000	0.0000000E+000	0.0000000E+000	2.02926	28.223	87.9707	-2.45294e-05	-0.000263835	-9.80121e-09	-0.000263825	3.78752	54376.4	2.02003	54374.4
1.00469	7.16273	0.275414	7.16802	-2.20199	240.216	3.78764	-0.0468074	575176	849.13	1	11	0.00497933	0.000694659	0	-0.00648446	0.00017889	1.54965e-07	12.4053	0.000223081	0.000217873	-4.79235e-05	-2.20155	7.16824	7.16294	0.275366	0.139406	0.00536028	0.139509	2.20199	849130	2.20834e+07	2.20997e+07	-87.798	0.0000000E+000	0.0000000E+000	0.0000000E+000	87.798	0.0000000E+000	0.0000000E+000	0.0000000E+000	-87.798	0.0000000E+000	0.0000000E+000	0.0000000E+000	-2.20199	0.0000000E+000	0.0000000E+000	0.0000000E+000	2.20199	26.0071	87.798	-0.00582326	-0.00017729	-8.37335e-09	-0.000177281	3.78747	80919.9	3.82183	80916
0.632957	7.22853	0.336342	7.23635	-2.66404	240.218	3.78764	-0.0468074	747593	1615.06	1	11	0.00499198	0.000689849	0	-0.00648446	0.00017889	2.94448e-07	-18.2255	0.00042683	0.000405417	0.000133494	-2.66494	7.23676	7.22893	0.336475	0.138042	0.00642306	0.138191	2.66404	1.61506e+06	3.47102e+07	3.47477e+07	-87.336	0.0000000E+000	0.0000000E+000	0.0000000E+000	87.336	0.0000000E+000	0.0000000E+000	0.0000000E+000	-87.336	0.0000000E+000	0.0000000E+000	0.0000000E+000	-2.66404	0.0000000E+000	0.0000000E+000	0.0000000E+000	2.66404	21.4916	87.336	0.000000000000000E+000	-0.00017729	-8.37335e-09	-0.000177281	3.78747	80919.9	3.82183	80916
0.401878	7.29253	0.416159	7.30439	-3.26612	240.219	3.78764	-0.0468074	951629	3089	1	11	0.00500617	0.000685365	0	-0.00648446	0.00017889	1.25608e-07	-0.713632	0.000183272	0.000183258	2.28264e-06	-3.26606	7.30457	7.29271	0.416161	0.136682	0.00779993	0.136904	3.26612	3.089e+06	5.41298e+07	5.42179e+07	-86.7339	0.0000000E+000	0.0000000E+000	0.0000000E+000	86.7339	0.0000000E+000	0.0000000E+000	0.0000000E+000	-86.7339	0.0000000E+000	0.0000000E+000	0.0000000E+000	-3.26612	0.0000000E+000	0.0000000E+000	0.0000000E+000	3.26612	17.5234	86.7339	0.000000000000000E+000	-0.00017729	-8.37335e-09	-0.000177281	3.78747	80919.9	3.82183	80916
0.251173	7.40386	0.541829	7.42366	-4.18555	240.22	3.78764	-0.0468074	1.16946e+06	6229.77	1	11	0.00500652	0.000674401	0	-0.00648446	0.00017889	8.71404e-08	19.8745	0.000129212	0.000121516	-4.39269e-05	-4.18515	7.42378	7.40399	0.541785	0.134345	0.00983163	0.134704	4.18555	6.22977e+06	8.51272e+07	8.53548e+07	-85.8144	0.0000000E+000	0.0000000E+000	0.0000000E+000	85.8144	0.0000000E+000	0.0000000E+000	0.0000000E+000	-85.8144	0.0000000E+000	0.0000000E+000	0.0000000E+000	-4.18555	0.0000000E+000	0.0000000E+000	0.0000000E+000	4.18555	13.6646	85.8144	0.000000000000000E+000	-0.00017729	-8.37335e-09	-0.000177281	3.78747	80919.9	3.82183	80916
0.160751	7.55346	0.626158	7.57936	-4.73881	240.221	3.78764	-0.0468074	1.58118e+06	10791.6	1	11	0.00500225	0.000659983	0	-0.00648446	0.00017889	3.54229e-07	21.8322	0.000536724	0.000498229	-0.000199602	-4.73699	7.57984	7.55395	0.625958	0.131486	0.0108998	0.131937	4.73881	1.07916e+07	1.30181e+08	1.30627e+08	-85.2612	0.0000000E+000	0.0000000E+000	0.0000000E+000	85.2612	0.0000000E+000	0.0000000E+000	0.0000000E+000	-85.2612	0.0000000E+000	0.0000000E+000	0.0000000E+000	-4.73881	0.0000000E+000	0.0000000E+000	0.0000000E+000	4.73881	12.0632	85.2612	0.000000000000000E+000	-0.00017729	-8.37335e-09	-0.000177281	3.78747	80919.9	3.82183	80916
0.100469	7.69724	0.860164	7.74515	-6.37633	240.223	3.78764	-0.0468074	1.84164e+06	22714.8	1	11	0.00500469	0.000646171	0	-0.00648446	0.00017889	3.74047e-07	-89.5927	0.000578867	4.11472e-06	0.000578852	-6.38058	7.74522	7.69724	0.860743	0.128314	0.0143391	0.129113	6.37633	2.27147e+07	2.03265e+08	2.0453e+08	-83.6237	0.0000000E+000	0.0000000E+000	0.0000000E+000	83.6237	0.0000000E+000	0.0000000E+000	0.0000000E+000	-83.6237	0.0000000E+000	0.0000000E+000	0.0000000E+000	-6.37633	0.0000000E+000	0.0000000E+000	0.0000000E+000	6.37633	8.94857	83.6237	0.000000000000000E+000	-0.00017729	-8.37335e-09	-0.000177281	3.78747	80919.9	3.82183	80916
0.0602816	7.97339	1.03248	8.03996	-7.37818	240.224	3.78764	-0.0468074	2.55714e+06	42170.3	1	11	0.00500017	0.000621915	0	-0.00648446	0.00017889	4.64238e-07	26.3804	0.000746465	0.000668731	-0.000331676	-7.37523	8.04058	7.97406	1.03214	0.123349	0.0159725	0.124379	7.37818	4.21703e+07	3.25664e+08	3.28383e+08	-82.6218	0.0000000E+000	0.0000000E+000	0.0000000E+000	82.6218	0.0000000E+000	0.0000000E+000	0.0000000E+000	-82.6218	0.0000000E+000	0.0000000E+000	0.0000000E+000	-7.37818	0.0000000E+000	0.0000000E+000	0.0000000E+000	7.37818	7.7226	82.6218	0.000000000000000E+000	-0.00017729	-8.37335e-09	-0.000177281	3.78747	80919.9	3.82183	80916
0.0401878	8.28655	1.2209	8.37601	-8.38139	240.225	3.78764	-0.0468074	3.24374e+06	68918	1	11	0.00499867	0.000596784	0	-0.00648446	0.00017889	6.30812e-07	34.4926	0.00105702	0.000871194	-0.000598591	-8.37647	8.37678	8.28742	1.2203	0.118114	0.0174023	0.119389	8.38139	6.8918e+07	4.67763e+08	4.72813e+08	-81.6186	0.0000000E+000	0.0000000E+000	0.0000000E+000	81.6186	0.0000000E+000	0.0000000E+000	0.0000000E+000	-81.6186	0.0000000E+000	0.0000000E+000	0.0000000E+000	-8.38139	0.0000000E+000	0.0000000E+000	0.0000000E+000	8.38139	6.78724	81.6186	0.000000000000000E+000	-0.00017729	-8.37335e-09	-0.000177281	3.78747	80919.9	3.82183	80916
0.0200939	9.01691	1.79975	9.19477	-11.2877	240.226	3.78764	-0.0468074	4.40094e+06	168611	1	11	0.00500066	0.000543859	0	-0.00648446	0.00017889	4.88617e-07	-64.5458	0.000898426	0.000386134	0.000811216	-11.2922	9.19531	9.0173	1.80056	0.106654	0.0212878	0.108757	11.2877	1.68611e+08	8.44758e+08	8.61421e+08	-78.7123	0.0000000E+000	0.0000000E+000	0.0000000E+000	78.7123	0.0000000E+000	0.0000000E+000	0.0000000E+000	-78.7123	0.0000000E+000	0.0000000E+000	0.0000000E+000	-11.2877	0.0000000E+000	0.0000000E+000	0.0000000E+000	11.2877	5.0101	78.7123	0.000000000000000E+000	-0.00017729	-8.37335e-09	-0.000177281	3.78747	80919.9	3.82183	80916
0.00796479	10.709	2.04351	10.9022	-10.8034	20329.2	3.78762	0.00106627	9.77842e+06	343554	1	11	0.00499468	0.000458135	0	-0.0343867	0.000236162	2.1682e-07	-127.872	0.000473267	-0.000290541	0.000373588	-10.8057	10.902	10.7087	2.04389	0.0900989	0.0171929	0.0917246	10.8034	3.43554e+08	1.80038e+09	1.83287e+09	-79.1965	0.0000000E+000	0.0000000E+000	0.0000000E+000	79.1965	0.0000000E+000	0.0000000E+000	0.0000000E+000	-79.1965	0.0000000E+000	0.0000000E+000	0.0000000E+000	-10.8034	0.0000000E+000	0.0000000E+000	0.0000000E+000	10.8034	5.24047	79.1965	-0.0279022	4.03862e-06	2.51812e-10	4.03837e-06	3.78738	3.55222e+06	221.485	3.552e+06
0.00497799	11.3816	2.04678	11.5642	-10.1947	20329.2	3.78762	0.00106627	1.56205e+07	489336	1	11	0.00500138	0.000432489	0	-0.0343867	0.000236162	4.23337e-07	-74.6247	0.000978838	0.00025953	0.000943805	-10.199	11.5646	11.3819	2.04773	0.0851086	0.0153053	0.0864739	10.1947	4.89336e+08	2.72107e+09	2.76472e+09	-79.8053	0.0000000E+000	0.0000000E+000	0.0000000E+000	79.8053	0.0000000E+000	0.0000000E+000	0.0000000E+000	-79.8053	0.0000000E+000	0.0000000E+000	0.0000000E+000	-10.1947	0.0000000E+000	0.0000000E+000	0.0000000E+000	10.1947	5.56074	79.8053	0.000000000000000E+000	4.03862e-06	2.51812e-10	4.03837e-06	3.78738	3.55222e+06	221.485	3.552e+06
0.00318591	11.8505	2.73769	12.1626	-13.0083	20329.2	3.78762	0.00106627	1.82474e+07	924526	1	11	0.00500449	0.000411466	0	-0.0343867	0.000236162	1.77456e-07	12.3718	0.000431277	0.000421261	-9.24031e-05	-13.0074	12.163	11.8509	2.7376	0.0801094	0.0185069	0.0822193	13.0083	9.24526e+08	4.00193e+09	4.10733e+09	-76.9917	0.0000000E+000	0.0000000E+000	0.0000000E+000	76.9917	0.0000000E+000	0.0000000E+000	0.0000000E+000	-76.9917	0.0000000E+000	0.0000000E+000	0.0000000E+000	-13.0083	0.0000000E+000	0.0000000E+000	0.0000000E+000	13.0083	4.32863	76.9917	0.000000000000000E+000	4.03862e-06	2.51812e-10	4.03837e-06	3.78738	3.55222e+06	221.485	3.552e+06
0.0019912	12.3186	3.10314	12.7035	-14.139	20329.2	3.78762	0.00106627	2.57576e+07	1.53696e+06	1	11	0.00500594	0.000394061	0	-0.0343867	0.000236162	1.23699e-06	-85.5283	0.00313909	0.000244747	0.00312953	-14.1524	12.7045	12.3189	3.10627	0.0763339	0.019229	0.0787186	14.139	1.53696e+09	6.10132e+09	6.29192e+09	-75.861	0.0000000E+000	0.0000000E+000	0.0000000E+000	75.861	0.0000000E+000	0.0000000E+000	0.0000000E+000	-75.861	0.0000000E+000	0.0000000E+000	0.0000000E+000	-14.139	0.0000000E+000	0.0000000E+000	0.0000000E+000	14.139	3.96973	75.861	0.000000000000000E+000	4.03862e-06	2.51812e-10	4.03837e-06	3.78738	3.55222e+06	221.485	3.552e+06
0.00129428	12.2646	3.91136	12.8732	-17.6882	20329.2	3.78762	0.00106627	3.14388e+07	2.90233e+06	1	11	0.00500721	0.000388964	0	-0.0343867	0.000236162	9.57709e-07	-8.36528	0.0024622	0.00243601	0.00035821	-17.6864	12.8756	12.267	3.91171	0.0740083	0.0236023	0.0776808	17.6882	2.90233e+09	9.10067e+09	9.55226e+09	-72.3118	0.0000000E+000	0.0000000E+000	0.0000000E+000	72.3118	0.0000000E+000	0.0000000E+000	0.0000000E+000	-72.3118	0.0000000E+000	0.0000000E+000	0.0000000E+000	-17.6882	0.0000000E+000	0.0000000E+000	0.0000000E+000	17.6882	3.13564	72.3118	0.000000000000000E+000	4.03862e-06	2.51812e-10	4.03837e-06	3.78738	3.55222e+06	221.485	3.552e+06
0.000796479	13.278	5.1346	14.2362	-21.1415	20329.2	3.78762	0.00106627	3.8917e+07	5.0625e+06	1	11	0.0050022	0.000351372	0	-0.0343867	0.000236162	3.28107e-06	-3.58453	0.00933787	0.0093196	0.000583814	-21.1302	14.2451	13.2873	5.13519	0.0655156	0.0253349	0.0702435	21.1415	5.0625e+09	1.30915e+10	1.40363e+10	-68.8585	0.0000000E+000	0.0000000E+000	0.0000000E+000	68.8585	0.0000000E+000	0.0000000E+000	0.0000000E+000	-68.8585	0.0000000E+000	0.0000000E+000	0.0000000E+000	-21.1415	0.0000000E+000	0.0000000E+000	0.0000000E+000	21.1415	2.58598	68.8585	0.000000000000000E+000	4.03862e-06	2.51812e-10	4.03837e-06	3.78738	3.55222e+06	221.485	3.552e+06
0.000497799	12.9298	7.43215	14.9136	-29.8907	20329.2	3.78762	0.00106627	4.30181e+07	1.06835e+07	1	11	0.00500232	0.00033542	0	-0.0343867	0.000236162	1.41967e-06	-64.6306	0.0042325	0.00181343	0.00382434	-29.8999	14.9171	12.9316	7.43597	0.0581333	0.0334156	0.0670528	29.8907	1.06835e+10	1.85862e+10	2.14379e+10	-60.1093	0.0000000E+000	0.0000000E+000	0.0000000E+000	60.1093	0.0000000E+000	0.0000000E+000	0.0000000E+000	-60.1093	0.0000000E+000	0.0000000E+000	0.0000000E+000	-29.8907	0.0000000E+000	0.0000000E+000	0.0000000E+000	29.8907	1.73971	60.1093	0.000000000000000E+000	4.03862e-06	2.51812e-10	4.03837e-06	3.78738	3.55222e+06	221.485	3.552e+06
0.000298679	12.7757	11.3108	17.0632	-41.5199	20329.2	3.78762	0.00106627	4.71107e+07	2.07009e+07	1	11	0.00500586	0.000293372	0	-0.0343867	0.000236162	1.46386e-06	9.15862	0.00498979	0.00492618	-0.000794216	-41.5069	17.0664	12.7806	11.3101	0.0438796	0.0388485	0.0586057	41.5199	2.07009e+10	2.33818e+10	3.12287e+10	-48.4801	0.0000000E+000	0.0000000E+000	0.0000000E+000	48.4801	0.0000000E+000	0.0000000E+000	0.0000000E+000	-48.4801	0.0000000E+000	0.0000000E+000	0.0000000E+000	-41.5199	0.0000000E+000	0.0000000E+000	0.0000000E+000	41.5199	1.1295	48.4801	0.000000000000000E+000	4.03862e-06	2.51812e-10	4.03837e-06	3.78738	3.55222e+06	221.485	3.552e+06
9.95598e-05	14.883	38.0976	40.9014	-68.6617	20329.2	3.78762	0.00106627	4.19603e+07	3.64046e+07	1	11	0.00501242	0.000122549	0	-0.0343867	0.000236162	1.60334e-06	10.2532	0.0130833	0.0128744	-0.00232881	-68.6437	40.904	14.8959	38.0952	0.00889638	0.022773	0.024449	68.6617	3.64046e+10	1.42216e+10	3.90839e+10	-21.3383	0.0000000E+000	0.0000000E+000	0.0000000E+000	21.3383	0.0000000E+000	0.0000000E+000	0.0000000E+000	-21.3383	0.0000000E+000	0.0000000E+000	0.0000000E+000	-68.6617	0.0000000E+000	0.0000000E+000	0.0000000E+000	68.6617	0.390655	21.3383	0.000000000000000E+000	4.03862e-06	2.51812e-10	4.03837e-06	3.78738	3.55222e+06	221.485	3.552e+06