File: txt/17550_R290_UC83_50SOC_C06.mpt
EC-Lab ASCII FILE
Nb header lines : 64

Potentio Electrochemical Impedance Spectroscopy

Run on channel : 6 (SN 65795)
User :
CE vs. WE compliance from -10 V to 10 V
Electrode connection : standard
Potential control : Ewe
Ewe ctrl range : min = -10.00 V, max = 10.00 V
Safety Limits :
	Do not start on E overload
Acquisition started on : 09/16/2025 16:58:22.065
Loaded Setting File :  C:\Users\Celltest\OneDrive - store-dot.com\Documents\EC-Lab\Data\Michael\R290\17544_R290_UC82_50SOC.mps
Saved on :
	File : 17550_R290_UC83_50SOC_C06.mpr
	Directory : C:\Users\Celltest\OneDrive - store-dot.com\Documents\EC-Lab\Data\Michael\R290\
	Host : 169.254.61.224
Device : VMP-3e (SN .003165)
Address : USB
EC-LAB for windows v11.62 (software)
Internet server v27.00 (firmware)
Command interpretor v12.03 (firmware)
Electrode material :
Initial state :
Electrolyte :
Comments :
Electrode surface area : 0.001 cm²
Characteristic mass : 0.001 g
Equivalent Weight : 0.000 g/eq.
Density : 0.000 g/cm3
Volume (V) : 0.001 cm³
Record Ece
Cycle Definition : Charge/Discharge alternance
Mode                Multi sine
E (V)               0.0000
vs.                 Eoc
tE (h:m:s)          0:00:0.0000
record              0
dI                  0.000
unit dI             mA
dt (s)              0.000
fi                  1.000
unit fi             MHz
ff                  0.100
unit ff             mHz
Nd                  10
Points              per decade
spacing             Logarithmic
Va (mV)             5.0
pw                  0.10
Na                  2
corr                0
E range min (V)     -10.000
E range max (V)     10.000
I Range             Auto
Bandwidth           5
nc cycles           0
goto Ns'            0
nr cycles           0
inc. cycle          0

freq/Hz	Re(Z)/Ohm	-Im(Z)/Ohm	|Z|/Ohm	Phase(Z)/deg	time/s	<Ewe>/V	<I>/mA	Cs/µF	Cp/µF	cycle number	I Range	|Ewe|/V	|I|/A	Ns	(Q-Qo)/mA.h	<Ece>/V	|Ece|/V	Phase(Zce)/deg	|Zce|/Ohm	Re(Zce)/Ohm	-Im(Zce)/Ohm	Phase(Zwe-ce)/deg	|Zwe-ce|/Ohm	Re(Zwe-ce)/Ohm	-Im(Zwe-ce)/Ohm	Re(Y)/Ohm-1	Im(Y)/Ohm-1	|Y|/Ohm-1	Phase(Y)/deg	Re(C)/nF	Im(C)/nF	|C|/nF	Phase(C)/deg	Re(M)	Im(M)	|M|	Phase(M)/deg	Re(Permittivity)	Im(Permittivity)	|Permittivity|	Phase(Permittivity)/deg	Re(Resistivity)/Ohm.cm	Im(Resistivity)/Ohm.cm	|Resistivity|/Ohm.cm	Phase(Resistivity)/deg	Re(Conductivity)/mS/cm	Im(Conductivity)/mS/cm	|Conductivity|/mS/cm	Phase(Conductivity)/deg	Tan(Delta)	Loss Angle(Delta)/deg	dq/mA.h	Pwe/W	Pce/W	Pwe-ce/W	<Ewe-Ece>/V	Rwe/Ohm	Rce/Ohm	Rwe-ce/Ohm		Ewe-Ece/V
1.00002e+06	1.24309	5.06162	5.21203	-76.2017	2.23457	3.79271	0.00573448	0.0314429	0.0296543	1	10	0.000211681	4.06139e-05	0	-5.39969e-06	-0.000172193	0.000202195	-65.2841	4.97847	2.08159	4.5224	-70.8684	10.1443	3.32468	9.58402	0.0457604	0.186327	0.191864	76.2017	29.6543	7.28286	30.5355	-13.7983	0.0000000E+000	0.0000000E+000	0.0000000E+000	13.7983	0.0000000E+000	0.0000000E+000	0.0000000E+000	-13.7983	0.0000000E+000	0.0000000E+000	0.0000000E+000	-76.2017	0.0000000E+000	0.0000000E+000	0.0000000E+000	76.2017	0.245592	13.7983	-5.39969e-06	2.17492e-05	-9.8744e-10	2.17502e-05	3.79288	661386	30.0277	661416
630957	0.464793	0.368474	0.593132	-38.4063	3.40352	3.79249	0.0593323	0.684563	0.264195	1	9	0.000119776	0.000201938	0	8.00734e-06	0.000209767	9.24189e-05	-74.5888	0.457659	0.12162	0.441204	-54.0859	0.999729	0.586414	0.809678	1.32116	1.04738	1.68596	38.4063	264.195	333.255	425.274	-51.5937	0.0000000E+000	0.0000000E+000	0.0000000E+000	51.5937	0.0000000E+000	0.0000000E+000	0.0000000E+000	-51.5937	0.0000000E+000	0.0000000E+000	0.0000000E+000	-38.4063	0.0000000E+000	0.0000000E+000	0.0000000E+000	38.4063	1.2614	51.5937	6.06079e-06	0.000225017	1.2446e-08	0.000225005	3.79228	63919.6	3.53547	63916
398103	0.610008	0.0729796	0.614358	-6.82228	4.16954	3.79259	0.070768	5.47801	0.0773006	1	9	0.000304379	0.000495443	0	2.16119e-05	0.000362552	5.6605e-05	123.806	0.114251	-0.063568	-0.0949342	2.30076	0.546881	0.54644	-0.0219546	1.61619	0.193356	1.62772	6.82228	77.3006	646.125	650.733	-83.1777	0.0000000E+000	0.0000000E+000	0.0000000E+000	83.1777	0.0000000E+000	0.0000000E+000	0.0000000E+000	-83.1777	0.0000000E+000	0.0000000E+000	0.0000000E+000	-6.82228	0.0000000E+000	0.0000000E+000	0.0000000E+000	6.82228	8.35861	83.1777	6.63756e-06	0.000268394	2.56571e-08	0.000268368	3.79222	53591.8	5.1231	53586.7
251206	0.741348	0.294942	0.797864	-21.6949	4.93557	3.79248	0.0595186	2.14809	0.293541	1	9	0.00107112	0.00134249	0	3.627e-05	-0.000114899	9.04827e-05	70.7481	0.0673993	0.0222231	-0.0636302	-16.8533	0.797838	0.763571	0.231312	1.16457	0.463317	1.25335	21.6949	293.541	737.826	794.073	-68.3051	0.0000000E+000	0.0000000E+000	0.0000000E+000	68.3051	0.0000000E+000	0.0000000E+000	0.0000000E+000	-68.3051	0.0000000E+000	0.0000000E+000	0.0000000E+000	-21.6949	0.0000000E+000	0.0000000E+000	0.0000000E+000	21.6949	2.51354	68.3051	7.13403e-06	0.000225723	-6.83864e-09	0.00022573	3.79259	63719.2	1.93048	63721.1
158486	0.78358	0.498657	0.928792	-32.472	5.70156	3.79244	0.0583639	2.01385	0.580488	1	9	0.00256642	0.00276318	0	4.86898e-05	0.000152473	7.63564e-05	61.1112	0.0276335	0.01335	-0.0241947	-30.768	0.927476	0.79693	0.474462	0.908334	0.578049	1.07667	32.472	580.488	912.168	1081.21	-57.528	0.0000000E+000	0.0000000E+000	0.0000000E+000	57.528	0.0000000E+000	0.0000000E+000	0.0000000E+000	-57.528	0.0000000E+000	0.0000000E+000	0.0000000E+000	-32.472	0.0000000E+000	0.0000000E+000	0.0000000E+000	32.472	1.57138	57.528	1.02724e-05	0.000221342	8.89893e-09	0.000221333	3.79229	64979.3	2.61246	64976.7
100004	0.971465	0.682728	1.18738	-35.0989	6.46954	3.7924	0.0684586	2.33107	0.770683	1	9	0.00188855	0.00159052	0	6.60617e-05	-3.1098e-07	2.48901e-05	64.1636	0.015649	0.00681986	-0.0140847	-34.3521	1.18496	0.978284	0.668644	0.68905	0.484252	0.842193	35.0989	770.683	1096.62	1340.34	-54.9011	0.0000000E+000	0.0000000E+000	0.0000000E+000	54.9011	0.0000000E+000	0.0000000E+000	0.0000000E+000	-54.9011	0.0000000E+000	0.0000000E+000	0.0000000E+000	-35.0989	0.0000000E+000	0.0000000E+000	0.0000000E+000	35.0989	1.42292	54.9011	1.03063e-05	0.000259622	-2.12892e-11	0.000259622	3.7924	55397.1	0.0045426	55397.1
63093.8	0.0918529	-0.187937	0.209182	63.9532	7.0076	3.7924	0.0578423	-13.4221	-10.8342	1	9	5.14193e-05	0.000245811	0	7.60784e-05	-9.58012e-05	3.34574e-05	33.2572	0.13611	0.113818	-0.0746425	51.9295	0.333539	0.205671	-0.262579	2.09915	-4.29499	4.78052	-63.9532	-10834.2	5295.13	12058.9	-153.953	0.0000000E+000	0.0000000E+000	0.0000000E+000	153.953	0.0000000E+000	0.0000000E+000	0.0000000E+000	-153.953	0.0000000E+000	0.0000000E+000	0.0000000E+000	63.9532	0.0000000E+000	0.0000000E+000	0.0000000E+000	-63.9532	0.488744	26.0468	2.22045e-06	0.000219361	-5.54136e-09	0.000219367	3.7925	65564.5	1.65625	65566.1
39814.1	1.66695	1.15916	2.03037	-34.8139	7.88352	3.79241	0.066894	3.44857	1.12403	1	9	0.00147078	0.000724391	0	9.29062e-05	-0.000344076	8.88138e-06	98.0176	0.0122605	-0.00171006	-0.0121406	-34.5591	2.02205	1.66524	1.14702	0.404366	0.281187	0.492522	34.8139	1124.03	1616.43	1968.84	-55.1861	0.0000000E+000	0.0000000E+000	0.0000000E+000	55.1861	0.0000000E+000	0.0000000E+000	0.0000000E+000	-55.1861	0.0000000E+000	0.0000000E+000	0.0000000E+000	-34.8139	0.0000000E+000	0.0000000E+000	0.0000000E+000	34.8139	1.43807	55.1861	7.5103e-06	0.000253689	-2.30166e-08	0.000253712	3.79275	56692.7	5.14359	56697.9
25116.9	1.64208	2.35228	2.86873	-55.0819	9.26953	3.79245	0.0653668	2.6938	1.81118	1	9	0.00516994	0.00180217	0	-0.000133762	-0.000133997	4.92012e-06	-145.267	0.00273011	-0.00224364	0.0015555	-55.1364	2.86872	1.63983	2.35383	0.199533	0.285831	0.348586	55.0819	1811.18	1264.35	2208.84	-34.9181	0.0000000E+000	0.0000000E+000	0.0000000E+000	34.9181	0.0000000E+000	0.0000000E+000	0.0000000E+000	-34.9181	0.0000000E+000	0.0000000E+000	0.0000000E+000	-55.0819	0.0000000E+000	0.0000000E+000	0.0000000E+000	55.0819	0.69808	34.9181	8.32766e-06	0.000247901	-8.75897e-09	0.000247909	3.79259	58018	2.04993	58020.1
15847.7	2.45317	3.13861	3.98358	-51.9885	10.0356	3.79245	0.0589971	3.19975	1.9863	1	9	0.00498822	0.00125219	0	-0.000120791	0.000228865	3.37422e-06	11.1058	0.00269465	0.00264419	-0.000519048	-51.954	3.9848	2.45581	3.1381	0.154589	0.197784	0.25103	51.9885	1986.3	1552.51	2521.04	-38.0115	0.0000000E+000	0.0000000E+000	0.0000000E+000	38.0115	0.0000000E+000	0.0000000E+000	0.0000000E+000	-38.0115	0.0000000E+000	0.0000000E+000	0.0000000E+000	-51.9885	0.0000000E+000	0.0000000E+000	0.0000000E+000	51.9885	0.781608	38.0115	6.64047e-06	0.000223743	1.35024e-08	0.00022373	3.79222	64282	3.87927	64278.1
10002.2	3.66358	3.82436	5.296	-46.23	10.7095	3.79242	-0.0310876	4.16069	2.16964	1	10	0.00501993	0.000947872	0	-0.000121533	-0.000133997	1.25698e-05	-147.311	0.0132611	-0.0111608	0.00716192	-46.3709	5.29346	3.65242	3.83152	0.13062	0.136353	0.188822	46.23	2169.64	2078.43	3004.53	-43.77	0.0000000E+000	0.0000000E+000	0.0000000E+000	43.77	0.0000000E+000	0.0000000E+000	0.0000000E+000	-43.77	0.0000000E+000	0.0000000E+000	0.0000000E+000	-46.23	0.0000000E+000	0.0000000E+000	0.0000000E+000	46.23	0.95796	43.77	-1.91116e-06	-0.000117897	4.16565e-09	-0.000117901	3.79255	121991	4.31031	121996
6309.38	5.232	4.21582	6.71915	-38.861	11.3536	3.79244	-0.030905	5.98345	2.35552	1	10	0.00482347	0.000717869	0	-0.000126072	0.000324356	8.41377e-06	-113.923	0.0117205	-0.0047528	0.0107136	-38.9575	6.72218	5.22725	4.22653	0.115888	0.0933798	0.148828	38.861	2355.52	2923.29	3754.21	-51.139	0.0000000E+000	0.0000000E+000	0.0000000E+000	51.139	0.0000000E+000	0.0000000E+000	0.0000000E+000	-51.139	0.0000000E+000	0.0000000E+000	0.0000000E+000	-38.861	0.0000000E+000	0.0000000E+000	0.0000000E+000	38.861	1.24104	51.139	-1.92503e-06	-0.000117205	-1.00242e-08	-0.000117195	3.79212	122713	10.4952	122702
3983.6	6.8654	4.12499	8.00932	-30.999	11.916	3.79231	-0.0579598	9.68549	2.56907	1	10	0.00453948	0.000566775	0	-0.000132896	-9.58012e-05	1.17137e-05	-139.178	0.0206672	-0.0156399	0.0135103	-31.1396	8.0029	6.84976	4.1385	0.107022	0.064303	0.124854	30.999	2569.07	4275.81	4988.25	-59.001	0.0000000E+000	0.0000000E+000	0.0000000E+000	59.001	0.0000000E+000	0.0000000E+000	0.0000000E+000	-59.001	0.0000000E+000	0.0000000E+000	0.0000000E+000	-30.999	0.0000000E+000	0.0000000E+000	0.0000000E+000	30.999	1.66434	59.001	-4.52336e-06	-0.000219802	5.55262e-09	-0.000219807	3.79241	65430	1.65289	65431.6
2510.8	8.22704	3.75924	9.04522	-24.5574	12.9178	3.79221	-0.0111095	16.8619	2.91252	1	10	0.00492804	0.000544822	0	-0.000141136	7.60812e-05	5.416e-06	-55.924	0.00994086	0.00556979	0.00823397	-24.5902	9.05371	8.23261	3.76748	0.100555	0.0459475	0.110556	24.5574	2912.52	6374.01	7007.9	-65.4426	0.0000000E+000	0.0000000E+000	0.0000000E+000	65.4426	0.0000000E+000	0.0000000E+000	0.0000000E+000	-65.4426	0.0000000E+000	0.0000000E+000	0.0000000E+000	-24.5574	0.0000000E+000	0.0000000E+000	0.0000000E+000	24.5574	2.18848	65.4426	-1.69628e-06	-4.21298e-05	-8.45227e-10	-4.21289e-05	3.79214	341347	6.84827	341340
1585.51	9.2945	3.28628	9.85836	-19.4722	13.8198	3.79221	-0.0115195	30.5455	3.39427	1	10	0.00487017	0.000494014	0	-0.000143701	0.000267062	9.92624e-06	-10.518	0.020093	0.0197554	0.00366788	-19.4541	9.87821	9.31425	3.28995	0.0956349	0.0338139	0.101437	19.4722	3394.27	9599.93	10182.3	-70.5278	0.0000000E+000	0.0000000E+000	0.0000000E+000	70.5278	0.0000000E+000	0.0000000E+000	0.0000000E+000	-70.5278	0.0000000E+000	0.0000000E+000	0.0000000E+000	-19.4722	0.0000000E+000	0.0000000E+000	0.0000000E+000	19.4722	2.82827	70.5278	-9.50215e-07	-4.36842e-05	-3.07641e-09	-4.36812e-05	3.79194	329200	23.1835	329177
1000.32	10.1655	2.88353	10.5666	-15.8364	14.7218	3.79221	-0.0114524	55.1769	4.10899	1	10	0.00484651	0.000458664	0	-0.000145956	9.51792e-05	8.81667e-06	116.913	0.0192225	-0.00870092	-0.0171406	-15.7597	10.5535	10.1568	2.86639	0.0910459	0.0258258	0.0946379	15.8364	4108.99	14485.8	15057.3	-74.1636	0.0000000E+000	0.0000000E+000	0.0000000E+000	74.1636	0.0000000E+000	0.0000000E+000	0.0000000E+000	-74.1636	0.0000000E+000	0.0000000E+000	0.0000000E+000	-15.8364	0.0000000E+000	0.0000000E+000	0.0000000E+000	15.8364	3.52538	74.1636	-1.35509e-06	-4.34299e-05	-1.09003e-09	-4.34288e-05	3.79212	331128	8.31086	331120
631.01	10.8654	2.62041	11.1769	-13.5592	15.6236	3.79221	-0.0110201	96.253	5.29071	1	10	0.00483214	0.000432334	0	-0.000148905	-0.000114899	6.69718e-06	107.608	0.0154908	-0.0046861	-0.014765	-13.4912	11.1689	10.8607	2.60565	0.0869768	0.0209763	0.0894705	13.5592	5290.71	21937.5	22566.5	-76.4408	0.0000000E+000	0.0000000E+000	0.0000000E+000	76.4408	0.0000000E+000	0.0000000E+000	0.0000000E+000	-76.4408	0.0000000E+000	0.0000000E+000	0.0000000E+000	-13.5592	0.0000000E+000	0.0000000E+000	0.0000000E+000	13.5592	4.14642	76.4408	-1.31694e-06	-4.17906e-05	1.2662e-09	-4.17919e-05	3.79233	344118	10.4263	344128
398.089	11.5491	2.33805	11.7833	-11.4445	16.5248	3.79222	-0.00872828	170.996	6.73217	1	10	0.00483129	0.00041001	0	-0.000150996	3.78851e-05	1.29177e-05	22.1855	0.0315058	0.0291733	-0.0118968	-11.3599	11.8096	11.5782	2.32615	0.0831782	0.016839	0.0848655	11.4445	6732.17	33254.4	33929	-78.5554	0.0000000E+000	0.0000000E+000	0.0000000E+000	78.5554	0.0000000E+000	0.0000000E+000	0.0000000E+000	-78.5554	0.0000000E+000	0.0000000E+000	0.0000000E+000	-11.4445	0.0000000E+000	0.0000000E+000	0.0000000E+000	11.4445	4.93962	78.5554	-9.25511e-07	-3.30996e-05	-3.30672e-10	-3.30993e-05	3.79219	434476	4.3405	434471
251.044	12.2247	2.12372	12.4078	-9.85529	17.423	3.79222	-0.0099804	298.52	8.7454	1	10	0.00482082	0.000388533	0	-0.000153825	-5.76051e-05	5.70938e-06	62.528	0.0146947	0.0067789	-0.0130377	-9.79064	12.4122	12.2314	2.11068	0.0794054	0.0137946	0.0805947	9.85529	8745.4	50340.8	51094.8	-80.1447	0.0000000E+000	0.0000000E+000	0.0000000E+000	80.1447	0.0000000E+000	0.0000000E+000	0.0000000E+000	-80.1447	0.0000000E+000	0.0000000E+000	0.0000000E+000	-9.85529	0.0000000E+000	0.0000000E+000	0.0000000E+000	9.85529	5.75626	80.1447	-1.39976e-06	-3.78479e-05	5.74922e-10	-3.78484e-05	3.79228	379967	5.77182	379972
158.428	12.8273	1.8806	12.9644	-8.34068	18.3279	3.79223	-0.00780782	534.185	11.2403	1	10	0.00482269	0.000371995	0	-0.000156785	1.87871e-05	1.08859e-05	-115.816	0.0292637	-0.0127436	0.0263432	-8.46412	12.9556	12.8145	1.90694	0.0763185	0.011189	0.0771344	8.34068	11240.3	76668.5	77488.1	-81.6593	0.0000000E+000	0.0000000E+000	0.0000000E+000	81.6593	0.0000000E+000	0.0000000E+000	0.0000000E+000	-81.6593	0.0000000E+000	0.0000000E+000	0.0000000E+000	-8.34068	0.0000000E+000	0.0000000E+000	0.0000000E+000	8.34068	6.82085	81.6593	-1.22387e-06	-2.9609e-05	-1.46686e-10	-2.96089e-05	3.79221	485696	2.40619	485694
100.032	13.3133	1.59977	13.4091	-6.85203	19.2268	3.79221	-0.00939161	994.541	14.1561	1	10	0.00481495	0.000359082	0	-0.000159156	5.69831e-05	6.06867e-06	-130.459	0.0169005	-0.0109669	0.012859	-6.91221	13.3997	13.3023	1.61263	0.0740438	0.00889739	0.0745765	6.85203	14156.1	117807	118654	-83.148	0.0000000E+000	0.0000000E+000	0.0000000E+000	83.148	0.0000000E+000	0.0000000E+000	0.0000000E+000	-83.148	0.0000000E+000	0.0000000E+000	0.0000000E+000	-6.85203	0.0000000E+000	0.0000000E+000	0.0000000E+000	6.85203	8.32197	83.148	-1.26923e-06	-3.56149e-05	-5.35163e-10	-3.56144e-05	3.79215	403787	6.06745	403781
63.0823	13.7679	1.35157	13.8341	-5.60664	20.1439	3.79224	-0.00392475	1866.7	17.8176	1	10	0.00482438	0.000348731	0	-0.000160873	3.78851e-05	7.24245e-06	-68.7643	0.020768	0.00752229	0.0193578	-5.68334	13.8435	13.7754	1.37093	0.0719394	0.00706214	0.0722852	5.60664	17817.6	181501	182374	-84.3934	0.0000000E+000	0.0000000E+000	0.0000000E+000	84.3934	0.0000000E+000	0.0000000E+000	0.0000000E+000	-84.3934	0.0000000E+000	0.0000000E+000	0.0000000E+000	-5.60664	0.0000000E+000	0.0000000E+000	0.0000000E+000	5.60664	10.1866	84.3934	-3.89012e-07	-1.48836e-05	-1.48689e-10	-1.48834e-05	3.7922	966239	9.65287	966229
39.8089	14.0859	1.12299	14.1306	-4.55825	21.0449	3.79223	-0.00736809	3560.1	22.4851	1	10	0.00481507	0.000340754	0	-0.000162137	0.000133375	9.31128e-06	-19.8796	0.0273255	0.0256972	0.00929188	-4.58747	14.157	14.1116	1.13229	0.0705445	0.00562414	0.0707684	4.55825	22485.1	282035	282930	-85.4418	0.0000000E+000	0.0000000E+000	0.0000000E+000	85.4418	0.0000000E+000	0.0000000E+000	0.0000000E+000	-85.4418	0.0000000E+000	0.0000000E+000	0.0000000E+000	-4.55825	0.0000000E+000	0.0000000E+000	0.0000000E+000	4.55825	12.5432	85.4418	-6.42805e-07	-2.79415e-05	-9.82721e-10	-2.79405e-05	3.7921	514683	18.1017	514665
25.1044	14.3916	0.887961	14.419	-3.53066	21.9241	3.79222	-0.00904131	7139.63	27.0765	1	10	0.0048134	0.000333823	0	-0.000165476	0.000171571	8.42337e-06	-63.4123	0.025233	0.0112935	0.0225646	-3.61732	14.4317	14.4029	0.910525	0.0692213	0.00427094	0.0693529	3.53066	27076.5	438843	439678	-86.4693	0.0000000E+000	0.0000000E+000	0.0000000E+000	86.4693	0.0000000E+000	0.0000000E+000	0.0000000E+000	-86.4693	0.0000000E+000	0.0000000E+000	0.0000000E+000	-3.53066	0.0000000E+000	0.0000000E+000	0.0000000E+000	3.53066	16.2075	86.4693	-1.16685e-06	-3.42866e-05	-1.55123e-09	-3.42851e-05	3.79205	419432	18.9764	419413
15.8576	14.6369	0.683645	14.6529	-2.67416	23.0361	3.79231	-0.0191019	14680.9	31.9571	1	11	0.00481305	0.000328471	0	-0.000169535	-0.000133997	5.7076e-06	-18.5938	0.0173763	0.0164693	0.00554055	-2.69278	14.6696	14.6534	0.689186	0.0681716	0.00318408	0.0682459	2.67416	31957.1	684206	684952	-87.3258	0.0000000E+000	0.0000000E+000	0.0000000E+000	87.3258	0.0000000E+000	0.0000000E+000	0.0000000E+000	-87.3258	0.0000000E+000	0.0000000E+000	0.0000000E+000	-2.67416	0.0000000E+000	0.0000000E+000	0.0000000E+000	2.67416	21.4101	87.3258	-3.45173e-06	-7.24403e-05	2.5596e-09	-7.24429e-05	3.79245	198531	7.01487	198538
10.0032	14.7757	0.530367	14.7852	-2.05572	24.0178	3.79232	-0.0185326	29998.9	38.6013	1	11	0.00481402	0.000325597	0	-0.000172648	-0.000267684	8.36599e-06	-125.392	0.0256943	-0.0148815	0.0209462	-2.13899	14.7711	14.7608	0.551313	0.0675916	0.00242617	0.0676351	2.05572	38601.2	1.07541e+06	1.0761e+06	-87.9443	0.0000000E+000	0.0000000E+000	0.0000000E+000	87.9443	0.0000000E+000	0.0000000E+000	0.0000000E+000	-87.9443	0.0000000E+000	0.0000000E+000	0.0000000E+000	-2.05572	0.0000000E+000	0.0000000E+000	0.0000000E+000	2.05572	27.8594	87.9443	2.32961e-07	-7.02816e-05	4.96087e-09	-7.02866e-05	3.79259	204630	14.4439	204644
6.31058	14.8383	0.441935	14.8449	-1.70596	24.9423	3.79231	-0.0191082	57067.9	50.5775	1	11	0.00480478	0.000323666	0	-0.000178954	-0.000210389	8.22868e-06	67.8347	0.0254234	0.00959173	-0.0235446	-1.61408	14.8538	14.8479	0.418391	0.0673336	0.00200543	0.0673634	1.70596	50577.5	1.69817e+06	1.69893e+06	-88.294	0.0000000E+000	0.0000000E+000	0.0000000E+000	88.294	0.0000000E+000	0.0000000E+000	0.0000000E+000	-88.294	0.0000000E+000	0.0000000E+000	0.0000000E+000	-1.70596	0.0000000E+000	0.0000000E+000	0.0000000E+000	1.70596	33.5757	88.294	-7.71642e-07	-7.24644e-05	4.02017e-09	-7.24684e-05	3.79252	198465	11.0104	198476
3.97785	14.9301	0.372079	14.9348	-1.42759	25.9494	3.79233	-0.0166149	107532	66.7436	1	11	0.00480982	0.000322055	0	-0.000183207	-5.76051e-05	6.03666e-06	61.9881	0.0187442	0.00880329	-0.0165483	-1.36332	14.9432	14.9389	0.35553	0.0669371	0.00166816	0.0669579	1.42759	66743.5	2.67817e+06	2.679e+06	-88.5724	0.0000000E+000	0.0000000E+000	0.0000000E+000	88.5724	0.0000000E+000	0.0000000E+000	0.0000000E+000	-88.5724	0.0000000E+000	0.0000000E+000	0.0000000E+000	-1.42759	0.0000000E+000	0.0000000E+000	0.0000000E+000	1.42759	40.1263	88.5724	-4.84774e-06	-6.30091e-05	9.57102e-10	-6.30101e-05	3.79239	228249	3.46708	228253
2.51367	14.9891	0.331337	14.9928	-1.26633	27.5089	3.79233	-0.015896	191092	93.3292	1	11	0.00480725	0.000320638	0	-0.000194157	-3.85071e-05	5.06261e-06	61.102	0.0157892	0.00763015	-0.0138231	-1.2129	15.0001	14.9967	0.317514	0.0666826	0.00147403	0.0666988	1.26633	93329.1	4.22205e+06	4.22308e+06	-88.7337	0.0000000E+000	0.0000000E+000	0.0000000E+000	88.7337	0.0000000E+000	0.0000000E+000	0.0000000E+000	-88.7337	0.0000000E+000	0.0000000E+000	0.0000000E+000	-1.26633	0.0000000E+000	0.0000000E+000	0.0000000E+000	1.26633	45.2383	88.7337	-3.5772e-06	-6.02831e-05	6.1211e-10	-6.02837e-05	3.79237	238571	2.42243	238573
1.58469	15.0652	0.342348	15.0691	-1.30179	29.9446	3.79233	-0.0154169	293365	151.416	1	11	0.00481215	0.000319339	0	-0.000193114	-1.9409e-05	6.10911e-06	17.8193	0.0191305	0.0182127	-0.00585422	-1.27799	15.0872	15.0834	0.336494	0.0663439	0.00150763	0.066361	1.30179	151416	6.66312e+06	6.66484e+06	-88.6982	0.0000000E+000	0.0000000E+000	0.0000000E+000	88.6982	0.0000000E+000	0.0000000E+000	0.0000000E+000	-88.6982	0.0000000E+000	0.0000000E+000	0.0000000E+000	-1.30179	0.0000000E+000	0.0000000E+000	0.0000000E+000	1.30179	44.0055	88.6982	2.93191e-07	-5.84661e-05	2.99228e-10	-5.84664e-05	3.79235	245985	1.25894	245986
1.00469	15.1687	0.353826	15.1728	-1.33624	240.764	3.79231	-0.00536938	447710	243.469	1	11	0.00500482	0.000329855	0	-0.00204588	0.000228865	5.77473e-07	9.17845	0.00175069	0.00172827	-0.000279252	-1.33504	15.1745	15.1704	0.353547	0.0658895	0.00153694	0.0659074	1.33624	243469	1.04376e+07	1.04405e+07	-88.6638	0.0000000E+000	0.0000000E+000	0.0000000E+000	88.6638	0.0000000E+000	0.0000000E+000	0.0000000E+000	-88.6638	0.0000000E+000	0.0000000E+000	0.0000000E+000	-1.33624	0.0000000E+000	0.0000000E+000	0.0000000E+000	1.33624	42.8704	88.6638	-0.0018466	-2.03624e-05	-1.22887e-09	-2.03612e-05	3.79208	706284	42.6242	706242
0.632957	15.2528	0.406472	15.2582	-1.52651	240.764	3.79231	-0.00536938	618607	439.003	1	11	0.00501764	0.000328848	0	-0.00204588	0.000228865	6.00109e-07	-1.49111	0.00182488	0.00182427	4.74868e-05	-1.52651	15.2601	15.2547	0.40652	0.0655151	0.00174591	0.0655383	1.52651	439003	1.64735e+07	1.64794e+07	-88.4735	0.0000000E+000	0.0000000E+000	0.0000000E+000	88.4735	0.0000000E+000	0.0000000E+000	0.0000000E+000	-88.4735	0.0000000E+000	0.0000000E+000	0.0000000E+000	-1.52651	0.0000000E+000	0.0000000E+000	0.0000000E+000	1.52651	37.5249	88.4735	0.000000000000000E+000	-2.03624e-05	-1.22887e-09	-2.03612e-05	3.79208	706284	42.6242	706242
0.401878	15.3238	0.478483	15.3312	-1.78847	240.764	3.79231	-0.00536938	827675	806.194	1	11	0.00503151	0.000328187	0	-0.00204588	0.000228865	3.36783e-07	4.64273	0.00102619	0.00102282	-8.30623e-05	-1.78805	15.3322	15.3248	0.4784	0.0651946	0.0020357	0.0652264	1.78847	806194	2.58189e+07	2.58315e+07	-88.2115	0.0000000E+000	0.0000000E+000	0.0000000E+000	88.2115	0.0000000E+000	0.0000000E+000	0.0000000E+000	-88.2115	0.0000000E+000	0.0000000E+000	0.0000000E+000	-1.78847	0.0000000E+000	0.0000000E+000	0.0000000E+000	1.78847	32.0257	88.2115	0.000000000000000E+000	-2.03624e-05	-1.22887e-09	-2.03612e-05	3.79208	706284	42.6242	706242
0.251173	15.4345	0.605153	15.4463	-2.24529	240.765	3.79231	-0.00536938	1.04708e+06	1607.16	1	11	0.00503245	0.000325802	0	-0.00204588	0.000228865	6.86549e-07	-29.0573	0.00210726	0.00184203	0.00102346	-2.24882	15.4482	15.4363	0.606177	0.0646905	0.00253638	0.0647402	2.24529	1.60716e+06	4.09909e+07	4.10224e+07	-87.7547	0.0000000E+000	0.0000000E+000	0.0000000E+000	87.7547	0.0000000E+000	0.0000000E+000	0.0000000E+000	-87.7547	0.0000000E+000	0.0000000E+000	0.0000000E+000	-2.24529	0.0000000E+000	0.0000000E+000	0.0000000E+000	2.24529	25.5051	87.7547	0.000000000000000E+000	-2.03624e-05	-1.22887e-09	-2.03612e-05	3.79208	706284	42.6242	706242
0.160751	15.5865	0.71507	15.6029	-2.62675	240.765	3.79231	-0.00536938	1.38458e+06	2908.07	1	11	0.0050278	0.000322235	0	-0.00204588	0.000228865	3.45726e-07	-16.7646	0.0010729	0.0010273	0.000309468	-2.62771	15.6039	15.5875	0.71538	0.0640233	0.00293723	0.0640906	2.62675	2.90807e+06	6.33876e+07	6.34543e+07	-87.3733	0.0000000E+000	0.0000000E+000	0.0000000E+000	87.3733	0.0000000E+000	0.0000000E+000	0.0000000E+000	-87.3733	0.0000000E+000	0.0000000E+000	0.0000000E+000	-2.62675	0.0000000E+000	0.0000000E+000	0.0000000E+000	2.62675	21.7972	87.3733	0.000000000000000E+000	-2.03624e-05	-1.22887e-09	-2.03612e-05	3.79208	706284	42.6242	706242
0.100469	15.7285	1.01844	15.7615	-3.70478	240.765	3.79231	-0.00536938	1.55544e+06	6494.22	1	11	0.00502878	0.000319055	0	-0.00204588	0.000228865	6.68021e-07	-27.1581	0.00209375	0.00186291	0.000955686	-3.70781	15.7634	15.7304	1.01939	0.0633133	0.00409959	0.0634459	3.70478	6.49422e+06	1.00295e+08	1.00505e+08	-86.2952	0.0000000E+000	0.0000000E+000	0.0000000E+000	86.2952	0.0000000E+000	0.0000000E+000	0.0000000E+000	-86.2952	0.0000000E+000	0.0000000E+000	0.0000000E+000	-3.70478	0.0000000E+000	0.0000000E+000	0.0000000E+000	3.70478	15.4438	86.2952	0.000000000000000E+000	-2.03624e-05	-1.22887e-09	-2.03612e-05	3.79208	706284	42.6242	706242
0.0602816	16.0233	1.23456	16.0708	-4.40582	240.765	3.79231	-0.00536938	2.13857e+06	12620.4	1	11	0.00502477	0.000312666	0	-0.00204588	0.000228865	6.65761e-07	23.3143	0.00212931	0.00195545	-0.000842726	-4.40229	16.0726	16.0252	1.23372	0.0620409	0.00478013	0.0622248	4.40582	1.26205e+07	1.638e+08	1.64285e+08	-85.5942	0.0000000E+000	0.0000000E+000	0.0000000E+000	85.5942	0.0000000E+000	0.0000000E+000	0.0000000E+000	-85.5942	0.0000000E+000	0.0000000E+000	0.0000000E+000	-4.40582	0.0000000E+000	0.0000000E+000	0.0000000E+000	4.40582	12.9789	85.5942	0.000000000000000E+000	-2.03624e-05	-1.22887e-09	-2.03612e-05	3.79208	706284	42.6242	706242
0.0401878	16.3978	1.50058	16.4664	-5.22862	240.766	3.79231	-0.00536938	2.63917e+06	21917.5	1	11	0.00502393	0.000305102	0	-0.00204588	0.000228865	8.64539e-07	-82.7128	0.0028336	0.000359424	0.00281072	-5.23824	16.467	16.3982	1.50339	0.0604772	0.00553431	0.0607299	5.22862	2.19175e+07	2.39507e+08	2.40508e+08	-84.7714	0.0000000E+000	0.0000000E+000	0.0000000E+000	84.7714	0.0000000E+000	0.0000000E+000	0.0000000E+000	-84.7714	0.0000000E+000	0.0000000E+000	0.0000000E+000	-5.22862	0.0000000E+000	0.0000000E+000	0.0000000E+000	5.22862	10.9277	84.7714	0.000000000000000E+000	-2.03624e-05	-1.22887e-09	-2.03612e-05	3.79208	706284	42.6242	706242
0.0200939	17.3382	2.38965	17.5021	-7.84739	240.766	3.79231	-0.00536938	3.31453e+06	61788.8	1	11	0.00502476	0.000287094	0	-0.00204588	0.000228865	8.30625e-07	-19.7838	0.00289321	0.00272244	0.000979272	-7.84935	17.505	17.3409	2.39063	0.0566009	0.00780105	0.0571359	7.84739	6.17888e+07	4.48311e+08	4.52549e+08	-82.1526	0.0000000E+000	0.0000000E+000	0.0000000E+000	82.1526	0.0000000E+000	0.0000000E+000	0.0000000E+000	-82.1526	0.0000000E+000	0.0000000E+000	0.0000000E+000	-7.84739	0.0000000E+000	0.0000000E+000	0.0000000E+000	7.84739	7.25554	82.1526	0.000000000000000E+000	-2.03624e-05	-1.22887e-09	-2.03612e-05	3.79208	706284	42.6242	706242
0.00796479	19.8177	2.80075	20.0147	-8.04407	20329.7	3.79232	0.00181437	7.13464e+06	139709	1	11	0.00501885	0.000250759	0	0.00846109	0.000343454	2.51552e-07	-43.7168	0.00100316	0.00072505	0.000693279	-8.04574	20.0155	19.8185	2.80144	0.0494718	0.00699161	0.0499634	8.04407	1.39709e+08	9.88561e+08	9.98384e+08	-81.9559	0.0000000E+000	0.0000000E+000	0.0000000E+000	81.9559	0.0000000E+000	0.0000000E+000	0.0000000E+000	-81.9559	0.0000000E+000	0.0000000E+000	0.0000000E+000	-8.04407	0.0000000E+000	0.0000000E+000	0.0000000E+000	8.04407	7.07588	81.9559	0.010507	6.88066e-06	6.23151e-10	6.88004e-06	3.79198	2.09016e+06	189.297	2.08997e+06
0.00497799	20.8219	2.77366	21.0059	-7.58762	20329.7	3.79232	0.00181437	1.15269e+07	200973	1	11	0.00502573	0.000239254	0	0.00846109	0.000343454	3.65405e-07	-85.6361	0.00152727	0.000116212	0.00152284	-7.59169	21.0062	20.8221	2.77518	0.0471889	0.00628596	0.0476057	7.58762	2.00973e+08	1.50871e+09	1.52204e+09	-82.4124	0.0000000E+000	0.0000000E+000	0.0000000E+000	82.4124	0.0000000E+000	0.0000000E+000	0.0000000E+000	-82.4124	0.0000000E+000	0.0000000E+000	0.0000000E+000	-7.58762	0.0000000E+000	0.0000000E+000	0.0000000E+000	7.58762	7.50703	82.4124	0.000000000000000E+000	6.88066e-06	6.23151e-10	6.88004e-06	3.79198	2.09016e+06	189.297	2.08997e+06
0.00318591	21.459	3.45578	21.7355	-9.14842	20329.7	3.79232	0.00181437	1.44557e+07	365421	1	11	0.00502784	0.000231319	0	0.00846109	0.000343454	4.16536e-07	41.6861	0.0018007	0.00134476	-0.00119755	-9.14474	21.7366	21.4603	3.45458	0.0454225	0.00731488	0.0460077	9.14842	3.65421e+08	2.26912e+09	2.29835e+09	-80.8516	0.0000000E+000	0.0000000E+000	0.0000000E+000	80.8516	0.0000000E+000	0.0000000E+000	0.0000000E+000	-80.8516	0.0000000E+000	0.0000000E+000	0.0000000E+000	-9.14842	0.0000000E+000	0.0000000E+000	0.0000000E+000	9.14842	6.2096	80.8516	0.000000000000000E+000	6.88066e-06	6.23151e-10	6.88004e-06	3.79198	2.09016e+06	189.297	2.08997e+06
0.0019912	21.9707	3.72439	22.2841	-9.62111	20329.7	3.79232	0.00181437	2.1461e+07	599474	1	11	0.00503261	0.000225839	0	0.00846109	0.000343454	8.9665e-07	-88.6404	0.00397031	9.42062e-05	0.0039692	-9.63113	22.2849	21.9708	3.72836	0.0442438	0.00750005	0.044875	9.62111	5.99474e+08	3.53638e+09	3.58683e+09	-80.3789	0.0000000E+000	0.0000000E+000	0.0000000E+000	80.3789	0.0000000E+000	0.0000000E+000	0.0000000E+000	-80.3789	0.0000000E+000	0.0000000E+000	0.0000000E+000	-9.62111	0.0000000E+000	0.0000000E+000	0.0000000E+000	9.62111	5.89914	80.3789	0.000000000000000E+000	6.88066e-06	6.23151e-10	6.88004e-06	3.79198	2.09016e+06	189.297	2.08997e+06
0.00129428	22.0567	4.7667	22.5659	-12.1947	20329.7	3.79232	0.00181437	2.57973e+07	1.15108e+06	1	11	0.00503195	0.00022299	0	0.00846109	0.000343454	1.07013e-06	8.74094	0.004799	0.00474326	-0.00072929	-12.1904	22.5703	22.0614	4.76597	0.0433148	0.00936083	0.0443147	12.1947	1.15108e+09	5.32634e+09	5.4493e+09	-77.8053	0.0000000E+000	0.0000000E+000	0.0000000E+000	77.8053	0.0000000E+000	0.0000000E+000	0.0000000E+000	-77.8053	0.0000000E+000	0.0000000E+000	0.0000000E+000	-12.1947	0.0000000E+000	0.0000000E+000	0.0000000E+000	12.1947	4.62724	77.8053	0.000000000000000E+000	6.88066e-06	6.23151e-10	6.88004e-06	3.79198	2.09016e+06	189.297	2.08997e+06
0.000796479	23.2632	6.10936	24.0521	-14.7147	20329.7	3.79232	0.00181437	3.27077e+07	2.11026e+06	1	11	0.0050292	0.000209096	0	0.00846109	0.000343454	3.07881e-06	-61.6988	0.0147244	0.00698092	0.0129643	-14.7403	24.0621	23.2702	6.12232	0.0402128	0.0105606	0.0415764	14.7147	2.11026e+09	8.03546e+09	8.30794e+09	-75.2853	0.0000000E+000	0.0000000E+000	0.0000000E+000	75.2853	0.0000000E+000	0.0000000E+000	0.0000000E+000	-75.2853	0.0000000E+000	0.0000000E+000	0.0000000E+000	-14.7147	0.0000000E+000	0.0000000E+000	0.0000000E+000	14.7147	3.8078	75.2853	0.000000000000000E+000	6.88066e-06	6.23151e-10	6.88004e-06	3.79198	2.09016e+06	189.297	2.08997e+06
0.000497799	23.0835	8.95917	24.7612	-21.2122	20329.7	3.79232	0.00181437	3.5686e+07	4.67188e+06	1	11	0.00503167	0.000203208	0	0.00846109	0.000343454	2.73987e-06	29.7695	0.0134831	0.0117037	-0.0066945	-21.188	24.7696	23.0952	8.95247	0.0376496	0.0146126	0.0403858	21.2122	4.67188e+09	1.20372e+10	1.2912e+10	-68.7878	0.0000000E+000	0.0000000E+000	0.0000000E+000	68.7878	0.0000000E+000	0.0000000E+000	0.0000000E+000	-68.7878	0.0000000E+000	0.0000000E+000	0.0000000E+000	-21.2122	0.0000000E+000	0.0000000E+000	0.0000000E+000	21.2122	2.57652	68.7878	0.000000000000000E+000	6.88066e-06	6.23151e-10	6.88004e-06	3.79198	2.09016e+06	189.297	2.08997e+06
0.000298679	23.2608	13.7467	27.0191	-30.5823	20329.7	3.79232	0.00181437	3.8763e+07	1.00339e+07	1	11	0.00503064	0.000186188	0	0.00846109	0.000343454	1.49759e-06	108.884	0.00804343	-0.00260327	-0.0076105	-30.5712	27.013	23.2582	13.739	0.0318626	0.0188302	0.0370108	30.5823	1.00339e+10	1.69784e+10	1.97217e+10	-59.4177	0.0000000E+000	0.0000000E+000	0.0000000E+000	59.4177	0.0000000E+000	0.0000000E+000	0.0000000E+000	-59.4177	0.0000000E+000	0.0000000E+000	0.0000000E+000	-30.5823	0.0000000E+000	0.0000000E+000	0.0000000E+000	30.5823	1.6921	59.4177	0.000000000000000E+000	6.88066e-06	6.23151e-10	6.88004e-06	3.79198	2.09016e+06	189.297	2.08997e+06
9.95598e-05	26.361	40.4596	48.2896	-56.9142	20329.7	3.79232	0.00181437	3.95107e+07	2.77365e+07	1	11	0.00503436	0.000104254	0	0.00846109	0.000343454	5.41732e-06	-84.8387	0.0519629	0.0046746	0.0517522	-56.943	48.3355	26.3657	40.5113	0.0113046	0.0173506	0.0207084	56.9142	2.77365e+10	1.80714e+10	3.31042e+10	-33.0858	0.0000000E+000	0.0000000E+000	0.0000000E+000	33.0858	0.0000000E+000	0.0000000E+000	0.0000000E+000	-33.0858	0.0000000E+000	0.0000000E+000	0.0000000E+000	-56.9142	0.0000000E+000	0.0000000E+000	0.0000000E+000	56.9142	0.651539	33.0858	0.000000000000000E+000	6.88066e-06	6.23151e-10	6.88004e-06	3.79198	2.09016e+06	189.297	2.08997e+06