File: txt/17551_R290_UC83_50SOC_C07.mpt
EC-Lab ASCII FILE
Nb header lines : 64

Potentio Electrochemical Impedance Spectroscopy

Run on channel : 7 (SN 66126)
User :
CE vs. WE compliance from -10 V to 10 V
Electrode connection : standard
Potential control : Ewe
Ewe ctrl range : min = -10.00 V, max = 10.00 V
Safety Limits :
	Do not start on E overload
Acquisition started on : 09/16/2025 16:58:42.665
Loaded Setting File :  C:\Users\Celltest\OneDrive - store-dot.com\Documents\EC-Lab\Data\Michael\R290\17544_R290_UC82_50SOC.mps
Saved on :
	File : 17551_R290_UC83_50SOC_C07.mpr
	Directory : C:\Users\Celltest\OneDrive - store-dot.com\Documents\EC-Lab\Data\Michael\R290\
	Host : 169.254.61.224
Device : VMP-3e (SN .003165)
Address : USB
EC-LAB for windows v11.62 (software)
Internet server v27.00 (firmware)
Command interpretor v12.03 (firmware)
Electrode material :
Initial state :
Electrolyte :
Comments :
Electrode surface area : 0.001 cm²
Characteristic mass : 0.001 g
Equivalent Weight : 0.000 g/eq.
Density : 0.000 g/cm3
Volume (V) : 0.001 cm³
Record Ece
Cycle Definition : Charge/Discharge alternance
Mode                Multi sine
E (V)               0.0000
vs.                 Eoc
tE (h:m:s)          0:00:0.0000
record              0
dI                  0.000
unit dI             mA
dt (s)              0.000
fi                  1.000
unit fi             MHz
ff                  0.100
unit ff             mHz
Nd                  10
Points              per decade
spacing             Logarithmic
Va (mV)             5.0
pw                  0.10
Na                  2
corr                0
E range min (V)     -10.000
E range max (V)     10.000
I Range             Auto
Bandwidth           5
nc cycles           0
goto Ns'            0
nr cycles           0
inc. cycle          0

freq/Hz	Re(Z)/Ohm	-Im(Z)/Ohm	|Z|/Ohm	Phase(Z)/deg	time/s	<Ewe>/V	<I>/mA	Cs/µF	Cp/µF	cycle number	I Range	|Ewe|/V	|I|/A	Ns	(Q-Qo)/mA.h	<Ece>/V	|Ece|/V	Phase(Zce)/deg	|Zce|/Ohm	Re(Zce)/Ohm	-Im(Zce)/Ohm	Phase(Zwe-ce)/deg	|Zwe-ce|/Ohm	Re(Zwe-ce)/Ohm	-Im(Zwe-ce)/Ohm	Re(Y)/Ohm-1	Im(Y)/Ohm-1	|Y|/Ohm-1	Phase(Y)/deg	Re(C)/nF	Im(C)/nF	|C|/nF	Phase(C)/deg	Re(M)	Im(M)	|M|	Phase(M)/deg	Re(Permittivity)	Im(Permittivity)	|Permittivity|	Phase(Permittivity)/deg	Re(Resistivity)/Ohm.cm	Im(Resistivity)/Ohm.cm	|Resistivity|/Ohm.cm	Phase(Resistivity)/deg	Re(Conductivity)/mS/cm	Im(Conductivity)/mS/cm	|Conductivity|/mS/cm	Phase(Conductivity)/deg	Tan(Delta)	Loss Angle(Delta)/deg	dq/mA.h	Pwe/W	Pce/W	Pwe-ce/W	<Ewe-Ece>/V	Rwe/Ohm	Rce/Ohm	Rwe-ce/Ohm		Ewe-Ece/V
1.00002e+06	3.29283	2.86483	4.36463	-41.0239	2.23353	3.7925	-0.0518052	0.0555538	0.0239341	1	10	0.000218959	5.01668e-05	0	-2.46071e-05	-0.000288445	0.000201037	-65.7588	4.00737	1.64535	3.65402	-52.8552	8.17808	4.93818	6.51885	0.172852	0.150385	0.229115	41.0239	23.9341	27.5098	36.4641	-48.9761	0.0000000E+000	0.0000000E+000	0.0000000E+000	48.9761	0.0000000E+000	0.0000000E+000	0.0000000E+000	-48.9761	0.0000000E+000	0.0000000E+000	0.0000000E+000	-41.0239	0.0000000E+000	0.0000000E+000	0.0000000E+000	41.0239	1.1494	48.9761	-2.46071e-05	-0.000196471	1.4943e-08	-0.000196486	3.79278	73206.9	5.56789	73212.5
630957	0.482802	0.00805463	0.482869	-0.955783	3.40456	3.7926	0.0188115	31.3166	0.0087138	1	9	0.000122099	0.000252863	0	-2.41734e-05	-7.86157e-05	0.000128547	-93.8601	0.508367	-0.0342237	0.507214	-48.9581	0.683172	0.448578	0.515268	2.07067	0.0345452	2.07096	0.955783	8.71378	522.313	522.386	-89.0442	0.0000000E+000	0.0000000E+000	0.0000000E+000	89.0442	0.0000000E+000	0.0000000E+000	0.0000000E+000	-89.0442	0.0000000E+000	0.0000000E+000	0.0000000E+000	-0.955783	0.0000000E+000	0.0000000E+000	0.0000000E+000	0.955783	59.9409	89.0442	2.10354e-06	7.13445e-05	-1.47888e-09	7.13459e-05	3.79268	201611	4.17914	201616
398103	0.637635	0.0820294	0.64289	-7.33062	4.17254	3.79278	0.035456	4.87366	0.0793452	1	9	0.000485907	0.000755817	0	-1.76008e-05	-0.00051735	5.36032e-05	-1.43147	0.0709208	0.0708987	0.00177169	-6.74526	0.713472	0.708534	0.083801	1.54276	0.198471	1.55548	7.33062	79.3452	616.77	621.853	-82.6694	0.0000000E+000	0.0000000E+000	0.0000000E+000	82.6694	0.0000000E+000	0.0000000E+000	0.0000000E+000	-82.6694	0.0000000E+000	0.0000000E+000	0.0000000E+000	-7.33062	0.0000000E+000	0.0000000E+000	0.0000000E+000	7.33062	7.77325	82.6694	3.80971e-06	0.000134477	-1.83432e-08	0.000134495	3.7933	106972	14.5913	106986
251206	0.693164	0.322578	0.764547	-24.9559	4.93854	3.79267	0.0259981	1.96406	0.349635	1	9	0.00158852	0.00207773	0	-1.1408e-05	-0.000173993	4.99933e-05	85.3246	0.0240615	0.00196129	-0.0239814	-23.2463	0.756544	0.695125	0.298596	1.18584	0.551856	1.30796	24.9559	349.635	751.306	828.677	-65.0442	0.0000000E+000	0.0000000E+000	0.0000000E+000	65.0442	0.0000000E+000	0.0000000E+000	0.0000000E+000	-65.0442	0.0000000E+000	0.0000000E+000	0.0000000E+000	-24.9559	0.0000000E+000	0.0000000E+000	0.0000000E+000	24.9559	2.14883	65.0442	1.12477e-06	9.86022e-05	-4.52348e-09	9.86068e-05	3.79285	145883	6.69253	145890
158486	0.743161	0.54986	0.924464	-36.4975	5.58054	3.79267	0.0286047	1.82632	0.646101	1	9	0.00527593	0.00570702	0	-1.2853e-05	-0.00026937	7.23807e-05	62.5711	0.0126828	0.00584228	-0.011257	-35.7196	0.92255	0.749003	0.538603	0.869566	0.643386	1.08171	36.4975	646.101	873.236	1086.27	-53.5025	0.0000000E+000	0.0000000E+000	0.0000000E+000	53.5025	0.0000000E+000	0.0000000E+000	0.0000000E+000	-53.5025	0.0000000E+000	0.0000000E+000	0.0000000E+000	-36.4975	0.0000000E+000	0.0000000E+000	0.0000000E+000	36.4975	1.35155	53.5025	-1.97957e-06	0.000108488	-7.70526e-09	0.000108496	3.79294	132589	9.41697	132598
100004	0.836383	0.817292	1.1694	-44.3386	6.34653	3.79268	0.0336316	1.94727	0.951158	1	9	0.00542204	0.00463659	0	-6.04399e-06	3.58368e-05	4.27933e-05	61.9272	0.00922949	0.00434334	-0.00814364	-43.9035	1.16685	0.840727	0.809148	0.611613	0.597653	0.855137	44.3386	951.159	973.377	1360.94	-45.6614	0.0000000E+000	0.0000000E+000	0.0000000E+000	45.6614	0.0000000E+000	0.0000000E+000	0.0000000E+000	-45.6614	0.0000000E+000	0.0000000E+000	0.0000000E+000	-44.3386	0.0000000E+000	0.0000000E+000	0.0000000E+000	44.3386	1.02336	45.6614	3.64012e-06	0.000127554	1.20525e-09	0.000127553	3.79265	112771	1.06557	112770
63093.8	0.977727	1.18736	1.53811	-50.5305	7.11255	3.7927	0.0353444	2.12446	1.26603	1	9	0.00535942	0.00348442	0	1.93458e-05	-0.000154917	2.31254e-05	55.9845	0.00663679	0.00371274	-0.00550114	-50.2932	1.53624	0.981439	1.18186	0.413278	0.501891	0.650148	50.5305	1266.03	1042.5	1640.01	-39.4695	0.0000000E+000	0.0000000E+000	0.0000000E+000	39.4695	0.0000000E+000	0.0000000E+000	0.0000000E+000	-39.4695	0.0000000E+000	0.0000000E+000	0.0000000E+000	-50.5305	0.0000000E+000	0.0000000E+000	0.0000000E+000	50.5305	0.823443	39.4695	1.23176e-05	0.000134051	-5.47546e-09	0.000134056	3.79286	107307	4.38309	107312
39814.1	1.21896	1.71786	2.1064	-54.6412	7.87855	3.79269	0.0368338	2.327	1.54771	1	9	0.00535091	0.00254032	0	2.79757e-05	-0.000402898	1.45666e-05	34.5684	0.00573416	0.00472179	-0.0032535	-54.4852	2.10648	1.22368	1.71461	0.274732	0.387175	0.474744	54.6412	1547.71	1098.23	1897.77	-35.3588	0.0000000E+000	0.0000000E+000	0.0000000E+000	35.3588	0.0000000E+000	0.0000000E+000	0.0000000E+000	-35.3588	0.0000000E+000	0.0000000E+000	0.0000000E+000	-54.6412	0.0000000E+000	0.0000000E+000	0.0000000E+000	54.6412	0.709583	35.3589	6.69214e-06	0.000139699	-1.48403e-08	0.000139714	3.7931	102968	10.9383	102979
25116.9	1.64948	2.44266	2.94743	-55.9697	8.64455	3.7927	0.0321048	2.59412	1.78168	1	9	0.00537324	0.00182302	0	3.11599e-05	1.67614e-05	7.89012e-06	28.4209	0.00432804	0.0038064	-0.00205991	-55.886	2.94786	1.65328	2.4406	0.189871	0.281174	0.339278	55.9697	1781.68	1203.13	2149.86	-34.0303	0.0000000E+000	0.0000000E+000	0.0000000E+000	34.0303	0.0000000E+000	0.0000000E+000	0.0000000E+000	-34.0303	0.0000000E+000	0.0000000E+000	0.0000000E+000	-55.9697	0.0000000E+000	0.0000000E+000	0.0000000E+000	55.9697	0.675278	34.0303	3.47417e-06	0.000121764	5.3812e-10	0.000121763	3.79269	118135	0.522083	118135
15847.7	2.40811	3.33486	4.11342	-54.1669	9.41453	3.7927	0.0287908	3.01146	1.97936	1	9	0.00523418	0.00127246	0	3.58205e-05	-2.13895e-05	8.44582e-06	-84.5217	0.00663738	0.000633662	0.00660706	-54.2135	4.11915	2.40874	3.34146	0.142321	0.197093	0.243107	54.1669	1979.36	1429.3	2441.47	-35.8331	0.0000000E+000	0.0000000E+000	0.0000000E+000	35.8331	0.0000000E+000	0.0000000E+000	0.0000000E+000	-35.8331	0.0000000E+000	0.0000000E+000	0.0000000E+000	-54.1669	0.0000000E+000	0.0000000E+000	0.0000000E+000	54.1669	0.722102	35.8331	2.1821e-06	0.000109195	-6.15819e-10	0.000109195	3.79273	131733	0.742929	131734
10002.2	3.65634	4.32021	5.65978	-49.7577	10.4636	3.7927	-0.033545	3.68314	2.146	1	10	0.00507622	0.000896895	0	3.04159e-05	-0.000326596	1.35631e-05	-62.5204	0.0151223	0.00697795	0.0134162	-49.7914	5.67453	3.66332	4.33363	0.114143	0.134867	0.176685	49.7577	2146	1816.23	2811.41	-40.2423	0.0000000E+000	0.0000000E+000	0.0000000E+000	40.2423	0.0000000E+000	0.0000000E+000	0.0000000E+000	-40.2423	0.0000000E+000	0.0000000E+000	0.0000000E+000	-49.7577	0.0000000E+000	0.0000000E+000	0.0000000E+000	49.7577	0.846333	40.2423	-4.50319e-06	-0.000127226	1.09557e-08	-0.000127237	3.79302	113063	9.73606	113073
6309.38	5.43075	5.02387	7.39813	-42.7713	10.9815	3.79268	-0.0350341	5.02105	2.31541	1	10	0.00473961	0.000640651	0	2.55952e-05	-0.000307521	7.58935e-06	-14.0748	0.0118463	0.0114907	0.00288088	-42.7273	7.40852	5.44224	5.02675	0.0992238	0.0917899	0.135169	42.7713	2315.41	2502.93	3409.66	-47.2287	0.0000000E+000	0.0000000E+000	0.0000000E+000	47.2287	0.0000000E+000	0.0000000E+000	0.0000000E+000	-47.2287	0.0000000E+000	0.0000000E+000	0.0000000E+000	-42.7713	0.0000000E+000	0.0000000E+000	0.0000000E+000	42.7713	1.08099	47.2287	-2.98128e-06	-0.000132873	1.07737e-08	-0.000132884	3.79298	108257	8.77775	108265
3983.6	7.44936	5.18476	9.07605	-34.838	11.668	3.79266	-0.036754	7.70576	2.51466	1	10	0.00479993	0.000528856	0	1.91458e-05	-4.04649e-05	6.17931e-06	-126.681	0.0116843	-0.00697976	0.00937046	-34.9117	9.07568	7.44238	5.19413	0.0904326	0.0629412	0.11018	34.838	2514.66	3613.01	4401.97	-55.162	0.0000000E+000	0.0000000E+000	0.0000000E+000	55.162	0.0000000E+000	0.0000000E+000	0.0000000E+000	-55.162	0.0000000E+000	0.0000000E+000	0.0000000E+000	-34.838	0.0000000E+000	0.0000000E+000	0.0000000E+000	34.838	1.43678	55.162	-3.32778e-06	-0.000139395	1.48725e-09	-0.000139397	3.7927	103190	1.10096	103191
2510.8	9.31067	4.80816	10.4789	-27.3124	12.4928	3.79256	-0.0391143	13.1834	2.7756	1	10	0.00453709	0.000432974	0	9.44943e-06	-0.000212144	3.90578e-05	-72.2407	0.0902082	0.0275152	0.0859094	-27.6587	10.5429	9.33818	4.89406	0.0847913	0.0437874	0.0954301	27.3124	2775.6	5374.76	6049.13	-62.6876	0.0000000E+000	0.0000000E+000	0.0000000E+000	62.6876	0.0000000E+000	0.0000000E+000	0.0000000E+000	-62.6876	0.0000000E+000	0.0000000E+000	0.0000000E+000	-27.3124	0.0000000E+000	0.0000000E+000	0.0000000E+000	27.3124	1.93643	62.6876	-4.89123e-06	-0.000148343	8.29785e-09	-0.000148352	3.79277	96961.1	5.42369	96966.5
1585.51	10.7835	4.26613	11.5967	-21.5845	13.6089	3.79257	-0.0379863	23.5298	3.1843	1	10	0.00481525	0.000415225	0	-1.83737e-06	-0.000212144	7.46778e-06	-3.66284	0.0179849	0.0179482	0.00114897	-21.5572	11.6138	10.8015	4.26728	0.0801843	0.0317221	0.0862312	21.5845	3184.3	8048.99	8655.98	-68.4155	0.0000000E+000	0.0000000E+000	0.0000000E+000	68.4155	0.0000000E+000	0.0000000E+000	0.0000000E+000	-68.4155	0.0000000E+000	0.0000000E+000	0.0000000E+000	-21.5845	0.0000000E+000	0.0000000E+000	0.0000000E+000	21.5845	2.52771	68.4155	-4.95707e-06	-0.000144066	8.05855e-09	-0.000144074	3.79278	99840.5	5.58474	99846.1
1000.32	11.8876	3.64802	12.4348	-17.0599	14.5109	3.79257	-0.0371375	43.6138	3.75371	1	10	0.00475663	0.000382525	0	-1.13115e-05	-0.000593652	9.40218e-06	-19.8862	0.0245792	0.0231136	0.00836072	-17.0655	12.4593	11.9108	3.65638	0.0768809	0.0235928	0.0804195	17.0599	3753.71	12232.1	12795.1	-72.9401	0.0000000E+000	0.0000000E+000	0.0000000E+000	72.9401	0.0000000E+000	0.0000000E+000	0.0000000E+000	-72.9401	0.0000000E+000	0.0000000E+000	0.0000000E+000	-17.0599	0.0000000E+000	0.0000000E+000	0.0000000E+000	17.0599	3.25866	72.9401	-4.53453e-06	-0.000140846	2.20468e-08	-0.000140868	3.79316	102122	15.9852	102138
631.01	12.8527	3.20341	13.2459	-13.9952	15.4125	3.79256	-0.0386005	78.7358	4.60501	1	10	0.00473943	0.000357802	0	-2.02399e-05	-0.000307521	8.26135e-06	-24.9999	0.0230891	0.0209259	0.00975785	-14.0142	13.2686	12.8737	3.21316	0.0732539	0.0182577	0.0754949	13.9952	4605.02	18476.3	19041.5	-76.0048	0.0000000E+000	0.0000000E+000	0.0000000E+000	76.0048	0.0000000E+000	0.0000000E+000	0.0000000E+000	-76.0048	0.0000000E+000	0.0000000E+000	0.0000000E+000	-13.9952	0.0000000E+000	0.0000000E+000	0.0000000E+000	13.9952	4.01221	76.0048	-4.57812e-06	-0.000146395	1.18705e-08	-0.000146407	3.79287	98251.6	7.96675	98259.5
398.089	13.6884	2.78901	13.9697	-11.5163	16.3138	3.79256	-0.03697	143.347	5.71369	1	10	0.00473259	0.000338776	0	-2.94634e-05	-0.000135842	1.4835e-05	59.6482	0.04379	0.0221274	-0.0377881	-11.3465	13.9839	13.7106	2.75122	0.0701425	0.0142915	0.0715836	11.5163	5713.69	28042.8	28618.9	-78.4837	0.0000000E+000	0.0000000E+000	0.0000000E+000	78.4837	0.0000000E+000	0.0000000E+000	0.0000000E+000	-78.4837	0.0000000E+000	0.0000000E+000	0.0000000E+000	-11.5163	0.0000000E+000	0.0000000E+000	0.0000000E+000	11.5163	4.90799	78.4837	-4.69784e-06	-0.000140211	5.02208e-09	-0.000140216	3.7927	102585	3.67439	102589
251.044	14.4237	2.4247	14.626	-9.54255	17.212	3.79257	-0.0374912	261.463	7.1858	1	10	0.00472383	0.000322974	0	-3.84136e-05	-0.0004792	4.83776e-06	-44.8522	0.0149788	0.0106189	0.0105643	-9.57643	14.6383	14.4343	2.43527	0.0674251	0.0113346	0.0683712	9.54255	7185.8	42745.6	43345.4	-80.4575	0.0000000E+000	0.0000000E+000	0.0000000E+000	80.4575	0.0000000E+000	0.0000000E+000	0.0000000E+000	-80.4575	0.0000000E+000	0.0000000E+000	0.0000000E+000	-9.54255	0.0000000E+000	0.0000000E+000	0.0000000E+000	9.54255	5.94863	80.4575	-4.52012e-06	-0.000142188	1.79658e-08	-0.000142206	3.79305	101159	12.7817	101172
158.428	15.035	2.03224	15.1717	-7.69787	18.1169	3.79257	-0.036929	494.325	8.86939	1	10	0.00472218	0.00031125	0	-4.6859e-05	-4.04649e-05	9.01779e-06	-26.4465	0.0289728	0.0259408	0.0129034	-7.73297	15.1991	15.0609	2.04514	0.0653183	0.0088289	0.0659123	7.69787	8869.39	65617.8	66214.5	-82.3021	0.0000000E+000	0.0000000E+000	0.0000000E+000	82.3021	0.0000000E+000	0.0000000E+000	0.0000000E+000	-82.3021	0.0000000E+000	0.0000000E+000	0.0000000E+000	-7.69787	0.0000000E+000	0.0000000E+000	0.0000000E+000	7.69787	7.39823	82.3021	-4.33299e-06	-0.000140056	1.49433e-09	-0.000140057	3.79261	102699	1.09575	102700
100.032	15.4992	1.72297	15.5946	-6.34325	19.0159	3.79256	-0.037279	923.431	11.2722	1	10	0.00471328	0.000302237	0	-5.59276e-05	-0.000307521	5.91806e-06	-30.8135	0.0195809	0.0168168	0.0100302	-6.37302	15.6125	15.516	1.733	0.0637321	0.00708479	0.0641247	6.34325	11272.2	101400	102025	-83.6567	0.0000000E+000	0.0000000E+000	0.0000000E+000	83.6567	0.0000000E+000	0.0000000E+000	0.0000000E+000	-83.6567	0.0000000E+000	0.0000000E+000	0.0000000E+000	-6.34325	0.0000000E+000	0.0000000E+000	0.0000000E+000	6.34325	8.99562	83.6567	-4.3388e-06	-0.000141383	1.14641e-08	-0.000141394	3.79287	101735	8.24918	101743
63.0823	15.8959	1.45636	15.9625	-5.23475	19.9329	3.79258	-0.0345055	1732.38	14.4205	1	10	0.00471407	0.000295321	0	-6.45648e-05	-0.000154917	1.11501e-05	-92.8076	0.0377557	-0.00184938	0.0377103	-5.37014	15.9641	15.8941	1.49407	0.0623856	0.00571569	0.0626469	5.23475	14420.5	157397	158056	-84.7652	0.0000000E+000	0.0000000E+000	0.0000000E+000	84.7652	0.0000000E+000	0.0000000E+000	0.0000000E+000	-84.7652	0.0000000E+000	0.0000000E+000	0.0000000E+000	-5.23475	0.0000000E+000	0.0000000E+000	0.0000000E+000	5.23475	10.9148	84.7652	-4.43796e-06	-0.000130865	5.3455e-09	-0.00013087	3.79273	109912	4.48964	109917
39.8089	16.2872	1.20675	16.3319	-4.23739	20.8338	3.79257	-0.0361919	3313.02	18.0877	1	10	0.00471366	0.000288617	0	-7.40918e-05	-0.000135842	6.98433e-06	43.1854	0.0241993	0.0176448	-0.0165611	-4.17494	16.3483	16.3049	1.19019	0.0610626	0.00452423	0.06123	4.23739	18087.7	244127	244796	-85.7626	0.0000000E+000	0.0000000E+000	0.0000000E+000	85.7626	0.0000000E+000	0.0000000E+000	0.0000000E+000	-85.7626	0.0000000E+000	0.0000000E+000	0.0000000E+000	-4.23739	0.0000000E+000	0.0000000E+000	0.0000000E+000	4.23739	13.4968	85.7626	-4.64283e-06	-0.00013726	4.91638e-09	-0.000137265	3.79271	104791	3.75338	104794
25.1044	16.6402	0.975162	16.6687	-3.35386	21.9571	3.79264	-0.0340304	6501.19	22.2506	1	11	0.00471763	0.000283023	0	-8.53518e-05	-0.000307521	7.35458e-06	-85.6805	0.0259858	0.00195718	0.025912	-3.44236	16.6722	16.6422	1.00107	0.0598898	0.00350971	0.0599925	3.35386	22250.6	379684	380336	-86.6461	0.0000000E+000	0.0000000E+000	0.0000000E+000	86.6461	0.0000000E+000	0.0000000E+000	0.0000000E+000	-86.6461	0.0000000E+000	0.0000000E+000	0.0000000E+000	-3.35386	0.0000000E+000	0.0000000E+000	0.0000000E+000	3.35386	17.064	86.6461	-6.50128e-06	-0.000129065	1.04651e-08	-0.000129075	3.79294	111448	9.03664	111457
15.8576	16.8834	0.785098	16.9017	-2.6624	22.8351	3.79263	-0.0339984	12783.8	27.5834	1	11	0.00472661	0.000279653	0	-9.51946e-05	-0.000326596	2.74711e-05	2.38617	0.0982327	0.0981475	-0.00408986	-2.63326	16.9995	16.9816	0.781008	0.0591019	0.0027483	0.0591657	2.6624	27583.4	593177	593818	-87.3376	0.0000000E+000	0.0000000E+000	0.0000000E+000	87.3376	0.0000000E+000	0.0000000E+000	0.0000000E+000	-87.3376	0.0000000E+000	0.0000000E+000	0.0000000E+000	-2.6624	0.0000000E+000	0.0000000E+000	0.0000000E+000	2.6624	21.5049	87.3376	-5.22618e-06	-0.000128943	1.11037e-08	-0.000128954	3.79296	111553	9.60623	111563
10.0032	17.0002	0.582704	17.0101	-1.96312	23.8168	3.79263	-0.0338522	27304.4	32.0415	1	11	0.00471486	0.000277179	0	-0.000102428	-0.0004792	6.59383e-06	80.2095	0.0237891	0.00404525	-0.0234426	-1.88376	17.0134	17.0042	0.559261	0.058754	0.00201387	0.0587885	1.96312	32041.5	934799	935348	-88.0369	0.0000000E+000	0.0000000E+000	0.0000000E+000	88.0369	0.0000000E+000	0.0000000E+000	0.0000000E+000	-88.0369	0.0000000E+000	0.0000000E+000	0.0000000E+000	-1.96312	0.0000000E+000	0.0000000E+000	0.0000000E+000	1.96312	29.1746	88.0369	-2.39896e-06	-0.000128389	1.6222e-08	-0.000128405	3.79311	112035	14.1556	112049
6.31058	17.1224	0.50982	17.13	-1.70548	24.7403	3.79264	-0.0334791	49469.1	43.8181	1	11	0.00471777	0.00027541	0	-0.000112539	-0.000212144	1.20632e-05	-120.408	0.0438007	-0.02217	0.0377756	-1.83414	17.109	17.1002	0.547596	0.0583513	0.00173741	0.0583772	1.70548	43818.2	1.47164e+06	1.47229e+06	-88.2945	0.0000000E+000	0.0000000E+000	0.0000000E+000	88.2945	0.0000000E+000	0.0000000E+000	0.0000000E+000	-88.2945	0.0000000E+000	0.0000000E+000	0.0000000E+000	-1.70548	0.0000000E+000	0.0000000E+000	0.0000000E+000	1.70548	33.5852	88.2945	-3.13292e-06	-0.000126974	7.10239e-09	-0.000126982	3.79285	113284	6.33659	113290
3.97785	17.2139	0.409613	17.2187	-1.36313	25.7473	3.79265	-0.0316319	97678.2	55.2768	1	11	0.00471988	0.000274113	0	-0.000119787	-0.000231219	2.50147e-06	-35.1619	0.00912567	0.0074605	0.00525537	-1.38001	17.2263	17.2213	0.414869	0.0580598	0.00138156	0.0580763	1.36313	55276.9	2.32299e+06	2.32365e+06	-88.6369	0.0000000E+000	0.0000000E+000	0.0000000E+000	88.6369	0.0000000E+000	0.0000000E+000	0.0000000E+000	-88.6369	0.0000000E+000	0.0000000E+000	0.0000000E+000	-1.36313	0.0000000E+000	0.0000000E+000	0.0000000E+000	1.36313	42.0247	88.6369	-5.95518e-06	-0.000119968	7.31389e-09	-0.000119976	3.79288	119900	7.30969	119907
2.51367	17.2855	0.405221	17.2902	-1.34293	27.3069	3.79264	-0.0313902	156250	85.8227	1	11	0.00471881	0.000272918	0	-0.000138121	-0.000250295	3.04863e-06	-51.3239	0.0111705	0.00698063	0.00872072	-1.37127	17.2974	17.2924	0.413942	0.0578203	0.00135547	0.0578362	1.34293	85822.8	3.66093e+06	3.66193e+06	-88.6571	0.0000000E+000	0.0000000E+000	0.0000000E+000	88.6571	0.0000000E+000	0.0000000E+000	0.0000000E+000	-88.6571	0.0000000E+000	0.0000000E+000	0.0000000E+000	-1.34293	0.0000000E+000	0.0000000E+000	0.0000000E+000	1.34293	42.6569	88.6571	-8.52e-06	-0.000119052	7.85679e-09	-0.00011906	3.79289	120823	7.97365	120831
1.58469	17.3689	0.409596	17.3738	-1.3509	29.7425	3.79265	-0.0302422	245200	136.284	1	11	0.00472032	0.000271692	0	-0.000148936	-0.000307521	2.24138e-06	43.3459	0.00824971	0.00599939	-0.00566261	-1.33178	17.3796	17.3749	0.403933	0.0575421	0.00135696	0.0575581	1.3509	136284	5.77913e+06	5.78074e+06	-88.6491	0.0000000E+000	0.0000000E+000	0.0000000E+000	88.6491	0.0000000E+000	0.0000000E+000	0.0000000E+000	-88.6491	0.0000000E+000	0.0000000E+000	0.0000000E+000	-1.3509	0.0000000E+000	0.0000000E+000	0.0000000E+000	1.3509	42.405	88.6491	-5.47382e-06	-0.000114698	9.30011e-09	-0.000114708	3.79296	125409	10.1686	125419
1.00469	17.5562	0.425582	17.5614	-1.38864	240.562	3.79261	-0.0171372	372223	218.601	1	11	0.00505826	0.000288033	0	-0.0025884	-4.04649e-05	2.69705e-07	5.80326	0.000936368	0.000931569	-9.46788e-05	-1.38826	17.5623	17.5572	0.425487	0.0569263	0.00137996	0.0569431	1.38864	218601	9.01778e+06	9.02043e+06	-88.6114	0.0000000E+000	0.0000000E+000	0.0000000E+000	88.6114	0.0000000E+000	0.0000000E+000	0.0000000E+000	-88.6114	0.0000000E+000	0.0000000E+000	0.0000000E+000	-1.38864	0.0000000E+000	0.0000000E+000	0.0000000E+000	1.38864	41.2523	88.6114	-0.0024282	-6.49948e-05	6.93457e-10	-6.49955e-05	3.79265	221308	2.36123	221310
0.632957	17.6635	0.494723	17.6705	-1.60433	240.562	3.79261	-0.0171372	508257	398.393	1	11	0.00507243	0.000287057	0	-0.0025884	-4.04649e-05	5.16053e-07	13.8185	0.00179774	0.0017457	-0.000429384	-1.60278	17.6722	17.6653	0.494294	0.0565694	0.0015844	0.0565916	1.60433	398394	1.42242e+07	1.42298e+07	-88.3957	0.0000000E+000	0.0000000E+000	0.0000000E+000	88.3957	0.0000000E+000	0.0000000E+000	0.0000000E+000	-88.3957	0.0000000E+000	0.0000000E+000	0.0000000E+000	-1.60433	0.0000000E+000	0.0000000E+000	0.0000000E+000	1.60433	35.7039	88.3957	0.000000000000000E+000	-6.49948e-05	6.93457e-10	-6.49955e-05	3.79265	221308	2.36123	221310
0.401878	17.7541	0.576323	17.7635	-1.85924	240.562	3.79261	-0.0171372	687165	723.328	1	11	0.00508584	0.000286308	0	-0.0025884	-4.04649e-05	1.80908e-07	22.7009	0.000631865	0.000582916	-0.00024385	-1.8584	17.7641	17.7547	0.576079	0.0562656	0.00182645	0.0562952	1.85924	723329	2.22828e+07	2.22945e+07	-88.1408	0.0000000E+000	0.0000000E+000	0.0000000E+000	88.1408	0.0000000E+000	0.0000000E+000	0.0000000E+000	-88.1408	0.0000000E+000	0.0000000E+000	0.0000000E+000	-1.85924	0.0000000E+000	0.0000000E+000	0.0000000E+000	1.85924	30.8059	88.1408	0.000000000000000E+000	-6.49948e-05	6.93457e-10	-6.49955e-05	3.79265	221308	2.36123	221310
0.251173	17.895	0.726796	17.9097	-2.32577	240.562	3.79261	-0.0171372	871834	1435.76	1	11	0.00508804	0.000284094	0	-0.0025884	-4.04649e-05	4.46572e-07	-51.4681	0.00157192	0.000979226	0.00122965	-2.32957	17.9107	17.8959	0.728026	0.0557897	0.00226587	0.0558357	2.32577	1.43576e+06	3.53509e+07	3.538e+07	-87.6742	0.0000000E+000	0.0000000E+000	0.0000000E+000	87.6742	0.0000000E+000	0.0000000E+000	0.0000000E+000	-87.6742	0.0000000E+000	0.0000000E+000	0.0000000E+000	-2.32577	0.0000000E+000	0.0000000E+000	0.0000000E+000	2.32577	24.6217	87.6742	0.000000000000000E+000	-6.49948e-05	6.93457e-10	-6.49955e-05	3.79265	221308	2.36123	221310
0.160751	18.0807	0.843522	18.1003	-2.6711	240.562	3.79261	-0.0171372	1.17374e+06	2549.11	1	11	0.00507912	0.000280609	0	-0.0025884	-4.04649e-05	1.32846e-07	7.31466	0.00047342	0.000469567	-6.02751e-05	-2.67084	18.1008	18.0811	0.843461	0.0551876	0.00257468	0.0552476	2.6711	2.54911e+06	5.46396e+07	5.4699e+07	-87.3289	0.0000000E+000	0.0000000E+000	0.0000000E+000	87.3289	0.0000000E+000	0.0000000E+000	0.0000000E+000	-87.3289	0.0000000E+000	0.0000000E+000	0.0000000E+000	-2.6711	0.0000000E+000	0.0000000E+000	0.0000000E+000	2.6711	21.4347	87.3289	0.000000000000000E+000	-6.49948e-05	6.93457e-10	-6.49955e-05	3.79265	221308	2.36123	221310
0.100469	18.2555	1.18809	18.2941	-3.72363	240.562	3.79261	-0.0171372	1.33333e+06	5623.59	1	11	0.00508169	0.000277777	0	-0.0025884	-4.04649e-05	5.02944e-07	-35.2109	0.0018106	0.00147933	0.00104397	-3.7266	18.2957	18.257	1.18914	0.054547	0.00354999	0.0546624	3.72363	5.62358e+06	8.64086e+07	8.65914e+07	-86.2764	0.0000000E+000	0.0000000E+000	0.0000000E+000	86.2764	0.0000000E+000	0.0000000E+000	0.0000000E+000	-86.2764	0.0000000E+000	0.0000000E+000	0.0000000E+000	-3.72363	0.0000000E+000	0.0000000E+000	0.0000000E+000	3.72363	15.3654	86.2764	0.000000000000000E+000	-6.49948e-05	6.93457e-10	-6.49955e-05	3.79265	221308	2.36123	221310
0.0602816	18.6144	1.41501	18.6681	-4.34709	240.563	3.79261	-0.0171372	1.86585e+06	10720	1	11	0.00507662	0.000271941	0	-0.0025884	-4.04649e-05	7.8479e-07	8.72459	0.00288588	0.00285249	-0.000437745	-4.34508	18.6709	18.6172	1.41457	0.0534132	0.00406031	0.0535673	4.34709	1.072e+07	1.41021e+08	1.41428e+08	-85.6529	0.0000000E+000	0.0000000E+000	0.0000000E+000	85.6529	0.0000000E+000	0.0000000E+000	0.0000000E+000	-85.6529	0.0000000E+000	0.0000000E+000	0.0000000E+000	-4.34709	0.0000000E+000	0.0000000E+000	0.0000000E+000	4.34709	13.155	85.6529	0.000000000000000E+000	-6.49948e-05	6.93457e-10	-6.49955e-05	3.79265	221308	2.36123	221310
0.0401878	19.061	1.69462	19.1362	-5.08052	240.563	3.79261	-0.0171372	2.33698e+06	18326.8	1	11	0.00507727	0.000265323	0	-0.0025884	-4.04649e-05	1.39763e-06	-26.4831	0.00526766	0.0047149	0.00234902	-5.08628	19.1411	19.0657	1.69697	0.0520517	0.00462766	0.052257	5.08052	1.83268e+07	2.0614e+08	2.06953e+08	-84.9195	0.0000000E+000	0.0000000E+000	0.0000000E+000	84.9195	0.0000000E+000	0.0000000E+000	0.0000000E+000	-84.9195	0.0000000E+000	0.0000000E+000	0.0000000E+000	-5.08052	0.0000000E+000	0.0000000E+000	0.0000000E+000	5.08052	11.248	84.9195	0.000000000000000E+000	-6.49948e-05	6.93457e-10	-6.49955e-05	3.79265	221308	2.36123	221310
0.0200939	20.1649	2.633	20.336	-7.43925	240.563	3.79261	-0.0171372	3.00819e+06	50428.4	1	11	0.00507946	0.000249776	0	-0.0025884	-4.04649e-05	1.73193e-06	-23.6619	0.00693394	0.006351	0.00278285	-7.4447	20.3427	20.1712	2.63579	0.0487599	0.00636677	0.0491738	7.43925	5.04284e+07	3.86206e+08	3.89484e+08	-82.5608	0.0000000E+000	0.0000000E+000	0.0000000E+000	82.5608	0.0000000E+000	0.0000000E+000	0.0000000E+000	-82.5608	0.0000000E+000	0.0000000E+000	0.0000000E+000	-7.43925	0.0000000E+000	0.0000000E+000	0.0000000E+000	7.43925	7.6585	82.5608	0.000000000000000E+000	-6.49948e-05	6.93457e-10	-6.49955e-05	3.79265	221308	2.36123	221310
0.00796479	22.9181	2.90376	23.1013	-7.22098	20329.5	3.79264	0.00131318	6.88154e+06	108726	1	11	0.00507021	0.000219477	0	0.00532496	-0.000631803	3.10737e-07	-40.1183	0.00141581	0.00108269	0.000912299	-7.22289	23.1025	22.9192	2.90467	0.0429442	0.00544109	0.0432875	7.22098	1.08726e+08	8.58125e+08	8.64986e+08	-82.779	0.0000000E+000	0.0000000E+000	0.0000000E+000	82.779	0.0000000E+000	0.0000000E+000	0.0000000E+000	-82.779	0.0000000E+000	0.0000000E+000	0.0000000E+000	-7.22098	0.0000000E+000	0.0000000E+000	0.0000000E+000	7.22098	7.89257	82.779	0.00791335	4.98043e-06	-8.29673e-10	4.98126e-06	3.79327	2.88813e+06	481.124	2.88861e+06
0.00497799	23.9729	2.80739	24.1368	-6.67929	20329.5	3.79264	0.00131318	1.13884e+07	154067	1	11	0.00507922	0.000210435	0	0.00532496	-0.000631803	3.35519e-07	-79.5037	0.00159441	0.000290457	0.00156773	-6.6829	24.1372	23.9732	2.80896	0.0411494	0.00481886	0.0414306	6.67929	1.54067e+08	1.31562e+09	1.32461e+09	-83.3207	0.0000000E+000	0.0000000E+000	0.0000000E+000	83.3207	0.0000000E+000	0.0000000E+000	0.0000000E+000	-83.3207	0.0000000E+000	0.0000000E+000	0.0000000E+000	-6.67929	0.0000000E+000	0.0000000E+000	0.0000000E+000	6.67929	8.53923	83.3207	0.000000000000000E+000	4.98043e-06	-8.29673e-10	4.98126e-06	3.79327	2.88813e+06	481.124	2.88861e+06
0.00318591	24.587	3.56189	24.8437	-8.24301	20329.5	3.79264	0.00131318	1.40251e+07	288293	1	11	0.0050822	0.000204567	0	0.00532496	-0.000631803	4.46828e-07	-84.1247	0.00218426	0.000223588	0.00217279	-8.24789	24.8442	24.5872	3.56406	0.0398358	0.00577096	0.0402517	8.24301	2.88293e+08	1.99003e+09	2.01081e+09	-81.757	0.0000000E+000	0.0000000E+000	0.0000000E+000	81.757	0.0000000E+000	0.0000000E+000	0.0000000E+000	-81.757	0.0000000E+000	0.0000000E+000	0.0000000E+000	-8.24301	0.0000000E+000	0.0000000E+000	0.0000000E+000	8.24301	6.90281	81.757	0.000000000000000E+000	4.98043e-06	-8.29673e-10	4.98126e-06	3.79327	2.88813e+06	481.124	2.88861e+06
0.0019912	25.0863	3.8112	25.3741	-8.63853	20329.5	3.79264	0.00131318	2.09722e+07	473135	1	11	0.00508119	0.000200251	0	0.00532496	-0.000631803	1.71208e-06	26.7161	0.00854968	0.00763696	-0.00384368	-8.62736	25.3811	25.0939	3.80736	0.0389631	0.00591942	0.0394102	8.63853	4.73135e+08	3.11429e+09	3.15003e+09	-81.3615	0.0000000E+000	0.0000000E+000	0.0000000E+000	81.3615	0.0000000E+000	0.0000000E+000	0.0000000E+000	-81.3615	0.0000000E+000	0.0000000E+000	0.0000000E+000	-8.63853	0.0000000E+000	0.0000000E+000	0.0000000E+000	8.63853	6.58225	81.3615	0.000000000000000E+000	4.98043e-06	-8.29673e-10	4.98126e-06	3.79327	2.88813e+06	481.124	2.88861e+06
0.00129428	25.1599	4.88076	25.629	-10.9784	20329.5	3.79264	0.00131318	2.51945e+07	913732	1	11	0.00508313	0.000198335	0	0.00532496	-0.000631803	2.03264e-06	48.8718	0.0102485	0.00674092	-0.00771959	-10.9586	25.6341	25.1667	4.87304	0.0383043	0.00743064	0.0390184	10.9784	9.13732e+08	4.71021e+09	4.79802e+09	-79.0216	0.0000000E+000	0.0000000E+000	0.0000000E+000	79.0216	0.0000000E+000	0.0000000E+000	0.0000000E+000	-79.0216	0.0000000E+000	0.0000000E+000	0.0000000E+000	-10.9784	0.0000000E+000	0.0000000E+000	0.0000000E+000	10.9784	5.15491	79.0216	0.000000000000000E+000	4.98043e-06	-8.29673e-10	4.98126e-06	3.79327	2.88813e+06	481.124	2.88861e+06
0.000796479	26.5082	6.20588	27.2249	-13.1763	20329.5	3.79264	0.00131318	3.2199e+07	1.67308e+06	1	11	0.00508375	0.000186731	0	0.00532496	-0.000631803	6.46075e-06	-70.9724	0.0345992	0.0112801	0.0327088	-13.2379	27.2434	26.5195	6.23859	0.035764	0.00837278	0.036731	13.1763	1.67308e+09	7.14648e+09	7.33971e+09	-76.8237	0.0000000E+000	0.0000000E+000	0.0000000E+000	76.8237	0.0000000E+000	0.0000000E+000	0.0000000E+000	-76.8237	0.0000000E+000	0.0000000E+000	0.0000000E+000	-13.1763	0.0000000E+000	0.0000000E+000	0.0000000E+000	13.1763	4.27146	76.8237	0.000000000000000E+000	4.98043e-06	-8.29673e-10	4.98126e-06	3.79327	2.88813e+06	481.124	2.88861e+06
0.000497799	26.3593	9.03477	27.8646	-18.9194	20329.5	3.79264	0.00131318	3.53874e+07	3.72029e+06	1	11	0.00508489	0.000182486	0	0.00532496	-0.000631803	3.00836e-06	-134.634	0.0164854	-0.0115823	0.0117312	-18.95	27.8575	26.3477	9.04651	0.033949	0.0116362	0.0358878	18.9194	3.72029e+09	1.08541e+10	1.14739e+10	-71.0806	0.0000000E+000	0.0000000E+000	0.0000000E+000	71.0806	0.0000000E+000	0.0000000E+000	0.0000000E+000	-71.0806	0.0000000E+000	0.0000000E+000	0.0000000E+000	-18.9194	0.0000000E+000	0.0000000E+000	0.0000000E+000	18.9194	2.91753	71.0806	0.000000000000000E+000	4.98043e-06	-8.29673e-10	4.98126e-06	3.79327	2.88813e+06	481.124	2.88861e+06
0.000298679	26.5687	13.8864	29.9788	-27.5942	20329.5	3.79264	0.00131318	3.8373e+07	8.23333e+06	1	11	0.00508588	0.000169649	0	0.00532496	-0.000631803	3.09261e-06	-110.652	0.0182294	-0.00642925	0.017058	-27.6288	29.981	26.5623	13.9034	0.0295626	0.0154512	0.0333569	27.5942	8.23333e+09	1.57528e+10	1.77746e+10	-62.4058	0.0000000E+000	0.0000000E+000	0.0000000E+000	62.4058	0.0000000E+000	0.0000000E+000	0.0000000E+000	-62.4058	0.0000000E+000	0.0000000E+000	0.0000000E+000	-27.5942	0.0000000E+000	0.0000000E+000	0.0000000E+000	27.5942	1.91329	62.4058	0.000000000000000E+000	4.98043e-06	-8.29673e-10	4.98126e-06	3.79327	2.88813e+06	481.124	2.88861e+06
9.95598e-05	30.1498	40.6201	50.5866	-53.4158	20329.5	3.79264	0.00131318	3.93546e+07	2.5375e+07	1	11	0.00508287	0.000100479	0	0.00532496	-0.000631803	2.39204e-06	-132.931	0.0238064	-0.0162148	0.0174306	-53.4423	50.5909	30.1336	40.6375	0.0117819	0.0158734	0.0197681	53.4158	2.5375e+10	1.88343e+10	3.1601e+10	-36.5842	0.0000000E+000	0.0000000E+000	0.0000000E+000	36.5842	0.0000000E+000	0.0000000E+000	0.0000000E+000	-36.5842	0.0000000E+000	0.0000000E+000	0.0000000E+000	-53.4158	0.0000000E+000	0.0000000E+000	0.0000000E+000	53.4158	0.742239	36.5842	0.000000000000000E+000	4.98043e-06	-8.29673e-10	4.98126e-06	3.79327	2.88813e+06	481.124	2.88861e+06