File: txt/17552_R290_UC83_50SOC_C08.mpt
EC-Lab ASCII FILE
Nb header lines : 64

Potentio Electrochemical Impedance Spectroscopy

Run on channel : 8 (SN 65398)
User :
CE vs. WE compliance from -10 V to 10 V
Electrode connection : standard
Potential control : Ewe
Ewe ctrl range : min = -10.00 V, max = 10.00 V
Safety Limits :
	Do not start on E overload
Acquisition started on : 09/16/2025 16:59:08.715
Loaded Setting File :  C:\Users\Celltest\OneDrive - store-dot.com\Documents\EC-Lab\Data\Michael\R290\17544_R290_UC82_50SOC.mps
Saved on :
	File : 17552_R290_UC83_50SOC_C08.mpr
	Directory : C:\Users\Celltest\OneDrive - store-dot.com\Documents\EC-Lab\Data\Michael\R290\
	Host : 169.254.61.224
Device : VMP-3e (SN .003165)
Address : USB
EC-LAB for windows v11.62 (software)
Internet server v27.00 (firmware)
Command interpretor v12.03 (firmware)
Electrode material :
Initial state :
Electrolyte :
Comments :
Electrode surface area : 0.001 cm²
Characteristic mass : 0.001 g
Equivalent Weight : 0.000 g/eq.
Density : 0.000 g/cm3
Volume (V) : 0.001 cm³
Record Ece
Cycle Definition : Charge/Discharge alternance
Mode                Multi sine
E (V)               0.0000
vs.                 Eoc
tE (h:m:s)          0:00:0.0000
record              0
dI                  0.000
unit dI             mA
dt (s)              0.000
fi                  1.000
unit fi             MHz
ff                  0.100
unit ff             mHz
Nd                  10
Points              per decade
spacing             Logarithmic
Va (mV)             5.0
pw                  0.10
Na                  2
corr                0
E range min (V)     -10.000
E range max (V)     10.000
I Range             Auto
Bandwidth           5
nc cycles           0
goto Ns'            0
nr cycles           0
inc. cycle          0

freq/Hz	Re(Z)/Ohm	-Im(Z)/Ohm	|Z|/Ohm	Phase(Z)/deg	time/s	<Ewe>/V	<I>/mA	Cs/µF	Cp/µF	cycle number	I Range	|Ewe|/V	|I|/A	Ns	(Q-Qo)/mA.h	<Ece>/V	|Ece|/V	Phase(Zce)/deg	|Zce|/Ohm	Re(Zce)/Ohm	-Im(Zce)/Ohm	Phase(Zwe-ce)/deg	|Zwe-ce|/Ohm	Re(Zwe-ce)/Ohm	-Im(Zwe-ce)/Ohm	Re(Y)/Ohm-1	Im(Y)/Ohm-1	|Y|/Ohm-1	Phase(Y)/deg	Re(C)/nF	Im(C)/nF	|C|/nF	Phase(C)/deg	Re(M)	Im(M)	|M|	Phase(M)/deg	Re(Permittivity)	Im(Permittivity)	|Permittivity|	Phase(Permittivity)/deg	Re(Resistivity)/Ohm.cm	Im(Resistivity)/Ohm.cm	|Resistivity|/Ohm.cm	Phase(Resistivity)/deg	Re(Conductivity)/mS/cm	Im(Conductivity)/mS/cm	|Conductivity|/mS/cm	Phase(Conductivity)/deg	Tan(Delta)	Loss Angle(Delta)/deg	dq/mA.h	Pwe/W	Pce/W	Pwe-ce/W	<Ewe-Ece>/V	Rwe/Ohm	Rce/Ohm	Rwe-ce/Ohm		Ewe-Ece/V
1.00002e+06	2.11878	3.19971	3.83763	-56.4884	2.23456	3.79201	-0.0308978	0.0497395	0.0345778	1	10	0.000231199	6.02453e-05	0	-2.40586e-05	0.000273542	0.000204863	-67.7514	3.40048	1.28751	3.14732	-61.7787	7.2033	3.40629	6.34703	0.143866	0.217263	0.260578	56.4884	34.5778	22.8966	41.4715	-33.5116	0.0000000E+000	0.0000000E+000	0.0000000E+000	33.5116	0.0000000E+000	0.0000000E+000	0.0000000E+000	-33.5116	0.0000000E+000	0.0000000E+000	0.0000000E+000	-56.4884	0.0000000E+000	0.0000000E+000	0.0000000E+000	56.4884	0.662177	33.5116	-2.40586e-05	-0.000117165	-8.45184e-09	-0.000117156	3.79174	122728	8.85312	122719
630957	0.628384	0.12452	0.640602	-11.2085	3.40554	3.79163	-0.0333308	2.02572	0.0765392	1	9	0.000188984	0.000295009	0	-3.59386e-05	-0.000165483	0.000120498	-99.4568	0.408456	-0.0671106	0.402905	-43.2192	0.770198	0.561273	0.527425	1.53126	0.303433	1.56103	11.2085	76.5392	386.25	393.76	-78.7915	0.0000000E+000	0.0000000E+000	0.0000000E+000	78.7915	0.0000000E+000	0.0000000E+000	0.0000000E+000	-78.7915	0.0000000E+000	0.0000000E+000	0.0000000E+000	-11.2085	0.0000000E+000	0.0000000E+000	0.0000000E+000	11.2085	5.04644	78.7915	-3.20217e-06	-0.000126378	5.5157e-09	-0.000126384	3.7918	113758	4.96487	113762
398103	0.76561	0.11401	0.774052	-8.46992	4.17356	3.79174	-0.0196032	3.50655	0.0760725	1	9	0.000681377	0.000880273	0	-4.25354e-05	2.53972e-05	5.61714e-05	149.932	0.0638113	-0.0552245	-0.0319708	-6.58767	0.715107	0.710385	0.0820394	1.27781	0.190285	1.2919	8.46992	76.0726	510.848	516.481	-81.5301	0.0000000E+000	0.0000000E+000	0.0000000E+000	81.5301	0.0000000E+000	0.0000000E+000	0.0000000E+000	-81.5301	0.0000000E+000	0.0000000E+000	0.0000000E+000	-8.46992	0.0000000E+000	0.0000000E+000	0.0000000E+000	8.46992	6.71527	81.5301	-3.57483e-06	-7.43303e-05	-4.97866e-10	-7.43298e-05	3.79171	193424	1.29556	193423
251206	0.844048	0.317256	0.901703	-20.6	4.93952	3.79161	-0.0353025	1.99701	0.247214	1	9	0.00216596	0.00240208	0	-4.95179e-05	4.44852e-05	9.03946e-05	97.8086	0.0376319	-0.00511283	-0.0372829	-18.4551	0.884419	0.838935	0.279973	1.0381	0.390196	1.10901	20.6	247.214	657.703	702.629	-69.4	0.0000000E+000	0.0000000E+000	0.0000000E+000	69.4	0.0000000E+000	0.0000000E+000	0.0000000E+000	-69.4	0.0000000E+000	0.0000000E+000	0.0000000E+000	-20.6	0.0000000E+000	0.0000000E+000	0.0000000E+000	20.6	2.66046	69.4	-3.92968e-06	-0.000133854	-1.57044e-09	-0.000133852	3.79157	107403	1.26011	107402
158486	0.910399	0.524168	1.05051	-29.9315	5.70756	3.79156	-0.0306894	1.91583	0.476975	1	9	0.00512502	0.00487859	0	-5.31216e-05	6.35733e-05	8.09226e-05	75.7586	0.0165873	0.00408062	-0.0160775	-29.0568	1.04615	0.91448	0.508091	0.824951	0.474971	0.951915	29.9315	476.976	828.433	955.932	-60.0685	0.0000000E+000	0.0000000E+000	0.0000000E+000	60.0685	0.0000000E+000	0.0000000E+000	0.0000000E+000	-60.0685	0.0000000E+000	0.0000000E+000	0.0000000E+000	-29.9315	0.0000000E+000	0.0000000E+000	0.0000000E+000	29.9315	1.73685	60.0685	-4.29385e-07	-0.000116361	-1.95102e-09	-0.000116359	3.7915	123547	2.07151	123544
100004	1.02311	0.771242	1.28124	-37.0097	6.47555	3.79154	-0.0279736	2.06354	0.747712	1	9	0.0053917	0.00420819	0	-5.07712e-05	-0.000241836	5.26101e-05	68.2997	0.0125018	0.00462256	-0.0116158	-36.4691	1.27799	1.02773	0.759626	0.623251	0.469819	0.780495	37.0097	747.712	991.898	1242.15	-52.9903	0.0000000E+000	0.0000000E+000	0.0000000E+000	52.9903	0.0000000E+000	0.0000000E+000	0.0000000E+000	-52.9903	0.0000000E+000	0.0000000E+000	0.0000000E+000	-37.0097	0.0000000E+000	0.0000000E+000	0.0000000E+000	37.0097	1.32658	52.9903	1.05355e-05	-0.000106063	6.76502e-09	-0.00010607	3.79178	135540	8.64513	135548
63093.8	1.21241	1.1022	1.63853	-42.274	7.24356	3.79153	-0.0264112	2.28861	1.03558	1	9	0.00535624	0.00326893	0	-6.57267e-05	0.000139925	3.19242e-05	57.6365	0.00976597	0.00522762	-0.00824901	-41.9373	1.63688	1.21764	1.09395	0.451585	0.410536	0.610302	42.274	1035.58	1139.13	1539.49	-47.726	0.0000000E+000	0.0000000E+000	0.0000000E+000	47.726	0.0000000E+000	0.0000000E+000	0.0000000E+000	-47.726	0.0000000E+000	0.0000000E+000	0.0000000E+000	-42.274	0.0000000E+000	0.0000000E+000	0.0000000E+000	42.274	1.09999	47.726	-1.15885e-05	-0.000100139	-3.6956e-09	-0.000100135	3.79139	143558	5.29797	143553
39814.1	1.53011	1.52846	2.16273	-44.9691	8.01153	3.79154	-0.0267832	2.61535	1.30626	1	9	0.00532448	0.00246192	0	-6.21814e-05	-0.000222748	1.93111e-05	11.7286	0.00784393	0.00768016	-0.00159448	-44.7957	2.16705	1.53779	1.52686	0.327127	0.326774	0.462378	44.9691	1306.26	1307.68	1848.33	-45.0309	0.0000000E+000	0.0000000E+000	0.0000000E+000	45.0309	0.0000000E+000	0.0000000E+000	0.0000000E+000	-45.0309	0.0000000E+000	0.0000000E+000	0.0000000E+000	-44.9691	0.0000000E+000	0.0000000E+000	0.0000000E+000	44.9691	1.00108	45.0309	1.54263e-06	-0.00010155	5.96589e-09	-0.000101556	3.79176	141564	8.31669	141572
25116.9	2.07174	2.00754	2.88485	-44.0983	8.77753	3.79152	-0.0183011	3.15638	1.52853	1	9	0.00534722	0.00185355	0	-6.24496e-05	0.000368982	3.69738e-06	23.4006	0.00199475	0.00183069	-0.000792233	-44.0617	2.88561	2.07357	2.00675	0.248937	0.241223	0.346639	44.0983	1528.52	1577.41	2196.5	-45.9017	0.0000000E+000	0.0000000E+000	0.0000000E+000	45.9017	0.0000000E+000	0.0000000E+000	0.0000000E+000	-45.9017	0.0000000E+000	0.0000000E+000	0.0000000E+000	-44.0983	0.0000000E+000	0.0000000E+000	0.0000000E+000	44.0983	1.03198	45.9017	-1.11099e-06	-6.93891e-05	-6.75278e-09	-6.93823e-05	3.79115	207174	20.1617	207154
15847.7	2.87334	2.39459	3.74034	-39.8073	9.54355	3.79152	-0.0270436	4.19394	1.71895	1	9	0.00521409	0.00139401	0	-7.0186e-05	8.26613e-05	1.22226e-05	-130.142	0.00876793	-0.00565256	0.00670262	-39.9416	3.7403	2.86769	2.4013	0.205383	0.171163	0.267355	39.8073	1718.95	2062.62	2684.99	-50.1927	0.0000000E+000	0.0000000E+000	0.0000000E+000	50.1927	0.0000000E+000	0.0000000E+000	0.0000000E+000	-50.1927	0.0000000E+000	0.0000000E+000	0.0000000E+000	-39.8073	0.0000000E+000	0.0000000E+000	0.0000000E+000	39.8073	1.19993	50.1927	-3.42381e-06	-0.000102537	-2.23546e-09	-0.000102534	3.79144	140200	3.05659	140197
10002.2	3.81314	2.56558	4.59589	-33.9337	10.4655	3.7915	-0.0569896	6.20209	1.93272	1	10	0.00493756	0.00107434	0	-8.06531e-05	4.44852e-05	1.29497e-05	-56.3016	0.0120536	0.0066876	0.0100282	-33.9908	4.60704	3.81982	2.57561	0.180527	0.121464	0.217586	33.9337	1932.72	2872.54	3462.21	-56.0663	0.0000000E+000	0.0000000E+000	0.0000000E+000	56.0663	0.0000000E+000	0.0000000E+000	0.0000000E+000	-56.0663	0.0000000E+000	0.0000000E+000	0.0000000E+000	-33.9337	0.0000000E+000	0.0000000E+000	0.0000000E+000	33.9337	1.48627	56.0663	-7.89017e-06	-0.000216076	-2.53519e-09	-0.000216074	3.79146	66529.7	0.780585	66528.9
6309.38	4.73972	2.50165	5.3594	-27.8254	10.9855	3.79149	-0.0578787	10.0834	2.19699	1	10	0.00527019	0.000983354	0	-8.80876e-05	0.000254454	7.45691e-06	-42.6679	0.00758314	0.00557584	0.00513945	-27.8461	5.36673	4.7453	2.50679	0.165014	0.0870951	0.186588	27.8254	2196.99	4162.49	4706.7	-62.1746	0.0000000E+000	0.0000000E+000	0.0000000E+000	62.1746	0.0000000E+000	0.0000000E+000	0.0000000E+000	-62.1746	0.0000000E+000	0.0000000E+000	0.0000000E+000	-27.8254	0.0000000E+000	0.0000000E+000	0.0000000E+000	27.8254	1.89464	62.1746	-4.05939e-06	-0.000219446	-1.47274e-08	-0.000219432	3.79124	65507.6	4.39633	65503.2
3983.6	5.51474	2.32131	5.98338	-22.8276	11.5481	3.79146	-0.0596159	17.2112	2.5905	1	10	0.00515224	0.000861091	0	-9.70697e-05	0.000178102	8.54493e-06	-134.397	0.00992338	-0.00694264	0.00709036	-22.916	5.97974	5.5078	2.3284	0.154039	0.0648395	0.16713	22.8276	2590.5	6154.26	6677.25	-67.1724	0.0000000E+000	0.0000000E+000	0.0000000E+000	67.1724	0.0000000E+000	0.0000000E+000	0.0000000E+000	-67.1724	0.0000000E+000	0.0000000E+000	0.0000000E+000	-22.8276	0.0000000E+000	0.0000000E+000	0.0000000E+000	22.8276	2.3757	67.1724	-5.30503e-06	-0.000226031	-1.06177e-08	-0.000226021	3.79128	63598.1	2.98749	63595.2
2510.8	6.1533	2.15278	6.51902	-19.2828	12.3728	3.7914	-0.0518337	29.4448	3.21102	1	10	0.00503809	0.000772831	0	-0.000111037	6.3091e-06	6.75553e-06	-6.93479	0.00874128	0.00867733	0.00105542	-19.2664	6.52756	6.16198	2.15383	0.144792	0.0506565	0.153397	19.2828	3211.02	9178.07	9723.56	-70.7172	0.0000000E+000	0.0000000E+000	0.0000000E+000	70.7172	0.0000000E+000	0.0000000E+000	0.0000000E+000	-70.7172	0.0000000E+000	0.0000000E+000	0.0000000E+000	-19.2828	0.0000000E+000	0.0000000E+000	0.0000000E+000	19.2828	2.85831	70.7172	-6.92447e-06	-0.000196522	-3.27024e-10	-0.000196522	3.79139	73145.4	0.121718	73145.3
1585.51	6.74963	2.01723	7.04462	-16.6396	13.2748	3.7914	-0.0517073	49.7619	4.0803	1	10	0.00498828	0.000708098	0	-0.000123763	8.26613e-05	3.33889e-05	56.1404	0.0471529	0.0262717	-0.039156	-16.274	7.05872	6.7759	1.97807	0.136008	0.0406481	0.141952	16.6396	4080.3	13652.6	14249.3	-73.3604	0.0000000E+000	0.0000000E+000	0.0000000E+000	73.3604	0.0000000E+000	0.0000000E+000	0.0000000E+000	-73.3604	0.0000000E+000	0.0000000E+000	0.0000000E+000	-16.6396	0.0000000E+000	0.0000000E+000	0.0000000E+000	16.6396	3.34599	73.3604	-5.89175e-06	-0.000196043	-4.27419e-09	-0.000196039	3.79132	73324.3	1.59864	73322.7
1000.32	7.29748	1.985	7.56263	-15.2169	14.1768	3.7914	-0.0510079	80.1533	5.52198	1	10	0.00493759	0.000652893	0	-0.000135815	0.00019719	1.25512e-05	142.259	0.019224	-0.015202	-0.011767	-15.161	7.54488	7.28227	1.97323	0.127593	0.0347068	0.132229	15.2169	5521.98	20300.6	21038.2	-74.7831	0.0000000E+000	0.0000000E+000	0.0000000E+000	74.7831	0.0000000E+000	0.0000000E+000	0.0000000E+000	-74.7831	0.0000000E+000	0.0000000E+000	0.0000000E+000	-15.2169	0.0000000E+000	0.0000000E+000	0.0000000E+000	15.2169	3.67632	74.7831	-5.79293e-06	-0.000193391	-1.00582e-08	-0.000193381	3.7912	74329.6	3.86586	74325.7
631.01	7.87243	1.95128	8.11065	-13.9209	15.0786	3.79139	-0.0510339	129.26	7.48157	1	10	0.00490477	0.000604733	0	-0.000148741	0.00029263	4.64992e-06	2.26032	0.00768921	0.00768323	-0.000303261	-13.9058	8.11803	7.88011	1.95098	0.119673	0.0296625	0.123295	13.9209	7481.56	30184.3	31097.7	-76.0791	0.0000000E+000	0.0000000E+000	0.0000000E+000	76.0791	0.0000000E+000	0.0000000E+000	0.0000000E+000	-76.0791	0.0000000E+000	0.0000000E+000	0.0000000E+000	-13.9209	0.0000000E+000	0.0000000E+000	0.0000000E+000	13.9209	4.0345	76.0791	-6.70843e-06	-0.00019349	-1.49341e-08	-0.000193475	3.7911	74291.6	5.73402	74285.9
398.089	8.4623	1.89776	8.67248	-12.64	15.9799	3.79139	-0.0503569	210.668	10.0877	1	10	0.00488101	0.000562816	0	-0.000161019	4.44852e-05	1.29641e-05	-46.6332	0.0230344	0.015817	0.0167454	-12.7249	8.69159	8.47811	1.9145	0.112513	0.0252321	0.115307	12.64	10087.7	44982.2	46099.5	-77.36	0.0000000E+000	0.0000000E+000	0.0000000E+000	77.36	0.0000000E+000	0.0000000E+000	0.0000000E+000	-77.36	0.0000000E+000	0.0000000E+000	0.0000000E+000	-12.64	0.0000000E+000	0.0000000E+000	0.0000000E+000	12.64	4.4591	77.36	-5.74291e-06	-0.000190923	-2.24014e-09	-0.000190921	3.79135	75290.4	0.883398	75289.5
251.044	9.05945	1.78158	9.23296	-11.1255	16.878	3.79139	-0.0507289	355.847	13.2493	1	10	0.00486731	0.000527167	0	-0.000173346	0.000330806	5.66251e-06	-52.8013	0.0107414	0.00649404	0.008556	-11.1698	9.24099	9.06594	1.79014	0.106272	0.0208989	0.108308	11.1255	13249.3	67373.5	68663.9	-78.8745	0.0000000E+000	0.0000000E+000	0.0000000E+000	78.8745	0.0000000E+000	0.0000000E+000	0.0000000E+000	-78.8745	0.0000000E+000	0.0000000E+000	0.0000000E+000	-11.1255	0.0000000E+000	0.0000000E+000	0.0000000E+000	11.1255	5.08506	78.8745	-5.84349e-06	-0.000192333	-1.67814e-08	-0.000192316	3.79106	74738.3	6.52106	74731.8
158.428	9.6128	1.56866	9.73995	-9.26812	17.7829	3.79141	-0.048058	640.409	16.6113	1	10	0.00487424	0.000500438	0	-0.000185018	-0.000375452	1.19949e-05	24.3205	0.0239687	0.0218416	-0.00987129	-9.19027	9.75992	9.63464	1.55879	0.10133	0.0165355	0.10267	9.26812	16611.3	101794	103141	-80.7319	0.0000000E+000	0.0000000E+000	0.0000000E+000	80.7319	0.0000000E+000	0.0000000E+000	0.0000000E+000	-80.7319	0.0000000E+000	0.0000000E+000	0.0000000E+000	-9.26812	0.0000000E+000	0.0000000E+000	0.0000000E+000	9.26812	6.12802	80.7319	-5.731e-06	-0.000182207	1.80435e-08	-0.000182225	3.79178	78892.4	7.81248	78900.2
100.032	10.0449	1.3582	10.1363	-7.70042	18.6828	3.79141	-0.0478943	1171.44	21.0323	1	10	0.0048704	0.000480491	0	-0.000196994	-1.2779e-05	7.50176e-06	-80.522	0.0156127	0.00257093	0.0153995	-7.7847	10.1409	10.0474	1.3736	0.0977658	0.0132192	0.0986555	7.70042	21032.3	155549	156965	-82.2996	0.0000000E+000	0.0000000E+000	0.0000000E+000	82.2996	0.0000000E+000	0.0000000E+000	0.0000000E+000	-82.2996	0.0000000E+000	0.0000000E+000	0.0000000E+000	-7.70042	0.0000000E+000	0.0000000E+000	0.0000000E+000	7.70042	7.39575	82.2996	-6.50914e-06	-0.000181587	6.12039e-10	-0.000181587	3.79142	79162	0.266816	79162.2
63.0823	10.4186	1.12257	10.4789	-6.14973	19.6	3.7914	-0.0456512	2247.49	25.7927	1	10	0.00486583	0.000464345	0	-0.000208422	0.000101749	7.39467e-06	-33.7724	0.0159249	0.0132376	0.00885258	-6.19005	10.493	10.4318	1.13143	0.0948807	0.0102231	0.0954299	6.14973	25792.7	239382	240767	-83.8503	0.0000000E+000	0.0000000E+000	0.0000000E+000	83.8503	0.0000000E+000	0.0000000E+000	0.0000000E+000	-83.8503	0.0000000E+000	0.0000000E+000	0.0000000E+000	-6.14973	0.0000000E+000	0.0000000E+000	0.0000000E+000	6.14973	9.28099	83.8503	-5.93208e-06	-0.000173082	-4.64498e-09	-0.000173077	3.7913	83051.6	2.22885	83049.4
39.8089	10.6929	0.899658	10.7307	-4.80931	20.5008	3.7914	-0.0473772	4443.88	31.2365	1	10	0.00486057	0.00045296	0	-0.000219664	4.44852e-05	1.15739e-05	-48.12	0.0255517	0.0170577	0.0190244	-4.90273	10.7493	10.71	0.918682	0.0928626	0.00781308	0.0931907	4.80931	31236.5	371262	372574	-85.1907	0.0000000E+000	0.0000000E+000	0.0000000E+000	85.1907	0.0000000E+000	0.0000000E+000	0.0000000E+000	-85.1907	0.0000000E+000	0.0000000E+000	0.0000000E+000	-4.80931	0.0000000E+000	0.0000000E+000	0.0000000E+000	4.80931	11.8855	85.1907	-5.51844e-06	-0.000179626	-2.10759e-09	-0.000179624	3.79136	80025.8	0.938958	80024.9
25.1044	10.919	0.707565	10.9419	-3.70765	21.3801	3.79141	-0.0467225	8959.91	37.4671	1	10	0.00486581	0.000444695	0	-0.000230891	0.000235366	4.51663e-06	41.3941	0.0101567	0.00761934	-0.00671595	-3.67	10.9491	10.9266	0.700849	0.0912005	0.00590991	0.0913918	3.70765	37467.1	578185	579398	-86.2923	0.0000000E+000	0.0000000E+000	0.0000000E+000	86.2923	0.0000000E+000	0.0000000E+000	0.0000000E+000	-86.2923	0.0000000E+000	0.0000000E+000	0.0000000E+000	-3.70765	0.0000000E+000	0.0000000E+000	0.0000000E+000	3.70765	15.4318	86.2923	-6.20171e-06	-0.000177144	-1.09969e-08	-0.000177133	3.79117	81147.3	5.03752	81142.3
15.8576	11.0928	0.572349	11.1076	-2.95363	22.258	3.79141	-0.0511865	17535.7	46.559	1	10	0.00488078	0.000439409	0	-0.000240343	0.00019719	1.52732e-05	-38.8917	0.0347585	0.0270538	0.0218232	-3.05859	11.1358	11.1199	0.594172	0.0899088	0.00463896	0.0900284	2.95363	46559	902372	903572	-87.0464	0.0000000E+000	0.0000000E+000	0.0000000E+000	87.0464	0.0000000E+000	0.0000000E+000	0.0000000E+000	-87.0464	0.0000000E+000	0.0000000E+000	0.0000000E+000	-2.95363	0.0000000E+000	0.0000000E+000	0.0000000E+000	2.95363	19.3813	87.0464	-4.22182e-06	-0.000194069	-1.00934e-08	-0.000194059	3.79121	74070.6	3.85238	74066.7
10.0032	11.1517	0.435787	11.1603	-2.23786	23.2398	3.79139	-0.0470833	36509.6	55.6682	1	10	0.00486773	0.000436166	0	-0.000255034	0.000311718	5.58324e-06	-100.916	0.0128007	-0.00242413	0.0125691	-2.30284	11.1583	11.1493	0.448356	0.0895353	0.00349886	0.0896037	2.23786	55668.2	1.42454e+06	1.42563e+06	-87.7621	0.0000000E+000	0.0000000E+000	0.0000000E+000	87.7621	0.0000000E+000	0.0000000E+000	0.0000000E+000	-87.7621	0.0000000E+000	0.0000000E+000	0.0000000E+000	-2.23786	0.0000000E+000	0.0000000E+000	0.0000000E+000	2.23786	25.5899	87.7621	-9.35798e-06	-0.000178511	-1.46767e-08	-0.000178497	3.79108	80525.1	6.62056	80518.5
6.31058	11.2486	0.357977	11.2542	-1.82278	24.4613	3.79144	-0.0458967	70452.5	71.2808	1	11	0.00486275	0.000432082	0	-0.000269863	6.35733e-05	8.11385e-06	-110.199	0.0187785	-0.00648384	0.0176236	-1.91355	11.2483	11.2421	0.3756	0.0888104	0.00282632	0.0888553	1.82278	71280.7	2.23983e+06	2.24096e+06	-88.1772	0.0000000E+000	0.0000000E+000	0.0000000E+000	88.1772	0.0000000E+000	0.0000000E+000	0.0000000E+000	-88.1772	0.0000000E+000	0.0000000E+000	0.0000000E+000	-1.82278	0.0000000E+000	0.0000000E+000	0.0000000E+000	1.82278	31.4226	88.1772	-5.99384e-06	-0.000174015	-2.9178e-09	-0.000174012	3.79137	82608	1.38514	82606.6
3.97785	11.322	0.324717	11.3267	-1.6428	25.4683	3.79147	-0.0425637	123216	101.267	1	11	0.00486723	0.000429713	0	-0.000276757	-8.91312e-05	6.9283e-06	-22.1565	0.0161231	0.0149325	0.00608062	-1.67134	11.3418	11.337	0.330798	0.0882507	0.00253104	0.088287	1.6428	101268	3.53094e+06	3.53239e+06	-88.3572	0.0000000E+000	0.0000000E+000	0.0000000E+000	88.3572	0.0000000E+000	0.0000000E+000	0.0000000E+000	-88.3572	0.0000000E+000	0.0000000E+000	0.0000000E+000	-1.6428	0.0000000E+000	0.0000000E+000	0.0000000E+000	1.6428	34.8674	88.3572	-6.10326e-06	-0.000161379	3.79376e-09	-0.000161383	3.79156	89077.5	2.09406	89079.6
2.51367	11.3835	0.323667	11.3881	-1.62865	27.0279	3.79147	-0.0423105	195620	158.017	1	11	0.00486665	0.000427345	0	-0.000304895	-0.0002991	3.56904e-06	81.8804	0.00835168	0.00117959	-0.00826795	-1.5869	11.3891	11.3847	0.315399	0.0877753	0.00249571	0.0878108	1.62865	158017	5.55755e+06	5.5598e+06	-88.3714	0.0000000E+000	0.0000000E+000	0.0000000E+000	88.3714	0.0000000E+000	0.0000000E+000	0.0000000E+000	-88.3714	0.0000000E+000	0.0000000E+000	0.0000000E+000	-1.62865	0.0000000E+000	0.0000000E+000	0.0000000E+000	1.62865	35.1705	88.3714	-1.42609e-05	-0.000160419	1.2655e-08	-0.000160431	3.79177	89610.6	7.06917	89617.7
1.58469	11.4492	0.35154	11.4546	-1.75868	29.4634	3.79147	-0.0408641	285694	269.086	1	11	0.00486535	0.00042475	0	-0.000319903	8.26613e-05	2.89256e-06	80.816	0.00681004	0.00108692	-0.00672274	-1.7249	11.4555	11.4503	0.344818	0.08726	0.00267926	0.0873011	1.75868	269086	8.76379e+06	8.76792e+06	-88.2413	0.0000000E+000	0.0000000E+000	0.0000000E+000	88.2413	0.0000000E+000	0.0000000E+000	0.0000000E+000	-88.2413	0.0000000E+000	0.0000000E+000	0.0000000E+000	-1.75868	0.0000000E+000	0.0000000E+000	0.0000000E+000	1.75868	32.5687	88.2413	-5.91273e-06	-0.000154935	-3.37788e-09	-0.000154932	3.79139	92782.4	2.02284	92780.4
1.00469	11.5607	0.376078	11.5668	-1.86321	240.281	3.79145	-0.0252249	421220	445.283	1	11	0.00519774	0.000449367	0	-0.00386666	0.000254454	9.77823e-07	-2.54637	0.002176	0.00217385	9.66751e-05	-1.86334	11.569	11.5629	0.376174	0.0864085	0.00281093	0.0864542	1.86321	445283	1.36881e+07	1.36953e+07	-88.1368	0.0000000E+000	0.0000000E+000	0.0000000E+000	88.1368	0.0000000E+000	0.0000000E+000	0.0000000E+000	-88.1368	0.0000000E+000	0.0000000E+000	0.0000000E+000	-1.86321	0.0000000E+000	0.0000000E+000	0.0000000E+000	1.86321	30.7402	88.1368	-0.00353572	-9.5639e-05	-6.41857e-09	-9.56325e-05	3.7912	150306	10.0874	150296
0.632957	11.6557	0.444545	11.6641	-2.18419	240.282	3.79145	-0.0252249	565627	821.591	1	11	0.00521017	0.000446683	0	-0.00386666	0.000254454	1.05248e-06	11.1194	0.00235621	0.00231198	-0.000454406	-2.18153	11.6664	11.658	0.44409	0.0856706	0.00326746	0.0857329	2.18419	821591	2.15416e+07	2.15572e+07	-87.8158	0.0000000E+000	0.0000000E+000	0.0000000E+000	87.8158	0.0000000E+000	0.0000000E+000	0.0000000E+000	-87.8158	0.0000000E+000	0.0000000E+000	0.0000000E+000	-2.18419	0.0000000E+000	0.0000000E+000	0.0000000E+000	2.18419	26.2193	87.8158	0.000000000000000E+000	-9.5639e-05	-6.41857e-09	-9.56325e-05	3.7912	150306	10.0874	150296
0.401878	11.742	0.525976	11.7538	-2.56481	240.283	3.79145	-0.0252249	752940	1507.78	1	11	0.00522542	0.000444573	0	-0.00386666	0.000254454	1.12992e-06	3.43463	0.00254158	0.00253702	-0.000152265	-2.56352	11.7563	11.7445	0.525824	0.0849938	0.00380724	0.085079	2.56481	1.50778e+06	3.366e+07	3.36937e+07	-87.4352	0.0000000E+000	0.0000000E+000	0.0000000E+000	87.4352	0.0000000E+000	0.0000000E+000	0.0000000E+000	-87.4352	0.0000000E+000	0.0000000E+000	0.0000000E+000	-2.56481	0.0000000E+000	0.0000000E+000	0.0000000E+000	2.56481	22.3242	87.4352	0.000000000000000E+000	-9.5639e-05	-6.41857e-09	-9.56325e-05	3.7912	150306	10.0874	150296
0.251173	11.8752	0.671435	11.8941	-3.23612	240.284	3.79145	-0.0252249	943719	3007.35	1	11	0.0052253	0.000439317	0	-0.00386666	0.000254454	1.20614e-06	-13.3275	0.00274549	0.00267155	0.000632882	-3.23843	11.8968	11.8779	0.672068	0.0839409	0.00474611	0.084075	3.23612	3.00735e+06	5.31888e+07	5.32737e+07	-86.7639	0.0000000E+000	0.0000000E+000	0.0000000E+000	86.7639	0.0000000E+000	0.0000000E+000	0.0000000E+000	-86.7639	0.0000000E+000	0.0000000E+000	0.0000000E+000	-3.23612	0.0000000E+000	0.0000000E+000	0.0000000E+000	3.23612	17.6863	86.7639	0.000000000000000E+000	-9.5639e-05	-6.41857e-09	-9.56325e-05	3.7912	150306	10.0874	150296
0.160751	12.0491	0.758226	12.0729	-3.60077	240.285	3.79145	-0.0252249	1.30577e+06	5150.41	1	11	0.00521999	0.000432373	0	-0.00386666	0.000254454	8.06868e-07	-2.02599	0.00186614	0.00186497	6.59734e-05	-3.60053	12.0748	12.0509	0.758292	0.0826666	0.00520206	0.0828301	3.60077	5.1504e+06	8.18458e+07	8.20077e+07	-86.3992	0.0000000E+000	0.0000000E+000	0.0000000E+000	86.3992	0.0000000E+000	0.0000000E+000	0.0000000E+000	-86.3992	0.0000000E+000	0.0000000E+000	0.0000000E+000	-3.60077	0.0000000E+000	0.0000000E+000	0.0000000E+000	3.60077	15.8911	86.3992	0.000000000000000E+000	-9.5639e-05	-6.41857e-09	-9.56325e-05	3.7912	150306	10.0874	150296
0.100469	12.2017	1.06141	12.2478	-4.97158	240.287	3.79145	-0.0252249	1.49246e+06	11208.7	1	11	0.00522285	0.000426431	0	-0.00386666	0.000254454	8.30251e-07	-21.622	0.00194697	0.00180998	0.000717425	-4.97418	12.2497	12.2035	1.06213	0.0813401	0.00707567	0.0816472	4.97158	1.12087e+07	1.28852e+08	1.29339e+08	-85.0284	0.0000000E+000	0.0000000E+000	0.0000000E+000	85.0284	0.0000000E+000	0.0000000E+000	0.0000000E+000	-85.0284	0.0000000E+000	0.0000000E+000	0.0000000E+000	-4.97158	0.0000000E+000	0.0000000E+000	0.0000000E+000	4.97158	11.4957	85.0284	0.000000000000000E+000	-9.5639e-05	-6.41857e-09	-9.56325e-05	3.7912	150306	10.0874	150296
0.0602816	12.5293	1.28452	12.595	-5.85357	240.288	3.79145	-0.0252249	2.05539e+06	21378.6	1	11	0.0052185	0.000414331	0	-0.00386666	0.000254454	9.07212e-07	-13.1479	0.00218959	0.00213219	0.000498054	-5.85484	12.5972	12.5315	1.28502	0.0789825	0.00809737	0.0793965	5.85357	2.13786e+07	2.08529e+08	2.09622e+08	-84.1464	0.0000000E+000	0.0000000E+000	0.0000000E+000	84.1464	0.0000000E+000	0.0000000E+000	0.0000000E+000	-84.1464	0.0000000E+000	0.0000000E+000	0.0000000E+000	-5.85357	0.0000000E+000	0.0000000E+000	0.0000000E+000	5.85357	9.75409	84.1464	0.000000000000000E+000	-9.5639e-05	-6.41857e-09	-9.56325e-05	3.7912	150306	10.0874	150296
0.0401878	12.9104	1.54624	13.0027	-6.8296	240.289	3.79145	-0.0252249	2.56124e+06	36219.1	1	11	0.00521783	0.000401289	0	-0.00386666	0.000254454	9.20009e-07	23.0487	0.00229263	0.00210962	-0.000897596	-6.82456	13.0047	12.9125	1.54534	0.0763616	0.00914558	0.0769073	6.8296	3.62191e+07	3.02414e+08	3.04575e+08	-83.1704	0.0000000E+000	0.0000000E+000	0.0000000E+000	83.1704	0.0000000E+000	0.0000000E+000	0.0000000E+000	-83.1704	0.0000000E+000	0.0000000E+000	0.0000000E+000	-6.8296	0.0000000E+000	0.0000000E+000	0.0000000E+000	6.8296	8.34957	83.1704	0.000000000000000E+000	-9.5639e-05	-6.41857e-09	-9.56325e-05	3.7912	150306	10.0874	150296
0.0200939	13.8806	2.40441	14.0873	-9.82733	240.29	3.79145	-0.0252249	3.29418e+06	95964.4	1	11	0.00521671	0.000370313	0	-0.00386666	0.000254454	1.35907e-06	-12.1005	0.00367007	0.00358852	0.000769342	-9.82792	14.091	13.8842	2.40518	0.0699444	0.0121159	0.070986	9.82733	9.59644e+07	5.53999e+08	5.62249e+08	-80.1727	0.0000000E+000	0.0000000E+000	0.0000000E+000	80.1727	0.0000000E+000	0.0000000E+000	0.0000000E+000	-80.1727	0.0000000E+000	0.0000000E+000	0.0000000E+000	-9.82733	0.0000000E+000	0.0000000E+000	0.0000000E+000	9.82733	5.77296	80.1727	0.000000000000000E+000	-9.5639e-05	-6.41857e-09	-9.56325e-05	3.7912	150306	10.0874	150296
0.00796479	16.2457	2.77129	16.4804	-9.68067	20329.2	3.79143	0.00120177	7.21049e+06	203889	1	11	0.00521203	0.000316257	0	-0.00980932	-0.00020366	3.2517e-07	-5.37209	0.00102818	0.00102367	9.62618e-05	-9.68041	16.4814	16.2467	2.77138	0.0598143	0.0102035	0.0606783	9.68067	2.03889e+08	1.19523e+09	1.21249e+09	-80.3193	0.0000000E+000	0.0000000E+000	0.0000000E+000	80.3193	0.0000000E+000	0.0000000E+000	0.0000000E+000	-80.3193	0.0000000E+000	0.0000000E+000	0.0000000E+000	-9.68067	0.0000000E+000	0.0000000E+000	0.0000000E+000	9.68067	5.86215	80.3193	-0.00594266	4.55644e-06	-2.44752e-10	4.55668e-06	3.79164	3.15487e+06	169.466	3.15504e+06
0.00497799	17.2469	2.66385	17.4514	-8.78018	20329.2	3.79143	0.00120177	1.20021e+07	279651	1	11	0.0052203	0.000299134	0	-0.00980932	-0.00020366	4.24218e-07	-12.9908	0.00141815	0.00138186	0.000318794	-8.78053	17.4528	17.2482	2.66417	0.0566306	0.00874683	0.0573021	8.78018	2.79651e+08	1.81058e+09	1.83205e+09	-81.2198	0.0000000E+000	0.0000000E+000	0.0000000E+000	81.2198	0.0000000E+000	0.0000000E+000	0.0000000E+000	-81.2198	0.0000000E+000	0.0000000E+000	0.0000000E+000	-8.78018	0.0000000E+000	0.0000000E+000	0.0000000E+000	8.78018	6.47442	81.2198	0.000000000000000E+000	4.55644e-06	-2.44752e-10	4.55668e-06	3.79164	3.15487e+06	169.466	3.15504e+06
0.00318591	17.8634	3.45804	18.1951	-10.9559	20329.2	3.79143	0.00120177	1.44463e+07	521806	1	11	0.00522231	0.000287018	0	-0.00980932	-0.00020366	4.40874e-07	36.8552	0.00153605	0.00122908	-0.000921315	-10.9523	18.1961	17.8647	3.45712	0.0539582	0.0104453	0.0549599	10.9559	5.21806e+08	2.69553e+09	2.74557e+09	-79.0441	0.0000000E+000	0.0000000E+000	0.0000000E+000	79.0441	0.0000000E+000	0.0000000E+000	0.0000000E+000	-79.0441	0.0000000E+000	0.0000000E+000	0.0000000E+000	-10.9559	0.0000000E+000	0.0000000E+000	0.0000000E+000	10.9559	5.16577	79.0441	0.000000000000000E+000	4.55644e-06	-2.44752e-10	4.55668e-06	3.79164	3.15487e+06	169.466	3.15504e+06
0.0019912	18.3793	3.76619	18.7612	-11.5804	20329.2	3.79143	0.00120177	2.12229e+07	855235	1	11	0.00522632	0.00027857	0	-0.00980932	-0.00020366	1.44492e-06	-99.3871	0.00518693	-0.000846007	0.00511747	-11.5963	18.7614	18.3785	3.77131	0.0522164	0.0106999	0.0533014	11.5804	8.55235e+08	4.17362e+09	4.26035e+09	-78.4196	0.0000000E+000	0.0000000E+000	0.0000000E+000	78.4196	0.0000000E+000	0.0000000E+000	0.0000000E+000	-78.4196	0.0000000E+000	0.0000000E+000	0.0000000E+000	-11.5804	0.0000000E+000	0.0000000E+000	0.0000000E+000	11.5804	4.88009	78.4196	0.000000000000000E+000	4.55644e-06	-2.44752e-10	4.55668e-06	3.79164	3.15487e+06	169.466	3.15504e+06
0.00129428	18.421	4.72445	19.0172	-14.3846	20329.2	3.79143	0.00120177	2.60281e+07	1.60638e+06	1	11	0.00522593	0.0002748	0	-0.00980932	-0.00020366	1.53956e-06	57.9187	0.00560248	0.0029756	-0.00474695	-14.3685	19.0189	18.424	4.7197	0.0509354	0.0130634	0.0525839	14.3846	1.60638e+09	6.26343e+09	6.46614e+09	-75.6154	0.0000000E+000	0.0000000E+000	0.0000000E+000	75.6154	0.0000000E+000	0.0000000E+000	0.0000000E+000	-75.6154	0.0000000E+000	0.0000000E+000	0.0000000E+000	-14.3846	0.0000000E+000	0.0000000E+000	0.0000000E+000	14.3846	3.89909	75.6154	0.000000000000000E+000	4.55644e-06	-2.44752e-10	4.55668e-06	3.79164	3.15487e+06	169.466	3.15504e+06
0.000796479	19.6856	5.9516	20.5656	-16.8218	20329.2	3.79143	0.00120177	3.35747e+07	2.81188e+06	1	11	0.0052245	0.000254041	0	-0.00980932	-0.00020366	5.7889e-06	119.354	0.0227873	-0.0111705	-0.0198615	-16.7778	20.5492	19.6744	5.93174	0.0465442	0.0140718	0.0486249	16.8218	2.81188e+09	9.30062e+09	9.71638e+09	-73.1782	0.0000000E+000	0.0000000E+000	0.0000000E+000	73.1782	0.0000000E+000	0.0000000E+000	0.0000000E+000	-73.1782	0.0000000E+000	0.0000000E+000	0.0000000E+000	-16.8218	0.0000000E+000	0.0000000E+000	0.0000000E+000	16.8218	3.30761	73.1782	0.000000000000000E+000	4.55644e-06	-2.44752e-10	4.55668e-06	3.79164	3.15487e+06	169.466	3.15504e+06
0.000497799	19.3866	8.62806	21.2199	-23.9916	20329.2	3.79143	0.00120177	3.70555e+07	6.12621e+06	1	11	0.00522545	0.000246252	0	-0.00980932	-0.00020366	2.7266e-06	31.3727	0.0110724	0.00945359	-0.00576432	-23.967	21.2262	19.3961	8.6223	0.0430542	0.0191613	0.0471255	23.9916	6.12621e+09	1.37652e+10	1.50668e+10	-66.0084	0.0000000E+000	0.0000000E+000	0.0000000E+000	66.0084	0.0000000E+000	0.0000000E+000	0.0000000E+000	-66.0084	0.0000000E+000	0.0000000E+000	0.0000000E+000	-23.9916	0.0000000E+000	0.0000000E+000	0.0000000E+000	23.9916	2.24693	66.0084	0.000000000000000E+000	4.55644e-06	-2.44752e-10	4.55668e-06	3.79164	3.15487e+06	169.466	3.15504e+06
0.000298679	19.4496	13.1338	23.4688	-34.0301	20329.2	3.79143	0.00120177	4.05718e+07	1.27064e+07	1	11	0.00522406	0.000222596	0	-0.00980932	-0.00020366	2.38627e-06	94.8628	0.0107202	-0.00090875	-0.0106816	-34.0097	23.4621	19.4487	13.1231	0.0353126	0.0238457	0.0426098	34.0301	1.27064e+10	1.88167e+10	2.27051e+10	-55.9699	0.0000000E+000	0.0000000E+000	0.0000000E+000	55.9699	0.0000000E+000	0.0000000E+000	0.0000000E+000	-55.9699	0.0000000E+000	0.0000000E+000	0.0000000E+000	-34.0301	0.0000000E+000	0.0000000E+000	0.0000000E+000	34.0301	1.48088	55.9699	0.000000000000000E+000	4.55644e-06	-2.44752e-10	4.55668e-06	3.79164	3.15487e+06	169.466	3.15504e+06
9.95598e-05	22.4191	41.0158	46.743	-61.3391	20329.2	3.79143	0.00120177	3.89749e+07	3.00092e+07	1	11	0.00523004	0.000111889	0	-0.00980932	-0.00020366	2.77011e-06	6.12549	0.0247576	0.0246162	-0.00264179	-61.3111	46.7525	22.4437	41.0131	0.0102609	0.0187723	0.0213936	61.3391	3.00092e+10	1.64029e+10	3.41995e+10	-28.6609	0.0000000E+000	0.0000000E+000	0.0000000E+000	28.6609	0.0000000E+000	0.0000000E+000	0.0000000E+000	-28.6609	0.0000000E+000	0.0000000E+000	0.0000000E+000	-61.3391	0.0000000E+000	0.0000000E+000	0.0000000E+000	61.3391	0.546597	28.6609	0.000000000000000E+000	4.55644e-06	-2.44752e-10	4.55668e-06	3.79164	3.15487e+06	169.466	3.15504e+06