File: txt/17607_R291_UC84_SOC50_C04.mpt
EC-Lab ASCII FILE
Nb header lines : 64

Potentio Electrochemical Impedance Spectroscopy

Run on channel : 4 (SN 66756)
User :
CE vs. WE compliance from -10 V to 10 V
Electrode connection : standard
Potential control : Ewe
Ewe ctrl range : min = -10.00 V, max = 10.00 V
Safety Limits :
	Do not start on E overload
Acquisition started on : 09/17/2025 17:33:41.551
Loaded Setting File :  C:\Users\Celltest\OneDrive - store-dot.com\Documents\EC-Lab\Data\Michael\UC74_NCMA_16706_EIS_50_SOC.mps
Saved on :
	File : 17607_R291_UC84_SOC50_C04.mpr
	Directory : C:\Users\Celltest\OneDrive - store-dot.com\Documents\EC-Lab\Data\Gyutae\
	Host : 169.254.61.224
Device : VMP-3e (SN .003165)
Address : USB
EC-LAB for windows v11.62 (software)
Internet server v27.00 (firmware)
Command interpretor v12.03 (firmware)
Electrode material :
Initial state :
Electrolyte :
Comments :
Electrode surface area : 0.001 cm²
Characteristic mass : 0.001 g
Equivalent Weight : 0.000 g/eq.
Density : 0.000 g/cm3
Volume (V) : 0.001 cm³
Record Ece
Cycle Definition : Charge/Discharge alternance
Mode                Multi sine
E (V)               0.0000
vs.                 Eoc
tE (h:m:s)          0:00:0.0000
record              0
dI                  0.000
unit dI             mA
dt (s)              0.000
fi                  1.000
unit fi             MHz
ff                  0.100
unit ff             mHz
Nd                  10
Points              per decade
spacing             Logarithmic
Va (mV)             5.0
pw                  0.10
Na                  2
corr                0
E range min (V)     -10.000
E range max (V)     10.000
I Range             Auto
Bandwidth           5
nc cycles           0
goto Ns'            0
nr cycles           0
inc. cycle          0

freq/Hz	Re(Z)/Ohm	-Im(Z)/Ohm	|Z|/Ohm	Phase(Z)/deg	time/s	<Ewe>/V	<I>/mA	Cs/µF	Cp/µF	cycle number	I Range	|Ewe|/V	|I|/A	Ns	(Q-Qo)/mA.h	<Ece>/V	|Ece|/V	Phase(Zce)/deg	|Zce|/Ohm	Re(Zce)/Ohm	-Im(Zce)/Ohm	Phase(Zwe-ce)/deg	|Zwe-ce|/Ohm	Re(Zwe-ce)/Ohm	-Im(Zwe-ce)/Ohm	Re(Y)/Ohm-1	Im(Y)/Ohm-1	|Y|/Ohm-1	Phase(Y)/deg	Re(C)/nF	Im(C)/nF	|C|/nF	Phase(C)/deg	Re(M)	Im(M)	|M|	Phase(M)/deg	Re(Permittivity)	Im(Permittivity)	|Permittivity|	Phase(Permittivity)/deg	Re(Resistivity)/Ohm.cm	Im(Resistivity)/Ohm.cm	|Resistivity|/Ohm.cm	Phase(Resistivity)/deg	Re(Conductivity)/mS/cm	Im(Conductivity)/mS/cm	|Conductivity|/mS/cm	Phase(Conductivity)/deg	Tan(Delta)	Loss Angle(Delta)/deg	dq/mA.h	Pwe/W	Pce/W	Pwe-ce/W	<Ewe-Ece>/V	Rwe/Ohm	Rce/Ohm	Rwe-ce/Ohm		Ewe-Ece/V
1.00002e+06	-0.0418211	-5.22826	5.22843	90.4583	1.77354	3.77173	0.0603408	-0.0304407	-0.0304388	1	10	0.00013303	2.54435e-05	0	-9.56333e-06	-0.000283614	0.000193497	100.246	7.60496	-1.35273	-7.48368	96.2605	12.7882	-1.39455	-12.7119	-0.00152985	-0.191256	0.191262	-90.4583	-30.4388	-0.243479	30.4397	179.542	0.0000000E+000	0.0000000E+000	0.0000000E+000	-179.542	0.0000000E+000	0.0000000E+000	0.0000000E+000	179.542	0.0000000E+000	0.0000000E+000	0.0000000E+000	90.4583	0.0000000E+000	0.0000000E+000	0.0000000E+000	-90.4583	0.00799904	0.458298	-9.56333e-06	0.000227589	-1.71135e-08	0.000227606	3.77201	62507.1	4.70021	62511.8
630957	3.04424	-4.16912	5.16226	53.8635	2.53951	3.77069	-0.0430895	-0.0605029	-0.0394625	1	10	0.000128246	2.4843e-05	0	-1.65002e-05	-3.51849e-05	0.00011343	118.765	4.56586	-2.19717	-4.00244	84.0818	8.21534	0.847069	-8.17156	0.114235	-0.156446	0.193714	-53.8635	-39.4625	28.8151	48.8631	-143.864	0.0000000E+000	0.0000000E+000	0.0000000E+000	143.864	0.0000000E+000	0.0000000E+000	0.0000000E+000	-143.864	0.0000000E+000	0.0000000E+000	0.0000000E+000	53.8635	0.0000000E+000	0.0000000E+000	0.0000000E+000	-53.8635	0.730188	36.1365	-4.75447e-06	-0.000162477	1.5161e-09	-0.000162479	3.77072	87508.1	0.816553	87509
398103	-0.496138	0.0775705	0.502165	-171.114	3.70853	3.77056	-0.0601832	5.1538	0.122978	1	9	0.000150142	0.000298989	0	-3.59816e-05	-0.000283614	2.195e-05	-41.371	0.0734138	0.0550931	0.0485216	-164.045	0.458715	-0.441045	0.126092	-1.96747	0.307612	1.99138	171.114	122.978	-786.562	796.118	81.1138	0.0000000E+000	0.0000000E+000	0.0000000E+000	-81.1138	0.0000000E+000	0.0000000E+000	0.0000000E+000	81.1138	0.0000000E+000	0.0000000E+000	0.0000000E+000	-171.114	0.0000000E+000	0.0000000E+000	0.0000000E+000	171.114	6.39596	81.1138	-6.48842e-06	-0.000226924	1.70688e-08	-0.000226941	3.77084	62651.4	4.71252	62656.1
251206	0.038044	-0.848949	0.849801	87.4341	4.47552	3.77034	-0.0686497	-0.746291	-0.744795	1	9	0.000244532	0.000287752	0	-5.05634e-05	-0.000245394	5.24097e-05	44.6266	0.182135	0.129626	-0.127947	80.2609	0.99118	0.16767	-0.976896	0.0526807	-1.17557	1.17675	-87.4341	-744.795	33.3766	745.543	-177.434	0.0000000E+000	0.0000000E+000	0.0000000E+000	177.434	0.0000000E+000	0.0000000E+000	0.0000000E+000	-177.434	0.0000000E+000	0.0000000E+000	0.0000000E+000	87.4341	0.0000000E+000	0.0000000E+000	0.0000000E+000	-87.4341	0.044813	2.56588	-7.05107e-06	-0.000258833	1.68463e-08	-0.00025885	3.77059	54921.4	3.57459	54925
158486	1.07928	-0.376543	1.14308	19.2331	5.24156	3.77029	-0.0785335	-2.66695	-0.289397	1	9	0.000567758	0.000496693	0	-6.67847e-05	-5.42949e-05	8.06032e-05	10.7973	0.16228	0.159407	-0.0304007	18.1869	1.30382	1.23868	-0.406944	0.826005	-0.28818	0.874833	-19.2331	-289.397	829.491	878.524	-109.233	0.0000000E+000	0.0000000E+000	0.0000000E+000	109.233	0.0000000E+000	0.0000000E+000	0.0000000E+000	-109.233	0.0000000E+000	0.0000000E+000	0.0000000E+000	19.2331	0.0000000E+000	0.0000000E+000	0.0000000E+000	-19.2331	2.86628	70.7669	-7.48577e-06	-0.000296094	4.26396e-09	-0.000296098	3.77035	48008.7	0.691359	48009.4
100004	1.52917	0.169542	1.53854	-6.32664	6.00752	3.77028	-0.0732372	9.38701	0.113989	1	9	0.00151332	0.000983606	0	-8.59884e-05	-0.000379164	7.9676e-05	-2.12483	0.0810039	0.0809482	0.00300336	-6.11664	1.61934	1.61012	0.172545	0.646007	0.0716239	0.649966	6.32664	113.989	1028.11	1034.41	-83.6734	0.0000000E+000	0.0000000E+000	0.0000000E+000	83.6734	0.0000000E+000	0.0000000E+000	0.0000000E+000	-83.6734	0.0000000E+000	0.0000000E+000	0.0000000E+000	-6.32664	0.0000000E+000	0.0000000E+000	0.0000000E+000	6.32664	9.01944	83.6734	-1.06035e-05	-0.000276125	2.77689e-08	-0.000276153	3.77066	51480.4	5.1772	51485.5
63093.8	1.74129	0.210496	1.75396	-6.89279	6.77352	3.77027	-0.0739459	11.9836	0.172598	1	9	0.00169732	0.000967708	0	-0.000101905	0.000327904	5.73743e-05	-17.82	0.0592888	0.0564443	0.018144	-7.24812	1.81221	1.79773	0.22864	0.566017	0.0684232	0.570137	6.89279	172.599	1427.78	1438.18	-83.1072	0.0000000E+000	0.0000000E+000	0.0000000E+000	83.1072	0.0000000E+000	0.0000000E+000	0.0000000E+000	-83.1072	0.0000000E+000	0.0000000E+000	0.0000000E+000	-6.89279	0.0000000E+000	0.0000000E+000	0.0000000E+000	6.89279	8.27229	83.1072	-9.00457e-06	-0.000278796	-2.42472e-08	-0.000278772	3.76994	50986.9	4.43438	50982.4
39814.1	2.16642	0.577542	2.24208	-14.9272	7.66356	3.77027	-0.0660761	6.9215	0.459265	1	9	0.00536426	0.00239253	0	-0.000119925	-3.51849e-05	2.01929e-05	4.65965	0.00843994	0.00841205	-0.000685633	-14.8552	2.25004	2.17483	0.576856	0.430963	0.114889	0.446014	14.9272	459.265	1722.75	1782.92	-75.0728	0.0000000E+000	0.0000000E+000	0.0000000E+000	75.0728	0.0000000E+000	0.0000000E+000	0.0000000E+000	-75.0728	0.0000000E+000	0.0000000E+000	0.0000000E+000	-14.9272	0.0000000E+000	0.0000000E+000	0.0000000E+000	14.9272	3.75111	75.0728	-1.16394e-05	-0.000249125	2.32488e-09	-0.000249127	3.7703	57059.4	0.53249	57060
25116.9	2.35054	0.580424	2.42114	-13.8707	8.42957	3.77027	-0.0627567	10.9171	0.627422	1	9	0.00531009	0.00219322	0	-0.000137468	-0.000168955	8.46878e-06	-56.6578	0.00386135	0.00212234	0.00322578	-13.9327	2.42397	2.35266	0.583649	0.400985	0.0990161	0.413029	13.8707	627.422	2540.87	2617.18	-76.1293	0.0000000E+000	0.0000000E+000	0.0000000E+000	76.1293	0.0000000E+000	0.0000000E+000	0.0000000E+000	-76.1293	0.0000000E+000	0.0000000E+000	0.0000000E+000	-13.8707	0.0000000E+000	0.0000000E+000	0.0000000E+000	13.8707	4.04969	76.1293	-9.22901e-06	-0.00023661	1.0603e-08	-0.00023662	3.77044	60077.6	2.69222	60080.3
15847.7	2.4925	0.618802	2.56816	-13.9427	9.19756	3.77026	-0.0619361	16.2294	0.942239	1	9	0.00530287	0.00206485	0	-0.000149825	-0.000168955	4.67375e-05	71.5335	0.0226348	0.00716957	-0.0214693	-13.4397	2.57005	2.49967	0.597333	0.377911	0.0938225	0.389383	13.9427	942.239	3795.28	3910.5	-76.0573	0.0000000E+000	0.0000000E+000	0.0000000E+000	76.0573	0.0000000E+000	0.0000000E+000	0.0000000E+000	-76.0573	0.0000000E+000	0.0000000E+000	0.0000000E+000	-13.9427	0.0000000E+000	0.0000000E+000	0.0000000E+000	13.9427	4.02794	76.0573	-5.48246e-06	-0.000233515	1.04644e-08	-0.000233526	3.77043	60873.4	2.72788	60876.1
10002.2	2.64557	0.656834	2.72589	-13.9433	9.96554	3.77026	-0.0617124	24.2252	1.40657	1	9	0.00524779	0.00192516	0	-0.000164642	0.000270574	6.29959e-06	-19.1382	0.00327224	0.00309138	0.00107279	-13.9495	2.72915	2.64866	0.657906	0.356043	0.0883971	0.366852	13.9433	1406.57	5665.34	5837.34	-76.0567	0.0000000E+000	0.0000000E+000	0.0000000E+000	76.0567	0.0000000E+000	0.0000000E+000	0.0000000E+000	-76.0567	0.0000000E+000	0.0000000E+000	0.0000000E+000	-13.9433	0.0000000E+000	0.0000000E+000	0.0000000E+000	13.9433	4.02777	76.0567	-8.14187e-06	-0.000232672	-1.66978e-08	-0.000232655	3.76999	61094.1	4.38444	61089.7
6309.38	2.81212	0.740749	2.90805	-14.7572	10.7315	3.77027	-0.0628686	34.0535	2.20954	1	9	0.00522182	0.00179564	0	-0.000176811	-9.25148e-05	8.32758e-06	-104.453	0.00463766	-0.00115753	0.00449088	-14.8486	2.90808	2.81096	0.74524	0.33253	0.0875928	0.343873	14.7572	2209.54	8388.12	8674.25	-75.2428	0.0000000E+000	0.0000000E+000	0.0000000E+000	75.2428	0.0000000E+000	0.0000000E+000	0.0000000E+000	-75.2428	0.0000000E+000	0.0000000E+000	0.0000000E+000	-14.7572	0.0000000E+000	0.0000000E+000	0.0000000E+000	14.7572	3.79632	75.2428	-7.43608e-06	-0.000237031	5.81627e-09	-0.000237037	3.77036	59970.6	1.47156	59972.1
3983.6	2.9927	0.882717	3.12017	-16.4338	11.5641	3.77028	-0.0308675	45.2609	3.62252	1	9	0.00518113	0.00166053	0	-0.000190011	-0.000398274	8.11954e-06	-56.0622	0.00488973	0.0027299	0.00405673	-16.491	3.12393	2.99543	0.886774	0.307403	0.0906705	0.320496	16.4338	3622.52	12281.5	12804.6	-73.5662	0.0000000E+000	0.0000000E+000	0.0000000E+000	73.5662	0.0000000E+000	0.0000000E+000	0.0000000E+000	-73.5662	0.0000000E+000	0.0000000E+000	0.0000000E+000	-16.4338	0.0000000E+000	0.0000000E+000	0.0000000E+000	16.4338	3.39033	73.5662	-4.95261e-06	-0.000116379	1.22937e-08	-0.000116391	3.77068	122144	12.9027	122157
2510.8	3.21673	1.04306	3.38162	-17.9659	12.7798	3.77027	-0.0852843	60.7711	5.78188	1	9	0.00498356	0.00147372	0	-0.000211005	9.85848e-05	3.87829e-06	-60.6096	0.00263163	0.00129149	0.00229293	-17.9961	3.38355	3.21802	1.04535	0.281298	0.091214	0.295717	17.9659	5781.88	17830.9	18744.9	-72.0341	0.0000000E+000	0.0000000E+000	0.0000000E+000	72.0341	0.0000000E+000	0.0000000E+000	0.0000000E+000	-72.0341	0.0000000E+000	0.0000000E+000	0.0000000E+000	-17.9659	0.0000000E+000	0.0000000E+000	0.0000000E+000	17.9659	3.08393	72.0341	-1.09128e-05	-0.000321545	-8.40773e-09	-0.000321536	3.77017	44208.3	1.15596	44207.1
1585.51	3.53048	1.27007	3.75198	-19.7859	13.9268	3.77027	-0.0643627	79.0361	9.05644	1	10	0.00546753	0.00145724	0	-0.000232317	2.2145e-05	1.03169e-05	51.1355	0.00707977	0.00444242	-0.00551254	-19.6837	3.7543	3.53492	1.26455	0.250791	0.0902206	0.266526	19.7859	9056.44	25174.7	26754.2	-70.2141	0.0000000E+000	0.0000000E+000	0.0000000E+000	70.2141	0.0000000E+000	0.0000000E+000	0.0000000E+000	-70.2141	0.0000000E+000	0.0000000E+000	0.0000000E+000	-19.7859	0.0000000E+000	0.0000000E+000	0.0000000E+000	19.7859	2.77976	70.2141	-9.12333e-06	-0.000242665	-1.42531e-09	-0.000242663	3.77025	58578.5	0.344065	58578.2
1000.32	3.89915	1.54971	4.19583	-21.6752	15.0428	3.77029	-0.0823981	102.667	14.0054	1	10	0.00507683	0.00120997	0	-0.000247763	-0.000493824	6.56136e-06	28.06	0.00542274	0.00478533	-0.00255084	-21.6188	4.19933	3.90394	1.54716	0.22148	0.0880267	0.238332	21.6752	14005.4	35238.4	37919.6	-68.3248	0.0000000E+000	0.0000000E+000	0.0000000E+000	68.3248	0.0000000E+000	0.0000000E+000	0.0000000E+000	-68.3248	0.0000000E+000	0.0000000E+000	0.0000000E+000	-21.6752	0.0000000E+000	0.0000000E+000	0.0000000E+000	21.6752	2.51606	68.3248	-7.40079e-06	-0.000310665	4.06901e-08	-0.000310705	3.77078	45757	5.99315	45763
631.01	4.39221	1.86576	4.77206	-23.0152	15.9446	3.77028	-0.0574656	135.185	20.6647	1	10	0.0049876	0.00104517	0	-0.000261735	3.03501e-06	1.20188e-05	-83.0655	0.0114994	0.00138838	0.0114153	-23.1347	4.77781	4.3936	1.87718	0.192873	0.0819302	0.209553	23.0152	20664.7	48646.9	52854	-66.9848	0.0000000E+000	0.0000000E+000	0.0000000E+000	66.9848	0.0000000E+000	0.0000000E+000	0.0000000E+000	-66.9848	0.0000000E+000	0.0000000E+000	0.0000000E+000	-23.0152	0.0000000E+000	0.0000000E+000	0.0000000E+000	23.0152	2.35411	66.9848	-7.65224e-06	-0.000216661	-1.74409e-10	-0.000216661	3.77028	65609.3	0.0528144	65609.3
398.089	5.05578	2.17387	5.50333	-23.2666	16.8459	3.77027	-0.0534072	183.91	28.6961	1	10	0.00488734	0.00088807	0	-0.000276001	-0.000168955	1.73281e-05	0.721449	0.0195121	0.0195105	-0.000245683	-23.1843	5.52116	5.07529	2.17362	0.166931	0.0717765	0.181708	23.2666	28696.1	66738.6	72646.4	-66.7334	0.0000000E+000	0.0000000E+000	0.0000000E+000	66.7334	0.0000000E+000	0.0000000E+000	0.0000000E+000	-66.7334	0.0000000E+000	0.0000000E+000	0.0000000E+000	-23.2666	0.0000000E+000	0.0000000E+000	0.0000000E+000	23.2666	2.32571	66.7334	-6.76615e-06	-0.00020136	9.02339e-09	-0.000201369	3.77044	70594.9	3.16352	70598.1
251.044	5.89308	2.38265	6.35653	-22.0141	17.744	3.77027	-0.0610056	266.079	37.3843	1	10	0.00482252	0.000758672	0	-0.000289104	-0.000111625	7.43684e-06	-3.57168	0.00980244	0.0097834	0.000610664	-21.9862	6.36583	5.90287	2.38326	0.145849	0.0589685	0.157319	22.0141	37384.3	92464	99735.5	-67.9859	0.0000000E+000	0.0000000E+000	0.0000000E+000	67.9859	0.0000000E+000	0.0000000E+000	0.0000000E+000	-67.9859	0.0000000E+000	0.0000000E+000	0.0000000E+000	-22.0141	0.0000000E+000	0.0000000E+000	0.0000000E+000	22.0141	2.47333	67.9859	-6.70689e-06	-0.000230007	6.80973e-09	-0.000230014	3.77038	61802	1.82975	61803.9
158.428	6.81306	2.36885	7.21313	-19.1721	18.6489	3.77027	-0.0563988	424.082	45.7379	1	10	0.00478534	0.000663421	0	-0.000302333	0.000155915	9.99903e-06	-71.4452	0.0150719	0.00479607	0.0142885	-19.2667	7.22236	6.81786	2.38313	0.130947	0.0455291	0.138636	19.1721	45737.9	131547	139272	-70.8278	0.0000000E+000	0.0000000E+000	0.0000000E+000	70.8278	0.0000000E+000	0.0000000E+000	0.0000000E+000	-70.8278	0.0000000E+000	0.0000000E+000	0.0000000E+000	-19.1721	0.0000000E+000	0.0000000E+000	0.0000000E+000	19.1721	2.87611	70.8278	-6.45342e-06	-0.000212639	-8.7934e-09	-0.00021263	3.77012	66850.3	2.7645	66847.5
100.032	7.67684	2.16425	7.97608	-15.7442	19.5478	3.77028	-0.0600096	735.145	54.1265	1	10	0.00476583	0.000597515	0	-0.000316358	-0.000360054	5.27763e-06	-39.4258	0.00883263	0.00682275	0.00560941	-15.7697	7.98417	7.68366	2.16986	0.120671	0.0340196	0.125375	15.7442	54126.5	191993	199476	-74.2558	0.0000000E+000	0.0000000E+000	0.0000000E+000	74.2558	0.0000000E+000	0.0000000E+000	0.0000000E+000	-74.2558	0.0000000E+000	0.0000000E+000	0.0000000E+000	-15.7442	0.0000000E+000	0.0000000E+000	0.0000000E+000	15.7442	3.54711	74.2558	-7.04391e-06	-0.000226253	2.16067e-08	-0.000226274	3.77064	62827.9	5.99994	62833.9
63.0823	8.30423	1.767	8.49014	-12.0124	20.4649	3.77027	-0.0535377	1427.83	61.8471	1	10	0.00475681	0.000560274	0	-0.000329348	0.000213245	8.16405e-06	-139.805	0.0145715	-0.0111305	0.00940435	-12.0902	8.48122	8.2931	1.7764	0.115205	0.0245136	0.117784	12.0124	61847.1	290658	297165	-77.9876	0.0000000E+000	0.0000000E+000	0.0000000E+000	77.9876	0.0000000E+000	0.0000000E+000	0.0000000E+000	-77.9876	0.0000000E+000	0.0000000E+000	0.0000000E+000	-12.0124	0.0000000E+000	0.0000000E+000	0.0000000E+000	12.0124	4.69962	77.9876	-7.11959e-06	-0.000201852	-1.14166e-08	-0.000201841	3.77006	70422.7	3.98307	70418.7
39.8089	8.79268	1.3787	8.90012	-8.91149	21.3658	3.77027	-0.0613077	2899.8	69.5856	1	10	0.00475565	0.000534335	0	-0.000344213	-0.000130735	8.65058e-06	61.7396	0.0161894	0.00766536	-0.0142597	-8.81321	8.90549	8.80035	1.36444	0.111002	0.0174052	0.112358	8.91149	69585.6	443782	449204	-81.0885	0.0000000E+000	0.0000000E+000	0.0000000E+000	81.0885	0.0000000E+000	0.0000000E+000	0.0000000E+000	-81.0885	0.0000000E+000	0.0000000E+000	0.0000000E+000	-8.91149	0.0000000E+000	0.0000000E+000	0.0000000E+000	8.91149	6.3775	81.0885	-7.38273e-06	-0.000231147	8.01504e-09	-0.000231155	3.7704	61497.5	2.13243	61499.6
25.1044	8.98919	1.24823	9.07544	-7.90547	22.2451	3.77027	-0.0511318	5078.97	96.079	1	10	0.00474471	0.000522807	0	-0.000358747	2.2145e-05	6.27861e-06	113.863	0.0120094	-0.0048584	-0.0109828	-7.84097	9.06912	8.98433	1.23725	0.10914	0.0151551	0.110187	7.90547	96079	691918	698557	-82.0945	0.0000000E+000	0.0000000E+000	0.0000000E+000	82.0945	0.0000000E+000	0.0000000E+000	0.0000000E+000	-82.0945	0.0000000E+000	0.0000000E+000	0.0000000E+000	-7.90547	0.0000000E+000	0.0000000E+000	0.0000000E+000	7.90547	7.20156	82.0945	-8.49169e-06	-0.000192781	-1.13231e-09	-0.000192779	3.77025	73736.3	0.433096	73735.9
15.8576	9.47141	0.80178	9.50528	-4.83871	23.123	3.77026	-0.0699431	12517.8	89.0653	1	10	0.00475588	0.000500341	0	-0.000372551	-0.000207174	2.14504e-05	-66.9562	0.0428717	0.0167814	0.0394508	-5.06665	9.52541	9.48819	0.841231	0.10483	0.00887412	0.105205	4.83871	89065.3	1.05213e+06	1.05589e+06	-85.1613	0.0000000E+000	0.0000000E+000	0.0000000E+000	85.1613	0.0000000E+000	0.0000000E+000	0.0000000E+000	-85.1613	0.0000000E+000	0.0000000E+000	0.0000000E+000	-4.83871	0.0000000E+000	0.0000000E+000	0.0000000E+000	4.83871	11.813	85.1613	-7.07584e-06	-0.000263704	1.44904e-08	-0.000263718	3.77047	53904.8	2.96204	53907.7
10.0032	9.33317	0.432328	9.34317	-2.65214	24.1048	3.77027	-0.0498822	36801.7	78.7963	1	10	0.00475468	0.000508894	0	-0.000386333	-0.000168955	4.92531e-06	61.4777	0.00967847	0.00462148	-0.0085038	-2.59876	9.3474	9.33779	0.423825	0.106915	0.0049525	0.10703	2.65214	78796.4	1.70107e+06	1.70289e+06	-87.3479	0.0000000E+000	0.0000000E+000	0.0000000E+000	87.3479	0.0000000E+000	0.0000000E+000	0.0000000E+000	-87.3479	0.0000000E+000	0.0000000E+000	0.0000000E+000	-2.65214	0.0000000E+000	0.0000000E+000	0.0000000E+000	2.65214	21.5881	87.3479	-9.28646e-06	-0.000188069	8.42782e-09	-0.000188078	3.77044	75583.6	3.38707	75587
6.31058	9.47998	0.363498	9.48694	-2.19586	25.0283	3.77028	-0.0581408	69382.3	101.859	1	10	0.00474663	0.000500333	0	-0.000401092	-0.000340944	8.05179e-06	-44.0135	0.0160929	0.0115736	0.0111818	-2.26058	9.49894	9.49155	0.37468	0.105331	0.00403877	0.105408	2.19586	101859	2.65647e+06	2.65843e+06	-87.8041	0.0000000E+000	0.0000000E+000	0.0000000E+000	87.8041	0.0000000E+000	0.0000000E+000	0.0000000E+000	-87.8041	0.0000000E+000	0.0000000E+000	0.0000000E+000	-2.19586	0.0000000E+000	0.0000000E+000	0.0000000E+000	2.19586	26.0799	87.8041	-1.03572e-05	-0.000219207	1.98228e-08	-0.000219227	3.77062	64847.4	5.86411	64853.3
3.97785	9.46076	0.36007	9.4676	-2.17959	26.2813	3.77029	-0.0461537	111118	160.723	1	11	0.00474452	0.000501132	0	-0.000415782	-9.25148e-05	4.77486e-06	35.5383	0.00952815	0.00775332	-0.00553821	-2.14434	9.47514	9.46851	0.354532	0.105547	0.00401704	0.105623	2.17959	160723	4.22296e+06	4.22602e+06	-87.8204	0.0000000E+000	0.0000000E+000	0.0000000E+000	87.8204	0.0000000E+000	0.0000000E+000	0.0000000E+000	-87.8204	0.0000000E+000	0.0000000E+000	0.0000000E+000	-2.17959	0.0000000E+000	0.0000000E+000	0.0000000E+000	2.17959	26.2748	87.8204	-8.474e-06	-0.000174013	4.2699e-09	-0.000174017	3.77038	81689.9	2.00449	81691.9
2.51367	9.58636	0.397864	9.59461	-2.37659	27.8409	3.7703	-0.0495327	159139	273.647	1	11	0.00474859	0.000494922	0	-0.000446329	4.12549e-05	7.67245e-06	51.2089	0.0155023	0.00971194	-0.0120831	-2.30216	9.60382	9.59607	0.385781	0.104136	0.00432195	0.104225	2.37659	273647	6.59341e+06	6.59908e+06	-87.6234	0.0000000E+000	0.0000000E+000	0.0000000E+000	87.6234	0.0000000E+000	0.0000000E+000	0.0000000E+000	-87.6234	0.0000000E+000	0.0000000E+000	0.0000000E+000	-2.37659	0.0000000E+000	0.0000000E+000	0.0000000E+000	2.37659	24.0946	87.6234	-1.43303e-05	-0.000186753	-2.04347e-09	-0.000186751	3.77026	76117.4	0.832883	76116.6
1.58469	9.62329	0.411199	9.63208	-2.44673	30.2765	3.77029	-0.0476601	244245	445.132	1	11	0.00475081	0.000493228	0	-0.000461465	-0.000340944	6.66088e-06	0.779635	0.0135047	0.0135034	-0.000183755	-2.44222	9.64556	9.6368	0.411015	0.103725	0.00443212	0.10382	2.44673	445132	1.04174e+07	1.04269e+07	-87.5533	0.0000000E+000	0.0000000E+000	0.0000000E+000	87.5533	0.0000000E+000	0.0000000E+000	0.0000000E+000	-87.5533	0.0000000E+000	0.0000000E+000	0.0000000E+000	-2.44673	0.0000000E+000	0.0000000E+000	0.0000000E+000	2.44673	23.403	87.5533	-6.70774e-06	-0.000179692	1.62494e-08	-0.000179709	3.77063	79107.8	7.15366	79114.9
1.00469	9.73393	0.451356	9.74439	-2.65487	241.095	3.77026	-0.0479633	350968	753.003	1	11	0.00506382	0.000519665	0	-0.00550202	0.000117695	3.76168e-07	-3.00217	0.000723865	0.000722872	3.79115e-05	-2.65489	9.74511	9.73465	0.451394	0.102513	0.00475346	0.102623	2.65487	753004	1.62392e+07	1.62567e+07	-87.3451	0.0000000E+000	0.0000000E+000	0.0000000E+000	87.3451	0.0000000E+000	0.0000000E+000	0.0000000E+000	-87.3451	0.0000000E+000	0.0000000E+000	0.0000000E+000	-2.65487	0.0000000E+000	0.0000000E+000	0.0000000E+000	2.65487	21.566	87.3451	-0.00502407	-0.000180834	-5.64503e-09	-0.000180829	3.77014	78607.2	2.45385	78604.7
0.632957	9.84656	0.518209	9.86019	-3.01261	241.095	3.77026	-0.0479633	485222	1340.23	1	11	0.0050766	0.000514858	0	-0.00550202	0.000117695	4.18427e-07	9.4012	0.000812703	0.000801788	-0.000132752	-3.01159	9.86098	9.84736	0.518077	0.101278	0.00533009	0.101418	3.01261	1.34023e+06	2.5466e+07	2.55012e+07	-86.9874	0.0000000E+000	0.0000000E+000	0.0000000E+000	86.9874	0.0000000E+000	0.0000000E+000	0.0000000E+000	-86.9874	0.0000000E+000	0.0000000E+000	0.0000000E+000	-3.01261	0.0000000E+000	0.0000000E+000	0.0000000E+000	3.01261	19.0011	86.9874	0.000000000000000E+000	-0.000180834	-5.64503e-09	-0.000180829	3.77014	78607.2	2.45385	78604.7
0.401878	9.93502	0.632428	9.95513	-3.64233	241.096	3.77026	-0.0479633	626203	2527.22	1	11	0.00509027	0.000511321	0	-0.00550202	0.000117695	6.62382e-07	0.334348	0.00129543	0.00129541	-7.55942e-06	-3.64181	9.95642	9.93632	0.632421	0.100248	0.00638142	0.100451	3.64233	2.52723e+06	3.9701e+07	3.97813e+07	-86.3577	0.0000000E+000	0.0000000E+000	0.0000000E+000	86.3577	0.0000000E+000	0.0000000E+000	0.0000000E+000	-86.3577	0.0000000E+000	0.0000000E+000	0.0000000E+000	-3.64233	0.0000000E+000	0.0000000E+000	0.0000000E+000	3.64233	15.7093	86.3577	0.000000000000000E+000	-0.000180834	-5.64503e-09	-0.000180829	3.77014	78607.2	2.45385	78604.7
0.251173	10.1102	0.791145	10.1411	-4.47441	241.096	3.77026	-0.0479633	800922	4874.54	1	11	0.00509249	0.000502164	0	-0.00550202	0.000117695	7.21432e-07	-17.5973	0.00143665	0.00136942	0.000434334	-4.47625	10.1425	10.1116	0.791579	0.0983082	0.00769284	0.0986087	4.47441	4.87454e+06	6.22926e+07	6.2483e+07	-85.5256	0.0000000E+000	0.0000000E+000	0.0000000E+000	85.5256	0.0000000E+000	0.0000000E+000	0.0000000E+000	-85.5256	0.0000000E+000	0.0000000E+000	0.0000000E+000	-4.47441	0.0000000E+000	0.0000000E+000	0.0000000E+000	4.47441	12.7792	85.5256	0.000000000000000E+000	-0.000180834	-5.64503e-09	-0.000180829	3.77014	78607.2	2.45385	78604.7
0.160751	10.2871	0.901745	10.3266	-5.00961	241.097	3.77026	-0.0479633	1.09795e+06	8372.18	1	11	0.00508422	0.000492344	0	-0.00550202	0.000117695	6.90134e-07	5.30957	0.00140173	0.00139572	-0.000129712	-5.00822	10.3279	10.2885	0.901615	0.0964678	0.00845614	0.0968377	5.00961	8.37218e+06	9.55099e+07	9.58762e+07	-84.9904	0.0000000E+000	0.0000000E+000	0.0000000E+000	84.9904	0.0000000E+000	0.0000000E+000	0.0000000E+000	-84.9904	0.0000000E+000	0.0000000E+000	0.0000000E+000	-5.00961	0.0000000E+000	0.0000000E+000	0.0000000E+000	5.00961	11.408	84.9904	0.000000000000000E+000	-0.000180834	-5.64503e-09	-0.000180829	3.77014	78607.2	2.45385	78604.7
0.100469	10.4388	1.31928	10.5218	-7.20299	241.097	3.77026	-0.0479633	1.20074e+06	18877.3	1	11	0.00508774	0.000483542	0	-0.00550202	0.000117695	5.71139e-07	8.98806	0.00118116	0.00116665	-0.000184531	-7.2012	10.523	10.44	1.3191	0.0942904	0.0119167	0.0950405	7.20299	1.88773e+07	1.49367e+08	1.50555e+08	-82.797	0.0000000E+000	0.0000000E+000	0.0000000E+000	82.797	0.0000000E+000	0.0000000E+000	0.0000000E+000	-82.797	0.0000000E+000	0.0000000E+000	0.0000000E+000	-7.20299	0.0000000E+000	0.0000000E+000	0.0000000E+000	7.20299	7.91249	82.797	0.000000000000000E+000	-0.000180834	-5.64503e-09	-0.000180829	3.77014	78607.2	2.45385	78604.7
0.0602816	10.7585	1.67489	10.8881	-8.84882	241.098	3.77026	-0.0479633	1.57634e+06	37300.9	1	11	0.00508364	0.0004669	0	-0.00550202	0.000117695	7.05106e-07	0.659781	0.00151019	0.00151008	-1.73899e-05	-8.84751	10.8895	10.76	1.67487	0.0907506	0.0141281	0.0918438	8.84882	3.73009e+07	2.39599e+08	2.42485e+08	-81.1512	0.0000000E+000	0.0000000E+000	0.0000000E+000	81.1512	0.0000000E+000	0.0000000E+000	0.0000000E+000	-81.1512	0.0000000E+000	0.0000000E+000	0.0000000E+000	-8.84882	0.0000000E+000	0.0000000E+000	0.0000000E+000	8.84882	6.4234	81.1512	0.000000000000000E+000	-0.000180834	-5.64503e-09	-0.000180829	3.77014	78607.2	2.45385	78604.7
0.0401878	11.254	2.04084	11.4375	-10.2785	241.098	3.77026	-0.0479633	1.94052e+06	61783.4	1	11	0.00508411	0.000444511	0	-0.00550202	0.000117695	1.1845e-06	15.9273	0.00266473	0.00256243	-0.000731248	-10.2727	11.4399	11.2565	2.04011	0.0860284	0.0156007	0.0874315	10.2785	6.17834e+07	3.40697e+08	3.46254e+08	-79.7215	0.0000000E+000	0.0000000E+000	0.0000000E+000	79.7215	0.0000000E+000	0.0000000E+000	0.0000000E+000	-79.7215	0.0000000E+000	0.0000000E+000	0.0000000E+000	-10.2785	0.0000000E+000	0.0000000E+000	0.0000000E+000	10.2785	5.51438	79.7215	0.000000000000000E+000	-0.000180834	-5.64503e-09	-0.000180829	3.77014	78607.2	2.45385	78604.7
0.0200939	12.5125	3.39535	12.965	-15.1819	241.099	3.77026	-0.0479633	2.33277e+06	159990	1	11	0.00508403	0.000392134	0	-0.00550202	0.000117695	1.72673e-06	-51.4902	0.00440343	0.00274179	0.00344569	-15.1935	12.9686	12.5153	3.39879	0.0744386	0.0201993	0.0771305	15.1819	1.5999e+08	5.89596e+08	6.10918e+08	-74.8181	0.0000000E+000	0.0000000E+000	0.0000000E+000	74.8181	0.0000000E+000	0.0000000E+000	0.0000000E+000	-74.8181	0.0000000E+000	0.0000000E+000	0.0000000E+000	-15.1819	0.0000000E+000	0.0000000E+000	0.0000000E+000	15.1819	3.6852	74.8181	0.000000000000000E+000	-0.000180834	-5.64503e-09	-0.000180829	3.77014	78607.2	2.45385	78604.7
0.00796479	14.858	4.06757	15.4047	-15.3103	20330	3.77026	0.00661127	4.9126e+06	342509	1	11	0.00507589	0.000329502	0	0.00739748	-0.000321834	5.00798e-07	-13.4877	0.00151986	0.00147795	0.000354488	-15.3101	15.4063	14.8595	4.06792	0.0626112	0.0171406	0.0649151	15.3103	3.42509e+08	1.25112e+09	1.29715e+09	-74.6897	0.0000000E+000	0.0000000E+000	0.0000000E+000	74.6897	0.0000000E+000	0.0000000E+000	0.0000000E+000	-74.6897	0.0000000E+000	0.0000000E+000	0.0000000E+000	-15.3103	0.0000000E+000	0.0000000E+000	0.0000000E+000	15.3103	3.65281	74.6897	0.0128995	2.49262e-05	-2.12773e-09	2.49284e-05	3.77058	570278	48.6796	570327
0.00497799	16.7048	3.85527	17.1439	-12.9957	20330	3.77026	0.00661127	8.29299e+06	419375	1	11	0.00508385	0.00029654	0	0.00739748	-0.000321834	8.02771e-07	-10.4688	0.00270712	0.00266206	0.000491882	-12.9953	17.1466	16.7074	3.85576	0.0568359	0.0131171	0.0583299	12.9957	4.19375e+08	1.81714e+09	1.86491e+09	-77.0043	0.0000000E+000	0.0000000E+000	0.0000000E+000	77.0043	0.0000000E+000	0.0000000E+000	0.0000000E+000	-77.0043	0.0000000E+000	0.0000000E+000	0.0000000E+000	-12.9957	0.0000000E+000	0.0000000E+000	0.0000000E+000	12.9957	4.33297	77.0043	0.000000000000000E+000	2.49262e-05	-2.12773e-09	2.49284e-05	3.77058	570278	48.6796	570327
0.00318591	17.6163	5.03255	18.3211	-15.9433	20330	3.77026	0.00661127	9.92653e+06	748983	1	11	0.00508597	0.000277602	0	0.00739748	-0.000321834	6.0914e-07	-34.6345	0.00219429	0.00180545	0.0012471	-15.9455	18.3232	17.6182	5.0338	0.0524824	0.0149929	0.0545819	15.9433	7.48983e+08	2.6218e+09	2.72668e+09	-74.0567	0.0000000E+000	0.0000000E+000	0.0000000E+000	74.0567	0.0000000E+000	0.0000000E+000	0.0000000E+000	-74.0567	0.0000000E+000	0.0000000E+000	0.0000000E+000	-15.9433	0.0000000E+000	0.0000000E+000	0.0000000E+000	15.9433	3.50048	74.0567	0.000000000000000E+000	2.49262e-05	-2.12773e-09	2.49284e-05	3.77058	570278	48.6796	570327
0.0019912	18.5564	5.18748	19.2679	-15.6184	20330	3.77026	0.00661127	1.54081e+07	1.11685e+06	1	11	0.0050893	0.000264134	0	0.00739748	-0.000321834	6.78849e-07	12.1635	0.00257009	0.00251239	-0.000541524	-15.6149	19.2701	18.5589	5.18694	0.0499835	0.013973	0.0518999	15.6184	1.11685e+09	3.99515e+09	4.14832e+09	-74.3816	0.0000000E+000	0.0000000E+000	0.0000000E+000	74.3816	0.0000000E+000	0.0000000E+000	0.0000000E+000	-74.3816	0.0000000E+000	0.0000000E+000	0.0000000E+000	-15.6184	0.0000000E+000	0.0000000E+000	0.0000000E+000	15.6184	3.57716	74.3816	0.000000000000000E+000	2.49262e-05	-2.12773e-09	2.49284e-05	3.77058	570278	48.6796	570327
0.00129428	18.7895	5.38883	19.547	-16.0029	20330	3.77026	0.00661127	2.28191e+07	1.73432e+06	1	11	0.00508854	0.000260324	0	0.00739748	-0.000321834	1.04414e-06	51.1013	0.00401094	0.00251865	-0.00312155	-15.9921	19.5485	18.792	5.38571	0.0491763	0.0141038	0.0511588	16.0029	1.73432e+09	6.04712e+09	6.29091e+09	-73.9971	0.0000000E+000	0.0000000E+000	0.0000000E+000	73.9971	0.0000000E+000	0.0000000E+000	0.0000000E+000	-73.9971	0.0000000E+000	0.0000000E+000	0.0000000E+000	-16.0029	0.0000000E+000	0.0000000E+000	0.0000000E+000	16.0029	3.48675	73.9971	0.000000000000000E+000	2.49262e-05	-2.12773e-09	2.49284e-05	3.77058	570278	48.6796	570327
0.000796479	20.9475	6.3703	21.8947	-16.9149	20330	3.77026	0.00661127	3.1368e+07	2.65539e+06	1	11	0.00508872	0.000232418	0	0.00739748	-0.000321834	1.08311e-06	-23.5467	0.00466017	0.00427214	0.00186172	-16.9164	21.8993	20.9517	6.37216	0.0436973	0.0132887	0.0456732	16.9149	2.65539e+09	8.73173e+09	9.12657e+09	-73.0851	0.0000000E+000	0.0000000E+000	0.0000000E+000	73.0851	0.0000000E+000	0.0000000E+000	0.0000000E+000	-73.0851	0.0000000E+000	0.0000000E+000	0.0000000E+000	-16.9149	0.0000000E+000	0.0000000E+000	0.0000000E+000	16.9149	3.2883	73.0851	0.000000000000000E+000	2.49262e-05	-2.12773e-09	2.49284e-05	3.77058	570278	48.6796	570327
0.000497799	20.5351	7.92058	22.0097	-21.0921	20330	3.77026	0.00661127	4.03654e+07	5.22752e+06	1	11	0.00509102	0.000231308	0	0.00739748	-0.000321834	1.44814e-06	-50.1283	0.00626064	0.00401351	0.00480493	-21.1	22.0151	20.5391	7.92539	0.0423906	0.0163505	0.0454346	21.0921	5.22752e+09	1.3553e+10	1.45262e+10	-68.9079	0.0000000E+000	0.0000000E+000	0.0000000E+000	68.9079	0.0000000E+000	0.0000000E+000	0.0000000E+000	-68.9079	0.0000000E+000	0.0000000E+000	0.0000000E+000	-21.0921	0.0000000E+000	0.0000000E+000	0.0000000E+000	21.0921	2.59262	68.9079	0.000000000000000E+000	2.49262e-05	-2.12773e-09	2.49284e-05	3.77058	570278	48.6796	570327
0.000298679	20.5474	11.5167	23.5548	-29.2704	20330	3.77026	0.00661127	4.62687e+07	1.10607e+07	1	11	0.00508978	0.000216082	0	0.00739748	-0.000321834	3.3578e-06	21.8452	0.0155395	0.0144236	-0.00578224	-29.241	23.5646	20.5618	11.5109	0.0370337	0.0207572	0.0424542	29.2704	1.10607e+10	1.97339e+10	2.26222e+10	-60.7296	0.0000000E+000	0.0000000E+000	0.0000000E+000	60.7296	0.0000000E+000	0.0000000E+000	0.0000000E+000	-60.7296	0.0000000E+000	0.0000000E+000	0.0000000E+000	-29.2704	0.0000000E+000	0.0000000E+000	0.0000000E+000	29.2704	1.78414	60.7296	0.000000000000000E+000	2.49262e-05	-2.12773e-09	2.49284e-05	3.77058	570278	48.6796	570327
9.95598e-05	24.9606	36.8574	44.5141	-55.8934	20330	3.77026	0.00661127	4.33721e+07	2.97349e+07	1	11	0.00508713	0.000114281	0	0.00739748	-0.000321834	3.54864e-06	3.91859	0.0310518	0.0309792	-0.00212205	-55.8589	44.5297	24.9915	36.8553	0.0125968	0.0186008	0.0224648	55.8934	2.97349e+10	2.01371e+10	3.59119e+10	-34.1066	0.0000000E+000	0.0000000E+000	0.0000000E+000	34.1066	0.0000000E+000	0.0000000E+000	0.0000000E+000	-34.1066	0.0000000E+000	0.0000000E+000	0.0000000E+000	-55.8934	0.0000000E+000	0.0000000E+000	0.0000000E+000	55.8934	0.677219	34.1066	0.000000000000000E+000	2.49262e-05	-2.12773e-09	2.49284e-05	3.77058	570278	48.6796	570327