File: txt/17604_R291_UC84_SOC50_C01.mpt
EC-Lab ASCII FILE
Nb header lines : 64

Potentio Electrochemical Impedance Spectroscopy

Run on channel : 1 (SN 66354)
User :
CE vs. WE compliance from -10 V to 10 V
Electrode connection : standard
Potential control : Ewe
Ewe ctrl range : min = -10.00 V, max = 10.00 V
Safety Limits :
	Do not start on E overload
Acquisition started on : 09/17/2025 17:32:53.889
Loaded Setting File :  C:\Users\Celltest\OneDrive - store-dot.com\Documents\EC-Lab\Data\Michael\UC74_NCMA_16706_EIS_50_SOC.mps
Saved on :
	File : 17604_R291_UC84_SOC50_C01.mpr
	Directory : C:\Users\Celltest\OneDrive - store-dot.com\Documents\EC-Lab\Data\Gyutae\
	Host : 169.254.61.224
Device : VMP-3e (SN .003165)
Address : USB
EC-LAB for windows v11.62 (software)
Internet server v27.00 (firmware)
Command interpretor v12.03 (firmware)
Electrode material :
Initial state :
Electrolyte :
Comments :
Electrode surface area : 0.001 cm²
Characteristic mass : 0.001 g
Equivalent Weight : 0.000 g/eq.
Density : 0.000 g/cm3
Volume (V) : 0.001 cm³
Record Ece
Cycle Definition : Charge/Discharge alternance
Mode                Multi sine
E (V)               0.0000
vs.                 Eoc
tE (h:m:s)          0:00:0.0000
record              0
dI                  0.000
unit dI             mA
dt (s)              0.000
fi                  1.000
unit fi             MHz
ff                  0.100
unit ff             mHz
Nd                  10
Points              per decade
spacing             Logarithmic
Va (mV)             5.0
pw                  0.10
Na                  2
corr                0
E range min (V)     -10.000
E range max (V)     10.000
I Range             Auto
Bandwidth           5
nc cycles           0
goto Ns'            0
nr cycles           0
inc. cycle          0

freq/Hz	Re(Z)/Ohm	-Im(Z)/Ohm	|Z|/Ohm	Phase(Z)/deg	time/s	<Ewe>/V	<I>/mA	Cs/µF	Cp/µF	cycle number	I Range	|Ewe|/V	|I|/A	Ns	(Q-Qo)/mA.h	<Ece>/V	|Ece|/V	Phase(Zce)/deg	|Zce|/Ohm	Re(Zce)/Ohm	-Im(Zce)/Ohm	Phase(Zwe-ce)/deg	|Zwe-ce|/Ohm	Re(Zwe-ce)/Ohm	-Im(Zwe-ce)/Ohm	Re(Y)/Ohm-1	Im(Y)/Ohm-1	|Y|/Ohm-1	Phase(Y)/deg	Re(C)/nF	Im(C)/nF	|C|/nF	Phase(C)/deg	Re(M)	Im(M)	|M|	Phase(M)/deg	Re(Permittivity)	Im(Permittivity)	|Permittivity|	Phase(Permittivity)/deg	Re(Resistivity)/Ohm.cm	Im(Resistivity)/Ohm.cm	|Resistivity|/Ohm.cm	Phase(Resistivity)/deg	Re(Conductivity)/mS/cm	Im(Conductivity)/mS/cm	|Conductivity|/mS/cm	Phase(Conductivity)/deg	Tan(Delta)	Loss Angle(Delta)/deg	dq/mA.h	Pwe/W	Pce/W	Pwe-ce/W	<Ewe-Ece>/V	Rwe/Ohm	Rce/Ohm	Rwe-ce/Ohm		Ewe-Ece/V
1.00002e+06	1.10267	-0.0271336	1.103	1.4096	2.72753	3.78505	0.117235	-5.8655	-0.00354948	1	9	0.000235281	0.000213309	0	2.64431e-05	-8.65131e-05	0.000185872	-6.27423	0.871375	0.866155	0.0952302	-1.98092	1.97	1.96883	0.0680966	0.90634	-0.0223024	0.906615	-1.4096	-3.54947	144.246	144.29	-91.4096	0.0000000E+000	0.0000000E+000	0.0000000E+000	91.4096	0.0000000E+000	0.0000000E+000	0.0000000E+000	-91.4096	0.0000000E+000	0.0000000E+000	0.0000000E+000	1.4096	0.0000000E+000	0.0000000E+000	0.0000000E+000	-1.4096	40.6386	88.5904	2.64431e-05	0.000443739	-1.01423e-08	0.000443749	3.78513	32286	0.737948	32286.8
630957	0.427163	0.234936	0.487507	-28.8104	3.49356	3.78475	0.0767021	1.07367	0.249349	1	9	0.000170007	0.000348728	0	4.38007e-05	0.000180569	0.000122333	-114.244	0.350798	-0.144048	0.319858	-62.9645	0.622857	0.283115	0.554794	1.79735	0.988523	2.05125	28.8104	249.349	453.37	517.415	-61.1896	0.0000000E+000	0.0000000E+000	0.0000000E+000	61.1896	0.0000000E+000	0.0000000E+000	0.0000000E+000	-61.1896	0.0000000E+000	0.0000000E+000	0.0000000E+000	-28.8104	0.0000000E+000	0.0000000E+000	0.0000000E+000	28.8104	1.81821	61.1896	8.88615e-06	0.000290298	1.385e-08	0.000290284	3.78457	49343.6	2.35416	49341.2
398103	0.652851	0.141028	0.66791	-12.1896	4.26154	3.7848	0.0898156	2.83478	0.126384	1	9	0.000651458	0.000975368	0	6.04557e-05	0.000199647	6.96469e-05	167.413	0.0714057	-0.0696897	-0.0155603	-12.1421	0.596506	0.583161	0.125468	1.46345	0.316133	1.49721	12.1896	126.384	585.063	598.558	-77.8104	0.0000000E+000	0.0000000E+000	0.0000000E+000	77.8104	0.0000000E+000	0.0000000E+000	0.0000000E+000	-77.8104	0.0000000E+000	0.0000000E+000	0.0000000E+000	-12.1896	0.0000000E+000	0.0000000E+000	0.0000000E+000	12.1896	4.62923	77.8104	8.66369e-06	0.000339934	1.79314e-08	0.000339916	3.7846	42139.7	2.22285	42137.5
251206	0.809189	0.251108	0.847255	-17.2402	5.02755	3.78474	0.0764786	2.52307	0.221627	1	9	0.00221492	0.00261423	0	8.32631e-05	-0.000143745	6.2252e-05	115.579	0.0238128	-0.0102813	-0.0214789	-16.0362	0.831254	0.798907	0.229629	1.12725	0.34981	1.18028	17.2402	221.627	714.185	747.783	-72.7598	0.0000000E+000	0.0000000E+000	0.0000000E+000	72.7598	0.0000000E+000	0.0000000E+000	0.0000000E+000	-72.7598	0.0000000E+000	0.0000000E+000	0.0000000E+000	-17.2402	0.0000000E+000	0.0000000E+000	0.0000000E+000	17.2402	3.22247	72.7598	9.84615e-06	0.000289451	-1.09934e-08	0.000289462	3.78488	49487.6	1.87955	49489.4
158486	0.938911	0.323728	0.993153	-19.0237	5.79353	3.78467	0.0694003	3.10205	0.329592	1	9	0.00512534	0.00516068	0	8.40864e-05	0.00031411	6.28424e-05	92.6483	0.0121772	-0.000562643	-0.0121641	-18.3679	0.988721	0.938348	0.311563	0.951901	0.328207	1.00689	19.0237	329.592	955.919	1011.14	-70.9763	0.0000000E+000	0.0000000E+000	0.0000000E+000	70.9763	0.0000000E+000	0.0000000E+000	0.0000000E+000	-70.9763	0.0000000E+000	0.0000000E+000	0.0000000E+000	-19.0237	0.0000000E+000	0.0000000E+000	0.0000000E+000	19.0237	2.90031	70.9763	-5.85764e-06	0.000262657	2.17994e-08	0.000262636	3.78436	54533.9	4.52606	54529.4
100004	1.07128	0.348475	1.12653	-18.0191	6.55952	3.78468	0.0727532	4.56701	0.437006	1	9	0.00531805	0.00472072	0	8.69641e-05	-6.74358e-05	5.06404e-05	99.5401	0.0107272	-0.00177792	-0.0105789	-17.5333	1.12161	1.0695	0.337896	0.844141	0.274589	0.887679	18.0191	437.006	1343.44	1412.73	-71.9809	0.0000000E+000	0.0000000E+000	0.0000000E+000	71.9809	0.0000000E+000	0.0000000E+000	0.0000000E+000	-71.9809	0.0000000E+000	0.0000000E+000	0.0000000E+000	-18.0191	0.0000000E+000	0.0000000E+000	0.0000000E+000	18.0191	3.0742	71.9809	3.06376e-06	0.000275348	-4.90617e-09	0.000275353	3.78475	52020.8	0.926912	52021.8
63093.8	1.18737	0.352989	1.23873	-16.5564	7.32755	3.78469	0.0742806	7.14615	0.580281	1	9	0.00532693	0.0043003	0	0.000116536	-8.65131e-05	3.28424e-05	84.6656	0.00763724	0.000710022	-0.00760417	-16.2095	1.23727	1.18808	0.345385	0.773806	0.230041	0.807276	16.5564	580.281	1951.94	2036.36	-73.4436	0.0000000E+000	0.0000000E+000	0.0000000E+000	73.4436	0.0000000E+000	0.0000000E+000	0.0000000E+000	-73.4436	0.0000000E+000	0.0000000E+000	0.0000000E+000	-16.5564	0.0000000E+000	0.0000000E+000	0.0000000E+000	16.5564	3.36377	73.4436	2.20589e-05	0.000281129	-6.42625e-09	0.000281135	3.78477	50951.2	1.16468	50952.4
39814.1	1.29277	0.355936	1.34088	-15.3937	8.09353	3.78469	0.0783786	11.2308	0.791365	1	9	0.00536606	0.0040019	0	0.000126155	-8.65131e-05	1.89738e-05	55.1454	0.00474119	0.00270957	-0.00389065	-15.2029	1.34247	1.29548	0.352046	0.719024	0.197967	0.74578	15.3937	791.365	2874.27	2981.22	-74.6063	0.0000000E+000	0.0000000E+000	0.0000000E+000	74.6063	0.0000000E+000	0.0000000E+000	0.0000000E+000	-74.6063	0.0000000E+000	0.0000000E+000	0.0000000E+000	-15.3937	0.0000000E+000	0.0000000E+000	0.0000000E+000	15.3937	3.63204	74.6063	6.97245e-06	0.000296639	-6.78078e-09	0.000296645	3.78478	48287.3	1.10378	48288.4
25116.9	1.38438	0.368775	1.43266	-14.9162	8.85953	3.78469	0.0784158	17.1827	1.13849	1	9	0.00542116	0.00378399	0	0.000148688	-4.83585e-05	1.34837e-05	93.9901	0.00356336	-0.000247951	-0.00355472	-14.7813	1.43151	1.38413	0.365221	0.674483	0.179671	0.698003	14.9162	1138.49	4273.91	4422.94	-75.0838	0.0000000E+000	0.0000000E+000	0.0000000E+000	75.0838	0.0000000E+000	0.0000000E+000	0.0000000E+000	-75.0838	0.0000000E+000	0.0000000E+000	0.0000000E+000	-14.9162	0.0000000E+000	0.0000000E+000	0.0000000E+000	14.9162	3.754	75.0838	1.26017e-05	0.00029678	-3.79207e-09	0.000296784	3.78474	48264.4	0.616693	48265
15847.7	1.47565	0.393286	1.52716	-14.9234	9.62552	3.78469	0.0769256	25.5356	1.69353	1	9	0.0049378	0.00323333	0	0.000165673	-4.83585e-05	6.01992e-05	-113.487	0.0186184	-0.00742021	0.0170758	-15.6154	1.5245	1.46823	0.410361	0.632724	0.168632	0.654811	14.9234	1693.53	6354.32	6576.12	-75.0766	0.0000000E+000	0.0000000E+000	0.0000000E+000	75.0766	0.0000000E+000	0.0000000E+000	0.0000000E+000	-75.0766	0.0000000E+000	0.0000000E+000	0.0000000E+000	-14.9234	0.0000000E+000	0.0000000E+000	0.0000000E+000	14.9234	3.75211	75.0766	1.19343e-05	0.000291139	-3.72001e-09	0.000291143	3.78473	49199.3	0.628639	49199.9
10002.2	1.57682	0.439024	1.6368	-15.5585	10.2675	3.78469	0.0704434	36.2439	2.60749	1	9	0.00492035	0.00300608	0	0.000180637	-0.0001819	9.22232e-06	-88.2238	0.00306788	9.5092e-05	0.00306641	-15.6609	1.63771	1.57691	0.44209	0.588563	0.16387	0.61095	15.5585	2607.49	9365.18	9721.4	-74.4415	0.0000000E+000	0.0000000E+000	0.0000000E+000	74.4415	0.0000000E+000	0.0000000E+000	0.0000000E+000	-74.4415	0.0000000E+000	0.0000000E+000	0.0000000E+000	-15.5585	0.0000000E+000	0.0000000E+000	0.0000000E+000	15.5585	3.59165	74.4415	9.1589e-06	0.000266606	-1.28136e-08	0.000266619	3.78487	53726.6	2.58221	53729.2
6309.38	1.69201	0.499271	1.76413	-16.4401	10.7875	3.78469	0.0734237	50.5239	4.04676	1	9	0.0045871	0.0026002	0	0.000192987	0.000180569	9.2206e-06	-30.7755	0.00354611	0.00304674	0.00181445	-16.4685	1.76757	1.69505	0.501086	0.543676	0.160426	0.566851	16.4401	4046.76	13714.3	14298.9	-73.5599	0.0000000E+000	0.0000000E+000	0.0000000E+000	73.5599	0.0000000E+000	0.0000000E+000	0.0000000E+000	-73.5599	0.0000000E+000	0.0000000E+000	0.0000000E+000	-16.4401	0.0000000E+000	0.0000000E+000	0.0000000E+000	16.4401	3.38896	73.5599	4.28173e-06	0.000277886	1.32581e-08	0.000277873	3.78451	51545.9	2.45928	51543.4
3983.6	1.81868	0.580523	1.90908	-17.7031	11.4761	3.7845	-0.0428471	68.8216	6.36378	1	9	0.00497115	0.00260395	0	0.000199772	0.000237801	5.25991e-06	-38.6047	0.00201998	0.00157855	0.00126035	-17.7247	1.91097	1.82026	0.581784	0.499007	0.159283	0.523812	17.7031	6363.78	19936.6	20927.6	-72.2969	0.0000000E+000	0.0000000E+000	0.0000000E+000	72.2969	0.0000000E+000	0.0000000E+000	0.0000000E+000	-72.2969	0.0000000E+000	0.0000000E+000	0.0000000E+000	-17.7031	0.0000000E+000	0.0000000E+000	0.0000000E+000	17.7031	3.13282	72.2969	-2.88992e-06	-0.000162155	-1.01891e-08	-0.000162144	3.78426	88325.8	5.55	88320.2
2510.8	1.98021	0.700063	2.10031	-19.4701	12.3008	3.78457	0.0562122	90.5462	10.0595	1	9	0.00488527	0.00232598	0	0.000202297	0.000237801	6.66094e-06	-0.197311	0.00286372	0.0028637	9.86181e-06	-19.4443	2.10301	1.98307	0.700073	0.448894	0.158698	0.47612	19.4701	10059.5	28454.5	30180.3	-70.5299	0.0000000E+000	0.0000000E+000	0.0000000E+000	70.5299	0.0000000E+000	0.0000000E+000	0.0000000E+000	-70.5299	0.0000000E+000	0.0000000E+000	0.0000000E+000	-19.4701	0.0000000E+000	0.0000000E+000	0.0000000E+000	19.4701	2.82861	70.5299	7.48474e-06	0.000212739	1.33673e-08	0.000212726	3.78434	67326.5	4.23042	67322.3
1585.51	2.15911	0.852352	2.32126	-21.5427	13.2028	3.78456	0.0645944	117.769	15.879	1	9	0.00485058	0.00208963	0	0.00021639	-0.000220054	6.36187e-06	26.8321	0.00304449	0.0027167	-0.00137422	-21.4865	2.32328	2.16182	0.850978	0.400707	0.158187	0.430801	21.5427	15879	40223.4	43244.2	-68.4573	0.0000000E+000	0.0000000E+000	0.0000000E+000	68.4573	0.0000000E+000	0.0000000E+000	0.0000000E+000	-68.4573	0.0000000E+000	0.0000000E+000	0.0000000E+000	-21.5427	0.0000000E+000	0.0000000E+000	0.0000000E+000	21.5427	2.53311	68.4573	5.2774e-06	0.000244462	-1.42143e-08	0.000244476	3.78478	58589.6	3.40671	58593
1000.32	2.39777	1.02743	2.60863	-23.1948	14.1058	3.78457	0.0568083	154.857	24.022	1	9	0.00483197	0.0018523	0	0.000229181	0.000123337	9.13784e-06	6.59991	0.00493323	0.00490054	-0.000567004	-23.141	2.61291	2.40267	1.02686	0.352358	0.150983	0.383344	23.1948	24022	56061.6	60991.5	-66.8052	0.0000000E+000	0.0000000E+000	0.0000000E+000	66.8052	0.0000000E+000	0.0000000E+000	0.0000000E+000	-66.8052	0.0000000E+000	0.0000000E+000	0.0000000E+000	-23.1948	0.0000000E+000	0.0000000E+000	0.0000000E+000	23.1948	2.33376	66.8052	6.60892e-06	0.000214995	7.00658e-09	0.000214988	3.78445	66620	2.17111	66617.9
631.01	2.72077	1.2655	3.00067	-24.9443	15.0076	3.78456	0.0568828	199.307	35.4493	1	9	0.00481681	0.00160524	0	0.00024458	0.00010426	1.18067e-05	55.9808	0.00735507	0.00411495	-0.00609625	-24.8057	3.00184	2.72488	1.2594	0.302171	0.140548	0.333258	24.9443	35449.3	76214.5	84055.3	-65.0557	0.0000000E+000	0.0000000E+000	0.0000000E+000	65.0557	0.0000000E+000	0.0000000E+000	0.0000000E+000	-65.0557	0.0000000E+000	0.0000000E+000	0.0000000E+000	-24.9443	0.0000000E+000	0.0000000E+000	0.0000000E+000	24.9443	2.14996	65.0557	7.70557e-06	0.000215276	5.9306e-09	0.00021527	3.78445	66532.5	1.83289	66530.7
398.089	3.19395	1.49605	3.52697	-25.0984	16.1548	3.78457	-0.0178189	267.235	48.0821	1	10	0.0048424	0.00137296	0	0.000244435	-0.00010559	1.33008e-05	-42.3472	0.00968763	0.0071599	0.0065258	-25.145	3.53622	3.20111	1.50258	0.256759	0.120266	0.28353	25.0984	48082.1	102652	113354	-64.9016	0.0000000E+000	0.0000000E+000	0.0000000E+000	64.9016	0.0000000E+000	0.0000000E+000	0.0000000E+000	-64.9016	0.0000000E+000	0.0000000E+000	0.0000000E+000	-25.0984	0.0000000E+000	0.0000000E+000	0.0000000E+000	25.0984	2.13492	64.9016	-1.89552e-06	-6.7437e-05	1.88151e-09	-6.74389e-05	3.78468	212391	5.92575	212396
251.044	3.79899	1.6393	4.13759	-23.3407	17.0531	3.78458	-0.0183966	386.733	60.7064	1	10	0.00483532	0.00116863	0	0.000238927	8.87343e-06	1.33128e-05	-78.0386	0.0113918	0.00236099	0.0111445	-23.4692	4.14418	3.80135	1.65045	0.221908	0.0957557	0.241687	23.3407	60706.4	140684	153222	-66.6593	0.0000000E+000	0.0000000E+000	0.0000000E+000	66.6593	0.0000000E+000	0.0000000E+000	0.0000000E+000	-66.6593	0.0000000E+000	0.0000000E+000	0.0000000E+000	-23.3407	0.0000000E+000	0.0000000E+000	0.0000000E+000	23.3407	2.31744	66.6593	-2.76741e-06	-6.96234e-05	-1.63241e-10	-6.96232e-05	3.78457	205721	0.482341	205721
158.428	4.43814	1.61051	4.72131	-19.9448	17.9578	3.78458	-0.016522	623.768	72.5813	1	10	0.00482013	0.00102093	0	0.000232502	-0.00010559	1.02478e-05	-123.853	0.0100377	-0.00559167	0.00833603	-20.0631	4.71891	4.43255	1.61885	0.199102	0.07225	0.211805	19.9448	72581.3	200015	212777	-70.0552	0.0000000E+000	0.0000000E+000	0.0000000E+000	70.0552	0.0000000E+000	0.0000000E+000	0.0000000E+000	-70.0552	0.0000000E+000	0.0000000E+000	0.0000000E+000	-19.9448	0.0000000E+000	0.0000000E+000	0.0000000E+000	19.9448	2.75573	70.0552	-2.70978e-06	-6.25287e-05	1.74456e-09	-6.25305e-05	3.78469	229064	6.39091	229070
100.032	5.00141	1.40136	5.19402	-15.6525	18.8578	3.78457	-0.0178413	1135.36	82.646	1	10	0.00481115	0.000926285	0	0.00022808	-4.83585e-05	1.85761e-05	45.7466	0.0200545	0.0139947	-0.0143642	-15.4586	5.20365	5.0154	1.38699	0.185389	0.0519447	0.192529	15.6525	82646	294962	306321	-74.3475	0.0000000E+000	0.0000000E+000	0.0000000E+000	74.3475	0.0000000E+000	0.0000000E+000	0.0000000E+000	-74.3475	0.0000000E+000	0.0000000E+000	0.0000000E+000	-15.6525	0.0000000E+000	0.0000000E+000	0.0000000E+000	15.6525	3.56898	74.3475	-2.86692e-06	-6.75217e-05	8.62778e-10	-6.75225e-05	3.78462	212124	2.71048	212127
63.0823	5.42981	1.12174	5.54446	-11.6725	19.775	3.78458	-0.0147442	2249.16	92.0633	1	10	0.00481143	0.00086779	0	0.000224112	-1.02039e-05	4.61269e-06	-87.6151	0.00531545	0.00022119	0.00531084	-11.7258	5.54576	5.43003	1.12705	0.17663	0.03649	0.18036	11.6725	92063.2	445633	455044	-78.3275	0.0000000E+000	0.0000000E+000	0.0000000E+000	78.3275	0.0000000E+000	0.0000000E+000	0.0000000E+000	-78.3275	0.0000000E+000	0.0000000E+000	0.0000000E+000	-11.6725	0.0000000E+000	0.0000000E+000	0.0000000E+000	11.6725	4.84051	78.3275	-1.63406e-06	-5.58007e-05	1.50448e-10	-5.58008e-05	3.78459	256683	0.69206	256683
39.8089	5.68732	0.839147	5.74889	-8.39327	20.6768	3.78458	-0.0167232	4764.33	101.51	1	10	0.00480623	0.000836027	0	0.000222052	8.51827e-05	8.15686e-06	-14.4385	0.00975669	0.00944853	0.00243274	-8.40349	5.75859	5.69677	0.84158	0.172084	0.0253904	0.173947	8.39327	101510	687985	695434	-81.6067	0.0000000E+000	0.0000000E+000	0.0000000E+000	81.6067	0.0000000E+000	0.0000000E+000	0.0000000E+000	-81.6067	0.0000000E+000	0.0000000E+000	0.0000000E+000	-8.39327	0.0000000E+000	0.0000000E+000	0.0000000E+000	8.39327	6.7775	81.6067	-1.10911e-06	-6.32903e-05	-1.42453e-09	-6.32888e-05	3.78449	226307	5.09368	226302
25.1044	5.85332	0.62314	5.8864	-6.07678	21.5561	3.78458	-0.0176885	10173.8	114.013	1	10	0.00480719	0.000816661	0	0.000218106	0.000237801	5.9531e-06	-27.5151	0.00728955	0.00646503	0.00336764	-6.10268	5.89318	5.85979	0.626508	0.168929	0.017984	0.169883	6.07678	114013	1.07096e+06	1.07701e+06	-83.9232	0.0000000E+000	0.0000000E+000	0.0000000E+000	83.9232	0.0000000E+000	0.0000000E+000	0.0000000E+000	-83.9232	0.0000000E+000	0.0000000E+000	0.0000000E+000	-6.07678	0.0000000E+000	0.0000000E+000	0.0000000E+000	6.07678	9.39327	83.9232	-2.44477e-06	-6.69435e-05	-4.20634e-09	-6.69393e-05	3.78434	213957	13.4438	213944
15.8576	5.97348	0.481605	5.99286	-4.60943	22.4341	3.78455	-0.0218589	20839.7	134.588	1	10	0.00483459	0.000806725	0	0.000217885	0.000161492	2.49402e-05	-1.66278	0.0309153	0.0309023	0.000897065	-4.59432	6.02374	6.00438	0.482502	0.166325	0.0134098	0.166865	4.60943	134588	1.66933e+06	1.67475e+06	-85.3906	0.0000000E+000	0.0000000E+000	0.0000000E+000	85.3906	0.0000000E+000	0.0000000E+000	0.0000000E+000	-85.3906	0.0000000E+000	0.0000000E+000	0.0000000E+000	-4.60943	0.0000000E+000	0.0000000E+000	0.0000000E+000	4.60943	12.4033	85.3906	5.28643e-07	-8.27264e-05	-3.53004e-09	-8.27228e-05	3.78439	173135	7.38791	173128
10.0032	6.02039	0.350602	6.03059	-3.3329	23.4159	3.78458	-0.0151877	45380.3	153.383	1	10	0.00481226	0.000797976	0	0.000211268	8.51827e-05	9.8873e-06	10.0813	0.0123905	0.0121992	-0.00216888	-3.30564	6.04264	6.03258	0.348433	0.165541	0.0096404	0.165821	3.3329	153383	2.63382e+06	2.63828e+06	-86.6671	0.0000000E+000	0.0000000E+000	0.0000000E+000	86.6671	0.0000000E+000	0.0000000E+000	0.0000000E+000	-86.6671	0.0000000E+000	0.0000000E+000	0.0000000E+000	-3.3329	0.0000000E+000	0.0000000E+000	0.0000000E+000	3.3329	17.1716	86.6671	-3.44871e-06	-5.74792e-05	-1.29373e-09	-5.74779e-05	3.7845	249187	5.60865	249181
6.31058	6.06015	0.278446	6.06655	-2.63072	24.3403	3.78459	-0.0160226	90575.2	190.814	1	10	0.004803	0.000791719	0	0.000215201	0.000333188	5.24696e-06	124.194	0.00662731	-0.00372449	-0.00548173	-2.58059	6.06258	6.05643	0.272965	0.164665	0.00756586	0.164838	2.63072	190813	4.1529e+06	4.15728e+06	-87.3693	0.0000000E+000	0.0000000E+000	0.0000000E+000	87.3693	0.0000000E+000	0.0000000E+000	0.0000000E+000	-87.3693	0.0000000E+000	0.0000000E+000	0.0000000E+000	-2.63072	0.0000000E+000	0.0000000E+000	0.0000000E+000	2.63072	21.7642	87.3693	2.68115e-06	-6.06389e-05	-5.33852e-09	-6.06335e-05	3.78426	236204	20.7949	236183
3.97785	6.11703	0.26276	6.12267	-2.45965	25.3473	3.78462	-0.00480819	152269	280.445	1	10	0.00481175	0.00078589	0	0.00020173	-6.74358e-05	7.41181e-06	2.79517	0.0094311	0.00941988	-0.000459913	-2.45158	6.13206	6.12645	0.2623	0.163177	0.00700934	0.163327	2.45965	280446	6.52875e+06	6.53477e+06	-87.5403	0.0000000E+000	0.0000000E+000	0.0000000E+000	87.5403	0.0000000E+000	0.0000000E+000	0.0000000E+000	-87.5403	0.0000000E+000	0.0000000E+000	0.0000000E+000	-2.45965	0.0000000E+000	0.0000000E+000	0.0000000E+000	2.45965	23.2799	87.5403	-3.36284e-06	-1.81972e-05	3.24244e-10	-1.81975e-05	3.78469	787119	14.0252	787133
2.51367	6.1774	0.255052	6.18266	-2.36428	27.3499	3.78463	-0.00135662	248246	422.464	1	11	0.00481362	0.000778568	0	0.000218092	0.000142415	3.08389e-06	44.6232	0.00396097	0.00281919	-0.00278235	-2.33745	6.18536	6.18022	0.25227	0.161605	0.00667234	0.161743	2.36428	422463	1.02321e+07	1.02408e+07	-87.6357	0.0000000E+000	0.0000000E+000	0.0000000E+000	87.6357	0.0000000E+000	0.0000000E+000	0.0000000E+000	-87.6357	0.0000000E+000	0.0000000E+000	0.0000000E+000	-2.36428	0.0000000E+000	0.0000000E+000	0.0000000E+000	2.36428	24.2201	87.6357	7.7726e-06	-5.13432e-06	-1.93203e-10	-5.13412e-06	3.78448	2.78974e+06	104.977	2.78963e+06
1.58469	6.23457	0.274288	6.2406	-2.51909	29.7855	3.78463	-0.000403677	366160	707.345	1	11	0.00481606	0.000771731	0	0.000190067	0.000275956	2.66239e-06	46.8344	0.0034499	0.00236011	-0.00251628	-2.49506	6.24285	6.23693	0.271772	0.160086	0.00704295	0.160241	2.51909	707346	1.6078e+07	1.60935e+07	-87.4809	0.0000000E+000	0.0000000E+000	0.0000000E+000	87.4809	0.0000000E+000	0.0000000E+000	0.0000000E+000	-87.4809	0.0000000E+000	0.0000000E+000	0.0000000E+000	-2.51909	0.0000000E+000	0.0000000E+000	0.0000000E+000	2.51909	22.73	87.4809	-1.62849e-05	-1.52777e-06	-1.11397e-10	-1.52766e-06	3.78435	9.37538e+06	683.605	9.3747e+06
1.00469	6.35305	0.295808	6.35993	-2.66586	240.604	3.78461	-0.0055441	535520	1158.49	1	11	0.00500838	0.00078749	0	-0.00290132	0.000123337	4.56004e-07	-0.480227	0.00057906	0.00057904	4.85336e-06	-2.66566	6.36051	6.35363	0.295813	0.157064	0.00731317	0.157234	2.66586	1.15849e+06	2.48808e+07	2.49077e+07	-87.3341	0.0000000E+000	0.0000000E+000	0.0000000E+000	87.3341	0.0000000E+000	0.0000000E+000	0.0000000E+000	-87.3341	0.0000000E+000	0.0000000E+000	0.0000000E+000	-2.66586	0.0000000E+000	0.0000000E+000	0.0000000E+000	2.66586	21.4769	87.3341	-0.00308453	-2.09823e-05	-6.83794e-10	-2.09816e-05	3.78449	682637	22.2466	682615
0.632957	6.42016	0.351647	6.42979	-3.13509	240.604	3.78461	-0.0055441	715054	2138.75	1	11	0.0050211	0.000780913	0	-0.00290132	0.000123337	5.64515e-07	-4.2267	0.000722892	0.000720926	5.32792e-05	-3.13521	6.43051	6.42088	0.3517	0.155293	0.00850578	0.155526	3.13509	2.13875e+06	3.9048e+07	3.91065e+07	-86.8649	0.0000000E+000	0.0000000E+000	0.0000000E+000	86.8649	0.0000000E+000	0.0000000E+000	0.0000000E+000	-86.8649	0.0000000E+000	0.0000000E+000	0.0000000E+000	-3.13509	0.0000000E+000	0.0000000E+000	0.0000000E+000	3.13509	18.2574	86.8649	0.000000000000000E+000	-2.09823e-05	-6.83794e-10	-2.09816e-05	3.78449	682637	22.2466	682615
0.401878	6.47283	0.440836	6.48782	-3.89614	240.604	3.78461	-0.0055441	898359	4147.68	1	11	0.00503425	0.000775953	0	-0.00290132	0.000123337	2.98277e-07	9.44425	0.0003844	0.00037919	-6.30754e-05	-3.89536	6.4882	6.47321	0.440773	0.153779	0.0104732	0.154135	3.89614	4.14768e+06	6.09007e+07	6.10418e+07	-86.1039	0.0000000E+000	0.0000000E+000	0.0000000E+000	86.1039	0.0000000E+000	0.0000000E+000	0.0000000E+000	-86.1039	0.0000000E+000	0.0000000E+000	0.0000000E+000	-3.89614	0.0000000E+000	0.0000000E+000	0.0000000E+000	3.89614	14.6831	86.1039	0.000000000000000E+000	-2.09823e-05	-6.83794e-10	-2.09816e-05	3.78449	682637	22.2466	682615
0.251173	6.59681	0.569512	6.62135	-4.93419	240.604	3.78461	-0.0055441	1.11261e+06	8231.06	1	11	0.00503574	0.000760531	0	-0.00290132	0.000123337	7.37348e-07	-15.8226	0.000969517	0.000932783	0.000264348	-4.93577	6.6223	6.59775	0.569776	0.150467	0.01299	0.151027	4.93419	8.23106e+06	9.53427e+07	9.56973e+07	-85.0658	0.0000000E+000	0.0000000E+000	0.0000000E+000	85.0658	0.0000000E+000	0.0000000E+000	0.0000000E+000	-85.0658	0.0000000E+000	0.0000000E+000	0.0000000E+000	-4.93419	0.0000000E+000	0.0000000E+000	0.0000000E+000	4.93419	11.5833	85.0658	0.000000000000000E+000	-2.09823e-05	-6.83794e-10	-2.09816e-05	3.78449	682637	22.2466	682615
0.160751	6.72542	0.663981	6.75812	-5.63837	240.604	3.78461	-0.0055441	1.49111e+06	14393.6	1	11	0.00503059	0.000744377	0	-0.00290132	0.000123337	3.85794e-07	-3.04329	0.000518278	0.000517547	2.75157e-05	-5.63817	6.75864	6.72594	0.664008	0.147254	0.014538	0.14797	5.63837	1.43936e+07	1.45792e+08	1.46501e+08	-84.3616	0.0000000E+000	0.0000000E+000	0.0000000E+000	84.3616	0.0000000E+000	0.0000000E+000	0.0000000E+000	-84.3616	0.0000000E+000	0.0000000E+000	0.0000000E+000	-5.63837	0.0000000E+000	0.0000000E+000	0.0000000E+000	5.63837	10.1289	84.3616	0.000000000000000E+000	-2.09823e-05	-6.83794e-10	-2.09816e-05	3.78449	682637	22.2466	682615
0.100469	6.86493	0.957815	6.93143	-7.94279	240.604	3.78461	-0.0055441	1.65388e+06	31580.7	1	11	0.00503306	0.000726122	0	-0.00290132	0.000123337	7.0613e-07	-13.3032	0.000972468	0.000946373	0.000223769	-7.94354	6.9324	6.86588	0.958038	0.142886	0.0199359	0.14427	7.94279	3.15807e+07	2.26348e+08	2.28541e+08	-82.0572	0.0000000E+000	0.0000000E+000	0.0000000E+000	82.0572	0.0000000E+000	0.0000000E+000	0.0000000E+000	-82.0572	0.0000000E+000	0.0000000E+000	0.0000000E+000	-7.94279	0.0000000E+000	0.0000000E+000	0.0000000E+000	7.94279	7.16729	82.0572	0.000000000000000E+000	-2.09823e-05	-6.83794e-10	-2.09816e-05	3.78449	682637	22.2466	682615
0.0602816	7.15281	1.20016	7.25279	-9.52488	240.605	3.78461	-0.0055441	2.19986e+06	60237.1	1	11	0.00502697	0.000693108	0	-0.00290132	0.000123337	5.00557e-07	-6.37947	0.000722192	0.00071772	8.02448e-05	-9.52456	7.25351	7.15352	1.20024	0.135977	0.0228155	0.137878	9.52488	6.02372e+07	3.59005e+08	3.64024e+08	-80.4751	0.0000000E+000	0.0000000E+000	0.0000000E+000	80.4751	0.0000000E+000	0.0000000E+000	0.0000000E+000	-80.4751	0.0000000E+000	0.0000000E+000	0.0000000E+000	-9.52488	0.0000000E+000	0.0000000E+000	0.0000000E+000	9.52488	5.95987	80.4751	0.000000000000000E+000	-2.09823e-05	-6.83794e-10	-2.09816e-05	3.78449	682637	22.2466	682615
0.0401878	7.55515	1.42735	7.6888	-10.6985	240.605	3.78461	-0.0055441	2.77456e+06	95618.3	1	11	0.00502743	0.000653865	0	-0.00290132	0.000123337	5.26005e-07	-12.0145	0.000804456	0.000786834	0.000167454	-10.6986	7.6896	7.55594	1.42752	0.127799	0.0241443	0.130059	10.6985	9.56183e+07	5.06119e+08	5.15072e+08	-79.3015	0.0000000E+000	0.0000000E+000	0.0000000E+000	79.3015	0.0000000E+000	0.0000000E+000	0.0000000E+000	-79.3015	0.0000000E+000	0.0000000E+000	0.0000000E+000	-10.6985	0.0000000E+000	0.0000000E+000	0.0000000E+000	10.6985	5.29312	79.3015	0.000000000000000E+000	-2.09823e-05	-6.83794e-10	-2.09816e-05	3.78449	682637	22.2466	682615
0.0200939	8.41405	2.05598	8.6616	-13.7312	240.605	3.78461	-0.0055441	3.85245e+06	217060	1	11	0.00502839	0.000580539	0	-0.00290132	0.000123337	4.21141e-07	-50.064	0.000725431	0.000465677	0.000556233	-13.7341	8.66218	8.41451	2.05654	0.112153	0.0274046	0.115452	13.7312	2.1706e+08	8.88312e+08	9.14447e+08	-76.2688	0.0000000E+000	0.0000000E+000	0.0000000E+000	76.2688	0.0000000E+000	0.0000000E+000	0.0000000E+000	-76.2688	0.0000000E+000	0.0000000E+000	0.0000000E+000	-13.7312	0.0000000E+000	0.0000000E+000	0.0000000E+000	13.7312	4.09247	76.2688	0.000000000000000E+000	-2.09823e-05	-6.83794e-10	-2.09816e-05	3.78449	682637	22.2466	682615
0.00796479	10.0826	2.25404	10.3315	-12.6016	20329.5	3.7846	0.00151334	8.86513e+06	421967	1	11	0.00502182	0.000486068	0	-0.0248949	0.000123337	6.11292e-07	-18.4044	0.00125763	0.0011933	0.00039706	-12.6023	10.3328	10.0838	2.25443	0.0944595	0.021117	0.0967911	12.6016	4.21967e+08	1.88752e+09	1.93411e+09	-77.3984	0.0000000E+000	0.0000000E+000	0.0000000E+000	77.3984	0.0000000E+000	0.0000000E+000	0.0000000E+000	-77.3984	0.0000000E+000	0.0000000E+000	0.0000000E+000	-12.6016	0.0000000E+000	0.0000000E+000	0.0000000E+000	12.6016	4.47315	77.3984	-0.0219936	5.72738e-06	1.86651e-10	5.72719e-06	3.78447	2.50082e+06	81.5001	2.50074e+06
0.00497799	10.8774	2.1631	11.0904	-11.2472	20329.5	3.7846	0.00151334	1.47805e+07	562270	1	11	0.00502915	0.000453467	0	-0.0248949	0.000123337	5.45984e-07	-12.893	0.00120402	0.00117367	0.000268654	-11.2473	11.0916	10.8786	2.16337	0.0884361	0.0175865	0.0901677	11.2472	5.6227e+08	2.82745e+09	2.88282e+09	-78.7528	0.0000000E+000	0.0000000E+000	0.0000000E+000	78.7528	0.0000000E+000	0.0000000E+000	0.0000000E+000	-78.7528	0.0000000E+000	0.0000000E+000	0.0000000E+000	-11.2472	0.0000000E+000	0.0000000E+000	0.0000000E+000	11.2472	5.02864	78.7528	0.000000000000000E+000	5.72738e-06	1.86651e-10	5.72719e-06	3.78447	2.50082e+06	81.5001	2.50074e+06
0.00318591	11.3255	2.85023	11.6787	-14.1259	20329.5	3.7846	0.00151334	1.75269e+07	1.04395e+06	1	11	0.00503146	0.000430824	0	-0.0248949	0.000123337	7.43108e-07	-14.3086	0.00172485	0.00167135	0.000426287	-14.126	11.6804	11.3272	2.85066	0.0830368	0.0208974	0.085626	14.1259	1.04395e+09	4.14817e+09	4.27752e+09	-75.8741	0.0000000E+000	0.0000000E+000	0.0000000E+000	75.8741	0.0000000E+000	0.0000000E+000	0.0000000E+000	-75.8741	0.0000000E+000	0.0000000E+000	0.0000000E+000	-14.1259	0.0000000E+000	0.0000000E+000	0.0000000E+000	14.1259	3.97355	75.8741	0.000000000000000E+000	5.72738e-06	1.86651e-10	5.72719e-06	3.78447	2.50082e+06	81.5001	2.50074e+06
0.0019912	11.8208	3.20158	12.2467	-15.1546	20329.5	3.7846	0.00151334	2.49656e+07	1.70622e+06	1	11	0.00503475	0.000411112	0	-0.0248949	0.000123337	6.50828e-07	-20.4046	0.00158309	0.00148376	0.00055194	-15.1553	12.2482	11.8223	3.20213	0.0788153	0.0213466	0.0816549	15.1546	1.70622e+09	6.29965e+09	6.52662e+09	-74.8454	0.0000000E+000	0.0000000E+000	0.0000000E+000	74.8454	0.0000000E+000	0.0000000E+000	0.0000000E+000	-74.8454	0.0000000E+000	0.0000000E+000	0.0000000E+000	-15.1546	0.0000000E+000	0.0000000E+000	0.0000000E+000	15.1546	3.69217	74.8454	0.000000000000000E+000	5.72738e-06	1.86651e-10	5.72719e-06	3.78447	2.50082e+06	81.5001	2.50074e+06
0.00129428	11.7696	3.79225	12.3655	-17.8593	20329.5	3.7846	0.00151334	3.24261e+07	3.04977e+06	1	11	0.00503513	0.000407192	0	-0.0248949	0.000123337	5.44832e-07	-22.2612	0.00133802	0.00123829	0.000506883	-17.8598	12.3668	11.7709	3.79276	0.0769733	0.0248013	0.0808702	17.8593	3.04977e+09	9.46526e+09	9.94446e+09	-72.1407	0.0000000E+000	0.0000000E+000	0.0000000E+000	72.1407	0.0000000E+000	0.0000000E+000	0.0000000E+000	-72.1407	0.0000000E+000	0.0000000E+000	0.0000000E+000	-17.8593	0.0000000E+000	0.0000000E+000	0.0000000E+000	17.8593	3.1036	72.1407	0.000000000000000E+000	5.72738e-06	1.86651e-10	5.72719e-06	3.78447	2.50082e+06	81.5001	2.50074e+06
0.000796479	12.7037	5.15624	13.7103	-22.0914	20329.5	3.7846	0.00151334	3.87537e+07	5.48133e+06	1	11	0.00503596	0.000367313	0	-0.0248949	0.000123337	5.04864e-07	10.9635	0.00137448	0.00134939	-0.000261404	-22.0883	13.7114	12.7051	5.15598	0.0675832	0.0274309	0.072938	22.0914	5.48133e+09	1.35047e+10	1.45747e+10	-67.9086	0.0000000E+000	0.0000000E+000	0.0000000E+000	67.9086	0.0000000E+000	0.0000000E+000	0.0000000E+000	-67.9086	0.0000000E+000	0.0000000E+000	0.0000000E+000	-22.0914	0.0000000E+000	0.0000000E+000	0.0000000E+000	22.0914	2.46376	67.9086	0.000000000000000E+000	5.72738e-06	1.86651e-10	5.72719e-06	3.78447	2.50082e+06	81.5001	2.50074e+06
0.000497799	12.3189	7.36464	14.3524	-30.8725	20329.5	3.7846	0.00151334	4.34124e+07	1.14306e+07	1	11	0.00503667	0.000350928	0	-0.0248949	0.000123337	6.00517e-07	-21.5783	0.00171123	0.0015913	0.000629342	-30.8714	14.3541	12.3204	7.36527	0.0598026	0.0357521	0.0696746	30.8725	1.14306e+10	1.91199e+10	2.22762e+10	-59.1275	0.0000000E+000	0.0000000E+000	0.0000000E+000	59.1275	0.0000000E+000	0.0000000E+000	0.0000000E+000	-59.1275	0.0000000E+000	0.0000000E+000	0.0000000E+000	-30.8725	0.0000000E+000	0.0000000E+000	0.0000000E+000	30.8725	1.6727	59.1275	0.000000000000000E+000	5.72738e-06	1.86651e-10	5.72719e-06	3.78447	2.50082e+06	81.5001	2.50074e+06
0.000298679	12.117	11.0666	16.4101	-42.4057	20329.5	3.7846	0.00151334	4.81505e+07	2.1898e+07	1	11	0.00503356	0.000306735	0	-0.0248949	0.000123337	8.3493e-07	-56.7422	0.00272199	0.00149276	0.00227616	-42.408	16.4128	12.1185	11.0689	0.0449959	0.0410951	0.060938	42.4057	2.1898e+10	2.39766e+10	3.24715e+10	-47.5943	0.0000000E+000	0.0000000E+000	0.0000000E+000	47.5943	0.0000000E+000	0.0000000E+000	0.0000000E+000	-47.5943	0.0000000E+000	0.0000000E+000	0.0000000E+000	-42.4057	0.0000000E+000	0.0000000E+000	0.0000000E+000	42.4057	1.09492	47.5943	0.000000000000000E+000	5.72738e-06	1.86651e-10	5.72719e-06	3.78447	2.50082e+06	81.5001	2.50074e+06
9.95598e-05	14.66	36.7242	39.5422	-68.2386	20329.5	3.7846	0.00151334	4.35295e+07	3.75463e+07	1	11	0.00503208	0.000127258	0	-0.0248949	0.000123337	1.44195e-06	-75.7011	0.0113309	0.0027985	0.0109798	-68.2407	39.5534	14.6628	36.7352	0.00937588	0.0234872	0.0252894	68.2386	3.75463e+10	1.49882e+10	4.04273e+10	-21.7614	0.0000000E+000	0.0000000E+000	0.0000000E+000	21.7614	0.0000000E+000	0.0000000E+000	0.0000000E+000	-21.7614	0.0000000E+000	0.0000000E+000	0.0000000E+000	-68.2386	0.0000000E+000	0.0000000E+000	0.0000000E+000	68.2386	0.399191	21.7614	0.000000000000000E+000	5.72738e-06	1.86651e-10	5.72719e-06	3.78447	2.50082e+06	81.5001	2.50074e+06