File: txt/17606_R291_UC84_SOC50_C03.mpt
EC-Lab ASCII FILE
Nb header lines : 64

Potentio Electrochemical Impedance Spectroscopy

Run on channel : 3 (SN 65921)
User :
CE vs. WE compliance from -10 V to 10 V
Electrode connection : standard
Potential control : Ewe
Ewe ctrl range : min = -10.00 V, max = 10.00 V
Safety Limits :
	Do not start on E overload
Acquisition started on : 09/17/2025 17:33:26.756
Loaded Setting File :  C:\Users\Celltest\OneDrive - store-dot.com\Documents\EC-Lab\Data\Michael\UC74_NCMA_16706_EIS_50_SOC.mps
Saved on :
	File : 17606_R291_UC84_SOC50_C03.mpr
	Directory : C:\Users\Celltest\OneDrive - store-dot.com\Documents\EC-Lab\Data\Gyutae\
	Host : 169.254.61.224
Device : VMP-3e (SN .003165)
Address : USB
EC-LAB for windows v11.62 (software)
Internet server v27.00 (firmware)
Command interpretor v12.03 (firmware)
Electrode material :
Initial state :
Electrolyte :
Comments :
Electrode surface area : 0.001 cm²
Characteristic mass : 0.001 g
Equivalent Weight : 0.000 g/eq.
Density : 0.000 g/cm3
Volume (V) : 0.001 cm³
Record Ece
Cycle Definition : Charge/Discharge alternance
Mode                Multi sine
E (V)               0.0000
vs.                 Eoc
tE (h:m:s)          0:00:0.0000
record              0
dI                  0.000
unit dI             mA
dt (s)              0.000
fi                  1.000
unit fi             MHz
ff                  0.100
unit ff             mHz
Nd                  10
Points              per decade
spacing             Logarithmic
Va (mV)             5.0
pw                  0.10
Na                  2
corr                0
E range min (V)     -10.000
E range max (V)     10.000
I Range             Auto
Bandwidth           5
nc cycles           0
goto Ns'            0
nr cycles           0
inc. cycle          0

freq/Hz	Re(Z)/Ohm	-Im(Z)/Ohm	|Z|/Ohm	Phase(Z)/deg	time/s	<Ewe>/V	<I>/mA	Cs/µF	Cp/µF	cycle number	I Range	|Ewe|/V	|I|/A	Ns	(Q-Qo)/mA.h	<Ece>/V	|Ece|/V	Phase(Zce)/deg	|Zce|/Ohm	Re(Zce)/Ohm	-Im(Zce)/Ohm	Phase(Zwe-ce)/deg	|Zwe-ce|/Ohm	Re(Zwe-ce)/Ohm	-Im(Zwe-ce)/Ohm	Re(Y)/Ohm-1	Im(Y)/Ohm-1	|Y|/Ohm-1	Phase(Y)/deg	Re(C)/nF	Im(C)/nF	|C|/nF	Phase(C)/deg	Re(M)	Im(M)	|M|	Phase(M)/deg	Re(Permittivity)	Im(Permittivity)	|Permittivity|	Phase(Permittivity)/deg	Re(Resistivity)/Ohm.cm	Im(Resistivity)/Ohm.cm	|Resistivity|/Ohm.cm	Phase(Resistivity)/deg	Re(Conductivity)/mS/cm	Im(Conductivity)/mS/cm	|Conductivity|/mS/cm	Phase(Conductivity)/deg	Tan(Delta)	Loss Angle(Delta)/deg	dq/mA.h	Pwe/W	Pce/W	Pwe-ce/W	<Ewe-Ece>/V	Rwe/Ohm	Rce/Ohm	Rwe-ce/Ohm		Ewe-Ece/V
1.00002e+06	2.11997	2.6844	3.42056	-51.7006	2.23352	3.78211	0.0122562	0.0592878	0.0365144	1	10	0.000232404	6.79431e-05	0	-1.09142e-05	5.92533e-05	0.000194849	-68.1327	2.86782	1.06815	2.66148	-59.1895	6.22434	3.18811	5.34588	0.18119	0.229431	0.29235	51.7006	36.5144	28.8367	46.528	-38.2994	0.0000000E+000	0.0000000E+000	0.0000000E+000	38.2994	0.0000000E+000	0.0000000E+000	0.0000000E+000	-38.2994	0.0000000E+000	0.0000000E+000	0.0000000E+000	-51.7006	0.0000000E+000	0.0000000E+000	0.0000000E+000	51.7006	0.789736	38.2994	-1.09142e-05	4.63542e-05	7.2622e-10	4.63535e-05	3.78205	308587	4.83456	308583
630957	0.774516	0.0561992	0.776552	-4.15013	3.40253	3.78176	0.0197218	4.48839	0.0235077	1	9	0.000251531	0.000323908	0	-1.0488e-05	5.92533e-05	0.000114412	-104.166	0.353226	-0.0864466	0.342484	-30.089	0.795228	0.688069	0.398683	1.28437	0.0931943	1.28774	4.15013	23.5077	323.974	324.825	-85.8499	0.0000000E+000	0.0000000E+000	0.0000000E+000	85.8499	0.0000000E+000	0.0000000E+000	0.0000000E+000	-85.8499	0.0000000E+000	0.0000000E+000	0.0000000E+000	-4.15013	0.0000000E+000	0.0000000E+000	0.0000000E+000	4.15013	13.7816	85.8499	1.94449e-06	7.45833e-05	1.16858e-09	7.45821e-05	3.7817	191755	3.00445	191752
398103	1.02984	0.106423	1.03532	-5.89996	4.17053	3.78185	0.0313201	3.75655	0.0396923	1	9	0.000982924	0.000949387	0	-5.82623e-06	-0.000227158	5.30201e-05	170.804	0.0558466	-0.0551289	-0.0089247	-5.71217	0.979576	0.974711	0.0974983	0.960764	0.0992847	0.965881	5.89996	39.6923	384.097	386.143	-84.1	0.0000000E+000	0.0000000E+000	0.0000000E+000	84.1	0.0000000E+000	0.0000000E+000	0.0000000E+000	-84.1	0.0000000E+000	0.0000000E+000	0.0000000E+000	-5.89996	0.0000000E+000	0.0000000E+000	0.0000000E+000	5.89996	9.67686	84.1	2.70147e-06	0.000118448	-7.11461e-09	0.000118455	3.78208	120748	7.25277	120755
251206	1.19982	0.264962	1.22873	-12.453	4.93852	3.78173	0.0144635	2.39115	0.111188	1	9	0.00312038	0.00253951	0	1.89834e-07	1.97113e-06	4.73102e-05	92.3062	0.0186297	-0.000749648	-0.0186146	-11.6097	1.22412	1.19907	0.246347	0.7947	0.175497	0.813847	12.453	111.188	503.492	515.623	-77.547	0.0000000E+000	0.0000000E+000	0.0000000E+000	77.547	0.0000000E+000	0.0000000E+000	0.0000000E+000	-77.547	0.0000000E+000	0.0000000E+000	0.0000000E+000	-12.453	0.0000000E+000	0.0000000E+000	0.0000000E+000	12.453	4.52829	77.547	5.53758e-07	5.46971e-05	2.85094e-11	5.46971e-05	3.78173	261467	0.136283	261467
158486	1.33949	0.330065	1.37956	-13.8426	5.70454	3.7817	0.0193863	3.04249	0.174161	1	9	0.00532401	0.00385922	0	3.80149e-06	-5.53111e-05	5.20713e-05	83.1335	0.0134927	0.00161314	-0.0133959	-13.2857	1.37798	1.3411	0.316669	0.703819	0.173429	0.724871	13.8426	174.161	706.789	727.93	-76.1574	0.0000000E+000	0.0000000E+000	0.0000000E+000	76.1574	0.0000000E+000	0.0000000E+000	0.0000000E+000	-76.1574	0.0000000E+000	0.0000000E+000	0.0000000E+000	-13.8426	0.0000000E+000	0.0000000E+000	0.0000000E+000	13.8426	4.05826	76.1574	-4.84757e-06	7.3313e-05	-1.07227e-09	7.33141e-05	3.78176	195071	2.85311	195074
100004	1.47249	0.33748	1.51067	-12.9087	6.47252	3.78169	0.0219595	4.71581	0.23535	1	9	0.00537346	0.00355701	0	1.45678e-05	-0.00018897	2.58387e-05	94.1019	0.00726416	-0.00051961	-0.00724555	-12.6448	1.50856	1.47197	0.330234	0.645229	0.14788	0.661958	12.9087	235.35	1026.88	1053.5	-77.0913	0.0000000E+000	0.0000000E+000	0.0000000E+000	77.0913	0.0000000E+000	0.0000000E+000	0.0000000E+000	-77.0913	0.0000000E+000	0.0000000E+000	0.0000000E+000	-12.9087	0.0000000E+000	0.0000000E+000	0.0000000E+000	12.9087	4.36319	77.0913	1.43864e-05	8.30441e-05	-4.14968e-09	8.30483e-05	3.78188	172212	8.60536	172220
63093.8	1.57464	0.339206	1.61076	-12.1568	7.23856	3.78169	0.0173351	7.43652	0.32979	1	9	0.00531788	0.00330148	0	2.8588e-05	-9.34992e-05	2.07824e-05	95.6503	0.00629487	-0.000619768	-0.00626428	-11.9434	1.60884	1.57402	0.332942	0.606904	0.130739	0.620826	12.1568	329.79	1530.92	1566.04	-77.8432	0.0000000E+000	0.0000000E+000	0.0000000E+000	77.8432	0.0000000E+000	0.0000000E+000	0.0000000E+000	-77.8432	0.0000000E+000	0.0000000E+000	0.0000000E+000	-12.1568	0.0000000E+000	0.0000000E+000	0.0000000E+000	12.1568	4.64212	77.8432	2.005e-06	6.55561e-05	-1.62082e-09	6.55577e-05	3.78178	218152	5.39363	218157
39814.1	1.66061	0.348595	1.6968	-11.8554	8.00456	3.78169	0.0216239	11.4673	0.483996	1	9	0.00523787	0.00308691	0	3.43192e-05	5.92533e-05	1.63509e-05	20.4185	0.00529686	0.00496406	-0.00184795	-11.7601	1.70128	1.66557	0.346747	0.576773	0.121076	0.589344	11.8554	483.996	2305.62	2355.88	-78.1446	0.0000000E+000	0.0000000E+000	0.0000000E+000	78.1446	0.0000000E+000	0.0000000E+000	0.0000000E+000	-78.1446	0.0000000E+000	0.0000000E+000	0.0000000E+000	-11.8554	0.0000000E+000	0.0000000E+000	0.0000000E+000	11.8554	4.76373	78.1446	3.56495e-06	8.17749e-05	1.28129e-09	8.17736e-05	3.78163	174885	2.74018	174882
25116.9	1.74785	0.37193	1.78699	-12.0129	8.77252	3.78169	0.0263229	17.037	0.738028	1	9	0.0051595	0.00288726	0	4.2587e-05	-3.6217e-05	1.86357e-05	-2.63229	0.00645444	0.00644763	0.000296427	-11.9793	1.79336	1.7543	0.372227	0.547346	0.116471	0.559601	12.0129	738.028	3468.3	3545.95	-77.9871	0.0000000E+000	0.0000000E+000	0.0000000E+000	77.9871	0.0000000E+000	0.0000000E+000	0.0000000E+000	-77.9871	0.0000000E+000	0.0000000E+000	0.0000000E+000	-12.0129	0.0000000E+000	0.0000000E+000	0.0000000E+000	12.0129	4.69941	77.9871	2.85465e-06	9.95451e-05	-9.53336e-10	9.9546e-05	3.78173	143666	1.37588	143667
15847.7	1.84366	0.419035	1.89068	-12.8049	9.53853	3.78169	0.0222206	23.9665	1.17725	1	9	0.00514608	0.00272181	0	5.11643e-05	-0.000131687	7.36596e-05	101.015	0.0270627	-0.00517095	-0.0265641	-12.0503	1.87992	1.83849	0.392471	0.515756	0.117223	0.52891	12.8049	1177.25	5179.63	5311.73	-77.1951	0.0000000E+000	0.0000000E+000	0.0000000E+000	77.1951	0.0000000E+000	0.0000000E+000	0.0000000E+000	-77.1951	0.0000000E+000	0.0000000E+000	0.0000000E+000	-12.8049	0.0000000E+000	0.0000000E+000	0.0000000E+000	12.8049	4.39978	77.1951	2.85466e-06	8.40314e-05	-2.92617e-09	8.40343e-05	3.78183	170189	5.92637	170195
10002.2	1.95571	0.466102	2.01048	-13.4052	10.1825	3.7817	0.0259126	34.1383	1.83486	1	9	0.00541435	0.00269306	0	5.58915e-05	-0.00018897	4.96729e-06	-29.4789	0.00184448	0.00160569	0.000907675	-13.4197	2.01226	1.95731	0.46701	0.483841	0.115313	0.497393	13.4052	1834.86	7698.86	7914.49	-76.5948	0.0000000E+000	0.0000000E+000	0.0000000E+000	76.5948	0.0000000E+000	0.0000000E+000	0.0000000E+000	-76.5948	0.0000000E+000	0.0000000E+000	0.0000000E+000	-13.4052	0.0000000E+000	0.0000000E+000	0.0000000E+000	13.4052	4.19588	76.5948	3.64769e-06	9.79938e-05	-4.8967e-09	9.79987e-05	3.78189	145940	7.29256	145948
6309.38	2.06943	0.556142	2.14286	-15.0423	10.8245	3.78169	0.0273671	45.3573	3.05514	1	9	0.00525453	0.00245211	0	5.94175e-05	7.83474e-05	5.67703e-06	52.6104	0.00231516	0.00140584	-0.00183945	-14.9851	2.14374	2.07084	0.554302	0.450675	0.121115	0.466666	15.0423	3055.14	11368.3	11771.7	-74.9577	0.0000000E+000	0.0000000E+000	0.0000000E+000	74.9577	0.0000000E+000	0.0000000E+000	0.0000000E+000	-74.9577	0.0000000E+000	0.0000000E+000	0.0000000E+000	-15.0423	0.0000000E+000	0.0000000E+000	0.0000000E+000	15.0423	3.72105	74.9577	4.27208e-06	0.000103494	2.14414e-09	0.000103492	3.78161	138184	2.86283	138181
3983.6	2.22154	0.646001	2.31356	-16.2139	11.389	3.7816	0.00271602	61.8459	4.82188	1	9	0.0052929	0.00228777	0	6.05392e-05	4.01593e-05	6.27265e-06	-110.323	0.00274181	-0.000952265	0.00257113	-16.2816	2.31336	2.22059	0.648572	0.415043	0.12069	0.432235	16.2139	4821.88	16582	17268.9	-73.7861	0.0000000E+000	0.0000000E+000	0.0000000E+000	73.7861	0.0000000E+000	0.0000000E+000	0.0000000E+000	-73.7861	0.0000000E+000	0.0000000E+000	0.0000000E+000	-16.2139	0.0000000E+000	0.0000000E+000	0.0000000E+000	16.2139	3.43891	73.7861	1.64381e-06	1.02709e-05	1.09073e-10	1.02708e-05	3.78156	1.39233e+06	14.7861	1.39232e+06
2510.8	2.4041	0.779034	2.52717	-17.9546	12.2138	3.78165	0.0210644	81.3676	7.73205	1	9	0.00525774	0.00208048	0	6.2616e-05	-0.000208064	2.56263e-06	-73.5618	0.00123175	0.00034856	0.0011814	-17.9776	2.52787	2.40445	0.780215	0.376429	0.12198	0.395699	17.9546	7732.05	23861.1	25082.6	-72.0454	0.0000000E+000	0.0000000E+000	0.0000000E+000	72.0454	0.0000000E+000	0.0000000E+000	0.0000000E+000	-72.0454	0.0000000E+000	0.0000000E+000	0.0000000E+000	-17.9546	0.0000000E+000	0.0000000E+000	0.0000000E+000	17.9546	3.086	72.0454	2.78481e-06	7.96585e-05	-4.38274e-09	7.96628e-05	3.78186	179528	9.87748	179538
1585.51	2.63452	0.951779	2.80117	-19.8634	13.1158	3.78165	0.0257634	105.467	12.1761	1	9	0.00520702	0.00185887	0	6.70109e-05	-0.000150781	6.5505e-06	0.0504546	0.00352391	0.00352391	-3.10316e-06	-19.8389	2.80449	2.63804	0.951776	0.335754	0.121299	0.356993	19.8634	12176.1	33703.4	35835.4	-70.1366	0.0000000E+000	0.0000000E+000	0.0000000E+000	70.1366	0.0000000E+000	0.0000000E+000	0.0000000E+000	-70.1366	0.0000000E+000	0.0000000E+000	0.0000000E+000	-19.8634	0.0000000E+000	0.0000000E+000	0.0000000E+000	19.8634	2.768	70.1366	3.81282e-06	9.74283e-05	-3.88465e-09	9.74322e-05	3.7818	146784	5.85254	146790
1000.32	2.9371	1.13983	3.15052	-21.2102	14.0178	3.78164	0.0193862	139.586	18.2707	1	9	0.00516732	0.00164015	0	7.37374e-05	0.00032657	6.98165e-06	105.521	0.00425671	-0.00113909	-0.00410147	-21.1481	3.14798	2.93596	1.13572	0.295907	0.114835	0.317408	21.2102	18270.7	47079.9	50500.9	-68.7898	0.0000000E+000	0.0000000E+000	0.0000000E+000	68.7898	0.0000000E+000	0.0000000E+000	0.0000000E+000	-68.7898	0.0000000E+000	0.0000000E+000	0.0000000E+000	-21.2102	0.0000000E+000	0.0000000E+000	0.0000000E+000	21.2102	2.5768	68.7898	2.85381e-06	7.33118e-05	6.33096e-09	7.33054e-05	3.78132	195069	16.8455	195052
631.01	3.30836	1.32763	3.56481	-21.8654	15.1645	3.78166	-0.0312673	189.98	26.3505	1	10	0.00519419	0.00145707	0	6.70781e-05	5.92533e-05	4.73791e-06	113.57	0.00325166	-0.00130023	-0.00298039	-21.8287	3.56249	3.30706	1.32465	0.26034	0.104473	0.28052	21.8654	26350.5	65663.6	70753.6	-68.1346	0.0000000E+000	0.0000000E+000	0.0000000E+000	68.1346	0.0000000E+000	0.0000000E+000	0.0000000E+000	-68.1346	0.0000000E+000	0.0000000E+000	0.0000000E+000	-21.8654	0.0000000E+000	0.0000000E+000	0.0000000E+000	21.8654	2.49193	68.1346	-3.88504e-06	-0.000118242	-1.85269e-09	-0.00011824	3.7816	120946	1.89506	120944
398.089	3.8047	1.48192	4.08311	-21.2807	16.0658	3.78168	-0.0266435	269.784	35.537	1	10	0.00515197	0.00126178	0	6.06549e-05	-0.000131687	9.80113e-06	16.3938	0.00776773	0.00745193	-0.00219235	-21.2142	4.08926	3.81215	1.47972	0.228212	0.0888876	0.244911	21.2807	35537	91238.4	97914.9	-68.7193	0.0000000E+000	0.0000000E+000	0.0000000E+000	68.7193	0.0000000E+000	0.0000000E+000	0.0000000E+000	-68.7193	0.0000000E+000	0.0000000E+000	0.0000000E+000	-21.2807	0.0000000E+000	0.0000000E+000	0.0000000E+000	21.2807	2.56742	68.7193	-3.77134e-06	-0.000100757	3.50861e-09	-0.000100761	3.78181	141936	4.94257	141941
251.044	4.36547	1.52866	4.62537	-19.2987	16.9641	3.78166	-0.0290971	414.725	45.2987	1	10	0.00512254	0.00110749	0	5.28774e-05	-0.000131687	6.63674e-06	25.2962	0.00599261	0.00541798	-0.00256063	-19.2467	4.62964	4.37088	1.5261	0.20405	0.0714523	0.216199	19.2987	45298.7	129362	137064	-70.7013	0.0000000E+000	0.0000000E+000	0.0000000E+000	70.7013	0.0000000E+000	0.0000000E+000	0.0000000E+000	-70.7013	0.0000000E+000	0.0000000E+000	0.0000000E+000	-19.2987	0.0000000E+000	0.0000000E+000	0.0000000E+000	19.2987	2.85575	70.7013	-4.38252e-06	-0.000110035	3.83172e-09	-0.000110039	3.7818	129967	4.52579	129972
158.428	4.92579	1.43846	5.13152	-16.2792	17.8689	3.78168	-0.0277845	698.377	54.8772	1	10	0.00510832	0.000995479	0	4.40854e-05	-0.000112593	4.11505e-06	1.2676	0.00413374	0.00413273	-9.14466e-05	-16.2653	5.13547	4.92992	1.43837	0.187061	0.0546266	0.194874	16.2792	54877.1	187919	195768	-73.7208	0.0000000E+000	0.0000000E+000	0.0000000E+000	73.7208	0.0000000E+000	0.0000000E+000	0.0000000E+000	-73.7208	0.0000000E+000	0.0000000E+000	0.0000000E+000	-16.2792	0.0000000E+000	0.0000000E+000	0.0000000E+000	16.2792	3.42435	73.7208	-4.11167e-06	-0.000105072	3.12835e-09	-0.000105075	3.78179	136107	4.05237	136111
100.032	5.40912	1.22101	5.54522	-12.7203	18.7688	3.78167	-0.0293469	1303.05	63.1776	1	10	0.00510919	0.000921369	0	3.76745e-05	0.000173818	6.89908e-06	-88.3627	0.00748786	0.000213947	0.00748481	-12.7952	5.54708	5.40933	1.22849	0.17591	0.0397084	0.180336	12.7203	63177.6	279879	286921	-77.2797	0.0000000E+000	0.0000000E+000	0.0000000E+000	77.2797	0.0000000E+000	0.0000000E+000	0.0000000E+000	-77.2797	0.0000000E+000	0.0000000E+000	0.0000000E+000	-12.7203	0.0000000E+000	0.0000000E+000	0.0000000E+000	12.7203	4.43004	77.2797	-2.76964e-06	-0.00011098	-5.10101e-09	-0.000110975	3.7815	128861	5.92286	128855
63.0823	5.74903	0.975211	5.83116	-9.62746	19.6839	3.78167	-0.0264086	2587.11	72.3605	1	10	0.00510453	0.000875388	0	3.00846e-05	-5.53111e-05	7.50201e-06	-88.6536	0.00856993	0.000201373	0.00856756	-9.7101	5.8328	5.74923	0.983778	0.169077	0.0286806	0.171492	9.62746	72360.4	426577	432671	-80.3725	0.0000000E+000	0.0000000E+000	0.0000000E+000	80.3725	0.0000000E+000	0.0000000E+000	0.0000000E+000	-80.3725	0.0000000E+000	0.0000000E+000	0.0000000E+000	-9.62746	0.0000000E+000	0.0000000E+000	0.0000000E+000	9.62746	5.89517	80.3725	-2.99796e-06	-9.98686e-05	1.46069e-09	-9.987e-05	3.78173	143199	2.09444	143201
39.8089	5.96984	0.740482	6.01558	-7.0707	20.5848	3.78165	-0.0279598	5399.15	81.8085	1	10	0.0051	0.000847799	0	2.20437e-05	-0.00037991	7.12565e-06	102.847	0.00840488	-0.00186876	-0.00819449	-6.9954	6.01273	5.96797	0.732288	0.164971	0.0204625	0.166235	7.0707	81808.5	659548	664602	-82.9293	0.0000000E+000	0.0000000E+000	0.0000000E+000	82.9293	0.0000000E+000	0.0000000E+000	0.0000000E+000	-82.9293	0.0000000E+000	0.0000000E+000	0.0000000E+000	-7.0707	0.0000000E+000	0.0000000E+000	0.0000000E+000	7.0707	8.06209	82.9293	-4.1662e-06	-0.000105734	1.06222e-08	-0.000105745	3.78203	135253	13.5877	135267
25.1044	6.11721	0.54441	6.14139	-5.08572	21.464	3.78164	-0.0318975	11645.1	91.5088	1	10	0.00510702	0.000831573	0	1.41725e-05	7.83474e-05	1.08033e-05	76.4894	0.0129914	0.00303512	-0.0126319	-4.96587	6.14331	6.12025	0.531778	0.162189	0.0144342	0.16283	5.08572	91508.8	1.02823e+06	1.03229e+06	-84.9143	0.0000000E+000	0.0000000E+000	0.0000000E+000	84.9143	0.0000000E+000	0.0000000E+000	0.0000000E+000	-84.9143	0.0000000E+000	0.0000000E+000	0.0000000E+000	-5.08572	0.0000000E+000	0.0000000E+000	0.0000000E+000	5.08572	11.2364	84.9143	-2.67407e-06	-0.000120625	-2.49908e-09	-0.000120622	3.78156	118556	2.45622	118554
15.8576	6.18588	0.428149	6.20068	-3.95935	22.342	3.78163	-0.0340602	23441.6	111.763	1	10	0.00508354	0.000819836	0	2.42994e-06	-5.53111e-05	5.84988e-05	-6.14466	0.0713543	0.0709444	0.00763771	-3.98421	6.27198	6.25683	0.435787	0.160888	0.0111357	0.161273	3.95935	111763	1.61475e+06	1.61862e+06	-86.0406	0.0000000E+000	0.0000000E+000	0.0000000E+000	86.0406	0.0000000E+000	0.0000000E+000	0.0000000E+000	-86.0406	0.0000000E+000	0.0000000E+000	0.0000000E+000	-3.95935	0.0000000E+000	0.0000000E+000	0.0000000E+000	3.95935	14.448	86.0406	-7.41923e-06	-0.000128803	1.88391e-09	-0.000128805	3.78168	111028	1.62392	111029
10.0032	6.252	0.323791	6.26038	-2.9647	23.3238	3.78164	-0.0285788	49137.8	131.445	1	10	0.00509783	0.0008143	0	9.33423e-08	-0.000169875	7.73304e-06	48.9512	0.00949655	0.00623639	-0.00716183	-2.89636	6.26624	6.25824	0.31663	0.159521	0.00826159	0.159735	2.9647	131445	2.53804e+06	2.54144e+06	-87.0353	0.0000000E+000	0.0000000E+000	0.0000000E+000	87.0353	0.0000000E+000	0.0000000E+000	0.0000000E+000	-87.0353	0.0000000E+000	0.0000000E+000	0.0000000E+000	-2.9647	0.0000000E+000	0.0000000E+000	0.0000000E+000	2.9647	19.3087	87.0353	2.55786e-06	-0.000108075	4.85483e-09	-0.00010808	3.78181	132323	5.94411	132329
6.31058	6.31345	0.289467	6.32008	-2.62513	24.2483	3.78164	-0.0354026	87126.8	182.77	1	10	0.00509685	0.000806452	0	-1.18157e-05	0.000173818	5.5252e-06	112.833	0.00685124	-0.00265865	-0.00631436	-2.56902	6.31714	6.31079	0.283153	0.15806	0.00724691	0.158226	2.62513	182770	3.98632e+06	3.9905e+06	-87.3749	0.0000000E+000	0.0000000E+000	0.0000000E+000	87.3749	0.0000000E+000	0.0000000E+000	0.0000000E+000	-87.3749	0.0000000E+000	0.0000000E+000	0.0000000E+000	-2.62513	0.0000000E+000	0.0000000E+000	0.0000000E+000	2.62513	21.8106	87.3749	-1.55462e-06	-0.00013388	-6.1536e-09	-0.000133874	3.78147	106818	4.90974	106813
3.97785	6.3609	0.273891	6.36679	-2.46555	25.2553	3.78167	-0.0231216	146081	270.338	1	10	0.00509739	0.000800621	0	-1.60405e-05	-0.000169875	4.30195e-06	65.7178	0.00537327	0.00220966	-0.0048979	-2.42067	6.36879	6.36311	0.268993	0.15692	0.00675672	0.157065	2.46555	270338	6.27839e+06	6.28421e+06	-87.5345	0.0000000E+000	0.0000000E+000	0.0000000E+000	87.5345	0.0000000E+000	0.0000000E+000	0.0000000E+000	-87.5345	0.0000000E+000	0.0000000E+000	0.0000000E+000	-2.46555	0.0000000E+000	0.0000000E+000	0.0000000E+000	2.46555	23.2242	87.5345	-8.36769e-06	-8.74381e-05	3.92779e-09	-8.74421e-05	3.78184	163556	7.34706	163563
2.51367	6.41045	0.271944	6.41621	-2.42915	27.258	3.78169	-0.020887	232826	418.247	1	11	0.00509879	0.000794673	0	-3.64711e-05	-0.000246252	6.30123e-06	6.90211	0.00792933	0.00787187	-0.000952895	-2.41768	6.42404	6.41832	0.270991	0.155715	0.00660575	0.155855	2.42915	418247	9.8592e+06	9.86807e+06	-87.5709	0.0000000E+000	0.0000000E+000	0.0000000E+000	87.5709	0.0000000E+000	0.0000000E+000	0.0000000E+000	-87.5709	0.0000000E+000	0.0000000E+000	0.0000000E+000	-2.42915	0.0000000E+000	0.0000000E+000	0.0000000E+000	2.42915	23.5727	87.5709	-5.27747e-06	-7.89883e-05	5.14346e-09	-7.89934e-05	3.78194	181055	11.7897	181067
1.58469	6.47633	0.300583	6.4833	-2.65734	29.6935	3.7817	-0.0200751	334128	718.206	1	11	0.0051031	0.000787115	0	-2.8658e-05	7.83474e-05	2.67407e-06	-7.70426	0.00339731	0.00336664	0.000455443	-2.65998	6.48668	6.47969	0.301038	0.154077	0.00715109	0.154242	2.65734	718205	1.54744e+07	1.54911e+07	-87.3427	0.0000000E+000	0.0000000E+000	0.0000000E+000	87.3427	0.0000000E+000	0.0000000E+000	0.0000000E+000	-87.3427	0.0000000E+000	0.0000000E+000	0.0000000E+000	-2.65734	0.0000000E+000	0.0000000E+000	0.0000000E+000	2.65734	21.5459	87.3427	-4.96423e-07	-7.5918e-05	-1.57283e-09	-7.59164e-05	3.78162	188377	3.90271	188373
1.00469	6.55603	0.328795	6.56427	-2.87106	240.511	3.78168	-0.0130729	481794	1208.75	1	11	0.00503837	0.000767544	0	-0.00363816	-7.44051e-05	8.02312e-07	8.99455	0.0010453	0.00103244	-0.000163422	-2.86919	6.5653	6.55707	0.328631	0.152149	0.00763048	0.15234	2.87106	1.20875e+06	2.41021e+07	2.41324e+07	-87.1289	0.0000000E+000	0.0000000E+000	0.0000000E+000	87.1289	0.0000000E+000	0.0000000E+000	0.0000000E+000	-87.1289	0.0000000E+000	0.0000000E+000	0.0000000E+000	-2.87106	0.0000000E+000	0.0000000E+000	0.0000000E+000	2.87106	19.9396	87.1289	-0.00359013	-4.94375e-05	9.7269e-10	-4.94384e-05	3.78175	289276	5.69156	289282
0.632957	6.64074	0.394299	6.65243	-3.398	240.512	3.78168	-0.0130729	637705	2240.33	1	11	0.00505343	0.000759637	0	-0.00363816	-7.44051e-05	7.40747e-07	-7.6433	0.000975134	0.00096647	0.000129698	-3.39862	6.6534	6.6417	0.394429	0.150057	0.00890974	0.150321	3.398	2.24032e+06	3.77313e+07	3.77977e+07	-86.602	0.0000000E+000	0.0000000E+000	0.0000000E+000	86.602	0.0000000E+000	0.0000000E+000	0.0000000E+000	-86.602	0.0000000E+000	0.0000000E+000	0.0000000E+000	-3.398	0.0000000E+000	0.0000000E+000	0.0000000E+000	3.398	16.8419	86.602	0.000000000000000E+000	-4.94375e-05	9.7269e-10	-4.94384e-05	3.78175	289276	5.69156	289282
0.401878	6.7008	0.489893	6.71869	-4.18143	240.514	3.78168	-0.0130729	808399	4297.92	1	11	0.00506528	0.000753909	0	-0.00363816	-7.44051e-05	5.22846e-07	-3.09342	0.000693513	0.000692503	3.74248e-05	-4.18132	6.71938	6.70149	0.48993	0.148442	0.0108526	0.148839	4.18143	4.29792e+06	5.87874e+07	5.89443e+07	-85.8186	0.0000000E+000	0.0000000E+000	0.0000000E+000	85.8186	0.0000000E+000	0.0000000E+000	0.0000000E+000	-85.8186	0.0000000E+000	0.0000000E+000	0.0000000E+000	-4.18143	0.0000000E+000	0.0000000E+000	0.0000000E+000	4.18143	13.6781	85.8186	0.000000000000000E+000	-4.94375e-05	9.7269e-10	-4.94384e-05	3.78175	289276	5.69156	289282
0.251173	6.82707	0.64309	6.85729	-5.38122	240.516	3.78168	-0.0130729	985314	8665.9	1	11	0.00506669	0.000738877	0	-0.00363816	-7.44051e-05	8.50578e-07	-12.6123	0.00115118	0.0011234	0.000251362	-5.38243	6.85843	6.82819	0.643341	0.145188	0.0136762	0.14583	5.38122	8.66589e+06	9.19975e+07	9.24047e+07	-84.6188	0.0000000E+000	0.0000000E+000	0.0000000E+000	84.6188	0.0000000E+000	0.0000000E+000	0.0000000E+000	-84.6188	0.0000000E+000	0.0000000E+000	0.0000000E+000	-5.38122	0.0000000E+000	0.0000000E+000	0.0000000E+000	5.38122	10.616	84.6188	0.000000000000000E+000	-4.94375e-05	9.7269e-10	-4.94384e-05	3.78175	289276	5.69156	289282
0.160751	6.97415	0.721749	7.01139	-5.90847	240.518	3.78168	-0.0130729	1.37177e+06	14536	1	11	0.00505986	0.000721662	0	-0.00363816	-7.44051e-05	7.33418e-07	-12.1104	0.00101629	0.000993673	0.000213214	-5.90936	7.0124	6.97514	0.721963	0.141867	0.0146817	0.142625	5.90847	1.4536e+07	1.40459e+08	1.41209e+08	-84.0915	0.0000000E+000	0.0000000E+000	0.0000000E+000	84.0915	0.0000000E+000	0.0000000E+000	0.0000000E+000	-84.0915	0.0000000E+000	0.0000000E+000	0.0000000E+000	-5.90847	0.0000000E+000	0.0000000E+000	0.0000000E+000	5.90847	9.66284	84.0915	0.000000000000000E+000	-4.94375e-05	9.7269e-10	-4.94384e-05	3.78175	289276	5.69156	289282
0.100469	7.0959	1.05814	7.17436	-8.48148	240.52	3.78168	-0.0130729	1.49707e+06	32566	1	11	0.00506244	0.000705629	0	-0.00363816	-7.44051e-05	8.8512e-07	-21.7307	0.00125437	0.00116523	0.000464424	-8.48378	7.17559	7.09707	1.05861	0.137861	0.0205579	0.139385	8.48148	3.2566e+07	2.18387e+08	2.20802e+08	-81.5185	0.0000000E+000	0.0000000E+000	0.0000000E+000	81.5185	0.0000000E+000	0.0000000E+000	0.0000000E+000	-81.5185	0.0000000E+000	0.0000000E+000	0.0000000E+000	-8.48148	0.0000000E+000	0.0000000E+000	0.0000000E+000	8.48148	6.70598	81.5185	0.000000000000000E+000	-4.94375e-05	9.7269e-10	-4.94384e-05	3.78175	289276	5.69156	289282
0.0602816	7.39382	1.34097	7.51444	-10.2797	240.522	3.78168	-0.0130729	1.96886e+06	62699.3	1	11	0.00505893	0.000673229	0	-0.00363816	-7.44051e-05	5.51674e-07	10.6872	0.000819445	0.000805231	-0.000151964	-10.2774	7.5152	7.39463	1.34082	0.130941	0.023748	0.133077	10.2797	6.26993e+07	3.45709e+08	3.51349e+08	-79.7203	0.0000000E+000	0.0000000E+000	0.0000000E+000	79.7203	0.0000000E+000	0.0000000E+000	0.0000000E+000	-79.7203	0.0000000E+000	0.0000000E+000	0.0000000E+000	-10.2797	0.0000000E+000	0.0000000E+000	0.0000000E+000	10.2797	5.51377	79.7203	0.000000000000000E+000	-4.94375e-05	9.7269e-10	-4.94384e-05	3.78175	289276	5.69156	289282
0.0401878	7.79138	1.64748	7.96366	-11.9393	240.524	3.78168	-0.0130729	2.40385e+06	102878	1	11	0.00505834	0.000635178	0	-0.00363816	-7.44051e-05	1.00146e-06	-39.6687	0.00157666	0.00121363	0.00100646	-11.9445	7.96505	7.7926	1.64848	0.122854	0.0259773	0.12557	11.9393	1.02878e+08	4.86537e+08	4.97295e+08	-78.0607	0.0000000E+000	0.0000000E+000	0.0000000E+000	78.0607	0.0000000E+000	0.0000000E+000	0.0000000E+000	-78.0607	0.0000000E+000	0.0000000E+000	0.0000000E+000	-11.9393	0.0000000E+000	0.0000000E+000	0.0000000E+000	11.9393	4.72928	78.0607	0.000000000000000E+000	-4.94375e-05	9.7269e-10	-4.94384e-05	3.78175	289276	5.69156	289282
0.0200939	8.77159	2.64326	9.1612	-16.7699	240.525	3.78168	-0.0130729	2.99651e+06	249455	1	11	0.00506052	0.000552386	0	-0.00363816	-7.44051e-05	9.33497e-07	110.585	0.00168994	-0.00059417	-0.00158204	-16.7615	9.16018	8.771	2.64168	0.104514	0.0314946	0.109156	16.7699	2.49455e+08	8.27808e+08	8.64577e+08	-73.2301	0.0000000E+000	0.0000000E+000	0.0000000E+000	73.2301	0.0000000E+000	0.0000000E+000	0.0000000E+000	-73.2301	0.0000000E+000	0.0000000E+000	0.0000000E+000	-16.7699	0.0000000E+000	0.0000000E+000	0.0000000E+000	16.7699	3.31847	73.2301	0.000000000000000E+000	-4.94375e-05	9.7269e-10	-4.94384e-05	3.78175	289276	5.69156	289282
0.00796479	11.3955	3.40072	11.8921	-16.6166	20329.3	3.78173	0.00102116	5.8759e+06	480508	1	11	0.00505283	0.00042489	0	-0.0107058	0.00013563	4.1591e-07	-165.559	0.000978865	-0.000947939	0.000244107	-16.619	11.8913	11.3945	3.40097	0.0805779	0.0240467	0.0840895	16.6166	4.80508e+08	1.61013e+09	1.6803e+09	-73.3835	0.0000000E+000	0.0000000E+000	0.0000000E+000	73.3835	0.0000000E+000	0.0000000E+000	0.0000000E+000	-73.3835	0.0000000E+000	0.0000000E+000	0.0000000E+000	-16.6166	0.0000000E+000	0.0000000E+000	0.0000000E+000	16.6166	3.3509	73.3835	-0.00706763	3.86176e-06	1.385e-10	3.86162e-06	3.7816	3.70336e+06	132.819	3.70323e+06
0.00497799	12.832	3.24689	13.2364	-14.1996	20329.4	3.78173	0.00102116	9.84686e+06	592508	1	11	0.00506107	0.00038236	0	-0.0107058	0.00013563	4.8052e-07	-110.171	0.00125672	-0.000433352	0.00117964	-14.205	13.2363	12.8316	3.24807	0.073241	0.0185322	0.0755492	14.1996	5.92508e+08	2.34164e+09	2.41544e+09	-75.8004	0.0000000E+000	0.0000000E+000	0.0000000E+000	75.8004	0.0000000E+000	0.0000000E+000	0.0000000E+000	-75.8004	0.0000000E+000	0.0000000E+000	0.0000000E+000	-14.1996	0.0000000E+000	0.0000000E+000	0.0000000E+000	14.1996	3.95208	75.8004	0.000000000000000E+000	3.86176e-06	1.385e-10	3.86162e-06	3.7816	3.70336e+06	132.819	3.70323e+06
0.00318591	13.6434	4.31219	14.3087	-17.5398	20329.4	3.78173	0.00102116	1.15848e+07	1.05217e+06	1	11	0.00506252	0.000353808	0	-0.0107058	0.00013563	5.7582e-07	-111.608	0.00162749	-0.000599331	0.00151312	-17.5463	14.3085	13.6428	4.3137	0.0666385	0.021062	0.0698877	17.5398	1.05217e+09	3.32898e+09	3.4913e+09	-72.4602	0.0000000E+000	0.0000000E+000	0.0000000E+000	72.4602	0.0000000E+000	0.0000000E+000	0.0000000E+000	-72.4602	0.0000000E+000	0.0000000E+000	0.0000000E+000	-17.5398	0.0000000E+000	0.0000000E+000	0.0000000E+000	17.5398	3.16392	72.4602	0.000000000000000E+000	3.86176e-06	1.385e-10	3.86162e-06	3.7816	3.70336e+06	132.819	3.70323e+06
0.0019912	14.4449	4.49258	15.1274	-17.2765	20329.4	3.78173	0.00102116	1.77914e+07	1.56918e+06	1	11	0.00506514	0.000334832	0	-0.0107058	0.00013563	6.86363e-07	-40.143	0.00204987	0.001567	0.00132155	-17.2795	15.1293	14.4464	4.4939	0.0631228	0.0196322	0.0661053	17.2765	1.56918e+09	5.04536e+09	5.28375e+09	-72.7235	0.0000000E+000	0.0000000E+000	0.0000000E+000	72.7235	0.0000000E+000	0.0000000E+000	0.0000000E+000	-72.7235	0.0000000E+000	0.0000000E+000	0.0000000E+000	-17.2765	0.0000000E+000	0.0000000E+000	0.0000000E+000	17.2765	3.21528	72.7235	0.000000000000000E+000	3.86176e-06	1.385e-10	3.86162e-06	3.7816	3.70336e+06	132.819	3.70323e+06
0.00129428	14.6227	5.00311	15.4549	-18.8882	20329.4	3.78173	0.00102116	2.45784e+07	2.57571e+06	1	11	0.00506792	0.000327916	0	-0.0107058	0.00013563	4.47894e-07	49.621	0.00136588	0.000884873	-0.0010405	-18.8835	15.4554	14.6236	5.00207	0.06122	0.0209462	0.0647042	18.8882	2.57571e+09	7.52812e+09	7.95656e+09	-71.1118	0.0000000E+000	0.0000000E+000	0.0000000E+000	71.1118	0.0000000E+000	0.0000000E+000	0.0000000E+000	-71.1118	0.0000000E+000	0.0000000E+000	0.0000000E+000	-18.8882	0.0000000E+000	0.0000000E+000	0.0000000E+000	18.8882	2.92273	71.1118	0.000000000000000E+000	3.86176e-06	1.385e-10	3.86162e-06	3.7816	3.70336e+06	132.819	3.70323e+06
0.000796479	16.3469	5.90887	17.3821	-19.8732	20329.4	3.78173	0.00102116	3.38175e+07	3.90793e+06	1	11	0.00506454	0.000291365	0	-0.0107058	0.00013563	1.1986e-06	-72.0461	0.00411375	0.00126807	0.00391343	-19.8839	17.3846	16.3482	5.91278	0.0541044	0.0195569	0.0575305	19.8732	3.90793e+09	1.08113e+10	1.14959e+10	-70.1268	0.0000000E+000	0.0000000E+000	0.0000000E+000	70.1268	0.0000000E+000	0.0000000E+000	0.0000000E+000	-70.1268	0.0000000E+000	0.0000000E+000	0.0000000E+000	-19.8732	0.0000000E+000	0.0000000E+000	0.0000000E+000	19.8732	2.76651	70.1268	0.000000000000000E+000	3.86176e-06	1.385e-10	3.86162e-06	3.7816	3.70336e+06	132.819	3.70323e+06
0.000497799	15.9436	7.86618	17.7785	-26.2606	20329.4	3.78173	0.00102116	4.06445e+07	7.95683e+06	1	11	0.00506573	0.000284936	0	-0.0107058	0.00013563	9.08793e-07	100.241	0.00318946	-0.000567031	-0.00313866	-26.2524	17.7766	15.943	7.86304	0.0504424	0.0248871	0.0562477	26.2606	7.95683e+09	1.61273e+10	1.79834e+10	-63.7394	0.0000000E+000	0.0000000E+000	0.0000000E+000	63.7394	0.0000000E+000	0.0000000E+000	0.0000000E+000	-63.7394	0.0000000E+000	0.0000000E+000	0.0000000E+000	-26.2606	0.0000000E+000	0.0000000E+000	0.0000000E+000	26.2606	2.02685	63.7394	0.000000000000000E+000	3.86176e-06	1.385e-10	3.86162e-06	3.7816	3.70336e+06	132.819	3.70323e+06
0.000298679	16.1269	11.4029	19.751	-35.2633	20329.4	3.78173	0.00102116	4.67302e+07	1.55759e+07	1	11	0.00507037	0.000256714	0	-0.0107058	0.00013563	2.76859e-06	118.898	0.0107847	-0.00521181	-0.00944178	-35.2497	19.7413	16.1216	11.3935	0.04134	0.0292306	0.0506303	35.2633	1.55759e+10	2.20285e+10	2.6979e+10	-54.7367	0.0000000E+000	0.0000000E+000	0.0000000E+000	54.7367	0.0000000E+000	0.0000000E+000	0.0000000E+000	-54.7367	0.0000000E+000	0.0000000E+000	0.0000000E+000	-35.2633	0.0000000E+000	0.0000000E+000	0.0000000E+000	35.2633	1.41427	54.7367	0.000000000000000E+000	3.86176e-06	1.385e-10	3.86162e-06	3.7816	3.70336e+06	132.819	3.70323e+06
9.95598e-05	19.2929	35.7153	40.5931	-61.6228	20329.4	3.78173	0.00102116	4.47591e+07	3.46486e+07	1	11	0.00505141	0.00012444	0	-0.0107058	0.00013563	7.93163e-06	-88.2801	0.0637385	0.00191304	0.0637098	-61.6631	40.6501	19.2948	35.779	0.0117083	0.0216746	0.0246347	61.6228	3.46486e+10	1.87167e+10	3.93807e+10	-28.3772	0.0000000E+000	0.0000000E+000	0.0000000E+000	28.3772	0.0000000E+000	0.0000000E+000	0.0000000E+000	-28.3772	0.0000000E+000	0.0000000E+000	0.0000000E+000	-61.6228	0.0000000E+000	0.0000000E+000	0.0000000E+000	61.6228	0.540185	28.3772	0.000000000000000E+000	3.86176e-06	1.385e-10	3.86162e-06	3.7816	3.70336e+06	132.819	3.70323e+06