File: txt/17605_R291_UC84_SOC50_C02.mpt
EC-Lab ASCII FILE
Nb header lines : 64

Potentio Electrochemical Impedance Spectroscopy

Run on channel : 2 (SN 66139)
User :
CE vs. WE compliance from -10 V to 10 V
Electrode connection : standard
Potential control : Ewe
Ewe ctrl range : min = -10.00 V, max = 10.00 V
Safety Limits :
	Do not start on E overload
Acquisition started on : 09/17/2025 17:33:06.243
Loaded Setting File :  C:\Users\Celltest\OneDrive - store-dot.com\Documents\EC-Lab\Data\Michael\UC74_NCMA_16706_EIS_50_SOC.mps
Saved on :
	File : 17605_R291_UC84_SOC50_C02.mpr
	Directory : C:\Users\Celltest\OneDrive - store-dot.com\Documents\EC-Lab\Data\Gyutae\
	Host : 169.254.61.224
Device : VMP-3e (SN .003165)
Address : USB
EC-LAB for windows v11.62 (software)
Internet server v27.00 (firmware)
Command interpretor v12.03 (firmware)
Electrode material :
Initial state :
Electrolyte :
Comments :
Electrode surface area : 0.001 cm²
Characteristic mass : 0.001 g
Equivalent Weight : 0.000 g/eq.
Density : 0.000 g/cm3
Volume (V) : 0.001 cm³
Record Ece
Cycle Definition : Charge/Discharge alternance
Mode                Multi sine
E (V)               0.0000
vs.                 Eoc
tE (h:m:s)          0:00:0.0000
record              0
dI                  0.000
unit dI             mA
dt (s)              0.000
fi                  1.000
unit fi             MHz
ff                  0.100
unit ff             mHz
Nd                  10
Points              per decade
spacing             Logarithmic
Va (mV)             5.0
pw                  0.10
Na                  2
corr                0
E range min (V)     -10.000
E range max (V)     10.000
I Range             Auto
Bandwidth           5
nc cycles           0
goto Ns'            0
nr cycles           0
inc. cycle          0

freq/Hz	Re(Z)/Ohm	-Im(Z)/Ohm	|Z|/Ohm	Phase(Z)/deg	time/s	<Ewe>/V	<I>/mA	Cs/µF	Cp/µF	cycle number	I Range	|Ewe|/V	|I|/A	Ns	(Q-Qo)/mA.h	<Ece>/V	|Ece|/V	Phase(Zce)/deg	|Zce|/Ohm	Re(Zce)/Ohm	-Im(Zce)/Ohm	Phase(Zwe-ce)/deg	|Zwe-ce|/Ohm	Re(Zwe-ce)/Ohm	-Im(Zwe-ce)/Ohm	Re(Y)/Ohm-1	Im(Y)/Ohm-1	|Y|/Ohm-1	Phase(Y)/deg	Re(C)/nF	Im(C)/nF	|C|/nF	Phase(C)/deg	Re(M)	Im(M)	|M|	Phase(M)/deg	Re(Permittivity)	Im(Permittivity)	|Permittivity|	Phase(Permittivity)/deg	Re(Resistivity)/Ohm.cm	Im(Resistivity)/Ohm.cm	|Resistivity|/Ohm.cm	Phase(Resistivity)/deg	Re(Conductivity)/mS/cm	Im(Conductivity)/mS/cm	|Conductivity|/mS/cm	Phase(Conductivity)/deg	Tan(Delta)	Loss Angle(Delta)/deg	dq/mA.h	Pwe/W	Pce/W	Pwe-ce/W	<Ewe-Ece>/V	Rwe/Ohm	Rce/Ohm	Rwe-ce/Ohm		Ewe-Ece/V
1.00002e+06	1.00131	-0.338023	1.05682	18.6538	2.23352	3.78251	-0.0707278	-0.470832	-0.0481676	1	9	0.000195339	0.000184837	0	-5.47997e-05	8.34354e-05	0.000201664	0.873581	1.09104	1.09091	-0.0166343	9.62091	2.12206	2.09222	-0.354658	0.896527	-0.302652	0.946234	-18.6538	-48.1676	142.684	150.595	-108.654	0.0000000E+000	0.0000000E+000	0.0000000E+000	108.654	0.0000000E+000	0.0000000E+000	0.0000000E+000	-108.654	0.0000000E+000	0.0000000E+000	0.0000000E+000	18.6538	0.0000000E+000	0.0000000E+000	0.0000000E+000	-18.6538	2.96224	71.3462	-5.47997e-05	-0.000267528	-5.9012e-09	-0.000267522	3.78243	53479.8	1.17967	53478.7
630957	0.594632	0.1137	0.605405	-10.8249	3.00355	3.78243	-0.0775438	2.2185	0.078251	1	9	0.000202354	0.000334246	0	-7.29531e-05	-8.83822e-05	0.000112869	-104.024	0.337682	-0.0818293	0.327618	-40.7153	0.676556	0.512803	0.441318	1.62239	0.31022	1.65179	10.8249	78.251	409.239	416.653	-79.1751	0.0000000E+000	0.0000000E+000	0.0000000E+000	79.1751	0.0000000E+000	0.0000000E+000	0.0000000E+000	-79.1751	0.0000000E+000	0.0000000E+000	0.0000000E+000	-10.8249	0.0000000E+000	0.0000000E+000	0.0000000E+000	10.8249	5.22982	79.1751	-8.63478e-06	-0.000293304	6.85349e-09	-0.000293311	3.78252	48778	1.13977	48779.2
398103	0.814341	0.11341	0.8222	-7.92837	3.76954	3.78257	-0.0597029	3.52511	0.0670689	1	9	0.000799098	0.000971903	0	-8.68772e-05	4.52537e-05	4.28828e-05	-161.035	0.0441226	-0.0417275	0.0143392	-9.38875	0.783104	0.772613	0.127749	1.20462	0.167763	1.21625	7.92837	67.0689	481.588	486.236	-82.0716	0.0000000E+000	0.0000000E+000	0.0000000E+000	82.0716	0.0000000E+000	0.0000000E+000	0.0000000E+000	-82.0716	0.0000000E+000	0.0000000E+000	0.0000000E+000	-7.92837	0.0000000E+000	0.0000000E+000	0.0000000E+000	7.92837	7.18049	82.0716	-7.31316e-06	-0.000225831	-2.70178e-09	-0.000225828	3.78253	63356.5	0.757981	63355.8
251206	0.963912	0.243621	0.994222	-14.184	4.53556	3.78252	-0.0681205	2.60061	0.156149	1	9	0.00258097	0.00259597	0	-9.70293e-05	-6.92914e-05	2.49341e-05	99.2729	0.00960496	-0.00154772	-0.00947944	-13.6743	0.990438	0.962364	0.234141	0.975148	0.246461	1.00581	14.184	156.148	617.818	637.245	-75.816	0.0000000E+000	0.0000000E+000	0.0000000E+000	75.816	0.0000000E+000	0.0000000E+000	0.0000000E+000	-75.816	0.0000000E+000	0.0000000E+000	0.0000000E+000	-14.184	0.0000000E+000	0.0000000E+000	0.0000000E+000	14.184	3.9566	75.816	-6.53669e-06	-0.000257667	4.72016e-09	-0.000257671	3.78258	55526.8	1.01719	55527.9
158486	1.09489	0.31912	1.14044	-16.2495	5.17754	3.78245	-0.0680832	3.14684	0.246396	1	9	0.00525073	0.00460411	0	-0.000100611	-3.11097e-05	2.70296e-05	98.1918	0.00587075	-0.000836512	-0.00581085	-15.9804	1.13803	1.09405	0.313309	0.841823	0.245361	0.876851	16.2495	246.396	845.376	880.552	-73.7505	0.0000000E+000	0.0000000E+000	0.0000000E+000	73.7505	0.0000000E+000	0.0000000E+000	0.0000000E+000	-73.7505	0.0000000E+000	0.0000000E+000	0.0000000E+000	-16.2495	0.0000000E+000	0.0000000E+000	0.0000000E+000	16.2495	3.43096	73.7505	-2.45686e-06	-0.000257521	2.11805e-09	-0.000257524	3.78248	55556.3	0.456937	55556.8
100004	1.22353	0.337279	1.26917	-15.4114	5.94356	3.78242	-0.0624218	4.71862	0.333237	1	9	0.00538501	0.00424294	0	-0.000104837	8.34354e-05	2.37356e-05	110.934	0.00559415	-0.00199875	-0.00522489	-15.2074	1.26586	1.22154	0.332054	0.759585	0.209387	0.787916	15.4114	333.237	1208.87	1253.96	-74.5886	0.0000000E+000	0.0000000E+000	0.0000000E+000	74.5886	0.0000000E+000	0.0000000E+000	0.0000000E+000	-74.5886	0.0000000E+000	0.0000000E+000	0.0000000E+000	-15.4114	0.0000000E+000	0.0000000E+000	0.0000000E+000	15.4114	3.62766	74.5886	2.05088e-06	-0.000236105	-5.20819e-09	-0.0002361	3.78234	60594.5	1.33664	60593.2
63093.8	1.33255	0.33731	1.37458	-14.205	6.70956	3.78242	-0.0626453	7.47832	0.450324	1	9	0.00537201	0.00390813	0	-0.000113504	0.000350707	1.50923e-05	90.9004	0.00386178	-6.06884e-05	-0.00386131	-14.0495	1.37357	1.33249	0.333449	0.705253	0.178522	0.727497	14.205	450.324	1779.01	1835.12	-75.795	0.0000000E+000	0.0000000E+000	0.0000000E+000	75.795	0.0000000E+000	0.0000000E+000	0.0000000E+000	-75.795	0.0000000E+000	0.0000000E+000	0.0000000E+000	-14.205	0.0000000E+000	0.0000000E+000	0.0000000E+000	14.205	3.95051	75.795	4.08789e-06	-0.000236951	-2.19702e-08	-0.000236929	3.78207	60378.3	5.5983	60372.7
39814.1	1.42389	0.337169	1.46326	-13.322	7.47756	3.78241	-0.0605595	11.856	0.629487	1	9	0.0054409	0.00371834	0	-0.000123409	-3.11097e-05	1.13371e-05	54.9091	0.00304898	0.00175278	-0.0024948	-13.2112	1.46439	1.42564	0.334674	0.665015	0.157472	0.683405	13.322	629.487	2658.37	2731.88	-76.678	0.0000000E+000	0.0000000E+000	0.0000000E+000	76.678	0.0000000E+000	0.0000000E+000	0.0000000E+000	-76.678	0.0000000E+000	0.0000000E+000	0.0000000E+000	-13.322	0.0000000E+000	0.0000000E+000	0.0000000E+000	13.322	4.22307	76.678	-7.95879e-06	-0.000229061	1.88399e-09	-0.000229063	3.78244	62457.7	0.513704	62458.2
25116.9	1.51398	0.354117	1.55485	-13.1647	8.24555	3.78242	-0.0604478	17.894	0.928167	1	9	0.00515979	0.00331853	0	-0.000127136	-0.000298382	1.27359e-05	3.74072	0.00383783	0.00382965	-0.000250386	-13.1236	1.55852	1.51781	0.353866	0.626249	0.146478	0.643151	13.1647	928.167	3968.26	4075.37	-76.8353	0.0000000E+000	0.0000000E+000	0.0000000E+000	76.8353	0.0000000E+000	0.0000000E+000	0.0000000E+000	-76.8353	0.0000000E+000	0.0000000E+000	0.0000000E+000	-13.1647	0.0000000E+000	0.0000000E+000	0.0000000E+000	13.1647	4.27538	76.8353	-3.41159e-06	-0.000228639	1.80365e-08	-0.000228657	3.78272	62573.3	4.93618	62578.2
15847.7	1.60507	0.389436	1.65164	-13.638	8.76354	3.78241	-0.054563	25.7881	1.4337	1	9	0.00464961	0.00281515	0	-0.000134287	0.000350707	7.26516e-05	-97.7878	0.0258073	-0.00349701	0.0255693	-14.5272	1.65447	1.60157	0.415005	0.588388	0.14276	0.605459	13.638	1433.7	5909.06	6080.5	-76.362	0.0000000E+000	0.0000000E+000	0.0000000E+000	76.362	0.0000000E+000	0.0000000E+000	0.0000000E+000	-76.362	0.0000000E+000	0.0000000E+000	0.0000000E+000	-13.638	0.0000000E+000	0.0000000E+000	0.0000000E+000	13.638	4.12153	76.362	-6.00529e-06	-0.00020638	-1.91356e-08	-0.000206361	3.78206	69322	6.42757	69315.6
10002.2	1.70212	0.432172	1.75612	-14.2465	9.40555	3.78241	-0.0518813	36.8186	2.22982	1	9	0.00471479	0.00268477	0	-0.000142197	-6.92914e-05	9.73381e-06	-94.8845	0.00362556	-0.000308707	0.0036124	-14.3632	1.75672	1.70181	0.435785	0.551923	0.140135	0.569436	14.2465	2229.82	8782.18	9060.84	-75.7535	0.0000000E+000	0.0000000E+000	0.0000000E+000	75.7535	0.0000000E+000	0.0000000E+000	0.0000000E+000	-75.7535	0.0000000E+000	0.0000000E+000	0.0000000E+000	-14.2465	0.0000000E+000	0.0000000E+000	0.0000000E+000	14.2465	3.93851	75.7535	-3.01226e-06	-0.000196236	3.59492e-09	-0.00019624	3.78248	72905.1	1.33558	72906.5
6309.38	1.80609	0.495171	1.87274	-15.3319	10.0475	3.78241	-0.0502052	50.9422	3.5615	1	9	0.00493772	0.00263663	0	-0.00014904	0.00019798	1.52688e-05	-82.5535	0.00579105	0.000750517	0.00574221	-15.4951	1.87499	1.80684	0.500913	0.514973	0.141189	0.533977	15.3319	3561.5	12990.3	13469.6	-74.6681	0.0000000E+000	0.0000000E+000	0.0000000E+000	74.6681	0.0000000E+000	0.0000000E+000	0.0000000E+000	-74.6681	0.0000000E+000	0.0000000E+000	0.0000000E+000	-15.3319	0.0000000E+000	0.0000000E+000	0.0000000E+000	15.3319	3.64741	74.6681	-9.4641e-07	-0.000189897	-9.93965e-09	-0.000189887	3.78221	75339	3.94343	75335.1
3983.6	1.93893	0.592864	2.02754	-17.002	10.6101	3.78224	-0.137249	67.389	5.76181	1	9	0.00481965	0.00237709	0	-0.000163904	0.000255253	5.18976e-06	-151.723	0.00218324	-0.00192271	0.00103428	-17.0459	2.02601	1.93701	0.593898	0.471652	0.144216	0.493208	17.002	5761.81	18843.7	19704.9	-72.998	0.0000000E+000	0.0000000E+000	0.0000000E+000	72.998	0.0000000E+000	0.0000000E+000	0.0000000E+000	-72.998	0.0000000E+000	0.0000000E+000	0.0000000E+000	-17.002	0.0000000E+000	0.0000000E+000	0.0000000E+000	17.002	3.27044	72.998	-1.11819e-05	-0.000519108	-3.50332e-08	-0.000519073	3.78199	27557.5	1.85978	27555.7
2510.8	2.09175	0.726843	2.21443	-19.1614	11.4348	3.78235	-0.0504287	87.2101	9.39559	1	9	0.00473412	0.00213785	0	-0.000187111	7.07199e-06	6.59413e-06	-30.1719	0.00308447	0.00266659	0.00155024	-19.1766	2.21746	2.09441	0.728394	0.426565	0.148223	0.451583	19.1614	9395.59	27039.1	28625	-70.8386	0.0000000E+000	0.0000000E+000	0.0000000E+000	70.8386	0.0000000E+000	0.0000000E+000	0.0000000E+000	-70.8386	0.0000000E+000	0.0000000E+000	0.0000000E+000	-19.1614	0.0000000E+000	0.0000000E+000	0.0000000E+000	19.1614	2.87785	70.8386	-8.08167e-06	-0.000190739	-3.56631e-10	-0.000190738	3.78234	75003.9	0.140237	75003.7
1585.51	2.29811	0.884517	2.46245	-21.0512	12.3368	3.78235	-0.0483429	113.487	14.6427	1	9	0.00470645	0.00191128	0	-0.000197992	0.000217071	1.03848e-05	21.4667	0.00543344	0.00505652	-0.00198842	-20.9659	2.46646	2.30317	0.882529	0.378996	0.145871	0.406099	21.0512	14642.7	38044	40764.7	-68.9488	0.0000000E+000	0.0000000E+000	0.0000000E+000	68.9488	0.0000000E+000	0.0000000E+000	0.0000000E+000	-68.9488	0.0000000E+000	0.0000000E+000	0.0000000E+000	-21.0512	0.0000000E+000	0.0000000E+000	0.0000000E+000	21.0512	2.59815	68.9488	-4.58394e-06	-0.00018285	-1.04939e-08	-0.000182839	3.78213	78240	4.49024	78235.5
1000.32	2.58393	1.08564	2.80273	-22.7897	13.2398	3.78234	-0.0420111	146.554	21.9888	1	9	0.00468993	0.00167334	0	-0.000208732	-5.02005e-05	8.71416e-06	88.2983	0.00520764	0.000154647	-0.00520535	-22.6903	2.80087	2.58409	1.08043	0.328941	0.138204	0.356794	22.7897	21988.8	52335.8	56767.4	-67.2103	0.0000000E+000	0.0000000E+000	0.0000000E+000	67.2103	0.0000000E+000	0.0000000E+000	0.0000000E+000	-67.2103	0.0000000E+000	0.0000000E+000	0.0000000E+000	-22.7897	0.0000000E+000	0.0000000E+000	0.0000000E+000	22.7897	2.38011	67.2103	-4.53122e-06	-0.000158901	2.10898e-09	-0.000158903	3.78239	90031.9	1.19493	90033.1
631.01	2.93845	1.29631	3.21169	-23.8048	14.3866	3.78234	-0.0905598	194.57	31.6976	1	10	0.00475141	0.00147941	0	-0.000228932	0.000102526	7.66804e-06	-35.8909	0.00518316	0.00419906	0.0030386	-23.8242	3.21676	2.94265	1.29935	0.284874	0.125673	0.311363	23.8048	31697.6	71851.6	78532.8	-66.1952	0.0000000E+000	0.0000000E+000	0.0000000E+000	66.1952	0.0000000E+000	0.0000000E+000	0.0000000E+000	-66.1952	0.0000000E+000	0.0000000E+000	0.0000000E+000	-23.8048	0.0000000E+000	0.0000000E+000	0.0000000E+000	23.8048	2.26678	66.1952	-1.45071e-05	-0.000342528	-9.28475e-09	-0.000342519	3.78224	41766.2	1.13214	41765.1
398.089	3.41921	1.46884	3.72135	-23.2476	15.2878	3.78234	-0.0872034	272.186	42.4046	1	10	0.00471149	0.00126607	0	-0.000250233	0.000274344	1.30431e-05	-82.0652	0.0103021	0.00142217	0.0102034	-23.3832	3.7267	3.42063	1.47904	0.246901	0.106065	0.26872	23.2476	42404.6	98710.5	107433	-66.7524	0.0000000E+000	0.0000000E+000	0.0000000E+000	66.7524	0.0000000E+000	0.0000000E+000	0.0000000E+000	-66.7524	0.0000000E+000	0.0000000E+000	0.0000000E+000	-23.2476	0.0000000E+000	0.0000000E+000	0.0000000E+000	23.2476	2.32783	66.7524	-1.13718e-05	-0.000329833	-2.39237e-08	-0.000329809	3.78207	43373.8	3.14602	43370.7
251.044	4.00411	1.52652	4.28522	-20.8687	16.186	3.78234	-0.087643	415.306	52.7016	1	10	0.00469504	0.00109564	0	-0.000272152	7.07199e-06	9.7976e-06	36.7402	0.00894239	0.00716604	-0.00534922	-20.7679	4.29002	4.01128	1.52117	0.218051	0.0831293	0.23336	20.8687	52701.6	138238	147944	-69.1313	0.0000000E+000	0.0000000E+000	0.0000000E+000	69.1313	0.0000000E+000	0.0000000E+000	0.0000000E+000	-69.1313	0.0000000E+000	0.0000000E+000	0.0000000E+000	-20.8687	0.0000000E+000	0.0000000E+000	0.0000000E+000	20.8687	2.62304	69.1313	-1.14389e-05	-0.000331496	-6.1981e-10	-0.000331495	3.78233	43156.2	0.0806909	43156.2
158.428	4.57555	1.43529	4.79539	-17.4159	17.0908	3.78234	-0.0858399	699.92	62.7016	1	10	0.00468033	0.000976008	0	-0.000294839	-1.20189e-05	5.56054e-06	7.29365	0.00569723	0.00565113	-0.00072329	-17.3875	4.80056	4.5812	1.43456	0.198974	0.0624154	0.208534	17.4159	62701.6	199886	209490	-72.5841	0.0000000E+000	0.0000000E+000	0.0000000E+000	72.5841	0.0000000E+000	0.0000000E+000	0.0000000E+000	-72.5841	0.0000000E+000	0.0000000E+000	0.0000000E+000	-17.4159	0.0000000E+000	0.0000000E+000	0.0000000E+000	17.4159	3.1879	72.5841	-1.11423e-05	-0.000324676	1.0317e-09	-0.000324677	3.78235	44062.7	0.140015	44062.8
100.032	5.05821	1.22098	5.20349	-13.5708	17.9908	3.78234	-0.0853557	1303.08	71.7467	1	10	0.00467753	0.000898922	0	-0.000315861	0.000274344	8.30571e-06	38.2629	0.00923964	0.00725476	-0.00572184	-13.4909	5.2092	5.06546	1.21526	0.186813	0.0450942	0.192179	13.5708	71746.7	297227	305764	-76.4292	0.0000000E+000	0.0000000E+000	0.0000000E+000	76.4292	0.0000000E+000	0.0000000E+000	0.0000000E+000	-76.4292	0.0000000E+000	0.0000000E+000	0.0000000E+000	-13.5708	0.0000000E+000	0.0000000E+000	0.0000000E+000	13.5708	4.14273	76.4292	-1.02091e-05	-0.000322844	-2.34168e-08	-0.000322821	3.78207	44312.7	3.21412	44309.5
63.0823	5.39485	0.952483	5.47828	-10.0126	18.908	3.78235	-0.0812207	2648.84	80.0721	1	10	0.00467301	0.000853006	0	-0.000336867	-3.11097e-05	8.92326e-06	-97.803	0.010461	-0.00142026	0.0103641	-10.122	5.4787	5.39343	0.962848	0.179759	0.0317372	0.182539	10.0126	80072.1	453526	460541	-79.9874	0.0000000E+000	0.0000000E+000	0.0000000E+000	79.9874	0.0000000E+000	0.0000000E+000	0.0000000E+000	-79.9874	0.0000000E+000	0.0000000E+000	0.0000000E+000	-10.0126	0.0000000E+000	0.0000000E+000	0.0000000E+000	10.0126	5.66398	79.9874	-9.69425e-06	-0.000307205	2.52675e-09	-0.000307207	3.78238	46568.8	0.383027	46569.1
39.8089	5.61209	0.721361	5.65826	-7.32446	19.8088	3.78234	-0.0824463	5542.26	90.0796	1	10	0.00467221	0.000825731	0	-0.000356064	-5.02005e-05	1.07936e-05	-98.0341	0.0130716	-0.00182691	0.0129433	-7.45682	5.65812	5.61027	0.734305	0.175291	0.0225313	0.176733	7.32446	90079.6	700807	706572	-82.6755	0.0000000E+000	0.0000000E+000	0.0000000E+000	82.6755	0.0000000E+000	0.0000000E+000	0.0000000E+000	-82.6755	0.0000000E+000	0.0000000E+000	0.0000000E+000	-7.32446	0.0000000E+000	0.0000000E+000	0.0000000E+000	7.32446	7.77986	82.6755	-9.83429e-06	-0.00031184	4.13885e-09	-0.000311844	3.78239	45876.4	0.608888	45877
25.1044	5.75327	0.537328	5.77831	-5.33567	20.688	3.78234	-0.0827965	11798.6	102.025	1	10	0.00467818	0.000809611	0	-0.000376668	0.000140708	9.25889e-06	78.5021	0.0114362	0.00227961	-0.0112067	-5.22295	5.77955	5.75555	0.526121	0.172311	0.016093	0.173061	5.33567	102025	1.0924e+06	1.09716e+06	-84.6643	0.0000000E+000	0.0000000E+000	0.0000000E+000	84.6643	0.0000000E+000	0.0000000E+000	0.0000000E+000	-84.6643	0.0000000E+000	0.0000000E+000	0.0000000E+000	-5.33567	0.0000000E+000	0.0000000E+000	0.0000000E+000	5.33567	10.7072	84.6643	-9.67576e-06	-0.000313164	-1.16501e-08	-0.000313153	3.7822	45682.4	1.69944	45680.7
15.8576	5.82311	0.380194	5.83551	-3.73556	21.566	3.78229	-0.0862386	26398.5	112.055	1	10	0.0046774	0.00080154	0	-0.000395748	7.07199e-06	2.05211e-05	27.0976	0.0256021	0.0227918	-0.0116619	-3.60721	5.85751	5.8459	0.368532	0.171001	0.0111647	0.171365	3.73556	112055	1.71625e+06	1.7199e+06	-86.2644	0.0000000E+000	0.0000000E+000	0.0000000E+000	86.2644	0.0000000E+000	0.0000000E+000	0.0000000E+000	-86.2644	0.0000000E+000	0.0000000E+000	0.0000000E+000	-3.73556	0.0000000E+000	0.0000000E+000	0.0000000E+000	3.73556	15.3162	86.2644	-9.67009e-06	-0.000326179	-6.09878e-10	-0.000326179	3.78229	43858.5	0.082005	43858.4
10.0032	5.86949	0.298539	5.87708	-2.91172	22.5478	3.78235	-0.0805054	53294.1	137.518	1	10	0.00466307	0.000793434	0	-0.000417264	0.000140708	7.22416e-06	-20.5964	0.00910492	0.00852295	0.00320296	-2.93865	5.88575	5.87801	0.301742	0.169933	0.00864329	0.170153	2.91172	137518	2.7037e+06	2.7072e+06	-87.0883	0.0000000E+000	0.0000000E+000	0.0000000E+000	87.0883	0.0000000E+000	0.0000000E+000	0.0000000E+000	-87.0883	0.0000000E+000	0.0000000E+000	0.0000000E+000	-2.91172	0.0000000E+000	0.0000000E+000	0.0000000E+000	2.91172	19.6607	87.0883	-5.73368e-06	-0.0003045	-1.13278e-08	-0.000304488	3.78221	46982.5	1.74781	46980.8
6.31058	5.91193	0.265001	5.91786	-2.56655	23.4723	3.78234	-0.0845957	95170.7	190.84	1	10	0.00466231	0.000787836	0	-0.000434075	-8.83822e-05	7.78852e-06	31.9512	0.00988596	0.00838823	-0.00523162	-2.51239	5.92601	5.92031	0.259769	0.16881	0.00756689	0.16898	2.56655	190839	4.25746e+06	4.26173e+06	-87.4334	0.0000000E+000	0.0000000E+000	0.0000000E+000	87.4334	0.0000000E+000	0.0000000E+000	0.0000000E+000	-87.4334	0.0000000E+000	0.0000000E+000	0.0000000E+000	-2.56655	0.0000000E+000	0.0000000E+000	0.0000000E+000	2.56655	22.3091	87.4334	-5.15367e-07	-0.00031997	7.47676e-09	-0.000319977	3.78243	44710.8	1.04476	44711.8
3.97785	5.96384	0.247821	5.96898	-2.3795	24.4783	3.78237	-0.0724087	161448	278.298	1	10	0.00467	0.000782377	0	-0.000466727	-0.000107473	4.60813e-06	8.95312	0.00588991	0.00581815	-0.000916625	-2.3684	5.97476	5.96966	0.246905	0.167388	0.00695565	0.167533	2.3795	278298	6.69725e+06	6.70303e+06	-87.6205	0.0000000E+000	0.0000000E+000	0.0000000E+000	87.6205	0.0000000E+000	0.0000000E+000	0.0000000E+000	-87.6205	0.0000000E+000	0.0000000E+000	0.0000000E+000	-2.3795	0.0000000E+000	0.0000000E+000	0.0000000E+000	2.3795	24.0651	87.6205	-1.98806e-05	-0.000273877	7.78198e-09	-0.000273884	3.78248	52236.4	1.48426	52237.9
2.51367	6.01328	0.250759	6.01851	-2.3879	26.481	3.78239	-0.0641625	252496	438.319	1	11	0.00466991	0.000775924	0	-0.000488668	0.000102526	3.59429e-06	-17.7142	0.00463228	0.00441264	0.00140945	-2.39955	6.02297	6.01769	0.252169	0.16601	0.00692276	0.166154	2.3879	438319	1.0511e+07	1.05202e+07	-87.6121	0.0000000E+000	0.0000000E+000	0.0000000E+000	87.6121	0.0000000E+000	0.0000000E+000	0.0000000E+000	-87.6121	0.0000000E+000	0.0000000E+000	0.0000000E+000	-2.3879	0.0000000E+000	0.0000000E+000	0.0000000E+000	2.3879	23.9803	87.6121	-9.62036e-06	-0.000242687	-6.57834e-09	-0.000242681	3.78228	58950.1	1.59791	58948.5
1.58469	6.07471	0.278595	6.08109	-2.62583	28.9165	3.78238	-0.0606681	360498	756.637	1	11	0.00467533	0.00076883	0	-0.000544785	-6.92914e-05	3.46457e-06	38.6077	0.00450629	0.00352138	-0.00281186	-2.59786	6.08448	6.07823	0.275784	0.164271	0.00753374	0.164444	2.62583	756637	1.64983e+07	1.65156e+07	-87.3742	0.0000000E+000	0.0000000E+000	0.0000000E+000	87.3742	0.0000000E+000	0.0000000E+000	0.0000000E+000	-87.3742	0.0000000E+000	0.0000000E+000	0.0000000E+000	-2.62583	0.0000000E+000	0.0000000E+000	0.0000000E+000	2.62583	21.8048	87.3742	-3.72671e-05	-0.00022947	4.20377e-09	-0.000229474	3.78245	62345.6	1.14214	62346.7
1.00469	6.1664	0.301353	6.17376	-2.79783	239.735	3.78236	-0.0442219	525667	1252.46	1	11	0.00498008	0.000806652	0	-0.00638489	0.000350707	3.22572e-07	28.0407	0.00039989	0.000352948	-0.000187988	-2.79593	6.17411	6.16676	0.301165	0.161783	0.00790635	0.161976	2.79783	1.25246e+06	2.56282e+07	2.56588e+07	-87.2022	0.0000000E+000	0.0000000E+000	0.0000000E+000	87.2022	0.0000000E+000	0.0000000E+000	0.0000000E+000	-87.2022	0.0000000E+000	0.0000000E+000	0.0000000E+000	-2.79783	0.0000000E+000	0.0000000E+000	0.0000000E+000	2.79783	20.4624	87.2022	-0.00579232	-0.000167263	-1.5509e-08	-0.000167248	3.782	85531.2	7.93061	85523.2
0.632957	6.24036	0.364444	6.251	-3.34234	239.735	3.78236	-0.0442219	689947	2345.19	1	11	0.00499249	0.000798671	0	-0.00638489	0.000350707	3.71367e-07	-58.8931	0.000464981	0.000240227	0.000398119	-3.34585	6.25126	6.2406	0.364842	0.159702	0.00932678	0.159974	3.34234	2.34519e+06	4.01566e+07	4.0225e+07	-86.6577	0.0000000E+000	0.0000000E+000	0.0000000E+000	86.6577	0.0000000E+000	0.0000000E+000	0.0000000E+000	-86.6577	0.0000000E+000	0.0000000E+000	0.0000000E+000	-3.34234	0.0000000E+000	0.0000000E+000	0.0000000E+000	3.34234	17.123	86.6577	0.000000000000000E+000	-0.000167263	-1.5509e-08	-0.000167248	3.782	85531.2	7.93061	85523.2
0.401878	6.29455	0.456935	6.31112	-4.15194	239.735	3.78236	-0.0442219	866706	4543.27	1	11	0.00500611	0.00079322	0	-0.00638489	0.000350707	1.95473e-07	23.1297	0.00024643	0.000226621	-9.68011e-05	-4.15091	6.31134	6.29478	0.456838	0.158035	0.0114721	0.158451	4.15194	4.54327e+06	6.25862e+07	6.27509e+07	-85.8481	0.0000000E+000	0.0000000E+000	0.0000000E+000	85.8481	0.0000000E+000	0.0000000E+000	0.0000000E+000	-85.8481	0.0000000E+000	0.0000000E+000	0.0000000E+000	-4.15194	0.0000000E+000	0.0000000E+000	0.0000000E+000	4.15194	13.7756	85.8481	0.000000000000000E+000	-0.000167263	-1.5509e-08	-0.000167248	3.782	85531.2	7.93061	85523.2
0.251173	6.41584	0.602002	6.44402	-5.3604	239.735	3.78236	-0.0442219	1.05256e+06	9186.09	1	11	0.0050062	0.000776876	0	-0.00638489	0.000350707	2.48664e-07	-44.9648	0.000320083	0.000226472	0.000226193	-5.36222	6.44427	6.41606	0.602228	0.154504	0.0144972	0.155183	5.3604	9.18609e+06	9.79008e+07	9.83308e+07	-84.6396	0.0000000E+000	0.0000000E+000	0.0000000E+000	84.6396	0.0000000E+000	0.0000000E+000	0.0000000E+000	-84.6396	0.0000000E+000	0.0000000E+000	0.0000000E+000	-5.3604	0.0000000E+000	0.0000000E+000	0.0000000E+000	5.3604	10.6575	84.6396	0.000000000000000E+000	-0.000167263	-1.5509e-08	-0.000167248	3.782	85531.2	7.93061	85523.2
0.160751	6.55623	0.679677	6.59136	-5.91865	239.735	3.78236	-0.0442219	1.45668e+06	15488.8	1	11	0.00500145	0.000758789	0	-0.00638489	0.000350707	6.45077e-07	4.77275	0.000850141	0.000847193	-7.07349e-05	-5.91728	6.5922	6.55707	0.679606	0.150905	0.0156442	0.151714	5.91865	1.54888e+07	1.49407e+08	1.50207e+08	-84.0814	0.0000000E+000	0.0000000E+000	0.0000000E+000	84.0814	0.0000000E+000	0.0000000E+000	0.0000000E+000	-84.0814	0.0000000E+000	0.0000000E+000	0.0000000E+000	-5.91865	0.0000000E+000	0.0000000E+000	0.0000000E+000	5.91865	9.64609	84.0814	0.000000000000000E+000	-0.000167263	-1.5509e-08	-0.000167248	3.782	85531.2	7.93061	85523.2
0.100469	6.6819	0.993402	6.75534	-8.45626	239.735	3.78236	-0.0442219	1.59463e+06	34484	1	11	0.0050043	0.000740792	0	-0.00638489	0.000350707	2.2931e-07	74.3546	0.000309547	8.34794e-05	-0.000298078	-8.45366	6.75538	6.68198	0.993104	0.146422	0.0217686	0.148031	8.45626	3.4484e+07	2.31949e+08	2.34498e+08	-81.5437	0.0000000E+000	0.0000000E+000	0.0000000E+000	81.5437	0.0000000E+000	0.0000000E+000	0.0000000E+000	-81.5437	0.0000000E+000	0.0000000E+000	0.0000000E+000	-8.45626	0.0000000E+000	0.0000000E+000	0.0000000E+000	8.45626	6.72628	81.5437	0.000000000000000E+000	-0.000167263	-1.5509e-08	-0.000167248	3.782	85531.2	7.93061	85523.2
0.0602816	6.96888	1.2518	7.08041	-10.1833	239.735	3.78236	-0.0442219	2.10911e+06	65925.6	1	11	0.00500018	0.000706199	0	-0.00638489	0.000350707	3.67299e-07	76.6592	0.000520107	0.000120011	-0.000506072	-10.1791	7.08044	6.969	1.2513	0.13901	0.02497	0.141235	10.1833	6.59256e+07	3.67012e+08	3.72886e+08	-79.8167	0.0000000E+000	0.0000000E+000	0.0000000E+000	79.8167	0.0000000E+000	0.0000000E+000	0.0000000E+000	-79.8167	0.0000000E+000	0.0000000E+000	0.0000000E+000	-10.1833	0.0000000E+000	0.0000000E+000	0.0000000E+000	10.1833	5.56706	79.8167	0.000000000000000E+000	-0.000167263	-1.5509e-08	-0.000167248	3.782	85531.2	7.93061	85523.2
0.0401878	7.35264	1.51642	7.50738	-11.6534	239.735	3.78236	-0.0442219	2.6116e+06	106554	1	11	0.00499903	0.000665881	0	-0.00638489	0.000350707	2.72627e-07	48.5735	0.000409423	0.000270898	-0.000306987	-11.6507	7.50759	7.35291	1.51612	0.130457	0.0269056	0.133202	11.6534	1.06554e+08	5.16645e+08	5.27518e+08	-78.3466	0.0000000E+000	0.0000000E+000	0.0000000E+000	78.3466	0.0000000E+000	0.0000000E+000	0.0000000E+000	-78.3466	0.0000000E+000	0.0000000E+000	0.0000000E+000	-11.6534	0.0000000E+000	0.0000000E+000	0.0000000E+000	11.6534	4.84867	78.3466	0.000000000000000E+000	-0.000167263	-1.5509e-08	-0.000167248	3.782	85531.2	7.93061	85523.2
0.0200939	8.27793	2.37678	8.61239	-16.0199	239.735	3.78236	-0.0442219	3.33248e+06	253804	1	11	0.00500017	0.000580578	0	-0.00638489	0.000350707	9.64852e-07	-98.101	0.00166188	-0.000234191	0.0016453	-16.0309	8.61262	8.2777	2.37842	0.111603	0.0320436	0.116112	16.0199	2.53804e+08	8.83957e+08	9.19672e+08	-73.9801	0.0000000E+000	0.0000000E+000	0.0000000E+000	73.9801	0.0000000E+000	0.0000000E+000	0.0000000E+000	-73.9801	0.0000000E+000	0.0000000E+000	0.0000000E+000	-16.0199	0.0000000E+000	0.0000000E+000	0.0000000E+000	16.0199	3.48284	73.9801	0.000000000000000E+000	-0.000167263	-1.5509e-08	-0.000167248	3.782	85531.2	7.93061	85523.2
0.00796479	10.4281	2.79769	10.7968	-15.0179	20328.7	3.78234	0.000928338	7.14244e+06	479571	1	11	0.00499457	0.000462596	0	-0.0296519	-3.11097e-05	2.15876e-07	-78.5955	0.000466662	9.2275e-05	0.000457448	-15.0201	10.797	10.4282	2.79815	0.0894563	0.0239997	0.0926197	15.0179	4.79571e+08	1.78754e+09	1.85076e+09	-74.9821	0.0000000E+000	0.0000000E+000	0.0000000E+000	74.9821	0.0000000E+000	0.0000000E+000	0.0000000E+000	-74.9821	0.0000000E+000	0.0000000E+000	0.0000000E+000	-15.0179	0.0000000E+000	0.0000000E+000	0.0000000E+000	15.0179	3.72739	74.9821	-0.0232671	3.51129e-06	-2.88803e-11	3.51132e-06	3.78238	4.07432e+06	33.5112	4.07435e+06
0.00497799	11.5327	2.5868	11.8193	-12.6422	20328.7	3.78234	0.000928338	1.23596e+07	592034	1	11	0.00500181	0.00042319	0	-0.0296519	-3.11097e-05	2.53431e-07	-70.6661	0.000598857	0.000198266	0.000565085	-12.6447	11.8196	11.5329	2.58737	0.0825562	0.0185174	0.0846075	12.6422	5.92034e+08	2.63946e+09	2.70505e+09	-77.3578	0.0000000E+000	0.0000000E+000	0.0000000E+000	77.3578	0.0000000E+000	0.0000000E+000	0.0000000E+000	-77.3578	0.0000000E+000	0.0000000E+000	0.0000000E+000	-12.6422	0.0000000E+000	0.0000000E+000	0.0000000E+000	12.6422	4.4583	77.3578	0.000000000000000E+000	3.51129e-06	-2.88803e-11	3.51132e-06	3.78238	4.07432e+06	33.5112	4.07435e+06
0.00318591	12.15	3.48841	12.6409	-16.0194	20328.7	3.78234	0.000928338	1.43205e+07	1.09058e+06	1	11	0.0050043	0.000395881	0	-0.0296519	-3.11097e-05	3.20257e-07	-105.919	0.000808973	-0.000221881	0.00077795	-16.0231	12.6409	12.1498	3.48919	0.0760364	0.0218309	0.0791083	16.0194	1.09058e+09	3.79846e+09	3.95192e+09	-73.9806	0.0000000E+000	0.0000000E+000	0.0000000E+000	73.9806	0.0000000E+000	0.0000000E+000	0.0000000E+000	-73.9806	0.0000000E+000	0.0000000E+000	0.0000000E+000	-16.0194	0.0000000E+000	0.0000000E+000	0.0000000E+000	16.0194	3.48297	73.9806	0.000000000000000E+000	3.51129e-06	-2.88803e-11	3.51132e-06	3.78238	4.07432e+06	33.5112	4.07435e+06
0.0019912	12.7352	3.73827	13.2725	-16.359	20328.7	3.78234	0.000928338	2.13814e+07	1.69618e+06	1	11	0.00500677	0.000377229	0	-0.0296519	-3.11097e-05	5.96402e-07	-44.525	0.00158101	0.00112717	0.00110863	-16.3623	13.2739	12.7363	3.73938	0.0722936	0.021221	0.0753438	16.359	1.69618e+09	5.77838e+09	6.02218e+09	-73.641	0.0000000E+000	0.0000000E+000	0.0000000E+000	73.641	0.0000000E+000	0.0000000E+000	0.0000000E+000	-73.641	0.0000000E+000	0.0000000E+000	0.0000000E+000	-16.359	0.0000000E+000	0.0000000E+000	0.0000000E+000	16.359	3.4067	73.641	0.000000000000000E+000	3.51129e-06	-2.88803e-11	3.51132e-06	3.78238	4.07432e+06	33.5112	4.07435e+06
0.00129428	12.7343	4.2688	13.4307	-18.5323	20328.7	3.78234	0.000928338	2.88062e+07	2.91004e+06	1	11	0.00500816	0.000372888	0	-0.0296519	-3.11097e-05	5.55444e-07	-130.001	0.00148957	-0.000957489	0.00114107	-18.5382	13.4302	12.7333	4.26994	0.0705952	0.023665	0.0744561	18.5323	2.91004e+09	8.68096e+09	9.15573e+09	-71.4677	0.0000000E+000	0.0000000E+000	0.0000000E+000	71.4677	0.0000000E+000	0.0000000E+000	0.0000000E+000	-71.4677	0.0000000E+000	0.0000000E+000	0.0000000E+000	-18.5323	0.0000000E+000	0.0000000E+000	0.0000000E+000	18.5323	2.9831	71.4677	0.000000000000000E+000	3.51129e-06	-2.88803e-11	3.51132e-06	3.78238	4.07432e+06	33.5112	4.07435e+06
0.000796479	14.0486	5.34863	15.0323	-20.843	20328.7	3.78234	0.000928338	3.73597e+07	4.72972e+06	1	11	0.00500854	0.000333184	0	-0.0296519	-3.11097e-05	7.43204e-07	66.3953	0.00223061	0.00089319	-0.00204397	-20.8345	15.0324	14.0495	5.34658	0.0621699	0.0236695	0.0665233	20.843	4.72972e+09	1.2423e+10	1.32929e+10	-69.157	0.0000000E+000	0.0000000E+000	0.0000000E+000	69.157	0.0000000E+000	0.0000000E+000	0.0000000E+000	-69.157	0.0000000E+000	0.0000000E+000	0.0000000E+000	-20.843	0.0000000E+000	0.0000000E+000	0.0000000E+000	20.843	2.62658	69.157	0.000000000000000E+000	3.51129e-06	-2.88803e-11	3.51132e-06	3.78238	4.07432e+06	33.5112	4.07435e+06
0.000497799	13.578	7.37927	15.4536	-28.5229	20328.7	3.78234	0.000928338	4.33264e+07	9.87913e+06	1	11	0.00500774	0.000324049	0	-0.0296519	-3.11097e-05	9.03139e-07	6.0202	0.00278704	0.00277167	-0.000292302	-28.5171	15.4559	13.5807	7.37898	0.0568557	0.0308996	0.0647097	28.5229	9.87913e+09	1.81777e+10	2.06888e+10	-61.4771	0.0000000E+000	0.0000000E+000	0.0000000E+000	61.4771	0.0000000E+000	0.0000000E+000	0.0000000E+000	-61.4771	0.0000000E+000	0.0000000E+000	0.0000000E+000	-28.5229	0.0000000E+000	0.0000000E+000	0.0000000E+000	28.5229	1.84001	61.4771	0.000000000000000E+000	3.51129e-06	-2.88803e-11	3.51132e-06	3.78238	4.07432e+06	33.5112	4.07435e+06
0.000298679	13.4962	10.9739	17.3946	-39.1148	20328.7	3.78234	0.000928338	4.85574e+07	1.93261e+07	1	11	0.00500738	0.00028787	0	-0.0296519	-3.11097e-05	3.04754e-06	-14.9067	0.0105865	0.0102302	0.00272334	-39.1005	17.4043	13.5064	10.9766	0.0446048	0.0362685	0.057489	39.1148	1.93261e+10	2.37682e+10	3.06337e+10	-50.8852	0.0000000E+000	0.0000000E+000	0.0000000E+000	50.8852	0.0000000E+000	0.0000000E+000	0.0000000E+000	-50.8852	0.0000000E+000	0.0000000E+000	0.0000000E+000	-39.1148	0.0000000E+000	0.0000000E+000	0.0000000E+000	39.1148	1.22985	50.8852	0.000000000000000E+000	3.51129e-06	-2.88803e-11	3.51132e-06	3.78238	4.07432e+06	33.5112	4.07435e+06
9.95598e-05	16.5205	36.7439	40.2869	-65.7908	20328.7	3.78234	0.000928338	4.35062e+07	3.61903e+07	1	11	0.00499938	0.000124094	0	-0.0296519	-3.11097e-05	5.27453e-06	-33.9555	0.0425042	0.035256	0.0237407	-65.7589	40.323	16.5557	36.7676	0.0101787	0.022639	0.0248219	65.7908	3.61903e+10	1.62716e+10	3.968e+10	-24.2092	0.0000000E+000	0.0000000E+000	0.0000000E+000	24.2092	0.0000000E+000	0.0000000E+000	0.0000000E+000	-24.2092	0.0000000E+000	0.0000000E+000	0.0000000E+000	-65.7908	0.0000000E+000	0.0000000E+000	0.0000000E+000	65.7908	0.449612	24.2092	0.000000000000000E+000	3.51129e-06	-2.88803e-11	3.51132e-06	3.78238	4.07432e+06	33.5112	4.07435e+06