File: txt/17609_R291_UC85_SOC50_C05.mpt
EC-Lab ASCII FILE
Nb header lines : 64

Potentio Electrochemical Impedance Spectroscopy

Run on channel : 5 (SN 65912)
User :
CE vs. WE compliance from -10 V to 10 V
Electrode connection : standard
Potential control : Ewe
Ewe ctrl range : min = -10.00 V, max = 10.00 V
Safety Limits :
	Do not start on E overload
Acquisition started on : 09/17/2025 17:34:13.692
Loaded Setting File :  C:\Users\Celltest\OneDrive - store-dot.com\Documents\EC-Lab\Data\Michael\R290\17544_R290_UC82_50SOC.mps
Saved on :
	File : 17609_R291_UC85_SOC50_C05.mpr
	Directory : C:\Users\Celltest\OneDrive - store-dot.com\Documents\EC-Lab\Data\Gyutae\
	Host : 169.254.61.224
Device : VMP-3e (SN .003165)
Address : USB
EC-LAB for windows v11.62 (software)
Internet server v27.00 (firmware)
Command interpretor v12.03 (firmware)
Electrode material :
Initial state :
Electrolyte :
Comments :
Electrode surface area : 0.001 cm²
Characteristic mass : 0.001 g
Equivalent Weight : 0.000 g/eq.
Density : 0.000 g/cm3
Volume (V) : 0.001 cm³
Record Ece
Cycle Definition : Charge/Discharge alternance
Mode                Multi sine
E (V)               0.0000
vs.                 Eoc
tE (h:m:s)          0:00:0.0000
record              0
dI                  0.000
unit dI             mA
dt (s)              0.000
fi                  1.000
unit fi             MHz
ff                  0.100
unit ff             mHz
Nd                  10
Points              per decade
spacing             Logarithmic
Va (mV)             5.0
pw                  0.10
Na                  2
corr                0
E range min (V)     -10.000
E range max (V)     10.000
I Range             Auto
Bandwidth           5
nc cycles           0
goto Ns'            0
nr cycles           0
inc. cycle          0

freq/Hz	Re(Z)/Ohm	-Im(Z)/Ohm	|Z|/Ohm	Phase(Z)/deg	time/s	<Ewe>/V	<I>/mA	Cs/µF	Cp/µF	cycle number	I Range	|Ewe|/V	|I|/A	Ns	(Q-Qo)/mA.h	<Ece>/V	|Ece|/V	Phase(Zce)/deg	|Zce|/Ohm	Re(Zce)/Ohm	-Im(Zce)/Ohm	Phase(Zwe-ce)/deg	|Zwe-ce|/Ohm	Re(Zwe-ce)/Ohm	-Im(Zwe-ce)/Ohm	Re(Y)/Ohm-1	Im(Y)/Ohm-1	|Y|/Ohm-1	Phase(Y)/deg	Re(C)/nF	Im(C)/nF	|C|/nF	Phase(C)/deg	Re(M)	Im(M)	|M|	Phase(M)/deg	Re(Permittivity)	Im(Permittivity)	|Permittivity|	Phase(Permittivity)/deg	Re(Resistivity)/Ohm.cm	Im(Resistivity)/Ohm.cm	|Resistivity|/Ohm.cm	Phase(Resistivity)/deg	Re(Conductivity)/mS/cm	Im(Conductivity)/mS/cm	|Conductivity|/mS/cm	Phase(Conductivity)/deg	Tan(Delta)	Loss Angle(Delta)/deg	dq/mA.h	Pwe/W	Pce/W	Pwe-ce/W	<Ewe-Ece>/V	Rwe/Ohm	Rce/Ohm	Rwe-ce/Ohm		Ewe-Ece/V
1.00002e+06	0.961447	-0.257492	0.99533	14.9929	2.69355	3.78524	0.185321	-0.618086	-0.0413658	1	9	0.000217387	0.000218407	0	2.82963e-05	-0.000192374	0.000186836	5.13703	0.855448	0.852013	-0.0765952	10.4383	1.84398	1.81346	-0.334087	0.97049	-0.259914	1.00469	-14.9929	-41.3658	154.455	159.899	-104.993	0.0000000E+000	0.0000000E+000	0.0000000E+000	104.993	0.0000000E+000	0.0000000E+000	0.0000000E+000	-104.993	0.0000000E+000	0.0000000E+000	0.0000000E+000	14.9929	0.0000000E+000	0.0000000E+000	0.0000000E+000	-14.9929	3.73389	75.0071	2.82963e-05	0.000701483	-3.56509e-08	0.000701519	3.78543	20425.3	1.03806	20426.3
630957	0.531499	0.118978	0.544653	-12.6178	3.45952	3.7841	0.0180025	2.12009	0.101169	1	9	0.000171918	0.000315646	0	3.70855e-05	-0.0001351	0.000103679	-103.716	0.328467	-0.0778816	0.319101	-44.0016	0.63062	0.453618	0.438079	1.79169	0.401075	1.83603	12.6178	101.169	451.942	463.127	-77.3822	0.0000000E+000	0.0000000E+000	0.0000000E+000	77.3822	0.0000000E+000	0.0000000E+000	0.0000000E+000	-77.3822	0.0000000E+000	0.0000000E+000	0.0000000E+000	-12.6178	0.0000000E+000	0.0000000E+000	0.0000000E+000	12.6178	4.46721	77.3822	1.78547e-06	6.81232e-05	-2.43214e-09	6.81256e-05	3.78424	210199	7.50454	210207
398103	0.7685	0.11822	0.77754	-8.74538	4.22556	3.78387	-0.0150665	3.38169	0.0781754	1	9	0.000719429	0.000925263	0	3.42843e-05	-9.69179e-05	4.42617e-05	153.751	0.0478369	-0.0429039	-0.0211571	-7.61922	0.732059	0.725596	0.0970629	1.27116	0.195545	1.28611	8.74538	78.1754	508.186	514.164	-81.2546	0.0000000E+000	0.0000000E+000	0.0000000E+000	81.2546	0.0000000E+000	0.0000000E+000	0.0000000E+000	-81.2546	0.0000000E+000	0.0000000E+000	0.0000000E+000	-8.74538	0.0000000E+000	0.0000000E+000	0.0000000E+000	8.74538	6.50059	81.2546	-2.73559e-06	-5.70094e-05	1.46021e-09	-5.70109e-05	3.78396	251145	6.43269	251152
251206	0.87686	0.318565	0.932935	-19.9662	4.99155	3.78364	-0.0448955	1.9888	0.231892	1	9	0.00232682	0.00249409	0	2.19249e-05	-0.000249648	6.3024e-05	90.8263	0.0252694	-0.000364398	-0.0252667	-18.5016	0.924266	0.876495	0.293298	1.00746	0.366012	1.07189	19.9662	231.892	638.289	679.108	-70.0338	0.0000000E+000	0.0000000E+000	0.0000000E+000	70.0338	0.0000000E+000	0.0000000E+000	0.0000000E+000	-70.0338	0.0000000E+000	0.0000000E+000	0.0000000E+000	-19.9662	0.0000000E+000	0.0000000E+000	0.0000000E+000	19.9662	2.75253	70.0338	-7.31325e-06	-0.000169868	1.12081e-08	-0.000169879	3.78389	84276.6	5.56064	84282.1
158486	0.997194	0.48613	1.10938	-25.9892	5.75755	3.78349	-0.0664945	2.06574	0.396664	1	9	0.00517437	0.00466421	0	1.15367e-05	0.00018945	5.96205e-05	80.3687	0.0127825	0.00213861	-0.0126024	-25.3537	1.10585	0.999332	0.473528	0.810254	0.394997	0.901407	25.9892	396.664	813.673	905.21	-64.0108	0.0000000E+000	0.0000000E+000	0.0000000E+000	64.0108	0.0000000E+000	0.0000000E+000	0.0000000E+000	-64.0108	0.0000000E+000	0.0000000E+000	0.0000000E+000	-25.9892	0.0000000E+000	0.0000000E+000	0.0000000E+000	25.9892	2.05129	64.0108	2.69813e-06	-0.000251582	-1.25974e-08	-0.000251569	3.7833	56899.3	2.84911	56896.4
100004	1.18777	0.630696	1.34483	-27.968	6.52354	3.78342	-0.0615417	2.52339	0.554996	1	9	0.00536636	0.00399037	0	5.62209e-06	-2.0553e-05	4.02685e-05	58.3514	0.0100914	0.00529505	-0.00859065	-27.5392	1.34551	1.19306	0.622106	0.656745	0.348727	0.743589	27.968	554.996	1045.2	1183.41	-62.032	0.0000000E+000	0.0000000E+000	0.0000000E+000	62.032	0.0000000E+000	0.0000000E+000	0.0000000E+000	-62.032	0.0000000E+000	0.0000000E+000	0.0000000E+000	-27.968	0.0000000E+000	0.0000000E+000	0.0000000E+000	27.968	1.88326	62.032	-1.39974e-05	-0.000232838	1.26487e-09	-0.000232839	3.78344	61477.4	0.333969	61477.8
63093.8	1.4382	0.746785	1.62053	-27.4405	7.28953	3.78339	-0.0574081	3.37783	0.717323	1	9	0.00528076	0.00325866	0	-2.05283e-05	-0.000345104	1.64286e-05	52.1254	0.00504152	0.00309517	-0.00397956	-27.2653	1.62145	1.4413	0.742806	0.547654	0.284368	0.617082	27.4405	717.323	1381.46	1556.6	-62.5595	0.0000000E+000	0.0000000E+000	0.0000000E+000	62.5595	0.0000000E+000	0.0000000E+000	0.0000000E+000	-62.5595	0.0000000E+000	0.0000000E+000	0.0000000E+000	-27.4405	0.0000000E+000	0.0000000E+000	0.0000000E+000	27.4405	1.92586	62.5595	-8.07974e-06	-0.000217197	1.98117e-08	-0.000217217	3.78374	65903.5	6.01142	65909.5
39814.1	1.73609	0.795657	1.90974	-24.6221	8.05556	3.78341	-0.0564398	5.0241	0.872094	1	9	0.00523707	0.0027423	0	-3.99747e-05	-2.0553e-05	8.37283e-06	13.2068	0.00305321	0.00297246	-0.000697558	-24.566	1.91215	1.73907	0.794959	0.476022	0.218162	0.523633	24.6221	872.094	1902.88	2093.2	-65.3779	0.0000000E+000	0.0000000E+000	0.0000000E+000	65.3779	0.0000000E+000	0.0000000E+000	0.0000000E+000	-65.3779	0.0000000E+000	0.0000000E+000	0.0000000E+000	-24.6221	0.0000000E+000	0.0000000E+000	0.0000000E+000	24.6221	2.18196	65.3779	-1.11404e-05	-0.000213535	1.16001e-09	-0.000213536	3.78343	67034.3	0.364158	67034.7
25116.9	2.00622	0.778621	2.15202	-21.2114	8.82155	3.78339	-0.0568867	8.13819	1.06534	1	9	0.00519478	0.00241391	0	-5.02238e-05	-2.0553e-05	1.30961e-05	20.6551	0.00542527	0.00507654	-0.00191372	-21.1152	2.15606	2.0113	0.776707	0.433199	0.168126	0.46468	21.2114	1065.34	2744.99	2944.48	-68.7886	0.0000000E+000	0.0000000E+000	0.0000000E+000	68.7886	0.0000000E+000	0.0000000E+000	0.0000000E+000	-68.7886	0.0000000E+000	0.0000000E+000	0.0000000E+000	-21.2114	0.0000000E+000	0.0000000E+000	0.0000000E+000	21.2114	2.57664	68.7886	-4.95094e-06	-0.000215225	1.16919e-09	-0.000215226	3.78341	66507.5	0.361297	66507.9
15847.7	2.24812	0.715944	2.35937	-17.6648	9.58755	3.78339	-0.0562909	14.0273	1.29164	1	9	0.00515802	0.00218619	0	-5.80027e-05	9.39943e-05	4.65644e-05	-84.0422	0.0212994	0.00221077	0.0211843	-18.137	2.36798	2.25033	0.737128	0.403858	0.128614	0.423843	17.6648	1291.64	4055.86	4256.56	-72.3352	0.0000000E+000	0.0000000E+000	0.0000000E+000	72.3352	0.0000000E+000	0.0000000E+000	0.0000000E+000	-72.3352	0.0000000E+000	0.0000000E+000	0.0000000E+000	-17.6648	0.0000000E+000	0.0000000E+000	0.0000000E+000	17.6648	3.14008	72.3352	-5.49381e-06	-0.00021297	-5.29102e-09	-0.000212965	3.78329	67211.4	1.6698	67209.7
10002.2	2.42236	0.692732	2.51947	-15.9591	10.3535	3.7834	-0.0605735	22.9699	1.73648	1	9	0.00509103	0.00202067	0	-7.18201e-05	-3.96442e-05	5.61923e-06	-60.3452	0.00278087	0.0013759	0.00241664	-16.0033	2.52146	2.42374	0.695149	0.381611	0.109131	0.396909	15.9591	1736.48	6072.18	6315.6	-74.0409	0.0000000E+000	0.0000000E+000	0.0000000E+000	74.0409	0.0000000E+000	0.0000000E+000	0.0000000E+000	-74.0409	0.0000000E+000	0.0000000E+000	0.0000000E+000	-15.9591	0.0000000E+000	0.0000000E+000	0.0000000E+000	15.9591	3.49683	74.0409	-8.88178e-06	-0.000229174	2.40139e-09	-0.000229176	3.78344	62459.7	0.654482	62460.3
6309.38	2.57723	0.689809	2.66795	-14.9843	10.9955	3.78339	-0.0532372	36.5683	2.4446	1	9	0.00541997	0.00203151	0	-8.21026e-05	-5.87355e-05	1.33197e-05	-75.5071	0.00655655	0.00164084	0.00634792	-15.1067	2.67118	2.57887	0.696157	0.362075	0.0969111	0.37482	14.9843	2444.6	9133.38	9454.87	-75.0157	0.0000000E+000	0.0000000E+000	0.0000000E+000	75.0157	0.0000000E+000	0.0000000E+000	0.0000000E+000	-75.0157	0.0000000E+000	0.0000000E+000	0.0000000E+000	-14.9843	0.0000000E+000	0.0000000E+000	0.0000000E+000	14.9843	3.73615	75.0157	-2.77342e-06	-0.000201417	3.12691e-09	-0.00020142	3.78345	71066.5	1.10328	71067.6
3983.6	2.73779	0.742349	2.83665	-15.1709	11.682	3.78335	-0.0424377	53.8191	3.68587	1	9	0.00522796	0.001843	0	-9.16101e-05	-5.87355e-05	9.00426e-06	-20.9062	0.00488564	0.004564	0.00174338	-15.1807	2.84151	2.74236	0.744092	0.340243	0.0922563	0.352528	15.1709	3685.87	13593.5	14084.4	-74.8291	0.0000000E+000	0.0000000E+000	0.0000000E+000	74.8291	0.0000000E+000	0.0000000E+000	0.0000000E+000	-74.8291	0.0000000E+000	0.0000000E+000	0.0000000E+000	-15.1709	0.0000000E+000	0.0000000E+000	0.0000000E+000	15.1709	3.68801	74.8291	-2.64109e-06	-0.000160557	2.4926e-09	-0.000160559	3.78341	89150.7	1.38404	89152.1
2510.8	2.92597	0.8332	3.04229	-15.8949	12.5069	3.78335	-0.0516359	76.0778	5.70633	1	9	0.00527789	0.00173484	0	-0.000105278	0.000113085	7.40692e-06	-65.4775	0.0042695	0.00177206	0.00388439	-15.956	3.04506	2.92774	0.837085	0.316133	0.0900221	0.3287	15.8949	5706.33	20039	20835.7	-74.1051	0.0000000E+000	0.0000000E+000	0.0000000E+000	74.1051	0.0000000E+000	0.0000000E+000	0.0000000E+000	-74.1051	0.0000000E+000	0.0000000E+000	0.0000000E+000	-15.8949	0.0000000E+000	0.0000000E+000	0.0000000E+000	15.8949	3.51172	74.1051	-6.50784e-06	-0.000195357	-5.83927e-09	-0.000195351	3.78323	73269.7	2.19005	73267.5
1585.51	3.152	0.979477	3.30068	-17.2625	13.4088	3.78335	-0.049625	102.484	9.02482	1	9	0.00525609	0.00159243	0	-0.000116525	0.000265815	1.03622e-05	-83.0906	0.00650717	0.000782811	0.00645992	-17.3655	3.30335	3.15279	0.985937	0.28932	0.0899056	0.302968	17.2625	9024.82	29042.3	30412.2	-72.7375	0.0000000E+000	0.0000000E+000	0.0000000E+000	72.7375	0.0000000E+000	0.0000000E+000	0.0000000E+000	-72.7375	0.0000000E+000	0.0000000E+000	0.0000000E+000	-17.2625	0.0000000E+000	0.0000000E+000	0.0000000E+000	17.2625	3.21805	72.7375	-4.49588e-06	-0.000187749	-1.31911e-08	-0.000187736	3.78309	76238.9	5.35648	76233.6
1000.32	3.4389	1.15855	3.62881	-18.6184	14.5568	3.78336	-0.0488496	137.331	13.998	1	10	0.00527154	0.00145269	0	-0.000129708	0.000151268	5.22046e-06	39.4442	0.00359365	0.00277517	-0.00228314	-18.5702	3.63071	3.44168	1.15626	0.261151	0.0879801	0.275572	18.6184	13998	41550.1	43844.7	-71.3816	0.0000000E+000	0.0000000E+000	0.0000000E+000	71.3816	0.0000000E+000	0.0000000E+000	0.0000000E+000	-71.3816	0.0000000E+000	0.0000000E+000	0.0000000E+000	-18.6184	0.0000000E+000	0.0000000E+000	0.0000000E+000	18.6184	2.96829	71.3816	-7.19226e-06	-0.000184815	-7.38937e-09	-0.000184808	3.78321	77449.2	3.09661	77446.1
631.01	3.83511	1.33554	4.061	-19.2002	15.4585	3.78336	-0.0487155	188.854	20.4257	1	10	0.00521747	0.00128478	0	-0.000140982	-0.000154192	5.03689e-06	70.9856	0.00392045	0.0012773	-0.00370653	-19.1449	4.06099	3.83638	1.33184	0.232547	0.0809827	0.246245	19.2002	20425.7	58653.7	62108.5	-70.7998	0.0000000E+000	0.0000000E+000	0.0000000E+000	70.7998	0.0000000E+000	0.0000000E+000	0.0000000E+000	-70.7998	0.0000000E+000	0.0000000E+000	0.0000000E+000	-19.2002	0.0000000E+000	0.0000000E+000	0.0000000E+000	19.2002	2.87157	70.7998	-4.92322e-06	-0.000184309	7.51152e-09	-0.000184316	3.78352	77662.4	3.16514	77665.6
398.089	4.32472	1.46423	4.56587	-18.7047	16.3599	3.78336	-0.0470921	273.042	28.0804	1	10	0.00516351	0.00113089	0	-0.000152695	-7.78267e-05	5.38331e-06	-150.554	0.00476024	-0.00414532	0.00234012	-18.7493	4.56269	4.32057	1.46657	0.207449	0.0702367	0.219016	18.7047	28080.4	82937.5	87562.2	-71.2953	0.0000000E+000	0.0000000E+000	0.0000000E+000	71.2953	0.0000000E+000	0.0000000E+000	0.0000000E+000	-71.2953	0.0000000E+000	0.0000000E+000	0.0000000E+000	-18.7047	0.0000000E+000	0.0000000E+000	0.0000000E+000	18.7047	2.95357	71.2953	-6.60785e-06	-0.000178167	3.66502e-09	-0.00017817	3.78344	80339.7	1.65265	80341.3
251.044	4.89876	1.45737	5.11095	-16.5676	17.2581	3.78337	-0.0476394	435.011	35.3701	1	10	0.00514841	0.00100733	0	-0.000164576	-9.69179e-05	7.70181e-06	139.32	0.00764576	-0.00579829	-0.00498373	-16.5325	5.10397	4.89297	1.45239	0.187535	0.0557913	0.195658	16.5676	35370.1	118892	124042	-73.4324	0.0000000E+000	0.0000000E+000	0.0000000E+000	73.4324	0.0000000E+000	0.0000000E+000	0.0000000E+000	-73.4324	0.0000000E+000	0.0000000E+000	0.0000000E+000	-16.5676	0.0000000E+000	0.0000000E+000	0.0000000E+000	16.5676	3.36137	73.4324	-6.44972e-06	-0.000180238	4.61711e-09	-0.000180242	3.78347	79416.8	2.0344	79418.8
158.428	5.4239	1.32218	5.58273	-13.6997	18.1629	3.78336	-0.0463847	759.796	42.617	1	10	0.0051351	0.000919819	0	-0.000177261	-5.87355e-05	8.20276e-06	71.0593	0.00891781	0.00289462	-0.00843495	-13.6086	5.58355	5.4268	1.31374	0.174028	0.0424225	0.179124	13.6997	42617	174826	179945	-76.3003	0.0000000E+000	0.0000000E+000	0.0000000E+000	76.3003	0.0000000E+000	0.0000000E+000	0.0000000E+000	-76.3003	0.0000000E+000	0.0000000E+000	0.0000000E+000	-13.6997	0.0000000E+000	0.0000000E+000	0.0000000E+000	13.6997	4.10225	76.3003	-6.24021e-06	-0.00017549	2.72442e-09	-0.000175493	3.78342	81564.9	1.26627	81566.2
100.032	5.83421	1.09084	5.93532	-10.5905	19.0618	3.78336	-0.0470847	1458.54	49.2669	1	10	0.00512808	0.000863994	0	-0.000188301	0.000418545	7.74012e-06	-64.6554	0.00895853	0.0038348	0.00809627	-10.6605	5.94058	5.83805	1.09894	0.165613	0.0309652	0.168483	10.5905	49266.9	263497	268063	-79.4095	0.0000000E+000	0.0000000E+000	0.0000000E+000	79.4095	0.0000000E+000	0.0000000E+000	0.0000000E+000	-79.4095	0.0000000E+000	0.0000000E+000	0.0000000E+000	-10.5905	0.0000000E+000	0.0000000E+000	0.0000000E+000	10.5905	5.34836	79.4095	-4.71394e-06	-0.000178138	-1.9707e-08	-0.000178119	3.78294	80352.3	8.8892	80343.4
63.0823	6.11874	0.840936	6.17626	-7.82549	19.9789	3.78336	-0.0453235	3000.2	55.6193	1	10	0.00511853	0.000828743	0	-0.000200228	-0.000249648	1.00512e-05	-77.6538	0.0121283	0.00259325	0.0118478	-7.93103	6.18045	6.12133	0.852784	0.160403	0.0220451	0.16191	7.82549	55619.3	404691	408496	-82.1745	0.0000000E+000	0.0000000E+000	0.0000000E+000	82.1745	0.0000000E+000	0.0000000E+000	0.0000000E+000	-82.1745	0.0000000E+000	0.0000000E+000	0.0000000E+000	-7.82549	0.0000000E+000	0.0000000E+000	0.0000000E+000	7.82549	7.2761	82.1745	-5.33527e-06	-0.000171475	1.13149e-08	-0.000171487	3.78361	83474.7	5.50813	83480.2
39.8089	6.31521	0.63475	6.34703	-5.73959	20.8799	3.78335	-0.0451597	6298.5	62.9942	1	10	0.00513523	0.000809075	0	-0.000211646	0.000113085	6.1193e-06	-20.5316	0.00756333	0.0070829	0.00265264	-5.757	6.35435	6.3223	0.637403	0.156764	0.0157565	0.157554	5.73959	62994.2	626738	629896	-84.2604	0.0000000E+000	0.0000000E+000	0.0000000E+000	84.2604	0.0000000E+000	0.0000000E+000	0.0000000E+000	-84.2604	0.0000000E+000	0.0000000E+000	0.0000000E+000	-5.73959	0.0000000E+000	0.0000000E+000	0.0000000E+000	5.73959	9.94914	84.2604	-5.88046e-06	-0.000170855	-5.1069e-09	-0.00017085	3.78324	83777.2	2.50413	83774.7
25.1044	6.40972	0.463955	6.42649	-4.14002	21.7591	3.78335	-0.045465	13664.5	71.2193	1	10	0.00512155	0.000796944	0	-0.000223654	3.67206e-05	1.41535e-05	-53.6764	0.0177597	0.0105198	0.0143087	-4.26027	6.43803	6.42024	0.478264	0.1552	0.0112338	0.155606	4.14002	71219.3	983923	986497	-85.86	0.0000000E+000	0.0000000E+000	0.0000000E+000	85.86	0.0000000E+000	0.0000000E+000	0.0000000E+000	-85.86	0.0000000E+000	0.0000000E+000	0.0000000E+000	-4.14002	0.0000000E+000	0.0000000E+000	0.0000000E+000	4.14002	13.8154	85.86	-4.6655e-06	-0.00017201	-1.6695e-09	-0.000172008	3.78332	83214.6	0.807668	83213.8
15.8576	6.46821	0.345087	6.47741	-3.05391	22.6371	3.78331	-0.0471405	29084	82.5486	1	10	0.00511327	0.000789401	0	-0.000237878	5.58118e-05	1.0832e-05	-39.1793	0.0137218	0.0106367	0.00866874	-3.12534	6.4885	6.47884	0.353756	0.154164	0.00822483	0.154383	3.05391	82548.7	1.54727e+06	1.54947e+06	-86.9461	0.0000000E+000	0.0000000E+000	0.0000000E+000	86.9461	0.0000000E+000	0.0000000E+000	0.0000000E+000	-86.9461	0.0000000E+000	0.0000000E+000	0.0000000E+000	-3.05391	0.0000000E+000	0.0000000E+000	0.0000000E+000	3.05391	18.7437	86.9461	-8.21914e-06	-0.000178347	-2.631e-09	-0.000178345	3.78326	80256.1	1.18395	80254.9
10.0032	6.51157	0.282366	6.51769	-2.48301	23.6188	3.78335	-0.0436777	56346.7	105.756	1	10	0.0051186	0.00078534	0	-0.000246417	5.58118e-05	8.13107e-06	18.0235	0.0103536	0.00984551	-0.00320347	-2.45117	6.52739	6.52142	0.279163	0.153285	0.006647	0.153429	2.48301	105757	2.43882e+06	2.44111e+06	-87.517	0.0000000E+000	0.0000000E+000	0.0000000E+000	87.517	0.0000000E+000	0.0000000E+000	0.0000000E+000	-87.517	0.0000000E+000	0.0000000E+000	0.0000000E+000	-2.48301	0.0000000E+000	0.0000000E+000	0.0000000E+000	2.48301	23.0607	87.517	1.14683e-06	-0.000165248	-2.43774e-09	-0.000165246	3.7833	86619.7	1.27781	86618.4
6.31058	6.56408	0.245159	6.56866	-2.13892	24.5433	3.78333	-0.0524054	102874	143.3	1	10	0.00511914	0.000779329	0	-0.000260239	0.000323089	7.02637e-06	13.5472	0.00901592	0.00876507	-0.00211195	-2.11768	6.57734	6.57284	0.243047	0.152132	0.00568191	0.152238	2.13892	143299	3.83682e+06	3.8395e+06	-87.8611	0.0000000E+000	0.0000000E+000	0.0000000E+000	87.8611	0.0000000E+000	0.0000000E+000	0.0000000E+000	-87.8611	0.0000000E+000	0.0000000E+000	0.0000000E+000	-2.13892	0.0000000E+000	0.0000000E+000	0.0000000E+000	2.13892	26.7748	87.8611	3.65885e-07	-0.000198267	-1.69316e-08	-0.00019825	3.78301	72193.5	6.16518	72187.4
3.97785	6.59769	0.221656	6.60142	-1.92418	25.5503	3.78337	-0.0405706	180506	203.506	1	10	0.00511918	0.000775467	0	-0.000276014	-9.69179e-05	4.97144e-06	109.419	0.0064109	-0.00213142	-0.00604621	-1.87234	6.59909	6.59556	0.215609	0.151397	0.00508633	0.151483	1.92418	203505	6.05745e+06	6.06086e+06	-88.0758	0.0000000E+000	0.0000000E+000	0.0000000E+000	88.0758	0.0000000E+000	0.0000000E+000	0.0000000E+000	-88.0758	0.0000000E+000	0.0000000E+000	0.0000000E+000	-1.92418	0.0000000E+000	0.0000000E+000	0.0000000E+000	1.92418	29.7655	88.0758	-1.44803e-05	-0.000153493	3.93201e-09	-0.000153497	3.78347	93254.1	2.38887	93256.5
2.51367	6.65214	0.234713	6.65628	-2.02078	27.553	3.78338	-0.0372568	269758	335.417	1	11	0.00512473	0.000769909	0	-0.000295666	9.39943e-05	4.10128e-06	6.55782	0.00532696	0.0052921	-0.00060837	-2.01394	6.66154	6.65743	0.234105	0.150141	0.00529754	0.150234	2.02078	335417	9.50626e+06	9.51217e+06	-87.9792	0.0000000E+000	0.0000000E+000	0.0000000E+000	87.9792	0.0000000E+000	0.0000000E+000	0.0000000E+000	-87.9792	0.0000000E+000	0.0000000E+000	0.0000000E+000	-2.02078	0.0000000E+000	0.0000000E+000	0.0000000E+000	2.02078	28.3416	87.9792	-4.47756e-06	-0.000140957	-3.50192e-09	-0.000140953	3.78329	101549	2.52288	101546
1.58469	6.69979	0.258495	6.70478	-2.20952	29.9883	3.78339	-0.0337884	388530	577.512	1	11	0.00512245	0.000763999	0	-0.000310585	-2.0553e-05	3.80065e-06	-9.30856	0.00497468	0.00490917	0.00080466	-2.21477	6.70971	6.7047	0.2593	0.149036	0.00575021	0.149147	2.20952	577511	1.49682e+07	1.49793e+07	-87.7905	0.0000000E+000	0.0000000E+000	0.0000000E+000	87.7905	0.0000000E+000	0.0000000E+000	0.0000000E+000	-87.7905	0.0000000E+000	0.0000000E+000	0.0000000E+000	-2.20952	0.0000000E+000	0.0000000E+000	0.0000000E+000	2.20952	25.9184	87.7905	-1.51083e-05	-0.000127835	6.94455e-10	-0.000127835	3.78341	111973	0.608285	111973
1.00469	6.76817	0.286994	6.77425	-2.42808	240.806	3.78337	-0.0232863	551968	990.687	1	11	0.00507523	0.000749194	0	-0.00458764	0.000265815	6.56482e-07	-4.07227	0.00087625	0.000874038	6.22267e-05	-2.4283	6.77512	6.76904	0.287056	0.147485	0.00625389	0.147618	2.42808	990687	2.33634e+07	2.33844e+07	-87.5719	0.0000000E+000	0.0000000E+000	0.0000000E+000	87.5719	0.0000000E+000	0.0000000E+000	0.0000000E+000	-87.5719	0.0000000E+000	0.0000000E+000	0.0000000E+000	-2.42808	0.0000000E+000	0.0000000E+000	0.0000000E+000	2.42808	23.583	87.5719	-0.00424416	-8.81005e-05	-6.18984e-09	-8.80943e-05	3.7831	162472	11.4151	162461
0.632957	6.84016	0.35313	6.84927	-2.95533	240.807	3.78337	-0.0232863	712051	1892.74	1	11	0.00508927	0.000743038	0	-0.00458764	0.000265815	9.31624e-07	2.46698	0.0012538	0.00125264	-5.39682e-05	-2.95434	6.85052	6.84141	0.353076	0.145807	0.00752742	0.146001	2.95533	1.89275e+06	3.66626e+07	3.67115e+07	-87.0447	0.0000000E+000	0.0000000E+000	0.0000000E+000	87.0447	0.0000000E+000	0.0000000E+000	0.0000000E+000	-87.0447	0.0000000E+000	0.0000000E+000	0.0000000E+000	-2.95533	0.0000000E+000	0.0000000E+000	0.0000000E+000	2.95533	19.3701	87.0447	0.000000000000000E+000	-8.81005e-05	-6.18984e-09	-8.80943e-05	3.7831	162472	11.4151	162461
0.401878	6.89617	0.447952	6.91071	-3.71651	240.807	3.78337	-0.0232863	884088	3714.6	1	11	0.00510247	0.000738343	0	-0.00458764	0.000265815	7.75583e-07	-6.51201	0.00105044	0.00104366	0.000119132	-3.71694	6.91176	6.89722	0.448071	0.144399	0.00937964	0.144703	3.71651	3.7146e+06	5.7186e+07	5.73065e+07	-86.2835	0.0000000E+000	0.0000000E+000	0.0000000E+000	86.2835	0.0000000E+000	0.0000000E+000	0.0000000E+000	-86.2835	0.0000000E+000	0.0000000E+000	0.0000000E+000	-3.71651	0.0000000E+000	0.0000000E+000	0.0000000E+000	3.71651	15.3949	86.2835	0.000000000000000E+000	-8.81005e-05	-6.18984e-09	-8.80943e-05	3.7831	162472	11.4151	162461
0.251173	7.01807	0.597848	7.04349	-4.8691	240.808	3.78337	-0.0232863	1.05988e+06	7635.93	1	11	0.00510488	0.000724766	0	-0.00458764	0.000265815	8.79922e-07	-4.69087	0.00121408	0.00121001	9.92869e-05	-4.86907	7.0447	7.01928	0.597948	0.141463	0.0120508	0.141975	4.8691	7.63594e+06	8.96373e+07	8.99619e+07	-85.1309	0.0000000E+000	0.0000000E+000	0.0000000E+000	85.1309	0.0000000E+000	0.0000000E+000	0.0000000E+000	-85.1309	0.0000000E+000	0.0000000E+000	0.0000000E+000	-4.8691	0.0000000E+000	0.0000000E+000	0.0000000E+000	4.8691	11.7389	85.1309	0.000000000000000E+000	-8.81005e-05	-6.18984e-09	-8.80943e-05	3.7831	162472	11.4151	162461
0.160751	7.1602	0.675901	7.19204	-5.39257	240.808	3.78337	-0.0232863	1.46482e+06	12937.4	1	11	0.00509649	0.00070863	0	-0.00458764	0.000265815	5.77041e-07	3.92991	0.000814306	0.000812391	-5.58093e-05	-5.39152	7.19284	7.16102	0.675846	0.138427	0.0130671	0.139043	5.39257	1.29374e+07	1.37053e+08	1.37662e+08	-84.6074	0.0000000E+000	0.0000000E+000	0.0000000E+000	84.6074	0.0000000E+000	0.0000000E+000	0.0000000E+000	-84.6074	0.0000000E+000	0.0000000E+000	0.0000000E+000	-5.39257	0.0000000E+000	0.0000000E+000	0.0000000E+000	5.39257	10.5936	84.6074	0.000000000000000E+000	-8.81005e-05	-6.18984e-09	-8.80943e-05	3.7831	162472	11.4151	162461
0.100469	7.2924	0.9738	7.35713	-7.60607	240.809	3.78337	-0.0232863	1.62673e+06	28499.7	1	11	0.00509982	0.00069318	0	-0.00458764	0.000265815	7.19227e-07	-33.8905	0.00103758	0.000861296	0.00057856	-7.60965	7.35806	7.29326	0.974379	0.134727	0.0179909	0.135923	7.60607	2.84996e+07	2.13422e+08	2.15317e+08	-82.3939	0.0000000E+000	0.0000000E+000	0.0000000E+000	82.3939	0.0000000E+000	0.0000000E+000	0.0000000E+000	-82.3939	0.0000000E+000	0.0000000E+000	0.0000000E+000	-7.60607	0.0000000E+000	0.0000000E+000	0.0000000E+000	7.60607	7.4886	82.3939	0.000000000000000E+000	-8.81005e-05	-6.18984e-09	-8.80943e-05	3.7831	162472	11.4151	162461
0.0602816	7.59596	1.205	7.69094	-9.01412	240.81	3.78337	-0.0232863	2.19103e+06	53785.3	1	11	0.00509469	0.000662428	0	-0.00458764	0.000265815	4.55745e-07	5.98944	0.000687992	0.000684236	-7.17886e-05	-9.0128	7.69161	7.59664	1.20493	0.128417	0.0203717	0.130023	9.01412	5.37853e+07	3.39046e+08	3.43286e+08	-80.9859	0.0000000E+000	0.0000000E+000	0.0000000E+000	80.9859	0.0000000E+000	0.0000000E+000	0.0000000E+000	-80.9859	0.0000000E+000	0.0000000E+000	0.0000000E+000	-9.01412	0.0000000E+000	0.0000000E+000	0.0000000E+000	9.01412	6.30369	80.9859	0.000000000000000E+000	-8.81005e-05	-6.18984e-09	-8.80943e-05	3.7831	162472	11.4151	162461
0.0401878	7.96833	1.44959	8.09911	-10.3104	240.81	3.78337	-0.0232863	2.732e+06	87518	1	11	0.00509392	0.000628948	0	-0.00458764	0.000265815	1.35998e-06	2.70103	0.00216231	0.00215991	-0.000101898	-10.307	8.10121	7.97049	1.44949	0.121477	0.0220989	0.12347	10.3104	8.7518e+07	4.81082e+08	4.88978e+08	-79.6896	0.0000000E+000	0.0000000E+000	0.0000000E+000	79.6896	0.0000000E+000	0.0000000E+000	0.0000000E+000	-79.6896	0.0000000E+000	0.0000000E+000	0.0000000E+000	-10.3104	0.0000000E+000	0.0000000E+000	0.0000000E+000	10.3104	5.49695	79.6896	0.000000000000000E+000	-8.81005e-05	-6.18984e-09	-8.80943e-05	3.7831	162472	11.4151	162461
0.0200939	8.89308	2.18547	9.15769	-13.8068	240.811	3.78337	-0.0232863	3.6242e+06	206409	1	11	0.00509408	0.000556262	0	-0.00458764	0.000265815	1.40353e-06	-54.0615	0.00252314	0.00148088	0.00204286	-13.817	9.15961	8.89456	2.18751	0.106043	0.0260599	0.109198	13.8068	2.06409e+08	8.39919e+08	8.6491e+08	-76.1932	0.0000000E+000	0.0000000E+000	0.0000000E+000	76.1932	0.0000000E+000	0.0000000E+000	0.0000000E+000	-76.1932	0.0000000E+000	0.0000000E+000	0.0000000E+000	-13.8068	0.0000000E+000	0.0000000E+000	0.0000000E+000	13.8068	4.06919	76.1932	0.000000000000000E+000	-8.81005e-05	-6.18984e-09	-8.80943e-05	3.7831	162472	11.4151	162461
0.00796479	10.7179	2.45308	10.9951	-12.8916	20329.7	3.78337	0.000393688	8.1458e+06	405473	1	11	0.00508764	0.000462719	0	-0.0285945	-3.96442e-05	2.16619e-07	-118.022	0.000468144	-0.00021994	0.000413262	-12.894	10.995	10.7177	2.4535	0.0886573	0.0202916	0.0909498	12.8916	4.05473e+08	1.77158e+09	1.81739e+09	-77.1084	0.0000000E+000	0.0000000E+000	0.0000000E+000	77.1084	0.0000000E+000	0.0000000E+000	0.0000000E+000	-77.1084	0.0000000E+000	0.0000000E+000	0.0000000E+000	-12.8916	0.0000000E+000	0.0000000E+000	0.0000000E+000	12.8916	4.36917	77.1084	-0.0240069	1.48947e-06	-1.56075e-11	1.48948e-06	3.78341	9.61006e+06	100.7	9.61016e+06
0.00497799	11.6411	2.22291	11.8514	-10.8107	20329.7	3.78337	0.000393688	1.43828e+07	505997	1	11	0.0050962	0.000430008	0	-0.0285945	-3.96442e-05	4.06654e-07	-50.7334	0.00094569	0.000598555	0.000732162	-10.8137	11.8521	11.6417	2.22364	0.0828807	0.0158264	0.0843782	10.8107	5.05997e+08	2.64984e+09	2.69772e+09	-79.1893	0.0000000E+000	0.0000000E+000	0.0000000E+000	79.1893	0.0000000E+000	0.0000000E+000	0.0000000E+000	-79.1893	0.0000000E+000	0.0000000E+000	0.0000000E+000	-10.8107	0.0000000E+000	0.0000000E+000	0.0000000E+000	10.8107	5.23686	79.1893	0.000000000000000E+000	1.48947e-06	-1.56075e-11	1.48948e-06	3.78341	9.61006e+06	100.7	9.61016e+06
0.00318591	12.1569	3.05151	12.5341	-14.0907	20329.7	3.78337	0.000393688	1.63709e+07	970325	1	11	0.00509893	0.000406807	0	-0.0285945	-3.96442e-05	4.80314e-07	-41.3411	0.00118069	0.000886454	0.000779897	-14.0932	12.5351	12.1578	3.05229	0.0773821	0.0194237	0.0797827	14.0907	9.70325e+08	3.86569e+09	3.98561e+09	-75.9093	0.0000000E+000	0.0000000E+000	0.0000000E+000	75.9093	0.0000000E+000	0.0000000E+000	0.0000000E+000	-75.9093	0.0000000E+000	0.0000000E+000	0.0000000E+000	-14.0907	0.0000000E+000	0.0000000E+000	0.0000000E+000	14.0907	3.98391	75.9093	0.000000000000000E+000	1.48947e-06	-1.56075e-11	1.48948e-06	3.78341	9.61006e+06	100.7	9.61016e+06
0.0019912	12.6028	3.33259	13.0359	-14.8119	20329.7	3.78337	0.000393688	2.39842e+07	1.56748e+06	1	11	0.00510074	0.000391283	0	-0.0285945	-3.96442e-05	7.87398e-07	-31.0895	0.00201235	0.0017233	0.00103913	-14.8143	13.0379	12.6045	3.33363	0.0741619	0.0196108	0.076711	14.8119	1.56748e+09	5.92771e+09	6.13146e+09	-75.1881	0.0000000E+000	0.0000000E+000	0.0000000E+000	75.1881	0.0000000E+000	0.0000000E+000	0.0000000E+000	-75.1881	0.0000000E+000	0.0000000E+000	0.0000000E+000	-14.8119	0.0000000E+000	0.0000000E+000	0.0000000E+000	14.8119	3.78168	75.1881	0.000000000000000E+000	1.48947e-06	-1.56075e-11	1.48948e-06	3.78341	9.61006e+06	100.7	9.61016e+06
0.00129428	12.5182	3.94366	13.1247	-17.4862	20329.7	3.78337	0.000393688	3.11812e+07	2.81524e+06	1	11	0.00510138	0.000388686	0	-0.0285945	-3.96442e-05	5.06132e-07	1.25363	0.00130216	0.00130185	-2.84891e-05	-17.4844	13.1259	12.5195	3.94363	0.0726714	0.022894	0.0761923	17.4862	2.81524e+09	8.93627e+09	9.36923e+09	-72.5138	0.0000000E+000	0.0000000E+000	0.0000000E+000	72.5138	0.0000000E+000	0.0000000E+000	0.0000000E+000	-72.5138	0.0000000E+000	0.0000000E+000	0.0000000E+000	-17.4862	0.0000000E+000	0.0000000E+000	0.0000000E+000	17.4862	3.17425	72.5138	0.000000000000000E+000	1.48947e-06	-1.56075e-11	1.48948e-06	3.78341	9.61006e+06	100.7	9.61016e+06
0.000796479	13.6173	5.0981	14.5404	-20.525	20329.7	3.78337	0.000393688	3.91956e+07	4.8184e+06	1	11	0.00510108	0.000350821	0	-0.0285945	-3.96442e-05	8.30381e-07	-58.5881	0.00236696	0.00123363	0.00202007	-20.5308	14.5422	13.6186	5.10012	0.0644081	0.0241133	0.068774	20.525	4.8184e+09	1.28702e+10	1.37426e+10	-69.475	0.0000000E+000	0.0000000E+000	0.0000000E+000	69.475	0.0000000E+000	0.0000000E+000	0.0000000E+000	-69.475	0.0000000E+000	0.0000000E+000	0.0000000E+000	-20.525	0.0000000E+000	0.0000000E+000	0.0000000E+000	20.525	2.67106	69.475	0.000000000000000E+000	1.48947e-06	-1.56075e-11	1.48948e-06	3.78341	9.61006e+06	100.7	9.61016e+06
0.000497799	13.1486	7.26629	15.0228	-28.9263	20329.7	3.78337	0.000393688	4.40001e+07	1.02939e+07	1	11	0.00510029	0.000339504	0	-0.0285945	-3.96442e-05	4.75996e-07	53.9725	0.00140203	0.000824639	-0.00113387	-28.921	15.0229	13.1494	7.26515	0.058261	0.0321968	0.0665656	28.9263	1.02939e+10	1.86271e+10	2.12822e+10	-61.0737	0.0000000E+000	0.0000000E+000	0.0000000E+000	61.0737	0.0000000E+000	0.0000000E+000	0.0000000E+000	-61.0737	0.0000000E+000	0.0000000E+000	0.0000000E+000	-28.9263	0.0000000E+000	0.0000000E+000	0.0000000E+000	28.9263	1.80953	61.0737	0.000000000000000E+000	1.48947e-06	-1.56075e-11	1.48948e-06	3.78341	9.61006e+06	100.7	9.61016e+06
0.000298679	13.0454	10.9877	17.0561	-40.1062	20329.7	3.78337	0.000393688	4.84964e+07	2.01261e+07	1	11	0.00510083	0.000299062	0	-0.0285945	-3.96442e-05	1.60839e-06	-40.0151	0.00537813	0.00411897	0.00345808	-40.1062	17.0615	13.0495	10.9911	0.0448433	0.0377699	0.05863	40.1062	2.01261e+10	2.38953e+10	3.12417e+10	-49.8938	0.0000000E+000	0.0000000E+000	0.0000000E+000	49.8938	0.0000000E+000	0.0000000E+000	0.0000000E+000	-49.8938	0.0000000E+000	0.0000000E+000	0.0000000E+000	-40.1062	0.0000000E+000	0.0000000E+000	0.0000000E+000	40.1062	1.18728	49.8938	0.000000000000000E+000	1.48947e-06	-1.56075e-11	1.48948e-06	3.78341	9.61006e+06	100.7	9.61016e+06
9.95598e-05	15.8528	36.6879	39.9664	-66.6308	20329.7	3.78337	0.000393688	4.35725e+07	3.67171e+07	1	11	0.00510066	0.000127624	0	-0.0285945	-3.96442e-05	6.22236e-07	79.9347	0.00487555	0.000852098	-0.00480051	-66.627	39.9624	15.8537	36.6831	0.00992468	0.0229685	0.025021	66.6308	3.67171e+10	1.58654e+10	3.99982e+10	-23.3692	0.0000000E+000	0.0000000E+000	0.0000000E+000	23.3692	0.0000000E+000	0.0000000E+000	0.0000000E+000	-23.3692	0.0000000E+000	0.0000000E+000	0.0000000E+000	-66.6308	0.0000000E+000	0.0000000E+000	0.0000000E+000	66.6308	0.4321	23.3692	0.000000000000000E+000	1.48947e-06	-1.56075e-11	1.48948e-06	3.78341	9.61006e+06	100.7	9.61016e+06