File: txt/17612_R291_UC85_SOC50_C07.mpt
EC-Lab ASCII FILE
Nb header lines : 64

Potentio Electrochemical Impedance Spectroscopy

Run on channel : 7 (SN 66126)
User :
CE vs. WE compliance from -10 V to 10 V
Electrode connection : standard
Potential control : Ewe
Ewe ctrl range : min = -10.00 V, max = 10.00 V
Safety Limits :
	Do not start on E overload
Acquisition started on : 09/17/2025 17:34:55.865
Loaded Setting File :  C:\Users\Celltest\OneDrive - store-dot.com\Documents\EC-Lab\Data\Michael\R290\17544_R290_UC82_50SOC.mps
Saved on :
	File : 17612_R291_UC85_SOC50_C07.mpr
	Directory : C:\Users\Celltest\OneDrive - store-dot.com\Documents\EC-Lab\Data\Gyutae\
	Host : 169.254.61.224
Device : VMP-3e (SN .003165)
Address : USB
EC-LAB for windows v11.62 (software)
Internet server v27.00 (firmware)
Command interpretor v12.03 (firmware)
Electrode material :
Initial state :
Electrolyte :
Comments :
Electrode surface area : 0.001 cm²
Characteristic mass : 0.001 g
Equivalent Weight : 0.000 g/eq.
Density : 0.000 g/cm3
Volume (V) : 0.001 cm³
Record Ece
Cycle Definition : Charge/Discharge alternance
Mode                Multi sine
E (V)               0.0000
vs.                 Eoc
tE (h:m:s)          0:00:0.0000
record              0
dI                  0.000
unit dI             mA
dt (s)              0.000
fi                  1.000
unit fi             MHz
ff                  0.100
unit ff             mHz
Nd                  10
Points              per decade
spacing             Logarithmic
Va (mV)             5.0
pw                  0.10
Na                  2
corr                0
E range min (V)     -10.000
E range max (V)     10.000
I Range             Auto
Bandwidth           5
nc cycles           0
goto Ns'            0
nr cycles           0
inc. cycle          0

freq/Hz	Re(Z)/Ohm	-Im(Z)/Ohm	|Z|/Ohm	Phase(Z)/deg	time/s	<Ewe>/V	<I>/mA	Cs/µF	Cp/µF	cycle number	I Range	|Ewe|/V	|I|/A	Ns	(Q-Qo)/mA.h	<Ece>/V	|Ece|/V	Phase(Zce)/deg	|Zce|/Ohm	Re(Zce)/Ohm	-Im(Zce)/Ohm	Phase(Zwe-ce)/deg	|Zwe-ce|/Ohm	Re(Zwe-ce)/Ohm	-Im(Zwe-ce)/Ohm	Re(Y)/Ohm-1	Im(Y)/Ohm-1	|Y|/Ohm-1	Phase(Y)/deg	Re(C)/nF	Im(C)/nF	|C|/nF	Phase(C)/deg	Re(M)	Im(M)	|M|	Phase(M)/deg	Re(Permittivity)	Im(Permittivity)	|Permittivity|	Phase(Permittivity)/deg	Re(Resistivity)/Ohm.cm	Im(Resistivity)/Ohm.cm	|Resistivity|/Ohm.cm	Phase(Resistivity)/deg	Re(Conductivity)/mS/cm	Im(Conductivity)/mS/cm	|Conductivity|/mS/cm	Phase(Conductivity)/deg	Tan(Delta)	Loss Angle(Delta)/deg	dq/mA.h	Pwe/W	Pce/W	Pwe-ce/W	<Ewe-Ece>/V	Rwe/Ohm	Rce/Ohm	Rwe-ce/Ohm		Ewe-Ece/V
1.00002e+06	2.5696	2.8939	3.87008	-48.397	2.23356	3.78294	-0.0709215	0.0549956	0.0307508	1	10	0.000229095	5.91965e-05	0	-3.00662e-05	-0.000441049	0.000197885	-63.0465	3.34285	1.5152	2.97973	-55.1834	7.15438	4.0848	5.87363	0.171564	0.193217	0.258393	48.397	30.7508	27.3047	41.1237	-41.603	0.0000000E+000	0.0000000E+000	0.0000000E+000	41.603	0.0000000E+000	0.0000000E+000	0.0000000E+000	-41.603	0.0000000E+000	0.0000000E+000	0.0000000E+000	-48.397	0.0000000E+000	0.0000000E+000	0.0000000E+000	48.397	0.887934	41.603	-3.00662e-05	-0.000268292	3.12799e-08	-0.000268323	3.78338	53339.8	6.21883	53346
630957	0.891096	0.00419448	0.891106	-0.269695	3.40453	3.78301	-0.00431213	60.1371	0.00133242	1	9	0.000285205	0.000320057	0	-3.55319e-05	-0.000116767	0.000124291	-95.6232	0.388342	-0.0380519	0.386473	-24.6063	0.938246	0.853044	0.390668	1.12219	0.00528226	1.1222	0.269695	1.3324	283.065	283.068	-89.7303	0.0000000E+000	0.0000000E+000	0.0000000E+000	89.7303	0.0000000E+000	0.0000000E+000	0.0000000E+000	-89.7303	0.0000000E+000	0.0000000E+000	0.0000000E+000	-0.269695	0.0000000E+000	0.0000000E+000	0.0000000E+000	0.269695	212.445	89.7303	1.13489e-08	-1.63129e-05	5.03513e-10	-1.63134e-05	3.78313	877294	27.0786	877321
398103	1.16939	0.124925	1.17605	-6.09773	4.17054	3.78319	0.0225351	3.20018	0.0361098	1	9	0.00107241	0.000911878	0	-3.12447e-05	-0.000250295	4.99228e-05	-1.37446	0.0547473	0.0547315	0.0013132	-5.88784	1.23062	1.22412	0.126238	0.845496	0.0903235	0.850307	6.09773	36.1098	338.015	339.938	-83.9023	0.0000000E+000	0.0000000E+000	0.0000000E+000	83.9023	0.0000000E+000	0.0000000E+000	0.0000000E+000	-83.9023	0.0000000E+000	0.0000000E+000	0.0000000E+000	-6.09773	0.0000000E+000	0.0000000E+000	0.0000000E+000	6.09773	9.36075	83.9023	2.00151e-06	8.52545e-05	-5.64041e-09	8.52602e-05	3.78344	167880	11.1069	167891
251206	1.32599	0.356286	1.37303	-15.0398	4.93754	3.78308	0.0191467	1.77824	0.119738	1	9	0.0033475	0.00243805	0	-2.9699e-05	-0.000326596	4.89069e-05	101.308	0.0200599	-0.00393332	-0.0196704	-14.2848	1.36424	1.32206	0.336616	0.70337	0.188991	0.728318	15.0398	119.738	445.629	461.435	-74.9602	0.0000000E+000	0.0000000E+000	0.0000000E+000	74.9602	0.0000000E+000	0.0000000E+000	0.0000000E+000	-74.9602	0.0000000E+000	0.0000000E+000	0.0000000E+000	-15.0398	0.0000000E+000	0.0000000E+000	0.0000000E+000	15.0398	3.72171	74.9602	1.98917e-06	7.24334e-05	-6.25323e-09	7.24396e-05	3.78341	197584	17.0576	197601
158486	1.4895	0.517813	1.57694	-19.1696	5.70355	3.7831	0.0238384	1.93935	0.209108	1	9	0.00536489	0.00340209	0	-2.79369e-05	-0.000173993	4.42112e-05	96.1247	0.0129953	-0.00138651	-0.0129211	-18.7412	1.57143	1.48811	0.504892	0.598977	0.20823	0.63414	19.1696	209.108	601.505	636.816	-70.8304	0.0000000E+000	0.0000000E+000	0.0000000E+000	70.8304	0.0000000E+000	0.0000000E+000	0.0000000E+000	-70.8304	0.0000000E+000	0.0000000E+000	0.0000000E+000	-19.1696	0.0000000E+000	0.0000000E+000	0.0000000E+000	19.1696	2.87652	70.8304	-7.75711e-06	9.01832e-05	-4.14771e-09	9.01874e-05	3.78328	158698	7.29884	158705
100004	1.69935	0.631839	1.81302	-20.3957	6.46951	3.78315	0.0362008	2.51882	0.30592	1	9	0.0054401	0.00300058	0	-3.21975e-05	-9.76912e-05	4.37425e-05	101.655	0.014578	-0.0029449	-0.0142775	-20.0035	1.80532	1.69641	0.617561	0.516989	0.192222	0.551567	20.3957	305.92	822.782	877.814	-69.6043	0.0000000E+000	0.0000000E+000	0.0000000E+000	69.6043	0.0000000E+000	0.0000000E+000	0.0000000E+000	-69.6043	0.0000000E+000	0.0000000E+000	0.0000000E+000	-20.3957	0.0000000E+000	0.0000000E+000	0.0000000E+000	20.3957	2.68954	69.6043	-1.81376e-06	0.000136953	-3.5365e-09	0.000136956	3.78325	104505	2.69859	104507
63093.8	1.94743	0.694081	2.06742	-19.6165	7.23552	3.78316	0.0326261	3.63432	0.409623	1	9	0.005466	0.00264387	0	-3.63693e-05	-0.00026937	2.45767e-05	73.4585	0.00929573	0.00264659	-0.00891102	-19.3592	2.06695	1.95008	0.68517	0.455621	0.162387	0.483694	19.6165	409.623	1149.31	1220.12	-70.3835	0.0000000E+000	0.0000000E+000	0.0000000E+000	70.3835	0.0000000E+000	0.0000000E+000	0.0000000E+000	-70.3835	0.0000000E+000	0.0000000E+000	0.0000000E+000	-19.6165	0.0000000E+000	0.0000000E+000	0.0000000E+000	19.6165	2.80577	70.3835	1.8829e-06	0.00012343	-8.7885e-09	0.000123439	3.78343	115955	8.25627	115963
39814.1	2.20401	0.700179	2.31256	-17.6242	8.12552	3.78316	0.0335942	5.70919	0.523369	1	9	0.00502388	0.00217244	0	-2.87582e-05	-0.000116767	1.15712e-05	16.2527	0.00532636	0.0051135	-0.00149071	-17.5508	2.31698	2.20912	0.698688	0.412125	0.130926	0.432422	17.6242	523.369	1647.45	1728.59	-72.3758	0.0000000E+000	0.0000000E+000	0.0000000E+000	72.3758	0.0000000E+000	0.0000000E+000	0.0000000E+000	-72.3758	0.0000000E+000	0.0000000E+000	0.0000000E+000	-17.6242	0.0000000E+000	0.0000000E+000	0.0000000E+000	17.6242	3.14778	72.3758	6.0239e-06	0.000127092	-3.92268e-09	0.000127096	3.78328	112613	3.47579	112617
25116.9	2.42064	0.683129	2.51519	-15.7596	8.76752	3.78316	0.0331102	9.2758	0.68425	1	9	0.00517423	0.00205719	0	-2.32257e-05	-0.000441049	7.50111e-06	16.0813	0.00364628	0.0035036	-0.00101002	-15.7158	2.51829	2.42415	0.682119	0.382639	0.107984	0.397584	15.7596	684.251	2424.62	2519.32	-74.2404	0.0000000E+000	0.0000000E+000	0.0000000E+000	74.2404	0.0000000E+000	0.0000000E+000	0.0000000E+000	-74.2404	0.0000000E+000	0.0000000E+000	0.0000000E+000	-15.7596	0.0000000E+000	0.0000000E+000	0.0000000E+000	15.7596	3.54346	74.2404	7.7032e-07	0.000125261	-1.46032e-08	0.000125276	3.7836	114260	13.3206	114273
15847.7	2.57779	0.649443	2.65834	-14.1407	9.40953	3.78317	0.0366848	15.4637	0.922942	1	9	0.00490782	0.0018462	0	-1.64749e-05	-0.000250295	7.68182e-05	34.7891	0.0416089	0.0341717	-0.0237403	-13.4715	2.68586	2.61196	0.625703	0.364776	0.0919009	0.376175	14.1407	922.942	3663.37	3777.84	-75.8593	0.0000000E+000	0.0000000E+000	0.0000000E+000	75.8593	0.0000000E+000	0.0000000E+000	0.0000000E+000	-75.8593	0.0000000E+000	0.0000000E+000	0.0000000E+000	-14.1407	0.0000000E+000	0.0000000E+000	0.0000000E+000	14.1407	3.96923	75.8593	4.06563e-06	0.000138785	-9.18201e-09	0.000138794	3.78342	103126	6.82284	103133
10002.2	2.74921	0.666182	2.82877	-13.6212	10.0515	3.78316	0.0434618	23.8853	1.32471	1	9	0.00496498	0.00175517	0	-1.07995e-05	-0.000288445	4.12501e-06	-12.4436	0.0023502	0.00229499	0.000506417	-13.6203	2.83112	2.7515	0.666688	0.343568	0.0832526	0.353511	13.6212	1324.71	5466.83	5625.04	-76.3788	0.0000000E+000	0.0000000E+000	0.0000000E+000	76.3788	0.0000000E+000	0.0000000E+000	0.0000000E+000	-76.3788	0.0000000E+000	0.0000000E+000	0.0000000E+000	-13.6212	0.0000000E+000	0.0000000E+000	0.0000000E+000	13.6212	4.12681	76.3788	2.71723e-06	0.000164423	-1.25364e-08	0.000164436	3.78345	87045.7	6.63676	87052.4
6309.38	2.91155	0.71444	2.99793	-13.7869	10.5716	3.78316	0.032924	35.3075	2.0052	1	9	0.00478348	0.00159559	0	-4.28257e-06	-0.000250295	1.85469e-05	15.9859	0.0116238	0.0111743	-0.00320121	-13.677	3.00802	2.92273	0.711239	0.323953	0.079492	0.333564	13.7869	2005.2	8171.76	8414.18	-76.2131	0.0000000E+000	0.0000000E+000	0.0000000E+000	76.2131	0.0000000E+000	0.0000000E+000	0.0000000E+000	-76.2131	0.0000000E+000	0.0000000E+000	0.0000000E+000	-13.7869	0.0000000E+000	0.0000000E+000	0.0000000E+000	13.7869	4.07529	76.2131	2.32855e-06	0.000124557	-8.24069e-09	0.000124565	3.78341	114906	7.6022	114914
3983.6	3.09032	0.791584	3.1901	-14.3674	11.1341	3.78289	-0.0495539	50.4716	3.10766	1	9	0.00469872	0.00147291	0	-5.65335e-06	-0.000193068	1.12448e-05	3.30218	0.00763442	0.00762174	-0.000439758	-14.3258	3.19737	3.09795	0.791144	0.303666	0.0777839	0.31347	14.3674	3107.66	12132.2	12523.9	-75.6326	0.0000000E+000	0.0000000E+000	0.0000000E+000	75.6326	0.0000000E+000	0.0000000E+000	0.0000000E+000	-75.6326	0.0000000E+000	0.0000000E+000	0.0000000E+000	-14.3674	0.0000000E+000	0.0000000E+000	0.0000000E+000	14.3674	3.90398	75.6326	-3.96865e-06	-0.000187457	9.56729e-09	-0.000187467	3.78308	76338.9	3.89612	76342.8
2510.8	3.29696	0.915852	3.4218	-15.5246	11.9588	3.78315	0.0667716	69.2121	4.9582	1	9	0.00465039	0.00135905	0	1.66894e-06	-7.86157e-05	5.95592e-06	77.8483	0.00438241	0.000922505	-0.00428422	-15.4514	3.42154	3.29788	0.911568	0.281582	0.0782198	0.292244	15.5246	4958.2	17848.9	18524.8	-74.4754	0.0000000E+000	0.0000000E+000	0.0000000E+000	74.4754	0.0000000E+000	0.0000000E+000	0.0000000E+000	-74.4754	0.0000000E+000	0.0000000E+000	0.0000000E+000	-15.5246	0.0000000E+000	0.0000000E+000	0.0000000E+000	15.5246	3.59988	74.4754	7.0172e-06	0.000252607	-5.2493e-09	0.000252612	3.78323	56658.2	1.17738	56659.4
1585.51	3.56707	1.07798	3.7264	-16.815	13.1048	3.78306	-0.0339992	93.1196	7.79262	1	10	0.00470507	0.00126263	0	-3.39092e-06	-7.86157e-05	5.2915e-06	93.0989	0.00419085	-0.000226558	-0.00418472	-16.7544	3.72498	3.56685	1.0738	0.256882	0.0776304	0.268355	16.815	7792.62	25786.1	26937.8	-73.185	0.0000000E+000	0.0000000E+000	0.0000000E+000	73.185	0.0000000E+000	0.0000000E+000	0.0000000E+000	-73.185	0.0000000E+000	0.0000000E+000	0.0000000E+000	-16.815	0.0000000E+000	0.0000000E+000	0.0000000E+000	16.815	3.30903	73.185	-3.34958e-06	-0.000128621	2.67287e-09	-0.000128624	3.78314	111269	2.31228	111272
1000.32	3.89675	1.27529	4.10012	-18.1218	14.0069	3.78308	-0.032726	124.759	12.0697	1	10	0.00467951	0.00114131	0	-1.05535e-05	-0.000231219	5.80424e-06	-69.5328	0.00508559	0.00177828	0.00476455	-18.1773	4.1033	3.89853	1.28006	0.231797	0.0758606	0.243895	18.1218	12069.7	36879.9	38804.7	-71.8782	0.0000000E+000	0.0000000E+000	0.0000000E+000	71.8782	0.0000000E+000	0.0000000E+000	0.0000000E+000	-71.8782	0.0000000E+000	0.0000000E+000	0.0000000E+000	-18.1218	0.0000000E+000	0.0000000E+000	0.0000000E+000	18.1218	3.05557	71.8782	-4.00621e-06	-0.000123805	7.56688e-09	-0.000123813	3.78331	115599	7.0653	115606
631.01	4.32308	1.47441	4.56759	-18.8323	14.9085	3.78307	-0.0328191	171.066	17.825	1	10	0.0046496	0.00101795	0	-1.95789e-05	-0.000173993	5.70653e-06	12.9942	0.00560588	0.00546233	-0.0012605	-18.7952	4.57236	4.32854	1.47315	0.207214	0.0706715	0.218934	18.8323	17825	52264	55220	-71.1677	0.0000000E+000	0.0000000E+000	0.0000000E+000	71.1677	0.0000000E+000	0.0000000E+000	0.0000000E+000	-71.1677	0.0000000E+000	0.0000000E+000	0.0000000E+000	-18.8323	0.0000000E+000	0.0000000E+000	0.0000000E+000	18.8323	2.93207	71.1677	-4.26956e-06	-0.000124157	5.71029e-09	-0.000124163	3.78324	115270	5.30158	115276
398.089	4.85772	1.64023	5.12716	-18.6574	15.8099	3.78308	-0.0311587	243.745	24.9454	1	10	0.00463068	0.000903167	0	-2.70205e-05	0.000150289	1.03353e-05	26.2346	0.0114434	0.0102647	-0.00505855	-18.5673	5.13527	4.86798	1.63517	0.18479	0.0623951	0.19504	18.6574	24945.4	73878.6	77976.4	-71.3426	0.0000000E+000	0.0000000E+000	0.0000000E+000	71.3426	0.0000000E+000	0.0000000E+000	0.0000000E+000	-71.3426	0.0000000E+000	0.0000000E+000	0.0000000E+000	-18.6574	0.0000000E+000	0.0000000E+000	0.0000000E+000	18.6574	2.96161	71.3426	-3.48819e-06	-0.000117876	-4.68282e-09	-0.000117871	3.78292	121413	4.82335	121408
251.044	5.47447	1.69278	5.73021	-17.1823	16.708	3.78307	-0.0324543	374.515	32.6836	1	10	0.00461446	0.000805286	0	-3.56133e-05	-0.000173993	1.01222e-05	3.10843	0.0125697	0.0125512	-0.000681598	-17.1388	5.742	5.48702	1.6921	0.166725	0.0515537	0.174514	17.1823	32683.6	105699	110637	-72.8177	0.0000000E+000	0.0000000E+000	0.0000000E+000	72.8177	0.0000000E+000	0.0000000E+000	0.0000000E+000	-72.8177	0.0000000E+000	0.0000000E+000	0.0000000E+000	-17.1823	0.0000000E+000	0.0000000E+000	0.0000000E+000	17.1823	3.23401	72.8177	-4.0905e-06	-0.000122777	5.64681e-09	-0.000122782	3.78325	116566	5.36117	116572
158.428	6.10806	1.57848	6.30872	-14.4897	17.6128	3.78308	-0.0310173	636.425	39.8423	1	10	0.00461456	0.000731457	0	-4.47162e-05	-9.76912e-05	6.91754e-06	-63.5255	0.00945721	0.00421603	0.00846546	-14.5545	6.31493	6.11228	1.58695	0.153469	0.0396604	0.158511	14.4897	39842.3	154173	159238	-75.5103	0.0000000E+000	0.0000000E+000	0.0000000E+000	75.5103	0.0000000E+000	0.0000000E+000	0.0000000E+000	-75.5103	0.0000000E+000	0.0000000E+000	0.0000000E+000	-14.4897	0.0000000E+000	0.0000000E+000	0.0000000E+000	14.4897	3.86957	75.5103	-4.1464e-06	-0.000117341	3.03011e-09	-0.000117344	3.78318	121967	3.14957	121970
100.032	6.62684	1.35803	6.76456	-11.5812	18.5118	3.78307	-0.0313709	1171.58	47.2183	1	10	0.00460608	0.000680913	0	-5.23438e-05	-0.000383823	8.72336e-06	-12.512	0.0128113	0.012507	0.00277549	-11.5829	6.77737	6.63935	1.3608	0.14482	0.0296776	0.147829	11.5812	47218.3	230414	235202	-78.4188	0.0000000E+000	0.0000000E+000	0.0000000E+000	78.4188	0.0000000E+000	0.0000000E+000	0.0000000E+000	-78.4188	0.0000000E+000	0.0000000E+000	0.0000000E+000	-11.5812	0.0000000E+000	0.0000000E+000	0.0000000E+000	11.5812	4.87976	78.4188	-4.35628e-06	-0.000118679	1.20409e-08	-0.000118691	3.78346	120592	12.235	120604
63.0823	7.01426	1.07737	7.09652	-8.73219	19.429	3.78309	-0.0275439	2341.8	53.9741	1	10	0.00460861	0.000649419	0	-5.97068e-05	-0.000154917	4.8922e-06	41.8725	0.0075332	0.00560946	-0.00502823	-8.68522	7.1013	7.01987	1.07234	0.139281	0.021393	0.140914	8.73219	53974.1	351402	355523	-81.2678	0.0000000E+000	0.0000000E+000	0.0000000E+000	81.2678	0.0000000E+000	0.0000000E+000	0.0000000E+000	-81.2678	0.0000000E+000	0.0000000E+000	0.0000000E+000	-8.73219	0.0000000E+000	0.0000000E+000	0.0000000E+000	8.73219	6.51057	81.2678	-3.30501e-06	-0.000104201	4.26704e-09	-0.000104205	3.78324	137347	5.62437	137353
39.8089	7.26405	0.823941	7.31063	-6.47124	20.3299	3.78307	-0.0300494	4852.26	61.6348	1	10	0.00460567	0.000629996	0	-6.56622e-05	-0.000231219	4.27885e-06	-113.455	0.00679186	-0.00270333	0.00623068	-6.52216	7.30865	7.26135	0.830171	0.135916	0.0154165	0.136787	6.47124	61634.8	543386	546871	-83.5288	0.0000000E+000	0.0000000E+000	0.0000000E+000	83.5288	0.0000000E+000	0.0000000E+000	0.0000000E+000	-83.5288	0.0000000E+000	0.0000000E+000	0.0000000E+000	-6.47124	0.0000000E+000	0.0000000E+000	0.0000000E+000	6.47124	8.81624	83.5288	-3.08848e-06	-0.000113679	6.94799e-09	-0.000113686	3.78331	125895	7.69464	125903
25.1044	7.4254	0.606197	7.4501	-4.66718	21.209	3.78307	-0.0310322	10458.2	69.2403	1	10	0.00460902	0.000618652	0	-7.33021e-05	-0.000402898	7.31387e-06	-1.3072	0.0118223	0.0118192	0.000269701	-4.66186	7.4619	7.43722	0.606466	0.133781	0.0109217	0.134226	4.66718	69240.2	848135	850957	-85.3328	0.0000000E+000	0.0000000E+000	0.0000000E+000	85.3328	0.0000000E+000	0.0000000E+000	0.0000000E+000	-85.3328	0.0000000E+000	0.0000000E+000	0.0000000E+000	-4.66718	0.0000000E+000	0.0000000E+000	0.0000000E+000	4.66718	12.2492	85.3328	-3.95703e-06	-0.000117397	1.25028e-08	-0.000117409	3.78347	121908	12.9832	121921
15.8576	7.50918	0.462242	7.52339	-3.52251	22.0871	3.78305	-0.0359462	21712.7	81.9644	1	10	0.00460246	0.000611754	0	-7.81087e-05	-0.000173993	2.91685e-05	33.1441	0.0476801	0.0399225	-0.0260689	-3.30677	7.56169	7.5491	0.436173	0.132668	0.00816662	0.132919	3.52251	81964.4	1.33152e+06	1.33404e+06	-86.4775	0.0000000E+000	0.0000000E+000	0.0000000E+000	86.4775	0.0000000E+000	0.0000000E+000	0.0000000E+000	-86.4775	0.0000000E+000	0.0000000E+000	0.0000000E+000	-3.52251	0.0000000E+000	0.0000000E+000	0.0000000E+000	3.52251	16.2451	86.4775	-2.06808e-06	-0.000135986	6.25438e-09	-0.000135993	3.78323	105242	4.84037	105247
10.0032	7.58	0.351861	7.58816	-2.65774	23.0689	3.7831	-0.0268701	45217.9	97.2252	1	10	0.00460569	0.000606957	0	-8.86162e-05	-0.000212144	8.03917e-06	-120.749	0.013245	-0.00677193	0.011383	-2.74604	7.58194	7.57323	0.363244	0.131642	0.0061108	0.131784	2.65774	97225.3	2.09448e+06	2.09674e+06	-87.3423	0.0000000E+000	0.0000000E+000	0.0000000E+000	87.3423	0.0000000E+000	0.0000000E+000	0.0000000E+000	-87.3423	0.0000000E+000	0.0000000E+000	0.0000000E+000	-2.65774	0.0000000E+000	0.0000000E+000	0.0000000E+000	2.65774	21.5426	87.3423	-4.0148e-06	-0.000101652	5.70033e-09	-0.000101658	3.78331	140792	7.89515	140800
6.31058	7.65489	0.326613	7.66185	-2.44317	23.9933	3.78309	-0.0348666	77217.7	140.319	1	10	0.00461238	0.000601992	0	-9.18015e-05	-0.000116767	5.80957e-06	-22.477	0.00965057	0.00891744	0.00368953	-2.46787	7.67092	7.66381	0.330303	0.130398	0.00556373	0.130517	2.44317	140319	3.28868e+06	3.29167e+06	-87.5568	0.0000000E+000	0.0000000E+000	0.0000000E+000	87.5568	0.0000000E+000	0.0000000E+000	0.0000000E+000	-87.5568	0.0000000E+000	0.0000000E+000	0.0000000E+000	-2.44317	0.0000000E+000	0.0000000E+000	0.0000000E+000	2.44317	23.4372	87.5568	3.64318e-07	-0.000131904	4.07125e-09	-0.000131908	3.78321	108502	3.34895	108505
3.97785	7.69478	0.290622	7.70026	-2.16296	25.0003	3.78312	-0.0281154	137671	196.105	1	10	0.0046077	0.000598382	0	-0.000108261	-9.76912e-05	4.10062e-06	-12.4587	0.00685285	0.00669148	0.00147841	-2.17207	7.707	7.70147	0.2921	0.129773	0.00490137	0.129866	2.16296	196105	5.19226e+06	5.19596e+06	-87.837	0.0000000E+000	0.0000000E+000	0.0000000E+000	87.837	0.0000000E+000	0.0000000E+000	0.0000000E+000	-87.837	0.0000000E+000	0.0000000E+000	0.0000000E+000	-2.16296	0.0000000E+000	0.0000000E+000	0.0000000E+000	2.16296	26.4769	87.837	-7.04026e-06	-0.000106364	2.74663e-09	-0.000106367	3.78321	134557	3.47465	134560
2.51367	7.77055	0.294146	7.77611	-2.16784	26.9219	3.78314	-0.021134	215252	307.999	1	11	0.00461161	0.000593049	0	-0.000111126	-0.000288445	7.07712e-06	44.0619	0.0119334	0.00857525	-0.00829893	-2.10441	7.78437	7.77912	0.285847	0.128507	0.0048645	0.128599	2.16784	307999	8.1365e+06	8.14233e+06	-87.8322	0.0000000E+000	0.0000000E+000	0.0000000E+000	87.8322	0.0000000E+000	0.0000000E+000	0.0000000E+000	-87.8322	0.0000000E+000	0.0000000E+000	0.0000000E+000	-2.16784	0.0000000E+000	0.0000000E+000	0.0000000E+000	2.16784	26.4173	87.8322	-4.49414e-06	-7.99526e-05	6.09599e-09	-7.99587e-05	3.78343	179008	13.6484	179021
1.58469	7.82744	0.329659	7.83438	-2.41163	29.3574	3.78314	-0.0209635	304658	539.427	1	11	0.00460965	0.000588388	0	-0.000146541	-0.000307521	3.16395e-06	20.6102	0.00537731	0.00503315	-0.00189286	-2.39626	7.83932	7.83247	0.327766	0.12753	0.00537101	0.127643	2.41163	539426	1.28082e+07	1.28195e+07	-87.5884	0.0000000E+000	0.0000000E+000	0.0000000E+000	87.5884	0.0000000E+000	0.0000000E+000	0.0000000E+000	-87.5884	0.0000000E+000	0.0000000E+000	0.0000000E+000	-2.41163	0.0000000E+000	0.0000000E+000	0.0000000E+000	2.41163	23.7441	87.5884	-1.96453e-05	-7.93078e-05	6.44672e-09	-7.93143e-05	3.78344	180463	14.6693	180478
1.00469	7.91885	0.357619	7.92692	-2.58575	240.175	3.78308	-0.0117707	442961	901.568	1	11	0.00505791	0.000638068	0	-0.00328117	3.58368e-05	6.13341e-07	3.48298	0.000961247	0.000959471	-5.83977e-05	-2.58501	7.92787	7.91981	0.357561	0.126024	0.00569131	0.126152	2.58575	901567	1.99636e+07	1.9984e+07	-87.4143	0.0000000E+000	0.0000000E+000	0.0000000E+000	87.4143	0.0000000E+000	0.0000000E+000	0.0000000E+000	-87.4143	0.0000000E+000	0.0000000E+000	0.0000000E+000	-2.58575	0.0000000E+000	0.0000000E+000	0.0000000E+000	2.58575	22.1432	87.4143	-0.00312124	-4.45294e-05	-4.21823e-10	-4.4529e-05	3.78305	321399	3.04458	321396
0.632957	8.00788	0.428187	8.01932	-3.06073	240.177	3.78308	-0.0117707	587236	1674.19	1	11	0.00507188	0.000632458	0	-0.00328117	3.58368e-05	5.24043e-07	6.25305	0.000828581	0.000823651	-9.02489e-05	-3.05977	8.02013	8.0087	0.428097	0.124521	0.00665823	0.124699	3.06073	1.67419e+06	3.13104e+07	3.13551e+07	-86.9393	0.0000000E+000	0.0000000E+000	0.0000000E+000	86.9393	0.0000000E+000	0.0000000E+000	0.0000000E+000	-86.9393	0.0000000E+000	0.0000000E+000	0.0000000E+000	-3.06073	0.0000000E+000	0.0000000E+000	0.0000000E+000	3.06073	18.7018	86.9393	0.000000000000000E+000	-4.45294e-05	-4.21823e-10	-4.4529e-05	3.78305	321399	3.04458	321396
0.401878	8.07384	0.538475	8.09178	-3.81562	240.178	3.78308	-0.0117707	735463	3256.9	1	11	0.00508515	0.000628434	0	-0.00328117	3.58368e-05	5.01535e-07	11.2253	0.000798071	0.000782803	-0.000155359	-3.81416	8.09255	8.07462	0.53832	0.123308	0.0082239	0.123582	3.81562	3.2569e+06	4.88336e+07	4.89421e+07	-86.1844	0.0000000E+000	0.0000000E+000	0.0000000E+000	86.1844	0.0000000E+000	0.0000000E+000	0.0000000E+000	-86.1844	0.0000000E+000	0.0000000E+000	0.0000000E+000	-3.81562	0.0000000E+000	0.0000000E+000	0.0000000E+000	3.81562	14.9939	86.1844	0.000000000000000E+000	-4.45294e-05	-4.21823e-10	-4.4529e-05	3.78305	321399	3.04458	321396
0.251173	8.21342	0.7043	8.24356	-4.90112	240.18	3.78308	-0.0117707	899682	6567.11	1	11	0.00508818	0.000617231	0	-0.00328117	3.58368e-05	5.40692e-07	-32.8688	0.000875995	0.000735762	0.000475417	-4.90397	8.24433	8.21416	0.704775	0.120863	0.010364	0.121307	4.90112	6.56711e+06	7.65845e+07	7.68655e+07	-85.0989	0.0000000E+000	0.0000000E+000	0.0000000E+000	85.0989	0.0000000E+000	0.0000000E+000	0.0000000E+000	-85.0989	0.0000000E+000	0.0000000E+000	0.0000000E+000	-4.90112	0.0000000E+000	0.0000000E+000	0.0000000E+000	4.90112	11.6618	85.0989	0.000000000000000E+000	-4.45294e-05	-4.21823e-10	-4.4529e-05	3.78305	321399	3.04458	321396
0.160751	8.37401	0.804193	8.41254	-5.48554	240.181	3.78308	-0.0117707	1.23114e+06	11250.5	1	11	0.00507781	0.0006036	0	-0.00328117	3.58368e-05	3.79497e-07	37.3386	0.000628723	0.000499875	-0.000381335	-5.48263	8.413	8.37451	0.803811	0.118326	0.0113633	0.11887	5.48554	1.12505e+07	1.17151e+08	1.1769e+08	-84.5145	0.0000000E+000	0.0000000E+000	0.0000000E+000	84.5145	0.0000000E+000	0.0000000E+000	0.0000000E+000	-84.5145	0.0000000E+000	0.0000000E+000	0.0000000E+000	-5.48554	0.0000000E+000	0.0000000E+000	0.0000000E+000	5.48554	10.4129	84.5145	0.000000000000000E+000	-4.45294e-05	-4.21823e-10	-4.4529e-05	3.78305	321399	3.04458	321396
0.100469	8.51191	1.17549	8.59269	-7.86277	240.182	3.78308	-0.0117707	1.34762e+06	25220.1	1	11	0.00508172	0.0005914	0	-0.00328117	3.58368e-05	5.8338e-07	-56.7518	0.00098644	0.000540832	0.000824963	-7.86773	8.59334	8.51245	1.17631	0.115284	0.0159206	0.116378	7.86277	2.52201e+07	1.82623e+08	1.84356e+08	-82.1372	0.0000000E+000	0.0000000E+000	0.0000000E+000	82.1372	0.0000000E+000	0.0000000E+000	0.0000000E+000	-82.1372	0.0000000E+000	0.0000000E+000	0.0000000E+000	-7.86277	0.0000000E+000	0.0000000E+000	0.0000000E+000	7.86277	7.24117	82.1372	0.000000000000000E+000	-4.45294e-05	-4.21823e-10	-4.4529e-05	3.78305	321399	3.04458	321396
0.0602816	8.84198	1.48642	8.96605	-9.54271	240.184	3.78308	-0.0117707	1.77621e+06	48817.3	1	11	0.0050764	0.00056618	0	-0.00328117	3.58368e-05	4.48051e-07	84.1352	0.000791358	8.0862e-05	-0.000787216	-9.53767	8.966	8.84206	1.48563	0.109988	0.0184901	0.111532	9.54271	4.88173e+07	2.9039e+08	2.94465e+08	-80.4573	0.0000000E+000	0.0000000E+000	0.0000000E+000	80.4573	0.0000000E+000	0.0000000E+000	0.0000000E+000	-80.4573	0.0000000E+000	0.0000000E+000	0.0000000E+000	-9.54271	0.0000000E+000	0.0000000E+000	0.0000000E+000	9.54271	5.94852	80.4573	0.000000000000000E+000	-4.45294e-05	-4.21823e-10	-4.4529e-05	3.78305	321399	3.04458	321396
0.0401878	9.28907	1.83238	9.46807	-11.159	240.185	3.78308	-0.0117707	2.16128e+06	80950.5	1	11	0.00507717	0.000536241	0	-0.00328117	3.58368e-05	7.9626e-07	-22.1498	0.00148489	0.00137531	0.000559849	-11.1607	9.46953	9.29044	1.83294	0.103621	0.0204406	0.105618	11.159	8.09505e+07	4.1037e+08	4.18278e+08	-78.841	0.0000000E+000	0.0000000E+000	0.0000000E+000	78.841	0.0000000E+000	0.0000000E+000	0.0000000E+000	-78.841	0.0000000E+000	0.0000000E+000	0.0000000E+000	-11.159	0.0000000E+000	0.0000000E+000	0.0000000E+000	11.159	5.06939	78.841	0.000000000000000E+000	-4.45294e-05	-4.21823e-10	-4.4529e-05	3.78305	321399	3.04458	321396
0.0200939	10.3614	2.94548	10.7719	-15.8691	240.187	3.78308	-0.0117707	2.68906e+06	201060	1	11	0.00507899	0.000471503	0	-0.00328117	3.58368e-05	7.74546e-07	8.67781	0.00164272	0.00162391	-0.00024785	-15.8655	10.7734	10.363	2.94523	0.089296	0.0253846	0.092834	15.8691	2.0106e+08	7.07275e+08	7.35298e+08	-74.1309	0.0000000E+000	0.0000000E+000	0.0000000E+000	74.1309	0.0000000E+000	0.0000000E+000	0.0000000E+000	-74.1309	0.0000000E+000	0.0000000E+000	0.0000000E+000	-15.8691	0.0000000E+000	0.0000000E+000	0.0000000E+000	15.8691	3.51773	74.1309	0.000000000000000E+000	-4.45294e-05	-4.21823e-10	-4.4529e-05	3.78305	321399	3.04458	321396
0.00796479	13.5295	3.82521	14.0599	-15.7873	20329.1	3.78308	0.000540594	5.22385e+06	386669	1	11	0.00507164	0.000360717	0	-0.00722516	-0.000212144	3.76259e-07	-40.0186	0.00104309	0.000798833	0.000670742	-15.789	14.0608	13.5303	3.82588	0.0684416	0.0193506	0.0711245	15.7873	3.86669e+08	1.36762e+09	1.42123e+09	-74.2127	0.0000000E+000	0.0000000E+000	0.0000000E+000	74.2127	0.0000000E+000	0.0000000E+000	0.0000000E+000	-74.2127	0.0000000E+000	0.0000000E+000	0.0000000E+000	-15.7873	0.0000000E+000	0.0000000E+000	0.0000000E+000	15.7873	3.53693	74.2127	-0.00394399	2.04511e-06	-1.14684e-10	2.04523e-06	3.7833	6.99802e+06	392.427	6.99841e+06
0.00497799	15.185	3.70459	15.6303	-13.7103	20329.1	3.78308	0.000540594	8.6303e+06	484807	1	11	0.00507857	0.000324918	0	-0.00722516	-0.000212144	4.18853e-07	28.3883	0.00128911	0.00113409	-0.000612899	-13.7071	15.6313	15.1861	3.70398	0.0621552	0.0151636	0.0639781	13.7103	4.84807e+08	1.98721e+09	2.04549e+09	-76.2897	0.0000000E+000	0.0000000E+000	0.0000000E+000	76.2897	0.0000000E+000	0.0000000E+000	0.0000000E+000	-76.2897	0.0000000E+000	0.0000000E+000	0.0000000E+000	-13.7103	0.0000000E+000	0.0000000E+000	0.0000000E+000	13.7103	4.09896	76.2897	0.000000000000000E+000	2.04511e-06	-1.14684e-10	2.04523e-06	3.7833	6.99802e+06	392.427	6.99841e+06
0.00318591	16.0709	4.84274	16.7847	-16.7694	20329.1	3.78308	0.000540594	1.03156e+07	858718	1	11	0.00508047	0.000302685	0	-0.00722516	-0.000212144	5.79083e-07	-13.2399	0.00191316	0.0018623	0.000438167	-16.769	16.7866	16.0728	4.84318	0.0570445	0.0171895	0.0595781	16.7694	8.58718e+08	2.8497e+09	2.97627e+09	-73.2306	0.0000000E+000	0.0000000E+000	0.0000000E+000	73.2306	0.0000000E+000	0.0000000E+000	0.0000000E+000	-73.2306	0.0000000E+000	0.0000000E+000	0.0000000E+000	-16.7694	0.0000000E+000	0.0000000E+000	0.0000000E+000	16.7694	3.31856	73.2306	0.000000000000000E+000	2.04511e-06	-1.14684e-10	2.04523e-06	3.7833	6.99802e+06	392.427	6.99841e+06
0.0019912	17.0259	4.98203	17.7399	-16.3102	20329.1	3.78308	0.000540594	1.60435e+07	1.26535e+06	1	11	0.00508318	0.00028654	0	-0.00722516	-0.000212144	1.46479e-06	67.849	0.005112	0.00192747	-0.0047347	-16.2938	17.7404	17.0279	4.97729	0.0541016	0.0158309	0.0563702	16.3102	1.26535e+09	4.3243e+09	4.50563e+09	-73.6898	0.0000000E+000	0.0000000E+000	0.0000000E+000	73.6898	0.0000000E+000	0.0000000E+000	0.0000000E+000	-73.6898	0.0000000E+000	0.0000000E+000	0.0000000E+000	-16.3102	0.0000000E+000	0.0000000E+000	0.0000000E+000	16.3102	3.41747	73.6898	0.000000000000000E+000	2.04511e-06	-1.14684e-10	2.04523e-06	3.7833	6.99802e+06	392.427	6.99841e+06
0.00129428	17.269	5.46979	18.1146	-17.5751	20329.1	3.78308	0.000540594	2.24813e+07	2.04978e+06	1	11	0.0050843	0.000280675	0	-0.00722516	-0.000212144	2.15518e-06	61.8608	0.00767857	0.00362133	-0.006771	-17.5512	18.116	17.2726	5.46302	0.0526274	0.0166692	0.0552042	17.5751	2.04978e+09	6.47149e+09	6.78836e+09	-72.4249	0.0000000E+000	0.0000000E+000	0.0000000E+000	72.4249	0.0000000E+000	0.0000000E+000	0.0000000E+000	-72.4249	0.0000000E+000	0.0000000E+000	0.0000000E+000	-17.5751	0.0000000E+000	0.0000000E+000	0.0000000E+000	17.5751	3.15716	72.4249	0.000000000000000E+000	2.04511e-06	-1.14684e-10	2.04523e-06	3.7833	6.99802e+06	392.427	6.99841e+06
0.000796479	19.2527	6.38226	20.283	-18.3403	20329.1	3.78308	0.000540594	3.13092e+07	3.09996e+06	1	11	0.00507988	0.00025045	0	-0.00722516	-0.000212144	1.57025e-06	-39.0761	0.00626973	0.00486725	0.00395213	-18.3466	20.2889	19.2576	6.38621	0.046798	0.0155135	0.0493024	18.3403	3.09996e+09	9.35133e+09	9.85176e+09	-71.6597	0.0000000E+000	0.0000000E+000	0.0000000E+000	71.6597	0.0000000E+000	0.0000000E+000	0.0000000E+000	-71.6597	0.0000000E+000	0.0000000E+000	0.0000000E+000	-18.3403	0.0000000E+000	0.0000000E+000	0.0000000E+000	18.3403	3.0166	71.6597	0.000000000000000E+000	2.04511e-06	-1.14684e-10	2.04523e-06	3.7833	6.99802e+06	392.427	6.99841e+06
0.000497799	19.0288	8.28753	20.7552	-23.5344	20329.1	3.78308	0.000540594	3.85781e+07	6.15088e+06	1	11	0.00508123	0.000244817	0	-0.00722516	-0.000212144	2.21852e-06	-80.0485	0.00906194	0.00156604	0.0089256	-23.5552	20.7602	19.0304	8.29645	0.0441731	0.0192385	0.0481807	23.5344	6.15088e+09	1.41229e+10	1.54042e+10	-66.4656	0.0000000E+000	0.0000000E+000	0.0000000E+000	66.4656	0.0000000E+000	0.0000000E+000	0.0000000E+000	-66.4656	0.0000000E+000	0.0000000E+000	0.0000000E+000	-23.5344	0.0000000E+000	0.0000000E+000	0.0000000E+000	23.5344	2.29608	66.4656	0.000000000000000E+000	2.04511e-06	-1.14684e-10	2.04523e-06	3.7833	6.99802e+06	392.427	6.99841e+06
0.000298679	19.2974	11.874	22.6579	-31.6045	20329.1	3.78308	0.000540594	4.48765e+07	1.23245e+07	1	11	0.0050871	0.000224517	0	-0.00722516	-0.000212144	5.7944e-06	39.0833	0.0258083	0.0200331	-0.0162708	-31.543	22.6665	19.3175	11.8577	0.0375888	0.0231289	0.0441346	31.6045	1.23245e+10	2.00297e+10	2.35177e+10	-58.3955	0.0000000E+000	0.0000000E+000	0.0000000E+000	58.3955	0.0000000E+000	0.0000000E+000	0.0000000E+000	-58.3955	0.0000000E+000	0.0000000E+000	0.0000000E+000	-31.6045	0.0000000E+000	0.0000000E+000	0.0000000E+000	31.6045	1.62519	58.3955	0.000000000000000E+000	2.04511e-06	-1.14684e-10	2.04523e-06	3.7833	6.99802e+06	392.427	6.99841e+06
9.95598e-05	22.5338	36.1969	42.6379	-58.0963	20329.1	3.78308	0.000540594	4.41636e+07	3.18285e+07	1	11	0.00508765	0.000119322	0	-0.00722516	-0.000212144	4.95815e-06	27.4618	0.0415527	0.0368704	-0.0191623	-58.0406	42.6412	22.5707	36.1778	0.0123949	0.0199104	0.0234533	58.0963	3.18285e+10	1.98143e+10	3.74921e+10	-31.9037	0.0000000E+000	0.0000000E+000	0.0000000E+000	31.9037	0.0000000E+000	0.0000000E+000	0.0000000E+000	-31.9037	0.0000000E+000	0.0000000E+000	0.0000000E+000	-58.0963	0.0000000E+000	0.0000000E+000	0.0000000E+000	58.0963	0.622535	31.9037	0.000000000000000E+000	2.04511e-06	-1.14684e-10	2.04523e-06	3.7833	6.99802e+06	392.427	6.99841e+06