File: txt/17610_R291_UC85_SOC50_C06.mpt
EC-Lab ASCII FILE
Nb header lines : 64

Potentio Electrochemical Impedance Spectroscopy

Run on channel : 6 (SN 65795)
User :
CE vs. WE compliance from -10 V to 10 V
Electrode connection : standard
Potential control : Ewe
Ewe ctrl range : min = -10.00 V, max = 10.00 V
Safety Limits :
	Do not start on E overload
Acquisition started on : 09/17/2025 17:34:25.932
Loaded Setting File :  C:\Users\Celltest\OneDrive - store-dot.com\Documents\EC-Lab\Data\Michael\R290\17544_R290_UC82_50SOC.mps
Saved on :
	File : 17610_R291_UC85_SOC50_C06.mpr
	Directory : C:\Users\Celltest\OneDrive - store-dot.com\Documents\EC-Lab\Data\Gyutae\
	Host : 169.254.61.224
Device : VMP-3e (SN .003165)
Address : USB
EC-LAB for windows v11.62 (software)
Internet server v27.00 (firmware)
Command interpretor v12.03 (firmware)
Electrode material :
Initial state :
Electrolyte :
Comments :
Electrode surface area : 0.001 cm²
Characteristic mass : 0.001 g
Equivalent Weight : 0.000 g/eq.
Density : 0.000 g/cm3
Volume (V) : 0.001 cm³
Record Ece
Cycle Definition : Charge/Discharge alternance
Mode                Multi sine
E (V)               0.0000
vs.                 Eoc
tE (h:m:s)          0:00:0.0000
record              0
dI                  0.000
unit dI             mA
dt (s)              0.000
fi                  1.000
unit fi             MHz
ff                  0.100
unit ff             mHz
Nd                  10
Points              per decade
spacing             Logarithmic
Va (mV)             5.0
pw                  0.10
Na                  2
corr                0
E range min (V)     -10.000
E range max (V)     10.000
I Range             Auto
Bandwidth           5
nc cycles           0
goto Ns'            0
nr cycles           0
inc. cycle          0

freq/Hz	Re(Z)/Ohm	-Im(Z)/Ohm	|Z|/Ohm	Phase(Z)/deg	time/s	<Ewe>/V	<I>/mA	Cs/µF	Cp/µF	cycle number	I Range	|Ewe|/V	|I|/A	Ns	(Q-Qo)/mA.h	<Ece>/V	|Ece|/V	Phase(Zce)/deg	|Zce|/Ohm	Re(Zce)/Ohm	-Im(Zce)/Ohm	Phase(Zwe-ce)/deg	|Zwe-ce|/Ohm	Re(Zwe-ce)/Ohm	-Im(Zwe-ce)/Ohm	Re(Y)/Ohm-1	Im(Y)/Ohm-1	|Y|/Ohm-1	Phase(Y)/deg	Re(C)/nF	Im(C)/nF	|C|/nF	Phase(C)/deg	Re(M)	Im(M)	|M|	Phase(M)/deg	Re(Permittivity)	Im(Permittivity)	|Permittivity|	Phase(Permittivity)/deg	Re(Resistivity)/Ohm.cm	Im(Resistivity)/Ohm.cm	|Resistivity|/Ohm.cm	Phase(Resistivity)/deg	Re(Conductivity)/mS/cm	Im(Conductivity)/mS/cm	|Conductivity|/mS/cm	Phase(Conductivity)/deg	Tan(Delta)	Loss Angle(Delta)/deg	dq/mA.h	Pwe/W	Pce/W	Pwe-ce/W	<Ewe-Ece>/V	Rwe/Ohm	Rce/Ohm	Rwe-ce/Ohm		Ewe-Ece/V
1.00002e+06	2.11322	2.93248	3.61457	-54.2225	2.23355	3.78299	-0.00792335	0.0542722	0.0357218	1	10	0.000213151	5.897e-05	0	-1.74511e-05	0.000228865	0.000201787	-60.1827	3.42185	1.70147	2.96885	-57.1209	7.02692	3.81469	5.90133	0.161745	0.224451	0.276658	54.2225	35.7218	25.7421	44.0307	-35.7775	0.0000000E+000	0.0000000E+000	0.0000000E+000	35.7775	0.0000000E+000	0.0000000E+000	0.0000000E+000	-35.7775	0.0000000E+000	0.0000000E+000	0.0000000E+000	-54.2225	0.0000000E+000	0.0000000E+000	0.0000000E+000	54.2225	0.720626	35.7775	-1.74511e-05	-2.9974e-05	-1.81338e-09	-2.99722e-05	3.78277	477449	28.8849	477420
794333	0.791922	0.101189	0.798361	-7.28161	3.02155	3.78278	0.0197728	1.98008	0.0318093	1	9	0.000186171	0.000233191	0	-1.79062e-05	-0.000191291	0.000160408	-39.6617	0.687882	0.52955	0.439043	-22.2353	1.42763	1.32147	0.540232	1.24246	0.158758	1.25257	7.28161	31.8093	248.944	250.968	-82.7184	0.0000000E+000	0.0000000E+000	0.0000000E+000	82.7184	0.0000000E+000	0.0000000E+000	0.0000000E+000	-82.7184	0.0000000E+000	0.0000000E+000	0.0000000E+000	-7.28161	0.0000000E+000	0.0000000E+000	0.0000000E+000	7.28161	7.82615	82.7184	-4.55118e-07	7.47962e-05	-3.78237e-09	7.48e-05	3.78297	191312	9.67445	191322
630957	0.724008	0.0182495	0.724238	-1.4439	3.40456	3.78281	0.0189533	13.822	0.00877624	1	9	0.000230696	0.000318536	0	-1.61975e-05	0.000228865	0.000110016	-92.0003	0.345378	-0.0120553	0.345168	-27.0421	0.799343	0.711953	0.363418	1.38032	0.0347927	1.38076	1.4439	8.77623	348.178	348.289	-88.5561	0.0000000E+000	0.0000000E+000	0.0000000E+000	88.5561	0.0000000E+000	0.0000000E+000	0.0000000E+000	-88.5561	0.0000000E+000	0.0000000E+000	0.0000000E+000	-1.4439	0.0000000E+000	0.0000000E+000	0.0000000E+000	1.4439	39.6728	88.5561	1.70869e-06	7.16969e-05	4.33776e-09	7.16926e-05	3.78258	199586	12.0752	199574
501206	0.881669	-0.00174501	0.881671	0.1134	3.78753	3.78288	0.0329221	-181.973	-0.000712835	1	9	0.000465577	0.000528062	0	-1.20615e-05	-1.9409e-05	5.17355e-05	-134.049	0.0979724	-0.0681182	0.0704166	-4.82489	0.816444	0.813551	0.0686716	1.13421	-0.00224484	1.13421	-0.1134	-0.712853	360.161	360.162	-90.1134	0.0000000E+000	0.0000000E+000	0.0000000E+000	90.1134	0.0000000E+000	0.0000000E+000	0.0000000E+000	-90.1134	0.0000000E+000	0.0000000E+000	0.0000000E+000	0.1134	0.0000000E+000	0.0000000E+000	0.0000000E+000	-0.1134	505.252	89.8866	4.13598e-06	0.00012454	-6.38985e-10	0.000124541	3.7829	114904	0.589544	114905
398103	1.03002	0.114937	1.03641	-6.36716	4.17052	3.78291	0.0373548	3.47827	0.0427781	1	9	0.000919075	0.000886786	0	-6.6464e-06	7.60812e-05	3.01049e-05	142	0.0339483	-0.0267517	-0.0209006	-5.35472	1.00766	1.00327	0.0940367	0.958917	0.107003	0.964868	6.36716	42.7781	383.359	385.738	-83.6328	0.0000000E+000	0.0000000E+000	0.0000000E+000	83.6328	0.0000000E+000	0.0000000E+000	0.0000000E+000	-83.6328	0.0000000E+000	0.0000000E+000	0.0000000E+000	-6.36716	0.0000000E+000	0.0000000E+000	0.0000000E+000	6.36716	8.96156	83.6328	5.4151e-06	0.00014131	2.842e-09	0.000141307	3.78284	101270	2.03672	101268
316230	1.11267	0.183215	1.12766	-9.35051	4.55355	3.78287	0.0338161	2.74699	0.0725142	1	9	0.0016492	0.0014625	0	-3.07423e-06	0.000190669	0.000128659	105.971	0.0879716	-0.0242055	-0.0845759	-5.17809	1.09293	1.08847	0.0986388	0.875011	0.144081	0.886794	9.35051	72.5142	440.383	446.313	-80.6495	0.0000000E+000	0.0000000E+000	0.0000000E+000	80.6495	0.0000000E+000	0.0000000E+000	0.0000000E+000	-80.6495	0.0000000E+000	0.0000000E+000	0.0000000E+000	-9.35051	0.0000000E+000	0.0000000E+000	0.0000000E+000	9.35051	6.07306	80.6495	3.57217e-06	0.000127922	6.44769e-09	0.000127915	3.78268	111866	5.63842	111860
251206	1.19647	0.324192	1.23962	-15.1606	4.93756	3.78281	0.0226784	1.95428	0.133665	1	9	0.00295827	0.00238644	0	1.34804e-06	0.000209767	7.20768e-05	70.757	0.0302026	0.00995403	-0.0285152	-13.7709	1.24213	1.20643	0.295677	0.778625	0.210973	0.806701	15.1606	133.665	493.308	511.096	-74.8394	0.0000000E+000	0.0000000E+000	0.0000000E+000	74.8394	0.0000000E+000	0.0000000E+000	0.0000000E+000	-74.8394	0.0000000E+000	0.0000000E+000	0.0000000E+000	-15.1606	0.0000000E+000	0.0000000E+000	0.0000000E+000	15.1606	3.69063	74.8394	4.42227e-06	8.57879e-05	4.75719e-09	8.57832e-05	3.7826	166802	9.24966	166793
199544	1.27502	0.404597	1.33767	-17.6056	5.19656	3.78277	0.0216727	1.97133	0.180345	1	9	0.00535362	0.00400218	0	3.03685e-07	-3.1098e-07	9.4803e-05	71.512	0.0236878	0.00751154	-0.0224653	-16.5915	1.33825	1.28253	0.382131	0.712551	0.226111	0.747566	17.6056	180.345	568.327	596.255	-72.3944	0.0000000E+000	0.0000000E+000	0.0000000E+000	72.3944	0.0000000E+000	0.0000000E+000	0.0000000E+000	-72.3944	0.0000000E+000	0.0000000E+000	0.0000000E+000	-17.6056	0.0000000E+000	0.0000000E+000	0.0000000E+000	17.6056	3.15133	72.3944	-1.04436e-06	8.19829e-05	-6.73977e-12	8.19829e-05	3.78277	174541	0.0143489	174541
158486	1.36655	0.463067	1.44287	-18.7194	5.57955	3.78274	0.0161224	2.16863	0.223366	1	9	0.00534648	0.00370544	0	-2.58974e-06	0.000343454	7.66757e-05	72.8775	0.0206927	0.00609225	-0.0197756	-17.8978	1.44244	1.37264	0.443292	0.6564	0.222427	0.693062	18.7194	223.366	659.17	695.987	-71.2806	0.0000000E+000	0.0000000E+000	0.0000000E+000	71.2806	0.0000000E+000	0.0000000E+000	0.0000000E+000	-71.2806	0.0000000E+000	0.0000000E+000	0.0000000E+000	-18.7194	0.0000000E+000	0.0000000E+000	0.0000000E+000	18.7194	2.95108	71.2806	-2.89343e-06	6.09869e-05	5.53731e-09	6.09814e-05	3.7824	234626	21.3029	234605
125909	1.46316	0.510851	1.54978	-19.2462	5.96253	3.78271	0.0173517	2.47439	0.268855	1	9	0.00541688	0.00349526	0	3.78463e-06	-3.85071e-05	5.86363e-05	83.7123	0.0167759	0.0018373	-0.016675	-18.6404	1.5461	1.465	0.494176	0.609191	0.212694	0.645254	19.2462	268.855	770.045	815.63	-70.7538	0.0000000E+000	0.0000000E+000	0.0000000E+000	70.7538	0.0000000E+000	0.0000000E+000	0.0000000E+000	-70.7538	0.0000000E+000	0.0000000E+000	0.0000000E+000	-19.2462	0.0000000E+000	0.0000000E+000	0.0000000E+000	19.2462	2.86417	70.7538	6.37438e-06	6.56363e-05	-6.68162e-10	6.5637e-05	3.78275	218002	2.21921	218005
100004	1.55954	0.543876	1.65166	-19.2257	6.34556	3.78268	0.0156382	2.9262	0.317295	1	9	0.00541277	0.00327717	0	1.41632e-05	0.00028616	5.22182e-05	85.94	0.0159339	0.00112815	-0.0158939	-18.6909	1.64756	1.56067	0.527982	0.571686	0.19937	0.605453	19.2257	317.295	909.832	963.572	-70.7743	0.0000000E+000	0.0000000E+000	0.0000000E+000	70.7743	0.0000000E+000	0.0000000E+000	0.0000000E+000	-70.7743	0.0000000E+000	0.0000000E+000	0.0000000E+000	-19.2257	0.0000000E+000	0.0000000E+000	0.0000000E+000	19.2257	2.86746	70.7743	1.03786e-05	5.91543e-05	4.47501e-09	5.91498e-05	3.7824	241888	18.2988	241870
79433.3	1.66516	0.563966	1.75807	-18.7105	6.73053	3.78268	0.0179104	3.55275	0.365594	1	9	0.00539933	0.00307117	0	1.82035e-05	-3.1098e-07	3.21725e-05	76.4085	0.0104757	0.00246176	-0.0101823	-18.3703	1.75716	1.66762	0.553783	0.538746	0.182466	0.568807	18.7105	365.594	1079.45	1139.68	-71.2895	0.0000000E+000	0.0000000E+000	0.0000000E+000	71.2895	0.0000000E+000	0.0000000E+000	0.0000000E+000	-71.2895	0.0000000E+000	0.0000000E+000	0.0000000E+000	-18.7105	0.0000000E+000	0.0000000E+000	0.0000000E+000	18.7105	2.95258	71.2895	4.04029e-06	6.77494e-05	-5.56978e-12	6.77494e-05	3.78268	211200	0.0173631	211200
63093.8	1.77061	0.574984	1.86163	-17.9906	7.11352	3.78268	0.0195867	4.3871	0.418506	1	9	0.00536025	0.00287933	0	1.82675e-05	0.000247963	2.88668e-05	73.6932	0.0100255	0.00281497	-0.0096222	-17.6821	1.86136	1.77343	0.565362	0.5109	0.165909	0.537164	17.9906	418.506	1288.75	1355	-72.0094	0.0000000E+000	0.0000000E+000	0.0000000E+000	72.0094	0.0000000E+000	0.0000000E+000	0.0000000E+000	-72.0094	0.0000000E+000	0.0000000E+000	0.0000000E+000	-17.9906	0.0000000E+000	0.0000000E+000	0.0000000E+000	17.9906	3.07941	72.0094	6.40429e-08	7.40901e-05	4.85678e-09	7.40852e-05	3.78243	193125	12.6598	193113
50122.5	1.87664	0.579662	1.96413	-17.165	7.49655	3.78268	0.0164577	5.47789	0.477116	1	9	0.00533192	0.00271465	0	2.89599e-05	0.000133375	2.75095e-05	42.2719	0.0101337	0.00749856	-0.00681644	-16.9111	1.9693	1.88414	0.572845	0.486455	0.150258	0.509132	17.165	477.116	1544.65	1616.66	-72.835	0.0000000E+000	0.0000000E+000	0.0000000E+000	72.835	0.0000000E+000	0.0000000E+000	0.0000000E+000	-72.835	0.0000000E+000	0.0000000E+000	0.0000000E+000	-17.165	0.0000000E+000	0.0000000E+000	0.0000000E+000	17.165	3.23748	72.835	1.06924e-05	6.2254e-05	2.19504e-09	6.22518e-05	3.78254	229843	8.10415	229835
39814.1	1.96882	0.570781	2.04989	-16.1674	7.87953	3.78268	0.0141109	7.00348	0.542989	1	9	0.00527948	0.00257549	0	2.88038e-05	0.000171571	1.98019e-05	28.2279	0.00768857	0.00677419	-0.00363655	-16.0174	2.05539	1.9756	0.567145	0.468538	0.135834	0.48783	16.1674	542.989	1872.96	1950.08	-73.8326	0.0000000E+000	0.0000000E+000	0.0000000E+000	73.8326	0.0000000E+000	0.0000000E+000	0.0000000E+000	-73.8326	0.0000000E+000	0.0000000E+000	0.0000000E+000	-16.1674	0.0000000E+000	0.0000000E+000	0.0000000E+000	16.1674	3.44935	73.8326	-1.56101e-07	5.3377e-05	2.42103e-09	5.33746e-05	3.78251	268068	12.1588	268056
31621.1	2.05541	0.568584	2.1326	-15.4629	8.26256	3.78269	0.0227529	8.85213	0.629241	1	9	0.00520661	0.00244143	0	2.54204e-05	0.000400748	9.51408e-06	-2.50316	0.00389692	0.00389321	0.000170196	-15.4395	2.1364	2.0593	0.568754	0.451937	0.125018	0.46891	15.4629	629.24	2274.68	2360.11	-74.5371	0.0000000E+000	0.0000000E+000	0.0000000E+000	74.5371	0.0000000E+000	0.0000000E+000	0.0000000E+000	-74.5371	0.0000000E+000	0.0000000E+000	0.0000000E+000	-15.4629	0.0000000E+000	0.0000000E+000	0.0000000E+000	15.4629	3.61496	74.5371	-3.38344e-06	8.60671e-05	9.11817e-09	8.6058e-05	3.78229	166251	17.613	166233
25116.9	2.14258	0.554309	2.21312	-14.505	8.64753	3.78268	0.0215236	11.4315	0.717127	1	9	0.00512638	0.00231636	0	2.81444e-05	0.000152473	4.66839e-06	-155.006	0.0020154	-0.00182666	0.000851561	-14.5382	2.21157	2.14075	0.555161	0.437448	0.113173	0.451851	14.505	717.127	2771.92	2863.18	-75.495	0.0000000E+000	0.0000000E+000	0.0000000E+000	75.495	0.0000000E+000	0.0000000E+000	0.0000000E+000	-75.495	0.0000000E+000	0.0000000E+000	0.0000000E+000	-14.505	0.0000000E+000	0.0000000E+000	0.0000000E+000	14.505	3.86531	75.495	2.72403e-06	8.14169e-05	3.28178e-09	8.14136e-05	3.78252	175745	7.08399	175738
19948.8	2.20666	0.545916	2.27318	-13.8957	9.03052	3.78269	0.0276326	14.6143	0.842869	1	9	0.00516323	0.00227137	0	2.91944e-05	0.000152473	7.8812e-06	-25.9425	0.0034698	0.00312016	0.00151793	-13.9139	2.27658	2.20978	0.547434	0.427037	0.105647	0.439911	13.8957	842.869	3406.98	3509.69	-76.1043	0.0000000E+000	0.0000000E+000	0.0000000E+000	76.1043	0.0000000E+000	0.0000000E+000	0.0000000E+000	-76.1043	0.0000000E+000	0.0000000E+000	0.0000000E+000	-13.8957	0.0000000E+000	0.0000000E+000	0.0000000E+000	13.8957	4.04212	76.1043	1.05005e-06	0.000104526	4.21324e-09	0.000104521	3.78254	136892	5.51787	136887
15847.7	2.2746	0.535393	2.33676	-13.2451	9.41553	3.78267	0.0185064	18.7578	0.984689	1	9	0.00511342	0.00218825	0	3.05697e-05	3.78851e-05	8.16297e-05	-10.8755	0.0373036	0.0366336	0.00703824	-13.2079	2.37403	2.31123	0.542431	0.416559	0.0980493	0.427943	13.2451	984.689	4183.42	4297.74	-76.7549	0.0000000E+000	0.0000000E+000	0.0000000E+000	76.7549	0.0000000E+000	0.0000000E+000	0.0000000E+000	-76.7549	0.0000000E+000	0.0000000E+000	0.0000000E+000	-13.2451	0.0000000E+000	0.0000000E+000	0.0000000E+000	13.2451	4.24847	76.7549	1.37524e-06	7.00036e-05	7.01116e-10	7.00029e-05	3.78264	204398	2.04714	204396
12590.9	2.34727	0.550697	2.41101	-13.2035	9.67456	3.78268	0.0196239	22.9535	1.19751	1	9	0.00525155	0.00217815	0	3.05617e-05	-0.000324978	7.66718e-06	10.9012	0.00352003	0.00345651	-0.000665693	-13.1693	2.41422	2.35073	0.550032	0.4038	0.0947362	0.414764	13.2035	1197.51	5104.21	5242.81	-76.7965	0.0000000E+000	0.0000000E+000	0.0000000E+000	76.7965	0.0000000E+000	0.0000000E+000	0.0000000E+000	-76.7965	0.0000000E+000	0.0000000E+000	0.0000000E+000	-13.2035	0.0000000E+000	0.0000000E+000	0.0000000E+000	13.2035	4.26236	76.7965	-7.94424e-09	7.42309e-05	-6.37732e-09	7.42372e-05	3.78301	192759	16.5603	192776
10002.2	2.40213	0.558508	2.46621	-13.089	9.93355	3.78267	0.0187671	28.4901	1.46115	1	9	0.00532704	0.00216001	0	3.27391e-05	0.000438944	4.88599e-06	10.1377	0.00226202	0.0022267	-0.00039815	-13.0683	2.46829	2.40436	0.55811	0.394946	0.0918269	0.405481	13.089	1461.15	6284.36	6451.99	-76.911	0.0000000E+000	0.0000000E+000	0.0000000E+000	76.911	0.0000000E+000	0.0000000E+000	0.0000000E+000	-76.911	0.0000000E+000	0.0000000E+000	0.0000000E+000	-13.089	0.0000000E+000	0.0000000E+000	0.0000000E+000	13.089	4.30098	76.911	2.17738e-06	7.09899e-05	8.23772e-09	7.09817e-05	3.78223	201558	23.389	201535