File: txt/17611_R291_UC85_SOC50_C06.mpt
EC-Lab ASCII FILE
Nb header lines : 64

Potentio Electrochemical Impedance Spectroscopy

Run on channel : 6 (SN 65795)
User :
CE vs. WE compliance from -10 V to 10 V
Electrode connection : standard
Potential control : Ewe
Ewe ctrl range : min = -10.00 V, max = 10.00 V
Safety Limits :
	Do not start on E overload
Acquisition started on : 09/17/2025 17:34:42.000
Loaded Setting File :  C:\Users\Celltest\OneDrive - store-dot.com\Documents\EC-Lab\Data\Michael\R290\17544_R290_UC82_50SOC.mps
Saved on :
	File : 17611_R291_UC85_SOC50_C06.mpr
	Directory : C:\Users\Celltest\OneDrive - store-dot.com\Documents\EC-Lab\Data\Gyutae\
	Host : 169.254.61.224
Device : VMP-3e (SN .003165)
Address : USB
EC-LAB for windows v11.62 (software)
Internet server v27.00 (firmware)
Command interpretor v12.03 (firmware)
Electrode material :
Initial state :
Electrolyte :
Comments :
Electrode surface area : 0.001 cm²
Characteristic mass : 0.001 g
Equivalent Weight : 0.000 g/eq.
Density : 0.000 g/cm3
Volume (V) : 0.001 cm³
Record Ece
Cycle Definition : Charge/Discharge alternance
Mode                Multi sine
E (V)               0.0000
vs.                 Eoc
tE (h:m:s)          0:00:0.0000
record              0
dI                  0.000
unit dI             mA
dt (s)              0.000
fi                  1.000
unit fi             MHz
ff                  0.100
unit ff             mHz
Nd                  10
Points              per decade
spacing             Logarithmic
Va (mV)             5.0
pw                  0.10
Na                  2
corr                0
E range min (V)     -10.000
E range max (V)     10.000
I Range             Auto
Bandwidth           5
nc cycles           0
goto Ns'            0
nr cycles           0
inc. cycle          0

freq/Hz	Re(Z)/Ohm	-Im(Z)/Ohm	|Z|/Ohm	Phase(Z)/deg	time/s	<Ewe>/V	<I>/mA	Cs/µF	Cp/µF	cycle number	I Range	|Ewe|/V	|I|/A	Ns	(Q-Qo)/mA.h	<Ece>/V	|Ece|/V	Phase(Zce)/deg	|Zce|/Ohm	Re(Zce)/Ohm	-Im(Zce)/Ohm	Phase(Zwe-ce)/deg	|Zwe-ce|/Ohm	Re(Zwe-ce)/Ohm	-Im(Zwe-ce)/Ohm	Re(Y)/Ohm-1	Im(Y)/Ohm-1	|Y|/Ohm-1	Phase(Y)/deg	Re(C)/nF	Im(C)/nF	|C|/nF	Phase(C)/deg	Re(M)	Im(M)	|M|	Phase(M)/deg	Re(Permittivity)	Im(Permittivity)	|Permittivity|	Phase(Permittivity)/deg	Re(Resistivity)/Ohm.cm	Im(Resistivity)/Ohm.cm	|Resistivity|/Ohm.cm	Phase(Resistivity)/deg	Re(Conductivity)/mS/cm	Im(Conductivity)/mS/cm	|Conductivity|/mS/cm	Phase(Conductivity)/deg	Tan(Delta)	Loss Angle(Delta)/deg	dq/mA.h	Pwe/W	Pce/W	Pwe-ce/W	<Ewe-Ece>/V	Rwe/Ohm	Rce/Ohm	Rwe-ce/Ohm		Ewe-Ece/V
1.00002e+06	2.08073	2.91343	3.58015	-54.4661	2.23453	3.78299	0.00188122	0.054627	0.0361754	1	10	0.000213024	5.95013e-05	0	-1.07753e-05	-3.85071e-05	0.000197402	-61.5861	3.31761	1.57864	2.91795	-57.8905	6.88447	3.65937	5.83138	0.162335	0.227301	0.279318	54.4661	36.1754	25.8359	44.454	-35.5339	0.0000000E+000	0.0000000E+000	0.0000000E+000	35.5339	0.0000000E+000	0.0000000E+000	0.0000000E+000	-35.5339	0.0000000E+000	0.0000000E+000	0.0000000E+000	-54.4661	0.0000000E+000	0.0000000E+000	0.0000000E+000	54.4661	0.714185	35.5339	-1.07753e-05	7.11665e-06	-7.24403e-11	7.11672e-06	3.78303	2.01092e+06	20.4692	2.01094e+06
630957	0.686233	0.0202992	0.686533	-1.69435	3.40352	3.7828	0.0348963	12.4263	0.0108637	1	9	0.000222649	0.000324309	0	-6.14953e-06	1.87871e-05	9.54609e-05	-88.4902	0.294351	0.00775578	0.294249	-24.3823	0.761945	0.693989	0.314548	1.45596	0.0430681	1.45659	1.69435	10.8637	367.256	367.417	-88.3056	0.0000000E+000	0.0000000E+000	0.0000000E+000	88.3056	0.0000000E+000	0.0000000E+000	0.0000000E+000	-88.3056	0.0000000E+000	0.0000000E+000	0.0000000E+000	-1.69435	0.0000000E+000	0.0000000E+000	0.0000000E+000	1.69435	33.8059	88.3056	3.36586e-06	0.000132006	6.55599e-10	0.000132005	3.78278	108401	0.538368	108401
398103	1.02777	0.104237	1.03304	-5.79115	4.17053	3.7829	0.0492376	3.83533	0.0390488	1	9	0.000911266	0.000882117	0	4.2717e-06	0.000228865	2.37703e-05	149.647	0.0269468	-0.0232532	-0.0136169	-5.15483	1.0086	1.00452	0.09062	0.963072	0.0976751	0.968013	5.79115	39.0488	385.02	386.995	-84.2088	0.0000000E+000	0.0000000E+000	0.0000000E+000	84.2088	0.0000000E+000	0.0000000E+000	0.0000000E+000	-84.2088	0.0000000E+000	0.0000000E+000	0.0000000E+000	-5.79115	0.0000000E+000	0.0000000E+000	0.0000000E+000	5.79115	9.85996	84.2088	4.89742e-06	0.000186261	1.12688e-08	0.00018625	3.78267	76829.6	4.64819	76824.9
251206	1.20088	0.325014	1.24408	-15.1441	4.93652	3.78281	0.0304264	1.94934	0.133044	1	9	0.00295924	0.00237866	0	1.08932e-05	1.87871e-05	6.99055e-05	68.5839	0.0293887	0.0107309	-0.0273595	-13.8025	1.24763	1.21161	0.297654	0.775892	0.209993	0.803807	15.1441	133.044	491.576	509.262	-74.8559	0.0000000E+000	0.0000000E+000	0.0000000E+000	74.8559	0.0000000E+000	0.0000000E+000	0.0000000E+000	-74.8559	0.0000000E+000	0.0000000E+000	0.0000000E+000	-15.1441	0.0000000E+000	0.0000000E+000	0.0000000E+000	15.1441	3.69484	74.8559	2.19938e-06	0.000115097	5.71622e-10	0.000115096	3.78279	124327	0.61746	124326
158486	1.36315	0.463173	1.43969	-18.7668	5.57856	3.78271	0.0227529	2.16813	0.224405	1	9	0.00534776	0.00371452	0	5.85788e-06	-0.000363174	7.69472e-05	81.6293	0.0207153	0.00301566	-0.0204946	-17.9538	1.4361	1.36617	0.442678	0.657666	0.223462	0.694593	18.7668	224.405	660.441	697.524	-71.2332	0.0000000E+000	0.0000000E+000	0.0000000E+000	71.2332	0.0000000E+000	0.0000000E+000	0.0000000E+000	-71.2332	0.0000000E+000	0.0000000E+000	0.0000000E+000	-18.7668	0.0000000E+000	0.0000000E+000	0.0000000E+000	18.7668	2.94308	71.2332	-4.0097e-06	8.60677e-05	-8.26326e-09	8.60759e-05	3.78307	166252	15.9616	166268
100004	1.56267	0.544765	1.6549	-19.2192	6.34455	3.78268	0.0235352	2.92142	0.316569	1	9	0.00542145	0.00327599	0	-2.83492e-06	-0.000248585	4.11075e-05	85.684	0.0125481	0.000944347	-0.0125125	-18.7985	1.65172	1.56361	0.532253	0.570587	0.198914	0.604265	19.2192	316.569	908.084	961.682	-70.7808	0.0000000E+000	0.0000000E+000	0.0000000E+000	70.7808	0.0000000E+000	0.0000000E+000	0.0000000E+000	-70.7808	0.0000000E+000	0.0000000E+000	0.0000000E+000	-19.2192	0.0000000E+000	0.0000000E+000	0.0000000E+000	19.2192	2.86852	70.7808	-3.7517e-06	8.9026e-05	-5.8505e-09	8.90319e-05	3.78293	160725	10.5623	160735
63093.8	1.77316	0.574661	1.86396	-17.9569	7.11052	3.78268	0.0275209	4.38957	0.417227	1	9	0.00537701	0.00288473	0	-2.42976e-07	0.000267062	2.39892e-05	70.5699	0.00831593	0.00276634	-0.00784232	-17.7014	1.86419	1.77593	0.566818	0.510359	0.165401	0.536493	17.9569	417.227	1287.39	1353.31	-72.0431	0.0000000E+000	0.0000000E+000	0.0000000E+000	72.0431	0.0000000E+000	0.0000000E+000	0.0000000E+000	-72.0431	0.0000000E+000	0.0000000E+000	0.0000000E+000	-17.9569	0.0000000E+000	0.0000000E+000	0.0000000E+000	17.9569	3.08558	72.0431	-2.24818e-06	0.000104103	7.34977e-09	0.000104095	3.78241	137448	9.70395	137438
39814.1	1.96397	0.572229	2.04564	-16.2442	7.87853	3.78268	0.0281169	6.98576	0.546633	1	9	0.0052465	0.00256473	0	8.52378e-07	-0.000133997	2.1576e-05	35.6863	0.00841261	0.00683292	-0.00490747	-16.0591	2.05084	1.97081	0.567322	0.469329	0.136745	0.488845	16.2442	546.633	1876.12	1954.14	-73.7558	0.0000000E+000	0.0000000E+000	0.0000000E+000	73.7558	0.0000000E+000	0.0000000E+000	0.0000000E+000	-73.7558	0.0000000E+000	0.0000000E+000	0.0000000E+000	-16.2442	0.0000000E+000	0.0000000E+000	0.0000000E+000	16.2442	3.43214	73.7558	-3.0732e-06	0.000106357	-3.76758e-09	0.000106361	3.78282	134534	4.76572	134539
25116.9	2.14028	0.553369	2.21066	-14.4964	8.64653	3.78268	0.0269249	11.4509	0.717506	1	9	0.00515683	0.00233271	0	-3.8648e-08	-0.000248585	1.27154e-05	34.4358	0.00545092	0.0044957	-0.0030824	-14.39	2.21424	2.14477	0.550286	0.437953	0.113233	0.452354	14.4964	717.506	2775.12	2866.37	-75.5036	0.0000000E+000	0.0000000E+000	0.0000000E+000	75.5036	0.0000000E+000	0.0000000E+000	0.0000000E+000	-75.5036	0.0000000E+000	0.0000000E+000	0.0000000E+000	-14.4964	0.0000000E+000	0.0000000E+000	0.0000000E+000	14.4964	3.86773	75.5036	-1.04783e-06	0.000101848	-6.69313e-09	0.000101855	3.78293	140490	9.23256	140499
15847.7	2.27498	0.546567	2.33971	-13.5094	9.29054	3.78269	0.0325496	18.3743	1.0027	1	9	0.00543095	0.0023212	0	3.13057e-06	0.000247963	5.69526e-05	-30.5233	0.0245358	0.0211357	0.0124614	-13.6834	2.36319	2.29611	0.559029	0.415577	0.0998431	0.427403	13.5094	1002.7	4173.56	4292.32	-76.4906	0.0000000E+000	0.0000000E+000	0.0000000E+000	76.4906	0.0000000E+000	0.0000000E+000	0.0000000E+000	-76.4906	0.0000000E+000	0.0000000E+000	0.0000000E+000	-13.5094	0.0000000E+000	0.0000000E+000	0.0000000E+000	13.5094	4.1623	76.4906	7.34317e-07	0.000123125	8.07112e-09	0.000123117	3.78244	116213	7.61802	116205
10002.2	2.40872	0.556923	2.47227	-13.0186	9.93456	3.78269	0.0269621	28.5712	1.44986	1	9	0.0052129	0.00210855	0	7.88559e-06	3.78851e-05	4.88755e-06	-127.239	0.00231797	-0.00140269	0.00184538	-13.0676	2.47132	2.40732	0.558768	0.39409	0.091118	0.404487	13.0186	1449.87	6270.75	6436.18	-76.9814	0.0000000E+000	0.0000000E+000	0.0000000E+000	76.9814	0.0000000E+000	0.0000000E+000	0.0000000E+000	-76.9814	0.0000000E+000	0.0000000E+000	0.0000000E+000	-13.0186	0.0000000E+000	0.0000000E+000	0.0000000E+000	13.0186	4.32506	76.9814	1.11416e-06	0.000101989	1.02146e-09	0.000101988	3.78265	140297	1.40512	140295
6309.38	2.54855	0.608993	2.62031	-13.4392	10.4526	3.78268	0.0340024	41.4211	2.23739	1	9	0.00522113	0.00199256	0	1.24333e-05	-3.1098e-07	3.53675e-06	-58.2367	0.00177498	0.000934367	0.00150914	-13.4665	2.62157	2.54949	0.610502	0.371185	0.0886968	0.381635	13.4392	2237.39	9363.18	9626.79	-76.5608	0.0000000E+000	0.0000000E+000	0.0000000E+000	76.5608	0.0000000E+000	0.0000000E+000	0.0000000E+000	-76.5608	0.0000000E+000	0.0000000E+000	0.0000000E+000	-13.4392	0.0000000E+000	0.0000000E+000	0.0000000E+000	13.4392	4.18487	76.5608	4.19832e-06	0.00012862	-1.0574e-11	0.00012862	3.78268	111248	0.00914583	111248
3983.6	2.69684	0.682667	2.7819	-14.2052	11.015	3.78253	-0.00142235	58.5242	3.52428	1	9	0.00519631	0.0018679	0	1.45309e-05	-0.000229487	5.36854e-06	-32.2503	0.0028741	0.0024307	0.00153367	-14.2236	2.78463	2.69927	0.684201	0.348475	0.0882117	0.359467	14.2052	3524.28	13922.5	14361.6	-75.7948	0.0000000E+000	0.0000000E+000	0.0000000E+000	75.7948	0.0000000E+000	0.0000000E+000	0.0000000E+000	-75.7948	0.0000000E+000	0.0000000E+000	0.0000000E+000	-14.2052	0.0000000E+000	0.0000000E+000	0.0000000E+000	14.2052	3.95044	75.7948	1.70115e-06	-5.38007e-06	3.26411e-10	-5.3804e-06	3.78276	2.65935e+06	161.344	2.65951e+06
2510.8	2.87171	0.790991	2.97866	-15.3998	11.8398	3.78263	0.0452146	80.1375	5.65117	1	9	0.00515529	0.00173074	0	2.1609e-05	5.69831e-05	7.20158e-06	17.6355	0.00416098	0.00396543	-0.00126061	-15.3562	2.98215	2.87568	0.789731	0.323668	0.089152	0.335722	15.3998	5651.17	20516.7	21280.8	-74.6002	0.0000000E+000	0.0000000E+000	0.0000000E+000	74.6002	0.0000000E+000	0.0000000E+000	0.0000000E+000	-74.6002	0.0000000E+000	0.0000000E+000	0.0000000E+000	-15.3998	0.0000000E+000	0.0000000E+000	0.0000000E+000	15.3998	3.63052	74.6002	6.23241e-06	0.00017103	2.57647e-09	0.000171028	3.78258	83659.6	1.26028	83658.3
1585.51	3.10299	0.944337	3.2435	-16.9267	12.7418	3.78263	0.0475241	106.298	9.01054	1	9	0.00512242	0.00157929	0	3.24107e-05	0.000324356	7.24122e-06	-10.9622	0.00458512	0.00450146	0.000871911	-16.9183	3.24806	3.10749	0.945209	0.294952	0.0897633	0.308309	16.9267	9010.54	29607.6	30948.4	-73.0733	0.0000000E+000	0.0000000E+000	0.0000000E+000	73.0733	0.0000000E+000	0.0000000E+000	0.0000000E+000	-73.0733	0.0000000E+000	0.0000000E+000	0.0000000E+000	-16.9267	0.0000000E+000	0.0000000E+000	0.0000000E+000	16.9267	3.28589	73.0733	5.00165e-06	0.000179766	1.54147e-08	0.000179751	3.7823	79593.9	6.82508	79587.1
1000.32	3.39398	1.12289	3.57491	-18.3067	13.8888	3.78264	-0.0304839	141.691	13.9794	1	10	0.00516043	0.00144351	0	2.97787e-05	0.000152473	3.05998e-06	-29.1122	0.00211982	0.00185202	0.00103134	-18.3131	3.577	3.39583	1.12392	0.26557	0.0878632	0.279727	18.3067	13979.4	42253.2	44505.7	-71.6933	0.0000000E+000	0.0000000E+000	0.0000000E+000	71.6933	0.0000000E+000	0.0000000E+000	0.0000000E+000	-71.6933	0.0000000E+000	0.0000000E+000	0.0000000E+000	-18.3067	0.0000000E+000	0.0000000E+000	0.0000000E+000	18.3067	3.02254	71.6933	-2.39039e-06	-0.00011531	-4.64798e-09	-0.000115305	3.78248	124086	5.00177	124081
631.01	3.77244	1.30136	3.9906	-19.0327	14.7896	3.78263	-0.0309833	193.814	20.6113	1	10	0.00511297	0.00128125	0	2.10048e-05	0.000343454	8.73022e-06	32.0485	0.0068138	0.00577537	-0.00361566	-18.9566	3.99488	3.77822	1.29775	0.23689	0.0817188	0.250589	19.0327	20611.3	59749	63204.2	-70.9673	0.0000000E+000	0.0000000E+000	0.0000000E+000	70.9673	0.0000000E+000	0.0000000E+000	0.0000000E+000	-70.9673	0.0000000E+000	0.0000000E+000	0.0000000E+000	-19.0327	0.0000000E+000	0.0000000E+000	0.0000000E+000	19.0327	2.89884	70.9673	-4.87661e-06	-0.000117198	-1.06413e-08	-0.000117187	3.78228	122086	11.0851	122075
398.089	4.26251	1.43478	4.49751	-18.6034	15.6919	3.78261	-0.0314714	278.647	28.3583	1	10	0.00509438	0.00113271	0	1.3338e-05	0.000209767	1.14963e-05	-15.7518	0.0101494	0.00976823	0.00275525	-18.597	4.50765	4.27228	1.43754	0.210727	0.0709317	0.222345	18.6034	28358.3	84248.2	88893	-71.3966	0.0000000E+000	0.0000000E+000	0.0000000E+000	71.3966	0.0000000E+000	0.0000000E+000	0.0000000E+000	-71.3966	0.0000000E+000	0.0000000E+000	0.0000000E+000	-18.6034	0.0000000E+000	0.0000000E+000	0.0000000E+000	18.6034	2.97085	71.3966	-2.96683e-06	-0.000119044	-6.60168e-09	-0.000119038	3.7824	120192	6.66533	120185
251.044	4.8115	1.4639	5.02927	-16.9224	16.59	3.78262	-0.0312628	433.07	36.692	1	10	0.0050783	0.00100975	0	5.98333e-06	-0.000133997	7.13474e-06	-61.7973	0.00706585	0.00333926	0.006227	-16.9791	5.03428	4.81484	1.47013	0.190226	0.0578764	0.198836	16.9224	36692	120598	126056	-73.0776	0.0000000E+000	0.0000000E+000	0.0000000E+000	73.0776	0.0000000E+000	0.0000000E+000	0.0000000E+000	-73.0776	0.0000000E+000	0.0000000E+000	0.0000000E+000	-16.9224	0.0000000E+000	0.0000000E+000	0.0000000E+000	16.9224	3.28677	73.0776	-3.15495e-06	-0.000118255	4.18912e-09	-0.000118259	3.78275	120994	4.28616	120999
158.428	5.34133	1.35899	5.5115	-14.2749	17.4949	3.78261	-0.030305	739.214	44.9432	1	10	0.00506743	0.000919429	0	-5.54029e-07	9.51792e-05	9.11226e-06	-3.67337	0.00991078	0.00989042	0.000634969	-14.2559	5.52124	5.35122	1.35963	0.175837	0.0447381	0.181439	14.2749	44943.2	176643	182271	-75.7251	0.0000000E+000	0.0000000E+000	0.0000000E+000	75.7251	0.0000000E+000	0.0000000E+000	0.0000000E+000	-75.7251	0.0000000E+000	0.0000000E+000	0.0000000E+000	-14.2749	0.0000000E+000	0.0000000E+000	0.0000000E+000	14.2749	3.93036	75.7251	-3.3247e-06	-0.000114632	-2.88441e-09	-0.000114629	3.78252	124818	3.14071	124815
100.032	5.77135	1.14443	5.88372	-11.216	18.3938	3.78262	-0.0298206	1390.25	52.5976	1	10	0.0050559	0.000859303	0	-8.30194e-06	-0.000153095	5.30583e-06	-92.8135	0.00617457	-0.000303083	0.00616713	-11.2754	5.88462	5.77104	1.1506	0.166714	0.0330586	0.16996	11.216	52597.6	265249	270414	-78.784	0.0000000E+000	0.0000000E+000	0.0000000E+000	78.784	0.0000000E+000	0.0000000E+000	0.0000000E+000	-78.784	0.0000000E+000	0.0000000E+000	0.0000000E+000	-11.216	0.0000000E+000	0.0000000E+000	0.0000000E+000	11.216	5.04299	78.784	-4.72591e-06	-0.0001128	4.56539e-09	-0.000112804	3.78277	126846	5.13388	126851
63.0823	6.09571	0.900057	6.1618	-8.39927	19.3089	3.78263	-0.0280579	2803.13	59.8091	1	10	0.00505724	0.00082074	0	-1.49234e-05	0.000228865	1.25194e-05	13.6129	0.0152538	0.0148253	-0.00359016	-8.34623	6.17595	6.11054	0.896467	0.16055	0.0237058	0.16229	8.39927	59809.2	405062	409454	-81.6007	0.0000000E+000	0.0000000E+000	0.0000000E+000	81.6007	0.0000000E+000	0.0000000E+000	0.0000000E+000	-81.6007	0.0000000E+000	0.0000000E+000	0.0000000E+000	-8.39927	0.0000000E+000	0.0000000E+000	0.0000000E+000	8.39927	6.77258	81.6007	-3.73036e-06	-0.000106133	-6.42149e-09	-0.000106126	3.7824	134815	8.15689	134807
39.8089	6.299	0.684383	6.33607	-6.20083	20.2098	3.78262	-0.0304355	5841.72	68.1551	1	10	0.00505615	0.000797995	0	-2.06891e-05	0.000305258	7.34627e-06	-138.713	0.00920591	-0.00691741	0.00607439	-6.26225	6.32986	6.29209	0.690457	0.156903	0.0170474	0.157826	6.20083	68155.1	627294	630986	-83.7992	0.0000000E+000	0.0000000E+000	0.0000000E+000	83.7992	0.0000000E+000	0.0000000E+000	0.0000000E+000	-83.7992	0.0000000E+000	0.0000000E+000	0.0000000E+000	-6.20083	0.0000000E+000	0.0000000E+000	0.0000000E+000	6.20083	9.20392	83.7992	-2.83146e-06	-0.000115126	-9.29066e-09	-0.000115116	3.78231	124283	10.0297	124273
25.1044	6.41763	0.496172	6.43678	-4.42097	21.0891	3.78261	-0.0298206	12777.2	75.9216	1	10	0.00505834	0.00078585	0	-2.73785e-05	-5.76051e-05	7.43833e-06	-132.234	0.00946534	-0.00636217	0.00700825	-4.48759	6.43098	6.41126	0.50318	0.154895	0.0119755	0.155357	4.42097	75921.5	981990	984921	-85.579	0.0000000E+000	0.0000000E+000	0.0000000E+000	85.579	0.0000000E+000	0.0000000E+000	0.0000000E+000	-85.579	0.0000000E+000	0.0000000E+000	0.0000000E+000	-4.42097	0.0000000E+000	0.0000000E+000	0.0000000E+000	4.42097	12.9343	85.579	-4.33695e-06	-0.0001128	1.71782e-09	-0.000112801	3.78266	126845	1.93172	126847
15.8576	6.48942	0.362106	6.49952	-3.19376	21.967	3.78265	-0.0296044	27717.1	86.0314	1	10	0.00504735	0.000776573	0	-2.99677e-05	0.000190669	2.36074e-05	-120.531	0.0303994	-0.0154431	0.0261846	-3.43232	6.48562	6.47398	0.388291	0.153619	0.00857183	0.153858	3.19376	86031.3	1.5418e+06	1.54419e+06	-86.8062	0.0000000E+000	0.0000000E+000	0.0000000E+000	86.8062	0.0000000E+000	0.0000000E+000	0.0000000E+000	-86.8062	0.0000000E+000	0.0000000E+000	0.0000000E+000	-3.19376	0.0000000E+000	0.0000000E+000	0.0000000E+000	3.19376	17.9213	86.8062	-1.51265e-07	-0.000111983	-5.64466e-09	-0.000111978	3.78246	127773	6.44057	127767
10.0032	6.55208	0.299817	6.55894	-2.61997	22.9489	3.78262	-0.0259785	53067.1	110.884	1	10	0.00505708	0.000771021	0	-4.15988e-05	0.000171571	6.47398e-06	-50.0315	0.00839662	0.0053937	0.00643515	-2.67392	6.56463	6.55748	0.306252	0.152304	0.00696929	0.152464	2.61997	110884	2.42322e+06	2.42576e+06	-87.38	0.0000000E+000	0.0000000E+000	0.0000000E+000	87.38	0.0000000E+000	0.0000000E+000	0.0000000E+000	-87.38	0.0000000E+000	0.0000000E+000	0.0000000E+000	-2.61997	0.0000000E+000	0.0000000E+000	0.0000000E+000	2.61997	21.8536	87.38	-8.27149e-06	-9.82669e-05	-4.45717e-09	-9.82624e-05	3.78245	145606	6.60436	145599
6.31058	6.60688	0.258189	6.61192	-2.23791	23.8733	3.78261	-0.0366663	97681.6	148.948	1	10	0.00505812	0.000765	0	-4.38253e-05	9.51792e-05	6.39581e-06	49.3513	0.00836054	0.00544622	-0.00634329	-2.18119	6.61712	6.61232	0.251846	0.151127	0.00590586	0.151242	2.23791	148948	3.81146e+06	3.81437e+06	-87.7621	0.0000000E+000	0.0000000E+000	0.0000000E+000	87.7621	0.0000000E+000	0.0000000E+000	0.0000000E+000	-87.7621	0.0000000E+000	0.0000000E+000	0.0000000E+000	-2.23791	0.0000000E+000	0.0000000E+000	0.0000000E+000	2.23791	25.5893	87.7621	-4.38156e-06	-0.000138694	-3.48987e-09	-0.000138691	3.78251	103163	2.59582	103161
3.97785	6.66034	0.246391	6.66489	-2.11862	24.8803	3.78263	-0.0275716	162385	221.927	1	10	0.0050626	0.000759592	0	-5.54358e-05	0.000228865	5.1579e-06	-96.0054	0.00679035	-0.000710417	0.00675309	-2.17686	6.66444	6.65963	0.253144	0.149937	0.00554675	0.15004	2.11862	221927	5.99904e+06	6.00314e+06	-87.8814	0.0000000E+000	0.0000000E+000	0.0000000E+000	87.8814	0.0000000E+000	0.0000000E+000	0.0000000E+000	-87.8814	0.0000000E+000	0.0000000E+000	0.0000000E+000	-2.11862	0.0000000E+000	0.0000000E+000	0.0000000E+000	2.11862	27.0316	87.8814	-6.76842e-07	-0.000104293	-6.31019e-09	-0.000104287	3.7824	137193	8.30077	137185
2.51367	6.70787	0.250559	6.71255	-2.13918	26.883	3.78265	-0.0240332	252697	352.085	1	11	0.00505998	0.00075381	0	-5.92693e-05	0.000228865	4.79226e-06	-85.6547	0.00635738	0.000481684	0.00633911	-2.19309	6.71327	6.70835	0.256898	0.148871	0.00556078	0.148975	2.13918	352084	9.42586e+06	9.43243e+06	-87.8608	0.0000000E+000	0.0000000E+000	0.0000000E+000	87.8608	0.0000000E+000	0.0000000E+000	0.0000000E+000	-87.8608	0.0000000E+000	0.0000000E+000	0.0000000E+000	-2.13918	0.0000000E+000	0.0000000E+000	0.0000000E+000	2.13918	26.7716	87.8608	-8.80314e-06	-9.09093e-05	-5.50038e-09	-9.09038e-05	3.78242	157392	9.52288	157383
1.58469	6.75823	0.280297	6.76404	-2.37498	29.3185	3.78264	-0.0245451	358309	615.296	1	11	0.00505743	0.000747694	0	-9.82677e-05	-0.000114899	3.17082e-06	-51.809	0.00424079	0.00262202	0.00333307	-2.40226	6.7668	6.76085	0.28363	0.147714	0.00612642	0.147841	2.37498	615295	1.48354e+07	1.48481e+07	-87.625	0.0000000E+000	0.0000000E+000	0.0000000E+000	87.625	0.0000000E+000	0.0000000E+000	0.0000000E+000	-87.625	0.0000000E+000	0.0000000E+000	0.0000000E+000	-2.37498	0.0000000E+000	0.0000000E+000	0.0000000E+000	2.37498	24.1109	87.625	-1.77915e-05	-9.28453e-05	2.82021e-09	-9.28481e-05	3.78275	154110	4.68114	154114
1.00469	6.83798	0.305213	6.84479	-2.5557	240.136	3.78264	-0.0133674	519019	1031.98	1	11	0.00500506	0.000731222	0	-0.00364625	5.69831e-05	6.39676e-07	-10.7457	0.000874805	0.000859464	0.000163108	-2.55674	6.84565	6.83884	0.305376	0.145951	0.00651453	0.146097	2.5557	1.03198e+06	2.31203e+07	2.31434e+07	-87.4443	0.0000000E+000	0.0000000E+000	0.0000000E+000	87.4443	0.0000000E+000	0.0000000E+000	0.0000000E+000	-87.4443	0.0000000E+000	0.0000000E+000	0.0000000E+000	-2.5557	0.0000000E+000	0.0000000E+000	0.0000000E+000	2.5557	22.404	87.4443	-0.00354303	-5.05641e-05	-7.61715e-10	-5.05633e-05	3.78259	282976	4.26285	282971
0.632957	6.91339	0.370316	6.92331	-3.06612	240.137	3.78264	-0.0133674	679006	1942.63	1	11	0.00501787	0.000724779	0	-0.00364625	5.69831e-05	7.99176e-07	-2.3879	0.00110265	0.00110169	4.59415e-05	-3.06601	6.92441	6.9145	0.370362	0.144233	0.00772583	0.14444	3.06612	1.94263e+06	3.62669e+07	3.63189e+07	-86.9339	0.0000000E+000	0.0000000E+000	0.0000000E+000	86.9339	0.0000000E+000	0.0000000E+000	0.0000000E+000	-86.9339	0.0000000E+000	0.0000000E+000	0.0000000E+000	-3.06612	0.0000000E+000	0.0000000E+000	0.0000000E+000	3.06612	18.6689	86.9339	0.000000000000000E+000	-5.05641e-05	-7.61715e-10	-5.05633e-05	3.78259	282976	4.26285	282971
0.401878	6.97067	0.464774	6.98614	-3.81459	240.139	3.78264	-0.0133674	852088	3771.32	1	11	0.00503129	0.000720182	0	-0.00364625	5.69831e-05	6.72284e-07	-0.121038	0.000933493	0.000933491	1.97201e-06	-3.8141	6.98708	6.9716	0.464776	0.142823	0.00952285	0.14314	3.81459	3.77132e+06	5.65621e+07	5.66877e+07	-86.1854	0.0000000E+000	0.0000000E+000	0.0000000E+000	86.1854	0.0000000E+000	0.0000000E+000	0.0000000E+000	-86.1854	0.0000000E+000	0.0000000E+000	0.0000000E+000	-3.81459	0.0000000E+000	0.0000000E+000	0.0000000E+000	3.81459	14.998	86.1854	0.000000000000000E+000	-5.05641e-05	-7.61715e-10	-5.05633e-05	3.78259	282976	4.26285	282971
0.251173	7.09068	0.616129	7.1174	-4.96611	240.14	3.78264	-0.0133674	1.02843e+06	7706.82	1	11	0.00503255	0.000707078	0	-0.00364625	5.69831e-05	6.26157e-07	-26.1348	0.000885557	0.000795018	0.000390074	-4.96869	7.11822	7.09147	0.616519	0.139973	0.0121627	0.140501	4.96611	7.70682e+06	8.86935e+07	8.90277e+07	-85.0339	0.0000000E+000	0.0000000E+000	0.0000000E+000	85.0339	0.0000000E+000	0.0000000E+000	0.0000000E+000	-85.0339	0.0000000E+000	0.0000000E+000	0.0000000E+000	-4.96611	0.0000000E+000	0.0000000E+000	0.0000000E+000	4.96611	11.5084	85.0339	0.000000000000000E+000	-5.05641e-05	-7.61715e-10	-5.05633e-05	3.78259	282976	4.26285	282971
0.160751	7.23648	0.700281	7.27028	-5.52735	240.141	3.78264	-0.0133674	1.41382e+06	13117	1	11	0.005027	0.000691445	0	-0.00364625	5.69831e-05	3.45192e-07	9.25897	0.000499232	0.000492728	-8.03251e-05	-5.52635	7.27077	7.23697	0.700201	0.136907	0.0132486	0.137546	5.52735	1.3117e+07	1.35547e+08	1.36181e+08	-84.4726	0.0000000E+000	0.0000000E+000	0.0000000E+000	84.4726	0.0000000E+000	0.0000000E+000	0.0000000E+000	-84.4726	0.0000000E+000	0.0000000E+000	0.0000000E+000	-5.52735	0.0000000E+000	0.0000000E+000	0.0000000E+000	5.52735	10.3337	84.4726	0.000000000000000E+000	-5.05641e-05	-7.61715e-10	-5.05633e-05	3.78259	282976	4.26285	282971
0.100469	7.35811	1.01744	7.42812	-7.87266	240.142	3.78264	-0.0133674	1.55695e+06	29210.5	1	11	0.00503129	0.00067733	0	-0.00364625	5.69831e-05	6.64216e-07	-25.0885	0.000980639	0.000888119	0.000415808	-7.8749	7.42906	7.359	1.01786	0.133355	0.0184396	0.134624	7.87266	2.92105e+07	2.11249e+08	2.13259e+08	-82.1273	0.0000000E+000	0.0000000E+000	0.0000000E+000	82.1273	0.0000000E+000	0.0000000E+000	0.0000000E+000	-82.1273	0.0000000E+000	0.0000000E+000	0.0000000E+000	-7.87266	0.0000000E+000	0.0000000E+000	0.0000000E+000	7.87266	7.23195	82.1273	0.000000000000000E+000	-5.05641e-05	-7.61715e-10	-5.05633e-05	3.78259	282976	4.26285	282971
0.0602816	7.65144	1.28405	7.75844	-9.52651	240.144	3.78264	-0.0133674	2.05614e+06	56320.9	1	11	0.00502472	0.000647646	0	-0.00364625	5.69831e-05	8.26762e-07	6.85343	0.00127656	0.00126744	-0.000152332	-9.52386	7.75966	7.65271	1.2839	0.127114	0.0213321	0.128892	9.52651	5.63209e+07	3.35606e+08	3.40299e+08	-80.4735	0.0000000E+000	0.0000000E+000	0.0000000E+000	80.4735	0.0000000E+000	0.0000000E+000	0.0000000E+000	-80.4735	0.0000000E+000	0.0000000E+000	0.0000000E+000	-9.52651	0.0000000E+000	0.0000000E+000	0.0000000E+000	9.52651	5.95882	80.4735	0.000000000000000E+000	-5.05641e-05	-7.61715e-10	-5.05633e-05	3.78259	282976	4.26285	282971
0.0401878	8.03046	1.58204	8.18481	-11.1448	240.145	3.78264	-0.0133674	2.50328e+06	93524.8	1	11	0.00502738	0.000614233	0	-0.00364625	5.69831e-05	1.43672e-06	6.72665	0.00233904	0.00232294	-0.000273979	-11.1398	8.18703	8.03278	1.58177	0.119874	0.0236157	0.122178	11.1448	9.35248e+07	4.74733e+08	4.83858e+08	-78.8552	0.0000000E+000	0.0000000E+000	0.0000000E+000	78.8552	0.0000000E+000	0.0000000E+000	0.0000000E+000	-78.8552	0.0000000E+000	0.0000000E+000	0.0000000E+000	-11.1448	0.0000000E+000	0.0000000E+000	0.0000000E+000	11.1448	5.07602	78.8552	0.000000000000000E+000	-5.05641e-05	-7.61715e-10	-5.05633e-05	3.78259	282976	4.26285	282971
0.0200939	8.96676	2.52099	9.31441	-15.7032	240.146	3.78264	-0.0133674	3.14185e+06	230153	1	11	0.00502722	0.000539725	0	-0.00364625	5.69831e-05	1.49015e-06	49.0918	0.00276094	0.001808	-0.00208661	-15.6879	9.31559	8.96857	2.5189	0.103353	0.0290576	0.107361	15.7032	2.30153e+08	8.18618e+08	8.50357e+08	-74.2968	0.0000000E+000	0.0000000E+000	0.0000000E+000	74.2968	0.0000000E+000	0.0000000E+000	0.0000000E+000	-74.2968	0.0000000E+000	0.0000000E+000	0.0000000E+000	-15.7032	0.0000000E+000	0.0000000E+000	0.0000000E+000	15.7032	3.55684	74.2968	0.000000000000000E+000	-5.05641e-05	-7.61715e-10	-5.05633e-05	3.78259	282976	4.26285	282971
0.00796479	11.5321	3.24061	11.9787	-15.6958	20329	3.78266	0.00153185	6.16623e+06	451283	1	11	0.005018	0.000418908	0	-0.00640872	-9.58012e-05	2.00674e-07	-80.3023	0.00047904	8.06941e-05	0.000472195	-15.6979	11.979	11.5322	3.24108	0.0803683	0.0225841	0.0834812	15.6958	4.51283e+08	1.60595e+09	1.66815e+09	-74.3042	0.0000000E+000	0.0000000E+000	0.0000000E+000	74.3042	0.0000000E+000	0.0000000E+000	0.0000000E+000	-74.3042	0.0000000E+000	0.0000000E+000	0.0000000E+000	-15.6958	0.0000000E+000	0.0000000E+000	0.0000000E+000	15.6958	3.55862	74.3042	-0.00276247	5.79446e-06	-1.46753e-10	5.79461e-06	3.78276	2.46934e+06	62.5396	2.46941e+06
0.00497799	12.8912	3.12689	13.265	-13.6343	20329	3.78266	0.00153185	1.02248e+07	568149	1	11	0.0050253	0.000378838	0	-0.00640872	-9.58012e-05	5.40487e-07	-105.364	0.0014267	-0.000377998	0.00137571	-13.6405	13.265	12.8908	3.12827	0.0732618	0.0177704	0.0753862	13.6343	5.68149e+08	2.34231e+09	2.41023e+09	-76.3657	0.0000000E+000	0.0000000E+000	0.0000000E+000	76.3657	0.0000000E+000	0.0000000E+000	0.0000000E+000	-76.3657	0.0000000E+000	0.0000000E+000	0.0000000E+000	-13.6343	0.0000000E+000	0.0000000E+000	0.0000000E+000	13.6343	4.1227	76.3657	0.000000000000000E+000	5.79446e-06	-1.46753e-10	5.79461e-06	3.78276	2.46934e+06	62.5396	2.46941e+06
0.00318591	13.6627	4.13642	14.2752	-16.8438	20329	3.78266	0.00153185	1.20771e+07	1.01402e+06	1	11	0.00502871	0.00035227	0	-0.00640872	-9.58012e-05	3.22474e-07	-101.619	0.000915419	-0.000184365	0.000896661	-16.8475	14.2752	13.6625	4.13732	0.0670464	0.0202984	0.0700517	16.8438	1.01402e+09	3.34936e+09	3.49949e+09	-73.1562	0.0000000E+000	0.0000000E+000	0.0000000E+000	73.1562	0.0000000E+000	0.0000000E+000	0.0000000E+000	-73.1562	0.0000000E+000	0.0000000E+000	0.0000000E+000	-16.8438	0.0000000E+000	0.0000000E+000	0.0000000E+000	16.8438	3.30303	73.1562	0.000000000000000E+000	5.79446e-06	-1.46753e-10	5.79461e-06	3.78276	2.46934e+06	62.5396	2.46941e+06
0.0019912	14.448	4.31505	15.0787	-16.6288	20329	3.78266	0.00153185	1.85234e+07	1.51693e+06	1	11	0.0050306	0.000333624	0	-0.00640872	-9.58012e-05	7.44101e-07	-41.1723	0.00223036	0.00167886	0.0014683	-16.6323	15.0807	14.4497	4.31651	0.0635454	0.0189784	0.0663189	16.6288	1.51693e+09	5.07914e+09	5.30083e+09	-73.3712	0.0000000E+000	0.0000000E+000	0.0000000E+000	73.3712	0.0000000E+000	0.0000000E+000	0.0000000E+000	-73.3712	0.0000000E+000	0.0000000E+000	0.0000000E+000	-16.6288	0.0000000E+000	0.0000000E+000	0.0000000E+000	16.6288	3.34829	73.3712	0.000000000000000E+000	5.79446e-06	-1.46753e-10	5.79461e-06	3.78276	2.46934e+06	62.5396	2.46941e+06
0.00129428	14.6376	4.85497	15.4218	-18.3495	20329	3.78266	0.00153185	2.53283e+07	2.51022e+06	1	11	0.00503201	0.000326293	0	-0.00640872	-9.58012e-05	9.78098e-07	42.0759	0.0029976	0.002225	-0.00200874	-18.3398	15.4232	14.6398	4.85296	0.0615464	0.0204136	0.0648434	18.3495	2.51022e+09	7.56825e+09	7.97368e+09	-71.6505	0.0000000E+000	0.0000000E+000	0.0000000E+000	71.6505	0.0000000E+000	0.0000000E+000	0.0000000E+000	-71.6505	0.0000000E+000	0.0000000E+000	0.0000000E+000	-18.3495	0.0000000E+000	0.0000000E+000	0.0000000E+000	18.3495	3.01498	71.6505	0.000000000000000E+000	5.79446e-06	-1.46753e-10	5.79461e-06	3.78276	2.46934e+06	62.5396	2.46941e+06
0.000796479	16.3251	5.68975	17.2882	-19.2148	20329	3.78266	0.00153185	3.51199e+07	3.80398e+06	1	11	0.00503306	0.000291126	0	-0.00640872	-9.58012e-05	8.99239e-07	-77.1407	0.00308882	0.000687441	0.00301136	-19.2235	17.2899	16.3258	5.69276	0.0546205	0.0190367	0.0578428	19.2148	3.80398e+09	1.09144e+10	1.15583e+10	-70.7852	0.0000000E+000	0.0000000E+000	0.0000000E+000	70.7852	0.0000000E+000	0.0000000E+000	0.0000000E+000	-70.7852	0.0000000E+000	0.0000000E+000	0.0000000E+000	-19.2148	0.0000000E+000	0.0000000E+000	0.0000000E+000	19.2148	2.86922	70.7852	0.000000000000000E+000	5.79446e-06	-1.46753e-10	5.79461e-06	3.78276	2.46934e+06	62.5396	2.46941e+06
0.000497799	16.0212	7.53763	17.7058	-25.196	20329	3.78266	0.00153185	4.24161e+07	7.68726e+06	1	11	0.00503389	0.000284308	0	-0.00640872	-9.58012e-05	1.2493e-06	87.8512	0.00439419	0.000164757	-0.0043911	-25.1829	17.704	16.0213	7.53324	0.0511052	0.0240439	0.0564788	25.196	7.68726e+09	1.63392e+10	1.80572e+10	-64.804	0.0000000E+000	0.0000000E+000	0.0000000E+000	64.804	0.0000000E+000	0.0000000E+000	0.0000000E+000	-64.804	0.0000000E+000	0.0000000E+000	0.0000000E+000	-25.196	0.0000000E+000	0.0000000E+000	0.0000000E+000	25.196	2.12549	64.804	0.000000000000000E+000	5.79446e-06	-1.46753e-10	5.79461e-06	3.78276	2.46934e+06	62.5396	2.46941e+06
0.000298679	16.2024	10.9464	19.5535	-34.0431	20329	3.78266	0.00153185	4.86792e+07	1.52558e+07	1	11	0.00503252	0.000257371	0	-0.00640872	-9.58012e-05	5.38741e-06	31.8706	0.0209325	0.0177767	-0.0110524	-33.9871	19.5621	16.2202	10.9353	0.0423768	0.0286299	0.0511416	34.0431	1.52558e+10	2.2581e+10	2.72514e+10	-55.9569	0.0000000E+000	0.0000000E+000	0.0000000E+000	55.9569	0.0000000E+000	0.0000000E+000	0.0000000E+000	-55.9569	0.0000000E+000	0.0000000E+000	0.0000000E+000	-34.0431	0.0000000E+000	0.0000000E+000	0.0000000E+000	34.0431	1.48016	55.9569	0.000000000000000E+000	5.79446e-06	-1.46753e-10	5.79461e-06	3.78276	2.46934e+06	62.5396	2.46941e+06
9.95598e-05	19.0894	34.0187	39.0087	-60.7013	20329	3.78266	0.00153185	4.69914e+07	3.57381e+07	1	11	0.00502169	0.000128733	0	-0.00640872	-9.58012e-05	1.1185e-05	-96.4194	0.0868854	-0.00971426	0.0863406	-60.7756	39.0793	19.0797	34.105	0.012545	0.0223561	0.0256353	60.7013	3.57381e+10	2.00542e+10	4.09803e+10	-29.2987	0.0000000E+000	0.0000000E+000	0.0000000E+000	29.2987	0.0000000E+000	0.0000000E+000	0.0000000E+000	-29.2987	0.0000000E+000	0.0000000E+000	0.0000000E+000	-60.7013	0.0000000E+000	0.0000000E+000	0.0000000E+000	60.7013	0.561144	29.2987	0.000000000000000E+000	5.79446e-06	-1.46753e-10	5.79461e-06	3.78276	2.46934e+06	62.5396	2.46941e+06