File: txt/17613_R291_UC85_SOC50_C08.mpt
EC-Lab ASCII FILE
Nb header lines : 64

Potentio Electrochemical Impedance Spectroscopy

Run on channel : 8 (SN 65398)
User :
CE vs. WE compliance from -10 V to 10 V
Electrode connection : standard
Potential control : Ewe
Ewe ctrl range : min = -10.00 V, max = 10.00 V
Safety Limits :
	Do not start on E overload
Acquisition started on : 09/17/2025 17:35:06.760
Loaded Setting File :  C:\Users\Celltest\OneDrive - store-dot.com\Documents\EC-Lab\Data\Michael\R290\17544_R290_UC82_50SOC.mps
Saved on :
	File : 17613_R291_UC85_SOC50_C08.mpr
	Directory : C:\Users\Celltest\OneDrive - store-dot.com\Documents\EC-Lab\Data\Gyutae\
	Host : 169.254.61.224
Device : VMP-3e (SN .003165)
Address : USB
EC-LAB for windows v11.62 (software)
Internet server v27.00 (firmware)
Command interpretor v12.03 (firmware)
Electrode material :
Initial state :
Electrolyte :
Comments :
Electrode surface area : 0.001 cm²
Characteristic mass : 0.001 g
Equivalent Weight : 0.000 g/eq.
Density : 0.000 g/cm3
Volume (V) : 0.001 cm³
Record Ece
Cycle Definition : Charge/Discharge alternance
Mode                Multi sine
E (V)               0.0000
vs.                 Eoc
tE (h:m:s)          0:00:0.0000
record              0
dI                  0.000
unit dI             mA
dt (s)              0.000
fi                  1.000
unit fi             MHz
ff                  0.100
unit ff             mHz
Nd                  10
Points              per decade
spacing             Logarithmic
Va (mV)             5.0
pw                  0.10
Na                  2
corr                0
E range min (V)     -10.000
E range max (V)     10.000
I Range             Auto
Bandwidth           5
nc cycles           0
goto Ns'            0
nr cycles           0
inc. cycle          0

freq/Hz	Re(Z)/Ohm	-Im(Z)/Ohm	|Z|/Ohm	Phase(Z)/deg	time/s	<Ewe>/V	<I>/mA	Cs/µF	Cp/µF	cycle number	I Range	|Ewe|/V	|I|/A	Ns	(Q-Qo)/mA.h	<Ece>/V	|Ece|/V	Phase(Zce)/deg	|Zce|/Ohm	Re(Zce)/Ohm	-Im(Zce)/Ohm	Phase(Zwe-ce)/deg	|Zwe-ce|/Ohm	Re(Zwe-ce)/Ohm	-Im(Zwe-ce)/Ohm	Re(Y)/Ohm-1	Im(Y)/Ohm-1	|Y|/Ohm-1	Phase(Y)/deg	Re(C)/nF	Im(C)/nF	|C|/nF	Phase(C)/deg	Re(M)	Im(M)	|M|	Phase(M)/deg	Re(Permittivity)	Im(Permittivity)	|Permittivity|	Phase(Permittivity)/deg	Re(Resistivity)/Ohm.cm	Im(Resistivity)/Ohm.cm	|Resistivity|/Ohm.cm	Phase(Resistivity)/deg	Re(Conductivity)/mS/cm	Im(Conductivity)/mS/cm	|Conductivity|/mS/cm	Phase(Conductivity)/deg	Tan(Delta)	Loss Angle(Delta)/deg	dq/mA.h	Pwe/W	Pce/W	Pwe-ce/W	<Ewe-Ece>/V	Rwe/Ohm	Rce/Ohm	Rwe-ce/Ohm		Ewe-Ece/V
1.00002e+06	2.49958	2.7224	3.69586	-47.4433	1.77353	3.78386	-0.0619707	0.0584602	0.03172	1	10	0.000249128	6.74074e-05	0	-3.51429e-05	8.26613e-05	0.00019466	-66.5912	2.88782	1.1473	2.65013	-55.8313	6.49336	3.64688	5.37253	0.182994	0.199306	0.270573	47.4433	31.72	29.1239	43.0623	-42.5567	0.0000000E+000	0.0000000E+000	0.0000000E+000	42.5567	0.0000000E+000	0.0000000E+000	0.0000000E+000	-42.5567	0.0000000E+000	0.0000000E+000	0.0000000E+000	-47.4433	0.0000000E+000	0.0000000E+000	0.0000000E+000	47.4433	0.918154	42.5567	-3.51429e-05	-0.000234489	-5.12258e-09	-0.000234483	3.78378	61059	1.33388	61057.6
630957	1.0067	-0.0552747	1.00821	3.14278	2.94253	3.78345	-0.0876089	-4.56346	-0.0137165	1	9	0.000356359	0.000353456	0	-6.24627e-05	0.000216278	0.000114363	-104.871	0.323555	-0.083036	0.312719	-15.5743	0.958867	0.92366	0.257444	0.990363	-0.0543779	0.991854	-3.14278	-13.7165	249.813	250.189	-93.1428	0.0000000E+000	0.0000000E+000	0.0000000E+000	93.1428	0.0000000E+000	0.0000000E+000	0.0000000E+000	-93.1428	0.0000000E+000	0.0000000E+000	0.0000000E+000	3.14278	0.0000000E+000	0.0000000E+000	0.0000000E+000	-3.14278	18.2126	86.8572	-8.4428e-06	-0.000331464	-1.89479e-08	-0.000331445	3.78323	43185.7	2.46867	43183.2
398103	1.27745	0.0964305	1.28108	-4.31689	3.71053	3.78354	-0.0735837	4.14581	0.0234901	1	9	0.00129738	0.00101272	0	-7.6e-05	0.00019719	5.29661e-05	163.991	0.0523007	-0.0502725	-0.0144237	-3.82314	1.22991	1.22718	0.0820068	0.778375	0.0587571	0.78059	4.31689	23.4901	311.181	312.066	-85.6831	0.0000000E+000	0.0000000E+000	0.0000000E+000	85.6831	0.0000000E+000	0.0000000E+000	0.0000000E+000	-85.6831	0.0000000E+000	0.0000000E+000	0.0000000E+000	-4.31689	0.0000000E+000	0.0000000E+000	0.0000000E+000	4.31689	13.2473	85.6831	-6.94351e-06	-0.000278407	-1.45099e-08	-0.000278392	3.78335	51418.3	2.6798	51415.6
251206	1.45926	0.310657	1.49196	-12.018	4.47756	3.78343	-0.0818425	2.03943	0.0884205	1	9	0.00405097	0.00271519	0	-9.08409e-05	-8.91312e-05	7.42302e-05	101.903	0.0273388	-0.00563881	-0.026751	-11.0512	1.48109	1.45363	0.283906	0.655566	0.139561	0.670257	12.018	88.4206	415.343	424.65	-77.9819	0.0000000E+000	0.0000000E+000	0.0000000E+000	77.9819	0.0000000E+000	0.0000000E+000	0.0000000E+000	-77.9819	0.0000000E+000	0.0000000E+000	0.0000000E+000	-12.018	0.0000000E+000	0.0000000E+000	0.0000000E+000	12.018	4.69735	77.9819	-5.85126e-06	-0.000309646	7.29472e-09	-0.000309653	3.78352	46228.2	1.08906	46229.3
158486	1.61266	0.420619	1.66661	-14.6184	5.24556	3.78341	-0.0645063	2.38748	0.152072	1	9	0.00534942	0.00320975	0	-0.000102172	0.000273542	7.079e-05	97.9351	0.0220546	-0.00304468	-0.0218435	-13.9146	1.65828	1.60962	0.398775	0.580596	0.151432	0.600019	14.6184	152.072	583.046	602.552	-75.3816	0.0000000E+000	0.0000000E+000	0.0000000E+000	75.3816	0.0000000E+000	0.0000000E+000	0.0000000E+000	-75.3816	0.0000000E+000	0.0000000E+000	0.0000000E+000	-14.6184	0.0000000E+000	0.0000000E+000	0.0000000E+000	14.6184	3.83402	75.3816	4.15317e-08	-0.000244053	-1.76452e-08	-0.000244036	3.78313	58651.8	4.24055	58647.5
100004	1.79014	0.461972	1.84879	-14.4703	6.01153	3.78341	-0.0575494	3.445	0.215103	1	9	0.00541537	0.00292915	0	-0.000109424	0.000578951	4.80654e-05	104.704	0.0164093	-0.0041652	-0.0158719	-14.0244	1.84084	1.78597	0.4461	0.523737	0.135158	0.540895	14.4703	215.103	833.522	860.83	-75.5297	0.0000000E+000	0.0000000E+000	0.0000000E+000	75.5297	0.0000000E+000	0.0000000E+000	0.0000000E+000	-75.5297	0.0000000E+000	0.0000000E+000	0.0000000E+000	-14.4703	0.0000000E+000	0.0000000E+000	0.0000000E+000	14.4703	3.875	75.5297	5.18038e-06	-0.000217733	-3.33183e-08	-0.0002177	3.78283	65742	10.0601	65731.9
63093.8	1.94945	0.481529	2.00804	-13.8748	6.77756	3.78341	-0.0492533	5.23855	0.301239	1	9	0.00540231	0.00269034	0	-0.000123276	-1.2779e-05	3.18561e-05	82.3542	0.0118409	0.00157542	-0.0117357	-13.5387	2.00679	1.95102	0.469793	0.483468	0.11942	0.497998	13.8748	301.239	1219.55	1256.21	-76.1252	0.0000000E+000	0.0000000E+000	0.0000000E+000	76.1252	0.0000000E+000	0.0000000E+000	0.0000000E+000	-76.1252	0.0000000E+000	0.0000000E+000	0.0000000E+000	-13.8748	0.0000000E+000	0.0000000E+000	0.0000000E+000	13.8748	4.04846	76.1252	-3.07871e-06	-0.000186346	6.29406e-10	-0.000186346	3.78343	76815.4	0.259454	76815.6
39814.1	2.09652	0.48305	2.15145	-12.9748	7.66953	3.78342	-0.0473188	8.27544	0.417171	1	9	0.00501156	0.00232939	0	-0.000133974	-0.000108219	1.46255e-05	53.4604	0.0062787	0.0037382	-0.00504459	-12.8218	2.15397	2.10026	0.478006	0.452936	0.104359	0.464803	12.9748	417.171	1810.59	1858.03	-77.0252	0.0000000E+000	0.0000000E+000	0.0000000E+000	77.0252	0.0000000E+000	0.0000000E+000	0.0000000E+000	-77.0252	0.0000000E+000	0.0000000E+000	0.0000000E+000	-12.9748	0.0000000E+000	0.0000000E+000	0.0000000E+000	12.9748	4.34017	77.0252	-7.22383e-06	-0.000179027	5.12081e-09	-0.000179032	3.78353	79955.9	2.28702	79958.2
25116.9	2.22296	0.507065	2.28006	-12.8495	8.31154	3.78342	-0.0470956	12.4966	0.618054	1	9	0.00518824	0.00227549	0	-0.000142411	0.000235366	5.46776e-06	-17.0817	0.0024029	0.0022969	0.000705814	-12.854	2.28245	2.22525	0.507771	0.427603	0.0975377	0.438586	12.8495	618.054	2709.53	2779.13	-77.1505	0.0000000E+000	0.0000000E+000	0.0000000E+000	77.1505	0.0000000E+000	0.0000000E+000	0.0000000E+000	-77.1505	0.0000000E+000	0.0000000E+000	0.0000000E+000	-12.8495	0.0000000E+000	0.0000000E+000	0.0000000E+000	12.8495	4.38397	77.1505	-3.86652e-06	-0.000178182	-1.10847e-08	-0.000178171	3.78318	80334.7	4.99761	80329.7
15847.7	2.35485	0.520494	2.41169	-12.4637	8.95755	3.78342	-0.0441195	19.2947	0.898728	1	9	0.00504594	0.00209229	0	-0.00015107	-0.000280012	7.42996e-05	28.4978	0.0355112	0.0312085	-0.0169433	-11.9168	2.43861	2.38606	0.50355	0.404876	0.0894899	0.414648	12.4637	898.729	4066.08	4164.22	-77.5363	0.0000000E+000	0.0000000E+000	0.0000000E+000	77.5363	0.0000000E+000	0.0000000E+000	0.0000000E+000	-77.5363	0.0000000E+000	0.0000000E+000	0.0000000E+000	-12.4637	0.0000000E+000	0.0000000E+000	0.0000000E+000	12.4637	4.52426	77.5363	-4.13549e-06	-0.000166922	1.2354e-08	-0.000166935	3.7837	85754	6.34667	85760.3
10002.2	2.48498	0.585686	2.55307	-13.262	9.47553	3.78342	-0.0441567	27.1681	1.42976	1	9	0.0045546	0.00178397	0	-0.00015842	0.000349894	1.52619e-05	-25.4631	0.00855499	0.00772398	0.00367805	-13.3025	2.56143	2.4927	0.589364	0.38124	0.0898545	0.391686	13.262	1429.76	6066.27	6232.48	-76.738	0.0000000E+000	0.0000000E+000	0.0000000E+000	76.738	0.0000000E+000	0.0000000E+000	0.0000000E+000	-76.738	0.0000000E+000	0.0000000E+000	0.0000000E+000	-13.262	0.0000000E+000	0.0000000E+000	0.0000000E+000	13.262	4.24286	76.738	-3.72619e-06	-0.000167063	-1.54502e-08	-0.000167048	3.78307	85681.7	7.92392	85673.8
6309.38	2.65474	0.660068	2.73557	-13.9627	10.1175	3.78341	-0.0454215	38.2159	2.22498	1	9	0.00478479	0.0017491	0	-0.000166124	-7.00431e-05	1.5238e-05	2.35669	0.00871191	0.00870454	-0.000358238	-13.9116	2.74393	2.66345	0.65971	0.354753	0.0882049	0.365554	13.9627	2224.98	8948.7	9221.16	-76.0373	0.0000000E+000	0.0000000E+000	0.0000000E+000	76.0373	0.0000000E+000	0.0000000E+000	0.0000000E+000	-76.0373	0.0000000E+000	0.0000000E+000	0.0000000E+000	-13.9627	0.0000000E+000	0.0000000E+000	0.0000000E+000	13.9627	4.02192	76.0373	-2.17607e-06	-0.000171848	3.18147e-09	-0.000171851	3.78348	83295.4	1.54207	83297
3983.6	2.82282	0.764213	2.92444	-15.1484	10.6821	3.78311	-0.12403	52.2793	3.57005	1	9	0.00469655	0.00160597	0	-0.000178754	6.35733e-05	4.14925e-06	-55.3593	0.00258365	0.00146862	0.00212565	-15.181	2.92641	2.82429	0.766339	0.330064	0.0893573	0.341946	15.1484	3570.05	13186.9	13661.6	-74.8516	0.0000000E+000	0.0000000E+000	0.0000000E+000	74.8516	0.0000000E+000	0.0000000E+000	0.0000000E+000	-74.8516	0.0000000E+000	0.0000000E+000	0.0000000E+000	-15.1484	0.0000000E+000	0.0000000E+000	0.0000000E+000	15.1484	3.69376	74.8516	-8.9632e-06	-0.000469219	-7.88498e-09	-0.000469211	3.78305	30501.6	0.512564	30501.1
2510.8	3.01948	0.900834	3.15099	-16.612	11.5068	3.78348	0.0298386	70.366	5.75118	1	9	0.00464667	0.00147467	0	-0.000181115	8.26613e-05	3.77483e-06	155.902	0.00255978	-0.00233669	-0.00104516	-16.6059	3.14846	3.01714	0.899788	0.304115	0.0907297	0.31736	16.612	5751.18	19277.2	20116.8	-73.388	0.0000000E+000	0.0000000E+000	0.0000000E+000	73.388	0.0000000E+000	0.0000000E+000	0.0000000E+000	-73.388	0.0000000E+000	0.0000000E+000	0.0000000E+000	-16.612	0.0000000E+000	0.0000000E+000	0.0000000E+000	16.612	3.35187	73.388	3.53609e-06	0.000112894	2.4665e-09	0.000112891	3.7834	126798	2.77028	126796
1585.51	3.29882	1.04874	3.46151	-17.6362	12.6538	3.78337	-0.0706753	95.716	8.78592	1	10	0.00472127	0.00136393	0	-0.000184085	0.000311718	1.88082e-05	-103.353	0.0137897	-0.00318466	0.0134169	-17.8637	3.46257	3.29563	1.06216	0.275313	0.0875257	0.288891	17.6362	8785.93	27636.2	28999.2	-72.3638	0.0000000E+000	0.0000000E+000	0.0000000E+000	72.3638	0.0000000E+000	0.0000000E+000	0.0000000E+000	-72.3638	0.0000000E+000	0.0000000E+000	0.0000000E+000	-17.6362	0.0000000E+000	0.0000000E+000	0.0000000E+000	17.6362	3.14551	72.3638	-6.01846e-06	-0.000267391	-2.20308e-08	-0.000267369	3.78306	53531.7	4.41056	53527.3
1000.32	3.63099	1.22627	3.83247	-18.661	13.5559	3.78336	-0.0692469	129.746	13.2834	1	10	0.00468583	0.00122266	0	-0.00020058	-1.2779e-05	8.6545e-06	-39.0859	0.0070784	0.00549427	0.00446282	-18.6979	3.83911	3.63649	1.23073	0.247211	0.0834886	0.260928	18.661	13283.4	39332.2	41514.7	-71.339	0.0000000E+000	0.0000000E+000	0.0000000E+000	71.339	0.0000000E+000	0.0000000E+000	0.0000000E+000	-71.339	0.0000000E+000	0.0000000E+000	0.0000000E+000	-18.661	0.0000000E+000	0.0000000E+000	0.0000000E+000	18.661	2.96101	71.339	-7.48138e-06	-0.000261986	8.84903e-10	-0.000261987	3.78338	54635.9	0.184542	54636.1
631.01	4.04466	1.40332	4.28119	-19.1345	14.4565	3.78336	-0.0694403	179.733	19.3113	1	10	0.00465132	0.00108646	0	-0.000217932	0.000101749	3.02422e-06	101.878	0.00278356	-0.000572947	-0.00272396	-19.1026	4.27975	4.04408	1.40059	0.220675	0.0765646	0.23358	19.1345	19311.3	55659.3	58914.2	-70.8655	0.0000000E+000	0.0000000E+000	0.0000000E+000	70.8655	0.0000000E+000	0.0000000E+000	0.0000000E+000	-70.8655	0.0000000E+000	0.0000000E+000	0.0000000E+000	-19.1345	0.0000000E+000	0.0000000E+000	0.0000000E+000	19.1345	2.88221	70.8655	-9.21812e-06	-0.000262718	-7.06551e-09	-0.000262711	3.78326	54483.7	1.46528	54482.2
398.089	4.5674	1.52745	4.81604	-18.4913	15.3588	3.78336	-0.0679747	261.741	26.3286	1	10	0.00463499	0.000962408	0	-0.00023479	6.3091e-06	1.05575e-05	7.82686	0.0109699	0.0108677	-0.00149388	-18.4335	4.82587	4.57826	1.52596	0.19692	0.0658549	0.20764	18.4913	26328.6	78727.9	83013.7	-71.5087	0.0000000E+000	0.0000000E+000	0.0000000E+000	71.5087	0.0000000E+000	0.0000000E+000	0.0000000E+000	-71.5087	0.0000000E+000	0.0000000E+000	0.0000000E+000	-18.4913	0.0000000E+000	0.0000000E+000	0.0000000E+000	18.4913	2.9902	71.5087	-7.70146e-06	-0.000257173	-4.28859e-10	-0.000257172	3.78335	55658.4	0.0928155	55658.3
251.044	5.1502	1.55557	5.37999	-16.8065	16.257	3.78336	-0.0672604	407.549	34.0719	1	10	0.00462446	0.000859566	0	-0.000250799	0.000407158	1.11678e-05	-21.5473	0.0129924	0.0120844	0.0047717	-16.8179	5.39294	5.16228	1.56034	0.177934	0.0537436	0.185874	16.8065	34071.9	112805	117839	-73.1935	0.0000000E+000	0.0000000E+000	0.0000000E+000	73.1935	0.0000000E+000	0.0000000E+000	0.0000000E+000	-73.1935	0.0000000E+000	0.0000000E+000	0.0000000E+000	-16.8065	0.0000000E+000	0.0000000E+000	0.0000000E+000	16.8065	3.3108	73.1935	-7.58338e-06	-0.00025447	-2.73856e-08	-0.000254443	3.78295	56249.4	6.05346	56243.3
158.428	5.69463	1.44389	5.87483	-14.2277	17.1619	3.78337	-0.0646788	695.75	42.0272	1	10	0.00461349	0.000785298	0	-0.00026568	-5.09551e-05	5.47063e-06	-76.3116	0.00696631	0.00164852	0.00676845	-14.2877	5.87809	5.69628	1.45066	0.164997	0.0418353	0.170218	14.2277	42027.2	165753	170998	-75.7723	0.0000000E+000	0.0000000E+000	0.0000000E+000	75.7723	0.0000000E+000	0.0000000E+000	0.0000000E+000	-75.7723	0.0000000E+000	0.0000000E+000	0.0000000E+000	-14.2277	0.0000000E+000	0.0000000E+000	0.0000000E+000	14.2277	3.94395	75.7723	-7.47425e-06	-0.000244704	3.29571e-09	-0.000244707	3.78342	58494.8	0.787818	58495.6
100.032	6.16583	1.22979	6.28728	-11.2797	18.0608	3.78335	-0.0651847	1293.75	49.4978	1	10	0.00461283	0.000733677	0	-0.00028212	0.000178102	8.68422e-06	63.124	0.0118366	0.00535085	-0.0105581	-11.1759	6.29047	6.17118	1.21923	0.155979	0.0311103	0.159051	11.2797	49497.8	248169	253057	-78.7203	0.0000000E+000	0.0000000E+000	0.0000000E+000	78.7203	0.0000000E+000	0.0000000E+000	0.0000000E+000	-78.7203	0.0000000E+000	0.0000000E+000	0.0000000E+000	-11.2797	0.0000000E+000	0.0000000E+000	0.0000000E+000	11.2797	5.01374	78.7203	-8.7959e-06	-0.000246617	-1.16095e-08	-0.000246605	3.78318	58040.5	2.73226	58037.8
63.0823	6.50011	0.96524	6.57139	-8.44646	18.9779	3.7834	-0.0605087	2613.83	56.394	1	10	0.00460573	0.000700876	0	-0.000297149	-5.09551e-05	6.28675e-06	34.058	0.00896986	0.00743127	-0.0050234	-8.39367	6.57801	6.50755	0.960216	0.150524	0.0223522	0.152175	8.44646	56394	379769	383933	-81.5535	0.0000000E+000	0.0000000E+000	0.0000000E+000	81.5535	0.0000000E+000	0.0000000E+000	0.0000000E+000	-81.5535	0.0000000E+000	0.0000000E+000	0.0000000E+000	-8.44646	0.0000000E+000	0.0000000E+000	0.0000000E+000	8.44646	6.7342	81.5535	-7.98493e-06	-0.000228928	3.08322e-09	-0.000228931	3.78345	62526.5	0.842112	62527.3
39.8089	6.73336	0.743847	6.77433	-6.30401	19.8788	3.78339	-0.0616135	5374.73	64.8024	1	10	0.00461897	0.000681834	0	-0.000312459	0.000311718	1.12341e-05	82.507	0.0164763	0.00214861	-0.0163357	-6.16469	6.77469	6.73551	0.727511	0.146724	0.0162088	0.147616	6.30401	64802.4	586597	590165	-83.696	0.0000000E+000	0.0000000E+000	0.0000000E+000	83.696	0.0000000E+000	0.0000000E+000	0.0000000E+000	-83.696	0.0000000E+000	0.0000000E+000	0.0000000E+000	-6.30401	0.0000000E+000	0.0000000E+000	0.0000000E+000	6.30401	9.05209	83.696	-7.37656e-06	-0.000233108	-1.9206e-08	-0.000233089	3.78307	61405.1	5.05925	61400.1
25.1044	6.85879	0.556794	6.88135	-4.64107	20.758	3.78339	-0.0616805	11386.1	74.5447	1	10	0.00460865	0.000669731	0	-0.000327192	-0.000165483	1.11185e-05	-80.4201	0.0166014	0.00276287	0.0163699	-4.77499	6.88545	6.86155	0.573164	0.144844	0.0117584	0.14532	4.64107	74544.8	918269	921290	-85.3589	0.0000000E+000	0.0000000E+000	0.0000000E+000	85.3589	0.0000000E+000	0.0000000E+000	0.0000000E+000	-85.3589	0.0000000E+000	0.0000000E+000	0.0000000E+000	-4.64107	0.0000000E+000	0.0000000E+000	0.0000000E+000	4.64107	12.3184	85.3589	-8.17706e-06	-0.000233361	1.02071e-08	-0.000233371	3.78355	61338.5	2.68291	61341.2
15.8576	6.95231	0.426833	6.9654	-3.51323	21.636	3.78339	-0.0670038	23514	88.2976	1	10	0.00461909	0.000663149	0	-0.000340077	0.000139925	1.28486e-05	-34.2167	0.0193751	0.0160216	0.0108951	-3.59441	6.98207	6.96833	0.437728	0.143297	0.00879762	0.143567	3.51323	88297.6	1.4382e+06	1.44091e+06	-86.4868	0.0000000E+000	0.0000000E+000	0.0000000E+000	86.4868	0.0000000E+000	0.0000000E+000	0.0000000E+000	-86.4868	0.0000000E+000	0.0000000E+000	0.0000000E+000	-3.51323	0.0000000E+000	0.0000000E+000	0.0000000E+000	3.51323	16.2881	86.4868	-5.83811e-06	-0.000253502	-9.37553e-09	-0.000253492	3.78325	56465.4	2.08832	56463.3
10.0032	7.01383	0.330758	7.02163	-2.69995	22.6178	3.78339	-0.0614387	48102.9	106.737	1	10	0.00460558	0.000655913	0	-0.0003592	0.000120837	9.16534e-06	-50.1296	0.0139734	0.0089577	0.0107245	-2.78381	7.03109	7.02279	0.341482	0.142259	0.00670864	0.142417	2.69995	106737	2.2634e+06	2.26591e+06	-87.3	0.0000000E+000	0.0000000E+000	0.0000000E+000	87.3	0.0000000E+000	0.0000000E+000	0.0000000E+000	-87.3	0.0000000E+000	0.0000000E+000	0.0000000E+000	-2.69995	0.0000000E+000	0.0000000E+000	0.0000000E+000	2.69995	21.2054	87.3	-1.29285e-05	-0.000232446	-7.42409e-09	-0.000232439	3.78326	61579.9	1.9668	61577.9
6.31058	7.0739	0.297172	7.08014	-2.40556	23.5423	3.78334	-0.0768691	84867.9	149.511	1	10	0.00460676	0.000650659	0	-0.000374795	0.000159014	7.02612e-06	57.8602	0.0107985	0.00574465	-0.00914363	-2.32973	7.08551	7.07965	0.288028	0.141116	0.00592821	0.14124	2.40556	149511	3.55898e+06	3.56212e+06	-87.5944	0.0000000E+000	0.0000000E+000	0.0000000E+000	87.5944	0.0000000E+000	0.0000000E+000	0.0000000E+000	-87.5944	0.0000000E+000	0.0000000E+000	0.0000000E+000	-2.40556	0.0000000E+000	0.0000000E+000	0.0000000E+000	2.40556	23.8041	87.5944	-1.244e-05	-0.000290822	-1.22232e-08	-0.00029081	3.78318	49218	2.06863	49215.9
3.97785	7.12949	0.276212	7.13484	-2.21866	24.5493	3.7834	-0.0630829	144853	217.093	1	10	0.00461196	0.0006464	0	-0.000387266	-5.09551e-05	6.00115e-06	85.1928	0.00928396	0.000778017	-0.0092513	-2.14418	7.13526	7.13026	0.266961	0.140052	0.00542594	0.140157	2.21866	217094	5.60353e+06	5.60774e+06	-87.7813	0.0000000E+000	0.0000000E+000	0.0000000E+000	87.7813	0.0000000E+000	0.0000000E+000	0.0000000E+000	-87.7813	0.0000000E+000	0.0000000E+000	0.0000000E+000	-2.21866	0.0000000E+000	0.0000000E+000	0.0000000E+000	2.21866	25.8116	87.7813	-2.4014e-06	-0.000238668	3.21439e-09	-0.000238671	3.78345	59975	0.807748	59975.8
2.51367	7.18091	0.277884	7.18629	-2.21611	26.4709	3.78343	-0.0512312	227849	340.695	1	11	0.00460842	0.00064128	0	-0.000422911	-0.000108219	8.26314e-06	-4.47578	0.0128854	0.0128461	0.00100555	-2.22015	7.19916	7.19376	0.27889	0.13905	0.0053809	0.139154	2.21611	340695	8.80403e+06	8.81062e+06	-87.7839	0.0000000E+000	0.0000000E+000	0.0000000E+000	87.7839	0.0000000E+000	0.0000000E+000	0.0000000E+000	-87.7839	0.0000000E+000	0.0000000E+000	0.0000000E+000	-2.21611	0.0000000E+000	0.0000000E+000	0.0000000E+000	2.21611	25.8414	87.7839	-2.26288e-05	-0.00019383	5.5442e-09	-0.000193835	3.78354	73850	2.11237	73852.1
1.58469	7.24404	0.321322	7.25117	-2.53979	28.9065	3.78344	-0.0507355	312562	613.765	1	11	0.00460947	0.000635686	0	-0.00045712	-3.1867e-05	6.21668e-06	-35.5122	0.00977948	0.00796041	0.00568067	-2.5818	7.25937	7.252	0.327003	0.137773	0.00611118	0.137909	2.53979	613764	1.3837e+07	1.38506e+07	-87.4602	0.0000000E+000	0.0000000E+000	0.0000000E+000	87.4602	0.0000000E+000	0.0000000E+000	0.0000000E+000	-87.4602	0.0000000E+000	0.0000000E+000	0.0000000E+000	-2.53979	0.0000000E+000	0.0000000E+000	0.0000000E+000	2.53979	22.5445	87.4602	-1.28742e-05	-0.000191954	1.61679e-09	-0.000191956	3.78347	74571.8	0.628101	74572.4
1.00469	7.32874	0.354799	7.33733	-2.77164	239.726	3.7834	-0.0299262	446482	1043.98	1	11	0.00519834	0.000708479	0	-0.00504052	0.000178102	9.80077e-07	-9.39166	0.00138335	0.00136481	0.000225739	-2.77288	7.3387	7.33011	0.355025	0.13613	0.00659032	0.136289	2.77164	1.04398e+06	2.15645e+07	2.15898e+07	-87.2284	0.0000000E+000	0.0000000E+000	0.0000000E+000	87.2284	0.0000000E+000	0.0000000E+000	0.0000000E+000	-87.2284	0.0000000E+000	0.0000000E+000	0.0000000E+000	-2.77164	0.0000000E+000	0.0000000E+000	0.0000000E+000	2.77164	20.656	87.2284	-0.00457618	-0.000113223	-5.32991e-09	-0.000113218	3.78322	126424	5.95135	126418
0.632957	7.41473	0.434538	7.42745	-3.35397	239.727	3.7834	-0.0299262	578653	1980.59	1	11	0.0052111	0.0007016	0	-0.00504052	0.000178102	1.17289e-06	2.27683	0.00167174	0.00167042	-6.64142e-05	-3.3527	7.42912	7.4164	0.434472	0.134405	0.00787677	0.134636	3.35397	1.98059e+06	3.37957e+07	3.38537e+07	-86.646	0.0000000E+000	0.0000000E+000	0.0000000E+000	86.646	0.0000000E+000	0.0000000E+000	0.0000000E+000	-86.646	0.0000000E+000	0.0000000E+000	0.0000000E+000	-3.35397	0.0000000E+000	0.0000000E+000	0.0000000E+000	3.35397	17.0635	86.646	0.000000000000000E+000	-0.000113223	-5.32991e-09	-0.000113218	3.78322	126424	5.95135	126418
0.401878	7.48379	0.548071	7.50383	-4.18855	239.729	3.7834	-0.0299262	722586	3854.76	1	11	0.00522463	0.000696262	0	-0.00504052	0.000178102	1.22545e-06	-7.59468	0.00176005	0.00174461	0.000232615	-4.18934	7.50559	7.48553	0.548303	0.132909	0.00973354	0.133265	4.18855	3.85476e+06	5.26359e+07	5.27768e+07	-85.8115	0.0000000E+000	0.0000000E+000	0.0000000E+000	85.8115	0.0000000E+000	0.0000000E+000	0.0000000E+000	-85.8115	0.0000000E+000	0.0000000E+000	0.0000000E+000	-4.18855	0.0000000E+000	0.0000000E+000	0.0000000E+000	4.18855	13.6548	85.8115	0.000000000000000E+000	-0.000113223	-5.32991e-09	-0.000113218	3.78322	126424	5.95135	126418
0.251173	7.62162	0.721414	7.65569	-5.40714	239.731	3.7834	-0.0299262	878338	7799.42	1	11	0.00522519	0.000682523	0	-0.00504052	0.000178102	1.36529e-06	-4.66459	0.00200036	0.00199374	0.000162674	-5.40695	7.65769	7.62362	0.721577	0.130041	0.0123088	0.130622	5.40714	7.79942e+06	8.23996e+07	8.27679e+07	-84.5929	0.0000000E+000	0.0000000E+000	0.0000000E+000	84.5929	0.0000000E+000	0.0000000E+000	0.0000000E+000	-84.5929	0.0000000E+000	0.0000000E+000	0.0000000E+000	-5.40714	0.0000000E+000	0.0000000E+000	0.0000000E+000	5.40714	10.5648	84.5929	0.000000000000000E+000	-0.000113223	-5.32991e-09	-0.000113218	3.78322	126424	5.95135	126418
0.160751	7.79823	0.841465	7.8435	-6.15865	239.733	3.7834	-0.0299262	1.1766e+06	13542	1	11	0.00522027	0.000665554	0	-0.00504052	0.000178102	6.72231e-07	-11.0783	0.00101003	0.00099121	0.000194079	-6.15928	7.84451	7.79922	0.841659	0.126758	0.0136778	0.127494	6.15865	1.3542e+07	1.255e+08	1.26228e+08	-83.8414	0.0000000E+000	0.0000000E+000	0.0000000E+000	83.8414	0.0000000E+000	0.0000000E+000	0.0000000E+000	-83.8414	0.0000000E+000	0.0000000E+000	0.0000000E+000	-6.15865	0.0000000E+000	0.0000000E+000	0.0000000E+000	6.15865	9.26745	83.8414	0.000000000000000E+000	-0.000113223	-5.32991e-09	-0.000113218	3.78322	126424	5.95135	126418
0.100469	7.95411	1.2126	8.04601	-8.66795	239.735	3.7834	-0.0299262	1.30638e+06	29671.6	1	11	0.00522285	0.000649123	0	-0.00504052	0.000178102	1.08324e-06	-3.60188	0.00166877	0.00166548	0.000104838	-8.66689	8.04767	7.95578	1.2127	0.122866	0.0187308	0.124285	8.66795	2.96716e+07	1.94633e+08	1.96882e+08	-81.3321	0.0000000E+000	0.0000000E+000	0.0000000E+000	81.3321	0.0000000E+000	0.0000000E+000	0.0000000E+000	-81.3321	0.0000000E+000	0.0000000E+000	0.0000000E+000	-8.66795	0.0000000E+000	0.0000000E+000	0.0000000E+000	8.66795	6.55957	81.3321	0.000000000000000E+000	-0.000113223	-5.32991e-09	-0.000113218	3.78322	126424	5.95135	126418
0.0602816	8.30088	1.52815	8.44037	-10.4311	239.736	3.7834	-0.0299262	1.7277e+06	56634.1	1	11	0.00521798	0.000618217	0	-0.00504052	0.000178102	9.72522e-07	-20.2145	0.00157311	0.00147621	0.000543566	-10.4329	8.44192	8.30236	1.5287	0.11652	0.0214508	0.118478	10.4311	5.66341e+07	3.07635e+08	3.12805e+08	-79.5689	0.0000000E+000	0.0000000E+000	0.0000000E+000	79.5689	0.0000000E+000	0.0000000E+000	0.0000000E+000	-79.5689	0.0000000E+000	0.0000000E+000	0.0000000E+000	-10.4311	0.0000000E+000	0.0000000E+000	0.0000000E+000	10.4311	5.43198	79.5689	0.000000000000000E+000	-0.000113223	-5.32991e-09	-0.000113218	3.78322	126424	5.95135	126418
0.0401878	8.7454	1.87815	8.9448	-12.1207	239.738	3.7834	-0.0299262	2.1086e+06	92964.3	1	11	0.00521774	0.000583327	0	-0.00504052	0.000178102	6.94493e-07	-16.9919	0.00119057	0.0011386	0.000347929	-12.1213	8.94599	8.74654	1.8785	0.109305	0.0234741	0.111797	12.1207	9.29643e+07	4.32877e+08	4.42747e+08	-77.8793	0.0000000E+000	0.0000000E+000	0.0000000E+000	77.8793	0.0000000E+000	0.0000000E+000	0.0000000E+000	-77.8793	0.0000000E+000	0.0000000E+000	0.0000000E+000	-12.1207	0.0000000E+000	0.0000000E+000	0.0000000E+000	12.1207	4.65638	77.8793	0.000000000000000E+000	-0.000113223	-5.32991e-09	-0.000113218	3.78322	126424	5.95135	126418
0.0200939	9.80029	2.99855	10.2488	-17.0123	239.74	3.7834	-0.0299262	2.64147e+06	226113	1	11	0.00521892	0.000509225	0	-0.00504052	0.000178102	1.42651e-06	-3.72917	0.00280134	0.00279541	0.0001822	-17.0087	10.2515	9.80309	2.99873	0.0933032	0.0285476	0.0975728	17.0123	2.26113e+08	7.39015e+08	7.72832e+08	-72.9877	0.0000000E+000	0.0000000E+000	0.0000000E+000	72.9877	0.0000000E+000	0.0000000E+000	0.0000000E+000	-72.9877	0.0000000E+000	0.0000000E+000	0.0000000E+000	-17.0123	0.0000000E+000	0.0000000E+000	0.0000000E+000	17.0123	3.26834	72.9877	0.000000000000000E+000	-0.000113223	-5.32991e-09	-0.000113218	3.78322	126424	5.95135	126418
0.00796479	12.885	4.02427	13.4988	-17.3448	20328.7	3.7834	0.000736236	4.96545e+06	441309	1	11	0.00521167	0.000386084	0	-0.0162041	-0.000165483	4.89072e-07	-58.1717	0.00126675	0.000668052	0.00107627	-17.3483	13.4998	12.8857	4.02535	0.0707121	0.022085	0.0740807	17.3448	4.41309e+08	1.41299e+09	1.4803e+09	-72.6552	0.0000000E+000	0.0000000E+000	0.0000000E+000	72.6552	0.0000000E+000	0.0000000E+000	0.0000000E+000	-72.6552	0.0000000E+000	0.0000000E+000	0.0000000E+000	-17.3448	0.0000000E+000	0.0000000E+000	0.0000000E+000	17.3448	3.20182	72.6552	-0.0111635	2.78548e-06	-1.21835e-10	2.7856e-06	3.78357	5.13884e+06	224.769	5.13907e+06
0.00497799	14.5971	4.12062	15.1675	-15.7639	20328.7	3.7834	0.000736236	7.75896e+06	572662	1	11	0.00522021	0.00034417	0	-0.0162041	-0.000165483	4.30185e-07	-7.84829	0.00124992	0.00123821	0.000170677	-15.7632	15.1688	14.5983	4.12079	0.0634506	0.0179115	0.0659303	15.7639	5.72662e+08	2.02863e+09	2.1079e+09	-74.2361	0.0000000E+000	0.0000000E+000	0.0000000E+000	74.2361	0.0000000E+000	0.0000000E+000	0.0000000E+000	-74.2361	0.0000000E+000	0.0000000E+000	0.0000000E+000	-15.7639	0.0000000E+000	0.0000000E+000	0.0000000E+000	15.7639	3.54245	74.2361	0.000000000000000E+000	2.78548e-06	-1.21835e-10	2.7856e-06	3.78357	5.13884e+06	224.769	5.13907e+06
0.00318591	15.6464	5.39035	16.5489	-19.0094	20328.7	3.7834	0.000736236	9.26763e+06	983255	1	11	0.00522271	0.000315593	0	-0.0162041	-0.000165483	4.35099e-07	18.3992	0.00137867	0.00130819	-0.000435159	-19.0065	16.55	15.6477	5.38992	0.0571317	0.0196825	0.0604271	19.0094	9.83255e+08	2.85406e+09	3.01868e+09	-70.9906	0.0000000E+000	0.0000000E+000	0.0000000E+000	70.9906	0.0000000E+000	0.0000000E+000	0.0000000E+000	-70.9906	0.0000000E+000	0.0000000E+000	0.0000000E+000	-19.0094	0.0000000E+000	0.0000000E+000	0.0000000E+000	19.0094	2.90266	70.9906	0.000000000000000E+000	2.78548e-06	-1.21835e-10	2.7856e-06	3.78357	5.13884e+06	224.769	5.13907e+06
0.0019912	16.842	5.59583	17.7473	-18.3793	20328.7	3.7834	0.000736236	1.42837e+07	1.42006e+06	1	11	0.00522657	0.0002945	0	-0.0162041	-0.000165483	1.4676e-06	-82.5408	0.00498337	0.000646945	0.0049412	-18.3938	17.7495	16.8427	5.60077	0.0534724	0.0177664	0.0563466	18.3793	1.42006e+09	4.27401e+09	4.50374e+09	-71.6207	0.0000000E+000	0.0000000E+000	0.0000000E+000	71.6207	0.0000000E+000	0.0000000E+000	0.0000000E+000	-71.6207	0.0000000E+000	0.0000000E+000	0.0000000E+000	-18.3793	0.0000000E+000	0.0000000E+000	0.0000000E+000	18.3793	3.00974	71.6207	0.000000000000000E+000	2.78548e-06	-1.21835e-10	2.7856e-06	3.78357	5.13884e+06	224.769	5.13907e+06
0.00129428	17.2626	6.20118	18.3426	-19.7597	20328.7	3.7834	0.000736236	1.98298e+07	2.26645e+06	1	11	0.00522606	0.000284914	0	-0.0162041	-0.000165483	1.49248e-06	-97.3755	0.00523837	-0.000672459	0.00519503	-19.7756	18.3437	17.2619	6.20638	0.0513078	0.0184312	0.0545179	19.7597	2.26644e+09	6.30923e+09	6.70396e+09	-70.2403	0.0000000E+000	0.0000000E+000	0.0000000E+000	70.2403	0.0000000E+000	0.0000000E+000	0.0000000E+000	-70.2403	0.0000000E+000	0.0000000E+000	0.0000000E+000	-19.7597	0.0000000E+000	0.0000000E+000	0.0000000E+000	19.7597	2.78375	70.2403	0.000000000000000E+000	2.78548e-06	-1.21835e-10	2.7856e-06	3.78357	5.13884e+06	224.769	5.13907e+06
0.000796479	19.8175	7.05651	21.0364	-19.5995	20328.7	3.7834	0.000736236	2.83176e+07	3.18636e+06	1	11	0.00522659	0.000248455	0	-0.0162041	-0.000165483	9.16209e-07	-28.8481	0.00368763	0.00323	0.00177924	-19.6011	21.04	19.8208	7.05828	0.0447825	0.0159459	0.0475367	19.5995	3.18636e+09	8.94858e+09	9.49894e+09	-70.4005	0.0000000E+000	0.0000000E+000	0.0000000E+000	70.4005	0.0000000E+000	0.0000000E+000	0.0000000E+000	-70.4005	0.0000000E+000	0.0000000E+000	0.0000000E+000	-19.5995	0.0000000E+000	0.0000000E+000	0.0000000E+000	19.5995	2.80841	70.4005	0.000000000000000E+000	2.78548e-06	-1.21835e-10	2.7856e-06	3.78357	5.13884e+06	224.769	5.13907e+06
0.000497799	19.7812	8.65139	21.5903	-23.6224	20328.7	3.7834	0.000736236	3.69556e+07	5.93382e+06	1	11	0.00522716	0.000242107	0	-0.0162041	-0.000165483	2.61485e-06	-80.1225	0.0108004	0.00185272	0.0106403	-23.6463	21.5963	19.783	8.66203	0.042436	0.0185596	0.0463171	23.6224	5.93382e+09	1.35675e+10	1.48084e+10	-66.3776	0.0000000E+000	0.0000000E+000	0.0000000E+000	66.3776	0.0000000E+000	0.0000000E+000	0.0000000E+000	-66.3776	0.0000000E+000	0.0000000E+000	0.0000000E+000	-23.6224	0.0000000E+000	0.0000000E+000	0.0000000E+000	23.6224	2.28647	66.3776	0.000000000000000E+000	2.78548e-06	-1.21835e-10	2.7856e-06	3.78357	5.13884e+06	224.769	5.13907e+06
0.000298679	20.249	11.9081	23.491	-30.459	20328.7	3.7834	0.000736236	4.47479e+07	1.14989e+07	1	11	0.00522397	0.000222382	0	-0.0162041	-0.000165483	5.92361e-06	-100.241	0.0266371	-0.00473597	0.0262127	-30.52	23.5002	20.2443	11.9343	0.0366946	0.0215795	0.0425696	30.459	1.14989e+10	1.95532e+10	2.26837e+10	-59.541	0.0000000E+000	0.0000000E+000	0.0000000E+000	59.541	0.0000000E+000	0.0000000E+000	0.0000000E+000	-59.541	0.0000000E+000	0.0000000E+000	0.0000000E+000	-30.459	0.0000000E+000	0.0000000E+000	0.0000000E+000	30.459	1.70044	59.541	0.000000000000000E+000	2.78548e-06	-1.21835e-10	2.7856e-06	3.78357	5.13884e+06	224.769	5.13907e+06
9.95598e-05	24.1194	35.2736	42.7314	-55.6364	20328.7	3.7834	0.000736236	4.53196e+07	3.0881e+07	1	11	0.00522237	0.000122214	0	-0.0162041	-0.000165483	4.53569e-06	4.94698	0.0371127	0.0369744	-0.00320037	-55.5931	42.7496	24.1564	35.2704	0.0132091	0.0193177	0.023402	55.6364	3.0881e+10	2.11159e+10	3.74101e+10	-34.3636	0.0000000E+000	0.0000000E+000	0.0000000E+000	34.3636	0.0000000E+000	0.0000000E+000	0.0000000E+000	-34.3636	0.0000000E+000	0.0000000E+000	0.0000000E+000	-55.6364	0.0000000E+000	0.0000000E+000	0.0000000E+000	55.6364	0.683782	34.3636	0.000000000000000E+000	2.78548e-06	-1.21835e-10	2.7856e-06	3.78357	5.13884e+06	224.769	5.13907e+06