File: txt/17686_R288_UA670_SOC00_C01.mpt
EC-Lab ASCII FILE

Nb header lines : 63

Potentio Electrochemical Impedance Spectroscopy

Run on channel : 1 (SN 66354)
User :
CE vs. WE compliance from -10 V to 10 V
Electrode connection : standard
Potential control : Ewe
Ewe ctrl range : min = -10.00 V, max = 10.00 V
Safety Limits :
	Do not start on E overload
Acquisition started on : 09/22/2025 08:43:30.064
Loaded Setting File :  C:\Users\Celltest\OneDrive - store-dot.com\Documents\EC-Lab\Data\txt_done\14380_R229_UA592_SOC00_C01.mpr
Saved on :
	File : 17686_R288_UA670_SOC00_C01.mpr
	Directory : C:\Users\Celltest\OneDrive - store-dot.com\Documents\EC-Lab\Data\Charmaine\
	Host : 169.254.61.224
Device : VMP-3e (SN .003165)
Address : USB
EC-LAB for windows v11.62 (software)
Internet server v27.00 (firmware)
Command interpretor v12.03 (firmware)
Electrode material :
Initial state :
Electrolyte :
Comments :
Electrode surface area : 0.001 cm²
Characteristic mass : 0.001 g
Equivalent Weight : 0.000 g/eq.
Density : 0.000 g/cm3
Volume (V) : 0.001 cm³
Cycle Definition : Charge/Discharge alternance
Mode                Single sine
E (V)               0.0000
vs.                 Eoc
tE (h:m:s)          0:00:0.0000
record              0
dI                  0.000
unit dI             mA
dt (s)              0.000
fi                  100.000
unit fi             kHz
ff                  10.000
unit ff             mHz
Nd                  6
Points              per decade
spacing             Logarithmic
Va (mV)             5.0
pw                  0.10
Na                  2
corr                0
E range min (V)     -10.000
E range max (V)     10.000
I Range             Auto
Bandwidth           5
nc cycles           0
goto Ns'            0
nr cycles           0
inc. cycle          0

freq/Hz	Re(Z)/Ohm	-Im(Z)/Ohm	|Z|/Ohm	Phase(Z)/deg	time/s	<Ewe>/V	<I>/mA	Cs/µF	Cp/µF	cycle number	I Range	|Ewe|/V	|I|/A	Ns	(Q-Qo)/mA.h	Re(Y)/Ohm-1	Im(Y)/Ohm-1	|Y|/Ohm-1	Phase(Y)/deg	Re(C)/nF	Im(C)/nF	|C|/nF	Phase(C)/deg	Re(M)	Im(M)	|M|	Phase(M)/deg	Re(Permittivity)	Im(Permittivity)	|Permittivity|	Phase(Permittivity)/deg	Re(Resistivity)/Ohm.cm	Im(Resistivity)/Ohm.cm	|Resistivity|/Ohm.cm	Phase(Resistivity)/deg	Re(Conductivity)/mS/cm	Im(Conductivity)/mS/cm	|Conductivity|/mS/cm	Phase(Conductivity)/deg	Tan(Delta)	Loss Angle(Delta)/deg	dq/mA.h	Pwe/W	Rwe/Ohm
100004	1.01954	0.182655	1.03577	-10.1571	2.06749	0.268874	0.0677239	8.71309	0.270962	1	9	0.00464679	0.00448631	0	6.97729e-06	0.950334	0.170257	0.965465	10.1571	270.962	1512.45	1536.53	-79.8429	0.0000000E+000	0.0000000E+000	0.0000000E+000	79.8429	0.0000000E+000	0.0000000E+000	0.0000000E+000	-79.8429	0.0000000E+000	0.0000000E+000	0.0000000E+000	-10.1571	0.0000000E+000	0.0000000E+000	0.0000000E+000	10.1571	5.58177	79.8429	6.97729e-06	1.82092e-05	3970.16
68132	1.06251	0.203001	1.08173	-10.8164	2.50448	0.268863	0.0593975	11.5072	0.405254	1	9	0.00543751	0.00502666	0	2.30479e-05	0.908018	0.173484	0.924442	10.8164	405.254	2121.11	2159.48	-79.1836	0.0000000E+000	0.0000000E+000	0.0000000E+000	79.1836	0.0000000E+000	0.0000000E+000	0.0000000E+000	-79.1836	0.0000000E+000	0.0000000E+000	0.0000000E+000	-10.8164	0.0000000E+000	0.0000000E+000	0.0000000E+000	10.8164	5.23403	79.1836	1.60706e-05	1.59698e-05	4526.5
46420.4	1.10749	0.225698	1.13025	-11.5187	3.0835	0.268867	0.0688229	15.1909	0.605741	1	9	0.00502246	0.00444365	0	3.29916e-05	0.866937	0.176675	0.884757	11.5187	605.741	2972.35	3033.44	-78.4813	0.0000000E+000	0.0000000E+000	0.0000000E+000	78.4813	0.0000000E+000	0.0000000E+000	0.0000000E+000	-78.4813	0.0000000E+000	0.0000000E+000	0.0000000E+000	-11.5187	0.0000000E+000	0.0000000E+000	0.0000000E+000	11.5187	4.90696	78.4813	9.94371e-06	1.85042e-05	3906.66
31621.1	1.16046	0.258171	1.18883	-12.5425	3.52148	0.268864	0.0669043	19.4955	0.919411	1	9	0.00544903	0.00458352	0	4.09502e-05	0.821088	0.18267	0.841162	12.5425	919.411	4132.69	4233.72	-77.4575	0.0000000E+000	0.0000000E+000	0.0000000E+000	77.4575	0.0000000E+000	0.0000000E+000	0.0000000E+000	-77.4575	0.0000000E+000	0.0000000E+000	0.0000000E+000	-12.5425	0.0000000E+000	0.0000000E+000	0.0000000E+000	12.5425	4.49493	77.4575	7.95859e-06	1.79882e-05	4018.64
21544.7	1.21732	0.2945	1.25243	-13.6	3.95848	0.268863	0.0635514	25.0839	1.38694	1	9	0.00540856	0.00431844	0	4.37587e-05	0.776058	0.187748	0.798446	13.6	1386.94	5732.9	5898.28	-76.4	0.0000000E+000	0.0000000E+000	0.0000000E+000	76.4	0.0000000E+000	0.0000000E+000	0.0000000E+000	-76.4	0.0000000E+000	0.0000000E+000	0.0000000E+000	-13.6	0.0000000E+000	0.0000000E+000	0.0000000E+000	13.6	4.1335	76.4	2.80855e-06	1.70866e-05	4230.65
14678.6	1.28313	0.333378	1.32573	-14.5643	4.39547	0.268863	0.0670905	32.5236	2.05665	1	9	0.0052232	0.00393986	0	4.9791e-05	0.730061	0.189682	0.7543	14.5643	2056.65	7915.81	8178.62	-75.4357	0.0000000E+000	0.0000000E+000	0.0000000E+000	75.4357	0.0000000E+000	0.0000000E+000	0.0000000E+000	-75.4357	0.0000000E+000	0.0000000E+000	0.0000000E+000	-14.5643	0.0000000E+000	0.0000000E+000	0.0000000E+000	14.5643	3.84888	75.4357	6.03228e-06	1.80381e-05	4007.46
10002.2	1.35985	0.383283	1.41283	-15.7408	4.83348	0.268866	0.0628435	41.5149	3.05534	1	9	0.00515085	0.00364576	0	5.9225e-05	0.681254	0.192016	0.707797	15.7408	3055.34	10840.1	11262.4	-74.2592	0.0000000E+000	0.0000000E+000	0.0000000E+000	74.2592	0.0000000E+000	0.0000000E+000	0.0000000E+000	-74.2592	0.0000000E+000	0.0000000E+000	0.0000000E+000	-15.7408	0.0000000E+000	0.0000000E+000	0.0000000E+000	15.7408	3.54791	74.2592	9.43405e-06	1.68965e-05	4278.34
6811.07	1.44784	0.436563	1.51223	-16.7794	5.21152	0.268816	0.0408635	53.5252	4.46083	1	9	0.00535515	0.00354123	0	6.13889e-05	0.63312	0.190902	0.661275	16.7794	4460.83	14794.2	15452.1	-73.2206	0.0000000E+000	0.0000000E+000	0.0000000E+000	73.2206	0.0000000E+000	0.0000000E+000	0.0000000E+000	-73.2206	0.0000000E+000	0.0000000E+000	0.0000000E+000	-16.7794	0.0000000E+000	0.0000000E+000	0.0000000E+000	16.7794	3.31646	73.2206	2.16384e-06	1.09848e-05	6578.41
4641.49	1.54761	0.500851	1.62664	-17.9331	5.68267	0.268842	0.0544799	68.4628	6.49069	1	9	0.00534549	0.00328623	0	6.55619e-05	0.584898	0.18929	0.614766	17.9331	6490.69	20056	21080.1	-72.0669	0.0000000E+000	0.0000000E+000	0.0000000E+000	72.0669	0.0000000E+000	0.0000000E+000	0.0000000E+000	-72.0669	0.0000000E+000	0.0000000E+000	0.0000000E+000	-17.9331	0.0000000E+000	0.0000000E+000	0.0000000E+000	17.9331	3.08996	72.0669	4.17299e-06	1.46465e-05	4934.7
3161.01	1.65898	0.57648	1.75628	-19.1619	6.14971	0.268845	0.0580936	87.3393	9.40998	1	9	0.00528138	0.00300713	0	7.1231e-05	0.537837	0.186894	0.569384	19.1619	9409.98	27079.8	28668.1	-70.8381	0.0000000E+000	0.0000000E+000	0.0000000E+000	70.8381	0.0000000E+000	0.0000000E+000	0.0000000E+000	-70.8381	0.0000000E+000	0.0000000E+000	0.0000000E+000	-19.1619	0.0000000E+000	0.0000000E+000	0.0000000E+000	19.1619	2.87777	70.8381	5.66909e-06	1.56182e-05	4627.79
2155.69	1.78379	0.666917	1.90439	-20.4996	6.6167	0.268835	0.053027	110.704	13.5767	1	9	0.00522067	0.00274139	0	7.78854e-05	0.491851	0.183891	0.525103	20.4996	13576.7	36313.4	38768.5	-69.5004	0.0000000E+000	0.0000000E+000	0.0000000E+000	69.5004	0.0000000E+000	0.0000000E+000	0.0000000E+000	-69.5004	0.0000000E+000	0.0000000E+000	0.0000000E+000	-20.4996	0.0000000E+000	0.0000000E+000	0.0000000E+000	20.4996	2.67468	69.5004	6.6544e-06	1.42555e-05	5069.77
1468.59	1.92189	0.776271	2.07275	-21.9942	7.08395	0.268831	0.0542005	139.607	19.5813	1	9	0.00516565	0.00249218	0	8.25423e-05	0.44734	0.180685	0.482452	21.9942	19581.3	48479.4	52284.6	-68.0058	0.0000000E+000	0.0000000E+000	0.0000000E+000	68.0058	0.0000000E+000	0.0000000E+000	0.0000000E+000	-68.0058	0.0000000E+000	0.0000000E+000	0.0000000E+000	-21.9942	0.0000000E+000	0.0000000E+000	0.0000000E+000	21.9942	2.4758	68.0058	4.65691e-06	1.45708e-05	4959.93
1000.32	2.08334	0.918951	2.27701	-23.802	7.55271	0.268833	0.0527848	173.136	28.1996	1	9	0.00513564	0.00225543	0	9.0976e-05	0.401818	0.17724	0.439172	23.802	28199.6	63930.9	69874	-66.198	0.0000000E+000	0.0000000E+000	0.0000000E+000	66.198	0.0000000E+000	0.0000000E+000	0.0000000E+000	-66.198	0.0000000E+000	0.0000000E+000	0.0000000E+000	-23.802	0.0000000E+000	0.0000000E+000	0.0000000E+000	23.802	2.26709	66.198	8.43372e-06	1.41903e-05	5093
681.09	2.26557	1.10254	2.5196	-25.9498	8.01844	0.26883	0.0569014	211.944	40.5831	1	9	0.00510342	0.00202549	0	9.78834e-05	0.356872	0.173672	0.396888	25.9498	40583.1	83392.9	92743.5	-64.0502	0.0000000E+000	0.0000000E+000	0.0000000E+000	64.0502	0.0000000E+000	0.0000000E+000	0.0000000E+000	-64.0502	0.0000000E+000	0.0000000E+000	0.0000000E+000	-25.9498	0.0000000E+000	0.0000000E+000	0.0000000E+000	25.9498	2.05487	64.0502	6.9074e-06	1.52968e-05	4724.49
463.961	2.50112	1.33928	2.83713	-28.1678	8.48722	0.26883	0.0571063	256.134	57.076	1	9	0.00509314	0.00179518	0	0.000105093	0.310726	0.166385	0.352469	28.1678	57076	106590	120909	-61.8322	0.0000000E+000	0.0000000E+000	0.0000000E+000	61.8322	0.0000000E+000	0.0000000E+000	0.0000000E+000	-61.8322	0.0000000E+000	0.0000000E+000	0.0000000E+000	-28.1678	0.0000000E+000	0.0000000E+000	0.0000000E+000	28.1678	1.86751	61.8322	7.21e-06	1.53519e-05	4707.54
316.316	2.81465	1.62901	3.25206	-30.0607	9.20694	0.268856	-0.00956748	308.869	77.5007	1	10	0.00511536	0.00157296	0	0.000107504	0.266137	0.15403	0.307497	30.0607	77500.7	133908	154718	-59.9393	0.0000000E+000	0.0000000E+000	0.0000000E+000	59.9393	0.0000000E+000	0.0000000E+000	0.0000000E+000	-59.9393	0.0000000E+000	0.0000000E+000	0.0000000E+000	-30.0607	0.0000000E+000	0.0000000E+000	0.0000000E+000	30.0607	1.72782	59.9393	2.41061e-06	-2.57227e-06	28101
215.345	3.20167	1.97066	3.75955	-31.6127	9.67446	0.268857	-0.00916497	375.038	103.045	1	10	0.0050949	0.00135519	0	0.000107577	0.22652	0.139425	0.26599	31.6127	103045	167414	196585	-58.3873	0.0000000E+000	0.0000000E+000	0.0000000E+000	58.3873	0.0000000E+000	0.0000000E+000	0.0000000E+000	-58.3873	0.0000000E+000	0.0000000E+000	0.0000000E+000	-31.6127	0.0000000E+000	0.0000000E+000	0.0000000E+000	31.6127	1.62467	58.3873	7.25741e-08	-2.46406e-06	29335.2
146.737	3.70748	2.3478	4.38835	-32.3445	10.1374	0.268855	-0.0101806	461.974	132.233	1	10	0.00508109	0.00115786	0	0.000105819	0.192521	0.121916	0.227876	32.3445	132233	208812	247160	-57.6555	0.0000000E+000	0.0000000E+000	0.0000000E+000	57.6555	0.0000000E+000	0.0000000E+000	0.0000000E+000	-57.6555	0.0000000E+000	0.0000000E+000	0.0000000E+000	-32.3445	0.0000000E+000	0.0000000E+000	0.0000000E+000	32.3445	1.57913	57.6555	-1.75766e-06	-2.7371e-06	26408.7
100.032	4.3627	2.75627	5.16045	-32.2839	10.6057	0.268849	-0.00927865	577.244	164.675	1	10	0.00507604	0.000983644	0	0.000103769	0.163825	0.103502	0.193782	32.2839	164675	260653	308314	-57.7161	0.0000000E+000	0.0000000E+000	0.0000000E+000	57.7161	0.0000000E+000	0.0000000E+000	0.0000000E+000	-57.7161	0.0000000E+000	0.0000000E+000	0.0000000E+000	-32.2839	0.0000000E+000	0.0000000E+000	0.0000000E+000	32.2839	1.58283	57.7161	-2.04982e-06	-2.49455e-06	28975
68.104	5.18926	3.10023	6.04482	-30.8555	11.0843	0.268858	-0.00712076	753.795	198.278	1	10	0.00506478	0.000837871	0	0.00010231	0.142016	0.0848452	0.165431	30.8555	198278	331884	386602	-59.1445	0.0000000E+000	0.0000000E+000	0.0000000E+000	59.1445	0.0000000E+000	0.0000000E+000	0.0000000E+000	-59.1445	0.0000000E+000	0.0000000E+000	0.0000000E+000	-30.8555	0.0000000E+000	0.0000000E+000	0.0000000E+000	30.8555	1.67383	59.1445	-1.45906e-06	-1.91447e-06	37757
46.4415	6.16719	3.31542	7.00187	-28.2621	11.5395	0.268849	-0.0121875	1033.65	231.752	1	10	0.00505882	0.000722495	0	0.00010059	0.125794	0.0676255	0.142819	28.2621	231752	431094	489440	-61.7379	0.0000000E+000	0.0000000E+000	0.0000000E+000	61.7379	0.0000000E+000	0.0000000E+000	0.0000000E+000	-61.7379	0.0000000E+000	0.0000000E+000	0.0000000E+000	-28.2621	0.0000000E+000	0.0000000E+000	0.0000000E+000	28.2621	1.86015	61.7379	-1.72024e-06	-3.27661e-06	22059.3
31.6296	7.19075	3.33102	7.92481	-24.8553	11.9864	0.268851	-0.0128733	1510.6	266.887	1	10	0.00505298	0.000637616	0	9.94085e-05	0.114498	0.0530396	0.126186	24.8553	266887	576134	634948	-65.1447	0.0000000E+000	0.0000000E+000	0.0000000E+000	65.1447	0.0000000E+000	0.0000000E+000	0.0000000E+000	-65.1447	0.0000000E+000	0.0000000E+000	0.0000000E+000	-24.8553	0.0000000E+000	0.0000000E+000	0.0000000E+000	24.8553	2.15872	65.1447	-1.18132e-06	-3.461e-06	20884.4
21.5517	8.17144	3.16265	8.76213	-21.1583	12.4253	0.268849	-0.0138908	2335	304.208	1	10	0.00505859	0.000577325	0	9.7755e-05	0.106434	0.0411938	0.114128	21.1583	304208	785992	842808	-68.8417	0.0000000E+000	0.0000000E+000	0.0000000E+000	68.8417	0.0000000E+000	0.0000000E+000	0.0000000E+000	-68.8417	0.0000000E+000	0.0000000E+000	0.0000000E+000	-21.1583	0.0000000E+000	0.0000000E+000	0.0000000E+000	21.1583	2.58373	68.8417	-1.65345e-06	-3.73451e-06	19354.5
14.6852	9.00707	2.8848	9.45776	-17.7593	12.9031	0.268862	-0.00720276	3756.87	349.526	1	10	0.00505736	0.000534731	0	9.61332e-05	0.100695	0.0322506	0.105733	17.7593	349526	1.09131e+06	1.14592e+06	-72.2407	0.0000000E+000	0.0000000E+000	0.0000000E+000	72.2407	0.0000000E+000	0.0000000E+000	0.0000000E+000	-72.2407	0.0000000E+000	0.0000000E+000	0.0000000E+000	-17.7593	0.0000000E+000	0.0000000E+000	0.0000000E+000	17.7593	3.12225	72.2407	-1.62181e-06	-1.93655e-06	37327.6
10.0032	9.7295	2.5667	10.0624	-14.7783	13.3707	0.268852	-0.00915568	6198.79	403.326	1	10	0.00506247	0.00050311	0	9.26136e-05	0.0960928	0.0253498	0.0993803	14.7783	403326	1.52888e+06	1.58118e+06	-75.2217	0.0000000E+000	0.0000000E+000	0.0000000E+000	75.2217	0.0000000E+000	0.0000000E+000	0.0000000E+000	-75.2217	0.0000000E+000	0.0000000E+000	0.0000000E+000	-14.7783	0.0000000E+000	0.0000000E+000	0.0000000E+000	14.7783	3.79067	75.2217	-3.51965e-06	-2.46152e-06	29364.5
6.81719	10.3135	2.26033	10.5583	-12.3616	13.9334	0.268873	-0.00410546	10328.6	473.37	1	11	0.00505556	0.000478825	0	9.08335e-05	0.0925167	0.0202762	0.0947125	12.3616	473370	2.1599e+06	2.21117e+06	-77.6384	0.0000000E+000	0.0000000E+000	0.0000000E+000	77.6384	0.0000000E+000	0.0000000E+000	0.0000000E+000	-77.6384	0.0000000E+000	0.0000000E+000	0.0000000E+000	-12.3616	0.0000000E+000	0.0000000E+000	0.0000000E+000	12.3616	4.56282	77.6384	-1.7801e-06	-1.10385e-06	65491.5
4.63925	10.7959	1.96896	10.974	-10.336	14.4353	0.268885	-0.00359584	17423.5	560.89	1	11	0.00505389	0.000460532	0	9.00559e-05	0.0896456	0.0163495	0.0911243	10.336	560890	3.0754e+06	3.12613e+06	-79.664	0.0000000E+000	0.0000000E+000	0.0000000E+000	79.664	0.0000000E+000	0.0000000E+000	0.0000000E+000	-79.664	0.0000000E+000	0.0000000E+000	0.0000000E+000	-10.336	0.0000000E+000	0.0000000E+000	0.0000000E+000	10.336	5.48307	79.664	-7.77617e-07	-9.6687e-07	74776.7
3.1604	11.1932	1.74592	11.3286	-8.86555	15.1442	0.268888	-0.00274791	28843.9	685.096	1	11	0.00506209	0.000446842	0	9.71284e-05	0.0872176	0.0136042	0.0882722	8.86555	685096	4.39221e+06	4.44532e+06	-81.1345	0.0000000E+000	0.0000000E+000	0.0000000E+000	81.1345	0.0000000E+000	0.0000000E+000	0.0000000E+000	-81.1345	0.0000000E+000	0.0000000E+000	0.0000000E+000	-8.86555	0.0000000E+000	0.0000000E+000	0.0000000E+000	8.86555	6.41109	81.1345	7.0725e-06	-7.3888e-07	97851.8
2.15577	11.5603	1.55647	11.6646	-7.66818	16.1608	0.268893	-0.000919514	47432.5	844.542	1	11	0.00506289	0.00043404	0	9.69377e-05	0.0849629	0.0114394	0.0857295	7.66818	844541	6.2726e+06	6.3292e+06	-82.3318	0.0000000E+000	0.0000000E+000	0.0000000E+000	82.3318	0.0000000E+000	0.0000000E+000	0.0000000E+000	-82.3318	0.0000000E+000	0.0000000E+000	0.0000000E+000	-7.66818	0.0000000E+000	0.0000000E+000	0.0000000E+000	7.66818	7.42722	82.3318	-1.90688e-07	-2.47251e-07	292430
1.46631	11.8499	1.41188	11.9337	-6.7946	17.634	0.268897	0.000176368	76877.3	1076.08	1	11	0.00506327	0.000424284	0	8.66956e-05	0.083208	0.009914	0.0837966	6.7946	1.07608e+06	9.03149e+06	9.09537e+06	-83.2054	0.0000000E+000	0.0000000E+000	0.0000000E+000	83.2054	0.0000000E+000	0.0000000E+000	0.0000000E+000	-83.2054	0.0000000E+000	0.0000000E+000	0.0000000E+000	-6.7946	0.0000000E+000	0.0000000E+000	0.0000000E+000	6.7946	8.39299	83.2054	-1.02421e-05	4.74246e-08	1.52464e+06
1.00006	12.1192	1.29527	12.1882	-6.10046	19.7742	0.268898	-2.56761e-05	122866	1387.62	1	11	0.00506439	0.000415515	0	7.37365e-05	0.0815817	0.00871922	0.0820463	6.10046	1.38762e+06	1.29833e+07	1.30572e+07	-83.8995	0.0000000E+000	0.0000000E+000	0.0000000E+000	83.8995	0.0000000E+000	0.0000000E+000	0.0000000E+000	-83.8995	0.0000000E+000	0.0000000E+000	0.0000000E+000	-6.10046	0.0000000E+000	0.0000000E+000	0.0000000E+000	6.10046	9.35653	83.8995	-1.29591e-05	-6.90425e-09	1.04727e+07
0.681362	12.3641	1.24556	12.4267	-5.75257	22.8941	0.268901	-0.000777762	187532	1884.06	1	11	0.00506375	0.000407489	0	6.69592e-05	0.0800665	0.0080659	0.0804717	5.75257	1.88406e+06	1.87022e+07	1.87969e+07	-84.2474	0.0000000E+000	0.0000000E+000	0.0000000E+000	84.2474	0.0000000E+000	0.0000000E+000	0.0000000E+000	-84.2474	0.0000000E+000	0.0000000E+000	0.0000000E+000	-5.75257	0.0000000E+000	0.0000000E+000	0.0000000E+000	5.75257	9.92654	84.2474	-6.77726e-06	-2.09141e-07	345736
0.464091	12.5774	1.25964	12.6403	-5.71917	27.4588	0.268903	-0.00190275	272252	2703.63	1	11	0.00506545	0.000400737	0	7.73445e-05	0.0787181	0.00788371	0.0791119	5.71917	2.70363e+06	2.69955e+07	2.71306e+07	-84.2808	0.0000000E+000	0.0000000E+000	0.0000000E+000	84.2808	0.0000000E+000	0.0000000E+000	0.0000000E+000	-84.2808	0.0000000E+000	0.0000000E+000	0.0000000E+000	-5.71917	0.0000000E+000	0.0000000E+000	0.0000000E+000	5.71917	9.98491	84.2808	1.03853e-05	-5.11655e-07	141324
0.316193	12.7665	1.33424	12.8361	-5.96634	34.1411	0.268899	-0.00227783	377255	4076.01	1	11	0.00506516	0.000394604	0	0.00010835	0.0774834	0.00809782	0.0779054	5.96634	4.07601e+06	3.90011e+07	3.92135e+07	-84.0337	0.0000000E+000	0.0000000E+000	0.0000000E+000	84.0337	0.0000000E+000	0.0000000E+000	0.0000000E+000	-84.0337	0.0000000E+000	0.0000000E+000	0.0000000E+000	-5.96634	0.0000000E+000	0.0000000E+000	0.0000000E+000	5.96634	9.56843	84.0337	3.10055e-05	-6.12507e-07	118050
0.215268	12.9816	1.48383	13.0661	-6.52075	43.9387	0.268894	-0.000884537	498260	6425.85	1	11	0.00506508	0.000387649	0	0.000154428	0.0760385	0.0086914	0.0765337	6.52075	6.42585e+06	5.62179e+07	5.6584e+07	-83.4792	0.0000000E+000	0.0000000E+000	0.0000000E+000	83.4792	0.0000000E+000	0.0000000E+000	0.0000000E+000	-83.4792	0.0000000E+000	0.0000000E+000	0.0000000E+000	-6.52075	0.0000000E+000	0.0000000E+000	0.0000000E+000	6.52075	8.74871	83.4792	4.6078e-05	-2.37847e-07	303994
0.146929	13.2511	1.75592	13.367	-7.54833	58.2743	0.268898	0.00172214	616892	10645.1	1	11	0.00506603	0.000378996	0	0.000195581	0.0741629	0.00982738	0.0748112	7.54833	1.06451e+07	8.03341e+07	8.10364e+07	-82.4517	0.0000000E+000	0.0000000E+000	0.0000000E+000	82.4517	0.0000000E+000	0.0000000E+000	0.0000000E+000	-82.4517	0.0000000E+000	0.0000000E+000	0.0000000E+000	-7.54833	0.0000000E+000	0.0000000E+000	0.0000000E+000	7.54833	7.54656	82.4517	4.11525e-05	4.63078e-07	156142
0.0999041	13.554	2.19573	13.7307	-9.20192	79.3442	0.268898	0.0031666	725533	18553.8	1	11	0.00506405	0.000368812	0	0.000196172	0.0718923	0.0116465	0.0728296	9.20192	1.85538e+07	1.1453e+08	1.16023e+08	-80.7981	0.0000000E+000	0.0000000E+000	0.0000000E+000	80.7981	0.0000000E+000	0.0000000E+000	0.0000000E+000	-80.7981	0.0000000E+000	0.0000000E+000	0.0000000E+000	-9.20192	0.0000000E+000	0.0000000E+000	0.0000000E+000	9.20192	6.17287	80.7981	5.91514e-07	8.51491e-07	84917
0.0680626	13.8921	2.76429	14.1645	-11.2539	110.256	0.268902	0.00395475	845918	32217.7	1	11	0.00506804	0.000357799	0	0.000131166	0.0692417	0.0137779	0.0705992	11.2539	3.22176e+07	1.61912e+08	1.65086e+08	-78.7461	0.0000000E+000	0.0000000E+000	0.0000000E+000	78.7461	0.0000000E+000	0.0000000E+000	0.0000000E+000	-78.7461	0.0000000E+000	0.0000000E+000	0.0000000E+000	-11.2539	0.0000000E+000	0.0000000E+000	0.0000000E+000	11.2539	5.02557	78.7461	-6.50064e-05	1.06344e-06	67994.7
0.0464052	14.3285	3.40052	14.7265	-13.3508	155.58	0.268897	0.00192549	1.00857e+06	53777.4	1	11	0.00506582	0.000343993	0	-5.46383e-05	0.0660696	0.01568	0.0679048	13.3508	5.37774e+07	2.26598e+08	2.32892e+08	-76.6492	0.0000000E+000	0.0000000E+000	0.0000000E+000	76.6492	0.0000000E+000	0.0000000E+000	0.0000000E+000	-76.6492	0.0000000E+000	0.0000000E+000	0.0000000E+000	-13.3508	0.0000000E+000	0.0000000E+000	0.0000000E+000	13.3508	4.21362	76.6492	-0.000185804	5.17757e-07	139652
0.0315922	14.975	4.28579	15.5762	-15.971	222.142	0.268895	-0.000145653	1.17546e+06	88991.7	1	11	0.00506318	0.000325059	0	-0.000300863	0.0617226	0.0176648	0.0642006	15.971	8.89916e+07	3.10945e+08	3.23429e+08	-74.029	0.0000000E+000	0.0000000E+000	0.0000000E+000	74.029	0.0000000E+000	0.0000000E+000	0.0000000E+000	-74.029	0.0000000E+000	0.0000000E+000	0.0000000E+000	-15.971	0.0000000E+000	0.0000000E+000	0.0000000E+000	15.971	3.4941	74.029	-0.000246225	-3.91653e-08	1.84613e+06
0.0215268	15.6258	5.5487	16.5817	-19.5499	366.365	0.268897	-0.00119704	1.33245e+06	149201	1	12	0.00506191	0.00030527	0	-0.000476052	0.0568306	0.0201805	0.0603073	19.5499	1.49201e+08	4.20168e+08	4.45873e+08	-70.4501	0.0000000E+000	0.0000000E+000	0.0000000E+000	70.4501	0.0000000E+000	0.0000000E+000	0.0000000E+000	-70.4501	0.0000000E+000	0.0000000E+000	0.0000000E+000	-19.5499	0.0000000E+000	0.0000000E+000	0.0000000E+000	19.5499	2.81612	70.4501	-0.000175189	-3.2188e-07	224636
0.0146812	16.5273	7.19737	18.0264	-23.5324	509.561	0.268894	-0.002056	1.50621e+06	240111	1	12	0.0050634	0.000280887	0	-0.000320026	0.0508605	0.022149	0.055474	23.5324	2.40111e+08	5.51366e+08	6.0138e+08	-66.4676	0.0000000E+000	0.0000000E+000	0.0000000E+000	66.4676	0.0000000E+000	0.0000000E+000	0.0000000E+000	-66.4676	0.0000000E+000	0.0000000E+000	0.0000000E+000	-23.5324	0.0000000E+000	0.0000000E+000	0.0000000E+000	23.5324	2.29629	66.4676	0.000156026	-5.52846e-07	130785

0.0100092	17.4649	9.13797	19.7111	-27.6194	719.581	0.268897	-0.00101068	1.74009e+06	373983	1	12	0.00506213	0.000256816	0	0.000295376	0.0449517	0.0235196	0.0507329	27.6194	3.73983e+08	7.14774e+08	8.067e+08	-62.3806	0.0000000E+000	0.0000000E+000	0.0000000E+000	62.3806	0.0000000E+000	0.0000000E+000	0.0000000E+000	-62.3806	0.0000000E+000	0.0000000E+000	0.0000000E+000	-27.6194	0.0000000E+000	0.0000000E+000	0.0000000E+000	27.6194	1.91125	62.3806	0.000615402	-2.71769e-07	266055