File: txt/17688_R288_UA670_SOC00_C03.mpt
EC-Lab ASCII FILE
Nb header lines : 63

Potentio Electrochemical Impedance Spectroscopy

Run on channel : 3 (SN 65921)
User :
CE vs. WE compliance from -10 V to 10 V
Electrode connection : standard
Potential control : Ewe
Ewe ctrl range : min = -10.00 V, max = 10.00 V
Safety Limits :
	Do not start on E overload
Acquisition started on : 09/22/2025 08:43:48.679
Loaded Setting File :  C:\Users\Celltest\OneDrive - store-dot.com\Documents\EC-Lab\Data\Gyutae\17738_R277_UA674_SOC00_C02.mpr
Saved on :
	File : 17688_R288_UA670_SOC00_C03.mpr
	Directory : C:\Users\Celltest\OneDrive - store-dot.com\Documents\EC-Lab\Data\Charmaine\
	Host : 169.254.61.224
Device : VMP-3e (SN .003165)
Address : USB
EC-LAB for windows v11.62 (software)
Internet server v27.00 (firmware)
Command interpretor v12.03 (firmware)
Electrode material :
Initial state :
Electrolyte :
Comments :
Electrode surface area : 0.001 cm²
Characteristic mass : 0.001 g
Equivalent Weight : 0.000 g/eq.
Density : 0.000 g/cm3
Volume (V) : 0.001 cm³
Cycle Definition : Charge/Discharge alternance
Mode                Single sine
E (V)               0.0000
vs.                 Eoc
tE (h:m:s)          0:00:0.0000
record              0
dI                  0.000
unit dI             mA
dt (s)              0.000
fi                  100.000
unit fi             kHz
ff                  10.000
unit ff             mHz
Nd                  6
Points              per decade
spacing             Logarithmic
Va (mV)             5.0
pw                  0.10
Na                  2
corr                0
E range min (V)     -10.000
E range max (V)     10.000
I Range             Auto
Bandwidth           5
nc cycles           0
goto Ns'            0
nr cycles           0
inc. cycle          0

freq/Hz	Re(Z)/Ohm	-Im(Z)/Ohm	|Z|/Ohm	Phase(Z)/deg	time/s	<Ewe>/V	<I>/mA	Cs/µF	Cp/µF	cycle number	I Range	|Ewe|/V	|I|/A	Ns	(Q-Qo)/mA.h	Re(Y)/Ohm-1	Im(Y)/Ohm-1	|Y|/Ohm-1	Phase(Y)/deg	Re(C)/nF	Im(C)/nF	|C|/nF	Phase(C)/deg	Re(M)	Im(M)	|M|	Phase(M)/deg	Re(Permittivity)	Im(Permittivity)	|Permittivity|	Phase(Permittivity)/deg	Re(Resistivity)/Ohm.cm	Im(Resistivity)/Ohm.cm	|Resistivity|/Ohm.cm	Phase(Resistivity)/deg	Re(Conductivity)/mS/cm	Im(Conductivity)/mS/cm	|Conductivity|/mS/cm	Phase(Conductivity)/deg	Tan(Delta)	Loss Angle(Delta)/deg	dq/mA.h	Pwe/W	Rwe/Ohm
100004	0.966986	0.181456	0.983864	-10.628	1.86449	0.277666	0.025894	8.77066	0.298336	1	9	0.00467544	0.00475212	0	-1.20565e-05	0.998965	0.187457	1.0164	10.628	298.336	1589.84	1617.59	-79.372	0.0000000E+000	0.0000000E+000	0.0000000E+000	79.372	0.0000000E+000	0.0000000E+000	0.0000000E+000	-79.372	0.0000000E+000	0.0000000E+000	0.0000000E+000	-10.628	0.0000000E+000	0.0000000E+000	0.0000000E+000	10.628	5.32903	79.372	-1.20565e-05	7.18989e-06	10723.2
68132	1.01171	0.204713	1.03222	-11.4389	2.30248	0.277627	0.0245888	11.411	0.448819	1	9	0.00545489	0.00528463	0	-2.07383e-05	0.949545	0.192133	0.968788	11.4389	448.819	2218.12	2263.07	-78.5611	0.0000000E+000	0.0000000E+000	0.0000000E+000	78.5611	0.0000000E+000	0.0000000E+000	0.0000000E+000	-78.5611	0.0000000E+000	0.0000000E+000	0.0000000E+000	-11.4389	0.0000000E+000	0.0000000E+000	0.0000000E+000	11.4389	4.94211	78.5611	-8.68179e-06	6.82651e-06	11290.8
46420.4	1.05941	0.228704	1.08382	-12.1819	2.88048	0.277656	0.0296234	14.9913	0.667532	1	9	0.00505725	0.00466614	0	-2.32477e-05	0.901888	0.194697	0.922664	12.1819	667.532	3092.18	3163.41	-77.8181	0.0000000E+000	0.0000000E+000	0.0000000E+000	77.8181	0.0000000E+000	0.0000000E+000	0.0000000E+000	-77.8181	0.0000000E+000	0.0000000E+000	0.0000000E+000	-12.1819	0.0000000E+000	0.0000000E+000	0.0000000E+000	12.1819	4.63225	77.8181	-2.50947e-06	8.2251e-06	9372.85
31621.1	1.11156	0.26315	1.14228	-13.3189	3.31849	0.277642	0.0235818	19.1267	1.01507	1	9	0.00549146	0.00480744	0	-2.60073e-05	0.851892	0.201676	0.875439	13.3189	1015.07	4287.73	4406.25	-76.6811	0.0000000E+000	0.0000000E+000	0.0000000E+000	76.6811	0.0000000E+000	0.0000000E+000	0.0000000E+000	-76.6811	0.0000000E+000	0.0000000E+000	0.0000000E+000	-13.3189	0.0000000E+000	0.0000000E+000	0.0000000E+000	13.3189	4.22406	76.6811	-2.7596e-06	6.54731e-06	11773.5
21544.7	1.17065	0.301125	1.20876	-14.4254	3.75548	0.277626	0.0237497	24.5321	1.52247	1	9	0.00544305	0.00450302	0	-1.86596e-05	0.801215	0.206096	0.827297	14.4254	1522.47	5918.74	6111.41	-75.5746	0.0000000E+000	0.0000000E+000	0.0000000E+000	75.5746	0.0000000E+000	0.0000000E+000	0.0000000E+000	-75.5746	0.0000000E+000	0.0000000E+000	0.0000000E+000	-14.4254	0.0000000E+000	0.0000000E+000	0.0000000E+000	14.4254	3.88758	75.5746	7.34775e-06	6.59352e-06	11689.7
14678.6	1.24048	0.343691	1.28721	-15.4861	4.19248	0.277622	0.0270874	31.5477	2.24908	1	9	0.00526221	0.00408808	0	-2.35571e-05	0.74867	0.207429	0.776874	15.4861	2249.08	8117.57	8423.38	-74.5139	0.0000000E+000	0.0000000E+000	0.0000000E+000	74.5139	0.0000000E+000	0.0000000E+000	0.0000000E+000	-74.5139	0.0000000E+000	0.0000000E+000	0.0000000E+000	-15.4861	0.0000000E+000	0.0000000E+000	0.0000000E+000	15.4861	3.60929	74.5139	-4.89756e-06	7.52005e-06	10249.1
10002.2	1.31958	0.395039	1.37744	-16.666	4.62949	0.27763	0.0291758	40.2795	3.31297	1	9	0.0050371	0.00365685	0	-1.97602e-05	0.695488	0.208207	0.725985	16.666	3312.97	11066.6	11551.8	-73.334	0.0000000E+000	0.0000000E+000	0.0000000E+000	73.334	0.0000000E+000	0.0000000E+000	0.0000000E+000	-73.334	0.0000000E+000	0.0000000E+000	0.0000000E+000	-16.666	0.0000000E+000	0.0000000E+000	0.0000000E+000	16.666	3.34037	73.334	3.79698e-06	8.10009e-06	9515.77
6811.07	1.41144	0.453695	1.48257	-17.8195	5.00752	0.277539	-0.0508002	51.504	4.82324	1	9	0.00499442	0.00336876	0	-2.11017e-05	0.642146	0.206412	0.674505	17.8195	4823.24	15005.1	15761.2	-72.1805	0.0000000E+000	0.0000000E+000	0.0000000E+000	72.1805	0.0000000E+000	0.0000000E+000	0.0000000E+000	-72.1805	0.0000000E+000	0.0000000E+000	0.0000000E+000	-17.8195	0.0000000E+000	0.0000000E+000	0.0000000E+000	17.8195	3.111	72.1805	-1.34155e-06	-1.4099e-05	5463.34
4641.49	1.51656	0.525237	1.60494	-19.1027	5.47868	0.277625	0.0260245	65.2842	6.99196	1	9	0.0048891	0.00304628	0	-1.54428e-05	0.588765	0.203909	0.623075	19.1027	6991.96	20188.5	21365	-70.8973	0.0000000E+000	0.0000000E+000	0.0000000E+000	70.8973	0.0000000E+000	0.0000000E+000	0.0000000E+000	-70.8973	0.0000000E+000	0.0000000E+000	0.0000000E+000	-19.1027	0.0000000E+000	0.0000000E+000	0.0000000E+000	19.1027	2.88739	70.8973	5.65889e-06	7.22506e-06	10667.8
3161.01	1.63778	0.600902	1.74454	-20.1481	5.94568	0.277597	0.028691	83.7897	9.94119	1	9	0.0047945	0.00274829	0	-1.29597e-05	0.538141	0.197444	0.573219	20.1481	9941.19	27095	28861.2	-69.8519	0.0000000E+000	0.0000000E+000	0.0000000E+000	69.8519	0.0000000E+000	0.0000000E+000	0.0000000E+000	-69.8519	0.0000000E+000	0.0000000E+000	0.0000000E+000	-20.1481	0.0000000E+000	0.0000000E+000	0.0000000E+000	20.1481	2.72553	69.8519	2.48313e-06	7.96454e-06	9675.39
2155.69	1.76548	0.693711	1.89688	-21.4514	6.41267	0.277614	0.0282435	106.428	14.2342	1	9	0.00473632	0.0024969	0	-8.11842e-06	0.490662	0.192796	0.527181	21.4514	14234.2	36225.7	38921.9	-68.5486	0.0000000E+000	0.0000000E+000	0.0000000E+000	68.5486	0.0000000E+000	0.0000000E+000	0.0000000E+000	-68.5486	0.0000000E+000	0.0000000E+000	0.0000000E+000	-21.4514	0.0000000E+000	0.0000000E+000	0.0000000E+000	21.4514	2.54498	68.5486	4.84129e-06	7.84079e-06	9829.32
1468.59	1.91726	0.807612	2.08041	-22.8424	6.87997	0.277598	0.0237496	134.189	20.222	1	9	0.00469703	0.00225774	0	-3.59599e-06	0.442978	0.186597	0.480674	22.8424	20222	48006.7	52091.9	-67.1576	0.0000000E+000	0.0000000E+000	0.0000000E+000	67.1576	0.0000000E+000	0.0000000E+000	0.0000000E+000	-67.1576	0.0000000E+000	0.0000000E+000	0.0000000E+000	-22.8424	0.0000000E+000	0.0000000E+000	0.0000000E+000	22.8424	2.37398	67.1576	4.52243e-06	6.59285e-06	11688.5
1000.32	2.08493	0.954278	2.29294	-24.5937	7.3487	0.27759	0.023992	166.727	28.8783	1	9	0.00466466	0.00203436	0	-2.39118e-06	0.396557	0.181506	0.436122	24.5937	28878.3	63093.9	69388.7	-65.4063	0.0000000E+000	0.0000000E+000	0.0000000E+000	65.4063	0.0000000E+000	0.0000000E+000	0.0000000E+000	-65.4063	0.0000000E+000	0.0000000E+000	0.0000000E+000	-24.5937	0.0000000E+000	0.0000000E+000	0.0000000E+000	24.5937	2.18482	65.4063	1.20481e-06	6.65995e-06	11570.1
681.09	2.2715	1.14042	2.54171	-26.6592	7.81443	0.2776	0.0243276	204.905	41.2505	1	9	0.00464323	0.00182682	0	-6.61738e-07	0.351611	0.176528	0.393437	26.6592	41250.5	82163.4	91937.1	-63.3408	0.0000000E+000	0.0000000E+000	0.0000000E+000	63.3408	0.0000000E+000	0.0000000E+000	0.0000000E+000	-63.3408	0.0000000E+000	0.0000000E+000	0.0000000E+000	-26.6592	0.0000000E+000	0.0000000E+000	0.0000000E+000	26.6592	1.99181	63.3408	1.72944e-06	6.75334e-06	11410.9
463.961	2.51701	1.37241	2.86685	-28.6017	8.28318	0.277616	0.0244581	249.95	57.2814	1	9	0.00463253	0.0016159	0	2.9974e-06	0.306248	0.166984	0.348815	28.6017	57281.4	105054	119656	-61.3983	0.0000000E+000	0.0000000E+000	0.0000000E+000	61.3983	0.0000000E+000	0.0000000E+000	0.0000000E+000	-61.3983	0.0000000E+000	0.0000000E+000	0.0000000E+000	-28.6017	0.0000000E+000	0.0000000E+000	0.0000000E+000	28.6017	1.834	61.3983	3.65913e-06	6.78997e-06	11350.7
316.316	2.80098	1.66488	3.25843	-30.7269	9.00294	0.277613	-0.0202652	302.214	78.8982	1	10	0.00465884	0.00142978	0	3.19904e-06	0.263812	0.156808	0.306897	30.7269	78898.2	132737	154416	-59.2731	0.0000000E+000	0.0000000E+000	0.0000000E+000	59.2731	0.0000000E+000	0.0000000E+000	0.0000000E+000	-59.2731	0.0000000E+000	0.0000000E+000	0.0000000E+000	-30.7269	0.0000000E+000	0.0000000E+000	0.0000000E+000	30.7269	1.68239	59.2731	2.01639e-07	-5.62589e-06	13699
215.345	3.18092	2.02348	3.76997	-32.4617	9.47041	0.277615	-0.0196164	365.248	105.222	1	10	0.0046417	0.00123123	0	-3.28802e-07	0.223808	0.142371	0.265254	32.4617	105222	165410	196042	-57.5383	0.0000000E+000	0.0000000E+000	0.0000000E+000	57.5383	0.0000000E+000	0.0000000E+000	0.0000000E+000	-57.5383	0.0000000E+000	0.0000000E+000	0.0000000E+000	-32.4617	0.0000000E+000	0.0000000E+000	0.0000000E+000	32.4617	1.572	57.5383	-3.52784e-06	-5.44581e-06	14152.2
146.737	3.67393	2.4463	4.41386	-33.6578	9.93339	0.277614	-0.0206307	443.374	136.192	1	10	0.00462722	0.00104834	0	-2.37389e-06	0.188579	0.125566	0.226559	33.6578	136192	204538	245732	-56.3422	0.0000000E+000	0.0000000E+000	0.0000000E+000	56.3422	0.0000000E+000	0.0000000E+000	0.0000000E+000	-56.3422	0.0000000E+000	0.0000000E+000	0.0000000E+000	-33.6578	0.0000000E+000	0.0000000E+000	0.0000000E+000	33.6578	1.50183	56.3422	-2.04509e-06	-5.72736e-06	13456.4
100.032	4.33152	2.91974	5.22369	-33.9827	10.4017	0.277608	-0.019402	544.925	170.244	1	10	0.00462605	0.00088559	0	-4.04716e-06	0.15874	0.107002	0.191436	33.9827	170244	252561	304582	-56.0173	0.0000000E+000	0.0000000E+000	0.0000000E+000	56.0173	0.0000000E+000	0.0000000E+000	0.0000000E+000	-56.0173	0.0000000E+000	0.0000000E+000	0.0000000E+000	-33.9827	0.0000000E+000	0.0000000E+000	0.0000000E+000	33.9827	1.48353	56.0173	-1.67327e-06	-5.38614e-06	14308.2
68.104	5.18596	3.37724	6.1887	-33.0733	10.8803	0.277605	-0.0178899	691.968	206.068	1	10	0.00461482	0.000745686	0	-5.81706e-06	0.135404	0.0881786	0.161585	33.0733	206068	316431	377614	-56.9267	0.0000000E+000	0.0000000E+000	0.0000000E+000	56.9267	0.0000000E+000	0.0000000E+000	0.0000000E+000	-56.9267	0.0000000E+000	0.0000000E+000	0.0000000E+000	-33.0733	0.0000000E+000	0.0000000E+000	0.0000000E+000	33.0733	1.53556	56.9267	-1.76989e-06	-4.96633e-06	15517.4
46.4415	6.2403	3.71103	7.26038	-30.7394	11.3356	0.277612	-0.0209681	923.463	241.262	1	10	0.00461001	0.000634955	0	-8.35461e-06	0.118382	0.0704005	0.137734	30.7394	241262	405696	472013	-59.2606	0.0000000E+000	0.0000000E+000	0.0000000E+000	59.2606	0.0000000E+000	0.0000000E+000	0.0000000E+000	-59.2606	0.0000000E+000	0.0000000E+000	0.0000000E+000	-30.7394	0.0000000E+000	0.0000000E+000	0.0000000E+000	30.7394	1.68156	59.2606	-2.53755e-06	-5.821e-06	13239.7
31.6296	7.42197	3.84112	8.35703	-27.3631	11.7825	0.277601	-0.0224094	1309.99	276.746	1	10	0.00461185	0.000551853	0	-1.08925e-05	0.106271	0.054999	0.11966	27.3631	276746	534740	602109	-62.6369	0.0000000E+000	0.0000000E+000	0.0000000E+000	62.6369	0.0000000E+000	0.0000000E+000	0.0000000E+000	-62.6369	0.0000000E+000	0.0000000E+000	0.0000000E+000	-27.3631	0.0000000E+000	0.0000000E+000	0.0000000E+000	27.3631	1.93224	62.6369	-2.53792e-06	-6.22086e-06	12387.7
21.5517	8.57121	3.74778	9.35476	-23.6175	12.2213	0.277619	-0.0235728	1970.44	316.262	1	10	0.00461043	0.000492844	0	-1.46686e-05	0.0979438	0.0428262	0.106897	23.6175	316262	723294	789415	-66.3825	0.0000000E+000	0.0000000E+000	0.0000000E+000	66.3825	0.0000000E+000	0.0000000E+000	0.0000000E+000	-66.3825	0.0000000E+000	0.0000000E+000	0.0000000E+000	-23.6175	0.0000000E+000	0.0000000E+000	0.0000000E+000	23.6175	2.28701	66.3825	-3.7761e-06	-6.54425e-06	11777.1
14.6852	9.60585	3.4741	10.2148	-19.8833	12.6991	0.277614	-0.0183132	3119.61	360.849	1	10	0.00461181	0.000451484	0	-1.64476e-05	0.0920615	0.0332954	0.0978974	19.8833	360849	997745	1.06099e+06	-70.1167	0.0000000E+000	0.0000000E+000	0.0000000E+000	70.1167	0.0000000E+000	0.0000000E+000	0.0000000E+000	-70.1167	0.0000000E+000	0.0000000E+000	0.0000000E+000	-19.8833	0.0000000E+000	0.0000000E+000	0.0000000E+000	19.8833	2.76499	70.1167	-1.77902e-06	-5.084e-06	15159.3
10.0032	10.4833	3.13967	10.9434	-16.6726	13.1667	0.277616	-0.0187289	5067.53	417.123	1	10	0.00461566	0.000421778	0	-1.53716e-05	0.087538	0.026217	0.0913796	16.6726	417123	1.39276e+06	1.45389e+06	-73.3274	0.0000000E+000	0.0000000E+000	0.0000000E+000	73.3274	0.0000000E+000	0.0000000E+000	0.0000000E+000	-73.3274	0.0000000E+000	0.0000000E+000	0.0000000E+000	-16.6726	0.0000000E+000	0.0000000E+000	0.0000000E+000	16.6726	3.33898	73.3274	1.07606e-06	-5.19947e-06	14822.9
6.81719	11.244	2.79574	11.5864	-13.963	13.7294	0.277612	-0.0163261	8350.6	486.202	1	11	0.00460357	0.000397326	0	-1.77588e-05	0.083758	0.0208258	0.0863083	13.963	486202	1.95542e+06	2.01496e+06	-76.037	0.0000000E+000	0.0000000E+000	0.0000000E+000	76.037	0.0000000E+000	0.0000000E+000	0.0000000E+000	-76.037	0.0000000E+000	0.0000000E+000	0.0000000E+000	-13.963	0.0000000E+000	0.0000000E+000	0.0000000E+000	13.963	4.02184	76.037	-2.38723e-06	-4.53232e-06	17004.2
4.63925	11.8617	2.46774	12.1157	-11.7523	14.2313	0.277627	-0.0140309	13901.9	576.736	1	11	0.00460804	0.000380338	0	-2.38481e-05	0.0808076	0.0168114	0.0825378	11.7523	576736	2.7722e+06	2.83156e+06	-78.2477	0.0000000E+000	0.0000000E+000	0.0000000E+000	78.2477	0.0000000E+000	0.0000000E+000	0.0000000E+000	-78.2477	0.0000000E+000	0.0000000E+000	0.0000000E+000	-11.7523	0.0000000E+000	0.0000000E+000	0.0000000E+000	11.7523	4.8067	78.2477	-6.08927e-06	-3.89534e-06	19786.9
3.1604	12.4019	2.17571	12.5913	-9.95035	14.9403	0.277628	-0.0140157	23146.1	691.096	1	11	0.00460814	0.000365978	0	-2.95292e-05	0.0782252	0.0137233	0.0794199	9.95035	691096	3.93936e+06	3.99952e+06	-80.0497	0.0000000E+000	0.0000000E+000	0.0000000E+000	80.0497	0.0000000E+000	0.0000000E+000	0.0000000E+000	-80.0497	0.0000000E+000	0.0000000E+000	0.0000000E+000	-9.95035	0.0000000E+000	0.0000000E+000	0.0000000E+000	9.95035	5.70016	80.0497	-5.68114e-06	-3.89114e-06	19808.4
2.15577	12.8473	1.96871	12.9973	-8.71216	15.9568	0.277638	-0.0132025	37500.5	860.389	1	11	0.00461435	0.000355025	0	-2.73638e-05	0.0760515	0.011654	0.0769392	8.71216	860389	5.61469e+06	5.68023e+06	-81.2878	0.0000000E+000	0.0000000E+000	0.0000000E+000	81.2878	0.0000000E+000	0.0000000E+000	0.0000000E+000	-81.2878	0.0000000E+000	0.0000000E+000	0.0000000E+000	-8.71216	0.0000000E+000	0.0000000E+000	0.0000000E+000	8.71216	6.52576	81.2878	2.16542e-06	-3.66551e-06	21029.3
1.46631	13.2414	1.75675	13.3574	-7.55735	17.43	0.277636	-0.0122531	61785.2	1068.71	1	11	0.00461018	0.00034514	0	-2.37244e-05	0.0742144	0.00984609	0.0748647	7.55735	1.06871e+06	8.05531e+06	8.1259e+06	-82.4427	0.0000000E+000	0.0000000E+000	0.0000000E+000	82.4427	0.0000000E+000	0.0000000E+000	0.0000000E+000	-82.4427	0.0000000E+000	0.0000000E+000	0.0000000E+000	-7.55735	0.0000000E+000	0.0000000E+000	0.0000000E+000	7.55735	7.53744	82.4427	3.63939e-06	-3.4019e-06	22658.5
1.00006	13.59	1.61527	13.6857	-6.77821	19.5701	0.277641	-0.0106289	98525.2	1372.48	1	11	0.00460525	0.000336502	0	-2.74548e-05	0.0725584	0.00862408	0.0730691	6.77821	1.37248e+06	1.15473e+07	1.16286e+07	-83.2218	0.0000000E+000	0.0000000E+000	0.0000000E+000	83.2218	0.0000000E+000	0.0000000E+000	0.0000000E+000	-83.2218	0.0000000E+000	0.0000000E+000	0.0000000E+000	-6.77821	0.0000000E+000	0.0000000E+000	0.0000000E+000	6.77821	8.41347	83.2218	-3.73035e-06	-2.95102e-06	26121.3
0.681362	13.9028	1.52803	13.9865	-6.27211	22.6902	0.277645	-0.00877406	152866	1824.55	1	11	0.00461604	0.000330035	0	-4.34011e-05	0.0710695	0.00781113	0.0714975	6.27211	1.82455e+06	1.66007e+07	1.67006e+07	-83.7279	0.0000000E+000	0.0000000E+000	0.0000000E+000	83.7279	0.0000000E+000	0.0000000E+000	0.0000000E+000	-83.7279	0.0000000E+000	0.0000000E+000	0.0000000E+000	-6.27211	0.0000000E+000	0.0000000E+000	0.0000000E+000	6.27211	9.0985	83.7279	-1.59463e-05	-2.43607e-06	31643.9
0.464091	14.1549	1.4861	14.2327	-5.99344	27.2545	0.277651	-0.00748687	230765	2515.89	1	11	0.00461332	0.000324136	0	-7.46843e-05	0.0698768	0.00733626	0.0702608	5.99344	2.51589e+06	2.39635e+07	2.40952e+07	-84.0066	0.0000000E+000	0.0000000E+000	0.0000000E+000	84.0066	0.0000000E+000	0.0000000E+000	0.0000000E+000	-84.0066	0.0000000E+000	0.0000000E+000	0.0000000E+000	-5.99344	0.0000000E+000	0.0000000E+000	0.0000000E+000	5.99344	9.52485	84.0066	-3.12832e-05	-2.07874e-06	37085.1
0.316193	14.4239	1.51833	14.5036	-6.00912	33.935	0.277649	-0.00776648	331513	3633.17	1	11	0.00461602	0.000318268	0	-0.00011531	0.0685697	0.00721801	0.0689486	6.00912	3.63317e+06	3.45144e+07	3.47051e+07	-83.9909	0.0000000E+000	0.0000000E+000	0.0000000E+000	83.9909	0.0000000E+000	0.0000000E+000	0.0000000E+000	-83.9909	0.0000000E+000	0.0000000E+000	0.0000000E+000	-6.00912	0.0000000E+000	0.0000000E+000	0.0000000E+000	6.00912	9.49981	83.9909	-4.06254e-05	-2.15636e-06	35749.7
0.215268	14.705	1.67117	14.7996	-6.48367	43.7326	0.277645	-0.0082199	442404	5641.07	1	11	0.00461369	0.000311744	0	-0.000150959	0.0671371	0.00762993	0.0675693	6.48367	5.64107e+06	4.96368e+07	4.99563e+07	-83.5163	0.0000000E+000	0.0000000E+000	0.0000000E+000	83.5163	0.0000000E+000	0.0000000E+000	0.0000000E+000	-83.5163	0.0000000E+000	0.0000000E+000	0.0000000E+000	-6.48367	0.0000000E+000	0.0000000E+000	0.0000000E+000	6.48367	8.79918	83.5163	-3.56498e-05	-2.28222e-06	33777.2
0.146929	14.969	1.96508	15.0974	-7.47884	58.0692	0.27765	-0.00797118	551231	9338.75	1	11	0.00461881	0.000305935	0	-0.000161662	0.0656732	0.00862136	0.0662366	7.47884	9.33875e+06	7.11379e+07	7.17483e+07	-82.5212	0.0000000E+000	0.0000000E+000	0.0000000E+000	82.5212	0.0000000E+000	0.0000000E+000	0.0000000E+000	-82.5212	0.0000000E+000	0.0000000E+000	0.0000000E+000	-7.47884	0.0000000E+000	0.0000000E+000	0.0000000E+000	7.47884	7.61749	82.5212	-1.07024e-05	-2.2132e-06	34831.7
0.0999041	15.2602	2.35416	15.4407	-8.76978	79.1391	0.27765	-0.00646306	676708	15730.4	1	11	0.00461745	0.000299044	0	-0.000128232	0.0640068	0.00987421	0.064764	8.76978	1.57304e+07	1.01968e+08	1.03174e+08	-81.2302	0.0000000E+000	0.0000000E+000	0.0000000E+000	81.2302	0.0000000E+000	0.0000000E+000	0.0000000E+000	-81.2302	0.0000000E+000	0.0000000E+000	0.0000000E+000	-8.76978	0.0000000E+000	0.0000000E+000	0.0000000E+000	8.76978	6.48222	81.2302	3.34301e-05	-1.79447e-06	42959.5
0.0680626	15.656	2.8603	15.9151	-10.3536	110.051	0.277651	-0.00459819	817522	26406.1	1	11	0.00461285	0.000289841	0	-5.47355e-05	0.0618103	0.0112926	0.0628334	10.3536	2.64061e+07	1.44535e+08	1.46927e+08	-79.6464	0.0000000E+000	0.0000000E+000	0.0000000E+000	79.6464	0.0000000E+000	0.0000000E+000	0.0000000E+000	-79.6464	0.0000000E+000	0.0000000E+000	0.0000000E+000	-10.3536	0.0000000E+000	0.0000000E+000	0.0000000E+000	10.3536	5.47353	79.6464	7.34962e-05	-1.27669e-06	60382.7
0.0464052	16.2001	3.5516	16.5848	-12.3655	176.995	0.277653	-0.00179612	965671	44284.9	1	12	0.00461196	0.000278083	0	3.43039e-05	0.0588973	0.0129123	0.0602961	12.3655	4.42849e+07	2.01999e+08	2.06796e+08	-77.6345	0.0000000E+000	0.0000000E+000	0.0000000E+000	77.6345	0.0000000E+000	0.0000000E+000	0.0000000E+000	-77.6345	0.0000000E+000	0.0000000E+000	0.0000000E+000	-12.3655	0.0000000E+000	0.0000000E+000	0.0000000E+000	12.3655	4.56134	77.6345	8.90394e-05	-4.98698e-07	154585
0.0315922	16.9144	4.48522	17.4989	-14.8514	243.556	0.277651	0.000323928	1.1232e+06	73790.4	1	12	0.00461746	0.000263871	0	5.8845e-05	0.0552373	0.0146474	0.0571463	14.8514	7.37904e+07	2.78274e+08	2.87891e+08	-75.1486	0.0000000E+000	0.0000000E+000	0.0000000E+000	75.1486	0.0000000E+000	0.0000000E+000	0.0000000E+000	-75.1486	0.0000000E+000	0.0000000E+000	0.0000000E+000	-14.8514	0.0000000E+000	0.0000000E+000	0.0000000E+000	14.8514	3.77114	75.1486	2.45411e-05	8.99387e-08	857138
0.0215268	17.5942	5.69005	18.4914	-17.9214	341.225	0.277656	0.000893695	1.29935e+06	123031	1	12	0.00461656	0.000249659	0	-0.000107739	0.0514551	0.0166408	0.0540791	17.9214	1.23031e+08	3.80426e+08	3.99825e+08	-72.0786	0.0000000E+000	0.0000000E+000	0.0000000E+000	72.0786	0.0000000E+000	0.0000000E+000	0.0000000E+000	-72.0786	0.0000000E+000	0.0000000E+000	0.0000000E+000	-17.9214	0.0000000E+000	0.0000000E+000	0.0000000E+000	17.9214	3.0921	72.0786	-0.000166584	2.48139e-07	310683
0.0146812	18.4381	7.12537	19.767	-21.129	484.42	0.277662	-7.36927e-05	1.52143e+06	197691	1	12	0.00461657	0.00023355	0	-0.000544924	0.0471884	0.0182359	0.0505895	21.129	1.97691e+08	5.11558e+08	5.48428e+08	-68.871	0.0000000E+000	0.0000000E+000	0.0000000E+000	68.871	0.0000000E+000	0.0000000E+000	0.0000000E+000	-68.871	0.0000000E+000	0.0000000E+000	0.0000000E+000	-21.129	0.0000000E+000	0.0000000E+000	0.0000000E+000	21.129	2.58766	68.871	-0.000437185	-2.04617e-08	3.76783e+06
0.0100092	19.5973	9.02197	21.5743	-24.7199	694.439	0.277664	-0.00117342	1.76247e+06	308214	1	12	0.00461383	0.000213858	0	-0.00117581	0.042104	0.0193834	0.0463516	24.7199	3.08214e+08	6.69493e+08	7.37032e+08	-65.2801	0.0000000E+000	0.0000000E+000	0.0000000E+000	65.2801	0.0000000E+000	0.0000000E+000	0.0000000E+000	-65.2801	0.0000000E+000	0.0000000E+000	0.0000000E+000	-24.7199	0.0000000E+000	0.0000000E+000	0.0000000E+000	24.7199	2.17217	65.2801	-0.000630888	-3.25818e-07	236627