File: txt/17689_R288_UA670_SOC00_C04.mpt
EC-Lab ASCII FILE
Nb header lines : 63

Potentio Electrochemical Impedance Spectroscopy

Run on channel : 4 (SN 66756)
User :
CE vs. WE compliance from -10 V to 10 V
Electrode connection : standard
Potential control : Ewe
Ewe ctrl range : min = -10.00 V, max = 10.00 V
Safety Limits :
	Do not start on E overload
Acquisition started on : 09/22/2025 08:43:58.498
Loaded Setting File :  C:\Users\Celltest\OneDrive - store-dot.com\Documents\EC-Lab\Data\Gyutae\17739_R277_UA674_SOC00_C03.mpr
Saved on :
	File : 17689_R288_UA670_SOC00_C04.mpr
	Directory : C:\Users\Celltest\OneDrive - store-dot.com\Documents\EC-Lab\Data\Charmaine\
	Host : 169.254.61.224
Device : VMP-3e (SN .003165)
Address : USB
EC-LAB for windows v11.62 (software)
Internet server v27.00 (firmware)
Command interpretor v12.03 (firmware)
Electrode material :
Initial state :
Electrolyte :
Comments :
Electrode surface area : 0.001 cm²
Characteristic mass : 0.001 g
Equivalent Weight : 0.000 g/eq.
Density : 0.000 g/cm3
Volume (V) : 0.001 cm³
Cycle Definition : Charge/Discharge alternance
Mode                Single sine
E (V)               0.0000
vs.                 Eoc
tE (h:m:s)          0:00:0.0000
record              0
dI                  0.000
unit dI             mA
dt (s)              0.000
fi                  100.000
unit fi             kHz
ff                  10.000
unit ff             mHz
Nd                  6
Points              per decade
spacing             Logarithmic
Va (mV)             5.0
pw                  0.10
Na                  2
corr                0
E range min (V)     -10.000
E range max (V)     10.000
I Range             Auto
Bandwidth           5
nc cycles           0
goto Ns'            0
nr cycles           0
inc. cycle          0

freq/Hz	Re(Z)/Ohm	-Im(Z)/Ohm	|Z|/Ohm	Phase(Z)/deg	time/s	<Ewe>/V	<I>/mA	Cs/µF	Cp/µF	cycle number	I Range	|Ewe|/V	|I|/A	Ns	(Q-Qo)/mA.h	Re(Y)/Ohm-1	Im(Y)/Ohm-1	|Y|/Ohm-1	Phase(Y)/deg	Re(C)/nF	Im(C)/nF	|C|/nF	Phase(C)/deg	Re(M)	Im(M)	|M|	Phase(M)/deg	Re(Permittivity)	Im(Permittivity)	|Permittivity|	Phase(Permittivity)/deg	Re(Resistivity)/Ohm.cm	Im(Resistivity)/Ohm.cm	|Resistivity|/Ohm.cm	Phase(Resistivity)/deg	Re(Conductivity)/mS/cm	Im(Conductivity)/mS/cm	|Conductivity|/mS/cm	Phase(Conductivity)/deg	Tan(Delta)	Loss Angle(Delta)/deg	dq/mA.h	Pwe/W	Rwe/Ohm
100004	0.926681	0.187049	0.94537	-11.4117	1.8655	0.276227	-0.0326017	8.50843	0.333085	1	9	0.00482827	0.00510728	0	-6.64334e-06	1.03688	0.209291	1.05779	11.4117	333.085	1650.18	1683.46	-78.5883	0.0000000E+000	0.0000000E+000	0.0000000E+000	78.5883	0.0000000E+000	0.0000000E+000	0.0000000E+000	-78.5883	0.0000000E+000	0.0000000E+000	0.0000000E+000	-11.4117	0.0000000E+000	0.0000000E+000	0.0000000E+000	11.4117	4.95423	78.5883	-6.64334e-06	-9.00546e-06	8472.77
68132	0.968121	0.198415	0.988245	-11.5823	2.3025	0.276242	-0.0397068	11.7732	0.474585	1	9	0.0054154	0.00547982	0	-1.25975e-05	0.99129	0.203163	1.0119	11.5823	474.585	2315.63	2363.76	-78.4177	0.0000000E+000	0.0000000E+000	0.0000000E+000	78.4177	0.0000000E+000	0.0000000E+000	0.0000000E+000	-78.4177	0.0000000E+000	0.0000000E+000	0.0000000E+000	-11.5823	0.0000000E+000	0.0000000E+000	0.0000000E+000	11.5823	4.87928	78.4177	-5.95413e-06	-1.09687e-05	6957.04
46420.4	1.01281	0.214208	1.03522	-11.9419	2.73949	0.276157	-0.0311285	16.0058	0.685304	1	9	0.00549447	0.00530755	0	-2.40863e-05	0.945074	0.199881	0.96598	11.9419	685.304	3240.24	3311.92	-78.0581	0.0000000E+000	0.0000000E+000	0.0000000E+000	78.0581	0.0000000E+000	0.0000000E+000	0.0000000E+000	-78.0581	0.0000000E+000	0.0000000E+000	0.0000000E+000	-11.9419	0.0000000E+000	0.0000000E+000	0.0000000E+000	11.9419	4.72818	78.0581	-1.14888e-05	-8.59635e-06	8871.54
31621.1	1.06241	0.239931	1.08917	-12.726	3.31848	0.276159	-0.0300282	20.9777	1.01798	1	9	0.00509402	0.004677	0	-2.41172e-05	0.89558	0.202254	0.918134	12.726	1017.98	4507.62	4621.14	-77.274	0.0000000E+000	0.0000000E+000	0.0000000E+000	77.274	0.0000000E+000	0.0000000E+000	0.0000000E+000	-77.274	0.0000000E+000	0.0000000E+000	0.0000000E+000	-12.726	0.0000000E+000	0.0000000E+000	0.0000000E+000	12.726	4.42799	77.274	-3.09339e-08	-8.29255e-06	9196.66
21544.7	1.11395	0.2679	1.14571	-13.5226	3.89649	0.276165	-0.0315947	27.5745	1.50767	1	9	0.00501265	0.00437516	0	-2.87205e-05	0.848627	0.204092	0.872823	13.5226	1507.67	6268.98	6447.72	-76.4774	0.0000000E+000	0.0000000E+000	0.0000000E+000	76.4774	0.0000000E+000	0.0000000E+000	0.0000000E+000	-76.4774	0.0000000E+000	0.0000000E+000	0.0000000E+000	-13.5226	0.0000000E+000	0.0000000E+000	0.0000000E+000	13.5226	4.15807	76.4774	-4.60322e-06	-8.72535e-06	8740.87
14678.6	1.17368	0.302077	1.21193	-14.4333	4.19249	0.276165	-0.0342615	35.8936	2.22996	1	9	0.00495281	0.00408671	0	-3.17609e-05	0.799087	0.205666	0.825129	14.4333	2229.96	8664.22	8946.59	-75.5667	0.0000000E+000	0.0000000E+000	0.0000000E+000	75.5667	0.0000000E+000	0.0000000E+000	0.0000000E+000	-75.5667	0.0000000E+000	0.0000000E+000	0.0000000E+000	-14.4333	0.0000000E+000	0.0000000E+000	0.0000000E+000	14.4333	3.88536	75.5667	-3.04043e-06	-9.46181e-06	8060.5
10002.2	1.23924	0.344303	1.28618	-15.5271	4.62948	0.276151	-0.0295434	46.215	3.31176	1	9	0.00494671	0.00384604	0	-3.34475e-05	0.749119	0.20813	0.777494	15.5271	3311.76	11919.9	12371.5	-74.4729	0.0000000E+000	0.0000000E+000	0.0000000E+000	74.4729	0.0000000E+000	0.0000000E+000	0.0000000E+000	-74.4729	0.0000000E+000	0.0000000E+000	0.0000000E+000	-15.5271	0.0000000E+000	0.0000000E+000	0.0000000E+000	15.5271	3.59928	74.4729	-1.6866e-06	-8.15843e-06	9347.3
6811.07	1.32159	0.393049	1.3788	-16.5628	5.00752	0.276015	-0.150685	59.4509	4.83114	1	9	0.00462538	0.00335465	0	-4.86734e-05	0.695176	0.20675	0.725269	16.5628	4831.14	16244.3	16947.4	-73.4372	0.0000000E+000	0.0000000E+000	0.0000000E+000	73.4372	0.0000000E+000	0.0000000E+000	0.0000000E+000	-73.4372	0.0000000E+000	0.0000000E+000	0.0000000E+000	-16.5628	0.0000000E+000	0.0000000E+000	0.0000000E+000	16.5628	3.3624	73.4372	-1.52259e-05	-4.15914e-05	1831.74
4641.49	1.4099	0.454786	1.48144	-17.8779	5.7017	0.27611	-0.0508402	75.3973	7.10567	1	9	0.00496604	0.00335218	0	-6.21898e-05	0.642426	0.207225	0.675021	17.8779	7105.67	22028.6	23146.2	-72.1221	0.0000000E+000	0.0000000E+000	0.0000000E+000	72.1221	0.0000000E+000	0.0000000E+000	0.0000000E+000	-72.1221	0.0000000E+000	0.0000000E+000	0.0000000E+000	-17.8779	0.0000000E+000	0.0000000E+000	0.0000000E+000	17.8779	3.10014	72.1221	-1.35164e-05	-1.40375e-05	5430.95
3161.01	1.50817	0.521091	1.59566	-19.0606	6.16871	0.276113	-0.0495348	96.6229	10.3045	1	9	0.00487301	0.00305392	0	-6.77483e-05	0.592341	0.204661	0.626701	19.0606	10304.5	29824	31554	-70.9394	0.0000000E+000	0.0000000E+000	0.0000000E+000	70.9394	0.0000000E+000	0.0000000E+000	0.0000000E+000	-70.9394	0.0000000E+000	0.0000000E+000	0.0000000E+000	-19.0606	0.0000000E+000	0.0000000E+000	0.0000000E+000	19.0606	2.89426	70.9394	-5.5585e-06	-1.36772e-05	5574.13
2155.69	1.61529	0.602185	1.72389	-20.4456	6.6357	0.276162	-0.0509894	122.604	14.9605	1	9	0.00481562	0.00279347	0	-7.57467e-05	0.543542	0.202634	0.580085	20.4456	14960.5	40129.8	42827.8	-69.5544	0.0000000E+000	0.0000000E+000	0.0000000E+000	69.5544	0.0000000E+000	0.0000000E+000	0.0000000E+000	-69.5544	0.0000000E+000	0.0000000E+000	0.0000000E+000	-20.4456	0.0000000E+000	0.0000000E+000	0.0000000E+000	20.4456	2.68238	69.5544	-7.99841e-06	-1.40813e-05	5416.07
1468.59	1.74426	0.711351	1.88374	-22.1868	7.10295	0.276202	-0.0514183	152.348	21.7251	1	9	0.00478888	0.00254221	0	-8.41719e-05	0.491553	0.200466	0.530858	22.1868	21725.1	53270.8	57530.5	-67.8132	0.0000000E+000	0.0000000E+000	0.0000000E+000	67.8132	0.0000000E+000	0.0000000E+000	0.0000000E+000	-67.8132	0.0000000E+000	0.0000000E+000	0.0000000E+000	-22.1868	0.0000000E+000	0.0000000E+000	0.0000000E+000	22.1868	2.45204	67.8132	-8.42525e-06	-1.42018e-05	5371.67
1000.32	1.87895	0.862548	2.06747	-24.6579	7.57171	0.276111	-0.0507283	184.458	32.106	1	9	0.00476612	0.00230529	0	-8.92791e-05	0.439578	0.201792	0.483683	24.6579	32106	69938.6	76955.9	-65.3421	0.0000000E+000	0.0000000E+000	0.0000000E+000	65.3421	0.0000000E+000	0.0000000E+000	0.0000000E+000	-65.3421	0.0000000E+000	0.0000000E+000	0.0000000E+000	-24.6579	0.0000000E+000	0.0000000E+000	0.0000000E+000	24.6579	2.17837	65.3421	-5.10721e-06	-1.40066e-05	5442.94
681.09	2.05752	1.02176	2.29726	-26.4088	8.03744	0.276098	-0.0531713	228.701	45.2424	1	9	0.00475955	0.00207184	0	-9.53451e-05	0.389875	0.193611	0.435302	26.4088	45242.4	91104.8	101720	-63.5912	0.0000000E+000	0.0000000E+000	0.0000000E+000	63.5912	0.0000000E+000	0.0000000E+000	0.0000000E+000	-63.5912	0.0000000E+000	0.0000000E+000	0.0000000E+000	-26.4088	0.0000000E+000	0.0000000E+000	0.0000000E+000	26.4088	2.01371	63.5912	-6.06596e-06	-1.46805e-05	5192.62
463.961	2.27276	1.25065	2.59414	-28.8229	8.50618	0.276117	-0.0524253	274.286	63.7508	1	9	0.00474577	0.00182942	0	-0.000102564	0.337728	0.185843	0.385484	28.8229	63750.8	115853	132235	-61.1771	0.0000000E+000	0.0000000E+000	0.0000000E+000	61.1771	0.0000000E+000	0.0000000E+000	0.0000000E+000	-61.1771	0.0000000E+000	0.0000000E+000	0.0000000E+000	-28.8229	0.0000000E+000	0.0000000E+000	0.0000000E+000	28.8229	1.81727	61.1771	-7.2193e-06	-1.44755e-05	5266.87
316.316	2.57283	1.53015	2.99346	-30.7415	9.22591	0.27617	-0.0335029	328.824	85.9185	1	10	0.0047843	0.00159825	0	-0.000111431	0.28712	0.170761	0.334061	30.7415	85918.6	144465	168084	-59.2585	0.0000000E+000	0.0000000E+000	0.0000000E+000	59.2585	0.0000000E+000	0.0000000E+000	0.0000000E+000	-59.2585	0.0000000E+000	0.0000000E+000	0.0000000E+000	-30.7415	0.0000000E+000	0.0000000E+000	0.0000000E+000	30.7415	1.68142	59.2585	-8.86616e-06	-9.25249e-06	8243.14
215.345	2.96623	1.84705	3.49429	-31.9103	9.69342	0.276165	-0.0330516	400.136	111.801	1	10	0.00477559	0.00136668	0	-0.000114228	0.242932	0.151272	0.286181	31.9103	111801	179544	211508	-58.0897	0.0000000E+000	0.0000000E+000	0.0000000E+000	58.0897	0.0000000E+000	0.0000000E+000	0.0000000E+000	-58.0897	0.0000000E+000	0.0000000E+000	0.0000000E+000	-31.9103	0.0000000E+000	0.0000000E+000	0.0000000E+000	31.9103	1.60593	58.0897	-2.7972e-06	-9.12768e-06	8355.57
146.737	3.45912	2.17583	4.08653	-32.1704	10.1564	0.276137	-0.0339394	498.488	141.317	1	10	0.00475135	0.00116269	0	-0.000118906	0.207136	0.130291	0.244706	32.1704	141317	224665	265414	-57.8296	0.0000000E+000	0.0000000E+000	0.0000000E+000	57.8296	0.0000000E+000	0.0000000E+000	0.0000000E+000	-57.8296	0.0000000E+000	0.0000000E+000	0.0000000E+000	-32.1704	0.0000000E+000	0.0000000E+000	0.0000000E+000	32.1704	1.58979	57.8296	-4.67805e-06	-9.3719e-06	8136.17
100.032	4.09776	2.49213	4.79607	-31.3066	10.6247	0.27614	-0.0320295	638.427	172.377	1	10	0.00474563	0.000989483	0	-0.000123897	0.178145	0.108342	0.208504	31.3066	172377	283437	331738	-58.6934	0.0000000E+000	0.0000000E+000	0.0000000E+000	58.6934	0.0000000E+000	0.0000000E+000	0.0000000E+000	-58.6934	0.0000000E+000	0.0000000E+000	0.0000000E+000	-31.3066	0.0000000E+000	0.0000000E+000	0.0000000E+000	31.3066	1.64428	58.6934	-4.99144e-06	-8.84462e-06	8621.41
68.104	4.89522	2.74059	5.61017	-29.2423	11.1033	0.276174	-0.0295825	852.713	203.489	1	10	0.00476215	0.000848843	0	-0.000128258	0.155532	0.0870749	0.178248	29.2423	203489	363469	416554	-60.7577	0.0000000E+000	0.0000000E+000	0.0000000E+000	60.7577	0.0000000E+000	0.0000000E+000	0.0000000E+000	-60.7577	0.0000000E+000	0.0000000E+000	0.0000000E+000	-29.2423	0.0000000E+000	0.0000000E+000	0.0000000E+000	29.2423	1.78619	60.7577	-4.36033e-06	-8.16994e-06	9335.72
46.4415	5.69892	2.84491	6.36955	-26.5284	11.5585	0.27614	-0.0347526	1204.61	240.306	1	10	0.00472608	0.000741981	0	-0.000132653	0.140467	0.0701214	0.156997	26.5284	240306	481380	538028	-63.4716	0.0000000E+000	0.0000000E+000	0.0000000E+000	63.4716	0.0000000E+000	0.0000000E+000	0.0000000E+000	-63.4716	0.0000000E+000	0.0000000E+000	0.0000000E+000	-26.5284	0.0000000E+000	0.0000000E+000	0.0000000E+000	26.5284	2.0032	63.4716	-4.39553e-06	-9.59659e-06	7945.89
31.6296	6.62619	2.78651	7.18826	-22.8082	12.0054	0.276156	-0.0357075	1805.78	271.357	1	10	0.00476349	0.000662677	0	-0.000136614	0.128238	0.0539279	0.139116	22.8082	271357	645273	700008	-67.1918	0.0000000E+000	0.0000000E+000	0.0000000E+000	67.1918	0.0000000E+000	0.0000000E+000	0.0000000E+000	-67.1918	0.0000000E+000	0.0000000E+000	0.0000000E+000	-22.8082	0.0000000E+000	0.0000000E+000	0.0000000E+000	22.8082	2.37795	67.1918	-3.96055e-06	-9.86085e-06	7733.84
21.5517	7.30794	2.5937	7.75456	-19.5405	12.4444	0.276149	-0.0374141	2847.21	318.525	1	10	0.00471253	0.000607711	0	-0.000140331	0.121529	0.0431325	0.128956	19.5405	318525	897467	952316	-70.4595	0.0000000E+000	0.0000000E+000	0.0000000E+000	70.4595	0.0000000E+000	0.0000000E+000	0.0000000E+000	-70.4595	0.0000000E+000	0.0000000E+000	0.0000000E+000	-19.5405	0.0000000E+000	0.0000000E+000	0.0000000E+000	19.5405	2.81758	70.4595	-3.71685e-06	-1.03319e-05	7380.89
14.6852	8.01215	2.42579	8.37132	-16.8444	12.922	0.276177	-0.0282733	4467.75	375.151	1	10	0.00474318	0.000566599	0	-0.00014467	0.11433	0.034615	0.119455	16.8444	375151	1.23909e+06	1.29464e+06	-73.1556	0.0000000E+000	0.0000000E+000	0.0000000E+000	73.1556	0.0000000E+000	0.0000000E+000	0.0000000E+000	-73.1556	0.0000000E+000	0.0000000E+000	0.0000000E+000	-16.8444	0.0000000E+000	0.0000000E+000	0.0000000E+000	16.8444	3.30291	73.1556	-4.33964e-06	-7.80843e-06	9768.15
10.0032	8.55271	2.08557	8.80332	-13.7041	13.3907	0.276138	-0.0299183	7628.79	428.168	1	10	0.00473428	0.000537784	0	-0.000152095	0.11036	0.0269112	0.113594	13.7041	428168	1.75587e+06	1.80732e+06	-76.2959	0.0000000E+000	0.0000000E+000	0.0000000E+000	76.2959	0.0000000E+000	0.0000000E+000	0.0000000E+000	-76.2959	0.0000000E+000	0.0000000E+000	0.0000000E+000	-13.7041	0.0000000E+000	0.0000000E+000	0.0000000E+000	13.7041	4.10089	76.2959	-7.42471e-06	-8.26158e-06	9229.76
6.81719	9.26699	1.77675	9.43578	-10.8535	13.7484	0.276244	-0.0363342	13139.8	465.891	1	10	0.00483664	0.000512585	0	-0.000149058	0.104084	0.0199558	0.10598	10.8535	465891	2.42995e+06	2.47421e+06	-79.1465	0.0000000E+000	0.0000000E+000	0.0000000E+000	79.1465	0.0000000E+000	0.0000000E+000	0.0000000E+000	-79.1465	0.0000000E+000	0.0000000E+000	0.0000000E+000	-10.8535	0.0000000E+000	0.0000000E+000	0.0000000E+000	10.8535	5.21571	79.1465	3.0369e-06	-1.00371e-05	7602.87
4.63925	9.43063	1.67174	9.57765	-10.0523	14.5203	0.276192	-0.0153376	20521.2	625.207	1	11	0.00473772	0.000494664	0	-0.0001574	0.102807	0.0182243	0.10441	10.0523	625207	3.52691e+06	3.5819e+06	-79.9477	0.0000000E+000	0.0000000E+000	0.0000000E+000	79.9477	0.0000000E+000	0.0000000E+000	0.0000000E+000	-79.9477	0.0000000E+000	0.0000000E+000	0.0000000E+000	-10.0523	0.0000000E+000	0.0000000E+000	0.0000000E+000	10.0523	5.64119	79.9477	-8.34222e-06	-4.23614e-06	18007.5
3.1604	9.74897	1.43902	9.85461	-8.39667	15.2292	0.276199	-0.0153928	34995.4	746.222	1	11	0.00473224	0.000480206	0	-0.000152324	0.100388	0.014818	0.101475	8.39667	746222	5.05544e+06	5.11022e+06	-81.6033	0.0000000E+000	0.0000000E+000	0.0000000E+000	81.6033	0.0000000E+000	0.0000000E+000	0.0000000E+000	-81.6033	0.0000000E+000	0.0000000E+000	0.0000000E+000	-8.39667	0.0000000E+000	0.0000000E+000	0.0000000E+000	8.39667	6.77471	81.6033	5.07667e-06	-4.25147e-06	17943.4
2.15577	10.0286	1.28072	10.11	-7.27766	16.2448	0.276184	-0.0132557	57645.4	925.053	1	11	0.00472911	0.000467765	0	-0.000151431	0.0981148	0.0125299	0.0989116	7.27766	925053	7.24357e+06	7.3024e+06	-82.7223	0.0000000E+000	0.0000000E+000	0.0000000E+000	82.7223	0.0000000E+000	0.0000000E+000	0.0000000E+000	-82.7223	0.0000000E+000	0.0000000E+000	0.0000000E+000	-7.27766	0.0000000E+000	0.0000000E+000	0.0000000E+000	7.27766	7.83044	82.7223	8.92443e-07	-3.66102e-06	20835.1
1.46631	10.2898	1.18977	10.3584	-6.59556	17.718	0.276186	-0.0109317	91228.8	1203.57	1	11	0.00473845	0.00045745	0	-0.000163371	0.095901	0.0110886	0.09654	6.59556	1.20357e+06	1.04092e+07	1.04786e+07	-83.4044	0.0000000E+000	0.0000000E+000	0.0000000E+000	83.4044	0.0000000E+000	0.0000000E+000	0.0000000E+000	-83.4044	0.0000000E+000	0.0000000E+000	0.0000000E+000	-6.59556	0.0000000E+000	0.0000000E+000	0.0000000E+000	6.59556	8.64861	83.4044	-1.19403e-05	-3.01918e-06	25264.7
1.00006	10.4896	1.1602	10.5535	-6.31154	19.8582	0.276206	-0.0102818	137170	1657.78	1	11	0.00473794	0.000448943	0	-0.000185462	0.0941805	0.0104168	0.0947548	6.31154	1.65778e+06	1.49883e+07	1.50797e+07	-83.6885	0.0000000E+000	0.0000000E+000	0.0000000E+000	83.6885	0.0000000E+000	0.0000000E+000	0.0000000E+000	-83.6885	0.0000000E+000	0.0000000E+000	0.0000000E+000	-6.31154	0.0000000E+000	0.0000000E+000	0.0000000E+000	6.31154	9.0412	83.6885	-2.20909e-05	-2.83989e-06	26863.6
0.681362	10.6573	1.00189	10.7043	-5.37057	22.9781	0.27619	-0.01039	233143	2042.42	1	11	0.0047226	0.000441187	0	-0.00020921	0.0930103	0.00874386	0.0934204	5.37057	2.04242e+06	2.17257e+07	2.18215e+07	-84.6294	0.0000000E+000	0.0000000E+000	0.0000000E+000	84.6294	0.0000000E+000	0.0000000E+000	0.0000000E+000	-84.6294	0.0000000E+000	0.0000000E+000	0.0000000E+000	-5.37057	0.0000000E+000	0.0000000E+000	0.0000000E+000	5.37057	10.6372	84.6294	-2.37475e-05	-2.86961e-06	26582.3
0.464091	10.8622	1.08066	10.9158	-5.68157	27.5429	0.276195	-0.0115441	317342	3110.24	1	11	0.00473263	0.000433557	0	-0.000223235	0.0911601	0.00906937	0.0916102	5.68157	3.11024e+06	3.12624e+07	3.14167e+07	-84.3184	0.0000000E+000	0.0000000E+000	0.0000000E+000	84.3184	0.0000000E+000	0.0000000E+000	0.0000000E+000	-84.3184	0.0000000E+000	0.0000000E+000	0.0000000E+000	-5.68157	0.0000000E+000	0.0000000E+000	0.0000000E+000	5.68157	10.0514	84.3184	-1.40253e-05	-3.18842e-06	23925.2
0.316193	11.0649	1.17273	11.1269	-6.04995	34.2252	0.27619	-0.0109657	429211	4767.77	1	11	0.00474913	0.000426815	0	-0.000216039	0.0893716	0.00947212	0.0898722	6.04995	4.76776e+06	4.4985e+07	4.52369e+07	-83.9501	0.0000000E+000	0.0000000E+000	0.0000000E+000	83.9501	0.0000000E+000	0.0000000E+000	0.0000000E+000	-83.9501	0.0000000E+000	0.0000000E+000	0.0000000E+000	-6.04995	0.0000000E+000	0.0000000E+000	0.0000000E+000	6.04995	9.43523	83.9501	7.19656e-06	-3.02862e-06	25186.7
0.215268	11.2364	1.30353	11.3117	-6.61732	44.023	0.276209	-0.00913299	567177	7531.93	1	11	0.00474768	0.000419714	0	-0.00018537	0.087815	0.0101874	0.0884039	6.61732	7.53193e+06	6.49246e+07	6.53601e+07	-83.3827	0.0000000E+000	0.0000000E+000	0.0000000E+000	83.3827	0.0000000E+000	0.0000000E+000	0.0000000E+000	-83.3827	0.0000000E+000	0.0000000E+000	0.0000000E+000	-6.61732	0.0000000E+000	0.0000000E+000	0.0000000E+000	6.61732	8.61992	83.3827	3.06689e-05	-2.52261e-06	30243
0.146929	11.4299	1.55688	11.5354	-7.75659	58.3586	0.276197	-0.00519076	695760	12673.6	1	11	0.00473725	0.00041067	0	-0.000142977	0.0858964	0.0117001	0.0866896	7.75659	1.26736e+07	9.3044e+07	9.39032e+07	-82.2434	0.0000000E+000	0.0000000E+000	0.0000000E+000	82.2434	0.0000000E+000	0.0000000E+000	0.0000000E+000	-82.2434	0.0000000E+000	0.0000000E+000	0.0000000E+000	-7.75659	0.0000000E+000	0.0000000E+000	0.0000000E+000	7.75659	7.34154	82.2434	4.23931e-05	-1.43367e-06	53209.4
0.0999041	11.731	1.96068	11.8937	-9.48853	79.4295	0.276202	-0.00173816	812513	22080.5	1	11	0.00473979	0.000398512	0	-0.000123234	0.0829277	0.0138603	0.084078	9.48853	2.20805e+07	1.3211e+08	1.33943e+08	-80.5115	0.0000000E+000	0.0000000E+000	0.0000000E+000	80.5115	0.0000000E+000	0.0000000E+000	0.0000000E+000	-80.5115	0.0000000E+000	0.0000000E+000	0.0000000E+000	-9.48853	0.0000000E+000	0.0000000E+000	0.0000000E+000	9.48853	5.98312	80.5115	1.97422e-05	-4.80084e-07	158904
0.0680626	12.0452	2.46779	12.2954	-11.5784	110.342	0.276194	0.000639942	947551	38171.1	1	11	0.00473414	0.000385033	0	-0.000165887	0.0796762	0.0163239	0.0813312	11.5784	3.81711e+07	1.86312e+08	1.90182e+08	-78.4216	0.0000000E+000	0.0000000E+000	0.0000000E+000	78.4216	0.0000000E+000	0.0000000E+000	0.0000000E+000	-78.4216	0.0000000E+000	0.0000000E+000	0.0000000E+000	-11.5784	0.0000000E+000	0.0000000E+000	0.0000000E+000	11.5784	4.88096	78.4216	-4.26529e-05	1.76748e-07	431591
0.0464052	12.4217	3.10164	12.8031	-14.0198	155.666	0.276193	0.00073712	1.10576e+06	64895.6	1	11	0.00473628	0.000369933	0	-0.000350728	0.0757795	0.0189218	0.0781062	14.0198	6.48956e+07	2.599e+08	2.67879e+08	-75.9802	0.0000000E+000	0.0000000E+000	0.0000000E+000	75.9802	0.0000000E+000	0.0000000E+000	0.0000000E+000	-75.9802	0.0000000E+000	0.0000000E+000	0.0000000E+000	-14.0198	0.0000000E+000	0.0000000E+000	0.0000000E+000	14.0198	4.00489	75.9802	-0.000184841	2.03588e-07	374693
0.0315922	12.9499	3.8814	13.5191	-16.6847	222.226	0.276185	-0.00100923	1.29793e+06	106988	1	11	0.00473867	0.000350517	0	-0.00068511	0.0708552	0.021237	0.0739694	16.6847	1.06988e+08	3.56954e+08	3.72643e+08	-73.3153	0.0000000E+000	0.0000000E+000	0.0000000E+000	73.3153	0.0000000E+000	0.0000000E+000	0.0000000E+000	-73.3153	0.0000000E+000	0.0000000E+000	0.0000000E+000	-16.6847	0.0000000E+000	0.0000000E+000	0.0000000E+000	16.6847	3.3364	73.3153	-0.000334382	-2.78734e-07	273659
0.0215268	13.6453	4.99969	14.5324	-20.1231	319.894	0.276191	-0.00230341	1.47876e+06	175029	1	11	0.00474235	0.00032633	0	-0.00104323	0.0646112	0.0236738	0.0688118	20.1231	1.75029e+08	4.77693e+08	5.08749e+08	-69.8769	0.0000000E+000	0.0000000E+000	0.0000000E+000	69.8769	0.0000000E+000	0.0000000E+000	0.0000000E+000	-69.8769	0.0000000E+000	0.0000000E+000	0.0000000E+000	-20.1231	0.0000000E+000	0.0000000E+000	0.0000000E+000	20.1231	2.72923	69.8769	-0.000358116	-6.3618e-07	119905
0.0146812	14.3795	6.56224	15.8061	-24.5301	463.089	0.276187	-0.00255187	1.65199e+06	284748	1	11	0.00473931	0.000299841	0	-0.00117057	0.0575564	0.0262665	0.0632666	24.5301	2.84748e+08	6.23955e+08	6.85858e+08	-65.4699	0.0000000E+000	0.0000000E+000	0.0000000E+000	65.4699	0.0000000E+000	0.0000000E+000	0.0000000E+000	-65.4699	0.0000000E+000	0.0000000E+000	0.0000000E+000	-24.5301	0.0000000E+000	0.0000000E+000	0.0000000E+000	24.5301	2.19125	65.4699	-0.00012734	-7.04792e-07	108229
0.0100092	15.1263	8.41225	17.3082	-29.0799	773.185	0.276191	-0.00119445	1.89021e+06	446512	1	12	0.004735	0.00027357	0	-0.000804263	0.0504932	0.0280809	0.0577762	29.0799	4.46512e+08	8.02887e+08	9.18695e+08	-60.9201	0.0000000E+000	0.0000000E+000	0.0000000E+000	60.9201	0.0000000E+000	0.0000000E+000	0.0000000E+000	-60.9201	0.0000000E+000	0.0000000E+000	0.0000000E+000	-29.0799	0.0000000E+000	0.0000000E+000	0.0000000E+000	29.0799	1.79813	60.9201	0.000366303	-3.29896e-07	231229