File: txt/17690_R288_UA670_SOC00_C05.mpt
EC-Lab ASCII FILE

Nb header lines : 63

Potentio Electrochemical Impedance Spectroscopy

Run on channel : 5 (SN 65912)
User :
CE vs. WE compliance from -10 V to 10 V
Electrode connection : standard
Potential control : Ewe
Ewe ctrl range : min = -10.00 V, max = 10.00 V
Safety Limits :
	Do not start on E overload
Acquisition started on : 09/22/2025 08:44:07.659
Loaded Setting File :  C:\Users\Celltest\OneDrive - store-dot.com\Documents\EC-Lab\Data\Gyutae\17740_R277_UA674_SOC00_C04.mpr
Saved on :
	File : 17690_R288_UA670_SOC00_C05.mpr
	Directory : C:\Users\Celltest\OneDrive - store-dot.com\Documents\EC-Lab\Data\Charmaine\
	Host : 169.254.61.224
Device : VMP-3e (SN .003165)
Address : USB
EC-LAB for windows v11.62 (software)
Internet server v27.00 (firmware)
Command interpretor v12.03 (firmware)
Electrode material :
Initial state :
Electrolyte :
Comments :
Electrode surface area : 0.001 cm²
Characteristic mass : 0.001 g
Equivalent Weight : 0.000 g/eq.
Density : 0.000 g/cm3
Volume (V) : 0.001 cm³
Cycle Definition : Charge/Discharge alternance
Mode                Single sine
E (V)               0.0000
vs.                 Eoc
tE (h:m:s)          0:00:0.0000
record              0
dI                  0.000
unit dI             mA
dt (s)              0.000
fi                  100.000
unit fi             kHz
ff                  10.000
unit ff             mHz
Nd                  6
Points              per decade
spacing             Logarithmic
Va (mV)             5.0
pw                  0.10
Na                  2
corr                0
E range min (V)     -10.000
E range max (V)     10.000
I Range             Auto
Bandwidth           5
nc cycles           0
goto Ns'            0
nr cycles           0
inc. cycle          0

freq/Hz	Re(Z)/Ohm	-Im(Z)/Ohm	|Z|/Ohm	Phase(Z)/deg	time/s	<Ewe>/V	<I>/mA	Cs/µF	Cp/µF	cycle number	I Range	|Ewe|/V	|I|/A	Ns	(Q-Qo)/mA.h	Re(Y)/Ohm-1	Im(Y)/Ohm-1	|Y|/Ohm-1	Phase(Y)/deg	Re(C)/nF	Im(C)/nF	|C|/nF	Phase(C)/deg	Re(M)	Im(M)	|M|	Phase(M)/deg	Re(Permittivity)	Im(Permittivity)	|Permittivity|	Phase(Permittivity)/deg	Re(Resistivity)/Ohm.cm	Im(Resistivity)/Ohm.cm	|Resistivity|/Ohm.cm	Phase(Resistivity)/deg	Re(Conductivity)/mS/cm	Im(Conductivity)/mS/cm	|Conductivity|/mS/cm	Phase(Conductivity)/deg	Tan(Delta)	Loss Angle(Delta)/deg	dq/mA.h	Pwe/W	Rwe/Ohm
100004	1.15773	0.223049	1.17902	-10.905	1.86449	0.270293	-0.0354552	7.13517	0.255363	1	9	0.00460378	0.00390473	0	-1.2243e-05	0.832843	0.160455	0.848159	10.905	255.363	1325.46	1349.84	-79.095	0.0000000E+000	0.0000000E+000	0.0000000E+000	79.095	0.0000000E+000	0.0000000E+000	0.0000000E+000	-79.095	0.0000000E+000	0.0000000E+000	0.0000000E+000	-10.905	0.0000000E+000	0.0000000E+000	0.0000000E+000	10.905	5.1905	79.095	-1.2243e-05	-9.58328e-06	7623.51
68132	1.20653	0.233089	1.22884	-10.9342	2.30149	0.270285	-0.03512	10.0218	0.360577	1	9	0.00541583	0.00440726	0	-1.06409e-05	0.799001	0.154358	0.813774	10.9342	360.577	1866.45	1900.96	-79.0658	0.0000000E+000	0.0000000E+000	0.0000000E+000	79.0658	0.0000000E+000	0.0000000E+000	0.0000000E+000	-79.0658	0.0000000E+000	0.0000000E+000	0.0000000E+000	-10.9342	0.0000000E+000	0.0000000E+000	0.0000000E+000	10.9342	5.17629	79.0658	1.60202e-06	-9.4924e-06	7696.03
46420.4	1.25403	0.247913	1.2783	-11.1828	2.73848	0.270289	-0.0374661	13.8297	0.520167	1	9	0.00546379	0.00427425	0	-1.27432e-05	0.767434	0.151716	0.782287	11.1828	520.168	2631.19	2682.12	-78.8172	0.0000000E+000	0.0000000E+000	0.0000000E+000	78.8172	0.0000000E+000	0.0000000E+000	0.0000000E+000	-78.8172	0.0000000E+000	0.0000000E+000	0.0000000E+000	-11.1828	0.0000000E+000	0.0000000E+000	0.0000000E+000	11.1828	5.05836	78.8172	-2.10221e-06	-1.01267e-05	7214.22
31621.1	1.30922	0.272701	1.33732	-11.766	3.17548	0.270279	-0.0370565	18.4568	0.767465	1	9	0.00541981	0.00405274	0	-1.27977e-05	0.732053	0.152481	0.747765	11.766	767.465	3684.56	3763.64	-78.234	0.0000000E+000	0.0000000E+000	0.0000000E+000	78.234	0.0000000E+000	0.0000000E+000	0.0000000E+000	-78.234	0.0000000E+000	0.0000000E+000	0.0000000E+000	-11.766	0.0000000E+000	0.0000000E+000	0.0000000E+000	11.766	4.80094	78.234	-5.45176e-08	-1.00156e-05	7293.72
21544.7	1.3656	0.30276	1.39876	-12.5006	3.6135	0.27028	-0.0357717	24.3995	1.14313	1	9	0.00532205	0.00380484	0	-2.00025e-05	0.697973	0.154744	0.714921	12.5006	1143.13	5156.07	5281.26	-77.4994	0.0000000E+000	0.0000000E+000	0.0000000E+000	77.4994	0.0000000E+000	0.0000000E+000	0.0000000E+000	-77.4994	0.0000000E+000	0.0000000E+000	0.0000000E+000	-12.5006	0.0000000E+000	0.0000000E+000	0.0000000E+000	12.5006	4.51049	77.4994	-7.20483e-06	-9.66837e-06	7555.68
14678.6	1.43567	0.340234	1.47544	-13.3323	4.05148	0.270272	-0.0330718	31.8682	1.69461	1	9	0.0052694	0.00357141	0	-3.01517e-05	0.659498	0.156291	0.677764	13.3323	1694.62	7150.71	7348.76	-76.6677	0.0000000E+000	0.0000000E+000	0.0000000E+000	76.6677	0.0000000E+000	0.0000000E+000	0.0000000E+000	-76.6677	0.0000000E+000	0.0000000E+000	0.0000000E+000	-13.3323	0.0000000E+000	0.0000000E+000	0.0000000E+000	13.3323	4.21967	76.6677	-1.01492e-05	-8.93838e-06	8172.26
10002.2	1.51197	0.385852	1.56043	-14.3162	4.48849	0.270272	-0.033947	41.2384	2.52149	1	9	0.00523766	0.00335655	0	-2.97108e-05	0.620948	0.158465	0.640849	14.3162	2521.49	9880.5	10197.2	-75.6838	0.0000000E+000	0.0000000E+000	0.0000000E+000	75.6838	0.0000000E+000	0.0000000E+000	0.0000000E+000	-75.6838	0.0000000E+000	0.0000000E+000	0.0000000E+000	-14.3162	0.0000000E+000	0.0000000E+000	0.0000000E+000	14.3162	3.91852	75.6838	4.40906e-07	-9.17493e-06	7961.6
6811.07	1.60206	0.44051	1.66152	-15.3744	5.04351	0.270232	-0.0593818	53.0455	3.72863	1	9	0.00508784	0.00306216	0	-4.16808e-05	0.58032	0.159568	0.601858	15.3744	3728.63	13560.4	14063.7	-74.6256	0.0000000E+000	0.0000000E+000	0.0000000E+000	74.6256	0.0000000E+000	0.0000000E+000	0.0000000E+000	-74.6256	0.0000000E+000	0.0000000E+000	0.0000000E+000	-15.3744	0.0000000E+000	0.0000000E+000	0.0000000E+000	15.3744	3.63683	74.6256	-1.197e-05	-1.60469e-05	4550.76
4641.49	1.70009	0.503316	1.77303	-16.4915	5.51471	0.270287	-0.0157553	68.1275	5.49	1	9	0.00531713	0.0029989	0	-4.1713e-05	0.540804	0.160107	0.564007	16.4915	5490	18544	19339.6	-73.5085	0.0000000E+000	0.0000000E+000	0.0000000E+000	73.5085	0.0000000E+000	0.0000000E+000	0.0000000E+000	-73.5085	0.0000000E+000	0.0000000E+000	0.0000000E+000	-16.4915	0.0000000E+000	0.0000000E+000	0.0000000E+000	16.4915	3.37778	73.5085	-3.22241e-08	-4.25846e-06	17155.3
3161.01	1.81259	0.578587	1.9027	-17.7033	5.98167	0.270285	-0.0218813	87.0213	8.04679	1	9	0.00534056	0.00280683	0	-4.68494e-05	0.500681	0.159819	0.525569	17.7033	8046.79	25208.9	26462.1	-72.2967	0.0000000E+000	0.0000000E+000	0.0000000E+000	72.2967	0.0000000E+000	0.0000000E+000	0.0000000E+000	-72.2967	0.0000000E+000	0.0000000E+000	0.0000000E+000	-17.7033	0.0000000E+000	0.0000000E+000	0.0000000E+000	17.7033	3.1328	72.2967	-5.13639e-06	-5.91418e-06	12352.3
2155.69	1.94198	0.663344	2.05215	-18.8592	6.44871	0.270277	-0.0244508	111.3	11.6293	1	9	0.00531137	0.0025882	0	-4.79923e-05	0.461133	0.157514	0.487293	18.8592	11629.3	34045.6	35976.9	-71.1408	0.0000000E+000	0.0000000E+000	0.0000000E+000	71.1408	0.0000000E+000	0.0000000E+000	0.0000000E+000	-71.1408	0.0000000E+000	0.0000000E+000	0.0000000E+000	-18.8592	0.0000000E+000	0.0000000E+000	0.0000000E+000	18.8592	2.92757	71.1408	-1.14284e-06	-6.60849e-06	11053.9
1468.59	2.07697	0.770531	2.2153	-20.3542	6.91595	0.270285	-0.0224213	140.647	17.0156	1	9	0.00526185	0.00237524	0	-4.98282e-05	0.423221	0.15701	0.451407	20.3542	17015.6	45865.6	48920.2	-69.6458	0.0000000E+000	0.0000000E+000	0.0000000E+000	69.6458	0.0000000E+000	0.0000000E+000	0.0000000E+000	-69.6458	0.0000000E+000	0.0000000E+000	0.0000000E+000	-20.3542	0.0000000E+000	0.0000000E+000	0.0000000E+000	20.3542	2.69551	69.6458	-1.83597e-06	-6.06013e-06	12054.8
1000.32	2.22675	0.897378	2.40077	-21.9494	7.38471	0.270283	-0.0207269	177.299	24.7717	1	9	0.00522069	0.00217459	0	-5.33735e-05	0.386341	0.155695	0.416534	21.9494	24771.7	61468.3	66272.1	-68.0506	0.0000000E+000	0.0000000E+000	0.0000000E+000	68.0506	0.0000000E+000	0.0000000E+000	0.0000000E+000	-68.0506	0.0000000E+000	0.0000000E+000	0.0000000E+000	-21.9494	0.0000000E+000	0.0000000E+000	0.0000000E+000	21.9494	2.48139	68.0506	-3.54527e-06	-5.60213e-06	13040.2
681.09	2.42788	1.10351	2.6669	-24.4425	7.85045	0.270278	-0.0238178	211.758	36.2558	1	9	0.00519391	0.00194755	0	-5.84229e-05	0.341362	0.155154	0.374967	24.4425	36255.8	79768.3	87621.2	-65.5575	0.0000000E+000	0.0000000E+000	0.0000000E+000	65.5575	0.0000000E+000	0.0000000E+000	0.0000000E+000	-65.5575	0.0000000E+000	0.0000000E+000	0.0000000E+000	-24.4425	0.0000000E+000	0.0000000E+000	0.0000000E+000	24.4425	2.20015	65.5575	-5.04941e-06	-6.43741e-06	11347.7
463.961	2.63961	1.33989	2.96021	-26.9127	8.57318	0.270287	-0.0140375	256.018	52.4521	1	10	0.00522652	0.00176559	0	-5.91551e-05	0.301228	0.152906	0.337814	26.9127	52452.1	103332	115882	-63.0873	0.0000000E+000	0.0000000E+000	0.0000000E+000	63.0873	0.0000000E+000	0.0000000E+000	0.0000000E+000	-63.0873	0.0000000E+000	0.0000000E+000	0.0000000E+000	-26.9127	0.0000000E+000	0.0000000E+000	0.0000000E+000	26.9127	1.97002	63.0873	-7.32144e-07	-3.79415e-06	19254.6
316.316	2.939	1.63418	3.36278	-29.0755	9.03893	0.270288	-0.0139109	307.892	72.7114	1	10	0.0051941	0.00154459	0	-6.17279e-05	0.259898	0.144512	0.297373	29.0755	72711.4	130768	149624	-60.9245	0.0000000E+000	0.0000000E+000	0.0000000E+000	60.9245	0.0000000E+000	0.0000000E+000	0.0000000E+000	-60.9245	0.0000000E+000	0.0000000E+000	0.0000000E+000	-29.0755	0.0000000E+000	0.0000000E+000	0.0000000E+000	29.0755	1.79845	60.9245	-2.57281e-06	-3.75996e-06	19429.9
215.345	3.32679	1.9784	3.87061	-30.7395	9.50642	0.270294	-0.0134883	373.569	97.5985	1	10	0.00516571	0.0013346	0	-6.44486e-05	0.222058	0.132056	0.258357	30.7395	97598.5	164117	190944	-59.2605	0.0000000E+000	0.0000000E+000	0.0000000E+000	59.2605	0.0000000E+000	0.0000000E+000	0.0000000E+000	-59.2605	0.0000000E+000	0.0000000E+000	0.0000000E+000	-30.7395	0.0000000E+000	0.0000000E+000	0.0000000E+000	30.7395	1.68155	59.2605	-2.72073e-06	-3.64581e-06	20039.1
146.737	3.83478	2.37563	4.511	-31.7781	9.9694	0.270295	-0.0139928	456.562	126.623	1	10	0.00515188	0.00114207	0	-6.54307e-05	0.188449	0.116743	0.22168	31.7781	126623	204396	240440	-58.2219	0.0000000E+000	0.0000000E+000	0.0000000E+000	58.2219	0.0000000E+000	0.0000000E+000	0.0000000E+000	-58.2219	0.0000000E+000	0.0000000E+000	0.0000000E+000	-31.7781	0.0000000E+000	0.0000000E+000	0.0000000E+000	31.7781	1.61421	58.2219	-9.82086e-07	-3.7822e-06	19316.7
100.032	4.48671	2.78896	5.28289	-31.8652	10.4377	0.270296	-0.0132426	570.479	158.994	1	10	0.00513938	0.000972836	0	-6.60363e-05	0.160763	0.0999308	0.18929	31.8652	158994	255780	301169	-58.1348	0.0000000E+000	0.0000000E+000	0.0000000E+000	58.1348	0.0000000E+000	0.0000000E+000	0.0000000E+000	-58.1348	0.0000000E+000	0.0000000E+000	0.0000000E+000	-31.8652	0.0000000E+000	0.0000000E+000	0.0000000E+000	31.8652	1.60874	58.1348	-6.05642e-07	-3.57942e-06	20411.2
68.104	5.32287	3.15646	6.18839	-30.668	10.9153	0.270298	-0.0124216	740.367	192.616	1	10	0.00512936	0.000828869	0	-6.70296e-05	0.138992	0.0824224	0.161593	30.668	192616	324816	377633	-59.332	0.0000000E+000	0.0000000E+000	0.0000000E+000	59.332	0.0000000E+000	0.0000000E+000	0.0000000E+000	-59.332	0.0000000E+000	0.0000000E+000	0.0000000E+000	-30.668	0.0000000E+000	0.0000000E+000	0.0000000E+000	30.668	1.68634	59.332	-9.93283e-07	-3.35752e-06	21760.4
46.4415	6.31538	3.39774	7.17138	-28.2808	11.3705	0.270291	-0.0143187	1008.61	226.412	1	10	0.00512539	0.000714701	0	-6.8224e-05	0.122799	0.0660671	0.139443	28.2808	226412	420831	477871	-61.7192	0.0000000E+000	0.0000000E+000	0.0000000E+000	61.7192	0.0000000E+000	0.0000000E+000	0.0000000E+000	-61.7192	0.0000000E+000	0.0000000E+000	0.0000000E+000	-28.2808	0.0000000E+000	0.0000000E+000	0.0000000E+000	28.2808	1.8587	61.7192	-1.19439e-06	-3.8702e-06	18876.8
31.6296	7.3961	3.45439	8.16303	-25.0352	11.8164	0.270287	-0.0154227	1456.65	260.853	1	10	0.00513247	0.000628745	0	-7.03063e-05	0.110994	0.0518404	0.122504	25.0352	260853	558505	616419	-64.9648	0.0000000E+000	0.0000000E+000	0.0000000E+000	64.9648	0.0000000E+000	0.0000000E+000	0.0000000E+000	-64.9648	0.0000000E+000	0.0000000E+000	0.0000000E+000	-25.0352	0.0000000E+000	0.0000000E+000	0.0000000E+000	25.0352	2.14107	64.9648	-2.08234e-06	-4.16854e-06	17525.3
21.5517	8.39815	3.29582	9.02171	-21.4273	12.2553	0.270285	-0.0173719	2240.65	299.036	1	10	0.00512013	0.000567534	0	-7.11595e-05	0.103182	0.0404935	0.110844	21.4273	299036	761980	818557	-68.5727	0.0000000E+000	0.0000000E+000	0.0000000E+000	68.5727	0.0000000E+000	0.0000000E+000	0.0000000E+000	-68.5727	0.0000000E+000	0.0000000E+000	0.0000000E+000	-21.4273	0.0000000E+000	0.0000000E+000	0.0000000E+000	21.4273	2.54812	68.5727	-8.5316e-07	-4.69536e-06	15558.8
14.6852	9.27513	3.01002	9.75132	-17.9796	12.734	0.270295	-0.0124644	3600.57	343.072	1	10	0.00511823	0.000524876	0	-7.1985e-05	0.0975423	0.0316551	0.10255	17.9796	343072	1.05715e+06	1.11142e+06	-72.0204	0.0000000E+000	0.0000000E+000	0.0000000E+000	72.0204	0.0000000E+000	0.0000000E+000	0.0000000E+000	-72.0204	0.0000000E+000	0.0000000E+000	0.0000000E+000	-17.9796	0.0000000E+000	0.0000000E+000	0.0000000E+000	17.9796	3.08141	72.0204	-8.25501e-07	-3.36907e-06	21685.4
10.0032	10.0149	2.69405	10.3709	-15.0564	13.2027	0.270288	-0.0133599	5905.75	398.523	1	10	0.0051201	0.000493698	0	-7.25311e-05	0.0931134	0.025048	0.0964236	15.0564	398523	1.48147e+06	1.53414e+06	-74.9436	0.0000000E+000	0.0000000E+000	0.0000000E+000	74.9436	0.0000000E+000	0.0000000E+000	0.0000000E+000	-74.9436	0.0000000E+000	0.0000000E+000	0.0000000E+000	-15.0564	0.0000000E+000	0.0000000E+000	0.0000000E+000	15.0564	3.7174	74.9436	-5.46103e-07	-3.61101e-06	20231.3
6.81719	10.6476	2.36866	10.9079	-12.5418	13.7654	0.270276	-0.00923169	9856.24	464.768	1	11	0.00512	0.000469385	0	-7.34094e-05	0.0894891	0.0199077	0.0916767	12.5418	464768	2.08922e+06	2.1403e+06	-77.4582	0.0000000E+000	0.0000000E+000	0.0000000E+000	77.4582	0.0000000E+000	0.0000000E+000	0.0000000E+000	-77.4582	0.0000000E+000	0.0000000E+000	0.0000000E+000	-12.5418	0.0000000E+000	0.0000000E+000	0.0000000E+000	12.5418	4.49519	77.4582	-8.78278e-07	-2.4951e-06	29276.9
4.63925	11.1686	2.07361	11.3594	-10.518	14.2683	0.270303	-0.00651339	16544.2	551.296	1	11	0.00512421	0.000451097	0	-7.16358e-05	0.0865533	0.0160699	0.0880325	10.518	551296	2.96931e+06	3.02006e+06	-79.482	0.0000000E+000	0.0000000E+000	0.0000000E+000	79.482	0.0000000E+000	0.0000000E+000	0.0000000E+000	-79.482	0.0000000E+000	0.0000000E+000	0.0000000E+000	-10.518	0.0000000E+000	0.0000000E+000	0.0000000E+000	10.518	5.38606	79.482	1.77358e-06	-1.76059e-06	41499.6
3.1604	11.5847	1.86604	11.734	-9.15053	14.9773	0.270296	-0.00619198	26987.2	682.509	1	11	0.00512358	0.000436644	0	-8.03165e-05	0.084138	0.0135528	0.0852225	9.15053	682509	4.23712e+06	4.29173e+06	-80.8495	0.0000000E+000	0.0000000E+000	0.0000000E+000	80.8495	0.0000000E+000	0.0000000E+000	0.0000000E+000	-80.8495	0.0000000E+000	0.0000000E+000	0.0000000E+000	-9.15053	0.0000000E+000	0.0000000E+000	0.0000000E+000	9.15053	6.20815	80.8495	-8.68067e-06	-1.67367e-06	43652.6
2.15577	11.9785	1.65856	12.0928	-7.88317	15.9938	0.270314	-0.00583306	44512.9	837.337	1	11	0.00512598	0.000423889	0	-8.49929e-05	0.0819127	0.0113418	0.0826942	7.88317	837337	6.04741e+06	6.1051e+06	-82.1168	0.0000000E+000	0.0000000E+000	0.0000000E+000	82.1168	0.0000000E+000	0.0000000E+000	0.0000000E+000	-82.1168	0.0000000E+000	0.0000000E+000	0.0000000E+000	-7.88317	0.0000000E+000	0.0000000E+000	0.0000000E+000	7.88317	7.22219	82.1168	-4.67647e-06	-1.57676e-06	46341.7
1.46631	12.3036	1.50822	12.3957	-6.98863	17.4671	0.270314	-0.00622343	71966.5	1065.4	1	11	0.00512551	0.00041349	0	-7.97448e-05	0.0800736	0.00981568	0.080673	6.98863	1.0654e+06	8.69128e+06	8.75634e+06	-83.0114	0.0000000E+000	0.0000000E+000	0.0000000E+000	83.0114	0.0000000E+000	0.0000000E+000	0.0000000E+000	-83.0114	0.0000000E+000	0.0000000E+000	0.0000000E+000	-6.98863	0.0000000E+000	0.0000000E+000	0.0000000E+000	6.98863	8.15773	83.0114	5.24811e-06	-1.68228e-06	43434.9
1.00006	12.5901	1.3799	12.6655	-6.25479	19.6072	0.270317	-0.00550137	115330	1368.98	1	11	0.00512477	0.000404625	0	-6.88471e-05	0.0784848	0.00860212	0.0789548	6.25479	1.36898e+06	1.24904e+07	1.25652e+07	-83.7452	0.0000000E+000	0.0000000E+000	0.0000000E+000	83.7452	0.0000000E+000	0.0000000E+000	0.0000000E+000	-83.7452	0.0000000E+000	0.0000000E+000	0.0000000E+000	-6.25479	0.0000000E+000	0.0000000E+000	0.0000000E+000	6.25479	9.12389	83.7452	1.08978e-05	-1.48711e-06	49136.3
0.681362	12.8584	1.31147	12.9251	-5.82363	22.7271	0.270314	-0.00445148	178108	1833.71	1	11	0.00512395	0.000396433	0	-6.12129e-05	0.0769694	0.00785034	0.0773687	5.82363	1.83371e+06	1.79788e+07	1.80721e+07	-84.1764	0.0000000E+000	0.0000000E+000	0.0000000E+000	84.1764	0.0000000E+000	0.0000000E+000	0.0000000E+000	-84.1764	0.0000000E+000	0.0000000E+000	0.0000000E+000	-5.82363	0.0000000E+000	0.0000000E+000	0.0000000E+000	5.82363	9.80459	84.1764	7.63412e-06	-1.2033e-06	60724.4
0.464091	13.1	1.30749	13.1651	-5.69976	27.2919	0.270317	-0.00249952	262288	2587.09	1	11	0.00512576	0.000389346	0	-6.83471e-05	0.0755831	0.00754387	0.0759587	5.69976	2.58709e+06	2.59204e+07	2.60492e+07	-84.3002	0.0000000E+000	0.0000000E+000	0.0000000E+000	84.3002	0.0000000E+000	0.0000000E+000	0.0000000E+000	-84.3002	0.0000000E+000	0.0000000E+000	0.0000000E+000	-5.69976	0.0000000E+000	0.0000000E+000	0.0000000E+000	5.69976	10.0191	84.3002	-7.13416e-06	-6.75663e-07	108148
0.316193	13.3047	1.36831	13.3749	-5.87187	33.9742	0.270311	-0.00165476	367861	3850.09	1	11	0.00512515	0.000383192	0	-9.98733e-05	0.0743746	0.00764897	0.0747669	5.87187	3.85009e+06	3.74363e+07	3.76337e+07	-84.1281	0.0000000E+000	0.0000000E+000	0.0000000E+000	84.1281	0.0000000E+000	0.0000000E+000	0.0000000E+000	-84.1281	0.0000000E+000	0.0000000E+000	0.0000000E+000	-5.87187	0.0000000E+000	0.0000000E+000	0.0000000E+000	5.87187	9.72349	84.1281	-3.15262e-05	-4.473e-07	163354
0.215268	13.5171	1.49538	13.5996	-6.31287	43.7718	0.270316	-0.00166454	494413	5977.78	1	11	0.00512598	0.000376922	0	-0.000155385	0.0730857	0.00808535	0.0735316	6.31287	5.97778e+06	5.40348e+07	5.43644e+07	-83.6871	0.0000000E+000	0.0000000E+000	0.0000000E+000	83.6871	0.0000000E+000	0.0000000E+000	0.0000000E+000	-83.6871	0.0000000E+000	0.0000000E+000	0.0000000E+000	-6.31287	0.0000000E+000	0.0000000E+000	0.0000000E+000	6.31287	9.03928	83.6871	-5.55119e-05	-4.49951e-07	162398
0.146929	13.7923	1.73627	13.9012	-7.17502	58.1074	0.27032	-0.0030481	623872	9732.53	1	11	0.00512526	0.000368692	0	-0.00022084	0.0713729	0.00898488	0.0719362	7.17502	9.73252e+06	7.73119e+07	7.79221e+07	-82.825	0.0000000E+000	0.0000000E+000	0.0000000E+000	82.825	0.0000000E+000	0.0000000E+000	0.0000000E+000	-82.825	0.0000000E+000	0.0000000E+000	0.0000000E+000	-7.17502	0.0000000E+000	0.0000000E+000	0.0000000E+000	7.17502	7.94366	82.825	-6.5455e-05	-8.23963e-07	88685
0.0999041	14.1169	2.12954	14.2766	-8.57844	79.1773	0.270324	-0.00441767	748085	16644.7	1	11	0.00512603	0.000359052	0	-0.000263875	0.0692612	0.0104481	0.0700448	8.57844	1.66447e+07	1.10338e+08	1.11587e+08	-81.4216	0.0000000E+000	0.0000000E+000	0.0000000E+000	81.4216	0.0000000E+000	0.0000000E+000	0.0000000E+000	-81.4216	0.0000000E+000	0.0000000E+000	0.0000000E+000	-8.57844	0.0000000E+000	0.0000000E+000	0.0000000E+000	8.57844	6.62906	81.4216	-4.30348e-05	-1.1942e-06	61191.5
0.0680626	14.4931	2.68453	14.7397	-10.4938	110.089	0.270322	-0.00493689	871051	28893.7	1	11	0.00513069	0.000348087	0	-0.000251484	0.0667094	0.0123564	0.0678441	10.4938	2.88937e+07	1.55991e+08	1.58644e+08	-79.5062	0.0000000E+000	0.0000000E+000	0.0000000E+000	79.5062	0.0000000E+000	0.0000000E+000	0.0000000E+000	-79.5062	0.0000000E+000	0.0000000E+000	0.0000000E+000	-10.4938	0.0000000E+000	0.0000000E+000	0.0000000E+000	10.4938	5.39877	79.5062	1.2391e-05	-1.33455e-06	54755.7
0.0464052	14.9095	3.33081	15.277	-12.5932	155.413	0.270321	-0.0037044	1.02968e+06	48947	1	11	0.00512633	0.000335558	0	-0.000115206	0.063883	0.0142716	0.0654578	12.5932	4.8947e+07	2.19098e+08	2.24499e+08	-77.4068	0.0000000E+000	0.0000000E+000	0.0000000E+000	77.4068	0.0000000E+000	0.0000000E+000	0.0000000E+000	-77.4068	0.0000000E+000	0.0000000E+000	0.0000000E+000	-12.5932	0.0000000E+000	0.0000000E+000	0.0000000E+000	12.5932	4.47624	77.4068	0.000136278	-1.00138e-06	72972.9
0.0315922	15.5118	4.17947	16.065	-15.0796	253.711	0.27032	-0.00121234	1.20537e+06	81583.4	1	12	0.00512398	0.000318954	0	0.000126058	0.0601038	0.0161943	0.0622473	15.0796	8.15834e+07	3.02791e+08	3.13589e+08	-74.9204	0.0000000E+000	0.0000000E+000	0.0000000E+000	74.9204	0.0000000E+000	0.0000000E+000	0.0000000E+000	-74.9204	0.0000000E+000	0.0000000E+000	0.0000000E+000	-15.0796	0.0000000E+000	0.0000000E+000	0.0000000E+000	15.0796	3.71142	74.9204	0.000241265	-3.27719e-07	222974
0.0215268	16.3211	5.27993	17.1539	-17.9265	351.38	0.270319	0.000604899	1.40027e+06	132660	1	12	0.00512432	0.000298726	0	0.000372843	0.0554655	0.0179432	0.0582957	17.9265	1.3266e+08	4.10076e+08	4.31e+08	-72.0735	0.0000000E+000	0.0000000E+000	0.0000000E+000	72.0735	0.0000000E+000	0.0000000E+000	0.0000000E+000	-72.0735	0.0000000E+000	0.0000000E+000	0.0000000E+000	-17.9265	0.0000000E+000	0.0000000E+000	0.0000000E+000	17.9265	3.09117	72.0735	0.000246784	1.63516e-07	446883
0.0146812	17.1806	6.84633	18.4945	-21.7269	494.576	0.270317	0.00126886	1.58344e+06	216987	1	12	0.00512553	0.000277139	0	0.000384035	0.0502291	0.0200159	0.0540703	21.7269	2.16987e+08	5.44521e+08	5.86162e+08	-68.2731	0.0000000E+000	0.0000000E+000	0.0000000E+000	68.2731	0.0000000E+000	0.0000000E+000	0.0000000E+000	-68.2731	0.0000000E+000	0.0000000E+000	0.0000000E+000	-21.7269	0.0000000E+000	0.0000000E+000	0.0000000E+000	21.7269	2.50946	68.2731	1.11923e-05	3.42993e-07	213040

0.0100092	18.0696	8.75037	20.0769	-25.839	704.597	0.27032	0.000457166	1.81717e+06	345189	1	12	0.00512735	0.000255386	0	-8.88221e-05	0.0448289	0.0217087	0.0498086	25.839	3.45189e+08	7.1282e+08	7.92002e+08	-64.161	0.0000000E+000	0.0000000E+000	0.0000000E+000	64.161	0.0000000E+000	0.0000000E+000	0.0000000E+000	-64.161	0.0000000E+000	0.0000000E+000	0.0000000E+000	-25.839	0.0000000E+000	0.0000000E+000	0.0000000E+000	25.839	2.06501	64.161	-0.000472857	1.23581e-07	591296