File: txt/17698_R287_UA660_SOC00_C05.mpt
EC-Lab ASCII FILE
Nb header lines : 63

Potentio Electrochemical Impedance Spectroscopy

Run on channel : 5 (SN 65912)
User :
CE vs. WE compliance from -10 V to 10 V
Electrode connection : standard
Potential control : Ewe
Ewe ctrl range : min = -10.00 V, max = 10.00 V
Safety Limits :
	Do not start on E overload
Acquisition started on : 09/22/2025 09:04:13.605
Loaded Setting File :  C:\Users\Celltest\OneDrive - store-dot.com\Documents\EC-Lab\Data\Gyutae\17740_R277_UA674_SOC00_C04.mpr
Saved on :
	File : 17698_R287_UA660_SOC00_C05.mpr
	Directory : C:\Users\Celltest\OneDrive - store-dot.com\Documents\EC-Lab\Data\Charmaine\
	Host : 169.254.61.224
Device : VMP-3e (SN .003165)
Address : USB
EC-LAB for windows v11.62 (software)
Internet server v27.00 (firmware)
Command interpretor v12.03 (firmware)
Electrode material :
Initial state :
Electrolyte :
Comments :
Electrode surface area : 0.001 cm²
Characteristic mass : 0.001 g
Equivalent Weight : 0.000 g/eq.
Density : 0.000 g/cm3
Volume (V) : 0.001 cm³
Cycle Definition : Charge/Discharge alternance
Mode                Single sine
E (V)               0.0000
vs.                 Eoc
tE (h:m:s)          0:00:0.0000
record              0
dI                  0.000
unit dI             mA
dt (s)              0.000
fi                  100.000
unit fi             kHz
ff                  10.000
unit ff             mHz
Nd                  6
Points              per decade
spacing             Logarithmic
Va (mV)             5.0
pw                  0.10
Na                  2
corr                0
E range min (V)     -10.000
E range max (V)     10.000
I Range             Auto
Bandwidth           5
nc cycles           0
goto Ns'            0
nr cycles           0
inc. cycle          0

freq/Hz	Re(Z)/Ohm	-Im(Z)/Ohm	|Z|/Ohm	Phase(Z)/deg	time/s	<Ewe>/V	<I>/mA	Cs/µF	Cp/µF	cycle number	I Range	|Ewe|/V	|I|/A	Ns	(Q-Qo)/mA.h	Re(Y)/Ohm-1	Im(Y)/Ohm-1	|Y|/Ohm-1	Phase(Y)/deg	Re(C)/nF	Im(C)/nF	|C|/nF	Phase(C)/deg	Re(M)	Im(M)	|M|	Phase(M)/deg	Re(Permittivity)	Im(Permittivity)	|Permittivity|	Phase(Permittivity)/deg	Re(Resistivity)/Ohm.cm	Im(Resistivity)/Ohm.cm	|Resistivity|/Ohm.cm	Phase(Resistivity)/deg	Re(Conductivity)/mS/cm	Im(Conductivity)/mS/cm	|Conductivity|/mS/cm	Phase(Conductivity)/deg	Tan(Delta)	Loss Angle(Delta)/deg	dq/mA.h	Pwe/W	Rwe/Ohm
100004	1.35543	0.219318	1.37306	-9.19119	1.8765	0.280646	-0.0119569	7.25654	0.18514	1	9	0.00545943	0.00397611	0	6.5572e-07	0.71895	0.116331	0.728301	9.19119	185.14	1144.2	1159.08	-80.8088	0.0000000E+000	0.0000000E+000	0.0000000E+000	80.8088	0.0000000E+000	0.0000000E+000	0.0000000E+000	-80.8088	0.0000000E+000	0.0000000E+000	0.0000000E+000	-9.19119	0.0000000E+000	0.0000000E+000	0.0000000E+000	9.19119	6.18021	80.8088	6.5572e-07	-3.35564e-06	23471.5
68132	1.41153	0.270944	1.4373	-10.8658	2.4545	0.280603	-0.0151409	8.62162	0.306375	1	9	0.00512633	0.00356664	0	-3.29072e-06	0.683275	0.131155	0.695749	10.8658	306.375	1596.12	1625.25	-79.1342	0.0000000E+000	0.0000000E+000	0.0000000E+000	79.1342	0.0000000E+000	0.0000000E+000	0.0000000E+000	-79.1342	0.0000000E+000	0.0000000E+000	0.0000000E+000	-10.8658	0.0000000E+000	0.0000000E+000	0.0000000E+000	10.8658	5.20968	79.1342	-3.94644e-06	-4.24857e-06	18532.8
46420.4	1.47475	0.31622	1.50827	-12.1023	2.89149	0.280593	-0.0168167	10.8423	0.476589	1	9	0.00546349	0.00362236	0	-7.35406e-06	0.648277	0.139006	0.663013	12.1023	476.589	2222.66	2273.18	-77.8977	0.0000000E+000	0.0000000E+000	0.0000000E+000	77.8977	0.0000000E+000	0.0000000E+000	0.0000000E+000	-77.8977	0.0000000E+000	0.0000000E+000	0.0000000E+000	-12.1023	0.0000000E+000	0.0000000E+000	0.0000000E+000	12.1023	4.66368	77.8977	-4.06334e-06	-4.71863e-06	16685.4
31621.1	1.55312	0.365364	1.59551	-13.2379	3.46949	0.280571	-0.016165	13.7758	0.722384	1	9	0.00508099	0.00318455	0	-8.76202e-06	0.610103	0.143524	0.626757	13.2379	722.383	3070.76	3154.58	-76.7621	0.0000000E+000	0.0000000E+000	0.0000000E+000	76.7621	0.0000000E+000	0.0000000E+000	0.0000000E+000	-76.7621	0.0000000E+000	0.0000000E+000	0.0000000E+000	-13.2379	0.0000000E+000	0.0000000E+000	0.0000000E+000	13.2379	4.25087	76.7621	-1.40796e-06	-4.53542e-06	17356.7
21544.7	1.63431	0.41218	1.68548	-14.1551	3.90648	0.280573	-0.0208199	17.9223	1.07181	1	9	0.00542843	0.0032207	0	-1.12623e-05	0.575287	0.14509	0.593301	14.1551	1071.81	4249.76	4382.84	-75.8449	0.0000000E+000	0.0000000E+000	0.0000000E+000	75.8449	0.0000000E+000	0.0000000E+000	0.0000000E+000	-75.8449	0.0000000E+000	0.0000000E+000	0.0000000E+000	-14.1551	0.0000000E+000	0.0000000E+000	0.0000000E+000	14.1551	3.96504	75.8449	-2.50023e-06	-5.84152e-06	13476.2
14678.6	1.72903	0.477154	1.79366	-15.4277	4.48549	0.280566	-0.0133534	22.7236	1.6081	1	9	0.00507058	0.00282695	0	-1.06667e-05	0.53743	0.148312	0.557519	15.4277	1608.1	5827.16	6044.98	-74.5723	0.0000000E+000	0.0000000E+000	0.0000000E+000	74.5723	0.0000000E+000	0.0000000E+000	0.0000000E+000	-74.5723	0.0000000E+000	0.0000000E+000	0.0000000E+000	-15.4277	0.0000000E+000	0.0000000E+000	0.0000000E+000	15.4277	3.62364	74.5723	5.95516e-07	-3.74651e-06	21010.9
10002.2	1.8358	0.547474	1.9157	-16.6057	4.92247	0.280566	-0.0131486	29.0643	2.37374	1	9	0.00544429	0.00284194	0	-1.40833e-05	0.500233	0.14918	0.522003	16.6057	2373.74	7959.68	8306.09	-73.3943	0.0000000E+000	0.0000000E+000	0.0000000E+000	73.3943	0.0000000E+000	0.0000000E+000	0.0000000E+000	-73.3943	0.0000000E+000	0.0000000E+000	0.0000000E+000	-16.6057	0.0000000E+000	0.0000000E+000	0.0000000E+000	16.6057	3.35322	73.3943	-3.41654e-06	-3.68904e-06	21338.2
6811.07	1.95576	0.633821	2.0559	-17.9564	5.47649	0.280542	-0.0414322	36.8671	3.50401	1	9	0.00545472	0.0026532	0	-1.28829e-05	0.462712	0.149955	0.486404	17.9564	3504.01	10812.2	11365.9	-72.0436	0.0000000E+000	0.0000000E+000	0.0000000E+000	72.0436	0.0000000E+000	0.0000000E+000	0.0000000E+000	-72.0436	0.0000000E+000	0.0000000E+000	0.0000000E+000	-17.9564	0.0000000E+000	0.0000000E+000	0.0000000E+000	17.9564	3.08567	72.0436	1.20039e-06	-1.16235e-05	6771.11
4641.49	2.09134	0.733763	2.21633	-19.3338	6.17069	0.280566	-0.0196469	46.7313	5.12213	1	9	0.00544481	0.00245668	0	-1.49626e-05	0.425752	0.149378	0.451197	19.3338	5122.13	14598.9	15471.4	-70.6662	0.0000000E+000	0.0000000E+000	0.0000000E+000	70.6662	0.0000000E+000	0.0000000E+000	0.0000000E+000	-70.6662	0.0000000E+000	0.0000000E+000	0.0000000E+000	-19.3338	0.0000000E+000	0.0000000E+000	0.0000000E+000	19.3338	2.85016	70.6662	-2.07977e-06	-5.51226e-06	14280.4
3161.01	2.24727	0.862305	2.40703	-20.9924	6.86067	0.280554	-0.0273183	58.3893	7.49365	1	9	0.00525932	0.00218499	0	-2.21462e-05	0.387876	0.148833	0.415451	20.9924	7493.65	19529.3	20917.7	-69.0076	0.0000000E+000	0.0000000E+000	0.0000000E+000	69.0076	0.0000000E+000	0.0000000E+000	0.0000000E+000	-69.0076	0.0000000E+000	0.0000000E+000	0.0000000E+000	-20.9924	0.0000000E+000	0.0000000E+000	0.0000000E+000	20.9924	2.60612	69.0076	-7.18354e-06	-7.66426e-06	10269.8
2155.69	2.42489	1.0234	2.632	-22.8817	7.5507	0.280558	-0.02905	72.1422	10.907	1	9	0.00516423	0.00196209	0	-3.03047e-05	0.350042	0.147732	0.37994	22.8817	10907	25843.7	28051	-67.1183	0.0000000E+000	0.0000000E+000	0.0000000E+000	67.1183	0.0000000E+000	0.0000000E+000	0.0000000E+000	-67.1183	0.0000000E+000	0.0000000E+000	0.0000000E+000	-22.8817	0.0000000E+000	0.0000000E+000	0.0000000E+000	22.8817	2.36945	67.1183	-8.15852e-06	-8.1502e-06	9657.76
1468.59	2.63138	1.22052	2.90066	-24.8833	8.01794	0.280567	-0.0267597	88.7923	15.7206	1	9	0.00546102	0.00188268	0	-3.40943e-05	0.312745	0.145061	0.344749	24.8833	15720.6	33892.9	37361.3	-65.1167	0.0000000E+000	0.0000000E+000	0.0000000E+000	65.1167	0.0000000E+000	0.0000000E+000	0.0000000E+000	-65.1167	0.0000000E+000	0.0000000E+000	0.0000000E+000	-24.8833	0.0000000E+000	0.0000000E+000	0.0000000E+000	24.8833	2.15596	65.1167	-3.78962e-06	-7.50789e-06	10484.7
1000.32	2.86965	1.47405	3.2261	-27.1882	8.4867	0.280562	-0.0220303	107.936	22.5339	1	9	0.0054312	0.00168352	0	-3.62138e-05	0.275723	0.14163	0.309971	27.1882	22534	43868.6	49317.7	-62.8118	0.0000000E+000	0.0000000E+000	0.0000000E+000	62.8118	0.0000000E+000	0.0000000E+000	0.0000000E+000	-62.8118	0.0000000E+000	0.0000000E+000	0.0000000E+000	-27.1882	0.0000000E+000	0.0000000E+000	0.0000000E+000	27.1882	1.94678	62.8118	-2.11942e-06	-6.18085e-06	12735.3
681.09	3.15541	1.79865	3.63204	-29.6841	9.20643	0.280568	-0.0117718	129.918	31.8611	1	10	0.00538197	0.0014818	0	-3.90843e-05	0.239196	0.136347	0.275327	29.6841	31861.1	55894.5	64337.6	-60.3159	0.0000000E+000	0.0000000E+000	0.0000000E+000	60.3159	0.0000000E+000	0.0000000E+000	0.0000000E+000	-60.3159	0.0000000E+000	0.0000000E+000	0.0000000E+000	-29.6841	0.0000000E+000	0.0000000E+000	0.0000000E+000	29.6841	1.75432	60.3159	-2.87052e-06	-3.3028e-06	23833.8
463.961	3.52471	2.20976	4.16013	-32.085	9.6752	0.280569	-0.0116806	155.236	43.7997	1	10	0.00526111	0.00126465	0	-4.10833e-05	0.203662	0.127683	0.240377	32.085	43799.7	69863.4	82457.9	-57.915	0.0000000E+000	0.0000000E+000	0.0000000E+000	57.915	0.0000000E+000	0.0000000E+000	0.0000000E+000	-57.915	0.0000000E+000	0.0000000E+000	0.0000000E+000	-32.085	0.0000000E+000	0.0000000E+000	0.0000000E+000	32.085	1.59506	57.915	-1.99907e-06	-3.27721e-06	24020.1
316.316	3.98822	2.71948	4.82716	-34.2892	10.1419	0.280575	-0.0114032	185.018	58.7222	1	10	0.00517116	0.00107126	0	-4.26008e-05	0.171158	0.116709	0.207161	34.2892	58722.2	86118.2	104234	-55.7108	0.0000000E+000	0.0000000E+000	0.0000000E+000	55.7108	0.0000000E+000	0.0000000E+000	0.0000000E+000	-55.7108	0.0000000E+000	0.0000000E+000	0.0000000E+000	-34.2892	0.0000000E+000	0.0000000E+000	0.0000000E+000	34.2892	1.46654	55.7108	-1.51741e-06	-3.19946e-06	24605
215.345	4.58118	3.34248	5.67093	-36.1149	10.6095	0.280564	-0.0118761	221.115	76.8152	1	10	0.00510708	0.000900572	0	-4.33867e-05	0.142452	0.103935	0.176338	36.1149	76815.1	105282	130326	-53.8851	0.0000000E+000	0.0000000E+000	0.0000000E+000	53.8851	0.0000000E+000	0.0000000E+000	0.0000000E+000	-53.8851	0.0000000E+000	0.0000000E+000	0.0000000E+000	-36.1149	0.0000000E+000	0.0000000E+000	0.0000000E+000	36.1149	1.37059	53.8851	-7.85969e-07	-3.332e-06	23624.3
146.737	5.35511	4.08622	6.73605	-37.3455	11.0724	0.280561	-0.0113511	265.435	97.6765	1	10	0.00506163	0.000751424	0	-4.4879e-05	0.11802	0.0900556	0.148455	37.3455	97676.5	128008	161018	-52.6545	0.0000000E+000	0.0000000E+000	0.0000000E+000	52.6545	0.0000000E+000	0.0000000E+000	0.0000000E+000	-52.6545	0.0000000E+000	0.0000000E+000	0.0000000E+000	-37.3455	0.0000000E+000	0.0000000E+000	0.0000000E+000	37.3455	1.31053	52.6545	-1.49223e-06	-3.18468e-06	24716.7
100.032	6.37724	4.94673	8.0709	-37.8002	11.5407	0.280572	-0.0114051	321.635	120.825	1	10	0.00503575	0.000623939	0	-4.65386e-05	0.0979015	0.0759407	0.123902	37.8002	120825	155765	197133	-52.1998	0.0000000E+000	0.0000000E+000	0.0000000E+000	52.1998	0.0000000E+000	0.0000000E+000	0.0000000E+000	-52.1998	0.0000000E+000	0.0000000E+000	0.0000000E+000	-37.8002	0.0000000E+000	0.0000000E+000	0.0000000E+000	37.8002	1.28918	52.1998	-1.65963e-06	-3.19995e-06	24600.6
68.104	7.73557	5.87244	9.71209	-37.2039	12.0193	0.280565	-0.0113716	397.95	145.493	1	10	0.00502344	0.000517236	0	-4.80995e-05	0.0820101	0.0622578	0.102964	37.2039	145493	191653	240622	-52.7961	0.0000000E+000	0.0000000E+000	0.0000000E+000	52.7961	0.0000000E+000	0.0000000E+000	0.0000000E+000	-52.7961	0.0000000E+000	0.0000000E+000	0.0000000E+000	-37.2039	0.0000000E+000	0.0000000E+000	0.0000000E+000	37.2039	1.31727	52.7961	-1.5609e-06	-3.19047e-06	24672.5
46.4415	9.43431	6.71217	11.5784	-35.4305	12.4746	0.280564	-0.0115782	510.564	171.585	1	10	0.00501542	0.00043317	0	-4.93572e-05	0.0703741	0.0500686	0.0863677	35.4305	171585	241172	295982	-54.5695	0.0000000E+000	0.0000000E+000	0.0000000E+000	54.5695	0.0000000E+000	0.0000000E+000	0.0000000E+000	-54.5695	0.0000000E+000	0.0000000E+000	0.0000000E+000	-35.4305	0.0000000E+000	0.0000000E+000	0.0000000E+000	35.4305	1.40555	54.5695	-1.25774e-06	-3.24844e-06	24232
31.6296	11.4995	7.35846	13.6523	-32.6149	12.9214	0.280563	-0.012187	683.818	198.656	1	10	0.00500839	0.000366853	0	-5.08941e-05	0.0616974	0.0394798	0.0732477	32.6149	198656	310452	368571	-57.3851	0.0000000E+000	0.0000000E+000	0.0000000E+000	57.3851	0.0000000E+000	0.0000000E+000	0.0000000E+000	-57.3851	0.0000000E+000	0.0000000E+000	0.0000000E+000	-32.6149	0.0000000E+000	0.0000000E+000	0.0000000E+000	32.6149	1.56276	57.3851	-1.53687e-06	-3.41922e-06	23021.4
21.5517	13.7073	7.66546	15.7051	-29.215	13.6013	0.280557	-0.00917492	963.385	229.507	1	11	0.00500681	0.000318802	0	-5.2621e-05	0.055574	0.0310784	0.0636737	29.215	229507	410403	470217	-60.785	0.0000000E+000	0.0000000E+000	0.0000000E+000	60.785	0.0000000E+000	0.0000000E+000	0.0000000E+000	-60.785	0.0000000E+000	0.0000000E+000	0.0000000E+000	-29.215	0.0000000E+000	0.0000000E+000	0.0000000E+000	29.215	1.78819	60.785	-1.72687e-06	-2.57409e-06	30578.7
14.6852	15.9205	7.67194	17.6726	-25.729	14.079	0.280563	-0.00864716	1412.66	266.224	1	11	0.0050057	0.000283247	0	-5.33919e-05	0.0509749	0.0245644	0.0565849	25.729	266224	552456	613256	-64.271	0.0000000E+000	0.0000000E+000	0.0000000E+000	64.271	0.0000000E+000	0.0000000E+000	0.0000000E+000	-64.271	0.0000000E+000	0.0000000E+000	0.0000000E+000	-25.729	0.0000000E+000	0.0000000E+000	0.0000000E+000	25.729	2.07516	64.271	-7.70966e-07	-2.42607e-06	32445.6
10.0032	18.0093	7.42902	19.4814	-22.4166	14.5477	0.280572	-0.0086224	2141.65	311.437	1	11	0.0050031	0.000256813	0	-5.41672e-05	0.0474521	0.0195745	0.0513309	22.4166	311437	754982	816695	-67.5834	0.0000000E+000	0.0000000E+000	0.0000000E+000	67.5834	0.0000000E+000	0.0000000E+000	0.0000000E+000	-67.5834	0.0000000E+000	0.0000000E+000	0.0000000E+000	-22.4166	0.0000000E+000	0.0000000E+000	0.0000000E+000	22.4166	2.42419	67.5834	-7.7525e-07	-2.4192e-06	32539.9
6.81719	19.9423	7.04194	21.1491	-19.4489	14.9054	0.280546	-0.0093635	3315.29	367.556	1	11	0.00499353	0.00023611	0	-5.68218e-05	0.0445853	0.0157438	0.0472833	19.4489	367556	1.04089e+06	1.10388e+06	-70.5511	0.0000000E+000	0.0000000E+000	0.0000000E+000	70.5511	0.0000000E+000	0.0000000E+000	0.0000000E+000	-70.5511	0.0000000E+000	0.0000000E+000	0.0000000E+000	-19.4489	0.0000000E+000	0.0000000E+000	0.0000000E+000	19.4489	2.83193	70.5511	-2.65462e-06	-2.62689e-06	29961.6
4.63925	21.7246	6.56013	22.6935	-16.8026	15.4073	0.280562	-0.00879944	5229.49	437	1	11	0.00500246	0.000220436	0	-5.77927e-05	0.0421842	0.0127382	0.0440655	16.8026	437000	1.44718e+06	1.51172e+06	-73.1974	0.0000000E+000	0.0000000E+000	0.0000000E+000	73.1974	0.0000000E+000	0.0000000E+000	0.0000000E+000	-73.1974	0.0000000E+000	0.0000000E+000	0.0000000E+000	-16.8026	0.0000000E+000	0.0000000E+000	0.0000000E+000	16.8026	3.31161	73.1974	-9.70888e-07	-2.46879e-06	31884.1
3.1604	23.2401	6.13924	24.0373	-14.7976	16.1163	0.280558	-0.0083938	8202.84	535.084	1	11	0.00500464	0.000208203	0	-5.59286e-05	0.0402223	0.0106253	0.041602	14.7976	535084	2.02556e+06	2.09504e+06	-75.2024	0.0000000E+000	0.0000000E+000	0.0000000E+000	75.2024	0.0000000E+000	0.0000000E+000	0.0000000E+000	-75.2024	0.0000000E+000	0.0000000E+000	0.0000000E+000	-14.7976	0.0000000E+000	0.0000000E+000	0.0000000E+000	14.7976	3.7855	75.2024	1.86415e-06	-2.35495e-06	33424.4
2.15577	24.7354	5.74423	25.3936	-13.0739	17.1327	0.280574	-0.00703706	12852.5	657.657	1	11	0.00500616	0.000197142	0	-5.82432e-05	0.0383592	0.00890802	0.0393799	13.0739	657657	2.83196e+06	2.90732e+06	-76.9261	0.0000000E+000	0.0000000E+000	0.0000000E+000	76.9261	0.0000000E+000	0.0000000E+000	0.0000000E+000	-76.9261	0.0000000E+000	0.0000000E+000	0.0000000E+000	-13.0739	0.0000000E+000	0.0000000E+000	0.0000000E+000	13.0739	4.30614	76.9261	-2.31467e-06	-1.97441e-06	39870.9
1.46631	26.0197	5.32369	26.5588	-11.5632	18.6061	0.280577	-0.00655754	20388.3	819.201	1	11	0.00500758	0.000188547	0	-6.57326e-05	0.0368881	0.00754738	0.0376523	11.5632	819201	4.00388e+06	4.08683e+06	-78.4368	0.0000000E+000	0.0000000E+000	0.0000000E+000	78.4368	0.0000000E+000	0.0000000E+000	0.0000000E+000	-78.4368	0.0000000E+000	0.0000000E+000	0.0000000E+000	-11.5632	0.0000000E+000	0.0000000E+000	0.0000000E+000	11.5632	4.88754	78.4368	-7.48939e-06	-1.8399e-06	42787
1.00006	27.2428	4.93501	27.6861	-10.2677	21.7952	0.280574	-0.006089	32248.1	1024.6	1	12	0.00500686	0.000180844	0	-7.68406e-05	0.0355407	0.00643818	0.0361192	10.2677	1.0246e+06	5.65612e+06	5.74818e+06	-79.7323	0.0000000E+000	0.0000000E+000	0.0000000E+000	79.7323	0.0000000E+000	0.0000000E+000	0.0000000E+000	-79.7323	0.0000000E+000	0.0000000E+000	0.0000000E+000	-10.2677	0.0000000E+000	0.0000000E+000	0.0000000E+000	10.2677	5.52031	79.7323	-1.1108e-05	-1.70841e-06	46078.8
0.681362	28.3963	4.57334	28.7623	-9.14914	24.9151	0.280578	-0.00620266	51075	1291.31	1	12	0.00501101	0.000174222	0	-8.18368e-05	0.0343255	0.00552825	0.0347678	9.14914	1.29131e+06	8.01786e+06	8.12118e+06	-80.8509	0.0000000E+000	0.0000000E+000	0.0000000E+000	80.8509	0.0000000E+000	0.0000000E+000	0.0000000E+000	-80.8509	0.0000000E+000	0.0000000E+000	0.0000000E+000	-9.14914	0.0000000E+000	0.0000000E+000	0.0000000E+000	9.14914	6.2091	80.8509	-4.9962e-06	-1.74033e-06	45235.1
0.464091	29.3353	4.29061	29.6474	-8.32115	29.4798	0.280573	-0.00623633	79927.9	1674.03	1	12	0.00501014	0.000168991	0	-8.11257e-05	0.0333747	0.00488143	0.0337298	8.32115	1.67403e+06	1.14455e+07	1.15673e+07	-81.6788	0.0000000E+000	0.0000000E+000	0.0000000E+000	81.6788	0.0000000E+000	0.0000000E+000	0.0000000E+000	-81.6788	0.0000000E+000	0.0000000E+000	0.0000000E+000	-8.32115	0.0000000E+000	0.0000000E+000	0.0000000E+000	8.32115	6.83708	81.6788	7.11139e-07	-1.74974e-06	44990.1
0.316193	30.1791	4.0368	30.4479	-7.61874	36.1621	0.280573	-0.00575865	124690	2191.75	1	12	0.00500767	0.000164467	0	-7.63487e-05	0.0325531	0.00435434	0.032843	7.61874	2.19175e+06	1.63855e+07	1.65314e+07	-82.3813	0.0000000E+000	0.0000000E+000	0.0000000E+000	82.3813	0.0000000E+000	0.0000000E+000	0.0000000E+000	-82.3813	0.0000000E+000	0.0000000E+000	0.0000000E+000	-7.61874	0.0000000E+000	0.0000000E+000	0.0000000E+000	7.61874	7.476	82.3813	4.777e-06	-1.61572e-06	48721.9
0.215268	30.987	3.93217	31.2355	-7.23204	45.9599	0.280569	-0.00481374	188022	2979.73	1	12	0.00500791	0.000160327	0	-7.38773e-05	0.0317602	0.00403029	0.0320149	7.23204	2.97973e+06	2.34814e+07	2.36697e+07	-82.768	0.0000000E+000	0.0000000E+000	0.0000000E+000	82.768	0.0000000E+000	0.0000000E+000	0.0000000E+000	-82.768	0.0000000E+000	0.0000000E+000	0.0000000E+000	-7.23204	0.0000000E+000	0.0000000E+000	0.0000000E+000	7.23204	7.88037	82.768	2.47131e-06	-1.35059e-06	58285
0.146929	31.7609	4.04695	32.0177	-7.26145	60.2972	0.280575	-0.003466	267661	4276.23	1	12	0.0050093	0.000156454	0	-8.39846e-05	0.0309822	0.00394773	0.0312327	7.26145	4.27623e+06	3.35603e+07	3.38316e+07	-82.7385	0.0000000E+000	0.0000000E+000	0.0000000E+000	82.7385	0.0000000E+000	0.0000000E+000	0.0000000E+000	-82.7385	0.0000000E+000	0.0000000E+000	0.0000000E+000	-7.26145	0.0000000E+000	0.0000000E+000	0.0000000E+000	7.26145	7.84811	82.7385	-1.01073e-05	-9.72476e-07	80950.6
0.0999041	32.4847	4.39059	32.7801	-7.69738	81.3671	0.280575	-0.00249762	362839	6509.38	1	12	0.00500576	0.000152707	0	-0.000120611	0.0302314	0.00408604	0.0305063	7.69738	6.50938e+06	4.8161e+07	4.85989e+07	-82.3026	0.0000000E+000	0.0000000E+000	0.0000000E+000	82.3026	0.0000000E+000	0.0000000E+000	0.0000000E+000	-82.3026	0.0000000E+000	0.0000000E+000	0.0000000E+000	-7.69738	0.0000000E+000	0.0000000E+000	0.0000000E+000	7.69738	7.39871	82.3026	-3.66268e-05	-7.00771e-07	112337
0.0680626	33.2481	4.96228	33.6164	-8.48875	112.279	0.280573	-0.00180486	471227	10268.1	1	12	0.00500827	0.000148983	0	-0.000190411	0.0294215	0.00439117	0.0297474	8.48875	1.02681e+07	6.87981e+07	6.95602e+07	-81.5113	0.0000000E+000	0.0000000E+000	0.0000000E+000	81.5113	0.0000000E+000	0.0000000E+000	0.0000000E+000	-81.5113	0.0000000E+000	0.0000000E+000	0.0000000E+000	-8.48875	0.0000000E+000	0.0000000E+000	0.0000000E+000	8.48875	6.70016	81.5113	-6.98e-05	-5.06395e-07	155454
0.0464052	34.15	5.71301	34.6246	-9.49716	157.603	0.280576	-0.00188893	600328	16343.7	1	12	0.00500805	0.000144639	0	-0.000301894	0.0284854	0.00476537	0.0288812	9.49716	1.63437e+07	9.76957e+07	9.90533e+07	-80.5028	0.0000000E+000	0.0000000E+000	0.0000000E+000	80.5028	0.0000000E+000	0.0000000E+000	0.0000000E+000	-80.5028	0.0000000E+000	0.0000000E+000	0.0000000E+000	-9.49716	0.0000000E+000	0.0000000E+000	0.0000000E+000	9.49716	5.97758	80.5028	-0.000111483	-5.2999e-07	148537
0.0315922	35.3482	6.92389	36.0199	-11.0826	224.165	0.280574	-0.00227806	727596	26884.7	1	12	0.00500882	0.000139057	0	-0.000423716	0.0272447	0.0053366	0.0277624	11.0826	2.68846e+07	1.37253e+08	1.39861e+08	-78.9174	0.0000000E+000	0.0000000E+000	0.0000000E+000	78.9174	0.0000000E+000	0.0000000E+000	0.0000000E+000	-78.9174	0.0000000E+000	0.0000000E+000	0.0000000E+000	-11.0826	0.0000000E+000	0.0000000E+000	0.0000000E+000	11.0826	5.10525	78.9174	-0.000121822	-6.39165e-07	123163
0.0215268	36.6901	8.68023	37.703	-13.3104	321.833	0.280572	-0.00246971	851746	45146.2	1	12	0.00500847	0.00013284	0	-0.000492283	0.0258106	0.00610633	0.0265231	13.3104	4.51462e+07	1.90827e+08	1.96095e+08	-76.6896	0.0000000E+000	0.0000000E+000	0.0000000E+000	76.6896	0.0000000E+000	0.0000000E+000	0.0000000E+000	-76.6896	0.0000000E+000	0.0000000E+000	0.0000000E+000	-13.3104	0.0000000E+000	0.0000000E+000	0.0000000E+000	13.3104	4.22687	76.6896	-6.85664e-05	-6.92932e-07	113605
0.0146812	38.1532	10.815	39.6565	-15.8261	465.029	0.280574	-0.00218328	1.00238e+06	74552.1	1	12	0.00500855	0.000126298	0	-0.000430594	0.0242607	0.00687703	0.0252166	15.8261	7.45521e+07	2.63004e+08	2.73367e+08	-74.1739	0.0000000E+000	0.0000000E+000	0.0000000E+000	74.1739	0.0000000E+000	0.0000000E+000	0.0000000E+000	-74.1739	0.0000000E+000	0.0000000E+000	0.0000000E+000	-15.8261	0.0000000E+000	0.0000000E+000	0.0000000E+000	15.8261	3.52779	74.1739	6.16883e-05	-6.1257e-07	128511
0.0100092	39.9418	13.2599	42.0853	-18.3651	675.05	0.280571	-0.00150069	1.19917e+06	119042	1	12	0.00500967	0.000119036	0	-0.000195125	0.022551	0.0074865	0.0237613	18.3651	1.19042e+08	3.58582e+08	3.77826e+08	-71.6349	0.0000000E+000	0.0000000E+000	0.0000000E+000	71.6349	0.0000000E+000	0.0000000E+000	0.0000000E+000	-71.6349	0.0000000E+000	0.0000000E+000	0.0000000E+000	-18.3651	0.0000000E+000	0.0000000E+000	0.0000000E+000	18.3651	3.01223	71.6349	0.00023547	-4.21049e-07	186962