File: txt/17692_R287_UA658_SOC00_C07.mpt
EC-Lab ASCII FILE
Nb header lines : 63

Potentio Electrochemical Impedance Spectroscopy

Run on channel : 7 (SN 66126)
User :
CE vs. WE compliance from -10 V to 10 V
Electrode connection : standard
Potential control : Ewe
Ewe ctrl range : min = -10.00 V, max = 10.00 V
Safety Limits :
	Do not start on E overload
Acquisition started on : 09/22/2025 08:45:32.408
Loaded Setting File :  C:\Users\Celltest\OneDrive - store-dot.com\Documents\EC-Lab\Data\Charmaine\17689_R288_UA670_SOC00_C04.mpr
Saved on :
	File : 17692_R287_UA658_SOC00_C07.mpr
	Directory : C:\Users\Celltest\OneDrive - store-dot.com\Documents\EC-Lab\Data\Charmaine\
	Host : 169.254.61.224
Device : VMP-3e (SN .003165)
Address : USB
EC-LAB for windows v11.62 (software)
Internet server v27.00 (firmware)
Command interpretor v12.03 (firmware)
Electrode material :
Initial state :
Electrolyte :
Comments :
Electrode surface area : 0.001 cm²
Characteristic mass : 0.001 g
Equivalent Weight : 0.000 g/eq.
Density : 0.000 g/cm3
Volume (V) : 0.001 cm³
Cycle Definition : Charge/Discharge alternance
Mode                Single sine
E (V)               0.0000
vs.                 Eoc
tE (h:m:s)          0:00:0.0000
record              0
dI                  0.000
unit dI             mA
dt (s)              0.000
fi                  100.000
unit fi             kHz
ff                  10.000
unit ff             mHz
Nd                  6
Points              per decade
spacing             Logarithmic
Va (mV)             5.0
pw                  0.10
Na                  2
corr                0
E range min (V)     -10.000
E range max (V)     10.000
I Range             Auto
Bandwidth           5
nc cycles           0
goto Ns'            0
nr cycles           0
inc. cycle          0

freq/Hz	Re(Z)/Ohm	-Im(Z)/Ohm	|Z|/Ohm	Phase(Z)/deg	time/s	<Ewe>/V	<I>/mA	Cs/µF	Cp/µF	cycle number	I Range	|Ewe|/V	|I|/A	Ns	(Q-Qo)/mA.h	Re(Y)/Ohm-1	Im(Y)/Ohm-1	|Y|/Ohm-1	Phase(Y)/deg	Re(C)/nF	Im(C)/nF	|C|/nF	Phase(C)/deg	Re(M)	Im(M)	|M|	Phase(M)/deg	Re(Permittivity)	Im(Permittivity)	|Permittivity|	Phase(Permittivity)/deg	Re(Resistivity)/Ohm.cm	Im(Resistivity)/Ohm.cm	|Resistivity|/Ohm.cm	Phase(Resistivity)/deg	Re(Conductivity)/mS/cm	Im(Conductivity)/mS/cm	|Conductivity|/mS/cm	Phase(Conductivity)/deg	Tan(Delta)	Loss Angle(Delta)/deg	dq/mA.h	Pwe/W	Rwe/Ohm
100004	0.904463	0.176278	0.921481	-11.0286	1.86447	0.276126	0.0550237	9.02829	0.330392	1	9	0.00494918	0.0053709	0	4.94231e-06	1.06517	0.207599	1.08521	11.0286	330.392	1695.2	1727.1	-78.9714	0.0000000E+000	0.0000000E+000	0.0000000E+000	78.9714	0.0000000E+000	0.0000000E+000	0.0000000E+000	-78.9714	0.0000000E+000	0.0000000E+000	0.0000000E+000	-11.0286	0.0000000E+000	0.0000000E+000	0.0000000E+000	11.0286	5.13088	78.9714	4.94231e-06	1.51935e-05	5018.32
68132	0.945789	0.192281	0.965136	-11.4917	2.30148	0.276148	0.0547631	12.1488	0.4822	1	9	0.00539703	0.00559198	0	2.05796e-05	1.01535	0.206423	1.03612	11.4917	482.2	2371.84	2420.36	-78.5083	0.0000000E+000	0.0000000E+000	0.0000000E+000	78.5083	0.0000000E+000	0.0000000E+000	0.0000000E+000	-78.5083	0.0000000E+000	0.0000000E+000	0.0000000E+000	-11.4917	0.0000000E+000	0.0000000E+000	0.0000000E+000	11.4917	4.91879	78.5083	1.56372e-05	1.51227e-05	5042.59
46420.4	0.99191	0.212748	1.01447	-12.1055	2.73848	0.276151	0.0545397	16.1156	0.708759	1	9	0.00546287	0.00538496	0	2.77768e-05	0.963818	0.206722	0.985737	12.1055	708.759	3304.51	3379.66	-77.8945	0.0000000E+000	0.0000000E+000	0.0000000E+000	77.8945	0.0000000E+000	0.0000000E+000	0.0000000E+000	-77.8945	0.0000000E+000	0.0000000E+000	0.0000000E+000	-12.1055	0.0000000E+000	0.0000000E+000	0.0000000E+000	12.1055	4.66238	77.8945	7.19721e-06	1.50612e-05	5063.31
31621.1	1.04097	0.240019	1.06828	-12.984	3.31648	0.276166	0.0613166	20.9699	1.05857	1	9	0.0050706	0.00474652	0	2.926e-05	0.912153	0.210318	0.936086	12.984	1058.57	4591.03	4711.49	-77.016	0.0000000E+000	0.0000000E+000	0.0000000E+000	77.016	0.0000000E+000	0.0000000E+000	0.0000000E+000	-77.016	0.0000000E+000	0.0000000E+000	0.0000000E+000	-12.984	0.0000000E+000	0.0000000E+000	0.0000000E+000	12.984	4.33701	77.016	1.48321e-06	1.69336e-05	4503.94
21544.7	1.09694	0.271829	1.13012	-13.9179	3.8945	0.276164	0.0588776	27.1759	1.57227	1	9	0.00506631	0.00448299	0	3.15032e-05	0.858884	0.212837	0.884863	13.9179	1572.27	6344.75	6536.66	-76.0821	0.0000000E+000	0.0000000E+000	0.0000000E+000	76.0821	0.0000000E+000	0.0000000E+000	0.0000000E+000	-76.0821	0.0000000E+000	0.0000000E+000	0.0000000E+000	-13.9179	0.0000000E+000	0.0000000E+000	0.0000000E+000	13.9179	4.0354	76.0821	2.24323e-06	1.62599e-05	4690.48
14678.6	1.15615	0.307613	1.19637	-14.8993	4.1905	0.276158	0.0588404	35.2477	2.33028	1	9	0.00533443	0.00445884	0	3.89053e-05	0.807758	0.214918	0.83586	14.8993	2330.28	8758.24	9062.94	-75.1007	0.0000000E+000	0.0000000E+000	0.0000000E+000	75.1007	0.0000000E+000	0.0000000E+000	0.0000000E+000	-75.1007	0.0000000E+000	0.0000000E+000	0.0000000E+000	-14.8993	0.0000000E+000	0.0000000E+000	0.0000000E+000	14.8993	3.75845	75.1007	7.40211e-06	1.62492e-05	4693.34
10002.2	1.22683	0.350411	1.27589	-15.9405	4.48649	0.27616	0.0575929	45.4094	3.42509	1	9	0.00471881	0.00369843	0	4.22489e-05	0.753626	0.215252	0.783764	15.9405	3425.09	11991.7	12471.2	-74.0595	0.0000000E+000	0.0000000E+000	0.0000000E+000	74.0595	0.0000000E+000	0.0000000E+000	0.0000000E+000	-74.0595	0.0000000E+000	0.0000000E+000	0.0000000E+000	-15.9405	0.0000000E+000	0.0000000E+000	0.0000000E+000	15.9405	3.50113	74.0595	3.34356e-06	1.59048e-05	4795.03
6811.07	1.30815	0.400408	1.36806	-17.0186	5.04151	0.276038	-0.0519742	58.3583	4.99915	1	9	0.0049361	0.0036081	0	3.9284e-05	0.698952	0.21394	0.730961	17.0186	4999.15	16332.5	17080.5	-72.9814	0.0000000E+000	0.0000000E+000	0.0000000E+000	72.9814	0.0000000E+000	0.0000000E+000	0.0000000E+000	-72.9814	0.0000000E+000	0.0000000E+000	0.0000000E+000	-17.0186	0.0000000E+000	0.0000000E+000	0.0000000E+000	17.0186	3.26705	72.9814	-2.96487e-06	-1.43469e-05	5311.05
4641.49	1.39774	0.462021	1.47212	-18.2912	5.51271	0.276073	0.0178806	74.2167	7.31032	1	9	0.00472057	0.00320664	0	4.0164e-05	0.644969	0.213193	0.679291	18.2912	7310.32	22115.8	23292.7	-71.7088	0.0000000E+000	0.0000000E+000	0.0000000E+000	71.7088	0.0000000E+000	0.0000000E+000	0.0000000E+000	-71.7088	0.0000000E+000	0.0000000E+000	0.0000000E+000	-18.2912	0.0000000E+000	0.0000000E+000	0.0000000E+000	18.2912	3.02528	71.7088	8.79997e-07	4.93635e-06	15439.7
3161.01	1.50315	0.529396	1.59365	-19.4018	5.97967	0.276071	0.0153858	95.1072	10.4952	1	9	0.00462671	0.00290322	0	4.22724e-05	0.591858	0.208447	0.627492	19.4018	10495.2	29799.7	31593.8	-70.5982	0.0000000E+000	0.0000000E+000	0.0000000E+000	70.5982	0.0000000E+000	0.0000000E+000	0.0000000E+000	-70.5982	0.0000000E+000	0.0000000E+000	0.0000000E+000	-19.4018	0.0000000E+000	0.0000000E+000	0.0000000E+000	19.4018	2.83936	70.5982	2.10839e-06	4.24758e-06	17943.2
2155.69	1.61777	0.610712	1.72921	-20.6816	6.44671	0.276065	0.0160561	120.892	15.0791	1	9	0.00457245	0.00264424	0	4.52924e-05	0.541032	0.20424	0.578299	20.6816	15079.1	39944.5	42695.9	-69.3184	0.0000000E+000	0.0000000E+000	0.0000000E+000	69.3184	0.0000000E+000	0.0000000E+000	0.0000000E+000	-69.3184	0.0000000E+000	0.0000000E+000	0.0000000E+000	-20.6816	0.0000000E+000	0.0000000E+000	0.0000000E+000	20.6816	2.649	69.3184	3.02001e-06	4.43253e-06	17193.8
1468.59	1.74633	0.712384	1.88605	-22.1921	6.91396	0.276068	0.0146969	152.127	21.7035	1	9	0.00453775	0.00240596	0	4.56536e-05	0.490933	0.200267	0.53021	22.1921	21703.5	53203.7	57460.2	-67.8079	0.0000000E+000	0.0000000E+000	0.0000000E+000	67.8079	0.0000000E+000	0.0000000E+000	0.0000000E+000	-67.8079	0.0000000E+000	0.0000000E+000	0.0000000E+000	-22.1921	0.0000000E+000	0.0000000E+000	0.0000000E+000	22.1921	2.45139	67.8079	3.61237e-07	4.05736e-06	18784
1000.32	1.89368	0.831217	2.06808	-23.6987	7.3827	0.276064	0.0151996	191.411	30.9215	1	9	0.0045253	0.00218816	0	4.90036e-05	0.442764	0.194347	0.48354	23.6987	30921.5	70445.5	76933.1	-66.3013	0.0000000E+000	0.0000000E+000	0.0000000E+000	66.3013	0.0000000E+000	0.0000000E+000	0.0000000E+000	-66.3013	0.0000000E+000	0.0000000E+000	0.0000000E+000	-23.6987	0.0000000E+000	0.0000000E+000	0.0000000E+000	23.6987	2.27821	66.3013	3.35001e-06	4.19607e-06	18162.6
681.09	2.07564	0.995914	2.3022	-25.6322	8.07241	0.276062	0.0131703	234.636	43.9089	1	9	0.00500139	0.00217244	0	4.90061e-05	0.391621	0.187904	0.434368	25.6322	43908.9	91512.8	101502	-64.3678	0.0000000E+000	0.0000000E+000	0.0000000E+000	64.3678	0.0000000E+000	0.0000000E+000	0.0000000E+000	-64.3678	0.0000000E+000	0.0000000E+000	0.0000000E+000	-25.6322	0.0000000E+000	0.0000000E+000	0.0000000E+000	25.6322	2.08415	64.3678	2.46281e-09	3.63581e-06	20961
463.961	2.29017	1.19751	2.58436	-27.6047	8.54121	0.276072	0.0141942	286.457	61.5052	1	9	0.00499298	0.001932	0	5.15727e-05	0.342896	0.179297	0.386943	27.6047	61505.2	117625	132735	-62.3953	0.0000000E+000	0.0000000E+000	0.0000000E+000	62.3953	0.0000000E+000	0.0000000E+000	0.0000000E+000	-62.3953	0.0000000E+000	0.0000000E+000	0.0000000E+000	-27.6047	0.0000000E+000	0.0000000E+000	0.0000000E+000	27.6047	1.91244	62.3953	2.56664e-06	3.91863e-06	19449.6
316.316	2.57978	1.44743	2.9581	-29.2954	9.26094	0.276113	-0.0254983	347.617	83.2285	1	10	0.00503609	0.00170248	0	4.9818e-05	0.294821	0.165414	0.338055	29.2954	83228.5	148340	170093	-60.7046	0.0000000E+000	0.0000000E+000	0.0000000E+000	60.7046	0.0000000E+000	0.0000000E+000	0.0000000E+000	-60.7046	0.0000000E+000	0.0000000E+000	0.0000000E+000	-29.2954	0.0000000E+000	0.0000000E+000	0.0000000E+000	29.2954	1.78232	60.7046	-1.75475e-06	-7.04039e-06	10828.7
215.345	2.93328	1.72358	3.40219	-30.4382	9.72841	0.276116	-0.0252116	428.8	110.053	1	10	0.0050085	0.00147214	0	4.70533e-05	0.253418	0.148907	0.293928	30.4382	110053	187294	217234	-59.5618	0.0000000E+000	0.0000000E+000	0.0000000E+000	59.5618	0.0000000E+000	0.0000000E+000	0.0000000E+000	-59.5618	0.0000000E+000	0.0000000E+000	0.0000000E+000	-30.4382	0.0000000E+000	0.0000000E+000	0.0000000E+000	30.4382	1.70186	59.5618	-2.76466e-06	-6.96132e-06	10951.9
146.737	3.39215	2.02902	3.95267	-30.8858	10.1914	0.276102	-0.0259878	534.556	140.859	1	10	0.00500041	0.00126507	0	4.34073e-05	0.217117	0.129869	0.252993	30.8858	140859	235490	274403	-59.1142	0.0000000E+000	0.0000000E+000	0.0000000E+000	59.1142	0.0000000E+000	0.0000000E+000	0.0000000E+000	-59.1142	0.0000000E+000	0.0000000E+000	0.0000000E+000	-30.8858	0.0000000E+000	0.0000000E+000	0.0000000E+000	30.8858	1.67182	59.1142	-3.64605e-06	-7.17528e-06	10624.3
100.032	3.96922	2.32936	4.60224	-30.4069	10.6597	0.276114	-0.0246997	683.037	174.977	1	10	0.00499456	0.00108525	0	3.96546e-05	0.187399	0.109976	0.217286	30.4069	174977	298159	345710	-59.5931	0.0000000E+000	0.0000000E+000	0.0000000E+000	59.5931	0.0000000E+000	0.0000000E+000	0.0000000E+000	-59.5931	0.0000000E+000	0.0000000E+000	0.0000000E+000	-30.4069	0.0000000E+000	0.0000000E+000	0.0000000E+000	30.4069	1.70399	59.5931	-3.75266e-06	-6.81994e-06	11178.8
68.104	4.65825	2.57508	5.32262	-28.9338	11.1383	0.276117	-0.0219821	907.521	212.416	1	10	0.00498432	0.000936442	0	3.64236e-05	0.164426	0.090895	0.187877	28.9338	212416	384254	439058	-61.0662	0.0000000E+000	0.0000000E+000	0.0000000E+000	61.0662	0.0000000E+000	0.0000000E+000	0.0000000E+000	-61.0662	0.0000000E+000	0.0000000E+000	0.0000000E+000	-28.9338	0.0000000E+000	0.0000000E+000	0.0000000E+000	28.9338	1.80897	61.0662	-3.23104e-06	-6.06965e-06	12561
46.4415	5.43827	2.70553	6.0741	-26.4503	11.5936	0.276103	-0.0274862	1266.66	251.306	1	10	0.00497674	0.000819338	0	3.25733e-05	0.1474	0.0733312	0.164634	26.4503	251306	505139	564198	-63.5497	0.0000000E+000	0.0000000E+000	0.0000000E+000	63.5497	0.0000000E+000	0.0000000E+000	0.0000000E+000	-63.5497	0.0000000E+000	0.0000000E+000	0.0000000E+000	-26.4503	0.0000000E+000	0.0000000E+000	0.0000000E+000	26.4503	2.01006	63.5497	-3.8503e-06	-7.58904e-06	10045.1
31.6296	6.25651	2.71269	6.81928	-23.4405	12.0404	0.276099	-0.0287836	1854.93	293.528	1	10	0.00498278	0.00073069	0	2.96204e-05	0.134541	0.058334	0.146643	23.4405	293528	676990	737884	-66.5595	0.0000000E+000	0.0000000E+000	0.0000000E+000	66.5595	0.0000000E+000	0.0000000E+000	0.0000000E+000	-66.5595	0.0000000E+000	0.0000000E+000	0.0000000E+000	-23.4405	0.0000000E+000	0.0000000E+000	0.0000000E+000	23.4405	2.30639	66.5595	-2.95294e-06	-7.94713e-06	9592.23
21.5517	6.99938	2.60656	7.46896	-20.4252	12.4793	0.276098	-0.0291056	2833.16	345.052	1	10	0.00497497	0.000666086	0	2.45786e-05	0.12547	0.0467247	0.133887	20.4252	345052	926567	988730	-69.5748	0.0000000E+000	0.0000000E+000	0.0000000E+000	69.5748	0.0000000E+000	0.0000000E+000	0.0000000E+000	-69.5748	0.0000000E+000	0.0000000E+000	0.0000000E+000	-20.4252	0.0000000E+000	0.0000000E+000	0.0000000E+000	20.4252	2.6853	69.5748	-5.04175e-06	-8.03601e-06	9486.07
14.6852	7.69765	2.43998	8.07511	-17.5874	12.957	0.276112	-0.0209323	4441.76	405.538	1	10	0.00497952	0.000616651	0	2.14121e-05	0.118049	0.0374188	0.123837	17.5874	405538	1.27939e+06	1.34213e+06	-72.4126	0.0000000E+000	0.0000000E+000	0.0000000E+000	72.4126	0.0000000E+000	0.0000000E+000	0.0000000E+000	-72.4126	0.0000000E+000	0.0000000E+000	0.0000000E+000	-17.5874	0.0000000E+000	0.0000000E+000	0.0000000E+000	17.5874	3.1548	72.4126	-3.16653e-06	-5.77968e-06	13190.7
10.0032	8.31241	2.22853	8.60596	-15.0079	13.4257	0.276109	-0.0238007	7139.42	478.741	1	10	0.0049794	0.0005786	0	1.88723e-05	0.112235	0.0300898	0.116199	15.0079	478741	1.7857e+06	1.84877e+06	-74.9921	0.0000000E+000	0.0000000E+000	0.0000000E+000	74.9921	0.0000000E+000	0.0000000E+000	0.0000000E+000	-74.9921	0.0000000E+000	0.0000000E+000	0.0000000E+000	-15.0079	0.0000000E+000	0.0000000E+000	0.0000000E+000	15.0079	3.73	74.9921	-2.53978e-06	-6.57159e-06	11600.9
6.81719	8.85177	2.01209	9.07757	-12.8063	13.7834	0.276111	-0.0264234	11602.9	570.063	1	10	0.00497588	0.000548151	0	1.95556e-05	0.107421	0.0244179	0.110162	12.8063	570063	2.50787e+06	2.57185e+06	-77.1937	0.0000000E+000	0.0000000E+000	0.0000000E+000	77.1937	0.0000000E+000	0.0000000E+000	0.0000000E+000	-77.1937	0.0000000E+000	0.0000000E+000	0.0000000E+000	-12.8063	0.0000000E+000	0.0000000E+000	0.0000000E+000	12.8063	4.39929	77.1937	6.8327e-07	-7.29579e-06	10449.5
4.63925	9.3255	1.80916	9.49937	-10.9791	14.5563	0.27613	-0.0142375	18962.4	687.797	1	11	0.00497528	0.000523748	0	1.35485e-05	0.103343	0.0200488	0.10527	10.9791	687797	3.54531e+06	3.61141e+06	-79.0209	0.0000000E+000	0.0000000E+000	0.0000000E+000	79.0209	0.0000000E+000	0.0000000E+000	0.0000000E+000	-79.0209	0.0000000E+000	0.0000000E+000	0.0000000E+000	-10.9791	0.0000000E+000	0.0000000E+000	0.0000000E+000	10.9791	5.15459	79.0209	-6.00711e-06	-3.93141e-06	19394.5
3.1604	9.7444	1.59711	9.87442	-9.30803	15.2653	0.276135	-0.0141491	31531.4	824.879	1	11	0.00498128	0.000504463	0	1.22156e-05	0.0999383	0.0163799	0.101272	9.30803	824879	5.03281e+06	5.09996e+06	-80.692	0.0000000E+000	0.0000000E+000	0.0000000E+000	80.692	0.0000000E+000	0.0000000E+000	0.0000000E+000	-80.692	0.0000000E+000	0.0000000E+000	0.0000000E+000	-9.30803	0.0000000E+000	0.0000000E+000	0.0000000E+000	9.30803	6.10127	80.692	-1.33287e-06	-3.90707e-06	19516.1
2.15577	10.0524	1.40322	10.1498	-7.94663	16.2808	0.276146	-0.0130325	52612.9	1005.6	1	11	0.00498075	0.000490722	0	1.8828e-05	0.0975776	0.013621	0.0985237	7.94663	1.0056e+06	7.20391e+06	7.27376e+06	-82.0534	0.0000000E+000	0.0000000E+000	0.0000000E+000	82.0534	0.0000000E+000	0.0000000E+000	0.0000000E+000	-82.0534	0.0000000E+000	0.0000000E+000	0.0000000E+000	-7.94663	0.0000000E+000	0.0000000E+000	0.0000000E+000	7.94663	7.16379	82.0534	6.61242e-06	-3.59886e-06	21189
1.46631	10.3367	1.24866	10.4119	-6.88788	17.754	0.276143	-0.0111364	86925.9	1250.21	1	11	0.0049829	0.000478579	0	2.04266e-05	0.095351	0.0115183	0.0960442	6.88788	1.25021e+06	1.03495e+07	1.04247e+07	-83.1121	0.0000000E+000	0.0000000E+000	0.0000000E+000	83.1121	0.0000000E+000	0.0000000E+000	0.0000000E+000	-83.1121	0.0000000E+000	0.0000000E+000	0.0000000E+000	-6.88788	0.0000000E+000	0.0000000E+000	0.0000000E+000	6.88788	8.27824	83.1121	1.5986e-06	-3.07525e-06	24796.3
1.00006	10.5582	1.16064	10.6218	-6.2732	19.8942	0.27615	-0.00891852	137118	1637.16	1	11	0.00498407	0.000469229	0	7.72374e-06	0.093582	0.0102872	0.0941457	6.2732	1.63716e+06	1.48931e+07	1.49828e+07	-83.7268	0.0000000E+000	0.0000000E+000	0.0000000E+000	83.7268	0.0000000E+000	0.0000000E+000	0.0000000E+000	-83.7268	0.0000000E+000	0.0000000E+000	0.0000000E+000	-6.2732	0.0000000E+000	0.0000000E+000	0.0000000E+000	6.2732	9.0969	83.7268	-1.27029e-05	-2.46285e-06	30963.6
0.681362	10.7497	1.12188	10.8081	-5.95804	23.0141	0.276149	-0.0071481	208207	2243.32	1	11	0.00498399	0.000461135	0	-1.89959e-05	0.0920236	0.00960393	0.0925234	5.95804	2.24332e+06	2.14952e+07	2.16119e+07	-84.042	0.0000000E+000	0.0000000E+000	0.0000000E+000	84.042	0.0000000E+000	0.0000000E+000	0.0000000E+000	-84.042	0.0000000E+000	0.0000000E+000	0.0000000E+000	-5.95804	0.0000000E+000	0.0000000E+000	0.0000000E+000	5.95804	9.58186	84.042	-2.67197e-05	-1.97394e-06	38632.4
0.464091	10.9363	1.13174	10.9947	-5.90824	27.5789	0.276147	-0.00777271	303019	3210.71	1	11	0.00498248	0.000453173	0	-5.6392e-05	0.0904701	0.00936233	0.0909533	5.90824	3.21071e+06	3.10258e+07	3.11915e+07	-84.0918	0.0000000E+000	0.0000000E+000	0.0000000E+000	84.0918	0.0000000E+000	0.0000000E+000	0.0000000E+000	-84.0918	0.0000000E+000	0.0000000E+000	0.0000000E+000	-5.90824	0.0000000E+000	0.0000000E+000	0.0000000E+000	5.90824	9.66321	84.0918	-3.73961e-05	-2.14641e-06	35527.8
0.316193	11.146	1.22784	11.2134	-6.28636	34.2612	0.276149	-0.00841386	409945	4915.13	1	11	0.00498232	0.000444319	0	-8.78847e-05	0.0886429	0.0097649	0.0891791	6.28636	4.91513e+06	4.46181e+07	4.4888e+07	-83.7136	0.0000000E+000	0.0000000E+000	0.0000000E+000	83.7136	0.0000000E+000	0.0000000E+000	0.0000000E+000	-83.7136	0.0000000E+000	0.0000000E+000	0.0000000E+000	-6.28636	0.0000000E+000	0.0000000E+000	0.0000000E+000	6.28636	9.0777	83.7136	-3.14928e-05	-2.32348e-06	32820.8
0.215268	11.359	1.43892	11.4498	-7.21959	44.059	0.276148	-0.00906588	513810	8114.9	1	11	0.00498477	0.000435358	0	-9.36422e-05	0.0866453	0.010976	0.0873378	7.21959	8.1149e+06	6.40599e+07	6.45718e+07	-82.7804	0.0000000E+000	0.0000000E+000	0.0000000E+000	82.7804	0.0000000E+000	0.0000000E+000	0.0000000E+000	-82.7804	0.0000000E+000	0.0000000E+000	0.0000000E+000	-7.21959	0.0000000E+000	0.0000000E+000	0.0000000E+000	7.21959	7.89411	82.7804	-5.75746e-06	-2.50353e-06	30460.2
0.146929	11.5839	1.71086	11.7096	-8.40141	58.3957	0.276159	-0.00756548	633139	13515.8	1	11	0.00498334	0.000425577	0	-5.36956e-05	0.0844835	0.0124776	0.0854	8.40141	1.35158e+07	9.15135e+07	9.25062e+07	-81.5986	0.0000000E+000	0.0000000E+000	0.0000000E+000	81.5986	0.0000000E+000	0.0000000E+000	0.0000000E+000	-81.5986	0.0000000E+000	0.0000000E+000	0.0000000E+000	-8.40141	0.0000000E+000	0.0000000E+000	0.0000000E+000	8.40141	6.77083	81.5986	3.99466e-05	-2.08927e-06	36502.5
0.0999041	11.8966	2.05726	12.0732	-9.81102	79.4646	0.276167	-0.00431063	774367	22484.4	1	11	0.00498121	0.000412584	0	3.44017e-05	0.0816167	0.0141138	0.082828	9.81102	2.24844e+07	1.30022e+08	1.31951e+08	-80.189	0.0000000E+000	0.0000000E+000	0.0000000E+000	80.189	0.0000000E+000	0.0000000E+000	0.0000000E+000	-80.189	0.0000000E+000	0.0000000E+000	0.0000000E+000	-9.81102	0.0000000E+000	0.0000000E+000	0.0000000E+000	9.81102	5.78275	80.189	8.80973e-05	-1.19046e-06	64066.6
0.0680626	12.3097	2.54497	12.57	-11.681	110.378	0.276165	-0.00181866	918816	37663.5	1	11	0.00497944	0.000396135	0	0.000136679	0.0779066	0.0161068	0.0795542	11.681	3.76635e+07	1.82174e+08	1.86026e+08	-78.319	0.0000000E+000	0.0000000E+000	0.0000000E+000	78.319	0.0000000E+000	0.0000000E+000	0.0000000E+000	-78.319	0.0000000E+000	0.0000000E+000	0.0000000E+000	-11.681	0.0000000E+000	0.0000000E+000	0.0000000E+000	11.681	4.83688	78.319	0.000102278	-5.02249e-07	151851
0.0464052	12.8065	3.22834	13.2071	-14.1487	155.701	0.276162	0.00151302	1.06237e+06	63476.9	1	11	0.0049867	0.000377576	0	0.000186037	0.0734198	0.0185081	0.0757167	14.1487	6.34769e+07	2.51806e+08	2.59684e+08	-75.8513	0.0000000E+000	0.0000000E+000	0.0000000E+000	75.8513	0.0000000E+000	0.0000000E+000	0.0000000E+000	-75.8513	0.0000000E+000	0.0000000E+000	0.0000000E+000	-14.1487	0.0000000E+000	0.0000000E+000	0.0000000E+000	14.1487	3.9669	75.8513	4.93572e-05	4.17838e-07	182524
0.0315922	13.2944	4.12387	13.9193	-17.2337	222.262	0.276175	0.00239682	1.22162e+06	107228	1	11	0.00498298	0.000357991	0	5.84153e-05	0.0686172	0.0212848	0.0718426	17.2337	1.07228e+08	3.45679e+08	3.61928e+08	-72.7663	0.0000000E+000	0.0000000E+000	0.0000000E+000	72.7663	0.0000000E+000	0.0000000E+000	0.0000000E+000	-72.7663	0.0000000E+000	0.0000000E+000	0.0000000E+000	-17.2337	0.0000000E+000	0.0000000E+000	0.0000000E+000	17.2337	3.22377	72.7663	-0.000127621	6.61941e-07	115226
0.0215268	13.8811	5.20346	14.8243	-20.549	319.932	0.27617	0.000935335	1.42085e+06	175058	1	11	0.00498336	0.000336161	0	-0.000340804	0.0631646	0.0236778	0.0674567	20.549	1.75058e+08	4.66998e+08	4.98731e+08	-69.451	0.0000000E+000	0.0000000E+000	0.0000000E+000	69.451	0.0000000E+000	0.0000000E+000	0.0000000E+000	-69.451	0.0000000E+000	0.0000000E+000	0.0000000E+000	-20.549	0.0000000E+000	0.0000000E+000	0.0000000E+000	20.549	2.66767	69.451	-0.00039922	2.58311e-07	295263
0.0146812	14.6829	6.73594	16.1542	-24.6439	531.37	0.276173	-0.000940416	1.60939e+06	279824	1	12	0.00498277	0.00030845	0	-0.000958003	0.056265	0.0258122	0.0619033	24.6439	2.79824e+08	6.09954e+08	6.71078e+08	-65.3561	0.0000000E+000	0.0000000E+000	0.0000000E+000	65.3561	0.0000000E+000	0.0000000E+000	0.0000000E+000	-65.3561	0.0000000E+000	0.0000000E+000	0.0000000E+000	-24.6439	0.0000000E+000	0.0000000E+000	0.0000000E+000	24.6439	2.17978	65.3561	-0.000617199	-2.59718e-07	293671
0.0100092	15.77	8.78375	18.0512	-29.1174	741.391	0.276178	-0.00175415	1.81027e+06	428635	1	12	0.00498188	0.000275985	0	-0.00142324	0.0483969	0.0269566	0.0553978	29.1174	4.28635e+08	7.69555e+08	8.80876e+08	-60.8826	0.0000000E+000	0.0000000E+000	0.0000000E+000	60.8826	0.0000000E+000	0.0000000E+000	0.0000000E+000	-60.8826	0.0000000E+000	0.0000000E+000	0.0000000E+000	-29.1174	0.0000000E+000	0.0000000E+000	0.0000000E+000	29.1174	1.79536	60.8826	-0.00046524	-4.84458e-07	157443