File: txt/17696_R287_UA660_SOC00_C03.mpt
EC-Lab ASCII FILE

Nb header lines : 63

Potentio Electrochemical Impedance Spectroscopy

Run on channel : 3 (SN 65921)
User :
CE vs. WE compliance from -10 V to 10 V
Electrode connection : standard
Potential control : Ewe
Ewe ctrl range : min = -10.00 V, max = 10.00 V
Safety Limits :
	Do not start on E overload
Acquisition started on : 09/22/2025 09:03:57.388
Loaded Setting File :  C:\Users\Celltest\OneDrive - store-dot.com\Documents\EC-Lab\Data\Gyutae\17738_R277_UA674_SOC00_C02.mpr
Saved on :
	File : 17696_R287_UA660_SOC00_C03.mpr
	Directory : C:\Users\Celltest\OneDrive - store-dot.com\Documents\EC-Lab\Data\Charmaine\
	Host : 169.254.61.224
Device : VMP-3e (SN .003165)
Address : USB
EC-LAB for windows v11.62 (software)
Internet server v27.00 (firmware)
Command interpretor v12.03 (firmware)
Electrode material :
Initial state :
Electrolyte :
Comments :
Electrode surface area : 0.001 cm²
Characteristic mass : 0.001 g
Equivalent Weight : 0.000 g/eq.
Density : 0.000 g/cm3
Volume (V) : 0.001 cm³
Cycle Definition : Charge/Discharge alternance
Mode                Single sine
E (V)               0.0000
vs.                 Eoc
tE (h:m:s)          0:00:0.0000
record              0
dI                  0.000
unit dI             mA
dt (s)              0.000
fi                  100.000
unit fi             kHz
ff                  10.000
unit ff             mHz
Nd                  6
Points              per decade
spacing             Logarithmic
Va (mV)             5.0
pw                  0.10
Na                  2
corr                0
E range min (V)     -10.000
E range max (V)     10.000
I Range             Auto
Bandwidth           5
nc cycles           0
goto Ns'            0
nr cycles           0
inc. cycle          0

freq/Hz	Re(Z)/Ohm	-Im(Z)/Ohm	|Z|/Ohm	Phase(Z)/deg	time/s	<Ewe>/V	<I>/mA	Cs/µF	Cp/µF	cycle number	I Range	|Ewe|/V	|I|/A	Ns	(Q-Qo)/mA.h	Re(Y)/Ohm-1	Im(Y)/Ohm-1	|Y|/Ohm-1	Phase(Y)/deg	Re(C)/nF	Im(C)/nF	|C|/nF	Phase(C)/deg	Re(M)	Im(M)	|M|	Phase(M)/deg	Re(Permittivity)	Im(Permittivity)	|Permittivity|	Phase(Permittivity)/deg	Re(Resistivity)/Ohm.cm	Im(Resistivity)/Ohm.cm	|Resistivity|/Ohm.cm	Phase(Resistivity)/deg	Re(Conductivity)/mS/cm	Im(Conductivity)/mS/cm	|Conductivity|/mS/cm	Phase(Conductivity)/deg	Tan(Delta)	Loss Angle(Delta)/deg	dq/mA.h	Pwe/W	Rwe/Ohm
100004	1.2881	0.269096	1.31591	-11.7999	1.86448	0.270932	0.0360751	5.91421	0.247321	1	9	0.00458234	0.00348227	0	1.55005e-06	0.743873	0.155402	0.759932	11.7999	247.321	1183.87	1209.43	-78.2001	0.0000000E+000	0.0000000E+000	0.0000000E+000	78.2001	0.0000000E+000	0.0000000E+000	0.0000000E+000	-78.2001	0.0000000E+000	0.0000000E+000	0.0000000E+000	-11.7999	0.0000000E+000	0.0000000E+000	0.0000000E+000	11.7999	4.78676	78.2001	1.55005e-06	9.77392e-06	7510.23
68132	1.35051	0.279229	1.37907	-11.6818	2.44247	0.270923	0.0330171	8.36582	0.342968	1	9	0.00505672	0.00366675	0	1.91463e-05	0.710105	0.14682	0.725124	11.6818	342.968	1658.79	1693.87	-78.3182	0.0000000E+000	0.0000000E+000	0.0000000E+000	78.3182	0.0000000E+000	0.0000000E+000	0.0000000E+000	-78.3182	0.0000000E+000	0.0000000E+000	0.0000000E+000	-11.6818	0.0000000E+000	0.0000000E+000	0.0000000E+000	11.6818	4.83657	78.3182	1.75962e-05	8.94509e-06	8205.55
46420.4	1.41483	0.295207	1.4453	-11.7858	3.0205	0.270943	0.0355344	11.6141	0.484532	1	9	0.00504107	0.00348791	0	3.42251e-05	0.677311	0.141322	0.691898	11.7858	484.532	2322.2	2372.21	-78.2142	0.0000000E+000	0.0000000E+000	0.0000000E+000	78.2142	0.0000000E+000	0.0000000E+000	0.0000000E+000	-78.2142	0.0000000E+000	0.0000000E+000	0.0000000E+000	-11.7858	0.0000000E+000	0.0000000E+000	0.0000000E+000	11.7858	4.79267	78.2142	1.50789e-05	9.62778e-06	7624.81
31621.1	1.47569	0.31753	1.50947	-12.1434	3.59849	0.270951	0.0402334	15.8511	0.701422	1	9	0.0051082	0.00338411	0	4.50694e-05	0.647662	0.13936	0.662485	12.1434	701.422	3259.8	3334.41	-77.8566	0.0000000E+000	0.0000000E+000	0.0000000E+000	77.8566	0.0000000E+000	0.0000000E+000	0.0000000E+000	-77.8566	0.0000000E+000	0.0000000E+000	0.0000000E+000	-12.1434	0.0000000E+000	0.0000000E+000	0.0000000E+000	12.1434	4.64741	77.8566	1.08442e-05	1.09013e-05	6734.48
21544.7	1.54536	0.349547	1.5844	-12.7453	4.03549	0.270917	0.0375669	21.1336	1.02862	1	9	0.00523006	0.00330097	0	4.64741e-05	0.615602	0.139244	0.631153	12.7453	1028.62	4547.57	4662.46	-77.2547	0.0000000E+000	0.0000000E+000	0.0000000E+000	77.2547	0.0000000E+000	0.0000000E+000	0.0000000E+000	-77.2547	0.0000000E+000	0.0000000E+000	0.0000000E+000	-12.7453	0.0000000E+000	0.0000000E+000	0.0000000E+000	12.7453	4.42104	77.2547	1.40472e-06	1.01775e-05	7211.59
14678.6	1.6206	0.387089	1.66619	-13.4337	4.33148	0.270926	0.0372126	28.0108	1.51181	1	9	0.00505604	0.00303449	0	4.85039e-05	0.58375	0.139431	0.600171	13.4337	1511.81	6329.4	6507.45	-76.5663	0.0000000E+000	0.0000000E+000	0.0000000E+000	76.5663	0.0000000E+000	0.0000000E+000	0.0000000E+000	-76.5663	0.0000000E+000	0.0000000E+000	0.0000000E+000	-13.4337	0.0000000E+000	0.0000000E+000	0.0000000E+000	13.4337	4.18665	76.5663	2.02986e-06	1.00819e-05	7280.5
10002.2	1.69791	0.43889	1.75372	-14.4931	4.62749	0.270919	0.0388908	36.255	2.27071	1	9	0.0047076	0.00268436	0	5.3551e-05	0.552072	0.142705	0.570218	14.4931	2270.71	8784.55	9073.28	-75.5069	0.0000000E+000	0.0000000E+000	0.0000000E+000	75.5069	0.0000000E+000	0.0000000E+000	0.0000000E+000	-75.5069	0.0000000E+000	0.0000000E+000	0.0000000E+000	-14.4931	0.0000000E+000	0.0000000E+000	0.0000000E+000	14.4931	3.86864	75.5069	5.04703e-06	1.05363e-05	6966.16
6811.07	1.78403	0.517593	1.8576	-16.1788	5.00549	0.270739	-0.0613543	45.1457	3.50501	1	9	0.00450574	0.00242557	0	4.91042e-05	0.51701	0.149998	0.538329	16.1788	3505.01	12081	12579.2	-73.8212	0.0000000E+000	0.0000000E+000	0.0000000E+000	73.8212	0.0000000E+000	0.0000000E+000	0.0000000E+000	-73.8212	0.0000000E+000	0.0000000E+000	0.0000000E+000	-16.1788	0.0000000E+000	0.0000000E+000	0.0000000E+000	16.1788	3.44679	73.8212	-4.44681e-06	-1.6611e-05	4412.72
4641.49	1.87843	0.608004	1.97438	-17.9355	5.69969	0.270937	0.0709819	56.397	5.34821	1	9	0.0049071	0.00248539	0	6.37644e-05	0.481874	0.155971	0.506488	17.9355	5348.21	16523.3	17367.3	-72.0645	0.0000000E+000	0.0000000E+000	0.0000000E+000	72.0645	0.0000000E+000	0.0000000E+000	0.0000000E+000	-72.0645	0.0000000E+000	0.0000000E+000	0.0000000E+000	-17.9355	0.0000000E+000	0.0000000E+000	0.0000000E+000	17.9355	3.0895	72.0645	1.46602e-05	1.92316e-05	3816.98
3161.01	1.98872	0.734237	2.11993	-20.2642	6.1667	0.270936	0.0688002	68.5737	8.22599	1	9	0.0048341	0.00228031	0	7.033e-05	0.442517	0.163378	0.471714	20.2642	8225.98	22280.5	23750.5	-69.7358	0.0000000E+000	0.0000000E+000	0.0000000E+000	69.7358	0.0000000E+000	0.0000000E+000	0.0000000E+000	-69.7358	0.0000000E+000	0.0000000E+000	0.0000000E+000	-20.2642	0.0000000E+000	0.0000000E+000	0.0000000E+000	20.2642	2.70855	69.7358	6.56566e-06	1.86404e-05	3938.01
2155.69	2.12243	0.900075	2.30539	-22.9807	6.63269	0.270934	0.0664694	82.0267	12.5032	1	9	0.00479393	0.00207944	0	7.98321e-05	0.39934	0.169351	0.433765	22.9807	12503.2	29483.4	32025	-67.0193	0.0000000E+000	0.0000000E+000	0.0000000E+000	67.0193	0.0000000E+000	0.0000000E+000	0.0000000E+000	-67.0193	0.0000000E+000	0.0000000E+000	0.0000000E+000	-22.9807	0.0000000E+000	0.0000000E+000	0.0000000E+000	22.9807	2.35806	67.0193	9.50203e-06	1.80088e-05	4076.07
1468.59	2.28953	1.12176	2.54956	-26.1026	7.09993	0.270954	0.0731076	96.6097	18.7019	1	9	0.00477192	0.00187166	0	8.97795e-05	0.35222	0.172571	0.392224	26.1026	18701.9	38171	42506.3	-63.8974	0.0000000E+000	0.0000000E+000	0.0000000E+000	63.8974	0.0000000E+000	0.0000000E+000	0.0000000E+000	-63.8974	0.0000000E+000	0.0000000E+000	0.0000000E+000	-26.1026	0.0000000E+000	0.0000000E+000	0.0000000E+000	26.1026	2.04102	63.8974	9.94744e-06	1.98088e-05	3706.23
1000.32	2.48838	1.40617	2.85821	-29.4705	7.56971	0.27093	0.0688748	113.147	27.3862	1	9	0.00474954	0.00166172	0	9.67205e-05	0.3046	0.172128	0.34987	29.4705	27386.2	48463	55665.7	-60.5295	0.0000000E+000	0.0000000E+000	0.0000000E+000	60.5295	0.0000000E+000	0.0000000E+000	0.0000000E+000	-60.5295	0.0000000E+000	0.0000000E+000	0.0000000E+000	-29.4705	0.0000000E+000	0.0000000E+000	0.0000000E+000	29.4705	1.76962	60.5295	6.94104e-06	1.86603e-05	3933.66
681.09	2.7362	1.78492	3.26692	-33.1179	8.28943	0.270898	-0.0143904	130.917	39.0804	1	10	0.00482522	0.001477	0	0.000100368	0.256373	0.167241	0.306099	33.1179	39080.4	59908.4	71528.3	-56.8821	0.0000000E+000	0.0000000E+000	0.0000000E+000	56.8821	0.0000000E+000	0.0000000E+000	0.0000000E+000	-56.8821	0.0000000E+000	0.0000000E+000	0.0000000E+000	-33.1179	0.0000000E+000	0.0000000E+000	0.0000000E+000	33.1179	1.53295	56.8821	3.64788e-06	-3.89832e-06	18825
463.961	3.09019	2.26312	3.83027	-36.2175	8.75819	0.270896	-0.0141424	151.576	52.9161	1	10	0.00478728	0.00124985	0	9.87351e-05	0.210633	0.154258	0.261078	36.2175	52916.1	72254.4	89559	-53.7825	0.0000000E+000	0.0000000E+000	0.0000000E+000	53.7825	0.0000000E+000	0.0000000E+000	0.0000000E+000	-53.7825	0.0000000E+000	0.0000000E+000	0.0000000E+000	-36.2175	0.0000000E+000	0.0000000E+000	0.0000000E+000	36.2175	1.36545	53.7825	-1.63331e-06	-3.83111e-06	19154.9
316.316	3.55765	2.86677	4.56895	-38.862	9.22494	0.270922	-0.0132456	175.512	69.0972	1	10	0.00475282	0.00104024	0	9.6459e-05	0.170424	0.137329	0.218869	38.862	69097.2	85749.3	110124	-51.138	0.0000000E+000	0.0000000E+000	0.0000000E+000	51.138	0.0000000E+000	0.0000000E+000	0.0000000E+000	-51.138	0.0000000E+000	0.0000000E+000	0.0000000E+000	-38.862	0.0000000E+000	0.0000000E+000	0.0000000E+000	38.862	1.241	51.138	-2.27607e-06	-3.58853e-06	20453.7
215.345	4.2085	3.59345	5.53393	-40.4925	9.69246	0.270917	-0.0130293	205.672	86.7222	1	10	0.00473957	0.000856457	0	9.42557e-05	0.137423	0.11734	0.180703	40.4925	86722.2	101566	133553	-49.5075	0.0000000E+000	0.0000000E+000	0.0000000E+000	49.5075	0.0000000E+000	0.0000000E+000	0.0000000E+000	-49.5075	0.0000000E+000	0.0000000E+000	0.0000000E+000	-40.4925	0.0000000E+000	0.0000000E+000	0.0000000E+000	40.4925	1.17116	49.5075	-2.2033e-06	-3.52987e-06	20792.8
146.737	5.07284	4.41559	6.72541	-41.0375	10.1554	0.2709	-0.0133053	245.635	105.884	1	10	0.00472041	0.000701877	0	9.30157e-05	0.112154	0.0976228	0.14869	41.0375	105884	121645	161273	-48.9625	0.0000000E+000	0.0000000E+000	0.0000000E+000	48.9625	0.0000000E+000	0.0000000E+000	0.0000000E+000	-48.9625	0.0000000E+000	0.0000000E+000	0.0000000E+000	-41.0375	0.0000000E+000	0.0000000E+000	0.0000000E+000	41.0375	1.14885	48.9625	-1.24e-06	-3.6044e-06	20360.3
100.032	6.20326	5.35534	8.19513	-40.8044	10.6237	0.270903	-0.0131804	297.094	126.869	1	10	0.00472001	0.000575953	0	9.20378e-05	0.0923652	0.0797398	0.122024	40.8044	126869	146957	194145	-49.1956	0.0000000E+000	0.0000000E+000	0.0000000E+000	49.1956	0.0000000E+000	0.0000000E+000	0.0000000E+000	-49.1956	0.0000000E+000	0.0000000E+000	0.0000000E+000	-40.8044	0.0000000E+000	0.0000000E+000	0.0000000E+000	40.8044	1.15833	49.1956	-9.77949e-07	-3.5706e-06	20553.5
68.104	7.68142	6.30653	9.93864	-39.3864	11.1023	0.270901	-0.012017	370.559	149.205	1	10	0.00471458	0.000474369	0	9.09059e-05	0.0777656	0.0638464	0.100617	39.3864	149205	181734	235137	-50.6136	0.0000000E+000	0.0000000E+000	0.0000000E+000	50.6136	0.0000000E+000	0.0000000E+000	0.0000000E+000	-50.6136	0.0000000E+000	0.0000000E+000	0.0000000E+000	-39.3864	0.0000000E+000	0.0000000E+000	0.0000000E+000	39.3864	1.21801	50.6136	-1.13193e-06	-3.2554e-06	22543.2
46.4415	9.51092	7.21684	11.939	-37.191	11.5576	0.2709	-0.0152089	474.861	173.509	1	10	0.00471841	0.000395209	0	8.92886e-05	0.0667244	0.0506302	0.0837589	37.191	173509	228664	287041	-52.809	0.0000000E+000	0.0000000E+000	0.0000000E+000	52.809	0.0000000E+000	0.0000000E+000	0.0000000E+000	-52.809	0.0000000E+000	0.0000000E+000	0.0000000E+000	-37.191	0.0000000E+000	0.0000000E+000	0.0000000E+000	37.191	1.31788	52.809	-1.61725e-06	-4.12008e-06	17811.9
31.6296	11.6722	7.88236	14.0845	-34.0315	12.0045	0.270895	-0.0169074	638.368	199.941	1	10	0.00471311	0.000334631	0	8.72887e-05	0.0588399	0.0397351	0.0710001	34.0315	199941	296073	357261	-55.9685	0.0000000E+000	0.0000000E+000	0.0000000E+000	55.9685	0.0000000E+000	0.0000000E+000	0.0000000E+000	-55.9685	0.0000000E+000	0.0000000E+000	0.0000000E+000	-34.0315	0.0000000E+000	0.0000000E+000	0.0000000E+000	34.0315	1.48081	55.9685	-1.99987e-06	-4.58012e-06	16022.3
21.5517	14.1126	8.23401	16.339	-30.2615	12.6844	0.27092	-0.0118311	896.864	227.77	1	11	0.00471345	0.000288478	0	8.46013e-05	0.0528633	0.0308432	0.0612032	30.2615	227770	390384	451972	-59.7385	0.0000000E+000	0.0000000E+000	0.0000000E+000	59.7385	0.0000000E+000	0.0000000E+000	0.0000000E+000	-59.7385	0.0000000E+000	0.0000000E+000	0.0000000E+000	-30.2615	0.0000000E+000	0.0000000E+000	0.0000000E+000	30.2615	1.71394	59.7385	-2.68747e-06	-3.20529e-06	22899
14.6852	16.4815	8.19494	18.4064	-26.4375	13.162	0.270912	-0.0114362	1322.5	262.15	1	11	0.00470523	0.00025563	0	8.3265e-05	0.0486472	0.0241884	0.0543289	26.4375	262150	527229	588806	-63.5625	0.0000000E+000	0.0000000E+000	0.0000000E+000	63.5625	0.0000000E+000	0.0000000E+000	0.0000000E+000	-63.5625	0.0000000E+000	0.0000000E+000	0.0000000E+000	-26.4375	0.0000000E+000	0.0000000E+000	0.0000000E+000	26.4375	2.01118	63.5625	-1.33623e-06	-3.09821e-06	23689
10.0032	18.7409	7.8926	20.3351	-22.838	13.6307	0.270915	-0.0115399	2015.86	303.676	1	11	0.00470534	0.00023139	0	8.34581e-05	0.045321	0.0190866	0.0491761	22.838	303676	721075	782412	-67.162	0.0000000E+000	0.0000000E+000	0.0000000E+000	67.162	0.0000000E+000	0.0000000E+000	0.0000000E+000	-67.162	0.0000000E+000	0.0000000E+000	0.0000000E+000	-22.838	0.0000000E+000	0.0000000E+000	0.0000000E+000	22.838	2.37449	67.162	1.93012e-07	-3.12632e-06	23476.4
6.81719	20.7858	7.39133	22.0609	-19.5751	13.9884	0.270914	-0.0123198	3158.58	354.562	1	11	0.00471712	0.000213823	0	8.08034e-05	0.0427092	0.0151872	0.0453291	19.5751	354562	997095	1.05826e+06	-70.4249	0.0000000E+000	0.0000000E+000	0.0000000E+000	70.4249	0.0000000E+000	0.0000000E+000	0.0000000E+000	-70.4249	0.0000000E+000	0.0000000E+000	0.0000000E+000	-19.5751	0.0000000E+000	0.0000000E+000	0.0000000E+000	19.5751	2.81219	70.4249	-2.65467e-06	-3.3376e-06	21990.1
4.63925	22.5848	6.91526	23.6198	-17.0241	14.4903	0.270915	-0.0109408	4960.93	425.235	1	11	0.00471168	0.00019948	0	8.20695e-05	0.0404822	0.0123953	0.0423374	17.0241	425235	1.38879e+06	1.45243e+06	-72.9759	0.0000000E+000	0.0000000E+000	0.0000000E+000	72.9759	0.0000000E+000	0.0000000E+000	0.0000000E+000	-72.9759	0.0000000E+000	0.0000000E+000	0.0000000E+000	-17.0241	0.0000000E+000	0.0000000E+000	0.0000000E+000	17.0241	3.26593	72.9759	1.26615e-06	-2.96403e-06	24761.9
3.1604	24.3049	6.467	25.1506	-14.8999	15.1992	0.270928	-0.00976515	7787.09	514.857	1	11	0.00471902	0.000187631	0	7.84164e-05	0.0384237	0.0102237	0.0397606	14.8999	514857	1.93498e+06	2.00231e+06	-75.1001	0.0000000E+000	0.0000000E+000	0.0000000E+000	75.1001	0.0000000E+000	0.0000000E+000	0.0000000E+000	-75.1001	0.0000000E+000	0.0000000E+000	0.0000000E+000	-14.8999	0.0000000E+000	0.0000000E+000	0.0000000E+000	14.8999	3.75829	75.1001	-3.65312e-06	-2.64566e-06	27744.4
2.15577	25.7348	5.91413	26.4056	-12.9425	16.2158	0.270927	-0.00932107	12483.2	626.204	1	11	0.00470716	0.000178264	0	7.23282e-05	0.0369086	0.00848199	0.0378707	12.9425	626204	2.72487e+06	2.7959e+06	-77.0575	0.0000000E+000	0.0000000E+000	0.0000000E+000	77.0575	0.0000000E+000	0.0000000E+000	0.0000000E+000	-77.0575	0.0000000E+000	0.0000000E+000	0.0000000E+000	-12.9425	0.0000000E+000	0.0000000E+000	0.0000000E+000	12.9425	4.35141	77.0575	-6.08825e-06	-2.52533e-06	29066.1
1.46631	27.1606	5.50568	27.713	-11.459	17.689	0.270931	-0.00891748	19714.4	778.102	1	11	0.00471071	0.000169982	0	6.81497e-05	0.0353648	0.00716873	0.0360841	11.459	778102	3.83854e+06	3.91661e+06	-78.541	0.0000000E+000	0.0000000E+000	0.0000000E+000	78.541	0.0000000E+000	0.0000000E+000	0.0000000E+000	-78.541	0.0000000E+000	0.0000000E+000	0.0000000E+000	-11.459	0.0000000E+000	0.0000000E+000	0.0000000E+000	11.459	4.93321	78.541	-4.17847e-06	-2.41602e-06	30382
1.00006	28.3657	5.09265	28.8192	-10.1782	20.8792	0.270926	-0.00902674	31249.9	975.823	1	12	0.00472036	0.000163792	0	6.57482e-05	0.034153	0.00613167	0.034699	10.1782	975823	5.43527e+06	5.52217e+06	-79.8218	0.0000000E+000	0.0000000E+000	0.0000000E+000	79.8218	0.0000000E+000	0.0000000E+000	0.0000000E+000	-79.8218	0.0000000E+000	0.0000000E+000	0.0000000E+000	-10.1782	0.0000000E+000	0.0000000E+000	0.0000000E+000	10.1782	5.56994	79.8218	-2.40149e-06	-2.44558e-06	30013.7
0.681362	29.5038	4.66767	29.8708	-8.99	23.9991	0.270937	-0.00820263	50042.8	1221.94	1	12	0.00471156	0.000157731	0	6.55934e-05	0.0330663	0.00523127	0.0334775	8.99	1.22194e+06	7.72373e+06	7.8198e+06	-81.01	0.0000000E+000	0.0000000E+000	0.0000000E+000	81.01	0.0000000E+000	0.0000000E+000	0.0000000E+000	-81.01	0.0000000E+000	0.0000000E+000	0.0000000E+000	-8.99	0.0000000E+000	0.0000000E+000	0.0000000E+000	8.99	6.32089	81.01	-1.5476e-07	-2.22239e-06	33030.5
0.464091	30.5502	4.33228	30.8558	-8.07122	28.5639	0.270943	-0.00721613	79159.1	1560.49	1	12	0.00471904	0.000152938	0	6.02854e-05	0.0320878	0.00455033	0.0324088	8.07122	1.56049e+06	1.10042e+07	1.11143e+07	-81.9288	0.0000000E+000	0.0000000E+000	0.0000000E+000	81.9288	0.0000000E+000	0.0000000E+000	0.0000000E+000	-81.9288	0.0000000E+000	0.0000000E+000	0.0000000E+000	-8.07122	0.0000000E+000	0.0000000E+000	0.0000000E+000	8.07122	7.05175	81.9288	-5.30801e-06	-1.95516e-06	37546.9
0.316193	31.4368	4.11013	31.7044	-7.44873	35.2461	0.27093	-0.00665579	122465	2058.18	1	12	0.00471764	0.000148801	0	4.31373e-05	0.0312752	0.00408899	0.0315414	7.44873	2.05818e+06	1.57423e+07	1.58763e+07	-82.5513	0.0000000E+000	0.0000000E+000	0.0000000E+000	82.5513	0.0000000E+000	0.0000000E+000	0.0000000E+000	-82.5513	0.0000000E+000	0.0000000E+000	0.0000000E+000	-7.44873	0.0000000E+000	0.0000000E+000	0.0000000E+000	7.44873	7.64863	82.5513	-1.71481e-05	-1.80325e-06	40705.9
0.215268	32.2115	3.97869	32.4563	-7.04137	45.0438	0.270929	-0.00584026	185824	2792.44	1	12	0.00471505	0.000145274	0	1.00247e-05	0.0305783	0.00377696	0.0308107	7.04137	2.79244e+06	2.26076e+07	2.27794e+07	-82.9586	0.0000000E+000	0.0000000E+000	0.0000000E+000	82.9586	0.0000000E+000	0.0000000E+000	0.0000000E+000	-82.9586	0.0000000E+000	0.0000000E+000	0.0000000E+000	-7.04137	0.0000000E+000	0.0000000E+000	0.0000000E+000	7.04137	8.09601	82.9586	-3.31125e-05	-1.58229e-06	46389.8
0.146929	32.9581	3.97534	33.1969	-6.87768	59.3794	0.270929	-0.00534134	272483	3907.43	1	12	0.00471345	0.000141985	0	-3.91419e-05	0.0299065	0.00360727	0.0301233	6.87768	3.90743e+06	3.23951e+07	3.26299e+07	-83.1223	0.0000000E+000	0.0000000E+000	0.0000000E+000	83.1223	0.0000000E+000	0.0000000E+000	0.0000000E+000	-83.1223	0.0000000E+000	0.0000000E+000	0.0000000E+000	-6.87768	0.0000000E+000	0.0000000E+000	0.0000000E+000	6.87768	8.29063	83.1223	-4.91666e-05	-1.44712e-06	50722.9
0.0999041	33.7692	4.20457	34.03	-7.0973	80.4492	0.270932	-0.00499686	378892	5784.09	1	12	0.00471337	0.000138507	0	-9.71574e-05	0.0291607	0.00363076	0.0293859	7.0973	5.78409e+06	4.64552e+07	4.68139e+07	-82.9027	0.0000000E+000	0.0000000E+000	0.0000000E+000	82.9027	0.0000000E+000	0.0000000E+000	0.0000000E+000	-82.9027	0.0000000E+000	0.0000000E+000	0.0000000E+000	-7.0973	0.0000000E+000	0.0000000E+000	0.0000000E+000	7.0973	8.03156	82.9027	-5.80156e-05	-1.35381e-06	54220.4
0.0680626	34.5785	4.74256	34.9022	-7.80959	111.361	0.270949	-0.00440179	493059	9103.71	1	12	0.00471477	0.000135085	0	-0.000148602	0.0283857	0.0038932	0.0286515	7.80959	9.10371e+06	6.63761e+07	6.69975e+07	-82.1904	0.0000000E+000	0.0000000E+000	0.0000000E+000	82.1904	0.0000000E+000	0.0000000E+000	0.0000000E+000	-82.1904	0.0000000E+000	0.0000000E+000	0.0000000E+000	-7.80959	0.0000000E+000	0.0000000E+000	0.0000000E+000	7.80959	7.2911	82.1904	-5.14448e-05	-1.19266e-06	61554.3
0.0464052	35.4017	5.62761	35.8462	-9.03241	156.685	0.270934	-0.00433264	609438	15020.7	1	12	0.00471756	0.000131606	0	-0.000168118	0.027551	0.00437963	0.0278969	9.03241	1.50207e+07	9.44911e+07	9.56776e+07	-80.9676	0.0000000E+000	0.0000000E+000	0.0000000E+000	80.9676	0.0000000E+000	0.0000000E+000	0.0000000E+000	-80.9676	0.0000000E+000	0.0000000E+000	0.0000000E+000	-9.03241	0.0000000E+000	0.0000000E+000	0.0000000E+000	9.03241	6.29072	80.9676	-1.95155e-05	-1.17386e-06	62533.2
0.0315922	36.2777	6.68988	36.8894	-10.4484	223.246	0.270936	-0.00331064	753047	24766	1	12	0.00471351	0.000127774	0	-0.000128422	0.0266586	0.00491604	0.0271081	10.4484	2.4766e+07	1.343e+08	1.36565e+08	-79.5516	0.0000000E+000	0.0000000E+000	0.0000000E+000	79.5516	0.0000000E+000	0.0000000E+000	0.0000000E+000	-79.5516	0.0000000E+000	0.0000000E+000	0.0000000E+000	-10.4484	0.0000000E+000	0.0000000E+000	0.0000000E+000	10.4484	5.42278	79.5516	3.96955e-05	-8.96972e-07	81837.8
0.0215268	37.5054	8.09138	38.3683	-12.1743	320.915	0.270935	-0.00205025	913731	40636.7	1	12	0.00471505	0.000122889	0	-3.4408e-05	0.025477	0.00549639	0.0260632	12.1743	4.06367e+07	1.88361e+08	1.92694e+08	-77.8257	0.0000000E+000	0.0000000E+000	0.0000000E+000	77.8257	0.0000000E+000	0.0000000E+000	0.0000000E+000	-77.8257	0.0000000E+000	0.0000000E+000	0.0000000E+000	-12.1743	0.0000000E+000	0.0000000E+000	0.0000000E+000	12.1743	4.63523	77.8257	9.40142e-05	-5.55484e-07	132147
0.0146812	39.1768	10.0875	40.4547	-14.4392	464.109	0.270932	-0.000979631	1.07467e+06	66819.7	1	12	0.00471647	0.000116587	0	5.35816e-05	0.0239382	0.00616375	0.024719	14.4392	6.68197e+07	2.59508e+08	2.67973e+08	-75.5608	0.0000000E+000	0.0000000E+000	0.0000000E+000	75.5608	0.0000000E+000	0.0000000E+000	0.0000000E+000	-75.5608	0.0000000E+000	0.0000000E+000	0.0000000E+000	-14.4392	0.0000000E+000	0.0000000E+000	0.0000000E+000	14.4392	3.88371	75.5608	8.79896e-05	-2.65413e-07	276565

0.0100092	40.991	12.8305	42.9521	-17.3805	674.129	0.270934	-0.000326332	1.23931e+06	110585	1	12	0.00471284	0.000109723	0	1.63234e-05	0.0222187	0.00695463	0.0232817	17.3805	1.10585e+08	3.53298e+08	3.70201e+08	-72.6195	0.0000000E+000	0.0000000E+000	0.0000000E+000	72.6195	0.0000000E+000	0.0000000E+000	0.0000000E+000	-72.6195	0.0000000E+000	0.0000000E+000	0.0000000E+000	-17.3805	0.0000000E+000	0.0000000E+000	0.0000000E+000	17.3805	3.19481	72.6195	-3.72582e-05	-8.84143e-08	830242