File: txt/17691_R287_UA658_SOC00_C06.mpt
EC-Lab ASCII FILE
Nb header lines : 63

Potentio Electrochemical Impedance Spectroscopy

Run on channel : 6 (SN 65795)
User :
CE vs. WE compliance from -10 V to 10 V
Electrode connection : standard
Potential control : Ewe
Ewe ctrl range : min = -10.00 V, max = 10.00 V
Safety Limits :
	Do not start on E overload
Acquisition started on : 09/22/2025 08:45:21.043
Loaded Setting File :  C:\Users\Celltest\OneDrive - store-dot.com\Documents\EC-Lab\Data\Charmaine\17689_R288_UA670_SOC00_C04.mpr
Saved on :
	File : 17691_R287_UA658_SOC00_C06.mpr
	Directory : C:\Users\Celltest\OneDrive - store-dot.com\Documents\EC-Lab\Data\Charmaine\
	Host : 169.254.61.224
Device : VMP-3e (SN .003165)
Address : USB
EC-LAB for windows v11.62 (software)
Internet server v27.00 (firmware)
Command interpretor v12.03 (firmware)
Electrode material :
Initial state :
Electrolyte :
Comments :
Electrode surface area : 0.001 cm²
Characteristic mass : 0.001 g
Equivalent Weight : 0.000 g/eq.
Density : 0.000 g/cm3
Volume (V) : 0.001 cm³
Cycle Definition : Charge/Discharge alternance
Mode                Single sine
E (V)               0.0000
vs.                 Eoc
tE (h:m:s)          0:00:0.0000
record              0
dI                  0.000
unit dI             mA
dt (s)              0.000
fi                  100.000
unit fi             kHz
ff                  10.000
unit ff             mHz
Nd                  6
Points              per decade
spacing             Logarithmic
Va (mV)             5.0
pw                  0.10
Na                  2
corr                0
E range min (V)     -10.000
E range max (V)     10.000
I Range             Auto
Bandwidth           5
nc cycles           0
goto Ns'            0
nr cycles           0
inc. cycle          0

freq/Hz	Re(Z)/Ohm	-Im(Z)/Ohm	|Z|/Ohm	Phase(Z)/deg	time/s	<Ewe>/V	<I>/mA	Cs/µF	Cp/µF	cycle number	I Range	|Ewe|/V	|I|/A	Ns	(Q-Qo)/mA.h	Re(Y)/Ohm-1	Im(Y)/Ohm-1	|Y|/Ohm-1	Phase(Y)/deg	Re(C)/nF	Im(C)/nF	|C|/nF	Phase(C)/deg	Re(M)	Im(M)	|M|	Phase(M)/deg	Re(Permittivity)	Im(Permittivity)	|Permittivity|	Phase(Permittivity)/deg	Re(Resistivity)/Ohm.cm	Im(Resistivity)/Ohm.cm	|Resistivity|/Ohm.cm	Phase(Resistivity)/deg	Re(Conductivity)/mS/cm	Im(Conductivity)/mS/cm	|Conductivity|/mS/cm	Phase(Conductivity)/deg	Tan(Delta)	Loss Angle(Delta)/deg	dq/mA.h	Pwe/W	Rwe/Ohm
100004	0.980504	0.200364	1.00077	-11.5493	1.86549	0.277747	0.0457176	7.943	0.318389	1	9	0.00475097	0.00474733	0	-5.28556e-06	0.979003	0.200057	0.999234	11.5493	318.389	1558.07	1590.27	-78.4507	0.0000000E+000	0.0000000E+000	0.0000000E+000	78.4507	0.0000000E+000	0.0000000E+000	0.0000000E+000	-78.4507	0.0000000E+000	0.0000000E+000	0.0000000E+000	-11.5493	0.0000000E+000	0.0000000E+000	0.0000000E+000	11.5493	4.89362	78.4507	-5.28556e-06	1.26979e-05	6075.28
68132	1.03069	0.224632	1.05489	-12.2949	2.30247	0.277736	0.0471331	10.3991	0.471549	1	9	0.00545057	0.00516696	0	7.57098e-07	0.926225	0.201864	0.947967	12.2949	471.549	2163.64	2214.43	-77.7051	0.0000000E+000	0.0000000E+000	0.0000000E+000	77.7051	0.0000000E+000	0.0000000E+000	0.0000000E+000	-77.7051	0.0000000E+000	0.0000000E+000	0.0000000E+000	-12.2949	0.0000000E+000	0.0000000E+000	0.0000000E+000	12.2949	4.58837	77.7051	6.04265e-06	1.30905e-05	5892.59
46420.4	1.08434	0.251388	1.1131	-13.0525	2.88147	0.277735	0.0464253	13.6385	0.695642	1	9	0.00504935	0.00453629	0	-2.40563e-06	0.875179	0.202896	0.898391	13.0525	695.642	3000.6	3080.19	-76.9475	0.0000000E+000	0.0000000E+000	0.0000000E+000	76.9475	0.0000000E+000	0.0000000E+000	0.0000000E+000	-76.9475	0.0000000E+000	0.0000000E+000	0.0000000E+000	-13.0525	0.0000000E+000	0.0000000E+000	0.0000000E+000	13.0525	4.31343	76.9475	-3.16273e-06	1.28939e-05	5982.4
31621.1	1.14341	0.285358	1.17848	-14.013	3.45949	0.27772	0.04406	17.6381	1.03417	1	9	0.0050564	0.00429063	0	1.60888e-05	0.823301	0.20547	0.848553	14.013	1034.17	4143.82	4270.92	-75.987	0.0000000E+000	0.0000000E+000	0.0000000E+000	75.987	0.0000000E+000	0.0000000E+000	0.0000000E+000	-75.987	0.0000000E+000	0.0000000E+000	0.0000000E+000	-14.013	0.0000000E+000	0.0000000E+000	0.0000000E+000	14.013	4.00692	75.987	1.84944e-05	1.22363e-05	6303.22
21544.7	1.21071	0.326154	1.25387	-15.0771	4.03749	0.277716	0.0422533	22.6494	1.5325	1	9	0.00506771	0.00404166	0	3.12704e-05	0.770079	0.207453	0.797532	15.0771	1532.5	5688.73	5891.53	-74.9229	0.0000000E+000	0.0000000E+000	0.0000000E+000	74.9229	0.0000000E+000	0.0000000E+000	0.0000000E+000	-74.9229	0.0000000E+000	0.0000000E+000	0.0000000E+000	-15.0771	0.0000000E+000	0.0000000E+000	0.0000000E+000	15.0771	3.71207	74.9229	1.51816e-05	1.17344e-05	6572.65
14678.6	1.28498	0.369129	1.33694	-16.0275	4.33349	0.277717	0.041769	29.3736	2.23917	1	9	0.00507032	0.00379247	0	3.37804e-05	0.7189	0.206515	0.747974	16.0275	2239.17	7794.79	8110.03	-73.9725	0.0000000E+000	0.0000000E+000	0.0000000E+000	73.9725	0.0000000E+000	0.0000000E+000	0.0000000E+000	-73.9725	0.0000000E+000	0.0000000E+000	0.0000000E+000	-16.0275	0.0000000E+000	0.0000000E+000	0.0000000E+000	16.0275	3.48111	73.9725	2.51004e-06	1.16e-05	6648.88
10002.2	1.36993	0.422552	1.43362	-17.1422	4.62948	0.277719	0.0467978	37.6568	3.27141	1	9	0.00457401	0.00319053	0	3.60823e-05	0.666548	0.205595	0.697535	17.1422	3271.41	10606.1	11099.1	-72.8578	0.0000000E+000	0.0000000E+000	0.0000000E+000	72.8578	0.0000000E+000	0.0000000E+000	0.0000000E+000	-72.8578	0.0000000E+000	0.0000000E+000	0.0000000E+000	-17.1422	0.0000000E+000	0.0000000E+000	0.0000000E+000	17.1422	3.24205	72.8578	2.30184e-06	1.29966e-05	5934.46
6811.07	1.46728	0.484474	1.5452	-18.2724	5.1845	0.27752	-0.109894	48.2319	4.7414	1	9	0.00483522	0.00312919	0	1.96597e-05	0.614533	0.202909	0.647166	18.2724	4741.4	14359.9	15122.4	-71.7276	0.0000000E+000	0.0000000E+000	0.0000000E+000	71.7276	0.0000000E+000	0.0000000E+000	0.0000000E+000	-71.7276	0.0000000E+000	0.0000000E+000	0.0000000E+000	-18.2724	0.0000000E+000	0.0000000E+000	0.0000000E+000	18.2724	3.02861	71.7276	-1.64226e-05	-3.04979e-05	2525.34
4641.49	1.58166	0.553588	1.67574	-19.2903	5.65571	0.277654	0.0367775	61.9408	6.75987	1	9	0.00466373	0.00278309	0	2.13824e-05	0.563249	0.19714	0.596753	19.2903	6759.87	19313.6	20462.4	-70.7097	0.0000000E+000	0.0000000E+000	0.0000000E+000	70.7097	0.0000000E+000	0.0000000E+000	0.0000000E+000	-70.7097	0.0000000E+000	0.0000000E+000	0.0000000E+000	-19.2903	0.0000000E+000	0.0000000E+000	0.0000000E+000	19.2903	2.8571	70.7097	1.72271e-06	1.02114e-05	7549.56
3161.01	1.71106	0.636816	1.82573	-20.414	6.12269	0.277654	0.035064	79.0642	9.61916	1	9	0.00457161	0.002504	0	2.67731e-05	0.513328	0.191048	0.547728	20.414	9619.16	25845.8	27577.7	-69.586	0.0000000E+000	0.0000000E+000	0.0000000E+000	69.586	0.0000000E+000	0.0000000E+000	0.0000000E+000	-69.586	0.0000000E+000	0.0000000E+000	0.0000000E+000	-20.414	0.0000000E+000	0.0000000E+000	0.0000000E+000	20.414	2.6869	69.586	5.39076e-06	9.73567e-06	7918.5
2155.69	1.85612	0.729517	1.99434	-21.4565	6.58868	0.277653	0.028061	101.204	13.5417	1	9	0.00451669	0.00226475	0	2.99151e-05	0.466669	0.183416	0.501419	21.4565	13541.7	34454.2	37019.9	-68.5435	0.0000000E+000	0.0000000E+000	0.0000000E+000	68.5435	0.0000000E+000	0.0000000E+000	0.0000000E+000	-68.5435	0.0000000E+000	0.0000000E+000	0.0000000E+000	-21.4565	0.0000000E+000	0.0000000E+000	0.0000000E+000	21.4565	2.54432	68.5435	3.14198e-06	7.79121e-06	9894.62
1468.59	2.02042	0.839015	2.1877	-22.5516	7.27897	0.277658	0.0356227	129.166	18.9983	1	9	0.00498392	0.00227815	0	3.34821e-05	0.422149	0.175305	0.457101	22.5516	18998.3	45749.4	49537.2	-67.4484	0.0000000E+000	0.0000000E+000	0.0000000E+000	67.4484	0.0000000E+000	0.0000000E+000	0.0000000E+000	-67.4484	0.0000000E+000	0.0000000E+000	0.0000000E+000	-22.5516	0.0000000E+000	0.0000000E+000	0.0000000E+000	22.5516	2.40808	67.4484	3.56697e-06	9.89095e-06	7794.41
1000.32	2.21101	0.966754	2.41313	-23.6171	7.7477	0.277652	0.0355296	164.576	26.4141	1	9	0.00496043	0.0020556	0	3.63474e-05	0.379691	0.166018	0.4144	23.6171	26414.1	60410.4	65932.7	-66.3829	0.0000000E+000	0.0000000E+000	0.0000000E+000	66.3829	0.0000000E+000	0.0000000E+000	0.0000000E+000	-66.3829	0.0000000E+000	0.0000000E+000	0.0000000E+000	-23.6171	0.0000000E+000	0.0000000E+000	0.0000000E+000	23.6171	2.28705	66.3829	2.86536e-06	9.86488e-06	7814.67
681.09	2.4261	1.12265	2.67326	-24.8319	8.21344	0.277652	0.0255094	208.147	36.7097	1	9	0.00495294	0.00185278	0	3.99797e-05	0.33949	0.157096	0.374076	24.8319	36709.7	79331	87412.9	-65.1681	0.0000000E+000	0.0000000E+000	0.0000000E+000	65.1681	0.0000000E+000	0.0000000E+000	0.0000000E+000	-65.1681	0.0000000E+000	0.0000000E+000	0.0000000E+000	-24.8319	0.0000000E+000	0.0000000E+000	0.0000000E+000	24.8319	2.16104	65.1681	3.63229e-06	7.08273e-06	10884.3
463.961	2.6914	1.31754	2.99659	-26.0835	8.93622	0.277673	-0.0231183	260.36	50.3325	1	10	0.00500579	0.0016705	0	3.79846e-05	0.299725	0.146727	0.333712	26.0835	50332.5	102816	114475	-63.9165	0.0000000E+000	0.0000000E+000	0.0000000E+000	63.9165	0.0000000E+000	0.0000000E+000	0.0000000E+000	-63.9165	0.0000000E+000	0.0000000E+000	0.0000000E+000	-26.0835	0.0000000E+000	0.0000000E+000	0.0000000E+000	26.0835	2.04274	63.9165	-1.99516e-06	-6.41934e-06	12010.9
316.316	2.99097	1.54211	3.36511	-27.2752	9.40292	0.27767	-0.0233028	326.274	68.5197	1	10	0.00497491	0.00147838	0	3.47213e-05	0.264127	0.136181	0.297167	27.2752	68519.7	132896	149520	-62.7248	0.0000000E+000	0.0000000E+000	0.0000000E+000	62.7248	0.0000000E+000	0.0000000E+000	0.0000000E+000	-62.7248	0.0000000E+000	0.0000000E+000	0.0000000E+000	-27.2752	0.0000000E+000	0.0000000E+000	0.0000000E+000	27.2752	1.93953	62.7248	-3.26328e-06	-6.47049e-06	11915.7
215.345	3.36513	1.80478	3.81855	-28.2055	9.87044	0.277674	-0.0226414	409.508	91.4773	1	10	0.00495925	0.00129873	0	3.27317e-05	0.230784	0.123773	0.26188	28.2055	91477.3	170565	193548	-61.7945	0.0000000E+000	0.0000000E+000	0.0000000E+000	61.7945	0.0000000E+000	0.0000000E+000	0.0000000E+000	-61.7945	0.0000000E+000	0.0000000E+000	0.0000000E+000	-28.2055	0.0000000E+000	0.0000000E+000	0.0000000E+000	28.2055	1.86457	61.7945	-1.98962e-06	-6.28693e-06	12264
146.737	3.82557	2.10509	4.36651	-28.8226	10.3334	0.277676	-0.0230438	515.238	119.752	1	10	0.00494762	0.00113308	0	2.99388e-05	0.200645	0.110408	0.229016	28.8226	119752	217624	248396	-61.1774	0.0000000E+000	0.0000000E+000	0.0000000E+000	61.1774	0.0000000E+000	0.0000000E+000	0.0000000E+000	-61.1774	0.0000000E+000	0.0000000E+000	0.0000000E+000	-28.8226	0.0000000E+000	0.0000000E+000	0.0000000E+000	28.8226	1.8173	61.1774	-2.79291e-06	-6.39871e-06	12049.9
100.032	4.41424	2.415	5.03167	-28.6828	10.8017	0.277681	-0.0224774	658.815	151.766	1	10	0.0049432	0.000982417	0	2.70677e-05	0.174354	0.0953877	0.198741	28.6828	151766	277404	316205	-61.3172	0.0000000E+000	0.0000000E+000	0.0000000E+000	61.3172	0.0000000E+000	0.0000000E+000	0.0000000E+000	-61.3172	0.0000000E+000	0.0000000E+000	0.0000000E+000	-28.6828	0.0000000E+000	0.0000000E+000	0.0000000E+000	28.6828	1.82784	61.3172	-2.87101e-06	-6.24154e-06	12353.8
68.104	5.12566	2.66647	5.77775	-27.4844	11.2803	0.277687	-0.0199023	876.416	186.667	1	10	0.0049334	0.000853861	0	2.44689e-05	0.153543	0.0798765	0.173078	27.4844	186667	358822	404472	-62.5156	0.0000000E+000	0.0000000E+000	0.0000000E+000	62.5156	0.0000000E+000	0.0000000E+000	0.0000000E+000	-62.5156	0.0000000E+000	0.0000000E+000	0.0000000E+000	-27.4844	0.0000000E+000	0.0000000E+000	0.0000000E+000	27.4844	1.92226	62.5156	-2.5988e-06	-5.52663e-06	13952.5
46.4415	5.93792	2.81428	6.57108	-25.3586	11.7356	0.277678	-0.0234594	1217.72	223.361	1	10	0.00493398	0.000750862	0	2.21334e-05	0.137518	0.0651769	0.152182	25.3586	223361	471275	521527	-64.6414	0.0000000E+000	0.0000000E+000	0.0000000E+000	64.6414	0.0000000E+000	0.0000000E+000	0.0000000E+000	-64.6414	0.0000000E+000	0.0000000E+000	0.0000000E+000	-25.3586	0.0000000E+000	0.0000000E+000	0.0000000E+000	25.3586	2.10993	64.6414	-2.33556e-06	-6.51414e-06	11836.6
31.6296	6.77444	2.81513	7.33607	-22.5654	12.1825	0.277675	-0.0246873	1787.43	263.207	1	10	0.0049289	0.000671871	0	1.9133e-05	0.125877	0.0523083	0.136313	22.5654	263207	633393	685904	-67.4346	0.0000000E+000	0.0000000E+000	0.0000000E+000	67.4346	0.0000000E+000	0.0000000E+000	0.0000000E+000	-67.4346	0.0000000E+000	0.0000000E+000	0.0000000E+000	-22.5654	0.0000000E+000	0.0000000E+000	0.0000000E+000	22.5654	2.40644	67.4346	-3.0004e-06	-6.85504e-06	11247.7
21.5517	7.57104	2.72189	8.04546	-19.7741	12.6213	0.277675	-0.0273685	2713.12	310.532	1	10	0.00492872	0.000612609	0	1.80807e-05	0.116965	0.0420502	0.124294	19.7741	310532	863759	917883	-70.2259	0.0000000E+000	0.0000000E+000	0.0000000E+000	70.2259	0.0000000E+000	0.0000000E+000	0.0000000E+000	-70.2259	0.0000000E+000	0.0000000E+000	0.0000000E+000	-19.7741	0.0000000E+000	0.0000000E+000	0.0000000E+000	19.7741	2.78154	70.2259	-1.05231e-06	-7.59955e-06	10145.8
14.6852	8.30206	2.55971	8.68771	-17.1357	13.0991	0.277698	-0.0184937	4233.99	367.555	1	10	0.00493514	0.00056806	0	1.56977e-05	0.109996	0.0339141	0.115105	17.1357	367555	1.19211e+06	1.24749e+06	-72.8643	0.0000000E+000	0.0000000E+000	0.0000000E+000	72.8643	0.0000000E+000	0.0000000E+000	0.0000000E+000	-72.8643	0.0000000E+000	0.0000000E+000	0.0000000E+000	-17.1357	0.0000000E+000	0.0000000E+000	0.0000000E+000	17.1357	3.24335	72.8643	-2.38295e-06	-5.13566e-06	15015.8
10.0032	8.92317	2.33992	9.22487	-14.6938	13.5677	0.277698	-0.0192819	6799.55	437.484	1	10	0.00492805	0.000534214	0	1.01291e-05	0.104857	0.0274967	0.108403	14.6938	437484	1.66832e+06	1.72473e+06	-75.3062	0.0000000E+000	0.0000000E+000	0.0000000E+000	75.3062	0.0000000E+000	0.0000000E+000	0.0000000E+000	-75.3062	0.0000000E+000	0.0000000E+000	0.0000000E+000	-14.6938	0.0000000E+000	0.0000000E+000	0.0000000E+000	14.6938	3.81345	75.3062	-5.56864e-06	-5.35455e-06	14402
6.81719	9.47878	2.10101	9.70884	-12.4978	13.9254	0.277671	-0.0307746	11111.9	520.364	1	10	0.00492584	0.000507356	0	9.66809e-06	0.100558	0.0222891	0.102999	12.4978	520364	2.34765e+06	2.40463e+06	-77.5022	0.0000000E+000	0.0000000E+000	0.0000000E+000	77.5022	0.0000000E+000	0.0000000E+000	0.0000000E+000	-77.5022	0.0000000E+000	0.0000000E+000	0.0000000E+000	-12.4978	0.0000000E+000	0.0000000E+000	0.0000000E+000	12.4978	4.51155	77.5022	-4.60994e-07	-8.54522e-06	9022.75
4.63925	10.0171	1.87638	10.1913	-10.6096	14.6983	0.277708	-0.0140896	18283.1	619.773	1	11	0.00493101	0.000483844	0	5.84218e-06	0.0964453	0.0180659	0.0981227	10.6096	619773	3.30867e+06	3.36621e+06	-79.3904	0.0000000E+000	0.0000000E+000	0.0000000E+000	79.3904	0.0000000E+000	0.0000000E+000	0.0000000E+000	-79.3904	0.0000000E+000	0.0000000E+000	0.0000000E+000	-10.6096	0.0000000E+000	0.0000000E+000	0.0000000E+000	10.6096	5.33852	79.3904	-3.82591e-06	-3.9128e-06	19710.1
3.1604	10.4351	1.66625	10.5673	-9.07224	15.4063	0.277696	-0.013711	30223.1	751.432	1	11	0.00493354	0.000466868	0	8.24019e-06	0.0934477	0.0149215	0.0946315	9.07224	751432	4.70595e+06	4.76556e+06	-80.9278	0.0000000E+000	0.0000000E+000	0.0000000E+000	80.9278	0.0000000E+000	0.0000000E+000	0.0000000E+000	-80.9278	0.0000000E+000	0.0000000E+000	0.0000000E+000	-9.07224	0.0000000E+000	0.0000000E+000	0.0000000E+000	9.07224	6.26264	80.9278	2.39801e-06	-3.80748e-06	20253.5
2.15577	10.7704	1.48248	10.8719	-7.83716	16.4228	0.277711	-0.0112081	49800.2	925.961	1	11	0.00493122	0.000453574	0	-1.13823e-06	0.0911209	0.0125422	0.09198	7.83716	925961	6.72723e+06	6.79066e+06	-82.1628	0.0000000E+000	0.0000000E+000	0.0000000E+000	82.1628	0.0000000E+000	0.0000000E+000	0.0000000E+000	-82.1628	0.0000000E+000	0.0000000E+000	0.0000000E+000	-7.83716	0.0000000E+000	0.0000000E+000	0.0000000E+000	7.83716	7.26513	82.1628	-9.37842e-06	-3.11261e-06	24777.7
1.46631	11.0518	1.31803	11.1301	-6.80094	17.8961	0.277708	-0.0112306	82350.7	1154.83	1	11	0.0049302	0.00044296	0	-1.72915e-05	0.0892139	0.0106396	0.0898461	6.80094	1.15483e+06	9.68337e+06	9.75199e+06	-83.1991	0.0000000E+000	0.0000000E+000	0.0000000E+000	83.1991	0.0000000E+000	0.0000000E+000	0.0000000E+000	-83.1991	0.0000000E+000	0.0000000E+000	0.0000000E+000	-6.80094	0.0000000E+000	0.0000000E+000	0.0000000E+000	6.80094	8.38508	83.1991	-1.61533e-05	-3.11882e-06	24727.8
1.00006	11.316	1.21126	11.3807	-6.10964	20.0362	0.277699	-0.0121283	131388	1488.31	1	11	0.00493487	0.000433619	0	-3.00953e-05	0.0873693	0.00935195	0.0878684	6.10964	1.48831e+06	1.39044e+07	1.39838e+07	-83.8904	0.0000000E+000	0.0000000E+000	0.0000000E+000	83.8904	0.0000000E+000	0.0000000E+000	0.0000000E+000	-83.8904	0.0000000E+000	0.0000000E+000	0.0000000E+000	-6.10964	0.0000000E+000	0.0000000E+000	0.0000000E+000	6.10964	9.34236	83.8904	-1.28038e-05	-3.36801e-06	22896.9
0.681362	11.5253	1.18432	11.5859	-5.86705	23.1561	0.277703	-0.0121933	197230	2060.86	1	11	0.00493274	0.000425752	0	-3.35728e-05	0.0858593	0.0088228	0.0863115	5.86705	2.06086e+06	2.00553e+07	2.01609e+07	-84.1329	0.0000000E+000	0.0000000E+000	0.0000000E+000	84.1329	0.0000000E+000	0.0000000E+000	0.0000000E+000	-84.1329	0.0000000E+000	0.0000000E+000	0.0000000E+000	-5.86705	0.0000000E+000	0.0000000E+000	0.0000000E+000	5.86705	9.73153	84.1329	-3.47746e-06	-3.38611e-06	22775.1
0.464091	11.7095	1.20664	11.7715	-5.88347	27.7209	0.277704	-0.0113798	284210	2986.3	1	11	0.00493377	0.00041913	0	-2.2288e-05	0.0845037	0.00870796	0.0849512	5.88347	2.98631e+06	2.89797e+07	2.91331e+07	-84.1165	0.0000000E+000	0.0000000E+000	0.0000000E+000	84.1165	0.0000000E+000	0.0000000E+000	0.0000000E+000	-84.1165	0.0000000E+000	0.0000000E+000	0.0000000E+000	-5.88347	0.0000000E+000	0.0000000E+000	0.0000000E+000	5.88347	9.70419	84.1165	1.12848e-05	-3.16022e-06	24403.2
0.316193	11.9171	1.29008	11.9867	-6.17846	34.4032	0.277703	-0.00902198	390168	4519.43	1	11	0.00493218	0.000411471	0	-2.97007e-06	0.0829412	0.00897874	0.0834257	6.17846	4.51943e+06	4.17482e+07	4.19921e+07	-83.8215	0.0000000E+000	0.0000000E+000	0.0000000E+000	83.8215	0.0000000E+000	0.0000000E+000	0.0000000E+000	-83.8215	0.0000000E+000	0.0000000E+000	0.0000000E+000	-6.17846	0.0000000E+000	0.0000000E+000	0.0000000E+000	6.17846	9.2375	83.8215	1.93179e-05	-2.50543e-06	30780.7
0.215268	12.1679	1.47822	12.2573	-6.92665	44.201	0.277696	-0.00585567	500154	7274.24	1	11	0.00493339	0.000402485	0	5.40249e-06	0.0809885	0.0098389	0.0815839	6.92665	7.27424e+06	5.98776e+07	6.03178e+07	-83.0733	0.0000000E+000	0.0000000E+000	0.0000000E+000	83.0733	0.0000000E+000	0.0000000E+000	0.0000000E+000	-83.0733	0.0000000E+000	0.0000000E+000	0.0000000E+000	-6.92665	0.0000000E+000	0.0000000E+000	0.0000000E+000	6.92665	8.23145	83.0733	8.37256e-06	-1.6261e-06	47423.5
0.146929	12.4482	1.7875	12.5758	-8.17154	58.5375	0.277699	-0.00255354	605994	12242.9	1	11	0.00493399	0.000392339	0	-2.20662e-05	0.0787102	0.0113024	0.0795176	8.17154	1.22429e+07	8.52598e+07	8.61343e+07	-81.8285	0.0000000E+000	0.0000000E+000	0.0000000E+000	81.8285	0.0000000E+000	0.0000000E+000	0.0000000E+000	-81.8285	0.0000000E+000	0.0000000E+000	0.0000000E+000	-8.17154	0.0000000E+000	0.0000000E+000	0.0000000E+000	8.17154	6.96402	81.8285	-2.74686e-05	-7.09115e-07	108751
0.0999041	12.7727	2.19826	12.9605	-9.7653	79.6074	0.277702	-0.00092074	724700	20848.5	1	11	0.00493537	0.000380802	0	-0.000111853	0.0760398	0.0130869	0.0771577	9.7653	2.08485e+07	1.21137e+08	1.22918e+08	-80.2347	0.0000000E+000	0.0000000E+000	0.0000000E+000	80.2347	0.0000000E+000	0.0000000E+000	0.0000000E+000	-80.2347	0.0000000E+000	0.0000000E+000	0.0000000E+000	-9.7653	0.0000000E+000	0.0000000E+000	0.0000000E+000	9.7653	5.81036	80.2347	-8.9787e-05	-2.55691e-07	301607
0.0680626	13.1848	2.70262	13.4589	-11.5841	110.52	0.277705	-0.00034085	865220	34888.1	1	11	0.0049369	0.000366813	0	-0.00026355	0.0727869	0.0149199	0.0743003	11.5841	3.48881e+07	1.70202e+08	1.73741e+08	-78.4159	0.0000000E+000	0.0000000E+000	0.0000000E+000	78.4159	0.0000000E+000	0.0000000E+000	0.0000000E+000	-78.4159	0.0000000E+000	0.0000000E+000	0.0000000E+000	-11.5841	0.0000000E+000	0.0000000E+000	0.0000000E+000	11.5841	4.87851	78.4159	-0.000151697	-9.46557e-08	814741
0.0464052	13.7474	3.33971	14.1472	-13.6546	155.844	0.2777	-0.00240941	1.02694e+06	57229.4	1	11	0.00493335	0.000348714	0	-0.000474452	0.0686873	0.0166865	0.0706852	13.6546	5.72294e+07	2.35576e+08	2.42427e+08	-76.3454	0.0000000E+000	0.0000000E+000	0.0000000E+000	76.3454	0.0000000E+000	0.0000000E+000	0.0000000E+000	-76.3454	0.0000000E+000	0.0000000E+000	0.0000000E+000	-13.6546	0.0000000E+000	0.0000000E+000	0.0000000E+000	13.6546	4.11634	76.3454	-0.000210902	-6.69093e-07	115257
0.0315922	14.384	4.31103	15.0161	-16.684	222.404	0.277696	-0.0034993	1.16858e+06	96317.5	1	11	0.00493876	0.000328897	0	-0.000625142	0.0637916	0.019119	0.0665951	16.684	9.63175e+07	3.21369e+08	3.35492e+08	-73.316	0.0000000E+000	0.0000000E+000	0.0000000E+000	73.316	0.0000000E+000	0.0000000E+000	0.0000000E+000	-73.316	0.0000000E+000	0.0000000E+000	0.0000000E+000	-16.684	0.0000000E+000	0.0000000E+000	0.0000000E+000	16.684	3.33656	73.316	-0.00015069	-9.71744e-07	79357.6
0.0215268	15.0106	5.52125	15.9939	-20.1947	366.627	0.277694	-0.0021248	1.33907e+06	159578	1	12	0.00493108	0.000308311	0	-0.000578456	0.0586804	0.021584	0.062524	20.1947	1.59578e+08	4.33844e+08	4.62262e+08	-69.8053	0.0000000E+000	0.0000000E+000	0.0000000E+000	69.8053	0.0000000E+000	0.0000000E+000	0.0000000E+000	-69.8053	0.0000000E+000	0.0000000E+000	0.0000000E+000	-20.1947	0.0000000E+000	0.0000000E+000	0.0000000E+000	20.1947	2.7187	69.8053	4.66863e-05	-5.90045e-07	130692
0.0146812	15.8131	7.12264	17.3432	-24.2481	509.822	0.27769	-0.00222869	1.52201e+06	256710	1	12	0.00493367	0.000284473	0	-0.000155672	0.0525726	0.0236801	0.0576595	24.2481	2.5671e+08	5.69926e+08	6.25072e+08	-65.7519	0.0000000E+000	0.0000000E+000	0.0000000E+000	65.7519	0.0000000E+000	0.0000000E+000	0.0000000E+000	-65.7519	0.0000000E+000	0.0000000E+000	0.0000000E+000	-24.2481	0.0000000E+000	0.0000000E+000	0.0000000E+000	24.2481	2.22012	65.7519	0.000422784	-6.18884e-07	124598
0.0100092	16.9254	9.14418	19.2376	-28.3808	719.843	0.27769	-0.00105524	1.73891e+06	392885	1	12	0.00493336	0.000256444	0	0.00049703	0.0457338	0.0247083	0.0519816	28.3808	3.92885e+08	7.27209e+08	8.26554e+08	-61.6192	0.0000000E+000	0.0000000E+000	0.0000000E+000	61.6192	0.0000000E+000	0.0000000E+000	0.0000000E+000	-61.6192	0.0000000E+000	0.0000000E+000	0.0000000E+000	-28.3808	0.0000000E+000	0.0000000E+000	0.0000000E+000	28.3808	1.85095	61.6192	0.000652702	-2.9303e-07	263154