File: txt/17694_R287_UA658_SOC00_C01.mpt
EC-Lab ASCII FILE
Nb header lines : 63

Potentio Electrochemical Impedance Spectroscopy

Run on channel : 1 (SN 66354)
User :
CE vs. WE compliance from -10 V to 10 V
Electrode connection : standard
Potential control : Ewe
Ewe ctrl range : min = -10.00 V, max = 10.00 V
Safety Limits :
	Do not start on E overload
Acquisition started on : 09/22/2025 09:03:24.167
Loaded Setting File :  C:\Users\Celltest\OneDrive - store-dot.com\Documents\EC-Lab\Data\txt_done\14380_R229_UA592_SOC00_C01.mpr
Saved on :
	File : 17694_R287_UA658_SOC00_C01.mpr
	Directory : C:\Users\Celltest\OneDrive - store-dot.com\Documents\EC-Lab\Data\Charmaine\
	Host : 169.254.61.224
Device : VMP-3e (SN .003165)
Address : USB
EC-LAB for windows v11.62 (software)
Internet server v27.00 (firmware)
Command interpretor v12.03 (firmware)
Electrode material :
Initial state :
Electrolyte :
Comments :
Electrode surface area : 0.001 cm²
Characteristic mass : 0.001 g
Equivalent Weight : 0.000 g/eq.
Density : 0.000 g/cm3
Volume (V) : 0.001 cm³
Cycle Definition : Charge/Discharge alternance
Mode                Single sine
E (V)               0.0000
vs.                 Eoc
tE (h:m:s)          0:00:0.0000
record              0
dI                  0.000
unit dI             mA
dt (s)              0.000
fi                  100.000
unit fi             kHz
ff                  10.000
unit ff             mHz
Nd                  6
Points              per decade
spacing             Logarithmic
Va (mV)             5.0
pw                  0.10
Na                  2
corr                0
E range min (V)     -10.000
E range max (V)     10.000
I Range             Auto
Bandwidth           5
nc cycles           0
goto Ns'            0
nr cycles           0
inc. cycle          0

freq/Hz	Re(Z)/Ohm	-Im(Z)/Ohm	|Z|/Ohm	Phase(Z)/deg	time/s	<Ewe>/V	<I>/mA	Cs/µF	Cp/µF	cycle number	I Range	|Ewe|/V	|I|/A	Ns	(Q-Qo)/mA.h	Re(Y)/Ohm-1	Im(Y)/Ohm-1	|Y|/Ohm-1	Phase(Y)/deg	Re(C)/nF	Im(C)/nF	|C|/nF	Phase(C)/deg	Re(M)	Im(M)	|M|	Phase(M)/deg	Re(Permittivity)	Im(Permittivity)	|Permittivity|	Phase(Permittivity)/deg	Re(Resistivity)/Ohm.cm	Im(Resistivity)/Ohm.cm	|Resistivity|/Ohm.cm	Phase(Resistivity)/deg	Re(Conductivity)/mS/cm	Im(Conductivity)/mS/cm	|Conductivity|/mS/cm	Phase(Conductivity)/deg	Tan(Delta)	Loss Angle(Delta)/deg	dq/mA.h	Pwe/W	Rwe/Ohm
100004	0.974703	0.0170145	0.974852	-1.00006	1.86549	0.273634	0.0742434	93.5372	0.0284935	1	9	0.00491496	0.00504175	0	8.03735e-06	1.02564	0.0179037	1.0258	1.00006	28.4936	1632.3	1632.55	-88.9999	0.0000000E+000	0.0000000E+000	0.0000000E+000	88.9999	0.0000000E+000	0.0000000E+000	0.0000000E+000	-88.9999	0.0000000E+000	0.0000000E+000	0.0000000E+000	-1.00006	0.0000000E+000	0.0000000E+000	0.0000000E+000	1.00006	57.2866	88.9999	8.03735e-06	2.03155e-05	3685.64
68132	0.985287	0.198132	1.00501	-11.37	2.30248	0.273632	0.0799806	11.79	0.458229	1	9	0.00541419	0.0053872	0	9.43825e-06	0.975487	0.196162	0.995014	11.37	458.229	2278.72	2324.33	-78.63	0.0000000E+000	0.0000000E+000	0.0000000E+000	78.63	0.0000000E+000	0.0000000E+000	0.0000000E+000	-78.63	0.0000000E+000	0.0000000E+000	0.0000000E+000	-11.37	0.0000000E+000	0.0000000E+000	0.0000000E+000	11.37	4.97287	78.63	1.4009e-06	2.18852e-05	3421.23
46420.4	0.876142	0.416152	0.969952	-25.4069	3.0225	0.2736	0.0801668	8.23873	1.51657	1	9	0.00489196	0.00504351	0	2.10708e-05	0.931267	0.442335	1.03098	25.4069	1516.57	3192.9	3534.77	-64.5931	0.0000000E+000	0.0000000E+000	0.0000000E+000	64.5931	0.0000000E+000	0.0000000E+000	0.0000000E+000	-64.5931	0.0000000E+000	0.0000000E+000	0.0000000E+000	-25.4069	0.0000000E+000	0.0000000E+000	0.0000000E+000	25.4069	2.10534	64.5931	1.16326e-05	2.19336e-05	3412.88
31621.1	1.08036	0.259198	1.11101	-13.4913	3.46049	0.273627	0.0810423	19.4183	1.0569	1	9	0.00533504	0.00480195	0	4.60947e-05	0.875241	0.209987	0.900078	13.4913	1056.9	4405.25	4530.26	-76.5087	0.0000000E+000	0.0000000E+000	0.0000000E+000	76.5087	0.0000000E+000	0.0000000E+000	0.0000000E+000	-76.5087	0.0000000E+000	0.0000000E+000	0.0000000E+000	-13.4913	0.0000000E+000	0.0000000E+000	0.0000000E+000	13.4913	4.16807	76.5087	2.50239e-05	2.21754e-05	3376.35
21544.7	1.14079	0.289415	1.17693	-14.2355	4.03949	0.273617	0.0809864	25.5246	1.54348	1	9	0.00498476	0.0042354	0	6.02134e-05	0.82358	0.20894	0.84967	14.2355	1543.48	6083.95	6276.69	-75.7645	0.0000000E+000	0.0000000E+000	0.0000000E+000	75.7645	0.0000000E+000	0.0000000E+000	0.0000000E+000	-75.7645	0.0000000E+000	0.0000000E+000	0.0000000E+000	-14.2355	0.0000000E+000	0.0000000E+000	0.0000000E+000	14.2355	3.9417	75.7645	1.41186e-05	2.21593e-05	3378.56
14678.6	1.20325	0.323675	1.24603	-15.0561	4.33549	0.27362	0.0749512	33.4986	2.26042	1	9	0.00465697	0.00373745	0	6.72827e-05	0.775	0.208475	0.80255	15.0561	2260.42	8403.05	8701.77	-74.9439	0.0000000E+000	0.0000000E+000	0.0000000E+000	74.9439	0.0000000E+000	0.0000000E+000	0.0000000E+000	-74.9439	0.0000000E+000	0.0000000E+000	0.0000000E+000	-15.0561	0.0000000E+000	0.0000000E+000	0.0000000E+000	15.0561	3.71748	74.9439	7.06933e-06	2.05081e-05	3650.64
10002.2	1.27618	0.369897	1.32871	-16.164	4.77248	0.273625	0.07456	43.0173	3.33385	1	9	0.00491122	0.00369624	0	8.11088e-05	0.72286	0.209518	0.752611	16.164	3333.85	11502.1	11975.5	-73.836	0.0000000E+000	0.0000000E+000	0.0000000E+000	73.836	0.0000000E+000	0.0000000E+000	0.0000000E+000	-73.836	0.0000000E+000	0.0000000E+000	0.0000000E+000	-16.164	0.0000000E+000	0.0000000E+000	0.0000000E+000	16.164	3.4501	73.836	1.38261e-05	2.04015e-05	3669.86
6811.07	1.36476	0.426483	1.42985	-17.3538	5.15051	0.27347	-0.0521793	54.7903	4.87445	1	9	0.00457941	0.00320272	0	7.93863e-05	0.667539	0.208603	0.699374	17.3538	4874.45	15598.5	16342.3	-72.6462	0.0000000E+000	0.0000000E+000	0.0000000E+000	72.6462	0.0000000E+000	0.0000000E+000	0.0000000E+000	-72.6462	0.0000000E+000	0.0000000E+000	0.0000000E+000	-17.3538	0.0000000E+000	0.0000000E+000	0.0000000E+000	17.3538	3.20005	72.6462	-1.72248e-06	-1.42695e-05	5240.98
4641.49	1.46046	0.490237	1.54055	-18.5555	5.84471	0.273556	0.052878	69.945	7.08303	1	9	0.00503634	0.00326919	0	9.22801e-05	0.615376	0.206565	0.64912	18.5555	7083.03	21101	22258.1	-71.4445	0.0000000E+000	0.0000000E+000	0.0000000E+000	71.4445	0.0000000E+000	0.0000000E+000	0.0000000E+000	-71.4445	0.0000000E+000	0.0000000E+000	0.0000000E+000	-18.5555	0.0000000E+000	0.0000000E+000	0.0000000E+000	18.5555	2.9791	71.4445	1.28938e-05	1.44651e-05	5173.34
3161.01	1.57055	0.563403	1.66855	-19.7344	6.31169	0.273549	0.0543123	89.3665	10.1891	1	9	0.00493938	0.00296029	0	9.73944e-05	0.564124	0.202368	0.599324	19.7344	10189.1	28403.3	30175.6	-70.2656	0.0000000E+000	0.0000000E+000	0.0000000E+000	70.2656	0.0000000E+000	0.0000000E+000	0.0000000E+000	-70.2656	0.0000000E+000	0.0000000E+000	0.0000000E+000	-19.7344	0.0000000E+000	0.0000000E+000	0.0000000E+000	19.7344	2.78761	70.2656	5.11428e-06	1.4857e-05	5036.59
2155.69	1.69674	0.647141	1.81596	-20.877	6.77769	0.273546	0.0470104	114.087	14.4884	1	9	0.00488398	0.00268947	0	0.000105823	0.514519	0.196239	0.550672	20.877	14488.4	37987	40656.2	-69.123	0.0000000E+000	0.0000000E+000	0.0000000E+000	69.123	0.0000000E+000	0.0000000E+000	0.0000000E+000	-69.123	0.0000000E+000	0.0000000E+000	0.0000000E+000	-20.877	0.0000000E+000	0.0000000E+000	0.0000000E+000	20.877	2.6219	69.123	8.42888e-06	1.28595e-05	5818.84
1468.59	1.83607	0.748853	1.98291	-22.1884	7.24492	0.273551	0.0465634	144.718	20.6401	1	9	0.0048582	0.00245004	0	0.000112304	0.466964	0.190455	0.50431	22.1884	20640.1	50606.2	54653.4	-67.8116	0.0000000E+000	0.0000000E+000	0.0000000E+000	67.8116	0.0000000E+000	0.0000000E+000	0.0000000E+000	-67.8116	0.0000000E+000	0.0000000E+000	0.0000000E+000	-22.1884	0.0000000E+000	0.0000000E+000	0.0000000E+000	22.1884	2.45184	67.8116	6.48048e-06	1.27375e-05	5874.82
1000.32	1.99715	0.880176	2.1825	-23.7839	7.71367	0.273553	0.0481653	180.764	29.3997	1	9	0.00484281	0.00221893	0	0.000116715	0.419278	0.184783	0.45819	23.7839	29399.7	66708.7	72899.9	-66.2161	0.0000000E+000	0.0000000E+000	0.0000000E+000	66.2161	0.0000000E+000	0.0000000E+000	0.0000000E+000	-66.2161	0.0000000E+000	0.0000000E+000	0.0000000E+000	-23.7839	0.0000000E+000	0.0000000E+000	0.0000000E+000	23.7839	2.26903	66.2161	4.41083e-06	1.31757e-05	5679.46
681.09	2.1701	1.04537	2.40876	-25.7207	8.17944	0.273546	0.053176	223.536	42.1014	1	9	0.00483475	0.00200715	0	0.000121644	0.374018	0.180169	0.415151	25.7207	42101.4	87399.4	97011.3	-64.2793	0.0000000E+000	0.0000000E+000	0.0000000E+000	64.2793	0.0000000E+000	0.0000000E+000	0.0000000E+000	-64.2793	0.0000000E+000	0.0000000E+000	0.0000000E+000	-25.7207	0.0000000E+000	0.0000000E+000	0.0000000E+000	25.7207	2.07593	64.2793	4.92956e-06	1.45461e-05	5144.16
463.961	2.38917	1.24921	2.69605	-27.6033	8.6472	0.273551	0.053474	274.603	58.9547	1	9	0.00482492	0.00178963	0	0.000128863	0.328695	0.171862	0.370914	27.6033	58954.8	112754	127236	-62.3967	0.0000000E+000	0.0000000E+000	0.0000000E+000	62.3967	0.0000000E+000	0.0000000E+000	0.0000000E+000	-62.3967	0.0000000E+000	0.0000000E+000	0.0000000E+000	-27.6033	0.0000000E+000	0.0000000E+000	0.0000000E+000	27.6033	1.91255	62.3967	7.21877e-06	1.46279e-05	5115.59
316.316	2.67336	1.5199	3.07522	-29.6197	9.36591	0.273597	-0.0263424	331.043	80.8653	1	10	0.00486274	0.00158127	0	0.000130253	0.282687	0.160718	0.32518	29.6197	80865.3	142235	163615	-60.3803	0.0000000E+000	0.0000000E+000	0.0000000E+000	60.3803	0.0000000E+000	0.0000000E+000	0.0000000E+000	-60.3803	0.0000000E+000	0.0000000E+000	0.0000000E+000	-29.6197	0.0000000E+000	0.0000000E+000	0.0000000E+000	29.6197	1.75891	60.3803	1.39059e-06	-7.2072e-06	10386.2
215.345	3.02608	1.82264	3.53259	-31.0609	9.83344	0.273599	-0.0221105	405.495	107.944	1	10	0.00483987	0.00137006	0	0.000126434	0.24249	0.146054	0.283079	31.0609	107944	179218	209215	-58.9391	0.0000000E+000	0.0000000E+000	0.0000000E+000	58.9391	0.0000000E+000	0.0000000E+000	0.0000000E+000	-58.9391	0.0000000E+000	0.0000000E+000	0.0000000E+000	-31.0609	0.0000000E+000	0.0000000E+000	0.0000000E+000	31.0609	1.66028	58.9391	-3.81986e-06	-6.04941e-06	12374.2
146.737	3.46876	2.19347	4.1041	-32.3073	10.2964	0.273594	-0.0227702	494.478	141.246	1	10	0.00482957	0.00117677	0	0.000124151	0.205939	0.130226	0.243659	32.3073	141246	223367	264278	-57.6927	0.0000000E+000	0.0000000E+000	0.0000000E+000	57.6927	0.0000000E+000	0.0000000E+000	0.0000000E+000	-57.6927	0.0000000E+000	0.0000000E+000	0.0000000E+000	-32.3073	0.0000000E+000	0.0000000E+000	0.0000000E+000	32.3073	1.5814	57.6927	-2.28248e-06	-6.22978e-06	12015.5
100.032	4.05245	2.58191	4.80506	-32.5022	10.7647	0.27358	-0.0217732	616.226	177.92	1	10	0.00482304	0.00100374	0	0.000122201	0.175517	0.111826	0.208114	32.5022	177920	279255	331117	-57.4978	0.0000000E+000	0.0000000E+000	0.0000000E+000	57.4978	0.0000000E+000	0.0000000E+000	0.0000000E+000	-57.4978	0.0000000E+000	0.0000000E+000	0.0000000E+000	-32.5022	0.0000000E+000	0.0000000E+000	0.0000000E+000	32.5022	1.56956	57.4978	-1.95035e-06	-5.95672e-06	12565
68.104	4.79926	2.95717	5.63717	-31.6402	11.2433	0.273601	-0.0184972	790.263	217.471	1	10	0.00481667	0.000854448	0	0.000120398	0.151026	0.0930579	0.177394	31.6402	217471	352938	414559	-58.3598	0.0000000E+000	0.0000000E+000	0.0000000E+000	58.3598	0.0000000E+000	0.0000000E+000	0.0000000E+000	-58.3598	0.0000000E+000	0.0000000E+000	0.0000000E+000	-31.6402	0.0000000E+000	0.0000000E+000	0.0000000E+000	31.6402	1.62292	58.3598	-1.80232e-06	-5.06087e-06	14791.5
46.4415	5.70375	3.2594	6.56936	-29.7457	11.6986	0.273586	-0.0244343	1051.42	258.824	1	10	0.00481469	0.000732902	0	0.000117496	0.132164	0.0755251	0.152222	29.7457	258824	452927	521664	-60.2543	0.0000000E+000	0.0000000E+000	0.0000000E+000	60.2543	0.0000000E+000	0.0000000E+000	0.0000000E+000	-60.2543	0.0000000E+000	0.0000000E+000	0.0000000E+000	-29.7457	0.0000000E+000	0.0000000E+000	0.0000000E+000	29.7457	1.74994	60.2543	-2.90263e-06	-6.68487e-06	11196.8
31.6296	6.70019	3.38397	7.50625	-26.7963	12.1455	0.273589	-0.0256996	1486.96	302.209	1	10	0.00480923	0.000640696	0	0.000114702	0.118916	0.0600593	0.133222	26.7963	302209	598367	670353	-63.2037	0.0000000E+000	0.0000000E+000	0.0000000E+000	63.2037	0.0000000E+000	0.0000000E+000	0.0000000E+000	-63.2037	0.0000000E+000	0.0000000E+000	0.0000000E+000	-26.7963	0.0000000E+000	0.0000000E+000	0.0000000E+000	26.7963	1.97998	63.2037	-2.79408e-06	-7.0311e-06	10645.7
21.5517	7.70841	3.33854	8.40032	-23.4176	12.5843	0.273592	-0.0264953	2211.98	349.384	1	10	0.00481486	0.000573176	0	0.000110305	0.109238	0.0473113	0.119043	23.4176	349384	806698	879108	-66.5824	0.0000000E+000	0.0000000E+000	0.0000000E+000	66.5824	0.0000000E+000	0.0000000E+000	0.0000000E+000	-66.5824	0.0000000E+000	0.0000000E+000	0.0000000E+000	-23.4176	0.0000000E+000	0.0000000E+000	0.0000000E+000	23.4176	2.30891	66.5824	-4.39633e-06	-7.2489e-06	10326.1
14.6852	8.63306	3.16567	9.19518	-20.1376	13.062	0.273593	-0.0189352	3423.54	405.777	1	10	0.00481095	0.000523203	0	0.000108518	0.102104	0.0374409	0.108753	20.1376	405777	1.10659e+06	1.17864e+06	-69.8624	0.0000000E+000	0.0000000E+000	0.0000000E+000	69.8624	0.0000000E+000	0.0000000E+000	0.0000000E+000	-69.8624	0.0000000E+000	0.0000000E+000	0.0000000E+000	-20.1376	0.0000000E+000	0.0000000E+000	0.0000000E+000	20.1376	2.72709	69.8624	-1.7871e-06	-5.18053e-06	14448.9
10.0032	9.45353	2.92502	9.89571	-17.1926	13.5307	0.273596	-0.020903	5439.41	475.244	1	10	0.00481031	0.000486101	0	0.00010973	0.0965385	0.02987	0.101054	17.1926	475244	1.53597e+06	1.60781e+06	-72.8074	0.0000000E+000	0.0000000E+000	0.0000000E+000	72.8074	0.0000000E+000	0.0000000E+000	0.0000000E+000	-72.8074	0.0000000E+000	0.0000000E+000	0.0000000E+000	-17.1926	0.0000000E+000	0.0000000E+000	0.0000000E+000	17.1926	3.23195	72.8074	1.21163e-06	-5.71898e-06	13088.9
6.81719	10.2088	2.6619	10.5502	-14.6142	14.0934	0.27362	-0.0115844	8770.48	558.327	1	11	0.00481042	0.000455957	0	0.000108029	0.0917187	0.0239152	0.0947853	14.6142	558327	2.14128e+06	2.21287e+06	-75.3858	0.0000000E+000	0.0000000E+000	0.0000000E+000	75.3858	0.0000000E+000	0.0000000E+000	0.0000000E+000	-75.3858	0.0000000E+000	0.0000000E+000	0.0000000E+000	-14.6142	0.0000000E+000	0.0000000E+000	0.0000000E+000	14.6142	3.83517	75.3858	-1.70066e-06	-3.16972e-06	23619.7
4.63925	10.834	2.40811	11.0984	-12.5316	14.5953	0.273625	-0.0101807	14246.1	670.695	1	11	0.00481523	0.000433866	0	0.000101138	0.0879562	0.0195503	0.0901027	12.5316	670695	3.01744e+06	3.09108e+06	-77.4684	0.0000000E+000	0.0000000E+000	0.0000000E+000	77.4684	0.0000000E+000	0.0000000E+000	0.0000000E+000	-77.4684	0.0000000E+000	0.0000000E+000	0.0000000E+000	-12.5316	0.0000000E+000	0.0000000E+000	0.0000000E+000	12.5316	4.49897	77.4684	-6.89142e-06	-2.78568e-06	26876.9
3.1604	11.3757	2.11468	11.5706	-10.5307	15.3042	0.273627	-0.00995899	23814	795.445	1	11	0.00481425	0.000416075	0	9.70611e-05	0.08497	0.0157954	0.0864257	10.5307	795445	4.27902e+06	4.35233e+06	-79.4693	0.0000000E+000	0.0000000E+000	0.0000000E+000	79.4693	0.0000000E+000	0.0000000E+000	0.0000000E+000	-79.4693	0.0000000E+000	0.0000000E+000	0.0000000E+000	-10.5307	0.0000000E+000	0.0000000E+000	0.0000000E+000	10.5307	5.37941	79.4693	-4.07675e-06	-2.72505e-06	27475.4
2.15577	11.8081	1.8911	11.9586	-9.09876	16.3198	0.273642	-0.00873419	39039.5	976.271	1	11	0.00481418	0.00040257	0	0.000102103	0.0825695	0.0132237	0.0836217	9.09876	976271	6.0959e+06	6.17358e+06	-80.9012	0.0000000E+000	0.0000000E+000	0.0000000E+000	80.9012	0.0000000E+000	0.0000000E+000	0.0000000E+000	-80.9012	0.0000000E+000	0.0000000E+000	0.0000000E+000	-9.09876	0.0000000E+000	0.0000000E+000	0.0000000E+000	9.09876	6.24407	80.9012	5.04174e-06	-2.39004e-06	31330
1.46631	12.1964	1.66496	12.3095	-7.77354	17.793	0.273642	-0.00795648	65191.5	1192.66	1	11	0.00481565	0.000391215	0	0.000107537	0.0804916	0.0109881	0.0812381	7.77354	1.19266e+06	8.73665e+06	8.81768e+06	-82.2265	0.0000000E+000	0.0000000E+000	0.0000000E+000	82.2265	0.0000000E+000	0.0000000E+000	0.0000000E+000	-82.2265	0.0000000E+000	0.0000000E+000	0.0000000E+000	-7.77354	0.0000000E+000	0.0000000E+000	0.0000000E+000	7.77354	7.32534	82.2265	5.43431e-06	-2.17722e-06	34392.3
1.00006	12.5452	1.55383	12.6411	-7.06061	19.9331	0.273638	-0.0061613	102421	1547.49	1	11	0.00481405	0.000380826	0	0.000103441	0.0785074	0.0097238	0.0791073	7.06061	1.54749e+06	1.2494e+07	1.25895e+07	-82.9394	0.0000000E+000	0.0000000E+000	0.0000000E+000	82.9394	0.0000000E+000	0.0000000E+000	0.0000000E+000	-82.9394	0.0000000E+000	0.0000000E+000	0.0000000E+000	-7.06061	0.0000000E+000	0.0000000E+000	0.0000000E+000	7.06061	8.07373	82.9394	-4.09603e-06	-1.68597e-06	44412.4
0.681362	12.8	1.45067	12.882	-6.46594	23.053	0.273643	-0.00438324	161017	2041.95	1	11	0.0048165	0.000373894	0	8.74156e-05	0.077134	0.00874185	0.0776278	6.46594	2.04195e+06	1.80172e+07	1.81326e+07	-83.5341	0.0000000E+000	0.0000000E+000	0.0000000E+000	83.5341	0.0000000E+000	0.0000000E+000	0.0000000E+000	-83.5341	0.0000000E+000	0.0000000E+000	0.0000000E+000	-6.46594	0.0000000E+000	0.0000000E+000	0.0000000E+000	6.46594	8.82353	83.5341	-1.60255e-05	-1.19944e-06	62429.3
0.464091	13.0432	1.40951	13.1192	-6.16772	27.6178	0.273642	-0.00441232	243304	2808.5	1	11	0.00481538	0.00036705	0	5.73279e-05	0.0757832	0.00818949	0.0762244	6.16772	2.8085e+06	2.5989e+07	2.61403e+07	-83.8323	0.0000000E+000	0.0000000E+000	0.0000000E+000	83.8323	0.0000000E+000	0.0000000E+000	0.0000000E+000	-83.8323	0.0000000E+000	0.0000000E+000	0.0000000E+000	-6.16772	0.0000000E+000	0.0000000E+000	0.0000000E+000	6.16772	9.25372	83.8323	-3.00877e-05	-1.2074e-06	62017.6
0.316193	13.3053	1.46589	13.3858	-6.28711	34.3001	0.273639	-0.00522255	343374	4117.94	1	11	0.00481451	0.000359673	0	2.21496e-05	0.0742567	0.0081811	0.074706	6.28711	4.11794e+06	3.73769e+07	3.76031e+07	-83.7129	0.0000000E+000	0.0000000E+000	0.0000000E+000	83.7129	0.0000000E+000	0.0000000E+000	0.0000000E+000	-83.7129	0.0000000E+000	0.0000000E+000	0.0000000E+000	-6.28711	0.0000000E+000	0.0000000E+000	0.0000000E+000	6.28711	9.07661	83.7129	-3.51783e-05	-1.42909e-06	52395.7
0.215268	13.5855	1.62845	13.6828	-6.83524	44.0978	0.273639	-0.00598338	454011	6430.83	1	11	0.00481666	0.000352024	0	-8.59083e-07	0.0725651	0.00869814	0.0730846	6.83524	6.43084e+06	5.36499e+07	5.4034e+07	-83.1648	0.0000000E+000	0.0000000E+000	0.0000000E+000	83.1648	0.0000000E+000	0.0000000E+000	0.0000000E+000	-83.1648	0.0000000E+000	0.0000000E+000	0.0000000E+000	-6.83524	0.0000000E+000	0.0000000E+000	0.0000000E+000	6.83524	8.34261	83.1648	-2.30087e-05	-1.63728e-06	45733.1
0.146929	13.8559	1.92088	13.9884	-7.89278	58.4333	0.273633	-0.00615691	563913	10633.6	1	11	0.00481707	0.000344362	0	9.49764e-06	0.0708106	0.0098167	0.0714879	7.89278	1.06336e+07	7.67029e+07	7.74365e+07	-82.1072	0.0000000E+000	0.0000000E+000	0.0000000E+000	82.1072	0.0000000E+000	0.0000000E+000	0.0000000E+000	-82.1072	0.0000000E+000	0.0000000E+000	0.0000000E+000	-7.89278	0.0000000E+000	0.0000000E+000	0.0000000E+000	7.89278	7.21328	82.1072	1.03567e-05	-1.68473e-06	44443.1
0.0999041	14.1747	2.28723	14.3581	-9.16623	79.502	0.27363	-0.00489884	696510	17674.8	1	11	0.00481619	0.000335434	0	6.84038e-05	0.068758	0.0110948	0.0696473	9.16623	1.76748e+07	1.09537e+08	1.10954e+08	-80.8338	0.0000000E+000	0.0000000E+000	0.0000000E+000	80.8338	0.0000000E+000	0.0000000E+000	0.0000000E+000	-80.8338	0.0000000E+000	0.0000000E+000	0.0000000E+000	-9.16623	0.0000000E+000	0.0000000E+000	0.0000000E+000	9.16623	6.19733	80.8338	5.89061e-05	-1.34047e-06	55856
0.0680626	14.6089	2.77527	14.8702	-10.7564	110.413	0.273627	-0.00305928	842571	29348.5	1	11	0.00481644	0.0003239	0	0.000164622	0.0660672	0.0125509	0.0672488	10.7564	2.93485e+07	1.54489e+08	1.57252e+08	-79.2436	0.0000000E+000	0.0000000E+000	0.0000000E+000	79.2436	0.0000000E+000	0.0000000E+000	0.0000000E+000	-79.2436	0.0000000E+000	0.0000000E+000	0.0000000E+000	-10.7564	0.0000000E+000	0.0000000E+000	0.0000000E+000	10.7564	5.26395	79.2436	9.62182e-05	-8.37102e-07	89441.6
0.0464052	15.2014	3.43685	15.5851	-12.7397	155.737	0.273624	0.000132646	997913	48528.2	1	11	0.00481626	0.00030903	0	0.000273615	0.0625842	0.0141495	0.0641638	12.7397	4.85282e+07	2.14644e+08	2.20061e+08	-77.2603	0.0000000E+000	0.0000000E+000	0.0000000E+000	77.2603	0.0000000E+000	0.0000000E+000	0.0000000E+000	-77.2603	0.0000000E+000	0.0000000E+000	0.0000000E+000	-12.7397	0.0000000E+000	0.0000000E+000	0.0000000E+000	12.7397	4.42307	77.2603	0.000108993	3.62951e-08	2.06281e+06
0.0315922	15.7782	4.35368	16.3678	-15.4258	254.035	0.273625	-1.64595e-05	1.15714e+06	81868.4	1	12	0.00481766	0.000294338	0	0.000275286	0.0588947	0.0162508	0.0610956	15.4258	8.18684e+07	2.96699e+08	3.07787e+08	-74.5742	0.0000000E+000	0.0000000E+000	0.0000000E+000	74.5742	0.0000000E+000	0.0000000E+000	0.0000000E+000	-74.5742	0.0000000E+000	0.0000000E+000	0.0000000E+000	-15.4258	0.0000000E+000	0.0000000E+000	0.0000000E+000	15.4258	3.6241	74.5742	1.67111e-06	-4.50373e-09	1.66241e+07
0.0215268	16.4842	5.56663	17.3987	-18.6596	351.704	0.273623	0.000831063	1.32815e+06	135956	1	12	0.00481399	0.000276687	0	3.30916e-05	0.0544544	0.018389	0.0574755	18.6596	1.35956e+08	4.026e+08	4.24936e+08	-71.3404	0.0000000E+000	0.0000000E+000	0.0000000E+000	71.3404	0.0000000E+000	0.0000000E+000	0.0000000E+000	-71.3404	0.0000000E+000	0.0000000E+000	0.0000000E+000	-18.6596	0.0000000E+000	0.0000000E+000	0.0000000E+000	18.6596	2.96125	71.3404	-0.000242195	2.27398e-07	329245
0.0146812	17.3578	7.00634	18.7185	-21.9811	494.899	0.273618	-0.000250775	1.54728e+06	216775	1	12	0.00481545	0.000257256	0	-0.000478196	0.0495397	0.0199963	0.0534232	21.9811	2.16775e+08	5.37047e+08	5.79147e+08	-68.0189	0.0000000E+000	0.0000000E+000	0.0000000E+000	68.0189	0.0000000E+000	0.0000000E+000	0.0000000E+000	-68.0189	0.0000000E+000	0.0000000E+000	0.0000000E+000	-21.9811	0.0000000E+000	0.0000000E+000	0.0000000E+000	21.9811	2.47744	68.0189	-0.000511287	-6.86165e-08	1.09109e+06
0.0100092	18.5469	8.99167	20.6116	-25.8644	704.92	0.27362	-0.00123375	1.76841e+06	336542	1	12	0.00481552	0.000233631	0	-0.00110634	0.0436564	0.0211649	0.0485164	25.8644	3.36542e+08	6.94177e+08	7.71454e+08	-64.1356	0.0000000E+000	0.0000000E+000	0.0000000E+000	64.1356	0.0000000E+000	0.0000000E+000	0.0000000E+000	-64.1356	0.0000000E+000	0.0000000E+000	0.0000000E+000	-25.8644	0.0000000E+000	0.0000000E+000	0.0000000E+000	25.8644	2.06268	64.1356	-0.000628141	-3.3758e-07	221778