File: txt/17701_R287_UA661_SOC00_C08.mpt
EC-Lab ASCII FILE

Nb header lines : 63

Potentio Electrochemical Impedance Spectroscopy

Run on channel : 8 (SN 65398)
User :
CE vs. WE compliance from -10 V to 10 V
Electrode connection : standard
Potential control : Ewe
Ewe ctrl range : min = -10.00 V, max = 10.00 V
Safety Limits :
	Do not start on E overload
Acquisition started on : 09/22/2025 09:04:51.253
Loaded Setting File :  C:\Users\Celltest\OneDrive - store-dot.com\Documents\EC-Lab\Data\Charmaine\17688_R288_UA670_SOC00_C03.mpr
Saved on :
	File : 17701_R287_UA661_SOC00_C08.mpr
	Directory : C:\Users\Celltest\OneDrive - store-dot.com\Documents\EC-Lab\Data\Charmaine\
	Host : 169.254.61.224
Device : VMP-3e (SN .003165)
Address : USB
EC-LAB for windows v11.62 (software)
Internet server v27.00 (firmware)
Command interpretor v12.03 (firmware)
Electrode material :
Initial state :
Electrolyte :
Comments :
Electrode surface area : 0.001 cm²
Characteristic mass : 0.001 g
Equivalent Weight : 0.000 g/eq.
Density : 0.000 g/cm3
Volume (V) : 0.001 cm³
Cycle Definition : Charge/Discharge alternance
Mode                Single sine
E (V)               0.0000
vs.                 Eoc
tE (h:m:s)          0:00:0.0000
record              0
dI                  0.000
unit dI             mA
dt (s)              0.000
fi                  100.000
unit fi             kHz
ff                  10.000
unit ff             mHz
Nd                  6
Points              per decade
spacing             Logarithmic
Va (mV)             5.0
pw                  0.10
Na                  2
corr                0
E range min (V)     -10.000
E range max (V)     10.000
I Range             Auto
Bandwidth           5
nc cycles           0
goto Ns'            0
nr cycles           0
inc. cycle          0

freq/Hz	Re(Z)/Ohm	-Im(Z)/Ohm	|Z|/Ohm	Phase(Z)/deg	time/s	<Ewe>/V	<I>/mA	Cs/µF	Cp/µF	cycle number	I Range	|Ewe|/V	|I|/A	Ns	(Q-Qo)/mA.h	Re(Y)/Ohm-1	Im(Y)/Ohm-1	|Y|/Ohm-1	Phase(Y)/deg	Re(C)/nF	Im(C)/nF	|C|/nF	Phase(C)/deg	Re(M)	Im(M)	|M|	Phase(M)/deg	Re(Permittivity)	Im(Permittivity)	|Permittivity|	Phase(Permittivity)/deg	Re(Resistivity)/Ohm.cm	Im(Resistivity)/Ohm.cm	|Resistivity|/Ohm.cm	Phase(Resistivity)/deg	Re(Conductivity)/mS/cm	Im(Conductivity)/mS/cm	|Conductivity|/mS/cm	Phase(Conductivity)/deg	Tan(Delta)	Loss Angle(Delta)/deg	dq/mA.h	Pwe/W	Rwe/Ohm
100004	1.14977	0.217032	1.17008	-10.6894	2.06649	0.276642	0.0515275	7.33298	0.252289	1	9	0.00472376	0.00403714	0	1.09002e-05	0.839813	0.158524	0.854644	10.6894	252.289	1336.55	1360.16	-79.3106	0.0000000E+000	0.0000000E+000	0.0000000E+000	79.3106	0.0000000E+000	0.0000000E+000	0.0000000E+000	-79.3106	0.0000000E+000	0.0000000E+000	0.0000000E+000	-10.6894	0.0000000E+000	0.0000000E+000	0.0000000E+000	10.6894	5.29772	79.3106	1.09002e-05	1.42547e-05	5368.82
68132	1.19981	0.238272	1.22324	-11.2323	2.5035	0.276641	0.0434919	9.80381	0.371977	1	9	0.00547832	0.00447852	0	2.47907e-05	0.801839	0.159238	0.817498	11.2323	371.977	1873.08	1909.66	-78.7677	0.0000000E+000	0.0000000E+000	0.0000000E+000	78.7677	0.0000000E+000	0.0000000E+000	0.0000000E+000	-78.7677	0.0000000E+000	0.0000000E+000	0.0000000E+000	-11.2323	0.0000000E+000	0.0000000E+000	0.0000000E+000	11.2323	5.03547	78.7677	1.38905e-05	1.20316e-05	6360.74
46420.4	1.25594	0.260279	1.28262	-11.7082	3.08149	0.276642	0.0467284	13.1726	0.542441	1	9	0.00503755	0.00392753	0	2.56649e-05	0.76343	0.158213	0.779651	11.7082	542.441	2617.46	2673.08	-78.2918	0.0000000E+000	0.0000000E+000	0.0000000E+000	78.2918	0.0000000E+000	0.0000000E+000	0.0000000E+000	-78.2918	0.0000000E+000	0.0000000E+000	0.0000000E+000	-11.7082	0.0000000E+000	0.0000000E+000	0.0000000E+000	11.7082	4.82534	78.2918	8.74162e-07	1.2927e-05	5920.2
31621.1	1.31548	0.298412	1.34891	-12.781	3.65948	0.276639	0.0451845	16.8666	0.825458	1	9	0.00511242	0.00379005	0	3.84971e-05	0.722973	0.164003	0.741341	12.781	825.458	3638.85	3731.3	-77.219	0.0000000E+000	0.0000000E+000	0.0000000E+000	77.219	0.0000000E+000	0.0000000E+000	0.0000000E+000	-77.219	0.0000000E+000	0.0000000E+000	0.0000000E+000	-12.781	0.0000000E+000	0.0000000E+000	0.0000000E+000	12.781	4.40828	77.219	1.28323e-05	1.24998e-05	6122.42
21544.7	1.38333	0.338619	1.42417	-13.7547	4.0965	0.276639	0.0484211	21.8157	1.23329	1	9	0.00534091	0.00375018	0	3.68383e-05	0.682025	0.166949	0.702161	13.7547	1233.29	5038.26	5187	-76.2453	0.0000000E+000	0.0000000E+000	0.0000000E+000	76.2453	0.0000000E+000	0.0000000E+000	0.0000000E+000	-76.2453	0.0000000E+000	0.0000000E+000	0.0000000E+000	-13.7547	0.0000000E+000	0.0000000E+000	0.0000000E+000	13.7547	4.08522	76.2453	-1.65887e-06	1.33952e-05	5713.18
14678.6	1.45545	0.382619	1.5049	-14.729	4.39249	0.276642	0.0512113	28.338	1.83183	1	9	0.00461331	0.00306552	0	3.85408e-05	0.642658	0.168946	0.664494	14.729	1831.83	6968.12	7204.88	-75.271	0.0000000E+000	0.0000000E+000	0.0000000E+000	75.271	0.0000000E+000	0.0000000E+000	0.0000000E+000	-75.271	0.0000000E+000	0.0000000E+000	0.0000000E+000	-14.729	0.0000000E+000	0.0000000E+000	0.0000000E+000	14.729	3.80392	75.271	1.70257e-06	1.41672e-05	5401.98
10002.2	1.52971	0.444201	1.5929	-16.1924	4.82948	0.276642	0.0510997	35.8215	2.78565	1	9	0.00482236	0.00302741	0	4.45431e-05	0.602882	0.175067	0.627786	16.1924	2785.65	9593.04	9989.31	-73.8076	0.0000000E+000	0.0000000E+000	0.0000000E+000	73.8076	0.0000000E+000	0.0000000E+000	0.0000000E+000	-73.8076	0.0000000E+000	0.0000000E+000	0.0000000E+000	-16.1924	0.0000000E+000	0.0000000E+000	0.0000000E+000	16.1924	3.44373	73.8076	6.00227e-06	1.41363e-05	5413.78
6811.07	1.62114	0.52078	1.70273	-17.8093	5.20753	0.276354	-0.136716	44.8694	4.19725	1	9	0.00453551	0.00266366	0	3.05968e-05	0.559147	0.179622	0.58729	17.8093	4197.25	13065.7	13723.3	-72.1907	0.0000000E+000	0.0000000E+000	0.0000000E+000	72.1907	0.0000000E+000	0.0000000E+000	0.0000000E+000	-72.1907	0.0000000E+000	0.0000000E+000	0.0000000E+000	-17.8093	0.0000000E+000	0.0000000E+000	0.0000000E+000	17.8093	3.11291	72.1907	-1.39463e-05	-3.77819e-05	2021.37
4641.49	1.71955	0.623105	1.82897	-19.9187	5.90167	0.276609	0.0745185	55.0303	6.38722	1	9	0.00492443	0.00269246	0	4.06114e-05	0.514047	0.186272	0.546756	19.9187	6387.22	17626.5	18748.1	-70.0813	0.0000000E+000	0.0000000E+000	0.0000000E+000	70.0813	0.0000000E+000	0.0000000E+000	0.0000000E+000	-70.0813	0.0000000E+000	0.0000000E+000	0.0000000E+000	-19.9187	0.0000000E+000	0.0000000E+000	0.0000000E+000	19.9187	2.75965	70.0813	1.00146e-05	2.06125e-05	3711.96
3161.01	1.83741	0.75399	1.9861	-22.311	6.36868	0.276623	0.0770668	66.7772	9.62409	1	9	0.00485136	0.00244266	0	5.10588e-05	0.465807	0.191146	0.503501	22.311	9624.09	23453.1	25350.9	-67.689	0.0000000E+000	0.0000000E+000	0.0000000E+000	67.689	0.0000000E+000	0.0000000E+000	0.0000000E+000	-67.689	0.0000000E+000	0.0000000E+000	0.0000000E+000	-22.311	0.0000000E+000	0.0000000E+000	0.0000000E+000	22.311	2.43691	67.689	1.04474e-05	2.13185e-05	3589.39
2155.69	1.97014	0.928066	2.17778	-25.2236	6.83567	0.276614	0.0734768	79.5527	14.4472	1	9	0.00480161	0.00220481	0	5.83824e-05	0.4154	0.195681	0.459182	25.2236	14447.2	30669.1	33901.5	-64.7764	0.0000000E+000	0.0000000E+000	0.0000000E+000	64.7764	0.0000000E+000	0.0000000E+000	0.0000000E+000	-64.7764	0.0000000E+000	0.0000000E+000	0.0000000E+000	-25.2236	0.0000000E+000	0.0000000E+000	0.0000000E+000	25.2236	2.12284	64.7764	7.32364e-06	2.03247e-05	3764.64
1468.59	2.13696	1.15158	2.4275	-28.3196	7.30292	0.276612	0.0747231	94.1078	21.1785	1	9	0.00477774	0.00196817	0	6.5883e-05	0.362643	0.195423	0.411947	28.3196	21178.5	39300.6	44643.7	-61.6804	0.0000000E+000	0.0000000E+000	0.0000000E+000	61.6804	0.0000000E+000	0.0000000E+000	0.0000000E+000	-61.6804	0.0000000E+000	0.0000000E+000	0.0000000E+000	-28.3196	0.0000000E+000	0.0000000E+000	0.0000000E+000	28.3196	1.85568	61.6804	7.50055e-06	2.06693e-05	3701.83
1000.32	2.35578	1.45699	2.76993	-31.7357	7.77171	0.276607	0.0759693	109.201	30.2133	1	9	0.00476448	0.00172007	0	7.57901e-05	0.307041	0.189897	0.361019	31.7357	30213.3	48851.5	57439.6	-58.2643	0.0000000E+000	0.0000000E+000	0.0000000E+000	58.2643	0.0000000E+000	0.0000000E+000	0.0000000E+000	-58.2643	0.0000000E+000	0.0000000E+000	0.0000000E+000	-31.7357	0.0000000E+000	0.0000000E+000	0.0000000E+000	31.7357	1.61688	58.2643	9.90717e-06	2.10137e-05	3641.04
681.09	2.62627	1.82402	3.19755	-34.7811	8.49145	0.276575	-0.0128652	128.111	41.6879	1	10	0.00485043	0.00151692	0	7.82013e-05	0.256865	0.1784	0.312739	34.7811	41687.9	60023.3	73079.9	-55.2189	0.0000000E+000	0.0000000E+000	0.0000000E+000	55.2189	0.0000000E+000	0.0000000E+000	0.0000000E+000	-55.2189	0.0000000E+000	0.0000000E+000	0.0000000E+000	-34.7811	0.0000000E+000	0.0000000E+000	0.0000000E+000	34.7811	1.43983	55.2189	2.41114e-06	-3.55821e-06	21497.9
463.961	2.98776	2.30402	3.77296	-37.6377	8.96018	0.276582	-0.0125732	148.886	55.5214	1	10	0.00480846	0.00127445	0	7.63744e-05	0.209885	0.161853	0.265044	37.6377	55521.4	71998.1	90919.5	-52.3623	0.0000000E+000	0.0000000E+000	0.0000000E+000	52.3623	0.0000000E+000	0.0000000E+000	0.0000000E+000	-52.3623	0.0000000E+000	0.0000000E+000	0.0000000E+000	-37.6377	0.0000000E+000	0.0000000E+000	0.0000000E+000	37.6377	1.29676	52.3623	-1.82691e-06	-3.47752e-06	21997.7
316.316	3.4831	2.89423	4.52864	-39.7244	9.42693	0.276584	-0.0131219	173.846	71.0063	1	10	0.00479233	0.00105823	0	7.52041e-05	0.169836	0.141123	0.220817	39.7244	71006.3	85453.5	111104	-50.2756	0.0000000E+000	0.0000000E+000	0.0000000E+000	50.2756	0.0000000E+000	0.0000000E+000	0.0000000E+000	-50.2756	0.0000000E+000	0.0000000E+000	0.0000000E+000	-39.7244	0.0000000E+000	0.0000000E+000	0.0000000E+000	39.7244	1.20346	50.2756	-1.17028e-06	-3.62931e-06	21078
215.345	4.10099	3.60764	5.46198	-41.338	9.89445	0.276583	-0.0127592	204.863	89.3736	1	10	0.00476137	0.00087173	0	7.45313e-05	0.137464	0.120927	0.183084	41.338	89373.6	101596	135312	-48.662	0.0000000E+000	0.0000000E+000	0.0000000E+000	48.662	0.0000000E+000	0.0000000E+000	0.0000000E+000	-48.662	0.0000000E+000	0.0000000E+000	0.0000000E+000	-41.338	0.0000000E+000	0.0000000E+000	0.0000000E+000	41.338	1.13675	48.662	-6.72763e-07	-3.52898e-06	21677.1
146.737	4.93389	4.46294	6.65291	-42.1308	10.3574	0.276581	-0.0137376	243.029	109.365	1	10	0.00474632	0.000713421	0	7.26877e-05	0.111472	0.100832	0.15031	42.1308	109365	120906	163030	-47.8692	0.0000000E+000	0.0000000E+000	0.0000000E+000	47.8692	0.0000000E+000	0.0000000E+000	0.0000000E+000	-47.8692	0.0000000E+000	0.0000000E+000	0.0000000E+000	-42.1308	0.0000000E+000	0.0000000E+000	0.0000000E+000	42.1308	1.10553	47.8692	-1.84367e-06	-3.79955e-06	20133.1
100.032	6.05354	5.43373	8.13454	-41.9115	10.8257	0.276587	-0.012616	292.808	130.651	1	10	0.0047412	0.000582848	0	7.07912e-05	0.0914837	0.0821167	0.122933	41.9115	130651	145554	195591	-48.0885	0.0000000E+000	0.0000000E+000	0.0000000E+000	48.0885	0.0000000E+000	0.0000000E+000	0.0000000E+000	-48.0885	0.0000000E+000	0.0000000E+000	0.0000000E+000	-41.9115	0.0000000E+000	0.0000000E+000	0.0000000E+000	41.9115	1.11407	48.0885	-1.89641e-06	-3.48942e-06	21923.5
68.104	7.52865	6.48122	9.93412	-40.7243	11.3043	0.276592	-0.0108565	360.571	153.478	1	10	0.00473934	0.000477077	0	6.92188e-05	0.0762884	0.0656746	0.100663	40.7243	153478	178281	235244	-49.2757	0.0000000E+000	0.0000000E+000	0.0000000E+000	49.2757	0.0000000E+000	0.0000000E+000	0.0000000E+000	-49.2757	0.0000000E+000	0.0000000E+000	0.0000000E+000	-40.7243	0.0000000E+000	0.0000000E+000	0.0000000E+000	40.7243	1.16161	49.2757	-1.57249e-06	-3.00281e-06	25477.1
46.4415	9.43384	7.46828	12.0321	-38.3668	11.7595	0.276571	-0.0160105	458.873	176.786	1	10	0.00473573	0.00039359	0	6.7344e-05	0.0651632	0.0515863	0.0831107	38.3668	176786	223314	284820	-51.6332	0.0000000E+000	0.0000000E+000	0.0000000E+000	51.6332	0.0000000E+000	0.0000000E+000	0.0000000E+000	-51.6332	0.0000000E+000	0.0000000E+000	0.0000000E+000	-38.3668	0.0000000E+000	0.0000000E+000	0.0000000E+000	38.3668	1.26319	51.6332	-1.87479e-06	-4.42804e-06	17274.4
31.6296	11.6907	8.19141	14.2749	-35.018	12.2054	0.276566	-0.018661	614.283	202.274	1	10	0.00473554	0.000331739	0	6.53537e-05	0.0573715	0.0401987	0.070053	35.018	202274	288684	352496	-54.982	0.0000000E+000	0.0000000E+000	0.0000000E+000	54.982	0.0000000E+000	0.0000000E+000	0.0000000E+000	-54.982	0.0000000E+000	0.0000000E+000	0.0000000E+000	-35.018	0.0000000E+000	0.0000000E+000	0.0000000E+000	35.018	1.4272	54.982	-1.9903e-06	-5.16099e-06	14820.6
21.5517	14.2478	8.64733	16.6666	-31.2547	12.8853	0.276587	-0.00789213	853.996	229.894	1	11	0.00473702	0.000284223	0	6.34765e-05	0.0512925	0.0311307	0.0600003	31.2547	229894	378784	443090	-58.7453	0.0000000E+000	0.0000000E+000	0.0000000E+000	58.7453	0.0000000E+000	0.0000000E+000	0.0000000E+000	-58.7453	0.0000000E+000	0.0000000E+000	0.0000000E+000	-31.2547	0.0000000E+000	0.0000000E+000	0.0000000E+000	31.2547	1.64765	58.7453	-1.87715e-06	-2.18286e-06	35045.9
14.6852	16.7573	8.66169	18.8635	-27.334	13.363	0.276598	-0.00658018	1251.24	263.815	1	11	0.00473379	0.00025095	0	6.27339e-05	0.0470933	0.0243421	0.0530124	27.334	263815	510388	574539	-62.666	0.0000000E+000	0.0000000E+000	0.0000000E+000	62.666	0.0000000E+000	0.0000000E+000	0.0000000E+000	-62.666	0.0000000E+000	0.0000000E+000	0.0000000E+000	-27.334	0.0000000E+000	0.0000000E+000	0.0000000E+000	27.334	1.93465	62.666	-7.42647e-07	-1.82007e-06	42035.1
10.0032	19.1598	8.38657	20.9149	-23.6398	13.8317	0.276593	-0.00684912	1897.13	305.038	1	11	0.00473554	0.000226419	0	6.09145e-05	0.0438006	0.0191722	0.0478128	23.6398	305038	696885	760721	-66.3602	0.0000000E+000	0.0000000E+000	0.0000000E+000	66.3602	0.0000000E+000	0.0000000E+000	0.0000000E+000	-66.3602	0.0000000E+000	0.0000000E+000	0.0000000E+000	-23.6398	0.0000000E+000	0.0000000E+000	0.0000000E+000	23.6398	2.28458	66.3602	-1.81935e-06	-1.89442e-06	40383.7
6.81719	21.3576	7.88117	22.7654	-20.2545	14.1894	0.276571	-0.00812682	2962.27	355.022	1	11	0.00473269	0.00020789	0	6.03885e-05	0.0412101	0.0152069	0.0439264	20.2545	355022	962097	1.02551e+06	-69.7455	0.0000000E+000	0.0000000E+000	0.0000000E+000	69.7455	0.0000000E+000	0.0000000E+000	0.0000000E+000	-69.7455	0.0000000E+000	0.0000000E+000	0.0000000E+000	-20.2545	0.0000000E+000	0.0000000E+000	0.0000000E+000	20.2545	2.70996	69.7455	-5.25966e-07	-2.24764e-06	34031.9
4.63925	23.3079	7.36824	24.4448	-17.5431	14.6913	0.276594	-0.006832	4655.95	423.022	1	11	0.00473625	0.000193753	0	5.76719e-05	0.0390058	0.0123308	0.0409085	17.5431	423022	1.33814e+06	1.40341e+06	-72.4569	0.0000000E+000	0.0000000E+000	0.0000000E+000	72.4569	0.0000000E+000	0.0000000E+000	0.0000000E+000	-72.4569	0.0000000E+000	0.0000000E+000	0.0000000E+000	-17.5431	0.0000000E+000	0.0000000E+000	0.0000000E+000	17.5431	3.16329	72.4569	-2.71661e-06	-1.88969e-06	40485.1
3.1604	25.0811	6.87844	26.0072	-15.3362	15.4013	0.276591	-0.00675848	7321.3	512.133	1	11	0.00474034	0.000182271	0	5.91919e-05	0.0370817	0.0101696	0.038451	15.3362	512133	1.86741e+06	1.93636e+06	-74.6638	0.0000000E+000	0.0000000E+000	0.0000000E+000	74.6638	0.0000000E+000	0.0000000E+000	0.0000000E+000	-74.6638	0.0000000E+000	0.0000000E+000	0.0000000E+000	-15.3362	0.0000000E+000	0.0000000E+000	0.0000000E+000	15.3362	3.64633	74.6638	1.51997e-06	-1.86934e-06	40925.1
2.15577	26.7038	6.30331	27.4376	-13.2813	16.4177	0.276588	-0.00511297	11712.5	618.151	1	11	0.00473802	0.000172683	0	6.00736e-05	0.0354715	0.0083729	0.0364463	13.2813	618151	2.61877e+06	2.69074e+06	-76.7187	0.0000000E+000	0.0000000E+000	0.0000000E+000	76.7187	0.0000000E+000	0.0000000E+000	0.0000000E+000	-76.7187	0.0000000E+000	0.0000000E+000	0.0000000E+000	-13.2813	0.0000000E+000	0.0000000E+000	0.0000000E+000	13.2813	4.23646	76.7187	8.81704e-07	-1.41418e-06	54095.3
1.46631	28.1682	5.86883	28.7731	-11.7692	17.891	0.276609	-0.00441224	18494.5	769.437	1	11	0.00473896	0.000164701	0	5.63944e-05	0.0340241	0.0070889	0.0347547	11.7692	769437	3.69301e+06	3.77231e+06	-78.2308	0.0000000E+000	0.0000000E+000	0.0000000E+000	78.2308	0.0000000E+000	0.0000000E+000	0.0000000E+000	-78.2308	0.0000000E+000	0.0000000E+000	0.0000000E+000	-11.7692	0.0000000E+000	0.0000000E+000	0.0000000E+000	11.7692	4.79962	78.2308	-3.67921e-06	-1.22047e-06	62691.3
1.00006	29.4677	5.41067	29.9603	-10.4044	21.0822	0.276625	-0.00384627	29413.1	959.291	1	12	0.004738	0.000158142	0	4.67032e-05	0.0328286	0.00602779	0.0333775	10.4044	959290	5.22451e+06	5.31185e+06	-79.5956	0.0000000E+000	0.0000000E+000	0.0000000E+000	79.5956	0.0000000E+000	0.0000000E+000	0.0000000E+000	-79.5956	0.0000000E+000	0.0000000E+000	0.0000000E+000	-10.4044	0.0000000E+000	0.0000000E+000	0.0000000E+000	10.4044	5.44622	79.5956	-9.69121e-06	-1.06397e-06	71920.4
0.681362	30.7032	4.95243	31.1	-9.1629	24.2021	0.276638	-0.00354741	47165.4	1196.02	1	12	0.00473893	0.000152377	0	3.88142e-05	0.031744	0.00512032	0.0321543	9.1629	1.19602e+06	7.41488e+06	7.51072e+06	-80.8371	0.0000000E+000	0.0000000E+000	0.0000000E+000	80.8371	0.0000000E+000	0.0000000E+000	0.0000000E+000	-80.8371	0.0000000E+000	0.0000000E+000	0.0000000E+000	-9.1629	0.0000000E+000	0.0000000E+000	0.0000000E+000	9.1629	6.19962	80.8371	-7.88897e-06	-9.8135e-07	77983.2
0.464091	31.7702	4.60546	32.1023	-8.24824	28.7669	0.276631	-0.00414757	74463.6	1532.57	1	12	0.0047406	0.000147672	0	3.47346e-05	0.0308282	0.00446891	0.0311504	8.24824	1.53257e+06	1.05722e+07	1.06827e+07	-81.7518	0.0000000E+000	0.0000000E+000	0.0000000E+000	81.7518	0.0000000E+000	0.0000000E+000	0.0000000E+000	-81.7518	0.0000000E+000	0.0000000E+000	0.0000000E+000	-8.24824	0.0000000E+000	0.0000000E+000	0.0000000E+000	8.24824	6.89837	81.7518	-4.07961e-06	-1.14735e-06	66697
0.316193	32.6994	4.38086	32.9916	-7.63067	35.4492	0.27661	-0.00441033	114897	2025.91	1	12	0.00474213	0.000143738	0	3.69083e-05	0.0300423	0.00402488	0.0303108	7.63067	2.02591e+06	1.51217e+07	1.52568e+07	-82.3693	0.0000000E+000	0.0000000E+000	0.0000000E+000	82.3693	0.0000000E+000	0.0000000E+000	0.0000000E+000	-82.3693	0.0000000E+000	0.0000000E+000	0.0000000E+000	-7.63067	0.0000000E+000	0.0000000E+000	0.0000000E+000	7.63067	7.46417	82.3693	2.17371e-06	-1.21994e-06	62718.7
0.215268	33.5238	4.10345	33.774	-6.97854	45.247	0.27662	-0.00398749	180174	2659.66	1	12	0.0047426	0.000140422	0	4.52986e-05	0.0293892	0.00359737	0.0296086	6.97854	2.65966e+06	2.17285e+07	2.18907e+07	-83.0215	0.0000000E+000	0.0000000E+000	0.0000000E+000	83.0215	0.0000000E+000	0.0000000E+000	0.0000000E+000	-83.0215	0.0000000E+000	0.0000000E+000	0.0000000E+000	-6.97854	0.0000000E+000	0.0000000E+000	0.0000000E+000	6.97854	8.16965	83.0215	8.39024e-06	-1.10302e-06	69372
0.146929	34.2714	4.1173	34.5178	-6.85058	59.5837	0.276617	-0.00318195	263088	3743.17	1	12	0.00474055	0.000137336	0	5.32497e-05	0.0287637	0.00345562	0.0289706	6.85058	3.74317e+06	3.11572e+07	3.13812e+07	-83.1494	0.0000000E+000	0.0000000E+000	0.0000000E+000	83.1494	0.0000000E+000	0.0000000E+000	0.0000000E+000	-83.1494	0.0000000E+000	0.0000000E+000	0.0000000E+000	-6.85058	0.0000000E+000	0.0000000E+000	0.0000000E+000	6.85058	8.32375	83.1494	7.95116e-06	-8.80183e-07	86933.1
0.0999041	35.0099	4.36999	35.2816	-7.11495	80.6536	0.276607	-0.00221999	364550	5592.69	1	12	0.00473334	0.000134159	0	4.89687e-05	0.0281251	0.00351062	0.0283434	7.11495	5.59269e+06	4.48055e+07	4.51532e+07	-82.8851	0.0000000E+000	0.0000000E+000	0.0000000E+000	82.8851	0.0000000E+000	0.0000000E+000	0.0000000E+000	-82.8851	0.0000000E+000	0.0000000E+000	0.0000000E+000	-7.11495	0.0000000E+000	0.0000000E+000	0.0000000E+000	7.11495	8.01144	82.8851	-4.28103e-06	-6.14066e-07	124598
0.0680626	35.8126	4.90369	36.1468	-7.79681	111.566	0.276615	-0.00128466	476857	8775.97	1	12	0.00474182	0.000131182	0	2.04728e-05	0.0274092	0.00375304	0.027665	7.79681	8.77597e+06	6.40926e+07	6.46907e+07	-82.2032	0.0000000E+000	0.0000000E+000	0.0000000E+000	82.2032	0.0000000E+000	0.0000000E+000	0.0000000E+000	-82.2032	0.0000000E+000	0.0000000E+000	0.0000000E+000	-7.79681	0.0000000E+000	0.0000000E+000	0.0000000E+000	7.79681	7.3032	82.2032	-2.84958e-05	-3.55356e-07	215321
0.0464052	36.5672	5.68039	37.0058	-8.82982	156.889	0.276616	-0.000918637	603775	14226.3	1	12	0.00474075	0.000128108	0	-5.84946e-05	0.0267025	0.004148	0.0270228	8.82982	1.42263e+07	9.15812e+07	9.26795e+07	-81.1702	0.0000000E+000	0.0000000E+000	0.0000000E+000	81.1702	0.0000000E+000	0.0000000E+000	0.0000000E+000	-81.1702	0.0000000E+000	0.0000000E+000	0.0000000E+000	-8.82982	0.0000000E+000	0.0000000E+000	0.0000000E+000	8.82982	6.43745	81.1702	-7.89674e-05	-2.5411e-07	301116
0.0315922	37.5807	6.73265	38.179	-10.1569	223.449	0.276615	-0.00109388	748263	23269	1	12	0.00473591	0.000124045	0	-0.000188268	0.025782	0.00461889	0.0261924	10.1569	2.3269e+07	1.29884e+08	1.31952e+08	-79.8431	0.0000000E+000	0.0000000E+000	0.0000000E+000	79.8431	0.0000000E+000	0.0000000E+000	0.0000000E+000	-79.8431	0.0000000E+000	0.0000000E+000	0.0000000E+000	-10.1569	0.0000000E+000	0.0000000E+000	0.0000000E+000	10.1569	5.58186	79.8431	-0.000129774	-3.02582e-07	252876
0.0215268	39.0025	8.29193	39.8742	-12.0024	321.118	0.276613	-0.00149457	891631	38557.9	1	12	0.00474171	0.000118917	0	-0.000338807	0.0245306	0.00521522	0.0250789	12.0024	3.85579e+07	1.81364e+08	1.85417e+08	-77.9976	0.0000000E+000	0.0000000E+000	0.0000000E+000	77.9976	0.0000000E+000	0.0000000E+000	0.0000000E+000	-77.9976	0.0000000E+000	0.0000000E+000	0.0000000E+000	-12.0024	0.0000000E+000	0.0000000E+000	0.0000000E+000	12.0024	4.70366	77.9976	-0.000150539	-4.13418e-07	185079
0.0146812	40.5908	10.4851	41.9232	-14.4836	464.314	0.276611	-0.00190653	1.03392e+06	64673.1	1	12	0.00473809	0.000113018	0	-0.000435926	0.0230951	0.00596574	0.0238531	14.4836	6.46731e+07	2.50368e+08	2.58586e+08	-75.5164	0.0000000E+000	0.0000000E+000	0.0000000E+000	75.5164	0.0000000E+000	0.0000000E+000	0.0000000E+000	-75.5164	0.0000000E+000	0.0000000E+000	0.0000000E+000	-14.4836	0.0000000E+000	0.0000000E+000	0.0000000E+000	14.4836	3.87128	75.5164	-9.71186e-05	-5.27367e-07	145086

0.0100092	42.2663	13.1333	44.2597	-17.2614	674.335	0.276621	-0.00167547	1.21074e+06	106605	1	12	0.00473977	0.00010709	0	-0.000372515	0.0215763	0.00670432	0.0225939	17.2614	1.06605e+08	3.43083e+08	3.59264e+08	-72.7386	0.0000000E+000	0.0000000E+000	0.0000000E+000	72.7386	0.0000000E+000	0.0000000E+000	0.0000000E+000	-72.7386	0.0000000E+000	0.0000000E+000	0.0000000E+000	-17.2614	0.0000000E+000	0.0000000E+000	0.0000000E+000	17.2614	3.21827	72.7386	6.34112e-05	-4.63471e-07	165100