File: txt/17707_R287_UA662_SOC00_C06.mpt
EC-Lab ASCII FILE

Nb header lines : 63

Potentio Electrochemical Impedance Spectroscopy

Run on channel : 6 (SN 65795)
User :
CE vs. WE compliance from -10 V to 10 V
Electrode connection : standard
Potential control : Ewe
Ewe ctrl range : min = -10.00 V, max = 10.00 V
Safety Limits :
	Do not start on E overload
Acquisition started on : 09/22/2025 10:03:34.717
Loaded Setting File :  C:\Users\Celltest\OneDrive - store-dot.com\Documents\EC-Lab\Data\Charmaine\17689_R288_UA670_SOC00_C04.mpr
Saved on :
	File : 17707_R287_UA662_SOC00_C06.mpr
	Directory : C:\Users\Celltest\OneDrive - store-dot.com\Documents\EC-Lab\Data\Charmaine\
	Host : 169.254.61.224
Device : VMP-3e (SN .003165)
Address : USB
EC-LAB for windows v11.62 (software)
Internet server v27.00 (firmware)
Command interpretor v12.03 (firmware)
Electrode material :
Initial state :
Electrolyte :
Comments :
Electrode surface area : 0.001 cm²
Characteristic mass : 0.001 g
Equivalent Weight : 0.000 g/eq.
Density : 0.000 g/cm3
Volume (V) : 0.001 cm³
Cycle Definition : Charge/Discharge alternance
Mode                Single sine
E (V)               0.0000
vs.                 Eoc
tE (h:m:s)          0:00:0.0000
record              0
dI                  0.000
unit dI             mA
dt (s)              0.000
fi                  100.000
unit fi             kHz
ff                  10.000
unit ff             mHz
Nd                  6
Points              per decade
spacing             Logarithmic
Va (mV)             5.0
pw                  0.10
Na                  2
corr                0
E range min (V)     -10.000
E range max (V)     10.000
I Range             Auto
Bandwidth           5
nc cycles           0
goto Ns'            0
nr cycles           0
inc. cycle          0

freq/Hz	Re(Z)/Ohm	-Im(Z)/Ohm	|Z|/Ohm	Phase(Z)/deg	time/s	<Ewe>/V	<I>/mA	Cs/µF	Cp/µF	cycle number	I Range	|Ewe|/V	|I|/A	Ns	(Q-Qo)/mA.h	Re(Y)/Ohm-1	Im(Y)/Ohm-1	|Y|/Ohm-1	Phase(Y)/deg	Re(C)/nF	Im(C)/nF	|C|/nF	Phase(C)/deg	Re(M)	Im(M)	|M|	Phase(M)/deg	Re(Permittivity)	Im(Permittivity)	|Permittivity|	Phase(Permittivity)/deg	Re(Resistivity)/Ohm.cm	Im(Resistivity)/Ohm.cm	|Resistivity|/Ohm.cm	Phase(Resistivity)/deg	Re(Conductivity)/mS/cm	Im(Conductivity)/mS/cm	|Conductivity|/mS/cm	Phase(Conductivity)/deg	Tan(Delta)	Loss Angle(Delta)/deg	dq/mA.h	Pwe/W	Rwe/Ohm
100004	1.21312	0.242189	1.23706	-11.2902	1.8645	0.26953	0.0227529	6.57128	0.25187	1	9	0.00460663	0.00372385	0	-3.86818e-06	0.792724	0.15826	0.808367	11.2902	251.869	1261.61	1286.51	-78.7099	0.0000000E+000	0.0000000E+000	0.0000000E+000	78.7099	0.0000000E+000	0.0000000E+000	0.0000000E+000	-78.7099	0.0000000E+000	0.0000000E+000	0.0000000E+000	-11.2902	0.0000000E+000	0.0000000E+000	0.0000000E+000	11.2902	5.00899	78.7099	-3.86818e-06	6.1326e-06	11846
68132	1.27026	0.264067	1.29742	-11.7436	2.30148	0.269533	0.0250811	8.84617	0.366457	1	9	0.00549273	0.00423359	0	6.01517e-06	0.754629	0.156875	0.770762	11.7436	366.457	1762.8	1800.48	-78.2564	0.0000000E+000	0.0000000E+000	0.0000000E+000	78.2564	0.0000000E+000	0.0000000E+000	0.0000000E+000	-78.2564	0.0000000E+000	0.0000000E+000	0.0000000E+000	-11.7436	0.0000000E+000	0.0000000E+000	0.0000000E+000	11.7436	4.81038	78.2564	9.88335e-06	6.7602e-06	10746.5
46420.4	1.33178	0.292145	1.36345	-12.3726	2.87949	0.269536	0.028657	11.7358	0.538805	1	9	0.00505944	0.00371076	0	5.8082e-06	0.716399	0.157152	0.733433	12.3726	538.805	2456.22	2514.62	-77.6274	0.0000000E+000	0.0000000E+000	0.0000000E+000	77.6274	0.0000000E+000	0.0000000E+000	0.0000000E+000	-77.6274	0.0000000E+000	0.0000000E+000	0.0000000E+000	-12.3726	0.0000000E+000	0.0000000E+000	0.0000000E+000	12.3726	4.55864	77.6274	-2.06973e-07	7.7241e-06	9405.57
31621.1	1.39583	0.330385	1.43439	-13.3166	3.31648	0.269533	0.0284522	15.2343	0.808215	1	9	0.00550557	0.00383826	0	4.4902e-06	0.678414	0.160577	0.697159	13.3166	808.215	3414.58	3508.93	-76.6834	0.0000000E+000	0.0000000E+000	0.0000000E+000	76.6834	0.0000000E+000	0.0000000E+000	0.0000000E+000	-76.6834	0.0000000E+000	0.0000000E+000	0.0000000E+000	-13.3166	0.0000000E+000	0.0000000E+000	0.0000000E+000	13.3166	4.22484	76.6834	-1.318e-06	7.66881e-06	9473.21
21544.7	1.47685	0.373474	1.52334	-14.1917	3.75349	0.269537	0.0197357	19.7797	1.1889	1	9	0.00535213	0.0035134	0	3.46608e-07	0.636416	0.16094	0.65645	14.1917	1188.9	4701.33	4849.33	-75.8083	0.0000000E+000	0.0000000E+000	0.0000000E+000	75.8083	0.0000000E+000	0.0000000E+000	0.0000000E+000	-75.8083	0.0000000E+000	0.0000000E+000	0.0000000E+000	-14.1917	0.0000000E+000	0.0000000E+000	0.0000000E+000	14.1917	3.95436	75.8083	-4.14359e-06	5.31949e-06	13657.4
14678.6	1.5565	0.418066	1.61166	-15.0345	4.1905	0.269533	0.0217844	25.9353	1.74514	1	9	0.00515584	0.00319908	0	-2.6845e-06	0.599238	0.160952	0.620477	15.0345	1745.14	6497.33	6727.62	-74.9655	0.0000000E+000	0.0000000E+000	0.0000000E+000	74.9655	0.0000000E+000	0.0000000E+000	0.0000000E+000	-74.9655	0.0000000E+000	0.0000000E+000	0.0000000E+000	-15.0345	0.0000000E+000	0.0000000E+000	0.0000000E+000	15.0345	3.72309	74.9655	-3.03111e-06	5.87161e-06	12372.7
10002.2	1.64714	0.477561	1.71497	-16.1687	4.48748	0.269532	0.0247644	33.3192	2.58369	1	9	0.00523133	0.00305039	0	1.53588e-06	0.560037	0.162374	0.583101	16.1687	2583.69	8911.28	9278.27	-73.8313	0.0000000E+000	0.0000000E+000	0.0000000E+000	73.8313	0.0000000E+000	0.0000000E+000	0.0000000E+000	-73.8313	0.0000000E+000	0.0000000E+000	0.0000000E+000	-16.1687	0.0000000E+000	0.0000000E+000	0.0000000E+000	16.1687	3.44906	73.8313	4.22039e-06	6.67481e-06	10883.9
6811.07	1.74917	0.547894	1.83297	-17.3922	4.86552	0.269389	-0.0541124	42.6489	3.81058	1	9	0.00515529	0.00281253	0	-8.68952e-07	0.52062	0.163074	0.545562	17.3922	3810.58	12165.4	12748.2	-72.6078	0.0000000E+000	0.0000000E+000	0.0000000E+000	72.6078	0.0000000E+000	0.0000000E+000	0.0000000E+000	-72.6078	0.0000000E+000	0.0000000E+000	0.0000000E+000	-17.3922	0.0000000E+000	0.0000000E+000	0.0000000E+000	17.3922	3.19253	72.6078	-2.40483e-06	-1.45773e-05	4978.33
4641.49	1.8607	0.642484	1.9685	-19.0494	5.33667	0.269492	0.0367961	53.3705	5.68532	1	9	0.00505759	0.00256926	0	5.21691e-06	0.480182	0.165803	0.508001	19.0494	5685.32	16465.3	17419.2	-70.9506	0.0000000E+000	0.0000000E+000	0.0000000E+000	70.9506	0.0000000E+000	0.0000000E+000	0.0000000E+000	-70.9506	0.0000000E+000	0.0000000E+000	0.0000000E+000	-19.0494	0.0000000E+000	0.0000000E+000	0.0000000E+000	19.0494	2.8961	70.9506	6.08587e-06	9.91625e-06	7323.92
3161.01	1.97257	0.762312	2.11475	-21.1293	5.80367	0.26949	0.0409867	66.0482	8.58239	1	9	0.00499129	0.00236023	0	8.0673e-06	0.441078	0.170457	0.472869	21.1293	8582.39	22208	23808.7	-68.8707	0.0000000E+000	0.0000000E+000	0.0000000E+000	68.8707	0.0000000E+000	0.0000000E+000	0.0000000E+000	-68.8707	0.0000000E+000	0.0000000E+000	0.0000000E+000	-21.1293	0.0000000E+000	0.0000000E+000	0.0000000E+000	21.1293	2.58762	68.8707	2.85039e-06	1.10455e-05	6575.06
2155.69	2.11611	0.92754	2.31046	-23.669	6.2707	0.269495	0.041918	79.5978	12.8283	1	9	0.0049346	0.00213576	0	1.43647e-05	0.396406	0.173754	0.432814	23.669	12828.3	29266.7	31954.7	-66.331	0.0000000E+000	0.0000000E+000	0.0000000E+000	66.331	0.0000000E+000	0.0000000E+000	0.0000000E+000	-66.331	0.0000000E+000	0.0000000E+000	0.0000000E+000	-23.669	0.0000000E+000	0.0000000E+000	0.0000000E+000	23.669	2.28142	66.331	6.29738e-06	1.12967e-05	6429.1
1468.59	2.28067	1.13977	2.54962	-26.5537	6.73794	0.269499	0.0414337	95.0828	19.0015	1	9	0.00489337	0.00191926	0	2.03834e-05	0.350843	0.175335	0.392216	26.5537	19001.5	38021.8	42505.5	-63.4463	0.0000000E+000	0.0000000E+000	0.0000000E+000	63.4463	0.0000000E+000	0.0000000E+000	0.0000000E+000	-63.4463	0.0000000E+000	0.0000000E+000	0.0000000E+000	-26.5537	0.0000000E+000	0.0000000E+000	0.0000000E+000	26.5537	2.00099	63.4463	6.01875e-06	1.11663e-05	6504.34
1000.32	2.46838	1.42746	2.85141	-30.0408	7.20671	0.269498	0.0384165	111.459	27.9336	1	9	0.00486831	0.00170733	0	2.33235e-05	0.303593	0.175568	0.350704	30.0408	27933.6	48302.9	55798.4	-59.9592	0.0000000E+000	0.0000000E+000	0.0000000E+000	59.9592	0.0000000E+000	0.0000000E+000	0.0000000E+000	-59.9592	0.0000000E+000	0.0000000E+000	0.0000000E+000	-30.0408	0.0000000E+000	0.0000000E+000	0.0000000E+000	30.0408	1.72921	59.9592	2.94004e-06	1.03532e-05	7015.18
681.09	2.73272	1.82265	3.28479	-33.7022	7.92644	0.269503	-0.01511	128.207	39.4734	1	10	0.00494054	0.00150407	0	2.41378e-05	0.253269	0.168923	0.304434	33.7022	39473.4	59183	71139.1	-56.2978	0.0000000E+000	0.0000000E+000	0.0000000E+000	56.2978	0.0000000E+000	0.0000000E+000	0.0000000E+000	-56.2978	0.0000000E+000	0.0000000E+000	0.0000000E+000	-33.7022	0.0000000E+000	0.0000000E+000	0.0000000E+000	33.7022	1.49931	56.2979	8.14307e-07	-4.07219e-06	17836.1
463.961	3.07338	2.32575	3.85418	-37.1162	8.39519	0.269512	-0.0144597	147.495	53.7076	1	10	0.00489603	0.00127031	0	2.27645e-05	0.206895	0.156566	0.259458	37.1162	53707.6	70972.4	89003.4	-52.8838	0.0000000E+000	0.0000000E+000	0.0000000E+000	52.8838	0.0000000E+000	0.0000000E+000	0.0000000E+000	-52.8838	0.0000000E+000	0.0000000E+000	0.0000000E+000	-37.1162	0.0000000E+000	0.0000000E+000	0.0000000E+000	37.1162	1.32146	52.8838	-1.37325e-06	-3.89707e-06	18638.8
316.316	3.54408	2.95799	4.61629	-39.8493	8.86194	0.269507	-0.0151212	170.099	69.8407	1	10	0.00486936	0.00105482	0	2.06745e-05	0.166309	0.138806	0.216624	39.8493	69840.7	83678.8	108995	-50.1507	0.0000000E+000	0.0000000E+000	0.0000000E+000	50.1507	0.0000000E+000	0.0000000E+000	0.0000000E+000	-50.1507	0.0000000E+000	0.0000000E+000	0.0000000E+000	-39.8493	0.0000000E+000	0.0000000E+000	0.0000000E+000	39.8493	1.19814	50.1506	-2.09e-06	-4.07526e-06	17823.2
215.345	4.17553	3.74723	5.61042	-41.9057	9.32941	0.269505	-0.0148417	197.231	87.9846	1	10	0.00484362	0.000863325	0	1.81073e-05	0.132654	0.119048	0.17824	41.9057	87984.6	98040.9	131732	-48.0943	0.0000000E+000	0.0000000E+000	0.0000000E+000	48.0943	0.0000000E+000	0.0000000E+000	0.0000000E+000	-48.0943	0.0000000E+000	0.0000000E+000	0.0000000E+000	-41.9057	0.0000000E+000	0.0000000E+000	0.0000000E+000	41.9057	1.1143	48.0943	-2.56723e-06	-3.9999e-06	18158.6
146.737	5.05681	4.66808	6.88203	-42.711	9.7924	0.2695	-0.0155162	232.349	106.902	1	10	0.00483165	0.000702067	0	1.65779e-05	0.106769	0.098561	0.145306	42.711	106902	115804	157602	-47.289	0.0000000E+000	0.0000000E+000	0.0000000E+000	47.289	0.0000000E+000	0.0000000E+000	0.0000000E+000	-47.289	0.0000000E+000	0.0000000E+000	0.0000000E+000	-42.711	0.0000000E+000	0.0000000E+000	0.0000000E+000	42.711	1.08327	47.289	-1.52939e-06	-4.18161e-06	17368.9
100.032	6.23264	5.76123	8.48749	-42.7492	10.2607	0.269499	-0.0146591	276.163	127.244	1	10	0.00482397	0.000568362	0	1.52892e-05	0.0865193	0.0799754	0.11782	42.7492	127244	137656	187457	-47.2508	0.0000000E+000	0.0000000E+000	0.0000000E+000	47.2508	0.0000000E+000	0.0000000E+000	0.0000000E+000	-47.2508	0.0000000E+000	0.0000000E+000	0.0000000E+000	-42.7492	0.0000000E+000	0.0000000E+000	0.0000000E+000	42.7492	1.08182	47.2508	-1.28873e-06	-3.95062e-06	18384.5
68.104	7.84549	6.87731	10.4331	-41.2376	10.7383	0.269501	-0.0131796	339.804	147.653	1	10	0.00481506	0.000461518	0	1.39394e-05	0.0720767	0.063182	0.095849	41.2376	147653	168439	223993	-48.7624	0.0000000E+000	0.0000000E+000	0.0000000E+000	48.7624	0.0000000E+000	0.0000000E+000	0.0000000E+000	-48.7624	0.0000000E+000	0.0000000E+000	0.0000000E+000	-41.2376	0.0000000E+000	0.0000000E+000	0.0000000E+000	41.2376	1.14078	48.7624	-1.34974e-06	-3.55193e-06	20448.3
46.4415	9.93385	7.89792	12.6909	-38.4865	11.1935	0.269498	-0.0169994	433.911	168.051	1	10	0.00481689	0.000379555	0	1.21666e-05	0.0616785	0.0490376	0.0787967	38.4865	168051	211372	270036	-51.5135	0.0000000E+000	0.0000000E+000	0.0000000E+000	51.5135	0.0000000E+000	0.0000000E+000	0.0000000E+000	-51.5135	0.0000000E+000	0.0000000E+000	0.0000000E+000	-38.4865	0.0000000E+000	0.0000000E+000	0.0000000E+000	38.4865	1.25778	51.5135	-1.77285e-06	-4.5813e-06	15853.4
31.6296	12.4389	8.53735	15.0868	-34.4636	11.6395	0.269485	-0.0184844	589.392	188.737	1	10	0.00481237	0.000318979	0	9.86966e-06	0.0546495	0.0375084	0.0662831	34.4636	188737	274988	333526	-55.5364	0.0000000E+000	0.0000000E+000	0.0000000E+000	55.5364	0.0000000E+000	0.0000000E+000	0.0000000E+000	-55.5364	0.0000000E+000	0.0000000E+000	0.0000000E+000	-34.4636	0.0000000E+000	0.0000000E+000	0.0000000E+000	34.4636	1.45699	55.5364	-2.29693e-06	-4.98128e-06	14579.1
21.5517	15.234	8.74657	17.5664	-29.8621	12.3194	0.269516	-0.0109791	844.307	209.32	1	11	0.00481277	0.000273976	0	7.19194e-06	0.0493684	0.0283447	0.0569269	29.8621	209320	364576	420393	-60.1379	0.0000000E+000	0.0000000E+000	0.0000000E+000	60.1379	0.0000000E+000	0.0000000E+000	0.0000000E+000	-60.1379	0.0000000E+000	0.0000000E+000	0.0000000E+000	-29.8621	0.0000000E+000	0.0000000E+000	0.0000000E+000	29.8621	1.74172	60.1379	-2.67772e-06	-2.95904e-06	24548.2
14.6852	17.81	8.39785	19.6906	-25.2451	12.797	0.269523	-0.0101428	1290.55	234.743	1	11	0.0048095	0.000244254	0	6.00523e-06	0.0459353	0.0216596	0.0507857	25.2451	234743	497838	550406	-64.7549	0.0000000E+000	0.0000000E+000	0.0000000E+000	64.7549	0.0000000E+000	0.0000000E+000	0.0000000E+000	-64.7549	0.0000000E+000	0.0000000E+000	0.0000000E+000	-25.2451	0.0000000E+000	0.0000000E+000	0.0000000E+000	25.2451	2.12078	64.7549	-1.18671e-06	-2.73373e-06	26572.7
10.0032	20.1052	7.7226	21.5374	-21.0122	13.2647	0.269512	-0.0104862	2060.24	264.886	1	11	0.00481306	0.000223475	0	6.30527e-06	0.0433434	0.0166486	0.0464309	21.0122	264886	689611	738734	-68.9878	0.0000000E+000	0.0000000E+000	0.0000000E+000	68.9878	0.0000000E+000	0.0000000E+000	0.0000000E+000	-68.9878	0.0000000E+000	0.0000000E+000	0.0000000E+000	-21.0122	0.0000000E+000	0.0000000E+000	0.0000000E+000	21.0122	2.60343	68.9878	3.00042e-07	-2.82617e-06	25701.5
6.81719	21.9883	6.90979	23.0484	-17.4452	13.6224	0.269494	-0.0119628	3378.7	303.666	1	11	0.00480681	0.000208552	0	3.59873e-06	0.0413913	0.0130071	0.0433869	17.4452	303666	966325	1.01292e+06	-72.5548	0.0000000E+000	0.0000000E+000	0.0000000E+000	72.5548	0.0000000E+000	0.0000000E+000	0.0000000E+000	-72.5548	0.0000000E+000	0.0000000E+000	0.0000000E+000	-17.4452	0.0000000E+000	0.0000000E+000	0.0000000E+000	17.4452	3.1822	72.5548	-2.70655e-06	-3.22391e-06	22527.7
4.63925	23.5779	6.07315	24.3475	-14.4442	14.1243	0.269513	-0.0103016	5648.82	351.461	1	11	0.00481128	0.000197609	0	5.0163e-06	0.0397737	0.0102448	0.041072	14.4442	351461	1.36448e+06	1.40902e+06	-75.5558	0.0000000E+000	0.0000000E+000	0.0000000E+000	75.5558	0.0000000E+000	0.0000000E+000	0.0000000E+000	-75.5558	0.0000000E+000	0.0000000E+000	0.0000000E+000	-14.4442	0.0000000E+000	0.0000000E+000	0.0000000E+000	14.4442	3.88232	75.5558	1.41758e-06	-2.77641e-06	26162.3
3.1604	24.9478	5.39444	25.5243	-12.2012	14.8333	0.26951	-0.00971634	9335.39	416.981	1	11	0.00481235	0.00018854	0	1.61e-06	0.0382933	0.00828013	0.0391783	12.2012	416981	1.92842e+06	1.97299e+06	-77.7988	0.0000000E+000	0.0000000E+000	0.0000000E+000	77.7988	0.0000000E+000	0.0000000E+000	0.0000000E+000	-77.7988	0.0000000E+000	0.0000000E+000	0.0000000E+000	-12.2012	0.0000000E+000	0.0000000E+000	0.0000000E+000	12.2012	4.62472	77.7988	-3.40631e-06	-2.61865e-06	27737.8
2.15577	26.0295	4.73018	26.4558	-10.2996	15.8497	0.269517	-0.00853649	15607.8	498.948	1	11	0.00481119	0.000181858	0	-4.46218e-06	0.0371898	0.00675829	0.0377989	10.2996	498948	2.74563e+06	2.7906e+06	-79.7004	0.0000000E+000	0.0000000E+000	0.0000000E+000	79.7004	0.0000000E+000	0.0000000E+000	0.0000000E+000	-79.7004	0.0000000E+000	0.0000000E+000	0.0000000E+000	-10.2996	0.0000000E+000	0.0000000E+000	0.0000000E+000	10.2996	5.50285	79.7004	-6.07218e-06	-2.30073e-06	31572.4
1.46631	27.0692	4.21583	27.3955	-8.85229	17.3231	0.269525	-0.00823503	25746.1	609.703	1	11	0.00481405	0.000175724	0	-8.65214e-06	0.0360675	0.00561725	0.0365023	8.85229	609703	3.91481e+06	3.962e+06	-81.1477	0.0000000E+000	0.0000000E+000	0.0000000E+000	81.1477	0.0000000E+000	0.0000000E+000	0.0000000E+000	-81.1477	0.0000000E+000	0.0000000E+000	0.0000000E+000	-8.85229	0.0000000E+000	0.0000000E+000	0.0000000E+000	8.85229	6.42084	81.1477	-4.18996e-06	-2.21955e-06	32729
1.00006	27.8979	3.78888	28.1541	-7.73415	20.5141	0.269526	-0.00777517	42003.1	760.714	1	12	0.00481455	0.000171007	0	-1.05084e-05	0.0351957	0.00478001	0.0355189	7.73415	760714	5.60122e+06	5.65264e+06	-82.2659	0.0000000E+000	0.0000000E+000	0.0000000E+000	82.2659	0.0000000E+000	0.0000000E+000	0.0000000E+000	-82.2659	0.0000000E+000	0.0000000E+000	0.0000000E+000	-7.73415	0.0000000E+000	0.0000000E+000	0.0000000E+000	7.73415	7.36311	82.2659	-1.85624e-06	-2.09561e-06	34665
0.681362	28.6316	3.42326	28.8355	-6.81806	23.6341	0.269514	-0.00784065	68234.2	961.672	1	12	0.00481204	0.000166879	0	-9.55242e-06	0.0344342	0.00411704	0.0346795	6.81806	961672	8.04326e+06	8.10055e+06	-83.1819	0.0000000E+000	0.0000000E+000	0.0000000E+000	83.1819	0.0000000E+000	0.0000000E+000	0.0000000E+000	-83.1819	0.0000000E+000	0.0000000E+000	0.0000000E+000	-6.81806	0.0000000E+000	0.0000000E+000	0.0000000E+000	6.81806	8.36383	83.1819	9.55962e-07	-2.11317e-06	34374
0.464091	29.3383	3.16257	29.5082	-6.15254	28.1988	0.269523	-0.00666799	108437	1245.58	1	12	0.00481573	0.000163199	0	-1.33145e-05	0.0336936	0.00363206	0.0338888	6.15254	1.24558e+06	1.15549e+07	1.16218e+07	-83.8475	0.0000000E+000	0.0000000E+000	0.0000000E+000	83.8475	0.0000000E+000	0.0000000E+000	0.0000000E+000	-83.8475	0.0000000E+000	0.0000000E+000	0.0000000E+000	-6.15254	0.0000000E+000	0.0000000E+000	0.0000000E+000	6.15254	9.27672	83.8475	-3.76205e-06	-1.79718e-06	40420.5
0.316193	29.9125	3.03259	30.0659	-5.78898	34.88	0.269514	-0.00599996	165979	1688.63	1	12	0.0048139	0.000160112	0	-2.88299e-05	0.0330907	0.0033548	0.0332603	5.78898	1.68863e+06	1.66561e+07	1.67415e+07	-84.211	0.0000000E+000	0.0000000E+000	0.0000000E+000	84.211	0.0000000E+000	0.0000000E+000	0.0000000E+000	-84.211	0.0000000E+000	0.0000000E+000	0.0000000E+000	-5.78898	0.0000000E+000	0.0000000E+000	0.0000000E+000	5.78898	9.86368	84.211	-1.55154e-05	-1.61708e-06	44919.4
0.215268	30.4378	3.00051	30.5854	-5.62992	44.6778	0.269518	-0.00508931	246403	2371.42	1	12	0.00481573	0.000157452	0	-6.09137e-05	0.0325377	0.0032075	0.0326954	5.62992	2.37142e+06	2.40562e+07	2.41728e+07	-84.3701	0.0000000E+000	0.0000000E+000	0.0000000E+000	84.3701	0.0000000E+000	0.0000000E+000	0.0000000E+000	-84.3701	0.0000000E+000	0.0000000E+000	0.0000000E+000	-5.62992	0.0000000E+000	0.0000000E+000	0.0000000E+000	5.62992	10.1442	84.3701	-3.20838e-05	-1.37166e-06	52957.6
0.146929	30.9459	3.11161	31.102	-5.74179	59.0134	0.269523	-0.00452814	348119	3484.36	1	12	0.00481097	0.000154684	0	-0.000109889	0.031991	0.00321669	0.0321523	5.74179	3.48436e+06	3.4653e+07	3.48277e+07	-84.2582	0.0000000E+000	0.0000000E+000	0.0000000E+000	84.2582	0.0000000E+000	0.0000000E+000	0.0000000E+000	-84.2582	0.0000000E+000	0.0000000E+000	0.0000000E+000	-5.74179	0.0000000E+000	0.0000000E+000	0.0000000E+000	5.74179	9.94531	84.2582	-4.89753e-05	-1.22044e-06	59521.8
0.0999041	31.5101	3.39219	31.6921	-6.14447	80.0833	0.269517	-0.00454203	469630	5380.4	1	12	0.00481615	0.000151967	0	-0.000168429	0.0313723	0.00337736	0.0315536	6.14447	5.3804e+06	4.99785e+07	5.02673e+07	-83.8555	0.0000000E+000	0.0000000E+000	0.0000000E+000	83.8555	0.0000000E+000	0.0000000E+000	0.0000000E+000	-83.8555	0.0000000E+000	0.0000000E+000	0.0000000E+000	-6.14447	0.0000000E+000	0.0000000E+000	0.0000000E+000	6.14447	9.28899	83.8555	-5.85402e-05	-1.22415e-06	59338.4
0.0680626	32.0882	3.97827	32.3339	-7.06742	110.995	0.269524	-0.00415581	587783	8897.95	1	12	0.00481456	0.000148901	0	-0.00022097	0.0306923	0.00380521	0.0309273	7.06742	8.89795e+06	7.17697e+07	7.23192e+07	-82.9326	0.0000000E+000	0.0000000E+000	0.0000000E+000	82.9326	0.0000000E+000	0.0000000E+000	0.0000000E+000	-82.9326	0.0000000E+000	0.0000000E+000	0.0000000E+000	-7.06742	0.0000000E+000	0.0000000E+000	0.0000000E+000	7.06742	8.06587	82.9326	-5.25407e-05	-1.12009e-06	64854.9
0.0464052	32.6923	4.86622	33.0525	-8.46627	156.319	0.269516	-0.00407427	704793	15277	1	12	0.00481465	0.000145667	0	-0.000235951	0.0299252	0.00445435	0.0302549	8.46627	1.5277e+07	1.02634e+08	1.03765e+08	-81.5337	0.0000000E+000	0.0000000E+000	0.0000000E+000	81.5337	0.0000000E+000	0.0000000E+000	0.0000000E+000	-81.5337	0.0000000E+000	0.0000000E+000	0.0000000E+000	-8.46627	0.0000000E+000	0.0000000E+000	0.0000000E+000	8.46627	6.71821	81.5337	-1.49809e-05	-1.09808e-06	66150.8
0.0315922	33.3699	5.97288	33.9002	-10.1479	222.881	0.269516	-0.00309959	843444	26183	1	12	0.00481805	0.000142125	0	-0.000182646	0.0290369	0.00519732	0.0294983	10.1479	2.6183e+07	1.46282e+08	1.48606e+08	-79.8521	0.0000000E+000	0.0000000E+000	0.0000000E+000	79.8521	0.0000000E+000	0.0000000E+000	0.0000000E+000	-79.8521	0.0000000E+000	0.0000000E+000	0.0000000E+000	-10.1479	0.0000000E+000	0.0000000E+000	0.0000000E+000	10.1479	5.5869	79.8521	5.33047e-05	-8.35389e-07	86951.9
0.0215268	34.361	7.38805	35.1463	-12.1346	320.55	0.269508	-0.00185848	1.00072e+06	44219.2	1	12	0.00481677	0.000137049	0	-6.41019e-05	0.0278167	0.00598094	0.0284525	12.1346	4.42192e+07	2.05659e+08	2.10359e+08	-77.8654	0.0000000E+000	0.0000000E+000	0.0000000E+000	77.8654	0.0000000E+000	0.0000000E+000	0.0000000E+000	-77.8654	0.0000000E+000	0.0000000E+000	0.0000000E+000	-12.1346	0.0000000E+000	0.0000000E+000	0.0000000E+000	12.1346	4.6509	77.8654	0.000118544	-5.00876e-07	145015
0.0146812	35.7511	9.37728	36.9604	-14.6972	463.745	0.269509	-0.000554725	1.15607e+06	74415.2	1	12	0.00481478	0.000130269	0	6.21898e-05	0.0261707	0.0068644	0.027056	14.6972	7.44152e+07	2.8371e+08	2.93307e+08	-75.3028	0.0000000E+000	0.0000000E+000	0.0000000E+000	75.3028	0.0000000E+000	0.0000000E+000	0.0000000E+000	-75.3028	0.0000000E+000	0.0000000E+000	0.0000000E+000	-14.6972	0.0000000E+000	0.0000000E+000	0.0000000E+000	14.6972	3.81252	75.3028	0.000126292	-1.49503e-07	485842

0.0100092	37.2962	12.1341	39.2205	-18.022	673.766	0.269504	-3.36967e-05	1.31043e+06	125431	1	12	0.00481466	0.000122759	0	5.46842e-05	0.0242459	0.00788829	0.0254969	18.022	1.25431e+08	3.85533e+08	4.05424e+08	-71.978	0.0000000E+000	0.0000000E+000	0.0000000E+000	71.978	0.0000000E+000	0.0000000E+000	0.0000000E+000	-71.978	0.0000000E+000	0.0000000E+000	0.0000000E+000	-18.022	0.0000000E+000	0.0000000E+000	0.0000000E+000	18.022	3.07366	71.978	-7.50559e-06	-9.0814e-09	7.99793e+06