File: txt/17704_R287_UA661_SOC00_C03.mpt
EC-Lab ASCII FILE

Nb header lines : 63

Potentio Electrochemical Impedance Spectroscopy

Run on channel : 3 (SN 65921)
User :
CE vs. WE compliance from -10 V to 10 V
Electrode connection : standard
Potential control : Ewe
Ewe ctrl range : min = -10.00 V, max = 10.00 V
Safety Limits :
	Do not start on E overload
Acquisition started on : 09/22/2025 10:02:59.869
Loaded Setting File :  C:\Users\Celltest\OneDrive - store-dot.com\Documents\EC-Lab\Data\Gyutae\17738_R277_UA674_SOC00_C02.mpr
Saved on :
	File : 17704_R287_UA661_SOC00_C03.mpr
	Directory : C:\Users\Celltest\OneDrive - store-dot.com\Documents\EC-Lab\Data\Charmaine\
	Host : 169.254.61.224
Device : VMP-3e (SN .003165)
Address : USB
EC-LAB for windows v11.62 (software)
Internet server v27.00 (firmware)
Command interpretor v12.03 (firmware)
Electrode material :
Initial state :
Electrolyte :
Comments :
Electrode surface area : 0.001 cm²
Characteristic mass : 0.001 g
Equivalent Weight : 0.000 g/eq.
Density : 0.000 g/cm3
Volume (V) : 0.001 cm³
Cycle Definition : Charge/Discharge alternance
Mode                Single sine
E (V)               0.0000
vs.                 Eoc
tE (h:m:s)          0:00:0.0000
record              0
dI                  0.000
unit dI             mA
dt (s)              0.000
fi                  100.000
unit fi             kHz
ff                  10.000
unit ff             mHz
Nd                  6
Points              per decade
spacing             Logarithmic
Va (mV)             5.0
pw                  0.10
Na                  2
corr                0
E range min (V)     -10.000
E range max (V)     10.000
I Range             Auto
Bandwidth           5
nc cycles           0
goto Ns'            0
nr cycles           0
inc. cycle          0

freq/Hz	Re(Z)/Ohm	-Im(Z)/Ohm	|Z|/Ohm	Phase(Z)/deg	time/s	<Ewe>/V	<I>/mA	Cs/µF	Cp/µF	cycle number	I Range	|Ewe|/V	|I|/A	Ns	(Q-Qo)/mA.h	Re(Y)/Ohm-1	Im(Y)/Ohm-1	|Y|/Ohm-1	Phase(Y)/deg	Re(C)/nF	Im(C)/nF	|C|/nF	Phase(C)/deg	Re(M)	Im(M)	|M|	Phase(M)/deg	Re(Permittivity)	Im(Permittivity)	|Permittivity|	Phase(Permittivity)/deg	Re(Resistivity)/Ohm.cm	Im(Resistivity)/Ohm.cm	|Resistivity|/Ohm.cm	Phase(Resistivity)/deg	Re(Conductivity)/mS/cm	Im(Conductivity)/mS/cm	|Conductivity|/mS/cm	Phase(Conductivity)/deg	Tan(Delta)	Loss Angle(Delta)/deg	dq/mA.h	Pwe/W	Rwe/Ohm
100004	0.978999	0.192302	0.997707	-11.113	1.71548	0.270604	0.0510299	8.276	0.307455	1	9	0.00469222	0.00470301	0	1.10066e-05	0.983505	0.193187	1.0023	11.113	307.456	1565.24	1595.15	-78.887	0.0000000E+000	0.0000000E+000	0.0000000E+000	78.887	0.0000000E+000	0.0000000E+000	0.0000000E+000	-78.887	0.0000000E+000	0.0000000E+000	0.0000000E+000	-11.113	0.0000000E+000	0.0000000E+000	0.0000000E+000	11.113	5.09094	78.887	1.10066e-05	1.38089e-05	5302.84
68132	1.0251	0.214824	1.04737	-11.8358	2.29349	0.270622	0.0486431	10.8739	0.457458	1	9	0.00500914	0.00478259	0	1.34287e-05	0.934474	0.195832	0.954773	11.8358	457.458	2182.91	2230.33	-78.1642	0.0000000E+000	0.0000000E+000	0.0000000E+000	78.1642	0.0000000E+000	0.0000000E+000	0.0000000E+000	-78.1642	0.0000000E+000	0.0000000E+000	0.0000000E+000	-11.8358	0.0000000E+000	0.0000000E+000	0.0000000E+000	11.8358	4.77183	78.1642	2.42211e-06	1.31639e-05	5563.42
46420.4	1.07294	0.241371	1.09975	-12.6784	2.87149	0.270621	0.050601	14.2045	0.684238	1	9	0.00514062	0.00467433	0	1.84958e-05	0.887124	0.19957	0.909295	12.6784	684.237	3041.56	3117.57	-77.3216	0.0000000E+000	0.0000000E+000	0.0000000E+000	77.3216	0.0000000E+000	0.0000000E+000	0.0000000E+000	-77.3216	0.0000000E+000	0.0000000E+000	0.0000000E+000	-12.6784	0.0000000E+000	0.0000000E+000	0.0000000E+000	12.6784	4.44518	77.3216	5.06712e-06	1.36937e-05	5348.14
31621.1	1.13012	0.270629	1.16207	-13.467	3.30848	0.270621	0.0602973	18.5981	1.00868	1	9	0.00530709	0.00456694	0	2.13916e-05	0.836874	0.200406	0.860535	13.467	1008.68	4212.14	4331.23	-76.533	0.0000000E+000	0.0000000E+000	0.0000000E+000	76.533	0.0000000E+000	0.0000000E+000	0.0000000E+000	-76.533	0.0000000E+000	0.0000000E+000	0.0000000E+000	-13.467	0.0000000E+000	0.0000000E+000	0.0000000E+000	13.467	4.17589	76.533	2.89574e-06	1.63177e-05	4488.11
21544.7	1.18361	0.307795	1.22298	-14.5767	3.88649	0.2706	0.0585072	24.0004	1.52021	1	9	0.00532247	0.00435205	0	2.52532e-05	0.791355	0.205789	0.817675	14.5767	1520.21	5845.9	6040.33	-75.4233	0.0000000E+000	0.0000000E+000	0.0000000E+000	75.4233	0.0000000E+000	0.0000000E+000	0.0000000E+000	-75.4233	0.0000000E+000	0.0000000E+000	0.0000000E+000	-14.5767	0.0000000E+000	0.0000000E+000	0.0000000E+000	14.5767	3.84546	75.4233	3.86163e-06	1.5832e-05	4625.06
14678.6	1.2513	0.353759	1.30034	-15.7864	4.32448	0.2706	0.0564001	30.6498	2.26845	1	9	0.0051974	0.00399695	0	2.56928e-05	0.740023	0.209215	0.769028	15.7864	2268.45	8023.81	8338.31	-74.2136	0.0000000E+000	0.0000000E+000	0.0000000E+000	74.2136	0.0000000E+000	0.0000000E+000	0.0000000E+000	-74.2136	0.0000000E+000	0.0000000E+000	0.0000000E+000	-15.7864	0.0000000E+000	0.0000000E+000	0.0000000E+000	15.7864	3.53714	74.2136	4.39623e-07	1.52619e-05	4797.86
10002.2	1.3237	0.407404	1.38498	-17.1072	4.90249	0.270603	0.0589734	39.0569	3.3796	1	9	0.00417008	0.00301094	0	3.57236e-05	0.690089	0.212394	0.722034	17.1072	3379.6	10980.7	11489	-72.8928	0.0000000E+000	0.0000000E+000	0.0000000E+000	72.8928	0.0000000E+000	0.0000000E+000	0.0000000E+000	-72.8928	0.0000000E+000	0.0000000E+000	0.0000000E+000	-17.1072	0.0000000E+000	0.0000000E+000	0.0000000E+000	17.1072	3.2491	72.8928	1.00308e-05	1.59584e-05	4588.56
6811.07	1.40231	0.482394	1.48296	-18.9832	5.28052	0.270611	0.0382941	48.4399	5.12564	1	9	0.00596882	0.00402494	0	3.66012e-05	0.637653	0.219353	0.674327	18.9832	5125.64	14900.1	15757.1	-71.0168	0.0000000E+000	0.0000000E+000	0.0000000E+000	71.0168	0.0000000E+000	0.0000000E+000	0.0000000E+000	-71.0168	0.0000000E+000	0.0000000E+000	0.0000000E+000	-18.9832	0.0000000E+000	0.0000000E+000	0.0000000E+000	18.9832	2.90698	71.0168	8.77555e-07	1.03628e-05	7066.65
4641.49	1.49366	0.583782	1.60369	-21.3475	6.19768	0.270625	0.0535658	58.7371	7.78346	1	9	0.00481776	0.00300417	0	4.38985e-05	0.580779	0.226991	0.623562	21.3475	7783.46	19914.7	21381.7	-68.6525	0.0000000E+000	0.0000000E+000	0.0000000E+000	68.6525	0.0000000E+000	0.0000000E+000	0.0000000E+000	-68.6525	0.0000000E+000	0.0000000E+000	0.0000000E+000	-21.3475	0.0000000E+000	0.0000000E+000	0.0000000E+000	21.3475	2.55859	68.6525	7.29734e-06	1.44962e-05	5052.19
3161.01	1.59936	0.715586	1.75214	-24.1047	6.8867	0.270603	0.0530064	70.361	11.7359	1	9	0.00471486	0.00269091	0	5.643e-05	0.520962	0.233089	0.570729	24.1047	11735.9	26230.1	28735.9	-65.8953	0.0000000E+000	0.0000000E+000	0.0000000E+000	65.8953	0.0000000E+000	0.0000000E+000	0.0000000E+000	-65.8953	0.0000000E+000	0.0000000E+000	0.0000000E+000	-24.1047	0.0000000E+000	0.0000000E+000	0.0000000E+000	24.1047	2.23503	65.8953	1.25314e-05	1.43437e-05	5105.1
2155.69	1.72702	0.879688	1.93815	-26.9928	7.3537	0.270613	0.0545914	83.9277	17.2896	1	9	0.00452059	0.00233242	0	6.15727e-05	0.459748	0.234181	0.515955	26.9928	17289.6	33943.3	38093	-63.0072	0.0000000E+000	0.0000000E+000	0.0000000E+000	63.0072	0.0000000E+000	0.0000000E+000	0.0000000E+000	-63.0072	0.0000000E+000	0.0000000E+000	0.0000000E+000	-26.9928	0.0000000E+000	0.0000000E+000	0.0000000E+000	26.9928	1.96322	63.0072	5.14279e-06	1.47731e-05	4957.06
1468.59	1.88053	1.10669	2.18201	-30.4768	8.04394	0.270633	0.0613229	97.9249	25.1903	1	9	0.00522188	0.00239315	0	6.92711e-05	0.394973	0.232441	0.458293	30.4768	25190.3	42804.3	49666.4	-59.5232	0.0000000E+000	0.0000000E+000	0.0000000E+000	59.5232	0.0000000E+000	0.0000000E+000	0.0000000E+000	-59.5232	0.0000000E+000	0.0000000E+000	0.0000000E+000	-30.4768	0.0000000E+000	0.0000000E+000	0.0000000E+000	30.4768	1.69924	59.5232	7.69837e-06	1.6596e-05	4413.25
1000.32	2.08703	1.40598	2.51644	-33.9672	8.73567	0.270618	0.0552254	113.162	35.3254	1	9	0.00507935	0.00201847	0	7.67477e-05	0.329576	0.222027	0.397387	33.9672	35325.4	52436.8	63225.8	-56.0328	0.0000000E+000	0.0000000E+000	0.0000000E+000	56.0328	0.0000000E+000	0.0000000E+000	0.0000000E+000	-56.0328	0.0000000E+000	0.0000000E+000	0.0000000E+000	-33.9672	0.0000000E+000	0.0000000E+000	0.0000000E+000	33.9672	1.4844	56.0328	7.47657e-06	1.4945e-05	4900.24
681.09	2.35322	1.77542	2.94784	-37.0333	9.20143	0.270599	0.0490532	131.618	47.7429	1	9	0.00479402	0.00162628	0	8.23568e-05	0.270803	0.204312	0.339231	37.0333	47742.9	63280.5	79270.5	-52.9667	0.0000000E+000	0.0000000E+000	0.0000000E+000	52.9667	0.0000000E+000	0.0000000E+000	0.0000000E+000	-52.9667	0.0000000E+000	0.0000000E+000	0.0000000E+000	-37.0333	0.0000000E+000	0.0000000E+000	0.0000000E+000	37.0333	1.32544	52.9667	5.60908e-06	1.32738e-05	5516.43
463.961	2.69091	2.25005	3.50766	-39.9012	9.92421	0.27061	-0.00418069	152.457	62.7328	1	10	0.00484159	0.00138029	0	8.64637e-05	0.218707	0.182876	0.28509	39.9012	62732.8	75024.3	97796	-50.0988	0.0000000E+000	0.0000000E+000	0.0000000E+000	50.0988	0.0000000E+000	0.0000000E+000	0.0000000E+000	-50.0988	0.0000000E+000	0.0000000E+000	0.0000000E+000	-39.9012	0.0000000E+000	0.0000000E+000	0.0000000E+000	39.9012	1.19593	50.0988	4.10688e-06	-1.13134e-06	64728.5
316.316	3.17168	2.83902	4.25671	-41.8322	10.3909	0.270628	-0.00363814	177.227	78.8351	1	10	0.00472109	0.00110909	0	8.61692e-05	0.175042	0.156682	0.234923	41.8322	78835.1	88072.5	118202	-48.1678	0.0000000E+000	0.0000000E+000	0.0000000E+000	48.1678	0.0000000E+000	0.0000000E+000	0.0000000E+000	-48.1678	0.0000000E+000	0.0000000E+000	0.0000000E+000	-41.8322	0.0000000E+000	0.0000000E+000	0.0000000E+000	41.8322	1.11717	48.1678	-2.94479e-07	-9.84584e-07	74386.5
215.345	3.81226	3.55788	5.21458	-43.0233	10.8585	0.270626	-0.00368848	207.728	96.7029	1	10	0.00459683	0.000881534	0	8.51362e-05	0.140199	0.130844	0.19177	43.0233	96702.9	103617	141732	-46.9767	0.0000000E+000	0.0000000E+000	0.0000000E+000	46.9767	0.0000000E+000	0.0000000E+000	0.0000000E+000	-46.9767	0.0000000E+000	0.0000000E+000	0.0000000E+000	-43.0233	0.0000000E+000	0.0000000E+000	0.0000000E+000	43.0233	1.0715	46.9767	-1.03295e-06	-9.982e-07	73370.6
146.737	4.65208	4.38418	6.39241	-43.3018	11.3214	0.27061	-0.00432613	247.395	116.369	1	10	0.00451806	0.000706785	0	8.4631e-05	0.113846	0.10729	0.156435	43.3018	116369	123480	169674	-46.6982	0.0000000E+000	0.0000000E+000	0.0000000E+000	46.6982	0.0000000E+000	0.0000000E+000	0.0000000E+000	-46.6982	0.0000000E+000	0.0000000E+000	0.0000000E+000	-43.3018	0.0000000E+000	0.0000000E+000	0.0000000E+000	43.3018	1.06111	46.6982	-5.05179e-07	-1.1707e-06	62552.4
100.032	5.78507	5.30576	7.84972	-42.5254	12.0127	0.270609	-0.00286628	299.87	137	1	10	0.00500908	0.000638122	0	8.35082e-05	0.0938858	0.0861071	0.127393	42.5254	137000	149376	202687	-47.4746	0.0000000E+000	0.0000000E+000	0.0000000E+000	47.4746	0.0000000E+000	0.0000000E+000	0.0000000E+000	-47.4746	0.0000000E+000	0.0000000E+000	0.0000000E+000	-42.5254	0.0000000E+000	0.0000000E+000	0.0000000E+000	42.5254	1.09034	47.4746	-1.12287e-06	-7.75641e-07	94411.3
68.104	7.25426	6.26178	9.58301	-40.8003	12.4913	0.270613	-0.00328392	373.207	159.346	1	10	0.00498403	0.00052009	0	8.27595e-05	0.0789931	0.0681857	0.104351	40.8003	159346	184602	243863	-49.1997	0.0000000E+000	0.0000000E+000	0.0000000E+000	49.1997	0.0000000E+000	0.0000000E+000	0.0000000E+000	-49.1997	0.0000000E+000	0.0000000E+000	0.0000000E+000	-40.8003	0.0000000E+000	0.0000000E+000	0.0000000E+000	40.8003	1.1585	49.1997	-7.4863e-07	-8.88671e-07	82405.6
46.4415	9.06791	7.1641	11.5564	-38.3105	12.9465	0.270614	-0.00367732	478.356	183.835	1	10	0.00496971	0.000430038	0	8.21204e-05	0.0678983	0.0536431	0.0865318	38.3105	183835	232687	296544	-51.6895	0.0000000E+000	0.0000000E+000	0.0000000E+000	51.6895	0.0000000E+000	0.0000000E+000	0.0000000E+000	-51.6895	0.0000000E+000	0.0000000E+000	0.0000000E+000	-38.3105	0.0000000E+000	0.0000000E+000	0.0000000E+000	38.3105	1.26574	51.6895	-6.3919e-07	-9.95134e-07	73590.2
31.6296	11.2447	7.83106	13.7029	-34.8543	13.3934	0.270618	-0.00427953	642.549	209.858	1	10	0.00495909	0.000361902	0	8.17362e-05	0.0598859	0.041706	0.0729775	34.8543	209858	301336	367211	-55.1457	0.0000000E+000	0.0000000E+000	0.0000000E+000	55.1457	0.0000000E+000	0.0000000E+000	0.0000000E+000	-55.1457	0.0000000E+000	0.0000000E+000	0.0000000E+000	-34.8543	0.0000000E+000	0.0000000E+000	0.0000000E+000	34.8543	1.43591	55.1457	-3.84117e-07	-1.15812e-06	63235.4
21.5517	13.6185	8.17273	15.8826	-30.9688	14.0733	0.27062	-0.00839445	903.589	239.256	1	11	0.00496011	0.000312299	0	8.07829e-05	0.0539866	0.0323985	0.062962	30.9688	239256	398680	464961	-59.0312	0.0000000E+000	0.0000000E+000	0.0000000E+000	59.0312	0.0000000E+000	0.0000000E+000	0.0000000E+000	-59.0312	0.0000000E+000	0.0000000E+000	0.0000000E+000	-30.9688	0.0000000E+000	0.0000000E+000	0.0000000E+000	30.9688	1.66633	59.0312	-9.5331e-07	-2.27171e-06	32238
14.6852	15.9983	8.104	17.9337	-26.8647	14.5511	0.270612	-0.00832957	1337.34	273.086	1	11	0.00495692	0.000276402	0	7.95952e-05	0.0497429	0.0251975	0.0557608	26.8647	273086	539104	604325	-63.1353	0.0000000E+000	0.0000000E+000	0.0000000E+000	63.1353	0.0000000E+000	0.0000000E+000	0.0000000E+000	-63.1353	0.0000000E+000	0.0000000E+000	0.0000000E+000	-26.8647	0.0000000E+000	0.0000000E+000	0.0000000E+000	26.8647	1.97412	63.1353	-1.18768e-06	-2.25408e-06	32488.1
10.0032	18.2066	7.80879	19.8105	-23.2144	15.0197	0.270617	-0.00821807	2037.5	316.572	1	11	0.00495591	0.000250165	0	7.6844e-05	0.0463913	0.0198971	0.0504782	23.2144	316572	738104	803128	-66.7856	0.0000000E+000	0.0000000E+000	0.0000000E+000	66.7856	0.0000000E+000	0.0000000E+000	0.0000000E+000	-66.7856	0.0000000E+000	0.0000000E+000	0.0000000E+000	-23.2144	0.0000000E+000	0.0000000E+000	0.0000000E+000	23.2144	2.33155	66.7856	-2.75125e-06	-2.22395e-06	32929.5
6.81719	20.2165	7.31432	21.499	-19.8901	15.3774	0.270603	-0.00935785	3191.84	369.447	1	11	0.00495694	0.000230566	0	7.75299e-05	0.0437391	0.0158248	0.0465138	19.8901	369447	1.02114e+06	1.08592e+06	-70.1099	0.0000000E+000	0.0000000E+000	0.0000000E+000	70.1099	0.0000000E+000	0.0000000E+000	0.0000000E+000	-70.1099	0.0000000E+000	0.0000000E+000	0.0000000E+000	-19.8901	0.0000000E+000	0.0000000E+000	0.0000000E+000	19.8901	2.76397	70.1099	6.859e-07	-2.53227e-06	28917.3
4.63925	22.0074	6.80595	23.0358	-17.1846	15.8793	0.270634	-0.00753846	5040.62	440.001	1	11	0.00495842	0.000215248	0	7.35816e-05	0.0414727	0.0128257	0.0434107	17.1846	440001	1.42277e+06	1.48925e+06	-72.8154	0.0000000E+000	0.0000000E+000	0.0000000E+000	72.8154	0.0000000E+000	0.0000000E+000	0.0000000E+000	-72.8154	0.0000000E+000	0.0000000E+000	0.0000000E+000	-17.1846	0.0000000E+000	0.0000000E+000	0.0000000E+000	17.1846	3.23356	72.8154	-3.9483e-06	-2.04016e-06	35900.4
3.1604	23.6788	6.34034	24.5129	-14.9902	16.5892	0.270615	-0.00783566	7942.66	531.375	1	11	0.00495607	0.000202182	0	7.40011e-05	0.0394066	0.0105517	0.0407948	14.9902	531375	1.98448e+06	2.05439e+06	-75.0099	0.0000000E+000	0.0000000E+000	0.0000000E+000	75.0099	0.0000000E+000	0.0000000E+000	0.0000000E+000	-75.0099	0.0000000E+000	0.0000000E+000	0.0000000E+000	-14.9902	0.0000000E+000	0.0000000E+000	0.0000000E+000	14.9902	3.73462	75.0099	4.19535e-07	-2.12045e-06	34536.3
2.15577	25.0936	5.79126	25.7532	-12.9956	17.6058	0.270645	-0.00626742	12748.1	644.658	1	11	0.00495486	0.000192398	0	7.60235e-05	0.0378356	0.00873194	0.0388301	12.9956	644658	2.79331e+06	2.86673e+06	-77.0044	0.0000000E+000	0.0000000E+000	0.0000000E+000	77.0044	0.0000000E+000	0.0000000E+000	0.0000000E+000	-77.0044	0.0000000E+000	0.0000000E+000	0.0000000E+000	-12.9956	0.0000000E+000	0.0000000E+000	0.0000000E+000	12.9956	4.33301	77.0044	2.02239e-06	-1.69625e-06	43182.9
1.46631	26.465	5.3392	26.9982	-11.4061	19.079	0.270622	-0.00636406	20329.1	795.061	1	11	0.00494832	0.000183283	0	7.39083e-05	0.036308	0.00732498	0.0370395	11.4061	795061	3.94091e+06	4.02031e+06	-78.5939	0.0000000E+000	0.0000000E+000	0.0000000E+000	78.5939	0.0000000E+000	0.0000000E+000	0.0000000E+000	-78.5939	0.0000000E+000	0.0000000E+000	0.0000000E+000	-11.4061	0.0000000E+000	0.0000000E+000	0.0000000E+000	11.4061	4.95674	78.5939	-2.11522e-06	-1.72226e-06	42523.5
1.00006	27.6589	4.937	28.096	-10.1205	22.2691	0.270641	-0.00562285	32235.1	995.326	1	12	0.00496837	0.000176835	0	6.32223e-05	0.0350384	0.00625421	0.0355922	10.1205	995326	5.57618e+06	5.66431e+06	-79.8795	0.0000000E+000	0.0000000E+000	0.0000000E+000	79.8795	0.0000000E+000	0.0000000E+000	0.0000000E+000	-79.8795	0.0000000E+000	0.0000000E+000	0.0000000E+000	-10.1205	0.0000000E+000	0.0000000E+000	0.0000000E+000	10.1205	5.60237	79.8795	-1.0686e-05	-1.52177e-06	48132.3
0.681362	28.7821	4.52533	29.1357	-8.93529	25.389	0.270634	-0.00567575	51616.9	1245.2	1	12	0.00496275	0.000170332	0	5.07081e-05	0.0339056	0.00533088	0.0343222	8.93529	1.24521e+06	7.91979e+06	8.01709e+06	-81.0647	0.0000000E+000	0.0000000E+000	0.0000000E+000	81.0647	0.0000000E+000	0.0000000E+000	0.0000000E+000	-81.0647	0.0000000E+000	0.0000000E+000	0.0000000E+000	-8.93529	0.0000000E+000	0.0000000E+000	0.0000000E+000	8.93529	6.36023	81.0647	-1.25142e-05	-1.53605e-06	47682.5
0.464091	29.7924	4.1938	30.0862	-8.01272	29.9538	0.270624	-0.00621031	81773	1588.88	1	12	0.00495759	0.00016478	0	3.85583e-05	0.0329134	0.00463312	0.0332379	8.01272	1.58888e+06	1.12873e+07	1.13986e+07	-81.9873	0.0000000E+000	0.0000000E+000	0.0000000E+000	81.9873	0.0000000E+000	0.0000000E+000	0.0000000E+000	-81.9873	0.0000000E+000	0.0000000E+000	0.0000000E+000	-8.01272	0.0000000E+000	0.0000000E+000	0.0000000E+000	8.01272	7.10393	81.9873	-1.21498e-05	-1.68066e-06	43576.5
0.316193	30.6482	3.96429	30.9035	-7.37017	36.6361	0.27065	-0.00533704	126971	2089.37	1	12	0.0049497	0.000160166	0	3.29367e-05	0.0320914	0.00415096	0.0323587	7.37017	2.08937e+06	1.61531e+07	1.62877e+07	-82.6298	0.0000000E+000	0.0000000E+000	0.0000000E+000	82.6298	0.0000000E+000	0.0000000E+000	0.0000000E+000	-82.6298	0.0000000E+000	0.0000000E+000	0.0000000E+000	-7.37017	0.0000000E+000	0.0000000E+000	0.0000000E+000	7.37017	7.73108	82.6298	-5.62166e-06	-1.44447e-06	50711.7
0.215268	31.3927	3.84044	31.6268	-6.97464	46.4338	0.270634	-0.00560752	192513	2838.65	1	12	0.0049693	0.000157123	0	3.60783e-05	0.0313848	0.00383947	0.0316188	6.97464	2.83865e+06	2.32039e+07	2.33769e+07	-83.0254	0.0000000E+000	0.0000000E+000	0.0000000E+000	83.0254	0.0000000E+000	0.0000000E+000	0.0000000E+000	-83.0254	0.0000000E+000	0.0000000E+000	0.0000000E+000	-6.97464	0.0000000E+000	0.0000000E+000	0.0000000E+000	6.97464	8.17426	83.0254	3.1416e-06	-1.51759e-06	48262.6
0.146929	32.0985	3.82891	32.3261	-6.80245	60.7694	0.27063	-0.00479003	282903	3969.01	1	12	0.00496098	0.000153467	0	4.57778e-05	0.030717	0.00366411	0.0309348	6.80245	3.96901e+06	3.3273e+07	3.35089e+07	-83.1976	0.0000000E+000	0.0000000E+000	0.0000000E+000	83.1976	0.0000000E+000	0.0000000E+000	0.0000000E+000	-83.1976	0.0000000E+000	0.0000000E+000	0.0000000E+000	-6.80245	0.0000000E+000	0.0000000E+000	0.0000000E+000	6.80245	8.38321	83.1976	9.69958e-06	-1.29632e-06	56498.6
0.0999041	32.8384	4.02037	33.0836	-6.97992	81.8392	0.270636	-0.00348849	396251	5851.63	1	12	0.00495981	0.000149917	0	5.33481e-05	0.0300024	0.00367316	0.0302264	6.97992	5.85163e+06	4.77962e+07	4.8153e+07	-83.0201	0.0000000E+000	0.0000000E+000	0.0000000E+000	83.0201	0.0000000E+000	0.0000000E+000	0.0000000E+000	-83.0201	0.0000000E+000	0.0000000E+000	0.0000000E+000	-6.97992	0.0000000E+000	0.0000000E+000	0.0000000E+000	6.97992	8.16801	83.0201	7.57027e-06	-9.44111e-07	77579.7
0.0680626	33.6071	4.50829	33.9081	-7.64045	112.751	0.27063	-0.00240282	518680	9168.89	1	12	0.00496058	0.000146295	0	4.23239e-05	0.0292297	0.00392107	0.0294915	7.64045	9.16888e+06	6.83495e+07	6.89617e+07	-82.3595	0.0000000E+000	0.0000000E+000	0.0000000E+000	82.3595	0.0000000E+000	0.0000000E+000	0.0000000E+000	-82.3595	0.0000000E+000	0.0000000E+000	0.0000000E+000	-7.64045	0.0000000E+000	0.0000000E+000	0.0000000E+000	7.64045	7.4545	82.3595	-1.10242e-05	-6.50275e-07	112630
0.0464052	34.3783	5.31058	34.786	-8.78135	158.075	0.270633	-0.00122922	645820	15051.7	1	12	0.00495948	0.000142571	0	-1.69011e-05	0.0284102	0.00438866	0.0287472	8.78135	1.50517e+07	9.74378e+07	9.85935e+07	-81.2187	0.0000000E+000	0.0000000E+000	0.0000000E+000	81.2187	0.0000000E+000	0.0000000E+000	0.0000000E+000	-81.2187	0.0000000E+000	0.0000000E+000	0.0000000E+000	-8.78135	0.0000000E+000	0.0000000E+000	0.0000000E+000	8.78135	6.47354	81.2187	-5.92249e-05	-3.32666e-07	220167
0.0315922	35.2646	6.38317	35.8376	-10.2599	224.636	0.270636	-0.000830416	789230	25037.9	1	12	0.00496255	0.000138473	0	-0.000148671	0.0274575	0.00497002	0.0279036	10.2599	2.5038e+07	1.38325e+08	1.40573e+08	-79.7401	0.0000000E+000	0.0000000E+000	0.0000000E+000	79.7401	0.0000000E+000	0.0000000E+000	0.0000000E+000	-79.7401	0.0000000E+000	0.0000000E+000	0.0000000E+000	-10.2599	0.0000000E+000	0.0000000E+000	0.0000000E+000	10.2599	5.52461	79.7401	-0.00013177	-2.24741e-07	325904
0.0215268	36.4731	7.77744	37.2931	-12.0373	322.305	0.270634	-0.00114229	950615	41344.8	1	12	0.0049591	0.000132976	0	-0.000348469	0.026225	0.00559216	0.0268146	12.0373	4.13448e+07	1.93891e+08	1.9825e+08	-77.9627	0.0000000E+000	0.0000000E+000	0.0000000E+000	77.9627	0.0000000E+000	0.0000000E+000	0.0000000E+000	-77.9627	0.0000000E+000	0.0000000E+000	0.0000000E+000	-12.0373	0.0000000E+000	0.0000000E+000	0.0000000E+000	12.0373	4.6896	77.9627	-0.000199798	-3.09142e-07	236923
0.0146812	37.9908	9.75802	39.224	-14.4051	465.5	0.270634	-0.00178716	1.11096e+06	68757.2	1	12	0.00496051	0.000126466	0	-0.000556391	0.0246931	0.00634247	0.0254946	14.4051	6.87572e+07	2.67692e+08	2.76381e+08	-75.5948	0.0000000E+000	0.0000000E+000	0.0000000E+000	75.5948	0.0000000E+000	0.0000000E+000	0.0000000E+000	-75.5948	0.0000000E+000	0.0000000E+000	0.0000000E+000	-14.4051	0.0000000E+000	0.0000000E+000	0.0000000E+000	14.4051	3.89329	75.5948	-0.000207922	-4.83666e-07	151433

0.0100092	39.6556	12.4473	41.5632	-17.4264	675.519	0.270632	-0.00189356	1.27745e+06	114573	1	12	0.00495978	0.000119331	0	-0.000649543	0.0229555	0.0072054	0.0240597	17.4264	1.14572e+08	3.65013e+08	3.82572e+08	-72.5736	0.0000000E+000	0.0000000E+000	0.0000000E+000	72.5736	0.0000000E+000	0.0000000E+000	0.0000000E+000	-72.5736	0.0000000E+000	0.0000000E+000	0.0000000E+000	-17.4264	0.0000000E+000	0.0000000E+000	0.0000000E+000	17.4264	3.18587	72.5736	-9.31519e-05	-5.12459e-07	142922