File: txt/17705_R287_UA661_SOC00_C04.mpt
EC-Lab ASCII FILE

Nb header lines : 63

Potentio Electrochemical Impedance Spectroscopy

Run on channel : 4 (SN 66756)
User :
CE vs. WE compliance from -10 V to 10 V
Electrode connection : standard
Potential control : Ewe
Ewe ctrl range : min = -10.00 V, max = 10.00 V
Safety Limits :
	Do not start on E overload
Acquisition started on : 09/22/2025 10:03:07.935
Loaded Setting File :  C:\Users\Celltest\OneDrive - store-dot.com\Documents\EC-Lab\Data\Gyutae\17739_R277_UA674_SOC00_C03.mpr
Saved on :
	File : 17705_R287_UA661_SOC00_C04.mpr
	Directory : C:\Users\Celltest\OneDrive - store-dot.com\Documents\EC-Lab\Data\Charmaine\
	Host : 169.254.61.224
Device : VMP-3e (SN .003165)
Address : USB
EC-LAB for windows v11.62 (software)
Internet server v27.00 (firmware)
Command interpretor v12.03 (firmware)
Electrode material :
Initial state :
Electrolyte :
Comments :
Electrode surface area : 0.001 cm²
Characteristic mass : 0.001 g
Equivalent Weight : 0.000 g/eq.
Density : 0.000 g/cm3
Volume (V) : 0.001 cm³
Cycle Definition : Charge/Discharge alternance
Mode                Single sine
E (V)               0.0000
vs.                 Eoc
tE (h:m:s)          0:00:0.0000
record              0
dI                  0.000
unit dI             mA
dt (s)              0.000
fi                  100.000
unit fi             kHz
ff                  10.000
unit ff             mHz
Nd                  6
Points              per decade
spacing             Logarithmic
Va (mV)             5.0
pw                  0.10
Na                  2
corr                0
E range min (V)     -10.000
E range max (V)     10.000
I Range             Auto
Bandwidth           5
nc cycles           0
goto Ns'            0
nr cycles           0
inc. cycle          0

freq/Hz	Re(Z)/Ohm	-Im(Z)/Ohm	|Z|/Ohm	Phase(Z)/deg	time/s	<Ewe>/V	<I>/mA	Cs/µF	Cp/µF	cycle number	I Range	|Ewe|/V	|I|/A	Ns	(Q-Qo)/mA.h	Re(Y)/Ohm-1	Im(Y)/Ohm-1	|Y|/Ohm-1	Phase(Y)/deg	Re(C)/nF	Im(C)/nF	|C|/nF	Phase(C)/deg	Re(M)	Im(M)	|M|	Phase(M)/deg	Re(Permittivity)	Im(Permittivity)	|Permittivity|	Phase(Permittivity)/deg	Re(Resistivity)/Ohm.cm	Im(Resistivity)/Ohm.cm	|Resistivity|/Ohm.cm	Phase(Resistivity)/deg	Re(Conductivity)/mS/cm	Im(Conductivity)/mS/cm	|Conductivity|/mS/cm	Phase(Conductivity)/deg	Tan(Delta)	Loss Angle(Delta)/deg	dq/mA.h	Pwe/W	Rwe/Ohm
100004	1.28512	0.289186	1.31726	-12.6818	2.0665	0.281091	-0.0104285	5.50335	0.265241	1	9	0.00469514	0.00356434	0	-1.13527e-05	0.740634	0.166662	0.759154	12.6818	265.241	1178.71	1208.19	-77.3182	0.0000000E+000	0.0000000E+000	0.0000000E+000	77.3182	0.0000000E+000	0.0000000E+000	0.0000000E+000	-77.3182	0.0000000E+000	0.0000000E+000	0.0000000E+000	-12.6818	0.0000000E+000	0.0000000E+000	0.0000000E+000	12.6818	4.44393	77.3182	-1.13527e-05	-2.93136e-06	26954
68132	1.35165	0.317085	1.38835	-13.2023	2.64449	0.281115	-0.0150534	7.36704	0.384281	1	9	0.00505489	0.00364094	0	-1.43685e-05	0.701244	0.164506	0.720282	13.2023	384.281	1638.09	1682.56	-76.7977	0.0000000E+000	0.0000000E+000	0.0000000E+000	76.7977	0.0000000E+000	0.0000000E+000	0.0000000E+000	-76.7977	0.0000000E+000	0.0000000E+000	0.0000000E+000	-13.2023	0.0000000E+000	0.0000000E+000	0.0000000E+000	13.2023	4.26274	76.7977	-3.01575e-06	-4.23173e-06	18674.5
46420.4	1.42477	0.349472	1.467	-13.7816	3.2235	0.281099	-0.0129088	9.81069	0.556753	1	9	0.00506234	0.00345081	0	-1.51735e-05	0.662038	0.162387	0.681662	13.7816	556.753	2269.84	2337.12	-76.2184	0.0000000E+000	0.0000000E+000	0.0000000E+000	76.2184	0.0000000E+000	0.0000000E+000	0.0000000E+000	-76.2184	0.0000000E+000	0.0000000E+000	0.0000000E+000	-13.7816	0.0000000E+000	0.0000000E+000	0.0000000E+000	13.7816	4.07692	76.2184	-8.05024e-07	-3.62865e-06	21775.8
31621.1	1.50307	0.400749	1.55558	-14.9289	3.80148	0.281106	-0.0130207	12.5594	0.83355	1	9	0.00513218	0.00329921	0	-1.52197e-05	0.621149	0.165611	0.642848	14.9289	833.55	3126.36	3235.57	-75.0711	0.0000000E+000	0.0000000E+000	0.0000000E+000	75.0711	0.0000000E+000	0.0000000E+000	0.0000000E+000	-75.0711	0.0000000E+000	0.0000000E+000	0.0000000E+000	-14.9289	0.0000000E+000	0.0000000E+000	0.0000000E+000	14.9289	3.75065	75.0711	-4.62023e-08	-3.66019e-06	21589.1
21544.7	1.60006	0.44944	1.66198	-15.6895	4.23949	0.281115	-0.023091	16.4365	1.20199	1	9	0.00520686	0.00313293	0	-1.23069e-05	0.579274	0.162712	0.601692	15.6895	1201.99	4279.21	4444.82	-74.3105	0.0000000E+000	0.0000000E+000	0.0000000E+000	74.3105	0.0000000E+000	0.0000000E+000	0.0000000E+000	-74.3105	0.0000000E+000	0.0000000E+000	0.0000000E+000	-15.6895	0.0000000E+000	0.0000000E+000	0.0000000E+000	15.6895	3.56011	74.3105	2.91283e-06	-6.49122e-06	12174.2
14678.6	1.69967	0.513403	1.77551	-16.8075	4.67648	0.281105	-0.020965	21.1192	1.76582	1	9	0.00491195	0.00276649	0	-1.24993e-05	0.539157	0.162859	0.563217	16.8075	1765.82	5845.9	6106.77	-73.1925	0.0000000E+000	0.0000000E+000	0.0000000E+000	73.1925	0.0000000E+000	0.0000000E+000	0.0000000E+000	-73.1925	0.0000000E+000	0.0000000E+000	0.0000000E+000	-16.8075	0.0000000E+000	0.0000000E+000	0.0000000E+000	16.8075	3.31059	73.1925	-1.9247e-07	-5.89337e-06	13408.3
10002.2	1.80818	0.584542	1.90032	-17.9148	5.11348	0.281208	-0.0176456	27.2212	2.57565	1	9	0.00492545	0.00259191	0	-1.49055e-05	0.500714	0.161869	0.526228	17.9148	2575.66	7967.34	8373.32	-72.0852	0.0000000E+000	0.0000000E+000	0.0000000E+000	72.0852	0.0000000E+000	0.0000000E+000	0.0000000E+000	-72.0852	0.0000000E+000	0.0000000E+000	0.0000000E+000	-17.9148	0.0000000E+000	0.0000000E+000	0.0000000E+000	17.9148	3.09333	72.0852	-2.40618e-06	-4.96208e-06	15936.5
6811.07	1.94318	0.676111	2.05744	-19.1848	5.49151	0.280866	-0.143524	34.5611	3.73221	1	9	0.00465139	0.00226076	0	-2.87201e-05	0.459047	0.159721	0.48604	19.1848	3732.21	10726.6	11357.3	-70.8152	0.0000000E+000	0.0000000E+000	0.0000000E+000	70.8152	0.0000000E+000	0.0000000E+000	0.0000000E+000	-70.8152	0.0000000E+000	0.0000000E+000	0.0000000E+000	-19.1848	0.0000000E+000	0.0000000E+000	0.0000000E+000	19.1848	2.87406	70.8152	-1.38146e-05	-4.03111e-05	1956.93
4641.49	2.08915	0.784393	2.23156	-20.5791	5.96271	0.281116	0.020062	43.7149	5.40109	1	9	0.00452267	0.00202669	0	-2.79234e-05	0.419523	0.157514	0.448118	20.5791	5401.09	14385.3	15365.8	-69.4209	0.0000000E+000	0.0000000E+000	0.0000000E+000	69.4209	0.0000000E+000	0.0000000E+000	0.0000000E+000	-69.4209	0.0000000E+000	0.0000000E+000	0.0000000E+000	-20.5791	0.0000000E+000	0.0000000E+000	0.0000000E+000	20.5791	2.6634	69.4209	7.96762e-07	5.63973e-06	14012.4
3161.01	2.25738	0.917098	2.43656	-22.1103	6.6527	0.281106	0.0197449	54.9008	7.77777	1	9	0.0049608	0.00203599	0	-2.28416e-05	0.380233	0.154476	0.410415	22.1103	7777.77	19144.5	20664.1	-67.8897	0.0000000E+000	0.0000000E+000	0.0000000E+000	67.8897	0.0000000E+000	0.0000000E+000	0.0000000E+000	-67.8897	0.0000000E+000	0.0000000E+000	0.0000000E+000	-22.1103	0.0000000E+000	0.0000000E+000	0.0000000E+000	22.1103	2.46144	67.8897	5.08178e-06	5.55042e-06	14236.9
2155.69	2.44032	1.06367	2.66206	-23.5511	7.11969	0.281107	0.025843	69.4105	11.0817	1	9	0.00492237	0.00184908	0	-2.02904e-05	0.344358	0.150097	0.375649	23.5511	11081.7	25424	27734.2	-66.4489	0.0000000E+000	0.0000000E+000	0.0000000E+000	66.4489	0.0000000E+000	0.0000000E+000	0.0000000E+000	-66.4489	0.0000000E+000	0.0000000E+000	0.0000000E+000	-23.5511	0.0000000E+000	0.0000000E+000	0.0000000E+000	23.5511	2.29424	66.4489	2.55124e-06	7.26466e-06	10877.5
1468.59	2.66451	1.26259	2.94852	-25.3541	7.58695	0.281122	0.0212555	85.8339	15.7389	1	9	0.0049035	0.00166304	0	-1.95274e-05	0.306486	0.145229	0.339154	25.3541	15738.9	33214.7	36755	-64.6459	0.0000000E+000	0.0000000E+000	0.0000000E+000	64.6459	0.0000000E+000	0.0000000E+000	0.0000000E+000	-64.6459	0.0000000E+000	0.0000000E+000	0.0000000E+000	-25.3541	0.0000000E+000	0.0000000E+000	0.0000000E+000	25.3541	2.11036	64.6459	7.62948e-07	5.97539e-06	13225.9
1000.32	2.92747	1.52481	3.30077	-27.5133	8.30968	0.281101	-0.0159058	104.344	22.2671	1	10	0.00500625	0.00151669	0	-1.77002e-05	0.268696	0.139953	0.302959	27.5133	22267.1	42750.6	48202	-62.4867	0.0000000E+000	0.0000000E+000	0.0000000E+000	62.4867	0.0000000E+000	0.0000000E+000	0.0000000E+000	-62.4867	0.0000000E+000	0.0000000E+000	0.0000000E+000	-27.5133	0.0000000E+000	0.0000000E+000	0.0000000E+000	27.5133	1.91989	62.4867	1.82721e-06	-4.47114e-06	17672.8
681.09	3.23934	1.85145	3.73111	-29.7502	8.77541	0.281076	-0.0152363	126.213	31.0779	1	10	0.00496669	0.00133116	0	-1.90194e-05	0.232691	0.132995	0.268017	29.7502	31077.9	54374.6	62629.3	-60.2498	0.0000000E+000	0.0000000E+000	0.0000000E+000	60.2498	0.0000000E+000	0.0000000E+000	0.0000000E+000	-60.2498	0.0000000E+000	0.0000000E+000	0.0000000E+000	-29.7502	0.0000000E+000	0.0000000E+000	0.0000000E+000	29.7502	1.74962	60.2498	-1.31916e-06	-4.28255e-06	18447.8
463.961	3.61441	2.25755	4.26151	-31.9888	9.24419	0.281101	-0.0155496	151.95	42.6431	1	10	0.00493054	0.00115699	0	-2.08204e-05	0.199026	0.124311	0.234659	31.9888	42643.1	68273	80496.2	-58.0112	0.0000000E+000	0.0000000E+000	0.0000000E+000	58.0112	0.0000000E+000	0.0000000E+000	0.0000000E+000	-58.0112	0.0000000E+000	0.0000000E+000	0.0000000E+000	-31.9888	0.0000000E+000	0.0000000E+000	0.0000000E+000	31.9888	1.60103	58.0112	-1.80103e-06	-4.371e-06	18077.7
316.316	4.09854	2.74079	4.93051	-33.7715	9.71094	0.281062	-0.0161781	183.579	56.7271	1	10	0.00491708	0.000997277	0	-2.21349e-05	0.168595	0.112743	0.202819	33.7715	56727.1	84829	102049	-56.2285	0.0000000E+000	0.0000000E+000	0.0000000E+000	56.2285	0.0000000E+000	0.0000000E+000	0.0000000E+000	-56.2285	0.0000000E+000	0.0000000E+000	0.0000000E+000	-33.7715	0.0000000E+000	0.0000000E+000	0.0000000E+000	33.7715	1.49539	56.2285	-1.31449e-06	-4.54707e-06	17373
215.345	4.67768	3.36892	5.76457	-35.7619	10.1784	0.281067	-0.015973	219.38	74.9278	1	10	0.00487876	0.000846335	0	-2.33014e-05	0.140766	0.101381	0.173474	35.7619	74927.8	104036	128209	-54.2381	0.0000000E+000	0.0000000E+000	0.0000000E+000	54.2381	0.0000000E+000	0.0000000E+000	0.0000000E+000	-54.2381	0.0000000E+000	0.0000000E+000	0.0000000E+000	-35.7619	0.0000000E+000	0.0000000E+000	0.0000000E+000	35.7619	1.38848	54.2381	-1.16647e-06	-4.48948e-06	17596.4
146.737	5.46773	4.13823	6.85718	-37.1201	10.6414	0.281063	-0.0165661	262.099	95.4557	1	10	0.00488211	0.00071197	0	-2.56421e-05	0.116283	0.0880081	0.145832	37.1201	95455.7	126123	158173	-52.8799	0.0000000E+000	0.0000000E+000	0.0000000E+000	52.8799	0.0000000E+000	0.0000000E+000	0.0000000E+000	-52.8799	0.0000000E+000	0.0000000E+000	0.0000000E+000	-37.1201	0.0000000E+000	0.0000000E+000	0.0000000E+000	37.1201	1.32127	52.8799	-2.34073e-06	-4.65611e-06	16966.1
100.032	6.5187	5.01195	8.22272	-37.5552	11.1087	0.281057	-0.0158555	317.449	117.939	1	10	0.00488169	0.000593683	0	-2.79786e-05	0.0964118	0.074127	0.121614	37.5552	117939	153395	193493	-52.4448	0.0000000E+000	0.0000000E+000	0.0000000E+000	52.4448	0.0000000E+000	0.0000000E+000	0.0000000E+000	-52.4448	0.0000000E+000	0.0000000E+000	0.0000000E+000	-37.5552	0.0000000E+000	0.0000000E+000	0.0000000E+000	37.5552	1.30063	52.4448	-2.3365e-06	-4.4563e-06	17726.2
68.104	7.89925	5.88417	9.84995	-36.6825	11.5873	0.28109	-0.013015	397.157	141.731	1	10	0.00487248	0.00049467	0	-2.98897e-05	0.0814174	0.060648	0.101523	36.6825	141731	190268	237254	-53.3175	0.0000000E+000	0.0000000E+000	0.0000000E+000	53.3175	0.0000000E+000	0.0000000E+000	0.0000000E+000	-53.3175	0.0000000E+000	0.0000000E+000	0.0000000E+000	-36.6825	0.0000000E+000	0.0000000E+000	0.0000000E+000	36.6825	1.34246	53.3175	-1.91109e-06	-3.65837e-06	21597.4
46.4415	9.64038	6.69263	11.7358	-34.7695	12.0426	0.281046	-0.0179407	512.055	166.528	1	10	0.00487954	0.000415784	0	-3.2245e-05	0.0699957	0.048593	0.0852096	34.7695	166528	239875	292013	-55.2305	0.0000000E+000	0.0000000E+000	0.0000000E+000	55.2305	0.0000000E+000	0.0000000E+000	0.0000000E+000	-55.2305	0.0000000E+000	0.0000000E+000	0.0000000E+000	-34.7695	0.0000000E+000	0.0000000E+000	0.0000000E+000	34.7695	1.44045	55.2305	-2.35533e-06	-5.04215e-06	15665.3
31.6296	11.655	7.24794	13.7248	-31.8764	12.4895	0.281032	-0.0206861	694.245	193.61	1	10	0.00487728	0.000355362	0	-3.44069e-05	0.0618724	0.0384769	0.0728606	31.8764	193610	311332	366623	-58.1236	0.0000000E+000	0.0000000E+000	0.0000000E+000	58.1236	0.0000000E+000	0.0000000E+000	0.0000000E+000	-58.1236	0.0000000E+000	0.0000000E+000	0.0000000E+000	-31.8764	0.0000000E+000	0.0000000E+000	0.0000000E+000	31.8764	1.60804	58.1236	-2.16191e-06	-5.81346e-06	13585.6
21.5517	13.8813	7.49936	15.7776	-28.3801	13.1693	0.281071	-0.00480826	984.723	222.476	1	11	0.00486358	0.000308259	0	-3.59973e-05	0.0557637	0.0301262	0.0633812	28.3801	222476	411803	468057	-61.6199	0.0000000E+000	0.0000000E+000	0.0000000E+000	61.6199	0.0000000E+000	0.0000000E+000	0.0000000E+000	-61.6199	0.0000000E+000	0.0000000E+000	0.0000000E+000	-28.3801	0.0000000E+000	0.0000000E+000	0.0000000E+000	28.3801	1.851	61.6199	-1.59042e-06	-1.35146e-06	58455.9
14.6852	15.9125	7.34748	17.5269	-24.7848	13.6471	0.281088	-0.00368605	1475.04	259.221	1	11	0.00482586	0.00027534	0	-3.67826e-05	0.0517997	0.0239182	0.0570551	24.7848	259221	561396	618353	-65.2152	0.0000000E+000	0.0000000E+000	0.0000000E+000	65.2152	0.0000000E+000	0.0000000E+000	0.0000000E+000	-65.2152	0.0000000E+000	0.0000000E+000	0.0000000E+000	-24.7848	0.0000000E+000	0.0000000E+000	0.0000000E+000	24.7848	2.1657	65.2152	-7.85279e-07	-1.0361e-06	76257.4
10.0032	18.2512	7.22949	19.6309	-21.609	14.1157	0.281136	-0.00395933	2200.76	298.474	1	11	0.0049051	0.000249866	0	-3.91697e-05	0.0473599	0.0187597	0.05094	21.609	298474	753515	810476	-68.391	0.0000000E+000	0.0000000E+000	0.0000000E+000	68.391	0.0000000E+000	0.0000000E+000	0.0000000E+000	-68.391	0.0000000E+000	0.0000000E+000	0.0000000E+000	-21.609	0.0000000E+000	0.0000000E+000	0.0000000E+000	21.609	2.52456	68.391	-2.38708e-06	-1.11311e-06	71006.1
6.81719	19.9485	6.75633	21.0615	-18.7107	14.4734	0.281089	-0.00427588	3455.44	355.587	1	11	0.0048721	0.000231327	0	-3.70843e-05	0.0449706	0.0152311	0.0474799	18.7107	355586	1.04989e+06	1.10847e+06	-71.2893	0.0000000E+000	0.0000000E+000	0.0000000E+000	71.2893	0.0000000E+000	0.0000000E+000	0.0000000E+000	-71.2893	0.0000000E+000	0.0000000E+000	0.0000000E+000	-18.7107	0.0000000E+000	0.0000000E+000	0.0000000E+000	18.7107	2.95256	71.2893	2.08534e-06	-1.2019e-06	65738.3
4.63925	21.8373	6.29477	22.7265	-16.08	14.9763	0.281151	-0.00334561	5449.95	418.107	1	11	0.0049159	0.000216307	0	-4.06533e-05	0.04228	0.0121875	0.0440015	16.08	418107	1.45046e+06	1.50952e+06	-73.92	0.0000000E+000	0.0000000E+000	0.0000000E+000	73.92	0.0000000E+000	0.0000000E+000	0.0000000E+000	-73.92	0.0000000E+000	0.0000000E+000	0.0000000E+000	-16.08	0.0000000E+000	0.0000000E+000	0.0000000E+000	16.08	3.46912	73.92	-3.56899e-06	-9.40621e-07	84035.6
3.1604	23.3119	5.94611	24.0582	-14.3092	15.6853	0.281085	-0.00339309	8469.26	517.349	1	11	0.00490773	0.000203994	0	-4.0856e-05	0.0402762	0.0102732	0.0415658	14.3092	517349	2.02828e+06	2.09322e+06	-75.6908	0.0000000E+000	0.0000000E+000	0.0000000E+000	75.6908	0.0000000E+000	0.0000000E+000	0.0000000E+000	-75.6908	0.0000000E+000	0.0000000E+000	0.0000000E+000	-14.3092	0.0000000E+000	0.0000000E+000	0.0000000E+000	14.3092	3.92052	75.6908	-2.02649e-07	-9.53747e-07	82840.5
2.15577	24.4129	5.24561	24.9701	-12.1268	16.7018	0.281164	-0.00256415	14074.2	621.116	1	11	0.00486824	0.000194963	0	-3.73921e-05	0.0391542	0.00841307	0.0400478	12.1268	621116	2.89066e+06	2.95663e+06	-77.8732	0.0000000E+000	0.0000000E+000	0.0000000E+000	77.8732	0.0000000E+000	0.0000000E+000	0.0000000E+000	-77.8732	0.0000000E+000	0.0000000E+000	0.0000000E+000	-12.1268	0.0000000E+000	0.0000000E+000	0.0000000E+000	12.1268	4.65397	77.8732	3.46383e-06	-7.20947e-07	109652
1.46631	25.7093	4.9648	26.1843	-10.93	18.1751	0.281123	-0.00175114	21862.1	785.985	1	11	0.00487821	0.000186303	0	-3.55459e-05	0.037498	0.00724136	0.0381908	10.93	785986	4.07008e+06	4.14528e+06	-79.07	0.0000000E+000	0.0000000E+000	0.0000000E+000	79.07	0.0000000E+000	0.0000000E+000	0.0000000E+000	-79.07	0.0000000E+000	0.0000000E+000	0.0000000E+000	-10.93	0.0000000E+000	0.0000000E+000	0.0000000E+000	10.93	5.17831	79.07	1.84625e-06	-4.92285e-07	160538
1.00006	26.7711	4.54436	27.1541	-9.63404	21.3642	0.281106	-0.00120943	35020.3	980.832	1	12	0.00486762	0.000179259	0	-4.00324e-05	0.0363075	0.00616315	0.0368269	9.63404	980833	5.77815e+06	5.86081e+06	-80.366	0.0000000E+000	0.0000000E+000	0.0000000E+000	80.366	0.0000000E+000	0.0000000E+000	0.0000000E+000	-80.366	0.0000000E+000	0.0000000E+000	0.0000000E+000	-9.63404	0.0000000E+000	0.0000000E+000	0.0000000E+000	9.63404	5.89107	80.366	-4.48655e-06	-3.39977e-07	232429
0.681362	27.829	4.29595	28.1586	-8.77547	24.4841	0.281121	-0.000999606	54372.9	1265.55	1	12	0.00487873	0.000173259	0	-4.91515e-05	0.0350974	0.00541798	0.0355131	8.77547	1.26555e+06	8.19817e+06	8.29528e+06	-81.2245	0.0000000E+000	0.0000000E+000	0.0000000E+000	81.2245	0.0000000E+000	0.0000000E+000	0.0000000E+000	-81.2245	0.0000000E+000	0.0000000E+000	0.0000000E+000	-8.77547	0.0000000E+000	0.0000000E+000	0.0000000E+000	8.77547	6.47795	81.2245	-9.11907e-06	-2.8101e-07	281231
0.464091	28.8661	3.99792	29.1416	-7.88523	29.0489	0.281128	-0.00120106	85779.5	1614.45	1	12	0.00489408	0.000167941	0	-5.92958e-05	0.0339907	0.00470767	0.0343152	7.88523	1.61445e+06	1.16568e+07	1.1768e+07	-82.1148	0.0000000E+000	0.0000000E+000	0.0000000E+000	82.1148	0.0000000E+000	0.0000000E+000	0.0000000E+000	-82.1148	0.0000000E+000	0.0000000E+000	0.0000000E+000	-7.88523	0.0000000E+000	0.0000000E+000	0.0000000E+000	7.88523	7.22028	82.1148	-1.01443e-05	-3.37652e-07	234067
0.316193	29.5623	3.78638	29.8038	-7.29877	35.7311	0.28112	-0.00158364	132936	2145.6	1	12	0.00487544	0.000163584	0	-6.40851e-05	0.0332809	0.00426265	0.0335528	7.29877	2.14559e+06	1.67518e+07	1.68887e+07	-82.7012	0.0000000E+000	0.0000000E+000	0.0000000E+000	82.7012	0.0000000E+000	0.0000000E+000	0.0000000E+000	-82.7012	0.0000000E+000	0.0000000E+000	0.0000000E+000	-7.29877	0.0000000E+000	0.0000000E+000	0.0000000E+000	7.29877	7.80755	82.7012	-4.78934e-06	-4.45192e-07	177516
0.215268	30.2834	3.76314	30.5163	-7.08349	45.5288	0.281134	-0.00217699	196468	2987.63	1	12	0.00487594	0.000159781	0	-5.78582e-05	0.0325192	0.00404097	0.0327693	7.08349	2.98763e+06	2.40426e+07	2.42275e+07	-82.9165	0.0000000E+000	0.0000000E+000	0.0000000E+000	82.9165	0.0000000E+000	0.0000000E+000	0.0000000E+000	-82.9165	0.0000000E+000	0.0000000E+000	0.0000000E+000	-7.08349	0.0000000E+000	0.0000000E+000	0.0000000E+000	7.08349	8.04738	82.9165	6.22693e-06	-6.12026e-07	129139
0.146929	30.9858	3.90365	31.2307	-7.18042	59.8643	0.281149	-0.00198118	277487	4335.32	1	12	0.00488302	0.000156353	0	-3.66487e-05	0.0317687	0.00400229	0.0320198	7.18042	4.33532e+06	3.44122e+07	3.46842e+07	-82.8196	0.0000000E+000	0.0000000E+000	0.0000000E+000	82.8196	0.0000000E+000	0.0000000E+000	0.0000000E+000	-82.8196	0.0000000E+000	0.0000000E+000	0.0000000E+000	-7.18042	0.0000000E+000	0.0000000E+000	0.0000000E+000	7.18042	7.93763	82.8196	2.12095e-05	-5.57007e-07	141910
0.0999041	31.6128	4.04751	31.8709	-7.2961	80.9343	0.281126	-0.00133576	393595	6348	1	12	0.00486907	0.000152775	0	-4.47822e-06	0.0311226	0.00398474	0.0313766	7.2961	6.348e+06	4.95807e+07	4.99854e+07	-82.7039	0.0000000E+000	0.0000000E+000	0.0000000E+000	82.7039	0.0000000E+000	0.0000000E+000	0.0000000E+000	-82.7039	0.0000000E+000	0.0000000E+000	0.0000000E+000	-7.2961	0.0000000E+000	0.0000000E+000	0.0000000E+000	7.2961	7.81044	82.7039	3.21705e-05	-3.75516e-07	210462
0.0680626	32.4634	4.59927	32.7876	-8.06375	111.846	0.281127	-0.000694087	508420	10004.2	1	12	0.00487566	0.000148704	0	2.46021e-05	0.0301978	0.00427829	0.0304994	8.06375	1.00042e+07	7.06133e+07	7.13185e+07	-81.9363	0.0000000E+000	0.0000000E+000	0.0000000E+000	81.9363	0.0000000E+000	0.0000000E+000	0.0000000E+000	-81.9363	0.0000000E+000	0.0000000E+000	0.0000000E+000	-8.06375	0.0000000E+000	0.0000000E+000	0.0000000E+000	8.06375	7.05838	81.9363	2.90803e-05	-1.95127e-07	405032
0.0464052	33.2838	5.49609	33.7346	-9.37653	157.171	0.281125	0.000227669	624021	16563.7	1	12	0.00487094	0.00014439	0	2.07975e-05	0.0292471	0.00482952	0.0296432	9.37653	1.65637e+07	1.00308e+08	1.01667e+08	-80.6235	0.0000000E+000	0.0000000E+000	0.0000000E+000	80.6235	0.0000000E+000	0.0000000E+000	0.0000000E+000	-80.6235	0.0000000E+000	0.0000000E+000	0.0000000E+000	-9.37653	0.0000000E+000	0.0000000E+000	0.0000000E+000	9.37653	6.05591	80.6235	-3.80462e-06	6.40035e-08	1.23479e+06
0.0315922	34.2503	6.71146	34.9017	-11.0868	223.732	0.281136	0.00063047	750626	27756.5	1	12	0.00487525	0.000139685	0	-5.393e-05	0.0281172	0.00550965	0.0286519	11.0868	2.77565e+07	1.41648e+08	1.44342e+08	-78.9132	0.0000000E+000	0.0000000E+000	0.0000000E+000	78.9132	0.0000000E+000	0.0000000E+000	0.0000000E+000	-78.9132	0.0000000E+000	0.0000000E+000	0.0000000E+000	-11.0868	0.0000000E+000	0.0000000E+000	0.0000000E+000	11.0868	5.10326	78.9132	-7.47275e-05	1.77248e-07	445915
0.0215268	35.361	8.19682	36.2986	-13.0509	321.401	0.281131	0.000120511	901978	45994.7	1	12	0.00486806	0.000134112	0	-0.000225191	0.0268377	0.00622109	0.0275493	13.0509	4.59947e+07	1.9842e+08	2.03682e+08	-76.9491	0.0000000E+000	0.0000000E+000	0.0000000E+000	76.9491	0.0000000E+000	0.0000000E+000	0.0000000E+000	-76.9491	0.0000000E+000	0.0000000E+000	0.0000000E+000	-13.0509	0.0000000E+000	0.0000000E+000	0.0000000E+000	13.0509	4.31399	76.9491	-0.000171261	3.38794e-08	2.33283e+06
0.0146812	36.9596	10.1252	38.3214	-15.3205	464.596	0.281126	-0.000724019	1.07067e+06	74744.8	1	12	0.00487501	0.000127214	0	-0.000463155	0.0251677	0.0068948	0.0260951	15.3205	7.47448e+07	2.72837e+08	2.8289e+08	-74.6795	0.0000000E+000	0.0000000E+000	0.0000000E+000	74.6795	0.0000000E+000	0.0000000E+000	0.0000000E+000	-74.6795	0.0000000E+000	0.0000000E+000	0.0000000E+000	-15.3205	0.0000000E+000	0.0000000E+000	0.0000000E+000	15.3205	3.65025	74.6795	-0.000237964	-2.0354e-07	388285

0.0100092	38.9173	12.7312	40.9468	-18.1147	674.617	0.281125	-0.00132653	1.24898e+06	120740	1	12	0.00487821	0.000119135	0	-0.000660136	0.0232115	0.00759327	0.0244219	18.1147	1.2074e+08	3.69084e+08	3.88331e+08	-71.8853	0.0000000E+000	0.0000000E+000	0.0000000E+000	71.8853	0.0000000E+000	0.0000000E+000	0.0000000E+000	-71.8853	0.0000000E+000	0.0000000E+000	0.0000000E+000	-18.1147	0.0000000E+000	0.0000000E+000	0.0000000E+000	18.1147	3.05685	71.8853	-0.000196981	-3.72921e-07	211925