File: txt/17706_R287_UA662_SOC00_C05.mpt
EC-Lab ASCII FILE
Nb header lines : 63

Potentio Electrochemical Impedance Spectroscopy

Run on channel : 5 (SN 65912)
User :
CE vs. WE compliance from -10 V to 10 V
Electrode connection : standard
Potential control : Ewe
Ewe ctrl range : min = -10.00 V, max = 10.00 V
Safety Limits :
	Do not start on E overload
Acquisition started on : 09/22/2025 10:03:28.043
Loaded Setting File :  C:\Users\Celltest\OneDrive - store-dot.com\Documents\EC-Lab\Data\Gyutae\17740_R277_UA674_SOC00_C04.mpr
Saved on :
	File : 17706_R287_UA662_SOC00_C05.mpr
	Directory : C:\Users\Celltest\OneDrive - store-dot.com\Documents\EC-Lab\Data\Charmaine\
	Host : 169.254.61.224
Device : VMP-3e (SN .003165)
Address : USB
EC-LAB for windows v11.62 (software)
Internet server v27.00 (firmware)
Command interpretor v12.03 (firmware)
Electrode material :
Initial state :
Electrolyte :
Comments :
Electrode surface area : 0.001 cm²
Characteristic mass : 0.001 g
Equivalent Weight : 0.000 g/eq.
Density : 0.000 g/cm3
Volume (V) : 0.001 cm³
Cycle Definition : Charge/Discharge alternance
Mode                Single sine
E (V)               0.0000
vs.                 Eoc
tE (h:m:s)          0:00:0.0000
record              0
dI                  0.000
unit dI             mA
dt (s)              0.000
fi                  100.000
unit fi             kHz
ff                  10.000
unit ff             mHz
Nd                  6
Points              per decade
spacing             Logarithmic
Va (mV)             5.0
pw                  0.10
Na                  2
corr                0
E range min (V)     -10.000
E range max (V)     10.000
I Range             Auto
Bandwidth           5
nc cycles           0
goto Ns'            0
nr cycles           0
inc. cycle          0

freq/Hz	Re(Z)/Ohm	-Im(Z)/Ohm	|Z|/Ohm	Phase(Z)/deg	time/s	<Ewe>/V	<I>/mA	Cs/µF	Cp/µF	cycle number	I Range	|Ewe|/V	|I|/A	Ns	(Q-Qo)/mA.h	Re(Y)/Ohm-1	Im(Y)/Ohm-1	|Y|/Ohm-1	Phase(Y)/deg	Re(C)/nF	Im(C)/nF	|C|/nF	Phase(C)/deg	Re(M)	Im(M)	|M|	Phase(M)/deg	Re(Permittivity)	Im(Permittivity)	|Permittivity|	Phase(Permittivity)/deg	Re(Resistivity)/Ohm.cm	Im(Resistivity)/Ohm.cm	|Resistivity|/Ohm.cm	Phase(Resistivity)/deg	Re(Conductivity)/mS/cm	Im(Conductivity)/mS/cm	|Conductivity|/mS/cm	Phase(Conductivity)/deg	Tan(Delta)	Loss Angle(Delta)/deg	dq/mA.h	Pwe/W	Rwe/Ohm
100004	1.13379	0.239765	1.15887	-11.9405	1.8645	0.275352	-0.0017159	6.6377	0.284134	1	9	0.00489759	0.00422619	0	2.06451e-06	0.844241	0.178533	0.862912	11.9405	284.134	1343.6	1373.32	-78.0595	0.0000000E+000	0.0000000E+000	0.0000000E+000	78.0595	0.0000000E+000	0.0000000E+000	0.0000000E+000	-78.0595	0.0000000E+000	0.0000000E+000	0.0000000E+000	-11.9405	0.0000000E+000	0.0000000E+000	0.0000000E+000	11.9405	4.72876	78.0595	2.06451e-06	-4.72477e-07	160471
68132	1.19387	0.26853	1.22369	-12.6763	2.4425	0.275338	-0.00117593	8.69914	0.418905	1	9	0.00503779	0.00411687	0	-1.14025e-05	0.797279	0.179328	0.817198	12.6763	418.905	1862.43	1908.96	-77.3237	0.0000000E+000	0.0000000E+000	0.0000000E+000	77.3237	0.0000000E+000	0.0000000E+000	0.0000000E+000	-77.3237	0.0000000E+000	0.0000000E+000	0.0000000E+000	-12.6763	0.0000000E+000	0.0000000E+000	0.0000000E+000	12.6763	4.44594	77.3237	-1.34671e-05	-3.23777e-07	234146
46420.4	1.25836	0.298023	1.29317	-13.3241	3.02049	0.275333	-0.00735774	11.5043	0.611013	1	9	0.00505917	0.00391223	0	-1.84093e-05	0.752478	0.178213	0.773294	13.3241	611.014	2579.92	2651.28	-76.6759	0.0000000E+000	0.0000000E+000	0.0000000E+000	76.6759	0.0000000E+000	0.0000000E+000	0.0000000E+000	-76.6759	0.0000000E+000	0.0000000E+000	0.0000000E+000	-13.3241	0.0000000E+000	0.0000000E+000	0.0000000E+000	13.3241	4.22236	76.6759	-7.0068e-06	-2.02583e-06	37420.9
31621.1	1.33155	0.334668	1.37296	-14.1084	3.59849	0.275336	-0.00758118	15.0393	0.893594	1	9	0.00504255	0.00367275	0	-1.77881e-05	0.706383	0.177541	0.728352	14.1084	893.594	3555.35	3665.93	-75.8916	0.0000000E+000	0.0000000E+000	0.0000000E+000	75.8916	0.0000000E+000	0.0000000E+000	0.0000000E+000	-75.8916	0.0000000E+000	0.0000000E+000	0.0000000E+000	-14.1084	0.0000000E+000	0.0000000E+000	0.0000000E+000	14.1084	3.97871	75.8916	6.21239e-07	-2.08738e-06	36318.4
21544.7	1.40843	0.379517	1.45866	-15.0808	4.03549	0.275334	-0.00808392	19.4648	1.31765	1	9	0.00527639	0.00361729	0	-1.90381e-05	0.661949	0.17837	0.68556	15.0808	1317.65	4889.95	5064.37	-74.9192	0.0000000E+000	0.0000000E+000	0.0000000E+000	74.9192	0.0000000E+000	0.0000000E+000	0.0000000E+000	-74.9192	0.0000000E+000	0.0000000E+000	0.0000000E+000	-15.0808	0.0000000E+000	0.0000000E+000	0.0000000E+000	15.0808	3.7111	74.9192	-1.25002e-06	-2.22578e-06	34059.4
14678.6	1.49282	0.423883	1.55183	-15.8518	4.33148	0.275336	-0.00746948	25.5794	1.9085	1	9	0.0045776	0.00294981	0	-2.08973e-05	0.619894	0.176018	0.644399	15.8518	1908.5	6721.3	6987	-74.1482	0.0000000E+000	0.0000000E+000	0.0000000E+000	74.1482	0.0000000E+000	0.0000000E+000	0.0000000E+000	-74.1482	0.0000000E+000	0.0000000E+000	0.0000000E+000	-15.8518	0.0000000E+000	0.0000000E+000	0.0000000E+000	15.8518	3.52177	74.1482	-1.85913e-06	-2.05662e-06	36861.5
10002.2	1.58883	0.479642	1.65965	-16.7982	4.76848	0.275334	-0.000189097	33.1746	2.7708	1	9	0.00494887	0.00298187	0	-2.21697e-05	0.576824	0.174133	0.602535	16.7982	2770.8	9178.4	9587.51	-73.2018	0.0000000E+000	0.0000000E+000	0.0000000E+000	73.2018	0.0000000E+000	0.0000000E+000	0.0000000E+000	-73.2018	0.0000000E+000	0.0000000E+000	0.0000000E+000	-16.7982	0.0000000E+000	0.0000000E+000	0.0000000E+000	16.7982	3.31254	73.2018	-1.27243e-06	-5.20649e-08	1.45605e+06
6811.07	1.69234	0.551236	1.77986	-18.0417	5.14652	0.275082	-0.164752	42.3904	4.06605	1	9	0.00467753	0.00262804	0	-3.88829e-05	0.534218	0.174007	0.561843	18.0417	4066.05	12483.1	13128.6	-71.9583	0.0000000E+000	0.0000000E+000	0.0000000E+000	71.9583	0.0000000E+000	0.0000000E+000	0.0000000E+000	-71.9583	0.0000000E+000	0.0000000E+000	0.0000000E+000	-18.0417	0.0000000E+000	0.0000000E+000	0.0000000E+000	18.0417	3.07009	71.9583	-1.67132e-05	-4.53202e-05	1669.67
4641.49	1.80029	0.645034	1.91236	-19.7123	5.61771	0.275326	0.0279456	53.1594	6.04795	1	9	0.00454138	0.00237476	0	-3.71811e-05	0.492271	0.176378	0.522915	19.7123	6047.95	16879.8	17930.6	-70.2877	0.0000000E+000	0.0000000E+000	0.0000000E+000	70.2877	0.0000000E+000	0.0000000E+000	0.0000000E+000	-70.2877	0.0000000E+000	0.0000000E+000	0.0000000E+000	-19.7123	0.0000000E+000	0.0000000E+000	0.0000000E+000	19.7123	2.791	70.2877	1.70181e-06	7.69415e-06	9852.23
3161.01	1.9157	0.76549	2.06298	-21.781	6.30771	0.275325	0.0303475	65.774	9.05616	1	9	0.00486493	0.00235821	0	-3.10496e-05	0.45013	0.179866	0.484736	21.781	9056.16	22663.8	24406.1	-68.2189	0.0000000E+000	0.0000000E+000	0.0000000E+000	68.2189	0.0000000E+000	0.0000000E+000	0.0000000E+000	-68.2189	0.0000000E+000	0.0000000E+000	0.0000000E+000	-21.781	0.0000000E+000	0.0000000E+000	0.0000000E+000	21.781	2.50258	68.2189	6.13149e-06	8.35545e-06	9072.41
2155.69	2.05667	0.919337	2.2528	-24.0847	6.7747	0.275329	0.0303475	80.308	13.3741	1	9	0.00480822	0.00213433	0	-3.01121e-05	0.405249	0.181147	0.443893	24.0847	13374.1	29919.6	32772.7	-65.9153	0.0000000E+000	0.0000000E+000	0.0000000E+000	65.9153	0.0000000E+000	0.0000000E+000	0.0000000E+000	-65.9153	0.0000000E+000	0.0000000E+000	0.0000000E+000	-24.0847	0.0000000E+000	0.0000000E+000	0.0000000E+000	24.0847	2.23713	65.9153	9.37535e-07	8.35555e-06	9072.54
1468.59	2.22786	1.13144	2.49871	-26.9242	7.24193	0.275324	0.0256181	95.7825	19.6391	1	9	0.00479048	0.00191718	0	-2.79747e-05	0.356827	0.181219	0.400207	26.9242	19639.1	38670.3	43371.5	-63.0758	0.0000000E+000	0.0000000E+000	0.0000000E+000	63.0758	0.0000000E+000	0.0000000E+000	0.0000000E+000	-63.0758	0.0000000E+000	0.0000000E+000	0.0000000E+000	-26.9242	0.0000000E+000	0.0000000E+000	0.0000000E+000	26.9242	1.96904	63.0758	2.13733e-06	7.05326e-06	10747.3
1000.32	2.42272	1.42209	2.80926	-30.4122	7.71068	0.275324	0.0276104	111.88	28.67	1	9	0.00476467	0.00169606	0	-2.4383e-05	0.306987	0.180196	0.355966	30.4122	28670	48842.9	56635.6	-59.5878	0.0000000E+000	0.0000000E+000	0.0000000E+000	59.5878	0.0000000E+000	0.0000000E+000	0.0000000E+000	-59.5878	0.0000000E+000	0.0000000E+000	0.0000000E+000	-30.4122	0.0000000E+000	0.0000000E+000	0.0000000E+000	30.4122	1.70363	59.5878	3.59173e-06	7.60179e-06	9971.74
681.09	2.67068	1.78095	3.21003	-33.6974	8.43045	0.275279	-0.0173532	131.209	40.3876	1	10	0.00485452	0.0015123	0	-2.56196e-05	0.259181	0.172835	0.311524	33.6974	40387.6	60564.6	72795.8	-56.3026	0.0000000E+000	0.0000000E+000	0.0000000E+000	56.3026	0.0000000E+000	0.0000000E+000	0.0000000E+000	-56.3026	0.0000000E+000	0.0000000E+000	0.0000000E+000	-33.6974	0.0000000E+000	0.0000000E+000	0.0000000E+000	33.6974	1.49958	56.3026	-1.23662e-06	-4.77697e-06	15863.2
463.961	3.01482	2.26626	3.77162	-36.9325	8.8992	0.275279	-0.0160109	151.366	54.6505	1	10	0.00481501	0.00127664	0	-2.79988e-05	0.211937	0.159315	0.265138	36.9325	54650.5	72701.9	90951.9	-53.0675	0.0000000E+000	0.0000000E+000	0.0000000E+000	53.0675	0.0000000E+000	0.0000000E+000	0.0000000E+000	-53.0675	0.0000000E+000	0.0000000E+000	0.0000000E+000	-36.9325	0.0000000E+000	0.0000000E+000	0.0000000E+000	36.9325	1.3303	53.0675	-2.3792e-06	-4.40747e-06	17193.2
316.316	3.48482	2.86848	4.51355	-39.459	9.36591	0.275279	-0.0168785	175.407	70.8459	1	10	0.00478826	0.00106086	0	-2.96901e-05	0.171058	0.140804	0.221555	39.459	70845.9	86068.3	111476	-50.541	0.0000000E+000	0.0000000E+000	0.0000000E+000	50.541	0.0000000E+000	0.0000000E+000	0.0000000E+000	-50.541	0.0000000E+000	0.0000000E+000	0.0000000E+000	-39.459	0.0000000E+000	0.0000000E+000	0.0000000E+000	39.459	1.21487	50.541	-1.69122e-06	-4.6463e-06	16309.5
215.345	4.12699	3.59726	5.4747	-41.0768	9.83343	0.275285	-0.0165266	205.454	88.7029	1	10	0.00476453	0.00087028	0	-3.08183e-05	0.137693	0.120019	0.182658	41.0768	88702.9	101765	134998	-48.9232	0.0000000E+000	0.0000000E+000	0.0000000E+000	48.9232	0.0000000E+000	0.0000000E+000	0.0000000E+000	-48.9232	0.0000000E+000	0.0000000E+000	0.0000000E+000	-41.0768	0.0000000E+000	0.0000000E+000	0.0000000E+000	41.0768	1.14726	48.9232	-1.12829e-06	-4.54954e-06	16657.1
146.737	5.01833	4.45215	6.7086	-41.5787	10.2964	0.275281	-0.0165918	243.618	107.297	1	10	0.00476029	0.000709581	0	-3.30796e-05	0.111505	0.0989251	0.149062	41.5787	107297	120941	161677	-48.4213	0.0000000E+000	0.0000000E+000	0.0000000E+000	48.4213	0.0000000E+000	0.0000000E+000	0.0000000E+000	-48.4213	0.0000000E+000	0.0000000E+000	0.0000000E+000	-41.5787	0.0000000E+000	0.0000000E+000	0.0000000E+000	41.5787	1.12717	48.4213	-2.26125e-06	-4.56741e-06	16591.4
100.032	6.20846	5.37146	8.2096	-40.8658	10.7647	0.275281	-0.0158304	296.202	126.803	1	10	0.00474699	0.000578224	0	-3.54623e-05	0.092117	0.0796982	0.121809	40.8658	126803	146562	193802	-49.1342	0.0000000E+000	0.0000000E+000	0.0000000E+000	49.1342	0.0000000E+000	0.0000000E+000	0.0000000E+000	-49.1342	0.0000000E+000	0.0000000E+000	0.0000000E+000	-40.8658	0.0000000E+000	0.0000000E+000	0.0000000E+000	40.8658	1.15582	49.1342	-2.38267e-06	-4.35779e-06	17389.4
68.104	7.7718	6.27389	9.98812	-38.9127	11.2423	0.275282	-0.0148027	372.487	146.966	1	10	0.00474187	0.00047475	0	-3.75387e-05	0.077903	0.0628882	0.100119	38.9127	146966	182055	233972	-51.0873	0.0000000E+000	0.0000000E+000	0.0000000E+000	51.0873	0.0000000E+000	0.0000000E+000	0.0000000E+000	-51.0873	0.0000000E+000	0.0000000E+000	0.0000000E+000	-38.9127	0.0000000E+000	0.0000000E+000	0.0000000E+000	38.9127	1.23875	51.0873	-2.07647e-06	-4.07492e-06	18596.7
46.4415	9.70956	7.03863	11.9924	-35.939	11.6975	0.275278	-0.0180793	486.884	167.722	1	10	0.00474563	0.00039572	0	-3.98143e-05	0.0675129	0.0489413	0.0833861	35.939	167722	231366	285764	-54.061	0.0000000E+000	0.0000000E+000	0.0000000E+000	54.061	0.0000000E+000	0.0000000E+000	0.0000000E+000	-54.061	0.0000000E+000	0.0000000E+000	0.0000000E+000	-35.939	0.0000000E+000	0.0000000E+000	0.0000000E+000	35.939	1.37947	54.061	-2.27552e-06	-4.97683e-06	15226.1
31.6296	11.9111	7.41154	14.0288	-31.8914	12.1434	0.275268	-0.0190046	678.92	189.495	1	10	0.00473837	0.000337761	0	-4.18993e-05	0.0605222	0.0376591	0.0712822	31.8914	189495	304538	358681	-58.1086	0.0000000E+000	0.0000000E+000	0.0000000E+000	58.1086	0.0000000E+000	0.0000000E+000	0.0000000E+000	-58.1086	0.0000000E+000	0.0000000E+000	0.0000000E+000	-31.8914	0.0000000E+000	0.0000000E+000	0.0000000E+000	31.8914	1.60711	58.1086	-2.08501e-06	-5.23134e-06	14484.3
21.5517	14.2491	7.42626	16.0682	-27.5274	12.8233	0.275297	-0.00914272	994.415	212.41	1	11	0.00474858	0.000295527	0	-4.39197e-05	0.0551892	0.0287632	0.0622348	27.5274	212410	407561	459591	-62.4726	0.0000000E+000	0.0000000E+000	0.0000000E+000	62.4726	0.0000000E+000	0.0000000E+000	0.0000000E+000	-62.4726	0.0000000E+000	0.0000000E+000	0.0000000E+000	-27.5274	0.0000000E+000	0.0000000E+000	0.0000000E+000	27.5274	1.91874	62.4726	-2.02046e-06	-2.51696e-06	30111.1
14.6852	16.348	7.04486	17.8013	-23.3127	13.301	0.275304	-0.00825138	1538.4	240.94	1	11	0.00474585	0.000266601	0	-4.51305e-05	0.0515893	0.0222314	0.0561755	23.3127	240940	559115	608820	-66.6873	0.0000000E+000	0.0000000E+000	0.0000000E+000	66.6873	0.0000000E+000	0.0000000E+000	0.0000000E+000	-66.6873	0.0000000E+000	0.0000000E+000	0.0000000E+000	-23.3127	0.0000000E+000	0.0000000E+000	0.0000000E+000	23.3127	2.32056	66.6873	-1.21075e-06	-2.27164e-06	33364.6
10.0032	18.186	6.47629	19.3047	-19.6015	13.7697	0.275309	-0.0080252	2456.72	276.49	1	11	0.00474685	0.00024589	0	-4.79121e-05	0.0487988	0.0173779	0.0518007	19.6015	276490	776409	824170	-70.3985	0.0000000E+000	0.0000000E+000	0.0000000E+000	70.3985	0.0000000E+000	0.0000000E+000	0.0000000E+000	-70.3985	0.0000000E+000	0.0000000E+000	0.0000000E+000	-19.6015	0.0000000E+000	0.0000000E+000	0.0000000E+000	19.6015	2.80809	70.3985	-2.78159e-06	-2.20941e-06	34305.5
6.81719	19.7312	5.78087	20.5606	-16.3296	14.1274	0.275283	-0.00967942	4038.51	319.255	1	11	0.00474393	0.000230729	0	-4.70535e-05	0.0466748	0.0136748	0.0486368	16.3296	319255	1.08967e+06	1.13548e+06	-73.6704	0.0000000E+000	0.0000000E+000	0.0000000E+000	73.6704	0.0000000E+000	0.0000000E+000	0.0000000E+000	-73.6704	0.0000000E+000	0.0000000E+000	0.0000000E+000	-16.3296	0.0000000E+000	0.0000000E+000	0.0000000E+000	16.3296	3.41318	73.6704	8.58525e-07	-2.66458e-06	28440
4.63925	21.0374	5.16978	21.6633	-13.8064	14.6293	0.275303	-0.00808328	6635.91	377.914	1	11	0.00474112	0.000218854	0	-5.12177e-05	0.0448272	0.0110159	0.0461609	13.8064	377914	1.53785e+06	1.5836e+06	-76.1936	0.0000000E+000	0.0000000E+000	0.0000000E+000	76.1936	0.0000000E+000	0.0000000E+000	0.0000000E+000	-76.1936	0.0000000E+000	0.0000000E+000	0.0000000E+000	-13.8064	0.0000000E+000	0.0000000E+000	0.0000000E+000	13.8064	4.06931	76.1936	-4.16419e-06	-2.22535e-06	34058.3
3.1604	22.2356	4.63159	22.7129	-11.7662	15.3383	0.275292	-0.00833367	10873	452.132	1	11	0.00474482	0.000208905	0	-5.10649e-05	0.0431028	0.00897815	0.0440279	11.7662	452132	2.17062e+06	2.21721e+06	-78.2337	0.0000000E+000	0.0000000E+000	0.0000000E+000	78.2337	0.0000000E+000	0.0000000E+000	0.0000000E+000	-78.2337	0.0000000E+000	0.0000000E+000	0.0000000E+000	-11.7662	0.0000000E+000	0.0000000E+000	0.0000000E+000	11.7662	4.80086	78.2337	1.52817e-07	-2.29419e-06	33033.8
2.15577	23.1949	4.08297	23.5515	-9.98342	16.3548	0.275307	-0.00698447	18081.8	543.446	1	11	0.00474505	0.000201475	0	-4.89427e-05	0.0418172	0.00736102	0.0424601	9.98342	543446	3.08726e+06	3.13472e+06	-80.0166	0.0000000E+000	0.0000000E+000	0.0000000E+000	80.0166	0.0000000E+000	0.0000000E+000	0.0000000E+000	-80.0166	0.0000000E+000	0.0000000E+000	0.0000000E+000	-9.98342	0.0000000E+000	0.0000000E+000	0.0000000E+000	9.98342	5.6809	80.0166	2.1222e-06	-1.92287e-06	39417
1.46631	24.0826	3.65874	24.3589	-8.63857	17.828	0.275305	-0.00652034	29666.3	669.281	1	11	0.00474506	0.000194797	0	-5.07917e-05	0.040587	0.00616615	0.0410527	8.63857	669281	4.40535e+06	4.4559e+06	-81.3614	0.0000000E+000	0.0000000E+000	0.0000000E+000	81.3614	0.0000000E+000	0.0000000E+000	0.0000000E+000	-81.3614	0.0000000E+000	0.0000000E+000	0.0000000E+000	-8.63857	0.0000000E+000	0.0000000E+000	0.0000000E+000	8.63857	6.58222	81.3614	-1.84903e-06	-1.79508e-06	42222.5
1.00006	24.8104	3.27921	25.0262	-7.52918	21.0181	0.275306	-0.00535476	48531.4	833.243	1	12	0.00474553	0.000189622	0	-6.14871e-05	0.0396136	0.00523576	0.0399581	7.52918	833243	6.3043e+06	6.35912e+06	-82.4708	0.0000000E+000	0.0000000E+000	0.0000000E+000	82.4708	0.0000000E+000	0.0000000E+000	0.0000000E+000	-82.4708	0.0000000E+000	0.0000000E+000	0.0000000E+000	-7.52918	0.0000000E+000	0.0000000E+000	0.0000000E+000	7.52918	7.56598	82.4708	-1.06954e-05	-1.4742e-06	51413.5
0.681362	25.4536	2.96779	25.6261	-6.65043	24.1381	0.275305	-0.00525286	78706.1	1055.63	1	12	0.00474452	0.000185145	0	-7.45054e-05	0.0387602	0.00451929	0.0390228	6.65043	1.05563e+06	9.05374e+06	9.11507e+06	-83.3496	0.0000000E+000	0.0000000E+000	0.0000000E+000	83.3496	0.0000000E+000	0.0000000E+000	0.0000000E+000	-83.3496	0.0000000E+000	0.0000000E+000	0.0000000E+000	-6.65043	0.0000000E+000	0.0000000E+000	0.0000000E+000	6.65043	8.57662	83.3496	-1.30183e-05	-1.44614e-06	52410.6
0.464091	26.0485	2.75473	26.1938	-6.03681	28.7029	0.275314	-0.00516123	124491	1376.9	1	12	0.00474443	0.000181128	0	-8.67233e-05	0.0379653	0.00401498	0.038177	6.03681	1.3769e+06	1.30198e+07	1.30924e+07	-83.9632	0.0000000E+000	0.0000000E+000	0.0000000E+000	83.9632	0.0000000E+000	0.0000000E+000	0.0000000E+000	-83.9632	0.0000000E+000	0.0000000E+000	0.0000000E+000	-6.03681	0.0000000E+000	0.0000000E+000	0.0000000E+000	6.03681	9.45592	83.9632	-1.22178e-05	-1.42096e-06	53342.7
0.316193	26.5561	2.69381	26.6924	-5.79218	35.3852	0.275305	-0.00556291	186853	1903.09	1	12	0.00474803	0.000177879	0	-9.24735e-05	0.0372725	0.00378087	0.0374638	5.79218	1.90309e+06	1.8761e+07	1.88573e+07	-84.2078	0.0000000E+000	0.0000000E+000	0.0000000E+000	84.2078	0.0000000E+000	0.0000000E+000	0.0000000E+000	-84.2078	0.0000000E+000	0.0000000E+000	0.0000000E+000	-5.79218	0.0000000E+000	0.0000000E+000	0.0000000E+000	5.79218	9.8582	84.2078	-5.75021e-06	-1.5315e-06	49489.4
0.215268	26.9861	2.73376	27.1242	-5.78447	45.1829	0.275309	-0.00521518	270446	2747.18	1	12	0.00474756	0.00017503	0	-8.72689e-05	0.0366797	0.00371574	0.0368674	5.78447	2.74718e+06	2.71186e+07	2.72573e+07	-84.2155	0.0000000E+000	0.0000000E+000	0.0000000E+000	84.2155	0.0000000E+000	0.0000000E+000	0.0000000E+000	-84.2155	0.0000000E+000	0.0000000E+000	0.0000000E+000	-5.78447	0.0000000E+000	0.0000000E+000	0.0000000E+000	5.78447	9.87142	84.2155	5.20455e-06	-1.43578e-06	52789.9
0.146929	27.4134	2.88031	27.5643	-5.99804	59.5212	0.275309	-0.0043639	376074	4106.38	1	12	0.00474642	0.000172195	0	-7.19587e-05	0.0360802	0.00379094	0.0362788	5.99804	4.10639e+06	3.90825e+07	3.92977e+07	-84.002	0.0000000E+000	0.0000000E+000	0.0000000E+000	84.002	0.0000000E+000	0.0000000E+000	0.0000000E+000	-84.002	0.0000000E+000	0.0000000E+000	0.0000000E+000	-5.99804	0.0000000E+000	0.0000000E+000	0.0000000E+000	5.99804	9.5175	84.002	1.53102e-05	-1.20142e-06	63087.9
0.0999041	27.9411	3.20992	28.1248	-6.5535	80.5911	0.275313	-0.00292551	496299	6464.73	1	12	0.00474668	0.000168772	0	-5.6202e-05	0.0353234	0.00405801	0.0355558	6.5535	6.46473e+06	5.62729e+07	5.66431e+07	-83.4465	0.0000000E+000	0.0000000E+000	0.0000000E+000	83.4465	0.0000000E+000	0.0000000E+000	0.0000000E+000	-83.4465	0.0000000E+000	0.0000000E+000	0.0000000E+000	-6.5535	0.0000000E+000	0.0000000E+000	0.0000000E+000	6.5535	8.70461	83.4465	1.57567e-05	-8.05432e-07	94107.6
0.0680626	28.4934	3.78052	28.7431	-7.55789	111.503	0.275308	-0.00166083	618528	10700.3	1	12	0.00474485	0.000165078	0	-5.7174e-05	0.0344887	0.00457598	0.0347909	7.55789	1.07003e+07	8.0647e+07	8.13537e+07	-82.4421	0.0000000E+000	0.0000000E+000	0.0000000E+000	82.4421	0.0000000E+000	0.0000000E+000	0.0000000E+000	-82.4421	0.0000000E+000	0.0000000E+000	0.0000000E+000	-7.55789	0.0000000E+000	0.0000000E+000	0.0000000E+000	7.55789	7.5369	82.4421	-9.71998e-07	-4.5724e-07	165766
0.0464052	29.0984	4.63982	29.466	-9.05969	156.828	0.275308	-0.000610482	739184	18327.9	1	12	0.0047464	0.000161081	0	-0.000110375	0.033514	0.0053439	0.0339374	9.05969	1.83279e+07	1.14942e+08	1.16394e+08	-80.9403	0.0000000E+000	0.0000000E+000	0.0000000E+000	80.9403	0.0000000E+000	0.0000000E+000	0.0000000E+000	-80.9403	0.0000000E+000	0.0000000E+000	0.0000000E+000	-9.05969	0.0000000E+000	0.0000000E+000	0.0000000E+000	9.05969	6.27146	80.9403	-5.3201e-05	-1.68071e-07	450968
0.0315922	29.8134	5.69492	30.3524	-10.8143	223.389	0.275312	-0.000272662	884611	31141.6	1	12	0.00474631	0.000156373	0	-0.000245099	0.0323612	0.0061816	0.0329463	10.8143	3.11416e+07	1.63029e+08	1.65977e+08	-79.1857	0.0000000E+000	0.0000000E+000	0.0000000E+000	79.1857	0.0000000E+000	0.0000000E+000	0.0000000E+000	-79.1857	0.0000000E+000	0.0000000E+000	0.0000000E+000	-10.8143	0.0000000E+000	0.0000000E+000	0.0000000E+000	10.8143	5.23508	79.1857	-0.000134724	-7.50671e-08	1.00972e+06
0.0215268	30.8012	7.04344	31.5962	-12.8806	321.057	0.275309	-0.000819059	1.04968e+06	52162	1	12	0.00474583	0.000150202	0	-0.000457767	0.0308529	0.00705527	0.0316493	12.8806	5.2162e+07	2.28106e+08	2.33994e+08	-77.1194	0.0000000E+000	0.0000000E+000	0.0000000E+000	77.1194	0.0000000E+000	0.0000000E+000	0.0000000E+000	-77.1194	0.0000000E+000	0.0000000E+000	0.0000000E+000	-12.8806	0.0000000E+000	0.0000000E+000	0.0000000E+000	12.8806	4.37303	77.1194	-0.000212668	-2.25494e-07	336128
0.0146812	32.0995	8.93214	33.3191	-15.55	464.253	0.275306	-0.00154748	1.21368e+06	87222.7	1	12	0.00474577	0.000142434	0	-0.000682166	0.0289143	0.00804582	0.0300129	15.55	8.72227e+07	3.13453e+08	3.25362e+08	-74.45	0.0000000E+000	0.0000000E+000	0.0000000E+000	74.45	0.0000000E+000	0.0000000E+000	0.0000000E+000	-74.45	0.0000000E+000	0.0000000E+000	0.0000000E+000	-15.55	0.0000000E+000	0.0000000E+000	0.0000000E+000	15.55	3.59371	74.45	-0.000224399	-4.26032e-07	177906
0.0100092	33.4748	11.5561	35.4134	-19.0455	674.274	0.275309	-0.00170964	1.37598e+06	146520	1	12	0.00474566	0.000134008	0	-0.000771299	0.0266922	0.00921459	0.0282379	19.0455	1.4652e+08	4.2443e+08	4.49009e+08	-70.9545	0.0000000E+000	0.0000000E+000	0.0000000E+000	70.9545	0.0000000E+000	0.0000000E+000	0.0000000E+000	-70.9545	0.0000000E+000	0.0000000E+000	0.0000000E+000	-19.0455	0.0000000E+000	0.0000000E+000	0.0000000E+000	19.0455	2.89673	70.9545	-8.91332e-05	-4.70678e-07	161034