File: txt/17708_R287_UA662_SOC00_C07.mpt
EC-Lab ASCII FILE
Nb header lines : 63

Potentio Electrochemical Impedance Spectroscopy

Run on channel : 7 (SN 66126)
User :
CE vs. WE compliance from -10 V to 10 V
Electrode connection : standard
Potential control : Ewe
Ewe ctrl range : min = -10.00 V, max = 10.00 V
Safety Limits :
	Do not start on E overload
Acquisition started on : 09/22/2025 10:03:44.761
Loaded Setting File :  C:\Users\Celltest\OneDrive - store-dot.com\Documents\EC-Lab\Data\Charmaine\17689_R288_UA670_SOC00_C04.mpr
Saved on :
	File : 17708_R287_UA662_SOC00_C07.mpr
	Directory : C:\Users\Celltest\OneDrive - store-dot.com\Documents\EC-Lab\Data\Charmaine\
	Host : 169.254.61.224
Device : VMP-3e (SN .003165)
Address : USB
EC-LAB for windows v11.62 (software)
Internet server v27.00 (firmware)
Command interpretor v12.03 (firmware)
Electrode material :
Initial state :
Electrolyte :
Comments :
Electrode surface area : 0.001 cm²
Characteristic mass : 0.001 g
Equivalent Weight : 0.000 g/eq.
Density : 0.000 g/cm3
Volume (V) : 0.001 cm³
Cycle Definition : Charge/Discharge alternance
Mode                Single sine
E (V)               0.0000
vs.                 Eoc
tE (h:m:s)          0:00:0.0000
record              0
dI                  0.000
unit dI             mA
dt (s)              0.000
fi                  100.000
unit fi             kHz
ff                  10.000
unit ff             mHz
Nd                  6
Points              per decade
spacing             Logarithmic
Va (mV)             5.0
pw                  0.10
Na                  2
corr                0
E range min (V)     -10.000
E range max (V)     10.000
I Range             Auto
Bandwidth           5
nc cycles           0
goto Ns'            0
nr cycles           0
inc. cycle          0

freq/Hz	Re(Z)/Ohm	-Im(Z)/Ohm	|Z|/Ohm	Phase(Z)/deg	time/s	<Ewe>/V	<I>/mA	Cs/µF	Cp/µF	cycle number	I Range	|Ewe|/V	|I|/A	Ns	(Q-Qo)/mA.h	Re(Y)/Ohm-1	Im(Y)/Ohm-1	|Y|/Ohm-1	Phase(Y)/deg	Re(C)/nF	Im(C)/nF	|C|/nF	Phase(C)/deg	Re(M)	Im(M)	|M|	Phase(M)/deg	Re(Permittivity)	Im(Permittivity)	|Permittivity|	Phase(Permittivity)/deg	Re(Resistivity)/Ohm.cm	Im(Resistivity)/Ohm.cm	|Resistivity|/Ohm.cm	Phase(Resistivity)/deg	Re(Conductivity)/mS/cm	Im(Conductivity)/mS/cm	|Conductivity|/mS/cm	Phase(Conductivity)/deg	Tan(Delta)	Loss Angle(Delta)/deg	dq/mA.h	Pwe/W	Rwe/Ohm
100004	1.13627	0.21758	1.15691	-10.8402	2.2275	0.277351	0.0723385	7.3145	0.258717	1	9	0.00488655	0.00422379	0	5.84625e-06	0.848948	0.162563	0.864372	10.8402	258.717	1351.09	1375.64	-79.1598	0.0000000E+000	0.0000000E+000	0.0000000E+000	79.1598	0.0000000E+000	0.0000000E+000	0.0000000E+000	-79.1598	0.0000000E+000	0.0000000E+000	0.0000000E+000	-10.8402	0.0000000E+000	0.0000000E+000	0.0000000E+000	10.8402	5.22228	79.1598	5.84625e-06	2.00632e-05	3834.08
68132	1.18594	0.253358	1.2127	-12.0591	2.66449	0.277359	0.0723757	9.22005	0.402435	1	9	0.0053859	0.00444124	0	6.40629e-06	0.806408	0.172277	0.824605	12.0591	402.435	1883.75	1926.26	-77.9409	0.0000000E+000	0.0000000E+000	0.0000000E+000	77.9409	0.0000000E+000	0.0000000E+000	0.0000000E+000	-77.9409	0.0000000E+000	0.0000000E+000	0.0000000E+000	-12.0591	0.0000000E+000	0.0000000E+000	0.0000000E+000	12.0591	4.68088	77.9409	5.60036e-07	2.00741e-05	3832.22
46420.4	1.24503	0.288937	1.27812	-13.0655	3.1015	0.277378	0.0709607	11.8661	0.606419	1	9	0.00536365	0.00419652	0	1.93953e-05	0.762146	0.176873	0.7824	13.0655	606.419	2613.06	2682.51	-76.9345	0.0000000E+000	0.0000000E+000	0.0000000E+000	76.9345	0.0000000E+000	0.0000000E+000	0.0000000E+000	-76.9345	0.0000000E+000	0.0000000E+000	0.0000000E+000	-13.0655	0.0000000E+000	0.0000000E+000	0.0000000E+000	13.0655	4.30901	76.9345	1.2989e-05	1.9683e-05	3908.9
31621.1	1.31148	0.326885	1.3516	-13.9957	3.53949	0.277381	0.0649098	15.3974	0.900614	1	9	0.00535555	0.00396236	0	3.12614e-05	0.717898	0.178935	0.739861	13.9957	900.614	3613.31	3723.86	-76.0043	0.0000000E+000	0.0000000E+000	0.0000000E+000	76.0043	0.0000000E+000	0.0000000E+000	0.0000000E+000	-76.0043	0.0000000E+000	0.0000000E+000	0.0000000E+000	-13.9957	0.0000000E+000	0.0000000E+000	0.0000000E+000	13.9957	4.01205	76.0043	1.18661e-05	1.80048e-05	4273.33
21544.7	1.38532	0.371598	1.4343	-15.0155	3.97748	0.277383	0.0603298	19.8796	1.33437	1	9	0.00535862	0.00373606	0	3.58943e-05	0.673401	0.180632	0.697206	15.0155	1334.37	4974.55	5150.4	-74.9845	0.0000000E+000	0.0000000E+000	0.0000000E+000	74.9845	0.0000000E+000	0.0000000E+000	0.0000000E+000	-74.9845	0.0000000E+000	0.0000000E+000	0.0000000E+000	-15.0155	0.0000000E+000	0.0000000E+000	0.0000000E+000	15.0155	3.72802	74.9845	4.63285e-06	1.67344e-05	4597.78
14678.6	1.46891	0.423579	1.52876	-16.0856	4.4155	0.277393	0.0655987	25.5977	1.96513	1	9	0.00540991	0.00353875	0	4.07898e-05	0.628514	0.181241	0.654124	16.0856	1965.13	6814.77	7092.44	-73.9144	0.0000000E+000	0.0000000E+000	0.0000000E+000	73.9144	0.0000000E+000	0.0000000E+000	0.0000000E+000	-73.9144	0.0000000E+000	0.0000000E+000	0.0000000E+000	-16.0856	0.0000000E+000	0.0000000E+000	0.0000000E+000	16.0856	3.46785	73.9144	4.8955e-06	1.81966e-05	4228.63
10002.2	1.56251	0.482521	1.63532	-17.1613	4.8525	0.277395	0.0673674	32.9767	2.87101	1	9	0.00535851	0.00327673	0	5.0399e-05	0.584275	0.180431	0.611501	17.1613	2871.01	9296.96	9730.17	-72.8387	0.0000000E+000	0.0000000E+000	0.0000000E+000	72.8387	0.0000000E+000	0.0000000E+000	0.0000000E+000	-72.8387	0.0000000E+000	0.0000000E+000	0.0000000E+000	-17.1613	0.0000000E+000	0.0000000E+000	0.0000000E+000	17.1613	3.23823	72.8387	9.60921e-06	1.86874e-05	4117.65
6811.07	1.66489	0.555743	1.7552	-18.4591	5.40752	0.277395	0.0574998	42.0466	4.21529	1	9	0.00535655	0.00305182	0	5.436e-05	0.540424	0.180394	0.569737	18.4591	4215.3	12628.1	13313.1	-71.5409	0.0000000E+000	0.0000000E+000	0.0000000E+000	71.5409	0.0000000E+000	0.0000000E+000	0.0000000E+000	-71.5409	0.0000000E+000	0.0000000E+000	0.0000000E+000	-18.4591	0.0000000E+000	0.0000000E+000	0.0000000E+000	18.4591	2.99579	71.5409	3.96096e-06	1.59502e-05	4824.27
4641.49	1.77587	0.652821	1.89205	-20.1838	6.10167	0.277398	0.0614468	52.5254	6.25302	1	9	0.00527653	0.00278878	0	6.82265e-05	0.49607	0.182359	0.528526	20.1838	6253.02	17010.1	18123	-69.8162	0.0000000E+000	0.0000000E+000	0.0000000E+000	69.8162	0.0000000E+000	0.0000000E+000	0.0000000E+000	-69.8162	0.0000000E+000	0.0000000E+000	0.0000000E+000	-20.1838	0.0000000E+000	0.0000000E+000	0.0000000E+000	20.1838	2.7203	69.8162	1.38665e-05	1.70453e-05	4514.44
3161.01	1.897	0.765577	2.04566	-21.9776	6.79171	0.277408	0.0583376	65.7666	9.21118	1	9	0.00517086	0.00252772	0	7.89252e-05	0.453316	0.182945	0.48884	21.9776	9211.19	22824.2	24612.8	-68.0224	0.0000000E+000	0.0000000E+000	0.0000000E+000	68.0224	0.0000000E+000	0.0000000E+000	0.0000000E+000	-68.0224	0.0000000E+000	0.0000000E+000	0.0000000E+000	-21.9776	0.0000000E+000	0.0000000E+000	0.0000000E+000	21.9776	2.47787	68.0224	1.06987e-05	1.61834e-05	4755.22
2155.69	2.02954	0.931885	2.23326	-24.6627	7.48168	0.2774	0.0566061	79.2267	13.7949	1	9	0.00508407	0.00227653	0	8.64648e-05	0.40693	0.186846	0.447776	24.6627	13794.9	30043.7	33059.4	-65.3373	0.0000000E+000	0.0000000E+000	0.0000000E+000	65.3373	0.0000000E+000	0.0000000E+000	0.0000000E+000	-65.3373	0.0000000E+000	0.0000000E+000	0.0000000E+000	-24.6627	0.0000000E+000	0.0000000E+000	0.0000000E+000	24.6627	2.17789	65.3373	7.53955e-06	1.57026e-05	4900.54
1468.59	2.2031	1.14622	2.48344	-27.487	7.94893	0.277406	0.0588962	94.5476	20.1411	1	9	0.00523219	0.00210683	0	9.35025e-05	0.357213	0.18585	0.402668	27.487	20141.1	38712.1	43638.1	-62.513	0.0000000E+000	0.0000000E+000	0.0000000E+000	62.513	0.0000000E+000	0.0000000E+000	0.0000000E+000	-62.513	0.0000000E+000	0.0000000E+000	0.0000000E+000	-27.487	0.0000000E+000	0.0000000E+000	0.0000000E+000	27.487	1.92205	62.513	7.03774e-06	1.63381e-05	4710.08
1000.32	2.39301	1.42175	2.7835	-30.7157	8.41769	0.277397	0.0541485	111.907	29.1959	1	9	0.00514655	0.00184895	0	0.000101253	0.30886	0.183502	0.35926	30.7157	29195.9	49140.9	57159.7	-59.2843	0.0000000E+000	0.0000000E+000	0.0000000E+000	59.2843	0.0000000E+000	0.0000000E+000	0.0000000E+000	-59.2843	0.0000000E+000	0.0000000E+000	0.0000000E+000	-30.7157	0.0000000E+000	0.0000000E+000	0.0000000E+000	30.7157	1.68314	59.2843	7.75084e-06	1.50206e-05	5122.89
681.09	2.66105	1.81987	3.22383	-34.3679	9.13744	0.277396	-0.00242834	128.403	40.9176	1	10	0.00511317	0.00158606	0	0.000104725	0.25604	0.175103	0.31019	34.3679	40917.6	59830.7	72484.2	-55.6321	0.0000000E+000	0.0000000E+000	0.0000000E+000	55.6321	0.0000000E+000	0.0000000E+000	0.0000000E+000	-55.6321	0.0000000E+000	0.0000000E+000	0.0000000E+000	-34.3679	0.0000000E+000	0.0000000E+000	0.0000000E+000	34.3679	1.46222	55.6321	3.4716e-06	-6.73612e-07	114233
463.961	3.00567	2.3189	3.79623	-37.6506	9.60619	0.277413	-0.00196299	147.93	55.1972	1	10	0.00498321	0.00131268	0	0.000103838	0.208563	0.160908	0.263419	37.6506	55197.2	71544.4	90362.2	-52.3494	0.0000000E+000	0.0000000E+000	0.0000000E+000	52.3494	0.0000000E+000	0.0000000E+000	0.0000000E+000	-52.3494	0.0000000E+000	0.0000000E+000	0.0000000E+000	-37.6506	0.0000000E+000	0.0000000E+000	0.0000000E+000	37.6506	1.29616	52.3494	-8.86472e-07	-5.4456e-07	141322
316.316	3.47479	2.9407	4.55213	-40.241	10.0729	0.277398	-0.00233155	171.1	71.4036	1	10	0.00487774	0.00107153	0	0.000103333	0.167687	0.141913	0.219677	40.241	71403.6	84372.1	110531	-49.759	0.0000000E+000	0.0000000E+000	0.0000000E+000	49.759	0.0000000E+000	0.0000000E+000	0.0000000E+000	-49.759	0.0000000E+000	0.0000000E+000	0.0000000E+000	-40.241	0.0000000E+000	0.0000000E+000	0.0000000E+000	40.241	1.18162	49.759	-5.0564e-07	-6.46768e-07	118976
215.345	4.12018	3.71142	5.54532	-42.0123	10.5404	0.277399	-0.00235948	199.134	89.2019	1	10	0.00481015	0.000867426	0	0.000103578	0.133987	0.120695	0.180332	42.0123	89201.9	99026.1	133278	-47.9877	0.0000000E+000	0.0000000E+000	0.0000000E+000	47.9877	0.0000000E+000	0.0000000E+000	0.0000000E+000	-47.9877	0.0000000E+000	0.0000000E+000	0.0000000E+000	-42.0123	0.0000000E+000	0.0000000E+000	0.0000000E+000	42.0123	1.11013	47.9877	2.44699e-07	-6.54518e-07	117568
146.737	5.00491	4.64408	6.82764	-42.8583	11.0034	0.277408	-0.00211937	233.55	108.053	1	10	0.00477812	0.000699821	0	0.000103353	0.107363	0.0996228	0.146464	42.8583	108053	116449	158858	-47.1417	0.0000000E+000	0.0000000E+000	0.0000000E+000	47.1417	0.0000000E+000	0.0000000E+000	0.0000000E+000	-47.1417	0.0000000E+000	0.0000000E+000	0.0000000E+000	-42.8583	0.0000000E+000	0.0000000E+000	0.0000000E+000	42.8583	1.0777	47.1417	-2.24729e-07	-5.8793e-07	130892
100.032	6.21703	5.64219	8.39559	-42.2249	11.4717	0.277407	-0.00228503	281.99	127.358	1	10	0.00475152	0.000565955	0	0.000103113	0.0882026	0.0800472	0.11911	42.2249	127358	140334	189509	-47.7751	0.0000000E+000	0.0000000E+000	0.0000000E+000	47.7751	0.0000000E+000	0.0000000E+000	0.0000000E+000	-47.7751	0.0000000E+000	0.0000000E+000	0.0000000E+000	-42.2249	0.0000000E+000	0.0000000E+000	0.0000000E+000	42.2249	1.10188	47.7751	-2.39772e-07	-6.33883e-07	121402
68.104	7.83815	6.68582	10.3023	-40.4637	11.9503	0.277409	-0.00108817	349.537	147.21	1	10	0.00474198	0.000460285	0	0.000102981	0.0738495	0.0629925	0.097066	40.4637	147210	172582	226837	-49.5363	0.0000000E+000	0.0000000E+000	0.0000000E+000	49.5363	0.0000000E+000	0.0000000E+000	0.0000000E+000	-49.5363	0.0000000E+000	0.0000000E+000	0.0000000E+000	-40.4637	0.0000000E+000	0.0000000E+000	0.0000000E+000	40.4637	1.17235	49.5363	-1.32309e-07	-3.01868e-07	254932
46.4415	9.88852	7.54791	12.44	-37.3545	12.4056	0.277397	-0.00310777	454.032	167.147	1	10	0.00473323	0.000380485	0	0.000102813	0.0638984	0.0487737	0.0803858	37.3545	167147	218980	275482	-52.6455	0.0000000E+000	0.0000000E+000	0.0000000E+000	52.6455	0.0000000E+000	0.0000000E+000	0.0000000E+000	-52.6455	0.0000000E+000	0.0000000E+000	0.0000000E+000	-37.3545	0.0000000E+000	0.0000000E+000	0.0000000E+000	37.3545	1.3101	52.6455	-1.67949e-07	-8.62085e-07	89259.1
31.6296	12.2683	8.077	14.6884	-33.3595	12.8524	0.2774	-0.00390072	622.984	188.377	1	10	0.00472771	0.000321867	0	0.000102315	0.0568637	0.0374371	0.068081	33.3595	188377	286129	342573	-56.6405	0.0000000E+000	0.0000000E+000	0.0000000E+000	56.6405	0.0000000E+000	0.0000000E+000	0.0000000E+000	-56.6405	0.0000000E+000	0.0000000E+000	0.0000000E+000	-33.3595	0.0000000E+000	0.0000000E+000	0.0000000E+000	33.3595	1.51892	56.6405	-4.9728e-07	-1.08206e-06	71115
21.5517	14.8382	8.16217	16.935	-28.8142	13.5323	0.277406	-0.00526967	904.758	210.172	1	11	0.00473704	0.000279719	0	0.000101537	0.0517383	0.0284601	0.0590494	28.8142	210172	382076	436067	-61.1858	0.0000000E+000	0.0000000E+000	0.0000000E+000	61.1858	0.0000000E+000	0.0000000E+000	0.0000000E+000	-61.1858	0.0000000E+000	0.0000000E+000	0.0000000E+000	-28.8142	0.0000000E+000	0.0000000E+000	0.0000000E+000	28.8142	1.81793	61.1858	-7.78828e-07	-1.46184e-06	52641.9
14.6852	17.1905	7.82994	18.8897	-24.4884	14.01	0.277407	-0.00445413	1384.15	237.822	1	11	0.00473679	0.000250761	0	0.000101299	0.0481769	0.0219437	0.052939	24.4884	237822	522132	573743	-65.5116	0.0000000E+000	0.0000000E+000	0.0000000E+000	65.5116	0.0000000E+000	0.0000000E+000	0.0000000E+000	-65.5116	0.0000000E+000	0.0000000E+000	0.0000000E+000	-24.4884	0.0000000E+000	0.0000000E+000	0.0000000E+000	24.4884	2.19548	65.5116	-2.37331e-07	-1.2356e-06	62280.8
10.0032	19.2323	7.17712	20.5278	-20.4646	14.4787	0.277409	-0.00458197	2216.82	270.985	1	11	0.00472406	0.00023013	0	0.000101205	0.0456399	0.0170319	0.0487144	20.4646	270985	726149	775065	-69.5354	0.0000000E+000	0.0000000E+000	0.0000000E+000	69.5354	0.0000000E+000	0.0000000E+000	0.0000000E+000	-69.5354	0.0000000E+000	0.0000000E+000	0.0000000E+000	-20.4646	0.0000000E+000	0.0000000E+000	0.0000000E+000	20.4646	2.67967	69.5354	-9.44442e-08	-1.27108e-06	60543.6
6.81719	21.057	6.52547	22.0449	-17.218	14.8364	0.277408	-0.00457303	3577.69	313.48	1	11	0.00473077	0.000214597	0	9.898e-05	0.043329	0.0134275	0.0453619	17.218	313480	1.01156e+06	1.05902e+06	-72.782	0.0000000E+000	0.0000000E+000	0.0000000E+000	72.782	0.0000000E+000	0.0000000E+000	0.0000000E+000	-72.782	0.0000000E+000	0.0000000E+000	0.0000000E+000	-17.218	0.0000000E+000	0.0000000E+000	0.0000000E+000	17.218	3.22689	72.782	-2.22488e-06	-1.26859e-06	60661.7
4.63925	22.5657	5.80242	23.2998	-14.4203	15.3383	0.277416	-0.00448301	5912.39	366.672	1	11	0.00473136	0.000203065	0	9.88951e-05	0.0415667	0.0106882	0.0429189	14.4203	366672	1.42599e+06	1.47238e+06	-75.5797	0.0000000E+000	0.0000000E+000	0.0000000E+000	75.5797	0.0000000E+000	0.0000000E+000	0.0000000E+000	-75.5797	0.0000000E+000	0.0000000E+000	0.0000000E+000	-14.4203	0.0000000E+000	0.0000000E+000	0.0000000E+000	14.4203	3.88902	75.5797	-8.49128e-08	-1.24366e-06	61881.6
3.1604	23.804	5.16801	24.3585	-12.2492	16.0472	0.277415	-0.00382364	9744.4	438.632	1	11	0.00473135	0.000194238	0	0.000101299	0.0401188	0.00871008	0.0410534	12.2492	438632	2.02035e+06	2.06742e+06	-77.7508	0.0000000E+000	0.0000000E+000	0.0000000E+000	77.7508	0.0000000E+000	0.0000000E+000	0.0000000E+000	-77.7508	0.0000000E+000	0.0000000E+000	0.0000000E+000	-12.2492	0.0000000E+000	0.0000000E+000	0.0000000E+000	12.2492	4.60602	77.7508	2.40379e-06	-1.06073e-06	72552.4
2.15577	24.9495	4.62426	25.3745	-10.5003	17.0638	0.277428	-0.00262837	15965.2	530.234	1	11	0.00473149	0.000186467	0	9.98156e-05	0.0387498	0.00718206	0.0394097	10.5003	530234	2.8608e+06	2.90952e+06	-79.4997	0.0000000E+000	0.0000000E+000	0.0000000E+000	79.4997	0.0000000E+000	0.0000000E+000	0.0000000E+000	-79.4997	0.0000000E+000	0.0000000E+000	0.0000000E+000	-10.5003	0.0000000E+000	0.0000000E+000	0.0000000E+000	10.5003	5.39535	79.4997	-1.48329e-06	-7.29182e-07	105551
1.46631	25.8999	4.10315	26.2229	-9.00218	18.537	0.27743	-0.00218944	26453.1	647.665	1	11	0.00473116	0.000180421	0	9.42223e-05	0.0376649	0.005967	0.0381346	9.00218	647665	4.08819e+06	4.13917e+06	-80.9978	0.0000000E+000	0.0000000E+000	0.0000000E+000	80.9978	0.0000000E+000	0.0000000E+000	0.0000000E+000	-80.9978	0.0000000E+000	0.0000000E+000	0.0000000E+000	-9.00218	0.0000000E+000	0.0000000E+000	0.0000000E+000	9.00218	6.3122	80.9978	-5.59326e-06	-6.07415e-07	126713
1.00006	26.7575	3.68099	27.0095	-7.83294	21.7273	0.277424	-0.00270775	43234.2	803.017	1	12	0.00473453	0.000175291	0	8.70962e-05	0.0366786	0.00504583	0.037024	7.83294	803018	5.83721e+06	5.89218e+06	-82.1671	0.0000000E+000	0.0000000E+000	0.0000000E+000	82.1671	0.0000000E+000	0.0000000E+000	0.0000000E+000	-82.1671	0.0000000E+000	0.0000000E+000	0.0000000E+000	-7.83294	0.0000000E+000	0.0000000E+000	0.0000000E+000	7.83294	7.26909	82.1671	-7.12617e-06	-7.51193e-07	102456
0.681362	27.5139	3.32302	27.7138	-6.8866	24.8483	0.277431	-0.00289872	70292.6	1010.6	1	12	0.004734	0.000170817	0	8.59891e-05	0.0358227	0.00432653	0.0360831	6.8866	1.0106e+06	8.3676e+06	8.42841e+06	-83.1134	0.0000000E+000	0.0000000E+000	0.0000000E+000	83.1134	0.0000000E+000	0.0000000E+000	0.0000000E+000	-83.1134	0.0000000E+000	0.0000000E+000	0.0000000E+000	-6.8866	0.0000000E+000	0.0000000E+000	0.0000000E+000	6.8866	8.27979	83.1134	-1.10708e-06	-8.04195e-07	95707.9
0.464091	28.1066	3.09574	28.2765	-6.2854	29.413	0.277425	-0.0030375	110778	1327.79	1	12	0.00473296	0.000167381	0	9.14431e-05	0.0351524	0.0038718	0.035365	6.2854	1.32779e+06	1.20552e+07	1.21281e+07	-83.7146	0.0000000E+000	0.0000000E+000	0.0000000E+000	83.7146	0.0000000E+000	0.0000000E+000	0.0000000E+000	-83.7146	0.0000000E+000	0.0000000E+000	0.0000000E+000	-6.2854	0.0000000E+000	0.0000000E+000	0.0000000E+000	6.2854	9.07909	83.7146	5.45401e-06	-8.42679e-07	91333.5
0.316193	28.6524	2.92547	28.8014	-5.8298	36.0952	0.27743	-0.00262219	172057	1775.15	1	12	0.00472979	0.000164221	0	0.000101981	0.034541	0.0035267	0.0347205	5.8298	1.77515e+06	1.73861e+07	1.74765e+07	-84.1702	0.0000000E+000	0.0000000E+000	0.0000000E+000	84.1702	0.0000000E+000	0.0000000E+000	0.0000000E+000	-84.1702	0.0000000E+000	0.0000000E+000	0.0000000E+000	-5.8298	0.0000000E+000	0.0000000E+000	0.0000000E+000	5.8298	9.79414	84.1702	1.05376e-05	-7.27475e-07	105801
0.215268	29.1967	2.915	29.3418	-5.70151	45.893	0.277423	-0.00211457	253631	2503.25	1	12	0.0047325	0.000161289	0	0.000110265	0.0339124	0.00338581	0.034081	5.70151	2.50325e+06	2.50726e+07	2.51973e+07	-84.2985	0.0000000E+000	0.0000000E+000	0.0000000E+000	84.2985	0.0000000E+000	0.0000000E+000	0.0000000E+000	-84.2985	0.0000000E+000	0.0000000E+000	0.0000000E+000	-5.70151	0.0000000E+000	0.0000000E+000	0.0000000E+000	5.70151	10.016	84.2985	8.28389e-06	-5.8663e-07	131196
0.146929	29.7115	3.08553	29.8712	-5.9289	60.2297	0.277431	-0.000958175	351062	3745.73	1	12	0.00473279	0.00015844	0	0.000106779	0.0332979	0.00345798	0.033477	5.9289	3.74572e+06	3.60687e+07	3.62627e+07	-84.0711	0.0000000E+000	0.0000000E+000	0.0000000E+000	84.0711	0.0000000E+000	0.0000000E+000	0.0000000E+000	-84.0711	0.0000000E+000	0.0000000E+000	0.0000000E+000	-5.9289	0.0000000E+000	0.0000000E+000	0.0000000E+000	5.9289	9.6293	84.0711	-3.48557e-06	-2.65827e-07	289541
0.0999041	30.1916	3.46704	30.39	-6.55086	81.2996	0.277431	-0.00037135	459491	5980.46	1	12	0.00473121	0.000155683	0	7.7699e-05	0.0326907	0.00375403	0.0329056	6.55086	5.98047e+06	5.20788e+07	5.24211e+07	-83.4491	0.0000000E+000	0.0000000E+000	0.0000000E+000	83.4491	0.0000000E+000	0.0000000E+000	0.0000000E+000	-83.4491	0.0000000E+000	0.0000000E+000	0.0000000E+000	-6.55086	0.0000000E+000	0.0000000E+000	0.0000000E+000	6.55086	8.70816	83.4491	-2.90801e-05	-1.03024e-07	747087
0.0680626	30.7333	4.01496	30.9944	-7.44291	112.212	0.277431	1.59099e-05	582412	9772.96	1	12	0.00473092	0.000152638	0	1.97635e-05	0.031992	0.00417941	0.0322639	7.44291	9.77296e+06	7.48089e+07	7.54446e+07	-82.5571	0.0000000E+000	0.0000000E+000	0.0000000E+000	82.5571	0.0000000E+000	0.0000000E+000	0.0000000E+000	-82.5571	0.0000000E+000	0.0000000E+000	0.0000000E+000	-7.44291	0.0000000E+000	0.0000000E+000	0.0000000E+000	7.44291	7.65468	82.5571	-5.79355e-05	4.41388e-09	1.74377e+07
0.0464052	31.4215	4.72493	31.7748	-8.55164	157.535	0.277432	-0.000600995	725869	16050.3	1	12	0.00472977	0.000148853	0	-7.35728e-05	0.0311216	0.00467983	0.0314715	8.55164	1.60503e+07	1.06737e+08	1.07937e+08	-81.4484	0.0000000E+000	0.0000000E+000	0.0000000E+000	81.4484	0.0000000E+000	0.0000000E+000	0.0000000E+000	-81.4484	0.0000000E+000	0.0000000E+000	0.0000000E+000	-8.55164	0.0000000E+000	0.0000000E+000	0.0000000E+000	8.55164	6.65015	81.4484	-9.33363e-05	-1.66735e-07	461621
0.0315922	32.3469	5.85885	32.8732	-10.2664	224.096	0.277435	-0.00138716	859860	27312.9	1	12	0.0047314	0.000143929	0	-0.000165561	0.0299328	0.0054216	0.0304199	10.2664	2.73129e+07	1.50795e+08	1.53249e+08	-79.7336	0.0000000E+000	0.0000000E+000	0.0000000E+000	79.7336	0.0000000E+000	0.0000000E+000	0.0000000E+000	-79.7336	0.0000000E+000	0.0000000E+000	0.0000000E+000	-10.2664	0.0000000E+000	0.0000000E+000	0.0000000E+000	10.2664	5.52103	79.7336	-9.19883e-05	-3.84847e-07	200001
0.0215268	33.3272	7.44634	34.1489	-12.5948	321.766	0.277435	-0.0017685	992883	47209.6	1	12	0.00472875	0.000138474	0	-0.000190656	0.0285788	0.00638541	0.0292835	12.5948	4.72096e+07	2.11293e+08	2.16503e+08	-77.4052	0.0000000E+000	0.0000000E+000	0.0000000E+000	77.4052	0.0000000E+000	0.0000000E+000	0.0000000E+000	-77.4052	0.0000000E+000	0.0000000E+000	0.0000000E+000	-12.5948	0.0000000E+000	0.0000000E+000	0.0000000E+000	12.5948	4.47564	77.4052	-2.50952e-05	-4.90644e-07	156876
0.0146812	34.383	9.3927	35.6428	-15.2792	464.961	0.277431	-0.0016689	1.15417e+06	80150.4	1	12	0.00473201	0.000132762	0	-7.6821e-05	0.0270645	0.00739344	0.0280561	15.2792	8.01504e+07	2.93399e+08	3.0415e+08	-74.7208	0.0000000E+000	0.0000000E+000	0.0000000E+000	74.7208	0.0000000E+000	0.0000000E+000	0.0000000E+000	-74.7208	0.0000000E+000	0.0000000E+000	0.0000000E+000	-15.2792	0.0000000E+000	0.0000000E+000	0.0000000E+000	15.2792	3.6606	74.7208	0.000113835	-4.63005e-07	166236
0.0100092	35.7789	11.6637	37.6321	-18.0557	674.983	0.277443	-0.000802594	1.36328e+06	130961	1	12	0.00473228	0.000125751	0	0.000225536	0.0252645	0.00823609	0.0265731	18.0557	1.30961e+08	4.01728e+08	4.22536e+08	-71.9443	0.0000000E+000	0.0000000E+000	0.0000000E+000	71.9443	0.0000000E+000	0.0000000E+000	0.0000000E+000	-71.9443	0.0000000E+000	0.0000000E+000	0.0000000E+000	-18.0557	0.0000000E+000	0.0000000E+000	0.0000000E+000	18.0557	3.06753	71.9443	0.000302357	-2.22674e-07	345683