File: txt/17703_R287_UA661_SOC00_C02.mpt
EC-Lab ASCII FILE

Nb header lines : 63

Potentio Electrochemical Impedance Spectroscopy

Run on channel : 2 (SN 66139)
User :
CE vs. WE compliance from -10 V to 10 V
Electrode connection : standard
Potential control : Ewe
Ewe ctrl range : min = -10.00 V, max = 10.00 V
Safety Limits :
	Do not start on E overload
Acquisition started on : 09/22/2025 10:02:49.569
Loaded Setting File :  C:\Users\Celltest\OneDrive - store-dot.com\Documents\EC-Lab\Data\Gyutae\17737_R277_UA674_SOC00_C01.mpr
Saved on :
	File : 17703_R287_UA661_SOC00_C02.mpr
	Directory : C:\Users\Celltest\OneDrive - store-dot.com\Documents\EC-Lab\Data\Charmaine\
	Host : 169.254.61.224
Device : VMP-3e (SN .003165)
Address : USB
EC-LAB for windows v11.62 (software)
Internet server v27.00 (firmware)
Command interpretor v12.03 (firmware)
Electrode material :
Initial state :
Electrolyte :
Comments :
Electrode surface area : 0.001 cm²
Characteristic mass : 0.001 g
Equivalent Weight : 0.000 g/eq.
Density : 0.000 g/cm3
Volume (V) : 0.001 cm³
Cycle Definition : Charge/Discharge alternance
Mode                Single sine
E (V)               0.0000
vs.                 Eoc
tE (h:m:s)          0:00:0.0000
record              0
dI                  0.000
unit dI             mA
dt (s)              0.000
fi                  100.000
unit fi             kHz
ff                  10.000
unit ff             mHz
Nd                  6
Points              per decade
spacing             Logarithmic
Va (mV)             5.0
pw                  0.10
Na                  2
corr                0
E range min (V)     -10.000
E range max (V)     10.000
I Range             Auto
Bandwidth           5
nc cycles           0
goto Ns'            0
nr cycles           0
inc. cycle          0

freq/Hz	Re(Z)/Ohm	-Im(Z)/Ohm	|Z|/Ohm	Phase(Z)/deg	time/s	<Ewe>/V	<I>/mA	Cs/µF	Cp/µF	cycle number	I Range	|Ewe|/V	|I|/A	Ns	(Q-Qo)/mA.h	Re(Y)/Ohm-1	Im(Y)/Ohm-1	|Y|/Ohm-1	Phase(Y)/deg	Re(C)/nF	Im(C)/nF	|C|/nF	Phase(C)/deg	Re(M)	Im(M)	|M|	Phase(M)/deg	Re(Permittivity)	Im(Permittivity)	|Permittivity|	Phase(Permittivity)/deg	Re(Resistivity)/Ohm.cm	Im(Resistivity)/Ohm.cm	|Resistivity|/Ohm.cm	Phase(Resistivity)/deg	Re(Conductivity)/mS/cm	Im(Conductivity)/mS/cm	|Conductivity|/mS/cm	Phase(Conductivity)/deg	Tan(Delta)	Loss Angle(Delta)/deg	dq/mA.h	Pwe/W	Rwe/Ohm
100004	1.31741	0.29781	1.35066	-12.738	2.06748	0.282716	0.0191467	5.34398	0.259809	1	9	0.00455631	0.00337341	0	-2.19025e-06	0.722159	0.163249	0.740381	12.738	259.809	1149.31	1178.31	-77.262	0.0000000E+000	0.0000000E+000	0.0000000E+000	77.262	0.0000000E+000	0.0000000E+000	0.0000000E+000	-77.262	0.0000000E+000	0.0000000E+000	0.0000000E+000	-12.738	0.0000000E+000	0.0000000E+000	0.0000000E+000	12.738	4.42368	77.262	-2.19025e-06	5.41308e-06	14765.8
68132	1.38793	0.333519	1.42744	-13.512	2.6455	0.28271	0.0148076	7.00402	0.38236	1	9	0.00504172	0.003532	0	-3.4701e-07	0.681163	0.163683	0.700554	13.512	382.36	1591.18	1636.48	-76.488	0.0000000E+000	0.0000000E+000	0.0000000E+000	76.488	0.0000000E+000	0.0000000E+000	0.0000000E+000	-76.488	0.0000000E+000	0.0000000E+000	0.0000000E+000	-13.512	0.0000000E+000	0.0000000E+000	0.0000000E+000	13.512	4.16147	76.488	1.84324e-06	4.18625e-06	19092.3
46420.4	1.46613	0.374518	1.51321	-14.3296	3.22448	0.282713	0.0193143	9.15459	0.560772	1	9	0.00508302	0.0033591	0	-5.76408e-06	0.640287	0.163559	0.660847	14.3296	560.772	2195.26	2265.75	-75.6704	0.0000000E+000	0.0000000E+000	0.0000000E+000	75.6704	0.0000000E+000	0.0000000E+000	0.0000000E+000	-75.6704	0.0000000E+000	0.0000000E+000	0.0000000E+000	-14.3296	0.0000000E+000	0.0000000E+000	0.0000000E+000	14.3296	3.91471	75.6704	-5.41707e-06	5.46041e-06	14637.5
31621.1	1.55107	0.428825	1.60926	-15.4545	3.8025	0.282714	0.0171727	11.7371	0.833433	1	9	0.00512794	0.00318652	0	-8.54268e-06	0.598935	0.165588	0.621404	15.4545	833.434	3014.55	3127.64	-74.5455	0.0000000E+000	0.0000000E+000	0.0000000E+000	74.5455	0.0000000E+000	0.0000000E+000	0.0000000E+000	-74.5455	0.0000000E+000	0.0000000E+000	0.0000000E+000	-15.4545	0.0000000E+000	0.0000000E+000	0.0000000E+000	15.4545	3.61703	74.5455	-2.7786e-06	4.85495e-06	16463
21544.7	1.65272	0.492104	1.72443	-16.5811	4.23949	0.282713	0.0153662	15.0115	1.22249	1	9	0.005179	0.00300331	0	-1.84439e-06	0.555787	0.165487	0.579901	16.5811	1222.49	4105.71	4283.85	-73.4189	0.0000000E+000	0.0000000E+000	0.0000000E+000	73.4189	0.0000000E+000	0.0000000E+000	0.0000000E+000	-73.4189	0.0000000E+000	0.0000000E+000	0.0000000E+000	-16.5811	0.0000000E+000	0.0000000E+000	0.0000000E+000	16.5811	3.35849	73.4189	6.69829e-06	4.34424e-06	18398.3
14678.6	1.76155	0.557459	1.84765	-17.5605	4.67648	0.282718	0.0110457	19.4501	1.77055	1	9	0.00498043	0.00269555	0	3.14054e-06	0.516006	0.163295	0.541228	17.5605	1770.55	5594.88	5868.35	-72.4395	0.0000000E+000	0.0000000E+000	0.0000000E+000	72.4395	0.0000000E+000	0.0000000E+000	0.0000000E+000	-72.4395	0.0000000E+000	0.0000000E+000	0.0000000E+000	-17.5605	0.0000000E+000	0.0000000E+000	0.0000000E+000	17.5605	3.15996	72.4395	4.98492e-06	3.12282e-06	25595.3
10002.2	1.88582	0.63138	1.9887	-18.5108	5.1135	0.282712	0.0149751	25.2019	2.54024	1	9	0.00483797	0.00243273	0	4.70746e-06	0.476825	0.159643	0.50284	18.5108	2540.24	7587.22	8001.17	-71.4892	0.0000000E+000	0.0000000E+000	0.0000000E+000	71.4892	0.0000000E+000	0.0000000E+000	0.0000000E+000	-71.4892	0.0000000E+000	0.0000000E+000	0.0000000E+000	-18.5108	0.0000000E+000	0.0000000E+000	0.0000000E+000	18.5108	2.98681	71.4892	1.56692e-06	4.23365e-06	18878.8
6811.07	2.03748	0.735892	2.1663	-19.8586	5.49152	0.28248	-0.0990719	31.7534	3.66422	1	9	0.0045767	0.00211268	0	-4.6014e-06	0.434166	0.156811	0.461616	19.8586	3664.22	10145.2	10786.6	-70.1414	0.0000000E+000	0.0000000E+000	0.0000000E+000	70.1414	0.0000000E+000	0.0000000E+000	0.0000000E+000	-70.1414	0.0000000E+000	0.0000000E+000	0.0000000E+000	-19.8586	0.0000000E+000	0.0000000E+000	0.0000000E+000	19.8586	2.76872	70.1414	-9.30886e-06	-2.79858e-05	2851.27
4641.49	2.19118	0.847617	2.34941	-21.1481	6.18567	0.282728	0.0668587	40.4542	5.26558	1	9	0.0049513	0.00210747	0	4.97344e-06	0.396973	0.153562	0.425639	21.1481	5265.58	13612.1	14595	-68.8519	0.0000000E+000	0.0000000E+000	0.0000000E+000	68.8519	0.0000000E+000	0.0000000E+000	0.0000000E+000	-68.8519	0.0000000E+000	0.0000000E+000	0.0000000E+000	-21.1481	0.0000000E+000	0.0000000E+000	0.0000000E+000	21.1481	2.5851	68.8519	9.57484e-06	1.89029e-05	4228.75
3161.01	2.37744	0.975873	2.56994	-22.3168	6.6527	0.282723	0.0660206	51.5942	7.43949	1	9	0.00487776	0.00189801	0	1.39634e-05	0.35997	0.147757	0.389115	22.3168	7439.49	18124.2	19591.7	-67.6832	0.0000000E+000	0.0000000E+000	0.0000000E+000	67.6832	0.0000000E+000	0.0000000E+000	0.0000000E+000	-67.6832	0.0000000E+000	0.0000000E+000	0.0000000E+000	-22.3168	0.0000000E+000	0.0000000E+000	0.0000000E+000	22.3168	2.43622	67.6832	8.98998e-06	1.86656e-05	4282.35
2155.69	2.57868	1.13815	2.81869	-23.8152	7.1197	0.282726	0.0586459	64.8684	10.5765	1	9	0.00483932	0.00171687	0	1.91481e-05	0.324567	0.143254	0.354775	23.8152	10576.5	23962.8	26193.1	-66.1848	0.0000000E+000	0.0000000E+000	0.0000000E+000	66.1848	0.0000000E+000	0.0000000E+000	0.0000000E+000	-66.1848	0.0000000E+000	0.0000000E+000	0.0000000E+000	-23.8152	0.0000000E+000	0.0000000E+000	0.0000000E+000	23.8152	2.26568	66.1848	5.18471e-06	1.65807e-05	4820.89
1468.59	2.80872	1.34254	3.11309	-25.5473	7.58695	0.282731	0.0598937	80.7224	15.0129	1	9	0.00482388	0.00154955	0	2.66018e-05	0.289819	0.13853	0.321225	25.5473	15012.9	31408.4	34812	-64.4527	0.0000000E+000	0.0000000E+000	0.0000000E+000	64.4527	0.0000000E+000	0.0000000E+000	0.0000000E+000	-64.4527	0.0000000E+000	0.0000000E+000	0.0000000E+000	-25.5473	0.0000000E+000	0.0000000E+000	0.0000000E+000	25.5473	2.0921	64.4527	7.45371e-06	1.69338e-05	4720.55
1000.32	3.07627	1.60113	3.468	-27.4959	8.31071	0.282683	-0.013824	99.3701	21.1811	1	10	0.00491697	0.00141781	0	2.72686e-05	0.25578	0.133127	0.288351	27.4959	21181.1	40695.6	45877.8	-62.5041	0.0000000E+000	0.0000000E+000	0.0000000E+000	62.5041	0.0000000E+000	0.0000000E+000	0.0000000E+000	-62.5041	0.0000000E+000	0.0000000E+000	0.0000000E+000	-27.4959	0.0000000E+000	0.0000000E+000	0.0000000E+000	27.4959	1.92131	62.5041	6.66792e-07	-3.90782e-06	20448.7
681.09	3.39445	1.94038	3.9099	-29.7537	8.77642	0.282677	-0.014923	120.429	29.6599	1	10	0.00487428	0.00124665	0	2.58515e-05	0.222043	0.126927	0.255761	29.7537	29659.9	51886.3	59765.4	-60.2463	0.0000000E+000	0.0000000E+000	0.0000000E+000	60.2463	0.0000000E+000	0.0000000E+000	0.0000000E+000	-60.2463	0.0000000E+000	0.0000000E+000	0.0000000E+000	-29.7537	0.0000000E+000	0.0000000E+000	0.0000000E+000	29.7537	1.74938	60.2463	-1.4171e-06	-4.21838e-06	18942.4
463.961	3.79083	2.3758	4.47379	-32.0763	9.24522	0.282678	-0.0136229	144.387	40.719	1	10	0.00485282	0.00108472	0	2.37901e-05	0.189401	0.118702	0.223524	32.0763	40719	64971.3	76676.6	-57.9237	0.0000000E+000	0.0000000E+000	0.0000000E+000	57.9237	0.0000000E+000	0.0000000E+000	0.0000000E+000	-57.9237	0.0000000E+000	0.0000000E+000	0.0000000E+000	-32.0763	0.0000000E+000	0.0000000E+000	0.0000000E+000	32.0763	1.5956	57.9237	-2.06143e-06	-3.85088e-06	20750.2
316.316	4.26177	2.90589	5.15819	-34.2882	9.71192	0.282678	-0.0143512	173.149	54.9521	1	10	0.00481111	0.000932714	0	2.14842e-05	0.160175	0.109216	0.193866	34.2882	54952.1	80592.5	97544.3	-55.7118	0.0000000E+000	0.0000000E+000	0.0000000E+000	55.7118	0.0000000E+000	0.0000000E+000	0.0000000E+000	-55.7118	0.0000000E+000	0.0000000E+000	0.0000000E+000	-34.2882	0.0000000E+000	0.0000000E+000	0.0000000E+000	34.2882	1.4666	55.7118	-2.3059e-06	-4.05676e-06	19697.3
215.345	4.89584	3.58808	6.06989	-36.2371	10.1794	0.282676	-0.0146343	205.98	71.9758	1	10	0.00480786	0.000792084	0	1.96214e-05	0.132882	0.0973869	0.164748	36.2371	71975.8	98209.1	121760	-53.7629	0.0000000E+000	0.0000000E+000	0.0000000E+000	53.7629	0.0000000E+000	0.0000000E+000	0.0000000E+000	-53.7629	0.0000000E+000	0.0000000E+000	0.0000000E+000	-36.2371	0.0000000E+000	0.0000000E+000	0.0000000E+000	36.2371	1.36447	53.7629	-1.8628e-06	-4.13676e-06	19316
146.737	5.72616	4.43263	7.24135	-37.7435	10.6424	0.28267	-0.0160052	244.691	91.6858	1	10	0.00481737	0.000665258	0	1.79784e-05	0.1092	0.0845323	0.138096	37.7435	91685.8	118441	149782	-52.2565	0.0000000E+000	0.0000000E+000	0.0000000E+000	52.2565	0.0000000E+000	0.0000000E+000	0.0000000E+000	-52.2565	0.0000000E+000	0.0000000E+000	0.0000000E+000	-37.7435	0.0000000E+000	0.0000000E+000	0.0000000E+000	37.7435	1.29182	52.2565	-1.64295e-06	-4.52418e-06	17661.2
100.032	6.80567	5.38627	8.67923	-38.3595	11.1107	0.28268	-0.01472	295.388	113.765	1	10	0.00479516	0.000552487	0	1.66077e-05	0.0903459	0.0715033	0.115218	38.3595	113765	143744	183316	-51.6405	0.0000000E+000	0.0000000E+000	0.0000000E+000	51.6405	0.0000000E+000	0.0000000E+000	0.0000000E+000	-51.6405	0.0000000E+000	0.0000000E+000	0.0000000E+000	-38.3595	0.0000000E+000	0.0000000E+000	0.0000000E+000	38.3595	1.26352	51.6405	-1.37074e-06	-4.16103e-06	19203.8
68.104	8.26473	6.40967	10.4589	-37.7952	11.5893	0.282683	-0.0119875	364.596	136.933	1	10	0.0047934	0.000458306	0	1.5367e-05	0.0755531	0.0585949	0.0956119	37.7952	136933	176563	223439	-52.2048	0.0000000E+000	0.0000000E+000	0.0000000E+000	52.2048	0.0000000E+000	0.0000000E+000	0.0000000E+000	-52.2048	0.0000000E+000	0.0000000E+000	0.0000000E+000	-37.7952	0.0000000E+000	0.0000000E+000	0.0000000E+000	37.7952	1.28942	52.2048	-1.24072e-06	-3.38867e-06	23581.5
46.4415	10.142	7.36035	12.5314	-35.9695	12.0445	0.282664	-0.0179013	465.602	160.626	1	10	0.00479377	0.000382542	0	1.36496e-05	0.0645844	0.0468707	0.0797998	35.9695	160626	221330	273473	-54.0305	0.0000000E+000	0.0000000E+000	0.0000000E+000	54.0305	0.0000000E+000	0.0000000E+000	0.0000000E+000	-54.0305	0.0000000E+000	0.0000000E+000	0.0000000E+000	-35.9695	0.0000000E+000	0.0000000E+000	0.0000000E+000	35.9695	1.37793	54.0305	-1.71738e-06	-5.06006e-06	15790.1
31.6296	12.372	8.06856	14.7705	-33.1108	12.4904	0.282662	-0.0196484	623.636	186.093	1	10	0.00478968	0.000324272	0	1.12091e-05	0.0567086	0.0369831	0.0677024	33.1108	186093	285349	340668	-56.8892	0.0000000E+000	0.0000000E+000	0.0000000E+000	56.8892	0.0000000E+000	0.0000000E+000	0.0000000E+000	-56.8892	0.0000000E+000	0.0000000E+000	0.0000000E+000	-33.1108	0.0000000E+000	0.0000000E+000	0.0000000E+000	33.1108	1.53336	56.8892	-2.44051e-06	-5.55386e-06	14386
21.5517	14.8733	8.49662	17.1291	-29.7379	13.1703	0.282693	-0.00683639	869.144	213.852	1	11	0.00479852	0.000280138	0	9.08249e-06	0.0506916	0.0289585	0.0583801	29.7379	213852	374347	431125	-60.2621	0.0000000E+000	0.0000000E+000	0.0000000E+000	60.2621	0.0000000E+000	0.0000000E+000	0.0000000E+000	-60.2621	0.0000000E+000	0.0000000E+000	0.0000000E+000	-29.7379	0.0000000E+000	0.0000000E+000	0.0000000E+000	29.7379	1.75049	60.2621	-2.1266e-06	-1.9326e-06	41351.1
14.6852	17.3156	8.50471	19.2915	-26.1583	13.6481	0.282704	-0.00590277	1274.33	247.668	1	11	0.00478832	0.000248209	0	8.69911e-06	0.0465272	0.0228522	0.0518363	26.1583	247668	504253	561792	-63.8417	0.0000000E+000	0.0000000E+000	0.0000000E+000	63.8417	0.0000000E+000	0.0000000E+000	0.0000000E+000	-63.8417	0.0000000E+000	0.0000000E+000	0.0000000E+000	-26.1583	0.0000000E+000	0.0000000E+000	0.0000000E+000	26.1583	2.036	63.8417	-3.83374e-07	-1.66873e-06	47893.3
10.0032	19.6851	8.21643	21.331	-22.6554	14.1167	0.2827	-0.00618894	1936.41	287.304	1	11	0.00478981	0.000224547	0	9.31521e-06	0.0432628	0.0180576	0.0468801	22.6554	287304	688328	745882	-67.3446	0.0000000E+000	0.0000000E+000	0.0000000E+000	67.3446	0.0000000E+000	0.0000000E+000	0.0000000E+000	-67.3446	0.0000000E+000	0.0000000E+000	0.0000000E+000	-22.6554	0.0000000E+000	0.0000000E+000	0.0000000E+000	22.6554	2.39582	67.3446	6.16098e-07	-1.74961e-06	45678.3
6.81719	21.7625	7.80207	23.1188	-19.7232	14.4744	0.282696	-0.00648032	2992.3	340.795	1	11	0.00478202	0.000206845	0	6.26142e-06	0.0407172	0.0145975	0.0432548	19.7232	340795	950589	1.00983e+06	-70.2768	0.0000000E+000	0.0000000E+000	0.0000000E+000	70.2768	0.0000000E+000	0.0000000E+000	0.0000000E+000	-70.2768	0.0000000E+000	0.0000000E+000	0.0000000E+000	-19.7232	0.0000000E+000	0.0000000E+000	0.0000000E+000	19.7232	2.78933	70.2768	-3.05379e-06	-1.83196e-06	43623.8
4.63925	23.732	7.24608	24.8136	-16.979	14.9763	0.282704	-0.00588189	4734.44	403.735	1	11	0.00478651	0.000192899	0	7.56887e-06	0.0385439	0.0117686	0.0403005	16.979	403735	1.32229e+06	1.38256e+06	-73.021	0.0000000E+000	0.0000000E+000	0.0000000E+000	73.021	0.0000000E+000	0.0000000E+000	0.0000000E+000	-73.021	0.0000000E+000	0.0000000E+000	0.0000000E+000	-16.979	0.0000000E+000	0.0000000E+000	0.0000000E+000	16.979	3.27515	73.021	1.30745e-06	-1.66283e-06	48063.4
3.1604	25.4851	6.67627	26.3451	-14.6798	15.6852	0.282707	-0.00507187	7543.02	484.411	1	11	0.00479289	0.000181928	0	8.19276e-06	0.0367187	0.00961911	0.0379578	14.6798	484411	1.84912e+06	1.91152e+06	-75.3202	0.0000000E+000	0.0000000E+000	0.0000000E+000	75.3202	0.0000000E+000	0.0000000E+000	0.0000000E+000	-75.3202	0.0000000E+000	0.0000000E+000	0.0000000E+000	-14.6798	0.0000000E+000	0.0000000E+000	0.0000000E+000	14.6798	3.81727	75.3202	6.23889e-07	-1.43385e-06	55740.1
2.15577	27.0343	6.2343	27.7438	-12.9858	16.7008	0.282711	-0.00381928	11842.2	597.961	1	11	0.0047942	0.000172803	0	4.40251e-06	0.0351223	0.00809944	0.0360441	12.9858	597961	2.59299e+06	2.66104e+06	-77.0142	0.0000000E+000	0.0000000E+000	0.0000000E+000	77.0142	0.0000000E+000	0.0000000E+000	0.0000000E+000	-77.0142	0.0000000E+000	0.0000000E+000	0.0000000E+000	-12.9858	0.0000000E+000	0.0000000E+000	0.0000000E+000	12.9858	4.33638	77.0142	-3.79025e-06	-1.07975e-06	74022
1.46631	28.4304	5.69768	28.9957	-11.3324	18.174	0.282716	-0.00360917	19050.1	735.57	1	11	0.00479274	0.000165291	0	-1.27505e-06	0.0338154	0.00677688	0.0344878	11.3324	735570	3.67037e+06	3.74335e+06	-78.6676	0.0000000E+000	0.0000000E+000	0.0000000E+000	78.6676	0.0000000E+000	0.0000000E+000	0.0000000E+000	-78.6676	0.0000000E+000	0.0000000E+000	0.0000000E+000	-11.3324	0.0000000E+000	0.0000000E+000	0.0000000E+000	11.3324	4.98983	78.6676	-5.67756e-06	-1.02037e-06	78332.5
1.00006	29.7357	5.29898	30.2042	-10.1042	21.3652	0.282713	-0.0035137	30033.1	924.381	1	12	0.00479314	0.000158691	0	-5.39337e-06	0.0325945	0.00580843	0.033108	10.1042	924381	5.18724e+06	5.26896e+06	-79.8958	0.0000000E+000	0.0000000E+000	0.0000000E+000	79.8958	0.0000000E+000	0.0000000E+000	0.0000000E+000	-79.8958	0.0000000E+000	0.0000000E+000	0.0000000E+000	-10.1042	0.0000000E+000	0.0000000E+000	0.0000000E+000	10.1042	5.61159	79.8958	-4.11832e-06	-9.9337e-07	80460.2
0.681362	30.9218	4.90218	31.3079	-9.0084	24.4853	0.282713	-0.00369436	47648.9	1168.21	1	12	0.00479525	0.000153164	0	-3.26523e-06	0.0315468	0.00500127	0.0319408	9.0084	1.16821e+06	7.36881e+06	7.46084e+06	-80.9916	0.0000000E+000	0.0000000E+000	0.0000000E+000	80.9916	0.0000000E+000	0.0000000E+000	0.0000000E+000	-80.9916	0.0000000E+000	0.0000000E+000	0.0000000E+000	-9.0084	0.0000000E+000	0.0000000E+000	0.0000000E+000	9.0084	6.30776	80.9916	2.12814e-06	-1.04444e-06	76525.4
0.464091	31.9286	4.51535	32.2463	-8.0494	29.0495	0.282712	-0.00347336	75949.7	1489.19	1	12	0.00479356	0.000148655	0	2.29914e-06	0.0307058	0.00434242	0.0310113	8.0494	1.48919e+06	1.05302e+07	1.0635e+07	-81.9506	0.0000000E+000	0.0000000E+000	0.0000000E+000	81.9506	0.0000000E+000	0.0000000E+000	0.0000000E+000	-81.9506	0.0000000E+000	0.0000000E+000	0.0000000E+000	-8.0494	0.0000000E+000	0.0000000E+000	0.0000000E+000	8.0494	7.07112	81.9506	5.56437e-06	-9.81959e-07	81394.4
0.316193	32.8712	4.23544	33.1429	-7.34208	35.7309	0.282717	-0.00281744	118842	1940.82	1	12	0.00479301	0.000144616	0	6.40071e-06	0.029925	0.00385582	0.0301724	7.34208	1.94082e+06	1.50627e+07	1.51872e+07	-82.6579	0.0000000E+000	0.0000000E+000	0.0000000E+000	82.6579	0.0000000E+000	0.0000000E+000	0.0000000E+000	-82.6579	0.0000000E+000	0.0000000E+000	0.0000000E+000	-7.34208	0.0000000E+000	0.0000000E+000	0.0000000E+000	7.34208	7.76099	82.6579	4.10157e-06	-7.96539e-07	100346
0.215268	33.7001	4.14273	33.9538	-7.00816	45.5285	0.282717	-0.00209917	178466	2656.75	1	12	0.00479459	0.000141209	0	1.51172e-06	0.0292318	0.00359344	0.0294518	7.00816	2.65675e+06	2.16121e+07	2.17747e+07	-82.9918	0.0000000E+000	0.0000000E+000	0.0000000E+000	82.9918	0.0000000E+000	0.0000000E+000	0.0000000E+000	-82.9918	0.0000000E+000	0.0000000E+000	0.0000000E+000	-7.00816	0.0000000E+000	0.0000000E+000	0.0000000E+000	7.00816	8.13476	82.9918	-4.88899e-06	-5.93472e-07	134680
0.146929	34.4069	4.22933	34.6658	-7.00771	59.865	0.282716	-0.00151677	256119	3812.25	1	12	0.00479376	0.000138285	0	-2.0423e-05	0.0286314	0.0035194	0.0288469	7.00771	3.81225e+06	3.10138e+07	3.12472e+07	-82.9923	0.0000000E+000	0.0000000E+000	0.0000000E+000	82.9923	0.0000000E+000	0.0000000E+000	0.0000000E+000	-82.9923	0.0000000E+000	0.0000000E+000	0.0000000E+000	-7.00771	0.0000000E+000	0.0000000E+000	0.0000000E+000	7.00771	8.1353	82.9923	-2.19348e-05	-4.28814e-07	186394
0.0999041	35.1021	4.49262	35.3884	-7.29348	80.9349	0.282712	-0.00136645	354599	5714.98	1	12	0.00479423	0.000135474	0	-6.51885e-05	0.0280292	0.00358738	0.0282578	7.29348	5.71497e+06	4.46527e+07	4.50169e+07	-82.7065	0.0000000E+000	0.0000000E+000	0.0000000E+000	82.7065	0.0000000E+000	0.0000000E+000	0.0000000E+000	-82.7065	0.0000000E+000	0.0000000E+000	0.0000000E+000	-7.29348	0.0000000E+000	0.0000000E+000	0.0000000E+000	7.29348	7.81327	82.7065	-4.47654e-05	-3.86311e-07	206895
0.0680626	35.8752	5.00372	36.2225	-7.94014	111.846	0.282716	-0.00125279	467325	8917.6	1	12	0.00479309	0.000132324	0	-0.0001278	0.0273425	0.00381361	0.0276072	7.94014	8.9176e+06	6.39366e+07	6.45555e+07	-82.0599	0.0000000E+000	0.0000000E+000	0.0000000E+000	82.0599	0.0000000E+000	0.0000000E+000	0.0000000E+000	-82.0599	0.0000000E+000	0.0000000E+000	0.0000000E+000	-7.94014	0.0000000E+000	0.0000000E+000	0.0000000E+000	7.94014	7.16971	82.0599	-6.26114e-05	-3.54183e-07	225669
0.0464052	36.8151	5.82863	37.2736	-8.99649	157.17	0.282714	-0.00180149	588420	14388.5	1	12	0.00479297	0.000128589	0	-0.00019545	0.0264986	0.0041953	0.0268286	8.99649	1.43885e+07	9.08816e+07	9.20136e+07	-81.0035	0.0000000E+000	0.0000000E+000	0.0000000E+000	81.0035	0.0000000E+000	0.0000000E+000	0.0000000E+000	-81.0035	0.0000000E+000	0.0000000E+000	0.0000000E+000	-8.99649	0.0000000E+000	0.0000000E+000	0.0000000E+000	8.99649	6.31625	81.0035	-6.76504e-05	-5.09307e-07	156934
0.0315922	37.8601	7.16165	38.5315	-10.7116	223.732	0.28271	-0.0021589	703440	24300.8	1	12	0.00479362	0.000124408	0	-0.000226054	0.0255006	0.00482371	0.0259528	10.7116	2.43008e+07	1.28467e+08	1.30745e+08	-79.2884	0.0000000E+000	0.0000000E+000	0.0000000E+000	79.2884	0.0000000E+000	0.0000000E+000	0.0000000E+000	-79.2884	0.0000000E+000	0.0000000E+000	0.0000000E+000	-10.7116	0.0000000E+000	0.0000000E+000	0.0000000E+000	10.7116	5.28651	79.2884	-3.0604e-05	-6.10344e-07	130951
0.0215268	38.9678	8.82244	39.9541	-12.7569	321.401	0.282707	-0.00211352	838016	40860.9	1	12	0.00479441	0.000119998	0	-0.000175541	0.0244109	0.00552672	0.0250287	12.7569	4.08609e+07	1.80478e+08	1.85046e+08	-77.2431	0.0000000E+000	0.0000000E+000	0.0000000E+000	77.2431	0.0000000E+000	0.0000000E+000	0.0000000E+000	-77.2431	0.0000000E+000	0.0000000E+000	0.0000000E+000	-12.7569	0.0000000E+000	0.0000000E+000	0.0000000E+000	12.7569	4.4169	77.2431	5.05129e-05	-5.97506e-07	133761
0.0146812	40.3783	10.7242	41.7782	-14.874	464.596	0.282709	-0.00131677	1.01087e+06	66607.8	1	12	0.00479297	0.000114724	0	-1.56112e-05	0.0231339	0.0061442	0.023936	14.874	6.66077e+07	2.50789e+08	2.59484e+08	-75.1261	0.0000000E+000	0.0000000E+000	0.0000000E+000	75.1261	0.0000000E+000	0.0000000E+000	0.0000000E+000	-75.1261	0.0000000E+000	0.0000000E+000	0.0000000E+000	-14.874	0.0000000E+000	0.0000000E+000	0.0000000E+000	14.874	3.76516	75.1261	0.00015993	-3.72262e-07	214699

0.0100092	42.3531	13.1968	44.3615	-17.3065	674.616	0.282709	-0.000554806	1.20491e+06	106630	1	12	0.00479368	0.000108059	0	0.000210202	0.0215215	0.00670589	0.0225421	17.3065	1.0663e+08	3.42212e+08	3.5844e+08	-72.6935	0.0000000E+000	0.0000000E+000	0.0000000E+000	72.6935	0.0000000E+000	0.0000000E+000	0.0000000E+000	-72.6935	0.0000000E+000	0.0000000E+000	0.0000000E+000	-17.3065	0.0000000E+000	0.0000000E+000	0.0000000E+000	17.3065	3.20935	72.6935	0.000225813	-1.56848e-07	509564