File: txt/17700_R287_UA660_SOC00_C07.mpt
EC-Lab ASCII FILE

Nb header lines : 63

Potentio Electrochemical Impedance Spectroscopy

Run on channel : 7 (SN 66126)
User :
CE vs. WE compliance from -10 V to 10 V
Electrode connection : standard
Potential control : Ewe
Ewe ctrl range : min = -10.00 V, max = 10.00 V
Safety Limits :
	Do not start on E overload
Acquisition started on : 09/22/2025 09:04:33.635
Loaded Setting File :  C:\Users\Celltest\OneDrive - store-dot.com\Documents\EC-Lab\Data\Charmaine\17689_R288_UA670_SOC00_C04.mpr
Saved on :
	File : 17700_R287_UA660_SOC00_C07.mpr
	Directory : C:\Users\Celltest\OneDrive - store-dot.com\Documents\EC-Lab\Data\Charmaine\
	Host : 169.254.61.224
Device : VMP-3e (SN .003165)
Address : USB
EC-LAB for windows v11.62 (software)
Internet server v27.00 (firmware)
Command interpretor v12.03 (firmware)
Electrode material :
Initial state :
Electrolyte :
Comments :
Electrode surface area : 0.001 cm²
Characteristic mass : 0.001 g
Equivalent Weight : 0.000 g/eq.
Density : 0.000 g/cm3
Volume (V) : 0.001 cm³
Cycle Definition : Charge/Discharge alternance
Mode                Single sine
E (V)               0.0000
vs.                 Eoc
tE (h:m:s)          0:00:0.0000
record              0
dI                  0.000
unit dI             mA
dt (s)              0.000
fi                  100.000
unit fi             kHz
ff                  10.000
unit ff             mHz
Nd                  6
Points              per decade
spacing             Logarithmic
Va (mV)             5.0
pw                  0.10
Na                  2
corr                0
E range min (V)     -10.000
E range max (V)     10.000
I Range             Auto
Bandwidth           5
nc cycles           0
goto Ns'            0
nr cycles           0
inc. cycle          0

freq/Hz	Re(Z)/Ohm	-Im(Z)/Ohm	|Z|/Ohm	Phase(Z)/deg	time/s	<Ewe>/V	<I>/mA	Cs/µF	Cp/µF	cycle number	I Range	|Ewe|/V	|I|/A	Ns	(Q-Qo)/mA.h	Re(Y)/Ohm-1	Im(Y)/Ohm-1	|Y|/Ohm-1	Phase(Y)/deg	Re(C)/nF	Im(C)/nF	|C|/nF	Phase(C)/deg	Re(M)	Im(M)	|M|	Phase(M)/deg	Re(Permittivity)	Im(Permittivity)	|Permittivity|	Phase(Permittivity)/deg	Re(Resistivity)/Ohm.cm	Im(Resistivity)/Ohm.cm	|Resistivity|/Ohm.cm	Phase(Resistivity)/deg	Re(Conductivity)/mS/cm	Im(Conductivity)/mS/cm	|Conductivity|/mS/cm	Phase(Conductivity)/deg	Tan(Delta)	Loss Angle(Delta)/deg	dq/mA.h	Pwe/W	Rwe/Ohm
100004	1.11832	0.227317	1.14119	-11.4898	2.06748	0.271845	0.0780542	7.00118	0.277794	1	9	0.00472884	0.00414379	0	1.3429e-06	0.85872	0.17455	0.876281	11.4898	277.794	1366.64	1394.59	-78.5102	0.0000000E+000	0.0000000E+000	0.0000000E+000	78.5102	0.0000000E+000	0.0000000E+000	0.0000000E+000	-78.5102	0.0000000E+000	0.0000000E+000	0.0000000E+000	-11.4898	0.0000000E+000	0.0000000E+000	0.0000000E+000	11.4898	4.91963	78.5102	1.3429e-06	2.12186e-05	3482.77
68132	1.17361	0.247336	1.19939	-11.9009	2.64548	0.271856	0.0797112	9.44454	0.401642	1	9	0.00503337	0.00419662	0	1.74096e-05	0.815839	0.171937	0.83376	11.9009	401.642	1905.78	1947.64	-78.0991	0.0000000E+000	0.0000000E+000	0.0000000E+000	78.0991	0.0000000E+000	0.0000000E+000	0.0000000E+000	-78.0991	0.0000000E+000	0.0000000E+000	0.0000000E+000	-11.9009	0.0000000E+000	0.0000000E+000	0.0000000E+000	11.9009	4.74498	78.0991	1.60667e-05	2.167e-05	3410.52
46420.4	1.23234	0.26441	1.26038	-12.1097	3.22349	0.271867	0.0841236	12.9669	0.570667	1	9	0.00503121	0.00399181	0	2.01364e-05	0.775753	0.166445	0.793409	12.1097	570.667	2659.72	2720.25	-77.8903	0.0000000E+000	0.0000000E+000	0.0000000E+000	77.8903	0.0000000E+000	0.0000000E+000	0.0000000E+000	-77.8903	0.0000000E+000	0.0000000E+000	0.0000000E+000	-12.1097	0.0000000E+000	0.0000000E+000	0.0000000E+000	12.1097	4.66072	77.8903	2.72681e-06	2.28704e-05	3231.75
31621.1	1.29469	0.292658	1.32735	-12.7374	3.80149	0.271877	0.0832858	17.1982	0.836045	1	9	0.00504899	0.0038038	0	3.98907e-05	0.734838	0.166107	0.753378	12.7374	836.045	3698.58	3791.89	-77.2626	0.0000000E+000	0.0000000E+000	0.0000000E+000	77.2626	0.0000000E+000	0.0000000E+000	0.0000000E+000	-77.2626	0.0000000E+000	0.0000000E+000	0.0000000E+000	-12.7374	0.0000000E+000	0.0000000E+000	0.0000000E+000	12.7374	4.42389	77.2626	1.97543e-05	2.26435e-05	3264.39
21544.7	1.3598	0.32693	1.39855	-13.5187	4.23948	0.271874	0.0808469	22.5957	1.23474	1	9	0.0054126	0.00387014	0	4.80989e-05	0.695214	0.167146	0.715024	13.5187	1234.74	5135.68	5282.03	-76.4813	0.0000000E+000	0.0000000E+000	0.0000000E+000	76.4813	0.0000000E+000	0.0000000E+000	0.0000000E+000	-76.4813	0.0000000E+000	0.0000000E+000	0.0000000E+000	-13.5187	0.0000000E+000	0.0000000E+000	0.0000000E+000	13.5187	4.15931	76.4813	8.20823e-06	2.19801e-05	3362.82
14678.6	1.42831	0.368022	1.47496	-14.4487	4.53549	0.27187	0.0846077	29.462	1.83422	1	9	0.00477573	0.00323788	0	5.60365e-05	0.656542	0.169167	0.677986	14.4487	1834.22	7118.66	7351.17	-75.5513	0.0000000E+000	0.0000000E+000	0.0000000E+000	75.5513	0.0000000E+000	0.0000000E+000	0.0000000E+000	-75.5513	0.0000000E+000	0.0000000E+000	0.0000000E+000	-14.4487	0.0000000E+000	0.0000000E+000	0.0000000E+000	14.4487	3.88103	75.5513	7.93751e-06	2.30023e-05	3213.3
10002.2	1.4998	0.417823	1.55691	-15.5671	4.9725	0.271872	0.0746098	38.083	2.74276	1	9	0.00504371	0.00323956	0	6.58836e-05	0.618735	0.172371	0.642297	15.5671	2742.76	9845.29	10220.2	-74.4329	0.0000000E+000	0.0000000E+000	0.0000000E+000	74.4329	0.0000000E+000	0.0000000E+000	0.0000000E+000	-74.4329	0.0000000E+000	0.0000000E+000	0.0000000E+000	-15.5671	0.0000000E+000	0.0000000E+000	0.0000000E+000	15.5671	3.58955	74.4329	9.84719e-06	2.02843e-05	3643.91
6811.07	1.58761	0.484983	1.66004	-16.9868	5.35151	0.271687	-0.0568708	48.1813	4.11241	1	9	0.00472292	0.00284507	0	6.28276e-05	0.576115	0.175991	0.602396	16.9868	4112.41	13462.1	14076.3	-73.0132	0.0000000E+000	0.0000000E+000	0.0000000E+000	73.0132	0.0000000E+000	0.0000000E+000	0.0000000E+000	-73.0132	0.0000000E+000	0.0000000E+000	0.0000000E+000	-16.9868	0.0000000E+000	0.0000000E+000	0.0000000E+000	16.9868	3.27354	73.0132	-3.05602e-06	-1.5451e-05	4777.26
4641.49	1.67829	0.573635	1.77361	-18.8703	5.8227	0.271833	0.0701973	59.7761	6.25289	1	9	0.00455403	0.00256766	0	6.96006e-05	0.533517	0.182355	0.563821	18.8703	6252.89	18294.1	19333.2	-71.1297	0.0000000E+000	0.0000000E+000	0.0000000E+000	71.1297	0.0000000E+000	0.0000000E+000	0.0000000E+000	-71.1297	0.0000000E+000	0.0000000E+000	0.0000000E+000	-18.8703	0.0000000E+000	0.0000000E+000	0.0000000E+000	18.8703	2.92571	71.1297	6.773e-06	1.90819e-05	3872.41
3161.01	1.78673	0.690778	1.91561	-21.1373	6.51269	0.271838	0.0696946	72.8879	9.47799	1	9	0.00485478	0.00253432	0	8.05196e-05	0.486903	0.188245	0.522026	21.1373	9478	24515.3	26283.7	-68.8627	0.0000000E+000	0.0000000E+000	0.0000000E+000	68.8627	0.0000000E+000	0.0000000E+000	0.0000000E+000	-68.8627	0.0000000E+000	0.0000000E+000	0.0000000E+000	-21.1373	0.0000000E+000	0.0000000E+000	0.0000000E+000	21.1373	2.58655	68.8627	1.0919e-05	1.89456e-05	3900.41
2155.69	1.91724	0.843263	2.09449	-23.7414	6.9797	0.271837	0.0701601	87.553	14.1919	1	9	0.00481465	0.00229872	0	9.08526e-05	0.437038	0.192223	0.477443	23.7414	14191.9	32266.6	35249.7	-66.2586	0.0000000E+000	0.0000000E+000	0.0000000E+000	66.2586	0.0000000E+000	0.0000000E+000	0.0000000E+000	-66.2586	0.0000000E+000	0.0000000E+000	0.0000000E+000	-23.7414	0.0000000E+000	0.0000000E+000	0.0000000E+000	23.7414	2.27359	66.2586	1.0333e-05	1.90721e-05	3874.53
1468.59	2.08092	1.03662	2.32483	-26.4805	7.44695	0.271833	0.0741816	104.544	20.7854	1	9	0.00477983	0.002056	0	9.98497e-05	0.385012	0.191796	0.43014	26.4805	20785.4	41724.8	46615.4	-63.5196	0.0000000E+000	0.0000000E+000	0.0000000E+000	63.5196	0.0000000E+000	0.0000000E+000	0.0000000E+000	-63.5196	0.0000000E+000	0.0000000E+000	0.0000000E+000	-26.4805	0.0000000E+000	0.0000000E+000	0.0000000E+000	26.4805	2.0074	63.5195	8.99712e-06	2.0165e-05	3664.42
1000.32	2.28387	1.28126	2.61872	-29.2926	7.91569	0.271831	0.0696946	124.177	29.7263	1	9	0.00476344	0.00181899	0	0.00010757	0.333037	0.186835	0.381866	29.2926	29726.3	52987.6	60756.3	-60.7074	0.0000000E+000	0.0000000E+000	0.0000000E+000	60.7074	0.0000000E+000	0.0000000E+000	0.0000000E+000	-60.7074	0.0000000E+000	0.0000000E+000	0.0000000E+000	-29.2926	0.0000000E+000	0.0000000E+000	0.0000000E+000	29.2926	1.78252	60.7074	7.72038e-06	1.89452e-05	3900.32
681.09	2.51776	1.59496	2.98044	-32.3536	8.38143	0.271827	0.0653194	146.509	41.9571	1	9	0.00474751	0.00159289	0	0.000114274	0.283435	0.179552	0.335521	32.3536	41957.1	66232.2	78403.5	-57.6464	0.0000000E+000	0.0000000E+000	0.0000000E+000	57.6464	0.0000000E+000	0.0000000E+000	0.0000000E+000	-57.6464	0.0000000E+000	0.0000000E+000	0.0000000E+000	-32.3536	0.0000000E+000	0.0000000E+000	0.0000000E+000	32.3536	1.57857	57.6464	6.7036e-06	1.77556e-05	4161.51
463.961	2.8847	2.00288	3.51184	-34.7727	9.10418	0.271838	-0.00909208	171.271	55.7088	1	10	0.00481704	0.00137166	0	0.000119658	0.2339	0.1624	0.284751	34.7727	55708.8	80236.1	97679.6	-55.2273	0.0000000E+000	0.0000000E+000	0.0000000E+000	55.2273	0.0000000E+000	0.0000000E+000	0.0000000E+000	-55.2273	0.0000000E+000	0.0000000E+000	0.0000000E+000	-34.7727	0.0000000E+000	0.0000000E+000	0.0000000E+000	34.7727	1.44028	55.2273	5.38403e-06	-2.47157e-06	29898.3
316.316	3.32324	2.47061	4.141	-36.6284	9.57092	0.271841	-0.00938245	203.655	72.4927	1	10	0.00478269	0.00115496	0	0.000118038	0.193799	0.144077	0.241488	36.6284	72492.7	97510.5	121505	-53.3716	0.0000000E+000	0.0000000E+000	0.0000000E+000	53.3716	0.0000000E+000	0.0000000E+000	0.0000000E+000	-53.3716	0.0000000E+000	0.0000000E+000	0.0000000E+000	-36.6284	0.0000000E+000	0.0000000E+000	0.0000000E+000	36.6284	1.34511	53.3716	-1.61992e-06	-2.55053e-06	28973.3
215.345	3.89079	3.0325	4.93298	-37.933	10.0385	0.27184	-0.00961327	243.717	92.1018	1	10	0.00476258	0.000965457	0	0.000116112	0.159889	0.124618	0.202717	37.933	92101.8	118169	149822	-52.067	0.0000000E+000	0.0000000E+000	0.0000000E+000	52.067	0.0000000E+000	0.0000000E+000	0.0000000E+000	-52.067	0.0000000E+000	0.0000000E+000	0.0000000E+000	-37.933	0.0000000E+000	0.0000000E+000	0.0000000E+000	37.933	1.28303	52.067	-1.92609e-06	-2.61327e-06	28277.6
146.737	4.63186	3.68255	5.91737	-38.4864	10.5014	0.271844	-0.0101996	294.531	114.07	1	10	0.00475435	0.000803458	0	0.000115399	0.132281	0.10517	0.168994	38.4864	114070	143475	183295	-51.5136	0.0000000E+000	0.0000000E+000	0.0000000E+000	51.5136	0.0000000E+000	0.0000000E+000	0.0000000E+000	-51.5136	0.0000000E+000	0.0000000E+000	0.0000000E+000	-38.4864	0.0000000E+000	0.0000000E+000	0.0000000E+000	38.4864	1.25779	51.5136	-7.12319e-07	-2.7727e-06	26652.4
100.032	5.59004	4.37888	7.10092	-38.0729	10.9697	0.271858	-0.0095258	363.344	138.17	1	10	0.00473993	0.00066751	0	0.000115043	0.110863	0.0868426	0.140827	38.0729	138170	176387	224061	-51.9271	0.0000000E+000	0.0000000E+000	0.0000000E+000	51.9271	0.0000000E+000	0.0000000E+000	0.0000000E+000	-51.9271	0.0000000E+000	0.0000000E+000	0.0000000E+000	-38.0729	0.0000000E+000	0.0000000E+000	0.0000000E+000	38.0729	1.27659	51.9272	-3.56204e-07	-2.58966e-06	28539.1
68.104	6.8379	5.10723	8.53467	-36.7561	11.4473	0.271858	-0.00684355	457.575	163.855	1	10	0.00474267	0.000555695	0	0.000114735	0.0938748	0.0701151	0.117169	36.7561	163855	219380	273817	-53.2439	0.0000000E+000	0.0000000E+000	0.0000000E+000	53.2439	0.0000000E+000	0.0000000E+000	0.0000000E+000	-53.2439	0.0000000E+000	0.0000000E+000	0.0000000E+000	-36.7561	0.0000000E+000	0.0000000E+000	0.0000000E+000	36.7561	1.33887	53.2439	-3.08118e-07	-1.86047e-06	39724.7
46.4415	8.34277	5.69113	10.099	-34.3004	11.9025	0.271846	-0.0115342	602.164	191.228	1	10	0.00473725	0.000469079	0	0.000113599	0.0817993	0.0558004	0.0990192	34.3004	191228	280326	339338	-55.6996	0.0000000E+000	0.0000000E+000	0.0000000E+000	55.6996	0.0000000E+000	0.0000000E+000	0.0000000E+000	-55.6996	0.0000000E+000	0.0000000E+000	0.0000000E+000	-34.3004	0.0000000E+000	0.0000000E+000	0.0000000E+000	34.3004	1.46593	55.6996	-1.13569e-06	-3.13553e-06	23568.6
31.6296	10.0685	6.07684	11.7602	-31.1131	12.3494	0.271843	-0.0140322	828.036	221.094	1	10	0.0047372	0.000402816	0	0.000111984	0.0728006	0.0439389	0.0850326	31.1131	221094	366321	427871	-58.8869	0.0000000E+000	0.0000000E+000	0.0000000E+000	58.8869	0.0000000E+000	0.0000000E+000	0.0000000E+000	-58.8869	0.0000000E+000	0.0000000E+000	0.0000000E+000	-31.1131	0.0000000E+000	0.0000000E+000	0.0000000E+000	31.1131	1.65686	58.8869	-1.615e-06	-3.81455e-06	19372.8
21.5517	11.8637	6.18597	13.3796	-27.5384	12.7883	0.271829	-0.016465	1193.8	255.187	1	10	0.00473755	0.000354087	0	0.000110018	0.0662726	0.0345558	0.0747406	27.5384	255187	489409	551944	-62.4616	0.0000000E+000	0.0000000E+000	0.0000000E+000	62.4616	0.0000000E+000	0.0000000E+000	0.0000000E+000	-62.4616	0.0000000E+000	0.0000000E+000	0.0000000E+000	-27.5384	0.0000000E+000	0.0000000E+000	0.0000000E+000	27.5384	1.91784	62.4616	-1.96609e-06	-4.47567e-06	16509.5
14.6852	13.6729	6.10011	14.972	-24.0438	13.526	0.271875	-0.00285974	1776.66	294.932	1	11	0.00473565	0.000316302	0	0.000112355	0.0609963	0.0272133	0.0667915	24.0438	294932	661066	723874	-65.9562	0.0000000E+000	0.0000000E+000	0.0000000E+000	65.9562	0.0000000E+000	0.0000000E+000	0.0000000E+000	-65.9562	0.0000000E+000	0.0000000E+000	0.0000000E+000	-24.0438	0.0000000E+000	0.0000000E+000	0.0000000E+000	24.0438	2.24142	65.9562	2.3363e-06	-7.77491e-07	95069.6
10.0032	15.3096	5.80649	16.3737	-20.7703	13.9947	0.271872	-0.00291081	2740.11	344.587	1	11	0.00474306	0.000289675	0	0.000111677	0.0571042	0.021658	0.0610734	20.7703	344587	908551	971703	-69.2297	0.0000000E+000	0.0000000E+000	0.0000000E+000	69.2297	0.0000000E+000	0.0000000E+000	0.0000000E+000	-69.2297	0.0000000E+000	0.0000000E+000	0.0000000E+000	-20.7703	0.0000000E+000	0.0000000E+000	0.0000000E+000	20.7703	2.63664	69.2297	-6.77469e-07	-7.91367e-07	93400.8
6.81719	16.7869	5.43824	17.6458	-17.9501	14.3524	0.271869	-0.0029451	4292.96	407.748	1	11	0.00473632	0.000268411	0	0.00011026	0.0539123	0.0174653	0.0566708	17.9501	407748	1.25864e+06	1.32304e+06	-72.0499	0.0000000E+000	0.0000000E+000	0.0000000E+000	72.0499	0.0000000E+000	0.0000000E+000	0.0000000E+000	-72.0499	0.0000000E+000	0.0000000E+000	0.0000000E+000	-17.9501	0.0000000E+000	0.0000000E+000	0.0000000E+000	17.9501	3.08682	72.0499	-1.41763e-06	-8.00682e-07	92312.3
4.63925	18.0875	5.00558	18.7673	-15.469	14.8543	0.271875	-0.00260591	6853.59	487.553	1	11	0.00473258	0.000252171	0	0.00010908	0.0513539	0.0142118	0.0532841	15.469	487553	1.76175e+06	1.82797e+06	-74.531	0.0000000E+000	0.0000000E+000	0.0000000E+000	74.531	0.0000000E+000	0.0000000E+000	0.0000000E+000	-74.531	0.0000000E+000	0.0000000E+000	0.0000000E+000	-15.469	0.0000000E+000	0.0000000E+000	0.0000000E+000	15.469	3.61346	74.531	-1.17947e-06	-7.08483e-07	104330
3.1604	19.2458	4.66668	19.8035	-13.6299	15.5632	0.271873	-0.00220876	10791.2	599.245	1	11	0.00473724	0.000239213	0	0.000112849	0.0490742	0.0118994	0.0504962	13.6299	599245	2.47133e+06	2.54295e+06	-76.3701	0.0000000E+000	0.0000000E+000	0.0000000E+000	76.3701	0.0000000E+000	0.0000000E+000	0.0000000E+000	-76.3701	0.0000000E+000	0.0000000E+000	0.0000000E+000	-13.6299	0.0000000E+000	0.0000000E+000	0.0000000E+000	13.6299	4.12408	76.3701	3.76863e-06	-6.00501e-07	123088
2.15577	20.368	4.29775	20.8165	-11.9149	16.5788	0.271872	-0.00101777	17178.2	732.225	1	11	0.0047396	0.000227685	0	0.00011365	0.0470039	0.00991805	0.0480389	11.9149	732225	3.47018e+06	3.54659e+06	-78.0851	0.0000000E+000	0.0000000E+000	0.0000000E+000	78.0851	0.0000000E+000	0.0000000E+000	0.0000000E+000	-78.0851	0.0000000E+000	0.0000000E+000	0.0000000E+000	-11.9149	0.0000000E+000	0.0000000E+000	0.0000000E+000	11.9149	4.73922	78.0851	8.01687e-07	-2.76704e-07	267125
1.46631	21.3187	3.98466	21.6879	-10.587	18.052	0.271871	-0.000546223	27239.7	919.502	1	11	0.00474016	0.000218563	0	0.000108804	0.0453239	0.00847146	0.0461088	10.587	919502	4.9195e+06	5.0047e+06	-79.413	0.0000000E+000	0.0000000E+000	0.0000000E+000	79.413	0.0000000E+000	0.0000000E+000	0.0000000E+000	-79.413	0.0000000E+000	0.0000000E+000	0.0000000E+000	-10.587	0.0000000E+000	0.0000000E+000	0.0000000E+000	10.587	5.35018	79.413	-4.84593e-06	-1.48502e-07	497729
1.00006	22.2092	3.65699	22.5083	-9.35047	21.2432	0.271875	-0.000748455	43517.9	1148.77	1	12	0.00474038	0.000210606	0	0.000100424	0.0438378	0.00721837	0.0444281	9.35047	1.14876e+06	6.97655e+06	7.0705e+06	-80.6495	0.0000000E+000	0.0000000E+000	0.0000000E+000	80.6495	0.0000000E+000	0.0000000E+000	0.0000000E+000	-80.6495	0.0000000E+000	0.0000000E+000	0.0000000E+000	-9.35047	0.0000000E+000	0.0000000E+000	0.0000000E+000	9.35047	6.07308	80.6495	-8.38078e-06	-2.03486e-07	363248
0.681362	23.0289	3.37227	23.2745	-8.331	24.3634	0.271881	-0.00111731	69265.9	1454.14	1	12	0.00473964	0.000203641	0	9.72405e-05	0.0425122	0.00622534	0.0429655	8.331	1.45414e+06	9.93014e+06	1.0036e+07	-81.669	0.0000000E+000	0.0000000E+000	0.0000000E+000	81.669	0.0000000E+000	0.0000000E+000	0.0000000E+000	-81.669	0.0000000E+000	0.0000000E+000	0.0000000E+000	-8.331	0.0000000E+000	0.0000000E+000	0.0000000E+000	8.331	6.82889	81.669	-3.18311e-06	-3.03776e-07	243335
0.464091	23.721	3.16668	23.9314	-7.60386	28.9265	0.271875	-0.00159506	108296	1896.2	1	12	0.00474105	0.00019811	0	0.000102457	0.0414187	0.00552927	0.0417861	7.60386	1.8962e+06	1.42041e+07	1.43301e+07	-82.3961	0.0000000E+000	0.0000000E+000	0.0000000E+000	82.3961	0.0000000E+000	0.0000000E+000	0.0000000E+000	-82.3961	0.0000000E+000	0.0000000E+000	0.0000000E+000	-7.60386	0.0000000E+000	0.0000000E+000	0.0000000E+000	7.60386	7.49081	82.3961	5.21683e-06	-4.33657e-07	170448
0.316193	24.3215	3.02444	24.5088	-7.08849	35.607	0.271873	-0.00167198	166427	2534.36	1	12	0.00474086	0.000193435	0	0.000117047	0.0404898	0.005035	0.0408016	7.08849	2.53435e+06	2.03804e+07	2.05374e+07	-82.9115	0.0000000E+000	0.0000000E+000	0.0000000E+000	82.9115	0.0000000E+000	0.0000000E+000	0.0000000E+000	-82.9115	0.0000000E+000	0.0000000E+000	0.0000000E+000	-7.08849	0.0000000E+000	0.0000000E+000	0.0000000E+000	7.08849	8.04165	82.9115	1.45897e-05	-4.54566e-07	162605
0.215268	24.8957	2.97373	25.0726	-6.81158	45.4048	0.271884	-0.000851083	248622	3497.38	1	12	0.00473883	0.000189004	0	0.000137747	0.0396026	0.00473044	0.0398841	6.81158	3.49738e+06	2.92796e+07	2.94877e+07	-83.1884	0.0000000E+000	0.0000000E+000	0.0000000E+000	83.1884	0.0000000E+000	0.0000000E+000	0.0000000E+000	-83.1884	0.0000000E+000	0.0000000E+000	0.0000000E+000	-6.81158	0.0000000E+000	0.0000000E+000	0.0000000E+000	6.81158	8.37186	83.1884	2.07003e-05	-2.31396e-07	319457
0.146929	25.476	3.10866	25.665	-6.95701	59.7405	0.271887	0.000165447	348450	5112.16	1	12	0.00473984	0.000184681	0	0.000153089	0.0386767	0.00471945	0.0389636	6.95701	5.11216e+06	4.18951e+07	4.22058e+07	-83.043	0.0000000E+000	0.0000000E+000	0.0000000E+000	83.043	0.0000000E+000	0.0000000E+000	0.0000000E+000	-83.043	0.0000000E+000	0.0000000E+000	0.0000000E+000	-6.95701	0.0000000E+000	0.0000000E+000	0.0000000E+000	6.95701	8.19518	83.043	1.53418e-05	4.4983e-08	1.64335e+06
0.0999041	26.0418	3.46876	26.2718	-7.58711	80.8104	0.271875	0.000554386	459265	8006.28	1	12	0.00473998	0.000180421	0	0.000144777	0.0377304	0.00502567	0.0380636	7.58711	8.00628e+06	6.01074e+07	6.06383e+07	-82.4129	0.0000000E+000	0.0000000E+000	0.0000000E+000	82.4129	0.0000000E+000	0.0000000E+000	0.0000000E+000	-82.4129	0.0000000E+000	0.0000000E+000	0.0000000E+000	-7.58711	0.0000000E+000	0.0000000E+000	0.0000000E+000	7.58711	7.50753	82.4129	-8.31253e-06	1.50724e-07	490408
0.0680626	26.6121	4.01222	26.9128	-8.57374	111.722	0.271875	0.000979716	582810	12953.2	1	12	0.00474014	0.000176129	0	0.000102706	0.0367418	0.00553944	0.037157	8.57374	1.29532e+07	8.59155e+07	8.68865e+07	-81.4263	0.0000000E+000	0.0000000E+000	0.0000000E+000	81.4263	0.0000000E+000	0.0000000E+000	0.0000000E+000	-81.4263	0.0000000E+000	0.0000000E+000	0.0000000E+000	-8.57374	0.0000000E+000	0.0000000E+000	0.0000000E+000	8.57374	6.63276	81.4263	-4.20709e-05	2.66361e-07	277504
0.0464052	27.2706	4.72415	27.6768	-9.82795	157.047	0.271885	0.000467823	725989	21151.8	1	12	0.00474053	0.000171282	0	4.86341e-06	0.0356012	0.00616727	0.0361314	9.82795	2.11518e+07	1.22101e+08	1.23919e+08	-80.172	0.0000000E+000	0.0000000E+000	0.0000000E+000	80.172	0.0000000E+000	0.0000000E+000	0.0000000E+000	-80.172	0.0000000E+000	0.0000000E+000	0.0000000E+000	-9.82795	0.0000000E+000	0.0000000E+000	0.0000000E+000	9.82795	5.77259	80.172	-9.78424e-05	1.27194e-07	581170
0.0315922	28.2042	5.75189	28.7848	-11.5267	223.607	0.271885	-0.000669064	875850	34972.4	1	12	0.00474089	0.000164701	0	-0.000126196	0.03404	0.00694201	0.0347406	11.5267	3.49724e+07	1.71486e+08	1.75016e+08	-78.4733	0.0000000E+000	0.0000000E+000	0.0000000E+000	78.4733	0.0000000E+000	0.0000000E+000	0.0000000E+000	-78.4733	0.0000000E+000	0.0000000E+000	0.0000000E+000	-11.5267	0.0000000E+000	0.0000000E+000	0.0000000E+000	11.5267	4.90347	78.4733	-0.000131059	-1.81909e-07	406367
0.0215268	29.3595	7.27084	30.2464	-13.9094	321.276	0.271885	-0.00154985	1.01685e+06	58759.7	1	12	0.00474245	0.000156794	0	-0.000225557	0.0320924	0.00794764	0.0330618	13.9094	5.87597e+07	2.3727e+08	2.44437e+08	-76.0906	0.0000000E+000	0.0000000E+000	0.0000000E+000	76.0906	0.0000000E+000	0.0000000E+000	0.0000000E+000	-76.0906	0.0000000E+000	0.0000000E+000	0.0000000E+000	-13.9094	0.0000000E+000	0.0000000E+000	0.0000000E+000	13.9094	4.03797	76.0906	-9.93606e-05	-4.2138e-07	175427
0.0146812	30.569	9.23232	31.9327	-16.8052	464.472	0.271884	-0.00184437	1.17422e+06	98151.9	1	12	0.00474177	0.000148493	0	-0.00018612	0.0299785	0.00905398	0.0313159	16.8052	9.81519e+07	3.24989e+08	3.39487e+08	-73.1948	0.0000000E+000	0.0000000E+000	0.0000000E+000	73.1948	0.0000000E+000	0.0000000E+000	0.0000000E+000	-73.1948	0.0000000E+000	0.0000000E+000	0.0000000E+000	-16.8052	0.0000000E+000	0.0000000E+000	0.0000000E+000	16.8052	3.31108	73.1948	3.94368e-05	-5.01454e-07	147413

0.0100092	31.9056	11.519	33.9213	-19.8512	674.494	0.271883	-0.00137276	1.38041e+06	159180	1	12	0.00474169	0.000139785	0	7.75898e-05	0.0277282	0.0100108	0.02948	19.8512	1.5918e+08	4.40904e+08	4.68759e+08	-70.1488	0.0000000E+000	0.0000000E+000	0.0000000E+000	70.1488	0.0000000E+000	0.0000000E+000	0.0000000E+000	-70.1488	0.0000000E+000	0.0000000E+000	0.0000000E+000	-19.8512	0.0000000E+000	0.0000000E+000	0.0000000E+000	19.8512	2.76984	70.1488	0.000263709	-3.7323e-07	198056