File: txt/17715_R287_UA663_SOC00_C05.mpt
EC-Lab ASCII FILE

Nb header lines : 63

Potentio Electrochemical Impedance Spectroscopy

Run on channel : 5 (SN 65912)
User :
CE vs. WE compliance from -10 V to 10 V
Electrode connection : standard
Potential control : Ewe
Ewe ctrl range : min = -10.00 V, max = 10.00 V
Safety Limits :
	Do not start on E overload
Acquisition started on : 09/22/2025 10:25:27.551
Loaded Setting File :  C:\Users\Celltest\OneDrive - store-dot.com\Documents\EC-Lab\Data\Gyutae\17740_R277_UA674_SOC00_C04.mpr
Saved on :
	File : 17715_R287_UA663_SOC00_C05.mpr
	Directory : C:\Users\Celltest\OneDrive - store-dot.com\Documents\EC-Lab\Data\Charmaine\
	Host : 169.254.61.224
Device : VMP-3e (SN .003165)
Address : USB
EC-LAB for windows v11.62 (software)
Internet server v27.00 (firmware)
Command interpretor v12.03 (firmware)
Electrode material :
Initial state :
Electrolyte :
Comments :
Electrode surface area : 0.001 cm²
Characteristic mass : 0.001 g
Equivalent Weight : 0.000 g/eq.
Density : 0.000 g/cm3
Volume (V) : 0.001 cm³
Cycle Definition : Charge/Discharge alternance
Mode                Single sine
E (V)               0.0000
vs.                 Eoc
tE (h:m:s)          0:00:0.0000
record              0
dI                  0.000
unit dI             mA
dt (s)              0.000
fi                  100.000
unit fi             kHz
ff                  10.000
unit ff             mHz
Nd                  6
Points              per decade
spacing             Logarithmic
Va (mV)             5.0
pw                  0.10
Na                  2
corr                0
E range min (V)     -10.000
E range max (V)     10.000
I Range             Auto
Bandwidth           5
nc cycles           0
goto Ns'            0
nr cycles           0
inc. cycle          0

freq/Hz	Re(Z)/Ohm	-Im(Z)/Ohm	|Z|/Ohm	Phase(Z)/deg	time/s	<Ewe>/V	<I>/mA	Cs/µF	Cp/µF	cycle number	I Range	|Ewe|/V	|I|/A	Ns	(Q-Qo)/mA.h	Re(Y)/Ohm-1	Im(Y)/Ohm-1	|Y|/Ohm-1	Phase(Y)/deg	Re(C)/nF	Im(C)/nF	|C|/nF	Phase(C)/deg	Re(M)	Im(M)	|M|	Phase(M)/deg	Re(Permittivity)	Im(Permittivity)	|Permittivity|	Phase(Permittivity)/deg	Re(Resistivity)/Ohm.cm	Im(Resistivity)/Ohm.cm	|Resistivity|/Ohm.cm	Phase(Resistivity)/deg	Re(Conductivity)/mS/cm	Im(Conductivity)/mS/cm	|Conductivity|/mS/cm	Phase(Conductivity)/deg	Tan(Delta)	Loss Angle(Delta)/deg	dq/mA.h	Pwe/W	Rwe/Ohm
100004	1.03561	0.217286	1.05816	-11.8496	1.86449	0.265116	-0.019591	7.32441	0.30884	1	9	0.00474683	0.00448593	0	-9.36499e-06	0.924899	0.194057	0.945038	11.8496	308.84	1471.97	1504.02	-78.1504	0.0000000E+000	0.0000000E+000	0.0000000E+000	78.1504	0.0000000E+000	0.0000000E+000	0.0000000E+000	-78.1504	0.0000000E+000	0.0000000E+000	0.0000000E+000	-11.8496	0.0000000E+000	0.0000000E+000	0.0000000E+000	11.8496	4.76612	78.1504	-9.36499e-06	-5.1939e-06	13532.6
68132	1.08943	0.234777	1.11444	-12.1615	2.44248	0.265105	-0.0219557	9.94978	0.441582	1	9	0.00502739	0.00451114	0	-1.03489e-05	0.877175	0.189035	0.897313	12.1615	441.583	2049.06	2096.1	-77.8385	0.0000000E+000	0.0000000E+000	0.0000000E+000	77.8385	0.0000000E+000	0.0000000E+000	0.0000000E+000	-77.8385	0.0000000E+000	0.0000000E+000	0.0000000E+000	-12.1615	0.0000000E+000	0.0000000E+000	0.0000000E+000	12.1615	4.64027	77.8385	-9.83888e-07	-5.82057e-06	12074.5
46420.4	1.14984	0.257295	1.17828	-12.6131	3.02049	0.265092	-0.0176359	13.3254	0.635402	1	9	0.00501811	0.00425885	0	-1.21793e-05	0.828215	0.185326	0.848697	12.6131	635.402	2839.58	2909.81	-77.3869	0.0000000E+000	0.0000000E+000	0.0000000E+000	77.3869	0.0000000E+000	0.0000000E+000	0.0000000E+000	-77.3869	0.0000000E+000	0.0000000E+000	0.0000000E+000	-12.6131	0.0000000E+000	0.0000000E+000	0.0000000E+000	12.6131	4.46896	77.3869	-1.83043e-06	-4.67513e-06	15031.3
31621.1	1.2088	0.286795	1.24236	-13.347	3.59849	0.265097	-0.0185111	17.5497	0.935237	1	9	0.00505447	0.00406845	0	-1.95261e-05	0.78318	0.185814	0.804921	13.347	935.237	3941.89	4051.31	-76.653	0.0000000E+000	0.0000000E+000	0.0000000E+000	76.653	0.0000000E+000	0.0000000E+000	0.0000000E+000	-76.653	0.0000000E+000	0.0000000E+000	0.0000000E+000	-13.347	0.0000000E+000	0.0000000E+000	0.0000000E+000	13.347	4.21485	76.653	-7.34678e-06	-4.90722e-06	14321
21544.7	1.27523	0.319937	1.31475	-14.084	4.0355	0.265092	-0.020522	23.0895	1.36728	1	9	0.00535134	0.00407023	0	-1.57697e-05	0.737735	0.185087	0.760599	14.084	1367.28	5449.8	5618.7	-75.916	0.0000000E+000	0.0000000E+000	0.0000000E+000	75.916	0.0000000E+000	0.0000000E+000	0.0000000E+000	-75.916	0.0000000E+000	0.0000000E+000	0.0000000E+000	-14.084	0.0000000E+000	0.0000000E+000	0.0000000E+000	14.084	3.98588	75.916	3.75638e-06	-5.44022e-06	12917.4
14678.6	1.3441	0.357537	1.39084	-14.896	4.33249	0.265091	-0.0224957	30.3259	2.00402	1	9	0.00535034	0.00384684	0	-1.94127e-05	0.694827	0.184828	0.71899	14.896	2004.02	7533.77	7795.76	-75.104	0.0000000E+000	0.0000000E+000	0.0000000E+000	75.104	0.0000000E+000	0.0000000E+000	0.0000000E+000	-75.104	0.0000000E+000	0.0000000E+000	0.0000000E+000	-14.896	0.0000000E+000	0.0000000E+000	0.0000000E+000	14.896	3.75933	75.104	-3.643e-06	-5.96341e-06	11784.1
10002.2	1.41475	0.409444	1.47281	-16.141	4.62848	0.265089	-0.0203358	38.8624	3.00348	1	9	0.00495739	0.00336594	0	-1.93115e-05	0.65221	0.188756	0.678975	16.141	3003.48	10377.9	10803.8	-73.859	0.0000000E+000	0.0000000E+000	0.0000000E+000	73.859	0.0000000E+000	0.0000000E+000	0.0000000E+000	-73.859	0.0000000E+000	0.0000000E+000	0.0000000E+000	-16.141	0.0000000E+000	0.0000000E+000	0.0000000E+000	16.141	3.4553	73.859	1.01201e-07	-5.39081e-06	13035.6
6811.07	1.50159	0.473925	1.5746	-17.5165	5.00651	0.264898	-0.158905	49.3055	4.46655	1	9	0.00472546	0.00300105	0	-3.13581e-05	0.605632	0.191147	0.635081	17.5165	4466.55	14151.9	14840	-72.4835	0.0000000E+000	0.0000000E+000	0.0000000E+000	72.4835	0.0000000E+000	0.0000000E+000	0.0000000E+000	-72.4835	0.0000000E+000	0.0000000E+000	0.0000000E+000	-17.5165	0.0000000E+000	0.0000000E+000	0.0000000E+000	17.5165	3.16841	72.4835	-1.20466e-05	-4.20936e-05	1667.02
4641.49	1.59387	0.558858	1.689	-19.3222	5.47767	0.265067	-0.00229315	61.3566	6.71744	1	9	0.00458597	0.0027152	0	-3.16481e-05	0.558716	0.195903	0.592065	19.3222	6717.44	19158.2	20301.7	-70.6778	0.0000000E+000	0.0000000E+000	0.0000000E+000	70.6778	0.0000000E+000	0.0000000E+000	0.0000000E+000	-70.6778	0.0000000E+000	0.0000000E+000	0.0000000E+000	-19.3222	0.0000000E+000	0.0000000E+000	0.0000000E+000	19.3222	2.852	70.6778	-2.90002e-07	-6.07839e-07	115591
3161.01	1.69936	0.671031	1.82705	-21.5477	5.94468	0.265063	-0.00624057	75.0329	10.1213	1	9	0.00450579	0.00246616	0	-3.33901e-05	0.509079	0.201021	0.547331	21.5477	10121.3	25631.8	27557.8	-68.4523	0.0000000E+000	0.0000000E+000	0.0000000E+000	68.4523	0.0000000E+000	0.0000000E+000	0.0000000E+000	-68.4523	0.0000000E+000	0.0000000E+000	0.0000000E+000	-21.5477	0.0000000E+000	0.0000000E+000	0.0000000E+000	21.5477	2.53246	68.4523	-1.74192e-06	-1.65415e-06	42474.2
2155.69	1.82106	0.815554	1.99534	-24.125	6.63468	0.265064	-0.00521647	90.5277	15.1235	1	9	0.00497374	0.00249268	0	-3.52281e-05	0.457394	0.204842	0.501168	24.125	15123.5	33769.4	37001.3	-65.875	0.0000000E+000	0.0000000E+000	0.0000000E+000	65.875	0.0000000E+000	0.0000000E+000	0.0000000E+000	-65.875	0.0000000E+000	0.0000000E+000	0.0000000E+000	-24.125	0.0000000E+000	0.0000000E+000	0.0000000E+000	24.125	2.23291	65.875	-1.83807e-06	-1.3827e-06	50812.9
1468.59	1.9722	1.00706	2.21444	-27.05	7.10195	0.265068	-0.00638954	107.613	22.2559	1	9	0.00494351	0.0022324	0	-3.60906e-05	0.402183	0.205365	0.451581	27.05	22255.9	43585.6	48939.1	-62.95	0.0000000E+000	0.0000000E+000	0.0000000E+000	62.95	0.0000000E+000	0.0000000E+000	0.0000000E+000	-62.95	0.0000000E+000	0.0000000E+000	0.0000000E+000	-27.05	0.0000000E+000	0.0000000E+000	0.0000000E+000	27.05	1.95838	62.95	-8.62437e-07	-1.69366e-06	41484.6
1000.32	2.16212	1.26159	2.50327	-30.2634	7.57169	0.265066	-0.0114914	126.114	32.032	1	9	0.00491306	0.00196266	0	-3.80438e-05	0.345036	0.201327	0.399478	30.2634	32032	54896.6	63558.5	-59.7366	0.0000000E+000	0.0000000E+000	0.0000000E+000	59.7366	0.0000000E+000	0.0000000E+000	0.0000000E+000	-59.7366	0.0000000E+000	0.0000000E+000	0.0000000E+000	-30.2634	0.0000000E+000	0.0000000E+000	0.0000000E+000	30.2634	1.7138	59.7366	-1.9532e-06	-3.04598e-06	23066.5
681.09	2.40184	1.5925	2.88182	-33.5456	8.03742	0.26506	-0.0130182	146.736	44.8085	1	9	0.00490297	0.00170135	0	-3.87619e-05	0.289208	0.191754	0.347003	33.5456	44808.5	67581.3	81086.6	-56.4544	0.0000000E+000	0.0000000E+000	0.0000000E+000	56.4544	0.0000000E+000	0.0000000E+000	0.0000000E+000	-56.4544	0.0000000E+000	0.0000000E+000	0.0000000E+000	-33.5456	0.0000000E+000	0.0000000E+000	0.0000000E+000	33.5456	1.50823	56.4544	-7.18099e-07	-3.45062e-06	20360.7
463.961	2.71622	1.9983	3.3721	-36.3416	8.76018	0.265054	-0.0269578	171.663	60.2835	1	10	0.00496566	0.00147257	0	-4.46539e-05	0.238871	0.175736	0.296551	36.3416	60283.6	81941.3	101728	-53.6584	0.0000000E+000	0.0000000E+000	0.0000000E+000	53.6584	0.0000000E+000	0.0000000E+000	0.0000000E+000	-53.6584	0.0000000E+000	0.0000000E+000	0.0000000E+000	-36.3416	0.0000000E+000	0.0000000E+000	0.0000000E+000	36.3416	1.35926	53.6584	-5.89203e-06	-7.14526e-06	9832.2
316.316	3.14292	2.50422	4.01859	-38.5472	9.22691	0.265054	-0.0265929	200.921	78.0233	1	10	0.00492948	0.00122667	0	-4.77354e-05	0.194619	0.155069	0.248843	38.5472	78023.3	97923	125206	-51.4528	0.0000000E+000	0.0000000E+000	0.0000000E+000	51.4528	0.0000000E+000	0.0000000E+000	0.0000000E+000	-51.4528	0.0000000E+000	0.0000000E+000	0.0000000E+000	-38.5472	0.0000000E+000	0.0000000E+000	0.0000000E+000	38.5472	1.25505	51.4528	-3.08149e-06	-7.04855e-06	9967.12
215.345	3.71176	3.10731	4.84071	-39.9345	9.69445	0.265057	-0.0269894	237.849	98.0058	1	10	0.00490705	0.0010137	0	-5.01227e-05	0.158402	0.132607	0.206581	39.9345	98005.8	117070	152678	-50.0655	0.0000000E+000	0.0000000E+000	0.0000000E+000	50.0655	0.0000000E+000	0.0000000E+000	0.0000000E+000	-50.0655	0.0000000E+000	0.0000000E+000	0.0000000E+000	-39.9345	0.0000000E+000	0.0000000E+000	0.0000000E+000	39.9345	1.19452	50.0655	-2.38727e-06	-7.15373e-06	9820.77
146.737	4.47267	3.80278	5.87077	-40.3721	10.1574	0.265059	-0.0270955	285.219	119.671	1	10	0.00489552	0.000833881	0	-5.35452e-05	0.129771	0.110334	0.170335	40.3721	119671	140752	184750	-49.6279	0.0000000E+000	0.0000000E+000	0.0000000E+000	49.6279	0.0000000E+000	0.0000000E+000	0.0000000E+000	-49.6279	0.0000000E+000	0.0000000E+000	0.0000000E+000	-40.3721	0.0000000E+000	0.0000000E+000	0.0000000E+000	40.3721	1.17616	49.6279	-3.42257e-06	-7.1819e-06	9782.37
100.032	5.45304	4.57592	7.11861	-40.0017	10.6257	0.265051	-0.0257756	347.699	143.671	1	10	0.00488747	0.000686576	0	-5.71443e-05	0.107609	0.0902999	0.140477	40.0017	143671	171210	223504	-49.9983	0.0000000E+000	0.0000000E+000	0.0000000E+000	49.9983	0.0000000E+000	0.0000000E+000	0.0000000E+000	-49.9983	0.0000000E+000	0.0000000E+000	0.0000000E+000	-40.0017	0.0000000E+000	0.0000000E+000	0.0000000E+000	40.0017	1.19168	49.9983	-3.59908e-06	-6.83186e-06	10283
68.104	6.7292	5.33951	8.59026	-38.4314	11.1043	0.265059	-0.0249136	437.669	169.097	1	10	0.00487811	0.000567865	0	-6.05359e-05	0.0911908	0.0723584	0.116411	38.4314	169097	213108	272046	-51.5686	0.0000000E+000	0.0000000E+000	0.0000000E+000	51.5686	0.0000000E+000	0.0000000E+000	0.0000000E+000	-51.5686	0.0000000E+000	0.0000000E+000	0.0000000E+000	-38.4314	0.0000000E+000	0.0000000E+000	0.0000000E+000	38.4314	1.26027	51.5686	-3.39158e-06	-6.60357e-06	10639.1
46.4415	8.31604	6.04618	10.2817	-36.019	11.5596	0.265053	-0.0279575	566.803	196.005	1	10	0.00488465	0.000475084	0	-6.37194e-05	0.0786664	0.0571944	0.0972605	36.019	196005	269589	333311	-53.981	0.0000000E+000	0.0000000E+000	0.0000000E+000	53.981	0.0000000E+000	0.0000000E+000	0.0000000E+000	-53.981	0.0000000E+000	0.0000000E+000	0.0000000E+000	-36.019	0.0000000E+000	0.0000000E+000	0.0000000E+000	36.019	1.37542	53.981	-3.1835e-06	-7.41024e-06	9480.58
31.6296	10.1524	6.50683	12.0586	-32.6566	12.0064	0.265052	-0.0291211	773.317	225.167	1	10	0.00487981	0.000404676	0	-6.71499e-05	0.0698192	0.0447484	0.0829286	32.6566	225167	351319	417284	-57.3434	0.0000000E+000	0.0000000E+000	0.0000000E+000	57.3434	0.0000000E+000	0.0000000E+000	0.0000000E+000	-57.3434	0.0000000E+000	0.0000000E+000	0.0000000E+000	-32.6566	0.0000000E+000	0.0000000E+000	0.0000000E+000	32.6566	1.56026	57.3434	-3.43054e-06	-7.71861e-06	9101.73
21.5517	12.1036	6.68323	13.8261	-28.9062	12.4453	0.265045	-0.0315394	1104.97	258.18	1	10	0.00487151	0.000352341	0	-6.98353e-05	0.0633158	0.0349611	0.0723268	28.9062	258180	467574	534118	-61.0938	0.0000000E+000	0.0000000E+000	0.0000000E+000	61.0938	0.0000000E+000	0.0000000E+000	0.0000000E+000	-61.0938	0.0000000E+000	0.0000000E+000	0.0000000E+000	-28.9062	0.0000000E+000	0.0000000E+000	0.0000000E+000	28.9062	1.81104	61.0938	-2.68536e-06	-8.35938e-06	8403.61
14.6852	14.1257	6.58257	15.5842	-24.9855	13.183	0.265074	-0.0165943	1646.44	293.745	1	11	0.00487805	0.000313013	0	-7.64443e-05	0.0581626	0.0271037	0.0641677	24.9855	293745	630355	695438	-65.0145	0.0000000E+000	0.0000000E+000	0.0000000E+000	65.0145	0.0000000E+000	0.0000000E+000	0.0000000E+000	-65.0145	0.0000000E+000	0.0000000E+000	0.0000000E+000	-24.9855	0.0000000E+000	0.0000000E+000	0.0000000E+000	24.9855	2.14593	65.0145	-6.609e-06	-4.39872e-06	15973.8
10.0032	15.9247	6.22313	17.0975	-21.3447	13.6517	0.265079	-0.0166371	2556.66	338.707	1	11	0.00487705	0.000285249	0	-7.95081e-05	0.0544762	0.0212884	0.0584881	21.3447	338707	866738	930568	-68.6553	0.0000000E+000	0.0000000E+000	0.0000000E+000	68.6553	0.0000000E+000	0.0000000E+000	0.0000000E+000	-68.6553	0.0000000E+000	0.0000000E+000	0.0000000E+000	-21.3447	0.0000000E+000	0.0000000E+000	0.0000000E+000	21.3447	2.55896	68.6553	-3.06385e-06	-4.41015e-06	15932.9
6.81719	17.5315	5.77279	18.4575	-18.2257	14.0094	0.26505	-0.0183669	4044.17	395.598	1	11	0.00487388	0.00026406	0	-7.86646e-05	0.0514605	0.0169449	0.0541785	18.2257	395598	1.2014e+06	1.26486e+06	-71.7743	0.0000000E+000	0.0000000E+000	0.0000000E+000	71.7743	0.0000000E+000	0.0000000E+000	0.0000000E+000	-71.7743	0.0000000E+000	0.0000000E+000	0.0000000E+000	-18.2257	0.0000000E+000	0.0000000E+000	0.0000000E+000	18.2257	3.03692	71.7743	8.43504e-07	-4.86817e-06	14430.8
4.63925	18.9265	5.22455	19.6344	-15.4318	14.5113	0.265074	-0.0158553	6566.34	464.93	1	11	0.00487576	0.000248328	0	-8.20957e-05	0.0490949	0.0135524	0.0509311	15.4318	464930	1.68426e+06	1.74725e+06	-74.5682	0.0000000E+000	0.0000000E+000	0.0000000E+000	74.5682	0.0000000E+000	0.0000000E+000	0.0000000E+000	-74.5682	0.0000000E+000	0.0000000E+000	0.0000000E+000	-15.4318	0.0000000E+000	0.0000000E+000	0.0000000E+000	15.4318	3.62261	74.5682	-3.43103e-06	-4.20283e-06	16718.4
3.1604	20.1097	4.72532	20.6574	-13.2233	15.2202	0.265076	-0.0158137	10657.3	557.645	1	11	0.00487779	0.000236128	0	-8.86165e-05	0.0471253	0.0110734	0.0484088	13.2233	557645	2.37319e+06	2.43783e+06	-76.7767	0.0000000E+000	0.0000000E+000	0.0000000E+000	76.7767	0.0000000E+000	0.0000000E+000	0.0000000E+000	-76.7767	0.0000000E+000	0.0000000E+000	0.0000000E+000	-13.2233	0.0000000E+000	0.0000000E+000	0.0000000E+000	13.2233	4.25573	76.7767	-6.52079e-06	-4.19183e-06	16762.5
2.15577	21.2164	4.30581	21.6489	-11.4722	16.2368	0.265083	-0.014725	17146	678.268	1	11	0.00488052	0.00022544	0	-9.10427e-05	0.0452689	0.0091872	0.0461917	11.4722	678268	3.34209e+06	3.41022e+06	-78.5278	0.0000000E+000	0.0000000E+000	0.0000000E+000	78.5278	0.0000000E+000	0.0000000E+000	0.0000000E+000	-78.5278	0.0000000E+000	0.0000000E+000	0.0000000E+000	-11.4722	0.0000000E+000	0.0000000E+000	0.0000000E+000	11.4722	4.92739	78.5278	-2.42627e-06	-3.90334e-06	18002.2
1.46631	22.1217	3.86551	22.4569	-9.91168	17.71	0.265087	-0.0140688	28079.4	831.956	1	11	0.00488037	0.000217322	0	-9.09055e-05	0.0438651	0.00766489	0.0445297	9.91168	831956	4.76116e+06	4.8333e+06	-80.0883	0.0000000E+000	0.0000000E+000	0.0000000E+000	80.0883	0.0000000E+000	0.0000000E+000	0.0000000E+000	-80.0883	0.0000000E+000	0.0000000E+000	0.0000000E+000	-9.91168	0.0000000E+000	0.0000000E+000	0.0000000E+000	9.91168	5.72286	80.0883	1.37242e-07	-3.72945e-06	18842.2
1.00006	22.9657	3.50033	23.2309	-8.66605	20.9002	0.265095	-0.012595	45465.7	1032.21	1	12	0.00488138	0.000210124	0	-9.74503e-05	0.0425546	0.00648596	0.043046	8.66605	1.03221e+06	6.77234e+06	6.85055e+06	-81.3339	0.0000000E+000	0.0000000E+000	0.0000000E+000	81.3339	0.0000000E+000	0.0000000E+000	0.0000000E+000	-81.3339	0.0000000E+000	0.0000000E+000	0.0000000E+000	-8.66605	0.0000000E+000	0.0000000E+000	0.0000000E+000	8.66605	6.56103	81.3339	-6.54485e-06	-3.33885e-06	21047.7
0.681362	23.7186	3.19265	23.9325	-7.66622	24.0201	0.265093	-0.0116394	73162.9	1302.01	1	12	0.00488262	0.000204016	0	-0.000110938	0.0414107	0.00557408	0.0417841	7.66622	1.30201e+06	9.67284e+06	9.76008e+06	-82.3338	0.0000000E+000	0.0000000E+000	0.0000000E+000	82.3338	0.0000000E+000	0.0000000E+000	0.0000000E+000	-82.3338	0.0000000E+000	0.0000000E+000	0.0000000E+000	-7.66622	0.0000000E+000	0.0000000E+000	0.0000000E+000	7.66622	7.42914	82.3338	-1.34881e-05	-3.08552e-06	22775.5
0.464091	24.3484	2.93343	24.5244	-6.86975	28.5849	0.265095	-0.0107138	116907	1672.61	1	12	0.0048801	0.000198989	0	-0.000137009	0.0404829	0.00487728	0.0407756	6.86975	1.67261e+06	1.38832e+07	1.39836e+07	-83.1303	0.0000000E+000	0.0000000E+000	0.0000000E+000	83.1303	0.0000000E+000	0.0000000E+000	0.0000000E+000	-83.1303	0.0000000E+000	0.0000000E+000	0.0000000E+000	-6.86975	0.0000000E+000	0.0000000E+000	0.0000000E+000	6.86975	8.3003	83.1303	-2.60704e-05	-2.84018e-06	24743.4
0.316193	24.9553	2.74822	25.1061	-6.28442	35.2672	0.265093	-0.010159	183154	2194.62	1	12	0.00488004	0.000194376	0	-0.000173713	0.0395916	0.00436005	0.0398309	6.28442	2.19462e+06	1.99283e+07	2.00488e+07	-83.7156	0.0000000E+000	0.0000000E+000	0.0000000E+000	83.7156	0.0000000E+000	0.0000000E+000	0.0000000E+000	-83.7156	0.0000000E+000	0.0000000E+000	0.0000000E+000	-6.28442	0.0000000E+000	0.0000000E+000	0.0000000E+000	6.28442	9.08052	83.7156	-3.67038e-05	-2.69309e-06	26094.3
0.215268	25.5263	2.71286	25.6701	-6.06644	45.065	0.265095	-0.00968309	272530	3043.78	1	12	0.00488083	0.000190137	0	-0.000213766	0.0387377	0.00411692	0.0389559	6.06644	3.04378e+06	2.86401e+07	2.88014e+07	-83.9336	0.0000000E+000	0.0000000E+000	0.0000000E+000	83.9336	0.0000000E+000	0.0000000E+000	0.0000000E+000	-83.9336	0.0000000E+000	0.0000000E+000	0.0000000E+000	-6.06644	0.0000000E+000	0.0000000E+000	0.0000000E+000	6.06644	9.40939	83.9336	-4.00539e-05	-2.56694e-06	27377.1
0.146929	26.028	2.83387	26.1819	-6.21374	59.4016	0.265095	-0.0091549	382238	4478.07	1	12	0.00487779	0.000186304	0	-0.000246034	0.03797	0.00413407	0.0381944	6.21374	4.47807e+06	4.11295e+07	4.13726e+07	-83.7863	0.0000000E+000	0.0000000E+000	0.0000000E+000	83.7863	0.0000000E+000	0.0000000E+000	0.0000000E+000	-83.7863	0.0000000E+000	0.0000000E+000	0.0000000E+000	-6.21374	0.0000000E+000	0.0000000E+000	0.0000000E+000	6.21374	9.18465	83.7863	-3.22673e-05	-2.42692e-06	28956.6
0.0999041	26.5014	3.11087	26.6834	-6.69503	80.4715	0.265094	-0.00812515	512100	6960.44	1	12	0.00488175	0.000182951	0	-0.000258327	0.0372209	0.00436918	0.0374765	6.69503	6.96044e+06	5.92958e+07	5.97029e+07	-83.305	0.0000000E+000	0.0000000E+000	0.0000000E+000	83.305	0.0000000E+000	0.0000000E+000	0.0000000E+000	-83.305	0.0000000E+000	0.0000000E+000	0.0000000E+000	-6.69503	0.0000000E+000	0.0000000E+000	0.0000000E+000	6.69503	8.51897	83.305	-1.22936e-05	-2.15393e-06	32626.3
0.0680626	26.9788	3.56788	27.2137	-7.53351	111.384	0.265092	-0.00674974	655392	11265.4	1	12	0.00488002	0.000179322	0	-0.000248507	0.036429	0.00481765	0.0367462	7.53351	1.12654e+07	8.51842e+07	8.59259e+07	-82.4665	0.0000000E+000	0.0000000E+000	0.0000000E+000	82.4665	0.0000000E+000	0.0000000E+000	0.0000000E+000	-82.4665	0.0000000E+000	0.0000000E+000	0.0000000E+000	-7.53351	0.0000000E+000	0.0000000E+000	0.0000000E+000	7.53351	7.56158	82.4665	9.82061e-06	-1.7893e-06	39274.4
0.0464052	27.607	4.16362	27.9192	-8.57658	156.708	0.265088	-0.00417953	823726	18319.8	1	12	0.0048782	0.000174726	0	-0.000212638	0.0354172	0.00534154	0.0358177	8.57658	1.83198e+07	1.2147e+08	1.22843e+08	-81.4234	0.0000000E+000	0.0000000E+000	0.0000000E+000	81.4234	0.0000000E+000	0.0000000E+000	0.0000000E+000	-81.4234	0.0000000E+000	0.0000000E+000	0.0000000E+000	-8.57658	0.0000000E+000	0.0000000E+000	0.0000000E+000	8.57658	6.63052	81.4234	3.58685e-05	-1.10794e-06	63425.3
0.0315922	28.404	5.18676	28.8737	-10.3486	223.268	0.265089	-0.00194152	971279	31342.4	1	12	0.00488047	0.000169029	0	-0.000198082	0.0340702	0.00622145	0.0346336	10.3486	3.13424e+07	1.71639e+08	1.74477e+08	-79.6514	0.0000000E+000	0.0000000E+000	0.0000000E+000	79.6514	0.0000000E+000	0.0000000E+000	0.0000000E+000	-79.6514	0.0000000E+000	0.0000000E+000	0.0000000E+000	-10.3486	0.0000000E+000	0.0000000E+000	0.0000000E+000	10.3486	5.47625	79.6514	1.45563e-05	-5.14676e-07	136537
0.0215268	29.261	6.66263	30.0099	-12.8274	320.936	0.265093	-0.000591548	1.10967e+06	54696.1	1	12	0.00488071	0.000162636	0	-0.000280949	0.0324907	0.00739801	0.0333223	12.8274	5.46961e+07	2.40215e+08	2.46363e+08	-77.1726	0.0000000E+000	0.0000000E+000	0.0000000E+000	77.1726	0.0000000E+000	0.0000000E+000	0.0000000E+000	-77.1726	0.0000000E+000	0.0000000E+000	0.0000000E+000	-12.8274	0.0000000E+000	0.0000000E+000	0.0000000E+000	12.8274	4.39181	77.1726	-8.2867e-05	-1.56815e-07	448134
0.0146812	30.2394	8.45455	31.3991	-15.6203	464.131	0.265093	-0.000491773	1.28224e+06	92964.1	1	12	0.00487797	0.000155354	0	-0.000546773	0.0306718	0.00857543	0.0318481	15.6203	9.29641e+07	3.32505e+08	3.45257e+08	-74.3797	0.0000000E+000	0.0000000E+000	0.0000000E+000	74.3797	0.0000000E+000	0.0000000E+000	0.0000000E+000	-74.3797	0.0000000E+000	0.0000000E+000	0.0000000E+000	-15.6203	0.0000000E+000	0.0000000E+000	0.0000000E+000	15.6203	3.57671	74.3797	-0.000265824	-1.30366e-07	539056

0.0100092	31.6569	10.6517	33.4009	-18.5967	674.151	0.26509	-0.00108674	1.4928e+06	151818	1	12	0.00487934	0.000146084	0	-0.00102405	0.0283761	0.00954778	0.0299393	18.5967	1.51818e+08	4.51206e+08	4.76062e+08	-71.4033	0.0000000E+000	0.0000000E+000	0.0000000E+000	71.4033	0.0000000E+000	0.0000000E+000	0.0000000E+000	-71.4033	0.0000000E+000	0.0000000E+000	0.0000000E+000	-18.5967	0.0000000E+000	0.0000000E+000	0.0000000E+000	18.5967	2.97201	71.4033	-0.000477274	-2.88084e-07	243932