File: txt/17710_R287_UA662_SOC00_C08.mpt
EC-Lab ASCII FILE

Nb header lines : 63

Potentio Electrochemical Impedance Spectroscopy

Run on channel : 8 (SN 65398)
User :
CE vs. WE compliance from -10 V to 10 V
Electrode connection : standard
Potential control : Ewe
Ewe ctrl range : min = -10.00 V, max = 10.00 V
Safety Limits :
	Do not start on E overload
Acquisition started on : 09/22/2025 10:03:51.870
Loaded Setting File :  C:\Users\Celltest\OneDrive - store-dot.com\Documents\EC-Lab\Data\Charmaine\17688_R288_UA670_SOC00_C03.mpr
Saved on :
	File : 17710_R287_UA662_SOC00_C08.mpr
	Directory : C:\Users\Celltest\OneDrive - store-dot.com\Documents\EC-Lab\Data\Charmaine\
	Host : 169.254.61.224
Device : VMP-3e (SN .003165)
Address : USB
EC-LAB for windows v11.62 (software)
Internet server v27.00 (firmware)
Command interpretor v12.03 (firmware)
Electrode material :
Initial state :
Electrolyte :
Comments :
Electrode surface area : 0.001 cm²
Characteristic mass : 0.001 g
Equivalent Weight : 0.000 g/eq.
Density : 0.000 g/cm3
Volume (V) : 0.001 cm³
Cycle Definition : Charge/Discharge alternance
Mode                Single sine
E (V)               0.0000
vs.                 Eoc
tE (h:m:s)          0:00:0.0000
record              0
dI                  0.000
unit dI             mA
dt (s)              0.000
fi                  100.000
unit fi             kHz
ff                  10.000
unit ff             mHz
Nd                  6
Points              per decade
spacing             Logarithmic
Va (mV)             5.0
pw                  0.10
Na                  2
corr                0
E range min (V)     -10.000
E range max (V)     10.000
I Range             Auto
Bandwidth           5
nc cycles           0
goto Ns'            0
nr cycles           0
inc. cycle          0

freq/Hz	Re(Z)/Ohm	-Im(Z)/Ohm	|Z|/Ohm	Phase(Z)/deg	time/s	<Ewe>/V	<I>/mA	Cs/µF	Cp/µF	cycle number	I Range	|Ewe|/V	|I|/A	Ns	(Q-Qo)/mA.h	Re(Y)/Ohm-1	Im(Y)/Ohm-1	|Y|/Ohm-1	Phase(Y)/deg	Re(C)/nF	Im(C)/nF	|C|/nF	Phase(C)/deg	Re(M)	Im(M)	|M|	Phase(M)/deg	Re(Permittivity)	Im(Permittivity)	|Permittivity|	Phase(Permittivity)/deg	Re(Resistivity)/Ohm.cm	Im(Resistivity)/Ohm.cm	|Resistivity|/Ohm.cm	Phase(Resistivity)/deg	Re(Conductivity)/mS/cm	Im(Conductivity)/mS/cm	|Conductivity|/mS/cm	Phase(Conductivity)/deg	Tan(Delta)	Loss Angle(Delta)/deg	dq/mA.h	Pwe/W	Rwe/Ohm
100004	1.34163	0.237224	1.36245	-10.0272	2.07749	0.272291	0.0486257	6.70881	0.203387	1	9	0.00490996	0.00360378	0	6.6592e-06	0.722763	0.127797	0.733974	10.0272	203.387	1150.27	1168.11	-79.9728	0.0000000E+000	0.0000000E+000	0.0000000E+000	79.9728	0.0000000E+000	0.0000000E+000	0.0000000E+000	-79.9728	0.0000000E+000	0.0000000E+000	0.0000000E+000	-10.0272	0.0000000E+000	0.0000000E+000	0.0000000E+000	10.0272	5.65556	79.9728	6.6592e-06	1.32403e-05	5599.73
68132	1.39293	0.283277	1.42144	-11.4953	2.51449	0.272295	0.0494256	8.24627	0.327507	1	9	0.00540167	0.00380013	0	1.70559e-05	0.689398	0.140201	0.70351	11.4953	327.507	1610.42	1643.38	-78.5047	0.0000000E+000	0.0000000E+000	0.0000000E+000	78.5047	0.0000000E+000	0.0000000E+000	0.0000000E+000	-78.5047	0.0000000E+000	0.0000000E+000	0.0000000E+000	-11.4953	0.0000000E+000	0.0000000E+000	0.0000000E+000	11.4953	4.91721	78.5047	1.03967e-05	1.34583e-05	5509.19
46420.4	1.45821	0.329419	1.49496	-12.7298	3.09248	0.272301	0.0506533	10.4079	0.505364	1	9	0.00508747	0.00340309	0	2.43379e-05	0.652474	0.147398	0.668916	12.7298	505.364	2237.05	2293.42	-77.2702	0.0000000E+000	0.0000000E+000	0.0000000E+000	77.2702	0.0000000E+000	0.0000000E+000	0.0000000E+000	-77.2702	0.0000000E+000	0.0000000E+000	0.0000000E+000	-12.7298	0.0000000E+000	0.0000000E+000	0.0000000E+000	12.7298	4.42661	77.2702	7.28203e-06	1.37929e-05	5375.78
31621.1	1.53264	0.383516	1.57989	-14.0488	3.5295	0.2723	0.0477887	13.1238	0.77334	1	9	0.00543675	0.00344121	0	2.41218e-05	0.614021	0.153648	0.632954	14.0488	773.34	3090.48	3185.77	-75.9512	0.0000000E+000	0.0000000E+000	0.0000000E+000	75.9512	0.0000000E+000	0.0000000E+000	0.0000000E+000	-75.9512	0.0000000E+000	0.0000000E+000	0.0000000E+000	-14.0488	0.0000000E+000	0.0000000E+000	0.0000000E+000	14.0488	3.99628	75.9512	-2.16148e-07	1.30129e-05	5698.01
21544.7	1.62615	0.443131	1.68545	-15.2432	4.1075	0.2723	0.0444963	16.6705	1.15234	1	9	0.00507808	0.00301289	0	2.89902e-05	0.57244	0.155992	0.593314	15.2432	1152.34	4228.73	4382.93	-74.7568	0.0000000E+000	0.0000000E+000	0.0000000E+000	74.7568	0.0000000E+000	0.0000000E+000	0.0000000E+000	-74.7568	0.0000000E+000	0.0000000E+000	0.0000000E+000	-15.2432	0.0000000E+000	0.0000000E+000	0.0000000E+000	15.2432	3.66968	74.7568	4.86841e-06	1.21163e-05	6119.61
14678.6	1.72707	0.514546	1.80209	-16.5903	4.54449	0.272298	0.0448311	21.0723	1.71793	1	9	0.00543378	0.00301526	0	3.13451e-05	0.53181	0.158442	0.55491	16.5903	1717.93	5766.23	6016.7	-73.4097	0.0000000E+000	0.0000000E+000	0.0000000E+000	73.4097	0.0000000E+000	0.0000000E+000	0.0000000E+000	-73.4097	0.0000000E+000	0.0000000E+000	0.0000000E+000	-16.5903	0.0000000E+000	0.0000000E+000	0.0000000E+000	16.5903	3.3565	73.4097	2.35496e-06	1.22074e-05	6073.86
10002.2	1.84605	0.583927	1.9362	-17.5527	5.12248	0.272292	0.0430454	27.2499	2.47845	1	9	0.00506226	0.00261453	0	3.81532e-05	0.492428	0.15576	0.516475	17.5527	2478.45	7835.49	8218.13	-72.4473	0.0000000E+000	0.0000000E+000	0.0000000E+000	72.4473	0.0000000E+000	0.0000000E+000	0.0000000E+000	-72.4473	0.0000000E+000	0.0000000E+000	0.0000000E+000	-17.5527	0.0000000E+000	0.0000000E+000	0.0000000E+000	17.5527	3.16144	72.4473	6.80802e-06	1.17209e-05	6325.69
6811.07	1.97965	0.676385	2.09201	-18.8637	5.6785	0.272271	0.0196266	34.5471	3.61135	1	9	0.00541618	0.00258898	0	3.68804e-05	0.452335	0.154548	0.478008	18.8637	3611.35	10569.8	11169.7	-71.1363	0.0000000E+000	0.0000000E+000	0.0000000E+000	71.1363	0.0000000E+000	0.0000000E+000	0.0000000E+000	-71.1363	0.0000000E+000	0.0000000E+000	0.0000000E+000	-18.8637	0.0000000E+000	0.0000000E+000	0.0000000E+000	18.8637	2.92681	71.1363	-1.27274e-06	5.34375e-06	13872.6
4641.49	2.13636	0.771072	2.27125	-19.8459	6.37271	0.272289	0.0314569	44.4701	5.12538	1	9	0.00548325	0.0024142	0	4.53619e-05	0.414136	0.149473	0.440285	19.8459	5125.38	14200.6	15097.2	-70.1541	0.0000000E+000	0.0000000E+000	0.0000000E+000	70.1541	0.0000000E+000	0.0000000E+000	0.0000000E+000	-70.1541	0.0000000E+000	0.0000000E+000	0.0000000E+000	-19.8459	0.0000000E+000	0.0000000E+000	0.0000000E+000	19.8459	2.77064	70.1541	8.48153e-06	8.56537e-06	8655.94
3161.01	2.30989	0.891221	2.47586	-21.098	7.06271	0.272293	0.0323125	56.4948	7.32028	1	9	0.00532112	0.0021492	0	4.76194e-05	0.376825	0.14539	0.4039	21.098	7320.27	18972.9	20336.1	-68.902	0.0000000E+000	0.0000000E+000	0.0000000E+000	68.902	0.0000000E+000	0.0000000E+000	0.0000000E+000	-68.902	0.0000000E+000	0.0000000E+000	0.0000000E+000	-21.098	0.0000000E+000	0.0000000E+000	0.0000000E+000	21.098	2.59183	68.902	2.25748e-06	8.79847e-06	8426.85
2155.69	2.50074	1.02417	2.70234	-22.2714	7.7527	0.272289	0.033782	72.0877	10.3545	1	9	0.00510831	0.00189033	0	5.2703e-05	0.342444	0.140247	0.37005	22.2714	10354.5	25282.7	27320.9	-67.7286	0.0000000E+000	0.0000000E+000	0.0000000E+000	67.7286	0.0000000E+000	0.0000000E+000	0.0000000E+000	-67.7286	0.0000000E+000	0.0000000E+000	0.0000000E+000	-22.2714	0.0000000E+000	0.0000000E+000	0.0000000E+000	22.2714	2.44172	67.7286	5.08356e-06	9.19847e-06	8060.18
1468.59	2.72683	1.19218	2.97605	-23.6152	8.44493	0.272288	0.0350097	90.9026	14.5875	1	9	0.00511562	0.00171893	0	6.02007e-05	0.307876	0.134605	0.336015	23.6152	14587.5	33365.4	36414.9	-66.3848	0.0000000E+000	0.0000000E+000	0.0000000E+000	66.3848	0.0000000E+000	0.0000000E+000	0.0000000E+000	-66.3848	0.0000000E+000	0.0000000E+000	0.0000000E+000	-23.6152	0.0000000E+000	0.0000000E+000	0.0000000E+000	23.6152	2.28726	66.3848	7.49773e-06	9.53273e-06	7777.52
1000.32	2.98127	1.39439	3.29125	-25.0663	9.1677	0.272298	-0.00148213	114.103	20.4807	1	10	0.00517345	0.00157188	0	6.39152e-05	0.27522	0.128725	0.303836	25.0663	20480.7	43788.6	48341.5	-64.9337	0.0000000E+000	0.0000000E+000	0.0000000E+000	64.9337	0.0000000E+000	0.0000000E+000	0.0000000E+000	-64.9337	0.0000000E+000	0.0000000E+000	0.0000000E+000	-25.0663	0.0000000E+000	0.0000000E+000	0.0000000E+000	25.0663	2.13804	64.9337	3.71451e-06	-4.03582e-07	183721
681.09	3.26969	1.65455	3.66448	-26.8406	9.63344	0.2723	-0.00127568	141.233	28.792	1	10	0.00509083	0.00138924	0	6.39526e-05	0.24349	0.123213	0.27289	26.8406	28792	56898.1	63768.1	-63.1594	0.0000000E+000	0.0000000E+000	0.0000000E+000	63.1594	0.0000000E+000	0.0000000E+000	0.0000000E+000	-63.1594	0.0000000E+000	0.0000000E+000	0.0000000E+000	-26.8406	0.0000000E+000	0.0000000E+000	0.0000000E+000	26.8406	1.97618	63.1594	3.7415e-08	-3.47368e-07	213454
463.961	3.61953	1.98249	4.1269	-28.7104	10.1022	0.272303	-0.00119012	173.032	39.9303	1	10	0.00499086	0.00120935	0	6.39161e-05	0.212522	0.116403	0.242313	28.7104	39930.3	72902.7	83121.8	-61.2896	0.0000000E+000	0.0000000E+000	0.0000000E+000	61.2896	0.0000000E+000	0.0000000E+000	0.0000000E+000	-61.2896	0.0000000E+000	0.0000000E+000	0.0000000E+000	-28.7104	0.0000000E+000	0.0000000E+000	0.0000000E+000	28.7104	1.82575	61.2896	-3.65286e-08	-3.24074e-07	228803
316.316	4.04813	2.39015	4.70108	-30.559	10.5689	0.272303	-0.00107853	210.511	54.4163	1	10	0.00490587	0.00104356	0	6.44635e-05	0.183172	0.108151	0.212717	30.559	54416.3	92163.4	107029	-59.441	0.0000000E+000	0.0000000E+000	0.0000000E+000	59.441	0.0000000E+000	0.0000000E+000	0.0000000E+000	-59.441	0.0000000E+000	0.0000000E+000	0.0000000E+000	-30.559	0.0000000E+000	0.0000000E+000	0.0000000E+000	30.559	1.69367	59.441	5.47373e-07	-2.93686e-07	252476
215.345	4.59223	2.88975	5.42579	-32.1809	11.0364	0.272302	-0.00162536	255.756	72.5471	1	10	0.00483749	0.000891573	0	6.49169e-05	0.15599	0.0981599	0.184305	32.1809	72547.1	115288	136214	-57.8191	0.0000000E+000	0.0000000E+000	0.0000000E+000	57.8191	0.0000000E+000	0.0000000E+000	0.0000000E+000	-57.8191	0.0000000E+000	0.0000000E+000	0.0000000E+000	-32.1809	0.0000000E+000	0.0000000E+000	0.0000000E+000	32.1809	1.58915	57.8191	4.53399e-07	-4.42589e-07	167533
146.737	5.31649	3.50242	6.36647	-33.3762	11.4994	0.272302	-0.00163095	309.679	93.7236	1	10	0.00480471	0.000754689	0	6.42351e-05	0.131168	0.0864112	0.157073	33.3762	93723.6	142268	170365	-56.6238	0.0000000E+000	0.0000000E+000	0.0000000E+000	56.6238	0.0000000E+000	0.0000000E+000	0.0000000E+000	-56.6238	0.0000000E+000	0.0000000E+000	0.0000000E+000	-33.3762	0.0000000E+000	0.0000000E+000	0.0000000E+000	33.3762	1.51795	56.6238	-6.81723e-07	-4.44111e-07	166958
100.032	6.28039	4.12948	7.51638	-33.3257	11.9677	0.272303	-0.00219639	385.288	116.294	1	10	0.00477145	0.000634807	0	6.33094e-05	0.111165	0.0730934	0.133043	33.3257	116294	176869	211676	-56.6743	0.0000000E+000	0.0000000E+000	0.0000000E+000	56.6743	0.0000000E+000	0.0000000E+000	0.0000000E+000	-56.6743	0.0000000E+000	0.0000000E+000	0.0000000E+000	-33.3257	0.0000000E+000	0.0000000E+000	0.0000000E+000	33.3257	1.52087	56.6743	-9.25789e-07	-5.98083e-07	123978
68.104	7.52265	4.71283	8.877	-32.0665	12.4463	0.272299	-0.00131476	495.868	139.765	1	10	0.00475978	0.000536192	0	6.26679e-05	0.0954639	0.0598066	0.112651	32.0665	139765	223093	263258	-57.9335	0.0000000E+000	0.0000000E+000	0.0000000E+000	57.9335	0.0000000E+000	0.0000000E+000	0.0000000E+000	-57.9335	0.0000000E+000	0.0000000E+000	0.0000000E+000	-32.0665	0.0000000E+000	0.0000000E+000	0.0000000E+000	32.0665	1.59621	57.9335	-6.41464e-07	-3.58008e-07	207110
46.4415	9.01004	5.085	10.3459	-29.4391	12.9016	0.272295	-0.00229497	673.942	162.805	1	10	0.00475049	0.000459166	0	6.20733e-05	0.0841761	0.0475065	0.0966565	29.4391	162805	288471	331241	-60.5609	0.0000000E+000	0.0000000E+000	0.0000000E+000	60.5609	0.0000000E+000	0.0000000E+000	0.0000000E+000	-60.5609	0.0000000E+000	0.0000000E+000	0.0000000E+000	-29.4391	0.0000000E+000	0.0000000E+000	0.0000000E+000	29.4391	1.77188	60.5609	-5.94557e-07	-6.2491e-07	118649
31.6296	10.5889	5.16509	11.7815	-26.0024	13.3485	0.272292	-0.00351326	974.202	187.243	1	10	0.00474491	0.000402744	0	6.18138e-05	0.0762873	0.0372117	0.0848791	26.0024	187243	383866	427098	-63.9976	0.0000000E+000	0.0000000E+000	0.0000000E+000	63.9976	0.0000000E+000	0.0000000E+000	0.0000000E+000	-63.9976	0.0000000E+000	0.0000000E+000	0.0000000E+000	-26.0024	0.0000000E+000	0.0000000E+000	0.0000000E+000	26.0024	2.05009	63.9976	-2.59572e-07	-9.56632e-07	77504
21.5517	12.0976	4.95197	13.0718	-22.2611	13.7873	0.272286	-0.00411032	1491.28	214.015	1	10	0.00473822	0.000362475	0	6.11744e-05	0.0707986	0.0289805	0.0765003	22.2611	214015	522833	564939	-67.7389	0.0000000E+000	0.0000000E+000	0.0000000E+000	67.7389	0.0000000E+000	0.0000000E+000	0.0000000E+000	-67.7389	0.0000000E+000	0.0000000E+000	0.0000000E+000	-22.2611	0.0000000E+000	0.0000000E+000	0.0000000E+000	22.2611	2.44298	67.7389	-6.39333e-07	-1.11918e-06	66244.6
14.6852	13.4671	4.58238	14.2254	-18.7916	14.5241	0.272302	-0.00391701	2365.11	245.417	1	11	0.00474088	0.000333269	0	5.78887e-05	0.0665498	0.0226445	0.0702969	18.7916	245417	721254	761864	-71.2084	0.0000000E+000	0.0000000E+000	0.0000000E+000	71.2084	0.0000000E+000	0.0000000E+000	0.0000000E+000	-71.2084	0.0000000E+000	0.0000000E+000	0.0000000E+000	-18.7916	0.0000000E+000	0.0000000E+000	0.0000000E+000	18.7916	2.93889	71.2084	-3.28571e-06	-1.06661e-06	69517.8
10.0032	14.5974	4.11182	15.1655	-15.7315	14.9927	0.2723	-0.00409811	3869.43	284.449	1	11	0.00474048	0.000312584	0	5.86214e-05	0.0634694	0.0178782	0.0659393	15.7315	284449	1.00982e+06	1.04912e+06	-74.2684	0.0000000E+000	0.0000000E+000	0.0000000E+000	74.2684	0.0000000E+000	0.0000000E+000	0.0000000E+000	-74.2684	0.0000000E+000	0.0000000E+000	0.0000000E+000	-15.7315	0.0000000E+000	0.0000000E+000	0.0000000E+000	15.7315	3.55011	74.2684	7.32659e-07	-1.11592e-06	66445.4
6.81719	15.5855	3.61725	15.9997	-13.0665	15.3504	0.272285	-0.0053008	6454.1	329.889	1	11	0.00474533	0.000296588	0	5.8053e-05	0.0608827	0.0141303	0.062501	13.0665	329889	1.42138e+06	1.45916e+06	-76.9335	0.0000000E+000	0.0000000E+000	0.0000000E+000	76.9335	0.0000000E+000	0.0000000E+000	0.0000000E+000	-76.9335	0.0000000E+000	0.0000000E+000	0.0000000E+000	-13.0665	0.0000000E+000	0.0000000E+000	0.0000000E+000	13.0665	4.30865	76.9335	-5.6838e-07	-1.44333e-06	51366.8
4.63925	16.3515	3.19076	16.6599	-11.0417	15.8523	0.272302	-0.00338807	10751.7	394.384	1	11	0.00474154	0.000284607	0	5.99811e-05	0.0589131	0.011496	0.0600242	11.0417	394384	2.02108e+06	2.0592e+06	-78.9583	0.0000000E+000	0.0000000E+000	0.0000000E+000	78.9583	0.0000000E+000	0.0000000E+000	0.0000000E+000	-78.9583	0.0000000E+000	0.0000000E+000	0.0000000E+000	-11.0417	0.0000000E+000	0.0000000E+000	0.0000000E+000	11.0417	5.12465	78.9583	1.92815e-06	-9.22577e-07	80370.9
3.1604	17.0226	2.85265	17.26	-9.51325	16.5603	0.272291	-0.00319823	17653.5	482.223	1	11	0.00474294	0.000274794	0	5.50146e-05	0.0571408	0.00957567	0.0579376	9.51325	482223	2.87756e+06	2.91769e+06	-80.4868	0.0000000E+000	0.0000000E+000	0.0000000E+000	80.4868	0.0000000E+000	0.0000000E+000	0.0000000E+000	-80.4868	0.0000000E+000	0.0000000E+000	0.0000000E+000	-9.51325	0.0000000E+000	0.0000000E+000	0.0000000E+000	9.51325	5.96729	80.4868	-4.96655e-06	-8.70849e-07	85138.2
2.15577	17.6108	2.50176	17.7876	-8.08523	17.5768	0.272309	-0.00270706	29510.2	583.751	1	11	0.00474101	0.000266534	0	5.11212e-05	0.05566	0.00790695	0.0562188	8.08523	583751	4.10924e+06	4.1505e+06	-81.9148	0.0000000E+000	0.0000000E+000	0.0000000E+000	81.9148	0.0000000E+000	0.0000000E+000	0.0000000E+000	-81.9148	0.0000000E+000	0.0000000E+000	0.0000000E+000	-8.08523	0.0000000E+000	0.0000000E+000	0.0000000E+000	8.08523	7.03937	81.9148	-3.8934e-06	-7.37155e-07	100592
1.46631	18.121	2.2779	18.2636	-7.16479	19.0501	0.272308	-0.00292456	47649.6	741.237	1	11	0.0047424	0.000259664	0	5.34684e-05	0.0543262	0.00682909	0.0547538	7.16479	741237	5.89663e+06	5.94303e+06	-82.8352	0.0000000E+000	0.0000000E+000	0.0000000E+000	82.8352	0.0000000E+000	0.0000000E+000	0.0000000E+000	-82.8352	0.0000000E+000	0.0000000E+000	0.0000000E+000	-7.16479	0.0000000E+000	0.0000000E+000	0.0000000E+000	7.16479	7.95512	82.8352	2.34725e-06	-7.96381e-07	93110.6
1.00006	18.5577	2.05134	18.6708	-6.30776	22.2403	0.272309	-0.00292653	77580.9	936.494	1	12	0.0047448	0.00025413	0	6.0711e-05	0.0532354	0.00588454	0.0535596	6.30776	936494	8.47213e+06	8.52373e+06	-83.6922	0.0000000E+000	0.0000000E+000	0.0000000E+000	83.6922	0.0000000E+000	0.0000000E+000	0.0000000E+000	-83.6922	0.0000000E+000	0.0000000E+000	0.0000000E+000	-6.30776	0.0000000E+000	0.0000000E+000	0.0000000E+000	6.30776	9.04665	83.6922	7.24259e-06	-7.96919e-07	93048.2
0.681362	18.9634	1.89708	19.0581	-5.71281	25.3613	0.27232	-0.0017685	123128	1220.03	1	12	0.00474501	0.000248976	0	6.56062e-05	0.0522106	0.00522311	0.0524712	5.71281	1.22003e+06	1.21955e+07	1.22564e+07	-84.2872	0.0000000E+000	0.0000000E+000	0.0000000E+000	84.2872	0.0000000E+000	0.0000000E+000	0.0000000E+000	-84.2872	0.0000000E+000	0.0000000E+000	0.0000000E+000	-5.71281	0.0000000E+000	0.0000000E+000	0.0000000E+000	5.71281	9.99609	84.2872	4.8952e-06	-4.81597e-07	153984
0.464091	19.304	1.84314	19.3918	-5.45404	29.9256	0.272315	-0.00125005	186063	1680.88	1	12	0.00474388	0.000244633	0	6.04466e-05	0.0513347	0.00490141	0.0515681	5.45404	1.68088e+06	1.76047e+07	1.76847e+07	-84.546	0.0000000E+000	0.0000000E+000	0.0000000E+000	84.546	0.0000000E+000	0.0000000E+000	0.0000000E+000	-84.546	0.0000000E+000	0.0000000E+000	0.0000000E+000	-5.45404	0.0000000E+000	0.0000000E+000	0.0000000E+000	5.45404	10.4735	84.546	-5.15965e-06	-3.40408e-07	217843
0.316193	19.6073	1.84261	19.6937	-5.36866	36.6061	0.272311	-0.000722844	273171	2391.38	1	12	0.00474349	0.000240864	0	4.02299e-05	0.050555	0.00475096	0.0507778	5.36866	2.39138e+06	2.54467e+07	2.55589e+07	-84.6313	0.0000000E+000	0.0000000E+000	0.0000000E+000	84.6313	0.0000000E+000	0.0000000E+000	0.0000000E+000	-84.6313	0.0000000E+000	0.0000000E+000	0.0000000E+000	-5.36866	0.0000000E+000	0.0000000E+000	0.0000000E+000	5.36866	10.641	84.6313	-2.02167e-05	-1.96838e-07	376721
0.215268	19.906	1.95675	20.002	-5.61411	46.4039	0.272324	-0.000581719	377838	3616.03	1	12	0.00474051	0.000237002	0	6.36905e-06	0.0497553	0.00489092	0.0499951	5.61411	3.61603e+06	3.67858e+07	3.69631e+07	-84.3859	0.0000000E+000	0.0000000E+000	0.0000000E+000	84.3859	0.0000000E+000	0.0000000E+000	0.0000000E+000	-84.3859	0.0000000E+000	0.0000000E+000	0.0000000E+000	-5.61411	0.0000000E+000	0.0000000E+000	0.0000000E+000	5.61411	10.173	84.3859	-3.38608e-05	-1.58416e-07	468136
0.146929	20.2416	2.16981	20.3576	-6.11848	60.7412	0.272317	-0.00171101	499220	5671.29	1	12	0.00474334	0.000233001	0	-3.20632e-05	0.0488419	0.00523562	0.0491217	6.11848	5.67129e+06	5.29061e+07	5.32092e+07	-83.8815	0.0000000E+000	0.0000000E+000	0.0000000E+000	83.8815	0.0000000E+000	0.0000000E+000	0.0000000E+000	-83.8815	0.0000000E+000	0.0000000E+000	0.0000000E+000	-6.11848	0.0000000E+000	0.0000000E+000	0.0000000E+000	6.11848	9.32876	83.8815	-3.84322e-05	-4.65937e-07	159155
0.0999041	20.6187	2.56155	20.7772	-7.08182	81.8111	0.272309	-0.00263251	621920	9452.92	1	12	0.00473525	0.000227906	0	-5.42464e-05	0.0477626	0.00593375	0.0481297	7.08182	9.45292e+06	7.60894e+07	7.66744e+07	-82.9182	0.0000000E+000	0.0000000E+000	0.0000000E+000	82.9182	0.0000000E+000	0.0000000E+000	0.0000000E+000	-82.9182	0.0000000E+000	0.0000000E+000	0.0000000E+000	-7.08182	0.0000000E+000	0.0000000E+000	0.0000000E+000	7.08182	8.04931	82.9182	-2.21832e-05	-7.16857e-07	103441
0.0680626	21.0254	3.1979	21.2672	-8.64823	112.723	0.272325	-0.00282341	731218	16533.1	1	12	0.00474472	0.0002231	0	-3.96138e-05	0.0464861	0.0070704	0.0470208	8.64823	1.65331e+07	1.08701e+08	1.09951e+08	-81.3518	0.0000000E+000	0.0000000E+000	0.0000000E+000	81.3518	0.0000000E+000	0.0000000E+000	0.0000000E+000	-81.3518	0.0000000E+000	0.0000000E+000	0.0000000E+000	-8.64823	0.0000000E+000	0.0000000E+000	0.0000000E+000	8.64823	6.57476	81.3518	1.46325e-05	-7.68887e-07	96452.4
0.0464052	21.4494	3.94696	21.8095	-10.4265	158.048	0.272305	-0.002509	868941	28459.4	1	12	0.00474265	0.000217458	0	4.83716e-05	0.0450945	0.00829798	0.0458516	10.4265	2.84594e+07	1.5466e+08	1.57256e+08	-79.5735	0.0000000E+000	0.0000000E+000	0.0000000E+000	79.5735	0.0000000E+000	0.0000000E+000	0.0000000E+000	-79.5735	0.0000000E+000	0.0000000E+000	0.0000000E+000	-10.4265	0.0000000E+000	0.0000000E+000	0.0000000E+000	10.4265	5.43439	79.5735	8.79855e-05	-6.83215e-07	108531
0.0315922	22.1607	4.909	22.6979	-12.4903	224.609	0.272311	-0.00114626	1.02624e+06	48002.1	1	12	0.00473806	0.000208744	0	0.00020651	0.0430142	0.0095284	0.0440569	12.4903	4.80021e+07	2.16696e+08	2.21949e+08	-77.5097	0.0000000E+000	0.0000000E+000	0.0000000E+000	77.5097	0.0000000E+000	0.0000000E+000	0.0000000E+000	-77.5097	0.0000000E+000	0.0000000E+000	0.0000000E+000	-12.4903	0.0000000E+000	0.0000000E+000	0.0000000E+000	12.4903	4.51431	77.5097	0.000158138	-3.1214e-07	237564
0.0215268	23.1067	6.32495	23.9567	-15.3085	322.277	0.272306	0.000203112	1.16892e+06	81478.8	1	12	0.00474512	0.000198071	0	0.00035518	0.0402609	0.0110206	0.041742	15.3085	8.14788e+07	2.97663e+08	3.08613e+08	-74.6915	0.0000000E+000	0.0000000E+000	0.0000000E+000	74.6915	0.0000000E+000	0.0000000E+000	0.0000000E+000	-74.6915	0.0000000E+000	0.0000000E+000	0.0000000E+000	-15.3085	0.0000000E+000	0.0000000E+000	0.0000000E+000	15.3085	3.65326	74.6915	0.00014867	5.53086e-08	1.34067e+06
0.0146812	24.1418	8.22868	25.5057	-18.8215	465.472	0.272308	0.000639968	1.31744e+06	137125	1	12	0.00474227	0.00018593	0	0.000350994	0.0371105	0.012649	0.039207	18.8215	1.37125e+08	4.02306e+08	4.25033e+08	-71.1785	0.0000000E+000	0.0000000E+000	0.0000000E+000	71.1785	0.0000000E+000	0.0000000E+000	0.0000000E+000	-71.1785	0.0000000E+000	0.0000000E+000	0.0000000E+000	-18.8215	0.0000000E+000	0.0000000E+000	0.0000000E+000	18.8215	2.93386	71.1785	-4.18567e-06	1.74268e-07	425502

0.0100092	25.2382	10.5121	27.3399	-22.6125	675.493	0.272314	0.000206001	1.51263e+06	223623	1	12	0.00474379	0.000173511	0	2.0008e-05	0.0337648	0.0140636	0.0365766	22.6125	2.23623e+08	5.36891e+08	5.81601e+08	-67.3875	0.0000000E+000	0.0000000E+000	0.0000000E+000	67.3875	0.0000000E+000	0.0000000E+000	0.0000000E+000	-67.3875	0.0000000E+000	0.0000000E+000	0.0000000E+000	-22.6125	0.0000000E+000	0.0000000E+000	0.0000000E+000	22.6125	2.40087	67.3875	-0.000330986	5.6097e-08	1.3219e+06