File: txt/17713_R287_UA663_SOC00_C03.mpt
EC-Lab ASCII FILE
Nb header lines : 63

Potentio Electrochemical Impedance Spectroscopy

Run on channel : 3 (SN 65921)
User :
CE vs. WE compliance from -10 V to 10 V
Electrode connection : standard
Potential control : Ewe
Ewe ctrl range : min = -10.00 V, max = 10.00 V
Safety Limits :
	Do not start on E overload
Acquisition started on : 09/22/2025 10:25:12.037
Loaded Setting File :  C:\Users\Celltest\OneDrive - store-dot.com\Documents\EC-Lab\Data\Gyutae\17738_R277_UA674_SOC00_C02.mpr
Saved on :
	File : 17713_R287_UA663_SOC00_C03.mpr
	Directory : C:\Users\Celltest\OneDrive - store-dot.com\Documents\EC-Lab\Data\Charmaine\
	Host : 169.254.61.224
Device : VMP-3e (SN .003165)
Address : USB
EC-LAB for windows v11.62 (software)
Internet server v27.00 (firmware)
Command interpretor v12.03 (firmware)
Electrode material :
Initial state :
Electrolyte :
Comments :
Electrode surface area : 0.001 cm²
Characteristic mass : 0.001 g
Equivalent Weight : 0.000 g/eq.
Density : 0.000 g/cm3
Volume (V) : 0.001 cm³
Cycle Definition : Charge/Discharge alternance
Mode                Single sine
E (V)               0.0000
vs.                 Eoc
tE (h:m:s)          0:00:0.0000
record              0
dI                  0.000
unit dI             mA
dt (s)              0.000
fi                  100.000
unit fi             kHz
ff                  10.000
unit ff             mHz
Nd                  6
Points              per decade
spacing             Logarithmic
Va (mV)             5.0
pw                  0.10
Na                  2
corr                0
E range min (V)     -10.000
E range max (V)     10.000
I Range             Auto
Bandwidth           5
nc cycles           0
goto Ns'            0
nr cycles           0
inc. cycle          0

freq/Hz	Re(Z)/Ohm	-Im(Z)/Ohm	|Z|/Ohm	Phase(Z)/deg	time/s	<Ewe>/V	<I>/mA	Cs/µF	Cp/µF	cycle number	I Range	|Ewe|/V	|I|/A	Ns	(Q-Qo)/mA.h	Re(Y)/Ohm-1	Im(Y)/Ohm-1	|Y|/Ohm-1	Phase(Y)/deg	Re(C)/nF	Im(C)/nF	|C|/nF	Phase(C)/deg	Re(M)	Im(M)	|M|	Phase(M)/deg	Re(Permittivity)	Im(Permittivity)	|Permittivity|	Phase(Permittivity)/deg	Re(Resistivity)/Ohm.cm	Im(Resistivity)/Ohm.cm	|Resistivity|/Ohm.cm	Phase(Resistivity)/deg	Re(Conductivity)/mS/cm	Im(Conductivity)/mS/cm	|Conductivity|/mS/cm	Phase(Conductivity)/deg	Tan(Delta)	Loss Angle(Delta)/deg	dq/mA.h	Pwe/W	Rwe/Ohm
100004	1.00117	0.211663	1.0233	-11.9374	2.02449	0.278574	0.0349937	7.51898	0.321694	1	9	0.00492813	0.00481592	0	9.03675e-06	0.956096	0.202134	0.97723	11.9374	321.694	1521.62	1555.25	-78.0626	0.0000000E+000	0.0000000E+000	0.0000000E+000	78.0626	0.0000000E+000	0.0000000E+000	0.0000000E+000	-78.0626	0.0000000E+000	0.0000000E+000	0.0000000E+000	-11.9374	0.0000000E+000	0.0000000E+000	0.0000000E+000	11.9374	4.73002	78.0626	9.03675e-06	9.74831e-06	7960.69
68132	1.05272	0.234335	1.07848	-12.5494	2.46148	0.278572	0.0360752	9.96855	0.470627	1	9	0.00537906	0.00498761	0	1.42695e-05	0.905074	0.201469	0.927227	12.5494	470.627	2114.23	2165.98	-77.4506	0.0000000E+000	0.0000000E+000	0.0000000E+000	77.4506	0.0000000E+000	0.0000000E+000	0.0000000E+000	-77.4506	0.0000000E+000	0.0000000E+000	0.0000000E+000	-12.5494	0.0000000E+000	0.0000000E+000	0.0000000E+000	12.5494	4.49237	77.4506	5.23277e-06	1.00495e-05	7721.97
46420.4	1.105	0.260022	1.13518	-13.2416	2.89848	0.278544	0.0335392	13.1856	0.691819	1	9	0.00537497	0.00473491	0	2.03617e-05	0.857497	0.201781	0.880918	13.2416	691.819	2939.98	3020.28	-76.7584	0.0000000E+000	0.0000000E+000	0.0000000E+000	76.7584	0.0000000E+000	0.0000000E+000	0.0000000E+000	-76.7584	0.0000000E+000	0.0000000E+000	0.0000000E+000	-13.2416	0.0000000E+000	0.0000000E+000	0.0000000E+000	13.2416	4.24963	76.7584	6.09218e-06	9.34216e-06	8305.04
31621.1	1.1647	0.293653	1.20115	-14.1509	3.3365	0.27855	0.0333341	17.1399	1.02444	1	9	0.00533191	0.00443902	0	2.76633e-05	0.807275	0.203537	0.832538	14.1509	1024.44	4063.16	4190.32	-75.8491	0.0000000E+000	0.0000000E+000	0.0000000E+000	75.8491	0.0000000E+000	0.0000000E+000	0.0000000E+000	-75.8491	0.0000000E+000	0.0000000E+000	0.0000000E+000	-14.1509	0.0000000E+000	0.0000000E+000	0.0000000E+000	14.1509	3.96624	75.8491	7.30156e-06	9.28523e-06	8356.32
21544.7	1.22936	0.330776	1.27309	-15.0595	3.77448	0.278551	0.0360565	22.3329	1.50764	1	9	0.00537059	0.00421856	0	3.31523e-05	0.758516	0.204088	0.785493	15.0595	1507.64	5603.31	5802.59	-74.9405	0.0000000E+000	0.0000000E+000	0.0000000E+000	74.9405	0.0000000E+000	0.0000000E+000	0.0000000E+000	-74.9405	0.0000000E+000	0.0000000E+000	0.0000000E+000	-15.0595	0.0000000E+000	0.0000000E+000	0.0000000E+000	15.0595	3.71661	74.9405	5.48899e-06	1.00436e-05	7725.41
14678.6	1.29811	0.375492	1.35133	-16.133	4.21147	0.278555	0.0313761	28.8759	2.22953	1	9	0.0053848	0.00398482	0	3.41255e-05	0.71087	0.205626	0.740012	16.133	2229.53	7707.72	8023.7	-73.867	0.0000000E+000	0.0000000E+000	0.0000000E+000	73.867	0.0000000E+000	0.0000000E+000	0.0000000E+000	-73.867	0.0000000E+000	0.0000000E+000	0.0000000E+000	-16.133	0.0000000E+000	0.0000000E+000	0.0000000E+000	16.133	3.4571	73.867	9.73288e-07	8.73997e-06	8877.92
10002.2	1.37102	0.43258	1.43764	-17.5114	4.6485	0.278563	0.0310591	36.7839	3.33035	1	9	0.00534227	0.003716	0	3.65101e-05	0.663349	0.209298	0.695585	17.5114	3330.35	10555.2	11068.1	-72.4886	0.0000000E+000	0.0000000E+000	0.0000000E+000	72.4886	0.0000000E+000	0.0000000E+000	0.0000000E+000	-72.4886	0.0000000E+000	0.0000000E+000	0.0000000E+000	-17.5114	0.0000000E+000	0.0000000E+000	0.0000000E+000	17.5114	3.16939	72.4886	2.38452e-06	8.65194e-06	8968.8
6811.07	1.45818	0.506699	1.54371	-19.1617	5.20351	0.278561	0.0180996	46.1164	4.96848	1	9	0.00526936	0.00341344	0	4.68617e-05	0.611901	0.212627	0.647791	19.1617	4968.48	14298.3	15137	-70.8383	0.0000000E+000	0.0000000E+000	0.0000000E+000	70.8383	0.0000000E+000	0.0000000E+000	0.0000000E+000	-70.8383	0.0000000E+000	0.0000000E+000	0.0000000E+000	-19.1617	0.0000000E+000	0.0000000E+000	0.0000000E+000	19.1617	2.87781	70.8383	1.03516e-05	5.04186e-06	15390.4
4641.49	1.55358	0.605937	1.66756	-21.3071	5.89669	0.278556	0.0401215	56.5894	7.47182	1	9	0.00519717	0.00311662	0	5.54045e-05	0.558687	0.217903	0.599677	21.3071	7471.82	19157.2	20562.7	-68.6929	0.0000000E+000	0.0000000E+000	0.0000000E+000	68.6929	0.0000000E+000	0.0000000E+000	0.0000000E+000	-68.6929	0.0000000E+000	0.0000000E+000	0.0000000E+000	-21.3071	0.0000000E+000	0.0000000E+000	0.0000000E+000	21.3071	2.56393	68.6929	8.54283e-06	1.11761e-05	6942.81
3161.01	1.66281	0.737248	1.81892	-23.9113	6.58668	0.278552	0.0390959	68.2937	11.2197	1	9	0.00509555	0.00280141	0	6.05999e-05	0.502592	0.222836	0.549777	23.9113	11219.7	25305.2	27680.9	-66.0887	0.0000000E+000	0.0000000E+000	0.0000000E+000	66.0887	0.0000000E+000	0.0000000E+000	0.0000000E+000	-66.0887	0.0000000E+000	0.0000000E+000	0.0000000E+000	-23.9113	0.0000000E+000	0.0000000E+000	0.0000000E+000	23.9113	2.25543	66.0887	5.19545e-06	1.08903e-05	7124.84
2155.69	1.79638	0.913436	2.01528	-26.9527	7.05369	0.278556	0.0423591	80.8269	16.6051	1	9	0.00518143	0.00257107	0	6.53967e-05	0.442311	0.22491	0.496209	26.9527	16605.1	32655.9	36635.2	-63.0473	0.0000000E+000	0.0000000E+000	0.0000000E+000	63.0473	0.0000000E+000	0.0000000E+000	0.0000000E+000	-63.0473	0.0000000E+000	0.0000000E+000	0.0000000E+000	-26.9527	0.0000000E+000	0.0000000E+000	0.0000000E+000	26.9527	1.96662	63.0473	4.79673e-06	1.17994e-05	6576.06
1468.59	1.95494	1.15191	2.26907	-30.5079	7.52093	0.278559	0.0392451	94.0805	24.2461	1	9	0.00507507	0.00223663	0	7.19325e-05	0.379696	0.223729	0.440708	30.5079	24246.1	41148.7	47760.7	-59.4921	0.0000000E+000	0.0000000E+000	0.0000000E+000	59.4921	0.0000000E+000	0.0000000E+000	0.0000000E+000	-59.4921	0.0000000E+000	0.0000000E+000	0.0000000E+000	-30.5079	0.0000000E+000	0.0000000E+000	0.0000000E+000	30.5079	1.69713	59.4921	6.53586e-06	1.09321e-05	7097.95
1000.32	2.17557	1.44682	2.61273	-33.6251	7.98967	0.278564	0.0357022	109.968	33.7214	1	9	0.00499333	0.00191115	0	7.539e-05	0.3187	0.211945	0.382741	33.6251	33721.4	50706.5	60895.6	-56.3749	0.0000000E+000	0.0000000E+000	0.0000000E+000	56.3749	0.0000000E+000	0.0000000E+000	0.0000000E+000	-56.3749	0.0000000E+000	0.0000000E+000	0.0000000E+000	-33.6251	0.0000000E+000	0.0000000E+000	0.0000000E+000	33.6251	1.50369	56.3749	3.45744e-06	9.94534e-06	7802.44
681.09	2.43697	1.82538	3.04481	-36.8346	8.70941	0.278589	-0.00791142	128.015	46.0097	1	10	0.00500734	0.00164455	0	7.8223e-05	0.262864	0.196895	0.328428	36.8346	46009.7	61425.2	76746	-53.1654	0.0000000E+000	0.0000000E+000	0.0000000E+000	53.1654	0.0000000E+000	0.0000000E+000	0.0000000E+000	-53.1654	0.0000000E+000	0.0000000E+000	0.0000000E+000	-36.8346	0.0000000E+000	0.0000000E+000	0.0000000E+000	36.8346	1.33505	53.1655	2.83306e-06	-2.20404e-06	35213.6
463.961	2.80303	2.31648	3.63635	-39.5711	9.17818	0.278568	-0.00809602	148.085	60.0948	1	10	0.0049039	0.00134858	0	7.71828e-05	0.21198	0.175185	0.275001	39.5711	60094.8	72716.8	94335.1	-50.4289	0.0000000E+000	0.0000000E+000	0.0000000E+000	50.4289	0.0000000E+000	0.0000000E+000	0.0000000E+000	-50.4289	0.0000000E+000	0.0000000E+000	0.0000000E+000	-39.5711	0.0000000E+000	0.0000000E+000	0.0000000E+000	39.5711	1.21004	50.4289	-1.04024e-06	-2.25529e-06	34408.1
316.316	3.29511	2.92959	4.40911	-41.6394	9.64492	0.278558	-0.00819297	171.748	75.8236	1	10	0.00483931	0.00109757	0	7.55147e-05	0.169499	0.150697	0.226803	41.6394	75823.6	85283.9	114116	-48.3606	0.0000000E+000	0.0000000E+000	0.0000000E+000	48.3606	0.0000000E+000	0.0000000E+000	0.0000000E+000	-48.3606	0.0000000E+000	0.0000000E+000	0.0000000E+000	-41.6394	0.0000000E+000	0.0000000E+000	0.0000000E+000	41.6394	1.12477	48.3606	-1.66808e-06	-2.28221e-06	33999.6
215.345	3.95595	3.64743	5.38083	-42.6764	10.1124	0.27857	-0.00771941	202.628	93.1054	1	10	0.00479426	0.000890989	0	7.39124e-05	0.136632	0.125976	0.185845	42.6764	93105.4	100981	137353	-47.3236	0.0000000E+000	0.0000000E+000	0.0000000E+000	47.3236	0.0000000E+000	0.0000000E+000	0.0000000E+000	-47.3236	0.0000000E+000	0.0000000E+000	0.0000000E+000	-42.6764	0.0000000E+000	0.0000000E+000	0.0000000E+000	42.6764	1.08459	47.3236	-1.60232e-06	-2.15039e-06	36086.9
146.737	4.82405	4.49008	6.59032	-42.9465	10.5754	0.278569	-0.00756467	241.56	112.13	1	10	0.00476614	0.000723204	0	7.33877e-05	0.111071	0.103381	0.151738	42.9465	112130	120470	164578	-47.0535	0.0000000E+000	0.0000000E+000	0.0000000E+000	47.0535	0.0000000E+000	0.0000000E+000	0.0000000E+000	-47.0535	0.0000000E+000	0.0000000E+000	0.0000000E+000	-42.9465	0.0000000E+000	0.0000000E+000	0.0000000E+000	42.9465	1.07438	47.0535	-5.24664e-07	-2.10728e-06	36825
100.032	5.96487	5.42209	8.06094	-42.2709	11.0437	0.278577	-0.00701093	293.437	132.763	1	10	0.00474765	0.00058897	0	7.31055e-05	0.0917973	0.0834441	0.124055	42.2709	132763	146053	197377	-47.7291	0.0000000E+000	0.0000000E+000	0.0000000E+000	47.7291	0.0000000E+000	0.0000000E+000	0.0000000E+000	-47.7291	0.0000000E+000	0.0000000E+000	0.0000000E+000	-42.2709	0.0000000E+000	0.0000000E+000	0.0000000E+000	42.2709	1.10011	47.7291	-2.82211e-07	-1.95308e-06	39734.7
68.104	7.47548	6.41663	9.8517	-40.6414	11.5223	0.278567	-0.00699229	364.2	154.502	1	10	0.00475082	0.000482233	0	7.26515e-05	0.0770224	0.0661127	0.101505	40.6414	154502	179997	237212	-49.3586	0.0000000E+000	0.0000000E+000	0.0000000E+000	49.3586	0.0000000E+000	0.0000000E+000	0.0000000E+000	-49.3586	0.0000000E+000	0.0000000E+000	0.0000000E+000	-40.6414	0.0000000E+000	0.0000000E+000	0.0000000E+000	40.6414	1.16502	49.3586	-4.54002e-07	-1.94782e-06	39839.1
46.4415	9.34524	7.31638	11.8686	-38.0574	11.9776	0.278568	-0.00794316	468.4	177.997	1	10	0.00473903	0.000399292	0	7.19768e-05	0.0663428	0.0519397	0.0842562	38.0574	177997	227356	288745	-51.9426	0.0000000E+000	0.0000000E+000	0.0000000E+000	51.9426	0.0000000E+000	0.0000000E+000	0.0000000E+000	-51.9426	0.0000000E+000	0.0000000E+000	0.0000000E+000	-38.0574	0.0000000E+000	0.0000000E+000	0.0000000E+000	38.0574	1.2773	51.9426	-6.74719e-07	-2.21271e-06	35070.2
31.6296	11.5299	7.97644	14.0201	-34.6757	12.4244	0.278583	-0.00828622	630.838	204.191	1	10	0.00472653	0.000337126	0	7.09226e-05	0.0586577	0.0405797	0.0713263	34.6757	204191	295157	358903	-55.3243	0.0000000E+000	0.0000000E+000	0.0000000E+000	55.3243	0.0000000E+000	0.0000000E+000	0.0000000E+000	-55.3243	0.0000000E+000	0.0000000E+000	0.0000000E+000	-34.6757	0.0000000E+000	0.0000000E+000	0.0000000E+000	34.6757	1.44549	55.3243	-1.05417e-06	-2.3084e-06	33620.1
21.5517	13.9793	8.33288	16.2745	-30.7986	13.1034	0.278597	-0.00809147	886.223	232.338	1	11	0.00473027	0.000290656	0	6.91269e-05	0.0527804	0.0314617	0.061446	30.7986	232338	389772	453766	-59.2014	0.0000000E+000	0.0000000E+000	0.0000000E+000	59.2014	0.0000000E+000	0.0000000E+000	0.0000000E+000	-59.2014	0.0000000E+000	0.0000000E+000	0.0000000E+000	-30.7986	0.0000000E+000	0.0000000E+000	0.0000000E+000	30.7986	1.67761	59.2014	-1.79577e-06	-2.25426e-06	34431
14.6852	16.4103	8.33512	18.4058	-26.9269	13.5821	0.278581	-0.00852068	1300.26	266.652	1	11	0.00473437	0.000257221	0	6.82441e-05	0.0484404	0.0246038	0.0543307	26.9269	266652	524988	588826	-63.0731	0.0000000E+000	0.0000000E+000	0.0000000E+000	63.0731	0.0000000E+000	0.0000000E+000	0.0000000E+000	-63.0731	0.0000000E+000	0.0000000E+000	0.0000000E+000	-26.9269	0.0000000E+000	0.0000000E+000	0.0000000E+000	26.9269	1.96882	63.0731	-8.82767e-07	-2.3737e-06	32694.7
10.0032	18.6918	7.98347	20.3253	-23.1279	14.0507	0.278598	-0.00794809	1992.92	307.467	1	11	0.00472595	0.000232516	0	6.89451e-05	0.0452456	0.0193249	0.0491998	23.1279	307467	719876	782788	-66.8721	0.0000000E+000	0.0000000E+000	0.0000000E+000	66.8721	0.0000000E+000	0.0000000E+000	0.0000000E+000	-66.8721	0.0000000E+000	0.0000000E+000	0.0000000E+000	-23.1279	0.0000000E+000	0.0000000E+000	0.0000000E+000	23.1279	2.34131	66.8721	7.0099e-07	-2.21432e-06	35052.2
6.81719	20.8028	7.48682	22.109	-19.7936	14.4084	0.278581	-0.00887755	3118.3	357.581	1	11	0.00473244	0.00021405	0	6.62652e-05	0.0425582	0.0153165	0.0452305	19.7936	357581	993569	1.05596e+06	-70.2064	0.0000000E+000	0.0000000E+000	0.0000000E+000	70.2064	0.0000000E+000	0.0000000E+000	0.0000000E+000	-70.2064	0.0000000E+000	0.0000000E+000	0.0000000E+000	-19.7936	0.0000000E+000	0.0000000E+000	0.0000000E+000	19.7936	2.77859	70.2064	-2.67985e-06	-2.47312e-06	31380.4
4.63925	22.6033	6.92833	23.6413	-17.0412	14.9103	0.278575	-0.00833032	4951.58	425.262	1	11	0.00472715	0.000199953	0	6.80548e-05	0.0404417	0.0123961	0.0422988	17.0412	425262	1.3874e+06	1.45111e+06	-72.9588	0.0000000E+000	0.0000000E+000	0.0000000E+000	72.9588	0.0000000E+000	0.0000000E+000	0.0000000E+000	-72.9588	0.0000000E+000	0.0000000E+000	0.0000000E+000	-17.0412	0.0000000E+000	0.0000000E+000	0.0000000E+000	17.0412	3.26245	72.9588	1.78952e-06	-2.32061e-06	33441.1
3.1604	24.3642	6.36314	25.1814	-14.6369	15.6192	0.278573	-0.0075778	7914.2	505.347	1	11	0.00473056	0.000187859	0	6.54036e-05	0.038423	0.0100349	0.0397118	14.6369	505347	1.93495e+06	1.99985e+06	-75.3631	0.0000000E+000	0.0000000E+000	0.0000000E+000	75.3631	0.0000000E+000	0.0000000E+000	0.0000000E+000	-75.3631	0.0000000E+000	0.0000000E+000	0.0000000E+000	-14.6369	0.0000000E+000	0.0000000E+000	0.0000000E+000	14.6369	3.82896	75.3631	-2.65114e-06	-2.11097e-06	36761.8
2.15577	25.7711	5.71999	26.3983	-12.5141	16.6347	0.278584	-0.00659143	12906.9	605.985	1	11	0.00473332	0.000179304	0	5.98056e-05	0.0369813	0.00820812	0.0378813	12.5141	605985	2.73024e+06	2.79668e+06	-77.4859	0.0000000E+000	0.0000000E+000	0.0000000E+000	77.4859	0.0000000E+000	0.0000000E+000	0.0000000E+000	-77.4859	0.0000000E+000	0.0000000E+000	0.0000000E+000	-12.5141	0.0000000E+000	0.0000000E+000	0.0000000E+000	12.5141	4.50545	77.4859	-5.59806e-06	-1.83627e-06	42264.6
1.46631	27.1314	5.18222	27.6219	-10.8135	18.108	0.278582	-0.00660577	20944.9	737.229	1	11	0.00473479	0.000171414	0	5.57098e-05	0.0355603	0.00679216	0.0362031	10.8135	737229	3.85975e+06	3.92953e+06	-79.1865	0.0000000E+000	0.0000000E+000	0.0000000E+000	79.1865	0.0000000E+000	0.0000000E+000	0.0000000E+000	-79.1865	0.0000000E+000	0.0000000E+000	0.0000000E+000	-10.8135	0.0000000E+000	0.0000000E+000	0.0000000E+000	10.8135	5.23549	79.1865	-4.09574e-06	-1.84024e-06	42172.5
1.00006	28.2411	4.72249	28.6332	-9.49319	21.2991	0.278597	-0.00603549	33699.3	916.69	1	12	0.00473633	0.000165414	0	5.46028e-05	0.0344462	0.0057601	0.0349245	9.49319	916691	5.48193e+06	5.55804e+06	-80.5068	0.0000000E+000	0.0000000E+000	0.0000000E+000	80.5068	0.0000000E+000	0.0000000E+000	0.0000000E+000	-80.5068	0.0000000E+000	0.0000000E+000	0.0000000E+000	-9.49319	0.0000000E+000	0.0000000E+000	0.0000000E+000	9.49319	5.98013	80.5068	-1.107e-06	-1.68147e-06	46159.9
0.681362	29.2277	4.2594	29.5364	-8.29144	24.4191	0.2786	-0.00591942	54839.5	1140.45	1	12	0.00473633	0.000160356	0	5.69866e-05	0.0335026	0.00488239	0.0338565	8.29144	1.14044e+06	7.82566e+06	7.90832e+06	-81.7086	0.0000000E+000	0.0000000E+000	0.0000000E+000	81.7086	0.0000000E+000	0.0000000E+000	0.0000000E+000	-81.7086	0.0000000E+000	0.0000000E+000	0.0000000E+000	-8.29144	0.0000000E+000	0.0000000E+000	0.0000000E+000	8.29144	6.86193	81.7086	2.3838e-06	-1.64915e-06	47065.3
0.464091	30.1588	3.90583	30.4107	-7.37923	28.9838	0.278579	-0.00578368	87801.9	1448.36	1	12	0.00473521	0.000155709	0	5.61721e-05	0.0326108	0.00422338	0.0328832	7.37923	1.44836e+06	1.11835e+07	1.12769e+07	-82.6208	0.0000000E+000	0.0000000E+000	0.0000000E+000	82.6208	0.0000000E+000	0.0000000E+000	0.0000000E+000	-82.6208	0.0000000E+000	0.0000000E+000	0.0000000E+000	-7.37923	0.0000000E+000	0.0000000E+000	0.0000000E+000	7.37923	7.72149	82.6208	-8.14546e-07	-1.61121e-06	48166.4
0.316193	30.9511	3.67137	31.1681	-6.76472	35.6661	0.278599	-0.00444013	137101	1902.28	1	12	0.00472951	0.000151742	0	4.60515e-05	0.0318607	0.00377926	0.0320841	6.76472	1.90228e+06	1.6037e+07	1.61494e+07	-83.2353	0.0000000E+000	0.0000000E+000	0.0000000E+000	83.2353	0.0000000E+000	0.0000000E+000	0.0000000E+000	-83.2353	0.0000000E+000	0.0000000E+000	0.0000000E+000	-6.76472	0.0000000E+000	0.0000000E+000	0.0000000E+000	6.76472	8.4304	83.2353	-1.01206e-05	-1.23701e-06	62745.7
0.215268	31.6271	3.55013	31.8257	-6.40463	45.4639	0.278585	-0.00407848	208255	2591.37	1	12	0.00473813	0.000148877	0	2.00891e-05	0.031225	0.003505	0.0314211	6.40463	2.59137e+06	2.30857e+07	2.32307e+07	-83.5954	0.0000000E+000	0.0000000E+000	0.0000000E+000	83.5954	0.0000000E+000	0.0000000E+000	0.0000000E+000	-83.5954	0.0000000E+000	0.0000000E+000	0.0000000E+000	-6.40463	0.0000000E+000	0.0000000E+000	0.0000000E+000	6.40463	8.90871	83.5954	-2.59624e-05	-1.1362e-06	68306.1
0.146929	32.2886	3.57454	32.4858	-6.31727	59.8011	0.278599	-0.00328264	303035	3668.98	1	12	0.00473133	0.000145643	0	-2.21742e-05	0.0305957	0.00338713	0.0307827	6.31727	3.66898e+06	3.31416e+07	3.33441e+07	-83.6827	0.0000000E+000	0.0000000E+000	0.0000000E+000	83.6827	0.0000000E+000	0.0000000E+000	0.0000000E+000	-83.6827	0.0000000E+000	0.0000000E+000	0.0000000E+000	-6.31727	0.0000000E+000	0.0000000E+000	0.0000000E+000	6.31727	9.03293	83.6827	-4.22633e-05	-9.14538e-07	84870.4
0.0999041	32.9888	3.78333	33.2051	-6.54239	80.8709	0.278597	-0.00339718	421078	5466.41	1	12	0.00473479	0.000142592	0	-7.55074e-05	0.0299198	0.00343136	0.0301159	6.54239	5.46642e+06	4.76645e+07	4.7977e+07	-83.4576	0.0000000E+000	0.0000000E+000	0.0000000E+000	83.4576	0.0000000E+000	0.0000000E+000	0.0000000E+000	-83.4576	0.0000000E+000	0.0000000E+000	0.0000000E+000	-6.54239	0.0000000E+000	0.0000000E+000	0.0000000E+000	6.54239	8.71952	83.4576	-5.33332e-05	-9.46443e-07	82008.2
0.0680626	33.7454	4.27819	34.0155	-7.22533	111.782	0.2786	-0.00334662	546577	8646.05	1	12	0.00473364	0.000139161	0	-0.00012706	0.0291649	0.00369748	0.0293984	7.22533	8.64605e+06	6.81981e+07	6.8744e+07	-82.7747	0.0000000E+000	0.0000000E+000	0.0000000E+000	82.7747	0.0000000E+000	0.0000000E+000	0.0000000E+000	-82.7747	0.0000000E+000	0.0000000E+000	0.0000000E+000	-7.22533	0.0000000E+000	0.0000000E+000	0.0000000E+000	7.22533	7.88777	82.7747	-5.15529e-05	-9.32367e-07	83248
0.0464052	34.5094	5.11506	34.8865	-8.43112	157.105	0.278594	-0.00339221	670506	14414.2	1	12	0.00473492	0.000135724	0	-0.000148707	0.0283546	0.00420279	0.0286644	8.43112	1.44142e+07	9.72473e+07	9.83098e+07	-81.5689	0.0000000E+000	0.0000000E+000	0.0000000E+000	81.5689	0.0000000E+000	0.0000000E+000	0.0000000E+000	-81.5689	0.0000000E+000	0.0000000E+000	0.0000000E+000	-8.43112	0.0000000E+000	0.0000000E+000	0.0000000E+000	8.43112	6.74663	81.5689	-2.16462e-05	-9.45048e-07	82127.6
0.0315922	35.2902	6.19277	35.8294	-9.95301	223.666	0.278601	-0.00272252	813495	24302.2	1	12	0.00473338	0.000132109	0	-0.000105284	0.02749	0.00482398	0.02791	9.95301	2.43022e+07	1.38489e+08	1.40605e+08	-80.047	0.0000000E+000	0.0000000E+000	0.0000000E+000	80.047	0.0000000E+000	0.0000000E+000	0.0000000E+000	-80.047	0.0000000E+000	0.0000000E+000	0.0000000E+000	-9.95301	0.0000000E+000	0.0000000E+000	0.0000000E+000	9.95301	5.69861	80.047	4.34222e-05	-7.58497e-07	102332
0.0215268	36.3747	7.5519	37.1504	-11.7288	321.334	0.278596	-0.00177903	979004	40454.9	1	12	0.00473699	0.000127509	0	7.92583e-06	0.0263556	0.00547179	0.0269176	11.7288	4.04549e+07	1.94856e+08	1.99011e+08	-78.2712	0.0000000E+000	0.0000000E+000	0.0000000E+000	78.2712	0.0000000E+000	0.0000000E+000	0.0000000E+000	-78.2712	0.0000000E+000	0.0000000E+000	0.0000000E+000	-11.7288	0.0000000E+000	0.0000000E+000	0.0000000E+000	11.7288	4.81663	78.2712	0.00011321	-4.9563e-07	156601
0.0146812	37.856	9.40706	39.0073	-13.9551	464.529	0.278595	-0.000569645	1.15241e+06	67022.7	1	12	0.00473778	0.000121459	0	0.000152286	0.0248796	0.00618248	0.0256362	13.9551	6.70227e+07	2.69713e+08	2.77916e+08	-76.0449	0.0000000E+000	0.0000000E+000	0.0000000E+000	76.0449	0.0000000E+000	0.0000000E+000	0.0000000E+000	-76.0449	0.0000000E+000	0.0000000E+000	0.0000000E+000	-13.9551	0.0000000E+000	0.0000000E+000	0.0000000E+000	13.9551	4.02421	76.0449	0.00014436	-1.587e-07	489069
0.0100092	39.5323	12.0809	41.3371	-16.993	674.549	0.278594	-1.60225e-05	1.3162e+06	112420	1	12	0.00473473	0.000114539	0	0.000206767	0.0231352	0.00707003	0.0241914	16.993	1.1242e+08	3.6787e+08	3.84665e+08	-73.007	0.0000000E+000	0.0000000E+000	0.0000000E+000	73.007	0.0000000E+000	0.0000000E+000	0.0000000E+000	-73.007	0.0000000E+000	0.0000000E+000	0.0000000E+000	-16.993	0.0000000E+000	0.0000000E+000	0.0000000E+000	16.993	3.27229	73.007	5.44811e-05	-4.46375e-09	1.73877e+07