File: txt/17712_R287_UA663_SOC00_C02.mpt
EC-Lab ASCII FILE
Nb header lines : 63

Potentio Electrochemical Impedance Spectroscopy

Run on channel : 2 (SN 66139)
User :
CE vs. WE compliance from -10 V to 10 V
Electrode connection : standard
Potential control : Ewe
Ewe ctrl range : min = -10.00 V, max = 10.00 V
Safety Limits :
	Do not start on E overload
Acquisition started on : 09/22/2025 10:25:05.396
Loaded Setting File :  C:\Users\Celltest\OneDrive - store-dot.com\Documents\EC-Lab\Data\Gyutae\17737_R277_UA674_SOC00_C01.mpr
Saved on :
	File : 17712_R287_UA663_SOC00_C02.mpr
	Directory : C:\Users\Celltest\OneDrive - store-dot.com\Documents\EC-Lab\Data\Charmaine\
	Host : 169.254.61.224
Device : VMP-3e (SN .003165)
Address : USB
EC-LAB for windows v11.62 (software)
Internet server v27.00 (firmware)
Command interpretor v12.03 (firmware)
Electrode material :
Initial state :
Electrolyte :
Comments :
Electrode surface area : 0.001 cm²
Characteristic mass : 0.001 g
Equivalent Weight : 0.000 g/eq.
Density : 0.000 g/cm3
Volume (V) : 0.001 cm³
Cycle Definition : Charge/Discharge alternance
Mode                Single sine
E (V)               0.0000
vs.                 Eoc
tE (h:m:s)          0:00:0.0000
record              0
dI                  0.000
unit dI             mA
dt (s)              0.000
fi                  100.000
unit fi             kHz
ff                  10.000
unit ff             mHz
Nd                  6
Points              per decade
spacing             Logarithmic
Va (mV)             5.0
pw                  0.10
Na                  2
corr                0
E range min (V)     -10.000
E range max (V)     10.000
I Range             Auto
Bandwidth           5
nc cycles           0
goto Ns'            0
nr cycles           0
inc. cycle          0

freq/Hz	Re(Z)/Ohm	-Im(Z)/Ohm	|Z|/Ohm	Phase(Z)/deg	time/s	<Ewe>/V	<I>/mA	Cs/µF	Cp/µF	cycle number	I Range	|Ewe|/V	|I|/A	Ns	(Q-Qo)/mA.h	Re(Y)/Ohm-1	Im(Y)/Ohm-1	|Y|/Ohm-1	Phase(Y)/deg	Re(C)/nF	Im(C)/nF	|C|/nF	Phase(C)/deg	Re(M)	Im(M)	|M|	Phase(M)/deg	Re(Permittivity)	Im(Permittivity)	|Permittivity|	Phase(Permittivity)/deg	Re(Resistivity)/Ohm.cm	Im(Resistivity)/Ohm.cm	|Resistivity|/Ohm.cm	Phase(Resistivity)/deg	Re(Conductivity)/mS/cm	Im(Conductivity)/mS/cm	|Conductivity|/mS/cm	Phase(Conductivity)/deg	Tan(Delta)	Loss Angle(Delta)/deg	dq/mA.h	Pwe/W	Rwe/Ohm
100004	1.14411	0.225652	1.16615	-11.1572	2.22748	0.270687	0.0176196	7.05286	0.264078	1	9	0.00495977	0.00425311	0	-1.8418e-06	0.841314	0.165931	0.857521	11.1572	264.078	1338.94	1364.74	-78.8428	0.0000000E+000	0.0000000E+000	0.0000000E+000	78.8428	0.0000000E+000	0.0000000E+000	0.0000000E+000	-78.8428	0.0000000E+000	0.0000000E+000	0.0000000E+000	-11.1572	0.0000000E+000	0.0000000E+000	0.0000000E+000	11.1572	5.07026	78.8428	-1.8418e-06	4.76941e-06	15362.8
68132	1.20109	0.248624	1.22655	-11.695	2.80548	0.270676	0.0165767	9.39561	0.386049	1	9	0.00505236	0.00411917	0	3.42511e-06	0.798371	0.165262	0.815296	11.695	386.05	1864.98	1904.51	-78.305	0.0000000E+000	0.0000000E+000	0.0000000E+000	78.305	0.0000000E+000	0.0000000E+000	0.0000000E+000	-78.305	0.0000000E+000	0.0000000E+000	0.0000000E+000	-11.695	0.0000000E+000	0.0000000E+000	0.0000000E+000	11.695	4.83093	78.305	5.26692e-06	4.48693e-06	16328.6
46420.4	1.25876	0.271438	1.28769	-12.1689	3.38349	0.27066	0.0209345	12.6311	0.561256	1	9	0.00505643	0.00392675	0	-6.84487e-06	0.759135	0.1637	0.776585	12.1689	561.255	2602.74	2662.57	-77.8311	0.0000000E+000	0.0000000E+000	0.0000000E+000	77.8311	0.0000000E+000	0.0000000E+000	0.0000000E+000	-77.8311	0.0000000E+000	0.0000000E+000	0.0000000E+000	-12.1689	0.0000000E+000	0.0000000E+000	0.0000000E+000	12.1689	4.63736	77.8311	-1.027e-05	5.66614e-06	12928.9
31621.1	1.32185	0.304756	1.35652	-12.9829	3.96149	0.270667	0.0143047	16.5154	0.833568	1	9	0.00500812	0.00369188	0	2.14405e-06	0.718335	0.165614	0.737179	12.9829	833.568	3615.51	3710.36	-77.0171	0.0000000E+000	0.0000000E+000	0.0000000E+000	77.0171	0.0000000E+000	0.0000000E+000	0.0000000E+000	-77.0171	0.0000000E+000	0.0000000E+000	0.0000000E+000	-12.9829	0.0000000E+000	0.0000000E+000	0.0000000E+000	12.9829	4.33739	77.0171	8.98893e-06	3.87182e-06	18921.5
21544.7	1.38919	0.34245	1.43078	-13.8479	4.39848	0.270666	0.0137833	21.5716	1.23576	1	9	0.00539418	0.00377011	0	7.15214e-06	0.678607	0.167284	0.698921	13.8479	1235.76	5013	5163.07	-76.1521	0.0000000E+000	0.0000000E+000	0.0000000E+000	76.1521	0.0000000E+000	0.0000000E+000	0.0000000E+000	-76.1521	0.0000000E+000	0.0000000E+000	0.0000000E+000	-13.8479	0.0000000E+000	0.0000000E+000	0.0000000E+000	13.8479	4.05662	76.1521	5.00809e-06	3.73066e-06	19637.2
14678.6	1.46353	0.385586	1.51347	-14.7599	4.69448	0.27067	0.0143978	28.1199	1.82519	1	9	0.00463324	0.00306132	0	1.10006e-05	0.638928	0.168334	0.660731	14.7599	1825.19	6927.68	7164.08	-75.2401	0.0000000E+000	0.0000000E+000	0.0000000E+000	75.2401	0.0000000E+000	0.0000000E+000	0.0000000E+000	-75.2401	0.0000000E+000	0.0000000E+000	0.0000000E+000	-14.7599	0.0000000E+000	0.0000000E+000	0.0000000E+000	14.7599	3.7956	75.2401	3.8485e-06	3.89706e-06	18799.3
10002.2	1.54154	0.443925	1.60419	-16.065	5.13149	0.270662	0.013355	35.8438	2.74487	1	9	0.00492897	0.00307256	0	1.55528e-05	0.599024	0.172503	0.623368	16.065	2744.87	9531.64	9919	-73.935	0.0000000E+000	0.0000000E+000	0.0000000E+000	73.935	0.0000000E+000	0.0000000E+000	0.0000000E+000	-73.935	0.0000000E+000	0.0000000E+000	0.0000000E+000	-16.065	0.0000000E+000	0.0000000E+000	0.0000000E+000	16.065	3.47253	73.935	4.55214e-06	3.61468e-06	20266.8
6811.07	1.62985	0.517737	1.7101	-17.623	5.5095	0.270475	-0.114529	45.1331	4.13685	1	9	0.00462523	0.00270465	0	5.94741e-06	0.557317	0.177037	0.58476	17.623	4136.85	13022.9	13664.1	-72.377	0.0000000E+000	0.0000000E+000	0.0000000E+000	72.377	0.0000000E+000	0.0000000E+000	0.0000000E+000	-72.377	0.0000000E+000	0.0000000E+000	0.0000000E+000	-17.623	0.0000000E+000	0.0000000E+000	0.0000000E+000	17.623	3.14802	72.377	-9.60537e-06	-3.09772e-05	2361.63
4641.49	1.72576	0.61442	1.83187	-19.5972	6.20369	0.270649	0.0331698	55.8082	6.27824	1	9	0.00485904	0.0026525	0	1.31205e-05	0.514268	0.183094	0.54589	19.5972	6278.24	17634.1	18718.4	-70.4028	0.0000000E+000	0.0000000E+000	0.0000000E+000	70.4028	0.0000000E+000	0.0000000E+000	0.0000000E+000	-70.4028	0.0000000E+000	0.0000000E+000	0.0000000E+000	-19.5972	0.0000000E+000	0.0000000E+000	0.0000000E+000	19.5972	2.80876	70.4028	7.17313e-06	8.97737e-06	8159.51
3161.01	1.84006	0.747136	1.98596	-22.0991	6.67071	0.270658	0.0356839	67.3898	9.53795	1	9	0.00477946	0.00240663	0	1.52848e-05	0.466543	0.189435	0.503536	22.0991	9537.95	23490.2	25352.7	-67.9009	0.0000000E+000	0.0000000E+000	0.0000000E+000	67.9009	0.0000000E+000	0.0000000E+000	0.0000000E+000	-67.9009	0.0000000E+000	0.0000000E+000	0.0000000E+000	-22.0991	0.0000000E+000	0.0000000E+000	0.0000000E+000	22.0991	2.46281	67.9009	2.16428e-06	9.65811e-06	7584.88
2155.69	1.9705	0.918556	2.17408	-24.9928	7.13669	0.270649	0.0320151	80.3763	14.3479	1	9	0.0047347	0.0021778	0	2.05252e-05	0.416894	0.194337	0.459965	24.9928	14347.9	30779.4	33959.3	-65.0072	0.0000000E+000	0.0000000E+000	0.0000000E+000	65.0072	0.0000000E+000	0.0000000E+000	0.0000000E+000	-65.0072	0.0000000E+000	0.0000000E+000	0.0000000E+000	-24.9928	0.0000000E+000	0.0000000E+000	0.0000000E+000	24.9928	2.14522	65.0072	5.24038e-06	8.66485e-06	8453.77
1468.59	2.13681	1.14309	2.42335	-28.1446	7.60394	0.27065	0.031233	94.8066	21.0944	1	9	0.00471585	0.001946	0	2.56291e-05	0.36386	0.194647	0.412652	28.1446	21094.4	39432.4	44720.1	-61.8554	0.0000000E+000	0.0000000E+000	0.0000000E+000	61.8554	0.0000000E+000	0.0000000E+000	0.0000000E+000	-61.8554	0.0000000E+000	0.0000000E+000	0.0000000E+000	-28.1446	0.0000000E+000	0.0000000E+000	0.0000000E+000	28.1446	1.86933	61.8554	5.10386e-06	8.45319e-06	8665.52
1000.32	2.32923	1.44311	2.74005	-31.7809	8.07271	0.270658	0.0382166	110.251	30.5818	1	9	0.00469221	0.00171246	0	2.81323e-05	0.310239	0.192213	0.364957	31.7809	30581.8	49360.2	58066.2	-58.2191	0.0000000E+000	0.0000000E+000	0.0000000E+000	58.2191	0.0000000E+000	0.0000000E+000	0.0000000E+000	-58.2191	0.0000000E+000	0.0000000E+000	0.0000000E+000	-31.7809	0.0000000E+000	0.0000000E+000	0.0000000E+000	31.7809	1.61404	58.2191	2.5032e-06	1.03436e-05	7082.22
681.09	2.60534	1.82529	3.18111	-35.0149	8.79245	0.270646	-0.0185532	128.022	42.1492	1	10	0.00478325	0.00150364	0	2.82223e-05	0.257458	0.180374	0.314355	35.0149	42149.2	60161.9	73457.6	-54.9851	0.0000000E+000	0.0000000E+000	0.0000000E+000	54.9851	0.0000000E+000	0.0000000E+000	0.0000000E+000	-54.9851	0.0000000E+000	0.0000000E+000	0.0000000E+000	-35.0149	0.0000000E+000	0.0000000E+000	0.0000000E+000	35.0149	1.42736	54.9851	9.00801e-08	-5.02134e-06	14587.6
463.961	2.96483	2.3175	3.76311	-38.0135	9.2612	0.270646	-0.0182328	148.019	56.139	1	10	0.00474152	0.00126	0	2.59028e-05	0.209365	0.163654	0.265738	38.0135	56139	71819.8	91157.4	-51.9865	0.0000000E+000	0.0000000E+000	0.0000000E+000	51.9865	0.0000000E+000	0.0000000E+000	0.0000000E+000	-51.9865	0.0000000E+000	0.0000000E+000	0.0000000E+000	-38.0135	0.0000000E+000	0.0000000E+000	0.0000000E+000	38.0135	1.27932	51.9865	-2.31959e-06	-4.93464e-06	14843.9
316.316	3.44626	2.9298	4.52332	-40.3691	9.72791	0.27064	-0.0185755	171.736	72.0481	1	10	0.00470454	0.00104006	0	2.29632e-05	0.168436	0.143193	0.221077	40.3691	72048.1	84748.7	111235	-49.6309	0.0000000E+000	0.0000000E+000	0.0000000E+000	49.6309	0.0000000E+000	0.0000000E+000	0.0000000E+000	-49.6309	0.0000000E+000	0.0000000E+000	0.0000000E+000	-40.3691	0.0000000E+000	0.0000000E+000	0.0000000E+000	40.3691	1.17628	49.6309	-2.93957e-06	-5.02729e-06	14569.7
215.345	4.10738	3.66811	5.50687	-41.7666	10.1954	0.270644	-0.0182496	201.486	89.3963	1	10	0.00468895	0.000851473	0	2.02181e-05	0.135443	0.120958	0.181591	41.7666	89396.3	100102	134209	-48.2334	0.0000000E+000	0.0000000E+000	0.0000000E+000	48.2334	0.0000000E+000	0.0000000E+000	0.0000000E+000	-48.2334	0.0000000E+000	0.0000000E+000	0.0000000E+000	-41.7666	0.0000000E+000	0.0000000E+000	0.0000000E+000	41.7666	1.11975	48.2334	-2.74508e-06	-4.93914e-06	14830.1
146.737	4.97641	4.52769	6.7279	-42.2969	10.6584	0.270639	-0.0194044	239.554	108.492	1	10	0.00468096	0.000695754	0	1.83362e-05	0.10994	0.100027	0.148635	42.2969	108492	119244	161213	-47.7031	0.0000000E+000	0.0000000E+000	0.0000000E+000	47.7031	0.0000000E+000	0.0000000E+000	0.0000000E+000	-47.7031	0.0000000E+000	0.0000000E+000	0.0000000E+000	-42.2969	0.0000000E+000	0.0000000E+000	0.0000000E+000	42.2969	1.09911	47.7031	-1.88193e-06	-5.25159e-06	13947.3
100.032	6.12222	5.48775	8.22174	-41.872	11.1267	0.270635	-0.0178529	289.926	129.166	1	10	0.0046694	0.000567933	0	1.67846e-05	0.0905694	0.0811834	0.121629	41.872	129166	144100	193516	-48.128	0.0000000E+000	0.0000000E+000	0.0000000E+000	48.128	0.0000000E+000	0.0000000E+000	0.0000000E+000	-48.128	0.0000000E+000	0.0000000E+000	0.0000000E+000	-41.872	0.0000000E+000	0.0000000E+000	0.0000000E+000	41.872	1.11562	48.128	-1.55159e-06	-4.83161e-06	15159.2
68.104	7.64274	6.48602	10.024	-40.3197	11.6053	0.270646	-0.0158506	360.304	150.851	1	10	0.00466831	0.000465715	0	1.52741e-05	0.0760624	0.0645505	0.0997609	40.3197	150851	177753	233135	-49.6803	0.0000000E+000	0.0000000E+000	0.0000000E+000	49.6803	0.0000000E+000	0.0000000E+000	0.0000000E+000	-49.6803	0.0000000E+000	0.0000000E+000	0.0000000E+000	-40.3197	0.0000000E+000	0.0000000E+000	0.0000000E+000	40.3197	1.17834	49.6803	-1.51052e-06	-4.28989e-06	17074.8
46.4415	9.52318	7.44495	12.0879	-38.0173	12.0605	0.270637	-0.0207157	460.311	174.611	1	10	0.00466458	0.000385887	0	1.31246e-05	0.0651745	0.0509516	0.0827271	38.0173	174611	223353	283505	-51.9827	0.0000000E+000	0.0000000E+000	0.0000000E+000	51.9827	0.0000000E+000	0.0000000E+000	0.0000000E+000	-51.9827	0.0000000E+000	0.0000000E+000	0.0000000E+000	-38.0173	0.0000000E+000	0.0000000E+000	0.0000000E+000	38.0173	1.27915	51.9827	-2.1495e-06	-5.60643e-06	13064.3
31.6296	11.8049	8.16688	14.3546	-34.6763	12.5065	0.270628	-0.0232302	616.128	199.435	1	10	0.00466546	0.000325015	0	1.03853e-05	0.0572904	0.0396346	0.0696641	34.6763	199435	288276	350539	-55.3237	0.0000000E+000	0.0000000E+000	0.0000000E+000	55.3237	0.0000000E+000	0.0000000E+000	0.0000000E+000	-55.3237	0.0000000E+000	0.0000000E+000	0.0000000E+000	-34.6763	0.0000000E+000	0.0000000E+000	0.0000000E+000	34.6763	1.44546	55.3237	-2.73925e-06	-6.28674e-06	11649.8
21.5517	14.3353	8.5364	16.6845	-30.773	13.1864	0.270663	-0.00961861	865.094	226.458	1	11	0.00467191	0.000280016	0	7.63179e-06	0.0514971	0.0306655	0.059936	30.773	226458	380295	442615	-59.227	0.0000000E+000	0.0000000E+000	0.0000000E+000	59.227	0.0000000E+000	0.0000000E+000	0.0000000E+000	-59.227	0.0000000E+000	0.0000000E+000	0.0000000E+000	-30.773	0.0000000E+000	0.0000000E+000	0.0000000E+000	30.773	1.67932	59.227	-2.75353e-06	-2.6034e-06	28139.5
14.6852	16.8327	8.50064	18.8574	-26.7941	13.664	0.270667	-0.00869357	1274.94	259.077	1	11	0.00466944	0.000247618	0	6.76168e-06	0.0473359	0.0239049	0.0530295	26.7941	259077	513018	574724	-63.2059	0.0000000E+000	0.0000000E+000	0.0000000E+000	63.2059	0.0000000E+000	0.0000000E+000	0.0000000E+000	-63.2059	0.0000000E+000	0.0000000E+000	0.0000000E+000	-26.7941	0.0000000E+000	0.0000000E+000	0.0000000E+000	26.7941	1.98017	63.2059	-8.70106e-07	-2.35306e-06	31134.2
10.0032	19.1605	8.12724	20.8129	-22.985	14.1327	0.270665	-0.0088744	1957.66	298.51	1	11	0.00466119	0.000223957	0	7.36348e-06	0.0442325	0.0187619	0.0480471	22.985	298510	703757	764449	-67.015	0.0000000E+000	0.0000000E+000	0.0000000E+000	67.015	0.0000000E+000	0.0000000E+000	0.0000000E+000	-67.015	0.0000000E+000	0.0000000E+000	0.0000000E+000	-22.985	0.0000000E+000	0.0000000E+000	0.0000000E+000	22.985	2.35757	67.015	6.01802e-07	-2.40199e-06	30499.5
6.81719	21.2699	7.56158	22.5741	-19.5706	14.4904	0.270663	-0.00943349	3087.47	346.424	1	11	0.00466278	0.000206555	0	4.38237e-06	0.0417395	0.0148386	0.0442986	19.5706	346424	974455	1.0342e+06	-70.4294	0.0000000E+000	0.0000000E+000	0.0000000E+000	70.4294	0.0000000E+000	0.0000000E+000	0.0000000E+000	-70.4294	0.0000000E+000	0.0000000E+000	0.0000000E+000	-19.5706	0.0000000E+000	0.0000000E+000	0.0000000E+000	19.5706	2.8129	70.4294	-2.98111e-06	-2.5533e-06	28691.7
4.63925	23.1334	6.96242	24.1585	-16.7501	14.9923	0.270668	-0.00827001	4927.34	409.255	1	11	0.00466593	0.000193139	0	6.11091e-06	0.0396371	0.0119295	0.0413934	16.7501	409255	1.3598e+06	1.42005e+06	-73.2499	0.0000000E+000	0.0000000E+000	0.0000000E+000	73.2499	0.0000000E+000	0.0000000E+000	0.0000000E+000	-73.2499	0.0000000E+000	0.0000000E+000	0.0000000E+000	-16.7501	0.0000000E+000	0.0000000E+000	0.0000000E+000	16.7501	3.32262	73.2499	1.72854e-06	-2.23843e-06	32728.9
3.1604	24.8372	6.33797	25.6331	-14.3153	15.7012	0.270663	-0.00765481	7945.63	485.765	1	11	0.00466517	0.000181998	0	4.12691e-06	0.0378007	0.00964602	0.0390121	14.3153	485765	1.90361e+06	1.96462e+06	-75.6847	0.0000000E+000	0.0000000E+000	0.0000000E+000	75.6847	0.0000000E+000	0.0000000E+000	0.0000000E+000	-75.6847	0.0000000E+000	0.0000000E+000	0.0000000E+000	-14.3153	0.0000000E+000	0.0000000E+000	0.0000000E+000	14.3153	3.91879	75.6847	-1.984e-06	-2.07187e-06	35358.5
2.15577	26.214	5.73906	26.8348	-12.349	16.7178	0.270673	-0.00660891	12864	588.384	1	11	0.00466646	0.000173896	0	-1.41379e-06	0.0364028	0.00796971	0.037265	12.349	588384	2.68753e+06	2.75118e+06	-77.651	0.0000000E+000	0.0000000E+000	0.0000000E+000	77.651	0.0000000E+000	0.0000000E+000	0.0000000E+000	-77.651	0.0000000E+000	0.0000000E+000	0.0000000E+000	-12.349	0.0000000E+000	0.0000000E+000	0.0000000E+000	12.349	4.56764	77.651	-5.5407e-06	-1.78885e-06	40955.8
1.46631	27.5568	5.16234	28.0361	-10.6105	18.1911	0.270674	-0.00653413	21025.6	712.861	1	11	0.00466778	0.000166491	0	-6.31608e-06	0.0350584	0.00656766	0.0356683	10.6105	712861	3.80528e+06	3.87147e+06	-79.3895	0.0000000E+000	0.0000000E+000	0.0000000E+000	79.3895	0.0000000E+000	0.0000000E+000	0.0000000E+000	-79.3895	0.0000000E+000	0.0000000E+000	0.0000000E+000	-10.6105	0.0000000E+000	0.0000000E+000	0.0000000E+000	10.6105	5.33803	79.3895	-4.90229e-06	-1.76862e-06	41424.7
1.00006	28.68	4.70399	29.0632	-9.31453	21.3822	0.270682	-0.0060901	33831.8	886.284	1	12	0.00466885	0.000160645	0	-8.58803e-06	0.0339541	0.00556904	0.0344078	9.31453	886284	5.40362e+06	5.47582e+06	-80.6855	0.0000000E+000	0.0000000E+000	0.0000000E+000	80.6855	0.0000000E+000	0.0000000E+000	0.0000000E+000	-80.6855	0.0000000E+000	0.0000000E+000	0.0000000E+000	-9.31453	0.0000000E+000	0.0000000E+000	0.0000000E+000	9.31453	6.09694	80.6855	-2.27195e-06	-1.64848e-06	44446.2
0.681362	29.6776	4.26394	29.9824	-8.17603	24.5021	0.270677	-0.00608776	54781.1	1107.95	1	12	0.00466749	0.000155674	0	-6.43182e-06	0.0330139	0.00474328	0.0333529	8.17603	1.10795e+06	7.7115e+06	7.79068e+06	-81.824	0.0000000E+000	0.0000000E+000	0.0000000E+000	81.824	0.0000000E+000	0.0000000E+000	0.0000000E+000	-81.824	0.0000000E+000	0.0000000E+000	0.0000000E+000	-8.17603	0.0000000E+000	0.0000000E+000	0.0000000E+000	8.17603	6.96014	81.824	2.15621e-06	-1.64782e-06	44462.4
0.464091	30.5856	3.87455	30.8301	-7.21969	29.0669	0.270679	-0.00544559	88510.9	1397.94	1	12	0.00466654	0.000151363	0	-5.91857e-06	0.0321787	0.00407635	0.0324359	7.21969	1.39794e+06	1.10353e+07	1.11235e+07	-82.7803	0.0000000E+000	0.0000000E+000	0.0000000E+000	82.7803	0.0000000E+000	0.0000000E+000	0.0000000E+000	-82.7803	0.0000000E+000	0.0000000E+000	0.0000000E+000	-7.21969	0.0000000E+000	0.0000000E+000	0.0000000E+000	7.21969	7.89399	82.7803	5.13255e-07	-1.474e-06	49706
0.316193	31.3983	3.64444	31.6091	-6.62076	35.7492	0.270674	-0.00474292	138114	1836	1	12	0.00466777	0.000147672	0	-1.37858e-05	0.0314254	0.00364759	0.0316364	6.62076	1.836e+06	1.58179e+07	1.59241e+07	-83.3792	0.0000000E+000	0.0000000E+000	0.0000000E+000	83.3792	0.0000000E+000	0.0000000E+000	0.0000000E+000	-83.3792	0.0000000E+000	0.0000000E+000	0.0000000E+000	-6.62076	0.0000000E+000	0.0000000E+000	0.0000000E+000	6.62076	8.6154	83.3792	-7.86726e-06	-1.28378e-06	57068.9
0.215268	32.0949	3.53439	32.2889	-6.28427	45.547	0.270673	-0.00390451	209183	2506.39	1	12	0.00466837	0.000144581	0	-3.62667e-05	0.0307843	0.00339006	0.0309704	6.28427	2.50639e+06	2.27599e+07	2.28975e+07	-83.7157	0.0000000E+000	0.0000000E+000	0.0000000E+000	83.7157	0.0000000E+000	0.0000000E+000	0.0000000E+000	-83.7157	0.0000000E+000	0.0000000E+000	0.0000000E+000	-6.28427	0.0000000E+000	0.0000000E+000	0.0000000E+000	6.28427	9.08075	83.7157	-2.24808e-05	-1.05685e-06	69323.3
0.146929	32.7575	3.54185	32.9484	-6.17103	59.8837	0.270674	-0.0034464	305832	3534.06	1	12	0.0046669	0.000141643	0	-7.71737e-05	0.0301746	0.00326258	0.0303505	6.17103	3.53406e+06	3.26855e+07	3.2876e+07	-83.829	0.0000000E+000	0.0000000E+000	0.0000000E+000	83.829	0.0000000E+000	0.0000000E+000	0.0000000E+000	-83.829	0.0000000E+000	0.0000000E+000	0.0000000E+000	-6.17103	0.0000000E+000	0.0000000E+000	0.0000000E+000	6.17103	9.2487	83.829	-4.0907e-05	-9.3285e-07	78538.1
0.0999041	33.4545	3.73364	33.6622	-6.36804	80.9536	0.270672	-0.00336322	426683	5249.07	1	12	0.00466713	0.000138646	0	-0.000133485	0.0295236	0.00329493	0.0297069	6.36804	5.24907e+06	4.70333e+07	4.73253e+07	-83.632	0.0000000E+000	0.0000000E+000	0.0000000E+000	83.632	0.0000000E+000	0.0000000E+000	0.0000000E+000	-83.632	0.0000000E+000	0.0000000E+000	0.0000000E+000	-6.36804	0.0000000E+000	0.0000000E+000	0.0000000E+000	6.36804	8.96031	83.632	-5.63111e-05	-9.1033e-07	80479.9
0.0680626	34.2036	4.20288	34.4609	-7.00529	111.866	0.270673	-0.00321619	556371	8275.72	1	12	0.00466715	0.000135433	0	-0.000193465	0.0288018	0.00353911	0.0290184	7.00529	8.27572e+06	6.7349e+07	6.78555e+07	-82.9947	0.0000000E+000	0.0000000E+000	0.0000000E+000	82.9947	0.0000000E+000	0.0000000E+000	0.0000000E+000	-82.9947	0.0000000E+000	0.0000000E+000	0.0000000E+000	-7.00529	0.0000000E+000	0.0000000E+000	0.0000000E+000	7.00529	8.13814	82.9947	-5.99807e-05	-8.70538e-07	84159.6
0.0464052	34.9954	5.02922	35.355	-8.17803	157.189	0.270675	-0.00319324	681950	13799.2	1	12	0.00466742	0.000132016	0	-0.000229575	0.0279969	0.00402347	0.0282846	8.17803	1.37992e+07	9.60206e+07	9.7007e+07	-81.822	0.0000000E+000	0.0000000E+000	0.0000000E+000	81.822	0.0000000E+000	0.0000000E+000	0.0000000E+000	-81.822	0.0000000E+000	0.0000000E+000	0.0000000E+000	-8.17803	0.0000000E+000	0.0000000E+000	0.0000000E+000	8.17803	6.95841	81.822	-3.61098e-05	-8.64329e-07	84764.8
0.0315922	35.7667	6.16877	36.2948	-9.78566	223.75	0.270672	-0.00292656	816661	23591.2	1	12	0.00466916	0.000128645	0	-0.000206616	0.0271513	0.00468285	0.0275522	9.78566	2.35912e+07	1.36783e+08	1.38802e+08	-80.2143	0.0000000E+000	0.0000000E+000	0.0000000E+000	80.2143	0.0000000E+000	0.0000000E+000	0.0000000E+000	-80.2143	0.0000000E+000	0.0000000E+000	0.0000000E+000	-9.78566	0.0000000E+000	0.0000000E+000	0.0000000E+000	9.78566	5.79803	80.2143	2.29594e-05	-7.92136e-07	92488.1
0.0215268	36.7695	7.56593	37.5399	-11.6272	321.42	0.270668	-0.00206881	977190	39693.3	1	12	0.00466786	0.000124344	0	-0.000105709	0.0260917	0.00536879	0.0266383	11.6272	3.96933e+07	1.92905e+08	1.96946e+08	-78.3728	0.0000000E+000	0.0000000E+000	0.0000000E+000	78.3728	0.0000000E+000	0.0000000E+000	0.0000000E+000	-78.3728	0.0000000E+000	0.0000000E+000	0.0000000E+000	-11.6272	0.0000000E+000	0.0000000E+000	0.0000000E+000	11.6272	4.85989	78.3728	0.000100907	-5.59961e-07	130832
0.0146812	38.2154	9.43153	39.362	-13.8635	464.616	0.270667	-0.000895184	1.14942e+06	65991.3	1	12	0.00466705	0.000118567	0	4.8446e-05	0.0246651	0.00608733	0.0254052	13.8635	6.59913e+07	2.67388e+08	2.75411e+08	-76.1365	0.0000000E+000	0.0000000E+000	0.0000000E+000	76.1365	0.0000000E+000	0.0000000E+000	0.0000000E+000	-76.1365	0.0000000E+000	0.0000000E+000	0.0000000E+000	-13.8635	0.0000000E+000	0.0000000E+000	0.0000000E+000	13.8635	4.05188	76.1365	0.000154155	-2.42297e-07	302359
0.0100092	39.9949	12.1306	41.7941	-16.8727	674.637	0.270653	-0.000307049	1.31081e+06	110427	1	12	0.0046695	0.000111727	0	0.000140695	0.0228968	0.00694467	0.0239268	16.8727	1.10427e+08	3.64081e+08	3.80459e+08	-73.1273	0.0000000E+000	0.0000000E+000	0.0000000E+000	73.1273	0.0000000E+000	0.0000000E+000	0.0000000E+000	-73.1273	0.0000000E+000	0.0000000E+000	0.0000000E+000	-16.8727	0.0000000E+000	0.0000000E+000	0.0000000E+000	16.8727	3.29704	73.1273	9.22491e-05	-8.31037e-08	881465