File: txt/17711_R287_UA663_SOC00_C01.mpt
EC-Lab ASCII FILE
Nb header lines : 63

Potentio Electrochemical Impedance Spectroscopy

Run on channel : 1 (SN 66354)
User :
CE vs. WE compliance from -10 V to 10 V
Electrode connection : standard
Potential control : Ewe
Ewe ctrl range : min = -10.00 V, max = 10.00 V
Safety Limits :
	Do not start on E overload
Acquisition started on : 09/22/2025 10:24:53.423
Loaded Setting File :  C:\Users\Celltest\OneDrive - store-dot.com\Documents\EC-Lab\Data\txt_done\14380_R229_UA592_SOC00_C01.mpr
Saved on :
	File : 17711_R287_UA663_SOC00_C01.mpr
	Directory : C:\Users\Celltest\OneDrive - store-dot.com\Documents\EC-Lab\Data\Charmaine\
	Host : 169.254.61.224
Device : VMP-3e (SN .003165)
Address : USB
EC-LAB for windows v11.62 (software)
Internet server v27.00 (firmware)
Command interpretor v12.03 (firmware)
Electrode material :
Initial state :
Electrolyte :
Comments :
Electrode surface area : 0.001 cm²
Characteristic mass : 0.001 g
Equivalent Weight : 0.000 g/eq.
Density : 0.000 g/cm3
Volume (V) : 0.001 cm³
Cycle Definition : Charge/Discharge alternance
Mode                Single sine
E (V)               0.0000
vs.                 Eoc
tE (h:m:s)          0:00:0.0000
record              0
dI                  0.000
unit dI             mA
dt (s)              0.000
fi                  100.000
unit fi             kHz
ff                  10.000
unit ff             mHz
Nd                  6
Points              per decade
spacing             Logarithmic
Va (mV)             5.0
pw                  0.10
Na                  2
corr                0
E range min (V)     -10.000
E range max (V)     10.000
I Range             Auto
Bandwidth           5
nc cycles           0
goto Ns'            0
nr cycles           0
inc. cycle          0

freq/Hz	Re(Z)/Ohm	-Im(Z)/Ohm	|Z|/Ohm	Phase(Z)/deg	time/s	<Ewe>/V	<I>/mA	Cs/µF	Cp/µF	cycle number	I Range	|Ewe|/V	|I|/A	Ns	(Q-Qo)/mA.h	Re(Y)/Ohm-1	Im(Y)/Ohm-1	|Y|/Ohm-1	Phase(Y)/deg	Re(C)/nF	Im(C)/nF	|C|/nF	Phase(C)/deg	Re(M)	Im(M)	|M|	Phase(M)/deg	Re(Permittivity)	Im(Permittivity)	|Permittivity|	Phase(Permittivity)/deg	Re(Resistivity)/Ohm.cm	Im(Resistivity)/Ohm.cm	|Resistivity|/Ohm.cm	Phase(Resistivity)/deg	Re(Conductivity)/mS/cm	Im(Conductivity)/mS/cm	|Conductivity|/mS/cm	Phase(Conductivity)/deg	Tan(Delta)	Loss Angle(Delta)/deg	dq/mA.h	Pwe/W	Rwe/Ohm
100004	1.02737	0.221932	1.05106	-12.1898	2.06648	0.269834	0.0792168	7.17106	0.319717	1	9	0.00478176	0.00454945	0	8.71217e-06	0.929966	0.200892	0.951417	12.1898	319.717	1480.03	1514.17	-77.8102	0.0000000E+000	0.0000000E+000	0.0000000E+000	77.8102	0.0000000E+000	0.0000000E+000	0.0000000E+000	-77.8102	0.0000000E+000	0.0000000E+000	0.0000000E+000	-12.1898	0.0000000E+000	0.0000000E+000	0.0000000E+000	12.1898	4.62919	77.8102	8.71217e-06	2.13754e-05	3406.27
68132	1.07804	0.244102	1.10533	-12.7584	2.50349	0.269828	0.0798688	9.56969	0.466721	1	9	0.00548253	0.0049601	0	1.72606e-05	0.882372	0.199797	0.904709	12.7584	466.721	2061.2	2113.38	-77.2416	0.0000000E+000	0.0000000E+000	0.0000000E+000	77.2416	0.0000000E+000	0.0000000E+000	0.0000000E+000	-77.2416	0.0000000E+000	0.0000000E+000	0.0000000E+000	-12.7584	0.0000000E+000	0.0000000E+000	0.0000000E+000	12.7584	4.41635	77.2416	8.54844e-06	2.15508e-05	3378.38
46420.4	1.13664	0.268726	1.16797	-13.3017	3.0815	0.269831	0.0816011	12.7586	0.675392	1	9	0.00504165	0.00431658	0	3.14795e-05	0.833214	0.19699	0.856184	13.3017	675.392	2856.72	2935.48	-76.6983	0.0000000E+000	0.0000000E+000	0.0000000E+000	76.6983	0.0000000E+000	0.0000000E+000	0.0000000E+000	-76.6983	0.0000000E+000	0.0000000E+000	0.0000000E+000	-13.3017	0.0000000E+000	0.0000000E+000	0.0000000E+000	13.3017	4.22973	76.6983	1.42189e-05	2.20185e-05	3306.71
31621.1	1.1995	0.304292	1.2375	-14.2346	3.65949	0.269836	0.0816756	16.5406	1.0001	1	9	0.00513664	0.00415082	0	4.14579e-05	0.783271	0.198701	0.808081	14.2346	1000.1	3942.34	4067.22	-75.7654	0.0000000E+000	0.0000000E+000	0.0000000E+000	75.7654	0.0000000E+000	0.0000000E+000	0.0000000E+000	-75.7654	0.0000000E+000	0.0000000E+000	0.0000000E+000	-14.2346	0.0000000E+000	0.0000000E+000	0.0000000E+000	14.2346	3.94196	75.7654	9.97848e-06	2.2039e-05	3303.76
21544.7	1.26967	0.344574	1.31559	-15.1837	4.09648	0.269835	0.0801295	21.4386	1.47068	1	9	0.00538258	0.00409136	0	5.18213e-05	0.733578	0.199085	0.760113	15.1837	1470.68	5419.09	5615.11	-74.8163	0.0000000E+000	0.0000000E+000	0.0000000E+000	74.8163	0.0000000E+000	0.0000000E+000	0.0000000E+000	-74.8163	0.0000000E+000	0.0000000E+000	0.0000000E+000	-15.1837	0.0000000E+000	0.0000000E+000	0.0000000E+000	15.1837	3.68475	74.8163	1.03634e-05	2.16217e-05	3367.48
14678.6	1.34256	0.388144	1.39754	-16.1249	4.3925	0.26983	0.0796266	27.9346	2.15475	1	9	0.00462334	0.00330819	0	6.08535e-05	0.687391	0.198729	0.715541	16.1249	2154.75	7453.14	7758.37	-73.8751	0.0000000E+000	0.0000000E+000	0.0000000E+000	73.8751	0.0000000E+000	0.0000000E+000	0.0000000E+000	-73.8751	0.0000000E+000	0.0000000E+000	0.0000000E+000	-16.1249	0.0000000E+000	0.0000000E+000	0.0000000E+000	16.1249	3.45893	73.8751	9.03219e-06	2.14856e-05	3388.69
10002.2	1.42393	0.443727	1.49146	-17.3082	4.82948	0.269833	0.0744296	35.8598	3.17406	1	9	0.0050103	0.00335932	0	7.15794e-05	0.640123	0.199477	0.670483	17.3082	3174.06	10185.6	10668.7	-72.6918	0.0000000E+000	0.0000000E+000	0.0000000E+000	72.6918	0.0000000E+000	0.0000000E+000	0.0000000E+000	-72.6918	0.0000000E+000	0.0000000E+000	0.0000000E+000	-17.3082	0.0000000E+000	0.0000000E+000	0.0000000E+000	17.3082	3.20901	72.6918	1.07259e-05	2.00836e-05	3625.35
6811.07	1.51661	0.521695	1.60383	-18.9826	5.20751	0.269629	-0.0632438	44.7907	4.73919	1	9	0.00467966	0.0029178	0	6.88134e-05	0.589599	0.202815	0.623507	18.9826	4739.19	13777.2	14569.6	-71.0174	0.0000000E+000	0.0000000E+000	0.0000000E+000	71.0174	0.0000000E+000	0.0000000E+000	0.0000000E+000	-71.0174	0.0000000E+000	0.0000000E+000	0.0000000E+000	-18.9826	0.0000000E+000	0.0000000E+000	0.0000000E+000	18.9826	2.90708	71.0174	-2.76599e-06	-1.70524e-05	4263.32
4641.49	1.61275	0.613682	1.72556	-20.8328	5.67869	0.269782	0.0880833	55.8753	7.06716	1	9	0.0045118	0.00261468	0	8.10279e-05	0.541633	0.206102	0.579521	20.8328	7067.16	18572.4	19871.6	-69.1672	0.0000000E+000	0.0000000E+000	0.0000000E+000	69.1672	0.0000000E+000	0.0000000E+000	0.0000000E+000	-69.1672	0.0000000E+000	0.0000000E+000	0.0000000E+000	-20.8328	0.0000000E+000	0.0000000E+000	0.0000000E+000	20.8328	2.62799	69.1672	1.22145e-05	2.37633e-05	3062.8
3161.01	1.72846	0.73742	1.87919	-23.1047	6.36868	0.26978	0.0886235	68.2777	10.514	1	9	0.00493651	0.00262693	0	9.59354e-05	0.48946	0.20882	0.532143	23.1047	10514	24644	26793.1	-66.8953	0.0000000E+000	0.0000000E+000	0.0000000E+000	66.8953	0.0000000E+000	0.0000000E+000	0.0000000E+000	-66.8953	0.0000000E+000	0.0000000E+000	0.0000000E+000	-23.1047	0.0000000E+000	0.0000000E+000	0.0000000E+000	23.1047	2.34393	66.8953	1.49075e-05	2.39089e-05	3044.12
2155.69	1.86093	0.901464	2.06778	-25.8462	6.83569	0.26978	0.0870216	81.9003	15.5659	1	9	0.00488504	0.00236246	0	0.000105438	0.435234	0.210834	0.48361	25.8462	15565.9	32133.4	35705	-64.1538	0.0000000E+000	0.0000000E+000	0.0000000E+000	64.1538	0.0000000E+000	0.0000000E+000	0.0000000E+000	-64.1538	0.0000000E+000	0.0000000E+000	0.0000000E+000	-25.8462	0.0000000E+000	0.0000000E+000	0.0000000E+000	25.8462	2.06435	64.1538	9.50279e-06	2.34767e-05	3100.15
1468.59	2.05477	1.13668	2.34822	-28.9509	7.30293	0.26978	0.0902254	95.3415	22.3398	1	9	0.00488996	0.00208241	0	0.000117448	0.372638	0.206139	0.425854	28.9509	22339.8	40383.7	46151	-61.0491	0.0000000E+000	0.0000000E+000	0.0000000E+000	61.0491	0.0000000E+000	0.0000000E+000	0.0000000E+000	-61.0491	0.0000000E+000	0.0000000E+000	0.0000000E+000	-28.9509	0.0000000E+000	0.0000000E+000	0.0000000E+000	28.9509	1.8077	61.0491	1.20096e-05	2.4341e-05	2990.07
1000.32	2.22557	1.40899	2.63408	-32.3376	7.7717	0.269782	0.0895362	112.921	32.3094	1	9	0.00484464	0.00183921	0	0.000127626	0.320761	0.203071	0.379639	32.3376	32309.4	51034.4	60402	-57.6624	0.0000000E+000	0.0000000E+000	0.0000000E+000	57.6624	0.0000000E+000	0.0000000E+000	0.0000000E+000	-57.6624	0.0000000E+000	0.0000000E+000	0.0000000E+000	-32.3376	0.0000000E+000	0.0000000E+000	0.0000000E+000	32.3376	1.57955	57.6624	1.01781e-05	2.41553e-05	3013.11
681.09	2.48571	1.77891	3.05668	-35.5896	8.23743	0.26977	0.0879343	131.36	44.4908	1	9	0.00483702	0.00158244	0	0.000138621	0.266043	0.190395	0.327153	35.5896	44490.8	62168	76448	-54.4104	0.0000000E+000	0.0000000E+000	0.0000000E+000	54.4104	0.0000000E+000	0.0000000E+000	0.0000000E+000	-54.4104	0.0000000E+000	0.0000000E+000	0.0000000E+000	-35.5896	0.0000000E+000	0.0000000E+000	0.0000000E+000	35.5896	1.39732	54.4104	1.09951e-05	2.3722e-05	3067.86
463.961	2.8539	2.26248	3.64192	-38.4063	8.96022	0.269795	-0.0138796	151.619	58.5145	1	10	0.0048871	0.0013419	0	0.000142017	0.215168	0.170579	0.274581	38.4063	58514.6	73810.3	94190.8	-51.5937	0.0000000E+000	0.0000000E+000	0.0000000E+000	51.5937	0.0000000E+000	0.0000000E+000	0.0000000E+000	-51.5937	0.0000000E+000	0.0000000E+000	0.0000000E+000	-38.4063	0.0000000E+000	0.0000000E+000	0.0000000E+000	38.4063	1.2614	51.5937	3.39569e-06	-3.74463e-06	19438.3
316.316	3.32834	2.8528	4.38364	-40.6007	9.42692	0.269793	-0.0148523	176.371	74.6966	1	10	0.00485886	0.00110841	0	0.000139961	0.173204	0.148457	0.228121	40.6007	74696.6	87147.9	114780	-49.3993	0.0000000E+000	0.0000000E+000	0.0000000E+000	49.3993	0.0000000E+000	0.0000000E+000	0.0000000E+000	-49.3993	0.0000000E+000	0.0000000E+000	0.0000000E+000	-40.6007	0.0000000E+000	0.0000000E+000	0.0000000E+000	40.6007	1.16669	49.3993	-2.05611e-06	-4.00704e-06	18165.1
215.345	3.96539	3.55835	5.32787	-41.9033	9.89442	0.269793	-0.0152921	207.7	92.6462	1	10	0.00483873	0.000908193	0	0.000138808	0.139694	0.125355	0.187692	41.9033	92646.2	103244	138718	-48.0967	0.0000000E+000	0.0000000E+000	0.0000000E+000	48.0967	0.0000000E+000	0.0000000E+000	0.0000000E+000	-48.0967	0.0000000E+000	0.0000000E+000	0.0000000E+000	-41.9033	0.0000000E+000	0.0000000E+000	0.0000000E+000	41.9033	1.11439	48.0967	-1.15259e-06	-4.12569e-06	17642.7
146.737	4.79389	4.38404	6.49624	-42.443	10.3574	0.269796	-0.0159238	247.403	112.675	1	10	0.00482447	0.000742655	0	0.000137044	0.113596	0.103884	0.153935	42.443	112675	123209	166962	-47.557	0.0000000E+000	0.0000000E+000	0.0000000E+000	47.557	0.0000000E+000	0.0000000E+000	0.0000000E+000	-47.557	0.0000000E+000	0.0000000E+000	0.0000000E+000	-42.443	0.0000000E+000	0.0000000E+000	0.0000000E+000	42.443	1.09349	47.5569	-1.76357e-06	-4.29617e-06	16942.9
100.032	5.90963	5.31267	7.94658	-41.9551	10.8257	0.269787	-0.015007	299.48	133.855	1	10	0.00481623	0.000606076	0	0.00013525	0.0935836	0.0841302	0.12584	41.9551	133855	148895	200217	-48.0449	0.0000000E+000	0.0000000E+000	0.0000000E+000	48.0449	0.0000000E+000	0.0000000E+000	0.0000000E+000	-48.0449	0.0000000E+000	0.0000000E+000	0.0000000E+000	-41.9551	0.0000000E+000	0.0000000E+000	0.0000000E+000	41.9551	1.11237	48.0449	-1.79406e-06	-4.04869e-06	17977.4
68.104	7.36734	6.28832	9.68611	-40.4821	11.3043	0.269795	-0.0114999	371.632	156.633	1	10	0.00481582	0.000497188	0	0.000133818	0.0785257	0.0670249	0.103241	40.4821	156633	183510	241267	-49.5179	0.0000000E+000	0.0000000E+000	0.0000000E+000	49.5179	0.0000000E+000	0.0000000E+000	0.0000000E+000	-49.5179	0.0000000E+000	0.0000000E+000	0.0000000E+000	-40.4821	0.0000000E+000	0.0000000E+000	0.0000000E+000	40.4821	1.17159	49.5179	-1.43242e-06	-3.10262e-06	23460.6
46.4415	9.20704	7.18891	11.6812	-37.9829	11.7595	0.269792	-0.0181059	476.706	180.552	1	10	0.00480902	0.00041169	0	0.000131993	0.0674756	0.0526853	0.0856078	37.9829	180552	231238	293377	-52.0171	0.0000000E+000	0.0000000E+000	0.0000000E+000	52.0171	0.0000000E+000	0.0000000E+000	0.0000000E+000	-52.0171	0.0000000E+000	0.0000000E+000	0.0000000E+000	-37.9829	0.0000000E+000	0.0000000E+000	0.0000000E+000	37.9829	1.28073	52.0171	-1.82484e-06	-4.88483e-06	14900.7
31.6296	11.3795	7.88146	13.8423	-34.7065	12.2054	0.269788	-0.020111	638.44	206.973	1	10	0.00481022	0.000347501	0	0.000129811	0.0593887	0.0411327	0.0722421	34.7065	206973	298835	363511	-55.2935	0.0000000E+000	0.0000000E+000	0.0000000E+000	55.2935	0.0000000E+000	0.0000000E+000	0.0000000E+000	-55.2935	0.0000000E+000	0.0000000E+000	0.0000000E+000	-34.7065	0.0000000E+000	0.0000000E+000	0.0000000E+000	34.7065	1.44383	55.2935	-2.18253e-06	-5.42571e-06	13414.9
21.5517	13.889	8.26599	16.1626	-30.7589	12.8853	0.269828	-0.00739759	893.394	233.673	1	11	0.00482456	0.000298501	0	0.000127936	0.0531675	0.0316425	0.0618711	30.7589	233673	392631	456905	-59.2411	0.0000000E+000	0.0000000E+000	0.0000000E+000	59.2411	0.0000000E+000	0.0000000E+000	0.0000000E+000	-59.2411	0.0000000E+000	0.0000000E+000	0.0000000E+000	-30.7589	0.0000000E+000	0.0000000E+000	0.0000000E+000	30.7589	1.68026	59.2411	-1.87489e-06	-1.99608e-06	36475.2
14.6852	16.2835	8.1718	18.2189	-26.6496	13.3631	0.269823	-0.0063482	1326.25	266.817	1	11	0.00481097	0.000264064	0	0.000127431	0.049057	0.0246191	0.0548879	26.6496	266817	531670	594865	-63.3504	0.0000000E+000	0.0000000E+000	0.0000000E+000	63.3504	0.0000000E+000	0.0000000E+000	0.0000000E+000	-63.3504	0.0000000E+000	0.0000000E+000	0.0000000E+000	-26.6496	0.0000000E+000	0.0000000E+000	0.0000000E+000	26.6496	1.99264	63.3504	-5.0468e-07	-1.71289e-06	42503.8
10.0032	18.5528	7.81704	20.1324	-22.8476	13.8317	0.269821	-0.00647928	2035.35	306.854	1	11	0.00481098	0.000238967	0	0.000126783	0.045774	0.0192864	0.0496711	22.8476	306854	728282	790288	-67.1524	0.0000000E+000	0.0000000E+000	0.0000000E+000	67.1524	0.0000000E+000	0.0000000E+000	0.0000000E+000	-67.1524	0.0000000E+000	0.0000000E+000	0.0000000E+000	-22.8476	0.0000000E+000	0.0000000E+000	0.0000000E+000	22.8476	2.37338	67.1524	-6.47641e-07	-1.74825e-06	41643.8
6.81719	20.6485	7.26622	21.8896	-19.3871	14.1894	0.269821	-0.00614468	3212.96	354.035	1	11	0.00480961	0.000219721	0	0.000124762	0.0430933	0.0151646	0.0456837	19.3871	354035	1.00606e+06	1.06654e+06	-70.6129	0.0000000E+000	0.0000000E+000	0.0000000E+000	70.6129	0.0000000E+000	0.0000000E+000	0.0000000E+000	-70.6129	0.0000000E+000	0.0000000E+000	0.0000000E+000	-19.3871	0.0000000E+000	0.0000000E+000	0.0000000E+000	19.3871	2.8417	70.6129	-2.0214e-06	-1.65797e-06	43911.3
4.63925	22.3862	6.65847	23.3555	-16.5644	14.6923	0.269828	-0.00596203	5152.26	418.763	1	11	0.00480597	0.000205775	0	0.000123954	0.0410396	0.0122067	0.0428165	16.5644	418763	1.40791e+06	1.46887e+06	-73.4356	0.0000000E+000	0.0000000E+000	0.0000000E+000	73.4356	0.0000000E+000	0.0000000E+000	0.0000000E+000	-73.4356	0.0000000E+000	0.0000000E+000	0.0000000E+000	-16.5644	0.0000000E+000	0.0000000E+000	0.0000000E+000	16.5644	3.36207	73.4356	-8.08367e-07	-1.60872e-06	45257.8
3.1604	23.9368	6.06642	24.6935	-14.2214	15.4012	0.269831	-0.00500032	8301.29	501.009	1	11	0.00481496	0.000194989	0	0.000126309	0.0392554	0.00994871	0.0404965	14.2214	501009	1.97687e+06	2.03937e+06	-75.7786	0.0000000E+000	0.0000000E+000	0.0000000E+000	75.7786	0.0000000E+000	0.0000000E+000	0.0000000E+000	-75.7786	0.0000000E+000	0.0000000E+000	0.0000000E+000	-14.2214	0.0000000E+000	0.0000000E+000	0.0000000E+000	14.2214	3.94578	75.7786	2.35494e-06	-1.34925e-06	53962.8
2.15577	25.3805	5.50546	25.9707	-12.2388	16.4178	0.269844	-0.00343875	13409.9	602.62	1	11	0.00481542	0.000185417	0	0.000125293	0.0376297	0.00816253	0.0385049	12.2388	602619	2.77811e+06	2.84272e+06	-77.7612	0.0000000E+000	0.0000000E+000	0.0000000E+000	77.7612	0.0000000E+000	0.0000000E+000	0.0000000E+000	-77.7612	0.0000000E+000	0.0000000E+000	0.0000000E+000	-12.2388	0.0000000E+000	0.0000000E+000	0.0000000E+000	12.2388	4.61006	77.7612	-1.01556e-06	-9.27927e-07	78471.7
1.46631	26.5689	5.00099	27.0355	-10.6599	17.8911	0.269847	-0.00302516	21703.9	742.645	1	11	0.00481374	0.000178052	0	0.000119709	0.0363501	0.00684206	0.0369884	10.6599	742645	3.94548e+06	4.01476e+06	-79.3401	0.0000000E+000	0.0000000E+000	0.0000000E+000	79.3401	0.0000000E+000	0.0000000E+000	0.0000000E+000	-79.3401	0.0000000E+000	0.0000000E+000	0.0000000E+000	-10.6599	0.0000000E+000	0.0000000E+000	0.0000000E+000	10.6599	5.31274	79.3401	-5.58408e-06	-8.1633e-07	89200.9
1.00006	27.69	4.52171	28.0568	-9.27439	21.0813	0.269848	-0.00351701	35195.7	914.153	1	12	0.0048149	0.000171613	0	0.000111219	0.0351761	0.00574416	0.035642	9.27439	914153	5.59809e+06	5.67224e+06	-80.7256	0.0000000E+000	0.0000000E+000	0.0000000E+000	80.7256	0.0000000E+000	0.0000000E+000	0.0000000E+000	-80.7256	0.0000000E+000	0.0000000E+000	0.0000000E+000	-9.27439	0.0000000E+000	0.0000000E+000	0.0000000E+000	9.27439	6.1238	80.7256	-8.48951e-06	-9.49058e-07	76726.6
0.681362	28.7048	4.10456	28.9967	-8.13769	24.2023	0.269845	-0.00382165	56908.3	1140.28	1	12	0.00481628	0.000166097	0	0.0001078	0.0341394	0.00488167	0.0344866	8.13769	1.14028e+06	7.97439e+06	8.05551e+06	-81.8623	0.0000000E+000	0.0000000E+000	0.0000000E+000	81.8623	0.0000000E+000	0.0000000E+000	0.0000000E+000	-81.8623	0.0000000E+000	0.0000000E+000	0.0000000E+000	-8.13769	0.0000000E+000	0.0000000E+000	0.0000000E+000	8.13769	6.99338	81.8623	-3.41893e-06	-1.03125e-06	70609.5
0.464091	29.5657	3.8051	29.8095	-7.33365	28.7669	0.26984	-0.00398183	90126.2	1468.5	1	12	0.00481763	0.000161614	0	0.000110342	0.0332719	0.00428209	0.0335463	7.33365	1.4685e+06	1.14102e+07	1.15043e+07	-82.6664	0.0000000E+000	0.0000000E+000	0.0000000E+000	82.6664	0.0000000E+000	0.0000000E+000	0.0000000E+000	-82.6664	0.0000000E+000	0.0000000E+000	0.0000000E+000	-7.33365	0.0000000E+000	0.0000000E+000	0.0000000E+000	7.33365	7.77001	82.6664	2.54147e-06	-1.07446e-06	67767.8
0.316193	30.3457	3.53166	30.5505	-6.63827	35.4492	0.269852	-0.00340613	142524	1904.63	1	12	0.00481505	0.00015761	0	0.000118821	0.0325133	0.00378392	0.0327327	6.63827	1.90463e+06	1.63655e+07	1.64759e+07	-83.3617	0.0000000E+000	0.0000000E+000	0.0000000E+000	83.3617	0.0000000E+000	0.0000000E+000	0.0000000E+000	-83.3617	0.0000000E+000	0.0000000E+000	0.0000000E+000	-6.63827	0.0000000E+000	0.0000000E+000	0.0000000E+000	6.63827	8.59248	83.3617	8.47888e-06	-9.19152e-07	79225.4
0.215268	31.1099	3.41553	31.2968	-6.26537	45.247	0.269843	-0.00304232	216463	2578.1	1	12	0.00481318	0.000153791	0	0.000126762	0.0317613	0.00348705	0.0319522	6.26537	2.5781e+06	2.34822e+07	2.36233e+07	-83.7346	0.0000000E+000	0.0000000E+000	0.0000000E+000	83.7346	0.0000000E+000	0.0000000E+000	0.0000000E+000	-83.7346	0.0000000E+000	0.0000000E+000	0.0000000E+000	-6.26537	0.0000000E+000	0.0000000E+000	0.0000000E+000	6.26537	9.10835	83.7346	7.94163e-06	-8.20949e-07	88696.5
0.146929	31.8272	3.46522	32.0153	-6.21367	59.5826	0.269843	-0.00214557	312595	3662.1	1	12	0.0048137	0.000150357	0	0.000124045	0.0310516	0.00338078	0.0312351	6.21367	3.6621e+06	3.36355e+07	3.38342e+07	-83.7863	0.0000000E+000	0.0000000E+000	0.0000000E+000	83.7863	0.0000000E+000	0.0000000E+000	0.0000000E+000	-83.7863	0.0000000E+000	0.0000000E+000	0.0000000E+000	-6.21367	0.0000000E+000	0.0000000E+000	0.0000000E+000	6.21367	9.18475	83.7863	-2.71768e-06	-5.78967e-07	125768
0.0999041	32.5455	3.73199	32.7588	-6.54154	80.6535	0.26984	-0.00138581	426870	5540.16	1	12	0.00481388	0.000146949	0	9.75572e-05	0.0303274	0.00347765	0.0305262	6.54154	5.54016e+06	4.8314e+07	4.86306e+07	-83.4585	0.0000000E+000	0.0000000E+000	0.0000000E+000	83.4585	0.0000000E+000	0.0000000E+000	0.0000000E+000	-83.4585	0.0000000E+000	0.0000000E+000	0.0000000E+000	-6.54154	0.0000000E+000	0.0000000E+000	0.0000000E+000	6.54154	8.72067	83.4585	-2.64876e-05	-3.73947e-07	194716
0.0680626	33.2771	4.21788	33.5434	-7.22372	111.566	0.269837	-0.000845758	554393	8765.81	1	12	0.00481539	0.000143557	0	4.05931e-05	0.0295755	0.0037487	0.0298122	7.22372	8.76581e+06	6.91582e+07	6.97116e+07	-82.7763	0.0000000E+000	0.0000000E+000	0.0000000E+000	82.7763	0.0000000E+000	0.0000000E+000	0.0000000E+000	-82.7763	0.0000000E+000	0.0000000E+000	0.0000000E+000	-7.22372	0.0000000E+000	0.0000000E+000	0.0000000E+000	7.22372	7.88954	82.7763	-5.69641e-05	-2.28217e-07	319048
0.0464052	34.0854	4.88085	34.433	-8.14907	156.89	0.269838	-0.00101539	702681	14118.8	1	12	0.00481379	0.000139801	0	-5.73947e-05	0.0287486	0.00411666	0.0290419	8.14907	1.41188e+07	9.85986e+07	9.96043e+07	-81.8509	0.0000000E+000	0.0000000E+000	0.0000000E+000	81.8509	0.0000000E+000	0.0000000E+000	0.0000000E+000	-81.8509	0.0000000E+000	0.0000000E+000	0.0000000E+000	-8.14907	0.0000000E+000	0.0000000E+000	0.0000000E+000	8.14907	6.98349	81.8509	-9.79878e-05	-2.73991e-07	265748
0.0315922	35.1327	5.94381	35.6319	-9.60248	223.45	0.269838	-0.00155291	847569	23584.5	1	12	0.00481446	0.000135117	0	-0.000169313	0.0276715	0.00468152	0.0280647	9.60248	2.35845e+07	1.39403e+08	1.41384e+08	-80.3975	0.0000000E+000	0.0000000E+000	0.0000000E+000	80.3975	0.0000000E+000	0.0000000E+000	0.0000000E+000	-80.3975	0.0000000E+000	0.0000000E+000	0.0000000E+000	-9.60248	0.0000000E+000	0.0000000E+000	0.0000000E+000	9.60248	5.9108	80.3975	-0.000111918	-4.19035e-07	173762
0.0215268	36.3424	7.56172	37.1208	-11.7538	321.118	0.269832	-0.00207392	977733	40572.1	1	12	0.00481555	0.000129727	0	-0.000239592	0.0263742	0.00548765	0.0269391	11.7538	4.05721e+07	1.94994e+08	1.9917e+08	-78.2462	0.0000000E+000	0.0000000E+000	0.0000000E+000	78.2462	0.0000000E+000	0.0000000E+000	0.0000000E+000	-78.2462	0.0000000E+000	0.0000000E+000	0.0000000E+000	-11.7538	0.0000000E+000	0.0000000E+000	0.0000000E+000	11.7538	4.80611	78.2462	-7.02787e-05	-5.5961e-07	130107
0.0146812	37.6055	9.62457	38.8176	-14.3559	464.313	0.269835	-0.00190207	1.12636e+06	69244.2	1	12	0.00481436	0.000124025	0	-0.000185959	0.0249571	0.0063874	0.0257615	14.3559	6.92442e+07	2.70554e+08	2.79274e+08	-75.6441	0.0000000E+000	0.0000000E+000	0.0000000E+000	75.6441	0.0000000E+000	0.0000000E+000	0.0000000E+000	-75.6441	0.0000000E+000	0.0000000E+000	0.0000000E+000	-14.3559	0.0000000E+000	0.0000000E+000	0.0000000E+000	14.3559	3.90724	75.6441	5.3633e-05	-5.13245e-07	141864
0.0100092	39.1508	12.019	40.9541	-17.066	674.334	0.269836	-0.00128367	1.32299e+06	113945	1	12	0.00481397	0.000117545	0	5.09526e-05	0.0233424	0.00716591	0.0244176	17.066	1.13945e+08	3.71165e+08	3.88262e+08	-72.934	0.0000000E+000	0.0000000E+000	0.0000000E+000	72.934	0.0000000E+000	0.0000000E+000	0.0000000E+000	-72.934	0.0000000E+000	0.0000000E+000	0.0000000E+000	-17.066	0.0000000E+000	0.0000000E+000	0.0000000E+000	17.066	3.25742	72.934	0.000236911	-3.46381e-07	210206