File: txt/17738_R277_UA674_SOC00_C02.mpt
EC-Lab ASCII FILE

Nb header lines : 63

Potentio Electrochemical Impedance Spectroscopy

Run on channel : 2 (SN 66139)
User :
CE vs. WE compliance from -10 V to 10 V
Electrode connection : standard
Potential control : Ewe
Ewe ctrl range : min = -10.00 V, max = 10.00 V
Safety Limits :
	Do not start on E overload
Acquisition started on : 09/22/2025 08:11:08.830
Loaded Setting File :  C:\Users\Celltest\OneDrive - store-dot.com\Documents\EC-Lab\Data\Gyutae\17737_R277_UA674_SOC00_C01.mpr
Saved on :
	File : 17738_R277_UA674_SOC00_C02.mpr
	Directory : C:\Users\Celltest\OneDrive - store-dot.com\Documents\EC-Lab\Data\Gyutae\
	Host : 169.254.61.224
Device : VMP-3e (SN .003165)
Address : USB
EC-LAB for windows v11.62 (software)
Internet server v27.00 (firmware)
Command interpretor v12.03 (firmware)
Electrode material :
Initial state :
Electrolyte :
Comments :
Electrode surface area : 0.001 cm²
Characteristic mass : 0.001 g
Equivalent Weight : 0.000 g/eq.
Density : 0.000 g/cm3
Volume (V) : 0.001 cm³
Cycle Definition : Charge/Discharge alternance
Mode                Single sine
E (V)               0.0000
vs.                 Eoc
tE (h:m:s)          0:00:0.0000
record              0
dI                  0.000
unit dI             mA
dt (s)              0.000
fi                  100.000
unit fi             kHz
ff                  10.000
unit ff             mHz
Nd                  6
Points              per decade
spacing             Logarithmic
Va (mV)             5.0
pw                  0.10
Na                  2
corr                0
E range min (V)     -10.000
E range max (V)     10.000
I Range             Auto
Bandwidth           5
nc cycles           0
goto Ns'            0
nr cycles           0
inc. cycle          0

freq/Hz	Re(Z)/Ohm	-Im(Z)/Ohm	|Z|/Ohm	Phase(Z)/deg	time/s	<Ewe>/V	<I>/mA	Cs/µF	Cp/µF	cycle number	I Range	|Ewe|/V	|I|/A	Ns	(Q-Qo)/mA.h	Re(Y)/Ohm-1	Im(Y)/Ohm-1	|Y|/Ohm-1	Phase(Y)/deg	Re(C)/nF	Im(C)/nF	|C|/nF	Phase(C)/deg	Re(M)	Im(M)	|M|	Phase(M)/deg	Re(Permittivity)	Im(Permittivity)	|Permittivity|	Phase(Permittivity)/deg	Re(Resistivity)/Ohm.cm	Im(Resistivity)/Ohm.cm	|Resistivity|/Ohm.cm	Phase(Resistivity)/deg	Re(Conductivity)/mS/cm	Im(Conductivity)/mS/cm	|Conductivity|/mS/cm	Phase(Conductivity)/deg	Tan(Delta)	Loss Angle(Delta)/deg	dq/mA.h	Pwe/W	Rwe/Ohm
100004	0.991472	0.195403	1.01054	-11.1492	1.86448	0.273441	-0.0152685	8.14466	0.304526	1	9	0.00470825	0.00465912	0	-1.49116e-05	0.97089	0.191346	0.989566	11.1492	304.526	1545.16	1574.88	-78.8508	0.0000000E+000	0.0000000E+000	0.0000000E+000	78.8508	0.0000000E+000	0.0000000E+000	0.0000000E+000	-78.8508	0.0000000E+000	0.0000000E+000	0.0000000E+000	-11.1492	0.0000000E+000	0.0000000E+000	0.0000000E+000	11.1492	5.07399	78.8508	-1.49116e-05	-4.17502e-06	17908.9
68132	1.03675	0.214518	1.05871	-11.6903	2.44249	0.273437	-0.0163672	10.8894	0.447071	1	9	0.00503755	0.00475819	0	-1.83655e-05	0.924951	0.191385	0.944543	11.6903	447.071	2160.66	2206.43	-78.3097	0.0000000E+000	0.0000000E+000	0.0000000E+000	78.3097	0.0000000E+000	0.0000000E+000	0.0000000E+000	-78.3097	0.0000000E+000	0.0000000E+000	0.0000000E+000	-11.6903	0.0000000E+000	0.0000000E+000	0.0000000E+000	11.6903	4.83293	78.3097	-3.45387e-06	-4.47541e-06	16706.4
46420.4	1.0867	0.236995	1.11224	-12.3028	3.02049	0.273429	-0.0140207	14.4668	0.65683	1	9	0.00501899	0.0045125	0	-3.41374e-05	0.878438	0.191576	0.899086	12.3028	656.83	3011.78	3082.57	-77.6972	0.0000000E+000	0.0000000E+000	0.0000000E+000	77.6972	0.0000000E+000	0.0000000E+000	0.0000000E+000	-77.6972	0.0000000E+000	0.0000000E+000	0.0000000E+000	-12.3028	0.0000000E+000	0.0000000E+000	0.0000000E+000	12.3028	4.58532	77.6972	-1.57719e-05	-3.83368e-06	19501.8
31621.1	1.14287	0.270643	1.17448	-13.3228	3.59849	0.273427	-0.0145422	18.5971	0.987534	1	9	0.00507457	0.00432071	0	-4.67324e-05	0.828529	0.196205	0.851444	13.3228	987.534	4170.14	4285.47	-76.6772	0.0000000E+000	0.0000000E+000	0.0000000E+000	76.6772	0.0000000E+000	0.0000000E+000	0.0000000E+000	-76.6772	0.0000000E+000	0.0000000E+000	0.0000000E+000	-13.3228	0.0000000E+000	0.0000000E+000	0.0000000E+000	13.3228	4.22278	76.6772	-1.2595e-05	-3.97623e-06	18802.4
21544.7	1.20625	0.305734	1.24439	-14.2226	4.17648	0.273431	-0.0121212	24.1622	1.4585	1	9	0.00502559	0.00403859	0	-4.58958e-05	0.778972	0.197437	0.803604	14.2226	1458.5	5754.43	5936.39	-75.7775	0.0000000E+000	0.0000000E+000	0.0000000E+000	75.7775	0.0000000E+000	0.0000000E+000	0.0000000E+000	-75.7775	0.0000000E+000	0.0000000E+000	0.0000000E+000	-14.2226	0.0000000E+000	0.0000000E+000	0.0000000E+000	14.2226	3.94543	75.7775	8.36669e-07	-3.31432e-06	22558
14678.6	1.27158	0.345083	1.31757	-15.1833	4.47248	0.273426	-0.0104638	31.4205	2.1553	1	9	0.00482648	0.00366316	0	-4.60891e-05	0.732477	0.19878	0.75897	15.1833	2155.3	7942	8229.25	-74.8167	0.0000000E+000	0.0000000E+000	0.0000000E+000	74.8167	0.0000000E+000	0.0000000E+000	0.0000000E+000	-74.8167	0.0000000E+000	0.0000000E+000	0.0000000E+000	-15.1833	0.0000000E+000	0.0000000E+000	0.0000000E+000	15.1833	3.68486	74.8167	-1.93297e-07	-2.86107e-06	26130.7
10002.2	1.3507	0.395983	1.40755	-16.3395	4.9095	0.273429	-0.0150637	40.1834	3.18035	1	9	0.00485865	0.00345186	0	-5.05332e-05	0.681762	0.199872	0.710457	16.3395	3180.36	10848.2	11304.8	-73.6605	0.0000000E+000	0.0000000E+000	0.0000000E+000	73.6605	0.0000000E+000	0.0000000E+000	0.0000000E+000	-73.6605	0.0000000E+000	0.0000000E+000	0.0000000E+000	-16.3395	0.0000000E+000	0.0000000E+000	0.0000000E+000	16.3395	3.41099	73.6605	-4.44415e-06	-4.11885e-06	18151.6
6811.07	1.44325	0.45438	1.51309	-17.4756	5.28749	0.273276	-0.125554	51.4264	4.63761	1	9	0.00454327	0.00300264	0	-6.07747e-05	0.630395	0.198467	0.660899	17.4756	4637.61	14730.5	15443.3	-72.5244	0.0000000E+000	0.0000000E+000	0.0000000E+000	72.5244	0.0000000E+000	0.0000000E+000	0.0000000E+000	-72.5244	0.0000000E+000	0.0000000E+000	0.0000000E+000	-17.4756	0.0000000E+000	0.0000000E+000	0.0000000E+000	17.4756	3.17632	72.5244	-1.02415e-05	-3.43108e-05	2176.57
4641.49	1.54537	0.526552	1.63261	-18.8155	5.98168	0.273373	-0.0171867	65.1211	6.77391	1	9	0.00501538	0.003072	0	-6.57785e-05	0.579784	0.19755	0.612516	18.8155	6773.91	19880.6	21003	-71.1845	0.0000000E+000	0.0000000E+000	0.0000000E+000	71.1845	0.0000000E+000	0.0000000E+000	0.0000000E+000	-71.1845	0.0000000E+000	0.0000000E+000	0.0000000E+000	-18.8155	0.0000000E+000	0.0000000E+000	0.0000000E+000	18.8155	2.93488	71.1845	-5.00382e-06	-4.69838e-06	15906.1
3161.01	1.6656	0.608908	1.77341	-20.0814	6.44869	0.273375	-0.0121026	82.6879	9.74827	1	9	0.00492151	0.00277517	0	-6.55782e-05	0.529605	0.193613	0.563885	20.0814	9748.27	26665.3	28391.3	-69.9186	0.0000000E+000	0.0000000E+000	0.0000000E+000	69.9186	0.0000000E+000	0.0000000E+000	0.0000000E+000	-69.9186	0.0000000E+000	0.0000000E+000	0.0000000E+000	-20.0814	0.0000000E+000	0.0000000E+000	0.0000000E+000	20.0814	2.73538	69.9186	2.00302e-07	-3.30856e-06	22588.1
2155.69	1.79611	0.703795	1.92907	-21.3975	6.9157	0.273374	-0.0171495	104.903	13.9631	1	9	0.00486365	0.00252124	0	-6.97388e-05	0.482653	0.189125	0.518384	21.3975	13963.1	35634.3	38272.4	-68.6025	0.0000000E+000	0.0000000E+000	0.0000000E+000	68.6025	0.0000000E+000	0.0000000E+000	0.0000000E+000	-68.6025	0.0000000E+000	0.0000000E+000	0.0000000E+000	-21.3975	0.0000000E+000	0.0000000E+000	0.0000000E+000	21.3975	2.55203	68.6025	-4.16064e-06	-4.68822e-06	15940.7
1468.59	1.94193	0.821568	2.10857	-22.9317	7.38294	0.273375	-0.0177268	131.91	20.0257	1	9	0.00483906	0.00229495	0	-7.12102e-05	0.436775	0.184786	0.474255	22.9317	20025.7	47334.5	51396.3	-67.0683	0.0000000E+000	0.0000000E+000	0.0000000E+000	67.0683	0.0000000E+000	0.0000000E+000	0.0000000E+000	-67.0683	0.0000000E+000	0.0000000E+000	0.0000000E+000	-22.9317	0.0000000E+000	0.0000000E+000	0.0000000E+000	22.9317	2.36369	67.0683	-1.47137e-06	-4.84606e-06	15421.6
1000.32	2.10616	0.974424	2.32065	-24.8279	7.85168	0.273372	-0.00970029	163.28	28.788	1	9	0.00481732	0.00207585	0	-7.35959e-05	0.391087	0.180938	0.430915	24.8279	28788	62223.4	68560.2	-65.1721	0.0000000E+000	0.0000000E+000	0.0000000E+000	65.1721	0.0000000E+000	0.0000000E+000	0.0000000E+000	-65.1721	0.0000000E+000	0.0000000E+000	0.0000000E+000	-24.8279	0.0000000E+000	0.0000000E+000	0.0000000E+000	24.8279	2.16144	65.1721	-2.38565e-06	-2.65179e-06	28181.8
681.09	2.31443	1.17104	2.59382	-26.8383	8.31745	0.273369	-0.0154734	199.546	40.6731	1	9	0.00480818	0.0018537	0	-7.46652e-05	0.344003	0.174057	0.385531	26.8383	40673.1	80385.7	90089.7	-63.1617	0.0000000E+000	0.0000000E+000	0.0000000E+000	63.1617	0.0000000E+000	0.0000000E+000	0.0000000E+000	-63.1617	0.0000000E+000	0.0000000E+000	0.0000000E+000	-26.8383	0.0000000E+000	0.0000000E+000	0.0000000E+000	26.8383	1.97638	63.1617	-1.06931e-06	-4.22995e-06	17667
463.961	2.56876	1.41863	2.93445	-28.9102	9.04019	0.273397	-0.0388165	241.808	56.5136	1	10	0.00486481	0.00165783	0	-8.22725e-05	0.298311	0.164746	0.340779	28.9102	56513.6	102331	116899	-61.0898	0.0000000E+000	0.0000000E+000	0.0000000E+000	61.0898	0.0000000E+000	0.0000000E+000	0.0000000E+000	-61.0898	0.0000000E+000	0.0000000E+000	0.0000000E+000	-28.9102	0.0000000E+000	0.0000000E+000	0.0000000E+000	28.9102	1.81073	61.0898	-7.60733e-06	-1.06123e-05	7043.32
316.316	2.91191	1.72275	3.38335	-30.6095	9.50691	0.2734	-0.0397702	292.063	75.7229	1	10	0.00484189	0.00143109	0	-8.71496e-05	0.25438	0.150497	0.295565	30.6095	75723	127992	148714	-59.3905	0.0000000E+000	0.0000000E+000	0.0000000E+000	59.3905	0.0000000E+000	0.0000000E+000	0.0000000E+000	-59.3905	0.0000000E+000	0.0000000E+000	0.0000000E+000	-30.6095	0.0000000E+000	0.0000000E+000	0.0000000E+000	30.6095	1.69027	59.3905	-4.87713e-06	-1.08732e-05	6874.5
215.345	3.36874	2.05076	3.94386	-31.3314	9.97443	0.273399	-0.0386079	360.389	97.4445	1	10	0.00482099	0.0012224	0	-9.08972e-05	0.216583	0.131847	0.253559	31.3314	97444.5	160070	187398	-58.6686	0.0000000E+000	0.0000000E+000	0.0000000E+000	58.6686	0.0000000E+000	0.0000000E+000	0.0000000E+000	-58.6686	0.0000000E+000	0.0000000E+000	0.0000000E+000	-31.3314	0.0000000E+000	0.0000000E+000	0.0000000E+000	31.3314	1.64268	58.6686	-3.74758e-06	-1.05554e-05	7081.43
146.737	3.95969	2.37694	4.61833	-30.9758	10.4374	0.273397	-0.0390493	456.311	120.873	1	10	0.00480987	0.00104147	0	-9.59116e-05	0.185648	0.111442	0.216528	30.9758	120873	201359	234852	-59.0242	0.0000000E+000	0.0000000E+000	0.0000000E+000	59.0242	0.0000000E+000	0.0000000E+000	0.0000000E+000	-59.0242	0.0000000E+000	0.0000000E+000	0.0000000E+000	-30.9758	0.0000000E+000	0.0000000E+000	0.0000000E+000	30.9758	1.66588	59.0242	-5.01438e-06	-1.0676e-05	7001.33
100.032	4.66749	2.6496	5.36711	-29.5823	10.9057	0.273397	-0.037319	600.483	146.346	1	10	0.00480171	0.000894656	0	-0.000101034	0.162033	0.0919814	0.18632	29.5823	146346	257801	296443	-60.4177	0.0000000E+000	0.0000000E+000	0.0000000E+000	60.4177	0.0000000E+000	0.0000000E+000	0.0000000E+000	-60.4177	0.0000000E+000	0.0000000E+000	0.0000000E+000	-29.5823	0.0000000E+000	0.0000000E+000	0.0000000E+000	29.5823	1.76158	60.4177	-5.12263e-06	-1.02029e-05	7325.95
68.104	5.48211	2.79593	6.15393	-27.022	11.3843	0.273402	-0.0345474	835.836	172.532	1	10	0.00479149	0.000778606	0	-0.000105751	0.144758	0.0738282	0.162498	27.022	172532	338292	379748	-62.978	0.0000000E+000	0.0000000E+000	0.0000000E+000	62.978	0.0000000E+000	0.0000000E+000	0.0000000E+000	-62.978	0.0000000E+000	0.0000000E+000	0.0000000E+000	-27.022	0.0000000E+000	0.0000000E+000	0.0000000E+000	27.022	1.96075	62.978	-4.71724e-06	-9.44534e-06	7913.82
46.4415	6.32405	2.82896	6.92796	-24.1006	11.8395	0.273394	-0.0393995	1211.4	201.99	1	10	0.0047896	0.000691343	0	-0.000110351	0.13176	0.0589408	0.144343	24.1006	201990	451542	494661	-65.8994	0.0000000E+000	0.0000000E+000	0.0000000E+000	65.8994	0.0000000E+000	0.0000000E+000	0.0000000E+000	-65.8994	0.0000000E+000	0.0000000E+000	0.0000000E+000	-24.1006	0.0000000E+000	0.0000000E+000	0.0000000E+000	24.1006	2.23547	65.8994	-4.59945e-06	-1.07716e-05	6939.03
31.6296	7.14492	2.72556	7.64713	-20.8802	12.2864	0.273388	-0.0409529	1846.17	234.523	1	10	0.0047885	0.000626183	0	-0.000115203	0.12218	0.0466078	0.130768	20.8802	234523	614792	658004	-69.1198	0.0000000E+000	0.0000000E+000	0.0000000E+000	69.1198	0.0000000E+000	0.0000000E+000	0.0000000E+000	-69.1198	0.0000000E+000	0.0000000E+000	0.0000000E+000	-20.8802	0.0000000E+000	0.0000000E+000	0.0000000E+000	20.8802	2.62146	69.1198	-4.8518e-06	-1.1196e-05	6675.66
21.5517	7.86186	2.51375	8.25395	-17.7312	12.7254	0.273381	-0.043488	2937.75	272.481	1	10	0.00478295	0.000579474	0	-0.000118544	0.115399	0.0368976	0.121154	17.7312	272481	852195	894697	-72.2688	0.0000000E+000	0.0000000E+000	0.0000000E+000	72.2688	0.0000000E+000	0.0000000E+000	0.0000000E+000	-72.2688	0.0000000E+000	0.0000000E+000	0.0000000E+000	-17.7312	0.0000000E+000	0.0000000E+000	0.0000000E+000	17.7312	3.12754	72.2688	-3.34156e-06	-1.18888e-05	6286.36
14.6852	8.4992	2.27859	8.79934	-15.0078	13.203	0.273401	-0.0335509	4756.36	318.94	1	10	0.00478613	0.00054392	0	-0.00012319	0.109769	0.0294284	0.113645	15.0078	318940	1.18965e+06	1.23166e+06	-74.9922	0.0000000E+000	0.0000000E+000	0.0000000E+000	74.9922	0.0000000E+000	0.0000000E+000	0.0000000E+000	-74.9922	0.0000000E+000	0.0000000E+000	0.0000000E+000	-15.0078	0.0000000E+000	0.0000000E+000	0.0000000E+000	15.0078	3.73002	74.9922	-4.64589e-06	-9.17285e-06	8148.82
10.0032	9.03556	2.0183	9.25823	-12.5916	13.6707	0.273395	-0.0351491	7883.07	374.637	1	10	0.00478633	0.000516981	0	-0.000131571	0.105414	0.0235467	0.108012	12.5916	374637	1.67718e+06	1.71851e+06	-77.4084	0.0000000E+000	0.0000000E+000	0.0000000E+000	77.4084	0.0000000E+000	0.0000000E+000	0.0000000E+000	-77.4084	0.0000000E+000	0.0000000E+000	0.0000000E+000	-12.5916	0.0000000E+000	0.0000000E+000	0.0000000E+000	12.5916	4.47681	77.4084	-8.38068e-06	-9.60959e-06	7778.17
6.81719	9.47012	1.77808	9.63559	-10.6339	14.0284	0.273392	-0.0400496	13130	447.104	1	10	0.00478147	0.00049623	0	-0.00013059	0.102	0.0191511	0.103782	10.6339	447104	2.38129e+06	2.4229e+06	-79.3661	0.0000000E+000	0.0000000E+000	0.0000000E+000	79.3661	0.0000000E+000	0.0000000E+000	0.0000000E+000	-79.3661	0.0000000E+000	0.0000000E+000	0.0000000E+000	-10.6339	0.0000000E+000	0.0000000E+000	0.0000000E+000	10.6339	5.32604	79.3661	9.80551e-07	-1.09493e-05	6826.35
4.63925	9.90267	1.5493	10.0231	-8.89203	14.8003	0.273429	-0.0218724	22142.9	529.056	1	11	0.00478976	0.000477871	0	-0.000138459	0.0985701	0.0154216	0.0997692	8.89203	529057	3.38156e+06	3.4227e+06	-81.108	0.0000000E+000	0.0000000E+000	0.0000000E+000	81.108	0.0000000E+000	0.0000000E+000	0.0000000E+000	-81.108	0.0000000E+000	0.0000000E+000	0.0000000E+000	-8.89203	0.0000000E+000	0.0000000E+000	0.0000000E+000	8.89203	6.39169	81.108	-7.86892e-06	-5.98055e-06	12501.1
3.1604	10.2151	1.32864	10.3012	-7.41063	15.5092	0.273422	-0.0211798	37902.9	630.541	1	11	0.00478866	0.000464866	0	-0.000135012	0.0962657	0.0125209	0.0970765	7.41063	630542	4.84786e+06	4.88869e+06	-82.5894	0.0000000E+000	0.0000000E+000	0.0000000E+000	82.5894	0.0000000E+000	0.0000000E+000	0.0000000E+000	-82.5894	0.0000000E+000	0.0000000E+000	0.0000000E+000	-7.41063	0.0000000E+000	0.0000000E+000	0.0000000E+000	7.41063	7.68841	82.5894	3.44723e-06	-5.79102e-06	12909.5
2.15577	10.4877	1.15576	10.5512	-6.2887	16.5248	0.273431	-0.0185886	63877.9	766.446	1	11	0.00479069	0.000454042	0	-0.000141822	0.0942056	0.0103816	0.0947759	6.2887	766446	6.95496e+06	6.99707e+06	-83.7113	0.0000000E+000	0.0000000E+000	0.0000000E+000	83.7113	0.0000000E+000	0.0000000E+000	0.0000000E+000	-83.7113	0.0000000E+000	0.0000000E+000	0.0000000E+000	-6.2887	0.0000000E+000	0.0000000E+000	0.0000000E+000	6.2887	9.0743	83.7113	-6.81017e-06	-5.0827e-06	14709.6
1.46631	10.6954	1.01009	10.743	-5.39511	17.998	0.27343	-0.0170985	107457	949.961	1	11	0.00478961	0.000445837	0	-0.000160407	0.0926717	0.00875208	0.0930841	5.39511	949961	1.00587e+07	1.01035e+07	-84.6049	0.0000000E+000	0.0000000E+000	0.0000000E+000	84.6049	0.0000000E+000	0.0000000E+000	0.0000000E+000	-84.6049	0.0000000E+000	0.0000000E+000	0.0000000E+000	-5.39511	0.0000000E+000	0.0000000E+000	0.0000000E+000	5.39511	10.5885	84.6049	-1.85845e-05	-4.67523e-06	15991.5
1.00006	10.8805	0.91234	10.9187	-4.79309	20.1381	0.273431	-0.0166302	174436	1217.89	1	11	0.00478899	0.000438606	0	-0.000182618	0.0912659	0.00765274	0.0915862	4.79309	1.21789e+06	1.45245e+07	1.45755e+07	-85.2069	0.0000000E+000	0.0000000E+000	0.0000000E+000	85.2069	0.0000000E+000	0.0000000E+000	0.0000000E+000	-85.2069	0.0000000E+000	0.0000000E+000	0.0000000E+000	-4.79309	0.0000000E+000	0.0000000E+000	0.0000000E+000	4.79309	11.9259	85.2069	-2.22118e-05	-4.54722e-06	16441.8
0.681362	11.0407	0.865465	11.0746	-4.48215	23.2581	0.273434	-0.0165477	269894	1648.29	1	11	0.00479082	0.000432595	0	-0.000200245	0.0900205	0.00705656	0.0902967	4.48215	1.64829e+06	2.10273e+07	2.10918e+07	-85.5178	0.0000000E+000	0.0000000E+000	0.0000000E+000	85.5178	0.0000000E+000	0.0000000E+000	0.0000000E+000	-85.5178	0.0000000E+000	0.0000000E+000	0.0000000E+000	-4.48215	0.0000000E+000	0.0000000E+000	0.0000000E+000	4.48215	12.757	85.5178	-1.76261e-05	-4.52469e-06	16524
0.464091	11.1711	0.89332	11.2067	-4.57205	27.8228	0.27343	-0.0162036	383893	2439.3	1	11	0.00479211	0.000427609	0	-0.000203603	0.088948	0.00711292	0.0892319	4.57205	2.4393e+06	3.05038e+07	3.06011e+07	-85.4279	0.0000000E+000	0.0000000E+000	0.0000000E+000	85.4279	0.0000000E+000	0.0000000E+000	0.0000000E+000	-85.4279	0.0000000E+000	0.0000000E+000	0.0000000E+000	-4.57205	0.0000000E+000	0.0000000E+000	0.0000000E+000	4.57205	12.5051	85.4279	-3.35869e-06	-4.43056e-06	16874.6
0.316193	11.2945	0.970847	11.3361	-4.91295	34.5051	0.273431	-0.0141918	518462	3802.69	1	11	0.00479029	0.00042257	0	-0.000191831	0.0878897	0.00755481	0.0882138	4.91295	3.80269e+06	4.4239e+07	4.44022e+07	-85.0871	0.0000000E+000	0.0000000E+000	0.0000000E+000	85.0871	0.0000000E+000	0.0000000E+000	0.0000000E+000	-85.0871	0.0000000E+000	0.0000000E+000	0.0000000E+000	-4.91295	0.0000000E+000	0.0000000E+000	0.0000000E+000	4.91295	11.6336	85.0871	1.17721e-05	-3.88049e-06	19266.8
0.215268	11.4514	1.1257	11.5066	-5.61426	44.3029	0.27343	-0.00988795	656780	6285.92	1	11	0.00479073	0.000416347	0	-0.000173335	0.0864898	0.00850213	0.0869067	5.61426	6.28592e+06	6.39449e+07	6.42531e+07	-84.3857	0.0000000E+000	0.0000000E+000	0.0000000E+000	84.3857	0.0000000E+000	0.0000000E+000	0.0000000E+000	-84.3857	0.0000000E+000	0.0000000E+000	0.0000000E+000	-5.61426	0.0000000E+000	0.0000000E+000	0.0000000E+000	5.61426	10.1727	84.3857	1.84961e-05	-2.70366e-06	27652.8
0.146929	11.6692	1.39646	11.7525	-6.82418	58.6383	0.273433	-0.00526225	775683	10951.8	1	11	0.00479068	0.000407632	0	-0.000171156	0.0844858	0.0101105	0.0850886	6.82418	1.09518e+07	9.15159e+07	9.21689e+07	-83.1758	0.0000000E+000	0.0000000E+000	0.0000000E+000	83.1758	0.0000000E+000	0.0000000E+000	0.0000000E+000	-83.1758	0.0000000E+000	0.0000000E+000	0.0000000E+000	-6.82418	0.0000000E+000	0.0000000E+000	0.0000000E+000	6.82418	8.35626	83.1758	2.17885e-06	-1.43887e-06	51961.2
0.0999041	11.9285	1.81726	12.0662	-8.66214	79.7083	0.27343	-0.00208359	876637	19884.5	1	11	0.00479142	0.000397095	0	-0.000223251	0.081931	0.0124818	0.0828763	8.66214	1.98845e+07	1.30522e+08	1.32028e+08	-81.3379	0.0000000E+000	0.0000000E+000	0.0000000E+000	81.3379	0.0000000E+000	0.0000000E+000	0.0000000E+000	-81.3379	0.0000000E+000	0.0000000E+000	0.0000000E+000	-8.66214	0.0000000E+000	0.0000000E+000	0.0000000E+000	8.66214	6.56403	81.3379	-5.2095e-05	-5.69715e-07	131230
0.0680626	12.24	2.36852	12.467	-10.9518	110.621	0.273422	-0.000553654	987266	35633.9	1	11	0.00479121	0.00038431	0	-0.000352634	0.0787507	0.0152388	0.0802116	10.9518	3.56339e+07	1.84148e+08	1.87564e+08	-79.0482	0.0000000E+000	0.0000000E+000	0.0000000E+000	79.0482	0.0000000E+000	0.0000000E+000	0.0000000E+000	-79.0482	0.0000000E+000	0.0000000E+000	0.0000000E+000	-10.9518	0.0000000E+000	0.0000000E+000	0.0000000E+000	10.9518	5.16777	79.0482	-0.000129383	-1.51381e-07	493849
0.0464052	12.6699	3.02897	13.027	-13.4452	155.945	0.273428	-0.00159667	1.13229e+06	61215.4	1	11	0.00479042	0.000367731	0	-0.00060292	0.0746599	0.0178487	0.0767638	13.4452	6.12154e+07	2.56059e+08	2.63275e+08	-76.5548	0.0000000E+000	0.0000000E+000	0.0000000E+000	76.5548	0.0000000E+000	0.0000000E+000	0.0000000E+000	-76.5548	0.0000000E+000	0.0000000E+000	0.0000000E+000	-13.4452	0.0000000E+000	0.0000000E+000	0.0000000E+000	13.4452	4.18292	76.5548	-0.000250287	-4.36573e-07	171249
0.0315922	13.2835	4.01223	13.8762	-16.8068	222.505	0.273421	-0.00303299	1.25561e+06	104975	1	11	0.00479201	0.00034534	0	-0.000892747	0.0689875	0.0208375	0.0720658	16.8068	1.04975e+08	3.47545e+08	3.63053e+08	-73.1932	0.0000000E+000	0.0000000E+000	0.0000000E+000	73.1932	0.0000000E+000	0.0000000E+000	0.0000000E+000	-73.1932	0.0000000E+000	0.0000000E+000	0.0000000E+000	-16.8068	0.0000000E+000	0.0000000E+000	0.0000000E+000	16.8068	3.31075	73.1932	-0.000289827	-8.29282e-07	90149.2
0.0215268	13.9418	5.44024	14.9656	-21.3163	320.174	0.273421	-0.00307534	1.35901e+06	179585	1	11	0.00479051	0.000320101	0	-0.00101632	0.0622485	0.0242901	0.0668198	21.3163	1.79585e+08	4.60225e+08	4.94022e+08	-68.6837	0.0000000E+000	0.0000000E+000	0.0000000E+000	68.6837	0.0000000E+000	0.0000000E+000	0.0000000E+000	-68.6837	0.0000000E+000	0.0000000E+000	0.0000000E+000	-21.3163	0.0000000E+000	0.0000000E+000	0.0000000E+000	21.3163	2.56271	68.6837	-0.000123573	-8.40864e-07	88907.6
0.0146812	14.6585	7.16397	16.3154	-26.0459	531.613	0.27343	-0.000990783	1.51323e+06	291753	1	12	0.00478874	0.00029351	0	-0.000775405	0.055067	0.0269126	0.0612916	26.0459	2.91753e+08	5.96968e+08	6.64447e+08	-63.9541	0.0000000E+000	0.0000000E+000	0.0000000E+000	63.9541	0.0000000E+000	0.0000000E+000	0.0000000E+000	-63.9541	0.0000000E+000	0.0000000E+000	0.0000000E+000	-26.0459	0.0000000E+000	0.0000000E+000	0.0000000E+000	26.0459	2.04614	63.9541	0.000240916	-2.7091e-07	275974

0.0100092	15.6585	9.42491	18.2761	-31.0439	741.634	0.273431	-0.0011165	1.68712e+06	448673	1	12	0.0047905	0.000262118	0	-7.7537e-05	0.0468793	0.0282168	0.0547161	31.0439	4.48673e+08	7.45424e+08	8.70037e+08	-58.9561	0.0000000E+000	0.0000000E+000	0.0000000E+000	58.9561	0.0000000E+000	0.0000000E+000	0.0000000E+000	-58.9561	0.0000000E+000	0.0000000E+000	0.0000000E+000	-31.0439	0.0000000E+000	0.0000000E+000	0.0000000E+000	31.0439	1.6614	58.9561	0.000697868	-3.05285e-07	244901