File: txt/17740_R277_UA674_SOC00_C04.mpt
EC-Lab ASCII FILE

Nb header lines : 63

Potentio Electrochemical Impedance Spectroscopy

Run on channel : 4 (SN 66756)
User :
CE vs. WE compliance from -10 V to 10 V
Electrode connection : standard
Potential control : Ewe
Ewe ctrl range : min = -10.00 V, max = 10.00 V
Safety Limits :
	Do not start on E overload
Acquisition started on : 09/22/2025 08:11:34.083
Loaded Setting File :  C:\Users\Celltest\OneDrive - store-dot.com\Documents\EC-Lab\Data\Gyutae\17739_R277_UA674_SOC00_C03.mpr
Saved on :
	File : 17740_R277_UA674_SOC00_C04.mpr
	Directory : C:\Users\Celltest\OneDrive - store-dot.com\Documents\EC-Lab\Data\Gyutae\
	Host : 169.254.61.224
Device : VMP-3e (SN .003165)
Address : USB
EC-LAB for windows v11.62 (software)
Internet server v27.00 (firmware)
Command interpretor v12.03 (firmware)
Electrode material :
Initial state :
Electrolyte :
Comments :
Electrode surface area : 0.001 cm²
Characteristic mass : 0.001 g
Equivalent Weight : 0.000 g/eq.
Density : 0.000 g/cm3
Volume (V) : 0.001 cm³
Cycle Definition : Charge/Discharge alternance
Mode                Single sine
E (V)               0.0000
vs.                 Eoc
tE (h:m:s)          0:00:0.0000
record              0
dI                  0.000
unit dI             mA
dt (s)              0.000
fi                  100.000
unit fi             kHz
ff                  10.000
unit ff             mHz
Nd                  6
Points              per decade
spacing             Logarithmic
Va (mV)             5.0
pw                  0.10
Na                  2
corr                0
E range min (V)     -10.000
E range max (V)     10.000
I Range             Auto
Bandwidth           5
nc cycles           0
goto Ns'            0
nr cycles           0
inc. cycle          0

freq/Hz	Re(Z)/Ohm	-Im(Z)/Ohm	|Z|/Ohm	Phase(Z)/deg	time/s	<Ewe>/V	<I>/mA	Cs/µF	Cp/µF	cycle number	I Range	|Ewe|/V	|I|/A	Ns	(Q-Qo)/mA.h	Re(Y)/Ohm-1	Im(Y)/Ohm-1	|Y|/Ohm-1	Phase(Y)/deg	Re(C)/nF	Im(C)/nF	|C|/nF	Phase(C)/deg	Re(M)	Im(M)	|M|	Phase(M)/deg	Re(Permittivity)	Im(Permittivity)	|Permittivity|	Phase(Permittivity)/deg	Re(Resistivity)/Ohm.cm	Im(Resistivity)/Ohm.cm	|Resistivity|/Ohm.cm	Phase(Resistivity)/deg	Re(Conductivity)/mS/cm	Im(Conductivity)/mS/cm	|Conductivity|/mS/cm	Phase(Conductivity)/deg	Tan(Delta)	Loss Angle(Delta)/deg	dq/mA.h	Pwe/W	Rwe/Ohm
100004	1.41109	0.225744	1.42903	-9.08911	2.07747	0.277716	-0.00539339	7.04997	0.175929	1	9	0.00469626	0.00328633	0	-3.91699e-06	0.690989	0.110544	0.699776	9.08911	175.929	1099.7	1113.69	-80.9109	0.0000000E+000	0.0000000E+000	0.0000000E+000	80.9109	0.0000000E+000	0.0000000E+000	0.0000000E+000	-80.9109	0.0000000E+000	0.0000000E+000	0.0000000E+000	-9.08911	0.0000000E+000	0.0000000E+000	0.0000000E+000	9.08911	6.25082	80.9109	-3.91699e-06	-1.49783e-06	51491.9
68132	1.44421	-0.44301	1.51063	17.0534	2.51548	0.277699	-0.00347266	-5.27297	-0.453491	1	9	0.000758704	0.000502244	0	-1.72516e-06	0.632871	-0.194133	0.661977	-17.0534	-453.491	1478.37	1546.36	-107.053	0.0000000E+000	0.0000000E+000	0.0000000E+000	107.053	0.0000000E+000	0.0000000E+000	0.0000000E+000	-107.053	0.0000000E+000	0.0000000E+000	0.0000000E+000	17.0534	0.0000000E+000	0.0000000E+000	0.0000000E+000	-17.0534	3.25999	72.9466	2.19183e-06	-9.64354e-07	79967.1
46420.4	1.57042	-0.171447	1.57975	6.23046	2.95248	0.277697	-0.00373374	-19.9978	-0.23554	1	9	0.00115395	0.000730464	0	-2.56115e-06	0.629274	-0.0686995	0.633013	-6.23046	-235.54	2157.5	2170.32	-96.2305	0.0000000E+000	0.0000000E+000	0.0000000E+000	96.2305	0.0000000E+000	0.0000000E+000	0.0000000E+000	-96.2305	0.0000000E+000	0.0000000E+000	0.0000000E+000	6.23046	0.0000000E+000	0.0000000E+000	0.0000000E+000	-6.23046	9.1598	83.7695	-8.35988e-07	-1.03685e-06	74375.2
31621.1	-0.105501	-0.0923888	0.140236	138.791	3.1436	0.277795	0.00518031	-54.4783	-23.6452	1	9	3.45121e-05	0.0002461	0	-2.65939e-06	-5.3646	-4.69786	7.13083	-138.791	-23645.2	-27001	35890.8	131.209	0.0000000E+000	0.0000000E+000	0.0000000E+000	-131.209	0.0000000E+000	0.0000000E+000	0.0000000E+000	131.209	0.0000000E+000	0.0000000E+000	0.0000000E+000	138.791	0.0000000E+000	0.0000000E+000	0.0000000E+000	-138.791	1.14192	48.7909	-9.82374e-08	1.43906e-06	53625.1
21544.7	1.70061	0.491216	1.77013	-16.1112	4.25249	0.277677	-0.0373758	15.0386	1.15808	1	9	0.00507511	0.00286708	0	0.000186563	0.542741	0.156769	0.564929	16.1112	1158.08	4009.34	4173.24	-73.8888	0.0000000E+000	0.0000000E+000	0.0000000E+000	73.8888	0.0000000E+000	0.0000000E+000	0.0000000E+000	-73.8888	0.0000000E+000	0.0000000E+000	0.0000000E+000	-16.1112	0.0000000E+000	0.0000000E+000	0.0000000E+000	16.1112	3.46205	73.8888	0.000189223	-1.03784e-05	7429.33
14678.6	1.81017	0.546392	1.89083	-16.7962	4.54948	0.277692	-0.0346904	19.8441	1.65705	1	9	0.00498654	0.00263722	0	0.000185413	0.506306	0.152827	0.528868	16.7962	1657.05	5489.7	5734.33	-73.2038	0.0000000E+000	0.0000000E+000	0.0000000E+000	73.2038	0.0000000E+000	0.0000000E+000	0.0000000E+000	-73.2038	0.0000000E+000	0.0000000E+000	0.0000000E+000	-16.7962	0.0000000E+000	0.0000000E+000	0.0000000E+000	16.7962	3.31294	73.2038	-1.15084e-06	-9.63325e-06	8004.85
10002.2	1.935	0.619074	2.03162	-17.7413	4.8455	0.277669	-0.038644	25.7028	2.38661	1	9	0.0047114	0.00231904	0	0.000184114	0.468809	0.149988	0.492218	17.7413	2386.61	7459.67	7832.15	-72.2587	0.0000000E+000	0.0000000E+000	0.0000000E+000	72.2587	0.0000000E+000	0.0000000E+000	0.0000000E+000	-72.2587	0.0000000E+000	0.0000000E+000	0.0000000E+000	-17.7413	0.0000000E+000	0.0000000E+000	0.0000000E+000	17.7413	3.12564	72.2587	-1.29864e-06	-1.07302e-05	7185.31
6811.07	2.08712	0.709898	2.20455	-18.7848	5.22451	0.277615	-0.089014	32.9162	3.4132	1	9	0.00451629	0.00204862	0	0.000177522	0.429446	0.146069	0.453608	18.7848	3413.2	10034.9	10599.5	-71.2151	0.0000000E+000	0.0000000E+000	0.0000000E+000	71.2151	0.0000000E+000	0.0000000E+000	0.0000000E+000	-71.2151	0.0000000E+000	0.0000000E+000	0.0000000E+000	-18.7848	0.0000000E+000	0.0000000E+000	0.0000000E+000	18.7848	2.94003	71.2151	-6.59157e-06	-2.47116e-05	3118.78
4641.49	2.23983	0.812538	2.38266	-19.9391	5.9187	0.277682	-0.00613937	42.2007	4.90776	1	9	0.0049361	0.00207168	0	0.00017503	0.394541	0.143127	0.419699	19.9391	4907.76	13528.7	14391.3	-70.0609	0.0000000E+000	0.0000000E+000	0.0000000E+000	70.0609	0.0000000E+000	0.0000000E+000	0.0000000E+000	-70.0609	0.0000000E+000	0.0000000E+000	0.0000000E+000	-19.9391	0.0000000E+000	0.0000000E+000	0.0000000E+000	19.9391	2.75659	70.0609	-2.49285e-06	-1.70479e-06	45229.7
3161.01	2.42031	0.937331	2.59547	-21.1703	6.38569	0.277684	-0.00750073	53.7157	7.00573	1	9	0.00485626	0.00187105	0	0.000173539	0.359284	0.139142	0.385286	21.1703	7005.73	18089.7	19398.9	-68.8297	0.0000000E+000	0.0000000E+000	0.0000000E+000	68.8297	0.0000000E+000	0.0000000E+000	0.0000000E+000	-68.8297	0.0000000E+000	0.0000000E+000	0.0000000E+000	-21.1703	0.0000000E+000	0.0000000E+000	0.0000000E+000	21.1703	2.58213	68.8297	-1.49097e-06	-2.08283e-06	37020.9
2155.69	2.63446	1.06836	2.84285	-22.0741	6.85168	0.27767	-0.00930966	69.1061	9.75987	1	9	0.00481824	0.00169486	0	0.000170924	0.325975	0.132194	0.35176	22.0741	9759.87	24066.8	25970.5	-67.9259	0.0000000E+000	0.0000000E+000	0.0000000E+000	67.9259	0.0000000E+000	0.0000000E+000	0.0000000E+000	-67.9259	0.0000000E+000	0.0000000E+000	0.0000000E+000	-22.0741	0.0000000E+000	0.0000000E+000	0.0000000E+000	22.0741	2.4659	67.9259	-2.61462e-06	-2.58501e-06	29826
1468.59	2.86739	1.22563	3.11835	-23.1437	7.31893	0.277674	-0.00660561	88.4218	13.6594	1	9	0.00478733	0.00153522	0	0.000169557	0.294875	0.126041	0.320683	23.1437	13659.4	31956.4	34753.2	-66.8563	0.0000000E+000	0.0000000E+000	0.0000000E+000	66.8563	0.0000000E+000	0.0000000E+000	0.0000000E+000	-66.8563	0.0000000E+000	0.0000000E+000	0.0000000E+000	-23.1437	0.0000000E+000	0.0000000E+000	0.0000000E+000	23.1437	2.33952	66.8563	-1.36733e-06	-1.83421e-06	42036.1
1000.32	3.15813	1.43055	3.46702	-24.3693	8.0417	0.277731	-0.016816	111.219	18.9352	1	10	0.00486637	0.00140362	0	0.000166895	0.262734	0.119012	0.288432	24.3693	18935.2	41802	45890.7	-65.6307	0.0000000E+000	0.0000000E+000	0.0000000E+000	65.6307	0.0000000E+000	0.0000000E+000	0.0000000E+000	-65.6307	0.0000000E+000	0.0000000E+000	0.0000000E+000	-24.3693	0.0000000E+000	0.0000000E+000	0.0000000E+000	24.3693	2.20763	65.6307	-2.66209e-06	-4.67032e-06	16515.9
681.09	3.46681	1.67411	3.84986	-25.7758	8.50745	0.277652	-0.0165791	139.582	26.3943	1	10	0.00482537	0.00125339	0	0.000165631	0.233905	0.112952	0.25975	25.7758	26394.3	54658.3	60697.5	-64.2242	0.0000000E+000	0.0000000E+000	0.0000000E+000	64.2242	0.0000000E+000	0.0000000E+000	0.0000000E+000	-64.2242	0.0000000E+000	0.0000000E+000	0.0000000E+000	-25.7758	0.0000000E+000	0.0000000E+000	0.0000000E+000	25.7758	2.07083	64.2242	-1.26319e-06	-4.60323e-06	16747.1
463.961	3.82196	1.98549	4.30692	-27.4517	8.97622	0.277666	-0.0163572	172.771	36.7175	1	10	0.00479678	0.00111374	0	0.000163098	0.20604	0.107037	0.232184	27.4517	36717.5	70679.2	79647.5	-62.5483	0.0000000E+000	0.0000000E+000	0.0000000E+000	62.5483	0.0000000E+000	0.0000000E+000	0.0000000E+000	-62.5483	0.0000000E+000	0.0000000E+000	0.0000000E+000	-27.4517	0.0000000E+000	0.0000000E+000	0.0000000E+000	27.4517	1.92495	62.5483	-2.53352e-06	-4.54183e-06	16975.1
316.316	4.26334	2.36194	4.87389	-28.9869	9.44292	0.277657	-0.0165885	213.025	50.0283	1	10	0.00477316	0.000979333	0	0.000160498	0.179473	0.0994299	0.205175	28.9869	50028.3	90302	103234	-61.0131	0.0000000E+000	0.0000000E+000	0.0000000E+000	61.0131	0.0000000E+000	0.0000000E+000	0.0000000E+000	-61.0131	0.0000000E+000	0.0000000E+000	0.0000000E+000	-28.9869	0.0000000E+000	0.0000000E+000	0.0000000E+000	28.9869	1.80502	61.0131	-2.5999e-06	-4.6059e-06	16738
215.345	4.83606	2.81028	5.59331	-30.1613	9.91044	0.277685	-0.0171032	262.989	66.3892	1	10	0.00475742	0.000850556	0	0.000158581	0.15458	0.0898279	0.178785	30.1613	66389.2	114246	132135	-59.8387	0.0000000E+000	0.0000000E+000	0.0000000E+000	59.8387	0.0000000E+000	0.0000000E+000	0.0000000E+000	-59.8387	0.0000000E+000	0.0000000E+000	0.0000000E+000	-30.1613	0.0000000E+000	0.0000000E+000	0.0000000E+000	30.1613	1.72085	59.8387	-1.91645e-06	-4.74931e-06	16235.8
146.737	5.58227	3.33168	6.50091	-30.8301	10.3734	0.277662	-0.0171163	325.549	85.5056	1	10	0.00476204	0.00073252	0	0.000156743	0.132088	0.0788343	0.153825	30.8301	85505.6	143266	166842	-59.1699	0.0000000E+000	0.0000000E+000	0.0000000E+000	59.1699	0.0000000E+000	0.0000000E+000	0.0000000E+000	-59.1699	0.0000000E+000	0.0000000E+000	0.0000000E+000	-30.8301	0.0000000E+000	0.0000000E+000	0.0000000E+000	30.8301	1.67551	59.1699	-1.8382e-06	-4.75255e-06	16222.1
100.032	6.4724	3.85604	7.53399	-30.7851	10.8417	0.277655	-0.0161371	412.61	108.087	1	10	0.00474859	0.000630289	0	0.000155024	0.114029	0.0679347	0.132732	30.7851	108087	181425	211182	-59.2149	0.0000000E+000	0.0000000E+000	0.0000000E+000	59.2149	0.0000000E+000	0.0000000E+000	0.0000000E+000	-59.2149	0.0000000E+000	0.0000000E+000	0.0000000E+000	-30.7851	0.0000000E+000	0.0000000E+000	0.0000000E+000	30.7851	1.67851	59.2149	-1.71942e-06	-4.48055e-06	17206
68.104	7.59409	4.25535	8.70507	-29.2641	11.3203	0.277718	-0.0138151	549.177	131.232	1	10	0.00473438	0.000543865	0	0.000153567	0.100215	0.0561553	0.114876	29.2641	131232	234196	268457	-60.7359	0.0000000E+000	0.0000000E+000	0.0000000E+000	60.7359	0.0000000E+000	0.0000000E+000	0.0000000E+000	-60.7359	0.0000000E+000	0.0000000E+000	0.0000000E+000	-29.2641	0.0000000E+000	0.0000000E+000	0.0000000E+000	29.2641	1.7846	60.7359	-1.45667e-06	-3.83671e-06	20102.5
46.4415	8.90493	4.57488	10.0114	-27.1917	11.7755	0.277658	-0.0182335	749.089	156.425	1	10	0.00475199	0.00047466	0	0.000151764	0.0888473	0.045645	0.0998865	27.1917	156425	304479	342311	-62.8083	0.0000000E+000	0.0000000E+000	0.0000000E+000	62.8083	0.0000000E+000	0.0000000E+000	0.0000000E+000	-62.8083	0.0000000E+000	0.0000000E+000	0.0000000E+000	-27.1917	0.0000000E+000	0.0000000E+000	0.0000000E+000	27.1917	1.94648	62.8083	-1.80326e-06	-5.06267e-06	15227.9
31.6296	10.2775	4.66683	11.2874	-24.4221	12.2215	0.277652	-0.0198897	1078.21	184.315	1	10	0.00474695	0.000420553	0	0.000149324	0.0806673	0.0366298	0.0885944	24.4221	184315	405905	445793	-65.5779	0.0000000E+000	0.0000000E+000	0.0000000E+000	65.5779	0.0000000E+000	0.0000000E+000	0.0000000E+000	-65.5779	0.0000000E+000	0.0000000E+000	0.0000000E+000	-24.4221	0.0000000E+000	0.0000000E+000	0.0000000E+000	24.4221	2.20223	65.5779	-2.44028e-06	-5.52241e-06	13959.6
21.5517	11.6101	4.53959	12.4661	-21.3556	12.6603	0.277652	-0.0214899	1626.75	215.722	1	10	0.00474264	0.000380444	0	0.000148171	0.0747098	0.0292117	0.0802177	21.3556	215722	551716	592391	-68.6444	0.0000000E+000	0.0000000E+000	0.0000000E+000	68.6444	0.0000000E+000	0.0000000E+000	0.0000000E+000	-68.6444	0.0000000E+000	0.0000000E+000	0.0000000E+000	-21.3556	0.0000000E+000	0.0000000E+000	0.0000000E+000	21.3556	2.55753	68.6444	-1.15284e-06	-5.96673e-06	12920.1
14.6852	12.9234	4.27768	13.6129	-18.3147	13.396	0.277688	-0.00534811	2533.57	250.176	1	11	0.00474342	0.000348449	0	0.000145437	0.0697384	0.0230837	0.0734595	18.3147	250176	755812	796140	-71.6853	0.0000000E+000	0.0000000E+000	0.0000000E+000	71.6853	0.0000000E+000	0.0000000E+000	0.0000000E+000	-71.6853	0.0000000E+000	0.0000000E+000	0.0000000E+000	-18.3147	0.0000000E+000	0.0000000E+000	0.0000000E+000	18.3147	3.02112	71.6853	-2.73402e-06	-1.4851e-06	51922.6
10.0032	13.995	3.69015	14.4733	-14.7713	13.8647	0.277749	-0.0065192	4311.59	280.278	1	11	0.00471967	0.000326095	0	0.000142258	0.0668093	0.017616	0.0690927	14.7713	280278	1.06296e+06	1.09929e+06	-75.2287	0.0000000E+000	0.0000000E+000	0.0000000E+000	75.2287	0.0000000E+000	0.0000000E+000	0.0000000E+000	-75.2287	0.0000000E+000	0.0000000E+000	0.0000000E+000	-14.7713	0.0000000E+000	0.0000000E+000	0.0000000E+000	14.7713	3.79253	75.2287	-3.17841e-06	-1.8107e-06	42604.8
6.81719	14.9726	3.55521	15.3889	-13.3574	14.2224	0.277667	-0.00654196	6566.73	350.48	1	11	0.00474989	0.000308656	0	0.000145276	0.0632239	0.0150124	0.0649818	13.3574	350480	1.47603e+06	1.51707e+06	-76.6426	0.0000000E+000	0.0000000E+000	0.0000000E+000	76.6426	0.0000000E+000	0.0000000E+000	0.0000000E+000	-76.6426	0.0000000E+000	0.0000000E+000	0.0000000E+000	-13.3574	0.0000000E+000	0.0000000E+000	0.0000000E+000	13.3574	4.21146	76.6426	3.01761e-06	-1.81648e-06	42444
4.63925	15.7994	3.1224	16.1049	-11.1792	14.7253	0.277687	-0.00504461	10987.1	412.992	1	11	0.00474915	0.000294887	0	0.000140503	0.0609145	0.0120384	0.0620927	11.1792	412992	2.08974e+06	2.13016e+06	-78.8208	0.0000000E+000	0.0000000E+000	0.0000000E+000	78.8208	0.0000000E+000	0.0000000E+000	0.0000000E+000	-78.8208	0.0000000E+000	0.0000000E+000	0.0000000E+000	-11.1792	0.0000000E+000	0.0000000E+000	0.0000000E+000	11.1792	5.06001	78.8208	-4.77342e-06	-1.40082e-06	55046.2
3.1604	16.5264	2.71004	16.7471	-9.31262	15.4352	0.277694	-0.0049686	18582.5	486.602	1	11	0.00475275	0.000283795	0	0.000139064	0.0589248	0.00966263	0.0597118	9.31262	486602	2.9674e+06	3.00704e+06	-80.6874	0.0000000E+000	0.0000000E+000	0.0000000E+000	80.6874	0.0000000E+000	0.0000000E+000	0.0000000E+000	-80.6874	0.0000000E+000	0.0000000E+000	0.0000000E+000	-9.31262	0.0000000E+000	0.0000000E+000	0.0000000E+000	9.31262	6.09821	80.6874	-1.43845e-06	-1.37975e-06	55889.9
2.15577	17.0192	2.41101	17.1891	-8.0631	16.4518	0.277694	-0.00417427	30621	602.434	1	11	0.00473608	0.000275528	0	0.000143536	0.0576012	0.00816002	0.0581763	8.0631	602434	4.25256e+06	4.29502e+06	-81.9369	0.0000000E+000	0.0000000E+000	0.0000000E+000	81.9369	0.0000000E+000	0.0000000E+000	0.0000000E+000	-81.9369	0.0000000E+000	0.0000000E+000	0.0000000E+000	-8.0631	0.0000000E+000	0.0000000E+000	0.0000000E+000	8.0631	7.05896	81.9369	4.47215e-06	-1.15917e-06	66525.3
1.46631	17.6347	2.05945	17.7546	-6.66104	17.925	0.277738	-0.00361798	52703.9	709.129	1	11	0.00475999	0.0002681	0	0.000146983	0.0559433	0.00653327	0.0563235	6.66104	709128	6.07215e+06	6.11342e+06	-83.339	0.0000000E+000	0.0000000E+000	0.0000000E+000	83.339	0.0000000E+000	0.0000000E+000	0.0000000E+000	-83.339	0.0000000E+000	0.0000000E+000	0.0000000E+000	-6.66104	0.0000000E+000	0.0000000E+000	0.0000000E+000	6.66104	8.56283	83.339	3.44627e-06	-1.00485e-06	76766.1
1.00006	17.9225	1.86695	18.0195	-5.94693	21.1152	0.27773	-0.00245653	85243.2	915.04	1	12	0.00472786	0.000262375	0	0.000141872	0.0551968	0.00574973	0.0554955	5.94693	915040	8.78428e+06	8.83182e+06	-84.0531	0.0000000E+000	0.0000000E+000	0.0000000E+000	84.0531	0.0000000E+000	0.0000000E+000	0.0000000E+000	-84.0531	0.0000000E+000	0.0000000E+000	0.0000000E+000	-5.94693	0.0000000E+000	0.0000000E+000	0.0000000E+000	5.94693	9.59989	84.0531	-5.11098e-06	-6.82252e-07	113058
0.681362	18.4009	1.65581	18.4753	-5.14193	24.2352	0.277703	-0.00176757	141069	1133.11	1	12	0.00475933	0.000257606	0	0.000128623	0.0539086	0.00485099	0.0541264	5.14193	1.13311e+06	1.25922e+07	1.2643e+07	-84.8581	0.0000000E+000	0.0000000E+000	0.0000000E+000	84.8581	0.0000000E+000	0.0000000E+000	0.0000000E+000	-84.8581	0.0000000E+000	0.0000000E+000	0.0000000E+000	-5.14193	0.0000000E+000	0.0000000E+000	0.0000000E+000	5.14193	11.1129	84.8581	-1.32488e-05	-4.90859e-07	157110
0.464091	18.6024	1.55901	18.6676	-4.7906	28.8	0.277697	-0.00202546	219973	1534.23	1	12	0.00473618	0.000253712	0	0.000111221	0.0533817	0.00447376	0.0535688	4.7906	1.53423e+06	1.83067e+07	1.83709e+07	-85.2094	0.0000000E+000	0.0000000E+000	0.0000000E+000	85.2094	0.0000000E+000	0.0000000E+000	0.0000000E+000	-85.2094	0.0000000E+000	0.0000000E+000	0.0000000E+000	-4.7906	0.0000000E+000	0.0000000E+000	0.0000000E+000	4.7906	11.9322	85.2094	-1.74015e-05	-5.62463e-07	137103
0.316193	18.9053	1.56262	18.9698	-4.72506	35.4822	0.277719	-0.00306503	322117	2185.74	1	12	0.00473969	0.000249855	0	9.84615e-05	0.0525363	0.0043424	0.0527155	4.72506	2.18574e+06	2.6444e+07	2.65342e+07	-85.2749	0.0000000E+000	0.0000000E+000	0.0000000E+000	85.2749	0.0000000E+000	0.0000000E+000	0.0000000E+000	-85.2749	0.0000000E+000	0.0000000E+000	0.0000000E+000	-4.72506	0.0000000E+000	0.0000000E+000	0.0000000E+000	4.72506	12.0984	85.2749	-1.27597e-05	-8.51219e-07	90608.9
0.215268	19.156	1.73631	19.2345	-5.17916	45.28	0.277702	-0.00400999	425808	3469.8	1	12	0.00473931	0.000246395	0	0.000100636	0.0517775	0.00469313	0.0519898	5.17916	3.4698e+06	3.82809e+07	3.84378e+07	-84.8208	0.0000000E+000	0.0000000E+000	0.0000000E+000	84.8208	0.0000000E+000	0.0000000E+000	0.0000000E+000	-84.8208	0.0000000E+000	0.0000000E+000	0.0000000E+000	-5.17916	0.0000000E+000	0.0000000E+000	0.0000000E+000	5.17916	11.0326	84.8208	2.17429e-06	-1.11358e-06	69252.6
0.146929	19.4705	1.99363	19.5723	-5.84627	59.6167	0.277709	-0.0034517	543336	5637.34	1	12	0.00474652	0.000242512	0	0.000127678	0.0508269	0.00520428	0.0510926	5.84627	5.63734e+06	5.50563e+07	5.53441e+07	-84.1537	0.0000000E+000	0.0000000E+000	0.0000000E+000	84.1537	0.0000000E+000	0.0000000E+000	0.0000000E+000	-84.1537	0.0000000E+000	0.0000000E+000	0.0000000E+000	-5.84627	0.0000000E+000	0.0000000E+000	0.0000000E+000	5.84627	9.76635	84.1537	2.70418e-05	-9.58567e-07	80455.6
0.0999041	19.7908	2.38183	19.9337	-6.86255	80.6866	0.277732	-0.00239897	668845	9549.36	1	12	0.00473861	0.000237719	0	0.000178356	0.049807	0.00599428	0.0501664	6.86255	9.54936e+06	7.93464e+07	7.9919e+07	-83.1374	0.0000000E+000	0.0000000E+000	0.0000000E+000	83.1374	0.0000000E+000	0.0000000E+000	0.0000000E+000	-83.1374	0.0000000E+000	0.0000000E+000	0.0000000E+000	-6.86255	0.0000000E+000	0.0000000E+000	0.0000000E+000	6.86255	8.30908	83.1374	5.06784e-05	-6.66271e-07	115771
0.0680626	20.3225	2.99358	20.5418	-8.3796	111.599	0.277732	-0.00115434	781125	16589.1	1	12	0.00474142	0.000230818	0	0.00023462	0.0481614	0.00709434	0.0486811	8.3796	1.65891e+07	1.12619e+08	1.13834e+08	-81.6204	0.0000000E+000	0.0000000E+000	0.0000000E+000	81.6204	0.0000000E+000	0.0000000E+000	0.0000000E+000	-81.6204	0.0000000E+000	0.0000000E+000	0.0000000E+000	-8.3796	0.0000000E+000	0.0000000E+000	0.0000000E+000	8.3796	6.78871	81.6204	5.6264e-05	-3.20599e-07	240598
0.0464052	20.9783	3.85234	21.3291	-10.4055	156.923	0.277738	0.000638362	890286	29042.4	1	12	0.00474385	0.000222412	0	0.000257327	0.0461133	0.00846798	0.0468843	10.4055	2.90424e+07	1.58154e+08	1.60798e+08	-79.5945	0.0000000E+000	0.0000000E+000	0.0000000E+000	79.5945	0.0000000E+000	0.0000000E+000	0.0000000E+000	-79.5945	0.0000000E+000	0.0000000E+000	0.0000000E+000	-10.4055	0.0000000E+000	0.0000000E+000	0.0000000E+000	10.4055	5.44561	79.5945	2.27071e-05	1.77297e-07	435079
0.0315922	21.6642	5.04113	22.243	-13.0993	223.483	0.277742	0.00107225	999338	51331.1	1	12	0.004747	0.000213415	0	0.000171977	0.0437881	0.0101892	0.0449579	13.0993	5.13311e+07	2.20595e+08	2.26489e+08	-76.9007	0.0000000E+000	0.0000000E+000	0.0000000E+000	76.9007	0.0000000E+000	0.0000000E+000	0.0000000E+000	-76.9007	0.0000000E+000	0.0000000E+000	0.0000000E+000	-13.0993	0.0000000E+000	0.0000000E+000	0.0000000E+000	13.0993	4.29749	76.9007	-8.53496e-05	2.97808e-07	259027
0.0215268	22.4517	6.46639	23.3643	-16.0671	321.152	0.27772	0.000433877	1.14335e+06	87578.2	1	12	0.00474558	0.000203112	0	-7.2489e-05	0.0411284	0.0118455	0.0428003	16.0671	8.75782e+07	3.04077e+08	3.16437e+08	-73.9329	0.0000000E+000	0.0000000E+000	0.0000000E+000	73.9329	0.0000000E+000	0.0000000E+000	0.0000000E+000	-73.9329	0.0000000E+000	0.0000000E+000	0.0000000E+000	-16.0671	0.0000000E+000	0.0000000E+000	0.0000000E+000	16.0671	3.47206	73.9329	-0.000244466	1.20496e-07	640089
0.0146812	23.5765	8.38419	25.0229	-19.5763	464.347	0.277711	-0.000471424	1.293e+06	145160	1	12	0.00474672	0.000189695	0	-0.00043839	0.0376534	0.0133902	0.0399634	19.5763	1.4516e+08	4.08191e+08	4.33233e+08	-70.4238	0.0000000E+000	0.0000000E+000	0.0000000E+000	70.4238	0.0000000E+000	0.0000000E+000	0.0000000E+000	-70.4238	0.0000000E+000	0.0000000E+000	0.0000000E+000	-19.5763	0.0000000E+000	0.0000000E+000	0.0000000E+000	19.5763	2.81201	70.4238	-0.000365901	-1.3092e-07	589089

0.0100092	25.0056	11.1587	27.3824	-24.0487	674.368	0.277723	-0.00096359	1.42498e+06	236642	1	12	0.00474502	0.000173287	0	-0.000727851	0.0333498	0.0148823	0.0365198	24.0487	2.36642e+08	5.30293e+08	5.80698e+08	-65.9513	0.0000000E+000	0.0000000E+000	0.0000000E+000	65.9513	0.0000000E+000	0.0000000E+000	0.0000000E+000	-65.9513	0.0000000E+000	0.0000000E+000	0.0000000E+000	-24.0487	0.0000000E+000	0.0000000E+000	0.0000000E+000	24.0487	2.2409	65.9513	-0.000289461	-2.67611e-07	288217