File: txt/17920_R288_UA670_SOC00_C01.mpt
EC-Lab ASCII FILE
Nb header lines : 64

Potentio Electrochemical Impedance Spectroscopy

Run on channel : 1 (SN 66354)
User :
CE vs. WE compliance from -10 V to 10 V
Electrode connection : standard
Potential control : Ewe
Ewe ctrl range : min = -10.00 V, max = 10.00 V
Safety Limits :
	Do not start on E overload
Acquisition started on : 09/29/2025 15:12:49.008
Loaded Setting File :  C:\Users\Celltest\OneDrive - store-dot.com\Documents\EC-Lab\Data\@Biologic Test Protocols\anode half cell EIS SOC00.mps
Saved on :
	File : 17920_R288_UA670_SOC00_C01.mpr
	Directory : C:\Users\Celltest\OneDrive - store-dot.com\Documents\EC-Lab\Data\Charmaine\
	Host : 169.254.61.224
Device : VMP-3e (SN .003165)
Address : USB
EC-LAB for windows v11.62 (software)
Internet server v27.00 (firmware)
Command interpretor v12.03 (firmware)
Electrode material :
Initial state :
Electrolyte :
Comments :
Electrode surface area : 0.001 cm²
Characteristic mass : 0.001 g
Equivalent Weight : 0.000 g/eq.
Density : 0.000 g/cm3
Volume (V) : 0.001 cm³
Record Ece
Cycle Definition : Charge/Discharge alternance
Mode                Single sine
E (V)               0.0000
vs.                 Eoc
tE (h:m:s)          0:00:0.0000
record              0
dI                  0.000
unit dI             mA
dt (s)              0.000
fi                  100.000
unit fi             kHz
ff                  10.000
unit ff             mHz
Nd                  6
Points              per decade
spacing             Logarithmic
Va (mV)             5.0
pw                  0.10
Na                  2
corr                0
E range min (V)     -10.000
E range max (V)     10.000
I Range             Auto
Bandwidth           5
nc cycles           0
goto Ns'            0
nr cycles           0
inc. cycle          0

freq/Hz	Re(Z)/Ohm	-Im(Z)/Ohm	|Z|/Ohm	Phase(Z)/deg	time/s	<Ewe>/V	<I>/mA	Cs/µF	Cp/µF	cycle number	I Range	|Ewe|/V	|I|/A	Ns	(Q-Qo)/mA.h	<Ece>/V	|Ece|/V	Phase(Zce)/deg	|Zce|/Ohm	Re(Zce)/Ohm	-Im(Zce)/Ohm	Phase(Zwe-ce)/deg	|Zwe-ce|/Ohm	Re(Zwe-ce)/Ohm	-Im(Zwe-ce)/Ohm	Re(Y)/Ohm-1	Im(Y)/Ohm-1	|Y|/Ohm-1	Phase(Y)/deg	Re(C)/nF	Im(C)/nF	|C|/nF	Phase(C)/deg	Re(M)	Im(M)	|M|	Phase(M)/deg	Re(Permittivity)	Im(Permittivity)	|Permittivity|	Phase(Permittivity)/deg	Re(Resistivity)/Ohm.cm	Im(Resistivity)/Ohm.cm	|Resistivity|/Ohm.cm	Phase(Resistivity)/deg	Re(Conductivity)/mS/cm	Im(Conductivity)/mS/cm	|Conductivity|/mS/cm	Phase(Conductivity)/deg	Tan(Delta)	Loss Angle(Delta)/deg	dq/mA.h	Pwe/W	Pce/W	Pwe-ce/W	<Ewe-Ece>/V	Rwe/Ohm	Rce/Ohm	Rwe-ce/Ohm		Ewe-Ece/V
100004	0.833952	0.188716	0.855038	-12.7508	1.72552	0.262449	0.0987195	8.43326	0.410811	1	9	0.00493416	0.00577069	0	-4.69387e-06	4.04943e-05	5.07011e-05	93.3705	0.00878595	-0.000516554	-0.00877076	-12.1836	0.85264	0.833435	0.179945	1.1407	0.25813	1.16954	12.7508	410.811	1815.41	1861.31	-77.2492	0.0000000E+000	0.0000000E+000	0.0000000E+000	77.2492	0.0000000E+000	0.0000000E+000	0.0000000E+000	-77.2492	0.0000000E+000	0.0000000E+000	0.0000000E+000	-12.7508	0.0000000E+000	0.0000000E+000	0.0000000E+000	12.7508	4.41909	77.2492	-4.69387e-06	2.59088e-05	3.99757e-09	2.59048e-05	0.262408	2658.53	0.410195	2658.12
68132	0.881814	0.214912	0.907625	-13.6968	2.10855	0.26245	0.102296	10.8695	0.609419	1	9	0.0053423	0.00588602	0	-2.01422e-05	0.000326654	4.05073e-05	84.4024	0.00688195	0.000671277	-0.00684913	-13.2663	0.906681	0.882486	0.208063	1.07044	0.260884	1.10178	13.6968	609.419	2500.53	2573.72	-76.3032	0.0000000E+000	0.0000000E+000	0.0000000E+000	76.3032	0.0000000E+000	0.0000000E+000	0.0000000E+000	-76.3032	0.0000000E+000	0.0000000E+000	0.0000000E+000	-13.6968	0.0000000E+000	0.0000000E+000	0.0000000E+000	13.6968	4.10315	76.3032	-1.54484e-05	2.68476e-05	3.34154e-08	2.68142e-05	0.262123	2565.6	3.19322	2562.4
46420.4	0.932689	0.241919	0.963553	-14.5408	2.49151	0.262436	0.103786	14.1724	0.893367	1	9	0.00543417	0.00563972	0	-3.99372e-05	0.000383886	2.17182e-05	80.7343	0.00385093	0.00062005	-0.00380069	-14.3127	0.963206	0.933309	0.238118	1.00458	0.260566	1.03783	14.5408	893.367	3444.27	3558.25	-75.4592	0.0000000E+000	0.0000000E+000	0.0000000E+000	75.4592	0.0000000E+000	0.0000000E+000	0.0000000E+000	-75.4592	0.0000000E+000	0.0000000E+000	0.0000000E+000	-14.5408	0.0000000E+000	0.0000000E+000	0.0000000E+000	14.5408	3.85538	75.4592	-1.9795e-05	2.72372e-05	3.9842e-08	2.71974e-05	0.262052	2528.63	3.69882	2524.93
31621.1	0.989136	0.281389	1.02838	-15.88	2.99854	0.262439	0.107884	17.8869	1.33918	1	9	0.00509109	0.00495058	0	-3.07125e-05	-0.000150279	1.78018e-05	46.9326	0.0035959	0.00245549	-0.00262699	-15.702	1.03003	0.991592	0.278762	0.935291	0.266071	0.972401	15.88	1339.18	4707.49	4894.27	-74.12	0.0000000E+000	0.0000000E+000	0.0000000E+000	74.12	0.0000000E+000	0.0000000E+000	0.0000000E+000	-74.12	0.0000000E+000	0.0000000E+000	0.0000000E+000	-15.88	0.0000000E+000	0.0000000E+000	0.0000000E+000	15.88	3.51519	74.12	9.22472e-06	2.8313e-05	-1.62127e-08	2.83292e-05	0.262589	2432.6	1.39297	2434
21544.7	1.05749	0.318386	1.10438	-16.7558	3.50552	0.262426	0.0965587	23.2021	1.9284	1	9	0.0051682	0.00467973	0	-2.90457e-05	0.000269422	8.12532e-06	63.8151	0.00173628	0.000766167	-0.00155809	-16.667	1.10467	1.05826	0.316828	0.86704	0.261046	0.905485	16.7558	1928.4	6405	6689	-73.2442	0.0000000E+000	0.0000000E+000	0.0000000E+000	73.2442	0.0000000E+000	0.0000000E+000	0.0000000E+000	-73.2442	0.0000000E+000	0.0000000E+000	0.0000000E+000	-16.7558	0.0000000E+000	0.0000000E+000	0.0000000E+000	16.7558	3.32141	73.2442	1.66682e-06	2.53396e-05	2.6015e-08	2.53135e-05	0.262157	2717.79	2.79024	2715
14678.6	1.12678	0.363598	1.18399	-17.8843	3.76656	0.262434	0.10088	29.8204	2.81231	1	9	0.00487522	0.00411763	0	-2.17628e-05	0.00049835	1.37476e-05	-43.4545	0.00333871	0.00242364	0.0022963	-17.9539	1.187	1.1292	0.365895	0.803791	0.259375	0.844604	17.8843	2812.31	8715.23	9157.75	-72.1157	0.0000000E+000	0.0000000E+000	0.0000000E+000	72.1157	0.0000000E+000	0.0000000E+000	0.0000000E+000	-72.1157	0.0000000E+000	0.0000000E+000	0.0000000E+000	-17.8843	0.0000000E+000	0.0000000E+000	0.0000000E+000	17.8843	3.09896	72.1157	7.28282e-06	2.64744e-05	5.02736e-08	2.64242e-05	0.261936	2601.45	4.94001	2596.51
10002.2	1.21314	0.419765	1.28371	-19.0863	4.14953	0.262435	0.0986077	37.9068	4.05315	1	9	0.00487516	0.0037977	0	-8.40612e-06	0.000250345	8.65032e-06	-87.6421	0.00227778	9.37098e-05	0.00227585	-19.1809	1.28455	1.21324	0.422041	0.736166	0.254724	0.77899	19.0863	4053.15	11713.8	12395.2	-70.9137	0.0000000E+000	0.0000000E+000	0.0000000E+000	70.9137	0.0000000E+000	0.0000000E+000	0.0000000E+000	-70.9137	0.0000000E+000	0.0000000E+000	0.0000000E+000	-19.0863	0.0000000E+000	0.0000000E+000	0.0000000E+000	19.0863	2.89006	70.9137	1.33567e-05	2.58781e-05	2.46859e-08	2.58535e-05	0.262185	2661.41	2.53879	2658.87
6810.42	1.30734	0.471993	1.38993	-19.8513	4.53253	0.262435	0.09749	49.512	5.70944	1	9	0.0048638	0.0034993	0	5.54197e-06	0.000116803	2.55059e-05	-99.3397	0.00728885	-0.00118289	0.00719222	-20.1464	1.39128	1.30616	0.479185	0.676706	0.244313	0.719458	19.8513	5709.44	15814.2	16813.3	-70.1487	0.0000000E+000	0.0000000E+000	0.0000000E+000	70.1487	0.0000000E+000	0.0000000E+000	0.0000000E+000	-70.1487	0.0000000E+000	0.0000000E+000	0.0000000E+000	-19.8513	0.0000000E+000	0.0000000E+000	0.0000000E+000	19.8513	2.76983	70.1487	1.39481e-05	2.55848e-05	1.13872e-08	2.55734e-05	0.262318	2691.91	1.19811	2690.72
4646	1.42097	0.54477	1.52182	-20.9757	4.79759	0.262419	0.0769256	62.8821	8.05798	1	9	0.00467895	0.00307457	0	1.30036e-05	9.77262e-05	7.3536e-06	-48.4987	0.00239175	0.00158486	0.00179128	-21.0173	1.52394	1.42256	0.546562	0.613562	0.235226	0.657107	20.9757	8057.98	21018.4	22510.1	-69.0243	0.0000000E+000	0.0000000E+000	0.0000000E+000	69.0243	0.0000000E+000	0.0000000E+000	0.0000000E+000	-69.0243	0.0000000E+000	0.0000000E+000	0.0000000E+000	-20.9757	0.0000000E+000	0.0000000E+000	0.0000000E+000	20.9757	2.60839	69.0243	7.46165e-06	2.01867e-05	7.51765e-09	2.01792e-05	0.262321	3411.33	1.2704	3410.06
3163.08	1.53887	0.623068	1.66022	-22.0424	5.17168	0.262188	-0.0808465	80.756	11.374	1	9	0.00457046	0.00275292	0	8.64633e-06	0.000307577	5.6568e-06	-70.9812	0.00205484	0.000669627	0.00194266	-22.0958	1.66157	1.53954	0.62501	0.558304	0.22605	0.60233	22.0424	11374	28091.9	30307.1	-67.9576	0.0000000E+000	0.0000000E+000	0.0000000E+000	67.9576	0.0000000E+000	0.0000000E+000	0.0000000E+000	-67.9576	0.0000000E+000	0.0000000E+000	0.0000000E+000	-22.0424	0.0000000E+000	0.0000000E+000	0.0000000E+000	22.0424	2.46983	67.9576	-4.35729e-06	-2.1197e-05	-2.48665e-08	-2.11721e-05	0.261881	3243.04	3.80445	3239.24
2155.69	1.68894	0.725984	1.83837	-23.2602	5.62283	0.262246	0.00629141	101.697	15.8598	1	9	0.00451583	0.00245644	0	8.72986e-06	0.000116803	7.8028e-06	6.97595	0.00317647	0.00315295	-0.00038579	-23.2104	1.84111	1.6921	0.725598	0.499749	0.214814	0.543962	23.2602	15859.8	36896.6	40160.8	-66.7398	0.0000000E+000	0.0000000E+000	0.0000000E+000	66.7398	0.0000000E+000	0.0000000E+000	0.0000000E+000	-66.7398	0.0000000E+000	0.0000000E+000	0.0000000E+000	-23.2602	0.0000000E+000	0.0000000E+000	0.0000000E+000	23.2602	2.32642	66.7398	8.35321e-08	1.6499e-06	7.34859e-10	1.64916e-06	0.262129	41683.2	18.5655	41664.6
1468.59	1.84858	0.839123	2.03012	-24.4147	6.28802	0.262259	0.0110972	129.15	22.065	1	9	0.0049895	0.00245774	0	9.39792e-06	4.04943e-05	6.86718e-06	8.59071	0.0027941	0.00276275	-0.000417369	-24.3718	2.03246	1.85134	0.838706	0.448535	0.203603	0.492583	24.4147	22065	48608.9	53382.5	-65.5853	0.0000000E+000	0.0000000E+000	0.0000000E+000	65.5853	0.0000000E+000	0.0000000E+000	0.0000000E+000	-65.5853	0.0000000E+000	0.0000000E+000	0.0000000E+000	-24.4147	0.0000000E+000	0.0000000E+000	0.0000000E+000	24.4147	2.20299	65.5853	6.6806e-07	2.91035e-06	4.49374e-10	2.9099e-06	0.262219	23632.9	3.64904	23629.2
1000.32	2.02073	0.979388	2.24556	-25.8581	6.73978	0.262255	0.0135188	162.452	30.9019	1	9	0.0049655	0.00221125	0	8.78e-06	7.86489e-05	6.79819e-06	-50.5218	0.00307437	0.00195464	0.00237301	-25.8908	2.24836	2.02269	0.981761	0.400735	0.194225	0.445322	25.8581	30901.9	63758.6	70852.6	-64.1419	0.0000000E+000	0.0000000E+000	0.0000000E+000	64.1419	0.0000000E+000	0.0000000E+000	0.0000000E+000	-64.1419	0.0000000E+000	0.0000000E+000	0.0000000E+000	-25.8581	0.0000000E+000	0.0000000E+000	0.0000000E+000	25.8581	2.06326	64.1419	-6.17923e-07	3.54537e-06	1.06323e-09	3.5443e-06	0.262177	19399.4	5.81776	19393.6
681.09	2.20838	1.17874	2.50327	-28.0915	7.19058	0.262248	0.0139658	198.243	43.9561	1	9	0.00495804	0.00198062	0	1.19911e-05	0.000326654	4.81654e-06	-89.4128	0.00243183	2.49218e-05	0.0024317	-28.1403	2.50444	2.2084	1.18117	0.352418	0.188106	0.399478	28.0915	43956.1	82351.9	93348.7	-61.9085	0.0000000E+000	0.0000000E+000	0.0000000E+000	61.9085	0.0000000E+000	0.0000000E+000	0.0000000E+000	-61.9085	0.0000000E+000	0.0000000E+000	0.0000000E+000	-28.0915	0.0000000E+000	0.0000000E+000	0.0000000E+000	28.0915	1.8735	61.9085	3.21115e-06	3.6625e-06	4.56198e-09	3.65793e-06	0.261921	18777.9	23.3896	18754.5
463.961	2.47112	1.41952	2.84982	-29.875	7.64237	0.262256	0.0198147	241.655	59.958	1	9	0.00495123	0.00173738	0	1.37527e-05	-0.000169356	8.64188e-06	15.9714	0.00497407	0.00478207	-0.00136865	-29.8034	2.85328	2.4759	1.41815	0.30427	0.174787	0.3509	29.875	59958	104375	120371	-60.125	0.0000000E+000	0.0000000E+000	0.0000000E+000	60.125	0.0000000E+000	0.0000000E+000	0.0000000E+000	-60.125	0.0000000E+000	0.0000000E+000	0.0000000E+000	-29.875	0.0000000E+000	0.0000000E+000	0.0000000E+000	29.875	1.74081	60.125	1.76154e-06	5.19653e-06	-3.35574e-09	5.19988e-06	0.262425	13235.4	8.54699	13244
316.316	2.81287	1.72768	3.30107	-31.5584	8.33403	0.262334	-0.0258915	291.231	79.772	1	10	0.00497712	0.00150773	0	1.12525e-05	2.33964e-06	8.08431e-06	-38.5958	0.00536191	0.00419069	0.00334488	-31.5698	3.3064	2.81706	1.73102	0.25813	0.158545	0.302932	31.5584	79772	129879	152421	-58.4416	0.0000000E+000	0.0000000E+000	0.0000000E+000	58.4416	0.0000000E+000	0.0000000E+000	0.0000000E+000	-58.4416	0.0000000E+000	0.0000000E+000	0.0000000E+000	-31.5584	0.0000000E+000	0.0000000E+000	0.0000000E+000	31.5584	1.62812	58.4416	-2.50018e-06	-6.79223e-06	-6.05768e-11	-6.79217e-06	0.262332	10132.1	0.0903635	10132
215.345	3.25903	2.07511	3.86359	-32.4859	8.78358	0.262332	-0.0258617	356.161	102.741	1	10	0.00496291	0.00128453	0	6.79581e-06	-0.000302897	1.39968e-05	-3.44307	0.0108964	0.0108767	0.000654403	-32.4077	3.87312	3.26991	2.07576	0.218326	0.139014	0.258827	32.4859	102741	161359	191291	-57.5141	0.0000000E+000	0.0000000E+000	0.0000000E+000	57.5141	0.0000000E+000	0.0000000E+000	0.0000000E+000	-57.5141	0.0000000E+000	0.0000000E+000	0.0000000E+000	-32.4859	0.0000000E+000	0.0000000E+000	0.0000000E+000	32.4859	1.57054	57.5141	-4.45669e-06	-6.78433e-06	7.83343e-09	-6.79216e-06	0.262634	10143.6	11.7122	10155.4
146.737	3.83066	2.43669	4.53998	-32.4605	9.22954	0.262332	-0.0266369	445.123	128.225	1	10	0.00494767	0.0010898	0	2.02908e-06	-3.5815e-05	4.2437e-06	-100.799	0.00389402	-0.000729628	0.00382505	-32.5061	4.54142	3.82993	2.44051	0.185852	0.11822	0.220265	32.4605	128225	201579	238905	-57.5395	0.0000000E+000	0.0000000E+000	0.0000000E+000	57.5395	0.0000000E+000	0.0000000E+000	0.0000000E+000	-57.5395	0.0000000E+000	0.0000000E+000	0.0000000E+000	-32.4605	0.0000000E+000	0.0000000E+000	0.0000000E+000	32.4605	1.57208	57.5395	-4.76673e-06	-6.9877e-06	9.53999e-10	-6.98866e-06	0.262368	9848.46	1.34456	9849.8
100.032	4.54405	2.75757	5.31532	-31.2516	9.68082	0.262327	-0.0268456	576.972	155.292	1	10	0.00494296	0.000929947	0	1.23547e-07	0.000288499	8.97136e-06	-45.3812	0.00964718	0.00677605	0.00686682	-31.2769	5.32467	4.55083	2.76443	0.160837	0.0976041	0.188136	31.2516	155292	255898	299331	-58.7484	0.0000000E+000	0.0000000E+000	0.0000000E+000	58.7484	0.0000000E+000	0.0000000E+000	0.0000000E+000	-58.7484	0.0000000E+000	0.0000000E+000	0.0000000E+000	-31.2516	0.0000000E+000	0.0000000E+000	0.0000000E+000	31.2516	1.64785	58.7484	-1.90554e-06	-7.04232e-06	-7.74493e-09	-7.03458e-06	0.262039	9771.71	10.7466	9760.96
68.104	5.39412	2.97534	6.16029	-28.8807	10.1434	0.262337	-0.0235137	785.436	183.224	1	10	0.0049374	0.000801489	0	-1.91017e-06	9.77262e-05	1.0386e-05	7.33741	0.0129583	0.0128522	-0.00165494	-28.8096	6.17075	5.40697	2.97369	0.142141	0.0784034	0.16233	28.8807	183224	332174	379356	-61.1193	0.0000000E+000	0.0000000E+000	0.0000000E+000	61.1193	0.0000000E+000	0.0000000E+000	0.0000000E+000	-61.1193	0.0000000E+000	0.0000000E+000	0.0000000E+000	-28.8807	0.0000000E+000	0.0000000E+000	0.0000000E+000	28.8807	1.81294	61.1193	-2.03372e-06	-6.16851e-06	-2.2979e-09	-6.16621e-06	0.262239	11156.8	4.15614	11152.6
46.4415	6.31581	3.04727	7.01251	-25.7565	10.5797	0.262327	-0.0273972	1124.61	212.362	1	10	0.00493025	0.000703065	0	-5.38463e-06	0.000116803	7.47493e-06	-95.2585	0.0106319	-0.000974411	0.0105872	-25.8378	7.01624	6.31483	3.05786	0.128435	0.0619675	0.142602	25.7565	212362	440145	488697	-64.2435	0.0000000E+000	0.0000000E+000	0.0000000E+000	64.2435	0.0000000E+000	0.0000000E+000	0.0000000E+000	-64.2435	0.0000000E+000	0.0000000E+000	0.0000000E+000	-25.7565	0.0000000E+000	0.0000000E+000	0.0000000E+000	25.7565	2.07261	64.2435	-3.47446e-06	-7.18701e-06	-3.20009e-09	-7.18381e-06	0.26221	9574.95	4.26334	9570.69
31.6296	7.22434	2.97059	7.81124	-22.3521	11.0096	0.262319	-0.0282097	1693.88	244.98	1	10	0.00493225	0.00063143	0	-8.44468e-06	-9.30469e-05	1.1967e-05	11.3184	0.0189522	0.0185836	-0.00371956	-22.2752	7.82702	7.24292	2.96687	0.118402	0.0486859	0.128021	22.3521	244980	595779	644180	-67.6479	0.0000000E+000	0.0000000E+000	0.0000000E+000	67.6479	0.0000000E+000	0.0000000E+000	0.0000000E+000	-67.6479	0.0000000E+000	0.0000000E+000	0.0000000E+000	-22.3521	0.0000000E+000	0.0000000E+000	0.0000000E+000	22.3521	2.43195	67.6479	-3.06005e-06	-7.39992e-06	2.62482e-09	-7.40254e-06	0.262412	9298.89	3.29841	9302.19
21.5517	8.06	2.74166	8.51354	-18.786	11.4305	0.26232	-0.0276469	2693.55	279.339	1	10	0.00493708	0.000579909	0	-1.12208e-05	-5.48923e-05	1.2777e-05	18.1892	0.0220327	0.0209318	-0.00687765	-18.697	8.53115	8.08093	2.73478	0.111203	0.0378262	0.11746	18.786	279339	821208	867417	-71.214	0.0000000E+000	0.0000000E+000	0.0000000E+000	71.214	0.0000000E+000	0.0000000E+000	0.0000000E+000	-71.214	0.0000000E+000	0.0000000E+000	0.0000000E+000	-18.786	0.0000000E+000	0.0000000E+000	0.0000000E+000	18.786	2.93983	71.214	-2.77612e-06	-7.25233e-06	1.5176e-09	-7.25385e-06	0.262375	9488.22	1.98548	9490.21
14.6852	8.72222	2.44838	9.05934	-15.6798	11.8912	0.262322	-0.0240802	4426.53	323.316	1	10	0.00493279	0.000544498	0	-1.1885e-05	-1.67377e-05	2.52264e-06	56.7879	0.00463296	0.00253766	-0.00387617	-15.6518	9.06074	8.72475	2.4445	0.106276	0.0298322	0.110383	15.6798	323316	1.1518e+06	1.19631e+06	-74.3203	0.0000000E+000	0.0000000E+000	0.0000000E+000	74.3203	0.0000000E+000	0.0000000E+000	0.0000000E+000	-74.3203	0.0000000E+000	0.0000000E+000	0.0000000E+000	-15.6798	0.0000000E+000	0.0000000E+000	0.0000000E+000	15.6798	3.56245	74.3203	-6.64195e-07	-6.31676e-06	4.03046e-10	-6.31717e-06	0.262339	10893.7	0.69508	10894.4
10.0032	9.2859	2.13296	9.52772	-12.9364	12.3418	0.262317	-0.0265363	7459.3	373.84	1	10	0.00492675	0.000517097	0	-1.49775e-05	9.77262e-05	8.98475e-06	-21.9131	0.0173754	0.01612	0.00648447	-12.9527	9.54488	9.30202	2.13945	0.102293	0.0234966	0.104957	12.9364	373840	1.62752e+06	1.66991e+06	-77.0636	0.0000000E+000	0.0000000E+000	0.0000000E+000	77.0636	0.0000000E+000	0.0000000E+000	0.0000000E+000	-77.0636	0.0000000E+000	0.0000000E+000	0.0000000E+000	-12.9364	0.0000000E+000	0.0000000E+000	0.0000000E+000	12.9364	4.35353	77.0636	-3.09253e-06	-6.9609e-06	-2.59329e-09	-6.95831e-06	0.262219	9885.21	3.68274	9881.53
6.81719	9.73932	1.85952	9.91525	-10.8093	12.6815	0.262362	-0.0151169	12554.9	441.579	1	10	0.00492907	0.00049712	0	-1.40258e-05	-5.48923e-05	4.36644e-06	14.2413	0.00878347	0.00851354	-0.00216078	-10.7879	9.92321	9.74784	1.85736	0.0990652	0.0189144	0.100855	10.8093	441579	2.31279e+06	2.35457e+06	-79.1907	0.0000000E+000	0.0000000E+000	0.0000000E+000	79.1907	0.0000000E+000	0.0000000E+000	0.0000000E+000	-79.1907	0.0000000E+000	0.0000000E+000	0.0000000E+000	-10.8093	0.0000000E+000	0.0000000E+000	0.0000000E+000	10.8093	5.23755	79.1907	9.51691e-07	-3.9661e-06	8.29802e-10	-3.96693e-06	0.262417	17355.5	3.63118	17359.1
4.63925	10.1533	1.65723	10.2876	-9.27013	13.4265	0.262358	-0.0114958	20701	537.185	1	11	0.00493116	0.00047933	0	-2.12092e-05	2.1417e-05	4.58257e-06	-90.9141	0.00956038	-0.000152524	0.00955916	-9.3228	10.289	10.1531	1.66678	0.0959347	0.0156586	0.0972042	9.27013	537185	3.29115e+06	3.3347e+06	-80.7299	0.0000000E+000	0.0000000E+000	0.0000000E+000	80.7299	0.0000000E+000	0.0000000E+000	0.0000000E+000	-80.7299	0.0000000E+000	0.0000000E+000	0.0000000E+000	-9.27013	0.0000000E+000	0.0000000E+000	0.0000000E+000	9.27013	6.12666	80.7299	-7.18335e-06	-3.01601e-06	-2.46204e-10	-3.01576e-06	0.262337	22822.2	1.86303	22820.3
3.1604	10.4852	1.47585	10.5885	-8.01212	14.1194	0.262363	-0.0109379	34122	662.906	1	11	0.00493224	0.00046581	0	-1.78956e-05	0.000307577	1.95309e-06	-3.3974	0.00419288	0.00418551	0.000248475	-8.0103	10.5927	10.4893	1.4761	0.0935201	0.0131636	0.0944419	8.01212	662906	4.70959e+06	4.75602e+06	-81.9879	0.0000000E+000	0.0000000E+000	0.0000000E+000	81.9879	0.0000000E+000	0.0000000E+000	0.0000000E+000	-81.9879	0.0000000E+000	0.0000000E+000	0.0000000E+000	-8.01212	0.0000000E+000	0.0000000E+000	0.0000000E+000	8.01212	7.10446	81.9879	3.31361e-06	-2.86971e-06	-3.36425e-09	-2.86634e-06	0.262056	23986.6	28.1202	23958.5
2.15577	10.7767	1.30415	10.8553	-6.90015	15.123	0.262363	-0.0102623	56609.7	817.075	1	11	0.00492992	0.000454148	0	-1.38055e-05	7.86489e-05	2.91933e-06	-21.2042	0.00642814	0.00599294	0.00232502	-6.90853	10.8615	10.7827	1.30648	0.0914536	0.0110673	0.0921208	6.90015	817075	6.75179e+06	6.80105e+06	-83.0998	0.0000000E+000	0.0000000E+000	0.0000000E+000	83.0998	0.0000000E+000	0.0000000E+000	0.0000000E+000	-83.0998	0.0000000E+000	0.0000000E+000	0.0000000E+000	-6.90015	0.0000000E+000	0.0000000E+000	0.0000000E+000	6.90015	8.26337	83.0998	4.09011e-06	-2.69245e-06	-8.07118e-10	-2.69164e-06	0.262284	25565.7	7.66386	25558.1
1.46631	11.0414	1.19647	11.1061	-6.18456	16.5845	0.262362	-0.00870343	90717.6	1052.87	1	11	0.00493031	0.000443929	0	-1.72285e-05	0.000383886	1.06965e-06	-16.2836	0.0024095	0.00231285	0.000675606	-6.18674	11.1084	11.0437	1.19715	0.0895169	0.00970023	0.0900409	6.18456	1.05287e+06	9.71626e+06	9.77314e+06	-83.8154	0.0000000E+000	0.0000000E+000	0.0000000E+000	83.8154	0.0000000E+000	0.0000000E+000	0.0000000E+000	-83.8154	0.0000000E+000	0.0000000E+000	0.0000000E+000	-6.18456	0.0000000E+000	0.0000000E+000	0.0000000E+000	6.18456	9.22832	83.8154	-3.42302e-06	-2.28345e-06	-3.34112e-09	-2.2801e-06	0.261978	30144.6	44.1074	30100.5
1.00006	11.2623	1.12081	11.318	-5.68325	18.7126	0.262365	-0.00734916	141991	1392.47	1	11	0.00493183	0.000435752	0	-3.23294e-05	0.000250345	4.8703e-06	-14.7413	0.0111768	0.0108089	0.00284398	-5.69215	11.329	11.2731	1.12365	0.0879208	0.00874971	0.0883551	5.68325	1.39247e+06	1.39921e+07	1.40613e+07	-84.3167	0.0000000E+000	0.0000000E+000	0.0000000E+000	84.3167	0.0000000E+000	0.0000000E+000	0.0000000E+000	-84.3167	0.0000000E+000	0.0000000E+000	0.0000000E+000	-5.68325	0.0000000E+000	0.0000000E+000	0.0000000E+000	5.68325	10.0484	84.3167	-1.51009e-05	-1.92816e-06	-1.83982e-09	-1.92632e-06	0.262115	35700	34.0644	35665.9
0.681362	11.4618	1.07416	11.5121	-5.3539	21.823	0.262366	-0.00692945	217457	1893.23	1	11	0.00492981	0.00042823	0	-5.73448e-05	-3.5815e-05	2.85288e-06	35.0366	0.00666203	0.00545478	-0.00382467	-5.33242	11.5171	11.4673	1.07033	0.0864865	0.00810517	0.0868655	5.3539	1.89323e+06	2.02018e+07	2.02903e+07	-84.6461	0.0000000E+000	0.0000000E+000	0.0000000E+000	84.6461	0.0000000E+000	0.0000000E+000	0.0000000E+000	-84.6461	0.0000000E+000	0.0000000E+000	0.0000000E+000	-5.3539	0.0000000E+000	0.0000000E+000	0.0000000E+000	5.3539	10.6705	84.6461	-2.50154e-05	-1.81805e-06	2.48178e-10	-1.8183e-06	0.262402	37862.5	5.16852	37867.7
0.464091	11.6555	1.07054	11.7046	-5.24778	26.3797	0.262365	-0.00813405	320343	2679.82	1	11	0.00493121	0.000421305	0	-8.69693e-05	0.000174035	3.07929e-06	-19.0908	0.00730892	0.00690694	0.0023905	-5.25634	11.7117	11.6624	1.07293	0.0850784	0.00781428	0.0854365	5.24778	2.67982e+06	2.91767e+07	2.92995e+07	-84.7522	0.0000000E+000	0.0000000E+000	0.0000000E+000	84.7522	0.0000000E+000	0.0000000E+000	0.0000000E+000	-84.7522	0.0000000E+000	0.0000000E+000	0.0000000E+000	-5.24778	0.0000000E+000	0.0000000E+000	0.0000000E+000	5.24778	10.8875	84.7522	-2.96245e-05	-2.13409e-06	-1.41561e-09	-2.13267e-06	0.262191	32255.2	21.3959	32233.8
0.316193	11.8421	1.16167	11.8989	-5.6026	33.0531	0.262373	-0.008965	433298	4129.86	1	11	0.00493355	0.000414622	0	-0.000106665	0.000288499	2.66615e-06	-43.2976	0.0064303	0.00467998	0.00440982	-5.62152	11.904	11.8467	1.16608	0.0836399	0.00820479	0.0840414	5.6026	4.12986e+06	4.20999e+07	4.2302e+07	-84.3974	0.0000000E+000	0.0000000E+000	0.0000000E+000	84.3974	0.0000000E+000	0.0000000E+000	0.0000000E+000	-84.3974	0.0000000E+000	0.0000000E+000	0.0000000E+000	-5.6026	0.0000000E+000	0.0000000E+000	0.0000000E+000	5.6026	10.194	84.3974	-1.96962e-05	-2.35218e-06	-2.58639e-09	-2.34959e-06	0.262085	29266.4	32.1806	29234.2
0.215268	12.0232	1.34359	12.098	-6.37634	42.8456	0.26236	-0.0099659	550268	6787.01	1	11	0.00493308	0.000407759	0	-0.000102004	0.000441118	2.96137e-06	-6.38042	0.00726256	0.00721757	0.000807083	-6.37634	12.1053	12.0304	1.3444	0.0821467	0.00917988	0.0826581	6.37634	6.78701e+06	6.07339e+07	6.1112e+07	-83.6237	0.0000000E+000	0.0000000E+000	0.0000000E+000	83.6237	0.0000000E+000	0.0000000E+000	0.0000000E+000	-83.6237	0.0000000E+000	0.0000000E+000	0.0000000E+000	-6.37634	0.0000000E+000	0.0000000E+000	0.0000000E+000	6.37634	8.94856	83.6237	4.66118e-06	-2.61466e-06	-4.39613e-09	-2.61026e-06	0.261919	26325.8	44.2627	26281.5
0.146929	12.2147	1.58162	12.3167	-7.37786	57.184	0.262359	-0.00895186	684875	11293.4	1	11	0.00493009	0.000400277	0	-6.4205e-05	4.04943e-05	1.49374e-06	6.654	0.00373177	0.00370663	-0.000432413	-7.37365	12.3203	12.2185	1.58119	0.0805183	0.0104259	0.0811905	7.37786	1.12934e+07	8.72183e+07	8.79464e+07	-82.6221	0.0000000E+000	0.0000000E+000	0.0000000E+000	82.6221	0.0000000E+000	0.0000000E+000	0.0000000E+000	-82.6221	0.0000000E+000	0.0000000E+000	0.0000000E+000	-7.37786	0.0000000E+000	0.0000000E+000	0.0000000E+000	7.37786	7.72294	82.6221	3.77993e-05	-2.3486e-06	-3.62499e-10	-2.34824e-06	0.262318	29307.7	4.52356	29303.2
0.0999041	12.5113	1.92139	12.658	-8.7308	78.2613	0.262364	-0.00626269	829128	19103.8	1	11	0.00493636	0.000389979	0	-1.72798e-06	0.000269422	1.61277e-06	9.03355	0.00413553	0.00408424	-0.000649331	-8.72509	12.662	12.5154	1.92074	0.0780859	0.0119918	0.0790013	8.7308	1.91038e+07	1.24397e+08	1.25855e+08	-81.2692	0.0000000E+000	0.0000000E+000	0.0000000E+000	81.2692	0.0000000E+000	0.0000000E+000	0.0000000E+000	-81.2692	0.0000000E+000	0.0000000E+000	0.0000000E+000	-8.7308	0.0000000E+000	0.0000000E+000	0.0000000E+000	8.7308	6.51161	81.2692	6.2477e-05	-1.6431e-06	-1.68731e-09	-1.64141e-06	0.262094	41893.1	43.0202	41850.1
0.0680626	12.8867	2.41125	13.1103	-10.5982	109.189	0.262359	-0.00447266	969770	32804	1	11	0.00492878	0.000375946	0	3.8275e-05	0.000193113	1.48789e-06	-5.0314	0.00395773	0.00394248	0.000347099	-10.5965	13.1143	12.8906	2.4116	0.0749745	0.0140286	0.0762757	10.5982	3.2804e+07	1.75317e+08	1.7836e+08	-79.4018	0.0000000E+000	0.0000000E+000	0.0000000E+000	79.4018	0.0000000E+000	0.0000000E+000	0.0000000E+000	-79.4018	0.0000000E+000	0.0000000E+000	0.0000000E+000	-10.5982	0.0000000E+000	0.0000000E+000	0.0000000E+000	10.5982	5.3444	79.4018	4.0003e-05	-1.17344e-06	-8.63727e-10	-1.17258e-06	0.262166	58658.5	43.1763	58615.3
0.0464052	13.3339	3.08832	13.6869	-13.0406	154.539	0.262364	-0.00238121	1.11053e+06	56541.6	1	11	0.004935	0.000360564	0	-2.63487e-05	0.000116803	2.97564e-06	5.05519	0.00825272	0.00822062	-0.00072719	-13.0299	13.6947	13.3421	3.08759	0.0711785	0.016486	0.0730627	13.0406	5.65416e+07	2.44119e+08	2.50582e+08	-76.9594	0.0000000E+000	0.0000000E+000	0.0000000E+000	76.9594	0.0000000E+000	0.0000000E+000	0.0000000E+000	-76.9594	0.0000000E+000	0.0000000E+000	0.0000000E+000	-13.0406	0.0000000E+000	0.0000000E+000	0.0000000E+000	13.0406	4.31752	76.9594	-6.46237e-05	-6.24744e-07	-2.78134e-10	-6.24466e-07	0.262247	110181	49.0521	110132
0.0315922	13.8	3.91006	14.3432	-15.8194	221.144	0.262361	-0.00284828	1.28842e+06	95747.8	1	11	0.00493224	0.000343872	0	-0.000311258	0.000154958	2.28112e-06	10.3195	0.00663362	0.00652631	-0.00118832	-15.8077	14.3492	13.8065	3.90887	0.0670787	0.0190059	0.0697193	15.8194	9.57478e+07	3.37929e+08	3.51231e+08	-74.1806	0.0000000E+000	0.0000000E+000	0.0000000E+000	74.1806	0.0000000E+000	0.0000000E+000	0.0000000E+000	-74.1806	0.0000000E+000	0.0000000E+000	0.0000000E+000	-15.8194	0.0000000E+000	0.0000000E+000	0.0000000E+000	15.8194	3.52936	74.1806	-0.00028491	-7.47278e-07	-4.41364e-10	-7.46837e-07	0.262206	92112.3	54.4041	92057.9
0.0215268	14.4396	4.91039	15.2517	-18.7813	318.883	0.262363	-0.00443316	1.50565e+06	156070	1	11	0.00493181	0.000323361	0	-0.000859163	7.86489e-05	3.21905e-06	-30.4199	0.00995497	0.00858455	0.00504053	-18.7888	15.2615	14.4482	4.91543	0.0620753	0.0211095	0.0655664	18.7813	1.5607e+08	4.58944e+08	4.84755e+08	-71.2187	0.0000000E+000	0.0000000E+000	0.0000000E+000	71.2187	0.0000000E+000	0.0000000E+000	0.0000000E+000	-71.2187	0.0000000E+000	0.0000000E+000	0.0000000E+000	-18.7813	0.0000000E+000	0.0000000E+000	0.0000000E+000	18.7813	2.94063	71.2187	-0.000547904	-1.1631e-06	-3.48663e-10	-1.16275e-06	0.262285	59182	17.741	59164.2
0.0146812	15.2062	6.38613	16.4928	-22.7809	530.505	0.262362	-0.00703093	1.69755e+06	254513	1	12	0.00493122	0.000298993	0	-0.00169682	0.000231267	1.58345e-06	-6.01573	0.00529595	0.00526679	0.000555024	-22.7756	16.4978	15.2115	6.38668	0.0559028	0.0234774	0.0606326	22.7809	2.54513e+08	6.06029e+08	6.57303e+08	-67.2191	0.0000000E+000	0.0000000E+000	0.0000000E+000	67.2191	0.0000000E+000	0.0000000E+000	0.0000000E+000	-67.2191	0.0000000E+000	0.0000000E+000	0.0000000E+000	-22.7809	0.0000000E+000	0.0000000E+000	0.0000000E+000	22.7809	2.38113	67.2191	-0.000837655	-1.84465e-06	-1.62603e-09	-1.84302e-06	0.262131	37315.4	32.8928	37282.5
0.0100092	16.336	8.34375	18.3435	-27.0561	740.686	0.262362	-0.00811695	1.90573e+06	394294	1	12	0.00493377	0.000268966	0	-0.00225999	-0.000245665	2.49574e-06	12.9724	0.00927903	0.00904221	-0.00208297	-27.0374	18.3506	16.345	8.34167	0.0485492	0.0247969	0.0545153	27.0561	3.94294e+08	7.71977e+08	8.66843e+08	-62.9439	0.0000000E+000	0.0000000E+000	0.0000000E+000	62.9439	0.0000000E+000	0.0000000E+000	0.0000000E+000	-62.9439	0.0000000E+000	0.0000000E+000	0.0000000E+000	-27.0561	0.0000000E+000	0.0000000E+000	0.0000000E+000	27.0561	1.95787	62.9439	-0.000563176	-2.12958e-06	1.99405e-09	-2.13157e-06	0.262607	32322.7	30.2657	32352.9