File: txt/17924_R288_UA670_SOC00_C05.mpt
EC-Lab ASCII FILE
Nb header lines : 64

Potentio Electrochemical Impedance Spectroscopy

Run on channel : 5 (SN 65912)
User :
CE vs. WE compliance from -10 V to 10 V
Electrode connection : standard
Potential control : Ewe
Ewe ctrl range : min = -10.00 V, max = 10.00 V
Safety Limits :
	Do not start on E overload
Acquisition started on : 09/29/2025 15:13:33.012
Loaded Setting File :  C:\Users\Celltest\OneDrive - store-dot.com\Documents\EC-Lab\Data\@Biologic Test Protocols\anode half cell EIS SOC00.mps
Saved on :
	File : 17924_R288_UA670_SOC00_C05.mpr
	Directory : C:\Users\Celltest\OneDrive - store-dot.com\Documents\EC-Lab\Data\Charmaine\
	Host : 169.254.61.224
Device : VMP-3e (SN .003165)
Address : USB
EC-LAB for windows v11.62 (software)
Internet server v27.00 (firmware)
Command interpretor v12.03 (firmware)
Electrode material :
Initial state :
Electrolyte :
Comments :
Electrode surface area : 0.001 cm²
Characteristic mass : 0.001 g
Equivalent Weight : 0.000 g/eq.
Density : 0.000 g/cm3
Volume (V) : 0.001 cm³
Record Ece
Cycle Definition : Charge/Discharge alternance
Mode                Single sine
E (V)               0.0000
vs.                 Eoc
tE (h:m:s)          0:00:0.0000
record              0
dI                  0.000
unit dI             mA
dt (s)              0.000
fi                  100.000
unit fi             kHz
ff                  10.000
unit ff             mHz
Nd                  6
Points              per decade
spacing             Logarithmic
Va (mV)             5.0
pw                  0.10
Na                  2
corr                0
E range min (V)     -10.000
E range max (V)     10.000
I Range             Auto
Bandwidth           5
nc cycles           0
goto Ns'            0
nr cycles           0
inc. cycle          0

freq/Hz	Re(Z)/Ohm	-Im(Z)/Ohm	|Z|/Ohm	Phase(Z)/deg	time/s	<Ewe>/V	<I>/mA	Cs/µF	Cp/µF	cycle number	I Range	|Ewe|/V	|I|/A	Ns	(Q-Qo)/mA.h	<Ece>/V	|Ece|/V	Phase(Zce)/deg	|Zce|/Ohm	Re(Zce)/Ohm	-Im(Zce)/Ohm	Phase(Zwe-ce)/deg	|Zwe-ce|/Ohm	Re(Zwe-ce)/Ohm	-Im(Zwe-ce)/Ohm	Re(Y)/Ohm-1	Im(Y)/Ohm-1	|Y|/Ohm-1	Phase(Y)/deg	Re(C)/nF	Im(C)/nF	|C|/nF	Phase(C)/deg	Re(M)	Im(M)	|M|	Phase(M)/deg	Re(Permittivity)	Im(Permittivity)	|Permittivity|	Phase(Permittivity)/deg	Re(Resistivity)/Ohm.cm	Im(Resistivity)/Ohm.cm	|Resistivity|/Ohm.cm	Phase(Resistivity)/deg	Re(Conductivity)/mS/cm	Im(Conductivity)/mS/cm	|Conductivity|/mS/cm	Phase(Conductivity)/deg	Tan(Delta)	Loss Angle(Delta)/deg	dq/mA.h	Pwe/W	Pce/W	Pwe-ce/W	<Ewe-Ece>/V	Rwe/Ohm	Rce/Ohm	Rwe-ce/Ohm		Ewe-Ece/V
100004	0.786238	0.172073	0.804847	-12.3449	1.72656	0.260031	0.0288767	9.24894	0.422755	1	9	0.0046072	0.00572432	0	-6.86269e-06	-4.14579e-05	4.51399e-05	88.6257	0.00788565	0.000189122	-0.00788338	-11.7928	0.803384	0.786427	0.164189	1.21374	0.265635	1.24247	12.3449	422.756	1931.66	1977.38	-77.6551	0.0000000E+000	0.0000000E+000	0.0000000E+000	77.6551	0.0000000E+000	0.0000000E+000	0.0000000E+000	-77.6551	0.0000000E+000	0.0000000E+000	0.0000000E+000	-12.3449	0.0000000E+000	0.0000000E+000	0.0000000E+000	12.3449	4.56922	77.6551	-6.86269e-06	7.50881e-06	-1.19716e-09	7.51001e-06	0.260072	9004.88	1.43569	9006.31
68132	0.830307	0.191211	0.852039	-12.9685	2.10955	0.260017	0.0253761	12.2167	0.615266	1	9	0.00533482	0.00626124	0	-7.09923e-06	-0.00023237	3.75149e-05	68.5891	0.00599161	0.00218726	-0.00557811	-12.5704	0.852939	0.832494	0.185633	1.14372	0.263387	1.17365	12.9685	615.266	2671.7	2741.63	-77.0315	0.0000000E+000	0.0000000E+000	0.0000000E+000	77.0315	0.0000000E+000	0.0000000E+000	0.0000000E+000	-77.0315	0.0000000E+000	0.0000000E+000	0.0000000E+000	-12.9685	0.0000000E+000	0.0000000E+000	0.0000000E+000	12.9685	4.34235	77.0315	-2.36536e-07	6.59822e-06	-5.89665e-09	6.60412e-06	0.260249	10246.5	9.15704	10255.7
46420.4	0.876383	0.213734	0.902069	-13.7059	2.49254	0.26	0.0182261	16.0412	0.900545	1	9	0.00543686	0.00602709	0	-1.33209e-05	7.30894e-05	2.16307e-05	68.4646	0.00358892	0.00131741	-0.00333838	-13.4802	0.902565	0.8777	0.210396	1.077	0.26266	1.10856	13.7059	900.545	3692.54	3800.77	-76.2941	0.0000000E+000	0.0000000E+000	0.0000000E+000	76.2941	0.0000000E+000	0.0000000E+000	0.0000000E+000	-76.2941	0.0000000E+000	0.0000000E+000	0.0000000E+000	-13.7059	0.0000000E+000	0.0000000E+000	0.0000000E+000	13.7059	4.10034	76.2941	-6.22171e-06	4.73878e-06	1.33213e-09	4.73745e-06	0.259927	14265.3	4.01016	14261.3
31621.1	0.926957	0.242715	0.958207	-14.6729	2.99955	0.260004	0.0201253	20.737	1.33052	1	9	0.00505826	0.00527888	0	6.14266e-06	-0.000251461	2.47228e-05	72.9572	0.00468334	0.00137263	-0.00447768	-14.3932	0.958412	0.92833	0.238237	1.00958	0.264349	1.04362	14.6729	1330.52	5081.41	5252.71	-75.3271	0.0000000E+000	0.0000000E+000	0.0000000E+000	75.3271	0.0000000E+000	0.0000000E+000	0.0000000E+000	-75.3271	0.0000000E+000	0.0000000E+000	0.0000000E+000	-14.6729	0.0000000E+000	0.0000000E+000	0.0000000E+000	14.6729	3.81912	75.3271	1.94636e-05	5.23265e-06	-5.06073e-09	5.23771e-06	0.260255	12919.3	12.4948	12931.8
21544.7	0.983335	0.274129	1.02083	-15.5771	3.50656	0.259989	0.0156193	26.9479	1.94325	1	9	0.00512366	0.00501911	0	-3.07517e-06	-0.000117823	8.8919e-06	-16.9839	0.00177161	0.00169434	0.000517493	-15.5796	1.0226	0.98503	0.274647	0.943614	0.263056	0.979594	15.5771	1943.25	6970.67	7236.46	-74.4229	0.0000000E+000	0.0000000E+000	0.0000000E+000	74.4229	0.0000000E+000	0.0000000E+000	0.0000000E+000	-74.4229	0.0000000E+000	0.0000000E+000	0.0000000E+000	-15.5771	0.0000000E+000	0.0000000E+000	0.0000000E+000	15.5771	3.58712	74.4229	-9.21783e-06	4.06084e-06	-1.8403e-09	4.06268e-06	0.260107	16645.4	7.54343	16653
14678.6	1.04916	0.30805	1.09345	-16.3631	3.88952	0.25999	0.0269774	35.1977	2.79358	1	9	0.00510388	0.00466769	0	7.5382e-06	-9.87315e-05	5.83381e-06	-70.065	0.00124983	0.000426134	0.00117494	-16.4158	1.09419	1.04958	0.309225	0.877496	0.257647	0.914539	16.3631	2793.58	9514.39	9916.03	-73.6369	0.0000000E+000	0.0000000E+000	0.0000000E+000	73.6369	0.0000000E+000	0.0000000E+000	0.0000000E+000	-73.6369	0.0000000E+000	0.0000000E+000	0.0000000E+000	-16.3631	0.0000000E+000	0.0000000E+000	0.0000000E+000	16.3631	3.40581	73.6369	1.06134e-05	7.01384e-06	-2.66352e-09	7.01651e-06	0.260089	9637.32	3.65979	9640.98
10002.2	1.11956	0.350183	1.17305	-17.3689	4.14855	0.260001	0.0216893	45.4389	4.04934	1	9	0.00458231	0.00390631	0	8.14776e-06	-0.000251461	9.09559e-06	-122.262	0.00232844	-0.0012429	0.00196896	-17.4789	1.17246	1.11832	0.352152	0.813606	0.254484	0.852477	17.3689	4049.34	12946.1	13564.6	-72.6311	0.0000000E+000	0.0000000E+000	0.0000000E+000	72.6311	0.0000000E+000	0.0000000E+000	0.0000000E+000	-72.6311	0.0000000E+000	0.0000000E+000	0.0000000E+000	-17.3689	0.0000000E+000	0.0000000E+000	0.0000000E+000	17.3689	3.19708	72.6311	6.09555e-07	5.63923e-06	-5.45402e-09	5.64468e-06	0.260252	11987.5	11.5938	11999.1
6810.42	1.18992	0.394477	1.25361	-18.3411	4.53156	0.259995	0.0214286	59.2413	5.86603	1	9	0.00477148	0.0038062	0	5.20133e-06	3.4907e-05	5.26754e-05	-43.2653	0.0138394	0.0100777	0.0094852	-18.605	1.26617	1.2	0.403962	0.757174	0.251014	0.797697	18.3411	5866.03	17694.7	18641.6	-71.6589	0.0000000E+000	0.0000000E+000	0.0000000E+000	71.6589	0.0000000E+000	0.0000000E+000	0.0000000E+000	-71.6589	0.0000000E+000	0.0000000E+000	0.0000000E+000	-18.3411	0.0000000E+000	0.0000000E+000	0.0000000E+000	18.3411	3.01646	71.6589	-2.94642e-06	5.57134e-06	7.48009e-10	5.5706e-06	0.25996	12133.1	1.62899	12131.5
4646	1.2862	0.457201	1.36504	-19.5686	4.79661	0.259964	-0.0126086	74.9262	8.40532	1	9	0.00462932	0.00339133	0	1.53112e-06	0.000130363	1.10026e-05	42.6581	0.00324433	0.00238592	-0.00219843	-19.4482	1.36656	1.28859	0.455002	0.690264	0.245366	0.732577	19.5686	8405.32	23645.9	25095.4	-70.4314	0.0000000E+000	0.0000000E+000	0.0000000E+000	70.4314	0.0000000E+000	0.0000000E+000	0.0000000E+000	-70.4314	0.0000000E+000	0.0000000E+000	0.0000000E+000	-19.5686	0.0000000E+000	0.0000000E+000	0.0000000E+000	19.5686	2.81321	70.4314	-3.67021e-06	-3.27777e-06	-1.64369e-09	-3.27613e-06	0.259834	20618.1	10.3392	20607.7
3163.08	1.39104	0.519207	1.48478	-20.4681	5.17068	0.259733	-0.187785	96.9102	11.8502	1	9	0.00453492	0.00305427	0	-1.4937e-05	-4.14579e-05	9.74669e-06	-89.4229	0.00319117	3.21438e-05	0.00319101	-20.5829	1.48593	1.39107	0.522398	0.63098	0.235513	0.6735	20.4681	11850.2	31748.7	33888.1	-69.5319	0.0000000E+000	0.0000000E+000	0.0000000E+000	69.5319	0.0000000E+000	0.0000000E+000	0.0000000E+000	-69.5319	0.0000000E+000	0.0000000E+000	0.0000000E+000	-20.4681	0.0000000E+000	0.0000000E+000	0.0000000E+000	20.4681	2.67917	69.5319	-1.64681e-05	-4.87738e-05	7.78515e-09	-4.87816e-05	0.259774	1383.14	0.220774	1383.36
2155.69	1.49983	0.603895	1.61684	-21.9318	5.83583	0.259819	-0.0699579	122.257	17.0553	1	9	0.00497161	0.00307489	0	-2.92926e-05	-6.05491e-05	9.29706e-06	54.8945	0.00302354	0.00173879	-0.00247354	-21.8275	1.61753	1.50157	0.601421	0.573729	0.231008	0.61849	21.9318	17055.3	42358.5	45663.2	-68.0682	0.0000000E+000	0.0000000E+000	0.0000000E+000	68.0682	0.0000000E+000	0.0000000E+000	0.0000000E+000	-68.0682	0.0000000E+000	0.0000000E+000	0.0000000E+000	-21.9318	0.0000000E+000	0.0000000E+000	0.0000000E+000	21.9318	2.48359	68.0682	-1.43557e-05	-1.81764e-05	4.23589e-09	-1.81806e-05	0.25988	3713.93	0.865508	3714.8
1468.59	1.62625	0.708276	1.7738	-23.5344	6.2871	0.259827	-0.065936	153.009	24.3958	1	9	0.00494661	0.00278871	0	-3.9115e-05	-0.000136914	7.48659e-06	-46.5669	0.0026846	0.00184568	0.0019495	-23.5683	1.77627	1.6281	0.710226	0.516869	0.22511	0.563763	23.5344	24395.8	56014.5	61096.4	-66.4656	0.0000000E+000	0.0000000E+000	0.0000000E+000	66.4656	0.0000000E+000	0.0000000E+000	0.0000000E+000	-66.4656	0.0000000E+000	0.0000000E+000	0.0000000E+000	-23.5344	0.0000000E+000	0.0000000E+000	0.0000000E+000	23.5344	2.29607	66.4656	-9.82238e-06	-1.7132e-05	9.02756e-09	-1.7141e-05	0.259964	3940.6	2.07647	3942.68
1000.32	1.76318	0.84952	1.95717	-25.7252	6.7378	0.259821	-0.0675373	187.287	35.2857	1	9	0.00491736	0.00251249	0	-4.90201e-05	-3.27544e-06	8.69955e-06	-92.0531	0.00346252	-0.000124048	0.0034603	-25.818	1.95856	1.76306	0.852981	0.460301	0.221778	0.510943	25.7252	35285.7	73235.7	81293	-64.2748	0.0000000E+000	0.0000000E+000	0.0000000E+000	64.2748	0.0000000E+000	0.0000000E+000	0.0000000E+000	-64.2748	0.0000000E+000	0.0000000E+000	0.0000000E+000	-25.7252	0.0000000E+000	0.0000000E+000	0.0000000E+000	25.7252	2.07551	64.2748	-9.9051e-06	-1.75476e-05	2.21214e-10	-1.75478e-05	0.259824	3847.07	0.0484982	3847.12
681.09	1.9356	1.03592	2.19537	-28.1553	7.18859	0.259824	-0.0756556	225.575	50.2253	1	9	0.0049005	0.0022322	0	-5.8631e-05	5.39982e-05	8.07104e-06	-142.622	0.00361574	-0.00287323	0.00219502	-28.2412	2.19388	1.93273	1.03811	0.401604	0.214935	0.455503	28.1553	50225.3	93845.7	106441	-61.8447	0.0000000E+000	0.0000000E+000	0.0000000E+000	61.8447	0.0000000E+000	0.0000000E+000	0.0000000E+000	-61.8447	0.0000000E+000	0.0000000E+000	0.0000000E+000	-28.1553	0.0000000E+000	0.0000000E+000	0.0000000E+000	28.1553	1.86849	61.8447	-9.61094e-06	-1.96571e-05	-4.08527e-09	-1.9653e-05	0.25977	3434.29	0.713737	3433.58
463.961	2.16586	1.28098	2.51632	-30.6017	7.64032	0.259824	-0.0719689	267.792	69.3983	1	9	0.00489353	0.00194472	0	-6.67464e-05	-6.05491e-05	8.62419e-06	-29.4719	0.00443467	0.00386081	0.00218185	-30.5998	2.52075	2.16972	1.28316	0.342058	0.202306	0.397406	30.6017	69398.3	117338	136324	-59.3983	0.0000000E+000	0.0000000E+000	0.0000000E+000	59.3983	0.0000000E+000	0.0000000E+000	0.0000000E+000	-59.3983	0.0000000E+000	0.0000000E+000	0.0000000E+000	-30.6017	0.0000000E+000	0.0000000E+000	0.0000000E+000	30.6017	1.69079	59.3983	-8.11532e-06	-1.86992e-05	4.35765e-09	-1.87036e-05	0.259884	3610.23	0.841323	3611.07
316.316	2.46226	1.57218	2.92138	-32.5586	8.33208	0.259896	-0.0357133	320.035	92.6881	1	10	0.00494552	0.00169287	0	-7.48766e-05	7.30894e-05	5.71145e-06	-48.715	0.00337383	0.00222607	0.00253522	-32.577	2.92462	2.46449	1.57471	0.288508	0.184215	0.342304	32.5586	92688.1	145163	172231	-57.4414	0.0000000E+000	0.0000000E+000	0.0000000E+000	57.4414	0.0000000E+000	0.0000000E+000	0.0000000E+000	-57.4414	0.0000000E+000	0.0000000E+000	0.0000000E+000	-32.5586	0.0000000E+000	0.0000000E+000	0.0000000E+000	32.5586	1.56615	57.4414	-8.13027e-06	-9.28177e-06	-2.61027e-09	-9.27916e-06	0.259823	7277.29	2.04656	7275.25
215.345	2.88756	1.89179	3.45208	-33.2308	8.78257	0.259909	-0.0354155	390.674	117.327	1	10	0.00491386	0.00142345	0	-7.96491e-05	-9.87315e-05	7.07477e-06	24.4522	0.00497016	0.00452437	-0.00205731	-33.1611	3.45474	2.89209	1.88973	0.242309	0.158749	0.28968	33.2308	117327	179083	214094	-56.7692	0.0000000E+000	0.0000000E+000	0.0000000E+000	56.7692	0.0000000E+000	0.0000000E+000	0.0000000E+000	-56.7692	0.0000000E+000	0.0000000E+000	0.0000000E+000	-33.2308	0.0000000E+000	0.0000000E+000	0.0000000E+000	33.2308	1.52637	56.7692	-4.77245e-06	-9.20479e-06	3.49663e-09	-9.20829e-06	0.260007	7338.84	2.78781	7341.63
146.737	3.46472	2.19405	4.10099	-32.3443	9.22848	0.259899	-0.0358623	494.347	141.497	1	10	0.00490808	0.0011968	0	-8.25606e-05	-0.000136914	3.91397e-06	-72.3118	0.00327035	0.000993655	0.00311574	-32.3736	4.1035	3.46571	2.19717	0.206011	0.130458	0.243843	32.3443	141497	223444	264478	-57.6557	0.0000000E+000	0.0000000E+000	0.0000000E+000	57.6557	0.0000000E+000	0.0000000E+000	0.0000000E+000	-57.6557	0.0000000E+000	0.0000000E+000	0.0000000E+000	-32.3443	0.0000000E+000	0.0000000E+000	0.0000000E+000	32.3443	1.57914	57.6557	-2.91146e-06	-9.32059e-06	4.91005e-09	-9.3255e-06	0.260036	7247.15	3.81777	7250.97
100.032	4.14582	2.41494	4.79789	-30.2208	9.67985	0.259893	-0.0349463	658.832	166.912	1	10	0.00489258	0.00101974	0	-8.76189e-05	0.000321275	9.07009e-06	-6.32911	0.00889454	0.00884033	0.000980528	-30.1779	4.80602	4.15466	2.41592	0.180098	0.104907	0.208425	30.2208	166912	286544	331613	-59.7792	0.0000000E+000	0.0000000E+000	0.0000000E+000	59.7792	0.0000000E+000	0.0000000E+000	0.0000000E+000	-59.7792	0.0000000E+000	0.0000000E+000	0.0000000E+000	-30.2208	0.0000000E+000	0.0000000E+000	0.0000000E+000	30.2208	1.71674	59.7792	-5.05832e-06	-9.08232e-06	-1.12274e-08	-9.07109e-06	0.259572	7436.93	9.19339	7427.73
68.104	4.90975	2.5027	5.51082	-27.0098	10.1424	0.2599	-0.0326043	933.766	192.586	1	10	0.00488241	0.000885967	0	-9.21811e-05	0.000378549	5.90252e-06	-77.2302	0.00666223	0.00147258	0.00649745	-27.063	5.51509	4.91122	2.5092	0.161669	0.0824093	0.181461	27.0098	192586	377811	424064	-62.9902	0.0000000E+000	0.0000000E+000	0.0000000E+000	62.9902	0.0000000E+000	0.0000000E+000	0.0000000E+000	-62.9902	0.0000000E+000	0.0000000E+000	0.0000000E+000	-27.0098	0.0000000E+000	0.0000000E+000	0.0000000E+000	27.0098	1.96178	62.9902	-4.56225e-06	-8.47387e-06	-1.23423e-08	-8.46152e-06	0.259522	7971.34	11.6104	7959.73
46.4415	5.68041	2.42294	6.17557	-23.1003	10.5786	0.259898	-0.0370426	1414.39	217.722	1	10	0.00488325	0.000790736	0	-9.60394e-05	-4.14579e-05	4.87378e-06	-40.4644	0.0061636	0.00468933	0.00400002	-23.1174	6.18145	5.6851	2.42694	0.148945	0.0635314	0.161928	23.1003	217722	510433	554928	-66.8997	0.0000000E+000	0.0000000E+000	0.0000000E+000	66.8997	0.0000000E+000	0.0000000E+000	0.0000000E+000	-66.8997	0.0000000E+000	0.0000000E+000	0.0000000E+000	-23.1003	0.0000000E+000	0.0000000E+000	0.0000000E+000	23.1003	2.34443	66.8997	-3.85824e-06	-9.6273e-06	1.53571e-09	-9.62884e-06	0.259939	7016.19	1.11919	7017.3
31.6296	6.35462	2.25466	6.74275	-19.535	11.0086	0.259891	-0.0395224	2231.75	249.537	1	10	0.00487841	0.000723505	0	-0.00010184	0.00024491	7.96988e-06	-53.6128	0.0110156	0.00653491	0.00886789	-19.5874	6.75188	6.36115	2.26353	0.13977	0.0495915	0.148307	19.535	249537	703303	746260	-70.465	0.0000000E+000	0.0000000E+000	0.0000000E+000	70.465	0.0000000E+000	0.0000000E+000	0.0000000E+000	-70.465	0.0000000E+000	0.0000000E+000	0.0000000E+000	-19.535	0.0000000E+000	0.0000000E+000	0.0000000E+000	19.535	2.81844	70.465	-5.80029e-06	-1.02715e-05	-9.67945e-09	-1.02618e-05	0.259646	6575.77	6.19674	6569.58
21.5517	6.94543	2.00691	7.22957	-16.1169	11.4294	0.259892	-0.0401256	3679.68	283.558	1	10	0.00488204	0.000675288	0	-0.000106853	0.000206728	7.29741e-06	-60.6193	0.0108064	0.00530171	0.00941644	-16.1769	7.23728	6.95073	2.01633	0.132884	0.0383976	0.138321	16.1169	283558	981324	1.02147e+06	-73.8831	0.0000000E+000	0.0000000E+000	0.0000000E+000	73.8831	0.0000000E+000	0.0000000E+000	0.0000000E+000	-73.8831	0.0000000E+000	0.0000000E+000	0.0000000E+000	-16.1169	0.0000000E+000	0.0000000E+000	0.0000000E+000	16.1169	3.46075	73.8831	-5.01312e-06	-1.04283e-05	-8.29509e-09	-1.042e-05	0.259686	6476.97	5.15202	6471.81
14.6852	7.40335	1.75873	7.60938	-13.3634	11.8902	0.259896	-0.0321352	6162.29	329.186	1	10	0.00488591	0.00064209	0	-0.000113682	-3.27544e-06	6.09015e-06	74.8675	0.00948489	0.00247606	-0.00915599	-13.292	7.60968	7.40583	1.74957	0.127858	0.0303739	0.131417	13.3634	329186	1.38571e+06	1.42427e+06	-76.6366	0.0000000E+000	0.0000000E+000	0.0000000E+000	76.6366	0.0000000E+000	0.0000000E+000	0.0000000E+000	-76.6366	0.0000000E+000	0.0000000E+000	0.0000000E+000	-13.3634	0.0000000E+000	0.0000000E+000	0.0000000E+000	13.3634	4.20949	76.6366	-6.82915e-06	-8.3518e-06	1.05257e-10	-8.35191e-06	0.259899	8087.58	0.101927	8087.68
10.0032	7.76026	1.49701	7.90333	-10.9187	12.3408	0.259899	-0.0333118	10628.1	381.317	1	10	0.00487561	0.000616906	0	-0.000113546	0.000111272	9.91148e-06	29.6102	0.0160664	0.0139683	-0.00793838	-10.8431	7.91555	7.77423	1.48908	0.124238	0.0239666	0.126529	10.9187	381318	1.97668e+06	2.01313e+06	-79.0813	0.0000000E+000	0.0000000E+000	0.0000000E+000	79.0813	0.0000000E+000	0.0000000E+000	0.0000000E+000	-79.0813	0.0000000E+000	0.0000000E+000	0.0000000E+000	-10.9187	0.0000000E+000	0.0000000E+000	0.0000000E+000	10.9187	5.18382	79.0813	1.35984e-07	-8.65771e-06	-3.70666e-09	-8.65401e-06	0.259788	7802.03	3.34032	7798.69
6.81719	8.08788	1.30708	8.19282	-9.1802	12.6805	0.259893	-0.0347267	17861.2	454.623	1	10	0.00488123	0.000595794	0	-0.000122221	0.000168545	7.15969e-06	54.5219	0.0120171	0.0069746	-0.00978595	-9.10491	8.19815	8.09486	1.2973	0.120495	0.0194732	0.122058	9.1802	454622	2.81308e+06	2.84958e+06	-80.8198	0.0000000E+000	0.0000000E+000	0.0000000E+000	80.8198	0.0000000E+000	0.0000000E+000	0.0000000E+000	-80.8198	0.0000000E+000	0.0000000E+000	0.0000000E+000	-9.1802	0.0000000E+000	0.0000000E+000	0.0000000E+000	9.1802	6.18773	80.8198	-8.67501e-06	-9.02523e-06	-5.85303e-09	-9.01938e-06	0.259725	7483.97	4.85349	7479.11
4.63925	8.31832	1.12918	8.39462	-7.73042	13.4255	0.259914	-0.0183608	30381.5	549.71	1	11	0.00487614	0.000580865	0	-0.000122091	-3.27544e-06	5.99482e-06	-2.30771	0.0103205	0.0103121	0.000415568	-7.72377	8.40489	8.32864	1.12959	0.118041	0.0160236	0.119124	7.73042	549709	4.04955e+06	4.08669e+06	-82.2696	0.0000000E+000	0.0000000E+000	0.0000000E+000	82.2696	0.0000000E+000	0.0000000E+000	0.0000000E+000	-82.2696	0.0000000E+000	0.0000000E+000	0.0000000E+000	-7.73042	0.0000000E+000	0.0000000E+000	0.0000000E+000	7.73042	7.3667	82.2696	1.30394e-07	-4.77223e-06	6.01397e-11	-4.77229e-06	0.259917	14155.9	0.178393	14156.1
3.1604	8.55393	1.00239	8.61246	-6.68373	14.1185	0.259912	-0.0165634	50239	680.553	1	11	0.00488276	0.000566941	0	-0.000125577	-4.14579e-05	3.35228e-06	7.78283	0.00591293	0.00585846	-0.000800721	-6.67391	8.61819	8.55979	1.00159	0.115322	0.013514	0.116111	6.68373	680553	5.8075e+06	5.84724e+06	-83.3163	0.0000000E+000	0.0000000E+000	0.0000000E+000	83.3163	0.0000000E+000	0.0000000E+000	0.0000000E+000	-83.3163	0.0000000E+000	0.0000000E+000	0.0000000E+000	-6.68373	0.0000000E+000	0.0000000E+000	0.0000000E+000	6.68373	8.53351	83.3163	-3.48643e-06	-4.30504e-06	6.86684e-10	-4.30573e-06	0.259954	15692	2.50298	15694.5
2.15577	8.73819	0.905133	8.78494	-5.91381	15.122	0.259917	-0.0150003	81565.4	865.87	1	11	0.00488377	0.000555925	0	-0.000139057	-4.14579e-05	2.59293e-06	-48.5486	0.00466417	0.00308761	0.00349588	-5.93441	8.78837	8.74128	0.908629	0.113225	0.0117283	0.113831	5.91381	865870	8.35914e+06	8.40387e+06	-84.0862	0.0000000E+000	0.0000000E+000	0.0000000E+000	84.0862	0.0000000E+000	0.0000000E+000	0.0000000E+000	-84.0862	0.0000000E+000	0.0000000E+000	0.0000000E+000	-5.91381	0.0000000E+000	0.0000000E+000	0.0000000E+000	5.91381	9.65404	84.0862	-1.34803e-05	-3.89885e-06	6.21882e-10	-3.89947e-06	0.259959	17327.4	2.7638	17330.2
1.46631	8.91244	0.820131	8.95009	-5.25761	16.5834	0.259923	-0.0153539	132346	1111.28	1	11	0.00488474	0.000545775	0	-0.000155891	-7.96403e-05	5.7469e-06	16.3023	0.0105298	0.0101064	-0.00295577	-5.23286	8.95989	8.92254	0.817176	0.111261	0.0102383	0.111731	5.25761	1.11128e+06	1.20764e+07	1.21274e+07	-84.7424	0.0000000E+000	0.0000000E+000	0.0000000E+000	84.7424	0.0000000E+000	0.0000000E+000	0.0000000E+000	-84.7424	0.0000000E+000	0.0000000E+000	0.0000000E+000	-5.25761	0.0000000E+000	0.0000000E+000	0.0000000E+000	5.25761	10.8671	84.7424	-1.68336e-05	-3.99082e-06	1.22279e-09	-3.99204e-06	0.260002	16928.8	5.18699	16934
1.00006	9.06134	0.789343	9.09566	-4.97853	18.712	0.25992	-0.0163912	201617	1518.41	1	11	0.00488174	0.000536711	0	-0.000167064	-9.87315e-05	3.85765e-06	-15.9277	0.00718757	0.00691163	0.00197244	-4.98712	9.10271	9.06825	0.791315	0.109528	0.00954108	0.109943	4.97853	1.51841e+06	1.74308e+07	1.74968e+07	-85.0215	0.0000000E+000	0.0000000E+000	0.0000000E+000	85.0215	0.0000000E+000	0.0000000E+000	0.0000000E+000	-85.0215	0.0000000E+000	0.0000000E+000	0.0000000E+000	-4.97853	0.0000000E+000	0.0000000E+000	0.0000000E+000	4.97853	11.4796	85.0215	-1.11733e-05	-4.26039e-06	1.61832e-09	-4.26201e-06	0.260019	15857.3	6.02346	15863.3
0.681362	9.19649	0.789546	9.23032	-4.90698	21.8242	0.25992	-0.0166329	295845	2164.64	1	11	0.00488402	0.000529128	0	-0.000167951	-9.87315e-05	1.95595e-06	47.729	0.00369655	0.00248644	-0.00273535	-4.88875	9.23256	9.19897	0.786811	0.107942	0.0092671	0.108339	4.90698	2.16464e+06	2.52134e+07	2.53061e+07	-85.093	0.0000000E+000	0.0000000E+000	0.0000000E+000	85.093	0.0000000E+000	0.0000000E+000	0.0000000E+000	-85.093	0.0000000E+000	0.0000000E+000	0.0000000E+000	-4.90698	0.0000000E+000	0.0000000E+000	0.0000000E+000	4.90698	11.6478	85.093	-8.86794e-07	-4.32324e-06	1.64219e-09	-4.32488e-06	0.260019	15626.8	5.93591	15632.8
0.464091	9.30229	0.82612	9.3389	-5.07502	26.3809	0.259919	-0.0157148	415121	3248.39	1	11	0.00487819	0.000522351	0	-0.000155013	-0.000175096	2.89322e-06	18.4824	0.00553884	0.00525315	-0.00175589	-5.06145	9.34398	9.30754	0.824364	0.106659	0.00947221	0.107079	5.07502	3.24839e+06	3.65776e+07	3.67216e+07	-84.925	0.0000000E+000	0.0000000E+000	0.0000000E+000	84.925	0.0000000E+000	0.0000000E+000	0.0000000E+000	-84.925	0.0000000E+000	0.0000000E+000	0.0000000E+000	-5.07502	0.0000000E+000	0.0000000E+000	0.0000000E+000	5.07502	11.2602	84.925	1.29376e-05	-4.08457e-06	2.75161e-09	-4.08733e-06	0.260094	16539.7	11.1421	16550.8
0.316193	9.43953	0.910223	9.48331	-5.50782	33.0568	0.25992	-0.0121515	552993	5094.43	1	11	0.00488127	0.000514722	0	-0.000138924	0.000225819	2.1709e-06	-40.553	0.00421761	0.00320456	0.00274208	-5.52245	9.48676	9.44273	0.912965	0.104962	0.0101211	0.105448	5.50782	5.09443e+06	5.28321e+07	5.30772e+07	-84.4922	0.0000000E+000	0.0000000E+000	0.0000000E+000	84.4922	0.0000000E+000	0.0000000E+000	0.0000000E+000	-84.4922	0.0000000E+000	0.0000000E+000	0.0000000E+000	-5.50782	0.0000000E+000	0.0000000E+000	0.0000000E+000	5.50782	10.3706	84.4922	1.60892e-05	-3.15842e-06	-2.74405e-09	-3.15568e-06	0.259694	21389.9	18.5836	21371.3
0.215268	9.59924	1.0717	9.65888	-6.37038	42.8502	0.259912	-0.00865282	689869	8493.02	1	11	0.0048802	0.000505256	0	-0.000144119	0.000149454	1.44472e-06	39.575	0.00285939	0.002204	-0.00182168	-6.3582	9.66087	9.60144	1.06988	0.102892	0.0114874	0.103532	6.37038	8.49302e+06	7.60719e+07	7.65445e+07	-83.6296	0.0000000E+000	0.0000000E+000	0.0000000E+000	83.6296	0.0000000E+000	0.0000000E+000	0.0000000E+000	-83.6296	0.0000000E+000	0.0000000E+000	0.0000000E+000	-6.37038	0.0000000E+000	0.0000000E+000	0.0000000E+000	6.37038	8.95699	83.6296	-5.19436e-06	-2.24897e-06	-1.2932e-09	-2.24768e-06	0.259762	30037.8	17.2723	30020.5
0.146929	9.77018	1.32707	9.85989	-7.73508	57.1887	0.259916	-0.00523577	816242	14786.4	1	11	0.00488088	0.000495023	0	-0.000202953	0.000302184	2.32864e-06	-3.48059	0.0047041	0.00469542	0.000285588	-7.73305	9.86459	9.77488	1.32736	0.100498	0.0136505	0.101421	7.73508	1.47864e+07	1.08861e+08	1.0986e+08	-82.2649	0.0000000E+000	0.0000000E+000	0.0000000E+000	82.2649	0.0000000E+000	0.0000000E+000	0.0000000E+000	-82.2649	0.0000000E+000	0.0000000E+000	0.0000000E+000	-7.73508	0.0000000E+000	0.0000000E+000	0.0000000E+000	7.73508	7.36221	82.2649	-5.8834e-05	-1.36086e-06	-1.58216e-09	-1.35928e-06	0.259614	49642.5	57.7153	49584.7
0.0999041	9.9697	1.65351	10.1059	-9.41699	78.2649	0.259923	-0.00422405	963451	25792.6	1	11	0.00488388	0.000483271	0	-0.000349587	0.000111272	2.50538e-06	-2.44677	0.00518422	0.00517949	0.00022132	-9.41343	10.111	9.97488	1.65373	0.0976187	0.0161904	0.0989522	9.41699	2.57926e+07	1.55514e+08	1.57638e+08	-80.583	0.0000000E+000	0.0000000E+000	0.0000000E+000	80.583	0.0000000E+000	0.0000000E+000	0.0000000E+000	-80.583	0.0000000E+000	0.0000000E+000	0.0000000E+000	-9.41699	0.0000000E+000	0.0000000E+000	0.0000000E+000	9.41699	6.02941	80.583	-0.000146635	-1.09793e-06	-4.70018e-10	-1.09746e-06	0.259812	61534.1	26.3425	61507.7
0.0680626	10.2438	2.06745	10.4503	-11.4104	109.191	0.259922	-0.00482124	1.13104e+06	44267.6	1	11	0.00488241	0.000467201	0	-0.000575856	-2.23667e-05	1.12335e-06	-15.1867	0.00240443	0.00232046	0.000629878	-11.4113	10.4527	10.2461	2.06808	0.0937995	0.018931	0.0956908	11.4104	4.42675e+07	2.19337e+08	2.23759e+08	-78.5896	0.0000000E+000	0.0000000E+000	0.0000000E+000	78.5896	0.0000000E+000	0.0000000E+000	0.0000000E+000	-78.5896	0.0000000E+000	0.0000000E+000	0.0000000E+000	-11.4104	0.0000000E+000	0.0000000E+000	0.0000000E+000	11.4104	4.9548	78.5896	-0.000226268	-1.25315e-06	1.07835e-10	-1.25325e-06	0.259944	53911.9	4.63919	53916.5
0.0464052	10.64	2.60867	10.9552	-13.7758	154.543	0.259924	-0.00764687	1.31472e+06	74548.1	1	11	0.00488393	0.000445812	0	-0.000862603	-9.87315e-05	1.47711e-06	-37.9158	0.00331331	0.00261392	0.00203604	-13.7829	10.9582	10.6426	2.61071	0.0886556	0.0217362	0.0912813	13.7758	7.45481e+07	3.0406e+08	3.13065e+08	-76.2242	0.0000000E+000	0.0000000E+000	0.0000000E+000	76.2242	0.0000000E+000	0.0000000E+000	0.0000000E+000	-76.2242	0.0000000E+000	0.0000000E+000	0.0000000E+000	-13.7758	0.0000000E+000	0.0000000E+000	0.0000000E+000	13.7758	4.07871	76.2242	-0.000286747	-1.98761e-06	7.54987e-10	-1.98836e-06	0.260023	33990.9	12.9114	34003.8
0.0315922	11.0874	3.42346	11.6039	-17.1591	221.148	0.259919	-0.00898514	1.47155e+06	128084	1	11	0.00488337	0.000420837	0	-0.00105072	0.000130363	1.07161e-06	7.25093	0.00254638	0.00252602	-0.000321392	-17.1539	11.6063	11.09	3.42314	0.0823418	0.0254246	0.0861776	17.1591	1.28084e+08	4.14821e+08	4.34145e+08	-72.8409	0.0000000E+000	0.0000000E+000	0.0000000E+000	72.8409	0.0000000E+000	0.0000000E+000	0.0000000E+000	-72.8409	0.0000000E+000	0.0000000E+000	0.0000000E+000	-17.1591	0.0000000E+000	0.0000000E+000	0.0000000E+000	17.1591	3.23867	72.8409	-0.00018812	-2.33541e-06	-1.17133e-09	-2.33423e-06	0.259788	28927.6	14.5087	28913.1
0.0215268	11.5492	4.44076	12.3736	-21.0321	318.887	0.259917	-0.00849611	1.66488e+06	214441	1	11	0.00488403	0.000394715	0	-0.000955919	9.21806e-05	2.31663e-06	27.5194	0.00586912	0.00520505	-0.00271183	-21.0117	12.3775	11.5544	4.43804	0.0754334	0.0290046	0.0808174	21.0321	2.14441e+08	5.57705e+08	5.97511e+08	-68.9679	0.0000000E+000	0.0000000E+000	0.0000000E+000	68.9679	0.0000000E+000	0.0000000E+000	0.0000000E+000	-68.9679	0.0000000E+000	0.0000000E+000	0.0000000E+000	-21.0321	0.0000000E+000	0.0000000E+000	0.0000000E+000	21.0321	2.60074	68.9679	9.48034e-05	-2.20829e-06	-7.83177e-10	-2.2075e-06	0.259825	30592.5	10.8497	30581.6
0.0146812	12.1828	5.66299	13.4346	-24.9307	462.189	0.259924	-0.00701037	1.91432e+06	340137	1	11	0.00488383	0.000363526	0	-0.000523626	-4.14579e-05	2.0165e-06	4.97538	0.00554706	0.00552615	-0.000481083	-24.9189	13.4394	12.1883	5.66251	0.0674986	0.0313758	0.0744345	24.9307	3.40137e+08	7.31735e+08	8.06926e+08	-65.0693	0.0000000E+000	0.0000000E+000	0.0000000E+000	65.0693	0.0000000E+000	0.0000000E+000	0.0000000E+000	-65.0693	0.0000000E+000	0.0000000E+000	0.0000000E+000	-24.9307	0.0000000E+000	0.0000000E+000	0.0000000E+000	24.9307	2.1513	65.0693	0.000432293	-1.82216e-06	2.90635e-10	-1.82246e-06	0.259966	37077.1	5.91379	37083
0.0100092	13.1101	7.33427	15.0222	-29.2243	672.371	0.25992	-0.00631666	2.16803e+06	516789	1	11	0.00488303	0.000325055	0	-5.3882e-05	-4.14579e-05	2.21483e-06	-2.94002	0.0068137	0.00680473	0.000349479	-29.2128	15.0283	13.1169	7.33462	0.0580951	0.0325006	0.0665683	29.2243	5.16789e+08	9.23766e+08	1.0585e+09	-60.7757	0.0000000E+000	0.0000000E+000	0.0000000E+000	60.7757	0.0000000E+000	0.0000000E+000	0.0000000E+000	-60.7757	0.0000000E+000	0.0000000E+000	0.0000000E+000	-29.2243	0.0000000E+000	0.0000000E+000	0.0000000E+000	29.2243	1.78751	60.7757	0.000469744	-1.64183e-06	2.61875e-10	-1.64209e-06	0.259962	41148.4	6.56326	41154.9