File: txt/17921_R288_UA670_SOC00_C02.mpt
EC-Lab ASCII FILE
Nb header lines : 64

Potentio Electrochemical Impedance Spectroscopy

Run on channel : 2 (SN 66139)
User :
CE vs. WE compliance from -10 V to 10 V
Electrode connection : standard
Potential control : Ewe
Ewe ctrl range : min = -10.00 V, max = 10.00 V
Safety Limits :
	Do not start on E overload
Acquisition started on : 09/29/2025 15:12:57.426
Loaded Setting File :  C:\Users\Celltest\OneDrive - store-dot.com\Documents\EC-Lab\Data\@Biologic Test Protocols\anode half cell EIS SOC00.mps
Saved on :
	File : 17921_R288_UA670_SOC00_C02.mpr
	Directory : C:\Users\Celltest\OneDrive - store-dot.com\Documents\EC-Lab\Data\Charmaine\
	Host : 169.254.61.224
Device : VMP-3e (SN .003165)
Address : USB
EC-LAB for windows v11.62 (software)
Internet server v27.00 (firmware)
Command interpretor v12.03 (firmware)
Electrode material :
Initial state :
Electrolyte :
Comments :
Electrode surface area : 0.001 cm²
Characteristic mass : 0.001 g
Equivalent Weight : 0.000 g/eq.
Density : 0.000 g/cm3
Volume (V) : 0.001 cm³
Record Ece
Cycle Definition : Charge/Discharge alternance
Mode                Single sine
E (V)               0.0000
vs.                 Eoc
tE (h:m:s)          0:00:0.0000
record              0
dI                  0.000
unit dI             mA
dt (s)              0.000
fi                  100.000
unit fi             kHz
ff                  10.000
unit ff             mHz
Nd                  6
Points              per decade
spacing             Logarithmic
Va (mV)             5.0
pw                  0.10
Na                  2
corr                0
E range min (V)     -10.000
E range max (V)     10.000
I Range             Auto
Bandwidth           5
nc cycles           0
goto Ns'            0
nr cycles           0
inc. cycle          0

freq/Hz	Re(Z)/Ohm	-Im(Z)/Ohm	|Z|/Ohm	Phase(Z)/deg	time/s	<Ewe>/V	<I>/mA	Cs/µF	Cp/µF	cycle number	I Range	|Ewe|/V	|I|/A	Ns	(Q-Qo)/mA.h	<Ece>/V	|Ece|/V	Phase(Zce)/deg	|Zce|/Ohm	Re(Zce)/Ohm	-Im(Zce)/Ohm	Phase(Zwe-ce)/deg	|Zwe-ce|/Ohm	Re(Zwe-ce)/Ohm	-Im(Zwe-ce)/Ohm	Re(Y)/Ohm-1	Im(Y)/Ohm-1	|Y|/Ohm-1	Phase(Y)/deg	Re(C)/nF	Im(C)/nF	|C|/nF	Phase(C)/deg	Re(M)	Im(M)	|M|	Phase(M)/deg	Re(Permittivity)	Im(Permittivity)	|Permittivity|	Phase(Permittivity)/deg	Re(Resistivity)/Ohm.cm	Im(Resistivity)/Ohm.cm	|Resistivity|/Ohm.cm	Phase(Resistivity)/deg	Re(Conductivity)/mS/cm	Im(Conductivity)/mS/cm	|Conductivity|/mS/cm	Phase(Conductivity)/deg	Tan(Delta)	Loss Angle(Delta)/deg	dq/mA.h	Pwe/W	Pce/W	Pwe-ce/W	<Ewe-Ece>/V	Rwe/Ohm	Rce/Ohm	Rwe-ce/Ohm		Ewe-Ece/V
100004	0.979353	0.0908195	0.983555	-5.29813	1.59354	0.268087	-0.00163655	17.5237	0.149412	1	9	0.00216952	0.00220579	0	-1.24779e-05	0.000114888	2.20043e-05	25.0825	0.00997569	0.00903497	-0.00422892	-5.00678	0.992173	0.988388	0.0865906	1.01238	0.0938819	1.01672	5.29813	149.412	1611.19	1618.1	-84.7019	0.0000000E+000	0.0000000E+000	0.0000000E+000	84.7019	0.0000000E+000	0.0000000E+000	0.0000000E+000	-84.7019	0.0000000E+000	0.0000000E+000	0.0000000E+000	-5.29813	0.0000000E+000	0.0000000E+000	0.0000000E+000	5.29813	10.7835	84.7019	-1.24779e-05	-4.38737e-07	-1.88019e-10	-4.38549e-07	0.267972	163812	70.2011	163742
68132	0.97324	0.182478	0.9902	-10.6194	2.10256	0.268049	-0.0118418	12.8014	0.434745	1	9	0.00536328	0.00541636	0	-2.48447e-05	0.000191251	1.78465e-05	13.3289	0.00329493	0.00320618	-0.000759616	-10.5423	0.993212	0.976447	0.181719	0.992601	0.186108	1.0099	10.6194	434.745	2318.69	2359.1	-79.3806	0.0000000E+000	0.0000000E+000	0.0000000E+000	79.3806	0.0000000E+000	0.0000000E+000	0.0000000E+000	-79.3806	0.0000000E+000	0.0000000E+000	0.0000000E+000	-10.6194	0.0000000E+000	0.0000000E+000	0.0000000E+000	10.6194	5.33346	79.3806	-1.23668e-05	-3.17419e-06	-2.26476e-09	-3.17193e-06	0.267858	22635.8	16.1505	22619.7
46420.4	1.01566	0.216845	1.03855	-12.0518	2.60952	0.268037	-0.0146725	15.8111	0.689301	1	9	0.00500425	0.00481851	0	-3.82418e-05	0.000267614	9.97846e-06	-6.66925	0.00207086	0.00205685	0.000240505	-12.0411	1.04061	1.01771	0.217086	0.94166	0.201047	0.962883	12.0518	689.3	3228.54	3301.3	-77.9482	0.0000000E+000	0.0000000E+000	0.0000000E+000	77.9482	0.0000000E+000	0.0000000E+000	0.0000000E+000	-77.9482	0.0000000E+000	0.0000000E+000	0.0000000E+000	-12.0518	0.0000000E+000	0.0000000E+000	0.0000000E+000	12.0518	4.68379	77.9482	-1.33971e-05	-3.93278e-06	-3.92658e-09	-3.92886e-06	0.267769	18267.9	18.2391	18249.7
31621.1	1.06813	0.247445	1.09642	-13.0432	2.86854	0.268041	-0.0108734	20.3406	1.03602	1	9	0.00543335	0.00495555	0	-3.54526e-05	-0.000114203	8.76488e-06	-39.9047	0.0017687	0.00135679	0.00113464	-13.0849	1.098	1.06949	0.24858	0.888531	0.205839	0.912062	13.0432	1036.02	4472.14	4590.57	-76.9568	0.0000000E+000	0.0000000E+000	0.0000000E+000	76.9568	0.0000000E+000	0.0000000E+000	0.0000000E+000	-76.9568	0.0000000E+000	0.0000000E+000	0.0000000E+000	-13.0432	0.0000000E+000	0.0000000E+000	0.0000000E+000	13.0432	4.31663	76.9568	2.78918e-06	-2.91453e-06	1.24178e-09	-2.91577e-06	0.268155	24651	10.5029	24661.5
21544.7	1.12008	0.300405	1.15966	-15.0134	3.37557	0.268	-0.154633	24.5908	1.65015	1	9	0.36324	0.313229	0	0.000130923	0.000439432	0.000148036	-94.9077	0.000472614	-4.04325e-05	0.000470881	-15.0364	1.15975	1.12004	0.300876	0.832885	0.22338	0.86232	15.0134	1650.15	6152.69	6370.13	-74.9866	0.0000000E+000	0.0000000E+000	0.0000000E+000	74.9866	0.0000000E+000	0.0000000E+000	0.0000000E+000	-74.9866	0.0000000E+000	0.0000000E+000	0.0000000E+000	-15.0134	0.0000000E+000	0.0000000E+000	0.0000000E+000	15.0134	3.72856	74.9866	0.000166375	-4.14418e-05	-6.79509e-08	-4.13739e-05	0.267561	1733.13	2.84176	1730.29
14678.6	1.18395	0.340376	1.23191	-16.0395	4.13055	0.268081	0.0115858	31.8549	2.43187	1	9	0.00507436	0.00411911	0	-0.000518672	0.000210342	1.88927e-05	-23.8654	0.00458659	0.00419443	0.00185569	-16.0685	1.23645	1.18814	0.342232	0.78015	0.224287	0.811751	16.0395	2431.87	8458.9	8801.53	-73.9605	0.0000000E+000	0.0000000E+000	0.0000000E+000	73.9605	0.0000000E+000	0.0000000E+000	0.0000000E+000	-73.9605	0.0000000E+000	0.0000000E+000	0.0000000E+000	-16.0395	0.0000000E+000	0.0000000E+000	0.0000000E+000	16.0395	3.47836	73.9605	-0.000649595	3.10593e-06	2.43698e-09	3.10349e-06	0.267871	23138.8	18.1551	23120.6
10002.2	1.26859	0.386445	1.32614	-16.9421	4.38957	0.268081	0.0216049	41.1752	3.49649	1	9	0.0047136	0.00355438	0	-0.000516575	0.00040125	2.98838e-06	19.3139	0.000840761	0.000793443	-0.000278077	-16.9207	1.32682	1.26938	0.386167	0.721341	0.21974	0.754068	16.9421	3496.49	11477.9	11998.7	-73.0579	0.0000000E+000	0.0000000E+000	0.0000000E+000	73.0579	0.0000000E+000	0.0000000E+000	0.0000000E+000	-73.0579	0.0000000E+000	0.0000000E+000	0.0000000E+000	-16.9421	0.0000000E+000	0.0000000E+000	0.0000000E+000	16.9421	3.28271	73.0579	2.09742e-06	5.79188e-06	8.66899e-09	5.78321e-06	0.26768	12408.3	18.5722	12389.8
6810.42	1.35669	0.451519	1.42986	-18.4079	4.77254	0.268088	0.0217912	51.7571	5.16104	1	9	0.00496869	0.00347496	0	-0.000514485	-3.78392e-05	3.22302e-05	-69.586	0.00927497	0.00323513	0.00869247	-18.6962	1.43569	1.35993	0.460211	0.663586	0.220847	0.699371	18.4079	5161.05	15507.6	16343.8	-71.5921	0.0000000E+000	0.0000000E+000	0.0000000E+000	71.5921	0.0000000E+000	0.0000000E+000	0.0000000E+000	-71.5921	0.0000000E+000	0.0000000E+000	0.0000000E+000	-18.4079	0.0000000E+000	0.0000000E+000	0.0000000E+000	18.4079	3.00473	71.5921	2.09008e-06	5.84194e-06	-8.2456e-10	5.84277e-06	0.268126	12302.6	1.73645	12304.3
4646	1.4595	0.508963	1.5457	-19.2249	5.03859	0.268072	-0.00145029	67.3062	7.29758	1	9	0.0048015	0.00310637	0	-0.000512396	-5.69301e-05	1.15036e-05	-50.9705	0.00370324	0.00233201	0.00287676	-19.297	1.54885	1.46183	0.511839	0.610879	0.213029	0.646958	19.2249	7297.58	20926.5	22162.4	-70.7751	0.0000000E+000	0.0000000E+000	0.0000000E+000	70.7751	0.0000000E+000	0.0000000E+000	0.0000000E+000	-70.7751	0.0000000E+000	0.0000000E+000	0.0000000E+000	-19.2249	0.0000000E+000	0.0000000E+000	0.0000000E+000	19.2249	2.86759	70.7751	2.08886e-06	-3.88781e-07	8.2565e-11	-3.88864e-07	0.268129	184841	39.2543	184880
3163.08	1.57671	0.586294	1.68219	-20.3975	5.41263	0.267879	-0.129129	85.8213	10.425	1	9	0.00470642	0.0027978	0	-0.000525767	0.000267614	1.16123e-05	-82.7053	0.0041505	0.000527004	0.0041169	-20.5225	1.68412	1.57724	0.59041	0.55719	0.207189	0.594464	20.3975	10425	28035.8	29911.3	-69.6025	0.0000000E+000	0.0000000E+000	0.0000000E+000	69.6025	0.0000000E+000	0.0000000E+000	0.0000000E+000	-69.6025	0.0000000E+000	0.0000000E+000	0.0000000E+000	-20.3975	0.0000000E+000	0.0000000E+000	0.0000000E+000	20.3975	2.68928	69.6025	-1.33713e-05	-3.4591e-05	-3.45568e-08	-3.45564e-05	0.267611	2074.5	2.07245	2072.43
2155.69	1.69911	0.676611	1.82887	-21.7132	5.86378	0.267938	-0.0564998	109.118	14.9351	1	9	0.00464573	0.00254022	0	-0.000530621	0.000267614	7.66075e-06	144.677	0.00301579	-0.00246059	-0.00174369	-21.691	1.82594	1.69665	0.674867	0.50799	0.20229	0.546786	21.7132	14935.1	37505	40369.3	-68.2868	0.0000000E+000	0.0000000E+000	0.0000000E+000	68.2868	0.0000000E+000	0.0000000E+000	0.0000000E+000	-68.2868	0.0000000E+000	0.0000000E+000	0.0000000E+000	-21.7132	0.0000000E+000	0.0000000E+000	0.0000000E+000	21.7132	2.5112	68.2868	-4.85421e-06	-1.51384e-05	-1.51201e-08	-1.51233e-05	0.26767	4742.29	4.73656	4737.55
1468.59	1.84075	0.797218	2.00597	-23.4171	6.31505	0.267948	-0.0524772	135.938	21.4707	1	9	0.00461724	0.00230174	0	-0.000535973	3.85242e-05	9.95839e-06	35.7543	0.00432646	0.00351105	-0.00252799	-23.3111	2.00819	1.84426	0.79469	0.457452	0.198119	0.498511	23.4171	21470.7	49575.2	54024.9	-66.5829	0.0000000E+000	0.0000000E+000	0.0000000E+000	66.5829	0.0000000E+000	0.0000000E+000	0.0000000E+000	-66.5829	0.0000000E+000	0.0000000E+000	0.0000000E+000	-23.4171	0.0000000E+000	0.0000000E+000	0.0000000E+000	23.4171	2.30897	66.5829	-5.3514e-06	-1.40611e-05	-2.02164e-09	-1.40591e-05	0.267909	5105.98	0.734112	5105.25
1000.32	1.99421	0.95307	2.21025	-25.544	6.76585	0.267928	-0.0579524	166.938	31.04	1	9	0.0045951	0.00207899	0	-0.000544196	3.42479e-07	6.091e-06	68.8534	0.00292978	0.00105693	-0.00273249	-25.4682	2.21003	1.99527	0.950337	0.408213	0.195092	0.452437	25.544	31040	64948.3	71984.5	-64.456	0.0000000E+000	0.0000000E+000	0.0000000E+000	64.456	0.0000000E+000	0.0000000E+000	0.0000000E+000	-64.456	0.0000000E+000	0.0000000E+000	0.0000000E+000	-25.544	0.0000000E+000	0.0000000E+000	0.0000000E+000	25.544	2.09241	64.456	-8.2238e-06	-1.55271e-05	-1.98475e-11	-1.5527e-05	0.267928	4623.25	0.00590967	4623.24
681.09	2.18544	1.14182	2.46575	-27.5856	7.21655	0.267932	-0.0538181	204.653	43.8851	1	9	0.0045753	0.00185555	0	-0.000549998	-7.60209e-05	3.89885e-06	-84.4405	0.00210119	0.000203562	0.0020913	-27.6264	2.4669	2.18564	1.14391	0.359453	0.187802	0.405557	27.5856	43885.1	83995.9	94769.2	-62.4144	0.0000000E+000	0.0000000E+000	0.0000000E+000	62.4144	0.0000000E+000	0.0000000E+000	0.0000000E+000	-62.4144	0.0000000E+000	0.0000000E+000	0.0000000E+000	-27.5856	0.0000000E+000	0.0000000E+000	0.0000000E+000	27.5856	1.914	62.4144	-5.80189e-06	-1.44196e-05	4.0913e-09	-1.44237e-05	0.268008	4978.47	1.41255	4979.88
463.961	2.4101	1.41971	2.79717	-30.5009	7.66829	0.267928	-0.0571702	241.624	62.2445	1	9	0.00455905	0.00162988	0	-0.000557887	-3.78392e-05	9.00056e-06	-51.3191	0.00552223	0.00345129	0.00431087	-30.541	2.80233	2.41355	1.42402	0.308033	0.181452	0.357504	30.5009	62244.5	105666	122637	-59.4991	0.0000000E+000	0.0000000E+000	0.0000000E+000	59.4991	0.0000000E+000	0.0000000E+000	0.0000000E+000	-59.4991	0.0000000E+000	0.0000000E+000	0.0000000E+000	-30.5009	0.0000000E+000	0.0000000E+000	0.0000000E+000	30.5009	1.6976	59.4991	-7.88829e-06	-1.53175e-05	2.16328e-09	-1.53197e-05	0.267966	4686.5	0.661869	4687.16
316.316	2.73247	1.75509	3.24757	-32.713	8.36009	0.267984	-0.0455741	286.682	83.73	1	10	0.0045963	0.0014153	0	-0.000566594	7.67059e-05	5.48726e-06	-49.8613	0.00387708	0.00249933	0.00296398	-32.7331	3.25127	2.73496	1.75805	0.259083	0.166411	0.307923	32.713	83730	130358	154932	-57.287	0.0000000E+000	0.0000000E+000	0.0000000E+000	57.287	0.0000000E+000	0.0000000E+000	0.0000000E+000	-57.287	0.0000000E+000	0.0000000E+000	0.0000000E+000	-32.713	0.0000000E+000	0.0000000E+000	0.0000000E+000	32.713	1.55688	57.287	-8.70706e-06	-1.22131e-05	-3.4958e-09	-1.22096e-05	0.267907	5880.18	1.6831	5878.5
215.345	3.18308	2.13677	3.83376	-33.873	8.81058	0.267991	-0.0463564	345.883	107.447	1	10	0.00457463	0.00119325	0	-0.000573488	9.57967e-05	7.98627e-06	-29.4996	0.00669288	0.00582521	0.00329569	-33.8654	3.84044	3.1889	2.14006	0.216569	0.14538	0.26084	33.873	107447	160060	192779	-56.127	0.0000000E+000	0.0000000E+000	0.0000000E+000	56.127	0.0000000E+000	0.0000000E+000	0.0000000E+000	-56.127	0.0000000E+000	0.0000000E+000	0.0000000E+000	-33.873	0.0000000E+000	0.0000000E+000	0.0000000E+000	33.873	1.48967	56.127	-6.89471e-06	-1.24231e-05	-4.44079e-09	-1.24187e-05	0.267895	5781.11	2.06653	5779.04
146.737	3.79667	2.53322	4.5642	-33.712	9.25655	0.267987	-0.0460248	428.161	131.893	1	10	0.00455886	0.00099883	0	-0.000579388	0.000210342	7.60132e-06	8.45918	0.00761023	0.00752743	-0.0011195	-33.648	4.56984	3.8042	2.5321	0.182253	0.121603	0.219097	33.712	131893	197676	237638	-56.288	0.0000000E+000	0.0000000E+000	0.0000000E+000	56.288	0.0000000E+000	0.0000000E+000	0.0000000E+000	-56.288	0.0000000E+000	0.0000000E+000	0.0000000E+000	-33.712	0.0000000E+000	0.0000000E+000	0.0000000E+000	33.712	1.49876	56.288	-5.8995e-06	-1.2334e-05	-9.68094e-09	-1.23244e-05	0.267777	5822.66	4.57018	5818.09
100.032	4.56855	2.88107	5.40113	-32.2368	9.70778	0.268	-0.0447694	552.24	157.132	1	10	0.00454749	0.000841953	0	-0.000584354	0.000229433	1.16224e-05	-27.5045	0.0138041	0.0122439	0.00637498	-32.2247	5.41488	4.58079	2.88744	0.156606	0.0987608	0.185147	32.2368	157132	249167	294576	-57.7632	0.0000000E+000	0.0000000E+000	0.0000000E+000	57.7632	0.0000000E+000	0.0000000E+000	0.0000000E+000	-57.7632	0.0000000E+000	0.0000000E+000	0.0000000E+000	-32.2368	0.0000000E+000	0.0000000E+000	0.0000000E+000	32.2368	1.58571	57.7632	-4.96636e-06	-1.19982e-05	-1.02716e-08	-1.19879e-05	0.267771	5986.23	5.12476	5981.11
68.104	5.47847	3.09804	6.29376	-29.4879	10.1704	0.267991	-0.0419383	754.33	182.774	1	10	0.00454368	0.000721934	0	-0.000589328	-0.00028602	9.94236e-06	-49.0091	0.0137718	0.00903348	0.0103952	-29.5297	6.30675	5.4875	3.10843	0.138305	0.0782106	0.158887	29.4879	182774	323211	371310	-60.5121	0.0000000E+000	0.0000000E+000	0.0000000E+000	60.5121	0.0000000E+000	0.0000000E+000	0.0000000E+000	-60.5121	0.0000000E+000	0.0000000E+000	0.0000000E+000	-29.4879	0.0000000E+000	0.0000000E+000	0.0000000E+000	29.4879	1.76837	60.5121	-4.97351e-06	-1.12391e-05	1.19952e-08	-1.12511e-05	0.268277	6390.13	6.82003	6396.95
46.4415	6.44719	3.13484	7.16892	-25.9306	10.6067	0.267988	-0.045846	1093.2	209.036	1	10	0.00454573	0.000634089	0	-0.000594604	-3.78392e-05	8.25333e-06	-118.2	0.0130161	-0.0061507	0.0114711	-26.0345	7.16842	6.44104	3.14631	0.125448	0.0609968	0.139491	25.9306	209036	429908	478035	-64.0694	0.0000000E+000	0.0000000E+000	0.0000000E+000	64.0694	0.0000000E+000	0.0000000E+000	0.0000000E+000	-64.0694	0.0000000E+000	0.0000000E+000	0.0000000E+000	-25.9306	0.0000000E+000	0.0000000E+000	0.0000000E+000	25.9306	2.05662	64.0694	-5.27599e-06	-1.22862e-05	1.73478e-09	-1.22879e-05	0.268026	5845.4	0.825354	5846.22
31.6296	7.3872	3.00136	7.97364	-22.1115	11.0366	0.267992	-0.0459131	1676.52	237.538	1	10	0.00454734	0.000570297	0	-0.000601013	0.000153069	1.22425e-05	2.30726	0.0214669	0.0214495	-0.000864224	-22.0479	7.99319	7.40865	3.0005	0.11619	0.0472069	0.125413	22.1115	237538	584647	631060	-67.8885	0.0000000E+000	0.0000000E+000	0.0000000E+000	67.8885	0.0000000E+000	0.0000000E+000	0.0000000E+000	-67.8885	0.0000000E+000	0.0000000E+000	0.0000000E+000	-22.1115	0.0000000E+000	0.0000000E+000	0.0000000E+000	22.1115	2.46128	67.8885	-6.40888e-06	-1.23044e-05	-7.02788e-09	-1.22973e-05	0.267839	5836.95	3.33389	5833.62
21.5517	8.20897	2.74877	8.65696	-18.5131	11.4574	0.267984	-0.0469971	2686.58	270.861	1	10	0.00454761	0.000525313	0	-0.00060632	0.000229433	1.02528e-05	135.657	0.0195176	-0.0139584	-0.0136418	-18.4567	8.63939	8.19501	2.73513	0.109536	0.0366782	0.115514	18.5131	270861	808903	853047	-71.4869	0.0000000E+000	0.0000000E+000	0.0000000E+000	71.4869	0.0000000E+000	0.0000000E+000	0.0000000E+000	-71.4869	0.0000000E+000	0.0000000E+000	0.0000000E+000	-18.5131	0.0000000E+000	0.0000000E+000	0.0000000E+000	18.5131	2.98642	71.4869	-5.30762e-06	-1.25945e-05	-1.07827e-08	-1.25837e-05	0.267755	5702.14	4.88184	5697.26
14.6852	8.86479	2.42747	9.19114	-15.314	11.9182	0.267996	-0.041033	4464.66	311.427	1	10	0.00454058	0.000494017	0	-0.000611437	0.000229433	1.11975e-05	-53.034	0.0226663	0.0136302	0.0181102	-15.4003	9.20908	8.87842	2.44558	0.104937	0.0287352	0.1088	15.314	311427	1.13729e+06	1.17916e+06	-74.686	0.0000000E+000	0.0000000E+000	0.0000000E+000	74.686	0.0000000E+000	0.0000000E+000	0.0000000E+000	-74.686	0.0000000E+000	0.0000000E+000	0.0000000E+000	-15.314	0.0000000E+000	0.0000000E+000	0.0000000E+000	15.314	3.65187	74.686	-5.11678e-06	-1.09967e-05	-9.41432e-09	-1.09873e-05	0.267766	6531.21	5.59141	6525.62
10.0032	9.40709	2.12473	9.64406	-12.7275	12.3689	0.267998	-0.0429068	7488.21	363.467	1	10	0.00453727	0.000470473	0	-0.000613232	0.000114888	4.20854e-06	128.705	0.00894533	-0.00559359	-0.00698074	-12.6944	9.63706	9.4015	2.11775	0.101143	0.0228446	0.103691	12.7275	363467	1.60923e+06	1.64976e+06	-77.2725	0.0000000E+000	0.0000000E+000	0.0000000E+000	77.2725	0.0000000E+000	0.0000000E+000	0.0000000E+000	-77.2725	0.0000000E+000	0.0000000E+000	0.0000000E+000	-12.7275	0.0000000E+000	0.0000000E+000	0.0000000E+000	12.7275	4.42743	77.2725	-1.79453e-06	-1.1499e-05	-4.92946e-09	-1.1494e-05	0.267884	6246.06	2.67761	6243.38
6.81719	9.87347	1.8565	10.0465	-10.649	12.7085	0.268016	-0.0360636	12575.3	429.419	1	10	0.00452966	0.00045087	0	-0.000618737	0.00017216	6.57948e-06	-26.4888	0.0145929	0.0130609	0.00650874	-10.6716	10.0605	9.88653	1.86301	0.097823	0.0183936	0.0995372	10.649	429419	2.28379e+06	2.32381e+06	-79.351	0.0000000E+000	0.0000000E+000	0.0000000E+000	79.351	0.0000000E+000	0.0000000E+000	0.0000000E+000	-79.351	0.0000000E+000	0.0000000E+000	0.0000000E+000	-10.649	0.0000000E+000	0.0000000E+000	0.0000000E+000	10.649	5.31832	79.351	-5.50495e-06	-9.66564e-06	-6.20871e-09	-9.65943e-06	0.267844	7431.77	4.77379	7427
4.63925	10.2336	1.61982	10.361	-8.99444	13.4535	0.268027	-0.0261682	21178.9	517.651	1	11	0.00454087	0.000438266	0	-0.000625328	-0.000152384	8.56704e-06	2.24583	0.0195476	0.0195326	-0.000766014	-8.97341	10.3802	10.2531	1.61906	0.095329	0.0150891	0.0965158	8.99444	517651	3.27037e+06	3.31109e+06	-81.0056	0.0000000E+000	0.0000000E+000	0.0000000E+000	81.0056	0.0000000E+000	0.0000000E+000	0.0000000E+000	-81.0056	0.0000000E+000	0.0000000E+000	0.0000000E+000	-8.99444	0.0000000E+000	0.0000000E+000	0.0000000E+000	8.99444	6.31772	81.0056	-6.59117e-06	-7.01379e-06	3.98762e-09	-7.01778e-06	0.26818	10242.5	5.82326	10248.3
3.1604	10.5519	1.40819	10.6455	-7.60142	14.1464	0.268023	-0.0254115	35761.6	625.766	1	11	0.00454166	0.000426628	0	-0.000624883	0.00017216	5.64854e-06	104.548	0.01324	-0.00332584	-0.0128154	-7.53539	10.6405	10.5486	1.39538	0.0931113	0.012426	0.0939368	7.60142	625766	4.68901e+06	4.73058e+06	-82.3986	0.0000000E+000	0.0000000E+000	0.0000000E+000	82.3986	0.0000000E+000	0.0000000E+000	0.0000000E+000	-82.3986	0.0000000E+000	0.0000000E+000	0.0000000E+000	-7.60142	0.0000000E+000	0.0000000E+000	0.0000000E+000	7.60142	7.49323	82.3986	4.44777e-07	-6.81087e-06	-4.37484e-09	-6.80649e-06	0.267851	10547.3	6.77489	10540.5
2.15577	10.8406	1.27083	10.9148	-6.68617	15.1501	0.268026	-0.0234481	58094	787.534	1	11	0.00454372	0.000416288	0	-0.000631928	0.000343978	3.97284e-06	118.451	0.00954348	-0.00454662	-0.00839085	-6.64519	10.9094	10.8361	1.26244	0.0909952	0.0106672	0.0916183	6.68617	787534	6.71795e+06	6.76395e+06	-83.3138	0.0000000E+000	0.0000000E+000	0.0000000E+000	83.3138	0.0000000E+000	0.0000000E+000	0.0000000E+000	-83.3138	0.0000000E+000	0.0000000E+000	0.0000000E+000	-6.68617	0.0000000E+000	0.0000000E+000	0.0000000E+000	6.68617	8.53036	83.3138	-7.04489e-06	-6.28472e-06	-8.06564e-09	-6.27665e-06	0.267682	11430.6	14.6697	11415.9
1.46631	11.0682	1.1666	11.1295	-6.01684	16.6115	0.268028	-0.0222215	93040.2	1022.27	1	11	0.00453967	0.000407894	0	-0.000649437	0.000114888	2.19277e-06	93.2051	0.00537583	-0.000300568	-0.00536742	-5.98952	11.1287	11.0679	1.16124	0.0893561	0.00941826	0.0898511	6.01684	1.02227e+06	9.69882e+06	9.75254e+06	-83.9832	0.0000000E+000	0.0000000E+000	0.0000000E+000	83.9832	0.0000000E+000	0.0000000E+000	0.0000000E+000	-83.9832	0.0000000E+000	0.0000000E+000	0.0000000E+000	-6.01684	0.0000000E+000	0.0000000E+000	0.0000000E+000	6.01684	9.48755	83.9832	-1.75087e-05	-5.95599e-06	-2.55298e-09	-5.95344e-06	0.267913	12061.6	5.1701	12056.4
1.00006	11.3039	1.07208	11.3546	-5.41782	18.7399	0.268022	-0.0217276	148445	1323.35	1	11	0.00454576	0.000400345	0	-0.000674613	-9.51117e-05	1.09766e-06	-78.4325	0.00274178	0.000549788	0.00268609	-5.43106	11.3554	11.3044	1.07476	0.0876767	0.0083154	0.0880701	5.41782	1.32335e+06	1.39533e+07	1.40159e+07	-84.5822	0.0000000E+000	0.0000000E+000	0.0000000E+000	84.5822	0.0000000E+000	0.0000000E+000	0.0000000E+000	-84.5822	0.0000000E+000	0.0000000E+000	0.0000000E+000	-5.41782	0.0000000E+000	0.0000000E+000	0.0000000E+000	5.41782	10.5439	84.5822	-2.51766e-05	-5.82348e-06	2.06655e-09	-5.82554e-06	0.268117	12335.6	4.37746	12339.9
0.681362	11.5006	1.03807	11.5473	-5.15769	21.852	0.26803	-0.0211301	225016	1818.47	1	11	0.00454292	0.000393416	0	-0.000701706	0.000114888	2.12803e-06	-43.2157	0.00540911	0.00394206	0.00370387	-5.17423	11.5516	11.5045	1.04178	0.0862493	0.00778509	0.0866	5.15769	1.81847e+06	2.01464e+07	2.02283e+07	-84.8423	0.0000000E+000	0.0000000E+000	0.0000000E+000	84.8423	0.0000000E+000	0.0000000E+000	0.0000000E+000	-84.8423	0.0000000E+000	0.0000000E+000	0.0000000E+000	-5.15769	0.0000000E+000	0.0000000E+000	0.0000000E+000	5.15769	11.0788	84.8423	-2.70926e-05	-5.6635e-06	-2.42759e-09	-5.66107e-06	0.267915	12684.7	5.43714	12679.3
0.464091	11.6809	1.07232	11.73	-5.24512	26.4085	0.268029	-0.0209857	319811	2672.67	1	11	0.00454272	0.000387273	0	-0.000722172	7.67059e-05	3.1013e-06	78.6084	0.00800805	0.0015817	-0.00785029	-5.20623	11.7309	11.6825	1.06447	0.0848945	0.00779341	0.0852515	5.24512	2.67267e+06	2.91137e+07	2.92361e+07	-84.7549	0.0000000E+000	0.0000000E+000	0.0000000E+000	84.7549	0.0000000E+000	0.0000000E+000	0.0000000E+000	-84.7549	0.0000000E+000	0.0000000E+000	0.0000000E+000	-5.24512	0.0000000E+000	0.0000000E+000	0.0000000E+000	5.24512	10.8931	84.7549	-2.0466e-05	-5.62477e-06	-1.60973e-09	-5.62316e-06	0.267952	12772	3.65515	12768.3
0.316193	11.8374	1.1615	11.8943	-5.60398	33.082	0.268027	-0.0195703	433359	4132.48	1	11	0.00454389	0.000382023	0	-0.000730273	0.000133978	2.09317e-06	47.9743	0.00547918	0.00366811	-0.00407018	-5.58275	11.8975	11.8411	1.15743	0.0836722	0.00820999	0.084074	5.60398	4.13248e+06	4.21162e+07	4.23184e+07	-84.396	0.0000000E+000	0.0000000E+000	0.0000000E+000	84.396	0.0000000E+000	0.0000000E+000	0.0000000E+000	-84.396	0.0000000E+000	0.0000000E+000	0.0000000E+000	-5.60398	0.0000000E+000	0.0000000E+000	0.0000000E+000	5.60398	10.1915	84.396	-8.10163e-06	-5.24537e-06	-2.622e-09	-5.24275e-06	0.267893	13695.6	6.84601	13688.8
0.215268	12.0133	1.30951	12.0845	-6.22096	42.8755	0.268021	-0.0170202	564589	6629.7	1	11	0.0045432	0.000375953	0	-0.000728586	9.57967e-05	1.75901e-06	-56.011	0.00467881	0.00261561	0.00387941	-6.23789	12.0875	12.0159	1.31339	0.0822635	0.00896712	0.0827508	6.22096	6.6297e+06	6.08203e+07	6.11805e+07	-83.779	0.0000000E+000	0.0000000E+000	0.0000000E+000	83.779	0.0000000E+000	0.0000000E+000	0.0000000E+000	-83.779	0.0000000E+000	0.0000000E+000	0.0000000E+000	-6.22096	0.0000000E+000	0.0000000E+000	0.0000000E+000	6.22096	9.1739	83.779	1.6871e-06	-4.56176e-06	-1.63047e-09	-4.56013e-06	0.267925	15747.3	5.62843	15741.6
0.146929	12.25	1.53814	12.3461	-7.15676	57.2138	0.268024	-0.0128108	704235	10930.6	1	11	0.00454297	0.000367967	0	-0.000734169	0.000382159	1.91621e-06	-4.12329	0.00520756	0.00519408	0.000374439	-7.15549	12.3514	12.2552	1.53851	0.0803659	0.010091	0.0809969	7.15676	1.09306e+07	8.70532e+07	8.77368e+07	-82.8432	0.0000000E+000	0.0000000E+000	0.0000000E+000	82.8432	0.0000000E+000	0.0000000E+000	0.0000000E+000	-82.8432	0.0000000E+000	0.0000000E+000	0.0000000E+000	-7.15676	0.0000000E+000	0.0000000E+000	0.0000000E+000	7.15676	7.96414	82.8432	-5.58306e-06	-3.43359e-06	-4.89575e-09	-3.42869e-06	0.267642	20921.8	29.8311	20892
0.0999041	12.5438	1.9083	12.6882	-8.65011	78.2901	0.268024	-0.00877927	834815	18883.6	1	11	0.00454638	0.000358317	0	-0.000781806	1.94333e-05	2.05737e-06	-33.7568	0.00574176	0.00477372	0.00319052	-8.6611	12.6934	12.5486	1.91149	0.0779171	0.0118536	0.0788136	8.65011	1.88836e+07	1.24128e+08	1.25556e+08	-81.3499	0.0000000E+000	0.0000000E+000	0.0000000E+000	81.3499	0.0000000E+000	0.0000000E+000	0.0000000E+000	-81.3499	0.0000000E+000	0.0000000E+000	0.0000000E+000	-8.65011	0.0000000E+000	0.0000000E+000	0.0000000E+000	8.65011	6.57331	81.3499	-4.76368e-05	-2.35306e-06	-1.7061e-10	-2.35289e-06	0.268005	30529.3	2.21355	30527
0.0680626	12.8723	2.40771	13.0956	-10.5945	109.218	0.268022	-0.00626386	971196	32829.7	1	11	0.00454423	0.000347005	0	-0.00090649	9.57967e-05	1.58767e-06	32.6951	0.00457535	0.00385042	-0.00247146	-10.5808	13.0989	12.8762	2.40524	0.07506	0.0140396	0.0763617	10.5945	3.28297e+07	1.75517e+08	1.78561e+08	-79.4055	0.0000000E+000	0.0000000E+000	0.0000000E+000	79.4055	0.0000000E+000	0.0000000E+000	0.0000000E+000	-79.4055	0.0000000E+000	0.0000000E+000	0.0000000E+000	-10.5945	0.0000000E+000	0.0000000E+000	0.0000000E+000	10.5945	5.34629	79.4055	-0.000124683	-1.67885e-06	-6.00057e-10	-1.67825e-06	0.267926	42788.6	15.2936	42773.3
0.0464052	13.253	2.98693	13.5854	-12.7009	154.569	0.268023	-0.00603465	1.14823e+06	55504.8	1	11	0.00454454	0.000334515	0	-0.00117658	3.42479e-07	1.40949e-06	-0.441592	0.00421352	0.0042134	3.24743e-05	-12.6972	13.5896	13.2572	2.98696	0.071807	0.0161837	0.0736082	12.7009	5.55048e+07	2.46275e+08	2.52452e+08	-77.2991	0.0000000E+000	0.0000000E+000	0.0000000E+000	77.2991	0.0000000E+000	0.0000000E+000	0.0000000E+000	-77.2991	0.0000000E+000	0.0000000E+000	0.0000000E+000	-12.7009	0.0000000E+000	0.0000000E+000	0.0000000E+000	12.7009	4.43701	77.2991	-0.00027009	-1.61743e-06	-2.06674e-12	-1.61742e-06	0.268023	44414.1	0.0567522	44414
0.0315922	13.8105	3.7266	14.3044	-15.101	221.174	0.268023	-0.00685089	1.35185e+06	91751	1	11	0.00454144	0.000317484	0	-0.00157686	0.000153069	2.52866e-06	16.3434	0.00796468	0.00764285	-0.00224121	-15.0843	14.3112	13.8181	3.72436	0.0674943	0.0182126	0.0699083	15.101	9.1751e+07	3.40022e+08	3.52184e+08	-74.899	0.0000000E+000	0.0000000E+000	0.0000000E+000	74.899	0.0000000E+000	0.0000000E+000	0.0000000E+000	-74.899	0.0000000E+000	0.0000000E+000	0.0000000E+000	-15.101	0.0000000E+000	0.0000000E+000	0.0000000E+000	15.101	3.70592	74.899	-0.000400276	-1.8362e-06	-1.04866e-09	-1.83515e-06	0.26787	39122.4	22.343	39100.1
0.0215268	14.5082	4.80988	15.2847	-18.3419	318.912	0.26802	-0.00809196	1.53712e+06	152216	1	11	0.00454183	0.000297149	0	-0.00199711	0.00017216	1.32708e-06	19.3499	0.00446605	0.00421377	-0.00147977	-18.3316	15.2882	14.5124	4.8084	0.062101	0.0205883	0.0654249	18.3419	1.52216e+08	4.59134e+08	4.83709e+08	-71.6581	0.0000000E+000	0.0000000E+000	0.0000000E+000	71.6581	0.0000000E+000	0.0000000E+000	0.0000000E+000	-71.6581	0.0000000E+000	0.0000000E+000	0.0000000E+000	-18.3419	0.0000000E+000	0.0000000E+000	0.0000000E+000	18.3419	3.01633	71.6581	-0.000420257	-2.16881e-06	-1.39311e-09	-2.16742e-06	0.267848	33121.8	21.2754	33100.5
0.0146812	15.1468	6.22112	16.3746	-22.329	530.536	0.268037	-0.00728424	1.74257e+06	251527	1	12	0.00454079	0.000277306	0	-0.00235466	5.7615e-05	1.77235e-06	24.0806	0.00639131	0.00583508	-0.00260779	-22.3128	16.379	15.1527	6.21851	0.0564909	0.023202	0.06107	22.329	2.51527e+08	6.12403e+08	6.62045e+08	-67.671	0.0000000E+000	0.0000000E+000	0.0000000E+000	67.671	0.0000000E+000	0.0000000E+000	0.0000000E+000	-67.671	0.0000000E+000	0.0000000E+000	0.0000000E+000	-22.329	0.0000000E+000	0.0000000E+000	0.0000000E+000	22.329	2.43474	67.671	-0.000357545	-1.95244e-06	-4.19682e-10	-1.95203e-06	0.267979	36796.8	7.90954	36788.9
0.0100092	16.0585	8.07653	17.9751	-26.6999	740.717	0.268023	-0.00804036	1.96878e+06	397469	1	12	0.00454257	0.000252714	0	-0.00222228	-1.87484e-05	2.67617e-06	40.0303	0.0105897	0.00810858	-0.00681123	-26.6689	17.9793	16.0666	8.06972	0.0497005	0.0249966	0.0556324	26.6999	3.97469e+08	7.90283e+08	8.84606e+08	-63.3001	0.0000000E+000	0.0000000E+000	0.0000000E+000	63.3001	0.0000000E+000	0.0000000E+000	0.0000000E+000	-63.3001	0.0000000E+000	0.0000000E+000	0.0000000E+000	-26.6999	0.0000000E+000	0.0000000E+000	0.0000000E+000	26.6999	1.98829	63.3001	0.000132378	-2.155e-06	1.50744e-10	-2.15515e-06	0.268042	33334.7	2.33178	33337