File: txt/17923_R288_UA670_SOC00_C04.mpt
EC-Lab ASCII FILE
Nb header lines : 64

Potentio Electrochemical Impedance Spectroscopy

Run on channel : 4 (SN 66756)
User :
CE vs. WE compliance from -10 V to 10 V
Electrode connection : standard
Potential control : Ewe
Ewe ctrl range : min = -10.00 V, max = 10.00 V
Safety Limits :
	Do not start on E overload
Acquisition started on : 09/29/2025 15:13:21.775
Loaded Setting File :  C:\Users\Celltest\OneDrive - store-dot.com\Documents\EC-Lab\Data\@Biologic Test Protocols\anode half cell EIS SOC00.mps
Saved on :
	File : 17923_R288_UA670_SOC00_C04.mpr
	Directory : C:\Users\Celltest\OneDrive - store-dot.com\Documents\EC-Lab\Data\Charmaine\
	Host : 169.254.61.224
Device : VMP-3e (SN .003165)
Address : USB
EC-LAB for windows v11.62 (software)
Internet server v27.00 (firmware)
Command interpretor v12.03 (firmware)
Electrode material :
Initial state :
Electrolyte :
Comments :
Electrode surface area : 0.001 cm²
Characteristic mass : 0.001 g
Equivalent Weight : 0.000 g/eq.
Density : 0.000 g/cm3
Volume (V) : 0.001 cm³
Record Ece
Cycle Definition : Charge/Discharge alternance
Mode                Single sine
E (V)               0.0000
vs.                 Eoc
tE (h:m:s)          0:00:0.0000
record              0
dI                  0.000
unit dI             mA
dt (s)              0.000
fi                  100.000
unit fi             kHz
ff                  10.000
unit ff             mHz
Nd                  6
Points              per decade
spacing             Logarithmic
Va (mV)             5.0
pw                  0.10
Na                  2
corr                0
E range min (V)     -10.000
E range max (V)     10.000
I Range             Auto
Bandwidth           5
nc cycles           0
goto Ns'            0
nr cycles           0
inc. cycle          0

freq/Hz	Re(Z)/Ohm	-Im(Z)/Ohm	|Z|/Ohm	Phase(Z)/deg	time/s	<Ewe>/V	<I>/mA	Cs/µF	Cp/µF	cycle number	I Range	|Ewe|/V	|I|/A	Ns	(Q-Qo)/mA.h	<Ece>/V	|Ece|/V	Phase(Zce)/deg	|Zce|/Ohm	Re(Zce)/Ohm	-Im(Zce)/Ohm	Phase(Zwe-ce)/deg	|Zwe-ce|/Ohm	Re(Zwe-ce)/Ohm	-Im(Zwe-ce)/Ohm	Re(Y)/Ohm-1	Im(Y)/Ohm-1	|Y|/Ohm-1	Phase(Y)/deg	Re(C)/nF	Im(C)/nF	|C|/nF	Phase(C)/deg	Re(M)	Im(M)	|M|	Phase(M)/deg	Re(Permittivity)	Im(Permittivity)	|Permittivity|	Phase(Permittivity)/deg	Re(Resistivity)/Ohm.cm	Im(Resistivity)/Ohm.cm	|Resistivity|/Ohm.cm	Phase(Resistivity)/deg	Re(Conductivity)/mS/cm	Im(Conductivity)/mS/cm	|Conductivity|/mS/cm	Phase(Conductivity)/deg	Tan(Delta)	Loss Angle(Delta)/deg	dq/mA.h	Pwe/W	Pce/W	Pwe-ce/W	<Ewe-Ece>/V	Rwe/Ohm	Rce/Ohm	Rwe-ce/Ohm		Ewe-Ece/V
100004	0.879717	0.204655	0.903208	-13.0962	1.73656	0.261456	-0.0327322	7.77646	0.399255	1	9	0.0047792	0.00529136	0	-1.17721e-05	0.000175598	4.74873e-05	50.2409	0.0089745	0.00573974	-0.00689907	-12.5897	0.907271	0.885456	0.197756	1.07837	0.250869	1.10716	13.0962	399.255	1716.21	1762.04	-76.9038	0.0000000E+000	0.0000000E+000	0.0000000E+000	76.9038	0.0000000E+000	0.0000000E+000	0.0000000E+000	-76.9038	0.0000000E+000	0.0000000E+000	0.0000000E+000	-13.0962	0.0000000E+000	0.0000000E+000	0.0000000E+000	13.0962	4.29854	76.9038	-1.17721e-05	-8.55805e-06	-5.74771e-09	-8.55231e-06	0.261281	7987.73	5.36468	7982.37
68132	0.931104	0.240525	0.961669	-14.4841	2.11954	0.261453	-0.0357533	9.712	0.607544	1	9	0.00541645	0.00563235	0	-2.87627e-05	8.00481e-05	2.46706e-05	34.9916	0.00438016	0.00358839	-0.00251183	-14.2864	0.964521	0.934692	0.238013	1.00681	0.260081	1.03986	14.4841	607.544	2351.88	2429.09	-75.5159	0.0000000E+000	0.0000000E+000	0.0000000E+000	75.5159	0.0000000E+000	0.0000000E+000	0.0000000E+000	-75.5159	0.0000000E+000	0.0000000E+000	0.0000000E+000	-14.4841	0.0000000E+000	0.0000000E+000	0.0000000E+000	14.4841	3.87113	75.5159	-1.69905e-05	-9.3478e-06	-2.86198e-09	-9.34494e-06	0.261373	7312.69	2.2389	7310.45
46420.4	0.988046	0.281727	1.02743	-15.9147	2.62654	0.261443	-0.0366112	12.1698	0.915037	1	9	0.00519965	0.00506085	0	-2.55161e-05	-0.000244821	1.72883e-05	8.45738	0.00341609	0.00337894	-0.000502417	-15.8364	1.03054	0.991425	0.281225	0.936	0.266887	0.973306	15.9147	915.037	3209.13	3337.04	-74.0853	0.0000000E+000	0.0000000E+000	0.0000000E+000	74.0853	0.0000000E+000	0.0000000E+000	0.0000000E+000	-74.0853	0.0000000E+000	0.0000000E+000	0.0000000E+000	-15.9147	0.0000000E+000	0.0000000E+000	0.0000000E+000	15.9147	3.5071	74.0853	3.24653e-06	-9.57173e-06	8.96318e-09	-9.5807e-06	0.261688	7141.08	6.68707	7147.77
31621.1	1.05407	0.325976	1.10333	-17.1845	3.13357	0.261442	-0.0335528	15.4403	1.34779	1	9	0.00518595	0.0047003	0	-2.46927e-05	0.000137378	1.02578e-05	50.2315	0.00218238	0.00139604	-0.00167746	-17.0799	1.10417	1.05547	0.324299	0.86589	0.26778	0.906351	17.1845	1347.79	4358.18	4561.83	-72.8156	0.0000000E+000	0.0000000E+000	0.0000000E+000	72.8156	0.0000000E+000	0.0000000E+000	0.0000000E+000	-72.8156	0.0000000E+000	0.0000000E+000	0.0000000E+000	-17.1845	0.0000000E+000	0.0000000E+000	0.0000000E+000	17.1845	3.23358	72.8156	8.23444e-07	-8.77209e-06	-4.60941e-09	-8.76748e-06	0.261304	7791.95	4.09438	7787.85
21544.7	1.13221	0.372937	1.19205	-18.2312	3.64052	0.261443	-0.0359025	19.8082	1.93877	1	9	0.00518609	0.00435056	0	-2.01328e-05	4.18282e-05	8.25298e-06	-54.2086	0.00189699	0.00110943	0.00153875	-18.2847	1.19359	1.13332	0.374475	0.796779	0.262449	0.83889	18.2312	1938.77	5885.97	6197.05	-71.7688	0.0000000E+000	0.0000000E+000	0.0000000E+000	71.7688	0.0000000E+000	0.0000000E+000	0.0000000E+000	-71.7688	0.0000000E+000	0.0000000E+000	0.0000000E+000	-18.2312	0.0000000E+000	0.0000000E+000	0.0000000E+000	18.2312	3.03594	71.7688	4.5599e-06	-9.38646e-06	-1.50174e-09	-9.38496e-06	0.261401	7282.02	1.16505	7280.85
14678.6	1.21813	0.428659	1.29135	-19.387	4.14956	0.261443	-0.0357161	25.2944	2.78716	1	9	0.00516476	0.00399951	0	-2.23798e-05	-0.000187491	1.00441e-05	-53.5465	0.00251134	0.00149216	0.00201997	-19.4495	1.29343	1.21962	0.430679	0.730476	0.257055	0.774385	19.387	2787.16	7920.3	8396.39	-70.613	0.0000000E+000	0.0000000E+000	0.0000000E+000	70.613	0.0000000E+000	0.0000000E+000	0.0000000E+000	-70.613	0.0000000E+000	0.0000000E+000	0.0000000E+000	-19.387	0.0000000E+000	0.0000000E+000	0.0000000E+000	19.387	2.84171	70.613	-2.24698e-06	-9.33771e-06	6.69645e-09	-9.34441e-06	0.26163	7320.03	5.24949	7325.28
10002.2	1.3214	0.489705	1.40923	-20.3344	4.65653	0.261434	-0.0384761	32.493	3.92371	1	9	0.00515045	0.00365481	0	-3.00435e-05	0.000137378	8.89152e-06	-73.9193	0.00243283	0.000673872	0.00233764	-20.4139	1.41067	1.32208	0.492042	0.665387	0.246589	0.70961	20.3344	3923.71	10587.6	11291.3	-69.6656	0.0000000E+000	0.0000000E+000	0.0000000E+000	69.6656	0.0000000E+000	0.0000000E+000	0.0000000E+000	-69.6656	0.0000000E+000	0.0000000E+000	0.0000000E+000	-20.3344	0.0000000E+000	0.0000000E+000	0.0000000E+000	20.3344	2.69837	69.6656	-7.66373e-06	-1.0059e-05	-5.28577e-09	-1.00537e-05	0.261297	6794.72	3.57048	6791.15
6810.42	1.43594	0.562044	1.54202	-21.3759	5.16352	0.261446	-0.0410869	41.5792	5.52379	1	9	0.00512053	0.00332066	0	-3.79532e-05	-0.000283041	1.19883e-05	22.9223	0.0036102	0.00332511	-0.00140611	-21.2824	1.5446	1.43927	0.560638	0.603889	0.236369	0.648501	21.3759	5523.79	14112.5	15155	-68.6241	0.0000000E+000	0.0000000E+000	0.0000000E+000	68.6241	0.0000000E+000	0.0000000E+000	0.0000000E+000	-68.6241	0.0000000E+000	0.0000000E+000	0.0000000E+000	-21.3759	0.0000000E+000	0.0000000E+000	0.0000000E+000	21.3759	2.55486	68.6241	-7.9097e-06	-1.0742e-05	1.16293e-08	-1.07536e-05	0.261729	6363.25	6.88884	6370.14
4646	1.56359	0.645255	1.6915	-22.4247	5.6826	0.261432	-0.0268393	53.0896	7.72551	1	9	0.00510505	0.00301805	0	-4.9678e-05	-7.28316e-05	5.95551e-06	31.7632	0.0019733	0.00167776	-0.00103876	-22.3705	1.69266	1.56527	0.644216	0.546486	0.225521	0.59119	22.4247	7725.51	18720.6	20252	-67.5753	0.0000000E+000	0.0000000E+000	0.0000000E+000	67.5753	0.0000000E+000	0.0000000E+000	0.0000000E+000	-67.5753	0.0000000E+000	0.0000000E+000	0.0000000E+000	-22.4247	0.0000000E+000	0.0000000E+000	0.0000000E+000	22.4247	2.42322	67.5753	-1.17248e-05	-7.01667e-06	1.95475e-09	-7.01863e-06	0.261505	9740.64	2.71361	9743.35
3163.08	1.71073	0.735144	1.862	-23.2544	6.23464	0.261425	-0.0432875	68.4443	10.669	1	9	0.00534427	0.00287018	0	-5.41208e-05	-0.000225711	7.99907e-06	-62.0585	0.00278696	0.00130588	0.00246207	-23.3081	1.86417	1.71204	0.737606	0.493427	0.212038	0.537058	23.2544	10669	24827.5	27022.8	-66.7456	0.0000000E+000	0.0000000E+000	0.0000000E+000	66.7456	0.0000000E+000	0.0000000E+000	0.0000000E+000	-66.7456	0.0000000E+000	0.0000000E+000	0.0000000E+000	-23.2544	0.0000000E+000	0.0000000E+000	0.0000000E+000	23.2544	2.32707	66.7456	-4.4428e-06	-1.13164e-05	9.77046e-09	-1.13262e-05	0.261651	6039.29	5.21424	6044.5
2155.69	1.88776	0.838475	2.06559	-23.9491	6.89981	0.261431	-0.0352313	88.0529	14.5089	1	9	0.00524233	0.00253793	0	-6.45828e-05	2.27182e-05	3.36856e-06	74.494	0.00132729	0.000354835	-0.00127898	-23.9126	2.0654	1.88811	0.837196	0.442443	0.196517	0.484122	23.9491	14508.9	32665.6	35742.8	-66.0509	0.0000000E+000	0.0000000E+000	0.0000000E+000	66.0509	0.0000000E+000	0.0000000E+000	0.0000000E+000	-66.0509	0.0000000E+000	0.0000000E+000	0.0000000E+000	-23.9491	0.0000000E+000	0.0000000E+000	0.0000000E+000	23.9491	2.25142	66.0509	-1.0462e-05	-9.21053e-06	-8.00392e-10	-9.20973e-06	0.261408	7420.42	0.644832	7419.77
1468.59	2.08429	0.965521	2.29706	-24.8553	7.5651	0.26144	-0.0395577	112.243	19.8306	1	9	0.00503711	0.00219285	0	-7.08386e-05	-0.000130161	8.02214e-06	54.6906	0.00365832	0.00211448	-0.00298534	-24.7656	2.29773	2.0864	0.962536	0.395014	0.182985	0.435339	24.8553	19830.6	42808.7	47178.8	-65.1447	0.0000000E+000	0.0000000E+000	0.0000000E+000	65.1447	0.0000000E+000	0.0000000E+000	0.0000000E+000	-65.1447	0.0000000E+000	0.0000000E+000	0.0000000E+000	-24.8553	0.0000000E+000	0.0000000E+000	0.0000000E+000	24.8553	2.15872	65.1447	-6.25574e-06	-1.0342e-05	5.14889e-09	-1.03471e-05	0.26157	6609.08	3.29042	6612.37
1000.32	2.30729	1.099	2.55566	-25.4691	8.01677	0.261432	-0.0341123	144.772	26.7714	1	9	0.00500235	0.00195736	0	-7.3471e-05	6.09381e-05	7.60286e-06	25.5768	0.00388424	0.00350362	-0.00167691	-25.4015	2.5581	2.3108	1.09732	0.353262	0.168264	0.391288	25.4691	26771.4	56205.4	62255.5	-64.5309	0.0000000E+000	0.0000000E+000	0.0000000E+000	64.5309	0.0000000E+000	0.0000000E+000	0.0000000E+000	-64.5309	0.0000000E+000	0.0000000E+000	0.0000000E+000	-25.4691	0.0000000E+000	0.0000000E+000	0.0000000E+000	25.4691	2.09945	64.5309	-2.63241e-06	-8.91805e-06	-2.07874e-09	-8.91597e-06	0.261371	7663.84	1.7864	7662.06
681.09	2.56974	1.2625	2.86312	-26.1646	8.46653	0.261437	-0.0342988	185.091	35.9888	1	9	0.00488079	0.00170471	0	-7.90148e-05	-5.37216e-05	6.75321e-06	-57.4913	0.0039615	0.00212902	0.00334077	-26.2058	2.8665	2.57187	1.26584	0.31348	0.154011	0.34927	26.1646	35988.8	73253.1	81616.2	-63.8354	0.0000000E+000	0.0000000E+000	0.0000000E+000	63.8354	0.0000000E+000	0.0000000E+000	0.0000000E+000	-63.8354	0.0000000E+000	0.0000000E+000	0.0000000E+000	-26.1646	0.0000000E+000	0.0000000E+000	0.0000000E+000	26.1646	2.03544	63.8354	-5.54383e-06	-8.96698e-06	1.84259e-09	-8.96883e-06	0.261491	7622.32	1.56628	7623.89
463.961	2.89187	1.45754	3.23841	-26.7486	9.16434	0.261445	-0.0226295	235.353	47.6753	1	10	0.00482837	0.00149097	0	-8.48462e-05	2.27182e-05	8.88613e-06	-52.2306	0.00595998	0.0036504	0.00471126	-26.7939	3.2438	2.89552	1.46225	0.275749	0.138981	0.308793	26.7486	47675.3	94591.7	105927	-63.2514	0.0000000E+000	0.0000000E+000	0.0000000E+000	63.2514	0.0000000E+000	0.0000000E+000	0.0000000E+000	-63.2514	0.0000000E+000	0.0000000E+000	0.0000000E+000	-26.7486	0.0000000E+000	0.0000000E+000	0.0000000E+000	26.7486	1.98408	63.2514	-5.83139e-06	-5.91637e-06	-5.14102e-10	-5.91586e-06	0.261423	11553.3	1.00392	11552.3
316.316	3.27009	1.66072	3.66763	-26.9238	9.61202	0.261435	-0.0249198	302.972	62.1192	1	10	0.0047515	0.00129552	0	-8.68065e-05	-5.37216e-05	4.04998e-06	55.9469	0.00312613	0.00175051	-0.00259006	-26.8754	3.66802	3.27184	1.65813	0.243103	0.12346	0.272656	26.9238	62119.2	122317	137187	-63.0762	0.0000000E+000	0.0000000E+000	0.0000000E+000	63.0762	0.0000000E+000	0.0000000E+000	0.0000000E+000	-63.0762	0.0000000E+000	0.0000000E+000	0.0000000E+000	-26.9238	0.0000000E+000	0.0000000E+000	0.0000000E+000	26.9238	1.96908	63.0762	-1.96032e-06	-6.51492e-06	1.33873e-09	-6.51626e-06	0.261489	10491.1	2.15578	10493.2
215.345	3.7265	1.86857	4.16873	-26.6304	10.0625	0.261436	-0.0233718	395.528	79.4671	1	10	0.0047054	0.00112874	0	-9.00393e-05	9.9158e-05	9.66599e-06	56.3151	0.00856354	0.00474955	-0.00712573	-26.5137	4.16979	3.73125	1.86144	0.214434	0.107523	0.239881	26.6304	79467.1	158482	177289	-63.3696	0.0000000E+000	0.0000000E+000	0.0000000E+000	63.3696	0.0000000E+000	0.0000000E+000	0.0000000E+000	-63.3696	0.0000000E+000	0.0000000E+000	0.0000000E+000	-26.6304	0.0000000E+000	0.0000000E+000	0.0000000E+000	26.6304	1.99431	63.3696	-3.23278e-06	-6.11022e-06	-2.3175e-09	-6.1079e-06	0.261336	11185.9	4.24264	11181.7
146.737	4.23586	2.05868	4.70963	-25.9203	10.5085	0.261432	-0.0235471	526.855	100.668	1	10	0.00465679	0.000988779	0	-9.43593e-05	0.000194708	1.1967e-05	62.5784	0.0121028	0.00557376	-0.010743	-25.7731	4.70997	4.24143	2.04793	0.190971	0.092814	0.212331	25.9203	100668	207132	230299	-64.0797	0.0000000E+000	0.0000000E+000	0.0000000E+000	64.0797	0.0000000E+000	0.0000000E+000	0.0000000E+000	-64.0797	0.0000000E+000	0.0000000E+000	0.0000000E+000	-25.9203	0.0000000E+000	0.0000000E+000	0.0000000E+000	25.9203	2.05757	64.0797	-4.32e-06	-6.15596e-06	-4.58481e-09	-6.15137e-06	0.261237	11102.5	8.26886	11094.2
100.032	4.8437	2.20879	5.32355	-24.5136	10.9598	0.261434	-0.0240134	720.323	124.003	1	10	0.00464045	0.000871683	0	-9.61786e-05	-0.000111051	1.14436e-05	66.7755	0.0131282	0.00517692	-0.0120644	-24.3723	5.32327	4.84887	2.19672	0.170913	0.0779385	0.187845	24.5136	124003	271929	298868	-65.4864	0.0000000E+000	0.0000000E+000	0.0000000E+000	65.4864	0.0000000E+000	0.0000000E+000	0.0000000E+000	-65.4864	0.0000000E+000	0.0000000E+000	0.0000000E+000	-24.5136	0.0000000E+000	0.0000000E+000	0.0000000E+000	24.5136	2.19292	65.4864	-1.81933e-06	-6.2779e-06	2.66672e-09	-6.28057e-06	0.261545	10887	4.62457	10891.6
68.104	5.51248	2.26065	5.95802	-22.2983	11.4224	0.261443	-0.0218872	1033.75	148.825	1	10	0.00462954	0.000777026	0	-9.82611e-05	-0.000263931	5.23765e-06	-12.0878	0.00674064	0.00659118	0.00141156	-22.2869	5.96465	5.51907	2.26206	0.15529	0.0636838	0.167841	22.2983	148825	362903	392234	-67.7017	0.0000000E+000	0.0000000E+000	0.0000000E+000	67.7017	0.0000000E+000	0.0000000E+000	0.0000000E+000	-67.7017	0.0000000E+000	0.0000000E+000	0.0000000E+000	-22.2983	0.0000000E+000	0.0000000E+000	0.0000000E+000	22.2983	2.43845	67.7017	-2.08244e-06	-5.72226e-06	5.77671e-09	-5.72804e-06	0.261707	11945	12.0587	11957.1
46.4415	6.17664	2.2212	6.56388	-19.7792	11.8576	0.261434	-0.0233718	1542.86	176.677	1	10	0.00461507	0.0007031	0	-0.000101515	0.000156488	5.13937e-06	79.5146	0.00730958	0.00133024	-0.00718752	-19.7163	6.56271	6.17797	2.21401	0.143361	0.0515544	0.152349	19.7792	176677	491297	522099	-70.2208	0.0000000E+000	0.0000000E+000	0.0000000E+000	70.2208	0.0000000E+000	0.0000000E+000	0.0000000E+000	-70.2208	0.0000000E+000	0.0000000E+000	0.0000000E+000	-19.7792	0.0000000E+000	0.0000000E+000	0.0000000E+000	19.7792	2.78077	70.2208	-3.25401e-06	-6.11019e-06	-3.6574e-09	-6.10653e-06	0.261278	11185.9	6.69559	11179.2
31.6296	6.79454	2.05058	7.09723	-16.7937	12.2885	0.261432	-0.0239462	2453.86	204.846	1	10	0.00461525	0.000650288	0	-0.000103656	-0.000225711	6.73246e-06	73.1399	0.010353	0.00300276	-0.00990803	-16.7102	7.09725	6.79755	2.04068	0.134891	0.0407099	0.1409	16.7937	204846	678749	708986	-73.2063	0.0000000E+000	0.0000000E+000	0.0000000E+000	73.2063	0.0000000E+000	0.0000000E+000	0.0000000E+000	-73.2063	0.0000000E+000	0.0000000E+000	0.0000000E+000	-16.7937	0.0000000E+000	0.0000000E+000	0.0000000E+000	16.7937	3.31347	73.2063	-2.14119e-06	-6.26031e-06	5.40494e-09	-6.26572e-06	0.261658	10917.4	9.42574	10926.9
21.5517	7.32407	1.83615	7.55073	-14.074	12.7095	0.261436	-0.0227489	4021.89	237.831	1	10	0.00460889	0.00061039	0	-0.000105921	-7.28316e-05	3.12405e-06	-3.8204	0.00511813	0.00510675	0.000341016	-14.0671	7.55576	7.32918	1.83649	0.128462	0.0322055	0.132438	14.074	237831	948666	978024	-75.926	0.0000000E+000	0.0000000E+000	0.0000000E+000	75.926	0.0000000E+000	0.0000000E+000	0.0000000E+000	-75.926	0.0000000E+000	0.0000000E+000	0.0000000E+000	-14.074	0.0000000E+000	0.0000000E+000	0.0000000E+000	14.074	3.98883	75.926	-2.26476e-06	-5.94738e-06	1.65684e-09	-5.94903e-06	0.261509	11492.3	3.20155	11495.5
14.6852	7.76261	1.62241	7.93034	-11.805	13.1702	0.261432	-0.0222863	6680.09	279.587	1	10	0.00462703	0.00058346	0	-0.000105838	0.000118268	7.75421e-06	78.8129	0.0132901	0.00257846	-0.0130375	-11.709	7.93021	7.76519	1.60937	0.123431	0.0257974	0.126098	11.805	279587	1.33772e+06	1.36663e+06	-78.195	0.0000000E+000	0.0000000E+000	0.0000000E+000	78.195	0.0000000E+000	0.0000000E+000	0.0000000E+000	-78.195	0.0000000E+000	0.0000000E+000	0.0000000E+000	-11.805	0.0000000E+000	0.0000000E+000	0.0000000E+000	11.805	4.78463	78.195	8.32535e-08	-5.82635e-06	-2.63576e-09	-5.82372e-06	0.261314	11730.6	5.30675	11725.3
10.0032	8.09583	1.41004	8.2177	-9.88005	13.6218	0.261426	-0.0228608	11283.6	332.21	1	10	0.00461017	0.000561005	0	-0.000110086	-1.55017e-05	5.38305e-06	21.0787	0.00959538	0.00895332	-0.00345098	-9.84567	8.22593	8.10478	1.40659	0.119884	0.0208801	0.121689	9.88005	332210	1.9074e+06	1.93611e+06	-80.1199	0.0000000E+000	0.0000000E+000	0.0000000E+000	80.1199	0.0000000E+000	0.0000000E+000	0.0000000E+000	-80.1199	0.0000000E+000	0.0000000E+000	0.0000000E+000	-9.88005	0.0000000E+000	0.0000000E+000	0.0000000E+000	9.88005	5.74154	80.1199	-4.24814e-06	-5.97641e-06	3.54381e-10	-5.97676e-06	0.261442	11435.6	0.678091	11436.3
6.81719	8.38446	1.2305	8.47428	-8.34913	13.9615	0.261439	-0.0193134	18972.8	400.03	1	10	0.00461066	0.000544077	0	-0.000108013	-0.000149271	6.28579e-06	92.1719	0.0115531	-0.000437845	-0.0115448	-8.27231	8.47217	8.38402	1.21896	0.116754	0.0171348	0.118004	8.34913	400030	2.72574e+06	2.75494e+06	-81.6509	0.0000000E+000	0.0000000E+000	0.0000000E+000	81.6509	0.0000000E+000	0.0000000E+000	0.0000000E+000	-81.6509	0.0000000E+000	0.0000000E+000	0.0000000E+000	-8.34913	0.0000000E+000	0.0000000E+000	0.0000000E+000	8.34913	6.81384	81.6509	2.07305e-06	-5.04927e-06	2.88293e-09	-5.05215e-06	0.261588	13536.7	7.72891	13544.4
4.63925	8.63693	1.08018	8.70421	-7.1287	14.7054	0.261447	-0.0181072	31759.7	489.113	1	11	0.0046108	0.00052972	0	-0.000116765	-0.000149271	7.36633e-06	-57.4636	0.0139061	0.00747917	0.0117235	-7.19909	8.71309	8.64441	1.0919	0.113999	0.0142573	0.114887	7.1287	489113	3.91086e+06	3.94133e+06	-82.8713	0.0000000E+000	0.0000000E+000	0.0000000E+000	82.8713	0.0000000E+000	0.0000000E+000	0.0000000E+000	-82.8713	0.0000000E+000	0.0000000E+000	0.0000000E+000	-7.1287	0.0000000E+000	0.0000000E+000	0.0000000E+000	7.1287	7.99583	82.8713	-8.75248e-06	-4.73408e-06	2.70289e-09	-4.73678e-06	0.261597	14438.9	8.24376	14447.1
3.1604	8.86711	0.962993	8.91925	-6.19819	15.3984	0.261419	-0.019404	52294.5	609.6	1	11	0.00461501	0.000517421	0	-0.000116165	-0.000263931	2.37995e-06	-46.1304	0.00459964	0.00318764	0.00331597	-6.21715	8.92278	8.8703	0.966309	0.111462	0.012105	0.112117	6.19819	609600	5.61312e+06	5.64612e+06	-83.8018	0.0000000E+000	0.0000000E+000	0.0000000E+000	83.8018	0.0000000E+000	0.0000000E+000	0.0000000E+000	-83.8018	0.0000000E+000	0.0000000E+000	0.0000000E+000	-6.19819	0.0000000E+000	0.0000000E+000	0.0000000E+000	6.19819	9.20787	83.8018	6.00436e-07	-5.07257e-06	5.12132e-09	-5.07769e-06	0.261683	13472.4	13.6019	13486
2.15577	9.03305	0.873517	9.07518	-5.52346	16.4021	0.261436	-0.0176674	84517.5	783.031	1	11	0.00462223	0.000509326	0	-0.000112086	6.09381e-05	3.07897e-06	-29.3624	0.00604518	0.00526859	0.00296415	-5.53888	9.08071	9.03832	0.876481	0.109679	0.0106062	0.110191	5.52346	783031	8.09733e+06	8.1351e+06	-84.4765	0.0000000E+000	0.0000000E+000	0.0000000E+000	84.4765	0.0000000E+000	0.0000000E+000	0.0000000E+000	-84.4765	0.0000000E+000	0.0000000E+000	0.0000000E+000	-5.52346	0.0000000E+000	0.0000000E+000	0.0000000E+000	5.52346	10.341	84.4765	4.07916e-06	-4.6189e-06	-1.07662e-09	-4.61782e-06	0.261375	14797.6	3.44918	14794.2
1.46631	9.20464	0.811504	9.24034	-5.03831	17.8624	0.261437	-0.0153327	133753	1031.59	1	11	0.00461717	0.000499675	0	-0.000114084	0.000252038	8.14006e-06	-35.9382	0.0162907	0.0131898	0.00956121	-5.09011	9.25432	9.21783	0.821065	0.107803	0.00950418	0.108221	5.03831	1.03159e+06	1.17011e+07	1.17464e+07	-84.9617	0.0000000E+000	0.0000000E+000	0.0000000E+000	84.9617	0.0000000E+000	0.0000000E+000	0.0000000E+000	-84.9617	0.0000000E+000	0.0000000E+000	0.0000000E+000	-5.03831	0.0000000E+000	0.0000000E+000	0.0000000E+000	5.03831	11.3427	84.9617	-1.99866e-06	-4.00852e-06	-3.86441e-09	-4.00466e-06	0.261185	17051	16.438	17034.6
1.00006	9.35004	0.780872	9.38259	-4.774	19.9899	0.261438	-0.0132567	203804	1411.65	1	11	0.00461833	0.000492223	0	-0.000129755	0.000194708	3.72413e-06	55.7898	0.00756593	0.0042538	-0.00625687	-4.73378	9.38631	9.35429	0.774615	0.106211	0.00887022	0.10658	4.774	1.41165e+06	1.69029e+07	1.69617e+07	-85.226	0.0000000E+000	0.0000000E+000	0.0000000E+000	85.226	0.0000000E+000	0.0000000E+000	0.0000000E+000	-85.226	0.0000000E+000	0.0000000E+000	0.0000000E+000	-4.774	0.0000000E+000	0.0000000E+000	0.0000000E+000	4.774	11.9738	85.226	-1.56708e-05	-3.46581e-06	-2.58118e-09	-3.46323e-06	0.261244	19721.2	14.6875	19706.5
0.681362	9.47507	0.791343	9.50806	-4.77418	23.102	0.261442	-0.0115539	295173	2044.67	1	11	0.00461814	0.000485708	0	-0.000159915	-9.19415e-05	4.71347e-06	-45.6594	0.00970433	0.00678257	0.00694051	-4.81242	9.5154	9.48185	0.798284	0.104809	0.00875349	0.105174	4.77418	2.04467e+06	2.44817e+07	2.45669e+07	-85.2258	0.0000000E+000	0.0000000E+000	0.0000000E+000	85.2258	0.0000000E+000	0.0000000E+000	0.0000000E+000	-85.2258	0.0000000E+000	0.0000000E+000	0.0000000E+000	-4.77418	0.0000000E+000	0.0000000E+000	0.0000000E+000	4.77418	11.9734	85.2258	-3.01599e-05	-3.02068e-06	1.06229e-09	-3.02174e-06	0.261534	22627.9	7.95759	22635.9
0.464091	9.59816	0.828449	9.63385	-4.93316	27.6587	0.261444	-0.0121801	413954	3061.14	1	11	0.00461479	0.000479019	0	-0.000203718	6.09381e-05	3.28799e-06	-35.4198	0.00686402	0.00559367	0.00397813	-4.95386	9.63976	9.60375	0.832427	0.103416	0.00892619	0.103801	4.93316	3.06114e+06	3.54655e+07	3.55974e+07	-85.0668	0.0000000E+000	0.0000000E+000	0.0000000E+000	85.0668	0.0000000E+000	0.0000000E+000	0.0000000E+000	-85.0668	0.0000000E+000	0.0000000E+000	0.0000000E+000	-4.93316	0.0000000E+000	0.0000000E+000	0.0000000E+000	4.93316	11.5857	85.0668	-4.38025e-05	-3.18441e-06	-7.42233e-10	-3.18367e-06	0.261383	21464.8	5.00309	21459.8
0.316193	9.74316	0.95044	9.78941	-5.57154	34.3322	0.261446	-0.0133763	529594	4992.05	1	11	0.00461645	0.000471576	0	-0.000246345	0.000213818	4.43174e-06	9.09294	0.00939773	0.00927963	-0.00148518	-5.55763	9.7985	9.75244	0.948954	0.101669	0.00991771	0.102151	5.57154	4.99205e+06	5.11746e+07	5.14175e+07	-84.4285	0.0000000E+000	0.0000000E+000	0.0000000E+000	84.4285	0.0000000E+000	0.0000000E+000	0.0000000E+000	-84.4285	0.0000000E+000	0.0000000E+000	0.0000000E+000	-5.57154	0.0000000E+000	0.0000000E+000	0.0000000E+000	5.57154	10.2512	84.4285	-4.26276e-05	-3.49719e-06	-2.8601e-09	-3.49433e-06	0.261232	19545.4	15.9848	19529.4
0.215268	9.89122	1.1521	9.95809	-6.64371	44.1256	0.261446	-0.0140858	641728	8589.72	1	11	0.00461318	0.00046326	0	-0.000267662	-5.37216e-05	1.16208e-06	-7.95677	0.00250849	0.00248434	0.00034724	-6.64404	9.9606	9.8937	1.15245	0.0997465	0.0116182	0.100421	6.64371	8.58972e+06	7.3746e+07	7.42446e+07	-83.3563	0.0000000E+000	0.0000000E+000	0.0000000E+000	83.3563	0.0000000E+000	0.0000000E+000	0.0000000E+000	-83.3563	0.0000000E+000	0.0000000E+000	0.0000000E+000	-6.64371	0.0000000E+000	0.0000000E+000	0.0000000E+000	6.64371	8.58538	83.3563	-2.13165e-05	-3.68268e-06	7.56713e-10	-3.68344e-06	0.2615	18560.9	3.81388	18564.7
0.146929	10.0483	1.42087	10.1483	-8.04847	58.4639	0.261449	-0.012869	762360	14944.6	1	11	0.00461591	0.000454847	0	-0.000247411	-0.000302151	4.1355e-06	-30.8928	0.00909206	0.00780216	0.00466816	-8.06838	10.1566	10.0561	1.42553	0.0975684	0.0137965	0.098539	8.04847	1.49446e+07	1.05687e+08	1.06739e+08	-81.9515	0.0000000E+000	0.0000000E+000	0.0000000E+000	81.9515	0.0000000E+000	0.0000000E+000	0.0000000E+000	-81.9515	0.0000000E+000	0.0000000E+000	0.0000000E+000	-8.04847	0.0000000E+000	0.0000000E+000	0.0000000E+000	8.04847	7.07196	81.9515	2.02509e-05	-3.36459e-06	3.88839e-09	-3.36848e-06	0.261751	20316.1	23.4789	20339.6
0.0999041	10.2704	1.75841	10.4198	-9.71551	79.5411	0.261441	-0.010221	905978	25801	1	11	0.0046163	0.000443031	0	-0.000184024	-0.000302151	2.34909e-06	13.1323	0.0053023	0.00516364	-0.00120468	-9.7042	10.4247	10.2755	1.7572	0.0945946	0.0161957	0.0959711	9.71551	2.5801e+07	1.50697e+08	1.52889e+08	-80.2845	0.0000000E+000	0.0000000E+000	0.0000000E+000	80.2845	0.0000000E+000	0.0000000E+000	0.0000000E+000	-80.2845	0.0000000E+000	0.0000000E+000	0.0000000E+000	-9.71551	0.0000000E+000	0.0000000E+000	0.0000000E+000	9.71551	5.84072	80.2845	6.3387e-05	-2.67219e-06	3.08829e-09	-2.67528e-06	0.261744	25578.8	29.5618	25608.4
0.0680626	10.5917	2.22383	10.8226	-11.8576	110.469	0.261444	-0.00725609	1.0515e+06	44396.4	1	11	0.00461343	0.000426276	0	-0.000117442	-1.55017e-05	3.88209e-06	5.20749	0.00910697	0.00906938	-0.000826575	-11.8435	10.8313	10.6008	2.22301	0.0904273	0.0189861	0.092399	11.8576	4.43964e+07	2.11452e+08	2.16062e+08	-78.1424	0.0000000E+000	0.0000000E+000	0.0000000E+000	78.1424	0.0000000E+000	0.0000000E+000	0.0000000E+000	-78.1424	0.0000000E+000	0.0000000E+000	0.0000000E+000	-11.8576	0.0000000E+000	0.0000000E+000	0.0000000E+000	11.8576	4.76281	78.1424	6.65815e-05	-1.89706e-06	1.12482e-10	-1.89717e-06	0.261459	36030.9	2.13637	36033.1
0.0464052	11.0075	2.8897	11.3805	-14.7094	155.82	0.261445	-0.00421659	1.18686e+06	76521.9	1	11	0.00461725	0.000405717	0	-0.000129632	0.000118268	2.65609e-06	-8.6555	0.00654665	0.00647209	0.000985225	-14.706	11.387	11.014	2.89068	0.08499	0.0223117	0.0878699	14.7094	7.65219e+07	2.91488e+08	3.01365e+08	-75.2906	0.0000000E+000	0.0000000E+000	0.0000000E+000	75.2906	0.0000000E+000	0.0000000E+000	0.0000000E+000	-75.2906	0.0000000E+000	0.0000000E+000	0.0000000E+000	-14.7094	0.0000000E+000	0.0000000E+000	0.0000000E+000	14.7094	3.80922	75.2906	-1.21898e-05	-1.10241e-06	-4.98688e-10	-1.10191e-06	0.261327	62004	28.0482	61975.9
0.0315922	11.422	3.74543	12.0204	-18.1551	222.424	0.261439	-0.00414845	1.34505e+06	130589	1	11	0.00461343	0.000383801	0	-0.000386969	-0.000206601	3.0512e-06	-12.365	0.00794995	0.00776554	0.00170239	-18.1513	12.0283	11.4297	3.74714	0.0790505	0.0259218	0.083192	18.1551	1.30589e+08	3.9824e+08	4.19104e+08	-71.8449	0.0000000E+000	0.0000000E+000	0.0000000E+000	71.8449	0.0000000E+000	0.0000000E+000	0.0000000E+000	-71.8449	0.0000000E+000	0.0000000E+000	0.0000000E+000	-18.1551	0.0000000E+000	0.0000000E+000	0.0000000E+000	18.1551	3.04957	71.8449	-0.000257337	-1.08457e-06	8.57076e-10	-1.08542e-06	0.261645	63020.8	49.802	63070.6
0.0215268	11.9726	4.76775	12.887	-21.7134	320.163	0.261441	-0.00538907	1.5507e+06	212250	1	11	0.00461723	0.000358285	0	-0.000991464	8.00481e-05	1.73991e-06	-25.0206	0.00485622	0.00440049	0.00205391	-21.7147	12.8919	11.977	4.7698	0.0720915	0.0287083	0.0775974	21.7134	2.1225e+08	5.32997e+08	5.73704e+08	-68.2866	0.0000000E+000	0.0000000E+000	0.0000000E+000	68.2866	0.0000000E+000	0.0000000E+000	0.0000000E+000	-68.2866	0.0000000E+000	0.0000000E+000	0.0000000E+000	-21.7134	0.0000000E+000	0.0000000E+000	0.0000000E+000	21.7134	2.51117	68.2866	-0.000604494	-1.40893e-06	-4.31385e-10	-1.4085e-06	0.261361	48513.2	14.8538	48498.4
0.0146812	12.7769	6.11515	14.1649	-25.5763	463.464	0.261444	-0.00710462	1.77277e+06	330401	1	11	0.00461921	0.000326103	0	-0.00186586	-0.000302151	2.43011e-06	-29.2013	0.00745197	0.00650491	0.00363566	-25.5782	14.1723	12.7834	6.11878	0.0636794	0.0304776	0.0705972	25.5763	3.30401e+08	6.90333e+08	7.65326e+08	-64.4237	0.0000000E+000	0.0000000E+000	0.0000000E+000	64.4237	0.0000000E+000	0.0000000E+000	0.0000000E+000	-64.4237	0.0000000E+000	0.0000000E+000	0.0000000E+000	-25.5763	0.0000000E+000	0.0000000E+000	0.0000000E+000	25.5763	2.08938	64.4237	-0.000874397	-1.85746e-06	2.14667e-09	-1.8596e-06	0.261746	36799.1	42.5288	36841.6
0.0100092	13.6296	8.04078	15.8247	-30.5384	773.838	0.261444	-0.00775314	1.97753e+06	510564	1	12	0.00461503	0.000291635	0	-0.00290337	4.18282e-05	1.98732e-06	-1.56059	0.00681443	0.0068119	0.000185585	-30.5265	15.8306	13.6364	8.04096	0.0544269	0.0321091	0.0631924	30.5384	5.10564e+08	8.65438e+08	1.00482e+09	-59.4616	0.0000000E+000	0.0000000E+000	0.0000000E+000	59.4616	0.0000000E+000	0.0000000E+000	0.0000000E+000	-59.4616	0.0000000E+000	0.0000000E+000	0.0000000E+000	-30.5384	0.0000000E+000	0.0000000E+000	0.0000000E+000	30.5384	1.69506	59.4616	-0.00103751	-2.02701e-06	-3.243e-10	-2.02669e-06	0.261402	33721	5.395	33715.6