File: txt/17922_R288_UA670_SOC00_C03.mpt
EC-Lab ASCII FILE
Nb header lines : 64

Potentio Electrochemical Impedance Spectroscopy

Run on channel : 3 (SN 65921)
User :
CE vs. WE compliance from -10 V to 10 V
Electrode connection : standard
Potential control : Ewe
Ewe ctrl range : min = -10.00 V, max = 10.00 V
Safety Limits :
	Do not start on E overload
Acquisition started on : 09/29/2025 15:13:12.029
Loaded Setting File :  C:\Users\Celltest\OneDrive - store-dot.com\Documents\EC-Lab\Data\@Biologic Test Protocols\anode half cell EIS SOC00.mps
Saved on :
	File : 17922_R288_UA670_SOC00_C03.mpr
	Directory : C:\Users\Celltest\OneDrive - store-dot.com\Documents\EC-Lab\Data\Charmaine\
	Host : 169.254.61.224
Device : VMP-3e (SN .003165)
Address : USB
EC-LAB for windows v11.62 (software)
Internet server v27.00 (firmware)
Command interpretor v12.03 (firmware)
Electrode material :
Initial state :
Electrolyte :
Comments :
Electrode surface area : 0.001 cm²
Characteristic mass : 0.001 g
Equivalent Weight : 0.000 g/eq.
Density : 0.000 g/cm3
Volume (V) : 0.001 cm³
Record Ece
Cycle Definition : Charge/Discharge alternance
Mode                Single sine
E (V)               0.0000
vs.                 Eoc
tE (h:m:s)          0:00:0.0000
record              0
dI                  0.000
unit dI             mA
dt (s)              0.000
fi                  100.000
unit fi             kHz
ff                  10.000
unit ff             mHz
Nd                  6
Points              per decade
spacing             Logarithmic
Va (mV)             5.0
pw                  0.10
Na                  2
corr                0
E range min (V)     -10.000
E range max (V)     10.000
I Range             Auto
Bandwidth           5
nc cycles           0
goto Ns'            0
nr cycles           0
inc. cycle          0

freq/Hz	Re(Z)/Ohm	-Im(Z)/Ohm	|Z|/Ohm	Phase(Z)/deg	time/s	<Ewe>/V	<I>/mA	Cs/µF	Cp/µF	cycle number	I Range	|Ewe|/V	|I|/A	Ns	(Q-Qo)/mA.h	<Ece>/V	|Ece|/V	Phase(Zce)/deg	|Zce|/Ohm	Re(Zce)/Ohm	-Im(Zce)/Ohm	Phase(Zwe-ce)/deg	|Zwe-ce|/Ohm	Re(Zwe-ce)/Ohm	-Im(Zwe-ce)/Ohm	Re(Y)/Ohm-1	Im(Y)/Ohm-1	|Y|/Ohm-1	Phase(Y)/deg	Re(C)/nF	Im(C)/nF	|C|/nF	Phase(C)/deg	Re(M)	Im(M)	|M|	Phase(M)/deg	Re(Permittivity)	Im(Permittivity)	|Permittivity|	Phase(Permittivity)/deg	Re(Resistivity)/Ohm.cm	Im(Resistivity)/Ohm.cm	|Resistivity|/Ohm.cm	Phase(Resistivity)/deg	Re(Conductivity)/mS/cm	Im(Conductivity)/mS/cm	|Conductivity|/mS/cm	Phase(Conductivity)/deg	Tan(Delta)	Loss Angle(Delta)/deg	dq/mA.h	Pwe/W	Pce/W	Pwe-ce/W	<Ewe-Ece>/V	Rwe/Ohm	Rce/Ohm	Rwe-ce/Ohm		Ewe-Ece/V
100004	0.812913	0.205701	0.838535	-14.2002	1.86853	0.265498	0.0457156	7.73691	0.465584	1	9	0.00495777	0.00591242	0	-1.38983e-05	-4.13882e-06	4.28083e-05	95.4944	0.0072404	-0.000693261	-0.00720713	-13.733	0.836123	0.81222	0.198494	1.15612	0.292546	1.19256	14.2002	465.584	1839.95	1897.94	-75.7999	0.0000000E+000	0.0000000E+000	0.0000000E+000	75.7999	0.0000000E+000	0.0000000E+000	0.0000000E+000	-75.7999	0.0000000E+000	0.0000000E+000	0.0000000E+000	-14.2002	0.0000000E+000	0.0000000E+000	0.0000000E+000	14.2002	3.95192	75.7999	-1.38983e-05	1.21374e-05	-1.89208e-10	1.21376e-05	0.265502	5807.61	0.090534	5807.7
68132	0.864195	0.238951	0.896622	-15.4562	2.25156	0.265494	0.0454172	9.77595	0.69432	1	9	0.00537103	0.00599029	0	2.35779e-06	-4.13882e-06	3.56077e-05	72.5374	0.00594423	0.00178376	-0.00567028	-15.0767	0.89685	0.865979	0.233281	1.07496	0.297229	1.1153	15.4562	694.319	2511.09	2605.31	-74.5438	0.0000000E+000	0.0000000E+000	0.0000000E+000	74.5438	0.0000000E+000	0.0000000E+000	0.0000000E+000	-74.5438	0.0000000E+000	0.0000000E+000	0.0000000E+000	-15.4562	0.0000000E+000	0.0000000E+000	0.0000000E+000	15.4562	3.61662	74.5438	1.62561e-05	1.2058e-05	-1.87974e-10	1.20582e-05	0.265498	5845.66	0.0911287	5845.75
46420.4	0.922293	0.267159	0.960207	-16.1546	2.63655	0.265491	0.0448951	12.8334	0.993464	1	9	0.00548945	0.00571694	0	2.99377e-05	-0.000118703	1.52086e-05	71.0848	0.00266027	0.000862375	-0.00251661	-15.9961	0.960339	0.923155	0.264643	1.00032	0.289761	1.04144	16.1546	993.463	3429.66	3570.64	-73.8454	0.0000000E+000	0.0000000E+000	0.0000000E+000	73.8454	0.0000000E+000	0.0000000E+000	0.0000000E+000	-73.8454	0.0000000E+000	0.0000000E+000	0.0000000E+000	-16.1546	0.0000000E+000	0.0000000E+000	0.0000000E+000	16.1546	3.45222	73.8454	2.75799e-05	1.19193e-05	-5.3292e-09	1.19246e-05	0.26561	5913.58	2.64401	5916.22
31621.1	0.983609	0.305588	1.02999	-17.259	3.14355	0.265491	0.0542185	16.4705	1.44983	1	9	0.00504563	0.00489874	0	4.46254e-05	1.49552e-05	1.68384e-05	65.5743	0.00343729	0.00142136	-0.00312964	-17.0693	1.03042	0.985031	0.302458	0.927171	0.288054	0.970887	17.259	1449.83	4666.62	4886.65	-72.741	0.0000000E+000	0.0000000E+000	0.0000000E+000	72.741	0.0000000E+000	0.0000000E+000	0.0000000E+000	-72.741	0.0000000E+000	0.0000000E+000	0.0000000E+000	-17.259	0.0000000E+000	0.0000000E+000	0.0000000E+000	17.259	3.21875	72.741	1.46877e-05	1.43945e-05	8.10851e-10	1.43937e-05	0.265476	4896.69	0.275833	4896.42
21544.7	1.05694	0.346718	1.11235	-18.1616	3.65054	0.265499	0.0466852	21.3061	2.07001	1	9	0.00513431	0.00461572	0	5.1062e-05	5.31434e-05	6.6667e-06	22.3389	0.00144435	0.00133595	-0.000548974	-18.1133	1.11345	1.05827	0.346169	0.85421	0.280215	0.898996	18.1616	2070.01	6310.22	6641.07	-71.8384	0.0000000E+000	0.0000000E+000	0.0000000E+000	71.8384	0.0000000E+000	0.0000000E+000	0.0000000E+000	-71.8384	0.0000000E+000	0.0000000E+000	0.0000000E+000	-18.1616	0.0000000E+000	0.0000000E+000	0.0000000E+000	18.1616	3.0484	71.8384	6.43662e-06	1.23949e-05	2.48101e-09	1.23924e-05	0.265446	5687	1.13833	5685.86
14678.6	1.13744	0.39263	1.2033	-19.044	4.03353	0.265504	0.053398	27.6154	2.94016	1	9	0.00494196	0.004107	0	6.40655e-05	-0.000405114	1.60237e-05	-17.7462	0.00390155	0.0037159	0.0011892	-19.0398	1.2072	1.14116	0.393819	0.785562	0.271166	0.831047	19.044	2940.16	8517.58	9010.76	-70.956	0.0000000E+000	0.0000000E+000	0.0000000E+000	70.956	0.0000000E+000	0.0000000E+000	0.0000000E+000	-70.956	0.0000000E+000	0.0000000E+000	0.0000000E+000	-19.044	0.0000000E+000	0.0000000E+000	0.0000000E+000	19.044	2.89698	70.956	1.30035e-05	1.41774e-05	-2.16323e-08	1.4199e-05	0.265909	4972.17	7.58669	4979.76
10002.2	1.2276	0.449123	1.30718	-20.0953	4.41657	0.265491	0.048065	35.4289	4.18236	1	9	0.0050329	0.00385021	0	6.58941e-05	-8.05151e-05	1.44426e-05	20.2625	0.00375112	0.00351899	-0.00129909	-19.9891	1.31004	1.23112	0.447824	0.718436	0.262844	0.765008	20.0953	4182.36	11431.7	12172.8	-69.9047	0.0000000E+000	0.0000000E+000	0.0000000E+000	69.9047	0.0000000E+000	0.0000000E+000	0.0000000E+000	-69.9047	0.0000000E+000	0.0000000E+000	0.0000000E+000	-20.0953	0.0000000E+000	0.0000000E+000	0.0000000E+000	20.0953	2.73332	69.9047	1.8286e-06	1.27608e-05	-3.86996e-09	1.27647e-05	0.265572	5523.58	1.67513	5525.26
6810.42	1.32873	0.519085	1.42652	-21.3388	4.67756	0.265494	0.04717	45.0202	5.96111	1	9	0.00466025	0.00326686	0	7.18088e-05	-0.00038602	2.70508e-05	53.1772	0.00828036	0.00496277	-0.00662836	-21.0188	1.42876	1.33369	0.512457	0.652948	0.255083	0.701005	21.3388	5961.11	15259	16382	-68.6612	0.0000000E+000	0.0000000E+000	0.0000000E+000	68.6612	0.0000000E+000	0.0000000E+000	0.0000000E+000	-68.6612	0.0000000E+000	0.0000000E+000	0.0000000E+000	-21.3388	0.0000000E+000	0.0000000E+000	0.0000000E+000	21.3388	2.55975	68.6612	5.91462e-06	1.25233e-05	-1.82086e-08	1.25415e-05	0.26588	5628.45	8.1836	5636.63
4646	1.4463	0.581221	1.55872	-21.8936	5.06962	0.265473	0.0191252	58.9385	8.19499	1	9	0.00499119	0.00320212	0	7.29377e-05	0.000339554	1.14312e-05	-93.8567	0.00356988	-0.000240112	0.0035618	-22.0183	1.55983	1.44606	0.584783	0.595283	0.239226	0.641554	21.8936	8194.99	20392.2	21977.3	-68.1064	0.0000000E+000	0.0000000E+000	0.0000000E+000	68.1064	0.0000000E+000	0.0000000E+000	0.0000000E+000	-68.1064	0.0000000E+000	0.0000000E+000	0.0000000E+000	-21.8936	0.0000000E+000	0.0000000E+000	0.0000000E+000	21.8936	2.48838	68.1064	1.12893e-06	5.07722e-06	6.49405e-09	5.07073e-06	0.265133	13880.8	17.7543	13863
3163.08	1.58465	0.66449	1.71833	-22.7498	5.44363	0.265223	-0.123635	75.7219	11.3236	1	9	0.00487935	0.00283959	0	6.1362e-05	0.00012952	7.00126e-06	-4.47741	0.00246559	0.00245807	0.000192479	-22.724	1.72067	1.58711	0.664683	0.536686	0.225048	0.581961	22.7498	11323.6	27004.1	29282.2	-67.2502	0.0000000E+000	0.0000000E+000	0.0000000E+000	67.2502	0.0000000E+000	0.0000000E+000	0.0000000E+000	-67.2502	0.0000000E+000	0.0000000E+000	0.0000000E+000	-22.7498	0.0000000E+000	0.0000000E+000	0.0000000E+000	22.7498	2.38476	67.2502	-1.15757e-05	-3.27908e-05	-1.60131e-08	-3.27747e-05	0.265094	2145.22	1.0476	2144.17
2155.69	1.73926	0.766122	1.90052	-23.7729	5.89478	0.265305	-0.0180565	96.3687	15.6599	1	9	0.00480807	0.00252988	0	5.81614e-05	1.49552e-05	6.45266e-06	-73.6463	0.00255058	0.000718156	0.00244739	-23.8316	1.90216	1.73998	0.76857	0.481527	0.212107	0.526173	23.7729	15659.9	35551.2	38847.4	-66.2271	0.0000000E+000	0.0000000E+000	0.0000000E+000	66.2271	0.0000000E+000	0.0000000E+000	0.0000000E+000	-66.2271	0.0000000E+000	0.0000000E+000	0.0000000E+000	-23.7729	0.0000000E+000	0.0000000E+000	0.0000000E+000	23.7729	2.27021	66.2271	-3.20065e-06	-4.79048e-06	-2.70039e-10	-4.79021e-06	0.26529	14693.1	0.828248	14692.2
1468.59	1.9143	0.882717	2.10802	-24.7553	6.34603	0.265331	-0.0145136	122.772	21.5275	1	9	0.00477035	0.00226296	0	5.76467e-05	-0.000175985	6.1382e-06	-8.5801	0.00271247	0.00268211	0.000404679	-24.7347	2.11062	1.91698	0.883122	0.430786	0.198643	0.47438	24.7553	21527.5	46685.4	51409.8	-65.2447	0.0000000E+000	0.0000000E+000	0.0000000E+000	65.2447	0.0000000E+000	0.0000000E+000	0.0000000E+000	-65.2447	0.0000000E+000	0.0000000E+000	0.0000000E+000	-24.7553	0.0000000E+000	0.0000000E+000	0.0000000E+000	24.7553	2.16864	65.2447	-5.1466e-07	-3.85091e-06	2.55418e-09	-3.85347e-06	0.265507	18281.5	12.1255	18293.7
1000.32	2.1048	1.02275	2.34013	-25.9156	6.79679	0.265317	-0.0160799	155.565	29.7146	1	9	0.00474695	0.0020285	0	5.74349e-05	-4.23269e-05	4.11208e-06	-90.9824	0.00202716	-3.47577e-05	0.00202686	-25.9606	2.34099	2.10477	1.02478	0.384354	0.186762	0.427326	25.9156	29714.6	61152.2	67989.3	-64.0844	0.0000000E+000	0.0000000E+000	0.0000000E+000	64.0844	0.0000000E+000	0.0000000E+000	0.0000000E+000	-64.0844	0.0000000E+000	0.0000000E+000	0.0000000E+000	-25.9156	0.0000000E+000	0.0000000E+000	0.0000000E+000	25.9156	2.05799	64.0844	-2.11747e-07	-4.26629e-06	6.80615e-10	-4.26697e-06	0.26536	16499.9	2.63228	16502.5
681.09	2.34289	1.20328	2.63382	-27.1844	7.24655	0.265307	-0.0135067	194.201	40.533	1	9	0.00473281	0.00179694	0	5.59079e-05	0.000301366	9.36776e-06	41.9212	0.00521318	0.00387894	-0.00348296	-27.0785	2.63568	2.34677	1.19979	0.337738	0.173457	0.379677	27.1844	40533	78921.5	88721.7	-62.8156	0.0000000E+000	0.0000000E+000	0.0000000E+000	62.8156	0.0000000E+000	0.0000000E+000	0.0000000E+000	-62.8156	0.0000000E+000	0.0000000E+000	0.0000000E+000	-27.1844	0.0000000E+000	0.0000000E+000	0.0000000E+000	27.1844	1.94709	62.8156	-1.52705e-06	-3.58343e-06	-4.07046e-09	-3.57936e-06	0.265006	19642.6	22.3123	19620.3
463.961	2.61715	1.41463	2.975	-28.3923	7.94433	0.265365	-0.045795	242.491	54.8286	1	10	0.00479161	0.00161062	0	4.99422e-05	0.000148614	4.32689e-06	-55.6196	0.00268647	0.00151701	0.00221716	-28.4159	2.97739	2.61867	1.41685	0.295701	0.159834	0.336134	28.3923	54828.6	101436	115306	-61.6077	0.0000000E+000	0.0000000E+000	0.0000000E+000	61.6077	0.0000000E+000	0.0000000E+000	0.0000000E+000	-61.6077	0.0000000E+000	0.0000000E+000	0.0000000E+000	-28.3923	0.0000000E+000	0.0000000E+000	0.0000000E+000	28.3923	1.85006	61.6077	-5.96574e-06	-1.21524e-05	-6.80576e-09	-1.21456e-05	0.265216	5794.63	3.24519	5791.38
316.316	2.96416	1.64944	3.39219	-29.0943	8.39206	0.265365	-0.0453848	305.044	72.1236	1	10	0.00475263	0.00140105	0	4.49401e-05	-0.000214174	1.02194e-05	109.532	0.00729407	-0.00243868	-0.00687432	-29.0127	3.38671	2.96172	1.64257	0.257598	0.143344	0.294795	29.0943	72123.6	129611	148327	-60.9057	0.0000000E+000	0.0000000E+000	0.0000000E+000	60.9057	0.0000000E+000	0.0000000E+000	0.0000000E+000	-60.9057	0.0000000E+000	0.0000000E+000	0.0000000E+000	-29.0943	0.0000000E+000	0.0000000E+000	0.0000000E+000	29.0943	1.79707	60.9057	-5.00209e-06	-1.20435e-05	9.72023e-09	-1.20532e-05	0.265579	5846.99	4.71905	5851.7
215.345	3.39914	1.91772	3.90279	-29.4308	8.84256	0.265381	-0.0444564	385.39	93.0509	1	10	0.00473633	0.00121357	0	3.86297e-05	0.000186802	5.35822e-06	3.01209	0.00441524	0.00440914	-0.000232006	-29.396	3.90652	3.40355	1.91749	0.223161	0.125903	0.256227	29.4308	93050.9	164932	189370	-60.5692	0.0000000E+000	0.0000000E+000	0.0000000E+000	60.5692	0.0000000E+000	0.0000000E+000	0.0000000E+000	-60.5692	0.0000000E+000	0.0000000E+000	0.0000000E+000	-29.4308	0.0000000E+000	0.0000000E+000	0.0000000E+000	29.4308	1.77249	60.5692	-6.31034e-06	-1.17979e-05	-8.30453e-09	-1.17896e-05	0.265195	5969.48	4.20192	5965.28
146.737	3.94057	2.158	4.49278	-28.7067	9.28846	0.26537	-0.0443557	502.607	115.958	1	10	0.00472244	0.00105112	0	3.17775e-05	0.00012952	7.32552e-06	-21.0051	0.00696926	0.00650615	0.00249813	-28.6948	4.49968	3.94708	2.16049	0.195222	0.106911	0.22258	28.7067	115958	211743	241415	-61.2933	0.0000000E+000	0.0000000E+000	0.0000000E+000	61.2933	0.0000000E+000	0.0000000E+000	0.0000000E+000	-61.2933	0.0000000E+000	0.0000000E+000	0.0000000E+000	-28.7067	0.0000000E+000	0.0000000E+000	0.0000000E+000	28.7067	1.82603	61.2933	-6.85221e-06	-1.17707e-05	-5.74493e-09	-1.17649e-05	0.26524	5982.77	2.92002	5979.85
100.032	4.59242	2.35705	5.16198	-27.169	9.73877	0.265359	-0.0437292	675.014	140.74	1	10	0.00472295	0.00091495	0	2.76674e-05	-6.1421e-05	6.28403e-06	-49.54	0.00686816	0.00445687	0.0052257	-27.198	5.16833	4.59688	2.36227	0.172349	0.0884577	0.193724	27.169	140740	274215	308223	-62.831	0.0000000E+000	0.0000000E+000	0.0000000E+000	62.831	0.0000000E+000	0.0000000E+000	0.0000000E+000	-62.831	0.0000000E+000	0.0000000E+000	0.0000000E+000	-27.169	0.0000000E+000	0.0000000E+000	0.0000000E+000	27.169	1.94838	62.831	-4.11014e-06	-1.16039e-05	2.68589e-09	-1.16066e-05	0.26542	6068.23	1.40458	6069.63
68.104	5.30311	2.47411	5.85186	-25.0109	10.2015	0.265374	-0.0411078	944.558	168.841	1	10	0.00471039	0.000804939	0	2.32614e-05	-0.000309644	5.52912e-06	75.3143	0.006869	0.00174141	-0.00664459	-24.9447	5.85063	5.30486	2.46746	0.154861	0.0722489	0.170886	25.0109	168841	361902	399350	-64.9891	0.0000000E+000	0.0000000E+000	0.0000000E+000	64.9891	0.0000000E+000	0.0000000E+000	0.0000000E+000	-64.9891	0.0000000E+000	0.0000000E+000	0.0000000E+000	-25.0109	0.0000000E+000	0.0000000E+000	0.0000000E+000	25.0109	2.14344	64.9891	-4.40598e-06	-1.09089e-05	1.27288e-08	-1.09217e-05	0.265683	6455.55	7.53248	6463.09
46.4415	6.0551	2.46129	6.53622	-22.1208	10.6376	0.265356	-0.0445645	1392.36	197.434	1	10	0.00470802	0.000720296	0	1.7726e-05	9.13315e-05	7.13978e-06	98.3086	0.00991228	-0.00143238	-0.00980824	-22.0459	6.53121	6.05367	2.45148	0.141732	0.0576115	0.152994	22.1208	197434	485715	524308	-67.8791	0.0000000E+000	0.0000000E+000	0.0000000E+000	67.8791	0.0000000E+000	0.0000000E+000	0.0000000E+000	-67.8791	0.0000000E+000	0.0000000E+000	0.0000000E+000	-22.1208	0.0000000E+000	0.0000000E+000	0.0000000E+000	22.1208	2.46014	67.8791	-5.53542e-06	-1.18255e-05	-4.07014e-09	-1.18214e-05	0.265265	5954.43	2.04942	5952.38
31.6296	6.76002	2.32714	7.14937	-18.9961	11.0676	0.265393	-0.0428567	2162.24	229.095	1	10	0.00471021	0.000658829	0	1.25013e-05	-2.32329e-05	4.67126e-06	12.4935	0.00709025	0.00692236	-0.00153382	-18.9664	7.15541	6.76694	2.32561	0.132255	0.045529	0.139873	18.9961	229095	665487	703817	-71.0039	0.0000000E+000	0.0000000E+000	0.0000000E+000	71.0039	0.0000000E+000	0.0000000E+000	0.0000000E+000	-71.0039	0.0000000E+000	0.0000000E+000	0.0000000E+000	-18.9961	0.0000000E+000	0.0000000E+000	0.0000000E+000	18.9961	2.90486	71.0039	-5.22472e-06	-1.13738e-05	9.95684e-10	-1.13748e-05	0.265416	6192.57	0.542107	6193.11
21.5517	7.37064	2.10385	7.66502	-15.9307	11.4884	0.265386	-0.044214	3510.12	264.44	1	10	0.00470961	0.000614429	0	7.72736e-06	3.40493e-05	8.88058e-06	-30.8888	0.0144534	0.0124034	0.00741999	-15.9586	7.67898	7.38304	2.11128	0.125452	0.0358088	0.130463	15.9307	264440	926439	963441	-74.0693	0.0000000E+000	0.0000000E+000	0.0000000E+000	74.0693	0.0000000E+000	0.0000000E+000	0.0000000E+000	-74.0693	0.0000000E+000	0.0000000E+000	0.0000000E+000	-15.9307	0.0000000E+000	0.0000000E+000	0.0000000E+000	15.9307	3.5034	74.0693	-4.77392e-06	-1.17338e-05	-1.50546e-09	-1.17323e-05	0.265352	6002.32	0.770103	6001.55
14.6852	7.85348	1.85125	8.06872	-13.2639	11.9492	0.26538	-0.0388369	5854.31	308.175	1	10	0.00470394	0.000582985	0	5.32638e-06	7.22374e-05	6.82835e-06	76.2305	0.0117127	0.00278782	-0.0113761	-13.1807	8.06883	7.85627	1.83988	0.120629	0.0284352	0.123935	13.2639	308175	1.30736e+06	1.34319e+06	-76.7361	0.0000000E+000	0.0000000E+000	0.0000000E+000	76.7361	0.0000000E+000	0.0000000E+000	0.0000000E+000	-76.7361	0.0000000E+000	0.0000000E+000	0.0000000E+000	-13.2639	0.0000000E+000	0.0000000E+000	0.0000000E+000	13.2639	4.24225	76.7361	-2.40098e-06	-1.03066e-05	-2.80548e-09	-1.03038e-05	0.265308	6833.19	1.86002	6831.34
10.0032	8.28878	1.63129	8.44778	-11.1339	12.3998	0.265368	-0.0413167	9753.29	363.685	1	10	0.00470619	0.000557092	0	1.05901e-06	3.40493e-05	1.07787e-05	-8.79969	0.0193481	0.0191204	0.00295989	-11.1286	8.46711	8.3079	1.63425	0.116146	0.0228583	0.118374	11.1339	363685	1.84793e+06	1.88338e+06	-78.8661	0.0000000E+000	0.0000000E+000	0.0000000E+000	78.8661	0.0000000E+000	0.0000000E+000	0.0000000E+000	-78.8661	0.0000000E+000	0.0000000E+000	0.0000000E+000	-11.1339	0.0000000E+000	0.0000000E+000	0.0000000E+000	11.1339	5.08113	78.8661	-4.26737e-06	-1.09641e-05	-1.4068e-09	-1.09627e-05	0.265334	6422.78	0.824106	6421.95
6.81719	8.64337	1.4083	8.75735	-9.2541	12.7395	0.265386	-0.0415851	16577.6	428.71	1	10	0.00470374	0.00053712	0	-9.17208e-07	9.13315e-05	6.53075e-06	-75.9562	0.0121588	0.00295051	0.0117954	-9.32712	8.76216	8.64632	1.42009	0.112704	0.0183632	0.11419	9.2541	428710	2.63119e+06	2.66589e+06	-80.7459	0.0000000E+000	0.0000000E+000	0.0000000E+000	80.7459	0.0000000E+000	0.0000000E+000	0.0000000E+000	-80.7459	0.0000000E+000	0.0000000E+000	0.0000000E+000	-9.2541	0.0000000E+000	0.0000000E+000	0.0000000E+000	9.2541	6.13746	80.7459	-1.97621e-06	-1.10361e-05	-3.79803e-09	-1.10323e-05	0.265295	6381.75	2.19625	6379.55
4.63925	8.90849	1.25326	8.99621	-8.00792	13.4844	0.265427	-0.0263549	27373.5	531.245	1	11	0.00469394	0.000521769	0	-1.12653e-05	0.000282272	8.78658e-06	-75.0853	0.01684	0.00433429	0.0162727	-8.10663	9.00278	8.91282	1.26953	0.110074	0.0154854	0.111158	8.00792	531245	3.77622e+06	3.8134e+06	-81.9921	0.0000000E+000	0.0000000E+000	0.0000000E+000	81.9921	0.0000000E+000	0.0000000E+000	0.0000000E+000	-81.9921	0.0000000E+000	0.0000000E+000	0.0000000E+000	-8.00792	0.0000000E+000	0.0000000E+000	0.0000000E+000	8.00792	7.10824	81.9921	-1.03481e-05	-6.99531e-06	-7.43925e-09	-6.98787e-06	0.265145	10071.3	10.7104	10060.6
3.1604	9.16291	1.10485	9.22929	-6.87546	14.1775	0.265389	-0.0304076	45580	653.201	1	11	0.00471241	0.000510593	0	-1.05163e-05	-0.000347832	6.46103e-06	31.3582	0.012654	0.0108056	-0.00658495	-6.8269	9.23923	9.17372	1.09827	0.107572	0.0129709	0.108351	6.87546	653202	5.41722e+06	5.45645e+06	-83.1245	0.0000000E+000	0.0000000E+000	0.0000000E+000	83.1245	0.0000000E+000	0.0000000E+000	0.0000000E+000	-83.1245	0.0000000E+000	0.0000000E+000	0.0000000E+000	-6.87546	0.0000000E+000	0.0000000E+000	0.0000000E+000	6.87546	8.29333	83.1245	7.48972e-07	-8.06983e-06	1.05767e-08	-8.08041e-06	0.265737	8727.71	11.439	8739.15
2.15577	9.36879	1.00492	9.42253	-6.12226	15.1811	0.265418	-0.0262101	73466.2	835.628	1	11	0.00470308	0.000499131	0	-1.13306e-05	-0.000118703	3.62978e-06	40.4473	0.0072722	0.00553417	-0.00471782	-6.09017	9.42754	9.37433	1.0002	0.105523	0.0113187	0.106129	6.12226	835628	7.79052e+06	7.83521e+06	-83.8777	0.0000000E+000	0.0000000E+000	0.0000000E+000	83.8777	0.0000000E+000	0.0000000E+000	0.0000000E+000	-83.8777	0.0000000E+000	0.0000000E+000	0.0000000E+000	-6.12226	0.0000000E+000	0.0000000E+000	0.0000000E+000	6.12226	9.32295	83.8777	-8.14349e-07	-6.95663e-06	3.11123e-09	-6.95974e-06	0.265536	10126.5	4.52891	10131.1
1.46631	9.56768	0.920337	9.61184	-5.49451	16.6425	0.265421	-0.0233219	117936	1081.26	1	11	0.00470843	0.000489858	0	-2.26294e-05	-0.000175985	3.81921e-06	1.70246	0.00779657	0.00779313	-0.000231629	-5.48869	9.61957	9.57547	0.920105	0.10356	0.00996171	0.104038	5.49451	1.08125e+06	1.12406e+07	1.12924e+07	-84.5055	0.0000000E+000	0.0000000E+000	0.0000000E+000	84.5055	0.0000000E+000	0.0000000E+000	0.0000000E+000	-84.5055	0.0000000E+000	0.0000000E+000	0.0000000E+000	-5.49451	0.0000000E+000	0.0000000E+000	0.0000000E+000	5.49451	10.3958	84.5055	-1.12988e-05	-6.19011e-06	4.10431e-09	-6.19421e-06	0.265597	11380.7	7.54593	11388.3
1.00006	9.73289	0.878251	9.77244	-5.15614	18.7716	0.265412	-0.0223057	181206	1463.54	1	11	0.00472307	0.000483305	0	-4.97824e-05	0.00012952	2.49204e-06	40.5785	0.00515625	0.00391625	-0.00335409	-5.1345	9.77604	9.73681	0.874897	0.101915	0.00919629	0.102329	5.15614	1.46354e+06	1.62192e+07	1.62851e+07	-84.8439	0.0000000E+000	0.0000000E+000	0.0000000E+000	84.8439	0.0000000E+000	0.0000000E+000	0.0000000E+000	-84.8439	0.0000000E+000	0.0000000E+000	0.0000000E+000	-5.15614	0.0000000E+000	0.0000000E+000	0.0000000E+000	5.15614	11.0821	84.8439	-2.71529e-05	-5.9202e-06	-2.88902e-09	-5.91731e-06	0.265283	11898.9	5.80658	11893.1
0.681362	9.87906	0.85194	9.91573	-4.92882	21.8819	0.265406	-0.0207754	274178	2023.96	1	11	0.00471133	0.000475138	0	-8.94324e-05	0.00022499	9.48339e-06	-67.9559	0.0199593	0.00749111	0.0185001	-5.03151	9.9248	9.88655	0.87044	0.100477	0.00866483	0.10085	4.92882	2.02396e+06	2.34698e+07	2.35569e+07	-85.0712	0.0000000E+000	0.0000000E+000	0.0000000E+000	85.0712	0.0000000E+000	0.0000000E+000	0.0000000E+000	-85.0712	0.0000000E+000	0.0000000E+000	0.0000000E+000	-4.92882	0.0000000E+000	0.0000000E+000	0.0000000E+000	4.92882	11.596	85.0712	-3.96501e-05	-5.51391e-06	-4.67425e-09	-5.50924e-06	0.265181	12775	10.8296	12764.2
0.464091	10.043	0.905014	10.0837	-5.14924	26.4384	0.265405	-0.0217878	378933	3052.35	1	11	0.00470657	0.00046675	0	-0.000134401	0.00012952	3.3402e-06	82.0969	0.00715629	0.000983983	-0.00708832	-5.10863	10.084	10.044	0.897926	0.0987698	0.00890054	0.0991701	5.14924	3.05234e+06	3.38721e+07	3.40093e+07	-84.8508	0.0000000E+000	0.0000000E+000	0.0000000E+000	84.8508	0.0000000E+000	0.0000000E+000	0.0000000E+000	-84.8508	0.0000000E+000	0.0000000E+000	0.0000000E+000	-5.14924	0.0000000E+000	0.0000000E+000	0.0000000E+000	5.14924	11.0971	84.8508	-4.49681e-05	-5.78259e-06	-2.82195e-09	-5.77977e-06	0.265275	12181.3	5.94458	12175.4
0.316193	10.1968	1.02829	10.2485	-5.75853	33.1128	0.2654	-0.0218727	489497	4927.95	1	11	0.00470989	0.00045957	0	-0.000171361	-2.32329e-05	2.0343e-06	-43.6204	0.00442654	0.00320449	0.00305377	-5.77372	10.252	10.2	1.03135	0.097083	0.00979035	0.0975754	5.75853	4.92794e+06	4.88665e+07	4.91143e+07	-84.2415	0.0000000E+000	0.0000000E+000	0.0000000E+000	84.2415	0.0000000E+000	0.0000000E+000	0.0000000E+000	-84.2415	0.0000000E+000	0.0000000E+000	0.0000000E+000	-5.75853	0.0000000E+000	0.0000000E+000	0.0000000E+000	5.75853	9.91619	84.2415	-3.69609e-05	-5.80501e-06	5.08165e-10	-5.80552e-06	0.265423	12133.9	1.06219	12134.9
0.215268	10.337	1.21528	10.4082	-6.70523	42.9063	0.265408	-0.0195523	608366	8293.99	1	11	0.00470835	0.000452368	0	-0.000182489	-0.000156891	1.22782e-06	-38.6493	0.0027142	0.00211975	0.00169516	-6.71313	10.4105	10.3392	1.21697	0.0954207	0.0112182	0.0960779	6.70523	8.29399e+06	7.05478e+07	7.10337e+07	-83.2948	0.0000000E+000	0.0000000E+000	0.0000000E+000	83.2948	0.0000000E+000	0.0000000E+000	0.0000000E+000	-83.2948	0.0000000E+000	0.0000000E+000	0.0000000E+000	-6.70523	0.0000000E+000	0.0000000E+000	0.0000000E+000	6.70523	8.50589	83.2948	-1.11277e-05	-5.18934e-06	3.06759e-09	-5.19241e-06	0.265565	13574.2	8.02417	13582.2
0.146929	10.5166	1.45906	10.6174	-7.89871	57.2447	0.265412	-0.015888	742403	14020.2	1	11	0.00470926	0.000443544	0	-0.000164551	-2.32329e-05	2.51489e-06	18.2041	0.00566998	0.0053862	-0.00177132	-7.88526	10.6225	10.522	1.45729	0.0932918	0.0129432	0.0941854	7.89871	1.40202e+07	1.01055e+08	1.02023e+08	-82.1013	0.0000000E+000	0.0000000E+000	0.0000000E+000	82.1013	0.0000000E+000	0.0000000E+000	0.0000000E+000	-82.1013	0.0000000E+000	0.0000000E+000	0.0000000E+000	-7.89871	0.0000000E+000	0.0000000E+000	0.0000000E+000	7.89871	7.2078	82.1013	1.79385e-05	-4.21688e-06	3.69125e-10	-4.21724e-06	0.265435	16705.1	1.46229	16706.6
0.0999041	10.7855	1.79873	10.9345	-9.46822	78.3207	0.265408	-0.0117209	885670	23966.6	1	11	0.00471169	0.000430902	0	-0.000138033	0.000244084	2.22019e-06	-40.1794	0.00515241	0.00393659	0.00332425	-9.482	10.9389	10.7895	1.80205	0.090208	0.0150442	0.0914539	9.46822	2.39666e+07	1.43708e+08	1.45693e+08	-80.5318	0.0000000E+000	0.0000000E+000	0.0000000E+000	80.5318	0.0000000E+000	0.0000000E+000	0.0000000E+000	-80.5318	0.0000000E+000	0.0000000E+000	0.0000000E+000	-9.46822	0.0000000E+000	0.0000000E+000	0.0000000E+000	9.46822	5.9962	80.5318	2.65176e-05	-3.11082e-06	-2.86089e-09	-3.10796e-06	0.265163	22643.9	20.8246	22623.1
0.0680626	11.133	2.28356	11.3648	-11.5915	109.247	0.265403	-0.00753345	1.024e+06	41342.5	1	11	0.00471652	0.00041501	0	-0.00015209	9.13315e-05	2.36402e-06	61.3614	0.0056963	0.00273014	-0.00499942	-11.564	11.3665	11.1358	2.27856	0.0861962	0.0176801	0.0879908	11.5915	4.13425e+07	2.01558e+08	2.05754e+08	-78.4085	0.0000000E+000	0.0000000E+000	0.0000000E+000	78.4085	0.0000000E+000	0.0000000E+000	0.0000000E+000	-78.4085	0.0000000E+000	0.0000000E+000	0.0000000E+000	-11.5915	0.0000000E+000	0.0000000E+000	0.0000000E+000	11.5915	4.87531	78.4085	-1.40569e-05	-1.9994e-06	-6.88042e-10	-1.99871e-06	0.265312	35230	12.1235	35217.8
0.0464052	11.5182	2.94626	11.889	-14.3482	154.598	0.265406	-0.00515887	1.16408e+06	71488.1	1	11	0.00471458	0.00039655	0	-0.000303914	-0.000156891	2.07763e-06	1.01137	0.00523927	0.00523845	-9.24771e-05	-14.3415	11.8941	11.5234	2.94616	0.0814877	0.0208439	0.0841114	14.3482	7.14881e+07	2.79477e+08	2.88475e+08	-75.6518	0.0000000E+000	0.0000000E+000	0.0000000E+000	75.6518	0.0000000E+000	0.0000000E+000	0.0000000E+000	-75.6518	0.0000000E+000	0.0000000E+000	0.0000000E+000	-14.3482	0.0000000E+000	0.0000000E+000	0.0000000E+000	14.3482	3.90942	75.6518	-0.000151824	-1.36919e-06	8.09381e-10	-1.37e-06	0.265563	51446.5	30.412	51476.9
0.0315922	11.9569	3.72926	12.525	-17.3222	221.203	0.265406	-0.00514002	1.35088e+06	119759	1	11	0.00471001	0.000376049	0	-0.000701449	-0.000118703	2.13501e-06	2.05263	0.00567749	0.00567384	-0.000203353	-17.3136	12.5303	11.9626	3.72905	0.0762193	0.0237721	0.0798404	17.3222	1.19759e+08	3.83977e+08	4.02219e+08	-72.6778	0.0000000E+000	0.0000000E+000	0.0000000E+000	72.6778	0.0000000E+000	0.0000000E+000	0.0000000E+000	-72.6778	0.0000000E+000	0.0000000E+000	0.0000000E+000	-17.3222	0.0000000E+000	0.0000000E+000	0.0000000E+000	17.3222	3.20625	72.6778	-0.000397535	-1.36419e-06	6.10137e-10	-1.3648e-06	0.265525	51635.2	23.0939	51658.3
0.0215268	12.5966	4.71804	13.4512	-20.5334	318.942	0.265404	-0.00713372	1.56704e+06	192789	1	11	0.00471078	0.000350214	0	-0.00135254	-4.13882e-06	1.22308e-06	-15.1224	0.00349238	0.00337144	0.000911098	-20.532	13.4546	12.6	4.71895	0.0696198	0.026076	0.074343	20.5334	1.92789e+08	5.14723e+08	5.49643e+08	-69.4666	0.0000000E+000	0.0000000E+000	0.0000000E+000	69.4666	0.0000000E+000	0.0000000E+000	0.0000000E+000	-69.4666	0.0000000E+000	0.0000000E+000	0.0000000E+000	-20.5334	0.0000000E+000	0.0000000E+000	0.0000000E+000	20.5334	2.66988	69.4666	-0.000651094	-1.89332e-06	2.95251e-11	-1.89335e-06	0.265408	37204.2	0.580177	37204.7
0.0146812	13.4503	6.13586	14.7838	-24.5218	462.243	0.265406	-0.00822387	1.76679e+06	304343	1	11	0.00471101	0.000318661	0	-0.00206218	3.40493e-05	1.98684e-06	-4.61313	0.00623496	0.00621476	0.000501462	-24.5136	14.7897	13.4566	6.13636	0.0615406	0.028074	0.0676417	24.5218	3.04343e+08	6.67146e+08	7.33286e+08	-65.4782	0.0000000E+000	0.0000000E+000	0.0000000E+000	65.4782	0.0000000E+000	0.0000000E+000	0.0000000E+000	-65.4782	0.0000000E+000	0.0000000E+000	0.0000000E+000	-24.5218	0.0000000E+000	0.0000000E+000	0.0000000E+000	24.5218	2.19209	65.4782	-0.000709641	-2.18266e-06	-2.80017e-10	-2.18238e-06	0.265371	32272.6	4.1403	32268.4
0.0100092	14.2498	7.99319	16.3386	-29.2895	772.616	0.265405	-0.00828501	1.98931e+06	476118	1	12	0.00470879	0.000288201	0	-0.00272834	0.00022499	1.75992e-06	27.8071	0.00610658	0.00540141	-0.00284869	-29.2715	16.3419	14.2552	7.99034	0.0533804	0.0299428	0.0612049	29.2895	4.76118e+08	8.48797e+08	9.73214e+08	-60.7105	0.0000000E+000	0.0000000E+000	0.0000000E+000	60.7105	0.0000000E+000	0.0000000E+000	0.0000000E+000	-60.7105	0.0000000E+000	0.0000000E+000	0.0000000E+000	-29.2895	0.0000000E+000	0.0000000E+000	0.0000000E+000	29.2895	1.78275	60.7105	-0.000666159	-2.19888e-06	-1.86404e-09	-2.19702e-06	0.26518	32034.4	27.1563	32007.2