File: txt/18218_R279_UA654_SOC00_C05.mpt
EC-Lab ASCII FILE
Nb header lines : 65

Potentio Electrochemical Impedance Spectroscopy

Run on channel : 5 (SN 65912)
User :
CE vs. WE compliance from -10 V to 10 V
Electrode connection : standard
Potential control : Ewe
Ewe ctrl range : min = -10.00 V, max = 10.00 V
Safety Limits :
	Do not start on E overload
Acquisition started on : 10/08/2025 08:32:37.272
Technique started on : 10/08/2025 08:32:38.999
Loaded Setting File :  C:\Users\Celltest\OneDrive - store-dot.com\Documents\EC-Lab\Data\@Biologic Test Protocols\anode half cell EIS SOC00.mps
Saved on :
	File : 18218_R279_UA654_SOC00_C05.mpr
	Directory : C:\Users\Celltest\OneDrive - store-dot.com\Documents\EC-Lab\Data\Charmaine\
	Host : 169.254.61.224
Device : VMP-3e (SN .003165)
Address : USB
EC-LAB for windows v11.62 (software)
Internet server v27.00 (firmware)
Command interpretor v12.03 (firmware)
Electrode material :
Initial state :
Electrolyte :
Comments :
Electrode surface area : 0.001 cm²
Characteristic mass : 0.001 g
Equivalent Weight : 0.000 g/eq.
Density : 0.000 g/cm3
Volume (V) : 0.001 cm³
Record Ece
Cycle Definition : Charge/Discharge alternance
Mode                Single sine
E (V)               0.0000
vs.                 Eoc
tE (h:m:s)          0:00:0.0000
record              0
dI                  0.000
unit dI             mA
dt (s)              0.000
fi                  100.000
unit fi             kHz
ff                  10.000
unit ff             mHz
Nd                  6
Points              per decade
spacing             Logarithmic
Va (mV)             5.0
pw                  0.10
Na                  2
corr                0
E range min (V)     -10.000
E range max (V)     10.000
I Range             Auto
Bandwidth           5
nc cycles           0
goto Ns'            0
nr cycles           0
inc. cycle          0

freq/Hz	Re(Z)/Ohm	-Im(Z)/Ohm	|Z|/Ohm	Phase(Z)/deg	time/s	<Ewe>/V	<I>/mA	Cs/µF	Cp/µF	cycle number	I Range	|Ewe|/V	|I|/A	Ns	(Q-Qo)/mA.h	<Ece>/V	|Ece|/V	Phase(Zce)/deg	|Zce|/Ohm	Re(Zce)/Ohm	-Im(Zce)/Ohm	Phase(Zwe-ce)/deg	|Zwe-ce|/Ohm	Re(Zwe-ce)/Ohm	-Im(Zwe-ce)/Ohm	Re(Y)/Ohm-1	Im(Y)/Ohm-1	|Y|/Ohm-1	Phase(Y)/deg	Re(C)/nF	Im(C)/nF	|C|/nF	Phase(C)/deg	Re(M)	Im(M)	|M|	Phase(M)/deg	Re(Permittivity)	Im(Permittivity)	|Permittivity|	Phase(Permittivity)/deg	Re(Resistivity)/Ohm.cm	Im(Resistivity)/Ohm.cm	|Resistivity|/Ohm.cm	Phase(Resistivity)/deg	Re(Conductivity)/mS/cm	Im(Conductivity)/mS/cm	|Conductivity|/mS/cm	Phase(Conductivity)/deg	Tan(Delta)	Loss Angle(Delta)/deg	dq/mA.h	Pwe/W	Pce/W	Pwe-ce/W	<Ewe-Ece>/V	Rwe/Ohm	Rce/Ohm	Rwe-ce/Ohm		Ewe-Ece/V
100004	1.09461	0.236372	1.11984	-12.1854	1.72654	0.279046	0.000946748	6.73299	0.299975	1	9	0.00471494	0.00421036	0	-1.0777e-05	0.000111272	4.43636e-05	83.8976	0.0105368	0.00112011	-0.0104771	-11.6488	1.11878	1.09573	0.225895	0.872863	0.188487	0.892982	12.1854	299.975	1389.15	1421.17	-77.8146	0.0000000E+000	0.0000000E+000	0.0000000E+000	77.8146	0.0000000E+000	0.0000000E+000	0.0000000E+000	-77.8146	0.0000000E+000	0.0000000E+000	0.0000000E+000	-12.1854	0.0000000E+000	0.0000000E+000	0.0000000E+000	12.1854	4.63089	77.8146	-1.0777e-05	2.64186e-07	1.05346e-10	2.64081e-07	0.278935	294741	117.531	294624
68132	1.15256	0.266779	1.18303	-13.0326	2.23552	0.279039	-0.0016228	8.75622	0.445278	1	9	0.00503797	0.00425854	0	1.91487e-06	0.000149454	2.28768e-05	91.9043	0.00537199	-0.000178516	-0.00536902	-12.7809	1.18165	1.15238	0.26141	0.823516	0.190617	0.845289	13.0326	445.278	1923.71	1974.58	-76.9674	0.0000000E+000	0.0000000E+000	0.0000000E+000	76.9674	0.0000000E+000	0.0000000E+000	0.0000000E+000	-76.9674	0.0000000E+000	0.0000000E+000	0.0000000E+000	-13.0326	0.0000000E+000	0.0000000E+000	0.0000000E+000	13.0326	4.32026	76.9674	1.26918e-05	-4.52825e-07	-2.42535e-10	-4.52582e-07	0.278889	171949	92.0964	171857
46420.4	1.21598	0.301308	1.25275	-13.917	2.74252	0.27903	-0.00426683	11.3789	0.65825	1	9	0.00507429	0.00405051	0	-2.20536e-06	0.000149454	1.2576e-05	44.5076	0.00310481	0.00221422	-0.00217648	-13.7962	1.25438	1.21819	0.299132	0.774808	0.19199	0.798241	13.917	658.25	2656.48	2736.82	-76.083	0.0000000E+000	0.0000000E+000	0.0000000E+000	76.083	0.0000000E+000	0.0000000E+000	0.0000000E+000	-76.083	0.0000000E+000	0.0000000E+000	0.0000000E+000	-13.917	0.0000000E+000	0.0000000E+000	0.0000000E+000	13.917	4.03567	76.083	-4.12023e-06	-1.19057e-06	-6.37696e-10	-1.18994e-06	0.27888	65395.1	35.027	65360.1
31621.1	1.28439	0.340528	1.32876	-14.8491	3.24953	0.279032	-0.0106348	14.7805	0.970738	1	9	0.0050597	0.00380783	0	1.22377e-05	-0.000156005	1.51815e-05	12.7113	0.00398693	0.00388921	-0.000877276	-14.7698	1.3323	1.28827	0.33965	0.727448	0.192868	0.752581	14.8491	970.738	3661.38	3787.88	-75.1509	0.0000000E+000	0.0000000E+000	0.0000000E+000	75.1509	0.0000000E+000	0.0000000E+000	0.0000000E+000	-75.1509	0.0000000E+000	0.0000000E+000	0.0000000E+000	-14.8491	0.0000000E+000	0.0000000E+000	0.0000000E+000	14.8491	3.77175	75.1509	1.44431e-05	-2.96746e-06	1.65909e-09	-2.96912e-06	0.279188	26237.5	14.6693	26252.2
21544.7	1.36674	0.384361	1.41976	-15.7073	3.63254	0.27902	-0.00125042	19.2194	1.40861	1	9	0.00526512	0.00370846	0	1.34581e-05	0.000149454	1.03701e-05	-11.3448	0.00279635	0.00274171	0.000550076	-15.6987	1.42255	1.36948	0.384911	0.678043	0.190682	0.704345	15.7073	1408.61	5008.84	5203.14	-74.2927	0.0000000E+000	0.0000000E+000	0.0000000E+000	74.2927	0.0000000E+000	0.0000000E+000	0.0000000E+000	-74.2927	0.0000000E+000	0.0000000E+000	0.0000000E+000	-15.7073	0.0000000E+000	0.0000000E+000	0.0000000E+000	15.7073	3.55588	74.2927	1.22043e-06	-3.48891e-07	-1.8688e-10	-3.48704e-07	0.27887	223141	119.524	223022
14678.6	1.45297	0.439252	1.51791	-16.8208	3.89353	0.279031	-0.00903354	24.6843	2.06708	1	9	0.00509048	0.00335361	0	1.16048e-05	9.21806e-05	6.88557e-06	-102.31	0.00205318	-0.000437729	0.00200598	-16.8981	1.51807	1.45253	0.441258	0.630613	0.190643	0.6588	16.8208	2067.08	6837.52	7143.14	-73.1792	0.0000000E+000	0.0000000E+000	0.0000000E+000	73.1792	0.0000000E+000	0.0000000E+000	0.0000000E+000	-73.1792	0.0000000E+000	0.0000000E+000	0.0000000E+000	-16.8208	0.0000000E+000	0.0000000E+000	0.0000000E+000	16.8208	3.30782	73.1792	-1.85331e-06	-2.52064e-06	-8.32718e-10	-2.5198e-06	0.278939	30888.3	10.2043	30878.1
10002.2	1.55457	0.500222	1.63307	-17.8369	4.15254	0.279022	-0.00568197	31.8098	2.98455	1	9	0.00467535	0.00286293	0	1.37324e-05	-0.000194188	3.78605e-06	-38.0019	0.00132244	0.00104207	0.000814209	-17.8529	1.63431	1.55561	0.501036	0.582911	0.187566	0.612345	17.8369	2984.55	9275.25	9743.61	-72.1631	0.0000000E+000	0.0000000E+000	0.0000000E+000	72.1631	0.0000000E+000	0.0000000E+000	0.0000000E+000	-72.1631	0.0000000E+000	0.0000000E+000	0.0000000E+000	-17.8369	0.0000000E+000	0.0000000E+000	0.0000000E+000	17.8369	3.10776	72.1631	2.12759e-06	-1.58539e-06	1.10337e-09	-1.5865e-06	0.279216	49106.5	34.1761	49140.7
6810.42	1.67133	0.562639	1.76349	-18.6054	4.53552	0.279027	-0.0133534	41.5352	4.22794	1	9	0.00499381	0.00283178	0	1.1698e-05	5.39982e-05	2.79745e-05	31.1843	0.00987878	0.00845135	-0.00511516	-18.3611	1.76988	1.67978	0.557523	0.537422	0.180919	0.567057	18.6054	4227.94	12559.2	13251.7	-71.3946	0.0000000E+000	0.0000000E+000	0.0000000E+000	71.3946	0.0000000E+000	0.0000000E+000	0.0000000E+000	-71.3946	0.0000000E+000	0.0000000E+000	0.0000000E+000	-18.6054	0.0000000E+000	0.0000000E+000	0.0000000E+000	18.6054	2.97052	71.3946	-2.03443e-06	-3.72595e-06	-7.21058e-10	-3.72523e-06	0.278973	20895.6	4.04379	20891.6
4646	1.78742	0.653807	1.90324	-20.0917	4.80161	0.279012	-0.0272438	52.3951	6.18306	1	9	0.00484145	0.00254379	0	1.07638e-05	-0.000213279	9.8107e-06	15.2947	0.00385672	0.00372012	-0.00101734	-20.0246	1.90639	1.79114	0.65279	0.493445	0.180494	0.52542	20.0917	6183.06	16903.6	17999	-69.9083	0.0000000E+000	0.0000000E+000	0.0000000E+000	69.9083	0.0000000E+000	0.0000000E+000	0.0000000E+000	-69.9083	0.0000000E+000	0.0000000E+000	0.0000000E+000	-20.0917	0.0000000E+000	0.0000000E+000	0.0000000E+000	20.0917	2.73386	69.9083	-9.34206e-07	-7.60136e-06	5.81053e-09	-7.60717e-06	0.279226	10241.3	7.82852	10249.1
3163.08	1.93187	0.763576	2.0773	-21.5665	5.17566	0.27881	-0.133191	65.8958	8.90354	1	9	0.00476042	0.00229164	0	-5.99216e-07	7.30894e-05	1.24087e-05	68.8504	0.00541476	0.00195366	-0.00505003	-21.4171	2.07727	1.93383	0.758526	0.447692	0.176951	0.481394	21.5665	8903.54	22526.3	24222	-68.4335	0.0000000E+000	0.0000000E+000	0.0000000E+000	68.4335	0.0000000E+000	0.0000000E+000	0.0000000E+000	-68.4335	0.0000000E+000	0.0000000E+000	0.0000000E+000	-21.5665	0.0000000E+000	0.0000000E+000	0.0000000E+000	21.5665	2.53003	68.4335	-1.1363e-05	-3.71351e-05	-9.73486e-09	-3.71253e-05	0.278737	2093.31	0.548756	2092.76
2155.69	2.09381	0.887089	2.27398	-22.961	5.62681	0.278952	-0.00259109	83.2275	12.6657	1	9	0.00470524	0.00206917	0	-2.34652e-06	0.000149454	9.10376e-06	36.3897	0.00439972	0.00354178	-0.00261024	-22.8657	2.27622	2.09735	0.884479	0.404916	0.171552	0.439758	22.961	12665.7	29895	32467.4	-67.039	0.0000000E+000	0.0000000E+000	0.0000000E+000	67.039	0.0000000E+000	0.0000000E+000	0.0000000E+000	-67.039	0.0000000E+000	0.0000000E+000	0.0000000E+000	-22.961	0.0000000E+000	0.0000000E+000	0.0000000E+000	22.961	2.36032	67.039	-1.74731e-06	-7.22791e-07	-3.8725e-10	-7.22404e-07	0.278803	107658	57.68	107601
1468.59	2.2521	1.05214	2.48575	-25.041	6.0781	0.278953	-0.00981562	103.002	18.4534	1	9	0.00467323	0.00188001	0	-1.33964e-06	9.21806e-05	5.67336e-06	-32.6063	0.00301774	0.00254212	0.00162615	-25.0502	2.48874	2.25465	1.05376	0.364479	0.170277	0.402293	25.041	18453.4	39499.6	43597.5	-64.959	0.0000000E+000	0.0000000E+000	0.0000000E+000	64.959	0.0000000E+000	0.0000000E+000	0.0000000E+000	-64.959	0.0000000E+000	0.0000000E+000	0.0000000E+000	-25.041	0.0000000E+000	0.0000000E+000	0.0000000E+000	25.041	2.14051	64.959	1.00688e-06	-2.73809e-06	-9.0481e-10	-2.73719e-06	0.27886	28419.3	9.39122	28409.9
1000.32	2.4517	1.28654	2.76876	-27.6884	6.52983	0.278954	-0.00728331	123.668	26.7014	1	9	0.00466047	0.00168323	0	-2.72197e-06	-7.96403e-05	1.11297e-05	-27.4735	0.00661208	0.0058664	0.0030504	-27.6879	2.77537	2.45757	1.28959	0.319814	0.167823	0.361172	27.6884	26701.4	50883.6	57464	-62.3116	0.0000000E+000	0.0000000E+000	0.0000000E+000	62.3116	0.0000000E+000	0.0000000E+000	0.0000000E+000	-62.3116	0.0000000E+000	0.0000000E+000	0.0000000E+000	-27.6884	0.0000000E+000	0.0000000E+000	0.0000000E+000	27.6884	1.90566	62.3116	-1.38233e-06	-2.03171e-06	5.80045e-10	-2.03229e-06	0.279034	38300.5	10.9346	38311.4
681.09	2.66665	1.5822	3.10071	-30.6819	7.22557	0.278979	-0.0229905	147.691	38.4553	1	10	0.004737	0.00152772	0	-5.47476e-06	5.39982e-05	5.68652e-06	21.1214	0.00372224	0.00347218	-0.00134129	-30.6279	3.10301	2.67012	1.58086	0.27736	0.164566	0.322507	30.6819	38455.3	64812.7	75362.4	-59.3181	0.0000000E+000	0.0000000E+000	0.0000000E+000	59.3181	0.0000000E+000	0.0000000E+000	0.0000000E+000	-59.3181	0.0000000E+000	0.0000000E+000	0.0000000E+000	-30.6819	0.0000000E+000	0.0000000E+000	0.0000000E+000	30.6819	1.6854	59.3181	-2.75279e-06	-6.41386e-06	-1.24144e-09	-6.41262e-06	0.278925	12134.6	2.34872	12132.2
463.961	2.95972	1.97436	3.55781	-33.7063	7.67736	0.278982	-0.022875	173.745	53.5056	1	10	0.00469454	0.0013195	0	-8.56035e-06	-0.000251461	1.89324e-05	-57.8595	0.0143481	0.00763316	0.0121492	-33.8005	3.57091	2.96735	1.98651	0.233822	0.155977	0.281072	33.7063	53505.6	80209.1	96417.6	-56.2937	0.0000000E+000	0.0000000E+000	0.0000000E+000	56.2937	0.0000000E+000	0.0000000E+000	0.0000000E+000	-56.2937	0.0000000E+000	0.0000000E+000	0.0000000E+000	-33.7063	0.0000000E+000	0.0000000E+000	0.0000000E+000	33.7063	1.49908	56.2937	-3.08558e-06	-6.38173e-06	5.75219e-09	-6.38749e-06	0.279234	12195.9	10.9928	12206.9
316.316	3.34984	2.52371	4.19411	-36.9937	8.12504	0.278978	-0.0232027	199.37	72.187	1	10	0.00468583	0.00111724	0	-1.06216e-05	-0.000136914	2.56606e-05	-45.681	0.0229679	0.0160466	0.0164326	-37.0408	4.21682	3.36589	2.54014	0.190434	0.143469	0.23843	36.9937	72187	95817.3	119966	-53.0063	0.0000000E+000	0.0000000E+000	0.0000000E+000	53.0063	0.0000000E+000	0.0000000E+000	0.0000000E+000	-53.0063	0.0000000E+000	0.0000000E+000	0.0000000E+000	-36.9937	0.0000000E+000	0.0000000E+000	0.0000000E+000	36.9937	1.32735	53.0063	-2.06122e-06	-6.47305e-06	3.17677e-09	-6.47623e-06	0.279115	12023.5	5.90078	12029.4
215.345	3.8799	3.14744	4.996	-39.0495	8.5746	0.278991	-0.0228155	234.817	93.1962	1	10	0.0046501	0.000930765	0	-1.23743e-05	-0.000194188	5.66668e-06	17.8525	0.0060882	0.00579504	-0.00186644	-38.991	4.99933	3.8857	3.14557	0.155445	0.126099	0.20016	39.0495	93196.2	114885	147933	-50.9505	0.0000000E+000	0.0000000E+000	0.0000000E+000	50.9505	0.0000000E+000	0.0000000E+000	0.0000000E+000	-50.9505	0.0000000E+000	0.0000000E+000	0.0000000E+000	-39.0495	0.0000000E+000	0.0000000E+000	0.0000000E+000	39.0495	1.23272	50.9505	-1.75274e-06	-6.36531e-06	4.43048e-09	-6.36974e-06	0.279185	12228.1	8.51123	12236.7
146.737	4.6068	3.94628	6.06595	-40.584	9.02051	0.278972	-0.0238171	274.848	116.324	1	10	0.0046356	0.0007642	0	-1.40583e-05	3.4907e-05	5.83998e-06	31.2519	0.00764195	0.00653307	-0.00396466	-40.5155	6.06833	4.61333	3.94231	0.125199	0.107248	0.164855	40.584	116324	135794	178806	-49.416	0.0000000E+000	0.0000000E+000	0.0000000E+000	49.416	0.0000000E+000	0.0000000E+000	0.0000000E+000	-49.416	0.0000000E+000	0.0000000E+000	0.0000000E+000	-40.584	0.0000000E+000	0.0000000E+000	0.0000000E+000	40.584	1.16738	49.416	-1.68396e-06	-6.64431e-06	-8.31382e-10	-6.64348e-06	0.278938	11713.1	1.46563	11711.7
100.032	5.63142	4.91341	7.47359	-41.1047	9.47179	0.278973	-0.0232995	323.816	139.961	1	10	0.00465258	0.000622537	0	-1.75853e-05	0.000225819	6.63382e-05	80.4582	0.106561	0.0176644	-0.105087	-40.4034	7.41837	5.64909	4.80832	0.100823	0.087968	0.133805	41.1047	139961	160413	212888	-48.8953	0.0000000E+000	0.0000000E+000	0.0000000E+000	48.8953	0.0000000E+000	0.0000000E+000	0.0000000E+000	-48.8953	0.0000000E+000	0.0000000E+000	0.0000000E+000	-41.1047	0.0000000E+000	0.0000000E+000	0.0000000E+000	41.1047	1.14613	48.8953	-3.52707e-06	-6.49994e-06	-5.26148e-09	-6.49468e-06	0.278747	11973.3	9.69201	11963.6
68.104	7.02735	5.81074	9.11857	-39.5865	9.93449	0.278979	-0.0209985	402.176	163.315	1	10	0.00463126	0.000507893	0	-2.06091e-05	-9.87315e-05	8.13436e-06	-126.972	0.0160159	-0.00963228	0.0127956	-39.687	9.11932	7.01772	5.82353	0.0845158	0.069884	0.109666	39.5865	163315	197508	256284	-50.4135	0.0000000E+000	0.0000000E+000	0.0000000E+000	50.4135	0.0000000E+000	0.0000000E+000	0.0000000E+000	-50.4135	0.0000000E+000	0.0000000E+000	0.0000000E+000	-39.5865	0.0000000E+000	0.0000000E+000	0.0000000E+000	39.5865	1.20937	50.4135	-3.02379e-06	-5.85812e-06	2.07321e-09	-5.8602e-06	0.279077	13285.7	4.70185	13290.4
46.4415	8.8293	6.65865	11.0587	-37.0219	10.3717	0.278965	-0.0259059	514.668	186.592	1	10	0.00463085	0.000418753	0	-2.34969e-05	0.000149454	6.66775e-06	-59.9791	0.0159229	0.00796648	0.0137867	-37.054	11.0733	8.83727	6.67243	0.0721973	0.0544478	0.0904268	37.0219	186592	247420	309892	-52.9781	0.0000000E+000	0.0000000E+000	0.0000000E+000	52.9781	0.0000000E+000	0.0000000E+000	0.0000000E+000	-52.9781	0.0000000E+000	0.0000000E+000	0.0000000E+000	-37.0219	0.0000000E+000	0.0000000E+000	0.0000000E+000	37.0219	1.32599	52.9781	-2.88779e-06	-7.22685e-06	-3.87175e-09	-7.22298e-06	0.278816	10768.4	5.76912	10762.6
31.6296	11.0825	7.1065	13.1652	-32.6695	10.8006	0.278959	-0.0284081	708.062	206.312	1	10	0.00463429	0.000352009	0	-2.63519e-05	1.58158e-05	7.20726e-06	47.0212	0.0204746	0.0139581	-0.0149794	-32.5819	13.1689	11.0964	7.09152	0.063941	0.0410013	0.0759576	32.6695	206312	321741	382207	-57.3305	0.0000000E+000	0.0000000E+000	0.0000000E+000	57.3305	0.0000000E+000	0.0000000E+000	0.0000000E+000	-57.3305	0.0000000E+000	0.0000000E+000	0.0000000E+000	-32.6695	0.0000000E+000	0.0000000E+000	0.0000000E+000	32.6695	1.55949	57.3305	-2.855e-06	-7.92469e-06	-4.49295e-10	-7.92424e-06	0.278943	9819.72	0.556736	9819.17
21.5517	13.3757	7.03852	15.1145	-27.7542	11.2225	0.278953	-0.0295437	1049.2	227.525	1	10	0.00462552	0.000306031	0	-2.97614e-05	0.000359458	9.84982e-06	-5.01963	0.0321857	0.0320622	0.00281615	-27.7071	15.1442	13.4077	7.04134	0.0585498	0.03081	0.0661615	27.7542	227525	432378	488589	-62.2458	0.0000000E+000	0.0000000E+000	0.0000000E+000	62.2458	0.0000000E+000	0.0000000E+000	0.0000000E+000	-62.2458	0.0000000E+000	0.0000000E+000	0.0000000E+000	-27.7542	0.0000000E+000	0.0000000E+000	0.0000000E+000	27.7542	1.90035	62.2458	-3.40949e-06	-8.24129e-06	-1.06197e-08	-8.23067e-06	0.278593	9442.03	12.167	9429.87
14.6852	15.5591	6.42155	16.8321	-22.4269	11.9322	0.278989	-0.00954873	1687.73	245.642	1	11	0.00463268	0.000275228	0	-3.50457e-05	5.39982e-05	8.64324e-06	-37.8273	0.031404	0.0248048	0.0192596	-22.4553	16.8624	15.5839	6.44081	0.0549167	0.0226652	0.0594101	22.4269	245642	595177	643876	-67.5731	0.0000000E+000	0.0000000E+000	0.0000000E+000	67.5731	0.0000000E+000	0.0000000E+000	0.0000000E+000	-67.5731	0.0000000E+000	0.0000000E+000	0.0000000E+000	-22.4269	0.0000000E+000	0.0000000E+000	0.0000000E+000	22.4269	2.42295	67.5731	-5.28424e-06	-2.66399e-06	-5.15614e-10	-2.66348e-06	0.278935	29217.4	5.65501	29211.7
10.0032	17.2739	5.5357	18.1393	-17.7688	12.3828	0.279001	-0.00994972	2874.15	267.679	1	11	0.0046377	0.000255672	0	-3.41912e-05	3.4907e-05	9.20047e-06	-23.5516	0.0359855	0.0329879	0.0143789	-17.7803	18.1751	17.3069	5.55008	0.0524991	0.0168241	0.055129	17.7688	267679	835282	877124	-72.2312	0.0000000E+000	0.0000000E+000	0.0000000E+000	72.2312	0.0000000E+000	0.0000000E+000	0.0000000E+000	-72.2312	0.0000000E+000	0.0000000E+000	0.0000000E+000	-17.7688	0.0000000E+000	0.0000000E+000	0.0000000E+000	17.7688	3.12046	72.2312	8.54489e-07	-2.77598e-06	-3.47315e-10	-2.77563e-06	0.278966	28041.1	3.50834	28037.6
6.81719	18.4968	4.60688	19.0618	-13.9858	12.7225	0.278981	-0.00962617	5067.67	296.001	1	11	0.00463384	0.000243095	0	-3.67426e-05	0.000340366	4.04861e-06	33.378	0.0166544	0.0139074	-0.00916258	-13.949	19.0731	18.5107	4.59772	0.0509057	0.0126788	0.0524609	13.9858	296000	1.18845e+06	1.22476e+06	-76.0142	0.0000000E+000	0.0000000E+000	0.0000000E+000	76.0142	0.0000000E+000	0.0000000E+000	0.0000000E+000	-76.0142	0.0000000E+000	0.0000000E+000	0.0000000E+000	-13.9858	0.0000000E+000	0.0000000E+000	0.0000000E+000	13.9858	4.01503	76.0142	-2.55142e-06	-2.68552e-06	-3.27643e-09	-2.68225e-06	0.278641	28981.5	35.3584	28946.2
4.63925	19.3636	3.76481	19.7262	-11.0026	13.2065	0.278985	-0.00971851	9112.33	331.917	1	11	0.00463546	0.00023499	0	-3.92391e-05	-0.000117823	6.0897e-06	146.218	0.0259147	-0.0215393	-0.0144093	-10.9734	19.7023	19.342	3.7504	0.0497622	0.00967514	0.0506941	11.0026	331917	1.70715e+06	1.73912e+06	-78.9974	0.0000000E+000	0.0000000E+000	0.0000000E+000	78.9974	0.0000000E+000	0.0000000E+000	0.0000000E+000	-78.9974	0.0000000E+000	0.0000000E+000	0.0000000E+000	-11.0026	0.0000000E+000	0.0000000E+000	0.0000000E+000	11.0026	5.14331	78.9974	-2.49647e-06	-2.71132e-06	1.14506e-09	-2.71246e-06	0.279103	28706.6	12.1235	28718.7
3.1604	19.9943	3.16516	20.2433	-8.99545	13.8994	0.278975	-0.00989127	15910.5	388.967	1	11	0.00463673	0.00022905	0	-3.85654e-05	0.000111272	5.89106e-06	-56.2791	0.0257195	0.0142781	0.0213922	-9.04889	20.2607	20.0086	3.18655	0.0487916	0.00772385	0.0493991	8.99545	388967	2.4571e+06	2.4877e+06	-81.0045	0.0000000E+000	0.0000000E+000	0.0000000E+000	81.0045	0.0000000E+000	0.0000000E+000	0.0000000E+000	-81.0045	0.0000000E+000	0.0000000E+000	0.0000000E+000	-8.99545	0.0000000E+000	0.0000000E+000	0.0000000E+000	8.99545	6.317	81.0045	6.73665e-07	-2.75942e-06	-1.10062e-09	-2.75832e-06	0.278864	28204.2	11.2495	28192.9
2.15577	20.4818	2.73057	20.663	-7.59372	14.9031	0.278993	-0.0087676	27037.4	472.155	1	11	0.00463422	0.000224276	0	-3.7459e-05	-0.000194188	2.77574e-06	-126.126	0.0123764	-0.00729662	0.00999676	-7.62388	20.6571	20.4745	2.74056	0.0479713	0.00639538	0.0483957	7.59372	472155	3.5416e+06	3.57294e+06	-82.4063	0.0000000E+000	0.0000000E+000	0.0000000E+000	82.4063	0.0000000E+000	0.0000000E+000	0.0000000E+000	-82.4063	0.0000000E+000	0.0000000E+000	0.0000000E+000	-7.59372	0.0000000E+000	0.0000000E+000	0.0000000E+000	7.59372	7.50093	82.4063	1.10636e-06	-2.4461e-06	1.70256e-09	-2.4478e-06	0.279187	31820.9	22.1483	31843
1.46631	20.948	2.47487	21.0937	-6.73788	16.3645	0.278987	-0.00818132	43857.3	603.728	1	11	0.00463541	0.000219753	0	-4.0363e-05	1.58158e-05	3.24033e-06	5.12094	0.0147453	0.0146864	-0.00131614	-6.72966	21.1081	20.9627	2.47355	0.0470801	0.0055622	0.0474075	6.73788	603728	5.11013e+06	5.14567e+06	-83.2621	0.0000000E+000	0.0000000E+000	0.0000000E+000	83.2621	0.0000000E+000	0.0000000E+000	0.0000000E+000	-83.2621	0.0000000E+000	0.0000000E+000	0.0000000E+000	-6.73788	0.0000000E+000	0.0000000E+000	0.0000000E+000	6.73788	8.46429	83.2621	-2.90402e-06	-2.28248e-06	-1.29394e-10	-2.28235e-06	0.278972	34100.5	1.93316	34098.6
1.00006	21.3593	2.33307	21.4864	-6.23367	19.539	0.278991	-0.00753619	68212.7	804.254	1	12	0.0046326	0.000215607	0	-5.27692e-05	-4.14579e-05	3.77942e-06	47.8985	0.0175292	0.0117524	-0.013006	-6.19581	21.4967	21.3711	2.32006	0.0462659	0.0050536	0.0465411	6.23367	804254	7.36298e+06	7.40678e+06	-83.7663	0.0000000E+000	0.0000000E+000	0.0000000E+000	83.7663	0.0000000E+000	0.0000000E+000	0.0000000E+000	-83.7663	0.0000000E+000	0.0000000E+000	0.0000000E+000	-6.23367	0.0000000E+000	0.0000000E+000	0.0000000E+000	6.23367	9.15505	83.7663	-1.24061e-05	-2.10253e-06	3.12434e-10	-2.10284e-06	0.279033	37020.2	5.50117	37025.7
0.681362	21.8214	2.26442	21.9386	-5.9244	22.6512	0.278996	-0.00711619	103154	1098.96	1	12	0.00463318	0.000211189	0	-6.82781e-05	-0.000136914	3.74002e-06	-4.52975	0.0177094	0.0176541	0.00139863	-5.92327	21.9563	21.8391	2.26582	0.0453383	0.00470477	0.0455817	5.9244	1.09896e+06	1.05903e+07	1.06471e+07	-84.0756	0.0000000E+000	0.0000000E+000	0.0000000E+000	84.0756	0.0000000E+000	0.0000000E+000	0.0000000E+000	-84.0756	0.0000000E+000	0.0000000E+000	0.0000000E+000	-5.9244	0.0000000E+000	0.0000000E+000	0.0000000E+000	5.9244	9.63667	84.0756	-1.55089e-05	-1.98539e-06	9.74306e-10	-1.98636e-06	0.279133	39205.8	19.2398	39225
0.464091	22.3481	2.24558	22.4607	-5.73792	27.2077	0.278993	-0.00736732	152718	1526.51	1	12	0.00463409	0.00020632	0	-8.49357e-05	3.4907e-05	2.84988e-06	-12.7632	0.0138129	0.0134716	0.00305158	-5.74223	22.4744	22.3616	2.24863	0.0442992	0.00445126	0.0445222	5.73792	1.52651e+06	1.51919e+07	1.52684e+07	-84.2621	0.0000000E+000	0.0000000E+000	0.0000000E+000	84.2621	0.0000000E+000	0.0000000E+000	0.0000000E+000	-84.2621	0.0000000E+000	0.0000000E+000	0.0000000E+000	-5.73792	0.0000000E+000	0.0000000E+000	0.0000000E+000	5.73792	9.95206	84.2621	-1.66575e-05	-2.05543e-06	-2.57171e-10	-2.05517e-06	0.278958	37869	4.73809	37864.3
0.316193	22.8572	2.30712	22.9733	-5.76371	33.8827	0.278995	-0.00750811	218171	2200.35	1	12	0.00463183	0.000201618	0	-9.57244e-05	-0.000117823	2.34504e-06	-8.63547	0.0116311	0.0114993	0.00174639	-5.76517	22.9849	22.8687	2.30887	0.0433087	0.00437143	0.0435288	5.76371	2.20035e+06	2.17993e+07	2.19101e+07	-84.2363	0.0000000E+000	0.0000000E+000	0.0000000E+000	84.2363	0.0000000E+000	0.0000000E+000	0.0000000E+000	-84.2363	0.0000000E+000	0.0000000E+000	0.0000000E+000	-5.76371	0.0000000E+000	0.0000000E+000	0.0000000E+000	5.76371	9.90722	84.2363	-1.07887e-05	-2.09473e-06	8.84626e-10	-2.09561e-06	0.279113	37159.2	15.6927	37174.9
0.215268	23.3361	2.35773	23.4549	-5.76921	43.6751	0.279	-0.00713276	313579	3168.59	1	12	0.00463558	0.000197637	0	-9.51947e-05	5.39982e-05	9.17879e-07	6.62928	0.00464426	0.0046132	-0.000536155	-5.76678	23.4595	23.3408	2.3572	0.042419	0.00428574	0.0426349	5.76921	3.16859e+06	3.13618e+07	3.15215e+07	-84.2308	0.0000000E+000	0.0000000E+000	0.0000000E+000	84.2308	0.0000000E+000	0.0000000E+000	0.0000000E+000	-84.2308	0.0000000E+000	0.0000000E+000	0.0000000E+000	-5.76921	0.0000000E+000	0.0000000E+000	0.0000000E+000	5.76921	9.89771	84.2308	5.29675e-07	-1.99004e-06	-3.85156e-10	-1.98966e-06	0.278946	39115.3	7.57045	39107.8
0.146929	23.7995	2.42539	23.9228	-5.81888	58.0134	0.279	-0.0063229	446613	4590.62	1	12	0.00463337	0.00019368	0	-8.40284e-05	3.4907e-05	1.57585e-06	2.16422	0.00813637	0.00813057	-0.000307261	-5.81618	23.9308	23.8076	2.42508	0.0415858	0.00423798	0.0418012	5.81888	4.59062e+06	4.50462e+07	4.52795e+07	-84.1811	0.0000000E+000	0.0000000E+000	0.0000000E+000	84.1811	0.0000000E+000	0.0000000E+000	0.0000000E+000	-84.1811	0.0000000E+000	0.0000000E+000	0.0000000E+000	-5.81888	0.0000000E+000	0.0000000E+000	0.0000000E+000	5.81888	9.81265	84.1811	1.11663e-05	-1.76409e-06	-2.20713e-10	-1.76387e-06	0.278965	44125.4	5.52073	44119.8
0.0999041	24.2482	2.57887	24.3849	-6.07078	79.0906	0.278997	-0.00468758	617741	6909.15	1	12	0.00463408	0.000190039	0	-7.15579e-05	3.4907e-05	1.07636e-06	-22.0784	0.00566391	0.00524857	0.00212892	-6.07445	24.3904	24.2534	2.581	0.040779	0.00433698	0.0410089	6.07078	6.90914e+06	6.49641e+07	6.53304e+07	-83.9292	0.0000000E+000	0.0000000E+000	0.0000000E+000	83.9292	0.0000000E+000	0.0000000E+000	0.0000000E+000	-83.9292	0.0000000E+000	0.0000000E+000	0.0000000E+000	-6.07078	0.0000000E+000	0.0000000E+000	0.0000000E+000	6.07078	9.40262	83.9292	1.24705e-05	-1.30782e-06	-1.63629e-10	-1.30765e-06	0.278962	59518.3	7.4467	59510.9
0.0680626	24.693	2.89619	24.8623	-6.68953	110.018	0.278992	-0.00292792	807393	10956.1	1	12	0.00463451	0.000186407	0	-7.46453e-05	0.000130363	2.19024e-06	-52.0752	0.0117497	0.00722171	0.00926842	-6.7088	24.8705	24.7002	2.90546	0.0399478	0.00468539	0.0402216	6.68953	1.09561e+07	9.34123e+07	9.40526e+07	-83.3105	0.0000000E+000	0.0000000E+000	0.0000000E+000	83.3105	0.0000000E+000	0.0000000E+000	0.0000000E+000	-83.3105	0.0000000E+000	0.0000000E+000	0.0000000E+000	-6.68953	0.0000000E+000	0.0000000E+000	0.0000000E+000	6.68953	8.52604	83.3105	-3.08738e-06	-8.16866e-07	-3.81692e-10	-8.16485e-07	0.278862	95286.9	44.5241	95242.4
0.0464052	25.1339	3.47573	25.3731	-7.87342	155.369	0.278994	-0.00121675	986749	18516.2	1	12	0.0046381	0.000182796	0	-0.000129448	0.000130363	1.62161e-06	8.78094	0.00887116	0.00876719	-0.00135425	-7.86768	25.3816	25.1427	3.47438	0.0390403	0.00539883	0.0394118	7.87342	1.85162e+07	1.33896e+08	1.3517e+08	-82.1266	0.0000000E+000	0.0000000E+000	0.0000000E+000	82.1266	0.0000000E+000	0.0000000E+000	0.0000000E+000	-82.1266	0.0000000E+000	0.0000000E+000	0.0000000E+000	-7.87342	0.0000000E+000	0.0000000E+000	0.0000000E+000	7.87342	7.23125	82.1266	-5.48023e-05	-3.39466e-07	-1.58619e-10	-3.39307e-07	0.278863	229294	107.14	229187
0.0315922	25.5675	4.30686	25.9277	-9.56176	221.975	0.278999	-0.000536233	1.16971e+06	32275.6	1	12	0.0046366	0.000178828	0	-0.00027716	0.000187637	1.40526e-06	-7.11927	0.00785817	0.00779758	0.000973904	-9.56102	25.9355	25.5752	4.30783	0.038033	0.00640669	0.0385689	9.56176	3.22756e+07	1.91602e+08	1.94302e+08	-80.4382	0.0000000E+000	0.0000000E+000	0.0000000E+000	80.4382	0.0000000E+000	0.0000000E+000	0.0000000E+000	-80.4382	0.0000000E+000	0.0000000E+000	0.0000000E+000	-9.56176	0.0000000E+000	0.0000000E+000	0.0000000E+000	9.56176	5.93645	80.4382	-0.000147712	-1.49609e-07	-1.00617e-10	-1.49508e-07	0.278812	520294	349.916	519944
0.0215268	26.2025	5.43342	26.7599	-11.715	319.714	0.278995	-0.00111942	1.36072e+06	56097.7	1	12	0.00463308	0.000173135	0	-0.000531669	7.30894e-05	3.22173e-06	-4.46609	0.0186082	0.0185517	0.001449	-11.71	26.7784	26.221	5.43487	0.0365909	0.0075876	0.0373693	11.715	5.60977e+07	2.70529e+08	2.76284e+08	-78.285	0.0000000E+000	0.0000000E+000	0.0000000E+000	78.285	0.0000000E+000	0.0000000E+000	0.0000000E+000	-78.285	0.0000000E+000	0.0000000E+000	0.0000000E+000	-11.715	0.0000000E+000	0.0000000E+000	0.0000000E+000	11.715	4.82247	78.285	-0.000254509	-3.12313e-07	-8.1818e-11	-3.12232e-07	0.278922	249231	65.2921	249166
0.0146812	27.1224	7.12754	28.0433	-14.7239	463.016	0.278997	-0.00191571	1.52097e+06	98251.8	1	12	0.00463276	0.0001652	0	-0.000827984	9.21806e-05	1.34656e-06	-45.3662	0.00815108	0.00572673	0.00580041	-14.7324	28.0503	27.1281	7.13334	0.0344882	0.0090632	0.0356591	14.7239	9.82518e+07	3.73877e+08	3.86572e+08	-75.2761	0.0000000E+000	0.0000000E+000	0.0000000E+000	75.2761	0.0000000E+000	0.0000000E+000	0.0000000E+000	-75.2761	0.0000000E+000	0.0000000E+000	0.0000000E+000	-14.7239	0.0000000E+000	0.0000000E+000	0.0000000E+000	14.7239	3.8053	75.2761	-0.000296315	-5.34476e-07	-1.76591e-10	-5.343e-07	0.278905	145636	48.1183	145588
0.0100092	28.218	9.60565	29.8081	-18.799	673.198	0.279	-0.00207493	1.65537e+06	171902	1	12	0.00463206	0.000155396	0	-0.000979221	-7.96403e-05	1.95348e-06	42.5765	0.012571	0.00925697	-0.0085052	-18.7778	29.8141	28.2272	9.59715	0.0317583	0.0108108	0.0335479	18.799	1.71902e+08	5.04986e+08	5.33443e+08	-71.201	0.0000000E+000	0.0000000E+000	0.0000000E+000	71.201	0.0000000E+000	0.0000000E+000	0.0000000E+000	-71.201	0.0000000E+000	0.0000000E+000	0.0000000E+000	-18.799	0.0000000E+000	0.0000000E+000	0.0000000E+000	18.799	2.93764	71.201	-0.000151237	-5.78904e-07	1.65248e-10	-5.79069e-07	0.279079	134463	38.3823	134501