File: txt/18216_R279_UA653_SOC00_C03.mpt
EC-Lab ASCII FILE
Nb header lines : 65

Potentio Electrochemical Impedance Spectroscopy

Run on channel : 3 (SN 65921)
User :
CE vs. WE compliance from -10 V to 10 V
Electrode connection : standard
Potential control : Ewe
Ewe ctrl range : min = -10.00 V, max = 10.00 V
Safety Limits :
	Do not start on E overload
Acquisition started on : 10/08/2025 08:30:38.433
Technique started on : 10/08/2025 08:30:40.160
Loaded Setting File :  C:\Users\Celltest\OneDrive - store-dot.com\Documents\EC-Lab\Data\@Biologic Test Protocols\anode half cell EIS SOC00.mps
Saved on :
	File : 18216_R279_UA653_SOC00_C03.mpr
	Directory : C:\Users\Celltest\OneDrive - store-dot.com\Documents\EC-Lab\Data\Charmaine\
	Host : 169.254.61.224
Device : VMP-3e (SN .003165)
Address : USB
EC-LAB for windows v11.62 (software)
Internet server v27.00 (firmware)
Command interpretor v12.03 (firmware)
Electrode material :
Initial state :
Electrolyte :
Comments :
Electrode surface area : 0.001 cm²
Characteristic mass : 0.001 g
Equivalent Weight : 0.000 g/eq.
Density : 0.000 g/cm3
Volume (V) : 0.001 cm³
Record Ece
Cycle Definition : Charge/Discharge alternance
Mode                Single sine
E (V)               0.0000
vs.                 Eoc
tE (h:m:s)          0:00:0.0000
record              0
dI                  0.000
unit dI             mA
dt (s)              0.000
fi                  100.000
unit fi             kHz
ff                  10.000
unit ff             mHz
Nd                  6
Points              per decade
spacing             Logarithmic
Va (mV)             5.0
pw                  0.10
Na                  2
corr                0
E range min (V)     -10.000
E range max (V)     10.000
I Range             Auto
Bandwidth           5
nc cycles           0
goto Ns'            0
nr cycles           0
inc. cycle          0

freq/Hz	Re(Z)/Ohm	-Im(Z)/Ohm	|Z|/Ohm	Phase(Z)/deg	time/s	<Ewe>/V	<I>/mA	Cs/µF	Cp/µF	cycle number	I Range	|Ewe|/V	|I|/A	Ns	(Q-Qo)/mA.h	<Ece>/V	|Ece|/V	Phase(Zce)/deg	|Zce|/Ohm	Re(Zce)/Ohm	-Im(Zce)/Ohm	Phase(Zwe-ce)/deg	|Zwe-ce|/Ohm	Re(Zwe-ce)/Ohm	-Im(Zwe-ce)/Ohm	Re(Y)/Ohm-1	Im(Y)/Ohm-1	|Y|/Ohm-1	Phase(Y)/deg	Re(C)/nF	Im(C)/nF	|C|/nF	Phase(C)/deg	Re(M)	Im(M)	|M|	Phase(M)/deg	Re(Permittivity)	Im(Permittivity)	|Permittivity|	Phase(Permittivity)/deg	Re(Resistivity)/Ohm.cm	Im(Resistivity)/Ohm.cm	|Resistivity|/Ohm.cm	Phase(Resistivity)/deg	Re(Conductivity)/mS/cm	Im(Conductivity)/mS/cm	|Conductivity|/mS/cm	Phase(Conductivity)/deg	Tan(Delta)	Loss Angle(Delta)/deg	dq/mA.h	Pwe/W	Pce/W	Pwe-ce/W	<Ewe-Ece>/V	Rwe/Ohm	Rce/Ohm	Rwe-ce/Ohm		Ewe-Ece/V
100004	1.37263	0.349927	1.41653	-14.3019	1.72653	0.271873	0.0181556	4.54806	0.277543	1	9	0.00461536	0.00325822	0	-1.8924e-06	-0.000214174	4.15618e-05	96.42	0.012756	-0.00142632	-0.012676	-13.8178	1.41207	1.3712	0.337251	0.684072	0.174392	0.705951	14.3019	277.543	1088.69	1123.51	-75.6981	0.0000000E+000	0.0000000E+000	0.0000000E+000	75.6981	0.0000000E+000	0.0000000E+000	0.0000000E+000	-75.6981	0.0000000E+000	0.0000000E+000	0.0000000E+000	-14.3019	0.0000000E+000	0.0000000E+000	0.0000000E+000	14.3019	3.92261	75.6981	-1.8924e-06	4.93601e-06	-3.88845e-09	4.9399e-06	0.272087	14974.6	11.7966	14986.4
68132	1.4607	0.379707	1.50925	-14.5714	2.23353	0.271883	0.0110325	6.15205	0.389399	1	9	0.00505431	0.00334889	0	-8.94607e-06	9.13315e-05	3.03495e-05	78.5172	0.00906257	0.00180412	-0.00888118	-14.2278	1.50879	1.46251	0.370826	0.641269	0.166696	0.662581	14.5714	389.399	1497.99	1547.77	-75.4286	0.0000000E+000	0.0000000E+000	0.0000000E+000	75.4286	0.0000000E+000	0.0000000E+000	0.0000000E+000	-75.4286	0.0000000E+000	0.0000000E+000	0.0000000E+000	-14.5714	0.0000000E+000	0.0000000E+000	0.0000000E+000	14.5714	3.84692	75.4286	-7.05366e-06	2.99955e-06	1.00762e-09	2.99854e-06	0.271791	24643.7	8.27839	24635.5
46420.4	1.54874	0.416548	1.60378	-15.0539	2.74053	0.271875	0.0217358	8.23089	0.555246	1	9	0.00503689	0.00314063	0	-1.05807e-05	1.49552e-05	1.62015e-05	52.7938	0.00515869	0.00311938	-0.00410871	-14.8835	1.60574	1.55186	0.412439	0.602127	0.161947	0.623526	15.0539	555.246	2064.43	2137.79	-74.9461	0.0000000E+000	0.0000000E+000	0.0000000E+000	74.9461	0.0000000E+000	0.0000000E+000	0.0000000E+000	-74.9461	0.0000000E+000	0.0000000E+000	0.0000000E+000	-15.0539	0.0000000E+000	0.0000000E+000	0.0000000E+000	15.0539	3.71805	74.9461	-1.63464e-06	5.90942e-06	3.25064e-10	5.90909e-06	0.27186	12508.2	0.688048	12507.5
31621.1	1.65018	0.468057	1.71527	-15.8355	3.24954	0.271874	0.0134939	10.7533	0.800709	1	9	0.00499632	0.00291284	0	-3.81293e-06	-8.05151e-05	1.37061e-05	31.7688	0.00470541	0.00400045	-0.00247736	-15.7196	1.71845	1.65418	0.46558	0.560872	0.159086	0.582997	15.8355	800.709	2822.97	2934.33	-74.1645	0.0000000E+000	0.0000000E+000	0.0000000E+000	74.1645	0.0000000E+000	0.0000000E+000	0.0000000E+000	-74.1645	0.0000000E+000	0.0000000E+000	0.0000000E+000	-15.8355	0.0000000E+000	0.0000000E+000	0.0000000E+000	15.8355	3.52559	74.1645	6.76778e-06	3.66864e-06	-1.08646e-09	3.66973e-06	0.271955	20148	5.96678	20153.9
21544.7	1.75649	0.520523	1.83199	-16.5068	3.63255	0.271873	0.0203932	14.1919	1.1457	1	9	0.00514511	0.00280848	0	-7.51673e-06	0.00022499	7.60169e-06	-78.9762	0.00270669	0.000517567	0.00265675	-16.5818	1.83325	1.75701	0.52318	0.523357	0.155093	0.545853	16.5068	1145.7	3866.14	4032.33	-73.4932	0.0000000E+000	0.0000000E+000	0.0000000E+000	73.4932	0.0000000E+000	0.0000000E+000	0.0000000E+000	-73.4932	0.0000000E+000	0.0000000E+000	0.0000000E+000	-16.5068	0.0000000E+000	0.0000000E+000	0.0000000E+000	16.5068	3.37447	73.4932	-3.70379e-06	5.54437e-06	4.58826e-09	5.53978e-06	0.271648	13331.6	11.0326	13320.5
14678.6	1.88642	0.582013	1.97416	-17.1465	4.01752	0.271878	0.0137549	18.6296	1.61921	1	9	0.00504524	0.00255564	0	-7.9747e-06	-9.96091e-05	9.61894e-06	-130.801	0.00376381	-0.00245938	0.00284916	-17.2466	1.97265	1.88396	0.584862	0.484031	0.149337	0.506545	17.1465	1619.21	5248.18	5492.29	-72.8535	0.0000000E+000	0.0000000E+000	0.0000000E+000	72.8535	0.0000000E+000	0.0000000E+000	0.0000000E+000	-72.8535	0.0000000E+000	0.0000000E+000	0.0000000E+000	-17.1465	0.0000000E+000	0.0000000E+000	0.0000000E+000	17.1465	3.2412	72.8535	-4.57971e-07	3.73966e-06	-1.37012e-09	3.74103e-06	0.271977	19765.8	7.2417	19773.1
10002.2	2.01655	0.660534	2.12197	-18.1366	4.27654	0.271871	0.0211763	24.0895	2.33421	1	9	0.00456732	0.0021524	0	-7.33547e-06	0.00012952	8.52456e-06	45.2026	0.0039605	0.00279057	-0.00281038	-18.0411	2.12375	2.01934	0.657724	0.447846	0.146695	0.47126	18.1366	2334.21	7126.11	7498.66	-71.8634	0.0000000E+000	0.0000000E+000	0.0000000E+000	71.8634	0.0000000E+000	0.0000000E+000	0.0000000E+000	-71.8634	0.0000000E+000	0.0000000E+000	0.0000000E+000	-18.1366	0.0000000E+000	0.0000000E+000	0.0000000E+000	18.1366	3.0529	71.8634	6.39228e-07	5.75724e-06	2.74275e-09	5.7545e-06	0.271742	12838.5	6.11624	12832.3
6810.42	2.15413	0.748712	2.28054	-19.166	4.65955	0.271884	0.0162909	31.2127	3.36424	1	9	0.0048471	0.00212542	0	-1.70011e-06	7.22374e-05	5.97418e-05	-18.5307	0.0281082	0.0266509	0.00893315	-19.1582	2.30864	2.18078	0.757646	0.414188	0.14396	0.438493	19.166	3364.24	9679.3	10247.3	-70.834	0.0000000E+000	0.0000000E+000	0.0000000E+000	70.834	0.0000000E+000	0.0000000E+000	0.0000000E+000	-70.834	0.0000000E+000	0.0000000E+000	0.0000000E+000	-19.166	0.0000000E+000	0.0000000E+000	0.0000000E+000	19.166	2.87711	70.834	5.63536e-06	4.42923e-06	1.17681e-09	4.42805e-06	0.271812	16689.3	4.43423	16684.9
4646	2.32457	0.84433	2.47316	-19.9621	4.92762	0.271844	-0.000304772	40.5722	4.72879	1	9	0.00475337	0.00192199	0	1.88919e-07	-8.05151e-05	8.3725e-06	-35.0906	0.00435617	0.00356441	0.00250424	-19.9884	2.47736	2.32813	0.846835	0.380048	0.138041	0.404342	19.9621	4728.79	13019.1	13851.3	-70.0379	0.0000000E+000	0.0000000E+000	0.0000000E+000	70.0379	0.0000000E+000	0.0000000E+000	0.0000000E+000	-70.0379	0.0000000E+000	0.0000000E+000	0.0000000E+000	-19.9621	0.0000000E+000	0.0000000E+000	0.0000000E+000	19.9621	2.75315	70.0379	1.88903e-06	-8.28505e-08	2.45388e-11	-8.2875e-08	0.271924	891957	264.181	892221
3163.08	2.53448	0.991692	2.72159	-21.3694	5.30067	0.271664	-0.0509495	50.738	6.7366	1	9	0.00468872	0.00172278	0	-5.6777e-06	0.000301366	5.21124e-06	-63.1925	0.00302489	0.00136421	0.0026998	-21.4118	2.72385	2.53585	0.994392	0.342171	0.133885	0.367432	21.3694	6736.6	17216.8	18487.9	-68.6306	0.0000000E+000	0.0000000E+000	0.0000000E+000	68.6306	0.0000000E+000	0.0000000E+000	0.0000000E+000	-68.6306	0.0000000E+000	0.0000000E+000	0.0000000E+000	-21.3694	0.0000000E+000	0.0000000E+000	0.0000000E+000	21.3694	2.55572	68.6306	-5.86662e-06	-1.38411e-05	-1.53544e-08	-1.38258e-05	0.271363	5332.03	5.915	5326.11
2155.69	2.74121	1.14062	2.96905	-22.5923	5.75182	0.27188	0.0804358	64.728	9.55304	1	9	0.00464051	0.00156297	0	4.45998e-06	-0.000118703	9.68625e-06	-38.2315	0.00619736	0.00486813	0.00383518	-22.6245	2.97501	2.74607	1.14446	0.310963	0.129392	0.336809	22.5923	9553.04	22958.4	24866.6	-67.4077	0.0000000E+000	0.0000000E+000	0.0000000E+000	67.4077	0.0000000E+000	0.0000000E+000	0.0000000E+000	-67.4077	0.0000000E+000	0.0000000E+000	0.0000000E+000	-22.5923	0.0000000E+000	0.0000000E+000	0.0000000E+000	22.5923	2.40326	67.4077	1.01377e-05	2.18689e-05	-9.54798e-09	2.18784e-05	0.271999	3380.09	1.47575	3381.56
1468.59	2.98884	1.3358	3.27376	-24.0812	6.2031	0.271868	0.075886	81.1296	13.5072	1	9	0.00461105	0.00140849	0	1.28895e-05	-0.000252362	3.75477e-06	36.8247	0.00266582	0.00213392	-0.00159781	-24.0405	3.27506	2.99097	1.3342	0.278874	0.124637	0.305459	24.0812	13507.2	30222.4	33103.4	-65.9188	0.0000000E+000	0.0000000E+000	0.0000000E+000	65.9188	0.0000000E+000	0.0000000E+000	0.0000000E+000	-65.9188	0.0000000E+000	0.0000000E+000	0.0000000E+000	-24.0812	0.0000000E+000	0.0000000E+000	0.0000000E+000	24.0812	2.23749	65.9188	8.42955e-06	2.06309e-05	-1.91507e-08	2.06501e-05	0.27212	3582.58	3.32554	3585.91
1000.32	3.25257	1.55544	3.60536	-25.5581	6.89884	0.271823	-0.0238282	102.289	19.0388	1	10	0.00470453	0.00130487	0	1.55446e-05	7.22374e-05	3.04049e-06	-13.0592	0.00233011	0.00226984	0.000526507	-25.5501	3.60763	3.25484	1.55597	0.250225	0.119662	0.277365	25.5581	19038.8	39811.7	44129.9	-64.4419	0.0000000E+000	0.0000000E+000	0.0000000E+000	64.4419	0.0000000E+000	0.0000000E+000	0.0000000E+000	-64.4419	0.0000000E+000	0.0000000E+000	0.0000000E+000	-25.5581	0.0000000E+000	0.0000000E+000	0.0000000E+000	25.5581	2.09109	64.4419	2.65505e-06	-6.47704e-06	-1.72129e-09	-6.47532e-06	0.271751	11407.6	3.0316	11404.6
681.09	3.57995	1.85638	4.03265	-27.409	7.34953	0.271828	-0.0233099	125.877	26.6749	1	10	0.00466397	0.00115655	0	1.17446e-05	0.000148614	6.62801e-06	-98.3081	0.00573083	-0.000828081	0.00567069	-27.4859	4.03452	3.57913	1.86205	0.220139	0.114153	0.247976	27.409	26674.9	51441.4	57946.3	-62.591	0.0000000E+000	0.0000000E+000	0.0000000E+000	62.591	0.0000000E+000	0.0000000E+000	0.0000000E+000	-62.591	0.0000000E+000	0.0000000E+000	0.0000000E+000	-27.409	0.0000000E+000	0.0000000E+000	0.0000000E+000	27.409	1.92846	62.591	-3.79993e-06	-6.33628e-06	-3.46416e-09	-6.33281e-06	0.271679	11661.5	6.37557	11655.1
463.961	3.97742	2.2206	4.55532	-29.1747	7.80136	0.271833	-0.0222695	154.479	36.7089	1	10	0.00463691	0.00101791	0	9.49989e-06	-0.000195079	1.0339e-05	93.0085	0.0101571	-0.000533088	-0.0101431	-29.0665	4.54992	3.97689	2.21046	0.191674	0.107012	0.219524	29.1747	36708.9	65751	75304.3	-60.8253	0.0000000E+000	0.0000000E+000	0.0000000E+000	60.8253	0.0000000E+000	0.0000000E+000	0.0000000E+000	-60.8253	0.0000000E+000	0.0000000E+000	0.0000000E+000	-29.1747	0.0000000E+000	0.0000000E+000	0.0000000E+000	29.1747	1.79115	60.8253	-2.24476e-06	-6.05358e-06	4.34432e-09	-6.05792e-06	0.272028	12206.5	8.75994	12215.3
316.316	4.46377	2.68519	5.20918	-31.0291	8.249	0.271833	-0.0231197	187.38	49.7893	1	10	0.00461799	0.000886511	0	6.05706e-06	5.31434e-05	2.12133e-05	-123.542	0.023929	-0.0132218	0.0199445	-31.2921	5.20818	4.45055	2.70513	0.164499	0.0989548	0.191969	31.0291	49789.3	82768.1	96589.5	-58.9709	0.0000000E+000	0.0000000E+000	0.0000000E+000	58.9709	0.0000000E+000	0.0000000E+000	0.0000000E+000	-58.9709	0.0000000E+000	0.0000000E+000	0.0000000E+000	-31.0291	0.0000000E+000	0.0000000E+000	0.0000000E+000	31.0291	1.66237	58.9709	-3.44282e-06	-6.2847e-06	-1.22866e-09	-6.28347e-06	0.27178	11757.7	2.29862	11755.4
215.345	5.09349	3.2098	6.0205	-32.2182	8.69855	0.271834	-0.0226312	230.255	65.4483	1	10	0.0046043	0.00076477	0	3.11189e-06	7.22374e-05	1.15132e-05	-28.6996	0.0150545	0.0132051	0.00722943	-32.2094	6.03553	5.1067	3.21703	0.140524	0.0885548	0.166099	32.2182	65448.3	103857	122759	-57.7818	0.0000000E+000	0.0000000E+000	0.0000000E+000	57.7818	0.0000000E+000	0.0000000E+000	0.0000000E+000	-57.7818	0.0000000E+000	0.0000000E+000	0.0000000E+000	-32.2182	0.0000000E+000	0.0000000E+000	0.0000000E+000	32.2182	1.58686	57.7818	-2.94517e-06	-6.15195e-06	-1.63482e-09	-6.15031e-06	0.271762	12011.5	3.19194	12008.3
146.737	5.90102	3.8575	7.04998	-33.1726	9.14455	0.271825	-0.0239102	281.173	84.1799	1	10	0.00460463	0.00065314	0	-1.01091e-08	-6.1421e-05	1.12024e-05	22.8733	0.0171516	0.0158029	-0.00666672	-33.0572	7.05958	5.91682	3.85083	0.118727	0.0776121	0.141844	33.1726	84179.9	128775	153848	-56.8274	0.0000000E+000	0.0000000E+000	0.0000000E+000	56.8274	0.0000000E+000	0.0000000E+000	0.0000000E+000	-56.8274	0.0000000E+000	0.0000000E+000	0.0000000E+000	-33.1726	0.0000000E+000	0.0000000E+000	0.0000000E+000	33.1726	1.52975	56.8273	-3.122e-06	-6.4994e-06	1.46859e-09	-6.50087e-06	0.271886	11368.6	2.56882	11371.1
100.032	6.96668	4.55255	8.32228	-33.1636	9.59578	0.271829	-0.0231048	349.483	104.581	1	10	0.00459716	0.000552391	0	-2.41541e-06	-0.000175985	8.22966e-06	50.9077	0.0148983	0.00939441	-0.011563	-33.0616	8.32383	6.97608	4.54099	0.100587	0.065731	0.120159	33.1636	104581	160038	191178	-56.8364	0.0000000E+000	0.0000000E+000	0.0000000E+000	56.8364	0.0000000E+000	0.0000000E+000	0.0000000E+000	-56.8364	0.0000000E+000	0.0000000E+000	0.0000000E+000	-33.1636	0.0000000E+000	0.0000000E+000	0.0000000E+000	33.1636	1.53028	56.8364	-2.4053e-06	-6.28054e-06	4.06611e-09	-6.28461e-06	0.272005	11765	7.61684	11772.6
68.104	8.36617	5.17163	9.83558	-31.7227	10.0584	0.271836	-0.0200919	451.877	124.933	1	10	0.00460262	0.000467957	0	-4.74228e-06	-0.000195079	4.33626e-05	-91.4051	0.0926637	-0.00227223	0.0926358	-32.1865	9.88267	8.3639	5.26427	0.0864823	0.0534599	0.101672	31.7227	124933	202104	237601	-58.2773	0.0000000E+000	0.0000000E+000	0.0000000E+000	58.2773	0.0000000E+000	0.0000000E+000	0.0000000E+000	-58.2773	0.0000000E+000	0.0000000E+000	0.0000000E+000	-31.7227	0.0000000E+000	0.0000000E+000	0.0000000E+000	31.7227	1.6177	58.2773	-2.32688e-06	-5.46168e-06	3.91951e-09	-5.4656e-06	0.272031	13529.6	9.70938	13539.3
46.4415	10.0408	5.51847	11.4573	-28.7935	10.4947	0.271825	-0.0249394	621.005	144.067	1	10	0.00458694	0.00040035	0	-7.55253e-06	-4.13882e-06	1.54021e-05	44.195	0.0384715	0.027583	-0.0268185	-28.6097	11.4686	10.0683	5.49165	0.0764892	0.042039	0.0872804	28.7935	144067	262128	299110	-61.2065	0.0000000E+000	0.0000000E+000	0.0000000E+000	61.2065	0.0000000E+000	0.0000000E+000	0.0000000E+000	-61.2065	0.0000000E+000	0.0000000E+000	0.0000000E+000	-28.7935	0.0000000E+000	0.0000000E+000	0.0000000E+000	28.7935	1.81948	61.2065	-2.81024e-06	-6.77916e-06	1.0322e-10	-6.77926e-06	0.271829	10899.4	0.165955	10899.6
31.6296	11.8951	5.51354	13.1108	-24.8684	10.9246	0.27182	-0.0278032	912.634	161.399	1	10	0.00459998	0.000350855	0	-1.13551e-05	5.31434e-05	6.5573e-06	128.709	0.0186895	-0.0116879	-0.0145839	-24.832	13.094	11.8834	5.49895	0.0692008	0.0320755	0.0762732	24.8684	161399	348208	383795	-65.1316	0.0000000E+000	0.0000000E+000	0.0000000E+000	65.1316	0.0000000E+000	0.0000000E+000	0.0000000E+000	-65.1316	0.0000000E+000	0.0000000E+000	0.0000000E+000	-24.8684	0.0000000E+000	0.0000000E+000	0.0000000E+000	24.8684	2.15743	65.1316	-3.80255e-06	-7.55747e-06	-1.47756e-09	-7.556e-06	0.271767	9776.59	1.91141	9774.68
21.5517	13.5538	5.06794	14.4703	-20.5015	11.3454	0.271818	-0.0298914	1457.16	178.738	1	10	0.00458598	0.000316924	0	-1.47084e-05	-2.32329e-05	6.07167e-06	110.218	0.0191581	-0.0066208	-0.0179777	-20.4439	14.4578	13.5471	5.04996	0.0647302	0.0242035	0.0691072	20.5015	178738	478019	510342	-69.4985	0.0000000E+000	0.0000000E+000	0.0000000E+000	69.4985	0.0000000E+000	0.0000000E+000	0.0000000E+000	-69.4985	0.0000000E+000	0.0000000E+000	0.0000000E+000	-20.5015	0.0000000E+000	0.0000000E+000	0.0000000E+000	20.5015	2.67441	69.4985	-3.3533e-06	-8.125e-06	6.94462e-10	-8.12569e-06	0.271841	9093.52	0.777244	9094.29
14.6852	14.9611	4.34243	15.5785	-16.1853	12.0552	0.271865	-0.014051	2495.79	193.92	1	11	0.00459249	0.000294796	0	-1.56331e-05	-0.000175985	7.3897e-06	-98.2164	0.0250672	-0.0035824	0.0248099	-16.2766	15.582	14.9575	4.36724	0.0616467	0.0178929	0.0641909	16.1853	193920	668116	695689	-73.8147	0.0000000E+000	0.0000000E+000	0.0000000E+000	73.8147	0.0000000E+000	0.0000000E+000	0.0000000E+000	-73.8147	0.0000000E+000	0.0000000E+000	0.0000000E+000	-16.1853	0.0000000E+000	0.0000000E+000	0.0000000E+000	16.1853	3.44532	73.8147	-9.24746e-07	-3.81997e-06	2.47277e-09	-3.82244e-06	0.272041	19348.4	12.5248	19360.9
10.0032	15.948	3.53986	16.3362	-12.5146	12.5058	0.271867	-0.0137963	4494.65	211.041	1	11	0.00458872	0.000280893	0	-1.93984e-05	0.000186802	5.30776e-06	-63.7839	0.018896	0.00834747	0.0169522	-12.5663	16.348	15.9564	3.55681	0.0597595	0.0132643	0.0612139	12.5146	211041	950797	973937	-77.4854	0.0000000E+000	0.0000000E+000	0.0000000E+000	77.4854	0.0000000E+000	0.0000000E+000	0.0000000E+000	-77.4854	0.0000000E+000	0.0000000E+000	0.0000000E+000	-12.5146	0.0000000E+000	0.0000000E+000	0.0000000E+000	12.5146	4.50528	77.4854	-3.76528e-06	-3.75076e-06	-2.57718e-09	-3.74819e-06	0.27168	19705.8	13.54	19692.2
6.81719	16.6336	2.87471	16.8802	-9.80532	12.8455	0.271863	-0.0141901	8121.21	235.535	1	11	0.00459087	0.000271968	0	-1.81595e-05	-2.32329e-05	8.12647e-06	-87.5584	0.0298803	0.00127291	0.0298531	-9.9044	16.8865	16.6349	2.90456	0.0583757	0.0100888	0.0592411	9.80532	235535	1.36285e+06	1.38305e+06	-80.1947	0.0000000E+000	0.0000000E+000	0.0000000E+000	80.1947	0.0000000E+000	0.0000000E+000	0.0000000E+000	-80.1947	0.0000000E+000	0.0000000E+000	0.0000000E+000	-9.80532	0.0000000E+000	0.0000000E+000	0.0000000E+000	9.80532	5.78618	80.1947	1.2389e-06	-3.85776e-06	3.29677e-10	-3.85809e-06	0.271886	19158.6	1.63726	19160.3
4.63925	17.0881	2.3236	17.2454	-7.74345	13.3294	0.271866	-0.0130513	14764.2	268.033	1	11	0.00458291	0.000265747	0	-2.07061e-05	1.49552e-05	8.88061e-06	-16.2392	0.0334175	0.0320842	0.00934514	-7.75982	17.2784	17.1202	2.33294	0.0574579	0.00781298	0.0579866	7.74345	268033	1.97116e+06	1.9893e+06	-82.2566	0.0000000E+000	0.0000000E+000	0.0000000E+000	82.2566	0.0000000E+000	0.0000000E+000	0.0000000E+000	-82.2566	0.0000000E+000	0.0000000E+000	0.0000000E+000	-7.74345	0.0000000E+000	0.0000000E+000	0.0000000E+000	7.74345	7.35416	82.2566	-2.54663e-06	-3.54819e-06	-1.95185e-10	-3.54799e-06	0.271851	20830.6	1.14589	20829.5
3.1604	17.466	1.91458	17.5706	-6.25564	14.0225	0.271863	-0.0129599	26303	312.304	1	11	0.004591	0.000261288	0	-2.67944e-05	-0.000137797	5.9463e-06	-4.89383	0.0227576	0.0226746	0.00194144	-6.25388	17.5934	17.4887	1.91652	0.0565743	0.00620153	0.0569131	6.25564	312304	2.84903e+06	2.8661e+06	-83.7444	0.0000000E+000	0.0000000E+000	0.0000000E+000	83.7444	0.0000000E+000	0.0000000E+000	0.0000000E+000	-83.7444	0.0000000E+000	0.0000000E+000	0.0000000E+000	-6.25564	0.0000000E+000	0.0000000E+000	0.0000000E+000	6.25564	9.12263	83.7444	-6.08827e-06	-3.52332e-06	1.78584e-09	-3.52511e-06	0.272001	20977.3	10.6326	20987.9
2.15577	17.7763	1.64042	17.8519	-5.2724	15.0261	0.271865	-0.0123935	45005.1	380.021	1	11	0.00459281	0.000257274	0	-3.15797e-05	-2.32329e-05	5.44155e-06	111.878	0.0211508	-0.00788131	-0.0196276	-5.21196	17.8422	17.7684	1.6208	0.0557796	0.00514742	0.0560166	5.2724	380021	4.11807e+06	4.13556e+06	-84.7276	0.0000000E+000	0.0000000E+000	0.0000000E+000	84.7276	0.0000000E+000	0.0000000E+000	0.0000000E+000	-84.7276	0.0000000E+000	0.0000000E+000	0.0000000E+000	-5.2724	0.0000000E+000	0.0000000E+000	0.0000000E+000	5.2724	10.8364	84.7276	-4.7853e-06	-3.36935e-06	2.87936e-10	-3.36964e-06	0.271889	21936.2	1.87461	21938.1
1.46631	18.0162	1.49959	18.0785	-4.75809	16.4876	0.271852	-0.0124941	72380.4	498.015	1	11	0.0045898	0.000253881	0	-3.26974e-05	-0.000118703	4.81914e-06	-27.5442	0.0189818	0.0168303	0.00877782	-4.78137	18.096	18.033	1.50837	0.0551237	0.00458826	0.0553143	4.75809	498016	5.98319e+06	6.00388e+06	-85.2419	0.0000000E+000	0.0000000E+000	0.0000000E+000	85.2419	0.0000000E+000	0.0000000E+000	0.0000000E+000	-85.2419	0.0000000E+000	0.0000000E+000	0.0000000E+000	-4.75809	0.0000000E+000	0.0000000E+000	0.0000000E+000	4.75809	12.0141	85.2419	-1.11767e-06	-3.39656e-06	1.48309e-09	-3.39804e-06	0.271971	21758.4	9.50072	21767.9
1.00006	18.2724	1.38069	18.3245	-4.32115	19.663	0.271865	-0.0115869	115265	654.373	1	12	0.00459029	0.000250501	0	-3.41433e-05	7.22374e-05	2.34096e-06	-127.871	0.00934514	-0.0057368	0.00737705	-4.34551	18.3193	18.2667	1.38807	0.0544167	0.00411181	0.0545718	4.32115	654374	8.66013e+06	8.68482e+06	-85.6788	0.0000000E+000	0.0000000E+000	0.0000000E+000	85.6788	0.0000000E+000	0.0000000E+000	0.0000000E+000	-85.6788	0.0000000E+000	0.0000000E+000	0.0000000E+000	-4.32115	0.0000000E+000	0.0000000E+000	0.0000000E+000	4.32115	13.2342	85.6788	-1.44592e-06	-3.15006e-06	-8.37006e-10	-3.14922e-06	0.271792	23463.1	6.23442	23456.9
0.681362	18.5498	1.32076	18.5968	-4.07264	22.7751	0.27187	-0.0105819	176855	892.056	1	12	0.00459232	0.000246942	0	-3.75147e-05	-2.32329e-05	1.28243e-05	40.851	0.0519325	0.0392824	-0.0339687	-3.95988	18.6336	18.5891	1.2868	0.053637	0.003819	0.0537728	4.07264	892056	1.25287e+07	1.25604e+07	-85.9274	0.0000000E+000	0.0000000E+000	0.0000000E+000	85.9274	0.0000000E+000	0.0000000E+000	0.0000000E+000	-85.9274	0.0000000E+000	0.0000000E+000	0.0000000E+000	-4.07264	0.0000000E+000	0.0000000E+000	0.0000000E+000	4.07264	14.0448	85.9274	-3.3714e-06	-2.8769e-06	2.45848e-10	-2.87715e-06	0.271894	25692.1	2.19553	25694.3
0.464091	18.8212	1.33974	18.8688	-4.0716	27.3317	0.271867	-0.00880338	255974	1290.48	1	12	0.00459321	0.000243429	0	-5.23616e-05	-0.000137797	2.71635e-06	-6.05951	0.0111587	0.0110963	0.00117793	-4.07277	18.8799	18.8323	1.34092	0.0528638	0.00376299	0.0529976	4.0716	1.29048e+06	1.81291e+07	1.8175e+07	-85.9284	0.0000000E+000	0.0000000E+000	0.0000000E+000	85.9284	0.0000000E+000	0.0000000E+000	0.0000000E+000	-85.9284	0.0000000E+000	0.0000000E+000	0.0000000E+000	-4.0716	0.0000000E+000	0.0000000E+000	0.0000000E+000	4.0716	14.0484	85.9284	-1.48469e-05	-2.39335e-06	1.21308e-09	-2.39457e-06	0.272005	30882.2	15.6528	30897.8
0.316193	19.0879	1.38846	19.1383	-4.16037	34.0052	0.271872	-0.00729814	362523	1908.06	1	12	0.0045944	0.000240063	0	-8.43477e-05	1.49552e-05	2.39473e-06	-5.91152	0.00997542	0.00992238	0.00102739	-4.16128	19.1483	19.0978	1.38948	0.0521135	0.00379074	0.0522512	4.16037	1.90806e+06	2.62312e+07	2.63005e+07	-85.8396	0.0000000E+000	0.0000000E+000	0.0000000E+000	85.8396	0.0000000E+000	0.0000000E+000	0.0000000E+000	-85.8396	0.0000000E+000	0.0000000E+000	0.0000000E+000	-4.16037	0.0000000E+000	0.0000000E+000	0.0000000E+000	4.16037	13.7476	85.8396	-3.19862e-05	-1.98416e-06	-1.09146e-10	-1.98405e-06	0.271857	37252.3	2.04919	37250.2
0.215268	19.3617	1.47962	19.4182	-4.37003	43.7987	0.271867	-0.00662362	499680	2901.17	1	12	0.00459177	0.000236468	0	-0.000134057	-0.000137797	3.70356e-06	23.5743	0.015662	0.0143549	-0.00626383	-4.34839	19.432	19.3761	1.47335	0.0513484	0.00392403	0.0514982	4.37003	2.90117e+06	3.79637e+07	3.80744e+07	-85.63	0.0000000E+000	0.0000000E+000	0.0000000E+000	85.63	0.0000000E+000	0.0000000E+000	0.0000000E+000	-85.63	0.0000000E+000	0.0000000E+000	0.0000000E+000	-4.37003	0.0000000E+000	0.0000000E+000	0.0000000E+000	4.37003	13.0856	85.63	-4.97091e-05	-1.80075e-06	9.12717e-10	-1.80166e-06	0.272005	41045.1	20.8039	41065.9
0.146929	19.6679	1.69065	19.7405	-4.91304	58.1359	0.271864	-0.00654855	640708	4699.49	1	12	0.00459024	0.000232529	0	-0.000192803	-0.000195079	2.71327e-06	-33.8291	0.0116685	0.00969304	0.00649606	-4.92941	19.7507	19.6776	1.69714	0.0504712	0.00433848	0.0506574	4.91304	4.69949e+06	5.4671e+07	5.48726e+07	-85.087	0.0000000E+000	0.0000000E+000	0.0000000E+000	85.087	0.0000000E+000	0.0000000E+000	0.0000000E+000	-85.087	0.0000000E+000	0.0000000E+000	0.0000000E+000	-4.91304	0.0000000E+000	0.0000000E+000	0.0000000E+000	4.91304	11.6334	85.087	-5.87464e-05	-1.78031e-06	1.27749e-09	-1.78159e-06	0.272059	41515.1	29.7897	41544.9
0.0999041	20.0121	2.05228	20.1171	-5.85533	79.213	0.271868	-0.00649025	776247	8078.75	1	12	0.00459113	0.000228221	0	-0.000240553	0.000148614	3.25598e-06	-3.62282	0.0142668	0.0142383	0.000901493	-5.85374	20.1313	20.0264	2.05318	0.0494497	0.00507116	0.049709	5.85533	8.07875e+06	7.87772e+07	7.91903e+07	-84.1447	0.0000000E+000	0.0000000E+000	0.0000000E+000	84.1447	0.0000000E+000	0.0000000E+000	0.0000000E+000	-84.1447	0.0000000E+000	0.0000000E+000	0.0000000E+000	-5.85533	0.0000000E+000	0.0000000E+000	0.0000000E+000	5.85533	9.75115	84.1447	-4.775e-05	-1.76449e-06	-9.6454e-10	-1.76353e-06	0.271719	41888.7	22.898	41865.8
0.0680626	20.373	2.58991	20.5369	-7.24486	110.14	0.27187	-0.00609334	902873	14359	1	12	0.00459544	0.000223765	0	-0.000257327	0.000263178	2.35886e-06	9.85786	0.0105417	0.010386	-0.00180478	-7.23621	20.547	20.3834	2.58811	0.048304	0.00614064	0.0486928	7.24486	1.4359e+07	1.12952e+08	1.13861e+08	-82.7551	0.0000000E+000	0.0000000E+000	0.0000000E+000	82.7551	0.0000000E+000	0.0000000E+000	0.0000000E+000	-82.7551	0.0000000E+000	0.0000000E+000	0.0000000E+000	-7.24486	0.0000000E+000	0.0000000E+000	0.0000000E+000	7.24486	7.86628	82.7551	-1.6774e-05	-1.65659e-06	-1.60363e-09	-1.65499e-06	0.271606	44617.5	43.1911	44574.3
0.0464052	20.7344	3.30231	20.9957	-9.04935	155.491	0.271867	-0.00440705	1.03857e+06	25692.8	1	12	0.00459242	0.000218732	0	-0.000198805	0.000205896	2.36592e-06	-26.5662	0.0108165	0.00967451	0.0048375	-9.05823	21.006	20.744	3.30715	0.047036	0.0074913	0.0476288	9.04935	2.56928e+07	1.61318e+08	1.63352e+08	-80.9507	0.0000000E+000	0.0000000E+000	0.0000000E+000	80.9507	0.0000000E+000	0.0000000E+000	0.0000000E+000	-80.9507	0.0000000E+000	0.0000000E+000	0.0000000E+000	-9.04935	0.0000000E+000	0.0000000E+000	0.0000000E+000	9.04935	6.27875	80.9507	5.85224e-05	-1.19813e-06	-9.07394e-10	-1.19722e-06	0.271661	61689.1	46.7196	61642.3
0.0315922	21.2924	4.23862	21.7102	-11.2586	222.097	0.27187	-0.00217114	1.18854e+06	45304.2	1	12	0.00459421	0.000211616	0	-6.28299e-05	-8.05151e-05	2.08572e-06	24.1694	0.00985616	0.00899215	-0.00403547	-11.2435	21.7182	21.3014	4.23459	0.045175	0.00899288	0.0460614	11.2586	4.53043e+07	2.27582e+08	2.32048e+08	-78.7414	0.0000000E+000	0.0000000E+000	0.0000000E+000	78.7414	0.0000000E+000	0.0000000E+000	0.0000000E+000	-78.7414	0.0000000E+000	0.0000000E+000	0.0000000E+000	-11.2586	0.0000000E+000	0.0000000E+000	0.0000000E+000	11.2586	5.02342	78.7414	0.000135975	-5.90266e-07	1.74809e-10	-5.90441e-07	0.27195	125220	37.0843	125257
0.0215268	22.0738	5.64036	22.783	-14.3337	319.835	0.271872	-0.000545524	1.31079e+06	80339	1	12	0.00459118	0.000201518	0	7.48969e-05	0.000148614	2.48627e-06	3.75164	0.0123377	0.0123112	-0.000807276	-14.3241	22.7947	22.0861	5.63955	0.042526	0.0108664	0.0438924	14.3337	8.0339e+07	3.1441e+08	3.24512e+08	-75.6663	0.0000000E+000	0.0000000E+000	0.0000000E+000	75.6663	0.0000000E+000	0.0000000E+000	0.0000000E+000	-75.6663	0.0000000E+000	0.0000000E+000	0.0000000E+000	-14.3337	0.0000000E+000	0.0000000E+000	0.0000000E+000	14.3337	3.91354	75.6663	0.000137727	-1.48313e-07	-8.10724e-11	-1.48232e-07	0.271723	498368	272.424	498096
0.0146812	23.0008	7.64428	24.2379	-18.3841	463.136	0.271864	7.18842e-05	1.41815e+06	141061	1	12	0.00459426	0.000189549	0	4.5945e-05	5.31434e-05	2.07833e-06	-3.88946	0.0109646	0.0109394	0.000743751	-18.3776	24.2485	23.0118	7.64503	0.0391521	0.0130121	0.0412578	18.3841	1.41061e+08	4.24438e+08	4.47265e+08	-71.6159	0.0000000E+000	0.0000000E+000	0.0000000E+000	71.6159	0.0000000E+000	0.0000000E+000	0.0000000E+000	-71.6159	0.0000000E+000	0.0000000E+000	0.0000000E+000	-18.3841	0.0000000E+000	0.0000000E+000	0.0000000E+000	18.3841	3.00889	71.6159	-2.89519e-05	1.95427e-08	3.82017e-12	1.95389e-08	0.271811	3.78197e+06	739.291	3.78123e+06
0.0100092	24.0215	10.1012	26.0589	-22.807	673.316	0.271867	-0.000193189	1.57417e+06	236528	1	12	0.00459196	0.000176215	0	-0.000331362	0.000167708	3.54584e-06	1.3774	0.0201223	0.0201164	-0.000483697	-22.7889	26.0772	24.0416	10.1007	0.0353744	0.0148751	0.0383747	22.807	2.36528e+08	5.62485e+08	6.10192e+08	-67.193	0.0000000E+000	0.0000000E+000	0.0000000E+000	67.193	0.0000000E+000	0.0000000E+000	0.0000000E+000	-67.193	0.0000000E+000	0.0000000E+000	0.0000000E+000	-22.807	0.0000000E+000	0.0000000E+000	0.0000000E+000	22.807	2.37809	67.193	-0.000377307	-5.25217e-08	-3.23993e-11	-5.24893e-08	0.271699	1.40726e+06	868.102	1.40639e+06