File: txt/18219_R279_UA654_SOC00_C05_C06.mpt
EC-Lab ASCII FILE
Nb header lines : 65

Potentio Electrochemical Impedance Spectroscopy

Run on channel : 6 (SN 65795)
User :
CE vs. WE compliance from -10 V to 10 V
Electrode connection : standard
Potential control : Ewe
Ewe ctrl range : min = -10.00 V, max = 10.00 V
Safety Limits :
	Do not start on E overload
Acquisition started on : 10/08/2025 08:31:30.007
Technique started on : 10/08/2025 08:31:31.733
Loaded Setting File :  C:\Users\Celltest\OneDrive - store-dot.com\Documents\EC-Lab\Data\@Biologic Test Protocols\anode half cell EIS SOC00.mps
Saved on :
	File : 18219_R279_UA654_SOC00_C05_C06.mpr
	Directory : C:\Users\Celltest\OneDrive - store-dot.com\Documents\EC-Lab\Data\Charmaine\
	Host : 169.254.61.224
Device : VMP-3e (SN .003165)
Address : USB
EC-LAB for windows v11.62 (software)
Internet server v27.00 (firmware)
Command interpretor v12.03 (firmware)
Electrode material :
Initial state :
Electrolyte :
Comments :
Electrode surface area : 0.001 cm²
Characteristic mass : 0.001 g
Equivalent Weight : 0.000 g/eq.
Density : 0.000 g/cm3
Volume (V) : 0.001 cm³
Record Ece
Cycle Definition : Charge/Discharge alternance
Mode                Single sine
E (V)               0.0000
vs.                 Eoc
tE (h:m:s)          0:00:0.0000
record              0
dI                  0.000
unit dI             mA
dt (s)              0.000
fi                  100.000
unit fi             kHz
ff                  10.000
unit ff             mHz
Nd                  6
Points              per decade
spacing             Logarithmic
Va (mV)             5.0
pw                  0.10
Na                  2
corr                0
E range min (V)     -10.000
E range max (V)     10.000
I Range             Auto
Bandwidth           5
nc cycles           0
goto Ns'            0
nr cycles           0
inc. cycle          0

freq/Hz	Re(Z)/Ohm	-Im(Z)/Ohm	|Z|/Ohm	Phase(Z)/deg	time/s	<Ewe>/V	<I>/mA	Cs/µF	Cp/µF	cycle number	I Range	|Ewe|/V	|I|/A	Ns	(Q-Qo)/mA.h	<Ece>/V	|Ece|/V	Phase(Zce)/deg	|Zce|/Ohm	Re(Zce)/Ohm	-Im(Zce)/Ohm	Phase(Zwe-ce)/deg	|Zwe-ce|/Ohm	Re(Zwe-ce)/Ohm	-Im(Zwe-ce)/Ohm	Re(Y)/Ohm-1	Im(Y)/Ohm-1	|Y|/Ohm-1	Phase(Y)/deg	Re(C)/nF	Im(C)/nF	|C|/nF	Phase(C)/deg	Re(M)	Im(M)	|M|	Phase(M)/deg	Re(Permittivity)	Im(Permittivity)	|Permittivity|	Phase(Permittivity)/deg	Re(Resistivity)/Ohm.cm	Im(Resistivity)/Ohm.cm	|Resistivity|/Ohm.cm	Phase(Resistivity)/deg	Re(Conductivity)/mS/cm	Im(Conductivity)/mS/cm	|Conductivity|/mS/cm	Phase(Conductivity)/deg	Tan(Delta)	Loss Angle(Delta)/deg	dq/mA.h	Pwe/W	Pce/W	Pwe-ce/W	<Ewe-Ece>/V	Rwe/Ohm	Rce/Ohm	Rwe-ce/Ohm		Ewe-Ece/V
100004	1.0046	0.212526	1.02684	-11.9449	1.72554	0.290325	0.0326242	7.48846	0.320783	1	9	0.00469491	0.0045722	0	5.61104e-06	0.000249062	5.26626e-05	83.7928	0.011518	0.00124537	-0.0114505	-11.3047	1.02575	1.00585	0.201075	0.952776	0.201561	0.973863	11.9449	320.783	1516.33	1549.89	-78.0551	0.0000000E+000	0.0000000E+000	0.0000000E+000	78.0551	0.0000000E+000	0.0000000E+000	0.0000000E+000	-78.0551	0.0000000E+000	0.0000000E+000	0.0000000E+000	-11.9449	0.0000000E+000	0.0000000E+000	0.0000000E+000	11.9449	4.72698	78.0551	5.61104e-06	9.47164e-06	8.12544e-09	9.46352e-06	0.290076	8899.07	7.63425	8891.44
68132	1.05455	0.242805	1.08215	-12.966	2.10852	0.290319	0.0428307	9.6208	0.484345	1	9	0.00544487	0.00503155	0	-1.4019e-05	0.000344552	2.90106e-05	100.462	0.00576573	-0.00104698	-0.00566988	-12.6853	1.07987	1.05351	0.237135	0.900529	0.207341	0.92409	12.966	484.345	2103.62	2158.65	-77.034	0.0000000E+000	0.0000000E+000	0.0000000E+000	77.034	0.0000000E+000	0.0000000E+000	0.0000000E+000	-77.034	0.0000000E+000	0.0000000E+000	0.0000000E+000	-12.966	0.0000000E+000	0.0000000E+000	0.0000000E+000	12.966	4.34322	77.034	-1.96301e-05	1.24346e-05	1.47574e-08	1.24198e-05	0.289975	6778.3	8.04451	6770.25
46420.4	1.11082	0.270357	1.14325	-13.679	2.61553	0.290316	0.0321772	12.6816	0.7092	1	9	0.00505299	0.00441986	0	1.60955e-05	0.00045914	2.31808e-05	71.9498	0.0052447	0.00162508	-0.00498659	-13.417	1.14366	1.11245	0.265371	0.849891	0.206851	0.874701	13.679	709.2	2913.9	2998.96	-76.321	0.0000000E+000	0.0000000E+000	0.0000000E+000	76.321	0.0000000E+000	0.0000000E+000	0.0000000E+000	-76.321	0.0000000E+000	0.0000000E+000	0.0000000E+000	-13.679	0.0000000E+000	0.0000000E+000	0.0000000E+000	13.679	4.10872	76.321	3.01145e-05	9.34158e-06	1.47739e-08	9.3268e-06	0.289857	9022.42	14.2691	9008.15
31621.1	1.17224	0.3169	1.21432	-15.1276	3.12252	0.290301	0.0417877	15.8825	1.08168	1	9	0.00502685	0.00413965	0	2.37317e-05	0.000115375	9.40265e-06	27.1132	0.00227136	0.00202176	-0.00103517	-15.0557	1.216	1.17426	0.315865	0.79497	0.214911	0.823507	15.1276	1081.68	4001.23	4144.86	-74.8724	0.0000000E+000	0.0000000E+000	0.0000000E+000	74.8724	0.0000000E+000	0.0000000E+000	0.0000000E+000	-74.8724	0.0000000E+000	0.0000000E+000	0.0000000E+000	-15.1276	0.0000000E+000	0.0000000E+000	0.0000000E+000	15.1276	3.69908	74.8724	7.63624e-06	1.2131e-05	4.82127e-09	1.21262e-05	0.290186	6947.05	2.76099	6944.29
21544.7	1.24901	0.360545	1.3	-16.1016	3.50555	0.290299	0.0332202	20.489	1.57598	1	9	0.00547115	0.00420856	0	3.08435e-05	-0.000209291	1.07224e-05	14.7784	0.00254775	0.00246347	-0.000649883	-16.0441	1.30219	1.25147	0.359896	0.739052	0.213339	0.769228	16.1016	1575.98	5459.53	5682.44	-73.8984	0.0000000E+000	0.0000000E+000	0.0000000E+000	73.8984	0.0000000E+000	0.0000000E+000	0.0000000E+000	-73.8984	0.0000000E+000	0.0000000E+000	0.0000000E+000	-16.1016	0.0000000E+000	0.0000000E+000	0.0000000E+000	16.1016	3.46421	73.8984	7.11178e-06	9.6438e-06	-6.9527e-09	9.65075e-06	0.290508	8738.63	6.30012	8744.93
14678.6	1.33296	0.412115	1.39522	-17.1801	3.76655	0.290289	0.0310969	26.3098	2.29546	1	9	0.00516247	0.00370012	0	3.20976e-05	-3.74089e-05	1.11054e-05	-55.7976	0.00300137	0.00168712	0.0024823	-17.2569	1.39756	1.33465	0.414597	0.684754	0.211707	0.716734	17.1801	2295.46	7424.55	7771.3	-72.8199	0.0000000E+000	0.0000000E+000	0.0000000E+000	72.8199	0.0000000E+000	0.0000000E+000	0.0000000E+000	-72.8199	0.0000000E+000	0.0000000E+000	0.0000000E+000	-17.1801	0.0000000E+000	0.0000000E+000	0.0000000E+000	17.1801	3.23445	72.8199	1.25403e-06	9.02708e-06	-1.1633e-09	9.02824e-06	0.290326	9334.97	1.20298	9336.17
10002.2	1.42183	0.475295	1.49917	-18.4839	4.02557	0.290289	0.0325869	33.478	3.36499	1	9	0.00457614	0.00305244	0	3.3511e-05	0.000229964	4.70546e-06	-57.2956	0.00154154	0.0008329	0.00129716	-18.5208	1.50037	1.42267	0.476592	0.632624	0.211476	0.667035	18.4839	3364.99	10066.3	10613.8	-71.5161	0.0000000E+000	0.0000000E+000	0.0000000E+000	71.5161	0.0000000E+000	0.0000000E+000	0.0000000E+000	-71.5161	0.0000000E+000	0.0000000E+000	0.0000000E+000	-18.4839	0.0000000E+000	0.0000000E+000	0.0000000E+000	18.4839	2.99148	71.5161	1.41347e-06	9.45962e-06	7.4938e-09	9.45213e-06	0.290059	8908.15	7.05693	8901.1
6810.42	1.53716	0.515551	1.62132	-18.541	4.40852	0.2903	0.0347474	45.3288	4.58335	1	9	0.00508371	0.00313554	0	3.47404e-05	-1.83109e-05	0.000123369	-107.186	0.0393452	-0.0116258	0.0375884	-19.93	1.62272	1.52554	0.553139	0.58477	0.196127	0.616783	18.541	4583.35	13665.7	14413.8	-71.459	0.0000000E+000	0.0000000E+000	0.0000000E+000	71.459	0.0000000E+000	0.0000000E+000	0.0000000E+000	-71.459	0.0000000E+000	0.0000000E+000	0.0000000E+000	-18.541	0.0000000E+000	0.0000000E+000	0.0000000E+000	18.541	2.98159	71.459	1.22937e-06	1.00872e-05	-6.36255e-10	1.00878e-05	0.290318	8354.58	0.526971	8355.1
4646	1.64613	0.630259	1.76266	-20.9505	4.67364	0.290271	0.00293592	54.3528	6.949	1	9	0.00490986	0.00278548	0	3.55826e-05	0.000306356	5.79898e-06	-40.4657	0.00208186	0.00158387	0.00135111	-20.9731	1.76462	1.64771	0.63161	0.529818	0.202853	0.567324	20.9505	6949	18149.6	19434.4	-69.0495	0.0000000E+000	0.0000000E+000	0.0000000E+000	69.0495	0.0000000E+000	0.0000000E+000	0.0000000E+000	-69.0495	0.0000000E+000	0.0000000E+000	0.0000000E+000	-20.9505	0.0000000E+000	0.0000000E+000	0.0000000E+000	20.9505	2.61183	69.0495	8.42176e-07	8.52215e-07	8.99438e-10	8.51316e-07	0.289965	98868.8	104.347	98764.5
3163.08	1.78547	0.740094	1.93278	-22.5145	5.04664	0.290031	-0.129376	67.9866	9.96856	1	9	0.00483667	0.00250244	0	2.11385e-05	-0.000132899	6.46295e-06	28.6214	0.00258266	0.00226707	-0.00123715	-22.4549	1.9344	1.78773	0.738857	0.477956	0.198117	0.51739	22.5145	9968.57	24049	26033.2	-67.4855	0.0000000E+000	0.0000000E+000	0.0000000E+000	67.4855	0.0000000E+000	0.0000000E+000	0.0000000E+000	-67.4855	0.0000000E+000	0.0000000E+000	0.0000000E+000	-22.5145	0.0000000E+000	0.0000000E+000	0.0000000E+000	22.5145	2.41249	67.4855	-1.44441e-05	-3.7523e-05	1.71939e-08	-3.75402e-05	0.290163	2241.77	1.02723	2242.79
2155.69	1.92502	0.876488	2.11517	-24.4804	5.49785	0.290182	0.0252114	84.2341	14.464	1	9	0.0047706	0.00225542	0	2.42082e-05	0.000382748	9.44453e-06	117.351	0.00418748	-0.00192392	-0.00371934	-24.4102	2.11188	1.9231	0.872769	0.430275	0.19591	0.472776	24.4804	14464	31767.2	34905.1	-65.5196	0.0000000E+000	0.0000000E+000	0.0000000E+000	65.5196	0.0000000E+000	0.0000000E+000	0.0000000E+000	-65.5196	0.0000000E+000	0.0000000E+000	0.0000000E+000	-24.4804	0.0000000E+000	0.0000000E+000	0.0000000E+000	24.4804	2.19629	65.5196	3.06975e-06	7.3159e-06	9.6496e-09	7.30625e-06	0.2898	11510	15.1816	11494.8
1468.59	2.08951	1.05223	2.3395	-26.7287	5.94912	0.290195	0.0312459	102.994	20.8346	1	9	0.00473888	0.0020256	0	2.57657e-05	0.000401846	7.7902e-06	124.852	0.00384587	-0.00219777	-0.00315603	-26.6838	2.33611	2.08731	1.04907	0.381769	0.192249	0.427442	26.7287	20834.6	41373.3	46323.1	-63.2713	0.0000000E+000	0.0000000E+000	0.0000000E+000	63.2713	0.0000000E+000	0.0000000E+000	0.0000000E+000	-63.2713	0.0000000E+000	0.0000000E+000	0.0000000E+000	-26.7287	0.0000000E+000	0.0000000E+000	0.0000000E+000	26.7287	1.9858	63.2713	1.55746e-06	9.0674e-06	1.2556e-08	9.05484e-06	0.289793	9287.48	12.8608	9274.62
1000.32	2.27346	1.29505	2.61645	-29.6674	6.39977	0.290204	0.0166439	122.856	30.0984	1	9	0.00472323	0.00180521	0	2.86063e-05	-1.83109e-05	1.19685e-05	-35.4798	0.00662998	0.00539892	0.00384814	-29.6821	2.62304	2.27886	1.2989	0.332097	0.189174	0.382198	29.6674	30098.4	52837.9	60809.2	-60.3326	0.0000000E+000	0.0000000E+000	0.0000000E+000	60.3326	0.0000000E+000	0.0000000E+000	0.0000000E+000	-60.3326	0.0000000E+000	0.0000000E+000	0.0000000E+000	-29.6674	0.0000000E+000	0.0000000E+000	0.0000000E+000	29.6674	1.7555	60.3325	2.8406e-06	4.83012e-06	-3.04764e-10	4.83042e-06	0.290222	17436.1	1.10016	17437.2
681.09	2.50977	1.60983	2.9817	-32.6771	6.85058	0.290193	0.0181339	145.156	42.3126	1	9	0.00471694	0.00158197	0	2.94064e-05	1.98852e-05	9.82408e-06	5.37617	0.00621005	0.00618273	-0.000581846	-32.6037	2.98659	2.51596	1.60925	0.282298	0.181073	0.335379	32.6771	42312.6	65966.4	78370.4	-57.3229	0.0000000E+000	0.0000000E+000	0.0000000E+000	57.3229	0.0000000E+000	0.0000000E+000	0.0000000E+000	-57.3229	0.0000000E+000	0.0000000E+000	0.0000000E+000	-32.6771	0.0000000E+000	0.0000000E+000	0.0000000E+000	32.6771	1.55903	57.3229	8.00118e-07	5.26232e-06	3.60596e-10	5.26196e-06	0.290173	16002.8	1.09658	16001.7
463.961	2.81664	2.03992	3.47775	-35.9134	7.5493	0.290238	-0.0264555	168.162	57.8568	1	10	0.00477142	0.00137199	0	2.84837e-05	0.000191768	6.02347e-06	5.52121	0.00439033	0.00436997	-0.000422412	-35.8656	3.48104	2.82101	2.03949	0.232882	0.168661	0.287542	35.9134	57856.8	79886.7	98637.2	-54.0866	0.0000000E+000	0.0000000E+000	0.0000000E+000	54.0866	0.0000000E+000	0.0000000E+000	0.0000000E+000	-54.0866	0.0000000E+000	0.0000000E+000	0.0000000E+000	-35.9134	0.0000000E+000	0.0000000E+000	0.0000000E+000	35.9134	1.38077	54.0866	-9.22676e-07	-7.67839e-06	-5.0733e-09	-7.67332e-06	0.290046	10970.8	7.24869	10963.6
316.316	3.21465	2.57353	4.11789	-38.6795	7.99707	0.290237	-0.0273163	195.51	76.3622	1	10	0.00473396	0.00114961	0	2.61702e-05	9.62774e-05	6.00716e-06	-1.992	0.0052254	0.00522224	0.000181634	-38.6361	4.12208	3.21987	2.57371	0.189576	0.151768	0.242843	38.6795	76362.2	95385.6	122187	-51.3205	0.0000000E+000	0.0000000E+000	0.0000000E+000	51.3205	0.0000000E+000	0.0000000E+000	0.0000000E+000	-51.3205	0.0000000E+000	0.0000000E+000	0.0000000E+000	-38.6795	0.0000000E+000	0.0000000E+000	0.0000000E+000	38.6795	1.24912	51.3205	-2.31357e-06	-7.92821e-06	-2.62994e-09	-7.92558e-06	0.290141	10625	3.52454	10621.5
215.345	3.77523	3.25	4.98145	-40.7243	8.44756	0.290241	-0.0265002	227.407	96.7961	1	10	0.00472366	0.00094825	0	2.29443e-05	0.000191768	8.27303e-06	47.4943	0.00872452	0.00589485	-0.0064318	-40.624	4.98173	3.78113	3.24357	0.152136	0.13097	0.200745	40.7243	96796.1	112439	148365	-49.2757	0.0000000E+000	0.0000000E+000	0.0000000E+000	49.2757	0.0000000E+000	0.0000000E+000	0.0000000E+000	-49.2757	0.0000000E+000	0.0000000E+000	0.0000000E+000	-40.7243	0.0000000E+000	0.0000000E+000	0.0000000E+000	40.7243	1.16161	49.2757	-3.22585e-06	-7.69145e-06	-5.08188e-09	-7.68637e-06	0.290049	10952.4	7.23645	10945.2
146.737	4.53778	4.04704	6.08029	-41.7283	8.89347	0.290243	-0.0272306	268.004	118.732	1	10	0.00470189	0.000773299	0	1.85941e-05	-0.000247487	7.39757e-06	14.9656	0.00956624	0.00924177	-0.00247038	-41.6531	6.08555	4.54702	4.04457	0.122742	0.109468	0.164466	41.7283	118732	133129	178384	-48.2717	0.0000000E+000	0.0000000E+000	0.0000000E+000	48.2717	0.0000000E+000	0.0000000E+000	0.0000000E+000	-48.2717	0.0000000E+000	0.0000000E+000	0.0000000E+000	-41.7283	0.0000000E+000	0.0000000E+000	0.0000000E+000	41.7283	1.12126	48.2717	-4.35019e-06	-7.90351e-06	6.73924e-09	-7.91025e-06	0.290491	10658.7	9.08856	10667.8
100.032	5.54439	4.95431	7.43542	-41.783	9.3448	0.290246	-0.0264965	321.143	142.578	1	10	0.00466217	0.000627022	0	1.61716e-05	-7.5605e-05	4.18023e-05	-39.9098	0.0666679	0.051138	0.0427729	-41.7664	7.50205	5.59553	4.99708	0.100287	0.0896132	0.134491	41.783	142578	159560	213981	-48.217	0.0000000E+000	0.0000000E+000	0.0000000E+000	48.217	0.0000000E+000	0.0000000E+000	0.0000000E+000	-48.217	0.0000000E+000	0.0000000E+000	0.0000000E+000	-41.783	0.0000000E+000	0.0000000E+000	0.0000000E+000	41.783	1.11911	48.217	-2.42257e-06	-7.69051e-06	2.00327e-09	-7.69251e-06	0.290322	10954.1	2.85339	10957
68.104	7.01008	5.90119	9.16326	-40.0911	9.80745	0.290249	-0.0241227	396.012	164.243	1	10	0.00468257	0.000511017	0	1.37111e-05	5.80813e-05	1.55127e-05	59.2139	0.0303566	0.0155376	-0.0260789	-39.9037	9.1584	7.02562	5.87511	0.0834879	0.0702813	0.109132	40.0911	164243	195106	255034	-49.9089	0.0000000E+000	0.0000000E+000	0.0000000E+000	49.9089	0.0000000E+000	0.0000000E+000	0.0000000E+000	-49.9089	0.0000000E+000	0.0000000E+000	0.0000000E+000	-40.0911	0.0000000E+000	0.0000000E+000	0.0000000E+000	40.0911	1.18791	49.9088	-2.46045e-06	-7.00159e-06	-1.40108e-09	-7.00019e-06	0.290191	12032.2	2.40775	12029.8
46.4415	8.8889	6.7037	11.1334	-37.0223	10.2437	0.290234	-0.0288219	511.21	185.342	1	10	0.00468723	0.000421007	0	1.01905e-05	0.000287258	4.26318e-06	33.6831	0.0101262	0.00842616	-0.00561595	-36.9731	11.1367	8.89733	6.69808	0.0717124	0.0540829	0.08982	37.0223	185342	245758	307813	-52.9777	0.0000000E+000	0.0000000E+000	0.0000000E+000	52.9777	0.0000000E+000	0.0000000E+000	0.0000000E+000	-52.9777	0.0000000E+000	0.0000000E+000	0.0000000E+000	-37.0223	0.0000000E+000	0.0000000E+000	0.0000000E+000	37.0223	1.32597	52.9777	-3.52064e-06	-8.3651e-06	-8.27931e-09	-8.35682e-06	0.289947	10069.9	9.96666	10060
31.6296	11.134	7.0399	13.173	-32.3046	10.6736	0.290234	-0.030905	714.76	204.139	1	10	0.00469328	0.000356281	0	7.10971e-06	0.000306356	7.723e-06	143.664	0.0216767	-0.0174619	-0.0128438	-32.298	13.1513	11.1166	7.02706	0.0641631	0.0405695	0.075913	32.3046	204139	322859	381982	-57.6954	0.0000000E+000	0.0000000E+000	0.0000000E+000	57.6954	0.0000000E+000	0.0000000E+000	0.0000000E+000	-57.6954	0.0000000E+000	0.0000000E+000	0.0000000E+000	-32.3046	0.0000000E+000	0.0000000E+000	0.0000000E+000	32.3046	1.58156	57.6954	-3.08075e-06	-8.96969e-06	-9.46793e-09	-8.96023e-06	0.289928	9391.17	9.91282	9381.25
21.5517	13.5068	6.8534	15.146	-26.9035	11.0945	0.290221	-0.0322317	1077.54	220.621	1	10	0.00468971	0.000309633	0	3.75786e-06	5.80813e-05	6.21195e-06	-2.30297	0.0200623	0.0200461	0.000806172	-26.8719	15.1643	13.5268	6.85421	0.0588782	0.0298751	0.066024	26.9035	220622	434803	487573	-63.0965	0.0000000E+000	0.0000000E+000	0.0000000E+000	63.0965	0.0000000E+000	0.0000000E+000	0.0000000E+000	-63.0965	0.0000000E+000	0.0000000E+000	0.0000000E+000	-26.9035	0.0000000E+000	0.0000000E+000	0.0000000E+000	26.9035	1.97081	63.0965	-3.35185e-06	-9.3543e-06	-1.87206e-09	-9.35243e-06	0.290163	9004.21	1.80199	9002.41
14.6852	15.5107	6.225	16.7132	-21.8674	11.8042	0.29025	-0.0134239	1741.01	241.525	1	11	0.00468214	0.000280146	0	2.7299e-06	3.89833e-05	5.26405e-06	7.98724	0.0187904	0.0186081	-0.00261097	-21.8354	16.7295	15.5293	6.22239	0.0555278	0.0222854	0.0598329	21.8674	241525	601800	648458	-68.1326	0.0000000E+000	0.0000000E+000	0.0000000E+000	68.1326	0.0000000E+000	0.0000000E+000	0.0000000E+000	-68.1326	0.0000000E+000	0.0000000E+000	0.0000000E+000	-21.8674	0.0000000E+000	0.0000000E+000	0.0000000E+000	21.8674	2.49167	68.1326	-1.02796e-06	-3.89629e-06	-5.23308e-10	-3.89577e-06	0.290211	21621.9	2.90402	21619
10.0032	17.1433	5.29877	17.9435	-17.1757	12.2548	0.29025	-0.0132892	3002.66	261.844	1	11	0.00469058	0.000261409	0	1.95339e-07	0.000325454	4.03317e-06	-105.295	0.0154286	-0.00407	0.0148821	-17.225	17.944	17.1392	5.31365	0.0532452	0.0164574	0.0557306	17.1757	261844	847152	886696	-72.8243	0.0000000E+000	0.0000000E+000	0.0000000E+000	72.8243	0.0000000E+000	0.0000000E+000	0.0000000E+000	-72.8243	0.0000000E+000	0.0000000E+000	0.0000000E+000	-17.1757	0.0000000E+000	0.0000000E+000	0.0000000E+000	17.1757	3.23533	72.8243	-2.53456e-06	-3.8572e-06	-4.32503e-09	-3.85287e-06	0.289924	21841	24.49	21816.5
6.81719	18.2758	4.36961	18.7909	-13.4466	12.5945	0.29024	-0.0140398	5342.84	288.91	1	11	0.00468562	0.000249356	0	-1.34404e-06	7.71793e-05	7.45139e-06	-66.071	0.0298825	0.0121205	0.0273141	-13.5189	18.809	18.2879	4.39692	0.0517585	0.0123751	0.0532173	13.4466	288910	1.20836e+06	1.24242e+06	-76.5534	0.0000000E+000	0.0000000E+000	0.0000000E+000	76.5534	0.0000000E+000	0.0000000E+000	0.0000000E+000	-76.5534	0.0000000E+000	0.0000000E+000	0.0000000E+000	-13.4466	0.0000000E+000	0.0000000E+000	0.0000000E+000	13.4466	4.18248	76.5534	-1.53938e-06	-4.07492e-06	-1.08358e-09	-4.07384e-06	0.290163	20672.6	5.49717	20667.1
4.63925	19.0553	3.60411	19.3931	-10.7104	13.0784	0.29025	-0.0131878	9518.62	328.758	1	11	0.00468884	0.000241779	0	-3.94698e-07	0.000134473	7.7441e-06	46.6474	0.0320297	0.021988	-0.0232902	-10.6308	19.4104	19.0772	3.58082	0.0506664	0.00958305	0.0515647	10.7104	328758	1.73817e+06	1.76899e+06	-79.2896	0.0000000E+000	0.0000000E+000	0.0000000E+000	79.2896	0.0000000E+000	0.0000000E+000	0.0000000E+000	-79.2896	0.0000000E+000	0.0000000E+000	0.0000000E+000	-10.7104	0.0000000E+000	0.0000000E+000	0.0000000E+000	10.7104	5.28709	79.2896	9.49341e-07	-3.82774e-06	-1.7734e-09	-3.82597e-06	0.290115	22009	10.1968	21998.8
3.1604	19.6857	3.06914	19.9235	-8.86147	13.7715	0.290244	-0.0124122	16408.2	389.37	1	11	0.00468872	0.000235336	0	-2.79495e-06	-7.5605e-05	3.2071e-06	95.1888	0.0136278	-0.00123246	-0.0135719	-8.82344	19.9202	19.6845	3.05557	0.0495928	0.00773186	0.0501919	8.86147	389370	2.49745e+06	2.52762e+06	-81.1385	0.0000000E+000	0.0000000E+000	0.0000000E+000	81.1385	0.0000000E+000	0.0000000E+000	0.0000000E+000	-81.1385	0.0000000E+000	0.0000000E+000	0.0000000E+000	-8.86147	0.0000000E+000	0.0000000E+000	0.0000000E+000	8.86147	6.41409	81.1385	-2.40025e-06	-3.60256e-06	9.38422e-10	-3.6035e-06	0.29032	23383.8	6.0912	23389.9
2.15577	20.169	2.67729	20.3459	-7.56139	14.775	0.290247	-0.0114842	27575.5	477.483	1	11	0.00468876	0.000230452	0	-9.73243e-06	0.000229964	3.40982e-06	-2.14887	0.0147962	0.0147858	0.000554801	-7.55746	20.3606	20.1838	2.67784	0.0487225	0.00646756	0.0491499	7.56139	477484	3.59706e+06	3.62862e+06	-82.4386	0.0000000E+000	0.0000000E+000	0.0000000E+000	82.4386	0.0000000E+000	0.0000000E+000	0.0000000E+000	-82.4386	0.0000000E+000	0.0000000E+000	0.0000000E+000	-7.56139	0.0000000E+000	0.0000000E+000	0.0000000E+000	7.56139	7.53338	82.4386	-6.93748e-06	-3.33325e-06	-2.64094e-09	-3.33061e-06	0.290017	25273.7	20.0244	25253.6
1.46631	20.6378	2.42981	20.7803	-6.71485	16.2363	0.290244	-0.011415	44670.7	610.747	1	11	0.00468893	0.000225643	0	-1.89387e-05	-0.000228389	2.20093e-06	-23.694	0.00975406	0.00893184	0.00391969	-6.7227	20.7897	20.6467	2.43373	0.0477923	0.00562687	0.0481224	6.71485	610746	5.18743e+06	5.22326e+06	-83.2851	0.0000000E+000	0.0000000E+000	0.0000000E+000	83.2851	0.0000000E+000	0.0000000E+000	0.0000000E+000	-83.2851	0.0000000E+000	0.0000000E+000	0.0000000E+000	-6.71485	0.0000000E+000	0.0000000E+000	0.0000000E+000	6.71485	8.49359	83.2851	-9.20626e-06	-3.31313e-06	2.60706e-09	-3.31573e-06	0.290472	25426.6	20.0079	25446.6
1.00006	21.1015	2.3375	21.2306	-6.32111	19.4098	0.29024	-0.0112881	68083.4	825.317	1	12	0.00469085	0.000220948	0	-2.93304e-05	0.000401846	2.82247e-06	34.9156	0.0127743	0.0104749	-0.00731164	-6.2984	21.2402	21.112	2.33019	0.0468156	0.00518595	0.0471019	6.32111	825316	7.45045e+06	7.49602e+06	-83.6789	0.0000000E+000	0.0000000E+000	0.0000000E+000	83.6789	0.0000000E+000	0.0000000E+000	0.0000000E+000	-83.6789	0.0000000E+000	0.0000000E+000	0.0000000E+000	-6.32111	0.0000000E+000	0.0000000E+000	0.0000000E+000	6.32111	9.02738	83.6789	-1.03917e-05	-3.27626e-06	-4.53608e-09	-3.27172e-06	0.289838	25712	35.5991	25676.4
0.681362	21.5965	2.30485	21.7191	-6.09175	22.5219	0.290247	-0.0108741	101344	1141.3	1	12	0.00469116	0.000215992	0	-3.1545e-05	-1.83109e-05	1.3596e-06	66.5028	0.00629466	0.0025097	-0.00577271	-6.07591	21.721	21.599	2.29908	0.0457824	0.00488606	0.0460424	6.09175	1.1413e+06	1.0694e+07	1.07547e+07	-83.9082	0.0000000E+000	0.0000000E+000	0.0000000E+000	83.9082	0.0000000E+000	0.0000000E+000	0.0000000E+000	-83.9082	0.0000000E+000	0.0000000E+000	0.0000000E+000	-6.09175	0.0000000E+000	0.0000000E+000	0.0000000E+000	6.09175	9.37	83.9082	-2.21459e-06	-3.15618e-06	1.99114e-10	-3.15637e-06	0.290265	26691.5	1.68389	26693.2
0.464091	22.0902	2.27153	22.2067	-5.87108	27.0784	0.290242	-0.0101982	150973	1579.68	1	12	0.0046929	0.000211328	0	-3.08449e-05	3.89833e-05	2.75379e-06	-7.65501	0.0130309	0.0129148	0.00173582	-5.87213	22.2197	22.1031	2.27327	0.0447953	0.00460629	0.0450315	5.87108	1.57968e+06	1.53621e+07	1.54431e+07	-84.1289	0.0000000E+000	0.0000000E+000	0.0000000E+000	84.1289	0.0000000E+000	0.0000000E+000	0.0000000E+000	-84.1289	0.0000000E+000	0.0000000E+000	0.0000000E+000	-5.87108	0.0000000E+000	0.0000000E+000	0.0000000E+000	5.87108	9.7248	84.1289	7.00083e-07	-2.95994e-06	-3.97558e-10	-2.95955e-06	0.290203	28460.2	3.82257	28456.4
0.316193	22.6268	2.25974	22.7394	-5.70323	33.7528	0.290247	-0.00862516	222745	2199.73	1	12	0.00469367	0.000206411	0	-3.42371e-05	0.000115375	1.93787e-06	9.63222	0.00938839	0.00925604	-0.0015709	-5.69697	22.7484	22.6361	2.25817	0.0437589	0.00437021	0.0439766	5.70323	2.19973e+06	2.20259e+07	2.21355e+07	-84.2968	0.0000000E+000	0.0000000E+000	0.0000000E+000	84.2968	0.0000000E+000	0.0000000E+000	0.0000000E+000	-84.2968	0.0000000E+000	0.0000000E+000	0.0000000E+000	-5.70323	0.0000000E+000	0.0000000E+000	0.0000000E+000	5.70323	10.013	84.2968	-3.39221e-06	-2.50343e-06	-9.95132e-10	-2.50244e-06	0.290132	33651.2	13.3766	33637.9
0.215268	23.1448	2.27849	23.2567	-5.62237	43.5453	0.290272	-0.00608751	324484	3114.53	1	12	0.00468975	0.000201652	0	-5.05156e-05	0.00036365	1.41089e-06	39.3889	0.00699668	0.00540743	-0.00443996	-5.61018	23.2616	23.1502	2.27405	0.0427915	0.00421261	0.0429984	5.62237	3.11453e+06	3.16372e+07	3.17902e+07	-84.3776	0.0000000E+000	0.0000000E+000	0.0000000E+000	84.3776	0.0000000E+000	0.0000000E+000	0.0000000E+000	-84.3776	0.0000000E+000	0.0000000E+000	0.0000000E+000	-5.62237	0.0000000E+000	0.0000000E+000	0.0000000E+000	5.62237	10.1579	84.3776	-1.62785e-05	-1.76704e-06	-2.21372e-09	-1.76482e-06	0.289909	47683.3	59.737	47623.6
0.146929	23.5929	2.33749	23.7084	-5.65818	57.8836	0.290266	-0.00466178	463408	4504.64	1	12	0.00468961	0.000197804	0	-9.44138e-05	0.000249062	1.63904e-06	20.476	0.00828619	0.00776266	-0.00289864	-5.64936	23.7158	23.6006	2.33459	0.0419737	0.00415859	0.0421792	5.65818	4.50463e+06	4.54664e+07	4.5689e+07	-84.3418	0.0000000E+000	0.0000000E+000	0.0000000E+000	84.3418	0.0000000E+000	0.0000000E+000	0.0000000E+000	-84.3418	0.0000000E+000	0.0000000E+000	0.0000000E+000	-5.65818	0.0000000E+000	0.0000000E+000	0.0000000E+000	5.65818	10.0932	84.3418	-4.38983e-05	-1.35316e-06	-1.16107e-09	-1.352e-06	0.290017	62265	53.4262	62211.5
0.0999041	24.025	2.44273	24.1489	-5.80555	78.9609	0.290243	-0.00412193	652172	6672.94	1	12	0.0046916	0.000194278	0	-0.000172035	0.000611924	2.2305e-06	0.944742	0.011481	0.0114794	-0.0001893	-5.80235	24.1603	24.0365	2.44254	0.0411974	0.00418871	0.0414098	5.80555	6.67294e+06	6.56306e+07	6.5969e+07	-84.1944	0.0000000E+000	0.0000000E+000	0.0000000E+000	84.1944	0.0000000E+000	0.0000000E+000	0.0000000E+000	-84.1944	0.0000000E+000	0.0000000E+000	0.0000000E+000	-5.80555	0.0000000E+000	0.0000000E+000	0.0000000E+000	5.80555	9.83533	84.1944	-7.7621e-05	-1.19636e-06	-2.52231e-09	-1.19384e-06	0.289631	70414.2	148.456	70265.8
0.0680626	24.4422	2.72779	24.5939	-6.36795	109.887	0.290242	-0.00336138	857236	10545.5	1	12	0.0046897	0.000190685	0	-0.000276184	0.000191768	1.73188e-06	-12.8952	0.00908243	0.00885337	0.00202692	-6.37036	24.603	24.4511	2.72982	0.0404095	0.00450977	0.0406604	6.36795	1.05455e+07	9.44921e+07	9.50787e+07	-83.6321	0.0000000E+000	0.0000000E+000	0.0000000E+000	83.6321	0.0000000E+000	0.0000000E+000	0.0000000E+000	-83.6321	0.0000000E+000	0.0000000E+000	0.0000000E+000	-6.36795	0.0000000E+000	0.0000000E+000	0.0000000E+000	6.36795	8.96044	83.6321	-0.00010415	-9.75613e-07	-6.44603e-10	-9.74969e-07	0.29005	86346.3	57.0503	86289.2
0.0464052	24.8946	3.21182	25.1009	-7.35152	155.239	0.290248	-0.00345837	1.06783e+06	17483.4	1	12	0.00469028	0.000186857	0	-0.000385064	5.80813e-05	1.41041e-06	6.82769	0.00754809	0.00749456	-0.000897347	-7.3473	25.1082	24.902	3.21092	0.0395117	0.00509769	0.0398392	7.35152	1.74834e+07	1.35513e+08	1.36636e+08	-82.6485	0.0000000E+000	0.0000000E+000	0.0000000E+000	82.6485	0.0000000E+000	0.0000000E+000	0.0000000E+000	-82.6485	0.0000000E+000	0.0000000E+000	0.0000000E+000	-7.35152	0.0000000E+000	0.0000000E+000	0.0000000E+000	7.35152	7.75092	82.6485	-0.00010888	-1.00378e-06	-2.00867e-10	-1.00358e-06	0.29019	83926.1	16.7944	83909.3
0.0315922	25.3372	4.0709	25.6621	-9.12764	221.844	0.290243	-0.00374643	1.23751e+06	31141.9	1	12	0.004692	0.000182838	0	-0.000444275	7.87179e-07	1.89407e-06	61.8297	0.0103593	0.00489056	-0.0091322	-9.10577	25.6655	25.3421	4.06176	0.0384745	0.00618165	0.0389679	9.12764	3.11419e+07	1.93826e+08	1.96312e+08	-80.8724	0.0000000E+000	0.0000000E+000	0.0000000E+000	80.8724	0.0000000E+000	0.0000000E+000	0.0000000E+000	-80.8724	0.0000000E+000	0.0000000E+000	0.0000000E+000	-9.12764	0.0000000E+000	0.0000000E+000	0.0000000E+000	9.12764	6.22398	80.8724	-5.92108e-05	-1.08738e-06	-2.94911e-12	-1.08737e-06	0.290242	77471.8	0.210114	77471.6
0.0215268	25.7881	5.27003	26.3211	-11.5499	319.582	0.290241	-0.00294301	1.4029e+06	56240	1	12	0.00469508	0.000178377	0	-0.000368912	0.000153571	1.07548e-06	34.9476	0.00602927	0.00494205	-0.00345373	-11.5403	26.3253	25.7931	5.26658	0.037223	0.00760684	0.0379923	11.5499	5.624e+07	2.75202e+08	2.8089e+08	-78.4501	0.0000000E+000	0.0000000E+000	0.0000000E+000	78.4501	0.0000000E+000	0.0000000E+000	0.0000000E+000	-78.4501	0.0000000E+000	0.0000000E+000	0.0000000E+000	-11.5499	0.0000000E+000	0.0000000E+000	0.0000000E+000	11.5499	4.89335	78.4501	7.53625e-05	-8.54182e-07	-4.51963e-10	-8.5373e-07	0.290087	98620.3	52.1817	98568.1
0.0146812	26.4678	6.793	27.3257	-14.3943	462.885	0.29024	-0.00155673	1.59587e+06	98623.4	1	12	0.00469194	0.000171705	0	-0.000112009	0.000210866	9.70745e-07	6.29813	0.00565358	0.00561946	-0.000620209	-14.3902	27.3309	26.4735	6.79238	0.0354468	0.00909747	0.0365957	14.3943	9.86234e+07	3.8427e+08	3.96724e+08	-75.6057	0.0000000E+000	0.0000000E+000	0.0000000E+000	75.6057	0.0000000E+000	0.0000000E+000	0.0000000E+000	-75.6057	0.0000000E+000	0.0000000E+000	0.0000000E+000	-14.3943	0.0000000E+000	0.0000000E+000	0.0000000E+000	14.3943	3.89634	75.6057	0.000256903	-4.51826e-07	-3.28261e-10	-4.51498e-07	0.29003	186442	135.454	186307
0.0100092	27.5816	8.91321	28.986	-17.9086	673.067	0.290234	-0.000510826	1.78397e+06	168686	1	12	0.0046912	0.000161843	0	0.00025115	0.00036365	3.74759e-06	-59.3859	0.0231556	0.0117921	0.0199281	-17.9389	29.0034	27.5934	8.93314	0.0328278	0.0106086	0.0344994	17.9086	1.68686e+08	5.21992e+08	5.48571e+08	-72.0914	0.0000000E+000	0.0000000E+000	0.0000000E+000	72.0914	0.0000000E+000	0.0000000E+000	0.0000000E+000	-72.0914	0.0000000E+000	0.0000000E+000	0.0000000E+000	-17.9086	0.0000000E+000	0.0000000E+000	0.0000000E+000	17.9086	3.09447	72.0914	0.00036316	-1.48259e-07	-1.85762e-10	-1.48073e-07	0.289871	568167	711.886	567455