File: txt/18215_R279_UA653_SOC00_C02.mpt
EC-Lab ASCII FILE
Nb header lines : 65

Potentio Electrochemical Impedance Spectroscopy

Run on channel : 2 (SN 66139)
User :
CE vs. WE compliance from -10 V to 10 V
Electrode connection : standard
Potential control : Ewe
Ewe ctrl range : min = -10.00 V, max = 10.00 V
Safety Limits :
	Do not start on E overload
Acquisition started on : 10/08/2025 08:30:28.978
Technique started on : 10/08/2025 08:30:30.572
Loaded Setting File :  C:\Users\Celltest\OneDrive - store-dot.com\Documents\EC-Lab\Data\@Biologic Test Protocols\anode half cell EIS SOC00.mps
Saved on :
	File : 18215_R279_UA653_SOC00_C02.mpr
	Directory : C:\Users\Celltest\OneDrive - store-dot.com\Documents\EC-Lab\Data\Charmaine\
	Host : 169.254.61.224
Device : VMP-3e (SN .003165)
Address : USB
EC-LAB for windows v11.62 (software)
Internet server v27.00 (firmware)
Command interpretor v12.03 (firmware)
Electrode material :
Initial state :
Electrolyte :
Comments :
Electrode surface area : 0.001 cm²
Characteristic mass : 0.001 g
Equivalent Weight : 0.000 g/eq.
Density : 0.000 g/cm3
Volume (V) : 0.001 cm³
Record Ece
Cycle Definition : Charge/Discharge alternance
Mode                Single sine
E (V)               0.0000
vs.                 Eoc
tE (h:m:s)          0:00:0.0000
record              0
dI                  0.000
unit dI             mA
dt (s)              0.000
fi                  100.000
unit fi             kHz
ff                  10.000
unit ff             mHz
Nd                  6
Points              per decade
spacing             Logarithmic
Va (mV)             5.0
pw                  0.10
Na                  2
corr                0
E range min (V)     -10.000
E range max (V)     10.000
I Range             Auto
Bandwidth           5
nc cycles           0
goto Ns'            0
nr cycles           0
inc. cycle          0

freq/Hz	Re(Z)/Ohm	-Im(Z)/Ohm	|Z|/Ohm	Phase(Z)/deg	time/s	<Ewe>/V	<I>/mA	Cs/µF	Cp/µF	cycle number	I Range	|Ewe|/V	|I|/A	Ns	(Q-Qo)/mA.h	<Ece>/V	|Ece|/V	Phase(Zce)/deg	|Zce|/Ohm	Re(Zce)/Ohm	-Im(Zce)/Ohm	Phase(Zwe-ce)/deg	|Zwe-ce|/Ohm	Re(Zwe-ce)/Ohm	-Im(Zwe-ce)/Ohm	Re(Y)/Ohm-1	Im(Y)/Ohm-1	|Y|/Ohm-1	Phase(Y)/deg	Re(C)/nF	Im(C)/nF	|C|/nF	Phase(C)/deg	Re(M)	Im(M)	|M|	Phase(M)/deg	Re(Permittivity)	Im(Permittivity)	|Permittivity|	Phase(Permittivity)/deg	Re(Resistivity)/Ohm.cm	Im(Resistivity)/Ohm.cm	|Resistivity|/Ohm.cm	Phase(Resistivity)/deg	Re(Conductivity)/mS/cm	Im(Conductivity)/mS/cm	|Conductivity|/mS/cm	Phase(Conductivity)/deg	Tan(Delta)	Loss Angle(Delta)/deg	dq/mA.h	Pwe/W	Pce/W	Pwe-ce/W	<Ewe-Ece>/V	Rwe/Ohm	Rce/Ohm	Rwe-ce/Ohm		Ewe-Ece/V
100004	1.26832	-0.00312529	1.26832	0.141183	1.59352	0.270456	0.00935102	-509.23	-0.00309197	1	9	0.00227409	0.001793	0	-3.76222e-06	0.000133978	1.30859e-05	57.3861	0.00729837	0.00393364	-0.00614758	0.417596	1.27228	1.27225	-0.00927286	0.788442	-0.00194282	0.788444	-0.141183	-3.09194	1254.8	1254.8	-90.1412	0.0000000E+000	0.0000000E+000	0.0000000E+000	90.1412	0.0000000E+000	0.0000000E+000	0.0000000E+000	-90.1412	0.0000000E+000	0.0000000E+000	0.0000000E+000	0.141183	0.0000000E+000	0.0000000E+000	0.0000000E+000	-0.141183	405.824	89.8588	-3.76222e-06	2.52904e-06	1.25283e-09	2.52779e-06	0.270322	28922.7	14.3277	28908.3
68132	1.31855	0.117639	1.32379	-5.09832	1.97653	0.270457	0.0152731	19.8572	0.156813	1	9	0.00218893	0.00165354	0	-4.2586e-06	0.000114888	1.47155e-05	-38.9419	0.00889939	0.0069218	0.00559355	-5.31165	1.33119	1.32547	0.123232	0.752419	0.0671293	0.755407	5.09832	156.813	1757.63	1764.61	-84.9017	0.0000000E+000	0.0000000E+000	0.0000000E+000	84.9017	0.0000000E+000	0.0000000E+000	0.0000000E+000	-84.9017	0.0000000E+000	0.0000000E+000	0.0000000E+000	-5.09832	0.0000000E+000	0.0000000E+000	0.0000000E+000	5.09832	11.2085	84.9017	-4.96374e-07	4.13072e-06	1.75469e-09	4.12896e-06	0.270342	17708.1	7.52223	17700.6
46420.4	1.0079	-0.638612	1.19319	32.3585	2.35952	0.270463	0.00905299	-5.36877	-1.53792	1	9	0.000391139	0.000327811	0	-3.50389e-06	0.000248523	6.09531e-06	-75.6188	0.018594	0.00461823	0.0180114	31.5052	1.18758	1.01252	-0.6206	0.70795	-0.44856	0.838093	-32.3585	-1537.92	2427.25	2873.45	-122.359	0.0000000E+000	0.0000000E+000	0.0000000E+000	122.359	0.0000000E+000	0.0000000E+000	0.0000000E+000	-122.359	0.0000000E+000	0.0000000E+000	0.0000000E+000	32.3585	0.0000000E+000	0.0000000E+000	0.0000000E+000	-32.3585	1.57827	57.6415	7.54712e-07	2.4485e-06	2.24988e-09	2.44625e-06	0.270214	29875.5	27.4521	29848.1
31621.1	1.38106	0.344998	1.4235	-14.0259	2.99056	0.270434	0.0169864	14.589	0.856932	1	9	0.00494533	0.00347407	0	-0.000256509	0.000343978	9.45822e-06	52.3255	0.00272252	0.00166394	-0.00215486	-13.9256	1.42459	1.38272	0.342844	0.681551	0.170257	0.702495	14.0259	856.932	3430.37	3535.79	-75.9741	0.0000000E+000	0.0000000E+000	0.0000000E+000	75.9741	0.0000000E+000	0.0000000E+000	0.0000000E+000	-75.9741	0.0000000E+000	0.0000000E+000	0.0000000E+000	-14.0259	0.0000000E+000	0.0000000E+000	0.0000000E+000	14.0259	4.00308	75.9741	-0.000253005	4.59372e-06	5.84296e-09	4.58787e-06	0.27009	15920.6	20.2501	15900.4
21544.7	1.45814	0.384877	1.50808	-14.786	3.37352	0.270435	0.0102449	19.1937	1.25013	1	9	0.00520855	0.00345376	0	-0.000264068	-1.87484e-05	1.21889e-05	10.6686	0.00352915	0.00346815	-0.000653342	-14.7285	1.51127	1.46161	0.384224	0.641137	0.169229	0.663095	14.786	1250.13	4736.21	4898.42	-75.214	0.0000000E+000	0.0000000E+000	0.0000000E+000	75.214	0.0000000E+000	0.0000000E+000	0.0000000E+000	-75.214	0.0000000E+000	0.0000000E+000	0.0000000E+000	-14.786	0.0000000E+000	0.0000000E+000	0.0000000E+000	14.786	3.78859	75.214	-7.55876e-06	2.77059e-06	-1.92076e-10	2.77078e-06	0.270454	26397	1.83001	26398.8
14678.6	1.54502	0.432986	1.60454	-15.6553	3.75654	0.270435	0.0178431	25.0416	1.8235	1	9	0.00515041	0.00320989	0	-0.000269987	0.000153069	6.31818e-06	57.2951	0.00196835	0.00106352	-0.00165629	-15.5882	1.60512	1.54608	0.431329	0.60011	0.168179	0.623231	15.6553	1823.5	6506.79	6757.47	-74.3447	0.0000000E+000	0.0000000E+000	0.0000000E+000	74.3447	0.0000000E+000	0.0000000E+000	0.0000000E+000	-74.3447	0.0000000E+000	0.0000000E+000	0.0000000E+000	-15.6553	0.0000000E+000	0.0000000E+000	0.0000000E+000	15.6553	3.56829	74.3447	-5.91956e-06	4.82539e-06	2.73123e-09	4.82266e-06	0.270282	15156.3	8.57863	15147.7
10002.2	1.6407	0.485069	1.7109	-16.4702	4.01555	0.270436	0.0180666	32.8035	2.63679	1	9	0.00539524	0.00315344	0	-0.000271528	0.000229433	1.40793e-05	-46.5033	0.00446473	0.00307313	0.00323878	-16.5448	1.71477	1.64377	0.488308	0.560503	0.165711	0.584486	16.4702	2636.79	8918.7	9300.32	-73.5298	0.0000000E+000	0.0000000E+000	0.0000000E+000	73.5298	0.0000000E+000	0.0000000E+000	0.0000000E+000	-73.5298	0.0000000E+000	0.0000000E+000	0.0000000E+000	-16.4702	0.0000000E+000	0.0000000E+000	0.0000000E+000	16.4702	3.38241	73.5298	-1.54102e-06	4.88586e-06	4.14506e-09	4.88171e-06	0.270207	14968.9	12.6993	14956.2
6810.42	1.7259	0.557394	1.81368	-17.8983	4.27454	0.270442	0.00972348	41.926	3.95994	1	9	0.00531772	0.00293201	0	-0.000272043	0.00017216	0.000108092	44.4962	0.036866	0.0262965	-0.025838	-16.876	1.83105	1.7522	0.531556	0.524682	0.169451	0.551366	17.8983	3959.94	12261.5	12885.1	-72.1017	0.0000000E+000	0.0000000E+000	0.0000000E+000	72.1017	0.0000000E+000	0.0000000E+000	0.0000000E+000	-72.1017	0.0000000E+000	0.0000000E+000	0.0000000E+000	-17.8983	0.0000000E+000	0.0000000E+000	0.0000000E+000	17.8983	3.09637	72.1017	-5.1449e-07	2.62964e-06	1.674e-09	2.62796e-06	0.27027	27813.3	17.7056	27795.6
4646	1.85999	0.641095	1.96738	-19.0179	4.53961	0.27042	-0.00271665	53.4341	5.67399	1	9	0.00529996	0.00269392	0	-0.000270245	-7.60209e-05	8.98796e-06	23.6267	0.00333638	0.00305671	-0.00133714	-18.9521	1.96983	1.86305	0.639758	0.480547	0.165633	0.508291	19.0179	5673.99	16461.8	17412.2	-70.9821	0.0000000E+000	0.0000000E+000	0.0000000E+000	70.9821	0.0000000E+000	0.0000000E+000	0.0000000E+000	-70.9821	0.0000000E+000	0.0000000E+000	0.0000000E+000	-19.0179	0.0000000E+000	0.0000000E+000	0.0000000E+000	19.0179	2.90127	70.9821	1.79757e-06	-7.34639e-07	2.06523e-10	-7.34845e-07	0.270496	99541.7	27.9833	99569.7
3163.08	1.99098	0.745358	2.12593	-20.5243	4.91367	0.270292	-0.0571329	67.5064	8.29809	1	9	0.00522872	0.0024595	0	-0.000277456	0.000248523	9.46908e-06	-80.1839	0.00385	0.000656372	0.00379363	-20.6137	2.12788	1.99164	0.749152	0.440525	0.164918	0.470383	20.5243	8298.09	22165.6	23668	-69.4757	0.0000000E+000	0.0000000E+000	0.0000000E+000	69.4757	0.0000000E+000	0.0000000E+000	0.0000000E+000	-69.4757	0.0000000E+000	0.0000000E+000	0.0000000E+000	-20.5243	0.0000000E+000	0.0000000E+000	0.0000000E+000	20.5243	2.67117	69.4757	-7.21065e-06	-1.54426e-05	-1.41989e-08	-1.54284e-05	0.270043	4730.93	4.34992	4726.58
2155.69	2.13606	0.890021	2.31407	-22.6197	5.36478	0.270331	-0.0230157	82.9533	12.2711	1	9	0.00516929	0.00223386	0	-0.000278316	-0.000247839	7.9811e-06	-51.4142	0.00357279	0.0022283	0.00279276	-22.6623	2.3172	2.13829	0.892814	0.398898	0.166207	0.43214	22.6197	12271.1	29450.7	31904.9	-67.3803	0.0000000E+000	0.0000000E+000	0.0000000E+000	67.3803	0.0000000E+000	0.0000000E+000	0.0000000E+000	-67.3803	0.0000000E+000	0.0000000E+000	0.0000000E+000	-22.6197	0.0000000E+000	0.0000000E+000	0.0000000E+000	22.6197	2.40001	67.3803	-8.6005e-07	-6.22187e-06	5.70418e-09	-6.22757e-06	0.270579	11745.5	10.7682	11756.3
1468.59	2.30206	1.07289	2.53979	-24.9882	5.81605	0.270336	-0.0177268	101.01	18.0251	1	9	0.00513175	0.00202054	0	-0.000282032	-0.000152384	6.95376e-06	-130.194	0.00344154	-0.00222111	0.00262886	-25.0631	2.53889	2.29984	1.07552	0.356877	0.166325	0.393733	24.9882	18025.1	38675.7	42669.8	-65.0118	0.0000000E+000	0.0000000E+000	0.0000000E+000	65.0118	0.0000000E+000	0.0000000E+000	0.0000000E+000	-65.0118	0.0000000E+000	0.0000000E+000	0.0000000E+000	-24.9882	0.0000000E+000	0.0000000E+000	0.0000000E+000	24.9882	2.14566	65.0118	-3.71623e-06	-4.79219e-06	2.70128e-09	-4.79489e-06	0.270488	15250.1	8.59627	15258.7
1000.32	2.49259	1.3141	2.81778	-27.7982	6.26685	0.270343	-0.0234999	121.075	26.3327	1	9	0.00509678	0.00180879	0	-0.000284961	-0.00028602	1.64183e-06	-86.9292	0.000907694	4.8625e-05	0.000906391	-27.8141	2.81824	2.49264	1.315	0.313934	0.165506	0.35489	27.7982	26332.7	49948.1	56464.3	-62.2018	0.0000000E+000	0.0000000E+000	0.0000000E+000	62.2018	0.0000000E+000	0.0000000E+000	0.0000000E+000	-62.2018	0.0000000E+000	0.0000000E+000	0.0000000E+000	-27.7982	0.0000000E+000	0.0000000E+000	0.0000000E+000	27.7982	1.89681	62.2018	-2.92931e-06	-6.35305e-06	6.72145e-09	-6.35977e-06	0.270629	11504	12.1711	11516.2
681.09	2.74054	1.63882	3.19316	-30.8791	6.96259	0.270377	-0.0320329	142.589	37.5583	1	10	0.00516992	0.00161906	0	-0.000289989	3.85242e-05	6.94301e-06	146.919	0.00428829	-0.00359314	-0.00234068	-30.8761	3.18887	2.73694	1.63648	0.268778	0.160727	0.31317	30.8791	37558.3	62807.3	73180.5	-59.1209	0.0000000E+000	0.0000000E+000	0.0000000E+000	59.1209	0.0000000E+000	0.0000000E+000	0.0000000E+000	-59.1209	0.0000000E+000	0.0000000E+000	0.0000000E+000	-30.8791	0.0000000E+000	0.0000000E+000	0.0000000E+000	30.8791	1.67226	59.1209	-5.02719e-06	-8.66095e-06	-1.23404e-09	-8.65972e-06	0.270338	8440.61	1.20264	8439.4
463.961	3.05148	2.06728	3.68581	-34.1165	7.41431	0.270384	-0.0301926	165.935	52.2004	1	10	0.00511435	0.00138758	0	-0.000293961	1.94333e-05	2.69136e-05	26.1743	0.0193961	0.0174071	-0.00855568	-33.8553	3.69546	3.06888	2.05873	0.224618	0.152172	0.271311	34.1165	52200.4	77052	93069.3	-55.8835	0.0000000E+000	0.0000000E+000	0.0000000E+000	55.8835	0.0000000E+000	0.0000000E+000	0.0000000E+000	-55.8835	0.0000000E+000	0.0000000E+000	0.0000000E+000	-34.1165	0.0000000E+000	0.0000000E+000	0.0000000E+000	34.1165	1.47608	55.8835	-3.97278e-06	-8.16361e-06	-5.86743e-10	-8.16303e-06	0.270365	8955.31	0.643645	8954.66
316.316	3.47744	2.57977	4.32988	-36.5702	7.86205	0.270364	-0.030446	195.037	69.2357	1	10	0.00507415	0.00117189	0	-0.000297635	0.000267614	4.37195e-05	4.16187	0.0373067	0.0372083	-0.00270751	-36.2502	4.35821	3.51465	2.57707	0.185485	0.137604	0.230954	36.5702	69235.7	93327.2	116205	-53.4298	0.0000000E+000	0.0000000E+000	0.0000000E+000	53.4298	0.0000000E+000	0.0000000E+000	0.0000000E+000	-53.4298	0.0000000E+000	0.0000000E+000	0.0000000E+000	-36.5702	0.0000000E+000	0.0000000E+000	0.0000000E+000	36.5702	1.34796	53.4298	-3.6737e-06	-8.23148e-06	-8.14777e-09	-8.22333e-06	0.270096	8880.12	8.78981	8871.33
215.345	4.08592	3.22587	5.20585	-38.2914	8.31254	0.27038	-0.029455	229.108	87.9728	1	10	0.00506702	0.000973332	0	-0.000302295	5.7615e-05	9.95447e-06	-105.587	0.0102272	-0.0027481	0.00985108	-38.3952	5.20981	4.08317	3.23572	0.150767	0.119032	0.192091	38.2914	87972.8	111427	141969	-51.7086	0.0000000E+000	0.0000000E+000	0.0000000E+000	51.7086	0.0000000E+000	0.0000000E+000	0.0000000E+000	-51.7086	0.0000000E+000	0.0000000E+000	0.0000000E+000	-38.2914	0.0000000E+000	0.0000000E+000	0.0000000E+000	38.2914	1.26661	51.7086	-4.65952e-06	-7.96407e-06	-1.69705e-09	-7.96237e-06	0.270323	9179.43	1.95603	9177.47
146.737	4.89393	3.98259	6.30964	-39.138	8.7585	0.27038	-0.0298462	272.341	108.501	1	10	0.00505231	0.000800728	0	-0.000306595	0.000248523	8.66338e-06	-14.5747	0.0108194	0.0104712	0.00272261	-39.0973	6.31949	4.9044	3.98531	0.122927	0.100036	0.158488	39.138	108501	133330	171899	-50.862	0.0000000E+000	0.0000000E+000	0.0000000E+000	50.862	0.0000000E+000	0.0000000E+000	0.0000000E+000	-50.862	0.0000000E+000	0.0000000E+000	0.0000000E+000	-39.138	0.0000000E+000	0.0000000E+000	0.0000000E+000	39.138	1.22883	50.862	-4.30016e-06	-8.06983e-06	-7.41748e-09	-8.06241e-06	0.270132	9059.12	8.3268	9050.8
100.032	5.96728	4.80985	7.66441	-38.8701	9.20978	0.27038	-0.0286392	330.788	130.273	1	10	0.00501106	0.00065381	0	-0.0003094	9.57967e-05	4.13704e-05	-27.2906	0.0632758	0.0562327	0.0290122	-38.7759	7.72641	6.02352	4.83886	0.101583	0.0818794	0.130473	38.8701	130273	161622	207588	-51.1299	0.0000000E+000	0.0000000E+000	0.0000000E+000	51.1299	0.0000000E+000	0.0000000E+000	0.0000000E+000	-51.1299	0.0000000E+000	0.0000000E+000	0.0000000E+000	-38.8701	0.0000000E+000	0.0000000E+000	0.0000000E+000	38.8701	1.24064	51.1299	-2.80555e-06	-7.74349e-06	-2.74354e-09	-7.74075e-06	0.270285	9440.91	3.34495	9437.56
68.104	7.47589	5.59631	9.3385	-36.8178	9.67242	0.270379	-0.028155	417.586	149.967	1	10	0.00503443	0.000539105	0	-0.000312542	-0.000133293	2.55445e-05	40.0511	0.0473832	0.0362705	-0.0304897	-36.535	9.34938	7.51216	5.56582	0.0857252	0.0641722	0.107084	36.8178	149967	200335	250248	-53.1822	0.0000000E+000	0.0000000E+000	0.0000000E+000	53.1822	0.0000000E+000	0.0000000E+000	0.0000000E+000	-53.1822	0.0000000E+000	0.0000000E+000	0.0000000E+000	-36.8178	0.0000000E+000	0.0000000E+000	0.0000000E+000	36.8178	1.33586	53.1822	-3.14122e-06	-7.6125e-06	3.75287e-09	-7.61625e-06	0.270512	9603.23	4.73428	9607.96
46.4415	9.33084	6.09321	11.1441	-33.1453	10.1087	0.270368	-0.0292241	562.428	168.138	1	10	0.00503539	0.000451842	0	-0.000316064	0.000114888	9.9714e-06	-92.7764	0.0220683	-0.00106894	0.0220424	-33.2431	11.1553	9.32977	6.11525	0.0751325	0.0490629	0.0897333	33.1453	168138	257479	307516	-56.8547	0.0000000E+000	0.0000000E+000	0.0000000E+000	56.8547	0.0000000E+000	0.0000000E+000	0.0000000E+000	-56.8547	0.0000000E+000	0.0000000E+000	0.0000000E+000	-33.1453	0.0000000E+000	0.0000000E+000	0.0000000E+000	33.1453	1.53135	56.8547	-3.52264e-06	-7.90127e-06	-3.35749e-09	-7.89791e-06	0.270253	9251.55	3.93126	9247.62
31.6296	11.3595	6.11858	12.9025	-28.3083	10.5376	0.270367	-0.0298835	822.387	184.939	1	10	0.0050264	0.000389567	0	-0.000319961	3.42479e-07	4.8465e-06	-115.053	0.0124407	-0.00526808	0.0112703	-28.3634	12.9033	11.3542	6.12985	0.0682353	0.0367536	0.0775041	28.3083	184939	343349	389989	-61.6917	0.0000000E+000	0.0000000E+000	0.0000000E+000	61.6917	0.0000000E+000	0.0000000E+000	0.0000000E+000	-61.6917	0.0000000E+000	0.0000000E+000	0.0000000E+000	-28.3083	0.0000000E+000	0.0000000E+000	0.0000000E+000	28.3083	1.85656	61.6917	-3.89686e-06	-8.07951e-06	-1.02345e-11	-8.0795e-06	0.270367	9047.38	0.0114605	9047.37
21.5517	13.2612	5.71151	14.4389	-23.3012	10.9594	0.270371	-0.0299841	1292.97	202.312	1	10	0.00503196	0.000348501	0	-0.000323278	-0.000190566	8.9427e-06	91.092	0.0256605	-0.000489025	-0.0256559	-23.2084	14.4283	13.2607	5.68585	0.0636086	0.0273957	0.0692574	23.3012	202312	469736	511451	-66.6988	0.0000000E+000	0.0000000E+000	0.0000000E+000	66.6988	0.0000000E+000	0.0000000E+000	0.0000000E+000	-66.6988	0.0000000E+000	0.0000000E+000	0.0000000E+000	-23.3012	0.0000000E+000	0.0000000E+000	0.0000000E+000	23.3012	2.32185	66.6988	-3.31695e-06	-8.1068e-06	5.71394e-09	-8.11252e-06	0.270561	9017.14	6.35558	9023.5
14.6852	14.8638	4.88802	15.6469	-18.2037	11.6692	0.2704	-0.0186683	2217.22	216.381	1	11	0.00503663	0.000321893	0	-0.000324062	-9.51117e-05	8.10562e-06	-11.8145	0.0251811	0.0246476	0.00515568	-18.1934	15.6719	14.8884	4.89318	0.0607119	0.0199654	0.0639105	18.2037	216381	657984	692650	-71.7963	0.0000000E+000	0.0000000E+000	0.0000000E+000	71.7963	0.0000000E+000	0.0000000E+000	0.0000000E+000	-71.7963	0.0000000E+000	0.0000000E+000	0.0000000E+000	-18.2037	0.0000000E+000	0.0000000E+000	0.0000000E+000	18.2037	3.04086	71.7963	-7.83902e-07	-5.04791e-06	1.77557e-09	-5.04969e-06	0.270495	14484.5	5.09483	14489.6
10.0032	16.0081	4.04584	16.5114	-14.1838	12.1198	0.270398	-0.0184763	3932.53	236.114	1	11	0.00503814	0.00030513	0	-0.000328869	0.000324887	6.10049e-06	19.9121	0.0199931	0.0187978	-0.0068092	-14.1449	16.528	16.0269	4.03904	0.0587178	0.0148402	0.0605641	14.1838	236114	934224	963599	-75.8162	0.0000000E+000	0.0000000E+000	0.0000000E+000	75.8162	0.0000000E+000	0.0000000E+000	0.0000000E+000	-75.8162	0.0000000E+000	0.0000000E+000	0.0000000E+000	-14.1838	0.0000000E+000	0.0000000E+000	0.0000000E+000	14.1838	3.95667	75.8162	-4.80751e-06	-4.99594e-06	-6.0027e-09	-4.98994e-06	0.270073	14634.9	17.584	14617.3
6.81719	16.811	3.24691	17.1217	-10.9316	12.4595	0.2704	-0.0180997	7190.26	258.577	1	11	0.00503769	0.000294228	0	-0.000328231	5.7615e-05	1.01323e-05	-9.75176	0.0344371	0.0339395	0.00583294	-10.9292	17.1562	16.845	3.25274	0.0573455	0.0110758	0.0584053	10.9316	258577	1.3388e+06	1.36354e+06	-79.0684	0.0000000E+000	0.0000000E+000	0.0000000E+000	79.0684	0.0000000E+000	0.0000000E+000	0.0000000E+000	-79.0684	0.0000000E+000	0.0000000E+000	0.0000000E+000	-10.9316	0.0000000E+000	0.0000000E+000	0.0000000E+000	10.9316	5.17755	79.0684	6.38838e-07	-4.89416e-06	-1.04281e-09	-4.89312e-06	0.270343	14939.5	3.18321	14936.3
4.63925	17.3372	2.55422	17.5243	-8.38087	12.9435	0.270403	-0.0173637	13431.2	285.33	1	11	0.00502898	0.000286971	0	-0.000329639	0.00017216	1.39917e-05	8.75533	0.0487564	0.0481883	-0.00742148	-8.33403	17.5709	17.3854	2.5468	0.0564541	0.00831716	0.0570635	8.38087	285330	1.93672e+06	1.95763e+06	-81.6191	0.0000000E+000	0.0000000E+000	0.0000000E+000	81.6191	0.0000000E+000	0.0000000E+000	0.0000000E+000	-81.6191	0.0000000E+000	0.0000000E+000	0.0000000E+000	-8.38087	0.0000000E+000	0.0000000E+000	0.0000000E+000	8.38087	6.78767	81.6191	-1.40838e-06	-4.69519e-06	-2.98933e-09	-4.6922e-06	0.270231	15572.9	9.91496	15563
3.1604	17.7297	2.12408	17.8565	-6.83169	13.6364	0.270406	-0.0166392	23708.7	335.474	1	11	0.00503586	0.000282019	0	-0.000336401	-1.87484e-05	5.12355e-06	-98.6916	0.0181674	-0.00274538	0.0179588	-6.88995	17.8559	17.7269	2.14204	0.0556045	0.00666163	0.0560021	6.83169	335474	2.8002e+06	2.82022e+06	-83.1683	0.0000000E+000	0.0000000E+000	0.0000000E+000	83.1683	0.0000000E+000	0.0000000E+000	0.0000000E+000	-83.1683	0.0000000E+000	0.0000000E+000	0.0000000E+000	-6.83169	0.0000000E+000	0.0000000E+000	0.0000000E+000	6.83169	8.34698	83.1683	-6.76191e-06	-4.49935e-06	3.11958e-10	-4.49966e-06	0.270425	16251.1	1.12676	16252.3
2.15577	18.0399	1.77342	18.1269	-5.61443	14.6401	0.270395	-0.016512	41630	398.458	1	11	0.00503141	0.000277566	0	-0.000344703	0.00017216	6.92203e-06	-73.149	0.0249383	0.00722922	0.0238675	-5.68724	18.1364	18.0472	1.79729	0.054902	0.00539715	0.0551666	5.61443	398458	4.05328e+06	4.07281e+06	-84.3856	0.0000000E+000	0.0000000E+000	0.0000000E+000	84.3856	0.0000000E+000	0.0000000E+000	0.0000000E+000	-84.3856	0.0000000E+000	0.0000000E+000	0.0000000E+000	-5.61443	0.0000000E+000	0.0000000E+000	0.0000000E+000	5.61443	10.1724	84.3856	-8.30247e-06	-4.46476e-06	-2.84271e-09	-4.46191e-06	0.270223	16375.7	10.4264	16365.2
1.46631	18.3437	1.56242	18.4101	-4.8684	16.1016	0.270401	-0.0160965	69469.8	500.355	1	11	0.00503365	0.000273417	0	-0.000350336	0.000286705	5.56908e-06	-11.0748	0.0203684	0.0199891	0.00391257	-4.87525	18.4304	18.3637	1.56633	0.0541219	0.00460982	0.0543179	4.8684	500355	5.87445e+06	5.89572e+06	-85.1316	0.0000000E+000	0.0000000E+000	0.0000000E+000	85.1316	0.0000000E+000	0.0000000E+000	0.0000000E+000	-85.1316	0.0000000E+000	0.0000000E+000	0.0000000E+000	-4.8684	0.0000000E+000	0.0000000E+000	0.0000000E+000	4.8684	11.7406	85.1316	-5.63266e-06	-4.3525e-06	-4.61494e-09	-4.34788e-06	0.270114	16798.8	17.8117	16780.9
1.00006	18.6136	1.46953	18.6715	-4.51408	19.277	0.270399	-0.0153188	108297	670.826	1	12	0.00503546	0.000269686	0	-0.000355534	5.7615e-05	2.21894e-06	-8.65973	0.00822787	0.00813407	0.00123884	-4.51591	18.6797	18.6218	1.47077	0.0533913	0.00421519	0.0535574	4.51408	670826	8.49695e+06	8.52339e+06	-85.4859	0.0000000E+000	0.0000000E+000	0.0000000E+000	85.4859	0.0000000E+000	0.0000000E+000	0.0000000E+000	-85.4859	0.0000000E+000	0.0000000E+000	0.0000000E+000	-4.51408	0.0000000E+000	0.0000000E+000	0.0000000E+000	4.51408	12.6664	85.4859	-5.19753e-06	-4.14219e-06	-8.82595e-10	-4.14131e-06	0.270341	17651.4	3.76106	17647.6
0.681362	18.9014	1.38574	18.9521	-4.1931	22.3892	0.270398	-0.0144308	168562	901.177	1	12	0.00503459	0.000265648	0	-0.000357334	0.000229433	1.74967e-06	42.6413	0.00658641	0.00484502	-0.00446168	-4.17858	18.9566	18.9062	1.38128	0.0526234	0.00385805	0.0527646	4.1931	901177	1.2292e+07	1.23249e+07	-85.8069	0.0000000E+000	0.0000000E+000	0.0000000E+000	85.8069	0.0000000E+000	0.0000000E+000	0.0000000E+000	-85.8069	0.0000000E+000	0.0000000E+000	0.0000000E+000	-4.1931	0.0000000E+000	0.0000000E+000	0.0000000E+000	4.1931	13.6399	85.8069	-1.80059e-06	-3.90205e-06	-3.31089e-09	-3.89874e-06	0.270168	18737.6	15.8988	18721.7
0.464091	19.2033	1.36216	19.2515	-4.05741	26.9458	0.270395	-0.0127388	251762	1260.42	1	12	0.00503408	0.00026149	0	-0.000368167	-5.69301e-05	1.67498e-06	-12.2178	0.00640552	0.00626044	0.00135559	-4.06011	19.2579	19.2095	1.36351	0.0518138	0.00367534	0.051944	4.05741	1.26042e+06	1.7769e+07	1.78136e+07	-85.9426	0.0000000E+000	0.0000000E+000	0.0000000E+000	85.9426	0.0000000E+000	0.0000000E+000	0.0000000E+000	-85.9426	0.0000000E+000	0.0000000E+000	0.0000000E+000	-4.05741	0.0000000E+000	0.0000000E+000	0.0000000E+000	4.05741	14.0977	85.9426	-1.08326e-05	-3.4445e-06	7.25218e-10	-3.44522e-06	0.270452	21226.2	4.46904	21230.6
0.316193	19.5057	1.37209	19.5539	-4.02374	33.6218	0.270394	-0.0104904	366847	1806.28	1	12	0.00503436	0.000257461	0	-0.000397687	0.000229433	1.36198e-06	-62.8816	0.00529003	0.00241136	0.00470848	-4.037	19.5566	19.5081	1.3768	0.0510147	0.00358853	0.0511408	4.02374	1.80628e+06	2.56781e+07	2.57416e+07	-85.9763	0.0000000E+000	0.0000000E+000	0.0000000E+000	85.9763	0.0000000E+000	0.0000000E+000	0.0000000E+000	-85.9763	0.0000000E+000	0.0000000E+000	0.0000000E+000	-4.02374	0.0000000E+000	0.0000000E+000	0.0000000E+000	4.02374	14.216	85.9763	-2.952e-05	-2.83653e-06	-2.40683e-09	-2.83413e-06	0.270165	25775.5	21.8708	25753.6
0.215268	19.8251	1.44806	19.8779	-4.17756	43.4154	0.270393	-0.00872274	510569	2709.48	1	12	0.00503635	0.000253364	0	-0.000452479	9.57967e-05	2.33919e-06	-24.9583	0.00923252	0.00837034	0.00389575	-4.187	19.8866	19.8335	1.45196	0.0501734	0.00366475	0.0503071	4.17756	2.70948e+06	3.70949e+07	3.71937e+07	-85.8224	0.0000000E+000	0.0000000E+000	0.0000000E+000	85.8224	0.0000000E+000	0.0000000E+000	0.0000000E+000	-85.8224	0.0000000E+000	0.0000000E+000	0.0000000E+000	-4.17756	0.0000000E+000	0.0000000E+000	0.0000000E+000	4.17756	13.6908	85.8224	-5.47924e-05	-2.35856e-06	-8.3561e-10	-2.35773e-06	0.270297	30998.6	10.9824	30987.6
0.146929	20.1637	1.58191	20.2257	-4.48584	57.7537	0.270394	-0.00758774	684751	4188.78	1	12	0.00503597	0.000248989	0	-0.000530748	0.000343978	1.46041e-06	20.4492	0.00586534	0.00549572	-0.00204922	-4.47884	20.231	20.1692	1.57986	0.0492907	0.00386701	0.0494421	4.48584	4.18878e+06	5.33922e+07	5.35563e+07	-85.5142	0.0000000E+000	0.0000000E+000	0.0000000E+000	85.5142	0.0000000E+000	0.0000000E+000	0.0000000E+000	-85.5142	0.0000000E+000	0.0000000E+000	0.0000000E+000	-4.48584	0.0000000E+000	0.0000000E+000	0.0000000E+000	4.48584	12.7465	85.5142	-7.8269e-05	-2.05168e-06	-2.61001e-09	-2.04907e-06	0.27005	35635.7	45.3334	35590.4
0.0999041	20.554	1.85458	20.6375	-5.15582	78.8299	0.27039	-0.00729579	858996	6936.95	1	12	0.00503486	0.000243967	0	-0.000618048	7.67059e-05	1.90705e-06	-12.0709	0.00781683	0.00764399	0.00163467	-5.15843	20.6452	20.5616	1.85621	0.0482595	0.00435444	0.0484555	5.15582	6.93696e+06	7.6881e+07	7.71934e+07	-84.8442	0.0000000E+000	0.0000000E+000	0.0000000E+000	84.8442	0.0000000E+000	0.0000000E+000	0.0000000E+000	-84.8442	0.0000000E+000	0.0000000E+000	0.0000000E+000	-5.15582	0.0000000E+000	0.0000000E+000	0.0000000E+000	5.15582	11.0828	84.8442	-8.73001e-05	-1.97271e-06	-5.5963e-10	-1.97215e-06	0.270313	37061.1	10.5137	37050.6
0.0680626	20.9793	2.30409	21.1054	-6.2675	109.756	0.270393	-0.00670441	1.01487e+06	12095.5	1	12	0.00503457	0.000238544	0	-0.000688778	0.000305796	2.40655e-06	24.4161	0.0100885	0.00918626	-0.00417019	-6.25353	21.1141	20.9884	2.29992	0.047098	0.00517264	0.0473812	6.2675	1.20955e+07	1.10132e+08	1.10794e+08	-83.7325	0.0000000E+000	0.0000000E+000	0.0000000E+000	83.7325	0.0000000E+000	0.0000000E+000	0.0000000E+000	-83.7325	0.0000000E+000	0.0000000E+000	0.0000000E+000	-6.2675	0.0000000E+000	0.0000000E+000	0.0000000E+000	6.2675	9.10523	83.7325	-7.07295e-05	-1.81283e-06	-2.05018e-09	-1.81078e-06	0.270088	40330.7	45.6112	40285.1
0.0464052	21.4101	2.98232	21.6168	-7.92999	155.108	0.270391	-0.00582081	1.15e+06	21888.9	1	12	0.00503395	0.000232872	0	-0.00069094	-3.78392e-05	1.92101e-06	48.6694	0.00824922	0.0054478	-0.00619444	-7.91174	21.6213	21.4155	2.97612	0.0458179	0.00638221	0.0462603	7.92999	2.18889e+07	1.57141e+08	1.58658e+08	-82.07	0.0000000E+000	0.0000000E+000	0.0000000E+000	82.07	0.0000000E+000	0.0000000E+000	0.0000000E+000	-82.07	0.0000000E+000	0.0000000E+000	0.0000000E+000	-7.92999	0.0000000E+000	0.0000000E+000	0.0000000E+000	7.92999	7.17901	82.07	-2.1622e-06	-1.5739e-06	2.20255e-10	-1.57412e-06	0.270429	46452.5	6.50067	46459
0.0315922	21.9099	3.85018	22.2456	-9.9667	221.713	0.270392	-0.00392449	1.30846e+06	39195.1	1	12	0.00503414	0.000226298	0	-0.000580425	0.000153069	3.62982e-06	-5.64488	0.01604	0.0159623	0.00157774	-9.96358	22.2616	21.9259	3.85176	0.0442742	0.00778021	0.0449526	9.9667	3.91951e+07	2.23044e+08	2.26462e+08	-80.0333	0.0000000E+000	0.0000000E+000	0.0000000E+000	80.0333	0.0000000E+000	0.0000000E+000	0.0000000E+000	-80.0333	0.0000000E+000	0.0000000E+000	0.0000000E+000	-9.9667	0.0000000E+000	0.0000000E+000	0.0000000E+000	9.9667	5.69062	80.0333	0.000110515	-1.06115e-06	-6.00718e-10	-1.06055e-06	0.270239	68898.7	39.0036	68859.7
0.0215268	22.6007	5.04187	23.1562	-12.5759	319.451	0.270389	-0.00167754	1.46639e+06	69518	1	12	0.00503388	0.000217388	0	-0.000369479	0.000229433	1.82633e-06	-8.44411	0.00840127	0.0083102	0.00123368	-12.5744	23.1646	22.609	5.04311	0.0421489	0.00940278	0.0431849	12.5759	6.9518e+07	3.11621e+08	3.19281e+08	-77.4241	0.0000000E+000	0.0000000E+000	0.0000000E+000	77.4241	0.0000000E+000	0.0000000E+000	0.0000000E+000	-77.4241	0.0000000E+000	0.0000000E+000	0.0000000E+000	-12.5759	0.0000000E+000	0.0000000E+000	0.0000000E+000	12.5759	4.48259	77.4241	0.000210946	-4.53589e-07	-3.84883e-10	-4.53204e-07	0.270159	161181	136.767	161045
0.0146812	23.5781	6.82947	24.5473	-16.1538	462.754	0.270387	-0.00028226	1.58735e+06	122868	1	12	0.00503679	0.000205187	0	-0.000190981	-5.69301e-05	2.00382e-06	11.6344	0.0097658	0.00956516	-0.00196943	-16.1432	24.556	23.5877	6.8275	0.0391293	0.0113339	0.0407377	16.1538	1.22868e+08	4.24191e+08	4.41627e+08	-73.8462	0.0000000E+000	0.0000000E+000	0.0000000E+000	73.8462	0.0000000E+000	0.0000000E+000	0.0000000E+000	-73.8462	0.0000000E+000	0.0000000E+000	0.0000000E+000	-16.1538	0.0000000E+000	0.0000000E+000	0.0000000E+000	16.1538	3.45241	73.8462	0.000178498	-7.63193e-08	1.60691e-11	-7.63353e-08	0.270444	957936	201.694	958138
0.0100092	24.5976	9.30502	26.2988	-20.7211	672.936	0.270382	0.000105033	1.70885e+06	213929	1	12	0.00503323	0.000191387	0	-0.000301901	0.00017216	1.36486e-06	-7.02062	0.00713141	0.00707794	0.000871648	-20.7174	26.3057	24.6047	9.30589	0.0355649	0.0134539	0.0380246	20.7211	2.13929e+08	5.65515e+08	6.04626e+08	-69.2789	0.0000000E+000	0.0000000E+000	0.0000000E+000	69.2789	0.0000000E+000	0.0000000E+000	0.0000000E+000	-69.2789	0.0000000E+000	0.0000000E+000	0.0000000E+000	-20.7211	0.0000000E+000	0.0000000E+000	0.0000000E+000	20.7211	2.64348	69.2789	-0.000110919	2.8399e-08	1.80824e-11	2.83809e-08	0.27021	2.57427e+06	1639.11	2.57263e+06