File: txt/18217_R279_UA653_SOC00_C04.mpt
EC-Lab ASCII FILE
Nb header lines : 65

Potentio Electrochemical Impedance Spectroscopy

Run on channel : 4 (SN 66756)
User :
CE vs. WE compliance from -10 V to 10 V
Electrode connection : standard
Potential control : Ewe
Ewe ctrl range : min = -10.00 V, max = 10.00 V
Safety Limits :
	Do not start on E overload
Acquisition started on : 10/08/2025 08:30:46.835
Technique started on : 10/08/2025 08:30:48.888
Loaded Setting File :  C:\Users\Celltest\OneDrive - store-dot.com\Documents\EC-Lab\Data\@Biologic Test Protocols\anode half cell EIS SOC00.mps
Saved on :
	File : 18217_R279_UA653_SOC00_C04.mpr
	Directory : C:\Users\Celltest\OneDrive - store-dot.com\Documents\EC-Lab\Data\Charmaine\
	Host : 169.254.61.224
Device : VMP-3e (SN .003165)
Address : USB
EC-LAB for windows v11.62 (software)
Internet server v27.00 (firmware)
Command interpretor v12.03 (firmware)
Electrode material :
Initial state :
Electrolyte :
Comments :
Electrode surface area : 0.001 cm²
Characteristic mass : 0.001 g
Equivalent Weight : 0.000 g/eq.
Density : 0.000 g/cm3
Volume (V) : 0.001 cm³
Record Ece
Cycle Definition : Charge/Discharge alternance
Mode                Single sine
E (V)               0.0000
vs.                 Eoc
tE (h:m:s)          0:00:0.0000
record              0
dI                  0.000
unit dI             mA
dt (s)              0.000
fi                  100.000
unit fi             kHz
ff                  10.000
unit ff             mHz
Nd                  6
Points              per decade
spacing             Logarithmic
Va (mV)             5.0
pw                  0.10
Na                  2
corr                0
E range min (V)     -10.000
E range max (V)     10.000
I Range             Auto
Bandwidth           5
nc cycles           0
goto Ns'            0
nr cycles           0
inc. cycle          0

freq/Hz	Re(Z)/Ohm	-Im(Z)/Ohm	|Z|/Ohm	Phase(Z)/deg	time/s	<Ewe>/V	<I>/mA	Cs/µF	Cp/µF	cycle number	I Range	|Ewe|/V	|I|/A	Ns	(Q-Qo)/mA.h	<Ece>/V	|Ece|/V	Phase(Zce)/deg	|Zce|/Ohm	Re(Zce)/Ohm	-Im(Zce)/Ohm	Phase(Zwe-ce)/deg	|Zwe-ce|/Ohm	Re(Zwe-ce)/Ohm	-Im(Zwe-ce)/Ohm	Re(Y)/Ohm-1	Im(Y)/Ohm-1	|Y|/Ohm-1	Phase(Y)/deg	Re(C)/nF	Im(C)/nF	|C|/nF	Phase(C)/deg	Re(M)	Im(M)	|M|	Phase(M)/deg	Re(Permittivity)	Im(Permittivity)	|Permittivity|	Phase(Permittivity)/deg	Re(Resistivity)/Ohm.cm	Im(Resistivity)/Ohm.cm	|Resistivity|/Ohm.cm	Phase(Resistivity)/deg	Re(Conductivity)/mS/cm	Im(Conductivity)/mS/cm	|Conductivity|/mS/cm	Phase(Conductivity)/deg	Tan(Delta)	Loss Angle(Delta)/deg	dq/mA.h	Pwe/W	Pce/W	Pwe-ce/W	<Ewe-Ece>/V	Rwe/Ohm	Rce/Ohm	Rwe-ce/Ohm		Ewe-Ece/V
100004	1.32781	0.273491	1.35569	-11.6385	2.05255	0.276201	-0.0328442	5.81918	0.236825	1	9	0.00496634	0.00366334	0	-8.65465e-06	-0.000244821	3.4005e-05	89.9015	0.00928252	1.59651e-05	-0.00928251	-11.2536	1.35386	1.32783	0.264208	0.722468	0.148807	0.737634	11.6385	236.825	1149.8	1173.94	-78.3615	0.0000000E+000	0.0000000E+000	0.0000000E+000	78.3615	0.0000000E+000	0.0000000E+000	0.0000000E+000	-78.3615	0.0000000E+000	0.0000000E+000	0.0000000E+000	-11.6385	0.0000000E+000	0.0000000E+000	0.0000000E+000	11.6385	4.85506	78.3615	-8.65465e-06	-9.0716e-06	8.04096e-09	-9.07964e-06	0.276446	8409.43	7.45401	8416.89
68132	1.39078	0.296891	1.42212	-12.0501	2.55956	0.276202	-0.027548	7.86813	0.342923	1	9	0.0050417	0.00354521	0	-2.36505e-05	-0.000321261	2.82325e-05	94.4943	0.00796355	-0.000624025	-0.00793906	-11.7421	1.41987	1.39016	0.288952	0.687684	0.146801	0.703178	12.0501	342.923	1606.41	1642.61	-77.9499	0.0000000E+000	0.0000000E+000	0.0000000E+000	77.9499	0.0000000E+000	0.0000000E+000	0.0000000E+000	-77.9499	0.0000000E+000	0.0000000E+000	0.0000000E+000	-12.0501	0.0000000E+000	0.0000000E+000	0.0000000E+000	12.0501	4.68447	77.9499	-1.49958e-05	-7.60881e-06	8.85009e-09	-7.61766e-06	0.276523	10026.2	11.6619	10037.9
46420.4	1.46779	0.321517	1.50259	-12.3554	3.06855	0.276207	-0.0336647	10.6637	0.48824	1	9	0.00508062	0.00338124	0	-4.79559e-05	0.000232928	1.98451e-05	38.863	0.00586917	0.00457003	-0.00368267	-12.1814	1.50628	1.47236	0.317834	0.650103	0.142404	0.665516	12.3554	488.24	2228.92	2281.76	-77.6446	0.0000000E+000	0.0000000E+000	0.0000000E+000	77.6446	0.0000000E+000	0.0000000E+000	0.0000000E+000	-77.6446	0.0000000E+000	0.0000000E+000	0.0000000E+000	-12.3554	0.0000000E+000	0.0000000E+000	0.0000000E+000	12.3554	4.56521	77.6446	-2.43054e-05	-9.29843e-06	-7.84145e-09	-9.29059e-06	0.275974	8204.63	6.91904	8197.71
31621.1	1.53829	0.358934	1.57961	-13.134	3.57554	0.276205	-0.0282939	14.0226	0.72403	1	9	0.00505661	0.00320118	0	-4.13911e-05	9.9158e-05	1.64716e-05	20.2718	0.00514548	0.00482677	-0.00178277	-13.0315	1.58391	1.54312	0.357151	0.616507	0.143851	0.633068	13.134	724.031	3102.99	3186.34	-76.866	0.0000000E+000	0.0000000E+000	0.0000000E+000	76.866	0.0000000E+000	0.0000000E+000	0.0000000E+000	-76.866	0.0000000E+000	0.0000000E+000	0.0000000E+000	-13.134	0.0000000E+000	0.0000000E+000	0.0000000E+000	13.134	4.28572	76.866	6.56476e-06	-7.81493e-06	-2.80557e-09	-7.81212e-06	0.276106	9761.99	3.50457	9758.48
21544.7	1.62127	0.401898	1.67034	-13.9225	3.95852	0.276209	-0.0298604	18.3808	1.06411	1	9	0.00516653	0.0030931	0	-5.15384e-05	0.000156488	7.10935e-06	29.7941	0.00229846	0.00199464	-0.00114207	-13.868	1.672	1.62327	0.400756	0.581092	0.144047	0.59868	13.9225	1064.11	4292.64	4422.57	-76.0775	0.0000000E+000	0.0000000E+000	0.0000000E+000	76.0775	0.0000000E+000	0.0000000E+000	0.0000000E+000	-76.0775	0.0000000E+000	0.0000000E+000	0.0000000E+000	-13.9225	0.0000000E+000	0.0000000E+000	0.0000000E+000	13.9225	4.03403	76.0775	-1.01473e-05	-8.24771e-06	-4.6728e-09	-8.24304e-06	0.276052	9249.99	5.24065	9244.75
14678.6	1.71043	0.444405	1.76722	-14.5646	4.21755	0.276202	-0.0248253	24.3981	1.54288	1	9	0.0045869	0.00259554	0	-5.49678e-05	8.00481e-05	1.11569e-05	-116.82	0.00429848	-0.00193941	0.00383609	-14.7008	1.76632	1.70849	0.448241	0.547676	0.142297	0.565859	14.5646	1542.88	5938.26	6135.42	-75.4354	0.0000000E+000	0.0000000E+000	0.0000000E+000	75.4354	0.0000000E+000	0.0000000E+000	0.0000000E+000	-75.4354	0.0000000E+000	0.0000000E+000	0.0000000E+000	-14.5646	0.0000000E+000	0.0000000E+000	0.0000000E+000	14.5646	3.84882	75.4354	-3.42937e-06	-6.85681e-06	-1.98722e-09	-6.85483e-06	0.276122	11125.8	3.22445	11122.6
10002.2	1.81332	0.501915	1.88151	-15.4717	4.60053	0.276196	-0.0365367	31.7025	2.25602	1	9	0.00501339	0.00266456	0	-5.69505e-05	0.000213818	1.14098e-05	-52.0862	0.00428203	0.0026312	0.00337825	-15.5493	1.88494	1.81596	0.505293	0.512229	0.141781	0.531489	15.4717	2256.02	8150.57	8457.03	-74.5283	0.0000000E+000	0.0000000E+000	0.0000000E+000	74.5283	0.0000000E+000	0.0000000E+000	0.0000000E+000	-74.5283	0.0000000E+000	0.0000000E+000	0.0000000E+000	-15.4717	0.0000000E+000	0.0000000E+000	0.0000000E+000	15.4717	3.61281	74.5283	-1.98273e-06	-1.00913e-05	-7.81219e-09	-1.00835e-05	0.275982	7559.42	5.85214	7553.57
6810.42	1.95169	0.546416	2.02674	-15.6407	4.85954	0.276206	-0.0315015	42.7684	3.10867	1	9	0.00484346	0.00238978	0	-5.76768e-05	0.000137378	0.000112951	-141.423	0.0472643	-0.0369498	0.0294725	-16.7395	1.99947	1.91474	0.575889	0.475134	0.133024	0.493404	15.6407	3108.67	11103.6	11530.5	-74.3593	0.0000000E+000	0.0000000E+000	0.0000000E+000	74.3593	0.0000000E+000	0.0000000E+000	0.0000000E+000	-74.3593	0.0000000E+000	0.0000000E+000	0.0000000E+000	-15.6407	0.0000000E+000	0.0000000E+000	0.0000000E+000	15.6407	3.5718	74.3593	-7.2633e-07	-8.7009e-06	-4.32761e-09	-8.69657e-06	0.276068	8768.01	4.36099	8763.65
4646	2.0455	0.659482	2.14919	-17.8696	5.12764	0.276184	-0.0505604	51.9443	4.89097	1	9	0.00466177	0.00216909	0	-6.17718e-05	-0.000416811	1.05132e-05	19.0559	0.00484681	0.00458121	-0.00158244	-17.7921	2.15306	2.05009	0.6579	0.442845	0.142776	0.465292	17.8696	4890.97	15170.3	15939.2	-72.1304	0.0000000E+000	0.0000000E+000	0.0000000E+000	72.1304	0.0000000E+000	0.0000000E+000	0.0000000E+000	-72.1304	0.0000000E+000	0.0000000E+000	0.0000000E+000	-17.8696	0.0000000E+000	0.0000000E+000	0.0000000E+000	17.8696	3.10168	72.1304	-4.09499e-06	-1.3964e-05	2.10741e-08	-1.39851e-05	0.276601	5462.45	8.24381	5470.7
3163.08	2.17287	0.77453	2.30678	-19.6189	5.50064	0.276027	-0.102105	64.9639	7.32378	1	9	0.00458779	0.00198883	0	-6.98778e-05	-0.000206601	6.25841e-06	-13.71	0.00314679	0.00305713	0.000745812	-19.6109	2.30991	2.17592	0.775275	0.408338	0.145554	0.433505	19.6189	7323.78	20546.1	21812.4	-70.3811	0.0000000E+000	0.0000000E+000	0.0000000E+000	70.3811	0.0000000E+000	0.0000000E+000	0.0000000E+000	-70.3811	0.0000000E+000	0.0000000E+000	0.0000000E+000	-19.6189	0.0000000E+000	0.0000000E+000	0.0000000E+000	19.6189	2.8054	70.3811	-8.10597e-06	-2.81838e-05	2.10951e-08	-2.82049e-05	0.276234	2703.36	2.02341	2705.38
2155.69	2.31041	0.916415	2.48552	-21.6356	5.95185	0.276154	-0.00192479	80.5641	10.952	1	9	0.00453831	0.0018259	0	-7.09331e-05	-1.55017e-05	9.96428e-06	-26.6048	0.00545719	0.00487936	0.00244391	-21.6465	2.49095	2.31529	0.918859	0.373986	0.14834	0.402331	21.6356	10952	27611.4	29704.1	-68.3644	0.0000000E+000	0.0000000E+000	0.0000000E+000	68.3644	0.0000000E+000	0.0000000E+000	0.0000000E+000	-68.3644	0.0000000E+000	0.0000000E+000	0.0000000E+000	-21.6356	0.0000000E+000	0.0000000E+000	0.0000000E+000	21.6356	2.52114	68.3644	-1.05528e-06	-5.31538e-07	2.98375e-11	-5.31567e-07	0.276169	143472	8.05371	143480
1468.59	2.48554	1.10166	2.71874	-23.9043	6.40311	0.276153	-0.0172913	98.3719	16.1522	1	9	0.0045282	0.00166555	0	-7.15576e-05	0.000118268	5.8839e-06	38.8683	0.00353271	0.00275053	-0.00221689	-23.8382	2.72036	2.48829	1.09945	0.336267	0.149043	0.367817	23.9043	16152.2	36442.2	39861.3	-66.0957	0.0000000E+000	0.0000000E+000	0.0000000E+000	66.0957	0.0000000E+000	0.0000000E+000	0.0000000E+000	-66.0957	0.0000000E+000	0.0000000E+000	0.0000000E+000	-23.9043	0.0000000E+000	0.0000000E+000	0.0000000E+000	23.9043	2.25617	66.0957	-6.24495e-07	-4.77503e-06	-2.045e-09	-4.77299e-06	0.276034	15970.6	6.83975	15963.8
1000.32	2.69217	1.34852	3.01103	-26.6065	6.85382	0.276141	-0.0118459	117.984	23.6651	1	9	0.00451181	0.00149843	0	-7.40795e-05	-0.000187491	1.07407e-05	-14.9026	0.00716796	0.00692686	0.00184343	-26.5789	3.01805	2.6991	1.35036	0.296943	0.14874	0.332112	26.6065	23665.1	47244.8	52840.4	-63.3935	0.0000000E+000	0.0000000E+000	0.0000000E+000	63.3935	0.0000000E+000	0.0000000E+000	0.0000000E+000	-63.3935	0.0000000E+000	0.0000000E+000	0.0000000E+000	-26.6065	0.0000000E+000	0.0000000E+000	0.0000000E+000	26.6065	1.99639	63.3935	-2.52198e-06	-3.27113e-06	2.221e-09	-3.27336e-06	0.276329	23311.2	15.8276	23327
681.09	2.96247	1.67479	3.40311	-29.481	7.5486	0.276146	-0.0279412	139.526	33.7928	1	10	0.00458315	0.00134675	0	-7.84579e-05	3.60827e-06	8.619e-06	42.0971	0.00639983	0.00474874	-0.00429037	-29.3789	3.40514	2.96722	1.6705	0.255801	0.144614	0.293849	29.481	33792.8	59774.8	68665.7	-60.519	0.0000000E+000	0.0000000E+000	0.0000000E+000	60.519	0.0000000E+000	0.0000000E+000	0.0000000E+000	-60.519	0.0000000E+000	0.0000000E+000	0.0000000E+000	-29.481	0.0000000E+000	0.0000000E+000	0.0000000E+000	29.481	1.76886	60.519	-4.37838e-06	-7.71586e-06	-1.0082e-10	-7.71575e-06	0.276142	9883.09	0.129138	9882.96
463.961	3.2802	2.08821	3.88848	-32.4813	8.00133	0.276144	-0.0274116	164.273	47.3754	1	10	0.00453483	0.00116622	0	-8.23109e-05	-0.000206601	1.74744e-05	85.5623	0.0149838	0.00115937	-0.0149389	-32.2861	3.88146	3.28135	2.07327	0.21694	0.138106	0.25717	32.4813	47375.4	74418.1	88218.3	-57.5187	0.0000000E+000	0.0000000E+000	0.0000000E+000	57.5187	0.0000000E+000	0.0000000E+000	0.0000000E+000	-57.5187	0.0000000E+000	0.0000000E+000	0.0000000E+000	-32.4813	0.0000000E+000	0.0000000E+000	0.0000000E+000	32.4813	1.57082	57.5187	-3.85298e-06	-7.56953e-06	5.66326e-09	-7.57519e-06	0.27635	10074	7.53701	10081.5
316.316	3.76118	2.628	4.58834	-34.9427	8.44901	0.276138	-0.0285754	191.458	62.8079	1	10	0.00456174	0.000994203	0	-8.49487e-05	-3.46116e-05	3.48023e-05	-3.38555	0.0350052	0.0349442	0.00206722	-34.7154	4.6182	3.79612	2.63007	0.178654	0.124829	0.217944	34.9427	62807.9	89890.1	109659	-55.0573	0.0000000E+000	0.0000000E+000	0.0000000E+000	55.0573	0.0000000E+000	0.0000000E+000	0.0000000E+000	-55.0573	0.0000000E+000	0.0000000E+000	0.0000000E+000	-34.9427	0.0000000E+000	0.0000000E+000	0.0000000E+000	34.9427	1.43119	55.0573	-2.63784e-06	-7.89075e-06	9.89041e-10	-7.89174e-06	0.276173	9663.5	1.21124	9664.71
215.345	4.32449	3.28906	5.43315	-37.2554	8.89951	0.276148	-0.0282658	224.706	82.3483	1	10	0.00451163	0.000830389	0	-8.75407e-05	-0.000206601	6.0005e-06	-26.6139	0.00722613	0.00646049	0.00323713	-37.2413	5.44025	4.33095	3.2923	0.146498	0.111421	0.184055	37.2554	82348.4	108272	136030	-52.7446	0.0000000E+000	0.0000000E+000	0.0000000E+000	52.7446	0.0000000E+000	0.0000000E+000	0.0000000E+000	-52.7446	0.0000000E+000	0.0000000E+000	0.0000000E+000	-37.2554	0.0000000E+000	0.0000000E+000	0.0000000E+000	37.2554	1.31481	52.7446	-2.59196e-06	-7.80553e-06	5.83975e-09	-7.81137e-06	0.276354	9769.67	7.30923	9776.98
146.737	5.14759	4.05094	6.5504	-38.2013	9.55754	0.276136	-0.030254	267.747	102.4	1	10	0.00487635	0.000744435	0	-9.25236e-05	4.18282e-05	7.43442e-06	-139.47	0.00998667	-0.00759058	0.00648974	-38.287	6.54846	5.14	4.05743	0.119969	0.0944104	0.152662	38.2013	102400	130121	165581	-51.7987	0.0000000E+000	0.0000000E+000	0.0000000E+000	51.7987	0.0000000E+000	0.0000000E+000	0.0000000E+000	-51.7987	0.0000000E+000	0.0000000E+000	0.0000000E+000	-38.2013	0.0000000E+000	0.0000000E+000	0.0000000E+000	38.2013	1.27072	51.7987	-4.98286e-06	-8.35421e-06	-1.26547e-09	-8.35295e-06	0.276094	9127.26	1.38257	9125.88
100.032	6.26435	4.88421	7.9434	-37.9429	10.0088	0.276145	-0.0284635	325.752	123.158	1	10	0.00487074	0.00061318	0	-9.53658e-05	-0.000130161	1.42924e-05	-3.68696	0.0233086	0.0232604	0.00149887	-37.8485	7.96268	6.28761	4.88571	0.0992804	0.0774072	0.125891	37.9429	123158	157959	200297	-52.0571	0.0000000E+000	0.0000000E+000	0.0000000E+000	52.0571	0.0000000E+000	0.0000000E+000	0.0000000E+000	-52.0571	0.0000000E+000	0.0000000E+000	0.0000000E+000	-37.9429	0.0000000E+000	0.0000000E+000	0.0000000E+000	37.9429	1.28257	52.0571	-2.8422e-06	-7.86006e-06	3.70485e-09	-7.86376e-06	0.276275	9701.73	4.57292	9706.3
68.104	7.76544	5.65233	9.60473	-36.0502	10.4715	0.276155	-0.0256099	413.447	143.187	1	10	0.00487068	0.000507112	0	-9.81323e-05	-0.000187491	8.5063e-06	52.8563	0.016774	0.0101284	-0.013371	-35.9502	9.60507	7.77557	5.63896	0.0841774	0.0612713	0.104115	36.0502	143187	196718	243311	-53.9498	0.0000000E+000	0.0000000E+000	0.0000000E+000	53.9498	0.0000000E+000	0.0000000E+000	0.0000000E+000	-53.9498	0.0000000E+000	0.0000000E+000	0.0000000E+000	-36.0502	0.0000000E+000	0.0000000E+000	0.0000000E+000	36.0502	1.37385	53.9498	-2.76658e-06	-7.07229e-06	4.80164e-09	-7.0771e-06	0.276342	10783.1	7.32104	10790.4
46.4415	9.59514	6.14473	11.3941	-32.6355	10.9086	0.276131	-0.0318207	557.713	162.203	1	10	0.00486457	0.000426939	0	-0.00010214	-0.000359481	4.98509e-06	76.8175	0.0116763	0.00266284	-0.0113686	-32.5801	11.3902	9.5978	6.13336	0.0739086	0.0473311	0.0877651	32.6355	162203	253284	300771	-57.3645	0.0000000E+000	0.0000000E+000	0.0000000E+000	57.3645	0.0000000E+000	0.0000000E+000	0.0000000E+000	-57.3645	0.0000000E+000	0.0000000E+000	0.0000000E+000	-32.6355	0.0000000E+000	0.0000000E+000	0.0000000E+000	32.6355	1.56152	57.3645	-4.00754e-06	-8.78666e-06	1.14389e-08	-8.7981e-06	0.27649	8677.72	11.2971	8689.02
31.6296	11.6547	6.20328	13.2028	-28.0244	11.3385	0.276132	-0.0322534	811.158	179.068	1	10	0.00486278	0.000368315	0	-0.000105411	0.000118268	6.58135e-06	21.3467	0.0178688	0.0166429	-0.00650443	-27.9656	13.2144	11.6714	6.19678	0.0668608	0.035587	0.0757417	28.0244	179068	336433	381120	-61.9756	0.0000000E+000	0.0000000E+000	0.0000000E+000	61.9756	0.0000000E+000	0.0000000E+000	0.0000000E+000	-61.9756	0.0000000E+000	0.0000000E+000	0.0000000E+000	-28.0244	0.0000000E+000	0.0000000E+000	0.0000000E+000	28.0244	1.8788	61.9756	-3.27143e-06	-8.9062e-06	-3.81454e-09	-8.90239e-06	0.276014	8561.35	3.66684	8557.69
21.5517	13.5907	5.82172	14.7852	-23.1883	11.7594	0.276137	-0.0323765	1268.49	196.67	1	10	0.00486596	0.000329111	0	-0.000108772	-0.000111051	6.68003e-06	-53.2513	0.0202972	0.0121439	0.0162635	-23.2277	14.8027	13.6029	5.83798	0.0621715	0.0266317	0.0676354	23.1883	196670	459124	499473	-66.8117	0.0000000E+000	0.0000000E+000	0.0000000E+000	66.8117	0.0000000E+000	0.0000000E+000	0.0000000E+000	-66.8117	0.0000000E+000	0.0000000E+000	0.0000000E+000	-23.1883	0.0000000E+000	0.0000000E+000	0.0000000E+000	23.1883	2.33449	66.8117	-3.36045e-06	-8.94034e-06	3.59545e-09	-8.94394e-06	0.276248	8528.95	3.43001	8532.38
14.6852	15.2953	5.0649	16.1121	-18.3218	12.4692	0.276172	-0.0109706	2139.79	211.45	1	11	0.00486152	0.000301731	0	-0.000109502	-5.37216e-05	4.87152e-06	-52.5933	0.0161452	0.00980773	0.0128249	-18.3541	16.1254	15.3051	5.07772	0.0589189	0.0195104	0.0620652	18.3218	211450	638552	672651	-71.6782	0.0000000E+000	0.0000000E+000	0.0000000E+000	71.6782	0.0000000E+000	0.0000000E+000	0.0000000E+000	-71.6782	0.0000000E+000	0.0000000E+000	0.0000000E+000	-18.3218	0.0000000E+000	0.0000000E+000	0.0000000E+000	18.3218	3.01987	71.6782	-7.30544e-07	-3.02976e-06	5.89357e-10	-3.03035e-06	0.276225	25173.8	4.89688	25178.7
10.0032	16.4956	4.15708	17.0114	-14.1447	12.9198	0.276175	-0.010702	3827.3	228.555	1	11	0.00486268	0.000285849	0	-0.000111849	2.27182e-05	9.54157e-06	-47.2292	0.0333798	0.0226672	0.0245033	-14.2059	17.0394	16.5183	4.18159	0.057002	0.0143651	0.0587842	14.1447	228555	906924	935280	-75.8553	0.0000000E+000	0.0000000E+000	0.0000000E+000	75.8553	0.0000000E+000	0.0000000E+000	0.0000000E+000	-75.8553	0.0000000E+000	0.0000000E+000	0.0000000E+000	-14.1447	0.0000000E+000	0.0000000E+000	0.0000000E+000	14.1447	3.96807	75.8553	-2.34643e-06	-2.95562e-06	-2.4313e-10	-2.95537e-06	0.276152	25806	2.12281	25803.9
6.81719	17.3437	3.34897	17.664	-10.929	13.2595	0.276188	-0.00990321	6971.13	250.58	1	11	0.00485939	0.000275101	0	-0.000112966	-0.000225711	4.44435e-06	-75.2318	0.0161553	0.00411815	0.0156217	-10.9762	17.671	17.3478	3.36459	0.0555854	0.0107333	0.0566122	10.929	250580	1.2977e+06	1.32168e+06	-79.071	0.0000000E+000	0.0000000E+000	0.0000000E+000	79.071	0.0000000E+000	0.0000000E+000	0.0000000E+000	-79.071	0.0000000E+000	0.0000000E+000	0.0000000E+000	-10.929	0.0000000E+000	0.0000000E+000	0.0000000E+000	10.929	5.1788	79.071	-1.11694e-06	-2.73514e-06	2.23526e-09	-2.73738e-06	0.276413	27888.7	22.7917	27911.5
4.63925	17.8739	2.67903	18.0735	-8.52434	13.7435	0.276178	-0.0101114	12805.4	281.361	1	11	0.00485265	0.000268495	0	-0.000111301	-0.000130161	6.4848e-06	33.6133	0.0241524	0.0201139	-0.0133704	-8.47302	18.0915	17.894	2.66566	0.0547183	0.00820146	0.0553295	8.52434	281361	1.87717e+06	1.89814e+06	-81.4757	0.0000000E+000	0.0000000E+000	0.0000000E+000	81.4757	0.0000000E+000	0.0000000E+000	0.0000000E+000	-81.4757	0.0000000E+000	0.0000000E+000	0.0000000E+000	-8.52434	0.0000000E+000	0.0000000E+000	0.0000000E+000	8.52434	6.67177	81.4757	1.66503e-06	-2.79254e-06	1.31611e-09	-2.79386e-06	0.276308	27313.6	12.8728	27326.4
3.1604	18.3058	2.22116	18.4401	-6.91824	14.4365	0.276184	-0.00877912	22672.5	328.953	1	11	0.00486029	0.000263572	0	-0.000113176	-0.000283041	3.85787e-06	-73.3992	0.0146369	0.00418177	0.0140268	-6.95993	18.4459	18.31	2.23518	0.0538349	0.00653213	0.0542298	6.91824	328953	2.71108e+06	2.73097e+06	-83.0818	0.0000000E+000	0.0000000E+000	0.0000000E+000	83.0818	0.0000000E+000	0.0000000E+000	0.0000000E+000	-83.0818	0.0000000E+000	0.0000000E+000	0.0000000E+000	-6.91824	0.0000000E+000	0.0000000E+000	0.0000000E+000	6.91824	8.24155	83.0818	-1.87585e-06	-2.42465e-06	2.48485e-09	-2.42714e-06	0.276467	31459.2	32.2402	31491.4
2.15577	18.6152	1.87777	18.7097	-5.76011	15.4401	0.276186	-0.00844979	39316.5	396.03	1	11	0.00486031	0.000259775	0	-0.000119882	-0.000187491	7.20679e-06	-0.337869	0.0277424	0.0277419	0.000163594	-5.7521	18.7373	18.643	1.87794	0.0531784	0.00536426	0.0534483	5.76011	396030	3.92603e+06	3.94595e+06	-84.2399	0.0000000E+000	0.0000000E+000	0.0000000E+000	84.2399	0.0000000E+000	0.0000000E+000	0.0000000E+000	-84.2399	0.0000000E+000	0.0000000E+000	0.0000000E+000	-5.76011	0.0000000E+000	0.0000000E+000	0.0000000E+000	5.76011	9.91345	84.2399	-6.70549e-06	-2.33372e-06	1.58426e-09	-2.3353e-06	0.276374	32685.6	22.1889	32707.8
1.46631	18.9498	1.66132	19.0225	-5.01029	16.9016	0.276184	-0.00834075	65334.2	498.326	1	11	0.00486677	0.000255843	0	-0.000128213	9.9158e-05	8.21506e-06	-46.0219	0.0321098	0.0222965	0.0231063	-5.07368	19.0467	18.9721	1.68443	0.0523685	0.00459113	0.0525694	5.01029	498327	5.68414e+06	5.70594e+06	-84.9897	0.0000000E+000	0.0000000E+000	0.0000000E+000	84.9897	0.0000000E+000	0.0000000E+000	0.0000000E+000	-84.9897	0.0000000E+000	0.0000000E+000	0.0000000E+000	-5.01029	0.0000000E+000	0.0000000E+000	0.0000000E+000	5.01029	11.4065	84.9897	-8.3311e-06	-2.30359e-06	-8.27053e-10	-2.30276e-06	0.276085	33112.7	11.8884	33100.8
1.00006	19.2429	1.54485	19.3048	-4.58994	20.0766	0.276186	-0.00793335	103017	659.701	1	12	0.00486613	0.000252069	0	-0.000135386	-0.0005888	1.69749e-06	-5.51459	0.00673423	0.00670306	0.000647154	-4.59026	19.3115	19.2496	1.54549	0.0516345	0.00414529	0.0518006	4.58994	659701	8.21736e+06	8.2438e+06	-85.4101	0.0000000E+000	0.0000000E+000	0.0000000E+000	85.4101	0.0000000E+000	0.0000000E+000	0.0000000E+000	-85.4101	0.0000000E+000	0.0000000E+000	0.0000000E+000	-4.58994	0.0000000E+000	0.0000000E+000	0.0000000E+000	4.58994	12.4562	85.4101	-7.17332e-06	-2.19108e-06	4.67116e-09	-2.19575e-06	0.276775	34813.2	74.2183	34887.5
0.681362	19.5395	1.49626	19.5967	-4.37895	23.1877	0.276183	-0.00816372	156112	910.087	1	12	0.00486734	0.000248375	0	-0.000133449	4.18282e-05	3.00871e-06	-51.4235	0.0121136	0.00755353	0.00947009	-4.40486	19.605	19.547	1.50573	0.05088	0.0038962	0.051029	4.37895	910087	1.18847e+07	1.19195e+07	-85.6211	0.0000000E+000	0.0000000E+000	0.0000000E+000	85.6211	0.0000000E+000	0.0000000E+000	0.0000000E+000	-85.6211	0.0000000E+000	0.0000000E+000	0.0000000E+000	-4.37895	0.0000000E+000	0.0000000E+000	0.0000000E+000	4.37895	13.0589	85.6211	1.93757e-06	-2.25468e-06	-3.41473e-10	-2.25434e-06	0.276141	33830.5	5.12367	33825.4
0.464091	19.8368	1.45934	19.8904	-4.20752	27.7434	0.276183	-0.00745515	234996	1264.99	1	12	0.00486685	0.000244683	0	-0.000127542	-0.000111051	2.10315e-06	15.0667	0.00859538	0.0082999	-0.00223431	-4.19935	19.8985	19.8451	1.45711	0.05014	0.00368867	0.0502755	4.20752	1.26499e+06	1.7195e+07	1.72415e+07	-85.7925	0.0000000E+000	0.0000000E+000	0.0000000E+000	85.7925	0.0000000E+000	0.0000000E+000	0.0000000E+000	-85.7925	0.0000000E+000	0.0000000E+000	0.0000000E+000	-4.20752	0.0000000E+000	0.0000000E+000	0.0000000E+000	4.20752	13.593	85.7925	5.90717e-06	-2.05898e-06	8.27905e-10	-2.05981e-06	0.276294	37045.9	14.8959	37060.8
0.316193	20.1427	1.47854	20.1969	-4.19817	34.4179	0.276182	-0.00604046	340435	1824.45	1	12	0.00486447	0.000240852	0	-0.000124935	-0.000111051	2.58412e-06	-82.1982	0.0107291	0.00145644	0.0106297	-4.22794	20.1991	20.1442	1.48917	0.0493797	0.00362463	0.0495125	4.19817	1.82445e+06	2.48551e+07	2.4922e+07	-85.8018	0.0000000E+000	0.0000000E+000	0.0000000E+000	85.8018	0.0000000E+000	0.0000000E+000	0.0000000E+000	-85.8018	0.0000000E+000	0.0000000E+000	0.0000000E+000	-4.19817	0.0000000E+000	0.0000000E+000	0.0000000E+000	4.19817	13.6234	85.8018	2.60672e-06	-1.66827e-06	6.70801e-10	-1.66894e-06	0.276293	45722.1	18.3846	45740.5
0.215268	20.4529	1.56741	20.5129	-4.3823	44.2113	0.276189	-0.00395895	471692	2754.04	1	12	0.00486511	0.000237174	0	-0.000137193	0.000175598	2.16024e-06	-16.7681	0.00910826	0.00872098	0.00262772	-4.38776	20.5218	20.4616	1.57004	0.0486073	0.00372503	0.0487499	4.3823	2.75404e+06	3.59371e+07	3.60424e+07	-85.6177	0.0000000E+000	0.0000000E+000	0.0000000E+000	85.6177	0.0000000E+000	0.0000000E+000	0.0000000E+000	-85.6177	0.0000000E+000	0.0000000E+000	0.0000000E+000	-4.3823	0.0000000E+000	0.0000000E+000	0.0000000E+000	4.3823	13.0489	85.6177	-1.22581e-05	-1.09342e-06	-6.95184e-10	-1.09272e-06	0.276013	69763.1	44.3546	69718.7
0.146929	20.7475	1.7449	20.8207	-4.80737	58.5486	0.276184	-0.00265392	620786	4360.06	1	12	0.00486338	0.000233583	0	-0.000177249	9.9158e-05	2.13402e-06	5.8637	0.00913599	0.00908819	-0.000933354	-4.80272	20.8297	20.7566	1.74397	0.0478601	0.00402512	0.048029	4.80737	4.36006e+06	5.18426e+07	5.20256e+07	-85.1926	0.0000000E+000	0.0000000E+000	0.0000000E+000	85.1926	0.0000000E+000	0.0000000E+000	0.0000000E+000	-85.1926	0.0000000E+000	0.0000000E+000	0.0000000E+000	-4.80737	0.0000000E+000	0.0000000E+000	0.0000000E+000	4.80737	11.8903	85.1926	-4.00564e-05	-7.3297e-07	-2.63158e-10	-7.32707e-07	0.276085	104066	37.3629	104029
0.0999041	21.0675	2.01715	21.1639	-5.46922	79.6268	0.276185	-0.00199495	789766	7174.39	1	12	0.00486806	0.000230017	0	-0.000252627	2.27182e-05	2.55936e-06	3.16452	0.0111268	0.0111099	-0.000614237	-5.4647	21.1749	21.0786	2.01654	0.0470352	0.00450348	0.0472503	5.46922	7.17439e+06	7.49307e+07	7.52734e+07	-84.5308	0.0000000E+000	0.0000000E+000	0.0000000E+000	84.5308	0.0000000E+000	0.0000000E+000	0.0000000E+000	-84.5308	0.0000000E+000	0.0000000E+000	0.0000000E+000	-5.46922	0.0000000E+000	0.0000000E+000	0.0000000E+000	5.46922	10.4442	84.5308	-7.53771e-05	-5.50977e-07	-4.53218e-11	-5.50931e-07	0.276162	138442	11.3878	138430
0.0680626	21.4312	2.44765	21.5705	-6.5155	110.553	0.276185	-0.00191672	955350	12301	1	12	0.00486382	0.000225485	0	-0.000353594	-0.000206601	2.94876e-06	-6.08867	0.0130774	0.0130037	0.00138709	-6.51524	21.5836	21.4442	2.44903	0.0460602	0.00526052	0.0463596	6.5155	1.2301e+07	1.07705e+08	1.08406e+08	-83.4845	0.0000000E+000	0.0000000E+000	0.0000000E+000	83.4845	0.0000000E+000	0.0000000E+000	0.0000000E+000	-83.4845	0.0000000E+000	0.0000000E+000	0.0000000E+000	-6.5155	0.0000000E+000	0.0000000E+000	0.0000000E+000	6.5155	8.75583	83.4845	-0.000100967	-5.29368e-07	3.95996e-10	-5.29764e-07	0.276391	144093	107.789	144201
0.0464052	21.9169	3.11629	22.1374	-8.09242	155.905	0.276185	-0.00318798	1.10057e+06	21809.1	1	12	0.00486586	0.000219803	0	-0.000459766	-0.000244821	1.90632e-06	-13.6697	0.00867284	0.00842717	0.00204961	-8.0946	22.146	21.9254	3.11834	0.0447227	0.00635894	0.0451725	8.09242	2.18091e+07	1.53384e+08	1.54927e+08	-81.9076	0.0000000E+000	0.0000000E+000	0.0000000E+000	81.9076	0.0000000E+000	0.0000000E+000	0.0000000E+000	-81.9076	0.0000000E+000	0.0000000E+000	0.0000000E+000	-8.09242	0.0000000E+000	0.0000000E+000	0.0000000E+000	8.09242	7.03303	81.9076	-0.000106173	-8.80472e-07	7.80484e-10	-8.81252e-07	0.27643	86633.3	76.7951	86710.1
0.0315922	22.4188	4.16121	22.8017	-10.5151	222.51	0.27619	-0.00339982	1.21066e+06	40320.4	1	12	0.00486456	0.000213342	0	-0.000494953	0.000328477	1.70359e-06	10.862	0.00798527	0.0078422	-0.00150478	-10.5078	22.8092	22.4267	4.15971	0.0431198	0.00800358	0.0438563	10.5151	4.03204e+07	2.17229e+08	2.20939e+08	-79.4849	0.0000000E+000	0.0000000E+000	0.0000000E+000	79.4849	0.0000000E+000	0.0000000E+000	0.0000000E+000	-79.4849	0.0000000E+000	0.0000000E+000	0.0000000E+000	-10.5151	0.0000000E+000	0.0000000E+000	0.0000000E+000	10.5151	5.38757	79.4849	-3.51871e-05	-9.38995e-07	-1.11676e-09	-9.37878e-07	0.275861	81236.7	96.6162	81140
0.0215268	22.948	5.51988	23.6025	-13.5249	320.249	0.276185	-0.00262537	1.3394e+06	73258	1	12	0.00486713	0.000206212	0	-0.000369864	-0.000111051	2.50072e-06	-16.7601	0.0121269	0.0116118	0.00349698	-13.5266	23.6146	22.9596	5.52338	0.0411935	0.00990864	0.0423684	13.5249	7.3258e+07	3.04557e+08	3.13244e+08	-76.4751	0.0000000E+000	0.0000000E+000	0.0000000E+000	76.4751	0.0000000E+000	0.0000000E+000	0.0000000E+000	-76.4751	0.0000000E+000	0.0000000E+000	0.0000000E+000	-13.5249	0.0000000E+000	0.0000000E+000	0.0000000E+000	13.5249	4.15733	76.4751	0.000125089	-7.25088e-07	2.91551e-10	-7.25379e-07	0.276296	105198	42.2994	105241
0.0146812	23.8043	7.21899	24.8748	-16.8707	463.55	0.27618	-0.00145845	1.5017e+06	126478	1	12	0.00486291	0.000195495	0	-5.21225e-05	8.00481e-05	3.05356e-06	-21.6088	0.0156196	0.0145219	0.0057522	-16.8737	24.8904	23.8188	7.22474	0.0384711	0.0116669	0.0402013	16.8707	1.26478e+08	4.17056e+08	4.35812e+08	-73.1293	0.0000000E+000	0.0000000E+000	0.0000000E+000	73.1293	0.0000000E+000	0.0000000E+000	0.0000000E+000	-73.1293	0.0000000E+000	0.0000000E+000	0.0000000E+000	-16.8707	0.0000000E+000	0.0000000E+000	0.0000000E+000	16.8707	3.29745	73.1293	0.000317742	-4.02794e-07	-1.16746e-10	-4.02678e-07	0.2761	189366	54.8858	189311
0.0100092	25.1069	9.58173	26.8731	-20.8887	673.732	0.276185	-0.00033872	1.6595e+06	210974	1	12	0.0048652	0.000181043	0	0.000333984	-0.000149271	3.18484e-06	-13.3656	0.0175916	0.0171151	0.00406654	-20.8838	26.8906	25.124	9.58579	0.0347661	0.013268	0.0372119	20.8887	2.10974e+08	5.52813e+08	5.91703e+08	-69.1113	0.0000000E+000	0.0000000E+000	0.0000000E+000	69.1113	0.0000000E+000	0.0000000E+000	0.0000000E+000	-69.1113	0.0000000E+000	0.0000000E+000	0.0000000E+000	-20.8887	0.0000000E+000	0.0000000E+000	0.0000000E+000	20.8887	2.62029	69.1113	0.000386106	-9.35494e-08	5.05612e-11	-9.35999e-08	0.276334	815377	440.692	815818