File: txt/18214_R279_UA653_SOC00_C01.mpt
EC-Lab ASCII FILE
Nb header lines : 65

Potentio Electrochemical Impedance Spectroscopy

Run on channel : 1 (SN 66354)
User :
CE vs. WE compliance from -10 V to 10 V
Electrode connection : standard
Potential control : Ewe
Ewe ctrl range : min = -10.00 V, max = 10.00 V
Safety Limits :
	Do not start on E overload
Acquisition started on : 10/08/2025 08:30:18.980
Technique started on : 10/08/2025 08:30:20.891
Loaded Setting File :  C:\Users\Celltest\OneDrive - store-dot.com\Documents\EC-Lab\Data\@Biologic Test Protocols\anode half cell EIS SOC00.mps
Saved on :
	File : 18214_R279_UA653_SOC00_C01.mpr
	Directory : C:\Users\Celltest\OneDrive - store-dot.com\Documents\EC-Lab\Data\Charmaine\
	Host : 169.254.61.224
Device : VMP-3e (SN .003165)
Address : USB
EC-LAB for windows v11.62 (software)
Internet server v27.00 (firmware)
Command interpretor v12.03 (firmware)
Electrode material :
Initial state :
Electrolyte :
Comments :
Electrode surface area : 0.001 cm²
Characteristic mass : 0.001 g
Equivalent Weight : 0.000 g/eq.
Density : 0.000 g/cm3
Volume (V) : 0.001 cm³
Record Ece
Cycle Definition : Charge/Discharge alternance
Mode                Single sine
E (V)               0.0000
vs.                 Eoc
tE (h:m:s)          0:00:0.0000
record              0
dI                  0.000
unit dI             mA
dt (s)              0.000
fi                  100.000
unit fi             kHz
ff                  10.000
unit ff             mHz
Nd                  6
Points              per decade
spacing             Logarithmic
Va (mV)             5.0
pw                  0.10
Na                  2
corr                0
E range min (V)     -10.000
E range max (V)     10.000
I Range             Auto
Bandwidth           5
nc cycles           0
goto Ns'            0
nr cycles           0
inc. cycle          0

freq/Hz	Re(Z)/Ohm	-Im(Z)/Ohm	|Z|/Ohm	Phase(Z)/deg	time/s	<Ewe>/V	<I>/mA	Cs/µF	Cp/µF	cycle number	I Range	|Ewe|/V	|I|/A	Ns	(Q-Qo)/mA.h	<Ece>/V	|Ece|/V	Phase(Zce)/deg	|Zce|/Ohm	Re(Zce)/Ohm	-Im(Zce)/Ohm	Phase(Zwe-ce)/deg	|Zwe-ce|/Ohm	Re(Zwe-ce)/Ohm	-Im(Zwe-ce)/Ohm	Re(Y)/Ohm-1	Im(Y)/Ohm-1	|Y|/Ohm-1	Phase(Y)/deg	Re(C)/nF	Im(C)/nF	|C|/nF	Phase(C)/deg	Re(M)	Im(M)	|M|	Phase(M)/deg	Re(Permittivity)	Im(Permittivity)	|Permittivity|	Phase(Permittivity)/deg	Re(Resistivity)/Ohm.cm	Im(Resistivity)/Ohm.cm	|Resistivity|/Ohm.cm	Phase(Resistivity)/deg	Re(Conductivity)/mS/cm	Im(Conductivity)/mS/cm	|Conductivity|/mS/cm	Phase(Conductivity)/deg	Tan(Delta)	Loss Angle(Delta)/deg	dq/mA.h	Pwe/W	Pce/W	Pwe-ce/W	<Ewe-Ece>/V	Rwe/Ohm	Rce/Ohm	Rwe-ce/Ohm		Ewe-Ece/V
100004	1.32596	0.256749	1.35059	-10.9587	1.91053	0.273323	0.111796	6.19862	0.224009	1	9	0.00464643	0.00344029	0	1.33512e-05	0.000174035	3.81849e-05	83.7712	0.0110993	0.00120426	-0.0110338	-10.4891	1.34972	1.32717	0.245715	0.726914	0.140754	0.740416	10.9587	224.009	1156.88	1178.36	-79.0413	0.0000000E+000	0.0000000E+000	0.0000000E+000	79.0413	0.0000000E+000	0.0000000E+000	0.0000000E+000	-79.0413	0.0000000E+000	0.0000000E+000	0.0000000E+000	-10.9587	0.0000000E+000	0.0000000E+000	0.0000000E+000	10.9587	5.16443	79.0413	1.33512e-05	3.05563e-05	1.94564e-08	3.05369e-05	0.273149	2444.84	1.55673	2443.28
68132	1.38585	0.284487	1.41475	-11.6005	2.29356	0.273321	0.114031	8.2112	0.332025	1	9	0.00547091	0.00386705	0	1.45189e-05	0.000345731	3.5376e-05	72.3187	0.00914806	0.00277848	-0.00871591	-11.2323	1.41575	1.38863	0.275771	0.6924	0.142135	0.706838	11.6005	332.025	1617.43	1651.16	-78.3995	0.0000000E+000	0.0000000E+000	0.0000000E+000	78.3995	0.0000000E+000	0.0000000E+000	0.0000000E+000	-78.3995	0.0000000E+000	0.0000000E+000	0.0000000E+000	-11.6005	0.0000000E+000	0.0000000E+000	0.0000000E+000	11.6005	4.87141	78.3995	1.16774e-06	3.1167e-05	3.94241e-08	3.11276e-05	0.272975	2396.9	3.03191	2393.87
46420.4	1.45677	0.306339	1.48863	-11.8755	2.80057	0.273322	0.101402	11.192	0.473958	1	9	0.00528858	0.00355264	0	2.50404e-05	0.000441118	1.70507e-05	59.3127	0.00479945	0.00244942	-0.00412736	-11.7008	1.49019	1.45922	0.302212	0.65738	0.138238	0.671758	11.8755	473.958	2253.87	2303.16	-78.1245	0.0000000E+000	0.0000000E+000	0.0000000E+000	78.1245	0.0000000E+000	0.0000000E+000	0.0000000E+000	-78.1245	0.0000000E+000	0.0000000E+000	0.0000000E+000	-11.8755	0.0000000E+000	0.0000000E+000	0.0000000E+000	11.8755	4.75541	78.1245	1.05215e-05	2.77153e-05	4.47301e-08	2.76706e-05	0.272881	2695.44	4.3502	2691.09
31621.1	1.52754	0.345687	1.56616	-12.7515	3.30752	0.273329	0.109635	14.5599	0.709336	1	9	0.00515395	0.00329081	0	5.11176e-05	0.00021219	1.79121e-05	29.3848	0.00544306	0.00474278	-0.00267076	-12.6182	1.5702	1.53228	0.343016	0.622756	0.140932	0.638503	12.7515	709.336	3134.44	3213.7	-77.2485	0.0000000E+000	0.0000000E+000	0.0000000E+000	77.2485	0.0000000E+000	0.0000000E+000	0.0000000E+000	-77.2485	0.0000000E+000	0.0000000E+000	0.0000000E+000	-12.7515	0.0000000E+000	0.0000000E+000	0.0000000E+000	12.7515	4.41884	77.2485	2.60772e-05	2.99664e-05	2.32634e-08	2.99432e-05	0.273117	2493.08	1.93542	2491.15
21544.7	1.60869	0.380177	1.65301	-13.2966	3.69054	0.273323	0.108406	19.431	1.02782	1	9	0.00526798	0.00318691	0	6.03132e-05	0.000345731	6.22615e-06	-3.93909	0.00195366	0.00194905	0.000134209	-13.2856	1.65493	1.61064	0.380311	0.588741	0.139135	0.604959	13.2966	1027.82	4349.15	4468.95	-76.7034	0.0000000E+000	0.0000000E+000	0.0000000E+000	76.7034	0.0000000E+000	0.0000000E+000	0.0000000E+000	-76.7034	0.0000000E+000	0.0000000E+000	0.0000000E+000	-13.2966	0.0000000E+000	0.0000000E+000	0.0000000E+000	13.2966	4.23143	76.7034	9.19555e-06	2.96297e-05	3.74792e-08	2.95922e-05	0.272977	2521.3	3.18924	2518.11
14678.6	1.68694	0.426622	1.74005	-14.1924	4.07353	0.273322	0.109784	25.4151	1.52777	1	9	0.00533653	0.00306689	0	6.48623e-05	4.04943e-05	6.86561e-06	-20.1933	0.00223862	0.00210102	0.000772747	-14.2001	1.74227	1.68904	0.427395	0.557157	0.140903	0.574697	14.1924	1527.77	6041.06	6231.25	-75.8076	0.0000000E+000	0.0000000E+000	0.0000000E+000	75.8076	0.0000000E+000	0.0000000E+000	0.0000000E+000	-75.8076	0.0000000E+000	0.0000000E+000	0.0000000E+000	-14.1924	0.0000000E+000	0.0000000E+000	0.0000000E+000	14.1924	3.95417	75.8076	4.54913e-06	3.00064e-05	4.44562e-09	3.00019e-05	0.273281	2489.63	0.368854	2489.26
10002.2	1.78075	0.484723	1.84554	-15.2271	4.45656	0.273332	0.105276	32.8269	2.26448	1	9	0.0050695	0.00274689	0	7.75081e-05	2.1417e-05	6.29917e-06	-19.0337	0.0022932	0.00216783	0.000747868	-15.2318	1.84783	1.78292	0.485471	0.522823	0.142313	0.541846	15.2271	2264.48	8319.13	8621.82	-74.7729	0.0000000E+000	0.0000000E+000	0.0000000E+000	74.7729	0.0000000E+000	0.0000000E+000	0.0000000E+000	-74.7729	0.0000000E+000	0.0000000E+000	0.0000000E+000	-15.2271	0.0000000E+000	0.0000000E+000	0.0000000E+000	15.2271	3.67375	74.7729	1.26458e-05	2.87754e-05	2.2547e-09	2.87731e-05	0.273311	2596.34	0.203436	2596.13
6810.42	1.88711	0.54448	1.96408	-16.0942	4.71552	0.273322	0.107735	42.9205	3.29843	1	9	0.00508832	0.00259068	0	8.52792e-05	-7.39696e-05	2.27898e-05	-104.152	0.00879685	-0.00215082	0.00852986	-16.3507	1.9644	1.88495	0.553009	0.489188	0.141144	0.509143	16.0942	3298.43	11432	11898.3	-73.9058	0.0000000E+000	0.0000000E+000	0.0000000E+000	73.9058	0.0000000E+000	0.0000000E+000	0.0000000E+000	-73.9058	0.0000000E+000	0.0000000E+000	0.0000000E+000	-16.0942	0.0000000E+000	0.0000000E+000	0.0000000E+000	16.0942	3.46589	73.9058	7.77111e-06	2.94463e-05	-7.96911e-09	2.94543e-05	0.273396	2536.98	0.686588	2537.67
4646	1.99142	0.635368	2.09032	-17.6954	4.98062	0.2733	0.0910078	53.9157	4.98126	1	9	0.00501557	0.00239942	0	8.96167e-05	-9.30469e-05	3.72479e-05	-46.6587	0.0155237	0.0106546	0.01129	-17.9001	2.10392	2.00208	0.646658	0.45576	0.145411	0.478395	17.6954	4981.26	15612.7	16388	-72.3046	0.0000000E+000	0.0000000E+000	0.0000000E+000	72.3046	0.0000000E+000	0.0000000E+000	0.0000000E+000	-72.3046	0.0000000E+000	0.0000000E+000	0.0000000E+000	-17.6954	0.0000000E+000	0.0000000E+000	0.0000000E+000	17.6954	3.13428	72.3046	4.33749e-06	2.48724e-05	-8.46799e-09	2.48809e-05	0.273393	3003.03	1.02241	3004.06
3163.08	2.13246	0.746628	2.25939	-19.2964	5.35469	0.273173	0.039634	67.3916	7.35921	1	9	0.00497798	0.00220324	0	9.51062e-05	-0.000150279	5.31641e-06	-6.70263	0.002413	0.00239651	0.000281636	-19.2831	2.26175	2.13486	0.746909	0.417733	0.146259	0.442597	19.2964	7359.21	21018.8	22269.9	-70.7036	0.0000000E+000	0.0000000E+000	0.0000000E+000	70.7036	0.0000000E+000	0.0000000E+000	0.0000000E+000	-70.7036	0.0000000E+000	0.0000000E+000	0.0000000E+000	-19.2964	0.0000000E+000	0.0000000E+000	0.0000000E+000	19.2964	2.85613	70.7036	5.48946e-06	1.08269e-05	-5.95616e-09	1.08329e-05	0.273323	6892.38	3.79166	6896.17
2155.69	2.27834	0.887781	2.44519	-21.289	5.80579	0.273208	0.0683944	83.1626	10.9626	1	9	0.00493248	0.00201721	0	0.000102352	0.000479272	6.45362e-06	25.3418	0.00319928	0.00289141	-0.00136934	-21.2345	2.44739	2.28123	0.886411	0.381058	0.148484	0.408966	21.289	10962.6	28133.6	30194	-68.711	0.0000000E+000	0.0000000E+000	0.0000000E+000	68.711	0.0000000E+000	0.0000000E+000	0.0000000E+000	-68.711	0.0000000E+000	0.0000000E+000	0.0000000E+000	-21.289	0.0000000E+000	0.0000000E+000	0.0000000E+000	21.289	2.56633	68.711	7.2463e-06	1.86859e-05	3.27795e-08	1.86531e-05	0.272728	3994.59	7.00748	3987.58
1468.59	2.44509	1.06233	2.6659	-23.4837	6.25703	0.273206	0.0708904	102.014	16.1991	1	9	0.00489838	0.00183742	0	0.000112933	0.000326654	5.56073e-06	48.7849	0.00302638	0.00199404	-0.00227657	-23.4218	2.66682	2.44709	1.06005	0.344039	0.149476	0.375108	23.4837	16199.1	37284.4	40651.4	-66.5163	0.0000000E+000	0.0000000E+000	0.0000000E+000	66.5163	0.0000000E+000	0.0000000E+000	0.0000000E+000	-66.5163	0.0000000E+000	0.0000000E+000	0.0000000E+000	-23.4837	0.0000000E+000	0.0000000E+000	0.0000000E+000	23.4837	2.30163	66.5163	1.05804e-05	1.93677e-05	2.31566e-08	1.93445e-05	0.272879	3853.92	4.60787	3849.31
1000.32	2.6307	1.30041	2.93456	-26.3042	6.7088	0.273214	0.0716355	122.349	24.0257	1	9	0.00487086	0.00165983	0	0.000121829	0.000231267	9.2528e-06	-0.982738	0.00557455	0.00557373	9.56101e-05	-26.2577	2.9396	2.63627	1.30051	0.305482	0.151006	0.340767	26.3042	24025.7	48603.4	54217.4	-63.6958	0.0000000E+000	0.0000000E+000	0.0000000E+000	63.6958	0.0000000E+000	0.0000000E+000	0.0000000E+000	-63.6958	0.0000000E+000	0.0000000E+000	0.0000000E+000	-26.3042	0.0000000E+000	0.0000000E+000	0.0000000E+000	26.3042	2.02297	63.6958	8.89585e-06	1.95718e-05	1.65669e-08	1.95552e-05	0.272983	3813.94	3.22839	3810.72
681.09	2.89962	1.61827	3.32063	-29.1658	7.40453	0.273243	-0.00760338	144.399	34.2946	1	10	0.00492686	0.00148371	0	0.000125412	-7.39696e-05	5.78668e-06	-107.073	0.00390014	-0.00114503	0.00372827	-29.2316	3.32145	2.89847	1.622	0.262966	0.146761	0.301148	29.1658	34294.6	61449.1	70371.2	-60.8342	0.0000000E+000	0.0000000E+000	0.0000000E+000	60.8342	0.0000000E+000	0.0000000E+000	0.0000000E+000	-60.8342	0.0000000E+000	0.0000000E+000	0.0000000E+000	-29.1658	0.0000000E+000	0.0000000E+000	0.0000000E+000	29.1658	1.7918	60.8342	3.58353e-06	-2.07757e-06	5.62419e-10	-2.07813e-06	0.273317	35937	9.72851	35946.7
463.961	3.22216	2.02664	3.80652	-32.1686	7.85632	0.27324	-0.00767047	169.263	47.9799	1	10	0.00488586	0.00128355	0	0.000124586	-0.000112124	8.86869e-06	17.2721	0.00690951	0.00659793	-0.0020515	-32.0897	3.81102	3.22876	2.02459	0.222377	0.139869	0.262707	32.1686	47979.9	76283.3	90117.8	-57.8314	0.0000000E+000	0.0000000E+000	0.0000000E+000	57.8314	0.0000000E+000	0.0000000E+000	0.0000000E+000	-57.8314	0.0000000E+000	0.0000000E+000	0.0000000E+000	-32.1686	0.0000000E+000	0.0000000E+000	0.0000000E+000	32.1686	1.5899	57.8314	-8.25873e-07	-2.09588e-06	8.60046e-10	-2.09674e-06	0.273352	35622.3	14.6176	35636.9
316.316	3.66929	2.53031	4.45715	-34.5898	8.30406	0.273239	-0.00822579	198.85	64.0854	1	10	0.00486765	0.0010921	0	0.000123764	5.95716e-05	3.42176e-05	-33.6086	0.031332	0.0260945	0.0173428	-34.583	4.48847	3.69538	2.54765	0.1847	0.127368	0.224359	34.5898	64085.4	92932.4	112887	-55.4102	0.0000000E+000	0.0000000E+000	0.0000000E+000	55.4102	0.0000000E+000	0.0000000E+000	0.0000000E+000	-55.4102	0.0000000E+000	0.0000000E+000	0.0000000E+000	-34.5898	0.0000000E+000	0.0000000E+000	0.0000000E+000	34.5898	1.45013	55.4102	-8.21889e-07	-2.24761e-06	-4.90023e-10	-2.24712e-06	0.273179	33217.3	7.24205	33210.1
215.345	4.2394	3.14652	5.2795	-36.5832	8.75458	0.273238	-0.00903081	234.885	83.4318	1	10	0.00483613	0.000916021	0	0.000123818	-9.30469e-05	9.80913e-06	13.2267	0.0107084	0.0104243	-0.00245014	-36.4945	5.28642	4.24982	3.14407	0.152096	0.112887	0.189412	36.5832	83431.8	112410	139989	-53.4168	0.0000000E+000	0.0000000E+000	0.0000000E+000	53.4168	0.0000000E+000	0.0000000E+000	0.0000000E+000	-53.4168	0.0000000E+000	0.0000000E+000	0.0000000E+000	-36.5832	0.0000000E+000	0.0000000E+000	0.0000000E+000	36.5832	1.34733	53.4168	5.36817e-08	-2.46756e-06	8.40289e-10	-2.4684e-06	0.273331	30256.2	10.3033	30266.5
146.737	5.05994	3.84936	6.35772	-37.2621	9.20049	0.273227	-0.0096234	281.767	103.292	1	10	0.0048291	0.000759565	0	0.000123473	9.77262e-05	1.21676e-05	92.2876	0.0160191	-0.000639413	-0.0160063	-37.1506	6.34753	5.0593	3.83336	0.125182	0.0952326	0.157289	37.2621	103292	135776	170600	-52.7379	0.0000000E+000	0.0000000E+000	0.0000000E+000	52.7379	0.0000000E+000	0.0000000E+000	0.0000000E+000	-52.7379	0.0000000E+000	0.0000000E+000	0.0000000E+000	-37.2621	0.0000000E+000	0.0000000E+000	0.0000000E+000	37.2621	1.31449	52.7379	-3.45511e-07	-2.62937e-06	-9.40458e-10	-2.62843e-06	0.273129	28391.9	10.1551	28381.7
100.032	6.11395	4.60983	7.65708	-37.0158	9.65178	0.273242	-0.00779348	345.141	125.095	1	10	0.00479648	0.000626412	0	0.000121985	0.000193113	6.02129e-05	12.6528	0.0961235	0.0937892	-0.0210551	-36.4719	7.71964	6.20774	4.58877	0.104279	0.0786246	0.130598	37.0158	125095	165912	207787	-52.9842	0.0000000E+000	0.0000000E+000	0.0000000E+000	52.9842	0.0000000E+000	0.0000000E+000	0.0000000E+000	-52.9842	0.0000000E+000	0.0000000E+000	0.0000000E+000	-37.0158	0.0000000E+000	0.0000000E+000	0.0000000E+000	37.0158	1.32628	52.9842	-1.48721e-06	-2.12951e-06	-1.50502e-09	-2.128e-06	0.273049	35060.4	24.7788	35035.6
68.104	7.55369	5.25684	9.20286	-34.8352	10.1145	0.273245	-0.00649278	444.552	145.053	1	10	0.00481142	0.000522818	0	0.000120971	-3.5815e-05	1.01012e-05	55.6795	0.0193206	0.0108934	-0.0159568	-34.7149	9.20271	7.56458	5.24088	0.0891895	0.0620696	0.108662	34.8352	145053	208430	253936	-55.1648	0.0000000E+000	0.0000000E+000	0.0000000E+000	55.1648	0.0000000E+000	0.0000000E+000	0.0000000E+000	-55.1648	0.0000000E+000	0.0000000E+000	0.0000000E+000	-34.8352	0.0000000E+000	0.0000000E+000	0.0000000E+000	34.8352	1.43693	55.1648	-1.01491e-06	-1.77412e-06	2.32539e-10	-1.77435e-06	0.273281	42084.5	5.51612	42090
46.4415	9.31506	5.6315	10.885	-31.1554	10.5507	0.273241	-0.00879603	608.54	162.884	1	10	0.00480649	0.000441568	0	0.000120021	0.000154958	8.80708e-06	-39.412	0.019945	0.0154095	0.012663	-31.1705	10.9048	9.33047	5.64416	0.0786186	0.0475296	0.0918692	31.1554	162884	269426	314835	-58.8446	0.0000000E+000	0.0000000E+000	0.0000000E+000	58.8446	0.0000000E+000	0.0000000E+000	0.0000000E+000	-58.8446	0.0000000E+000	0.0000000E+000	0.0000000E+000	-31.1554	0.0000000E+000	0.0000000E+000	0.0000000E+000	31.1554	1.6541	58.8446	-9.49591e-07	-2.40344e-06	-1.36302e-09	-2.40208e-06	0.273086	31064.2	17.6168	31046.5
31.6296	11.1978	5.61732	12.5277	-26.6405	10.9796	0.273242	-0.0106968	895.773	180.099	1	10	0.00481486	0.000384336	0	0.000119483	0.000441118	8.50732e-06	-5.62491	0.0221351	0.0220285	0.00216959	-26.6042	12.5484	11.2198	5.61949	0.0713487	0.0357918	0.0798229	26.6405	180099	359016	401656	-63.3595	0.0000000E+000	0.0000000E+000	0.0000000E+000	63.3595	0.0000000E+000	0.0000000E+000	0.0000000E+000	-63.3595	0.0000000E+000	0.0000000E+000	0.0000000E+000	-26.6405	0.0000000E+000	0.0000000E+000	0.0000000E+000	26.6405	1.99344	63.3595	-5.37643e-07	-2.9228e-06	-4.71854e-09	-2.91808e-06	0.272801	25544.3	41.2384	25503.1
21.5517	12.8933	5.19617	13.9009	-21.9501	11.4015	0.273239	-0.0104806	1421.2	198.579	1	10	0.00480515	0.000345671	0	0.000118279	0.000193113	1.86704e-05	-68.9425	0.0540121	0.0194068	0.0504052	-22.1125	13.9378	12.9127	5.24657	0.0667227	0.0268902	0.0719375	21.9501	198579	492734	531244	-68.0499	0.0000000E+000	0.0000000E+000	0.0000000E+000	68.0499	0.0000000E+000	0.0000000E+000	0.0000000E+000	-68.0499	0.0000000E+000	0.0000000E+000	0.0000000E+000	-21.9501	0.0000000E+000	0.0000000E+000	0.0000000E+000	21.9501	2.4813	68.0499	-1.20404e-06	-2.86371e-06	-2.02394e-09	-2.86169e-06	0.273046	26070.9	18.4257	26052.5
14.6852	14.3591	4.45564	15.0345	-17.2391	12.1112	0.273277	0.000214087	2432.38	213.635	1	11	0.00480874	0.000319847	0	0.00011491	0.000345731	4.94693e-06	-8.53864	0.0154666	0.0152951	0.00229642	-17.2302	15.0498	14.3744	4.45793	0.0635256	0.019712	0.0665136	17.2391	213635	688478	720862	-72.7608	0.0000000E+000	0.0000000E+000	0.0000000E+000	72.7608	0.0000000E+000	0.0000000E+000	0.0000000E+000	-72.7608	0.0000000E+000	0.0000000E+000	0.0000000E+000	-17.2391	0.0000000E+000	0.0000000E+000	0.0000000E+000	17.2391	3.22268	72.7608	-3.3691e-06	5.85051e-08	7.40166e-11	5.84311e-08	0.272931	1.27647e+06	1614.91	1.27486e+06
10.0032	15.3889	3.65644	15.8173	-13.3658	12.5618	0.273271	-6.14841e-05	4351.34	232.527	1	11	0.00481756	0.000304575	0	0.000117447	4.04943e-05	1.27614e-05	-39.6285	0.0418989	0.0322704	0.0267234	-13.4328	15.8549	15.4212	3.68316	0.0615094	0.0146148	0.0632218	13.3658	232527	978639	1.00588e+06	-76.6342	0.0000000E+000	0.0000000E+000	0.0000000E+000	76.6342	0.0000000E+000	0.0000000E+000	0.0000000E+000	-76.6342	0.0000000E+000	0.0000000E+000	0.0000000E+000	-13.3658	0.0000000E+000	0.0000000E+000	0.0000000E+000	13.3658	4.20872	76.6342	2.53669e-06	-1.68018e-08	-2.48975e-12	-1.67993e-08	0.273231	4.44458e+06	658.614	4.44393e+06
6.81719	16.0559	2.92086	16.3194	-10.3104	12.9015	0.273287	0.0015938	7992.88	256.047	1	11	0.00480304	0.000294315	0	0.000115169	-5.48923e-05	5.11262e-06	47.4657	0.0173713	0.0117435	-0.0128004	-10.2589	16.3286	16.0676	2.90806	0.0602874	0.0109674	0.0612769	10.3104	256047	1.40748e+06	1.43058e+06	-79.6896	0.0000000E+000	0.0000000E+000	0.0000000E+000	79.6896	0.0000000E+000	0.0000000E+000	0.0000000E+000	-79.6896	0.0000000E+000	0.0000000E+000	0.0000000E+000	-10.3104	0.0000000E+000	0.0000000E+000	0.0000000E+000	10.3104	5.49695	79.6896	-2.27797e-06	4.35563e-07	-8.7487e-11	4.3565e-07	0.273341	171469	34.4412	171504
4.63925	16.5763	2.35466	16.7427	-8.08479	13.3854	0.273283	0.000294522	14569.5	288.172	1	11	0.00481234	0.00028743	0	0.000114563	-0.000150279	4.71664e-06	22.2337	0.0164097	0.0151896	-0.0062092	-8.05646	16.7568	16.5915	2.34845	0.059134	0.0084	0.0597276	8.08479	288172	2.02866e+06	2.04903e+06	-81.9152	0.0000000E+000	0.0000000E+000	0.0000000E+000	81.9152	0.0000000E+000	0.0000000E+000	0.0000000E+000	-81.9152	0.0000000E+000	0.0000000E+000	0.0000000E+000	-8.08479	0.0000000E+000	0.0000000E+000	0.0000000E+000	8.08479	7.03977	81.9152	-6.06019e-07	8.04878e-08	-4.42604e-11	8.0532e-08	0.273433	927886	510.246	928396
3.1604	16.9216	1.96341	17.0351	-6.61844	14.0784	0.273281	0.000803767	25648.8	340.722	1	11	0.00481098	0.000282416	0	0.000118415	-7.39696e-05	7.23589e-06	9.21358	0.0256214	0.0252909	-0.00410238	-6.59497	17.0598	16.9469	1.95931	0.058311	0.00676584	0.0587023	6.61844	340722	2.9365e+06	2.9562e+06	-83.3816	0.0000000E+000	0.0000000E+000	0.0000000E+000	83.3816	0.0000000E+000	0.0000000E+000	0.0000000E+000	-83.3816	0.0000000E+000	0.0000000E+000	0.0000000E+000	-6.61844	0.0000000E+000	0.0000000E+000	0.0000000E+000	6.61844	8.61845	83.3816	3.8526e-06	2.19654e-07	-5.94543e-11	2.19714e-07	0.273355	340000	92.0286	340092
2.15577	17.2292	1.67582	17.3105	-5.55547	15.082	0.273288	0.00194906	44054.6	412.882	1	11	0.00481354	0.000278071	0	0.000122421	0.000250345	4.61403e-06	-5.69041	0.016593	0.0165112	0.00164525	-5.5556	17.3271	17.2457	1.67746	0.0574971	0.00559253	0.0577684	5.55547	412882	4.24487e+06	4.2649e+06	-84.4445	0.0000000E+000	0.0000000E+000	0.0000000E+000	84.4445	0.0000000E+000	0.0000000E+000	0.0000000E+000	-84.4445	0.0000000E+000	0.0000000E+000	0.0000000E+000	-5.55547	0.0000000E+000	0.0000000E+000	0.0000000E+000	5.55547	10.2811	84.4445	4.00526e-06	5.32653e-07	4.87936e-10	5.32165e-07	0.273037	140215	128.444	140087
1.46631	17.4992	1.51759	17.5649	-4.95647	16.5436	0.273288	0.00235019	71522.3	533.898	1	11	0.00480854	0.000273759	0	0.000121915	2.33964e-06	3.15242e-06	-64.4539	0.0115153	0.00496583	0.0103896	-4.98883	17.5707	17.5041	1.52798	0.056719	0.00491885	0.0569318	4.95647	533898	6.15634e+06	6.17945e+06	-85.0435	0.0000000E+000	0.0000000E+000	0.0000000E+000	85.0435	0.0000000E+000	0.0000000E+000	0.0000000E+000	-85.0435	0.0000000E+000	0.0000000E+000	0.0000000E+000	-4.95647	0.0000000E+000	0.0000000E+000	0.0000000E+000	4.95647	11.5309	85.0435	-5.05806e-07	6.4228e-07	5.49861e-12	6.42274e-07	0.273286	116283	0.995512	116282
1.00006	17.7955	1.40356	17.8507	-4.50969	19.7186	0.273278	0.00127961	113386	700.991	1	12	0.00481404	0.000269683	0	0.000114867	0.000326654	1.59336e-06	-45.7916	0.00590825	0.00411965	0.00423508	-4.5222	17.8552	17.7996	1.4078	0.0558467	0.00440474	0.0560202	4.50969	700990	8.88771e+06	8.91531e+06	-85.4903	0.0000000E+000	0.0000000E+000	0.0000000E+000	85.4903	0.0000000E+000	0.0000000E+000	0.0000000E+000	-85.4903	0.0000000E+000	0.0000000E+000	0.0000000E+000	-4.50969	0.0000000E+000	0.0000000E+000	0.0000000E+000	4.50969	12.6788	85.4903	-7.04843e-06	3.4969e-07	4.1799e-10	3.49272e-07	0.272952	213564	255.276	213308
0.681362	18.0792	1.35092	18.1296	-4.27332	22.8304	0.273294	0.00163117	172907	960.05	1	12	0.00481058	0.000265344	0	0.000105835	-1.67377e-05	4.16131e-06	-49.2918	0.0156827	0.0102284	0.0118881	-4.30836	18.1407	18.0894	1.36281	0.055005	0.0041101	0.0551584	4.27332	960050	1.28483e+07	1.28841e+07	-85.7267	0.0000000E+000	0.0000000E+000	0.0000000E+000	85.7267	0.0000000E+000	0.0000000E+000	0.0000000E+000	-85.7267	0.0000000E+000	0.0000000E+000	0.0000000E+000	-4.27332	0.0000000E+000	0.0000000E+000	0.0000000E+000	4.27332	13.3829	85.7267	-9.03188e-06	4.45789e-07	-2.73019e-11	4.45816e-07	0.273311	167545	10.2612	167555
0.464091	18.3959	1.3529	18.4456	-4.20617	27.3869	0.273289	0.000298146	253484	1363.63	1	12	0.00481375	0.00026097	0	0.000101959	-0.000112124	3.19501e-06	-14.79	0.0122428	0.0118372	0.0031253	-4.21315	18.4576	18.4078	1.35603	0.0540674	0.00397631	0.0542134	4.20617	1.36364e+06	1.85419e+07	1.85919e+07	-85.7938	0.0000000E+000	0.0000000E+000	0.0000000E+000	85.7938	0.0000000E+000	0.0000000E+000	0.0000000E+000	-85.7938	0.0000000E+000	0.0000000E+000	0.0000000E+000	-4.20617	0.0000000E+000	0.0000000E+000	0.0000000E+000	4.20617	13.5974	85.7938	-3.87543e-06	8.148e-08	-3.34294e-11	8.15135e-08	0.273401	916628	376.071	917004
0.316193	18.6964	1.40235	18.7489	-4.2895	34.0629	0.273283	-0.000911692	358932	2008.03	1	12	0.0048134	0.000256729	0	0.000111175	9.77262e-05	2.22204e-06	61.7218	0.00865522	0.00410044	-0.00762228	-4.26534	18.7525	18.7005	1.39473	0.0531869	0.00398935	0.0533363	4.2895	2.00803e+06	2.67715e+07	2.68467e+07	-85.7105	0.0000000E+000	0.0000000E+000	0.0000000E+000	85.7105	0.0000000E+000	0.0000000E+000	0.0000000E+000	-85.7105	0.0000000E+000	0.0000000E+000	0.0000000E+000	-4.2895	0.0000000E+000	0.0000000E+000	0.0000000E+000	4.2895	13.3322	85.7105	9.2162e-06	-2.4915e-07	-8.90962e-11	-2.49061e-07	0.273185	299754	107.192	299646
0.215268	19.0148	1.49541	19.0735	-4.49673	43.8564	0.273283	-0.00141429	494404	3039.05	1	12	0.00481573	0.000252483	0	0.000138503	0.000288499	2.7653e-06	-1.86876	0.0109524	0.0109466	0.000357161	-4.49522	19.0845	19.0258	1.49576	0.0522673	0.00411052	0.0524287	4.49673	3.03905e+06	3.8643e+07	3.87623e+07	-85.5033	0.0000000E+000	0.0000000E+000	0.0000000E+000	85.5033	0.0000000E+000	0.0000000E+000	0.0000000E+000	-85.5033	0.0000000E+000	0.0000000E+000	0.0000000E+000	-4.49673	0.0000000E+000	0.0000000E+000	0.0000000E+000	4.49673	12.7155	85.5033	2.73277e-05	-3.86502e-07	-4.08022e-10	-3.86094e-07	0.272995	193229	203.988	193025
0.146929	19.3662	1.67703	19.4387	-4.94923	58.1947	0.273279	-0.000934311	645910	4807.52	1	12	0.00481246	0.000247572	0	0.000180266	0.000116803	2.73344e-06	5.11517	0.011041	0.0109971	-0.000984396	-4.94354	19.4495	19.3772	1.67605	0.051252	0.00443821	0.0514438	4.94923	4.80752e+06	5.55168e+07	5.57246e+07	-85.0508	0.0000000E+000	0.0000000E+000	0.0000000E+000	85.0508	0.0000000E+000	0.0000000E+000	0.0000000E+000	-85.0508	0.0000000E+000	0.0000000E+000	0.0000000E+000	-4.94923	0.0000000E+000	0.0000000E+000	0.0000000E+000	4.94923	11.5479	85.0508	4.17626e-05	-2.55327e-07	-1.09131e-10	-2.55218e-07	0.273162	292492	125.016	292367
0.0999041	19.7847	1.97592	19.8831	-5.70328	79.2709	0.273285	0.000398943	806246	7962.28	1	12	0.00481091	0.00024196	0	0.000220604	0.000116803	1.16103e-06	26.4227	0.00479845	0.00429718	-0.00213527	-5.69593	19.8872	19.789	1.97378	0.050045	0.00499805	0.0502939	5.70328	7.96228e+06	7.97255e+07	8.01221e+07	-84.2967	0.0000000E+000	0.0000000E+000	0.0000000E+000	84.2967	0.0000000E+000	0.0000000E+000	0.0000000E+000	-84.2967	0.0000000E+000	0.0000000E+000	0.0000000E+000	-5.70328	0.0000000E+000	0.0000000E+000	0.0000000E+000	5.70328	10.0129	84.2967	4.03386e-05	1.09025e-07	4.65979e-11	1.08978e-07	0.273168	685022	292.782	684729
0.0680626	20.2598	2.4804	20.4111	-6.97997	110.196	0.273273	0.00130286	942735	13922	1	12	0.00481297	0.000235802	0	0.000235134	0.000326654	2.62888e-06	2.2483	0.0111487	0.0111401	-0.000437365	-6.97496	20.4221	20.2709	2.47996	0.04863	0.00595375	0.0489931	6.97997	1.3922e+07	1.13714e+08	1.14563e+08	-83.02	0.0000000E+000	0.0000000E+000	0.0000000E+000	83.02	0.0000000E+000	0.0000000E+000	0.0000000E+000	-83.02	0.0000000E+000	0.0000000E+000	0.0000000E+000	-6.97997	0.0000000E+000	0.0000000E+000	0.0000000E+000	6.97997	8.16795	83.02	1.45299e-05	3.56036e-07	4.25583e-10	3.5561e-07	0.272947	209750	250.722	209499
0.0464052	20.7535	3.20033	20.9988	-8.76633	155.548	0.273283	0.00168536	1.07166e+06	24891.9	1	12	0.00481317	0.000229211	0	0.000172798	-0.000245665	1.66059e-06	-26.0425	0.00724481	0.00650923	0.00318075	-8.77219	21.0058	20.7601	3.20351	0.0470654	0.00725778	0.0476217	8.76633	2.48919e+07	1.61419e+08	1.63327e+08	-81.2337	0.0000000E+000	0.0000000E+000	0.0000000E+000	81.2337	0.0000000E+000	0.0000000E+000	0.0000000E+000	-81.2337	0.0000000E+000	0.0000000E+000	0.0000000E+000	-8.76633	0.0000000E+000	0.0000000E+000	0.0000000E+000	8.76633	6.48481	81.2337	-6.23363e-05	4.6058e-07	-4.14034e-10	4.60994e-07	0.273529	162151	145.764	162297
0.0315922	21.3533	4.12669	21.7484	-10.938	222.153	0.273276	0.000620796	1.22078e+06	43952.8	1	12	0.00481443	0.000221369	0	-4.3981e-06	0.000135881	2.16522e-06	10.5146	0.00978105	0.00961681	-0.0017849	-10.9286	21.7575	21.3629	4.12491	0.045145	0.00872462	0.0459804	10.938	4.39528e+07	2.27431e+08	2.31639e+08	-79.062	0.0000000E+000	0.0000000E+000	0.0000000E+000	79.062	0.0000000E+000	0.0000000E+000	0.0000000E+000	-79.062	0.0000000E+000	0.0000000E+000	0.0000000E+000	-10.938	0.0000000E+000	0.0000000E+000	0.0000000E+000	10.938	5.17444	79.062	-0.000177196	1.69649e-07	8.43542e-11	1.69564e-07	0.27314	440203	218.882	439984
0.0215268	22.1767	5.42709	22.8311	-13.7512	319.891	0.273281	-0.000560889	1.3623e+06	76975.5	1	12	0.00481524	0.000210907	0	-0.000269513	0.000288499	2.13333e-06	16.1318	0.0101151	0.00971677	-0.00281045	-13.7385	22.8399	22.1865	5.42428	0.0425444	0.0104115	0.0437998	13.7512	7.69755e+07	3.14545e+08	3.23827e+08	-76.2488	0.0000000E+000	0.0000000E+000	0.0000000E+000	76.2488	0.0000000E+000	0.0000000E+000	0.0000000E+000	-76.2488	0.0000000E+000	0.0000000E+000	0.0000000E+000	-13.7512	0.0000000E+000	0.0000000E+000	0.0000000E+000	13.7512	4.08631	76.2488	-0.000265115	-1.5328e-07	-1.61816e-10	-1.53118e-07	0.272992	487228	514.361	486714
0.0146812	23.2884	7.35184	24.4213	-17.5202	463.194	0.27328	-0.0016567	1.47456e+06	133635	1	12	0.00481179	0.000197033	0	-0.000487844	0.000250345	2.46002e-06	-5.84007	0.0124853	0.0124205	0.00127041	-17.5143	24.4335	23.3008	7.35311	0.0390484	0.0123271	0.0409479	17.5202	1.33634e+08	4.23314e+08	4.43906e+08	-72.4798	0.0000000E+000	0.0000000E+000	0.0000000E+000	72.4798	0.0000000E+000	0.0000000E+000	0.0000000E+000	-72.4798	0.0000000E+000	0.0000000E+000	0.0000000E+000	-17.5202	0.0000000E+000	0.0000000E+000	0.0000000E+000	17.5202	3.1677	72.4798	-0.000218331	-4.52741e-07	-4.14745e-10	-4.52327e-07	0.273029	164955	151.111	164803
0.0100092	24.3655	9.92203	26.3083	-22.1569	673.375	0.273281	-0.00147407	1.60259e+06	227949	1	12	0.00481301	0.000182947	0	-0.000416464	2.33964e-06	2.75267e-06	9.21423	0.0150463	0.0148521	-0.00240931	-22.1399	26.3211	24.3804	9.91962	0.0352039	0.0143356	0.0380109	22.1569	2.27949e+08	5.59775e+08	6.04408e+08	-67.843	0.0000000E+000	0.0000000E+000	0.0000000E+000	67.843	0.0000000E+000	0.0000000E+000	0.0000000E+000	-67.843	0.0000000E+000	0.0000000E+000	0.0000000E+000	-22.1569	0.0000000E+000	0.0000000E+000	0.0000000E+000	22.1569	2.4557	67.843	7.13794e-05	-4.02835e-07	-3.4488e-12	-4.02831e-07	0.273278	185392	1.5872	185391