File: txt/18220_R279_UA654_SOC00_C07.mpt
EC-Lab ASCII FILE
Nb header lines : 65

Potentio Electrochemical Impedance Spectroscopy

Run on channel : 7 (SN 66126)
User :
CE vs. WE compliance from -10 V to 10 V
Electrode connection : standard
Potential control : Ewe
Ewe ctrl range : min = -10.00 V, max = 10.00 V
Safety Limits :
	Do not start on E overload
Acquisition started on : 10/08/2025 08:32:12.403
Technique started on : 10/08/2025 08:32:14.315
Loaded Setting File :  C:\Users\Celltest\OneDrive - store-dot.com\Documents\EC-Lab\Data\@Biologic Test Protocols\anode half cell EIS SOC00.mps
Saved on :
	File : 18220_R279_UA654_SOC00_C07.mpr
	Directory : C:\Users\Celltest\OneDrive - store-dot.com\Documents\EC-Lab\Data\Charmaine\
	Host : 169.254.61.224
Device : VMP-3e (SN .003165)
Address : USB
EC-LAB for windows v11.62 (software)
Internet server v27.00 (firmware)
Command interpretor v12.03 (firmware)
Electrode material :
Initial state :
Electrolyte :
Comments :
Electrode surface area : 0.001 cm²
Characteristic mass : 0.001 g
Equivalent Weight : 0.000 g/eq.
Density : 0.000 g/cm3
Volume (V) : 0.001 cm³
Record Ece
Cycle Definition : Charge/Discharge alternance
Mode                Single sine
E (V)               0.0000
vs.                 Eoc
tE (h:m:s)          0:00:0.0000
record              0
dI                  0.000
unit dI             mA
dt (s)              0.000
fi                  100.000
unit fi             kHz
ff                  10.000
unit ff             mHz
Nd                  6
Points              per decade
spacing             Logarithmic
Va (mV)             5.0
pw                  0.10
Na                  2
corr                0
E range min (V)     -10.000
E range max (V)     10.000
I Range             Auto
Bandwidth           5
nc cycles           0
goto Ns'            0
nr cycles           0
inc. cycle          0

freq/Hz	Re(Z)/Ohm	-Im(Z)/Ohm	|Z|/Ohm	Phase(Z)/deg	time/s	<Ewe>/V	<I>/mA	Cs/µF	Cp/µF	cycle number	I Range	|Ewe|/V	|I|/A	Ns	(Q-Qo)/mA.h	<Ece>/V	|Ece|/V	Phase(Zce)/deg	|Zce|/Ohm	Re(Zce)/Ohm	-Im(Zce)/Ohm	Phase(Zwe-ce)/deg	|Zwe-ce|/Ohm	Re(Zwe-ce)/Ohm	-Im(Zwe-ce)/Ohm	Re(Y)/Ohm-1	Im(Y)/Ohm-1	|Y|/Ohm-1	Phase(Y)/deg	Re(C)/nF	Im(C)/nF	|C|/nF	Phase(C)/deg	Re(M)	Im(M)	|M|	Phase(M)/deg	Re(Permittivity)	Im(Permittivity)	|Permittivity|	Phase(Permittivity)/deg	Re(Resistivity)/Ohm.cm	Im(Resistivity)/Ohm.cm	|Resistivity|/Ohm.cm	Phase(Resistivity)/deg	Re(Conductivity)/mS/cm	Im(Conductivity)/mS/cm	|Conductivity|/mS/cm	Phase(Conductivity)/deg	Tan(Delta)	Loss Angle(Delta)/deg	dq/mA.h	Pwe/W	Pce/W	Pwe-ce/W	<Ewe-Ece>/V	Rwe/Ohm	Rce/Ohm	Rwe-ce/Ohm		Ewe-Ece/V
100004	1.2185	0.229807	1.23998	-10.6804	1.91155	0.283354	0.0825597	6.92535	0.237869	1	9	0.00457562	0.00369008	0	8.92751e-06	-0.000460124	4.16115e-05	88.5205	0.0112766	0.000291144	-0.0112728	-10.1653	1.23823	1.21879	0.218534	0.792495	0.149463	0.806466	10.6804	237.869	1261.25	1283.48	-79.3196	0.0000000E+000	0.0000000E+000	0.0000000E+000	79.3196	0.0000000E+000	0.0000000E+000	0.0000000E+000	-79.3196	0.0000000E+000	0.0000000E+000	0.0000000E+000	-10.6804	0.0000000E+000	0.0000000E+000	0.0000000E+000	10.6804	5.30227	79.3196	8.92751e-06	2.33936e-05	-3.79877e-08	2.34316e-05	0.283814	3432.1	5.57323	3437.68
68132	1.2773	0.254278	1.30236	-11.259	2.29452	0.283351	0.0823363	9.18672	0.350199	1	9	0.00548062	0.00420822	0	7.73656e-06	-0.000250295	2.7495e-05	75.6323	0.00653363	0.00162128	-0.00632928	-10.972	1.30273	1.27892	0.247948	0.753059	0.149915	0.767837	11.259	350.199	1759.13	1793.65	-78.741	0.0000000E+000	0.0000000E+000	0.0000000E+000	78.741	0.0000000E+000	0.0000000E+000	0.0000000E+000	-78.741	0.0000000E+000	0.0000000E+000	0.0000000E+000	-11.259	0.0000000E+000	0.0000000E+000	0.0000000E+000	11.259	5.02323	78.741	-1.19095e-06	2.33301e-05	-2.06083e-08	2.33507e-05	0.283602	3441.39	3.0399	3444.43
46420.4	1.33903	0.281219	1.36824	-11.8607	2.80355	0.283364	0.0883313	12.1918	0.515029	1	9	0.00503864	0.00368257	0	2.08705e-05	-0.000250295	2.04645e-05	63.2286	0.00555714	0.00250311	-0.00496147	-11.6361	1.36968	1.34153	0.276257	0.715262	0.150217	0.730866	11.8607	515.029	2452.32	2505.82	-78.1393	0.0000000E+000	0.0000000E+000	0.0000000E+000	78.1393	0.0000000E+000	0.0000000E+000	0.0000000E+000	-78.1393	0.0000000E+000	0.0000000E+000	0.0000000E+000	-11.8607	0.0000000E+000	0.0000000E+000	0.0000000E+000	11.8607	4.76152	78.1393	1.3134e-05	2.50299e-05	-2.21088e-08	2.5052e-05	0.283614	3207.96	2.83359	3210.8
31621.1	1.40025	0.316477	1.43557	-12.7357	3.31054	0.283367	0.0796181	15.9038	0.772919	1	9	0.00506692	0.00352955	0	3.08291e-05	-0.000212144	1.487e-05	59.6572	0.00421299	0.00212828	-0.00363589	-12.5755	1.43685	1.40238	0.312841	0.679448	0.153565	0.696586	12.7357	772.919	3419.79	3506.04	-77.2643	0.0000000E+000	0.0000000E+000	0.0000000E+000	77.2643	0.0000000E+000	0.0000000E+000	0.0000000E+000	-77.2643	0.0000000E+000	0.0000000E+000	0.0000000E+000	-12.7357	0.0000000E+000	0.0000000E+000	0.0000000E+000	12.7357	4.42451	77.2643	9.95858e-06	2.25611e-05	-1.68905e-08	2.2578e-05	0.283579	3559.08	2.66452	3561.74
21544.7	1.47473	0.360613	1.51818	-13.7408	3.69352	0.283365	0.078352	20.4852	1.15578	1	9	0.005413	0.00356546	0	4.67439e-05	-0.000326596	1.48794e-05	30.0517	0.0041732	0.00361221	-0.00208986	-13.632	1.52119	1.47834	0.358523	0.639834	0.156458	0.658685	13.7408	1155.78	4726.58	4865.84	-76.2592	0.0000000E+000	0.0000000E+000	0.0000000E+000	76.2592	0.0000000E+000	0.0000000E+000	0.0000000E+000	-76.2592	0.0000000E+000	0.0000000E+000	0.0000000E+000	-13.7408	0.0000000E+000	0.0000000E+000	0.0000000E+000	13.7408	4.0895	76.2592	1.59148e-05	2.22022e-05	-2.55895e-08	2.22278e-05	0.283691	3616.56	4.16832	3620.73
14678.6	1.55393	0.41054	1.60725	-14.7991	3.95255	0.28338	0.084347	26.4107	1.72315	1	9	0.00534023	0.00332259	0	5.40068e-05	0.000264742	9.72397e-06	-62.8431	0.00292662	0.0013358	0.00260399	-14.8766	1.60921	1.55527	0.413144	0.601541	0.158924	0.622181	14.7991	1723.16	6522.31	6746.09	-75.2009	0.0000000E+000	0.0000000E+000	0.0000000E+000	75.2009	0.0000000E+000	0.0000000E+000	0.0000000E+000	-75.2009	0.0000000E+000	0.0000000E+000	0.0000000E+000	-14.7991	0.0000000E+000	0.0000000E+000	0.0000000E+000	14.7991	3.7851	75.2009	7.26292e-06	2.39023e-05	2.23302e-08	2.388e-05	0.283116	3359.7	3.13872	3356.56
10002.2	1.64492	0.469722	1.71067	-15.9372	4.21154	0.283371	0.0841608	33.8752	2.55407	1	9	0.00493584	0.00288533	0	5.8093e-05	-0.000116767	1.05623e-05	16.8834	0.0036607	0.00350292	-0.00106316	-15.8709	1.71375	1.64842	0.468659	0.562098	0.160513	0.584567	15.9372	2554.07	8944.07	9301.59	-74.0628	0.0000000E+000	0.0000000E+000	0.0000000E+000	74.0628	0.0000000E+000	0.0000000E+000	0.0000000E+000	-74.0628	0.0000000E+000	0.0000000E+000	0.0000000E+000	-15.9372	0.0000000E+000	0.0000000E+000	0.0000000E+000	15.9372	3.50189	74.0628	4.08617e-06	2.38487e-05	-9.82718e-09	2.38585e-05	0.283487	3367.01	1.38742	3368.4
6810.42	1.73141	0.535055	1.8122	-17.1726	4.47052	0.283373	0.0719847	43.6765	3.80743	1	9	0.00463316	0.00255665	0	6.29143e-05	-0.000193068	7.77517e-05	-70.5554	0.0304116	0.0101238	0.028677	-17.9367	1.8305	1.74154	0.563732	0.527215	0.162924	0.551815	17.1726	3807.43	12320.7	12895.6	-72.8274	0.0000000E+000	0.0000000E+000	0.0000000E+000	72.8274	0.0000000E+000	0.0000000E+000	0.0000000E+000	-72.8274	0.0000000E+000	0.0000000E+000	0.0000000E+000	-17.1726	0.0000000E+000	0.0000000E+000	0.0000000E+000	17.1726	3.23595	72.8274	4.82128e-06	2.03985e-05	-1.3898e-08	2.04124e-05	0.283566	3936.58	2.68208	3939.26
4646	1.86859	0.609355	1.96544	-18.0613	4.73562	0.283346	0.0522495	56.2174	5.4037	1	9	0.00455586	0.00231798	0	6.87677e-05	1.67614e-05	7.71766e-06	87.4908	0.00332947	0.000145765	-0.00332628	-17.9678	1.96455	1.86874	0.606029	0.483721	0.157743	0.508792	18.0613	5403.7	16570.5	17429.3	-71.9387	0.0000000E+000	0.0000000E+000	0.0000000E+000	71.9387	0.0000000E+000	0.0000000E+000	0.0000000E+000	-71.9387	0.0000000E+000	0.0000000E+000	0.0000000E+000	-18.0613	0.0000000E+000	0.0000000E+000	0.0000000E+000	18.0613	3.06651	71.9387	5.85345e-06	1.48047e-05	8.75773e-10	1.48038e-05	0.283329	5422.94	0.320795	5422.62
3163.08	1.99302	0.699733	2.11229	-19.3458	5.28663	0.283188	-0.0208449	71.908	7.89108	1	9	0.00485529	0.0022986	0	6.49005e-05	-0.000116767	4.51533e-06	-110.941	0.00196439	-0.000702098	0.00183463	-19.399	2.11223	1.99232	0.701568	0.44669	0.156829	0.47342	19.3458	7891.08	22475.8	23820.8	-70.6542	0.0000000E+000	0.0000000E+000	0.0000000E+000	70.6542	0.0000000E+000	0.0000000E+000	0.0000000E+000	-70.6542	0.0000000E+000	0.0000000E+000	0.0000000E+000	-19.3458	0.0000000E+000	0.0000000E+000	0.0000000E+000	19.3458	2.84826	70.6542	-3.86726e-06	-5.90303e-06	2.43399e-09	-5.90546e-06	0.283305	13585.5	5.60169	13591.1
2155.69	2.13355	0.83461	2.29098	-21.3646	5.73784	0.283273	0.0452864	88.4607	11.7402	1	9	0.00480251	0.00209627	0	7.20557e-05	-0.000135842	8.74225e-06	-83.653	0.00417039	0.000461034	0.00414483	-21.4569	2.29292	2.13401	0.838755	0.406499	0.159016	0.436494	21.3646	11740.2	30011.9	32226.4	-68.6354	0.0000000E+000	0.0000000E+000	0.0000000E+000	68.6354	0.0000000E+000	0.0000000E+000	0.0000000E+000	-68.6354	0.0000000E+000	0.0000000E+000	0.0000000E+000	-21.3646	0.0000000E+000	0.0000000E+000	0.0000000E+000	21.3646	2.55634	68.6354	7.15527e-06	1.28284e-05	-6.15179e-09	1.28346e-05	0.283409	6255.16	2.99962	6258.16
1468.59	2.28909	0.995266	2.49609	-23.4988	6.18911	0.283264	0.0469992	108.888	17.3116	1	9	0.00477869	0.00191447	0	7.71784e-05	-0.000441049	3.137e-06	33.2123	0.00163858	0.00137091	-0.000897521	-23.4673	2.49699	2.29046	0.994368	0.367402	0.159741	0.400626	23.4988	17311.6	39816.3	43416.9	-66.5012	0.0000000E+000	0.0000000E+000	0.0000000E+000	66.5012	0.0000000E+000	0.0000000E+000	0.0000000E+000	-66.5012	0.0000000E+000	0.0000000E+000	0.0000000E+000	-23.4988	0.0000000E+000	0.0000000E+000	0.0000000E+000	23.4988	2.29998	66.5012	5.12268e-06	1.33132e-05	-2.07289e-08	1.33339e-05	0.283705	6026.99	9.38417	6036.37
1000.32	2.4671	1.22211	2.7532	-26.3522	6.6398	0.283268	0.0497919	130.188	25.6517	1	9	0.00475825	0.00172826	0	8.1552e-05	-9.76912e-05	8.32775e-06	-62.9637	0.00481858	0.00219031	0.004292	-26.4119	2.75707	2.46929	1.2264	0.325469	0.161226	0.363213	26.3522	25651.7	51783.4	57788.7	-63.6478	0.0000000E+000	0.0000000E+000	0.0000000E+000	63.6478	0.0000000E+000	0.0000000E+000	0.0000000E+000	-63.6478	0.0000000E+000	0.0000000E+000	0.0000000E+000	-26.3522	0.0000000E+000	0.0000000E+000	0.0000000E+000	26.3522	2.01872	63.6478	4.37353e-06	1.41045e-05	-4.86423e-09	1.41093e-05	0.283366	5689.04	1.96199	5691
681.09	2.6729	1.49905	3.06456	-29.2851	7.09051	0.283266	0.0391796	155.884	37.2988	1	9	0.00474547	0.0015485	0	8.70173e-05	-0.000135842	9.70719e-06	-99.582	0.00626877	-0.00104349	0.00618131	-29.3954	3.06668	2.67185	1.50523	0.284607	0.159617	0.326311	29.2851	37298.8	66506.2	76251.4	-60.7149	0.0000000E+000	0.0000000E+000	0.0000000E+000	60.7149	0.0000000E+000	0.0000000E+000	0.0000000E+000	-60.7149	0.0000000E+000	0.0000000E+000	0.0000000E+000	-29.2851	0.0000000E+000	0.0000000E+000	0.0000000E+000	29.2851	1.78306	60.7149	5.46534e-06	1.10983e-05	-5.32224e-09	1.11036e-05	0.283402	7229.94	3.46716	7233.4
463.961	2.98907	1.89882	3.54119	-32.4259	7.78936	0.28329	-0.0134012	180.657	51.9426	1	10	0.00479538	0.00135417	0	8.82227e-05	-0.000173993	6.75113e-06	163.096	0.00498543	-0.00477003	-0.00144961	-32.4476	3.53639	2.9843	1.89737	0.238362	0.151421	0.282391	32.4259	51942.6	81766.6	96870.1	-57.5741	0.0000000E+000	0.0000000E+000	0.0000000E+000	57.5741	0.0000000E+000	0.0000000E+000	0.0000000E+000	-57.5741	0.0000000E+000	0.0000000E+000	0.0000000E+000	-32.4259	0.0000000E+000	0.0000000E+000	0.0000000E+000	32.4259	1.57417	57.5741	1.20537e-06	-3.79642e-06	2.33171e-09	-3.79875e-06	0.283464	21139.2	12.9834	21152.2
316.316	3.37465	2.39662	4.13909	-35.3817	8.23709	0.28328	-0.0142165	209.942	70.3863	1	10	0.00476384	0.00115094	0	8.69974e-05	-0.000326596	3.48609e-05	44.9695	0.0302891	0.021429	-0.0214062	-34.9688	4.14427	3.39608	2.37521	0.196979	0.139891	0.241599	35.3817	70386.3	99110.2	121561	-54.6183	0.0000000E+000	0.0000000E+000	0.0000000E+000	54.6183	0.0000000E+000	0.0000000E+000	0.0000000E+000	-54.6183	0.0000000E+000	0.0000000E+000	0.0000000E+000	-35.3817	0.0000000E+000	0.0000000E+000	0.0000000E+000	35.3817	1.40809	54.6183	-1.22529e-06	-4.02723e-06	4.64304e-09	-4.03187e-06	0.283606	19926.2	22.9731	19949.1
215.345	3.91609	3.0087	4.93843	-37.5348	8.68759	0.283283	-0.0125226	245.644	91.1776	1	10	0.00474951	0.000961746	0	8.66447e-05	-0.000307521	7.01213e-06	-101.371	0.00729104	-0.00143746	0.00714793	-37.6107	4.94165	3.91465	3.01585	0.160574	0.123368	0.202494	37.5348	91177.6	118676	149657	-52.4652	0.0000000E+000	0.0000000E+000	0.0000000E+000	52.4652	0.0000000E+000	0.0000000E+000	0.0000000E+000	-52.4652	0.0000000E+000	0.0000000E+000	0.0000000E+000	-37.5348	0.0000000E+000	0.0000000E+000	0.0000000E+000	37.5348	1.30159	52.4652	-3.52716e-07	-3.54744e-06	3.85096e-09	-3.55129e-06	0.28359	22621.7	24.5573	22646.3
146.737	4.66908	3.70945	5.96325	-38.4661	9.13354	0.283254	-0.016264	292.395	113.142	1	10	0.0047475	0.000796126	0	8.53807e-05	-0.000383823	4.8826e-06	-18.501	0.00613295	0.00581599	0.00194612	-38.446	5.96902	4.6749	3.7114	0.1313	0.104314	0.167694	38.4661	113142	142411	181885	-51.5339	0.0000000E+000	0.0000000E+000	0.0000000E+000	51.5339	0.0000000E+000	0.0000000E+000	0.0000000E+000	-51.5339	0.0000000E+000	0.0000000E+000	0.0000000E+000	-38.4661	0.0000000E+000	0.0000000E+000	0.0000000E+000	38.4661	1.2587	51.5339	-1.26398e-06	-4.60684e-06	6.24248e-09	-4.61308e-06	0.283638	17416	23.5995	17439.6
100.032	5.68091	4.48151	7.23579	-38.2689	9.58478	0.283285	-0.0131629	355.023	136.186	1	10	0.00473223	0.000654003	0	8.33965e-05	-0.000307521	8.13932e-06	-41.3924	0.0124454	0.00933652	0.00822904	-38.2743	7.24822	5.69025	4.48974	0.108504	0.0855957	0.138202	38.2689	136186	172634	219885	-51.7311	0.0000000E+000	0.0000000E+000	0.0000000E+000	51.7311	0.0000000E+000	0.0000000E+000	0.0000000E+000	-51.7311	0.0000000E+000	0.0000000E+000	0.0000000E+000	-38.2689	0.0000000E+000	0.0000000E+000	0.0000000E+000	38.2689	1.26763	51.7311	-1.98422e-06	-3.72887e-06	4.04788e-09	-3.73291e-06	0.283593	21521.5	23.3626	21544.8
68.104	7.02933	5.19901	8.74306	-36.4873	10.0475	0.283293	-0.0102443	449.497	158.943	1	10	0.0047297	0.000540966	0	8.19691e-05	-9.76912e-05	7.85995e-06	-13.0629	0.0145295	0.0141535	0.00328395	-36.4495	8.7564	7.04348	5.20229	0.0919574	0.0680132	0.114376	36.4873	158943	214899	267291	-53.5127	0.0000000E+000	0.0000000E+000	0.0000000E+000	53.5127	0.0000000E+000	0.0000000E+000	0.0000000E+000	-53.5127	0.0000000E+000	0.0000000E+000	0.0000000E+000	-36.4873	0.0000000E+000	0.0000000E+000	0.0000000E+000	36.4873	1.35205	53.5127	-1.42738e-06	-2.90214e-06	1.00078e-09	-2.90314e-06	0.283391	27653.8	9.53616	27663.3
46.4415	8.72999	5.72772	10.4412	-33.2688	10.4837	0.283294	-0.0151174	598.317	180.049	1	10	0.00473166	0.000453171	0	8.0235e-05	-4.04649e-05	6.01748e-06	28.3077	0.0132786	0.0116907	-0.0062968	-33.2047	10.4476	8.74168	5.72143	0.0800773	0.0525385	0.0957741	33.2688	180049	274425	328217	-56.7312	0.0000000E+000	0.0000000E+000	0.0000000E+000	56.7312	0.0000000E+000	0.0000000E+000	0.0000000E+000	-56.7312	0.0000000E+000	0.0000000E+000	0.0000000E+000	-33.2688	0.0000000E+000	0.0000000E+000	0.0000000E+000	33.2688	1.52416	56.7312	-1.73408e-06	-4.28266e-06	6.11723e-10	-4.28327e-06	0.283334	18739.6	2.67671	18742.3
31.6296	10.6203	5.88539	12.142	-28.9936	10.9135	0.283285	-0.0164576	854.972	200.872	1	10	0.0047302	0.000389573	0	7.91076e-05	-7.86157e-05	7.43211e-06	-89.4467	0.0190776	0.000184238	0.0190767	-29.0719	12.1514	10.6205	5.90447	0.0720369	0.0399202	0.0823586	28.9936	200872	362478	414415	-61.0064	0.0000000E+000	0.0000000E+000	0.0000000E+000	61.0064	0.0000000E+000	0.0000000E+000	0.0000000E+000	-61.0064	0.0000000E+000	0.0000000E+000	0.0000000E+000	-28.9936	0.0000000E+000	0.0000000E+000	0.0000000E+000	28.9936	1.80452	61.0064	-1.12741e-06	-4.66218e-06	1.29382e-09	-4.66347e-06	0.283363	17213	4.77687	17217.8
21.5517	12.4838	5.55714	13.6648	-23.9962	11.3345	0.283288	-0.0166661	1328.88	219.778	1	10	0.00472719	0.000345939	0	7.73369e-05	0.000131214	8.27036e-06	48.7977	0.023907	0.015748	-0.0179873	-23.9005	13.6719	12.4995	5.53916	0.066856	0.0297609	0.0731808	23.9962	219778	493717	540425	-66.0038	0.0000000E+000	0.0000000E+000	0.0000000E+000	66.0038	0.0000000E+000	0.0000000E+000	0.0000000E+000	-66.0038	0.0000000E+000	0.0000000E+000	0.0000000E+000	-23.9962	0.0000000E+000	0.0000000E+000	0.0000000E+000	23.9962	2.24644	66.0038	-1.77071e-06	-4.7213e-06	-2.18682e-09	-4.71911e-06	0.283157	16997.9	7.87312	16990
14.6852	14.1092	4.95222	14.9531	-19.3407	12.0452	0.283325	-0.00134438	2188.48	240.039	1	11	0.0047324	0.000316483	0	7.39487e-05	-0.000135842	4.98291e-06	-7.74687	0.0157446	0.0156009	0.00212232	-19.3286	14.9685	14.1248	4.95434	0.0631019	0.0221483	0.0668759	19.3407	240039	683886	724789	-70.6593	0.0000000E+000	0.0000000E+000	0.0000000E+000	70.6593	0.0000000E+000	0.0000000E+000	0.0000000E+000	-70.6593	0.0000000E+000	0.0000000E+000	0.0000000E+000	-19.3407	0.0000000E+000	0.0000000E+000	0.0000000E+000	19.3407	2.84907	70.6593	-3.38813e-06	-3.80897e-07	1.82623e-10	-3.81079e-07	0.283461	210748	101.044	210849
10.0032	15.287	4.16225	15.8435	-15.231	12.4958	0.283324	-0.00193144	3822.54	263.82	1	11	0.00472531	0.000298249	0	7.60054e-05	-0.000135842	6.84203e-06	16.5508	0.0229407	0.0219902	-0.00653498	-15.1873	15.863	15.309	4.15572	0.0609003	0.0165816	0.0631173	15.231	263820	968948	1.00422e+06	-74.7691	0.0000000E+000	0.0000000E+000	0.0000000E+000	74.7691	0.0000000E+000	0.0000000E+000	0.0000000E+000	-74.7691	0.0000000E+000	0.0000000E+000	0.0000000E+000	-15.231	0.0000000E+000	0.0000000E+000	0.0000000E+000	15.231	3.67277	74.7691	2.0566e-06	-5.47224e-07	2.62371e-10	-5.47487e-07	0.28346	146690	70.3319	146761
6.81719	16.1474	3.44451	16.5107	-12.0417	12.8355	0.283343	-0.000313392	6777.79	294.994	1	11	0.00473005	0.000286485	0	7.33361e-05	-0.000231219	5.89766e-06	-50.5981	0.0205863	0.0130673	0.0159073	-12.0862	16.5268	16.1604	3.46041	0.0592342	0.0126357	0.060567	12.0417	294994	1.38289e+06	1.414e+06	-77.9583	0.0000000E+000	0.0000000E+000	0.0000000E+000	77.9583	0.0000000E+000	0.0000000E+000	0.0000000E+000	-77.9583	0.0000000E+000	0.0000000E+000	0.0000000E+000	-12.0417	0.0000000E+000	0.0000000E+000	0.0000000E+000	12.0417	4.68786	77.9583	-2.66921e-06	-8.87974e-08	7.24621e-11	-8.88699e-08	0.283574	904119	737.796	904857
4.63925	16.7608	2.85814	17.0028	-9.67727	13.3195	0.283342	-0.00156243	12003	339.168	1	11	0.00472309	0.000277783	0	7.3698e-05	-0.00026937	1.17528e-05	76.1355	0.0423093	0.0101384	-0.0410766	-9.5351	17.0059	16.771	2.81706	0.057977	0.00988651	0.0588139	9.67727	339168	1.98897e+06	2.01768e+06	-80.3227	0.0000000E+000	0.0000000E+000	0.0000000E+000	80.3227	0.0000000E+000	0.0000000E+000	0.0000000E+000	-80.3227	0.0000000E+000	0.0000000E+000	0.0000000E+000	-9.67727	0.0000000E+000	0.0000000E+000	0.0000000E+000	9.67727	5.86425	80.3227	3.61819e-07	-4.42702e-07	4.20873e-10	-4.43123e-07	0.283611	181346	172.404	181519
3.1604	17.1991	2.43666	17.3709	-8.06362	14.0125	0.283334	-0.000726757	20667.3	406.658	1	11	0.00472657	0.000272097	0	7.73388e-05	-0.0004792	2.99894e-06	115.804	0.0110216	-0.00479759	-0.00992262	-8.03342	17.3648	17.1943	2.42674	0.0569984	0.00807515	0.0575676	8.06362	406658	2.87039e+06	2.89906e+06	-81.9364	0.0000000E+000	0.0000000E+000	0.0000000E+000	81.9364	0.0000000E+000	0.0000000E+000	0.0000000E+000	-81.9364	0.0000000E+000	0.0000000E+000	0.0000000E+000	-8.06362	0.0000000E+000	0.0000000E+000	0.0000000E+000	8.06362	7.0585	81.9364	3.64088e-06	-2.05915e-07	3.48262e-10	-2.06263e-07	0.283813	389860	659.367	390519
2.15577	17.6231	2.13638	17.7521	-6.91202	15.016	0.283329	-0.000291587	34557.3	500.492	1	11	0.0047293	0.000266408	0	7.9168e-05	-0.000402898	5.6518e-06	19.1798	0.0212148	0.0200372	-0.0069698	-6.88194	17.7712	17.6431	2.12941	0.0559219	0.0067792	0.0563313	6.91202	500491	4.12858e+06	4.1588e+06	-83.088	0.0000000E+000	0.0000000E+000	0.0000000E+000	83.088	0.0000000E+000	0.0000000E+000	0.0000000E+000	-83.088	0.0000000E+000	0.0000000E+000	0.0000000E+000	-6.91202	0.0000000E+000	0.0000000E+000	0.0000000E+000	6.91202	8.24904	83.088	1.82913e-06	-8.26152e-08	1.1748e-10	-8.27327e-08	0.283732	971679	1381.74	973061
1.46631	17.9863	1.98154	18.0951	-6.28689	16.4776	0.283328	9.93577e-05	54776.3	656.863	1	11	0.00472714	0.000261239	0	7.57264e-05	-9.76912e-05	4.01449e-06	35.5481	0.0153671	0.0125031	-0.00893425	-6.25445	18.1065	17.9988	1.9726	0.0549313	0.00605174	0.0552636	6.28689	656863	5.9623e+06	5.99838e+06	-83.7131	0.0000000E+000	0.0000000E+000	0.0000000E+000	83.7131	0.0000000E+000	0.0000000E+000	0.0000000E+000	-83.7131	0.0000000E+000	0.0000000E+000	0.0000000E+000	-6.28689	0.0000000E+000	0.0000000E+000	0.0000000E+000	6.28689	9.07693	83.7131	-3.44158e-06	2.81509e-08	-9.70637e-12	2.81606e-08	0.283426	2.8516e+06	983.227	2.85258e+06
1.00006	18.3528	1.90346	18.4512	-5.92128	19.653	0.283329	-0.00037741	83608	889.79	1	12	0.00472867	0.00025628	0	6.65514e-05	-0.0004792	1.98188e-06	60.1057	0.00773327	0.00385428	-0.00670433	-5.89935	18.4544	18.3566	1.89676	0.0539078	0.00559107	0.054197	5.92128	889791	8.57915e+06	8.62517e+06	-84.0787	0.0000000E+000	0.0000000E+000	0.0000000E+000	84.0787	0.0000000E+000	0.0000000E+000	0.0000000E+000	-84.0787	0.0000000E+000	0.0000000E+000	0.0000000E+000	-5.92128	0.0000000E+000	0.0000000E+000	0.0000000E+000	5.92128	9.64177	84.0787	-9.17497e-06	-1.06931e-07	1.80855e-10	-1.07112e-07	0.283809	750721	1269.71	751990
0.681362	18.7678	1.86988	18.8607	-5.68975	22.7651	0.28333	-0.000717072	124919	1227.84	1	12	0.00473041	0.000250808	0	5.89117e-05	-9.76912e-05	3.19421e-06	-14.8373	0.0127357	0.012311	0.00326128	-5.6959	18.8732	18.7801	1.87314	0.0527592	0.00525653	0.0530204	5.68975	1.22784e+06	1.23237e+07	1.23847e+07	-84.3102	0.0000000E+000	0.0000000E+000	0.0000000E+000	84.3102	0.0000000E+000	0.0000000E+000	0.0000000E+000	-84.3102	0.0000000E+000	0.0000000E+000	0.0000000E+000	-5.68975	0.0000000E+000	0.0000000E+000	0.0000000E+000	5.68975	10.0369	84.3102	-7.63969e-06	-2.03168e-07	7.00516e-11	-2.03238e-07	0.283428	395121	136.236	395257
0.464091	19.1864	1.91245	19.2815	-5.69229	27.3206	0.283329	-0.00140778	179319	1764.11	1	12	0.0047287	0.000245245	0	5.89241e-05	-0.000116767	3.15694e-06	-64.6464	0.0128726	0.00551209	0.0116327	-5.72505	19.2882	19.1919	1.92408	0.0516074	0.00514409	0.0518631	5.69229	1.76411e+06	1.76982e+07	1.77859e+07	-84.3077	0.0000000E+000	0.0000000E+000	0.0000000E+000	84.3077	0.0000000E+000	0.0000000E+000	0.0000000E+000	-84.3077	0.0000000E+000	0.0000000E+000	0.0000000E+000	-5.69229	0.0000000E+000	0.0000000E+000	0.0000000E+000	5.69229	10.0324	84.3077	1.24142e-08	-3.98866e-07	1.64382e-10	-3.9903e-07	0.283446	201259	82.9437	201342
0.316193	19.5911	1.95025	19.6879	-5.68495	33.9952	0.283331	-0.00171386	258093	2532.56	1	12	0.00472845	0.00024017	0	7.22714e-05	-2.13895e-05	5.05958e-07	68.6284	0.00210666	0.000767699	-0.0019618	-5.67905	19.6885	19.5919	1.94829	0.0505428	0.00503143	0.0507926	5.68495	2.53256e+06	2.54406e+07	2.55663e+07	-84.315	0.0000000E+000	0.0000000E+000	0.0000000E+000	84.315	0.0000000E+000	0.0000000E+000	0.0000000E+000	-84.315	0.0000000E+000	0.0000000E+000	0.0000000E+000	-5.68495	0.0000000E+000	0.0000000E+000	0.0000000E+000	5.68495	10.0454	84.315	1.33472e-05	-4.8559e-07	3.66587e-11	-4.85627e-07	0.283352	165317	12.4803	165329
0.215268	20.0047	1.99403	20.1038	-5.69233	43.7876	0.28333	-0.00176188	370775	3647.67	1	12	0.00473096	0.000235327	0	9.94227e-05	0.00018844	1.71562e-06	-21.506	0.00729039	0.00678282	0.00267265	-5.69799	20.1108	20.0115	1.9967	0.0494965	0.00493372	0.0497418	5.69233	3.64767e+06	3.65945e+07	3.67759e+07	-84.3077	0.0000000E+000	0.0000000E+000	0.0000000E+000	84.3077	0.0000000E+000	0.0000000E+000	0.0000000E+000	-84.3077	0.0000000E+000	0.0000000E+000	0.0000000E+000	-5.69233	0.0000000E+000	0.0000000E+000	0.0000000E+000	5.69233	10.0323	84.3077	2.71513e-05	-4.99192e-07	-3.32009e-10	-4.9886e-07	0.283141	160811	106.954	160704
0.146929	20.3991	2.1046	20.5074	-5.89043	58.1259	0.283328	-0.000745162	514689	5420.78	1	12	0.00472943	0.000230621	0	0.00013092	-0.000116767	8.29996e-07	-0.0867776	0.00359896	0.00359895	5.45081e-06	-5.88941	20.5109	20.4027	2.1046	0.0485055	0.00500436	0.048763	5.89043	5.42078e+06	5.25417e+07	5.28206e+07	-84.1096	0.0000000E+000	0.0000000E+000	0.0000000E+000	84.1096	0.0000000E+000	0.0000000E+000	0.0000000E+000	-84.1096	0.0000000E+000	0.0000000E+000	0.0000000E+000	-5.89043	0.0000000E+000	0.0000000E+000	0.0000000E+000	5.89043	9.69264	84.1096	3.14976e-05	-2.11125e-07	8.70101e-11	-2.11212e-07	0.283445	380223	156.7	380380
0.0999041	20.7893	2.33534	20.92	-6.40938	79.2031	0.283329	0.000700865	682162	8500.85	1	12	0.0047275	0.00022598	0	0.000149187	-4.04649e-05	2.10837e-06	-13.2554	0.00932989	0.00908132	0.00213927	-6.41243	20.9293	20.7983	2.33748	0.0475023	0.00533612	0.0478011	6.40938	8.50085e+06	7.56749e+07	7.61509e+07	-83.5906	0.0000000E+000	0.0000000E+000	0.0000000E+000	83.5906	0.0000000E+000	0.0000000E+000	0.0000000E+000	-83.5906	0.0000000E+000	0.0000000E+000	0.0000000E+000	-6.40938	0.0000000E+000	0.0000000E+000	0.0000000E+000	6.40938	8.90204	83.5906	1.82663e-05	1.98575e-07	-2.83604e-11	1.98604e-07	0.283369	404256	57.7357	404314
0.0680626	21.1572	2.75091	21.3352	-7.4082	110.13	0.283332	0.0016741	850030	14131.7	1	12	0.00473084	0.000221738	0	0.000134593	-5.95403e-05	1.98257e-06	0.485401	0.00894102	0.0089407	-7.5746e-05	-7.4049	21.3441	21.1661	2.75084	0.0464795	0.0060434	0.0468708	7.4082	1.41317e+07	1.08686e+08	1.09601e+08	-82.5918	0.0000000E+000	0.0000000E+000	0.0000000E+000	82.5918	0.0000000E+000	0.0000000E+000	0.0000000E+000	-82.5918	0.0000000E+000	0.0000000E+000	0.0000000E+000	-7.4082	0.0000000E+000	0.0000000E+000	0.0000000E+000	7.4082	7.69095	82.5918	-1.45934e-05	4.74327e-07	-9.96766e-11	4.74426e-07	0.283391	169244	35.5655	169280
0.0464052	21.4879	3.34448	21.7467	-8.8468	155.482	0.283332	0.00142936	1.02547e+06	24254.8	1	12	0.00473046	0.000217526	0	4.30256e-05	-0.000307521	2.13304e-06	-10.6738	0.00980592	0.00963626	0.00181622	-8.84763	21.7565	21.4976	3.3463	0.045437	0.00707203	0.0459841	8.8468	2.42548e+07	1.55834e+08	1.57711e+08	-81.1532	0.0000000E+000	0.0000000E+000	0.0000000E+000	81.1532	0.0000000E+000	0.0000000E+000	0.0000000E+000	-81.1532	0.0000000E+000	0.0000000E+000	0.0000000E+000	-8.8468	0.0000000E+000	0.0000000E+000	0.0000000E+000	8.8468	6.42489	81.1532	-9.15676e-05	4.04982e-07	-4.39557e-10	4.05422e-07	0.283639	198224	215.146	198439
0.0315922	21.9297	4.15535	22.3199	-10.7295	222.088	0.283335	0.000170685	1.21236e+06	42020.8	1	12	0.00472725	0.000211796	0	-0.000138102	-2.13895e-05	1.37621e-06	105.784	0.0064978	-0.00176744	-0.0062528	-10.7146	22.317	21.9279	4.14909	0.0440198	0.00834111	0.0448031	10.7295	4.20208e+07	2.21763e+08	2.25709e+08	-79.2705	0.0000000E+000	0.0000000E+000	0.0000000E+000	79.2705	0.0000000E+000	0.0000000E+000	0.0000000E+000	-79.2705	0.0000000E+000	0.0000000E+000	0.0000000E+000	-10.7295	0.0000000E+000	0.0000000E+000	0.0000000E+000	10.7295	5.27745	79.2705	-0.000181128	4.8361e-08	-3.65086e-12	4.83647e-08	0.283357	1.65999e+06	125.316	1.66012e+06
0.0215268	22.6379	5.39212	23.2712	-13.3976	319.825	0.283335	-0.00116879	1.37114e+06	73614.3	1	12	0.0047313	0.000203311	0	-0.000351945	-0.000326596	2.56313e-06	15.9945	0.0126069	0.0121189	-0.00347378	-13.3824	23.2822	22.65	5.38865	0.0418021	0.00995683	0.0429715	13.3976	7.36143e+07	3.09057e+08	3.17703e+08	-76.6024	0.0000000E+000	0.0000000E+000	0.0000000E+000	76.6024	0.0000000E+000	0.0000000E+000	0.0000000E+000	-76.6024	0.0000000E+000	0.0000000E+000	0.0000000E+000	-13.3976	0.0000000E+000	0.0000000E+000	0.0000000E+000	13.3976	4.19833	76.6024	-0.000213843	-3.31158e-07	3.81721e-10	-3.3154e-07	0.283662	242418	279.432	242698
0.0146812	23.4723	7.25728	24.5686	-17.1808	463.128	0.283334	-0.00180976	1.49378e+06	130338	1	12	0.00473115	0.000192569	0	-0.000447278	-0.000307521	1.69285e-06	0.0590948	0.0087909	0.00879089	-9.06692e-06	-17.1747	24.577	23.4811	7.25727	0.0388861	0.012023	0.0407023	17.1808	1.30338e+08	4.21554e+08	4.41243e+08	-72.8192	0.0000000E+000	0.0000000E+000	0.0000000E+000	72.8192	0.0000000E+000	0.0000000E+000	0.0000000E+000	-72.8192	0.0000000E+000	0.0000000E+000	0.0000000E+000	-17.1808	0.0000000E+000	0.0000000E+000	0.0000000E+000	17.1808	3.23431	72.8192	-9.53326e-05	-5.12765e-07	5.56538e-10	-5.13322e-07	0.283641	156559	169.924	156729
0.0100092	24.3584	9.61806	26.1885	-21.5469	673.311	0.283333	-0.00143351	1.65324e+06	222991	1	12	0.00472921	0.000180583	0	-0.000216639	-7.86157e-05	1.4838e-06	18.3015	0.0082167	0.00780108	-0.00258018	-21.5354	26.1948	24.3662	9.61548	0.0355162	0.0140238	0.0381846	21.5469	2.22991e+08	5.6474e+08	6.07171e+08	-68.4531	0.0000000E+000	0.0000000E+000	0.0000000E+000	68.4531	0.0000000E+000	0.0000000E+000	0.0000000E+000	-68.4531	0.0000000E+000	0.0000000E+000	0.0000000E+000	-21.5469	0.0000000E+000	0.0000000E+000	0.0000000E+000	21.5469	2.53257	68.4531	0.000230639	-4.06161e-07	1.12696e-10	-4.06273e-07	0.283412	197650	54.8415	197705