File: txt/18221_R279_UA654_SOC00_C08.mpt
EC-Lab ASCII FILE
Nb header lines : 65

Potentio Electrochemical Impedance Spectroscopy

Run on channel : 8 (SN 65398)
User :
CE vs. WE compliance from -10 V to 10 V
Electrode connection : standard
Potential control : Ewe
Ewe ctrl range : min = -10.00 V, max = 10.00 V
Safety Limits :
	Do not start on E overload
Acquisition started on : 10/08/2025 08:32:01.208
Technique started on : 10/08/2025 08:32:03.119
Loaded Setting File :  C:\Users\Celltest\OneDrive - store-dot.com\Documents\EC-Lab\Data\@Biologic Test Protocols\anode half cell EIS SOC00.mps
Saved on :
	File : 18221_R279_UA654_SOC00_C08.mpr
	Directory : C:\Users\Celltest\OneDrive - store-dot.com\Documents\EC-Lab\Data\Charmaine\
	Host : 169.254.61.224
Device : VMP-3e (SN .003165)
Address : USB
EC-LAB for windows v11.62 (software)
Internet server v27.00 (firmware)
Command interpretor v12.03 (firmware)
Electrode material :
Initial state :
Electrolyte :
Comments :
Electrode surface area : 0.001 cm²
Characteristic mass : 0.001 g
Equivalent Weight : 0.000 g/eq.
Density : 0.000 g/cm3
Volume (V) : 0.001 cm³
Record Ece
Cycle Definition : Charge/Discharge alternance
Mode                Single sine
E (V)               0.0000
vs.                 Eoc
tE (h:m:s)          0:00:0.0000
record              0
dI                  0.000
unit dI             mA
dt (s)              0.000
fi                  100.000
unit fi             kHz
ff                  10.000
unit ff             mHz
Nd                  6
Points              per decade
spacing             Logarithmic
Va (mV)             5.0
pw                  0.10
Na                  2
corr                0
E range min (V)     -10.000
E range max (V)     10.000
I Range             Auto
Bandwidth           5
nc cycles           0
goto Ns'            0
nr cycles           0
inc. cycle          0

freq/Hz	Re(Z)/Ohm	-Im(Z)/Ohm	|Z|/Ohm	Phase(Z)/deg	time/s	<Ewe>/V	<I>/mA	Cs/µF	Cp/µF	cycle number	I Range	|Ewe|/V	|I|/A	Ns	(Q-Qo)/mA.h	<Ece>/V	|Ece|/V	Phase(Zce)/deg	|Zce|/Ohm	Re(Zce)/Ohm	-Im(Zce)/Ohm	Phase(Zwe-ce)/deg	|Zwe-ce|/Ohm	Re(Zwe-ce)/Ohm	-Im(Zwe-ce)/Ohm	Re(Y)/Ohm-1	Im(Y)/Ohm-1	|Y|/Ohm-1	Phase(Y)/deg	Re(C)/nF	Im(C)/nF	|C|/nF	Phase(C)/deg	Re(M)	Im(M)	|M|	Phase(M)/deg	Re(Permittivity)	Im(Permittivity)	|Permittivity|	Phase(Permittivity)/deg	Re(Resistivity)/Ohm.cm	Im(Resistivity)/Ohm.cm	|Resistivity|/Ohm.cm	Phase(Resistivity)/deg	Re(Conductivity)/mS/cm	Im(Conductivity)/mS/cm	|Conductivity|/mS/cm	Phase(Conductivity)/deg	Tan(Delta)	Loss Angle(Delta)/deg	dq/mA.h	Pwe/W	Pce/W	Pwe-ce/W	<Ewe-Ece>/V	Rwe/Ohm	Rce/Ohm	Rwe-ce/Ohm		Ewe-Ece/V
100004	1.00091	0.269592	1.03658	-15.0746	1.91052	0.282828	0.0141021	5.90333	0.399303	1	9	0.00485486	0.00468352	0	-1.33843e-06	-0.00020366	6.13304e-05	98.0093	0.0130949	-0.00182457	-0.0129672	-14.4055	1.03152	0.999088	0.256625	0.93151	0.250899	0.964708	15.0746	399.303	1482.49	1535.32	-74.9254	0.0000000E+000	0.0000000E+000	0.0000000E+000	74.9254	0.0000000E+000	0.0000000E+000	0.0000000E+000	-74.9254	0.0000000E+000	0.0000000E+000	0.0000000E+000	-15.0746	0.0000000E+000	0.0000000E+000	0.0000000E+000	15.0746	3.7127	74.9254	-1.33843e-06	3.98848e-06	-2.87203e-09	3.99135e-06	0.283032	20055.7	14.4418	20070.2
68132	1.06644	0.303137	1.10869	-15.8679	2.29352	0.282818	0.00495038	7.706	0.576088	1	9	0.00548064	0.00494336	0	-1.6915e-05	0.000235366	3.13589e-05	99.4617	0.00634365	-0.00104282	-0.00625735	-15.5708	1.10599	1.0654	0.29688	0.867597	0.246615	0.901966	15.8679	576.088	2026.69	2106.97	-74.1321	0.0000000E+000	0.0000000E+000	0.0000000E+000	74.1321	0.0000000E+000	0.0000000E+000	0.0000000E+000	-74.1321	0.0000000E+000	0.0000000E+000	0.0000000E+000	-15.8679	0.0000000E+000	0.0000000E+000	0.0000000E+000	15.8679	3.51801	74.1321	-1.55766e-05	1.40005e-06	1.16515e-09	1.39889e-06	0.282582	57130.5	47.545	57083
46420.4	1.13828	0.342118	1.18858	-16.7285	2.80053	0.282828	0.0173015	10.0216	0.830287	1	9	0.0050331	0.00423454	0	-1.30456e-05	-3.1867e-05	2.81555e-05	77.4346	0.00664901	0.00144652	-0.00648976	-16.4087	1.18812	1.13973	0.335628	0.805732	0.242168	0.841338	16.7285	830.287	2762.5	2884.58	-73.2715	0.0000000E+000	0.0000000E+000	0.0000000E+000	73.2715	0.0000000E+000	0.0000000E+000	0.0000000E+000	-73.2715	0.0000000E+000	0.0000000E+000	0.0000000E+000	-16.7285	0.0000000E+000	0.0000000E+000	0.0000000E+000	16.7285	3.32716	73.2715	3.86944e-06	4.89334e-06	-5.51347e-10	4.89389e-06	0.282859	16347	1.84187	16348.8
31621.1	1.21842	0.398135	1.28182	-18.0955	3.30953	0.282835	0.0171155	12.6419	1.21961	1	9	0.00508473	0.00396681	0	-7.49557e-06	6.3091e-06	2.48725e-05	56.3112	0.00627016	0.00347794	-0.00521716	-17.8259	1.28352	1.2219	0.392917	0.741556	0.242313	0.780142	18.0955	1219.61	3732.39	3926.6	-71.9045	0.0000000E+000	0.0000000E+000	0.0000000E+000	71.9045	0.0000000E+000	0.0000000E+000	0.0000000E+000	-71.9045	0.0000000E+000	0.0000000E+000	0.0000000E+000	-18.0955	0.0000000E+000	0.0000000E+000	0.0000000E+000	18.0955	3.06032	71.9045	5.55003e-06	4.84086e-06	1.07983e-10	4.84075e-06	0.282829	16525.1	0.36862	16524.8
21544.7	1.31698	0.456616	1.39389	-19.1222	3.69455	0.28284	0.0208729	16.1782	1.73609	1	9	0.00534148	0.00383206	0	-1.02234e-06	-3.1867e-05	6.28766e-06	60.8087	0.0016408	0.000800265	-0.00143241	-19.0558	1.39418	1.31778	0.455183	0.67783	0.235013	0.717416	19.1222	1736.09	5007.27	5299.69	-70.8778	0.0000000E+000	0.0000000E+000	0.0000000E+000	70.8778	0.0000000E+000	0.0000000E+000	0.0000000E+000	-70.8778	0.0000000E+000	0.0000000E+000	0.0000000E+000	-19.1222	0.0000000E+000	0.0000000E+000	0.0000000E+000	19.1222	2.88422	70.8778	6.47322e-06	5.90367e-06	-6.65156e-10	5.90434e-06	0.282871	13550.6	1.52672	13552.1
14678.6	1.42113	0.515719	1.51181	-19.9456	4.07755	0.282841	0.0175991	21.0243	2.44655	1	9	0.00496903	0.00328681	0	-5.43975e-07	6.35733e-05	5.80815e-06	0.494861	0.00176711	0.00176705	-1.52623e-05	-19.9222	1.51347	1.4229	0.515704	0.621782	0.225641	0.661458	19.9456	2446.55	6741.77	7171.97	-70.0545	0.0000000E+000	0.0000000E+000	0.0000000E+000	70.0545	0.0000000E+000	0.0000000E+000	0.0000000E+000	-70.0545	0.0000000E+000	0.0000000E+000	0.0000000E+000	-19.9456	0.0000000E+000	0.0000000E+000	0.0000000E+000	19.9456	2.75562	70.0545	4.7837e-07	4.97774e-06	1.11883e-09	4.97662e-06	0.282777	16071.4	3.61231	16067.7
10002.2	1.53981	0.588331	1.64838	-20.9108	4.46056	0.282844	0.0143625	27.0459	3.44533	1	9	0.00490341	0.00297468	0	2.40263e-06	-1.2779e-05	1.12074e-05	-120.515	0.00376759	-0.00191307	0.00324575	-21.04	1.64776	1.5379	0.591577	0.5667	0.216524	0.606656	20.9108	3445.33	9017.3	9653.08	-69.0892	0.0000000E+000	0.0000000E+000	0.0000000E+000	69.0892	0.0000000E+000	0.0000000E+000	0.0000000E+000	-69.0892	0.0000000E+000	0.0000000E+000	0.0000000E+000	-20.9108	0.0000000E+000	0.0000000E+000	0.0000000E+000	20.9108	2.61726	69.0892	2.9466e-06	4.06234e-06	-1.83537e-10	4.06252e-06	0.282857	19693.3	0.889746	19694.2
6810.42	1.67868	0.669281	1.80718	-21.7369	4.71955	0.282843	0.0130232	34.917	4.78906	1	9	0.0045752	0.00253168	0	2.99979e-06	0.000101749	5.14964e-05	-114.168	0.0203408	-0.00832784	0.0185579	-22.3815	1.80644	1.67036	0.687839	0.514001	0.204929	0.553347	21.7369	4789.06	12011.9	12931.3	-68.2631	0.0000000E+000	0.0000000E+000	0.0000000E+000	68.2631	0.0000000E+000	0.0000000E+000	0.0000000E+000	-68.2631	0.0000000E+000	0.0000000E+000	0.0000000E+000	-21.7369	0.0000000E+000	0.0000000E+000	0.0000000E+000	21.7369	2.50819	68.2631	5.97159e-07	3.68351e-06	1.3251e-09	3.68219e-06	0.282741	21718.4	7.81294	21710.6
4646	1.83077	0.77276	1.98718	-22.8844	5.11363	0.282801	-0.0225049	44.3298	6.70367	1	9	0.00496247	0.00249725	0	-2.12912e-07	-0.000337276	1.24547e-05	51.3097	0.00498736	0.00311765	-0.00389282	-22.7462	1.98854	1.83389	0.768867	0.463618	0.195691	0.503227	22.8844	6703.67	15881.9	17238.7	-67.1156	0.0000000E+000	0.0000000E+000	0.0000000E+000	67.1156	0.0000000E+000	0.0000000E+000	0.0000000E+000	-67.1156	0.0000000E+000	0.0000000E+000	0.0000000E+000	-22.8844	0.0000000E+000	0.0000000E+000	0.0000000E+000	22.8844	2.36913	67.1156	-3.2127e-06	-6.36442e-06	7.59038e-09	-6.37201e-06	0.283138	12566.2	14.9867	12581.2
3163.08	2.00069	0.885269	2.1878	-23.8685	5.48561	0.282529	-0.12749	56.8374	9.30614	1	9	0.00486967	0.00222583	0	-1.47098e-05	6.3091e-06	8.73121e-06	10.2746	0.00392268	0.00385977	-0.000699672	-23.8109	2.19105	2.00455	0.88457	0.417989	0.184952	0.45708	23.8685	9306.14	21031.7	22998.6	-66.1315	0.0000000E+000	0.0000000E+000	0.0000000E+000	66.1315	0.0000000E+000	0.0000000E+000	0.0000000E+000	-66.1315	0.0000000E+000	0.0000000E+000	0.0000000E+000	-23.8685	0.0000000E+000	0.0000000E+000	0.0000000E+000	23.8685	2.25998	66.1315	-1.44969e-05	-3.60196e-05	-8.04345e-10	-3.60187e-05	0.282523	2216.1	0.0494871	2216.05
2155.69	2.19625	1.02984	2.42572	-25.1223	5.93778	0.282735	0.0571078	71.6909	12.9218	1	9	0.00480835	0.00198224	0	-7.38037e-06	4.44852e-05	6.73053e-06	20.9771	0.00339542	0.00317038	-0.00121554	-25.0645	2.42807	2.19942	1.02863	0.373252	0.175021	0.412249	25.1223	12921.8	27557.3	30436.4	-64.8777	0.0000000E+000	0.0000000E+000	0.0000000E+000	64.8777	0.0000000E+000	0.0000000E+000	0.0000000E+000	-64.8777	0.0000000E+000	0.0000000E+000	0.0000000E+000	-25.1223	0.0000000E+000	0.0000000E+000	0.0000000E+000	25.1223	2.13262	64.8777	7.3294e-06	1.61464e-05	2.54045e-09	1.61438e-05	0.28269	4950.9	0.778969	4950.12
1468.59	2.41378	1.21198	2.70097	-26.6616	6.38905	0.282741	0.0569962	89.4179	18.0043	1	9	0.0047873	0.00177244	0	-2.57293e-06	0.000464422	8.19041e-06	25.7322	0.00462098	0.00416273	-0.00200627	-26.584	2.70379	2.41794	1.20997	0.330871	0.166133	0.370238	26.6616	18004.3	35857.4	40123.6	-63.3384	0.0000000E+000	0.0000000E+000	0.0000000E+000	63.3384	0.0000000E+000	0.0000000E+000	0.0000000E+000	-63.3384	0.0000000E+000	0.0000000E+000	0.0000000E+000	-26.6616	0.0000000E+000	0.0000000E+000	0.0000000E+000	26.6616	1.9916	63.3384	4.80744e-06	1.61152e-05	2.64703e-08	1.60887e-05	0.282276	4960.7	8.14831	4952.55
1000.32	2.67008	1.43726	3.03233	-28.2929	6.83979	0.282733	0.0507834	110.699	24.8693	1	9	0.00476708	0.00157208	0	4.15744e-06	0.000235366	4.88552e-06	59.4285	0.00310767	0.0015806	-0.00267569	-28.2342	3.03246	2.67166	1.43459	0.290382	0.156308	0.329779	28.2929	24869.3	46201	52469.1	-61.7071	0.0000000E+000	0.0000000E+000	0.0000000E+000	61.7071	0.0000000E+000	0.0000000E+000	0.0000000E+000	-61.7071	0.0000000E+000	0.0000000E+000	0.0000000E+000	-28.2929	0.0000000E+000	0.0000000E+000	0.0000000E+000	28.2929	1.85776	61.7071	6.73037e-06	1.43582e-05	1.19527e-08	1.43462e-05	0.282498	5567.43	4.6347	5562.8
681.09	2.96941	1.69732	3.42027	-29.7524	7.53553	0.282762	-0.0237926	137.674	33.9045	1	10	0.00484518	0.00141661	0	4.78163e-06	0.000502599	1.19369e-05	-6.31399	0.00842639	0.00837528	0.00092671	-29.6964	3.42801	2.97778	1.69825	0.253833	0.145091	0.292374	29.7524	33904.5	59314.9	68321.1	-60.2476	0.0000000E+000	0.0000000E+000	0.0000000E+000	60.2476	0.0000000E+000	0.0000000E+000	0.0000000E+000	-60.2476	0.0000000E+000	0.0000000E+000	0.0000000E+000	-29.7524	0.0000000E+000	0.0000000E+000	0.0000000E+000	29.7524	1.74947	60.2476	6.24189e-07	-6.72764e-06	-1.19581e-08	-6.71568e-06	0.282259	11884.4	21.1241	11863.3
463.961	3.35641	2.04655	3.93114	-31.3725	7.98733	0.282756	-0.0212965	167.617	45.428	1	10	0.00482908	0.00122842	0	2.44039e-06	0.000311718	4.57398e-05	59.2843	0.0372347	0.0190187	-0.0320112	-30.8298	3.93089	3.37543	2.01454	0.217189	0.13243	0.254379	31.3725	45428	74503.6	87261	-58.6275	0.0000000E+000	0.0000000E+000	0.0000000E+000	58.6275	0.0000000E+000	0.0000000E+000	0.0000000E+000	-58.6275	0.0000000E+000	0.0000000E+000	0.0000000E+000	-31.3725	0.0000000E+000	0.0000000E+000	0.0000000E+000	31.3725	1.64004	58.6275	-2.34123e-06	-6.02171e-06	-6.63851e-09	-6.01508e-06	0.282444	13277.1	14.637	13262.4
316.316	3.81082	2.4679	4.54014	-32.9273	8.43501	0.282769	-0.0233276	203.878	60.2405	1	10	0.00478756	0.00105449	0	-5.26263e-07	0.000159014	1.03241e-05	-36.1908	0.00979054	0.00790151	0.00578108	-32.9343	4.54992	3.81872	2.47369	0.184876	0.119726	0.220257	32.9273	60240.5	93020.5	110823	-57.0727	0.0000000E+000	0.0000000E+000	0.0000000E+000	57.0727	0.0000000E+000	0.0000000E+000	0.0000000E+000	-57.0727	0.0000000E+000	0.0000000E+000	0.0000000E+000	-32.9273	0.0000000E+000	0.0000000E+000	0.0000000E+000	32.9273	1.54415	57.0727	-2.96666e-06	-6.59634e-06	-3.70941e-09	-6.59263e-06	0.28261	12121.6	6.81653	12114.8
215.345	4.40039	2.95915	5.30283	-33.9199	8.8856	0.282767	-0.0229556	249.757	77.7747	1	10	0.00477168	0.000899836	0	-4.32328e-06	0.000254454	7.30402e-06	80.0427	0.00811706	0.00140356	-0.00799479	-33.8397	5.29954	4.40179	2.95116	0.156486	0.105233	0.188578	33.9199	77774.7	115654	139373	-56.0801	0.0000000E+000	0.0000000E+000	0.0000000E+000	56.0801	0.0000000E+000	0.0000000E+000	0.0000000E+000	-56.0801	0.0000000E+000	0.0000000E+000	0.0000000E+000	-33.9199	0.0000000E+000	0.0000000E+000	0.0000000E+000	33.9199	1.48704	56.0801	-3.79701e-06	-6.4911e-06	-5.84115e-09	-6.48525e-06	0.282512	12318	11.0846	12306.9
146.737	5.16706	3.51217	6.24771	-34.2049	9.33155	0.282752	-0.0251132	308.819	97.5919	1	10	0.00476234	0.000762254	0	-7.68364e-06	0.000216278	1.481e-05	21.9591	0.0194292	0.0180196	-0.00726544	-34.0571	6.25855	5.18508	3.50491	0.132374	0.0899776	0.160059	34.2049	97591.9	143576	173604	-55.7951	0.0000000E+000	0.0000000E+000	0.0000000E+000	55.7951	0.0000000E+000	0.0000000E+000	0.0000000E+000	-55.7951	0.0000000E+000	0.0000000E+000	0.0000000E+000	-34.2049	0.0000000E+000	0.0000000E+000	0.0000000E+000	34.2049	1.47119	55.7951	-3.36036e-06	-7.10081e-06	-5.43143e-09	-7.09538e-06	0.282536	11259.1	8.6121	11250.5
100.032	6.13617	4.06326	7.35953	-33.5118	9.78282	0.282761	-0.021888	391.567	119.359	1	10	0.00473782	0.000643767	0	-9.76038e-06	0.000101749	2.51205e-05	-17.6219	0.0390211	0.0371901	0.011813	-33.4291	7.39707	6.17336	4.07508	0.113291	0.0750196	0.135878	33.5118	119359	180251	216188	-56.4882	0.0000000E+000	0.0000000E+000	0.0000000E+000	56.4882	0.0000000E+000	0.0000000E+000	0.0000000E+000	-56.4882	0.0000000E+000	0.0000000E+000	0.0000000E+000	-33.5118	0.0000000E+000	0.0000000E+000	0.0000000E+000	33.5118	1.51016	56.4882	-2.07674e-06	-6.18908e-06	-2.22709e-09	-6.18685e-06	0.282659	12918.5	4.64863	12913.9
68.104	7.40991	4.5532	8.69704	-31.5697	10.2444	0.282765	-0.0198941	513.252	140.677	1	10	0.00474695	0.000545813	0	-1.18706e-05	8.26613e-05	7.98473e-06	-1.55353	0.0146291	0.0146237	0.000396607	-31.5215	8.70971	7.42453	4.5536	0.0979649	0.060197	0.114982	31.5697	140677	228938	268705	-58.4303	0.0000000E+000	0.0000000E+000	0.0000000E+000	58.4303	0.0000000E+000	0.0000000E+000	0.0000000E+000	-58.4303	0.0000000E+000	0.0000000E+000	0.0000000E+000	-31.5697	0.0000000E+000	0.0000000E+000	0.0000000E+000	31.5697	1.62741	58.4303	-2.11022e-06	-5.62536e-06	-1.64447e-09	-5.62372e-06	0.282682	14213.5	4.15506	14209.3
46.4415	8.89677	4.79872	10.1084	-28.3414	10.6807	0.282759	-0.0264673	714.148	160.943	1	10	0.00474414	0.000469326	0	-1.48593e-05	0.000178102	6.24068e-06	-103.831	0.0132971	-0.00317887	0.0129115	-28.4144	10.1118	8.89359	4.81163	0.0870694	0.0469633	0.0989274	28.3414	160943	298386	339024	-61.6586	0.0000000E+000	0.0000000E+000	0.0000000E+000	61.6586	0.0000000E+000	0.0000000E+000	0.0000000E+000	-61.6586	0.0000000E+000	0.0000000E+000	0.0000000E+000	-28.3414	0.0000000E+000	0.0000000E+000	0.0000000E+000	28.3414	1.85399	61.6586	-2.98871e-06	-7.48386e-06	-4.71387e-09	-7.47914e-06	0.28258	10683.3	6.72912	10676.6
31.6296	10.4449	4.69907	11.4532	-24.2226	11.1096	0.282746	-0.0279553	1070.82	180.253	1	10	0.00474542	0.00041433	0	-1.87162e-05	0.000254454	1.06171e-05	3.32172	0.0256247	0.0255817	-0.00148476	-24.1635	11.476	10.4705	4.69758	0.0796245	0.0358225	0.0873116	24.2226	180253	400658	439338	-65.7774	0.0000000E+000	0.0000000E+000	0.0000000E+000	65.7774	0.0000000E+000	0.0000000E+000	0.0000000E+000	-65.7774	0.0000000E+000	0.0000000E+000	0.0000000E+000	-24.2226	0.0000000E+000	0.0000000E+000	0.0000000E+000	24.2226	2.22275	65.7774	-3.85688e-06	-7.90425e-06	-7.11333e-09	-7.89714e-06	0.282492	10114.2	9.10217	10105.1
21.5517	11.8342	4.23982	12.5708	-19.7109	11.5314	0.282728	-0.0309015	1741.77	198.134	1	10	0.00475616	0.000378349	0	-2.21177e-05	-3.1867e-05	1.68415e-05	45.1227	0.0445132	0.0314081	-0.0315429	-19.5276	12.5898	11.8656	4.20828	0.0748883	0.02683	0.0795494	19.7109	198134	553034	587455	-70.2891	0.0000000E+000	0.0000000E+000	0.0000000E+000	70.2891	0.0000000E+000	0.0000000E+000	0.0000000E+000	-70.2891	0.0000000E+000	0.0000000E+000	0.0000000E+000	-19.7109	0.0000000E+000	0.0000000E+000	0.0000000E+000	19.7109	2.79121	70.2891	-3.40154e-06	-8.73672e-06	9.84739e-10	-8.73771e-06	0.28276	9149.33	1.03124	9150.36
14.6852	12.9035	3.66175	13.413	-15.8428	11.9922	0.282767	-0.0214788	2959.74	220.585	1	10	0.0047461	0.000353843	0	-2.44055e-05	-8.91312e-05	6.2673e-06	65.7999	0.0177121	0.00726062	-0.0161555	-15.768	13.4156	12.9108	3.64559	0.0717224	0.0203533	0.0745544	15.8428	220585	777314	808007	-74.1572	0.0000000E+000	0.0000000E+000	0.0000000E+000	74.1572	0.0000000E+000	0.0000000E+000	0.0000000E+000	-74.1572	0.0000000E+000	0.0000000E+000	0.0000000E+000	-15.8428	0.0000000E+000	0.0000000E+000	0.0000000E+000	15.8428	3.52387	74.1572	-2.2878e-06	-6.07351e-06	1.91443e-09	-6.07543e-06	0.282857	13164.9	4.14972	13169.1
10.0032	13.731	3.047	14.065	-12.5116	12.6878	0.2828	-0.00722136	5221.66	245.061	1	11	0.00473805	0.000336868	0	-2.72087e-05	0.000178102	4.94125e-06	-89.5669	0.0146682	0.000110867	0.0146678	-12.5698	14.0683	13.7311	3.06167	0.0694101	0.0154026	0.0710985	12.5116	245061	1.10434e+06	1.13121e+06	-77.4884	0.0000000E+000	0.0000000E+000	0.0000000E+000	77.4884	0.0000000E+000	0.0000000E+000	0.0000000E+000	-77.4884	0.0000000E+000	0.0000000E+000	0.0000000E+000	-12.5116	0.0000000E+000	0.0000000E+000	0.0000000E+000	12.5116	4.50639	77.4884	-2.8032e-06	-2.0422e-06	-1.28613e-09	-2.04092e-06	0.282622	39161.7	24.6632	39137
6.81719	14.3408	2.49225	14.5557	-9.85882	13.0275	0.2828	-0.00780391	9367.51	274.624	1	11	0.00474311	0.000325859	0	-2.77394e-05	8.26613e-05	1.1916e-05	-53.6078	0.0365681	0.0216962	0.0294364	-9.95817	14.5822	14.3625	2.52168	0.067687	0.0117631	0.0687015	9.85882	274624	1.58023e+06	1.60391e+06	-80.1412	0.0000000E+000	0.0000000E+000	0.0000000E+000	80.1412	0.0000000E+000	0.0000000E+000	0.0000000E+000	-80.1412	0.0000000E+000	0.0000000E+000	0.0000000E+000	-9.85882	0.0000000E+000	0.0000000E+000	0.0000000E+000	9.85882	5.75416	80.1412	-5.30631e-07	-2.20695e-06	-6.45081e-10	-2.2063e-06	0.282718	36238.3	10.5923	36227.7
4.63925	14.7551	2.12475	14.9073	-8.19429	13.5125	0.282795	-0.0074782	16146	328.005	1	11	0.00474849	0.000318534	0	-2.52933e-05	0.000254454	1.03926e-05	-54.4845	0.0326262	0.0189533	0.0265564	-8.2848	14.9299	14.7741	2.1513	0.0663962	0.00956109	0.0670811	8.19429	328004	2.2778e+06	2.3013e+06	-81.8057	0.0000000E+000	0.0000000E+000	0.0000000E+000	81.8057	0.0000000E+000	0.0000000E+000	0.0000000E+000	-81.8057	0.0000000E+000	0.0000000E+000	0.0000000E+000	-8.19429	0.0000000E+000	0.0000000E+000	0.0000000E+000	8.19429	6.94442	81.8057	2.44606e-06	-2.1148e-06	-1.90286e-09	-2.11289e-06	0.282541	37815.9	34.0261	37781.9
3.1604	15.1083	1.84338	15.2203	-6.95635	14.2055	0.282781	-0.00690756	27318.9	400.725	1	11	0.00474357	0.000311661	0	-2.74722e-05	-1.2779e-05	5.43479e-06	28.611	0.0174382	0.0153088	-0.00835045	-6.9182	15.2345	15.1236	1.83503	0.0652181	0.00795734	0.0657017	6.95635	400725	3.28433e+06	3.30868e+06	-83.0436	0.0000000E+000	0.0000000E+000	0.0000000E+000	83.0436	0.0000000E+000	0.0000000E+000	0.0000000E+000	-83.0436	0.0000000E+000	0.0000000E+000	0.0000000E+000	-6.95635	0.0000000E+000	0.0000000E+000	0.0000000E+000	6.95635	8.19596	83.0436	-2.1789e-06	-1.95333e-06	8.82714e-11	-1.95341e-06	0.282794	40937.9	1.85	40939.7
2.15577	15.4155	1.68356	15.5072	-6.23269	15.2091	0.282798	-0.00565768	43852.1	516.871	1	11	0.00474814	0.00030619	0	-3.44938e-05	6.35733e-05	5.34722e-06	65.6906	0.0174637	0.00718918	-0.0159153	-6.17137	15.5126	15.4227	1.66764	0.0641052	0.00700106	0.0644863	6.23269	516871	4.73273e+06	4.76087e+06	-83.7673	0.0000000E+000	0.0000000E+000	0.0000000E+000	83.7673	0.0000000E+000	0.0000000E+000	0.0000000E+000	-83.7673	0.0000000E+000	0.0000000E+000	0.0000000E+000	-6.23269	0.0000000E+000	0.0000000E+000	0.0000000E+000	6.23269	9.1565	83.7673	-7.02163e-06	-1.59998e-06	-3.59678e-10	-1.59962e-06	0.282735	49984.8	11.2366	49973.6
1.46631	15.7367	1.56519	15.8144	-5.68002	16.6703	0.282803	-0.00519167	69346.9	679.294	1	11	0.00474717	0.000300181	0	-4.17599e-05	0.000159014	5.18666e-06	-2.60602	0.0172785	0.0172606	0.000785618	-5.67666	15.8316	15.754	1.56598	0.0629232	0.00625841	0.0632337	5.68002	679294	6.82975e+06	6.86345e+06	-84.32	0.0000000E+000	0.0000000E+000	0.0000000E+000	84.32	0.0000000E+000	0.0000000E+000	0.0000000E+000	-84.32	0.0000000E+000	0.0000000E+000	0.0000000E+000	-5.68002	0.0000000E+000	0.0000000E+000	0.0000000E+000	5.68002	10.0542	84.32	-7.26608e-06	-1.46822e-06	-8.25546e-10	-1.46739e-06	0.282644	54472.4	30.6286	54441.8
1.00006	16.0406	1.54117	16.1144	-5.4881	19.8438	0.282789	-0.00618891	103262	944.522	1	12	0.00474745	0.000294608	0	-4.56459e-05	0.000139925	3.71589e-06	-44.5377	0.012613	0.0089904	0.00884649	-5.51634	16.1242	16.0496	1.55002	0.0617717	0.00593499	0.0620561	5.4881	944522	9.83064e+06	9.87591e+06	-84.5119	0.0000000E+000	0.0000000E+000	0.0000000E+000	84.5119	0.0000000E+000	0.0000000E+000	0.0000000E+000	-84.5119	0.0000000E+000	0.0000000E+000	0.0000000E+000	-5.4881	0.0000000E+000	0.0000000E+000	0.0000000E+000	5.4881	10.4081	84.5119	-3.88603e-06	-1.75016e-06	-8.65987e-10	-1.74929e-06	0.282649	45692.8	22.6091	45670.2
0.681362	16.3702	1.54182	16.4427	-5.38051	22.9558	0.282808	-0.00536335	151498	1332.08	1	12	0.00474834	0.000288781	0	-3.90783e-05	0.000139925	2.48088e-06	-74.7754	0.00859085	0.00225599	0.00828935	-5.40852	16.4457	16.3725	1.55011	0.0605494	0.00570282	0.0608174	5.38051	1.33209e+06	1.41433e+07	1.42059e+07	-84.6195	0.0000000E+000	0.0000000E+000	0.0000000E+000	84.6195	0.0000000E+000	0.0000000E+000	0.0000000E+000	-84.6195	0.0000000E+000	0.0000000E+000	0.0000000E+000	-5.38051	0.0000000E+000	0.0000000E+000	0.0000000E+000	5.38051	10.6175	84.6195	6.56761e-06	-1.5168e-06	-7.5047e-10	-1.51605e-06	0.282668	52729.7	26.0892	52703.6
0.464091	16.7015	1.54382	16.7727	-5.28117	27.5125	0.28279	-0.0057215	222137	1881.94	1	12	0.00474885	0.000283129	0	-2.8578e-05	0.000101749	6.1017e-06	32.923	0.021551	0.0180899	-0.0117132	-5.23568	16.7897	16.7196	1.53211	0.0593674	0.00548767	0.0596205	5.28117	1.88194e+06	2.03594e+07	2.04462e+07	-84.7188	0.0000000E+000	0.0000000E+000	0.0000000E+000	84.7188	0.0000000E+000	0.0000000E+000	0.0000000E+000	-84.7188	0.0000000E+000	0.0000000E+000	0.0000000E+000	-5.28117	0.0000000E+000	0.0000000E+000	0.0000000E+000	5.28117	10.8183	84.7188	1.05004e-05	-1.61798e-06	-5.82159e-10	-1.6174e-06	0.282688	49425.9	17.7837	49408.1
0.316193	17.0377	1.57761	17.1106	-5.29023	34.1869	0.282801	-0.00372342	319057	2712.3	1	12	0.00474549	0.000277343	0	-2.28636e-05	8.26613e-05	4.30632e-06	14.3759	0.0155271	0.0150409	-0.0038551	-5.27275	17.1252	17.0527	1.57376	0.0581944	0.00538853	0.0584434	5.29023	2.7123e+06	2.9292e+07	2.94173e+07	-84.7098	0.0000000E+000	0.0000000E+000	0.0000000E+000	84.7098	0.0000000E+000	0.0000000E+000	0.0000000E+000	-84.7098	0.0000000E+000	0.0000000E+000	0.0000000E+000	-5.29023	0.0000000E+000	0.0000000E+000	0.0000000E+000	5.29023	10.7997	84.7098	5.71434e-06	-1.05299e-06	-3.07783e-10	-1.05268e-06	0.282719	75952	22.2004	75929.8
0.215268	17.3494	1.67161	17.4298	-5.50344	43.9805	0.28279	-0.00238768	442288	4068.11	1	12	0.00474631	0.00027231	0	-3.59504e-05	-1.2779e-05	3.40471e-06	-0.934105	0.012503	0.0125014	0.000203831	-5.50017	17.4423	17.3619	1.67182	0.0571086	0.00550239	0.057373	5.50344	4.06811e+06	4.22223e+07	4.24179e+07	-84.4966	0.0000000E+000	0.0000000E+000	0.0000000E+000	84.4966	0.0000000E+000	0.0000000E+000	0.0000000E+000	-84.4966	0.0000000E+000	0.0000000E+000	0.0000000E+000	-5.50344	0.0000000E+000	0.0000000E+000	0.0000000E+000	5.50344	10.3789	84.4966	-1.30868e-05	-6.75211e-07	3.0512e-11	-6.75242e-07	0.282803	118437	5.35204	118443
0.146929	17.6186	1.85032	17.7155	-5.99529	58.3188	0.28278	-0.00124566	585418	6386.39	1	12	0.00474545	0.00026787	0	-7.94697e-05	0.000273542	2.34754e-06	3.43186	0.00876373	0.00874801	-0.00052461	-5.99065	17.7241	17.6273	1.8498	0.0561391	0.00589579	0.0564478	5.99529	6.38638e+06	6.08105e+07	6.11449e+07	-84.0047	0.0000000E+000	0.0000000E+000	0.0000000E+000	84.0047	0.0000000E+000	0.0000000E+000	0.0000000E+000	-84.0047	0.0000000E+000	0.0000000E+000	0.0000000E+000	-5.99529	0.0000000E+000	0.0000000E+000	0.0000000E+000	5.99529	9.5219	84.0047	-4.35192e-05	-3.52249e-07	-3.40741e-10	-3.51908e-07	0.282507	227012	219.595	226792
0.0999041	17.8955	2.08655	18.0167	-6.65043	79.3951	0.282789	-0.0011765	763500	10240.3	1	12	0.00474752	0.000263506	0	-0.000159834	0.00019719	2.28431e-06	-1.18928	0.00866889	0.00866703	0.000179926	-6.64781	18.0254	17.9042	2.08673	0.0551304	0.00642799	0.0555039	6.65043	1.02403e+07	8.7827e+07	8.8422e+07	-83.3496	0.0000000E+000	0.0000000E+000	0.0000000E+000	83.3496	0.0000000E+000	0.0000000E+000	0.0000000E+000	-83.3496	0.0000000E+000	0.0000000E+000	0.0000000E+000	-6.65043	0.0000000E+000	0.0000000E+000	0.0000000E+000	6.65043	8.57662	83.3496	-8.03641e-05	-3.32702e-07	-2.31994e-10	-3.3247e-07	0.282592	240364	167.607	240197
0.0680626	18.2085	2.51038	18.3807	-7.84981	110.323	0.282796	-0.00123215	931476	17375	1	12	0.00474539	0.000258172	0	-0.000261394	0.000178102	2.44691e-06	-6.30158	0.00947781	0.00942055	0.0010403	-7.84901	18.3902	18.2179	2.51142	0.053895	0.00743043	0.0544048	7.84981	1.7375e+07	1.26026e+08	1.27218e+08	-82.1502	0.0000000E+000	0.0000000E+000	0.0000000E+000	82.1502	0.0000000E+000	0.0000000E+000	0.0000000E+000	-82.1502	0.0000000E+000	0.0000000E+000	0.0000000E+000	-7.84981	0.0000000E+000	0.0000000E+000	0.0000000E+000	7.84981	7.25328	82.1502	-0.00010156	-3.48447e-07	-2.19448e-10	-3.48227e-07	0.282618	229514	144.546	229370
0.0464052	18.6133	3.17059	18.8814	-9.66697	155.674	0.282794	-0.00310629	1.08172e+06	30501.7	1	12	0.00474991	0.000251565	0	-0.000354964	-0.000280012	2.51544e-06	16.5518	0.00999915	0.00958481	-0.00284857	-9.65357	18.8904	18.6229	3.16774	0.0522101	0.00889346	0.0529621	9.66697	3.05017e+07	1.79064e+08	1.81643e+08	-80.333	0.0000000E+000	0.0000000E+000	0.0000000E+000	80.333	0.0000000E+000	0.0000000E+000	0.0000000E+000	-80.333	0.0000000E+000	0.0000000E+000	0.0000000E+000	-9.66697	0.0000000E+000	0.0000000E+000	0.0000000E+000	9.66697	5.87061	80.333	-9.35701e-05	-8.78442e-07	8.69799e-10	-8.79312e-07	0.283074	91039.1	90.1433	91129.3
0.0315922	19.0227	4.19159	19.479	-12.4264	222.278	0.282788	-0.00335431	1.20188e+06	55652.7	1	12	0.00474985	0.000243845	0	-0.000352121	4.44852e-05	3.27337e-06	16.0742	0.013424	0.0128992	-0.00371686	-12.4076	19.4908	19.0356	4.18787	0.0501347	0.011047	0.0513374	12.4264	5.56527e+07	2.52568e+08	2.58627e+08	-77.5736	0.0000000E+000	0.0000000E+000	0.0000000E+000	77.5736	0.0000000E+000	0.0000000E+000	0.0000000E+000	-77.5736	0.0000000E+000	0.0000000E+000	0.0000000E+000	-12.4264	0.0000000E+000	0.0000000E+000	0.0000000E+000	12.4264	4.53829	77.5736	2.84353e-06	-9.48556e-07	-1.49217e-10	-9.48407e-07	0.282743	84305.9	13.2621	84292.6
0.0215268	19.501	5.46996	20.2536	-15.6687	320.017	0.282791	-0.00228516	1.35163e+06	98587.4	1	12	0.00474625	0.000234341	0	-0.000158408	0.00019719	3.05894e-06	-3.59896	0.0130534	0.0130276	0.000819391	-15.6609	20.2664	19.514	5.47078	0.0475392	0.0133346	0.049374	15.6687	9.85874e+07	3.51474e+08	3.65039e+08	-74.3313	0.0000000E+000	0.0000000E+000	0.0000000E+000	74.3313	0.0000000E+000	0.0000000E+000	0.0000000E+000	-74.3313	0.0000000E+000	0.0000000E+000	0.0000000E+000	-15.6687	0.0000000E+000	0.0000000E+000	0.0000000E+000	15.6687	3.5651	74.3313	0.000193713	-6.46221e-07	-4.50609e-10	-6.45771e-07	0.282594	123751	86.2915	123665
0.0146812	20.3414	7.08865	21.5412	-19.2126	463.32	0.282783	-0.000986638	1.52931e+06	165609	1	12	0.00474858	0.000220442	0	0.000226074	0.000311718	3.03719e-06	-25.0029	0.0137777	0.0124866	0.00582337	-19.2163	21.5549	20.3539	7.09447	0.0438371	0.0152765	0.0464227	19.2126	1.65609e+08	4.75227e+08	5.03257e+08	-70.7874	0.0000000E+000	0.0000000E+000	0.0000000E+000	70.7874	0.0000000E+000	0.0000000E+000	0.0000000E+000	-70.7874	0.0000000E+000	0.0000000E+000	0.0000000E+000	-19.2126	0.0000000E+000	0.0000000E+000	0.0000000E+000	19.2126	2.86958	70.7874	0.000384482	-2.79004e-07	-3.07553e-10	-2.78697e-07	0.282471	286613	315.94	286297
0.0100092	21.4893	9.42984	23.4673	-23.6926	673.502	0.282788	-0.00016537	1.68623e+06	272271	1	12	0.00474794	0.000202322	0	0.000601588	0.000120837	2.33092e-06	-4.15584	0.0115209	0.0114906	0.000834913	-23.6832	23.4781	21.5008	9.43068	0.0390209	0.017123	0.0426125	23.6926	2.72271e+08	6.20468e+08	6.77578e+08	-66.3074	0.0000000E+000	0.0000000E+000	0.0000000E+000	66.3074	0.0000000E+000	0.0000000E+000	0.0000000E+000	-66.3074	0.0000000E+000	0.0000000E+000	0.0000000E+000	-23.6926	0.0000000E+000	0.0000000E+000	0.0000000E+000	23.6926	2.27887	66.3074	0.000375515	-4.67647e-08	-1.99829e-11	-4.67447e-08	0.282667	1.71003e+06	730.709	1.7093e+06