File: txt/18267_R297_UC86_SOC50_C03.mpt
EC-Lab ASCII FILE
Nb header lines : 64

Potentio Electrochemical Impedance Spectroscopy

Run on channel : 3 (SN 65921)
User :
CE vs. WE compliance from -10 V to 10 V
Electrode connection : standard
Potential control : Ewe
Ewe ctrl range : min = -10.00 V, max = 10.00 V
Safety Limits :
	Do not start on E overload
Acquisition started on : 10/07/2025 16:29:50.198
Loaded Setting File :  C:\Users\Celltest\OneDrive - store-dot.com\Documents\EC-Lab\Data\txt_done\UC80_17231_EIS_50SOC.mps
Saved on :
	File : UC86_18267_SOC50_EIS_C03.mpr
	Directory : C:\Users\Celltest\OneDrive - store-dot.com\Documents\EC-Lab\Data\Michael\R297\
	Host : 169.254.61.224
Device : VMP-3e (SN .003165)
Address : USB
EC-LAB for windows v11.62 (software)
Internet server v27.00 (firmware)
Command interpretor v12.03 (firmware)
Electrode material :
Initial state :
Electrolyte :
Comments :
Electrode surface area : 0.001 cm²
Characteristic mass : 0.001 g
Equivalent Weight : 0.000 g/eq.
Density : 0.000 g/cm3
Volume (V) : 0.001 cm³
Record Ece
Cycle Definition : Charge/Discharge alternance
Mode                Multi sine
E (V)               0.0000
vs.                 Eoc
tE (h:m:s)          0:00:0.0000
record              0
dI                  0.000
unit dI             mA
dt (s)              0.000
fi                  1.000
unit fi             MHz
ff                  0.100
unit ff             mHz
Nd                  10
Points              per decade
spacing             Logarithmic
Va (mV)             5.0
pw                  0.10
Na                  2
corr                0
E range min (V)     -10.000
E range max (V)     10.000
I Range             Auto
Bandwidth           5
nc cycles           0
goto Ns'            0
nr cycles           0
inc. cycle          0

freq/Hz	Re(Z)/Ohm	-Im(Z)/Ohm	|Z|/Ohm	Phase(Z)/deg	time/s	<Ewe>/V	<I>/mA	Cs/µF	Cp/µF	cycle number	I Range	|Ewe|/V	|I|/A	Ns	(Q-Qo)/mA.h	<Ece>/V	|Ece|/V	Phase(Zce)/deg	|Zce|/Ohm	Re(Zce)/Ohm	-Im(Zce)/Ohm	Phase(Zwe-ce)/deg	|Zwe-ce|/Ohm	Re(Zwe-ce)/Ohm	-Im(Zwe-ce)/Ohm	Re(Y)/Ohm-1	Im(Y)/Ohm-1	|Y|/Ohm-1	Phase(Y)/deg	Re(C)/nF	Im(C)/nF	|C|/nF	Phase(C)/deg	Re(M)	Im(M)	|M|	Phase(M)/deg	Re(Permittivity)	Im(Permittivity)	|Permittivity|	Phase(Permittivity)/deg	Re(Resistivity)/Ohm.cm	Im(Resistivity)/Ohm.cm	|Resistivity|/Ohm.cm	Phase(Resistivity)/deg	Re(Conductivity)/mS/cm	Im(Conductivity)/mS/cm	|Conductivity|/mS/cm	Phase(Conductivity)/deg	Tan(Delta)	Loss Angle(Delta)/deg	dq/mA.h	Pwe/W	Pce/W	Pwe-ce/W	<Ewe-Ece>/V	Rwe/Ohm	Rce/Ohm	Rwe-ce/Ohm		Ewe-Ece/V
1.00002e+06	7.9397	2.51148	8.32745	-17.5532	2.23357	3.78655	-0.0302456	0.0633697	0.00576393	1	10	0.000146492	1.75914e-05	0	-2.95709e-05	0.00012952	0.000187605	-42.5341	10.6645	7.85844	7.20953	-31.6051	18.5494	15.7981	9.72101	0.114493	0.0362165	0.120085	17.5532	5.76393	18.2218	19.1117	-72.4468	0.0000000E+000	0.0000000E+000	0.0000000E+000	72.4468	0.0000000E+000	0.0000000E+000	0.0000000E+000	-72.4468	0.0000000E+000	0.0000000E+000	0.0000000E+000	-17.5532	0.0000000E+000	0.0000000E+000	0.0000000E+000	17.5532	3.16136	72.4468	-2.95709e-05	-0.000114527	-3.9174e-09	-0.000114523	3.78642	125193	4.28226	125189
630957	0.160313	0.300472	0.340563	-61.9184	3.28955	3.78616	-0.00272889	0.839493	0.653474	1	9	0.000132506	0.00038908	0	-3.26721e-05	-0.000271456	0.000121217	-36.0355	0.311548	0.251935	0.183279	-49.5627	0.635581	0.412248	0.483751	1.38221	2.59064	2.93631	61.9184	653.473	348.653	740.666	-28.0816	0.0000000E+000	0.0000000E+000	0.0000000E+000	28.0816	0.0000000E+000	0.0000000E+000	0.0000000E+000	-28.0816	0.0000000E+000	0.0000000E+000	0.0000000E+000	-61.9184	0.0000000E+000	0.0000000E+000	0.0000000E+000	61.9184	0.533538	28.0816	7.65985e-08	-1.0332e-05	7.40774e-10	-1.03328e-05	3.78643	1.38743e+06	99.4746	1.38753e+06
398103	-0.401747	0.228015	0.461943	-150.423	4.05554	3.78625	0.00987633	1.75332	0.42718	1	9	0.000129981	0.000281379	0	-3.10559e-05	-0.00029055	7.89851e-05	-116.964	0.280708	-0.127282	0.250192	-137.889	0.713129	-0.529029	0.478207	-1.88268	1.06853	2.16477	150.423	427.18	-752.662	865.438	60.4225	0.0000000E+000	0.0000000E+000	0.0000000E+000	-60.4225	0.0000000E+000	0.0000000E+000	0.0000000E+000	60.4225	0.0000000E+000	0.0000000E+000	0.0000000E+000	-150.423	0.0000000E+000	0.0000000E+000	0.0000000E+000	150.423	1.76193	60.4225	1.20894e-06	3.73942e-05	-2.86957e-09	3.73971e-05	3.78654	383366	29.4188	383395
251206	-0.420372	-0.590405	0.724769	125.451	4.95155	3.78614	0.00633344	-1.0731	-0.712099	1	9	0.000165181	0.000227908	0	-3.12357e-05	-9.96091e-05	4.98016e-05	157.322	0.218516	-0.201622	-0.084248	132.674	0.917624	-0.621994	-0.674653	-0.800265	-1.12396	1.37975	-125.451	-712.099	-507.018	874.158	144.549	0.0000000E+000	0.0000000E+000	0.0000000E+000	-144.549	0.0000000E+000	0.0000000E+000	0.0000000E+000	144.549	0.0000000E+000	0.0000000E+000	0.0000000E+000	125.451	0.0000000E+000	0.0000000E+000	0.0000000E+000	-125.451	0.712006	35.4511	-2.38028e-07	2.39793e-05	-6.30868e-10	2.39799e-05	3.78624	597802	15.7275	597817
158486	0.287861	-0.441744	0.527259	56.9099	5.71953	3.78612	0.00517734	-2.27331	-1.5957	1	9	0.000184623	0.000350157	0	-3.16752e-05	-9.96091e-05	3.97118e-05	100.629	0.113411	-0.0209193	-0.111465	64.2412	0.614247	0.266942	-0.55321	1.03546	-1.589	1.8966	-56.9099	-1595.7	1039.83	1904.6	-146.91	0.0000000E+000	0.0000000E+000	0.0000000E+000	146.91	0.0000000E+000	0.0000000E+000	0.0000000E+000	-146.91	0.0000000E+000	0.0000000E+000	0.0000000E+000	56.9099	0.0000000E+000	0.0000000E+000	0.0000000E+000	-56.9099	0.651646	33.0901	-4.42573e-07	1.9602e-05	-5.1571e-10	1.96025e-05	3.78622	731286	19.2394	731305
100004	0.519046	-0.132799	0.535766	14.3514	6.48552	3.78611	-0.00272889	-11.9842	-0.736292	1	9	0.000348442	0.000650362	0	-3.2647e-05	-0.000347832	2.07902e-05	44.4148	0.0319671	0.0228338	-0.0223721	15.9795	0.56366	0.54188	-0.155172	1.80824	-0.462643	1.86649	-14.3514	-736.292	2877.8	2970.5	-104.351	0.0000000E+000	0.0000000E+000	0.0000000E+000	104.351	0.0000000E+000	0.0000000E+000	0.0000000E+000	-104.351	0.0000000E+000	0.0000000E+000	0.0000000E+000	14.3514	0.0000000E+000	0.0000000E+000	0.0000000E+000	-14.3514	3.9085	75.6486	-1.02669e-08	-1.03319e-05	9.49196e-10	-1.03328e-05	3.78646	1.38742e+06	127.463	1.38754e+06
63093.8	1.02652	0.244824	1.05531	-13.4144	7.25152	3.78611	0.00476713	10.3034	0.554533	1	9	0.00126392	0.00119767	0	-3.01905e-05	-0.000195079	6.49817e-06	75.7568	0.00542565	0.00133491	-0.00525887	-13.1199	1.0554	1.02785	0.239565	0.921736	0.219834	0.947588	13.4144	554.533	2325.09	2390.3	-76.5856	0.0000000E+000	0.0000000E+000	0.0000000E+000	76.5856	0.0000000E+000	0.0000000E+000	0.0000000E+000	-76.5856	0.0000000E+000	0.0000000E+000	0.0000000E+000	-13.4144	0.0000000E+000	0.0000000E+000	0.0000000E+000	13.4144	4.19288	76.5856	7.62331e-07	1.80489e-05	-9.29969e-10	1.80498e-05	3.7863	794212	40.9218	794252
39814.1	1.24376	0.662071	1.409	-28.0269	8.14154	3.78609	0.00543847	6.03781	1.33311	1	9	0.00513656	0.00364553	0	-2.96592e-05	-0.000271456	1.38279e-05	45.817	0.00379312	0.00264363	-0.00272011	-27.8789	1.41006	1.24641	0.659351	0.626491	0.333489	0.709723	28.0269	1333.11	2504.37	2837.08	-61.9731	0.0000000E+000	0.0000000E+000	0.0000000E+000	61.9731	0.0000000E+000	0.0000000E+000	0.0000000E+000	-61.9731	0.0000000E+000	0.0000000E+000	0.0000000E+000	-28.0269	0.0000000E+000	0.0000000E+000	0.0000000E+000	28.0269	1.8786	61.9731	7.59294e-07	2.05905e-05	-1.4763e-09	2.0592e-05	3.78636	696169	49.914	696219
25116.9	1.44256	0.824163	1.66139	-29.7401	8.90754	3.78609	0.0035738	7.68848	1.892	1	9	0.00547565	0.00329582	0	-2.79543e-05	5.31434e-05	8.68703e-06	83.4223	0.00263577	0.000301928	-0.00261842	-29.6565	1.66036	1.44286	0.821545	0.522624	0.298585	0.601904	29.7401	1892	3311.64	3814	-60.2599	0.0000000E+000	0.0000000E+000	0.0000000E+000	60.2599	0.0000000E+000	0.0000000E+000	0.0000000E+000	-60.2599	0.0000000E+000	0.0000000E+000	0.0000000E+000	-29.7401	0.0000000E+000	0.0000000E+000	0.0000000E+000	29.7401	1.75034	60.2599	-3.76165e-06	1.35307e-05	1.89924e-10	1.35306e-05	3.78604	1.0594e+06	14.8703	1.05939e+06
15847.7	1.68887	1.01377	1.96977	-30.9749	9.67553	3.78609	-0.0017592	9.90641	2.62398	1	9	0.00500403	0.00254041	0	-2.72489e-05	-0.000233268	8.72607e-06	-41.2092	0.00343491	0.00258411	0.00226295	-30.9926	1.97315	1.69145	1.01603	0.435275	0.26128	0.507673	30.9749	2623.98	4371.38	5098.45	-59.0251	0.0000000E+000	0.0000000E+000	0.0000000E+000	59.0251	0.0000000E+000	0.0000000E+000	0.0000000E+000	-59.0251	0.0000000E+000	0.0000000E+000	0.0000000E+000	-30.9749	0.0000000E+000	0.0000000E+000	0.0000000E+000	30.9749	1.66594	59.0251	-8.4072e-07	-6.66047e-06	4.10363e-10	-6.66088e-06	3.78632	2.15217e+06	132.599	2.1523e+06
10002.2	1.976	1.24561	2.33583	-32.226	10.4436	3.78607	0.00137345	12.7745	3.63263	1	9	0.00535373	0.002292	0	-3.01495e-05	-0.000233268	8.54965e-06	-103.328	0.00373022	-0.000859883	0.00362975	-32.3125	2.33704	1.97514	1.24924	0.362162	0.228295	0.428113	32.226	3632.63	5762.71	6812.11	-57.774	0.0000000E+000	0.0000000E+000	0.0000000E+000	57.774	0.0000000E+000	0.0000000E+000	0.0000000E+000	-57.774	0.0000000E+000	0.0000000E+000	0.0000000E+000	-32.226	0.0000000E+000	0.0000000E+000	0.0000000E+000	32.226	1.58638	57.774	1.23887e-06	5.19999e-06	-3.20382e-10	5.20031e-06	3.78631	2.75661e+06	169.84	2.75678e+06
6309.38	2.32702	1.53189	2.78598	-33.3572	12.0775	3.78609	0.00118698	16.4666	4.97857	1	9	0.00556971	0.00199919	0	-2.82861e-05	1.49552e-05	6.14984e-06	-18.8465	0.00307617	0.00291124	0.000993708	-33.3414	2.78896	2.32993	1.53289	0.299807	0.197365	0.35894	33.3572	4978.57	7562.68	9054.29	-56.6428	0.0000000E+000	0.0000000E+000	0.0000000E+000	56.6428	0.0000000E+000	0.0000000E+000	0.0000000E+000	-56.6428	0.0000000E+000	0.0000000E+000	0.0000000E+000	-33.3572	0.0000000E+000	0.0000000E+000	0.0000000E+000	33.3572	1.51905	56.6428	-8.89185e-07	4.494e-06	1.77515e-11	4.49399e-06	3.78607	3.18969e+06	12.5994	3.18968e+06
3983.6	2.77595	1.84036	3.33058	-33.543	12.9081	3.7861	0.0191625	21.7091	6.62835	1	9	0.00505599	0.00151805	0	-2.64533e-05	0.00012952	6.6053e-06	43.3074	0.00435117	0.00316628	-0.00298452	-33.4701	3.33158	2.77911	1.83737	0.250248	0.165906	0.300248	33.543	6628.35	9998.03	11995.7	-56.457	0.0000000E+000	0.0000000E+000	0.0000000E+000	56.457	0.0000000E+000	0.0000000E+000	0.0000000E+000	-56.457	0.0000000E+000	0.0000000E+000	0.0000000E+000	-33.543	0.0000000E+000	0.0000000E+000	0.0000000E+000	33.543	1.50837	56.457	7.2494e-07	7.25509e-05	2.48191e-09	7.25484e-05	3.78597	197579	6.75903	197572
2510.8	3.31878	2.1557	3.95744	-33.0056	13.9778	3.78608	-0.0542447	29.4049	8.72503	1	10	0.00493636	0.00124736	0	-3.73419e-05	-0.000195079	6.73416e-06	68.4265	0.00539872	0.00198508	-0.00502052	-32.9289	3.95637	3.32076	2.15068	0.211909	0.137645	0.252689	33.0056	8725.03	13432.5	16017.4	-56.9944	0.0000000E+000	0.0000000E+000	0.0000000E+000	56.9944	0.0000000E+000	0.0000000E+000	0.0000000E+000	-56.9944	0.0000000E+000	0.0000000E+000	0.0000000E+000	-33.0056	0.0000000E+000	0.0000000E+000	0.0000000E+000	33.0056	1.53954	56.9944	-7.25612e-06	-0.000205375	1.0582e-08	-0.000205385	3.78627	69796.4	3.59629	69799.9
1585.51	3.98806	2.50709	4.71063	-32.1555	14.8798	3.78608	-0.0530813	40.039	11.3413	1	10	0.00466599	0.000990523	0	-5.01678e-05	-2.32329e-05	5.16902e-06	44.8734	0.00521848	0.00369817	-0.00368186	-32.0936	4.71181	3.99175	2.5034	0.179723	0.112982	0.212286	32.1555	11341.3	18040.7	21309.5	-57.8445	0.0000000E+000	0.0000000E+000	0.0000000E+000	57.8445	0.0000000E+000	0.0000000E+000	0.0000000E+000	-57.8445	0.0000000E+000	0.0000000E+000	0.0000000E+000	-32.1555	0.0000000E+000	0.0000000E+000	0.0000000E+000	32.1555	1.59071	57.8445	-6.25595e-06	-0.00020097	1.23323e-09	-0.000200971	3.7861	71326.1	0.437685	71326.5
1000.32	4.81	2.88579	5.60926	-30.9619	15.7818	3.78606	-0.0536108	55.1336	14.5926	1	10	0.00451447	0.000804824	0	-6.31077e-05	-0.000271456	7.91627e-06	106.474	0.00983603	-0.00278925	-0.00943226	-30.8939	5.60202	4.80721	2.87636	0.152874	0.0917176	0.178276	30.9619	14592.6	24322.8	28364.5	-59.0381	0.0000000E+000	0.0000000E+000	0.0000000E+000	59.0381	0.0000000E+000	0.0000000E+000	0.0000000E+000	-59.0381	0.0000000E+000	0.0000000E+000	0.0000000E+000	-30.9619	0.0000000E+000	0.0000000E+000	0.0000000E+000	30.9619	1.66679	59.0381	-5.91842e-06	-0.000202974	1.4553e-08	-0.000202988	3.78633	70621.3	5.06346	70626.3
631.01	5.81577	3.23275	6.65386	-29.0679	16.8965	3.78607	-0.0540806	78.021	18.4166	1	10	0.00494197	0.000742722	0	-8.01417e-05	-0.00029055	1.08217e-05	-74.7444	0.0145704	0.00383385	0.0140569	-29.1576	6.66405	5.8196	3.24681	0.131359	0.0730172	0.150289	29.0679	18416.6	33131.7	37906.2	-60.9321	0.0000000E+000	0.0000000E+000	0.0000000E+000	60.9321	0.0000000E+000	0.0000000E+000	0.0000000E+000	-60.9321	0.0000000E+000	0.0000000E+000	0.0000000E+000	-29.0679	0.0000000E+000	0.0000000E+000	0.0000000E+000	29.0679	1.79901	60.9321	-6.96365e-06	-0.000204753	1.57131e-08	-0.000204768	3.78636	70007.8	5.37253	70013.2
398.089	6.96798	3.46866	7.78359	-26.4641	17.7978	3.78606	-0.0542559	115.26	22.8897	1	10	0.00489186	0.000628483	0	-9.32887e-05	0.00022499	1.9312e-05	-146.177	0.030728	-0.0255277	0.0171039	-26.6609	7.76841	6.94245	3.48576	0.115013	0.0572534	0.128475	26.4641	22889.7	45981.8	51364.1	-63.5359	0.0000000E+000	0.0000000E+000	0.0000000E+000	63.5359	0.0000000E+000	0.0000000E+000	0.0000000E+000	-63.5359	0.0000000E+000	0.0000000E+000	0.0000000E+000	-26.4641	0.0000000E+000	0.0000000E+000	0.0000000E+000	26.4641	2.00884	63.5359	-7.07755e-06	-0.000205416	-1.2207e-08	-0.000205404	3.78584	69781.6	4.14683	69777.5
251.044	8.26786	3.41649	8.94594	-22.4516	18.6961	3.78606	-0.0546064	185.562	27.0643	1	10	0.00486996	0.000544376	0	-0.000106407	0.000110426	5.98916e-06	12.6199	0.0110019	0.0107361	-0.00240372	-22.4112	8.95495	8.27859	3.41408	0.10331	0.0426901	0.111783	22.4516	27064.3	65495.4	70866.9	-67.5484	0.0000000E+000	0.0000000E+000	0.0000000E+000	67.5484	0.0000000E+000	0.0000000E+000	0.0000000E+000	-67.5484	0.0000000E+000	0.0000000E+000	0.0000000E+000	-22.4516	0.0000000E+000	0.0000000E+000	0.0000000E+000	22.4516	2.41999	67.5484	-6.8864e-06	-0.000206743	-6.02994e-09	-0.000206737	3.78595	69333.7	2.02221	69331.7
158.428	9.4716	3.11763	9.9715	-18.2192	19.6009	3.78605	-0.0536257	322.227	31.4985	1	10	0.00485784	0.000487172	0	-0.000119671	7.22374e-05	1.20269e-05	45.6577	0.0246871	0.0172549	-0.0176557	-18.092	9.9824	9.48886	3.09997	0.0952582	0.0313547	0.100286	18.2192	31498.5	95695	100746	-71.7808	0.0000000E+000	0.0000000E+000	0.0000000E+000	71.7808	0.0000000E+000	0.0000000E+000	0.0000000E+000	-71.7808	0.0000000E+000	0.0000000E+000	0.0000000E+000	-18.2192	0.0000000E+000	0.0000000E+000	0.0000000E+000	18.2192	3.03808	71.7808	-6.7104e-06	-0.00020303	-3.87378e-09	-0.000203026	3.78598	70601.5	1.34707	70600.1
100.032	10.4451	2.58675	10.7606	-13.9095	20.4998	3.78606	-0.054502	615.074	35.5434	1	10	0.00485727	0.000451392	0	-0.000132776	-9.96091e-05	4.83386e-06	71.52	0.0107088	0.00339439	-0.0101566	-13.8527	10.7615	10.4485	2.57659	0.0902063	0.0223397	0.0929313	13.9095	35543.4	143522	147858	-76.0905	0.0000000E+000	0.0000000E+000	0.0000000E+000	76.0905	0.0000000E+000	0.0000000E+000	0.0000000E+000	-76.0905	0.0000000E+000	0.0000000E+000	0.0000000E+000	-13.9095	0.0000000E+000	0.0000000E+000	0.0000000E+000	13.9095	4.03793	76.0905	-6.05904e-06	-0.000206348	5.4289e-09	-0.000206353	3.78616	69466.5	1.82762	69468.3
63.0823	11.0676	1.98136	11.2435	-10.1498	21.416	3.78606	-0.0524772	1273.35	39.5433	1	10	0.00485869	0.000432133	0	-0.000146182	0.00012952	5.91301e-06	-59.576	0.0136833	0.00692917	0.0117991	-10.2027	11.2524	11.0745	1.99316	0.0875482	0.0156733	0.0889401	10.1498	39543.3	220882	224394	-79.8502	0.0000000E+000	0.0000000E+000	0.0000000E+000	79.8502	0.0000000E+000	0.0000000E+000	0.0000000E+000	-79.8502	0.0000000E+000	0.0000000E+000	0.0000000E+000	-10.1498	0.0000000E+000	0.0000000E+000	0.0000000E+000	10.1498	5.58583	79.8502	-6.52063e-06	-0.000198682	-6.79683e-09	-0.000198675	3.78593	72146.8	2.46811	72144.4
39.8089	11.5408	1.50857	11.6389	-7.44731	22.3169	3.78606	-0.0546959	2650.16	44.5225	1	10	0.00486187	0.000417724	0	-0.000160296	5.31434e-05	4.51311e-06	-34.233	0.0108041	0.00893233	0.00607793	-7.47126	11.6486	11.5497	1.51465	0.0851936	0.0111363	0.0859184	7.44731	44522.5	340602	343500	-82.5527	0.0000000E+000	0.0000000E+000	0.0000000E+000	82.5527	0.0000000E+000	0.0000000E+000	0.0000000E+000	-82.5527	0.0000000E+000	0.0000000E+000	0.0000000E+000	-7.44731	0.0000000E+000	0.0000000E+000	0.0000000E+000	7.44731	7.65011	82.5527	-7.03164e-06	-0.000207082	-2.90672e-09	-0.000207079	3.78601	69220.2	0.971616	69219.2
25.1044	11.8074	1.13482	11.8618	-5.4899	23.196	3.78605	-0.0545616	5586.54	51.1324	1	10	0.00486195	0.000409884	0	-0.000174069	1.49552e-05	3.65415e-06	-21.3468	0.0089151	0.00830347	0.0032452	-5.50166	11.8704	11.8157	1.13807	0.0839176	0.00806542	0.0843043	5.4899	51132.4	532014	534465	-84.5101	0.0000000E+000	0.0000000E+000	0.0000000E+000	84.5101	0.0000000E+000	0.0000000E+000	0.0000000E+000	-84.5101	0.0000000E+000	0.0000000E+000	0.0000000E+000	-5.4899	0.0000000E+000	0.0000000E+000	0.0000000E+000	5.4899	10.4046	84.5101	-6.27008e-06	-0.000206573	-8.15983e-10	-0.000206572	3.78603	69390.3	0.274098	69390
15.8576	11.9552	0.874428	11.9871	-4.18329	24.0741	3.78604	-0.0591407	11477.8	61.077	1	10	0.00484938	0.000404549	0	-0.000189916	-0.000118703	1.39089e-05	-43.1416	0.0343813	0.0250868	0.0235101	-4.28639	12.0139	11.9803	0.897938	0.0832007	0.00608548	0.0834229	4.18329	61077	835045	837276	-85.8167	0.0000000E+000	0.0000000E+000	0.0000000E+000	85.8167	0.0000000E+000	0.0000000E+000	0.0000000E+000	-85.8167	0.0000000E+000	0.0000000E+000	0.0000000E+000	-4.18329	0.0000000E+000	0.0000000E+000	0.0000000E+000	4.18329	13.672	85.8167	-8.58944e-06	-0.000223909	7.02019e-09	-0.000223916	3.78616	64017.5	2.00713	64019.6
10.0032	12.1485	0.706025	12.169	-3.32607	25.3008	3.78609	-0.0465315	22535.2	75.8562	1	11	0.00485325	0.000398821	0	-0.000206764	-0.000214174	7.23639e-06	-94.0116	0.0181445	-0.00126936	0.0181	-3.4115	12.1688	12.1472	0.724125	0.0820376	0.00476771	0.082176	3.32607	75856.2	1.30525e+06	1.30745e+06	-86.6739	0.0000000E+000	0.0000000E+000	0.0000000E+000	86.6739	0.0000000E+000	0.0000000E+000	0.0000000E+000	-86.6739	0.0000000E+000	0.0000000E+000	0.0000000E+000	-3.32607	0.0000000E+000	0.0000000E+000	0.0000000E+000	3.32607	17.2069	86.6739	-9.91164e-06	-0.000176173	9.96582e-09	-0.000176183	3.78631	81366.2	4.60276	81370.8
6.31058	12.2555	0.636887	12.272	-2.97484	26.2253	3.78607	-0.0474466	39599.4	106.655	1	11	0.0048478	0.000395028	0	-0.000215458	9.13315e-05	1.46599e-05	122.735	0.0371112	-0.0200681	-0.0312172	-2.8339	12.2504	12.2354	0.60567	0.0813762	0.00422891	0.081486	2.97484	106655	2.05233e+06	2.0551e+06	-87.0252	0.0000000E+000	0.0000000E+000	0.0000000E+000	87.0252	0.0000000E+000	0.0000000E+000	0.0000000E+000	-87.0252	0.0000000E+000	0.0000000E+000	0.0000000E+000	-2.97484	0.0000000E+000	0.0000000E+000	0.0000000E+000	2.97484	19.2428	87.0252	-3.11041e-06	-0.000179636	-4.33337e-09	-0.000179632	3.78598	79796.4	1.92493	79794.5
3.97785	12.3955	0.610308	12.4105	-2.81876	27.2324	3.78609	-0.0454911	65557.6	158.541	1	11	0.00485683	0.000391349	0	-0.000232945	0.000148614	5.35779e-06	-44.5506	0.0136906	0.00975634	0.00960448	-2.8608	12.4207	12.4052	0.619912	0.0804795	0.00396252	0.080577	2.81876	158541	3.22001e+06	3.22391e+06	-87.1812	0.0000000E+000	0.0000000E+000	0.0000000E+000	87.1812	0.0000000E+000	0.0000000E+000	0.0000000E+000	-87.1812	0.0000000E+000	0.0000000E+000	0.0000000E+000	-2.81876	0.0000000E+000	0.0000000E+000	0.0000000E+000	2.81876	20.3102	87.1812	-7.60183e-06	-0.000172233	-6.7606e-09	-0.000172227	3.78594	83227	3.26687	83223.8
2.51367	12.5157	0.631198	12.5316	-2.88712	28.792	3.78609	-0.0444911	100310	254.485	1	11	0.00485533	0.000387447	0	-0.000243139	-4.23269e-05	4.849e-06	-92.3519	0.0125153	-0.000513581	0.0125047	-2.94434	12.5317	12.5152	0.643702	0.0796969	0.00401931	0.0797982	2.88712	254486	5.04606e+06	5.05248e+06	-87.1129	0.0000000E+000	0.0000000E+000	0.0000000E+000	87.1129	0.0000000E+000	0.0000000E+000	0.0000000E+000	-87.1129	0.0000000E+000	0.0000000E+000	0.0000000E+000	-2.88712	0.0000000E+000	0.0000000E+000	0.0000000E+000	2.88712	19.8285	87.1129	-6.45073e-06	-0.000168447	1.88317e-09	-0.000168449	3.78614	85097.8	0.951357	85098.7
1.58469	12.6576	0.705358	12.6773	-3.18956	31.2275	3.7861	-0.0430352	142386	440.794	1	11	0.0048536	0.000382858	0	-0.00028324	0.000148614	3.63257e-06	-21.9967	0.00948802	0.00879734	0.00355376	-3.20337	12.6862	12.6664	0.708911	0.0787592	0.00438893	0.0788814	3.18956	440794	7.91003e+06	7.9223e+06	-86.8104	0.0000000E+000	0.0000000E+000	0.0000000E+000	86.8104	0.0000000E+000	0.0000000E+000	0.0000000E+000	-86.8104	0.0000000E+000	0.0000000E+000	0.0000000E+000	-3.18956	0.0000000E+000	0.0000000E+000	0.0000000E+000	3.18956	17.945	86.8104	-2.45072e-05	-0.000162936	-6.39563e-09	-0.000162929	3.78595	87976.7	3.4533	87973.2
1.00469	12.7972	0.776033	12.8207	-3.47023	242.045	3.78607	-0.0281464	204130	747.904	1	11	0.00503833	0.000392985	0	-0.0036415	-0.000118703	5.48555e-07	14.4157	0.00139587	0.00135192	-0.000347508	-3.46831	12.822	12.7985	0.775685	0.0778561	0.00472128	0.0779991	3.47023	747905	1.23333e+07	1.23559e+07	-86.5298	0.0000000E+000	0.0000000E+000	0.0000000E+000	86.5298	0.0000000E+000	0.0000000E+000	0.0000000E+000	-86.5298	0.0000000E+000	0.0000000E+000	0.0000000E+000	-3.47023	0.0000000E+000	0.0000000E+000	0.0000000E+000	3.47023	16.4905	86.5298	-0.00333017	-0.000106564	3.34106e-09	-0.000106568	3.78619	134514	4.21736	134518
0.632957	12.9931	0.929045	13.0263	-4.08986	242.047	3.78607	-0.0281464	270651	1376.71	1	11	0.00505071	0.000387733	0	-0.0036415	-0.000118703	5.65122e-07	3.38947	0.0014575	0.00145495	-8.61718e-05	-4.08903	13.0277	12.9945	0.928959	0.0765726	0.00547517	0.0767681	4.08986	1.37672e+06	1.92539e+07	1.93031e+07	-85.9101	0.0000000E+000	0.0000000E+000	0.0000000E+000	85.9101	0.0000000E+000	0.0000000E+000	0.0000000E+000	-85.9101	0.0000000E+000	0.0000000E+000	0.0000000E+000	-4.08986	0.0000000E+000	0.0000000E+000	0.0000000E+000	4.08986	13.9854	85.9101	0.000000000000000E+000	-0.000106564	3.34106e-09	-0.000106568	3.78619	134514	4.21736	134518
0.401878	13.1849	1.14469	13.2344	-4.9619	242.048	3.78607	-0.0281464	345970	2588.23	1	11	0.00506506	0.000382718	0	-0.0036415	-0.000118703	3.44423e-07	4.06892	0.000899939	0.000897671	-6.38564e-05	-4.96129	13.2353	13.1857	1.14463	0.0752772	0.00653546	0.0755604	4.9619	2.58823e+06	2.98119e+07	2.99241e+07	-85.0381	0.0000000E+000	0.0000000E+000	0.0000000E+000	85.0381	0.0000000E+000	0.0000000E+000	0.0000000E+000	-85.0381	0.0000000E+000	0.0000000E+000	0.0000000E+000	-4.9619	0.0000000E+000	0.0000000E+000	0.0000000E+000	4.9619	11.5183	85.0381	0.000000000000000E+000	-0.000106564	3.34106e-09	-0.000106568	3.78619	134514	4.21736	134518
0.251173	13.5184	1.4568	13.5967	-6.15067	242.05	3.78607	-0.0281464	434958	4993.19	1	11	0.00506551	0.000372554	0	-0.0036415	-0.000118703	5.64614e-07	-19.4542	0.00151552	0.001429	0.00050475	-6.15214	13.5982	13.5199	1.4573	0.0731238	0.0078801	0.0735472	6.15067	4.99319e+06	4.63346e+07	4.66029e+07	-83.8493	0.0000000E+000	0.0000000E+000	0.0000000E+000	83.8493	0.0000000E+000	0.0000000E+000	0.0000000E+000	-83.8493	0.0000000E+000	0.0000000E+000	0.0000000E+000	-6.15067	0.0000000E+000	0.0000000E+000	0.0000000E+000	6.15067	9.27956	83.8493	0.000000000000000E+000	-0.000106564	3.34106e-09	-0.000106568	3.78619	134514	4.21736	134518
0.160751	13.9021	1.65144	13.9998	-6.77448	242.051	3.78607	-0.0281464	599519	8342.28	1	11	0.00505904	0.000361364	0	-0.0036415	-0.000118703	5.13424e-07	-25.9132	0.00142079	0.00127794	0.000620898	-6.77638	14.0012	13.9034	1.65206	0.0709308	0.00842594	0.0714295	6.77448	8.34228e+06	7.02265e+07	7.07203e+07	-83.2255	0.0000000E+000	0.0000000E+000	0.0000000E+000	83.2255	0.0000000E+000	0.0000000E+000	0.0000000E+000	-83.2255	0.0000000E+000	0.0000000E+000	0.0000000E+000	-6.77448	0.0000000E+000	0.0000000E+000	0.0000000E+000	6.77448	8.41815	83.2255	0.000000000000000E+000	-0.000106564	3.34106e-09	-0.000106568	3.78619	134514	4.21736	134518
0.100469	14.3212	2.21681	14.4918	-8.79908	242.053	3.78607	-0.0281464	714593	16721.4	1	11	0.00506242	0.000349331	0	-0.0036415	-0.000118703	7.82478e-07	-28.0679	0.00223993	0.00197649	0.00105393	-8.80201	14.4939	14.3232	2.21786	0.0681926	0.0105557	0.0690047	8.79908	1.67214e+07	1.08025e+08	1.09311e+08	-81.2009	0.0000000E+000	0.0000000E+000	0.0000000E+000	81.2009	0.0000000E+000	0.0000000E+000	0.0000000E+000	-81.2009	0.0000000E+000	0.0000000E+000	0.0000000E+000	-8.79908	0.0000000E+000	0.0000000E+000	0.0000000E+000	8.79908	6.46029	81.2009	0.000000000000000E+000	-0.000106564	3.34106e-09	-0.000106568	3.78619	134514	4.21736	134518
0.0602816	15.0565	2.58995	15.2776	-9.76024	242.054	3.78607	-0.0281464	1.0194e+06	29296.5	1	11	0.00505768	0.000331052	0	-0.0036415	-0.000118703	4.54062e-07	1.36397	0.00137157	0.00137119	-3.26482e-05	-9.75925	15.279	15.0578	2.58991	0.0645079	0.0110964	0.0654553	9.76024	2.92965e+07	1.70313e+08	1.72814e+08	-80.2398	0.0000000E+000	0.0000000E+000	0.0000000E+000	80.2398	0.0000000E+000	0.0000000E+000	0.0000000E+000	-80.2398	0.0000000E+000	0.0000000E+000	0.0000000E+000	-9.76024	0.0000000E+000	0.0000000E+000	0.0000000E+000	9.76024	5.81343	80.2398	0.000000000000000E+000	-0.000106564	3.34106e-09	-0.000106568	3.78619	134514	4.21736	134518
0.0401878	15.8887	2.96241	16.1625	-10.5614	242.056	3.78607	-0.0281464	1.33685e+06	44911.1	1	11	0.00505974	0.000313054	0	-0.0036415	-0.000118703	6.96097e-07	13.3185	0.00222357	0.00216377	-0.000512232	-10.5582	16.1645	15.8909	2.9619	0.0608234	0.0113404	0.0618716	10.5614	4.49111e+07	2.40878e+08	2.45029e+08	-79.4386	0.0000000E+000	0.0000000E+000	0.0000000E+000	79.4386	0.0000000E+000	0.0000000E+000	0.0000000E+000	-79.4386	0.0000000E+000	0.0000000E+000	0.0000000E+000	-10.5614	0.0000000E+000	0.0000000E+000	0.0000000E+000	10.5614	5.36344	79.4386	0.000000000000000E+000	-0.000106564	3.34106e-09	-0.000106568	3.78619	134514	4.21736	134518
0.0200939	17.5833	4.14729	18.0657	-13.2715	242.057	3.78607	-0.0281464	1.90982e+06	100649	1	11	0.00505868	0.000280015	0	-0.0036415	-0.000118703	1.23287e-06	-37.4612	0.00440287	0.00349484	0.00267793	-13.2773	18.0698	17.5868	4.14996	0.053875	0.0127073	0.0553534	13.2715	1.00649e+08	4.26721e+08	4.3843e+08	-76.7285	0.0000000E+000	0.0000000E+000	0.0000000E+000	76.7285	0.0000000E+000	0.0000000E+000	0.0000000E+000	-76.7285	0.0000000E+000	0.0000000E+000	0.0000000E+000	-13.2715	0.0000000E+000	0.0000000E+000	0.0000000E+000	13.2715	4.2397	76.7285	0.000000000000000E+000	-0.000106564	3.34106e-09	-0.000106568	3.78619	134514	4.21736	134518
0.00796479	21.5034	4.68515	22.0078	-12.2915	20330.9	3.78614	0.00111532	4.26503e+06	193292	1	11	0.00505353	0.000229624	0	-0.00695537	-8.05151e-05	5.15247e-07	5.45622	0.00224387	0.0022337	-0.000213359	-12.2897	22.01	21.5056	4.68494	0.0443968	0.00967317	0.0454383	12.2915	1.93292e+08	8.87151e+08	9.07964e+08	-77.7085	0.0000000E+000	0.0000000E+000	0.0000000E+000	77.7085	0.0000000E+000	0.0000000E+000	0.0000000E+000	-77.7085	0.0000000E+000	0.0000000E+000	0.0000000E+000	-12.2915	0.0000000E+000	0.0000000E+000	0.0000000E+000	12.2915	4.58968	77.7085	-0.00331387	4.22274e-06	-8.97998e-11	4.22283e-06	3.78622	3.39467e+06	72.1904	3.39475e+06
0.00497799	23.0309	4.61802	23.4893	-11.3383	20330.9	3.78614	0.00111532	6.92326e+06	267597	1	11	0.00506032	0.000215431	0	-0.00695537	-8.05151e-05	4.70841e-07	-134.767	0.00218558	-0.00153913	0.00155172	-11.3427	23.4881	23.0293	4.61957	0.0417417	0.00836982	0.0425726	11.3383	2.67597e+08	1.33456e+09	1.36112e+09	-78.6617	0.0000000E+000	0.0000000E+000	0.0000000E+000	78.6617	0.0000000E+000	0.0000000E+000	0.0000000E+000	-78.6617	0.0000000E+000	0.0000000E+000	0.0000000E+000	-11.3383	0.0000000E+000	0.0000000E+000	0.0000000E+000	11.3383	4.98718	78.6617	0.000000000000000E+000	4.22274e-06	-8.97998e-11	4.22283e-06	3.78622	3.39467e+06	72.1904	3.39475e+06
0.00318591	24.1079	6.04779	24.8549	-14.0828	20330.9	3.78614	0.00111532	8.26017e+06	489056	1	11	0.00506191	0.000203658	0	-0.00695537	-8.05151e-05	3.87749e-07	-153.926	0.00190392	-0.00171015	0.000836841	-14.0856	24.8535	24.1062	6.04863	0.0390243	0.00978977	0.0402335	14.0828	4.89056e+08	1.94949e+09	2.0099e+09	-75.9172	0.0000000E+000	0.0000000E+000	0.0000000E+000	75.9172	0.0000000E+000	0.0000000E+000	0.0000000E+000	-75.9172	0.0000000E+000	0.0000000E+000	0.0000000E+000	-14.0828	0.0000000E+000	0.0000000E+000	0.0000000E+000	14.0828	3.98623	75.9172	0.000000000000000E+000	4.22274e-06	-8.97998e-11	4.22283e-06	3.78622	3.39467e+06	72.1904	3.39475e+06
0.0019912	25.232	6.78336	26.1279	-15.0476	20330.9	3.78614	0.00111532	1.17831e+07	794220	1	11	0.00506442	0.000193832	0	-0.00695537	-8.05151e-05	6.69069e-07	-49.0844	0.0034518	0.00226075	0.00260844	-15.0518	26.1308	25.2343	6.78597	0.0369609	0.00993653	0.0382732	15.0476	7.9422e+08	2.95425e+09	3.05915e+09	-74.9524	0.0000000E+000	0.0000000E+000	0.0000000E+000	74.9524	0.0000000E+000	0.0000000E+000	0.0000000E+000	-74.9524	0.0000000E+000	0.0000000E+000	0.0000000E+000	-15.0476	0.0000000E+000	0.0000000E+000	0.0000000E+000	15.0476	3.71969	74.9524	0.000000000000000E+000	4.22274e-06	-8.97998e-11	4.22283e-06	3.78622	3.39467e+06	72.1904	3.39475e+06
0.00129428	25.4221	8.2342	26.7224	-17.9471	20330.9	3.78614	0.00111532	1.49338e+07	1.41796e+06	1	11	0.00506697	0.000189615	0	-0.00695537	-8.05151e-05	3.79055e-07	139.185	0.00199907	-0.00151294	-0.00130664	-17.9454	26.7205	25.4206	8.23289	0.0356009	0.0115311	0.0374218	17.9471	1.41796e+09	4.37778e+09	4.60169e+09	-72.0529	0.0000000E+000	0.0000000E+000	0.0000000E+000	72.0529	0.0000000E+000	0.0000000E+000	0.0000000E+000	-72.0529	0.0000000E+000	0.0000000E+000	0.0000000E+000	-17.9471	0.0000000E+000	0.0000000E+000	0.0000000E+000	17.9471	3.08738	72.0529	0.000000000000000E+000	4.22274e-06	-8.97998e-11	4.22283e-06	3.78622	3.39467e+06	72.1904	3.39475e+06
0.000796479	27.6276	10.4667	29.5438	-20.7491	20330.9	3.78614	0.00111532	1.90914e+07	2.39619e+06	1	11	0.00506344	0.000171387	0	-0.00695537	-8.05151e-05	3.92609e-07	-53.5085	0.00229077	0.00136233	0.00184165	-20.7515	29.5458	27.629	10.4685	0.0316527	0.0119915	0.033848	20.7491	2.39619e+09	6.32494e+09	6.76362e+09	-69.2509	0.0000000E+000	0.0000000E+000	0.0000000E+000	69.2509	0.0000000E+000	0.0000000E+000	0.0000000E+000	-69.2509	0.0000000E+000	0.0000000E+000	0.0000000E+000	-20.7491	0.0000000E+000	0.0000000E+000	0.0000000E+000	20.7491	2.63958	69.2509	0.000000000000000E+000	4.22274e-06	-8.97998e-11	4.22283e-06	3.78622	3.39467e+06	72.1904	3.39475e+06
0.000497799	27.3841	14.5843	31.0257	-28.039	20330.9	3.78614	0.00111532	2.1922e+07	4.84406e+06	1	11	0.00506757	0.000163335	0	-0.00695537	-8.05151e-05	7.945e-07	7.1016	0.00486424	0.00482693	-0.000601363	-28.0338	31.0296	27.3889	14.5837	0.0284483	0.0151511	0.0322314	28.039	4.84406e+09	9.09542e+09	1.03049e+10	-61.961	0.0000000E+000	0.0000000E+000	0.0000000E+000	61.961	0.0000000E+000	0.0000000E+000	0.0000000E+000	-61.961	0.0000000E+000	0.0000000E+000	0.0000000E+000	-28.039	0.0000000E+000	0.0000000E+000	0.0000000E+000	28.039	1.87764	61.961	0.000000000000000E+000	4.22274e-06	-8.97998e-11	4.22283e-06	3.78622	3.39467e+06	72.1904	3.39475e+06
0.000298679	27.7398	21.7847	35.2714	-38.1434	20330.9	3.78614	0.00111532	2.44604e+07	9.33086e+06	1	11	0.00507308	0.00014383	0	-0.00695537	-8.05151e-05	1.52027e-06	-31.7226	0.0105699	0.0089908	0.00555773	-38.1414	35.2819	27.7488	21.7903	0.0222976	0.0175108	0.0283516	38.1434	9.33086e+09	1.18816e+10	1.51075e+10	-51.8566	0.0000000E+000	0.0000000E+000	0.0000000E+000	51.8566	0.0000000E+000	0.0000000E+000	0.0000000E+000	-51.8566	0.0000000E+000	0.0000000E+000	0.0000000E+000	-38.1434	0.0000000E+000	0.0000000E+000	0.0000000E+000	38.1434	1.27336	51.8566	0.000000000000000E+000	4.22274e-06	-8.97998e-11	4.22283e-06	3.78622	3.39467e+06	72.1904	3.39475e+06
9.95598e-05	36.8099	67.1748	76.5991	-61.2785	20330.9	3.78614	0.00111532	2.37974e+07	1.83019e+07	1	11	0.00505697	6.60186e-05	0	-0.00695537	-8.05151e-05	3.40538e-06	-102.789	0.0515821	-0.011418	0.0503025	-61.304	76.6377	36.7985	67.2251	0.00627361	0.0114488	0.013055	61.2785	1.83019e+10	1.00289e+10	2.08695e+10	-28.7215	0.0000000E+000	0.0000000E+000	0.0000000E+000	28.7215	0.0000000E+000	0.0000000E+000	0.0000000E+000	-28.7215	0.0000000E+000	0.0000000E+000	0.0000000E+000	-61.2785	0.0000000E+000	0.0000000E+000	0.0000000E+000	61.2785	0.547972	28.7215	0.000000000000000E+000	4.22274e-06	-8.97998e-11	4.22283e-06	3.78622	3.39467e+06	72.1904	3.39475e+06