File: txt/18265_R297_UC86_SOC50_C01.mpt
EC-Lab ASCII FILE
Nb header lines : 64

Potentio Electrochemical Impedance Spectroscopy

Run on channel : 1 (SN 66354)
User :
CE vs. WE compliance from -10 V to 10 V
Electrode connection : standard
Potential control : Ewe
Ewe ctrl range : min = -10.00 V, max = 10.00 V
Safety Limits :
	Do not start on E overload
Acquisition started on : 10/07/2025 16:29:04.375
Loaded Setting File :  C:\Users\Celltest\OneDrive - store-dot.com\Documents\EC-Lab\Data\txt_done\UC80_17231_EIS_50SOC.mps
Saved on :
	File : UC86_18265_SOC50_EIS_C01.mpr
	Directory : C:\Users\Celltest\OneDrive - store-dot.com\Documents\EC-Lab\Data\Michael\R297\
	Host : 169.254.61.224
Device : VMP-3e (SN .003165)
Address : USB
EC-LAB for windows v11.62 (software)
Internet server v27.00 (firmware)
Command interpretor v12.03 (firmware)
Electrode material :
Initial state :
Electrolyte :
Comments :
Electrode surface area : 0.001 cm²
Characteristic mass : 0.001 g
Equivalent Weight : 0.000 g/eq.
Density : 0.000 g/cm3
Volume (V) : 0.001 cm³
Record Ece
Cycle Definition : Charge/Discharge alternance
Mode                Multi sine
E (V)               0.0000
vs.                 Eoc
tE (h:m:s)          0:00:0.0000
record              0
dI                  0.000
unit dI             mA
dt (s)              0.000
fi                  1.000
unit fi             MHz
ff                  0.100
unit ff             mHz
Nd                  10
Points              per decade
spacing             Logarithmic
Va (mV)             5.0
pw                  0.10
Na                  2
corr                0
E range min (V)     -10.000
E range max (V)     10.000
I Range             Auto
Bandwidth           5
nc cycles           0
goto Ns'            0
nr cycles           0
inc. cycle          0

freq/Hz	Re(Z)/Ohm	-Im(Z)/Ohm	|Z|/Ohm	Phase(Z)/deg	time/s	<Ewe>/V	<I>/mA	Cs/µF	Cp/µF	cycle number	I Range	|Ewe|/V	|I|/A	Ns	(Q-Qo)/mA.h	<Ece>/V	|Ece|/V	Phase(Zce)/deg	|Zce|/Ohm	Re(Zce)/Ohm	-Im(Zce)/Ohm	Phase(Zwe-ce)/deg	|Zwe-ce|/Ohm	Re(Zwe-ce)/Ohm	-Im(Zwe-ce)/Ohm	Re(Y)/Ohm-1	Im(Y)/Ohm-1	|Y|/Ohm-1	Phase(Y)/deg	Re(C)/nF	Im(C)/nF	|C|/nF	Phase(C)/deg	Re(M)	Im(M)	|M|	Phase(M)/deg	Re(Permittivity)	Im(Permittivity)	|Permittivity|	Phase(Permittivity)/deg	Re(Resistivity)/Ohm.cm	Im(Resistivity)/Ohm.cm	|Resistivity|/Ohm.cm	Phase(Resistivity)/deg	Re(Conductivity)/mS/cm	Im(Conductivity)/mS/cm	|Conductivity|/mS/cm	Phase(Conductivity)/deg	Tan(Delta)	Loss Angle(Delta)/deg	dq/mA.h	Pwe/W	Pce/W	Pwe-ce/W	<Ewe-Ece>/V	Rwe/Ohm	Rce/Ohm	Rwe-ce/Ohm		Ewe-Ece/V
1.00002e+06	3.22808	1.55564	3.58336	-25.7298	2.33455	3.78743	0.0318574	0.102307	0.0192814	1	10	0.000237481	6.62732e-05	0	6.61951e-06	-0.000207511	0.000196686	-70.7275	2.96781	0.979557	2.80149	-45.9999	6.05712	4.20764	4.35713	0.251398	0.121151	0.279067	25.7298	19.2814	40.0105	44.4141	-64.2702	0.0000000E+000	0.0000000E+000	0.0000000E+000	64.2702	0.0000000E+000	0.0000000E+000	0.0000000E+000	-64.2702	0.0000000E+000	0.0000000E+000	0.0000000E+000	-25.7298	0.0000000E+000	0.0000000E+000	0.0000000E+000	25.7298	2.07509	64.2702	6.61951e-06	0.000120658	-6.61076e-09	0.000120664	3.78764	118887	6.51373	118894
630957	0.587736	-0.154756	0.607769	14.7516	3.50556	3.78713	0.0187343	-1.62995	-0.105679	1	9	0.000211359	0.000347763	0	1.67861e-05	2.1417e-05	0.000119641	-115.355	0.34403	-0.147324	0.31089	-19.5203	0.46727	0.440413	0.156134	1.59113	-0.418957	1.64536	-14.7516	-105.679	401.352	415.032	-104.752	0.0000000E+000	0.0000000E+000	0.0000000E+000	104.752	0.0000000E+000	0.0000000E+000	0.0000000E+000	-104.752	0.0000000E+000	0.0000000E+000	0.0000000E+000	14.7516	0.0000000E+000	0.0000000E+000	0.0000000E+000	-14.7516	3.79783	75.2484	3.56005e-06	7.09492e-05	4.01232e-10	7.09488e-05	3.78711	202149	1.14319	202148
398103	0.71123	0.0124352	0.711339	-1.00166	4.27151	3.78719	0.0296126	32.1494	0.00982476	1	9	0.000687614	0.000966648	0	2.43275e-05	2.1417e-05	6.09906e-05	171.656	0.0630949	-0.0624271	-0.0091558	-0.289597	0.648812	0.648803	0.00327935	1.40558	0.0245752	1.4058	1.00166	9.82474	561.929	562.015	-88.9983	0.0000000E+000	0.0000000E+000	0.0000000E+000	88.9983	0.0000000E+000	0.0000000E+000	0.0000000E+000	-88.9983	0.0000000E+000	0.0000000E+000	0.0000000E+000	-1.00166	0.0000000E+000	0.0000000E+000	0.0000000E+000	1.00166	57.1951	88.9983	4.37356e-06	0.000112148	6.34211e-10	0.000112148	3.78716	127891	0.723238	127890
251206	0.783332	0.22223	0.814245	-15.8385	5.03953	3.78714	0.0192932	2.85094	0.212365	1	9	0.00212132	0.00260526	0	3.45731e-05	0.000402963	5.5076e-05	113.812	0.0211403	-0.00853528	-0.0193407	-14.6741	0.80092	0.774796	0.202889	1.18151	0.335191	1.22813	15.8385	212.365	748.558	778.099	-74.1615	0.0000000E+000	0.0000000E+000	0.0000000E+000	74.1615	0.0000000E+000	0.0000000E+000	0.0000000E+000	-74.1615	0.0000000E+000	0.0000000E+000	0.0000000E+000	-15.8385	0.0000000E+000	0.0000000E+000	0.0000000E+000	15.8385	3.52487	74.1615	3.20981e-06	7.30659e-05	7.77444e-09	7.30581e-05	3.78673	196294	20.8863	196273
158486	0.86375	0.358735	0.935283	-22.5542	5.80554	3.78709	0.0361322	2.79934	0.411828	1	9	0.00510379	0.00545695	0	4.01775e-05	7.86489e-05	6.44257e-05	99.4492	0.0118062	-0.00193825	-0.011646	-21.9368	0.92908	0.861812	0.347089	0.987419	0.410098	1.06919	22.5542	411.828	991.586	1073.71	-67.4458	0.0000000E+000	0.0000000E+000	0.0000000E+000	67.4458	0.0000000E+000	0.0000000E+000	0.0000000E+000	-67.4458	0.0000000E+000	0.0000000E+000	0.0000000E+000	-22.5542	0.0000000E+000	0.0000000E+000	0.0000000E+000	22.5542	2.40777	67.4458	9.86734e-06	0.000136836	2.84176e-09	0.000136833	3.78701	104812	2.1767	104810
100004	0.980813	0.472512	1.0887	-25.7227	6.57155	3.7871	0.0484261	3.36815	0.634458	1	9	0.00531943	0.00488606	0	5.77412e-05	2.33964e-06	4.06251e-05	86.9285	0.00831451	0.000445506	-0.00830256	-25.3177	1.08552	0.981258	0.46421	0.827508	0.398657	0.918529	25.7227	634.458	1316.97	1461.83	-64.2773	0.0000000E+000	0.0000000E+000	0.0000000E+000	64.2773	0.0000000E+000	0.0000000E+000	0.0000000E+000	-64.2773	0.0000000E+000	0.0000000E+000	0.0000000E+000	-25.7227	0.0000000E+000	0.0000000E+000	0.0000000E+000	25.7227	2.07574	64.2773	-4.31047e-06	0.000183395	1.133e-10	0.000183394	3.7871	78203.6	0.0483137	78203.5
63093.8	1.12154	0.592711	1.26853	-27.8555	7.33756	3.78708	0.0451477	4.25589	0.929128	1	9	0.00535039	0.0042178	0	7.97056e-05	0.000288499	3.12032e-05	79.4813	0.00739799	0.00135055	-0.00727367	-27.5359	1.26634	1.12289	0.585437	0.696972	0.368335	0.788315	27.8555	929.128	1758.12	1988.53	-62.1445	0.0000000E+000	0.0000000E+000	0.0000000E+000	62.1445	0.0000000E+000	0.0000000E+000	0.0000000E+000	-62.1445	0.0000000E+000	0.0000000E+000	0.0000000E+000	-27.8555	0.0000000E+000	0.0000000E+000	0.0000000E+000	27.8555	1.89223	62.1445	1.43402e-05	0.000170978	1.30251e-08	0.000170965	3.7868	83882.1	6.39012	83875.7
39814.1	1.28658	0.7144	1.47162	-29.0421	8.10355	3.78709	0.0492084	5.59555	1.31867	1	9	0.00545875	0.00370935	0	9.74718e-05	-0.000379207	2.40841e-05	31.9506	0.0064928	0.00550917	-0.00343591	-28.8215	1.47478	1.29209	0.710964	0.594083	0.329876	0.679524	29.0421	1318.67	2374.82	2716.37	-60.9579	0.0000000E+000	0.0000000E+000	0.0000000E+000	60.9579	0.0000000E+000	0.0000000E+000	0.0000000E+000	-60.9579	0.0000000E+000	0.0000000E+000	0.0000000E+000	-29.0421	0.0000000E+000	0.0000000E+000	0.0000000E+000	29.0421	1.80093	60.9579	1.0429e-05	0.000186357	-1.86602e-08	0.000186376	3.78747	76960.2	7.70613	76967.9
25116.9	1.49039	0.881759	1.73169	-30.6098	8.99352	3.78707	0.0464888	7.18628	1.86321	1	9	0.00519941	0.0030025	0	0.000116869	0.000288499	1.02666e-05	15.4875	0.00341934	0.00329518	-0.000913057	-30.5284	1.73407	1.49369	0.880846	0.497002	0.294041	0.577469	30.6098	1863.21	3149.28	3659.17	-59.3902	0.0000000E+000	0.0000000E+000	0.0000000E+000	59.3902	0.0000000E+000	0.0000000E+000	0.0000000E+000	-59.3902	0.0000000E+000	0.0000000E+000	0.0000000E+000	-30.6098	0.0000000E+000	0.0000000E+000	0.0000000E+000	30.6098	1.69025	59.3902	6.93874e-06	0.000176057	1.3412e-08	0.000176043	3.78679	81462	6.20577	81455.8
15847.7	1.74699	1.05807	2.04242	-31.2014	9.75952	3.78707	0.0421673	9.49161	2.54729	1	9	0.00498841	0.0024424	0	0.000128278	-0.000226588	7.89633e-06	-49.9338	0.00323301	0.002081	0.00247423	-31.2304	2.04548	1.74907	1.06054	0.418794	0.253644	0.489615	31.2014	2547.29	4205.86	4917.1	-58.7986	0.0000000E+000	0.0000000E+000	0.0000000E+000	58.7986	0.0000000E+000	0.0000000E+000	0.0000000E+000	-58.7986	0.0000000E+000	0.0000000E+000	0.0000000E+000	-31.2014	0.0000000E+000	0.0000000E+000	0.0000000E+000	31.2014	1.65111	58.7986	5.93677e-06	0.000159691	-9.55462e-09	0.0001597	3.78729	89810.4	5.37354	89815.8
10002.2	2.03365	1.26412	2.39452	-31.8652	10.4055	3.78709	0.0468614	12.5874	3.50813	1	9	0.00464614	0.00194032	0	0.000135684	0.000231267	6.33137e-06	-62.0664	0.00326305	0.00152857	0.00288288	-31.9045	2.39734	2.03518	1.267	0.354682	0.220471	0.41762	31.8652	3508.13	5643.68	6645.15	-58.1348	0.0000000E+000	0.0000000E+000	0.0000000E+000	58.1348	0.0000000E+000	0.0000000E+000	0.0000000E+000	-58.1348	0.0000000E+000	0.0000000E+000	0.0000000E+000	-31.8652	0.0000000E+000	0.0000000E+000	0.0000000E+000	31.8652	1.60874	58.1348	3.34978e-06	0.000177468	1.08375e-08	0.000177457	3.78686	80814.7	4.93514	80809.8
6309.38	2.39071	1.51903	2.83248	-32.4315	11.0475	3.78709	0.0508476	16.606	4.77602	1	9	0.00471725	0.00166541	0	0.00014775	0.000326654	9.73195e-06	-85.6124	0.00584357	0.000447055	0.00582644	-32.526	2.83599	2.39116	1.52486	0.297984	0.189336	0.353047	32.4315	4776.02	7516.68	8905.66	-57.5685	0.0000000E+000	0.0000000E+000	0.0000000E+000	57.5685	0.0000000E+000	0.0000000E+000	0.0000000E+000	-57.5685	0.0000000E+000	0.0000000E+000	0.0000000E+000	-32.4315	0.0000000E+000	0.0000000E+000	0.0000000E+000	32.4315	1.57384	57.5685	4.77186e-06	0.000192564	1.66096e-08	0.000192548	3.78676	74479.2	6.42418	74472.8
3983.6	2.84757	1.79447	3.36582	-32.2181	11.6101	3.78691	-0.0391217	22.2643	6.32846	1	9	0.00458082	0.00136098	0	0.000147562	-9.30469e-05	5.41654e-06	-144.177	0.00397988	-0.003227	0.00232935	-32.281	3.36434	2.84434	1.7968	0.251357	0.158399	0.297104	32.2181	6328.46	10042.4	11870.1	-57.7819	0.0000000E+000	0.0000000E+000	0.0000000E+000	57.7819	0.0000000E+000	0.0000000E+000	0.0000000E+000	-57.7819	0.0000000E+000	0.0000000E+000	0.0000000E+000	-32.2181	0.0000000E+000	0.0000000E+000	0.0000000E+000	32.2181	1.58686	57.7819	-2.87129e-06	-0.00014815	3.64015e-09	-0.000148154	3.787	96798.3	2.3784	96800.7
2510.8	3.41223	2.16775	4.04257	-32.4273	12.6799	3.78698	-0.0118446	29.2415	8.40814	1	10	0.00473365	0.00117095	0	0.000149233	0.00021219	7.53542e-06	-14.9898	0.00643532	0.00621633	0.00166448	-32.4	4.04871	3.41844	2.16941	0.208796	0.132645	0.247367	32.4273	8408.14	13235.2	15680.1	-57.5727	0.0000000E+000	0.0000000E+000	0.0000000E+000	57.5727	0.0000000E+000	0.0000000E+000	0.0000000E+000	-57.5727	0.0000000E+000	0.0000000E+000	0.0000000E+000	-32.4273	0.0000000E+000	0.0000000E+000	0.0000000E+000	32.4273	1.57409	57.5727	4.73245e-06	-4.48554e-05	-2.51332e-09	-4.48529e-05	3.78676	319720	17.9144	319702
1585.51	4.06679	2.54404	4.79697	-32.0287	13.5808	3.78697	-0.0128137	39.4573	11.0979	1	10	0.00459231	0.000957336	0	0.000146634	-9.30469e-05	4.57121e-06	35.3109	0.00477493	0.00389647	-0.00275997	-31.9761	4.79881	4.07068	2.54128	0.176733	0.110558	0.208465	32.0287	11097.9	17740.6	20925.9	-57.9713	0.0000000E+000	0.0000000E+000	0.0000000E+000	57.9713	0.0000000E+000	0.0000000E+000	0.0000000E+000	-57.9713	0.0000000E+000	0.0000000E+000	0.0000000E+000	-32.0287	0.0000000E+000	0.0000000E+000	0.0000000E+000	32.0287	1.59855	57.9713	-1.21342e-06	-4.85249e-05	1.19227e-09	-4.85261e-05	3.78706	295542	7.26154	295549
1000.32	4.88489	2.92515	5.69374	-30.9138	14.4828	3.78698	-0.0122509	54.3917	14.356	1	10	0.0045167	0.000793274	0	0.000143952	0.000174035	7.06016e-06	-92.6669	0.00890002	-0.000414108	0.00889038	-30.9927	5.69796	4.88448	2.93404	0.150681	0.0902304	0.175631	30.9138	14356	23974	27943.7	-59.0862	0.0000000E+000	0.0000000E+000	0.0000000E+000	59.0862	0.0000000E+000	0.0000000E+000	0.0000000E+000	-59.0862	0.0000000E+000	0.0000000E+000	0.0000000E+000	-30.9138	0.0000000E+000	0.0000000E+000	0.0000000E+000	30.9138	1.66996	59.0862	-7.37458e-07	-4.63939e-05	-2.13209e-09	-4.63917e-05	3.78681	309119	14.2059	309104
631.01	5.91346	3.31471	6.7791	-29.2722	15.5985	3.78698	-0.0135143	76.092	18.1922	1	10	0.00498227	0.000734946	0	0.000139959	9.77262e-05	9.08259e-06	-78.7846	0.0123582	0.00240364	0.0121222	-29.3515	6.78713	5.91586	3.32683	0.128676	0.0721274	0.147512	29.2722	18192.2	32455	37205.9	-60.7278	0.0000000E+000	0.0000000E+000	0.0000000E+000	60.7278	0.0000000E+000	0.0000000E+000	0.0000000E+000	-60.7278	0.0000000E+000	0.0000000E+000	0.0000000E+000	-29.2722	0.0000000E+000	0.0000000E+000	0.0000000E+000	29.2722	1.78401	60.7278	-2.66423e-06	-5.11784e-05	-1.3207e-09	-5.11771e-05	3.78688	280219	7.2313	280212
398.089	7.12041	3.55581	7.95889	-26.5368	16.4998	3.78697	-0.0131715	112.435	22.4426	1	10	0.00495038	0.000621993	0	0.000136934	-0.000131202	1.77088e-05	94.328	0.0284711	-0.00214858	-0.0283899	-26.3605	7.94433	7.11826	3.52742	0.112409	0.056135	0.125646	26.5368	22442.6	44940.6	50232.8	-63.4632	0.0000000E+000	0.0000000E+000	0.0000000E+000	63.4632	0.0000000E+000	0.0000000E+000	0.0000000E+000	-63.4632	0.0000000E+000	0.0000000E+000	0.0000000E+000	-26.5368	0.0000000E+000	0.0000000E+000	0.0000000E+000	26.5368	2.00247	63.4632	-1.23952e-06	-4.98798e-05	1.72811e-09	-4.98816e-05	3.7871	287513	9.96105	287523
251.044	8.48177	3.5557	9.19693	-22.7442	17.398	3.78697	-0.0130634	178.297	26.6507	1	10	0.00494973	0.000538194	0	0.000134381	7.86489e-05	1.22034e-05	90.0302	0.0226747	-1.19565e-05	-0.0226747	-22.6138	9.18817	8.48176	3.53302	0.100277	0.0420377	0.108732	22.7442	26650.7	63572.7	68933	-67.2558	0.0000000E+000	0.0000000E+000	0.0000000E+000	67.2558	0.0000000E+000	0.0000000E+000	0.0000000E+000	-67.2558	0.0000000E+000	0.0000000E+000	0.0000000E+000	-22.7442	0.0000000E+000	0.0000000E+000	0.0000000E+000	22.7442	2.38541	67.2558	-1.06457e-06	-4.94706e-05	-1.02742e-09	-4.94695e-05	3.78689	289892	6.02056	289886
158.428	9.71862	3.2051	10.2335	-18.252	18.3028	3.78697	-0.0110918	313.433	30.7455	1	10	0.00493877	0.000482609	0	0.000132588	5.95716e-05	6.04219e-06	42.5161	0.0125199	0.00922823	-0.0084609	-18.1909	10.2396	9.72785	3.19664	0.092802	0.0306052	0.0977184	18.252	30745.5	93227.6	98166.5	-71.748	0.0000000E+000	0.0000000E+000	0.0000000E+000	71.748	0.0000000E+000	0.0000000E+000	0.0000000E+000	-71.748	0.0000000E+000	0.0000000E+000	0.0000000E+000	-18.252	0.0000000E+000	0.0000000E+000	0.0000000E+000	18.252	3.03223	71.748	-9.49617e-07	-4.20044e-05	-6.60757e-10	-4.20037e-05	3.78691	341420	5.37077	341415
100.032	10.692	2.72585	11.034	-14.3025	19.2018	3.78697	-0.0117925	583.685	35.6219	1	10	0.0049372	0.000447453	0	0.000129518	0.000269422	1.16736e-05	17.2521	0.0260891	0.0249153	-0.0077374	-14.2317	11.0563	10.7169	2.71812	0.0878198	0.022389	0.0906289	14.3025	35621.9	139725	144194	-75.6975	0.0000000E+000	0.0000000E+000	0.0000000E+000	75.6975	0.0000000E+000	0.0000000E+000	0.0000000E+000	-75.6975	0.0000000E+000	0.0000000E+000	0.0000000E+000	-14.3025	0.0000000E+000	0.0000000E+000	0.0000000E+000	14.3025	3.92245	75.6975	-1.73517e-06	-4.46578e-05	-3.17715e-09	-4.46546e-05	3.7867	321134	22.8469	321111
63.0823	11.4157	2.07269	11.6024	-10.2908	20.118	3.78698	-0.00899356	1217.25	38.8466	1	10	0.00493049	0.000424955	0	0.000127539	4.04943e-05	1.01864e-05	135.625	0.0239705	-0.0171335	-0.016764	-10.2243	11.5825	11.3986	2.05593	0.0848027	0.0153971	0.0861892	10.2908	38846.6	213955	217453	-79.7092	0.0000000E+000	0.0000000E+000	0.0000000E+000	79.7092	0.0000000E+000	0.0000000E+000	0.0000000E+000	-79.7092	0.0000000E+000	0.0000000E+000	0.0000000E+000	-10.2908	0.0000000E+000	0.0000000E+000	0.0000000E+000	10.2908	5.50769	79.7092	-1.1931e-06	-3.40584e-05	-3.64187e-10	-3.4058e-05	3.78694	421076	4.50258	421072
39.8089	11.8383	1.57078	11.9421	-7.5582	21.0188	3.78697	-0.0111887	2545.22	44.0348	1	10	0.00493232	0.000413021	0	0.000125255	0.000174035	9.13944e-06	128.081	0.0221283	-0.0136482	-0.017418	-7.48387	11.9262	11.8247	1.55336	0.0830101	0.0110143	0.0837377	7.5582	44034.8	331872	334781	-82.4418	0.0000000E+000	0.0000000E+000	0.0000000E+000	82.4418	0.0000000E+000	0.0000000E+000	0.0000000E+000	-82.4418	0.0000000E+000	0.0000000E+000	0.0000000E+000	-7.5582	0.0000000E+000	0.0000000E+000	0.0000000E+000	7.5582	7.53659	82.4418	-1.01589e-06	-4.23713e-05	-1.94723e-09	-4.23694e-05	3.78679	338463	15.5545	338447
25.1044	12.1181	1.16745	12.1742	-5.50284	21.898	3.78696	-0.0129851	5430.41	49.9374	1	10	0.00492743	0.000404744	0	0.000122376	0.000402963	4.17431e-06	-62.1723	0.0103135	0.00481447	0.00912076	-5.54338	12.1799	12.1229	1.17657	0.0817624	0.00787692	0.082141	5.50284	49937.4	518350	520750	-84.4972	0.0000000E+000	0.0000000E+000	0.0000000E+000	84.4972	0.0000000E+000	0.0000000E+000	0.0000000E+000	-84.4972	0.0000000E+000	0.0000000E+000	0.0000000E+000	-5.50284	0.0000000E+000	0.0000000E+000	0.0000000E+000	5.50284	10.38	84.4972	-1.91846e-06	-4.91742e-05	-5.23252e-09	-4.91689e-05	3.78656	291639	31.0327	291608
15.8576	12.3391	0.917787	12.3731	-4.25387	22.776	3.78697	-0.0173904	10935.6	60.168	1	10	0.00493468	0.000398822	0	0.000120983	0.00021219	7.36223e-06	-58.0267	0.0184599	0.00977498	0.0156595	-4.32276	12.3841	12.3488	0.933446	0.0805976	0.0059949	0.0808203	4.25387	60168	808920	811154	-85.7461	0.0000000E+000	0.0000000E+000	0.0000000E+000	85.7461	0.0000000E+000	0.0000000E+000	0.0000000E+000	-85.7461	0.0000000E+000	0.0000000E+000	0.0000000E+000	-4.25387	0.0000000E+000	0.0000000E+000	0.0000000E+000	4.25387	13.4444	85.7461	-3.99724e-07	-6.58567e-05	-3.69006e-09	-6.5853e-05	3.78675	217762	12.2016	217750
10.0032	12.5174	0.76422	12.5407	-3.49373	24.0038	3.78702	-0.000515797	20819.1	77.314	1	11	0.00492918	0.000393056	0	0.000120924	0.000135881	5.85043e-06	75.1464	0.0148845	0.00381563	-0.0143871	-3.42708	12.5436	12.5212	0.749833	0.0795924	0.00485934	0.0797406	3.49373	77314.1	1.26635e+06	1.2687e+06	-86.5063	0.0000000E+000	0.0000000E+000	0.0000000E+000	86.5063	0.0000000E+000	0.0000000E+000	0.0000000E+000	-86.5063	0.0000000E+000	0.0000000E+000	0.0000000E+000	-3.49373	0.0000000E+000	0.0000000E+000	0.0000000E+000	3.49373	16.3793	86.5063	-1.1465e-06	-1.95333e-06	-7.00869e-11	-1.95326e-06	3.78688	7.34207e+06	263.439	7.34181e+06
6.31058	12.6531	0.652083	12.6699	-2.95015	24.9263	3.78703	-1.53032e-05	38676.6	102.449	1	11	0.0049272	0.00038889	0	0.00011867	-9.30469e-05	5.51436e-06	16.8786	0.0141797	0.0135689	-0.00411701	-2.92842	12.6832	12.6667	0.647966	0.0788226	0.00406215	0.0789272	2.95015	102449	1.98793e+06	1.99057e+06	-87.0499	0.0000000E+000	0.0000000E+000	0.0000000E+000	87.0499	0.0000000E+000	0.0000000E+000	0.0000000E+000	-87.0499	0.0000000E+000	0.0000000E+000	0.0000000E+000	-2.95015	0.0000000E+000	0.0000000E+000	0.0000000E+000	2.95015	19.4042	87.0499	7.37614e-07	-5.79538e-08	1.42392e-12	-5.79552e-08	3.78712	2.47466e+08	6080.21	2.47472e+08
3.97785	12.7861	0.642021	12.8022	-2.87455	25.9333	3.78703	0.00203937	62319.3	156.73	1	11	0.00493336	0.000385353	0	0.000120551	-0.000112124	3.03585e-06	90.2238	0.00787809	-3.07778e-05	-0.00787803	-2.83934	12.8017	12.786	0.634143	0.0780134	0.00391725	0.0781117	2.87455	156730	3.12134e+06	3.12527e+06	-87.1255	0.0000000E+000	0.0000000E+000	0.0000000E+000	87.1255	0.0000000E+000	0.0000000E+000	0.0000000E+000	-87.1255	0.0000000E+000	0.0000000E+000	0.0000000E+000	-2.87455	0.0000000E+000	0.0000000E+000	0.0000000E+000	2.87455	19.9154	87.1255	-1.80679e-06	7.72314e-06	-2.28662e-10	7.72337e-06	3.78714	1.85696e+06	54.9799	1.85702e+06
2.51367	12.9282	0.653309	12.9447	-2.8929	27.4929	3.78705	0.00224636	96915.3	246.856	1	11	0.00493368	0.000381134	0	0.00011553	2.33964e-06	6.26405e-06	46.6999	0.0164353	0.0112716	-0.0119611	-2.83755	12.9554	12.9395	0.641348	0.077153	0.00389881	0.0772515	2.8929	246856	4.88499e+06	4.89123e+06	-87.1071	0.0000000E+000	0.0000000E+000	0.0000000E+000	87.1071	0.0000000E+000	0.0000000E+000	0.0000000E+000	-87.1071	0.0000000E+000	0.0000000E+000	0.0000000E+000	-2.8929	0.0000000E+000	0.0000000E+000	0.0000000E+000	2.8929	19.7889	87.1071	-2.00574e-07	8.50708e-06	5.25569e-12	8.50707e-06	3.78704	1.68586e+06	1.04153	1.68586e+06
1.58469	13.0732	0.727262	13.0935	-3.18407	29.9285	3.78703	0.00176608	138098	426.049	1	11	0.0049341	0.000376837	0	0.000130414	-1.67377e-05	3.86741e-06	31.054	0.0102628	0.00879195	-0.00529403	-3.15882	13.1019	13.082	0.721968	0.0762561	0.00424211	0.076374	3.18407	426049	7.65864e+06	7.67048e+06	-86.8159	0.0000000E+000	0.0000000E+000	0.0000000E+000	86.8159	0.0000000E+000	0.0000000E+000	0.0000000E+000	-86.8159	0.0000000E+000	0.0000000E+000	0.0000000E+000	-3.18407	0.0000000E+000	0.0000000E+000	0.0000000E+000	3.18407	17.976	86.8159	8.48974e-06	6.68819e-06	-2.956e-11	6.68822e-06	3.78705	2.14432e+06	9.47731	2.14433e+06
1.00469	13.2204	0.785509	13.2438	-3.4003	240.747	3.78701	0.00301527	201667	709.44	1	11	0.00500766	0.000378115	0	-0.00110952	-0.000207511	5.05335e-07	-30.7138	0.00133646	0.00114899	0.000682598	-3.40296	13.2449	13.2216	0.786192	0.0753743	0.00447846	0.0755073	3.4003	709440	1.19402e+07	1.19612e+07	-86.5997	0.0000000E+000	0.0000000E+000	0.0000000E+000	86.5997	0.0000000E+000	0.0000000E+000	0.0000000E+000	-86.5997	0.0000000E+000	0.0000000E+000	0.0000000E+000	-3.4003	0.0000000E+000	0.0000000E+000	0.0000000E+000	3.4003	16.8304	86.5997	-0.00124375	1.14189e-05	-6.25701e-10	1.14195e-05	3.78722	1.25594e+06	68.82	1.25601e+06
0.632957	13.4207	0.935202	13.4533	-3.98613	240.747	3.78701	0.00301527	268869	1299.26	1	11	0.00501966	0.000373119	0	-0.00110952	-0.000207511	4.22069e-07	6.30162	0.00113119	0.00112436	-0.000124162	-3.98527	13.4544	13.4218	0.935078	0.0741517	0.00516715	0.0743315	3.98613	1.29926e+06	1.86452e+07	1.86904e+07	-86.0139	0.0000000E+000	0.0000000E+000	0.0000000E+000	86.0139	0.0000000E+000	0.0000000E+000	0.0000000E+000	-86.0139	0.0000000E+000	0.0000000E+000	0.0000000E+000	-3.98613	0.0000000E+000	0.0000000E+000	0.0000000E+000	3.98613	14.3506	86.0139	0.000000000000000E+000	1.14189e-05	-6.25701e-10	1.14195e-05	3.78722	1.25594e+06	68.82	1.25601e+06
0.401878	13.6162	1.13563	13.6635	-4.76761	240.747	3.78701	0.00301527	348730	2409.03	1	11	0.0050333	0.000368377	0	-0.00110952	-0.000207511	4.07387e-07	-24.2296	0.0011059	0.00100848	0.000453854	-4.76915	13.6645	13.6172	1.13608	0.0729347	0.00608298	0.0731879	4.76761	2.40903e+06	2.88842e+07	2.89845e+07	-85.2324	0.0000000E+000	0.0000000E+000	0.0000000E+000	85.2324	0.0000000E+000	0.0000000E+000	0.0000000E+000	-85.2324	0.0000000E+000	0.0000000E+000	0.0000000E+000	-4.76761	0.0000000E+000	0.0000000E+000	0.0000000E+000	4.76761	11.99	85.2324	0.000000000000000E+000	1.14189e-05	-6.25701e-10	1.14195e-05	3.78722	1.25594e+06	68.82	1.25601e+06
0.251173	13.9548	1.43952	14.0288	-5.88957	240.747	3.78701	0.00301527	440178	4634.68	1	11	0.00503478	0.000358888	0	-0.00110952	-0.000207511	6.23139e-07	-29.8429	0.00173631	0.00150606	0.000864026	-5.89245	14.0304	13.9563	1.44038	0.0709054	0.00731432	0.0712817	5.88957	4.63468e+06	4.49289e+07	4.51673e+07	-84.1104	0.0000000E+000	0.0000000E+000	0.0000000E+000	84.1104	0.0000000E+000	0.0000000E+000	0.0000000E+000	-84.1104	0.0000000E+000	0.0000000E+000	0.0000000E+000	-5.88957	0.0000000E+000	0.0000000E+000	0.0000000E+000	5.88957	9.69406	84.1104	0.000000000000000E+000	1.14189e-05	-6.25701e-10	1.14195e-05	3.78722	1.25594e+06	68.82	1.25601e+06
0.160751	14.3283	1.60235	14.4176	-6.38096	240.747	3.78701	0.00301527	617886	7632.01	1	11	0.00502969	0.000348858	0	-0.00110952	-0.000207511	4.2329e-07	-3.33893	0.00121336	0.0012113	7.0669e-05	-6.3807	14.4188	14.3295	1.60242	0.06893	0.00770854	0.0693597	6.38096	7.63201e+06	6.82456e+07	6.8671e+07	-83.619	0.0000000E+000	0.0000000E+000	0.0000000E+000	83.619	0.0000000E+000	0.0000000E+000	0.0000000E+000	-83.619	0.0000000E+000	0.0000000E+000	0.0000000E+000	-6.38096	0.0000000E+000	0.0000000E+000	0.0000000E+000	6.38096	8.94203	83.619	0.000000000000000E+000	1.14189e-05	-6.25701e-10	1.14195e-05	3.78722	1.25594e+06	68.82	1.25601e+06
0.100469	14.7242	2.13829	14.8786	-8.26293	240.747	3.78701	0.00301527	740831	15301.3	1	11	0.00503282	0.000338259	0	-0.00110952	-0.000207511	6.70959e-07	-16.2916	0.00198357	0.00190392	0.000556442	-8.26399	14.8806	14.7261	2.13885	0.0665128	0.00965922	0.0672105	8.26293	1.53013e+07	1.05364e+08	1.06469e+08	-81.7371	0.0000000E+000	0.0000000E+000	0.0000000E+000	81.7371	0.0000000E+000	0.0000000E+000	0.0000000E+000	-81.7371	0.0000000E+000	0.0000000E+000	0.0000000E+000	-8.26293	0.0000000E+000	0.0000000E+000	0.0000000E+000	8.26293	6.88594	81.7371	0.000000000000000E+000	1.14189e-05	-6.25701e-10	1.14195e-05	3.78722	1.25594e+06	68.82	1.25601e+06
0.0602816	15.4284	2.48636	15.6274	-9.15479	240.747	3.78701	0.00301527	1.06187e+06	26879.6	1	11	0.00502924	0.000321821	0	-0.00110952	-0.000207511	6.82398e-07	56.556	0.00212043	0.00116861	-0.00176934	-9.1477	15.6283	15.4295	2.48459	0.0631749	0.0101809	0.06399	9.15479	2.68796e+07	1.66794e+08	1.68946e+08	-80.8452	0.0000000E+000	0.0000000E+000	0.0000000E+000	80.8452	0.0000000E+000	0.0000000E+000	0.0000000E+000	-80.8452	0.0000000E+000	0.0000000E+000	0.0000000E+000	-9.15479	0.0000000E+000	0.0000000E+000	0.0000000E+000	9.15479	6.20521	80.8452	0.000000000000000E+000	1.14189e-05	-6.25701e-10	1.14195e-05	3.78722	1.25594e+06	68.82	1.25601e+06
0.0401878	16.222	2.84052	16.4688	-9.93197	240.747	3.78701	0.00301527	1.39421e+06	41476.3	1	11	0.00502843	0.000305331	0	-0.00110952	-0.000207511	7.47172e-07	20.6432	0.00244709	0.00228997	-0.000862712	-9.92764	16.4709	16.2243	2.83965	0.0598109	0.0104731	0.0607209	9.93197	4.14763e+07	2.36868e+08	2.40472e+08	-80.068	0.0000000E+000	0.0000000E+000	0.0000000E+000	80.068	0.0000000E+000	0.0000000E+000	0.0000000E+000	-80.068	0.0000000E+000	0.0000000E+000	0.0000000E+000	-9.93197	0.0000000E+000	0.0000000E+000	0.0000000E+000	9.93197	5.71093	80.068	0.000000000000000E+000	1.14189e-05	-6.25701e-10	1.14195e-05	3.78722	1.25594e+06	68.82	1.25601e+06
0.0200939	17.8551	3.9005	18.2762	-12.3229	240.747	3.78701	0.00301527	2.03066e+06	92492.5	1	11	0.00502966	0.000275203	0	-0.00110952	-0.000207511	1.016e-06	-19.3597	0.00369182	0.00348307	0.00122383	-12.3243	18.2798	17.8586	3.90172	0.0534554	0.0116775	0.0547161	12.3229	9.24925e+07	4.23398e+08	4.33382e+08	-77.6771	0.0000000E+000	0.0000000E+000	0.0000000E+000	77.6771	0.0000000E+000	0.0000000E+000	0.0000000E+000	-77.6771	0.0000000E+000	0.0000000E+000	0.0000000E+000	-12.3229	0.0000000E+000	0.0000000E+000	0.0000000E+000	12.3229	4.57764	77.6771	0.000000000000000E+000	1.14189e-05	-6.25701e-10	1.14195e-05	3.78722	1.25594e+06	68.82	1.25601e+06
0.00796479	21.8489	4.54492	22.3166	-11.7508	20329.6	3.78702	0.000747433	4.39663e+06	182354	1	11	0.00502154	0.000225013	0	0.000476946	-0.000112124	6.1956e-07	-16.23	0.00275344	0.00264371	0.000769569	-11.7514	22.3194	21.8516	4.54569	0.0438705	0.00912574	0.0448096	11.7508	1.82354e+08	8.76635e+08	8.954e+08	-78.2492	0.0000000E+000	0.0000000E+000	0.0000000E+000	78.2492	0.0000000E+000	0.0000000E+000	0.0000000E+000	-78.2492	0.0000000E+000	0.0000000E+000	0.0000000E+000	-11.7508	0.0000000E+000	0.0000000E+000	0.0000000E+000	11.7508	4.80734	78.2492	0.00158647	2.83055e-06	-8.38053e-11	2.83063e-06	3.78713	5.0667e+06	150.012	5.06686e+06
0.00497799	23.3096	4.50564	23.7411	-10.9401	20329.6	3.78702	0.000747433	7.09593e+06	255576	1	11	0.0050289	0.000211823	0	0.000476946	-0.000112124	8.02758e-07	3.37966	0.00378977	0.00378317	-0.000223414	-10.9378	23.7448	23.3134	4.50542	0.0413555	0.00799383	0.042121	10.9401	2.55577e+08	1.32221e+09	1.34668e+09	-79.0599	0.0000000E+000	0.0000000E+000	0.0000000E+000	79.0599	0.0000000E+000	0.0000000E+000	0.0000000E+000	-79.0599	0.0000000E+000	0.0000000E+000	0.0000000E+000	-10.9401	0.0000000E+000	0.0000000E+000	0.0000000E+000	10.9401	5.17343	79.0599	0.000000000000000E+000	2.83055e-06	-8.38053e-11	2.83063e-06	3.78713	5.0667e+06	150.012	5.06686e+06
0.00318591	24.3544	5.99361	25.081	-13.8257	20329.6	3.78702	0.000747433	8.33485e+06	475974	1	11	0.00503124	0.0002006	0	0.000476946	-0.000112124	6.8449e-07	-34.4277	0.00341222	0.00281454	0.00192916	-13.8285	25.0842	24.3572	5.99553	0.0387156	0.0095279	0.0398708	13.8257	4.75974e+08	1.93407e+09	1.99178e+09	-76.1743	0.0000000E+000	0.0000000E+000	0.0000000E+000	76.1743	0.0000000E+000	0.0000000E+000	0.0000000E+000	-76.1743	0.0000000E+000	0.0000000E+000	0.0000000E+000	-13.8257	0.0000000E+000	0.0000000E+000	0.0000000E+000	13.8257	4.06339	76.1743	0.000000000000000E+000	2.83055e-06	-8.38053e-11	2.83063e-06	3.78713	5.0667e+06	150.012	5.06686e+06
0.0019912	25.4553	6.8184	26.3527	-14.9951	20329.6	3.78702	0.000747433	1.17226e+07	784762	1	11	0.00503481	0.000191055	0	0.000476946	-0.000112124	9.27599e-07	-25.8358	0.00485515	0.00436986	0.00211584	-14.9971	26.3575	25.4597	6.82052	0.0366546	0.00981821	0.0379468	14.9951	7.84762e+08	2.92978e+09	3.03306e+09	-75.0049	0.0000000E+000	0.0000000E+000	0.0000000E+000	75.0049	0.0000000E+000	0.0000000E+000	0.0000000E+000	-75.0049	0.0000000E+000	0.0000000E+000	0.0000000E+000	-14.9951	0.0000000E+000	0.0000000E+000	0.0000000E+000	14.9951	3.73333	75.0049	0.000000000000000E+000	2.83055e-06	-8.38053e-11	2.83063e-06	3.78713	5.0667e+06	150.012	5.06686e+06
0.00129428	25.6429	8.34821	26.9676	-18.033	20329.6	3.78702	0.000747433	1.47299e+07	1.41157e+06	1	11	0.0050349	0.000186702	0	0.000476946	-0.000112124	6.16912e-07	-20.2237	0.00330427	0.00310056	0.00114224	-18.0333	26.9709	25.646	8.34936	0.03526	0.0114791	0.0370815	18.033	1.41157e+09	4.33586e+09	4.55985e+09	-71.967	0.0000000E+000	0.0000000E+000	0.0000000E+000	71.967	0.0000000E+000	0.0000000E+000	0.0000000E+000	-71.967	0.0000000E+000	0.0000000E+000	0.0000000E+000	-18.033	0.0000000E+000	0.0000000E+000	0.0000000E+000	18.033	3.07166	71.967	0.000000000000000E+000	2.83055e-06	-8.38053e-11	2.83063e-06	3.78713	5.0667e+06	150.012	5.06686e+06
0.000796479	27.7099	10.6817	29.6975	-21.0808	20329.6	3.78702	0.000747433	1.8707e+07	2.42018e+06	1	11	0.00503464	0.000169531	0	0.000476946	-0.000112124	5.24952e-07	16.9925	0.00309649	0.00296131	-0.000904939	-21.0771	29.6999	27.7129	10.6808	0.0314193	0.0121116	0.0336729	21.0808	2.42018e+09	6.27831e+09	6.72863e+09	-68.9192	0.0000000E+000	0.0000000E+000	0.0000000E+000	68.9192	0.0000000E+000	0.0000000E+000	0.0000000E+000	-68.9192	0.0000000E+000	0.0000000E+000	0.0000000E+000	-21.0808	0.0000000E+000	0.0000000E+000	0.0000000E+000	21.0808	2.59415	68.9192	0.000000000000000E+000	2.83055e-06	-8.38053e-11	2.83063e-06	3.78713	5.0667e+06	150.012	5.06686e+06
0.000497799	27.5393	15.0985	31.4066	-28.7339	20329.6	3.78702	0.000747433	2.11754e+07	4.89392e+06	1	11	0.00503618	0.000160354	0	0.000476946	-0.000112124	1.14801e-06	-15.4377	0.00715924	0.00690094	0.00190573	-28.7309	31.4136	27.5462	15.1004	0.0279196	0.015307	0.0318404	28.7339	4.89392e+09	8.92639e+09	1.01799e+10	-61.2661	0.0000000E+000	0.0000000E+000	0.0000000E+000	61.2661	0.0000000E+000	0.0000000E+000	0.0000000E+000	-61.2661	0.0000000E+000	0.0000000E+000	0.0000000E+000	-28.7339	0.0000000E+000	0.0000000E+000	0.0000000E+000	28.7339	1.82398	61.2661	0.000000000000000E+000	2.83055e-06	-8.38053e-11	2.83063e-06	3.78713	5.0667e+06	150.012	5.06686e+06
0.000298679	28.2224	22.541	36.1192	-38.6141	20329.6	3.78702	0.000747433	2.36397e+07	9.20685e+06	1	11	0.00503663	0.000139445	0	0.000476946	-0.000112124	3.55984e-07	-10.1169	0.00255286	0.00251317	0.000448428	-38.6122	36.1214	28.2249	22.5414	0.021633	0.0172781	0.0276861	38.6141	9.20685e+09	1.15274e+10	1.47529e+10	-51.3859	0.0000000E+000	0.0000000E+000	0.0000000E+000	51.3859	0.0000000E+000	0.0000000E+000	0.0000000E+000	-51.3859	0.0000000E+000	0.0000000E+000	0.0000000E+000	-38.6141	0.0000000E+000	0.0000000E+000	0.0000000E+000	38.6141	1.25205	51.3859	0.000000000000000E+000	2.83055e-06	-8.38053e-11	2.83063e-06	3.78713	5.0667e+06	150.012	5.06686e+06
9.95598e-05	36.9509	66.9165	76.4407	-61.0928	20329.6	3.78702	0.000747433	2.38893e+07	1.83071e+07	1	11	0.00503538	6.58731e-05	0	0.000476946	-0.000112124	1.92455e-06	-54.5977	0.029216	0.0169253	0.0238141	-61.0903	76.4697	36.9678	66.9403	0.00632376	0.0114521	0.013082	61.0928	1.83071e+10	1.01091e+10	2.09128e+10	-28.9072	0.0000000E+000	0.0000000E+000	0.0000000E+000	28.9072	0.0000000E+000	0.0000000E+000	0.0000000E+000	-28.9072	0.0000000E+000	0.0000000E+000	0.0000000E+000	-61.0928	0.0000000E+000	0.0000000E+000	0.0000000E+000	61.0928	0.552194	28.9072	0.000000000000000E+000	2.83055e-06	-8.38053e-11	2.83063e-06	3.78713	5.0667e+06	150.012	5.06686e+06