File: txt/18268_R297_UC86_SOC50_C04.mpt
EC-Lab ASCII FILE
Nb header lines : 64

Potentio Electrochemical Impedance Spectroscopy

Run on channel : 4 (SN 66756)
User :
CE vs. WE compliance from -10 V to 10 V
Electrode connection : standard
Potential control : Ewe
Ewe ctrl range : min = -10.00 V, max = 10.00 V
Safety Limits :
	Do not start on E overload
Acquisition started on : 10/07/2025 16:30:11.403
Loaded Setting File :  C:\Users\Celltest\OneDrive - store-dot.com\Documents\EC-Lab\Data\txt_done\UC80_17231_EIS_50SOC.mps
Saved on :
	File : UC86_18268_SOC50_EIS_C04.mpr
	Directory : C:\Users\Celltest\OneDrive - store-dot.com\Documents\EC-Lab\Data\Michael\R297\
	Host : 169.254.61.224
Device : VMP-3e (SN .003165)
Address : USB
EC-LAB for windows v11.62 (software)
Internet server v27.00 (firmware)
Command interpretor v12.03 (firmware)
Electrode material :
Initial state :
Electrolyte :
Comments :
Electrode surface area : 0.001 cm²
Characteristic mass : 0.001 g
Equivalent Weight : 0.000 g/eq.
Density : 0.000 g/cm3
Volume (V) : 0.001 cm³
Record Ece
Cycle Definition : Charge/Discharge alternance
Mode                Multi sine
E (V)               0.0000
vs.                 Eoc
tE (h:m:s)          0:00:0.0000
record              0
dI                  0.000
unit dI             mA
dt (s)              0.000
fi                  1.000
unit fi             MHz
ff                  0.100
unit ff             mHz
Nd                  10
Points              per decade
spacing             Logarithmic
Va (mV)             5.0
pw                  0.10
Na                  2
corr                0
E range min (V)     -10.000
E range max (V)     10.000
I Range             Auto
Bandwidth           5
nc cycles           0
goto Ns'            0
nr cycles           0
inc. cycle          0

freq/Hz	Re(Z)/Ohm	-Im(Z)/Ohm	|Z|/Ohm	Phase(Z)/deg	time/s	<Ewe>/V	<I>/mA	Cs/µF	Cp/µF	cycle number	I Range	|Ewe|/V	|I|/A	Ns	(Q-Qo)/mA.h	<Ece>/V	|Ece|/V	Phase(Zce)/deg	|Zce|/Ohm	Re(Zce)/Ohm	-Im(Zce)/Ohm	Phase(Zwe-ce)/deg	|Zwe-ce|/Ohm	Re(Zwe-ce)/Ohm	-Im(Zwe-ce)/Ohm	Re(Y)/Ohm-1	Im(Y)/Ohm-1	|Y|/Ohm-1	Phase(Y)/deg	Re(C)/nF	Im(C)/nF	|C|/nF	Phase(C)/deg	Re(M)	Im(M)	|M|	Phase(M)/deg	Re(Permittivity)	Im(Permittivity)	|Permittivity|	Phase(Permittivity)/deg	Re(Resistivity)/Ohm.cm	Im(Resistivity)/Ohm.cm	|Resistivity|/Ohm.cm	Phase(Resistivity)/deg	Re(Conductivity)/mS/cm	Im(Conductivity)/mS/cm	|Conductivity|/mS/cm	Phase(Conductivity)/deg	Tan(Delta)	Loss Angle(Delta)/deg	dq/mA.h	Pwe/W	Pce/W	Pwe-ce/W	<Ewe-Ece>/V	Rwe/Ohm	Rce/Ohm	Rwe-ce/Ohm		Ewe-Ece/V
1.00002e+06	0.956174	-0.139019	0.966227	8.2723	2.24353	3.78722	-0.0156875	-1.14482	-0.0236988	1	9	0.000206143	0.000213349	0	-6.22588e-06	-9.19415e-05	0.000186966	3.95588	0.876342	0.874254	-0.0604573	6.21943	1.84126	1.83043	-0.199476	1.02419	-0.148907	1.03495	-8.2723	-23.6988	163.001	164.715	-98.2723	0.0000000E+000	0.0000000E+000	0.0000000E+000	98.2723	0.0000000E+000	0.0000000E+000	0.0000000E+000	-98.2723	0.0000000E+000	0.0000000E+000	0.0000000E+000	8.2723	0.0000000E+000	0.0000000E+000	0.0000000E+000	-8.2723	6.87803	81.7277	-6.22588e-06	-5.94122e-05	1.44234e-09	-5.94136e-05	3.78731	241416	5.8608	241422
630957	0.390763	0.176558	0.428799	-24.3148	3.00956	3.78618	-0.101136	1.42867	0.242215	1	9	0.000152436	0.000355495	0	-2.36322e-05	-0.000244821	0.000111823	-97.3474	0.314557	-0.040227	0.311974	-54.3395	0.601281	0.350536	0.488532	2.12523	0.960241	2.3321	24.3148	242.215	536.076	588.257	-65.6852	0.0000000E+000	0.0000000E+000	0.0000000E+000	65.6852	0.0000000E+000	0.0000000E+000	0.0000000E+000	-65.6852	0.0000000E+000	0.0000000E+000	0.0000000E+000	-24.3148	0.0000000E+000	0.0000000E+000	0.0000000E+000	24.3148	2.21323	65.6852	-9.85876e-06	-0.000382918	2.47601e-08	-0.000382943	3.78643	37436.7	2.42072	37439.1
398103	0.572001	0.103783	0.58134	-10.2838	3.77551	3.78604	-0.0910281	3.85211	0.122769	1	9	0.000571548	0.000983157	0	-4.3382e-05	-0.000206601	3.85457e-05	-169.004	0.0392061	-0.0384863	0.00747808	-11.7798	0.544992	0.533514	0.111261	1.69253	0.30709	1.72017	10.2838	122.769	676.645	687.692	-79.7162	0.0000000E+000	0.0000000E+000	0.0000000E+000	79.7162	0.0000000E+000	0.0000000E+000	0.0000000E+000	-79.7162	0.0000000E+000	0.0000000E+000	0.0000000E+000	-10.2838	0.0000000E+000	0.0000000E+000	0.0000000E+000	10.2838	5.51152	79.7162	-8.69326e-06	-0.000344636	1.88065e-08	-0.000344655	3.78625	41592	2.26964	41594.3
251206	0.693941	0.238901	0.733913	-18.9969	4.54352	3.78584	-0.105425	2.65199	0.281008	1	9	0.0019201	0.00261624	0	-6.81005e-05	-9.19415e-05	4.96183e-05	70.236	0.0189655	0.0064131	-0.0178483	-17.5172	0.734412	0.700354	0.221053	1.28835	0.443536	1.36256	18.9969	281.008	816.251	863.267	-71.0031	0.0000000E+000	0.0000000E+000	0.0000000E+000	71.0031	0.0000000E+000	0.0000000E+000	0.0000000E+000	-71.0031	0.0000000E+000	0.0000000E+000	0.0000000E+000	-18.9969	0.0000000E+000	0.0000000E+000	0.0000000E+000	18.9969	2.90473	71.0031	-1.24727e-05	-0.000399121	9.69291e-09	-0.000399131	3.78593	35910.3	0.872105	35911.2
158486	0.79926	0.352911	0.873706	-23.8237	5.30956	3.78576	-0.115644	2.84553	0.464262	1	9	0.00507016	0.00580305	0	-9.91905e-05	-0.000130161	4.70334e-05	73.2334	0.00810494	0.00233806	-0.00776038	-23.2957	0.872747	0.801598	0.345151	1.04703	0.462311	1.14455	23.8237	464.262	1051.44	1149.38	-66.1763	0.0000000E+000	0.0000000E+000	0.0000000E+000	66.1763	0.0000000E+000	0.0000000E+000	0.0000000E+000	-66.1763	0.0000000E+000	0.0000000E+000	0.0000000E+000	-23.8237	0.0000000E+000	0.0000000E+000	0.0000000E+000	23.8237	2.26476	66.1763	-2.17303e-05	-0.000437801	1.50524e-08	-0.000437816	3.78589	32736.3	1.12553	32737.4
100004	0.914288	0.459187	1.02312	-26.6674	6.07556	3.78574	-0.0977787	3.46589	0.698136	1	9	0.00530936	0.00518939	0	-0.000113153	6.09381e-05	3.61814e-05	88.0732	0.0069722	0.000234426	-0.00696825	-26.3118	1.02022	0.914522	0.452218	0.873433	0.438668	0.977403	26.6674	698.136	1390.06	1555.53	-63.3326	0.0000000E+000	0.0000000E+000	0.0000000E+000	63.3326	0.0000000E+000	0.0000000E+000	0.0000000E+000	-63.3326	0.0000000E+000	0.0000000E+000	0.0000000E+000	-26.6674	0.0000000E+000	0.0000000E+000	0.0000000E+000	26.6674	1.9911	63.3326	2.29961e-06	-0.000370165	-5.95845e-09	-0.000370159	3.78568	38717.5	0.623225	38716.8
63093.8	1.05049	0.566752	1.19362	-28.3475	6.84354	3.78574	-0.0954663	4.45082	1.00345	1	9	0.00532783	0.00446359	0	-0.000132664	-0.000168381	2.3368e-05	94.8297	0.00523523	-0.000440776	-0.00521665	-28.1367	1.19076	1.05004	0.561536	0.737324	0.397797	0.837788	28.3475	1003.45	1859.91	2113.33	-61.6525	0.0000000E+000	0.0000000E+000	0.0000000E+000	61.6525	0.0000000E+000	0.0000000E+000	0.0000000E+000	-61.6525	0.0000000E+000	0.0000000E+000	0.0000000E+000	-28.3475	0.0000000E+000	0.0000000E+000	0.0000000E+000	28.3475	1.85352	61.6525	-2.83905e-06	-0.000361411	1.60747e-08	-0.000361427	3.78591	39655.3	1.76378	39657
39814.1	1.21397	0.681371	1.39212	-29.3044	7.60955	3.78575	-0.0854334	5.86678	1.40545	1	9	0.00546082	0.00392267	0	-0.000138136	-1.55017e-05	1.43715e-05	33.933	0.00366372	0.00303975	-0.00204517	-29.1699	1.39377	1.21701	0.679326	0.626406	0.351586	0.71833	29.3044	1405.45	2504.03	2871.49	-60.6956	0.0000000E+000	0.0000000E+000	0.0000000E+000	60.6956	0.0000000E+000	0.0000000E+000	0.0000000E+000	-60.6956	0.0000000E+000	0.0000000E+000	0.0000000E+000	-29.3044	0.0000000E+000	0.0000000E+000	0.0000000E+000	29.3044	1.78166	60.6956	-8.32523e-07	-0.000323429	1.32436e-09	-0.000323431	3.78576	44312.3	0.181448	44312.5
25116.9	1.41134	0.833879	1.63928	-30.5763	8.50154	3.78574	-0.0790929	7.5989	1.9663	1	9	0.00532714	0.00324968	0	-0.000164947	-0.000130161	3.93895e-06	-13.878	0.0012121	0.00117672	0.000290729	-30.5642	1.64044	1.41252	0.83417	0.525201	0.310311	0.610024	30.5763	1966.3	3327.97	3865.46	-59.4237	0.0000000E+000	0.0000000E+000	0.0000000E+000	59.4237	0.0000000E+000	0.0000000E+000	0.0000000E+000	-59.4237	0.0000000E+000	0.0000000E+000	0.0000000E+000	-30.5763	0.0000000E+000	0.0000000E+000	0.0000000E+000	30.5763	1.6925	59.4237	-7.14674e-06	-0.000299425	1.02948e-08	-0.000299435	3.78587	47864.5	1.64568	47866.1
15847.7	1.65125	0.997446	1.92912	-31.1343	9.26754	3.78574	-0.0907669	10.0685	2.69168	1	9	0.00478302	0.00247937	0	-0.000183157	-0.000378591	6.47419e-06	-125.292	0.00261122	-0.00150861	0.00213133	-31.2117	1.92894	1.64974	0.999578	0.443703	0.268021	0.51837	31.1343	2691.68	4456.01	5205.88	-58.8657	0.0000000E+000	0.0000000E+000	0.0000000E+000	58.8657	0.0000000E+000	0.0000000E+000	0.0000000E+000	-58.8657	0.0000000E+000	0.0000000E+000	0.0000000E+000	-31.1343	0.0000000E+000	0.0000000E+000	0.0000000E+000	31.1343	1.65548	58.8657	-7.80287e-06	-0.00034362	3.43635e-08	-0.000343655	3.78612	41708.4	4.17102	41712.6
10002.2	1.94198	1.19756	2.28155	-31.6609	9.90952	3.78574	-0.0769296	13.2869	3.66069	1	9	0.00457325	0.00200445	0	-0.000199047	-9.19415e-05	8.51991e-06	-59.0117	0.00425049	0.00218842	0.00364383	-31.7099	2.28532	1.94417	1.20121	0.373067	0.230059	0.438299	31.6609	3660.69	5936.22	6974.2	-58.3391	0.0000000E+000	0.0000000E+000	0.0000000E+000	58.3391	0.0000000E+000	0.0000000E+000	0.0000000E+000	-58.3391	0.0000000E+000	0.0000000E+000	0.0000000E+000	-31.6609	0.0000000E+000	0.0000000E+000	0.0000000E+000	31.6609	1.62161	58.3391	-6.66237e-06	-0.000291236	7.07303e-09	-0.000291243	3.78583	49210.4	1.19514	49211.6
6309.38	2.27118	1.42159	2.6794	-32.0435	10.5535	3.78574	-0.0792794	17.7443	4.99498	1	9	0.00476578	0.00177868	0	-0.000211813	-0.000455031	5.45442e-06	-13.4757	0.00306656	0.00298213	0.000714608	-32.0227	2.6823	2.27416	1.4223	0.316357	0.198016	0.373218	32.0435	4994.97	7980.14	9414.48	-57.9565	0.0000000E+000	0.0000000E+000	0.0000000E+000	57.9565	0.0000000E+000	0.0000000E+000	0.0000000E+000	-57.9565	0.0000000E+000	0.0000000E+000	0.0000000E+000	-32.0435	0.0000000E+000	0.0000000E+000	0.0000000E+000	32.0435	1.59763	57.9565	-6.25517e-06	-0.000300131	3.60746e-08	-0.000300167	3.7862	47751.9	5.73958	47757.6
3983.6	2.68032	1.68156	3.16413	-32.1031	11.1161	3.78561	-0.143393	23.7592	6.71039	1	9	0.00464818	0.00146902	0	-0.000226544	4.18282e-05	6.06463e-06	-89.9331	0.00412835	4.82227e-06	0.00412834	-32.1664	3.16633	2.68032	1.68569	0.267717	0.167959	0.316042	32.1031	6710.39	10696	12626.7	-57.8969	0.0000000E+000	0.0000000E+000	0.0000000E+000	57.8969	0.0000000E+000	0.0000000E+000	0.0000000E+000	-57.8969	0.0000000E+000	0.0000000E+000	0.0000000E+000	-32.1031	0.0000000E+000	0.0000000E+000	0.0000000E+000	32.1031	1.59394	57.8969	-1.1249e-05	-0.000542832	-5.99789e-09	-0.000542826	3.78557	26400.2	0.291702	26399.9
2510.8	3.22341	2.03295	3.81094	-32.2389	12.1858	3.78566	-0.0570366	31.1803	8.873	1	10	0.00480217	0.0012601	0	-0.000248247	-0.000283041	5.22515e-06	60.7833	0.00414661	0.00202402	-0.00361908	-32.1767	3.81072	3.22543	2.02933	0.221948	0.139979	0.262403	32.2389	8873	14068.9	16633.2	-57.7611	0.0000000E+000	0.0000000E+000	0.0000000E+000	57.7611	0.0000000E+000	0.0000000E+000	0.0000000E+000	-57.7611	0.0000000E+000	0.0000000E+000	0.0000000E+000	-32.2389	0.0000000E+000	0.0000000E+000	0.0000000E+000	32.2389	1.58558	57.7611	-6.10659e-06	-0.000215921	1.61437e-08	-0.000215937	3.78594	66372.4	4.96244	66377.3
1585.51	3.84806	2.38648	4.52801	-31.8063	13.0878	3.78567	-0.0655116	42.0624	11.6841	1	10	0.00466402	0.00103004	0	-0.000262443	-9.19415e-05	1.12315e-05	-46.6982	0.010904	0.00747839	0.00793536	-31.8416	4.53855	3.85554	2.39442	0.187684	0.116397	0.220848	31.8063	11684.1	18839.9	22168.9	-58.1937	0.0000000E+000	0.0000000E+000	0.0000000E+000	58.1937	0.0000000E+000	0.0000000E+000	0.0000000E+000	-58.1937	0.0000000E+000	0.0000000E+000	0.0000000E+000	-31.8063	0.0000000E+000	0.0000000E+000	0.0000000E+000	31.8063	1.61244	58.1937	-7.17398e-06	-0.000248005	6.02323e-09	-0.000248011	3.78576	57786.2	1.40344	57787.6
1000.32	4.61404	2.74566	5.36917	-30.7554	13.9898	3.78567	-0.0546381	57.9475	15.1535	1	10	0.00458421	0.000853802	0	-0.000275147	0.000213818	1.19047e-05	25.3855	0.0139431	0.0125968	-0.00597751	-30.6321	5.37695	4.62664	2.73968	0.160054	0.0952428	0.186248	30.7554	15153.5	25465.2	29632.9	-59.2446	0.0000000E+000	0.0000000E+000	0.0000000E+000	59.2446	0.0000000E+000	0.0000000E+000	0.0000000E+000	-59.2446	0.0000000E+000	0.0000000E+000	0.0000000E+000	-30.7554	0.0000000E+000	0.0000000E+000	0.0000000E+000	30.7554	1.68049	59.2446	-7.18076e-06	-0.000206842	-1.16826e-08	-0.00020683	3.78546	69286.2	3.91334	69282.3
631.01	5.54587	3.08082	6.34414	-29.0529	14.8915	3.78567	-0.0523292	81.8687	19.3065	1	10	0.00453551	0.000714913	0	-0.000288347	0.000156488	5.73049e-06	-38.9068	0.00801564	0.00623752	0.00503426	-29.0652	6.35204	5.55211	3.08585	0.137792	0.0765456	0.157626	29.0529	19306.6	34754.3	39756.8	-60.9471	0.0000000E+000	0.0000000E+000	0.0000000E+000	60.9471	0.0000000E+000	0.0000000E+000	0.0000000E+000	-60.9471	0.0000000E+000	0.0000000E+000	0.0000000E+000	-29.0529	0.0000000E+000	0.0000000E+000	0.0000000E+000	29.0529	1.80013	60.9471	-6.08569e-06	-0.000198101	-8.18888e-09	-0.000198093	3.78552	72343.4	2.99045	72340.4
398.089	6.65855	3.33076	7.44515	-26.5752	15.7928	3.78567	-0.0610764	120.032	24.0235	1	10	0.00451001	0.000605765	0	-0.000301571	-0.000168381	1.26077e-05	-78.5787	0.0208129	0.00412139	0.0204007	-26.7013	7.45798	6.66267	3.35116	0.120125	0.0600892	0.134316	26.5752	24023.5	48025.6	53699	-63.4248	0.0000000E+000	0.0000000E+000	0.0000000E+000	63.4248	0.0000000E+000	0.0000000E+000	0.0000000E+000	-63.4248	0.0000000E+000	0.0000000E+000	0.0000000E+000	-26.5752	0.0000000E+000	0.0000000E+000	0.0000000E+000	26.5752	1.99911	63.4248	-6.38773e-06	-0.000231215	1.02841e-08	-0.000231226	3.78584	61982.5	2.7569	61985.3
251.044	7.92896	3.32016	8.59604	-22.7209	16.9041	3.78566	-0.0534669	190.946	28.486	1	10	0.00499979	0.000581639	0	-0.000318134	-0.000206601	8.83994e-06	24.6004	0.0151983	0.0138188	-0.00632686	-22.6466	8.60635	7.94278	3.31383	0.107305	0.0449327	0.116333	22.7209	28486	68028.2	73751.6	-67.2791	0.0000000E+000	0.0000000E+000	0.0000000E+000	67.2791	0.0000000E+000	0.0000000E+000	0.0000000E+000	-67.2791	0.0000000E+000	0.0000000E+000	0.0000000E+000	-22.7209	0.0000000E+000	0.0000000E+000	0.0000000E+000	22.7209	2.38813	67.2791	-9.27681e-06	-0.000202407	1.10463e-08	-0.000202418	3.78587	70803.9	3.8641	70807.7
158.428	9.09377	3.02432	9.58348	-18.3956	17.8089	3.78567	-0.0583124	332.17	33.0802	1	10	0.00499626	0.000521341	0	-0.000331566	-0.000187491	8.99308e-06	-42.7466	0.0172499	0.0126677	0.0117085	-18.438	9.5992	9.10644	3.03602	0.0990141	0.0329291	0.104346	18.3956	33080.2	99468.2	104825	-71.6044	0.0000000E+000	0.0000000E+000	0.0000000E+000	71.6044	0.0000000E+000	0.0000000E+000	0.0000000E+000	-71.6044	0.0000000E+000	0.0000000E+000	0.0000000E+000	-18.3956	0.0000000E+000	0.0000000E+000	0.0000000E+000	18.3956	3.00688	71.6044	-6.6036e-06	-0.000220752	1.09331e-08	-0.000220762	3.78586	64920.6	3.21529	64923.8
100.032	9.98867	2.44675	10.284	-13.7637	18.7078	3.78566	-0.0511467	650.266	36.8086	1	10	0.00498487	0.000484722	0	-0.000344536	-0.000149271	5.74035e-06	-83.3398	0.0118426	0.0013735	0.0117626	-13.8255	10.2881	9.99004	2.45851	0.0944465	0.0231349	0.0972387	13.7637	36808.6	150268	154711	-76.2363	0.0000000E+000	0.0000000E+000	0.0000000E+000	76.2363	0.0000000E+000	0.0000000E+000	0.0000000E+000	-76.2363	0.0000000E+000	0.0000000E+000	0.0000000E+000	-13.7637	0.0000000E+000	0.0000000E+000	0.0000000E+000	13.7637	4.08242	76.2363	-6.08503e-06	-0.000193624	7.63474e-09	-0.000193632	3.78581	74015.7	2.91849	74018.6
63.0823	10.6662	1.94355	10.8418	-10.3269	19.624	3.78567	-0.055373	1298.13	41.7159	1	10	0.00499015	0.000460267	0	-0.00035773	-0.000149271	4.06369e-06	79.0058	0.00882897	0.00168377	-0.00866693	-10.2802	10.8419	10.6679	1.93488	0.0907412	0.0165344	0.0922353	10.3269	41715.9	228938	232707	-79.6731	0.0000000E+000	0.0000000E+000	0.0000000E+000	79.6731	0.0000000E+000	0.0000000E+000	0.0000000E+000	-79.6731	0.0000000E+000	0.0000000E+000	0.0000000E+000	-10.3269	0.0000000E+000	0.0000000E+000	0.0000000E+000	10.3269	5.48801	79.6731	-6.33838e-06	-0.000209624	8.2656e-09	-0.000209632	3.78582	68366.7	2.69574	68369.4
39.8089	11.1054	1.37527	11.1903	-7.05943	20.5248	3.78568	-0.06346	2907.05	43.9083	1	10	0.00498436	0.000445419	0	-0.000372427	-9.19415e-05	1.0579e-05	0.298363	0.0237507	0.0237504	-0.000123679	-7.04389	11.2138	11.1292	1.37515	0.0886859	0.0109827	0.0893634	7.05943	43908.4	354564	357272	-82.9406	0.0000000E+000	0.0000000E+000	0.0000000E+000	82.9406	0.0000000E+000	0.0000000E+000	0.0000000E+000	-82.9406	0.0000000E+000	0.0000000E+000	0.0000000E+000	-7.05943	0.0000000E+000	0.0000000E+000	0.0000000E+000	7.05943	8.07509	82.9406	-7.55389e-06	-0.000240239	5.83461e-09	-0.000240245	3.78577	59654.5	1.44881	59655.9
25.1044	11.1971	1.10528	11.2515	-5.6375	21.404	3.78567	-0.0499642	5735.84	55.3506	1	10	0.00498333	0.000442904	0	-0.00038639	-9.19415e-05	4.91317e-06	57.7574	0.0110931	0.00591822	-0.0093825	-5.58701	11.2565	11.203	1.0959	0.0884473	0.00873078	0.0888772	5.6375	55350.6	560731	563456	-84.3625	0.0000000E+000	0.0000000E+000	0.0000000E+000	84.3625	0.0000000E+000	0.0000000E+000	0.0000000E+000	-84.3625	0.0000000E+000	0.0000000E+000	0.0000000E+000	-5.6375	0.0000000E+000	0.0000000E+000	0.0000000E+000	5.6375	10.1305	84.3625	-6.01786e-06	-0.000189148	4.59379e-09	-0.000189153	3.78576	75767.6	1.84015	75769.4
15.8576	11.5507	0.886036	11.5846	-4.38648	22.282	3.78566	-0.0569434	11327.4	66.2629	1	10	0.00501698	0.000433072	0	-0.000401762	-0.000302151	2.29121e-05	-26.1987	0.0529059	0.0474708	0.0233572	-4.48329	11.6338	11.5982	0.909393	0.0860684	0.00660218	0.0863213	4.38648	66262.9	863828	866366	-85.6135	0.0000000E+000	0.0000000E+000	0.0000000E+000	85.6135	0.0000000E+000	0.0000000E+000	0.0000000E+000	-85.6135	0.0000000E+000	0.0000000E+000	0.0000000E+000	-4.38648	0.0000000E+000	0.0000000E+000	0.0000000E+000	4.38648	13.0364	85.6135	-8.41922e-06	-0.000215568	1.72055e-08	-0.000215586	3.78596	66481.1	5.30616	66486.4
10.0032	11.5301	0.845106	11.5611	-4.19202	23.2628	3.78567	-0.0665001	18826.5	100.6	1	10	0.00498046	0.000430796	0	-0.000412879	-0.000187491	5.84065e-06	81.2017	0.0135578	0.00207376	-0.0133983	-4.12505	11.5622	11.5322	0.831707	0.0862658	0.00632289	0.0864972	4.19202	100600	1.37252e+06	1.37621e+06	-85.808	0.0000000E+000	0.0000000E+000	0.0000000E+000	85.808	0.0000000E+000	0.0000000E+000	0.0000000E+000	-85.808	0.0000000E+000	0.0000000E+000	0.0000000E+000	-4.19202	0.0000000E+000	0.0000000E+000	0.0000000E+000	4.19202	13.6434	85.808	-5.5845e-06	-0.000251747	1.24682e-08	-0.00025176	3.78585	56927.2	2.81941	56930
6.31058	11.6805	0.63041	11.6975	-3.08932	24.4833	3.78572	-0.0450867	40006.2	116.195	1	11	0.0049796	0.000425697	0	-0.000421467	3.60827e-06	5.71166e-06	34.0279	0.0134172	0.0111197	-0.00750822	-3.0497	11.7082	11.6916	0.622902	0.085364	0.00460719	0.0854882	3.08932	116195	2.15291e+06	2.15604e+06	-86.9107	0.0000000E+000	0.0000000E+000	0.0000000E+000	86.9107	0.0000000E+000	0.0000000E+000	0.0000000E+000	-86.9107	0.0000000E+000	0.0000000E+000	0.0000000E+000	-3.08932	0.0000000E+000	0.0000000E+000	0.0000000E+000	3.08932	18.5284	86.9107	5.05455e-08	-0.000170686	-1.62685e-10	-0.000170686	3.78572	83965.4	0.0800296	83965.3
3.97785	11.9586	0.661329	11.9769	-3.16532	25.4904	3.78572	-0.0311851	60499.8	184.46	1	11	0.00498148	0.000415924	0	-0.000437001	-0.000168381	7.47747e-06	-38.3666	0.017978	0.0140957	0.0111588	-3.21483	11.9916	11.9727	0.672488	0.0833668	0.00461031	0.0834941	3.16532	184460	3.33553e+06	3.34062e+06	-86.8347	0.0000000E+000	0.0000000E+000	0.0000000E+000	86.8347	0.0000000E+000	0.0000000E+000	0.0000000E+000	-86.8347	0.0000000E+000	0.0000000E+000	0.0000000E+000	-3.16532	0.0000000E+000	0.0000000E+000	0.0000000E+000	3.16532	18.0827	86.8347	-9.00211e-06	-0.000118058	5.25098e-09	-0.000118063	3.78589	121395	5.39942	121401
2.51367	11.9252	0.923561	11.9609	-4.4285	27.0499	3.78572	-0.0314736	68556	408.741	1	11	0.00498427	0.000416713	0	-0.000442582	-0.000244821	2.67228e-06	-98.7185	0.00641274	-0.000972042	0.00633864	-4.45913	11.9604	11.9242	0.9299	0.0833561	0.00645561	0.0836057	4.4285	408741	5.27774e+06	5.29355e+06	-85.5715	0.0000000E+000	0.0000000E+000	0.0000000E+000	85.5715	0.0000000E+000	0.0000000E+000	0.0000000E+000	-85.5715	0.0000000E+000	0.0000000E+000	0.0000000E+000	-4.4285	0.0000000E+000	0.0000000E+000	0.0000000E+000	4.4285	12.9122	85.5715	-1.6859e-06	-0.00011915	7.7054e-09	-0.000119158	3.78597	120283	7.77862	120290
1.58469	12.2391	0.699617	12.2591	-3.27161	29.4856	3.78572	-0.0284562	143555	467.544	1	11	0.00498992	0.00040704	0	-0.00046501	-0.000111051	1.60282e-06	87.7279	0.00393775	0.000156116	-0.00393465	-3.25321	12.259	12.2392	0.695682	0.0814394	0.00465528	0.0815723	3.27161	467544	8.17921e+06	8.19256e+06	-86.7284	0.0000000E+000	0.0000000E+000	0.0000000E+000	86.7284	0.0000000E+000	0.0000000E+000	0.0000000E+000	-86.7284	0.0000000E+000	0.0000000E+000	0.0000000E+000	-3.27161	0.0000000E+000	0.0000000E+000	0.0000000E+000	3.27161	17.494	86.7284	-1.5876e-05	-0.000107727	3.16011e-09	-0.00010773	3.78583	133037	3.90254	133041
1.00469	12.3707	0.74332	12.393	-3.4386	240.304	3.7857	-0.0205652	213113	766.669	1	11	0.00506293	0.000408531	0	-0.00338116	-0.000187491	7.11476e-07	-3.55095	0.00174155	0.00173821	0.000107865	-3.43862	12.3948	12.3724	0.743428	0.0805453	0.00483974	0.0806906	3.4386	766670	1.27593e+07	1.27823e+07	-86.5614	0.0000000E+000	0.0000000E+000	0.0000000E+000	86.5614	0.0000000E+000	0.0000000E+000	0.0000000E+000	-86.5614	0.0000000E+000	0.0000000E+000	0.0000000E+000	-3.4386	0.0000000E+000	0.0000000E+000	0.0000000E+000	3.4386	16.6425	86.5614	-0.00289008	-7.78537e-05	3.8558e-09	-7.78576e-05	3.78589	184083	9.11691	184092
0.632957	12.562	0.877255	12.5926	-3.9947	240.306	3.7857	-0.0205652	286629	1391.04	1	11	0.00507642	0.000403127	0	-0.00338116	-0.000187491	7.36968e-07	3.65373	0.00182813	0.00182441	-0.0001165	-3.9936	12.5944	12.5638	0.877138	0.0792187	0.00553215	0.0794117	3.9947	1.39104e+06	1.99193e+07	1.99678e+07	-86.0053	0.0000000E+000	0.0000000E+000	0.0000000E+000	86.0053	0.0000000E+000	0.0000000E+000	0.0000000E+000	-86.0053	0.0000000E+000	0.0000000E+000	0.0000000E+000	-3.9947	0.0000000E+000	0.0000000E+000	0.0000000E+000	3.9947	14.3197	86.0053	0.000000000000000E+000	-7.78537e-05	3.8558e-09	-7.78576e-05	3.78589	184083	9.11691	184092
0.401878	12.7399	1.09036	12.7864	-4.89181	240.307	3.7857	-0.0205652	363210	2641.16	1	11	0.00509046	0.000398114	0	-0.00338116	-0.000187491	7.05752e-07	16.6809	0.00177274	0.00169814	-0.000508849	-4.88888	12.7881	12.7416	1.08985	0.077923	0.00666913	0.0782078	4.89181	2.64117e+06	3.08597e+07	3.09725e+07	-85.1082	0.0000000E+000	0.0000000E+000	0.0000000E+000	85.1082	0.0000000E+000	0.0000000E+000	0.0000000E+000	-85.1082	0.0000000E+000	0.0000000E+000	0.0000000E+000	-4.89181	0.0000000E+000	0.0000000E+000	0.0000000E+000	4.89181	11.6841	85.1082	0.000000000000000E+000	-7.78537e-05	3.8558e-09	-7.78576e-05	3.78589	184083	9.11691	184092
0.251173	13.0442	1.37762	13.1167	-6.02878	240.309	3.7857	-0.0205652	459956	5073.72	1	11	0.0050898	0.000388039	0	-0.00338116	-0.000187491	4.51661e-07	9.6785	0.00116396	0.00114739	-0.000195684	-6.0274	13.1178	13.0453	1.37743	0.0758169	0.00800719	0.0762386	6.02878	5.07372e+06	4.80411e+07	4.83083e+07	-83.9712	0.0000000E+000	0.0000000E+000	0.0000000E+000	83.9712	0.0000000E+000	0.0000000E+000	0.0000000E+000	-83.9712	0.0000000E+000	0.0000000E+000	0.0000000E+000	-6.02878	0.0000000E+000	0.0000000E+000	0.0000000E+000	6.02878	9.46861	83.9712	0.000000000000000E+000	-7.78537e-05	3.8558e-09	-7.78576e-05	3.78589	184083	9.11691	184092
0.160751	13.4161	1.56781	13.5074	-6.66538	240.31	3.7857	-0.0205652	631501	8507.82	1	11	0.00508471	0.00037644	0	-0.00338116	-0.000187491	6.97383e-07	12.961	0.00185258	0.00180538	-0.00041551	-6.66274	13.5091	13.4179	1.56739	0.0735333	0.00859314	0.0740337	6.66538	8.50781e+06	7.28032e+07	7.32987e+07	-83.3346	0.0000000E+000	0.0000000E+000	0.0000000E+000	83.3346	0.0000000E+000	0.0000000E+000	0.0000000E+000	-83.3346	0.0000000E+000	0.0000000E+000	0.0000000E+000	-6.66538	0.0000000E+000	0.0000000E+000	0.0000000E+000	6.66538	8.55722	83.3346	0.000000000000000E+000	-7.78537e-05	3.8558e-09	-7.78576e-05	3.78589	184083	9.11691	184092
0.100469	13.8322	2.10702	13.9917	-8.66116	240.311	3.7857	-0.0205652	751826	17049.6	1	11	0.00508757	0.000363613	0	-0.00338116	-0.000187491	5.6393e-07	-9.00646	0.00155091	0.00153179	0.000242788	-8.66119	13.9933	13.8337	2.10727	0.0706558	0.0107628	0.0714708	8.66116	1.70496e+07	1.11927e+08	1.13218e+08	-81.3388	0.0000000E+000	0.0000000E+000	0.0000000E+000	81.3388	0.0000000E+000	0.0000000E+000	0.0000000E+000	-81.3388	0.0000000E+000	0.0000000E+000	0.0000000E+000	-8.66116	0.0000000E+000	0.0000000E+000	0.0000000E+000	8.66116	6.56479	81.3388	0.000000000000000E+000	-7.78537e-05	3.8558e-09	-7.78576e-05	3.78589	184083	9.11691	184092
0.0602816	14.5321	2.46106	14.7391	-9.612	240.313	3.7857	-0.0205652	1.07279e+06	29910	1	11	0.00508335	0.00034489	0	-0.00338116	-0.000187491	9.56871e-07	-56.3508	0.00277442	0.00153733	0.00230956	-9.61985	14.741	14.5337	2.46337	0.0668944	0.0113287	0.0678469	9.612	2.991e+07	1.76614e+08	1.79129e+08	-80.388	0.0000000E+000	0.0000000E+000	0.0000000E+000	80.388	0.0000000E+000	0.0000000E+000	0.0000000E+000	-80.388	0.0000000E+000	0.0000000E+000	0.0000000E+000	-9.612	0.0000000E+000	0.0000000E+000	0.0000000E+000	9.612	5.90484	80.388	0.000000000000000E+000	-7.78537e-05	3.8558e-09	-7.78576e-05	3.78589	184083	9.11691	184092
0.0401878	15.3253	2.80216	15.5793	-10.3618	240.314	3.7857	-0.0205652	1.4133e+06	45721.5	1	11	0.00508169	0.000326181	0	-0.00338116	-0.000187491	4.28437e-07	10.3056	0.00131349	0.0012923	-0.000234981	-10.3601	15.5806	15.3266	2.80192	0.0631407	0.011545	0.0641875	10.3618	4.57215e+07	2.50055e+08	2.54201e+08	-79.6382	0.0000000E+000	0.0000000E+000	0.0000000E+000	79.6382	0.0000000E+000	0.0000000E+000	0.0000000E+000	-79.6382	0.0000000E+000	0.0000000E+000	0.0000000E+000	-10.3618	0.0000000E+000	0.0000000E+000	0.0000000E+000	10.3618	5.46909	79.6382	0.000000000000000E+000	-7.78537e-05	3.8558e-09	-7.78576e-05	3.78589	184083	9.11691	184092
0.0200939	16.8819	3.86366	17.3184	-12.891	240.316	3.7857	-0.0205652	2.05002e+06	102033	1	11	0.005083	0.000293504	0	-0.00338116	-0.000187491	3.5641e-07	-60.2434	0.00121433	0.000602691	0.00105421	-12.8939	17.3192	16.8825	3.86471	0.0562869	0.0128821	0.0577422	12.891	1.02033e+08	4.45824e+08	4.57351e+08	-77.109	0.0000000E+000	0.0000000E+000	0.0000000E+000	77.109	0.0000000E+000	0.0000000E+000	0.0000000E+000	-77.109	0.0000000E+000	0.0000000E+000	0.0000000E+000	-12.891	0.0000000E+000	0.0000000E+000	0.0000000E+000	12.891	4.3694	77.109	0.000000000000000E+000	-7.78537e-05	3.8558e-09	-7.78576e-05	3.78589	184083	9.11691	184092
0.00796479	20.4694	4.41675	20.9405	-12.1762	20329.2	3.78569	-8.45003e-05	4.52421e+06	201268	1	11	0.00507397	0.000242304	0	-0.0124476	-0.000397701	3.65532e-07	-29.1185	0.00150857	0.00131791	0.000734097	-12.1774	20.9419	20.4707	4.41748	0.0466801	0.0100723	0.0477544	12.1762	2.01268e+08	9.32776e+08	9.54243e+08	-77.8238	0.0000000E+000	0.0000000E+000	0.0000000E+000	77.8238	0.0000000E+000	0.0000000E+000	0.0000000E+000	-77.8238	0.0000000E+000	0.0000000E+000	0.0000000E+000	-12.1762	0.0000000E+000	0.0000000E+000	0.0000000E+000	12.1762	4.6345	77.8238	-0.00906647	-3.19892e-07	3.36058e-11	-3.19925e-07	3.78609	4.48009e+07	4706.5	4.48056e+07
0.00497799	21.9013	4.4082	22.3405	-11.3802	20329.2	3.78569	-8.45003e-05	7.25279e+06	282383	1	11	0.00508209	0.000227483	0	-0.0124476	-0.000397701	5.46437e-07	-0.349617	0.0024021	0.00240206	1.46575e-05	-11.379	22.3429	21.9037	4.40821	0.0438816	0.00883229	0.0447617	11.3802	2.82383e+08	1.40297e+09	1.43111e+09	-78.6198	0.0000000E+000	0.0000000E+000	0.0000000E+000	78.6198	0.0000000E+000	0.0000000E+000	0.0000000E+000	-78.6198	0.0000000E+000	0.0000000E+000	0.0000000E+000	-11.3802	0.0000000E+000	0.0000000E+000	0.0000000E+000	11.3802	4.96832	78.6198	0.000000000000000E+000	-3.19892e-07	3.36058e-11	-3.19925e-07	3.78609	4.48009e+07	4706.5	4.48056e+07
0.00318591	22.9312	5.84073	23.6634	-14.2898	20329.2	3.78569	-8.45003e-05	8.553e+06	521074	1	11	0.00508412	0.000214852	0	-0.0124476	-0.000397701	6.47774e-07	-41.0863	0.00301498	0.00227245	0.00198143	-14.293	23.6661	22.9335	5.84271	0.0409519	0.0104307	0.0422594	14.2898	5.21074e+08	2.04578e+09	2.1111e+09	-75.7102	0.0000000E+000	0.0000000E+000	0.0000000E+000	75.7102	0.0000000E+000	0.0000000E+000	0.0000000E+000	-75.7102	0.0000000E+000	0.0000000E+000	0.0000000E+000	-14.2898	0.0000000E+000	0.0000000E+000	0.0000000E+000	14.2898	3.92609	75.7102	0.000000000000000E+000	-3.19892e-07	3.36058e-11	-3.19925e-07	3.78609	4.48009e+07	4706.5	4.48056e+07
0.0019912	24.0511	6.60959	24.9428	-15.3664	20329.2	3.78569	-8.45003e-05	1.20929e+07	849162	1	11	0.00508879	0.000204019	0	-0.0124476	-0.000397701	4.68273e-07	-3.89042	0.00229525	0.00228996	0.000155729	-15.3653	24.945	24.0534	6.60974	0.0386585	0.0106239	0.0400917	15.3664	8.49162e+08	3.08995e+09	3.20451e+09	-74.6336	0.0000000E+000	0.0000000E+000	0.0000000E+000	74.6336	0.0000000E+000	0.0000000E+000	0.0000000E+000	-74.6336	0.0000000E+000	0.0000000E+000	0.0000000E+000	-15.3664	0.0000000E+000	0.0000000E+000	0.0000000E+000	15.3664	3.63882	74.6336	0.000000000000000E+000	-3.19892e-07	3.36058e-11	-3.19925e-07	3.78609	4.48009e+07	4706.5	4.48056e+07
0.00129428	24.2319	8.05068	25.5343	-18.3783	20329.2	3.78569	-8.45003e-05	1.52743e+07	1.51837e+06	1	11	0.00508839	0.000199277	0	-0.0124476	-0.000397701	5.8391e-07	-43.5901	0.00293014	0.00212228	0.00202032	-18.3811	25.5369	24.234	8.0527	0.0371656	0.0123477	0.039163	18.3783	1.51837e+09	4.57018e+09	4.81581e+09	-71.6217	0.0000000E+000	0.0000000E+000	0.0000000E+000	71.6217	0.0000000E+000	0.0000000E+000	0.0000000E+000	-71.6217	0.0000000E+000	0.0000000E+000	0.0000000E+000	-18.3783	0.0000000E+000	0.0000000E+000	0.0000000E+000	18.3783	3.00992	71.6217	0.000000000000000E+000	-3.19892e-07	3.36058e-11	-3.19925e-07	3.78609	4.48009e+07	4706.5	4.48056e+07
0.000796479	26.3656	10.2652	28.2934	-21.2729	20329.2	3.78569	-8.45003e-05	1.94662e+07	2.56237e+06	1	11	0.00508685	0.000179789	0	-0.0124476	-0.000397701	4.25364e-07	-75.7684	0.00236591	0.000581639	0.0022933	-21.2768	28.2948	26.3662	10.2675	0.0329357	0.0128232	0.0353439	21.2729	2.56237e+09	6.58131e+09	7.06254e+09	-68.7271	0.0000000E+000	0.0000000E+000	0.0000000E+000	68.7271	0.0000000E+000	0.0000000E+000	0.0000000E+000	-68.7271	0.0000000E+000	0.0000000E+000	0.0000000E+000	-21.2729	0.0000000E+000	0.0000000E+000	0.0000000E+000	21.2729	2.56845	68.7271	0.000000000000000E+000	-3.19892e-07	3.36058e-11	-3.19925e-07	3.78609	4.48009e+07	4706.5	4.48056e+07
0.000497799	26.0995	14.3104	29.7653	-28.736	20329.2	3.78569	-8.45003e-05	2.23416e+07	5.16413e+06	1	11	0.00508779	0.00017093	0	-0.0124476	-0.000397701	7.96093e-07	41.4358	0.00465742	0.00349166	-0.00308219	-28.7275	29.7669	26.103	14.3073	0.0294586	0.0161522	0.0335962	28.736	5.16413e+09	9.41843e+09	1.07413e+10	-61.264	0.0000000E+000	0.0000000E+000	0.0000000E+000	61.264	0.0000000E+000	0.0000000E+000	0.0000000E+000	-61.264	0.0000000E+000	0.0000000E+000	0.0000000E+000	-28.736	0.0000000E+000	0.0000000E+000	0.0000000E+000	28.736	1.82382	61.264	0.000000000000000E+000	-3.19892e-07	3.36058e-11	-3.19925e-07	3.78609	4.48009e+07	4706.5	4.48056e+07
0.000298679	26.444	21.3535	33.9891	-38.9209	20329.2	3.78569	-8.45003e-05	2.49543e+07	9.8493e+06	1	11	0.00508991	0.000149751	0	-0.0124476	-0.000397701	1.15557e-06	-20.5774	0.00771662	0.00722428	0.00271218	-38.9168	33.9964	26.4512	21.3562	0.0228901	0.0184838	0.0294212	38.9209	9.8493e+09	1.21973e+10	1.56774e+10	-51.0791	0.0000000E+000	0.0000000E+000	0.0000000E+000	51.0791	0.0000000E+000	0.0000000E+000	0.0000000E+000	-51.0791	0.0000000E+000	0.0000000E+000	0.0000000E+000	-38.9209	0.0000000E+000	0.0000000E+000	0.0000000E+000	38.9209	1.23839	51.0791	0.000000000000000E+000	-3.19892e-07	3.36058e-11	-3.19925e-07	3.78609	4.48009e+07	4706.5	4.48056e+07
9.95598e-05	35.0611	65.8756	74.6249	-61.9767	20329.2	3.78569	-8.45003e-05	2.42667e+07	1.89101e+07	1	11	0.00508764	6.81762e-05	0	-0.0124476	-0.000397701	4.39374e-06	39.555	0.0644468	0.0496893	-0.0410409	-61.9282	74.6121	35.1108	65.8346	0.0062959	0.0118292	0.0134003	61.9767	1.89101e+10	1.00645e+10	2.14216e+10	-28.0233	0.0000000E+000	0.0000000E+000	0.0000000E+000	28.0233	0.0000000E+000	0.0000000E+000	0.0000000E+000	-28.0233	0.0000000E+000	0.0000000E+000	0.0000000E+000	-61.9767	0.0000000E+000	0.0000000E+000	0.0000000E+000	61.9767	0.532232	28.0233	0.000000000000000E+000	-3.19892e-07	3.36058e-11	-3.19925e-07	3.78609	4.48009e+07	4706.5	4.48056e+07