File: txt/18266_R297_UC86_SOC50_C02.mpt
EC-Lab ASCII FILE
Nb header lines : 64

Potentio Electrochemical Impedance Spectroscopy

Run on channel : 2 (SN 66139)
User :
CE vs. WE compliance from -10 V to 10 V
Electrode connection : standard
Potential control : Ewe
Ewe ctrl range : min = -10.00 V, max = 10.00 V
Safety Limits :
	Do not start on E overload
Acquisition started on : 10/07/2025 16:29:25.961
Loaded Setting File :  C:\Users\Celltest\OneDrive - store-dot.com\Documents\EC-Lab\Data\txt_done\UC80_17231_EIS_50SOC.mps
Saved on :
	File : UC86_18266_SOC50_EIS_C02.mpr
	Directory : C:\Users\Celltest\OneDrive - store-dot.com\Documents\EC-Lab\Data\Michael\R297\
	Host : 169.254.61.224
Device : VMP-3e (SN .003165)
Address : USB
EC-LAB for windows v11.62 (software)
Internet server v27.00 (firmware)
Command interpretor v12.03 (firmware)
Electrode material :
Initial state :
Electrolyte :
Comments :
Electrode surface area : 0.001 cm²
Characteristic mass : 0.001 g
Equivalent Weight : 0.000 g/eq.
Density : 0.000 g/cm3
Volume (V) : 0.001 cm³
Record Ece
Cycle Definition : Charge/Discharge alternance
Mode                Multi sine
E (V)               0.0000
vs.                 Eoc
tE (h:m:s)          0:00:0.0000
record              0
dI                  0.000
unit dI             mA
dt (s)              0.000
fi                  1.000
unit fi             MHz
ff                  0.100
unit ff             mHz
Nd                  10
Points              per decade
spacing             Logarithmic
Va (mV)             5.0
pw                  0.10
Na                  2
corr                0
E range min (V)     -10.000
E range max (V)     10.000
I Range             Auto
Bandwidth           5
nc cycles           0
goto Ns'            0
nr cycles           0
inc. cycle          0

freq/Hz	Re(Z)/Ohm	-Im(Z)/Ohm	|Z|/Ohm	Phase(Z)/deg	time/s	<Ewe>/V	<I>/mA	Cs/µF	Cp/µF	cycle number	I Range	|Ewe|/V	|I|/A	Ns	(Q-Qo)/mA.h	<Ece>/V	|Ece|/V	Phase(Zce)/deg	|Zce|/Ohm	Re(Zce)/Ohm	-Im(Zce)/Ohm	Phase(Zwe-ce)/deg	|Zwe-ce|/Ohm	Re(Zwe-ce)/Ohm	-Im(Zwe-ce)/Ohm	Re(Y)/Ohm-1	Im(Y)/Ohm-1	|Y|/Ohm-1	Phase(Y)/deg	Re(C)/nF	Im(C)/nF	|C|/nF	Phase(C)/deg	Re(M)	Im(M)	|M|	Phase(M)/deg	Re(Permittivity)	Im(Permittivity)	|Permittivity|	Phase(Permittivity)/deg	Re(Resistivity)/Ohm.cm	Im(Resistivity)/Ohm.cm	|Resistivity|/Ohm.cm	Phase(Resistivity)/deg	Re(Conductivity)/mS/cm	Im(Conductivity)/mS/cm	|Conductivity|/mS/cm	Phase(Conductivity)/deg	Tan(Delta)	Loss Angle(Delta)/deg	dq/mA.h	Pwe/W	Pce/W	Pwe-ce/W	<Ewe-Ece>/V	Rwe/Ohm	Rce/Ohm	Rwe-ce/Ohm		Ewe-Ece/V
1.00002e+06	0.964349	-0.15292	0.976398	9.01054	2.69452	3.78656	-0.0472256	-1.04076	-0.0255283	1	9	0.000199744	0.000204572	0	-2.52548e-05	1.94333e-05	0.000173141	3.19954	0.846359	0.84504	-0.0472383	6.3125	1.82043	1.80939	-0.200158	1.01153	-0.160402	1.02417	-9.01054	-25.5283	160.988	162.999	-99.0105	0.0000000E+000	0.0000000E+000	0.0000000E+000	99.0105	0.0000000E+000	0.0000000E+000	0.0000000E+000	-99.0105	0.0000000E+000	0.0000000E+000	0.0000000E+000	9.01054	0.0000000E+000	0.0000000E+000	0.0000000E+000	-9.01054	6.30624	80.9895	-2.52548e-05	-0.000178822	-9.1775e-10	-0.000178821	3.78654	80180.2	0.4115	80179.8
630957	0.353697	0.197638	0.405169	-29.1955	3.46054	3.7865	-0.0529242	1.27629	0.303681	1	9	0.000135311	0.000333961	0	-3.51479e-05	-0.000171475	0.000118008	-104.98	0.353357	-0.0913344	0.341349	-64.0446	0.599451	0.262362	0.538987	2.15456	1.20392	2.4681	29.1955	303.681	543.474	622.564	-60.8045	0.0000000E+000	0.0000000E+000	0.0000000E+000	60.8045	0.0000000E+000	0.0000000E+000	0.0000000E+000	-60.8045	0.0000000E+000	0.0000000E+000	0.0000000E+000	-29.1955	0.0000000E+000	0.0000000E+000	0.0000000E+000	29.1955	1.78962	60.8045	-4.02689e-06	-0.000200398	9.07518e-09	-0.000200407	3.78667	71545.8	3.24001	71549
398103	0.559206	0.117451	0.571407	-11.8615	4.22656	3.78664	-0.0394784	3.40383	0.14381	1	9	0.000543815	0.000951712	0	-4.23242e-05	-7.60209e-05	3.71425e-05	-165.417	0.039027	-0.0377696	0.00982657	-13.7171	0.536745	0.521437	0.127278	1.7127	0.35972	1.75006	11.8615	143.81	684.707	699.646	-78.1385	0.0000000E+000	0.0000000E+000	0.0000000E+000	78.1385	0.0000000E+000	0.0000000E+000	0.0000000E+000	-78.1385	0.0000000E+000	0.0000000E+000	0.0000000E+000	-11.8615	0.0000000E+000	0.0000000E+000	0.0000000E+000	11.8615	4.76119	78.1385	-3.51462e-06	-0.00014949	3.00119e-09	-0.000149493	3.78671	95916.6	1.92563	95918.6
251206	0.677875	0.249123	0.722203	-20.1787	4.99452	3.78654	-0.040782	2.54317	0.302611	1	9	0.00183845	0.00254561	0	-5.47546e-05	-7.60209e-05	2.67038e-05	83.9546	0.0104901	0.00110478	-0.0104318	-19.3688	0.719714	0.67898	0.238691	1.29966	0.477634	1.38465	20.1787	302.611	823.419	877.264	-69.8213	0.0000000E+000	0.0000000E+000	0.0000000E+000	69.8213	0.0000000E+000	0.0000000E+000	0.0000000E+000	-69.8213	0.0000000E+000	0.0000000E+000	0.0000000E+000	-20.1787	0.0000000E+000	0.0000000E+000	0.0000000E+000	20.1787	2.72105	69.8213	-7.78555e-06	-0.000154423	3.10028e-09	-0.000154426	3.78662	92848.4	1.86408	92850.2
158486	0.76657	0.365337	0.849176	-25.4818	5.76052	3.7865	-0.0445437	2.74875	0.508776	1	9	0.00505392	0.00595156	0	-5.52261e-05	0.000305796	2.73871e-05	72.4401	0.00460167	0.00138834	-0.00438724	-25.1741	0.848554	0.767958	0.360949	1.06306	0.506638	1.17761	25.4818	508.776	1067.54	1182.58	-64.5182	0.0000000E+000	0.0000000E+000	0.0000000E+000	64.5182	0.0000000E+000	0.0000000E+000	0.0000000E+000	-64.5182	0.0000000E+000	0.0000000E+000	0.0000000E+000	-25.4818	0.0000000E+000	0.0000000E+000	0.0000000E+000	25.4818	2.09826	64.5182	4.33876e-06	-0.000168665	-1.36213e-08	-0.000168651	3.78619	85006.3	6.86508	84999.4
100004	0.886079	0.483314	1.00932	-28.6104	6.52856	3.78644	-0.0309862	3.29287	0.755048	1	9	0.00537134	0.00532174	0	-6.64806e-05	-0.000324202	2.41517e-05	84.8604	0.00453831	0.000406554	-0.00452006	-28.3736	1.00752	0.886485	0.478793	0.86979	0.474429	0.990766	28.6104	755.049	1384.26	1576.79	-61.3896	0.0000000E+000	0.0000000E+000	0.0000000E+000	61.3896	0.0000000E+000	0.0000000E+000	0.0000000E+000	-61.3896	0.0000000E+000	0.0000000E+000	0.0000000E+000	-28.6104	0.0000000E+000	0.0000000E+000	0.0000000E+000	28.6104	1.83334	61.3896	-7.82889e-07	-0.000117328	1.00458e-08	-0.000117338	3.78677	122198	10.4628	122208
63093.8	1.02862	0.60902	1.1954	-30.6286	7.29652	3.78642	-0.0309862	4.14192	1.07508	1	9	0.00538386	0.00450383	0	-5.70658e-05	3.85242e-05	1.03707e-05	82.7833	0.00230265	0.000289265	-0.0022844	-30.5273	1.19448	1.02891	0.606736	0.719835	0.426195	0.836543	30.6286	1075.08	1815.79	2110.19	-59.3714	0.0000000E+000	0.0000000E+000	0.0000000E+000	59.3714	0.0000000E+000	0.0000000E+000	0.0000000E+000	-59.3714	0.0000000E+000	0.0000000E+000	0.0000000E+000	-30.6286	0.0000000E+000	0.0000000E+000	0.0000000E+000	30.6286	1.68898	59.3714	-5.30492e-06	-0.000117327	-1.19372e-09	-0.000117326	3.78639	122197	1.24327	122196
39814.1	1.19603	0.742775	1.4079	-31.8417	8.06453	3.78642	-0.0334818	5.38179	1.49794	1	9	0.00541417	0.00384555	0	-7.77684e-05	1.94333e-05	1.50578e-05	25.1326	0.00391563	0.00354493	-0.00166302	-31.7083	1.41004	1.19957	0.741112	0.603385	0.374723	0.710276	31.8417	1497.94	2412.01	2839.3	-58.1583	0.0000000E+000	0.0000000E+000	0.0000000E+000	58.1583	0.0000000E+000	0.0000000E+000	0.0000000E+000	-58.1583	0.0000000E+000	0.0000000E+000	0.0000000E+000	-31.8417	0.0000000E+000	0.0000000E+000	0.0000000E+000	31.8417	1.61021	58.1583	-1.21316e-05	-0.000126776	-6.50662e-10	-0.000126775	3.7864	113089	0.580415	113088
25116.9	1.41552	0.916002	1.68605	-32.9074	8.95653	3.78641	-0.025027	6.91763	2.04178	1	9	0.00538062	0.00319126	0	-8.3152e-05	0.000305796	6.34845e-06	-17.2649	0.00198933	0.00189969	0.000590413	-32.8892	1.68797	1.41742	0.916592	0.497939	0.322222	0.593102	32.9074	2041.78	3155.22	3758.23	-57.0926	0.0000000E+000	0.0000000E+000	0.0000000E+000	57.0926	0.0000000E+000	0.0000000E+000	0.0000000E+000	-57.0926	0.0000000E+000	0.0000000E+000	0.0000000E+000	-32.9074	0.0000000E+000	0.0000000E+000	0.0000000E+000	32.9074	1.54533	57.0926	-1.02066e-06	-9.47623e-05	-7.65314e-09	-9.47547e-05	3.78611	151293	12.2187	151281
15847.7	1.67676	1.10622	2.00879	-33.4144	9.59856	3.78641	-0.0322899	9.07846	2.75313	1	9	0.00464685	0.00231326	0	-8.76751e-05	0.00040125	7.24629e-06	-114.376	0.0031325	-0.00129284	0.00285327	-33.5026	2.00929	1.67547	1.10908	0.415528	0.27414	0.497812	33.4144	2753.13	4173.06	4999.42	-56.5856	0.0000000E+000	0.0000000E+000	0.0000000E+000	56.5856	0.0000000E+000	0.0000000E+000	0.0000000E+000	-56.5856	0.0000000E+000	0.0000000E+000	0.0000000E+000	-33.4144	0.0000000E+000	0.0000000E+000	0.0000000E+000	33.4144	1.51575	56.5856	-2.43665e-06	-0.000122263	-1.29563e-08	-0.00012225	3.78601	117263	12.4265	117251
10002.2	1.98328	1.33915	2.39306	-34.0279	10.2405	3.78641	-0.0264051	11.8822	3.72088	1	9	0.00467342	0.00195291	0	-9.23793e-05	-0.000305111	1.01996e-05	-21.2624	0.00522275	0.00486724	0.00189398	-34.0003	2.39815	1.98815	1.34104	0.346321	0.233842	0.417876	34.0279	3720.88	5510.64	6649.22	-55.9721	0.0000000E+000	0.0000000E+000	0.0000000E+000	55.9721	0.0000000E+000	0.0000000E+000	0.0000000E+000	-55.9721	0.0000000E+000	0.0000000E+000	0.0000000E+000	-34.0279	0.0000000E+000	0.0000000E+000	0.0000000E+000	34.0279	1.481	55.9721	-2.33139e-06	-9.99806e-05	8.05649e-09	-9.99886e-05	3.78672	143397	11.555	143409
6309.38	2.38804	1.61467	2.88269	-34.0645	10.8836	3.78642	-0.0332956	15.6225	4.90141	1	9	0.00469221	0.00162772	0	-9.72359e-05	-0.000228748	8.11433e-06	-68.9454	0.00498509	0.00179093	0.00465228	-34.1211	2.88678	2.38983	1.61932	0.287373	0.194307	0.346898	34.0645	4901.41	7249.02	8750.55	-55.9355	0.0000000E+000	0.0000000E+000	0.0000000E+000	55.9355	0.0000000E+000	0.0000000E+000	0.0000000E+000	-55.9355	0.0000000E+000	0.0000000E+000	0.0000000E+000	-34.0645	0.0000000E+000	0.0000000E+000	0.0000000E+000	34.0645	1.47897	55.9355	-2.00705e-06	-0.000126071	7.61629e-09	-0.000126079	3.78665	113721	6.87021	113728
3983.6	2.83832	1.92529	3.42969	-34.1498	11.5921	3.78624	-0.11654	20.7515	6.53928	1	9	0.00500799	0.00146019	0	-0.000107921	0.000133978	1.11399e-05	-148.614	0.00762911	-0.00651278	0.0039733	-34.2659	3.42654	2.8318	1.92926	0.241297	0.163676	0.291572	34.1498	6539.28	9640.41	11649	-55.8502	0.0000000E+000	0.0000000E+000	0.0000000E+000	55.8502	0.0000000E+000	0.0000000E+000	0.0000000E+000	-55.8502	0.0000000E+000	0.0000000E+000	0.0000000E+000	-34.1498	0.0000000E+000	0.0000000E+000	0.0000000E+000	34.1498	1.47423	55.8502	-9.20555e-06	-0.00044125	-1.56139e-08	-0.000441234	3.78611	32488.7	1.14963	32487.6
2510.8	3.43009	2.29986	4.12975	-33.8416	12.6258	3.7863	-0.0494967	27.5618	8.54792	1	10	0.0051504	0.00124715	0	-0.000124267	-0.000228748	1.30948e-05	164.622	0.0104998	-0.0101239	-0.00278449	-33.8879	4.11979	3.41996	2.29707	0.201121	0.134851	0.242145	33.8416	8547.92	12748.7	15349.1	-56.1584	0.0000000E+000	0.0000000E+000	0.0000000E+000	56.1584	0.0000000E+000	0.0000000E+000	0.0000000E+000	-56.1584	0.0000000E+000	0.0000000E+000	0.0000000E+000	-33.8416	0.0000000E+000	0.0000000E+000	0.0000000E+000	33.8416	1.49144	56.1584	-5.48042e-06	-0.00018741	1.13223e-08	-0.000187421	3.78653	76496.1	4.62147	76500.7
1585.51	4.14144	2.69956	4.9436	-33.098	13.5278	3.78631	-0.0492211	37.1842	11.0881	1	10	0.00498245	0.00100786	0	-0.000136468	1.94333e-05	6.54837e-06	-25.6583	0.00649731	0.00585663	0.00281335	-33.0882	4.95004	4.1473	2.70238	0.169459	0.11046	0.202282	33.098	11088.1	17010.5	20305.3	-56.902	0.0000000E+000	0.0000000E+000	0.0000000E+000	56.902	0.0000000E+000	0.0000000E+000	0.0000000E+000	-56.902	0.0000000E+000	0.0000000E+000	0.0000000E+000	-33.098	0.0000000E+000	0.0000000E+000	0.0000000E+000	33.098	1.53412	56.902	-6.659e-06	-0.000186366	-9.56529e-10	-0.000186365	3.78629	76924.5	0.394817	76924.1
1000.32	5.03191	3.12419	5.92289	-31.8351	14.4298	3.78631	-0.048625	50.9266	14.1694	1	10	0.00489103	0.000825785	0	-0.000148569	1.94333e-05	1.36599e-05	-73.9635	0.0165417	0.00456965	0.015898	-31.9422	5.93517	5.03648	3.14008	0.143438	0.0890573	0.168837	31.8351	14169.4	22821.6	26862.6	-58.1649	0.0000000E+000	0.0000000E+000	0.0000000E+000	58.1649	0.0000000E+000	0.0000000E+000	0.0000000E+000	-58.1649	0.0000000E+000	0.0000000E+000	0.0000000E+000	-31.8351	0.0000000E+000	0.0000000E+000	0.0000000E+000	31.8351	1.61063	58.1649	-5.49937e-06	-0.000184109	-9.44946e-10	-0.000184108	3.78629	77867.5	0.399657	77867.1
631.01	6.11775	3.49856	7.04747	-29.764	15.3306	3.78631	-0.0480625	72.0932	17.7667	1	10	0.00483518	0.000686088	0	-0.000159738	-5.69301e-05	6.62161e-06	124.741	0.00965126	-0.0055	-0.00793075	-29.7301	7.03876	6.11225	3.49063	0.123176	0.0704406	0.141895	29.764	17766.7	31067.7	35789.1	-60.236	0.0000000E+000	0.0000000E+000	0.0000000E+000	60.236	0.0000000E+000	0.0000000E+000	0.0000000E+000	-60.236	0.0000000E+000	0.0000000E+000	0.0000000E+000	-29.764	0.0000000E+000	0.0000000E+000	0.0000000E+000	29.764	1.74865	60.236	-5.89441e-06	-0.000181979	2.7362e-09	-0.000181982	3.78636	78778.7	1.1845	78779.9
398.089	7.40897	3.72545	8.29288	-26.6946	16.2318	3.7863	-0.0483717	107.315	21.6575	1	10	0.00482146	0.000581398	0	-0.000171604	-1.87484e-05	1.40835e-05	-69.8604	0.0242235	0.00834037	0.0227424	-26.8089	8.31056	7.41731	3.74819	0.107733	0.0541712	0.120585	26.6946	21657.5	43071.2	48209.7	-63.3054	0.0000000E+000	0.0000000E+000	0.0000000E+000	63.3054	0.0000000E+000	0.0000000E+000	0.0000000E+000	-63.3054	0.0000000E+000	0.0000000E+000	0.0000000E+000	-26.6946	0.0000000E+000	0.0000000E+000	0.0000000E+000	26.6946	1.98874	63.3054	-5.93019e-06	-0.00018315	9.06891e-10	-0.000183151	3.78632	78275.1	0.387589	78275.5
251.044	8.77867	3.60805	9.49121	-22.3428	17.13	3.7863	-0.0480961	175.71	25.3922	1	10	0.00479497	0.000505201	0	-0.000182567	0.000248523	3.44053e-06	-37.4457	0.00681021	0.00540683	0.00414067	-22.3535	9.49778	8.78407	3.61219	0.0974508	0.0400525	0.105361	22.3428	25392.2	61781.1	66795.7	-67.6572	0.0000000E+000	0.0000000E+000	0.0000000E+000	67.6572	0.0000000E+000	0.0000000E+000	0.0000000E+000	-67.6572	0.0000000E+000	0.0000000E+000	0.0000000E+000	-22.3428	0.0000000E+000	0.0000000E+000	0.0000000E+000	22.3428	2.43308	67.6572	-5.46769e-06	-0.000182106	-1.1953e-08	-0.000182094	3.78606	78723.8	5.16723	78718.6
158.428	10.0446	3.2623	10.5611	-17.9929	18.0349	3.78631	-0.046971	307.938	29.383	1	10	0.00479369	0.000453903	0	-0.000193012	0.000267614	8.93052e-06	3.08098	0.019675	0.0196465	-0.00105748	-17.9546	10.5794	10.0642	3.26124	0.0900568	0.0292489	0.0946875	17.9929	29383	90469.8	95121.7	-72.0071	0.0000000E+000	0.0000000E+000	0.0000000E+000	72.0071	0.0000000E+000	0.0000000E+000	0.0000000E+000	-72.0071	0.0000000E+000	0.0000000E+000	0.0000000E+000	-17.9929	0.0000000E+000	0.0000000E+000	0.0000000E+000	17.9929	3.07898	72.0071	-5.42595e-06	-0.000177847	-1.25701e-08	-0.000177834	3.78604	80609.4	5.69743	80603.7
100.032	11.0452	2.68999	11.3681	-13.6876	18.9338	3.78631	-0.047202	591.466	33.1177	1	10	0.00479021	0.000421375	0	-0.000204619	-0.000247839	6.10748e-06	21.2624	0.0144942	0.0135076	-0.00525617	-13.6458	11.3799	11.0587	2.68474	0.0854676	0.0208151	0.0879658	13.6876	33117.7	135982	139957	-76.3124	0.0000000E+000	0.0000000E+000	0.0000000E+000	76.3124	0.0000000E+000	0.0000000E+000	0.0000000E+000	-76.3124	0.0000000E+000	0.0000000E+000	0.0000000E+000	-13.6876	0.0000000E+000	0.0000000E+000	0.0000000E+000	13.6876	4.10604	76.3124	-5.6842e-06	-0.000178721	1.16985e-08	-0.000178733	3.78656	80215	5.25059	80220.3
63.0823	11.748	2.15551	11.9441	-10.3969	19.849	3.7863	-0.0442069	1170.48	38.1203	1	10	0.00478794	0.000400863	0	-0.000215325	-7.60209e-05	2.01558e-06	-104.165	0.00502811	-0.00123044	0.00487524	-10.421	11.9437	11.7467	2.16038	0.0823488	0.0151093	0.0837235	10.3969	38120.3	207764	211232	-79.6031	0.0000000E+000	0.0000000E+000	0.0000000E+000	79.6031	0.0000000E+000	0.0000000E+000	0.0000000E+000	-79.6031	0.0000000E+000	0.0000000E+000	0.0000000E+000	-10.3969	0.0000000E+000	0.0000000E+000	0.0000000E+000	10.3969	5.45022	79.6031	-5.72116e-06	-0.000167381	3.36065e-09	-0.000167384	3.78638	85649.6	1.71966	85651.3
39.8089	12.1641	1.5657	12.2644	-7.33453	20.7498	3.78631	-0.045887	2553.47	41.6156	1	10	0.00478511	0.000390163	0	-0.000226604	-3.78392e-05	8.62296e-06	-68.6345	0.0221009	0.00805173	0.0205821	-7.42502	12.275	12.1721	1.58629	0.0808696	0.0104092	0.0815368	7.33453	41615.6	323315	325982	-82.6655	0.0000000E+000	0.0000000E+000	0.0000000E+000	82.6655	0.0000000E+000	0.0000000E+000	0.0000000E+000	-82.6655	0.0000000E+000	0.0000000E+000	0.0000000E+000	-7.33453	0.0000000E+000	0.0000000E+000	0.0000000E+000	7.33453	7.76906	82.6655	-5.50206e-06	-0.000173742	1.73633e-09	-0.000173744	3.78634	82513.7	0.824617	82514.5
25.1044	12.4334	1.18044	12.4893	-5.42348	21.6291	3.7863	-0.0474255	5370.63	47.9776	1	10	0.00478728	0.00038331	0	-0.000237679	-7.60209e-05	6.17186e-06	-5.4954	0.0161015	0.0160275	0.00154197	-5.42358	12.5054	12.4494	1.18198	0.0797101	0.00756779	0.0800686	5.42348	47977.6	505340	507612	-84.5765	0.0000000E+000	0.0000000E+000	0.0000000E+000	84.5765	0.0000000E+000	0.0000000E+000	0.0000000E+000	-84.5765	0.0000000E+000	0.0000000E+000	0.0000000E+000	-5.42348	0.0000000E+000	0.0000000E+000	0.0000000E+000	5.42348	10.5328	84.5765	-6.04941e-06	-0.000179567	3.60533e-09	-0.000179571	3.78637	79836.7	1.60295	79838.3
15.8576	12.6549	0.923538	12.6885	-4.17399	22.5071	3.7863	-0.0512029	10867.5	57.5727	1	10	0.0047988	0.0003782	0	-0.000247911	0.000229433	9.60863e-06	96.9369	0.0254062	-0.00306845	-0.0252202	-4.06137	12.6836	12.6518	0.898318	0.0786024	0.00573632	0.0788114	4.17399	57572.7	788894	790992	-85.826	0.0000000E+000	0.0000000E+000	0.0000000E+000	85.826	0.0000000E+000	0.0000000E+000	0.0000000E+000	-85.826	0.0000000E+000	0.0000000E+000	0.0000000E+000	-4.17399	0.0000000E+000	0.0000000E+000	0.0000000E+000	4.17399	13.7026	85.826	-4.79302e-06	-0.00019387	-1.17476e-08	-0.000193858	3.78607	73947	4.48085	73942.5
10.0032	12.805	0.745698	12.8266	-3.33286	23.7328	3.78636	-0.0308967	21336.2	72.1137	1	11	0.00478479	0.000373035	0	-0.000258709	9.57967e-05	8.64196e-06	-87.0605	0.0231666	0.00118801	0.0231361	-3.43571	12.8292	12.8061	0.768834	0.0778308	0.00453249	0.0779627	3.33286	72113.7	1.23832e+06	1.24042e+06	-86.6671	0.0000000E+000	0.0000000E+000	0.0000000E+000	86.6671	0.0000000E+000	0.0000000E+000	0.0000000E+000	-86.6671	0.0000000E+000	0.0000000E+000	0.0000000E+000	-3.33286	0.0000000E+000	0.0000000E+000	0.0000000E+000	3.33286	17.1718	86.6671	-7.41453e-06	-0.000116986	-2.9598e-09	-0.000116983	3.78626	122549	3.10055	122546
6.31058	12.9326	0.701715	12.9516	-3.10579	24.6573	3.78635	-0.0309213	35941	105.502	1	11	0.00478443	0.000369408	0	-0.000267874	0.000324887	9.18601e-06	-7.27363	0.0248669	0.0246668	0.00314835	-3.11376	12.9764	12.9573	0.704864	0.0770969	0.00418322	0.0772103	3.10579	105502	1.94441e+06	1.94727e+06	-86.8942	0.0000000E+000	0.0000000E+000	0.0000000E+000	86.8942	0.0000000E+000	0.0000000E+000	0.0000000E+000	-86.8942	0.0000000E+000	0.0000000E+000	0.0000000E+000	-3.10579	0.0000000E+000	0.0000000E+000	0.0000000E+000	3.10579	18.43	86.8942	-1.05808e-06	-0.000117079	-1.00459e-08	-0.000117069	3.78603	122451	10.5069	122441
3.97785	13.0772	0.659509	13.0938	-2.8871	25.6643	3.78636	-0.0287172	60666.7	153.908	1	11	0.00479157	0.000365942	0	-0.000276741	0.00017216	3.93831e-06	49.05	0.0107621	0.0070535	-0.00812844	-2.85004	13.1004	13.0842	0.651381	0.0762751	0.00384671	0.076372	2.8871	153908	3.05179e+06	3.05567e+06	-87.1129	0.0000000E+000	0.0000000E+000	0.0000000E+000	87.1129	0.0000000E+000	0.0000000E+000	0.0000000E+000	-87.1129	0.0000000E+000	0.0000000E+000	0.0000000E+000	-2.8871	0.0000000E+000	0.0000000E+000	0.0000000E+000	2.8871	19.8287	87.1129	-7.74395e-06	-0.000108734	-4.94395e-09	-0.000108729	3.78619	131850	5.99502	131844
2.51367	13.237	0.686517	13.2548	-2.96889	27.2239	3.78637	-0.0289663	92227.4	247.408	1	11	0.0047963	0.000361853	0	-0.000291665	0.00017216	6.75915e-06	-11.5353	0.0186793	0.018302	0.00373532	-2.9809	13.2733	13.2553	0.690252	0.0753429	0.00390753	0.0754442	2.96889	247408	4.77038e+06	4.7768e+06	-87.0311	0.0000000E+000	0.0000000E+000	0.0000000E+000	87.0311	0.0000000E+000	0.0000000E+000	0.0000000E+000	-87.0311	0.0000000E+000	0.0000000E+000	0.0000000E+000	-2.96889	0.0000000E+000	0.0000000E+000	0.0000000E+000	2.96889	19.2815	87.0311	-5.30253e-06	-0.000109677	-4.98684e-09	-0.000109672	3.7862	130716	5.94346	130710
1.58469	13.3796	0.757145	13.401	-3.23889	29.6594	3.78637	-0.0277248	132647	423.432	1	11	0.00479106	0.000357516	0	-0.000298387	0.000191251	4.14876e-06	-74.9349	0.0116044	0.00301618	0.0112056	-3.28599	13.4046	13.3826	0.768351	0.0745022	0.00421606	0.0746214	3.23889	423431	7.48249e+06	7.49446e+06	-86.7611	0.0000000E+000	0.0000000E+000	0.0000000E+000	86.7611	0.0000000E+000	0.0000000E+000	0.0000000E+000	-86.7611	0.0000000E+000	0.0000000E+000	0.0000000E+000	-3.23889	0.0000000E+000	0.0000000E+000	0.0000000E+000	3.23889	17.6711	86.7611	-4.72141e-06	-0.000104976	-5.30239e-09	-0.000104971	3.78618	136570	6.8982	136563
1.00469	13.5405	0.827209	13.5658	-3.49593	240.476	3.78634	-0.0178489	191501	712.053	1	11	0.00497849	0.000366989	0	-0.00291384	1.94333e-05	1.1159e-07	23.4694	0.000304069	0.000278914	-0.000121098	-3.49535	13.566	13.5408	0.827088	0.0735777	0.00449496	0.0737149	3.49593	712054	1.16556e+07	1.16773e+07	-86.5041	0.0000000E+000	0.0000000E+000	0.0000000E+000	86.5041	0.0000000E+000	0.0000000E+000	0.0000000E+000	-86.5041	0.0000000E+000	0.0000000E+000	0.0000000E+000	-3.49593	0.0000000E+000	0.0000000E+000	0.0000000E+000	3.49593	16.3689	86.5041	-0.00260169	-6.7582e-05	-3.46864e-10	-6.75817e-05	3.78632	212132	1.08877	212131
0.632957	13.7627	0.98269	13.7978	-4.08412	240.478	3.78634	-0.0178489	255876	1297.91	1	11	0.00499126	0.000361745	0	-0.00291384	1.94333e-05	2.84212e-07	-85.6849	0.000785669	5.91146e-05	0.000783442	-4.08735	13.7979	13.7628	0.983474	0.0722915	0.00516179	0.0724756	4.08412	1.29791e+06	1.81775e+07	1.82237e+07	-85.9159	0.0000000E+000	0.0000000E+000	0.0000000E+000	85.9159	0.0000000E+000	0.0000000E+000	0.0000000E+000	-85.9159	0.0000000E+000	0.0000000E+000	0.0000000E+000	-4.08412	0.0000000E+000	0.0000000E+000	0.0000000E+000	4.08412	14.0051	85.9159	0.000000000000000E+000	-6.7582e-05	-3.46864e-10	-6.75817e-05	3.78632	212132	1.08877	212131
0.401878	13.9716	1.17982	14.0213	-4.82685	240.479	3.78634	-0.0178489	335668	2376.65	1	11	0.00500504	0.000356959	0	-0.00291384	1.94333e-05	1.99541e-07	51.9888	0.000559003	0.000344243	-0.000440433	-4.82493	14.0216	13.9719	1.17938	0.071067	0.0060012	0.07132	4.82685	2.37664e+06	2.81446e+07	2.82447e+07	-85.1732	0.0000000E+000	0.0000000E+000	0.0000000E+000	85.1732	0.0000000E+000	0.0000000E+000	0.0000000E+000	-85.1732	0.0000000E+000	0.0000000E+000	0.0000000E+000	-4.82685	0.0000000E+000	0.0000000E+000	0.0000000E+000	4.82685	11.8421	85.1732	0.000000000000000E+000	-6.7582e-05	-3.46864e-10	-6.75817e-05	3.78632	212132	1.08877	212131
0.251173	14.3252	1.48139	14.4016	-5.90406	240.48	3.78634	-0.0178489	427738	4525.81	1	11	0.00500451	0.000347498	0	-0.00291384	1.94333e-05	3.04163e-07	15.7883	0.000875295	0.000842273	-0.000238153	-5.90277	14.4024	14.326	1.48115	0.0690686	0.00714249	0.0694369	5.90406	4.52581e+06	4.3765e+07	4.39984e+07	-84.0959	0.0000000E+000	0.0000000E+000	0.0000000E+000	84.0959	0.0000000E+000	0.0000000E+000	0.0000000E+000	-84.0959	0.0000000E+000	0.0000000E+000	0.0000000E+000	-5.90406	0.0000000E+000	0.0000000E+000	0.0000000E+000	5.90406	9.6701	84.0959	0.000000000000000E+000	-6.7582e-05	-3.46864e-10	-6.75817e-05	3.78632	212132	1.08877	212131
0.160751	14.7025	1.63023	14.7926	-6.32715	240.481	3.78634	-0.0178489	607321	7376.04	1	11	0.00500109	0.00033808	0	-0.00291384	1.94333e-05	5.38605e-07	-0.810043	0.00159313	0.00159297	2.25228e-05	-6.32656	14.7942	14.7041	1.63025	0.0671894	0.00745001	0.0676012	6.32715	7.37605e+06	6.65223e+07	6.693e+07	-83.6728	0.0000000E+000	0.0000000E+000	0.0000000E+000	83.6728	0.0000000E+000	0.0000000E+000	0.0000000E+000	-83.6728	0.0000000E+000	0.0000000E+000	0.0000000E+000	-6.32715	0.0000000E+000	0.0000000E+000	0.0000000E+000	6.32715	9.0187	83.6728	0.000000000000000E+000	-6.7582e-05	-3.46864e-10	-6.75817e-05	3.78632	212132	1.08877	212131
0.100469	15.0934	2.18299	15.2505	-8.22974	240.483	3.78634	-0.0178489	725662	14868.7	1	11	0.00500362	0.000328096	0	-0.00291384	1.94333e-05	1.28943e-07	20.5517	0.000393003	0.000367991	-0.000137965	-8.22903	15.2508	15.0938	2.18285	0.0648965	0.00938612	0.0655718	8.22974	1.48687e+07	1.02803e+08	1.03873e+08	-81.7703	0.0000000E+000	0.0000000E+000	0.0000000E+000	81.7703	0.0000000E+000	0.0000000E+000	0.0000000E+000	-81.7703	0.0000000E+000	0.0000000E+000	0.0000000E+000	-8.22974	0.0000000E+000	0.0000000E+000	0.0000000E+000	8.22974	6.91409	81.7703	0.000000000000000E+000	-6.7582e-05	-3.46864e-10	-6.75817e-05	3.78632	212132	1.08877	212131
0.0602816	15.7967	2.54828	16.0009	-9.16384	240.484	3.78634	-0.0178489	1.03607e+06	26278	1	11	0.00499869	0.0003124	0	-0.00291384	1.94333e-05	1.91206e-07	-79.1873	0.000612054	0.000114821	0.000601187	-9.1659	16.0011	15.7968	2.54888	0.0616988	0.00995307	0.0624964	9.16384	2.6278e+07	1.62896e+08	1.65002e+08	-80.8362	0.0000000E+000	0.0000000E+000	0.0000000E+000	80.8362	0.0000000E+000	0.0000000E+000	0.0000000E+000	-80.8362	0.0000000E+000	0.0000000E+000	0.0000000E+000	-9.16384	0.0000000E+000	0.0000000E+000	0.0000000E+000	9.16384	6.19897	80.8362	0.000000000000000E+000	-6.7582e-05	-3.46864e-10	-6.75817e-05	3.78632	212132	1.08877	212131
0.0401878	16.6068	2.93146	16.8635	-10.0108	240.485	3.78634	-0.0178489	1.35096e+06	40823.8	1	11	0.00499861	0.000296416	0	-0.00291384	1.94333e-05	3.98744e-07	71.7097	0.00134522	0.000422172	-0.00127726	-10.0063	16.8637	16.6072	2.93018	0.0583967	0.0103083	0.0592996	10.0108	4.08238e+07	2.31268e+08	2.34843e+08	-79.9892	0.0000000E+000	0.0000000E+000	0.0000000E+000	79.9892	0.0000000E+000	0.0000000E+000	0.0000000E+000	-79.9892	0.0000000E+000	0.0000000E+000	0.0000000E+000	-10.0108	0.0000000E+000	0.0000000E+000	0.0000000E+000	10.0108	5.66502	79.9892	0.000000000000000E+000	-6.7582e-05	-3.46864e-10	-6.75817e-05	3.78632	212132	1.08877	212131
0.0200939	18.2958	4.17197	18.7654	-12.8455	240.487	3.78634	-0.0178489	1.89852e+06	93838.3	1	11	0.00499926	0.000266408	0	-0.00291384	1.94333e-05	4.12329e-07	-6.77056	0.00154774	0.00153694	0.000182469	-12.845	18.767	18.2973	4.17215	0.0519558	0.0118474	0.0532894	12.8455	9.38383e+07	4.11519e+08	4.22083e+08	-77.1545	0.0000000E+000	0.0000000E+000	0.0000000E+000	77.1545	0.0000000E+000	0.0000000E+000	0.0000000E+000	-77.1545	0.0000000E+000	0.0000000E+000	0.0000000E+000	-12.8455	0.0000000E+000	0.0000000E+000	0.0000000E+000	12.8455	4.38541	77.1545	0.000000000000000E+000	-6.7582e-05	-3.46864e-10	-6.75817e-05	3.78632	212132	1.08877	212131
0.00796479	22.5311	4.82153	23.0412	-12.0788	20329.4	3.78634	5.04441e-05	4.14439e+06	181477	1	11	0.00499387	0.000216737	0	-0.00797266	5.7615e-05	2.20578e-07	-149.473	0.00101772	-0.000876658	0.00051694	-12.0805	23.0404	22.5302	4.82205	0.0424397	0.00908188	0.0434006	12.0788	1.81477e+08	8.48044e+08	8.67244e+08	-77.9212	0.0000000E+000	0.0000000E+000	0.0000000E+000	77.9212	0.0000000E+000	0.0000000E+000	0.0000000E+000	-77.9212	0.0000000E+000	0.0000000E+000	0.0000000E+000	-12.0788	0.0000000E+000	0.0000000E+000	0.0000000E+000	12.0788	4.67301	77.9212	-0.00505882	1.90999e-07	2.90634e-12	1.90996e-07	3.78628	7.50602e+07	1142.16	7.5059e+07
0.00497799	24.1389	4.74512	24.6008	-11.1212	20329.4	3.78634	5.04441e-05	6.73781e+06	250677	1	11	0.00500136	0.0002033	0	-0.00797266	5.7615e-05	4.41166e-07	-73.6468	0.00217002	0.000610987	0.00208223	-11.1257	24.6018	24.1395	4.7472	0.0398857	0.00784057	0.040649	11.1212	2.50677e+08	1.27521e+09	1.29962e+09	-78.8788	0.0000000E+000	0.0000000E+000	0.0000000E+000	78.8788	0.0000000E+000	0.0000000E+000	0.0000000E+000	-78.8788	0.0000000E+000	0.0000000E+000	0.0000000E+000	-11.1212	0.0000000E+000	0.0000000E+000	0.0000000E+000	11.1212	5.08709	78.8788	0.000000000000000E+000	1.90999e-07	2.90634e-12	1.90996e-07	3.78628	7.50602e+07	1142.16	7.5059e+07
0.00318591	25.261	6.28468	26.0311	-13.971	20329.4	3.78634	5.04441e-05	7.94883e+06	463325	1	11	0.00500384	0.000192226	0	-0.00797266	5.7615e-05	4.51815e-07	-52.3502	0.00235044	0.00143573	0.00186098	-13.9742	26.0329	25.2624	6.28654	0.0372793	0.0092747	0.0384157	13.971	4.63325e+08	1.86232e+09	1.91909e+09	-76.029	0.0000000E+000	0.0000000E+000	0.0000000E+000	76.029	0.0000000E+000	0.0000000E+000	0.0000000E+000	-76.029	0.0000000E+000	0.0000000E+000	0.0000000E+000	-13.971	0.0000000E+000	0.0000000E+000	0.0000000E+000	13.971	4.01946	76.029	0.000000000000000E+000	1.90999e-07	2.90634e-12	1.90996e-07	3.78628	7.50602e+07	1142.16	7.5059e+07
0.0019912	26.4211	7.04371	27.3439	-14.9275	20329.4	3.78634	5.04441e-05	1.13476e+07	752986	1	11	0.00500658	0.000183097	0	-0.00797266	5.7615e-05	2.74919e-07	-88.1822	0.00150149	4.7629e-05	0.00150074	-14.9305	27.3443	26.4212	7.04521	0.035337	0.00942065	0.0365712	14.9275	7.52986e+08	2.82447e+09	2.92311e+09	-75.0725	0.0000000E+000	0.0000000E+000	0.0000000E+000	75.0725	0.0000000E+000	0.0000000E+000	0.0000000E+000	-75.0725	0.0000000E+000	0.0000000E+000	0.0000000E+000	-14.9275	0.0000000E+000	0.0000000E+000	0.0000000E+000	14.9275	3.75102	75.0725	0.000000000000000E+000	1.90999e-07	2.90634e-12	1.90996e-07	3.78628	7.50602e+07	1142.16	7.5059e+07
0.00129428	26.6041	8.55883	27.947	-17.8335	20329.4	3.78634	5.04441e-05	1.43674e+07	1.34753e+06	1	11	0.00500754	0.00017918	0	-0.00797266	5.7615e-05	2.68641e-07	108.337	0.00149928	-0.000471685	-0.00142315	-17.8311	27.9461	26.6037	8.55741	0.0340627	0.0109583	0.0357821	17.8335	1.34753e+09	4.18863e+09	4.40005e+09	-72.1665	0.0000000E+000	0.0000000E+000	0.0000000E+000	72.1665	0.0000000E+000	0.0000000E+000	0.0000000E+000	-72.1665	0.0000000E+000	0.0000000E+000	0.0000000E+000	-17.8335	0.0000000E+000	0.0000000E+000	0.0000000E+000	17.8335	3.10838	72.1665	0.000000000000000E+000	1.90999e-07	2.90634e-12	1.90996e-07	3.78628	7.50602e+07	1142.16	7.5059e+07
0.000796479	28.9534	10.8237	30.9104	-20.4974	20329.4	3.78634	5.04441e-05	1.84616e+07	2.26367e+06	1	11	0.00500526	0.000161928	0	-0.00797266	5.7615e-05	6.38066e-07	-50.3931	0.00394043	0.00251209	0.00303585	-20.501	30.9138	28.9559	10.8268	0.0303033	0.0113284	0.0323516	20.4974	2.26367e+09	6.05531e+09	6.4646e+09	-69.5026	0.0000000E+000	0.0000000E+000	0.0000000E+000	69.5026	0.0000000E+000	0.0000000E+000	0.0000000E+000	-69.5026	0.0000000E+000	0.0000000E+000	0.0000000E+000	-20.4974	0.0000000E+000	0.0000000E+000	0.0000000E+000	20.4974	2.675	69.5026	0.000000000000000E+000	1.90999e-07	2.90634e-12	1.90996e-07	3.78628	7.50602e+07	1142.16	7.5059e+07
0.000497799	28.7837	15.1159	32.5114	-27.7065	20329.4	3.78634	5.04441e-05	2.1151e+07	4.57224e+06	1	11	0.0050066	0.000153995	0	-0.00797266	5.7615e-05	5.67162e-07	-24.4473	0.00368299	0.00335278	0.00152423	-27.7061	32.5151	28.7871	15.1175	0.0272317	0.0143009	0.0307584	27.7065	4.57224e+09	8.70644e+09	9.83399e+09	-62.2935	0.0000000E+000	0.0000000E+000	0.0000000E+000	62.2935	0.0000000E+000	0.0000000E+000	0.0000000E+000	-62.2935	0.0000000E+000	0.0000000E+000	0.0000000E+000	-27.7065	0.0000000E+000	0.0000000E+000	0.0000000E+000	27.7065	1.90419	62.2935	0.000000000000000E+000	1.90999e-07	2.90634e-12	1.90996e-07	3.78628	7.50602e+07	1142.16	7.5059e+07
0.000298679	29.427	22.4431	37.0087	-37.3317	20329.4	3.78634	5.04441e-05	2.37428e+07	8.73154e+06	1	11	0.00500811	0.000135322	0	-0.00797266	5.7615e-05	4.99379e-07	-2.16155	0.00369029	0.00368766	0.000139188	-37.3284	37.0117	29.4307	22.4433	0.0214852	0.0163861	0.0270207	37.3317	8.73154e+09	1.14486e+10	1.43983e+10	-52.6683	0.0000000E+000	0.0000000E+000	0.0000000E+000	52.6683	0.0000000E+000	0.0000000E+000	0.0000000E+000	-52.6683	0.0000000E+000	0.0000000E+000	0.0000000E+000	-37.3317	0.0000000E+000	0.0000000E+000	0.0000000E+000	37.3317	1.31118	52.6683	0.000000000000000E+000	1.90999e-07	2.90634e-12	1.90996e-07	3.78628	7.50602e+07	1142.16	7.5059e+07
9.95598e-05	39.1192	66.9561	77.5463	-59.7043	20329.4	3.78634	5.04441e-05	2.38752e+07	1.77993e+07	1	11	0.00500718	6.45703e-05	0	-0.00797266	5.7615e-05	1.689e-06	-109.295	0.0261575	-0.00864347	0.0246882	-59.719	77.5632	39.1106	66.9808	0.00650531	0.0111344	0.0128955	59.7043	1.77993e+10	1.03993e+10	2.06146e+10	-30.2957	0.0000000E+000	0.0000000E+000	0.0000000E+000	30.2957	0.0000000E+000	0.0000000E+000	0.0000000E+000	-30.2957	0.0000000E+000	0.0000000E+000	0.0000000E+000	-59.7043	0.0000000E+000	0.0000000E+000	0.0000000E+000	59.7043	0.584252	30.2957	0.000000000000000E+000	1.90999e-07	2.90634e-12	1.90996e-07	3.78628	7.50602e+07	1142.16	7.5059e+07