File: txt/18305_R274_UC74_SOC50_C03.mpt
EC-Lab ASCII FILE
Nb header lines : 65

Potentio Electrochemical Impedance Spectroscopy

Run on channel : 3 (SN 65921)
User :
CE vs. WE compliance from -10 V to 10 V
Electrode connection : standard
Potential control : Ewe
Ewe ctrl range : min = -10.00 V, max = 10.00 V
Safety Limits :
	Do not start on E overload
Acquisition started on : 10/09/2025 15:26:22.204
Technique started on : 10/09/2025 15:26:24.438
Loaded Setting File :  C:\Users\Celltest\OneDrive - store-dot.com\Documents\EC-Lab\Data\txt_done\UC80_17231_EIS_50SOC.mps
Saved on :
	File : 18305_R274_UC74_SOC50_C03.mpr
	Directory : C:\Users\Celltest\OneDrive - store-dot.com\Documents\EC-Lab\Data\Michael\
	Host : 169.254.61.224
Device : VMP-3e (SN .003165)
Address : USB
EC-LAB for windows v11.62 (software)
Internet server v27.00 (firmware)
Command interpretor v12.03 (firmware)
Electrode material :
Initial state :
Electrolyte :
Comments :
Electrode surface area : 0.001 cm²
Characteristic mass : 0.001 g
Equivalent Weight : 0.000 g/eq.
Density : 0.000 g/cm3
Volume (V) : 0.001 cm³
Record Ece
Cycle Definition : Charge/Discharge alternance
Mode                Multi sine
E (V)               0.0000
vs.                 Eoc
tE (h:m:s)          0:00:0.0000
record              0
dI                  0.000
unit dI             mA
dt (s)              0.000
fi                  1.000
unit fi             MHz
ff                  0.100
unit ff             mHz
Nd                  10
Points              per decade
spacing             Logarithmic
Va (mV)             5.0
pw                  0.10
Na                  2
corr                0
E range min (V)     -10.000
E range max (V)     10.000
I Range             Auto
Bandwidth           5
nc cycles           0
goto Ns'            0
nr cycles           0
inc. cycle          0

freq/Hz	Re(Z)/Ohm	-Im(Z)/Ohm	|Z|/Ohm	Phase(Z)/deg	time/s	<Ewe>/V	<I>/mA	Cs/µF	Cp/µF	cycle number	I Range	|Ewe|/V	|I|/A	Ns	(Q-Qo)/mA.h	<Ece>/V	|Ece|/V	Phase(Zce)/deg	|Zce|/Ohm	Re(Zce)/Ohm	-Im(Zce)/Ohm	Phase(Zwe-ce)/deg	|Zwe-ce|/Ohm	Re(Zwe-ce)/Ohm	-Im(Zwe-ce)/Ohm	Re(Y)/Ohm-1	Im(Y)/Ohm-1	|Y|/Ohm-1	Phase(Y)/deg	Re(C)/nF	Im(C)/nF	|C|/nF	Phase(C)/deg	Re(M)	Im(M)	|M|	Phase(M)/deg	Re(Permittivity)	Im(Permittivity)	|Permittivity|	Phase(Permittivity)/deg	Re(Resistivity)/Ohm.cm	Im(Resistivity)/Ohm.cm	|Resistivity|/Ohm.cm	Phase(Resistivity)/deg	Re(Conductivity)/mS/cm	Im(Conductivity)/mS/cm	|Conductivity|/mS/cm	Phase(Conductivity)/deg	Tan(Delta)	Loss Angle(Delta)/deg	dq/mA.h	Pwe/W	Pce/W	Pwe-ce/W	<Ewe-Ece>/V	Rwe/Ohm	Rce/Ohm	Rwe-ce/Ohm		Ewe-Ece/V
1.00002e+06	0.907868	-0.257757	0.94375	15.85	2.23352	3.8852	-0.00586156	-0.61745	-0.0460584	1	9	0.000215454	0.000228296	0	-5.55675e-05	-0.000156891	0.000194713	0.21739	0.852897	0.852891	-0.00323602	8.43142	1.78	1.76076	-0.260993	1.01932	-0.289399	1.0596	-15.85	-46.0584	162.226	168.638	-105.85	0.0000000E+000	0.0000000E+000	0.0000000E+000	105.85	0.0000000E+000	0.0000000E+000	0.0000000E+000	-105.85	0.0000000E+000	0.0000000E+000	0.0000000E+000	15.85	0.0000000E+000	0.0000000E+000	0.0000000E+000	-15.85	3.52219	74.15	-5.55675e-05	-2.27733e-05	9.19628e-10	-2.27743e-05	3.88536	662828	26.7662	662855
630957	0.378738	0.146528	0.406094	-21.1507	3.00052	3.88482	-0.0768312	1.72147	0.224123	1	9	0.000143229	0.0003527	0	-7.18338e-05	-0.000118703	0.00011559	-102.498	0.327729	-0.0709215	0.319963	-56.581	0.558896	0.307816	0.466491	2.2966	0.888517	2.46248	21.1507	224.123	579.302	621.146	-68.8493	0.0000000E+000	0.0000000E+000	0.0000000E+000	68.8493	0.0000000E+000	0.0000000E+000	0.0000000E+000	-68.8493	0.0000000E+000	0.0000000E+000	0.0000000E+000	-21.1507	0.0000000E+000	0.0000000E+000	0.0000000E+000	21.1507	2.58475	68.8493	-8.23477e-06	-0.000298475	9.12011e-09	-0.000298484	3.88494	50563	1.54499	50564.6
398103	0.546198	0.117169	0.558624	-12.1074	3.76654	3.88489	-0.0550891	3.41203	0.150105	1	9	0.000551798	0.000987781	0	-8.28225e-05	0.000148614	5.20021e-05	175.468	0.0526454	-0.0524808	-0.00415951	-12.8926	0.506486	0.493718	0.113009	1.75029	0.375467	1.79011	12.1074	150.105	699.737	715.656	-77.8926	0.0000000E+000	0.0000000E+000	0.0000000E+000	77.8926	0.0000000E+000	0.0000000E+000	0.0000000E+000	-77.8926	0.0000000E+000	0.0000000E+000	0.0000000E+000	-12.1074	0.0000000E+000	0.0000000E+000	0.0000000E+000	12.1074	4.66164	77.8926	-4.35251e-06	-0.000214015	-8.18699e-09	-0.000214007	3.88474	70520.2	2.6977	70517.5
251206	0.662943	0.249756	0.708428	-20.6433	4.53253	3.88478	-0.0798519	2.53673	0.315293	1	9	0.00184617	0.00260601	0	-9.19564e-05	-4.13882e-06	5.48196e-05	99.5106	0.0210359	-0.00347575	-0.0207467	-19.1503	0.698099	0.659467	0.229009	1.32094	0.49765	1.41158	20.6433	315.293	836.9	894.322	-69.3567	0.0000000E+000	0.0000000E+000	0.0000000E+000	69.3567	0.0000000E+000	0.0000000E+000	0.0000000E+000	-69.3567	0.0000000E+000	0.0000000E+000	0.0000000E+000	-20.6433	0.0000000E+000	0.0000000E+000	0.0000000E+000	20.6433	2.65436	69.3567	-5.12334e-06	-0.000310208	3.30492e-10	-0.000310208	3.88479	48649.8	0.0518311	48649.9
158486	0.79064	0.34195	0.861419	-23.3883	5.29853	3.88473	-0.0869376	2.93675	0.462767	1	9	0.00504965	0.00586202	0	-0.000103575	-0.00048149	5.37757e-05	81.4632	0.00917357	0.00136177	-0.00907194	-22.797	0.859113	0.792002	0.332878	1.06549	0.460823	1.16088	23.3883	462.767	1069.99	1165.77	-66.6117	0.0000000E+000	0.0000000E+000	0.0000000E+000	66.6117	0.0000000E+000	0.0000000E+000	0.0000000E+000	-66.6117	0.0000000E+000	0.0000000E+000	0.0000000E+000	-23.3883	0.0000000E+000	0.0000000E+000	0.0000000E+000	23.3883	2.31215	66.6117	-5.93473e-06	-0.000337729	4.18596e-08	-0.000337771	3.88521	44684.1	5.53834	44689.6
100004	0.931488	0.378859	1.00559	-22.1328	6.06455	3.88467	-0.0815301	4.20075	0.59627	1	9	0.00531308	0.00528357	0	-0.000136615	5.31434e-05	4.91256e-05	86.1669	0.0092978	0.000621553	-0.009277	-21.6283	1.00271	0.932109	0.369582	0.921167	0.374661	0.994445	22.1328	596.27	1466.03	1582.65	-67.8672	0.0000000E+000	0.0000000E+000	0.0000000E+000	67.8672	0.0000000E+000	0.0000000E+000	0.0000000E+000	-67.8672	0.0000000E+000	0.0000000E+000	0.0000000E+000	-22.1328	0.0000000E+000	0.0000000E+000	0.0000000E+000	22.1328	2.45867	67.8672	-1.51784e-05	-0.000316718	-4.33278e-09	-0.000316713	3.88462	47647.1	0.651825	47646.5
63093.8	1.06835	0.38539	1.13574	-19.836	6.83252	3.88467	-0.0731763	6.54535	0.753659	1	9	0.00532817	0.00469136	0	-0.000173887	-0.00029055	2.97635e-05	94.4556	0.00634432	-0.000492867	-0.00632515	-19.5436	1.13315	1.06786	0.379065	0.828242	0.298773	0.880483	19.836	753.659	2089.25	2221.03	-70.164	0.0000000E+000	0.0000000E+000	0.0000000E+000	70.164	0.0000000E+000	0.0000000E+000	0.0000000E+000	-70.164	0.0000000E+000	0.0000000E+000	0.0000000E+000	-19.836	0.0000000E+000	0.0000000E+000	0.0000000E+000	19.836	2.77214	70.164	-2.15212e-05	-0.000284266	2.12614e-08	-0.000284287	3.88496	53086.4	3.97054	53090.4
39814.1	1.18379	0.381193	1.24365	-17.8492	7.59855	3.88466	-0.0658668	10.4867	0.985221	1	9	0.00533105	0.00428662	0	-0.000186929	-0.000424208	1.58812e-05	19.2696	0.00370483	0.00349727	-0.00122265	-17.7464	1.2466	1.18728	0.37997	0.765383	0.246462	0.804086	17.8492	985.221	3059.58	3214.3	-72.1508	0.0000000E+000	0.0000000E+000	0.0000000E+000	72.1508	0.0000000E+000	0.0000000E+000	0.0000000E+000	-72.1508	0.0000000E+000	0.0000000E+000	0.0000000E+000	-17.8492	0.0000000E+000	0.0000000E+000	0.0000000E+000	17.8492	3.10548	72.1508	-1.35416e-05	-0.00025587	2.79412e-08	-0.000255898	3.88508	58977.5	6.44039	58983.9
25116.9	1.29241	0.382079	1.3477	-16.4694	8.36457	3.88467	-0.0640394	16.5844	1.33296	1	9	0.00538601	0.00399644	0	-0.000194071	-4.13882e-06	6.01436e-06	65.5729	0.00150493	0.00062234	-0.00137022	-16.4061	1.34791	1.29303	0.380709	0.71156	0.210361	0.742003	16.4694	1332.96	4508.85	4701.75	-73.5306	0.0000000E+000	0.0000000E+000	0.0000000E+000	73.5306	0.0000000E+000	0.0000000E+000	0.0000000E+000	-73.5306	0.0000000E+000	0.0000000E+000	0.0000000E+000	-16.4694	0.0000000E+000	0.0000000E+000	0.0000000E+000	16.4694	3.38257	73.5306	-4.53445e-06	-0.000248772	2.65047e-10	-0.000248773	3.88468	60660.6	0.0646292	60660.7
15847.7	1.39134	0.39399	1.44605	-15.8107	9.00656	3.88467	-0.0654939	25.49	1.89224	1	9	0.00478124	0.00330643	0	-0.000204385	-9.96091e-05	6.0384e-06	81.9092	0.00182626	0.000257033	-0.00180808	-15.739	1.4458	1.39159	0.392182	0.665378	0.188418	0.691541	15.8107	1892.24	6682.26	6945.01	-74.1893	0.0000000E+000	0.0000000E+000	0.0000000E+000	74.1893	0.0000000E+000	0.0000000E+000	0.0000000E+000	-74.1893	0.0000000E+000	0.0000000E+000	0.0000000E+000	-15.8107	0.0000000E+000	0.0000000E+000	0.0000000E+000	15.8107	3.5314	74.1893	-7.40529e-06	-0.000254422	6.52379e-09	-0.000254429	3.88477	59313.5	1.52089	59315
10002.2	1.49136	0.417782	1.54877	-15.6495	9.64856	3.88467	-0.0584454	38.0867	2.77141	1	9	0.00472687	0.00305202	0	-0.00021648	-2.32329e-05	3.80279e-05	54.7656	0.0124599	0.00718842	-0.0101772	-15.2164	1.55299	1.49854	0.407605	0.621739	0.174171	0.645674	15.6495	2771.41	9893.09	10273.9	-74.3505	0.0000000E+000	0.0000000E+000	0.0000000E+000	74.3505	0.0000000E+000	0.0000000E+000	0.0000000E+000	-74.3505	0.0000000E+000	0.0000000E+000	0.0000000E+000	-15.6495	0.0000000E+000	0.0000000E+000	0.0000000E+000	15.6495	3.5697	74.3505	-1.58389e-06	-0.000227041	1.35786e-09	-0.000227043	3.8847	66466.7	0.397514	66467.1
6309.38	1.60245	0.458537	1.66676	-15.9684	10.2905	3.88467	-0.0642632	55.0122	4.16353	1	9	0.00491832	0.00295083	0	-0.000228016	-0.000175985	1.29303e-05	-41.7803	0.00438192	0.00326762	0.00291957	-16.0338	1.67071	1.60571	0.461457	0.576816	0.165055	0.599967	15.9684	4163.53	14550.3	15134.2	-74.0316	0.0000000E+000	0.0000000E+000	0.0000000E+000	74.0316	0.0000000E+000	0.0000000E+000	0.0000000E+000	-74.0316	0.0000000E+000	0.0000000E+000	0.0000000E+000	-15.9684	0.0000000E+000	0.0000000E+000	0.0000000E+000	15.9684	3.49469	74.0316	-8.41158e-06	-0.000249641	1.13094e-08	-0.000249653	3.88484	60449.3	2.73851	60452.1
3983.6	1.72522	0.509169	1.79879	-16.443	10.8531	3.8845	-0.154961	78.4661	6.28703	1	9	0.00477787	0.00265616	0	-0.000244981	-0.00029055	1.01095e-05	3.58646	0.00380606	0.00379861	-0.000238087	-16.4016	1.80237	1.72902	0.508931	0.533193	0.157362	0.555929	16.443	6287.03	21302.4	22210.8	-73.557	0.0000000E+000	0.0000000E+000	0.0000000E+000	73.557	0.0000000E+000	0.0000000E+000	0.0000000E+000	-73.557	0.0000000E+000	0.0000000E+000	0.0000000E+000	-16.443	0.0000000E+000	0.0000000E+000	0.0000000E+000	16.443	3.38831	73.557	-1.02987e-05	-0.000601947	4.50239e-08	-0.000601992	3.88479	25067.6	1.87498	25069.4
2510.8	1.86829	0.593001	1.96015	-17.6096	11.6779	3.88455	-0.0622867	106.894	9.7833	1	9	0.00468633	0.0023908	0	-0.000271002	0.00012952	5.18945e-06	-37.9519	0.00217059	0.00171157	0.00133491	-17.6316	1.96218	1.87001	0.594336	0.48626	0.15434	0.510166	17.6096	9783.3	30823.1	32338.4	-72.3905	0.0000000E+000	0.0000000E+000	0.0000000E+000	72.3905	0.0000000E+000	0.0000000E+000	0.0000000E+000	-72.3905	0.0000000E+000	0.0000000E+000	0.0000000E+000	-17.6096	0.0000000E+000	0.0000000E+000	0.0000000E+000	17.6096	3.15058	72.3905	-7.20893e-06	-0.000241956	-8.06735e-09	-0.000241948	3.88442	62365.7	2.07941	62363.6
1585.51	2.04227	0.689465	2.15551	-18.6546	12.5798	3.88454	-0.0688503	145.593	14.8958	1	9	0.00464768	0.00215619	0	-0.000287765	-0.000118703	3.71444e-06	39.0433	0.00172269	0.00133796	-0.00108514	-18.6159	2.15643	2.04361	0.68838	0.439555	0.148393	0.463928	18.6546	14895.8	44123	46569.5	-71.3454	0.0000000E+000	0.0000000E+000	0.0000000E+000	71.3454	0.0000000E+000	0.0000000E+000	0.0000000E+000	-71.3454	0.0000000E+000	0.0000000E+000	0.0000000E+000	-18.6546	0.0000000E+000	0.0000000E+000	0.0000000E+000	18.6546	2.96211	71.3454	-7.21184e-06	-0.000267452	8.17276e-09	-0.00026746	3.88466	56420.1	1.72408	56421.8
1000.32	2.2478	0.817415	2.39181	-19.9839	13.4819	3.88455	-0.0643378	194.643	22.7337	1	9	0.00462521	0.00193377	0	-0.000303476	-9.96091e-05	9.17535e-06	140.021	0.00474481	-0.00363587	-0.00304855	-19.945	2.38735	2.24416	0.814367	0.392919	0.142886	0.418093	19.9839	22733.7	62515.1	66520.3	-70.0161	0.0000000E+000	0.0000000E+000	0.0000000E+000	70.0161	0.0000000E+000	0.0000000E+000	0.0000000E+000	-70.0161	0.0000000E+000	0.0000000E+000	0.0000000E+000	-19.9839	0.0000000E+000	0.0000000E+000	0.0000000E+000	19.9839	2.74988	70.0161	-9.36965e-06	-0.000249924	6.40864e-09	-0.00024993	3.88465	60377.4	1.54822	60379
631.01	2.5455	0.927211	2.70911	-20.0144	14.3835	3.88454	-0.067023	272.023	31.8647	1	9	0.00462276	0.00170638	0	-0.000321454	7.22374e-05	7.99037e-06	-73.9592	0.00468265	0.00129392	0.00450033	-20.0944	2.71187	2.54679	0.931711	0.346832	0.126336	0.369125	20.0144	31864.7	87479	93101.7	-69.9856	0.0000000E+000	0.0000000E+000	0.0000000E+000	69.9856	0.0000000E+000	0.0000000E+000	0.0000000E+000	-69.9856	0.0000000E+000	0.0000000E+000	0.0000000E+000	-20.0144	0.0000000E+000	0.0000000E+000	0.0000000E+000	20.0144	2.74533	69.9856	-8.45019e-06	-0.000260354	-4.84157e-09	-0.000260349	3.88447	57958.4	1.0778	57957.3
398.089	2.87333	0.988214	3.03852	-18.9794	15.5309	3.88457	-0.118072	404.566	42.7924	1	10	0.00463409	0.00152511	0	-0.00034742	-0.000118703	1.09665e-05	155.001	0.00719058	-0.00651695	-0.00303873	-18.9652	3.03137	2.86681	0.985175	0.311216	0.107035	0.329108	18.9794	42792.4	124423	131576	-71.0206	0.0000000E+000	0.0000000E+000	0.0000000E+000	71.0206	0.0000000E+000	0.0000000E+000	0.0000000E+000	-71.0206	0.0000000E+000	0.0000000E+000	0.0000000E+000	-18.9794	0.0000000E+000	0.0000000E+000	0.0000000E+000	18.9794	2.9076	71.0206	-1.7475e-05	-0.000458659	1.40155e-08	-0.000458673	3.88469	32900	1.00535	32901
251.044	3.25969	0.972202	3.40159	-16.6072	16.429	3.88458	-0.11623	652.098	53.2677	1	10	0.00462753	0.0013604	0	-0.000377484	-0.000271456	7.08387e-06	-95.4909	0.00520718	-0.000498266	0.00518329	-16.6932	3.40259	3.2592	0.977386	0.281718	0.0840222	0.293981	16.6072	53267.7	178601	186375	-73.3928	0.0000000E+000	0.0000000E+000	0.0000000E+000	73.3928	0.0000000E+000	0.0000000E+000	0.0000000E+000	-73.3928	0.0000000E+000	0.0000000E+000	0.0000000E+000	-16.6072	0.0000000E+000	0.0000000E+000	0.0000000E+000	16.6072	3.3529	73.3928	-1.50842e-05	-0.000451504	3.15513e-08	-0.000451536	3.88485	33421.5	2.33551	33423.8
158.428	3.59166	0.855925	3.69224	-13.4041	17.3339	3.88458	-0.11252	1173.68	63.073	1	10	0.00460897	0.00124829	0	-0.000408491	-2.32329e-05	6.78829e-06	-8.67748	0.00543808	0.00537584	0.000820456	-13.3972	3.69766	3.59703	0.856745	0.263461	0.0627851	0.270839	13.4041	63073.1	264669	272081	-76.5959	0.0000000E+000	0.0000000E+000	0.0000000E+000	76.5959	0.0000000E+000	0.0000000E+000	0.0000000E+000	-76.5959	0.0000000E+000	0.0000000E+000	0.0000000E+000	-13.4041	0.0000000E+000	0.0000000E+000	0.0000000E+000	13.4041	4.19623	76.5959	-1.48492e-05	-0.000437091	2.61416e-09	-0.000437094	3.8846	34523.6	0.206478	34523.8
100.032	3.84739	0.690577	3.90888	-10.1758	18.2328	3.88458	-0.113433	2303.93	71.91	1	10	0.00460141	0.00117717	0	-0.000435518	-0.000195079	7.0931e-06	19.5368	0.00602555	0.00567864	-0.00201502	-10.1321	3.91411	3.85307	0.688562	0.251804	0.0451969	0.255828	10.1758	71910	400630	407033	-79.8242	0.0000000E+000	0.0000000E+000	0.0000000E+000	79.8242	0.0000000E+000	0.0000000E+000	0.0000000E+000	-79.8242	0.0000000E+000	0.0000000E+000	0.0000000E+000	-10.1758	0.0000000E+000	0.0000000E+000	0.0000000E+000	10.1758	5.57127	79.8242	-1.36146e-05	-0.00044064	2.21285e-08	-0.000440662	3.88477	34245.5	1.71977	34247.2
63.0823	4.02463	0.532735	4.05974	-7.54032	19.1489	3.88459	-0.108794	4735.89	81.5506	1	10	0.0046059	0.00113453	0	-0.000464052	-2.32329e-05	1.09084e-05	-91.2333	0.00961494	-0.000206941	0.00961271	-7.67516	4.06081	4.02443	0.542348	0.244191	0.0323232	0.246321	7.54032	81550.6	616088	621462	-82.4597	0.0000000E+000	0.0000000E+000	0.0000000E+000	82.4597	0.0000000E+000	0.0000000E+000	0.0000000E+000	-82.4597	0.0000000E+000	0.0000000E+000	0.0000000E+000	-7.54032	0.0000000E+000	0.0000000E+000	0.0000000E+000	7.54032	7.55467	82.4597	-1.29632e-05	-0.000422622	2.52761e-09	-0.000422624	3.88461	35705.7	0.213548	35706
39.8089	4.12728	0.385112	4.14521	-5.33077	20.0499	3.88458	-0.109645	10381.3	89.6054	1	10	0.00460334	0.00111052	0	-0.000490361	-4.23269e-05	6.03519e-06	-30.3301	0.00543456	0.00469073	0.00274435	-5.36248	4.15013	4.13197	0.387856	0.240199	0.0224127	0.241242	5.33077	89605.4	960309	964481	-84.6692	0.0000000E+000	0.0000000E+000	0.0000000E+000	84.6692	0.0000000E+000	0.0000000E+000	0.0000000E+000	-84.6692	0.0000000E+000	0.0000000E+000	0.0000000E+000	-5.33077	0.0000000E+000	0.0000000E+000	0.0000000E+000	5.33077	10.7171	84.6692	-1.34569e-05	-0.000425923	4.64092e-09	-0.000425928	3.88462	35428.8	0.386037	35429.2
25.1044	4.1882	0.272191	4.19704	-3.71842	20.9291	3.88458	-0.109566	23291.4	97.9621	1	10	0.00460107	0.00109627	0	-0.000518072	1.49552e-05	1.86689e-05	89.3301	0.0170295	0.000199117	-0.0170284	-3.48622	4.19617	4.1884	0.255163	0.237762	0.0154521	0.238263	3.71842	97962.1	1.50734e+06	1.51052e+06	-86.2816	0.0000000E+000	0.0000000E+000	0.0000000E+000	86.2816	0.0000000E+000	0.0000000E+000	0.0000000E+000	-86.2816	0.0000000E+000	0.0000000E+000	0.0000000E+000	-3.71842	0.0000000E+000	0.0000000E+000	0.0000000E+000	3.71842	15.387	86.2816	-1.23909e-05	-0.00042562	-1.63859e-09	-0.000425618	3.88457	35454.1	0.136495	35454
15.8576	4.21588	0.21703	4.22146	-2.94693	21.807	3.88457	-0.113265	46244.9	122.23	1	10	0.00458511	0.00108614	0	-0.000546154	-0.000175985	1.58078e-05	13.4373	0.0145541	0.0141557	-0.0033821	-2.8914	4.23543	4.23004	0.213648	0.236571	0.0121785	0.236885	2.94693	122230	2.37435e+06	2.3775e+06	-87.0531	0.0000000E+000	0.0000000E+000	0.0000000E+000	87.0531	0.0000000E+000	0.0000000E+000	0.0000000E+000	-87.0531	0.0000000E+000	0.0000000E+000	0.0000000E+000	-2.94693	0.0000000E+000	0.0000000E+000	0.0000000E+000	2.94693	19.4254	87.0531	-1.48869e-05	-0.000439987	1.99331e-08	-0.000440007	3.88475	34296.2	1.55374	34297.7
10.0032	4.25507	0.183161	4.25901	-2.46479	22.7889	3.88458	-0.10762	86865.7	160.656	1	10	0.00459887	0.0010798	0	-0.000572636	-6.1421e-05	1.32999e-05	45.9305	0.012317	0.00856685	-0.00884971	-2.34113	4.2672	4.26364	0.174311	0.234579	0.0100975	0.234796	2.46479	160655	3.73224e+06	3.7357e+06	-87.5352	0.0000000E+000	0.0000000E+000	0.0000000E+000	87.5352	0.0000000E+000	0.0000000E+000	0.0000000E+000	-87.5352	0.0000000E+000	0.0000000E+000	0.0000000E+000	-2.46479	0.0000000E+000	0.0000000E+000	0.0000000E+000	2.46479	23.2313	87.5352	-5.14982e-06	-0.000418058	6.61012e-09	-0.000418065	3.88464	36095.4	0.570722	36095.9
6.31058	4.29051	0.164806	4.29368	-2.19974	23.7133	3.88456	-0.117487	153031	225.457	1	10	0.00460815	0.00107324	0	-0.000599057	-0.000195079	1.09914e-05	-2.67734	0.0102413	0.0102301	0.000478385	-2.20088	4.30392	4.30074	0.165284	0.232729	0.00893951	0.232901	2.19974	225457	5.8695e+06	5.87383e+06	-87.8003	0.0000000E+000	0.0000000E+000	0.0000000E+000	87.8003	0.0000000E+000	0.0000000E+000	0.0000000E+000	-87.8003	0.0000000E+000	0.0000000E+000	0.0000000E+000	-2.19974	0.0000000E+000	0.0000000E+000	0.0000000E+000	2.19974	26.0338	87.8003	-1.4109e-06	-0.000456383	2.29192e-08	-0.000456406	3.88475	33063.9	1.66044	33065.5
3.97785	4.31672	0.173591	4.32021	-2.30282	24.7203	3.88461	-0.0988141	230486	372.124	1	10	0.00460396	0.00106568	0	-0.00063951	0.00022499	4.51972e-06	-45.2234	0.00424116	0.00298724	0.00301062	-2.3411	4.32332	4.31971	0.176601	0.231283	0.00930072	0.23147	2.30282	372125	9.25371e+06	9.26119e+06	-87.6972	0.0000000E+000	0.0000000E+000	0.0000000E+000	87.6972	0.0000000E+000	0.0000000E+000	0.0000000E+000	-87.6972	0.0000000E+000	0.0000000E+000	0.0000000E+000	-2.30282	0.0000000E+000	0.0000000E+000	0.0000000E+000	2.30282	24.8673	87.6972	-2.79945e-05	-0.000383854	-2.22322e-08	-0.000383832	3.88438	39312.3	2.2769	39310
2.51367	4.35038	0.19872	4.35492	-2.61538	26.28	3.8846	-0.0949118	318618	663.425	1	10	0.00460584	0.00105762	0	-0.000670913	-0.000214174	2.56524e-06	6.40597	0.00242549	0.00241035	-0.000270618	-2.61038	4.35732	4.35279	0.198449	0.229386	0.0104781	0.229625	2.61538	663425	1.45237e+07	1.45389e+07	-87.3846	0.0000000E+000	0.0000000E+000	0.0000000E+000	87.3846	0.0000000E+000	0.0000000E+000	0.0000000E+000	-87.3846	0.0000000E+000	0.0000000E+000	0.0000000E+000	-2.61538	0.0000000E+000	0.0000000E+000	0.0000000E+000	2.61538	21.892	87.3846	-8.54612e-06	-0.000368695	2.03276e-08	-0.000368715	3.88482	40928.5	2.25655	40930.8
1.58469	4.39719	0.232103	4.40331	-3.02152	29.3916	3.88461	-0.0893162	432710	1202.26	1	11	0.00460822	0.00104654	0	-0.000730701	-0.000405114	2.66542e-06	45.7763	0.0025469	0.00177636	-0.00182516	-2.99659	4.40499	4.39896	0.230277	0.226786	0.0119708	0.227102	3.02152	1.20226e+06	2.27769e+07	2.28086e+07	-86.9785	0.0000000E+000	0.0000000E+000	0.0000000E+000	86.9785	0.0000000E+000	0.0000000E+000	0.0000000E+000	-86.9785	0.0000000E+000	0.0000000E+000	0.0000000E+000	-3.02152	0.0000000E+000	0.0000000E+000	0.0000000E+000	3.02152	18.945	86.9785	-4.99459e-05	-0.000346958	3.61833e-08	-0.000346995	3.88501	43492.7	4.53573	43497.3
1.00469	4.43213	0.261856	4.43986	-3.38117	240.21	3.88461	-0.0498922	604957	2104.31	1	11	0.00503864	0.00113486	0	-0.00821148	-8.05151e-05	7.19639e-07	1.05529	0.000634119	0.000634012	-1.16787e-05	-3.38054	4.44049	4.43277	0.261844	0.22484	0.0132838	0.225232	3.38117	2.10431e+06	3.56172e+07	3.56794e+07	-86.6188	0.0000000E+000	0.0000000E+000	0.0000000E+000	86.6188	0.0000000E+000	0.0000000E+000	0.0000000E+000	-86.6188	0.0000000E+000	0.0000000E+000	0.0000000E+000	-3.38117	0.0000000E+000	0.0000000E+000	0.0000000E+000	3.38117	16.9259	86.6188	-0.00741283	-0.000193812	4.01707e-09	-0.000193816	3.88469	77860	1.61378	77861.6
0.632957	4.49763	0.333985	4.51001	-4.24687	240.211	3.88461	-0.0498922	752869	4128.73	1	11	0.00505153	0.00112007	0	-0.00821148	-8.05151e-05	7.6911e-07	-13.5404	0.000686662	0.000667577	0.000160769	-4.24828	4.51069	4.4983	0.334145	0.22112	0.0164199	0.221729	4.24687	4.12873e+06	5.55999e+07	5.5753e+07	-85.7531	0.0000000E+000	0.0000000E+000	0.0000000E+000	85.7531	0.0000000E+000	0.0000000E+000	0.0000000E+000	-85.7531	0.0000000E+000	0.0000000E+000	0.0000000E+000	-4.24687	0.0000000E+000	0.0000000E+000	0.0000000E+000	4.24687	13.4666	85.7531	0.000000000000000E+000	-0.000193812	4.01707e-09	-0.000193816	3.88469	77860	1.61378	77861.6
0.401878	4.57013	0.420384	4.58942	-5.25558	240.212	3.88461	-0.0498922	942062	7904.19	1	11	0.00506531	0.00110369	0	-0.00821148	-8.05151e-05	6.67252e-07	5.80006	0.000604563	0.000601468	-6.10955e-05	-5.25413	4.59001	4.57073	0.420323	0.216976	0.0199587	0.217892	5.25558	7.9042e+06	8.59289e+07	8.62916e+07	-84.7444	0.0000000E+000	0.0000000E+000	0.0000000E+000	84.7444	0.0000000E+000	0.0000000E+000	0.0000000E+000	-84.7444	0.0000000E+000	0.0000000E+000	0.0000000E+000	-5.25558	0.0000000E+000	0.0000000E+000	0.0000000E+000	5.25558	10.8713	84.7444	0.000000000000000E+000	-0.000193812	4.01707e-09	-0.000193816	3.88469	77860	1.61378	77861.6
0.251173	4.68342	0.555906	4.71629	-6.76914	240.213	3.88461	-0.0498922	1.13984e+06	15836	1	11	0.00506802	0.00107458	0	-0.00821148	-8.05151e-05	5.64391e-07	-0.216204	0.000525222	0.000525218	1.98191e-06	-6.76842	4.71682	4.68394	0.555908	0.210553	0.0249919	0.212031	6.76914	1.5836e+07	1.33416e+08	1.34352e+08	-83.2309	0.0000000E+000	0.0000000E+000	0.0000000E+000	83.2309	0.0000000E+000	0.0000000E+000	0.0000000E+000	-83.2309	0.0000000E+000	0.0000000E+000	0.0000000E+000	-6.76914	0.0000000E+000	0.0000000E+000	0.0000000E+000	6.76914	8.42484	83.2309	0.000000000000000E+000	-0.000193812	4.01707e-09	-0.000193816	3.88469	77860	1.61378	77861.6
0.160751	4.82853	0.645359	4.87147	-7.61278	240.214	3.88461	-0.0498922	1.53414e+06	26924.6	1	11	0.00505916	0.00103853	0	-0.00821148	-8.05151e-05	1.12323e-06	-9.02841	0.00108156	0.00106816	0.000169723	-7.61309	4.87255	4.8296	0.645529	0.203468	0.0271946	0.205277	7.61278	2.69246e+07	2.01448e+08	2.03239e+08	-82.3872	0.0000000E+000	0.0000000E+000	0.0000000E+000	82.3872	0.0000000E+000	0.0000000E+000	0.0000000E+000	-82.3872	0.0000000E+000	0.0000000E+000	0.0000000E+000	-7.61278	0.0000000E+000	0.0000000E+000	0.0000000E+000	7.61278	7.48193	82.3872	0.000000000000000E+000	-0.000193812	4.01707e-09	-0.000193816	3.88469	77860	1.61378	77861.6
0.100469	4.97727	0.876077	5.05378	-9.9827	240.215	3.88461	-0.0498922	1.80819e+06	54337	1	11	0.00506356	0.00100194	0	-0.00821148	-8.05151e-05	7.54661e-07	-18.9679	0.000753204	0.000712305	0.00024482	-9.98403	5.05453	4.97798	0.876322	0.194876	0.0343012	0.197872	9.9827	5.4337e+07	3.08706e+08	3.13451e+08	-80.0173	0.0000000E+000	0.0000000E+000	0.0000000E+000	80.0173	0.0000000E+000	0.0000000E+000	0.0000000E+000	-80.0173	0.0000000E+000	0.0000000E+000	0.0000000E+000	-9.9827	0.0000000E+000	0.0000000E+000	0.0000000E+000	9.9827	5.68131	80.0173	0.000000000000000E+000	-0.000193812	4.01707e-09	-0.000193816	3.88469	77860	1.61378	77861.6
0.0602816	5.25844	1.0736	5.36692	-11.5393	240.216	3.88461	-0.0498922	2.4592e+06	98407.3	1	11	0.00505844	0.000942523	0	-0.00821148	-8.05151e-05	7.07903e-07	4.36603	0.000751073	0.000748893	-5.71775e-05	-11.5371	5.36764	5.25919	1.07354	0.182561	0.0372728	0.186327	11.5393	9.84073e+07	4.81995e+08	4.91938e+08	-78.4607	0.0000000E+000	0.0000000E+000	0.0000000E+000	78.4607	0.0000000E+000	0.0000000E+000	0.0000000E+000	-78.4607	0.0000000E+000	0.0000000E+000	0.0000000E+000	-11.5393	0.0000000E+000	0.0000000E+000	0.0000000E+000	11.5393	4.89796	78.4607	0.000000000000000E+000	-0.000193812	4.01707e-09	-0.000193816	3.88469	77860	1.61378	77861.6
0.0401878	5.58032	1.2792	5.72506	-12.9111	240.217	3.88461	-0.0498922	3.09591e+06	154562	1	11	0.00505985	0.000883807	0	-0.00821148	-8.05151e-05	6.64333e-07	-6.99514	0.000751673	0.000746078	9.15426e-05	-12.9103	5.72581	5.58107	1.27929	0.170255	0.0390281	0.174671	12.9111	1.54562e+08	6.74256e+08	6.91745e+08	-77.0889	0.0000000E+000	0.0000000E+000	0.0000000E+000	77.0889	0.0000000E+000	0.0000000E+000	0.0000000E+000	-77.0889	0.0000000E+000	0.0000000E+000	0.0000000E+000	-12.9111	0.0000000E+000	0.0000000E+000	0.0000000E+000	12.9111	4.36236	77.0889	0.000000000000000E+000	-0.000193812	4.01707e-09	-0.000193816	3.88469	77860	1.61378	77861.6
0.0200939	6.29039	1.85621	6.55855	-16.4406	240.218	3.88461	-0.0498922	4.26706e+06	341797	1	11	0.00506099	0.000771663	0	-0.00821148	-8.05151e-05	1.0125e-06	-28.1637	0.0013121	0.00115675	0.000619301	-16.443	6.55983	6.29155	1.85683	0.146239	0.0431531	0.152473	16.4406	3.41797e+08	1.15829e+09	1.20767e+09	-73.5594	0.0000000E+000	0.0000000E+000	0.0000000E+000	73.5594	0.0000000E+000	0.0000000E+000	0.0000000E+000	-73.5594	0.0000000E+000	0.0000000E+000	0.0000000E+000	-16.4406	0.0000000E+000	0.0000000E+000	0.0000000E+000	16.4406	3.38883	73.5594	0.000000000000000E+000	-0.000193812	4.01707e-09	-0.000193816	3.88469	77860	1.61378	77861.6
0.00796479	7.65283	2.20022	7.96284	-16.0401	20336.4	3.88461	0.000144295	9.08198e+06	693387	1	11	0.00505373	0.000634664	0	-0.074069	7.22374e-05	4.49838e-07	8.48751	0.000708781	0.000701018	-0.000104612	-16.038	7.96348	7.65353	2.20011	0.120694	0.0347	0.125583	16.0401	6.93387e+08	2.41175e+09	2.50945e+09	-73.9599	0.0000000E+000	0.0000000E+000	0.0000000E+000	73.9599	0.0000000E+000	0.0000000E+000	0.0000000E+000	-73.9599	0.0000000E+000	0.0000000E+000	0.0000000E+000	-16.0401	0.0000000E+000	0.0000000E+000	0.0000000E+000	16.0401	3.47822	73.9599	-0.0658575	5.60531e-07	1.04235e-11	5.60521e-07	3.88454	2.69213e+07	500.623	2.69208e+07
0.00497799	8.24891	2.36483	8.5812	-15.9967	20336.4	3.88461	0.000144295	1.35197e+07	1.02676e+06	1	11	0.00506198	0.000589892	0	-0.074069	7.22374e-05	7.9959e-07	-121.149	0.00135549	-0.000701154	0.00116005	-16.0055	8.58084	8.24821	2.36599	0.112021	0.0321147	0.116534	15.9967	1.02676e+09	3.58152e+09	3.72579e+09	-74.0033	0.0000000E+000	0.0000000E+000	0.0000000E+000	74.0033	0.0000000E+000	0.0000000E+000	0.0000000E+000	-74.0033	0.0000000E+000	0.0000000E+000	0.0000000E+000	-15.9967	0.0000000E+000	0.0000000E+000	0.0000000E+000	15.9967	3.48817	74.0033	0.000000000000000E+000	5.60531e-07	1.04235e-11	5.60521e-07	3.88454	2.69213e+07	500.623	2.69208e+07
0.00318591	8.68678	3.09963	9.22322	-19.6375	20336.4	3.88461	0.000144295	1.61167e+07	1.82025e+06	1	11	0.00506364	0.00054901	0	-0.074069	7.22374e-05	8.47462e-07	-161.679	0.00154362	-0.00146537	0.000485216	-19.6434	9.222	8.68531	3.10011	0.102116	0.0364371	0.108422	19.6375	1.82025e+09	5.10128e+09	5.41631e+09	-70.3625	0.0000000E+000	0.0000000E+000	0.0000000E+000	70.3625	0.0000000E+000	0.0000000E+000	0.0000000E+000	-70.3625	0.0000000E+000	0.0000000E+000	0.0000000E+000	-19.6375	0.0000000E+000	0.0000000E+000	0.0000000E+000	19.6375	2.80253	70.3625	0.000000000000000E+000	5.60531e-07	1.04235e-11	5.60521e-07	3.88454	2.69213e+07	500.623	2.69208e+07
0.0019912	9.0297	3.81988	9.80443	-22.9301	20336.4	3.88461	0.000144295	2.09246e+07	3.17622e+06	1	11	0.00506538	0.000516642	0	-0.074069	7.22374e-05	4.9485e-07	-29.6241	0.00095782	0.000832621	0.000473458	-22.9307	9.80538	9.03053	3.82035	0.0939352	0.0397379	0.101995	22.9301	3.17622e+09	7.50817e+09	8.15236e+09	-67.0699	0.0000000E+000	0.0000000E+000	0.0000000E+000	67.0699	0.0000000E+000	0.0000000E+000	0.0000000E+000	-67.0699	0.0000000E+000	0.0000000E+000	0.0000000E+000	-22.9301	0.0000000E+000	0.0000000E+000	0.0000000E+000	22.9301	2.36387	67.0699	0.000000000000000E+000	5.60531e-07	1.04235e-11	5.60521e-07	3.88454	2.69213e+07	500.623	2.69208e+07
0.00129428	8.72996	5.12573	10.1235	-30.419	20336.4	3.88461	0.000144295	2.39904e+07	6.15017e+06	1	11	0.00506621	0.00050044	0	-0.074069	7.22374e-05	5.82934e-07	123.75	0.00116484	-0.000647153	-0.00096853	-30.4161	10.1225	8.72931	5.12476	0.0851826	0.0500143	0.0987801	30.419	6.15017e+09	1.04747e+10	1.21468e+10	-59.581	0.0000000E+000	0.0000000E+000	0.0000000E+000	59.581	0.0000000E+000	0.0000000E+000	0.0000000E+000	-59.581	0.0000000E+000	0.0000000E+000	0.0000000E+000	-30.419	0.0000000E+000	0.0000000E+000	0.0000000E+000	30.419	1.70316	59.581	0.000000000000000E+000	5.60531e-07	1.04235e-11	5.60521e-07	3.88454	2.69213e+07	500.623	2.69208e+07
0.000796479	9.72348	7.7113	12.4101	-38.4165	20336.4	3.88461	0.000144295	2.5913e+07	1.00052e+07	1	11	0.00506561	0.000408185	0	-0.074069	7.22374e-05	1.0645e-06	-136.551	0.00260788	-0.00189328	0.00179347	-38.4284	12.4097	9.72158	7.71309	0.0631353	0.0500701	0.0805797	38.4165	1.00052e+10	1.26159e+10	1.61017e+10	-51.5835	0.0000000E+000	0.0000000E+000	0.0000000E+000	51.5835	0.0000000E+000	0.0000000E+000	0.0000000E+000	-51.5835	0.0000000E+000	0.0000000E+000	0.0000000E+000	-38.4165	0.0000000E+000	0.0000000E+000	0.0000000E+000	38.4165	1.26094	51.5835	0.000000000000000E+000	5.60531e-07	1.04235e-11	5.60521e-07	3.88454	2.69213e+07	500.623	2.69208e+07
0.000497799	9.76215	10.8365	14.5853	-47.9857	20336.4	3.88461	0.000144295	2.95037e+07	1.62865e+07	1	11	0.00506766	0.000347451	0	-0.074069	7.22374e-05	8.46871e-07	-45.3894	0.00243738	0.00171174	0.00173517	-47.9853	14.5877	9.76386	10.8383	0.0458899	0.0509403	0.0685624	47.9857	1.62865e+10	1.46718e+10	2.19206e+10	-42.0143	0.0000000E+000	0.0000000E+000	0.0000000E+000	42.0143	0.0000000E+000	0.0000000E+000	0.0000000E+000	-42.0143	0.0000000E+000	0.0000000E+000	0.0000000E+000	-47.9857	0.0000000E+000	0.0000000E+000	0.0000000E+000	47.9857	0.900856	42.0143	0.000000000000000E+000	5.60531e-07	1.04235e-11	5.60521e-07	3.88454	2.69213e+07	500.623	2.69208e+07
0.000298679	8.9697	16.954	19.1805	-62.1184	20336.4	3.88461	0.000144295	3.14299e+07	2.45564e+07	1	11	0.00506981	0.00026432	0	-0.074069	7.22374e-05	6.23137e-07	66.521	0.0023575	0.00093926	-0.00216232	-62.1129	19.1791	8.97063	16.9518	0.0243813	0.046084	0.0521362	62.1184	2.45564e+10	1.29918e+10	2.77814e+10	-27.8816	0.0000000E+000	0.0000000E+000	0.0000000E+000	27.8816	0.0000000E+000	0.0000000E+000	0.0000000E+000	-27.8816	0.0000000E+000	0.0000000E+000	0.0000000E+000	-62.1184	0.0000000E+000	0.0000000E+000	0.0000000E+000	62.1184	0.529061	27.8816	0.000000000000000E+000	5.60531e-07	1.04235e-11	5.60521e-07	3.88454	2.69213e+07	500.623	2.69208e+07
9.95598e-05	3.40566	79.0836	79.1569	-87.5341	20336.4	3.88461	0.000144295	2.02139e+07	2.01765e+07	1	11	0.00506075	6.39332e-05	0	-0.074069	7.22374e-05	4.2024e-06	-109.235	0.0657311	-0.0216545	0.0620618	-87.5517	79.218	3.38401	79.1457	0.000543531	0.0126214	0.0126331	87.5341	2.01765e+10	8.68881e+08	2.01952e+10	-2.46587	0.0000000E+000	0.0000000E+000	0.0000000E+000	2.46587	0.0000000E+000	0.0000000E+000	0.0000000E+000	-2.46587	0.0000000E+000	0.0000000E+000	0.0000000E+000	-87.5341	0.0000000E+000	0.0000000E+000	0.0000000E+000	87.5341	0.0430641	2.46587	0.000000000000000E+000	5.60531e-07	1.04235e-11	5.60521e-07	3.88454	2.69213e+07	500.623	2.69208e+07