File: txt/18304_R274_UC74_SOC50_C02.mpt
EC-Lab ASCII FILE
Nb header lines : 65

Potentio Electrochemical Impedance Spectroscopy

Run on channel : 2 (SN 66139)
User :
CE vs. WE compliance from -10 V to 10 V
Electrode connection : standard
Potential control : Ewe
Ewe ctrl range : min = -10.00 V, max = 10.00 V
Safety Limits :
	Do not start on E overload
Acquisition started on : 10/09/2025 15:26:01.172
Technique started on : 10/09/2025 15:26:03.406
Loaded Setting File :  C:\Users\Celltest\OneDrive - store-dot.com\Documents\EC-Lab\Data\txt_done\UC80_17231_EIS_50SOC.mps
Saved on :
	File : 18304_R274_UC74_SOC50_C02.mpr
	Directory : C:\Users\Celltest\OneDrive - store-dot.com\Documents\EC-Lab\Data\Michael\
	Host : 169.254.61.224
Device : VMP-3e (SN .003165)
Address : USB
EC-LAB for windows v11.62 (software)
Internet server v27.00 (firmware)
Command interpretor v12.03 (firmware)
Electrode material :
Initial state :
Electrolyte :
Comments :
Electrode surface area : 0.001 cm²
Characteristic mass : 0.001 g
Equivalent Weight : 0.000 g/eq.
Density : 0.000 g/cm3
Volume (V) : 0.001 cm³
Record Ece
Cycle Definition : Charge/Discharge alternance
Mode                Multi sine
E (V)               0.0000
vs.                 Eoc
tE (h:m:s)          0:00:0.0000
record              0
dI                  0.000
unit dI             mA
dt (s)              0.000
fi                  1.000
unit fi             MHz
ff                  0.100
unit ff             mHz
Nd                  10
Points              per decade
spacing             Logarithmic
Va (mV)             5.0
pw                  0.10
Na                  2
corr                0
E range min (V)     -10.000
E range max (V)     10.000
I Range             Auto
Bandwidth           5
nc cycles           0
goto Ns'            0
nr cycles           0
inc. cycle          0

freq/Hz	Re(Z)/Ohm	-Im(Z)/Ohm	|Z|/Ohm	Phase(Z)/deg	time/s	<Ewe>/V	<I>/mA	Cs/µF	Cp/µF	cycle number	I Range	|Ewe|/V	|I|/A	Ns	(Q-Qo)/mA.h	<Ece>/V	|Ece|/V	Phase(Zce)/deg	|Zce|/Ohm	Re(Zce)/Ohm	-Im(Zce)/Ohm	Phase(Zwe-ce)/deg	|Zwe-ce|/Ohm	Re(Zwe-ce)/Ohm	-Im(Zwe-ce)/Ohm	Re(Y)/Ohm-1	Im(Y)/Ohm-1	|Y|/Ohm-1	Phase(Y)/deg	Re(C)/nF	Im(C)/nF	|C|/nF	Phase(C)/deg	Re(M)	Im(M)	|M|	Phase(M)/deg	Re(Permittivity)	Im(Permittivity)	|Permittivity|	Phase(Permittivity)/deg	Re(Resistivity)/Ohm.cm	Im(Resistivity)/Ohm.cm	|Resistivity|/Ohm.cm	Phase(Resistivity)/deg	Re(Conductivity)/mS/cm	Im(Conductivity)/mS/cm	|Conductivity|/mS/cm	Phase(Conductivity)/deg	Tan(Delta)	Loss Angle(Delta)/deg	dq/mA.h	Pwe/W	Pce/W	Pwe-ce/W	<Ewe-Ece>/V	Rwe/Ohm	Rce/Ohm	Rwe-ce/Ohm		Ewe-Ece/V
1.00002e+06	1.88254	2.81484	3.38633	-56.2258	2.23356	3.88536	0.0135526	0.0565404	0.0390666	1	10	0.000183897	5.43055e-05	0	3.74214e-06	-0.000114203	0.000171485	-70.4043	3.15778	1.05906	2.97489	-63.0662	6.49414	2.9416	5.78973	0.164166	0.245468	0.295305	56.2258	39.0666	26.1274	46.9983	-33.7742	0.0000000E+000	0.0000000E+000	0.0000000E+000	33.7742	0.0000000E+000	0.0000000E+000	0.0000000E+000	-33.7742	0.0000000E+000	0.0000000E+000	0.0000000E+000	-56.2258	0.0000000E+000	0.0000000E+000	0.0000000E+000	56.2258	0.66879	33.7742	3.74214e-06	5.26566e-05	-1.54774e-09	5.26581e-05	3.88547	286688	8.42664	286696
630957	0.460903	-0.0122402	0.461065	1.52124	3.1746	3.88528	0.0287933	-20.6079	-0.0145239	1	9	8.80851e-05	0.000191047	0	6.30766e-06	-0.000190566	9.98727e-05	-86.488	0.522765	0.0320234	0.521784	-45.9496	0.708951	0.492926	0.509543	2.16812	-0.0575788	2.16889	-1.52124	-14.5239	546.896	547.089	-91.5212	0.0000000E+000	0.0000000E+000	0.0000000E+000	91.5212	0.0000000E+000	0.0000000E+000	0.0000000E+000	-91.5212	0.0000000E+000	0.0000000E+000	0.0000000E+000	1.52124	0.0000000E+000	0.0000000E+000	0.0000000E+000	-1.52124	37.6549	88.4788	7.57282e-07	0.00011187	-5.48703e-09	0.000111876	3.88547	134937	6.61841	134943
398103	0.407204	-1.03744	1.1145	68.5697	4.17452	3.88542	0.0594095	-0.385354	-0.333911	1	9	0.000194546	0.000174559	0	1.81537e-05	9.57967e-05	6.10601e-05	-0.369035	0.349796	0.349788	0.00225298	53.8236	1.28244	0.756992	-1.03519	0.327834	-0.83523	0.897265	-68.5697	-333.911	131.062	358.711	-158.57	0.0000000E+000	0.0000000E+000	0.0000000E+000	158.57	0.0000000E+000	0.0000000E+000	0.0000000E+000	-158.57	0.0000000E+000	0.0000000E+000	0.0000000E+000	68.5697	0.0000000E+000	0.0000000E+000	0.0000000E+000	-68.5697	0.392507	21.4303	5.44621e-06	0.000230831	5.69123e-09	0.000230825	3.88533	65400.7	1.61248	65399.1
251206	0.84634	0.117979	0.854524	-7.93581	4.94053	3.88537	0.040712	5.37015	0.102363	1	9	0.000948871	0.00111041	0	2.71059e-05	-0.000133293	4.78927e-05	71.3692	0.0431307	0.0137789	-0.0408705	-5.12277	0.863568	0.860119	0.0771082	1.15904	0.161568	1.17024	7.93581	102.363	734.322	741.422	-82.0642	0.0000000E+000	0.0000000E+000	0.0000000E+000	82.0642	0.0000000E+000	0.0000000E+000	0.0000000E+000	-82.0642	0.0000000E+000	0.0000000E+000	0.0000000E+000	-7.93581	0.0000000E+000	0.0000000E+000	0.0000000E+000	7.93581	7.17367	82.0642	4.52514e-06	0.000158181	-5.42665e-09	0.000158187	3.8855	95435.4	3.27406	95438.7
158486	0.890177	0.271975	0.930798	-16.9894	5.70656	3.88534	0.0368012	3.69233	0.315244	1	9	0.00247937	0.0026637	0	3.97532e-05	-0.000114203	3.25231e-05	39.849	0.0122098	0.00937387	-0.00782362	-16.3648	0.937532	0.899551	0.264151	1.02746	0.313919	1.07435	16.9894	315.244	1031.8	1078.88	-73.0106	0.0000000E+000	0.0000000E+000	0.0000000E+000	73.0106	0.0000000E+000	0.0000000E+000	0.0000000E+000	-73.0106	0.0000000E+000	0.0000000E+000	0.0000000E+000	-16.9894	0.0000000E+000	0.0000000E+000	0.0000000E+000	16.9894	3.27301	73.0106	8.69887e-06	0.000142985	-4.2028e-09	0.000142989	3.88545	105576	3.10323	105579
100004	-0.120267	-0.0422997	0.127489	160.623	6.2446	3.88534	0.0396691	-37.6242	-4.14184	1	9	2.94026e-05	0.000230628	0	4.3083e-05	9.57967e-05	1.91701e-05	156.511	0.0831215	-0.0762336	-0.0331303	159	0.210481	-0.196501	-0.07543	-7.39947	-2.60249	7.8438	-160.623	-4141.84	-11776.2	12483.3	109.377	0.0000000E+000	0.0000000E+000	0.0000000E+000	-109.377	0.0000000E+000	0.0000000E+000	0.0000000E+000	109.377	0.0000000E+000	0.0000000E+000	0.0000000E+000	160.623	0.0000000E+000	0.0000000E+000	0.0000000E+000	-160.623	2.84323	70.6226	1.00527e-06	0.000154128	3.80017e-09	0.000154124	3.88524	97943.6	2.41489	97941.2
63093.8	-0.0311758	-0.212311	0.214588	98.3536	7.0206	3.88533	0.0382538	-11.8812	-11.6304	1	9	4.72527e-05	0.000220202	0	4.65871e-05	-3.78392e-05	1.48348e-05	142.986	0.0673693	-0.0537936	-0.040557	108.574	0.266762	-0.0849694	-0.252868	-0.67703	-4.61065	4.6601	-98.3536	-11630.4	-1707.82	11755.2	171.646	0.0000000E+000	0.0000000E+000	0.0000000E+000	-171.646	0.0000000E+000	0.0000000E+000	0.0000000E+000	171.646	0.0000000E+000	0.0000000E+000	0.0000000E+000	98.3536	0.0000000E+000	0.0000000E+000	0.0000000E+000	-98.3536	0.14684	8.35363	1.84345e-06	0.000148629	-1.44749e-09	0.00014863	3.88537	101567	0.989163	101568
39814.1	1.29171	0.0734145	1.2938	-3.25291	8.02054	3.88535	0.0398926	54.4505	0.175321	1	9	0.00116665	0.000901729	0	0.000113581	-9.51117e-05	3.72822e-06	13.3598	0.00413452	0.00402264	-0.000955343	-3.20072	1.29776	1.29573	0.0724591	0.771675	0.0438582	0.77292	3.25291	175.321	3084.73	3089.71	-86.7471	0.0000000E+000	0.0000000E+000	0.0000000E+000	86.7471	0.0000000E+000	0.0000000E+000	0.0000000E+000	-86.7471	0.0000000E+000	0.0000000E+000	0.0000000E+000	-3.25291	0.0000000E+000	0.0000000E+000	0.0000000E+000	3.25291	17.5948	86.7471	2.36398e-06	0.000154997	-3.79426e-09	0.000155	3.88544	97395.2	2.38419	97397.6
25116.9	1.31534	0.404309	1.37608	-17.0864	9.03454	3.88529	0.0294266	15.6726	1.35295	1	9	0.00474015	0.00344468	0	0.000253003	-0.000114203	6.54066e-06	78.1279	0.00189877	0.000390631	-0.00185815	-17.0076	1.37591	1.31573	0.402451	0.694629	0.213515	0.726703	17.0864	1352.95	4401.56	4604.8	-72.9136	0.0000000E+000	0.0000000E+000	0.0000000E+000	72.9136	0.0000000E+000	0.0000000E+000	0.0000000E+000	-72.9136	0.0000000E+000	0.0000000E+000	0.0000000E+000	-17.0864	0.0000000E+000	0.0000000E+000	0.0000000E+000	17.0864	3.25331	72.9136	-5.42564e-07	0.000114331	-3.36059e-09	0.000114334	3.88541	132034	3.88093	132037
15847.7	1.42061	0.421746	1.48189	-16.5349	9.80253	3.88529	0.0219029	23.8124	1.92874	1	9	0.00493986	0.00333349	0	0.000255515	0.000305796	9.8208e-06	-50.0365	0.00294611	0.00189228	0.00225805	-16.5977	1.48435	1.4225	0.424004	0.646907	0.192052	0.674813	16.5349	1928.74	6496.76	6777.01	-73.4651	0.0000000E+000	0.0000000E+000	0.0000000E+000	73.4651	0.0000000E+000	0.0000000E+000	0.0000000E+000	-73.4651	0.0000000E+000	0.0000000E+000	0.0000000E+000	-16.5349	0.0000000E+000	0.0000000E+000	0.0000000E+000	16.5349	3.3684	73.4651	3.43473e-08	8.5099e-05	6.69782e-09	8.50923e-05	3.88498	177387	13.9614	177373
10002.2	1.53464	0.460655	1.60228	-16.7083	10.5685	3.88529	0.0192584	34.542	2.8551	1	9	0.00510422	0.00318559	0	0.000259382	-0.000133293	9.50882e-06	-65.5669	0.00298495	0.00123467	0.00271763	-16.7886	1.60425	1.53587	0.463373	0.59776	0.179431	0.624109	16.7083	2855.1	9511.53	9930.8	-73.2917	0.0000000E+000	0.0000000E+000	0.0000000E+000	73.2917	0.0000000E+000	0.0000000E+000	0.0000000E+000	-73.2917	0.0000000E+000	0.0000000E+000	0.0000000E+000	-16.7083	0.0000000E+000	0.0000000E+000	0.0000000E+000	16.7083	3.33142	73.2917	2.78548e-06	7.48245e-05	-2.56702e-09	7.48271e-05	3.88542	201745	6.9213	201752
6309.38	1.66503	0.506495	1.74036	-16.9195	11.2105	3.88529	0.0261489	49.8033	4.21822	1	9	0.00512277	0.00294351	0	0.000270776	-7.60209e-05	7.36854e-06	-52.8812	0.00250332	0.00151068	0.00199611	-16.9679	1.74239	1.66654	0.508491	0.549721	0.167223	0.574593	16.9195	4218.22	13866.8	14494.2	-73.0805	0.0000000E+000	0.0000000E+000	0.0000000E+000	73.0805	0.0000000E+000	0.0000000E+000	0.0000000E+000	-73.0805	0.0000000E+000	0.0000000E+000	0.0000000E+000	-16.9195	0.0000000E+000	0.0000000E+000	0.0000000E+000	16.9195	3.28736	73.0805	8.61209e-06	0.000101596	-1.98787e-09	0.000101598	3.88536	148583	2.90723	148586
3983.6	1.80199	0.569687	1.8899	-17.544	11.7731	3.8852	-0.0199988	70.1307	6.37241	1	9	0.00514674	0.00272329	0	0.000271879	0.000133978	8.5257e-06	-117.551	0.00313066	-0.00144806	0.00277564	-17.6375	1.88936	1.80054	0.572463	0.504517	0.1595	0.529129	17.544	6372.41	20156.7	21140	-72.456	0.0000000E+000	0.0000000E+000	0.0000000E+000	72.456	0.0000000E+000	0.0000000E+000	0.0000000E+000	-72.456	0.0000000E+000	0.0000000E+000	0.0000000E+000	-17.544	0.0000000E+000	0.0000000E+000	0.0000000E+000	17.544	3.16312	72.456	-2.33299e-06	-7.76993e-05	-2.6794e-09	-7.76966e-05	3.88507	194272	6.69934	194266
2510.8	1.96143	0.656082	2.06825	-18.4947	12.5978	3.8852	-0.00428099	96.616	9.72209	1	9	0.00505363	0.00244343	0	0.000263882	0.000153069	1.39794e-05	43.0217	0.00572122	0.00418275	-0.00390345	-18.3555	2.07098	1.96561	0.652179	0.458529	0.153374	0.483501	18.4947	9722.09	29065.3	30648.2	-71.5053	0.0000000E+000	0.0000000E+000	0.0000000E+000	71.5053	0.0000000E+000	0.0000000E+000	0.0000000E+000	-71.5053	0.0000000E+000	0.0000000E+000	0.0000000E+000	-18.4947	0.0000000E+000	0.0000000E+000	0.0000000E+000	18.4947	2.98961	71.5053	-2.01566e-06	-1.66325e-05	-6.55288e-10	-1.66318e-05	3.88505	907546	35.7555	907510
1585.51	2.14408	0.744043	2.26951	-19.1379	13.4998	3.88519	-0.0121399	134.913	14.5006	1	9	0.00499085	0.00219909	0	0.000261037	-3.78392e-05	1.34004e-05	70.9799	0.00609361	0.00198591	-0.00576093	-18.9841	2.2695	2.14606	0.738282	0.416272	0.144456	0.440624	19.1379	14500.6	41785.8	44230.3	-70.8621	0.0000000E+000	0.0000000E+000	0.0000000E+000	70.8621	0.0000000E+000	0.0000000E+000	0.0000000E+000	-70.8621	0.0000000E+000	0.0000000E+000	0.0000000E+000	-19.1379	0.0000000E+000	0.0000000E+000	0.0000000E+000	19.1379	2.88166	70.8621	-7.27964e-07	-4.71658e-05	4.59364e-10	-4.71663e-05	3.88523	320035	3.11693	320038
1000.32	2.37144	0.862182	2.52331	-19.9797	14.4018	3.88519	-0.00387131	184.536	21.5446	1	9	0.00495817	0.00196495	0	0.000260075	1.94333e-05	8.27509e-06	32.7484	0.00421136	0.00354198	-0.00227814	-19.9037	2.52586	2.37498	0.859904	0.372453	0.135412	0.396305	19.9797	21544.6	59258.7	63053.7	-70.0203	0.0000000E+000	0.0000000E+000	0.0000000E+000	70.0203	0.0000000E+000	0.0000000E+000	0.0000000E+000	-70.0203	0.0000000E+000	0.0000000E+000	0.0000000E+000	-19.9797	0.0000000E+000	0.0000000E+000	0.0000000E+000	19.9797	2.75051	70.0203	7.12064e-07	-1.50408e-05	-7.52325e-11	-1.50407e-05	3.88517	1.00358e+06	5.01983	1.00358e+06
631.01	2.68939	0.983186	2.86347	-20.0814	15.3036	3.88518	-0.0090485	256.536	30.2436	1	9	0.00492758	0.00172084	0	0.000256756	3.42479e-07	6.59834e-06	2.77379	0.00383437	0.00382988	-0.000185556	-20.0516	2.86701	2.69322	0.983	0.327995	0.119908	0.349226	20.0814	30243.6	82727.9	88082.8	-69.9186	0.0000000E+000	0.0000000E+000	0.0000000E+000	69.9186	0.0000000E+000	0.0000000E+000	0.0000000E+000	-69.9186	0.0000000E+000	0.0000000E+000	0.0000000E+000	-20.0814	0.0000000E+000	0.0000000E+000	0.0000000E+000	20.0814	2.73538	69.9186	-2.85751e-06	-3.5155e-05	-3.09892e-12	-3.5155e-05	3.88518	429373	0.0378493	429373
398.089	3.05215	1.06152	3.23148	-19.1774	16.4508	3.88522	-0.0162789	376.627	40.6412	1	10	0.00495449	0.0015332	0	0.000249754	0.000363069	1.30672e-05	64.5146	0.00852286	0.00366722	-0.00769355	-19.0272	3.23242	3.05582	1.05383	0.292283	0.101654	0.309456	19.1774	40641.2	116854	123720	-70.8226	0.0000000E+000	0.0000000E+000	0.0000000E+000	70.8226	0.0000000E+000	0.0000000E+000	0.0000000E+000	-70.8226	0.0000000E+000	0.0000000E+000	0.0000000E+000	-19.1774	0.0000000E+000	0.0000000E+000	0.0000000E+000	19.1774	2.87526	70.8226	-2.84165e-06	-6.32473e-05	-5.91037e-09	-6.32414e-05	3.88486	238666	22.303	238643
251.044	3.45778	1.03852	3.61037	-16.7173	17.3491	3.88522	-0.0159735	610.454	50.5105	1	10	0.00492739	0.00136479	0	0.000246813	9.57967e-05	1.26191e-05	17.2395	0.00924622	0.00883083	-0.00274027	-16.6355	3.61805	3.46662	1.03578	0.265273	0.0796731	0.27698	16.7173	50510.5	168176	175597	-73.2827	0.0000000E+000	0.0000000E+000	0.0000000E+000	73.2827	0.0000000E+000	0.0000000E+000	0.0000000E+000	-73.2827	0.0000000E+000	0.0000000E+000	0.0000000E+000	-16.7173	0.0000000E+000	0.0000000E+000	0.0000000E+000	16.7173	3.32952	73.2827	-2.02627e-06	-6.20605e-05	-1.53021e-09	-6.2059e-05	3.88512	243230	5.99724	243224
158.428	3.81775	0.921928	3.92749	-13.5761	18.2539	3.88523	-0.0151875	1089.66	60.0419	1	10	0.00490938	0.00125001	0	0.00024458	0.000363069	4.3629e-06	-127.212	0.0034903	-0.00211082	0.00277969	-13.6228	3.92609	3.81564	0.924707	0.247502	0.0597678	0.254616	13.5761	60041.9	248637	255783	-76.4239	0.0000000E+000	0.0000000E+000	0.0000000E+000	76.4239	0.0000000E+000	0.0000000E+000	0.0000000E+000	-76.4239	0.0000000E+000	0.0000000E+000	0.0000000E+000	-13.5761	0.0000000E+000	0.0000000E+000	0.0000000E+000	13.5761	4.14105	76.4239	-1.48112e-06	-5.90067e-05	-5.51409e-09	-5.90012e-05	3.88486	255818	23.9058	255794
100.032	4.10855	0.750714	4.17657	-10.3548	19.1528	3.88522	-0.0173742	2119.37	68.4724	1	10	0.00491511	0.00117683	0	0.000240647	-3.78392e-05	6.47261e-06	-14.3265	0.00550004	0.005329	0.00136097	-10.3601	4.18206	4.11388	0.752075	0.235531	0.0430362	0.239431	10.3548	68472.4	374740	380944	-79.6451	0.0000000E+000	0.0000000E+000	0.0000000E+000	79.6451	0.0000000E+000	0.0000000E+000	0.0000000E+000	-79.6451	0.0000000E+000	0.0000000E+000	0.0000000E+000	-10.3548	0.0000000E+000	0.0000000E+000	0.0000000E+000	10.3548	5.47286	79.6451	-7.06677e-07	-6.75025e-05	6.57425e-10	-6.75032e-05	3.88526	223621	2.1779	223623
63.0823	4.29382	0.569767	4.33146	-7.55868	20.069	3.88522	-0.0142301	4428.08	76.6198	1	10	0.00490798	0.0011331	0	0.000236775	5.7615e-05	9.99581e-06	4.11473	0.00882164	0.0087989	-0.000632987	-7.53511	4.3401	4.30262	0.569134	0.228863	0.0303688	0.230869	7.55868	76619.8	577415	582476	-82.4413	0.0000000E+000	0.0000000E+000	0.0000000E+000	82.4413	0.0000000E+000	0.0000000E+000	0.0000000E+000	-82.4413	0.0000000E+000	0.0000000E+000	0.0000000E+000	-7.55868	0.0000000E+000	0.0000000E+000	0.0000000E+000	7.55868	7.53611	82.4413	-2.06094e-06	-5.5287e-05	-8.19866e-10	-5.52862e-05	3.88516	273029	4.04882	273025
39.8089	4.40281	0.419267	4.42273	-5.4397	20.9699	3.88522	-0.0155935	9535.62	85.6937	1	10	0.00490308	0.00110861	0	0.000230487	3.85242e-05	7.00582e-06	16.759	0.00631946	0.00605105	-0.0018222	-5.40881	4.42858	4.40887	0.417445	0.225086	0.0214343	0.226105	5.4397	85693.8	899889	903960	-84.5603	0.0000000E+000	0.0000000E+000	0.0000000E+000	84.5603	0.0000000E+000	0.0000000E+000	0.0000000E+000	-84.5603	0.0000000E+000	0.0000000E+000	0.0000000E+000	-5.4397	0.0000000E+000	0.0000000E+000	0.0000000E+000	5.4397	10.5012	84.5603	-2.94294e-06	-6.05842e-05	-6.00727e-10	-6.05836e-05	3.88518	249156	2.47053	249154
25.1044	4.47392	0.306427	4.4844	-3.91817	21.849	3.88521	-0.0160331	20689.1	96.6023	1	10	0.00491178	0.0010953	0	0.000226277	1.94333e-05	9.12251e-06	22.0507	0.00832875	0.00771952	-0.00312683	-3.87166	4.49189	4.48164	0.3033	0.222474	0.0152376	0.222995	3.91817	96602.3	1.41042e+06	1.41373e+06	-86.0818	0.0000000E+000	0.0000000E+000	0.0000000E+000	86.0818	0.0000000E+000	0.0000000E+000	0.0000000E+000	-86.0818	0.0000000E+000	0.0000000E+000	0.0000000E+000	-3.91817	0.0000000E+000	0.0000000E+000	0.0000000E+000	3.91817	14.6003	86.0818	-1.59722e-06	-6.2292e-05	-3.11576e-10	-6.22916e-05	3.88519	242325	1.21208	242324
15.8576	4.50755	0.236814	4.51377	-3.00739	22.727	3.88525	-0.017702	42381.4	116.657	1	10	0.00489388	0.00108421	0	0.000217441	9.57967e-05	1.75864e-05	-4.10843	0.0162205	0.0161788	0.0011621	-3.01134	4.52999	4.52373	0.237976	0.221239	0.0116233	0.221544	3.00739	116657	2.22047e+06	2.22353e+06	-86.9926	0.0000000E+000	0.0000000E+000	0.0000000E+000	86.9926	0.0000000E+000	0.0000000E+000	0.0000000E+000	-86.9926	0.0000000E+000	0.0000000E+000	0.0000000E+000	-3.00739	0.0000000E+000	0.0000000E+000	0.0000000E+000	3.00739	19.0341	86.9926	-5.38912e-06	-6.87766e-05	-1.69579e-09	-6.87749e-05	3.88515	219481	5.41164	219475
10.0032	4.54364	0.196508	4.54789	-2.47644	23.7078	3.88523	-0.0151763	80965.8	151.161	1	10	0.0049071	0.00107898	0	0.000219187	0.00017216	3.08154e-06	-135.238	0.00285596	-0.00202783	0.00201108	-2.50287	4.54595	4.54161	0.198519	0.219677	0.0095008	0.219882	2.47644	151162	3.49515e+06	3.49842e+06	-87.5236	0.0000000E+000	0.0000000E+000	0.0000000E+000	87.5236	0.0000000E+000	0.0000000E+000	0.0000000E+000	-87.5236	0.0000000E+000	0.0000000E+000	0.0000000E+000	-2.47644	0.0000000E+000	0.0000000E+000	0.0000000E+000	2.47644	23.122	87.5236	-1.83281e-06	-5.89634e-05	-2.61275e-09	-5.89607e-05	3.88506	256007	11.344	255995
6.31058	4.57036	0.185175	4.57411	-2.32015	24.6313	3.88523	-0.0162268	136198	223.213	1	10	0.0049037	0.00107206	0	0.000209304	7.67059e-05	4.35381e-06	15.2543	0.00406118	0.00391809	-0.00106851	-2.3048	4.57798	4.57427	0.184106	0.218443	0.00885052	0.218622	2.32015	223213	5.5092e+06	5.51372e+06	-87.6798	0.0000000E+000	0.0000000E+000	0.0000000E+000	87.6798	0.0000000E+000	0.0000000E+000	0.0000000E+000	-87.6798	0.0000000E+000	0.0000000E+000	0.0000000E+000	-2.32015	0.0000000E+000	0.0000000E+000	0.0000000E+000	2.32015	24.6813	87.6798	-9.06116e-06	-6.30448e-05	-1.24469e-09	-6.30435e-05	3.88515	239433	4.72711	239428
3.97785	4.6063	0.176055	4.60966	-2.18881	25.6373	3.88525	-0.00718569	227260	331.499	1	10	0.00490736	0.00106458	0	0.000222751	0.000286705	5.61234e-06	-11.1031	0.00527187	0.0051732	0.00101523	-2.19895	4.61487	4.61147	0.17707	0.216777	0.00828534	0.216936	2.18881	331498	8.67333e+06	8.67966e+06	-87.8112	0.0000000E+000	0.0000000E+000	0.0000000E+000	87.8112	0.0000000E+000	0.0000000E+000	0.0000000E+000	-87.8112	0.0000000E+000	0.0000000E+000	0.0000000E+000	-2.18881	0.0000000E+000	0.0000000E+000	0.0000000E+000	2.18881	26.164	87.8112	5.30398e-06	-2.79182e-05	-2.06017e-09	-2.79161e-05	3.88496	540692	39.8995	540653
2.51367	4.63486	0.198716	4.63912	-2.45501	27.1969	3.88525	-0.00315125	318623	584.621	1	10	0.00490548	0.00105742	0	0.000194458	-0.000190566	1.025e-06	16.3223	0.000969348	0.000930279	-0.000272425	-2.45116	4.64003	4.63579	0.198444	0.21536	0.00923343	0.215558	2.45501	584622	1.36357e+07	1.36482e+07	-87.545	0.0000000E+000	0.0000000E+000	0.0000000E+000	87.545	0.0000000E+000	0.0000000E+000	0.0000000E+000	-87.545	0.0000000E+000	0.0000000E+000	0.0000000E+000	-2.45501	0.0000000E+000	0.0000000E+000	0.0000000E+000	2.45501	23.324	87.545	-1.60582e-05	-1.22434e-05	6.00522e-10	-1.2244e-05	3.88544	1.23292e+06	60.4731	1.23298e+06
1.58469	4.68092	0.238982	4.68702	-2.92267	30.3085	3.88525	-0.00457079	420253	1092.57	1	11	0.00490897	0.00104735	0	0.000212794	-0.000209657	3.91891e-06	57.6316	0.00374172	0.00200317	-0.00316035	-2.88286	4.68886	4.68292	0.235822	0.213078	0.0108786	0.213355	2.92267	1.09257e+06	2.14001e+07	2.1428e+07	-87.0773	0.0000000E+000	0.0000000E+000	0.0000000E+000	87.0773	0.0000000E+000	0.0000000E+000	0.0000000E+000	-87.0773	0.0000000E+000	0.0000000E+000	0.0000000E+000	-2.92267	0.0000000E+000	0.0000000E+000	0.0000000E+000	2.92267	19.5869	87.0773	2.00482e-05	-1.77587e-05	9.58296e-10	-1.77596e-05	3.88546	850019	45.8689	850064
1.00469	4.72449	0.272522	4.73234	-3.30133	241.127	3.88524	-0.00809093	581278	1927.69	1	11	0.00498018	0.00105237	0	-0.0037605	-1.87484e-05	2.52573e-07	31.8624	0.000240004	0.000203839	-0.000126693	-3.29966	4.73254	4.72469	0.272396	0.210961	0.0121689	0.211312	3.30133	1.92769e+06	3.34187e+07	3.34742e+07	-86.6987	0.0000000E+000	0.0000000E+000	0.0000000E+000	86.6987	0.0000000E+000	0.0000000E+000	0.0000000E+000	-86.6987	0.0000000E+000	0.0000000E+000	0.0000000E+000	-3.30133	0.0000000E+000	0.0000000E+000	0.0000000E+000	3.30133	17.3361	86.6987	-0.00399171	-3.14352e-05	1.51692e-10	-3.14353e-05	3.88525	480196	2.31721	480198
0.632957	4.79016	0.350484	4.80296	-4.18473	241.127	3.88524	-0.00809093	717428	3820.28	1	11	0.00499169	0.00103929	0	-0.0037605	-1.87484e-05	1.76029e-07	-52.8393	0.000169374	0.000102311	0.000134982	-4.18625	4.80308	4.79026	0.350619	0.20765	0.0151932	0.208205	4.18473	3.82028e+06	5.22128e+07	5.23524e+07	-85.8153	0.0000000E+000	0.0000000E+000	0.0000000E+000	85.8153	0.0000000E+000	0.0000000E+000	0.0000000E+000	-85.8153	0.0000000E+000	0.0000000E+000	0.0000000E+000	-4.18473	0.0000000E+000	0.0000000E+000	0.0000000E+000	4.18473	13.6673	85.8153	0.000000000000000E+000	-3.14352e-05	1.51692e-10	-3.14353e-05	3.88525	480196	2.31721	480198
0.401878	4.86749	0.443992	4.8877	-5.21186	241.127	3.88524	-0.00809093	891972	7360.26	1	11	0.00500611	0.00102423	0	-0.0037605	-1.87484e-05	2.56504e-07	-32.5263	0.000250436	0.000211154	0.000134656	-5.21321	4.88792	4.8677	0.444127	0.20375	0.0185852	0.204595	5.21186	7.36026e+06	8.06906e+07	8.10256e+07	-84.7881	0.0000000E+000	0.0000000E+000	0.0000000E+000	84.7881	0.0000000E+000	0.0000000E+000	0.0000000E+000	-84.7881	0.0000000E+000	0.0000000E+000	0.0000000E+000	-5.21186	0.0000000E+000	0.0000000E+000	0.0000000E+000	5.21186	10.963	84.7881	0.000000000000000E+000	-3.14352e-05	1.51692e-10	-3.14353e-05	3.88525	480196	2.31721	480198
0.251173	4.98592	0.589225	5.02062	-6.73982	241.127	3.88524	-0.00809093	1.07539e+06	14812	1	11	0.00500732	0.00099735	0	-0.0037605	-1.87484e-05	5.1821e-07	90.5342	0.000519587	-4.84443e-06	-0.000519564	-6.73394	5.02055	4.98592	0.588706	0.197802	0.0233758	0.199179	6.73982	1.4812e+07	1.25336e+08	1.26209e+08	-83.2602	0.0000000E+000	0.0000000E+000	0.0000000E+000	83.2602	0.0000000E+000	0.0000000E+000	0.0000000E+000	-83.2602	0.0000000E+000	0.0000000E+000	0.0000000E+000	-6.73982	0.0000000E+000	0.0000000E+000	0.0000000E+000	6.73982	8.46183	83.2602	0.000000000000000E+000	-3.14352e-05	1.51692e-10	-3.14353e-05	3.88525	480196	2.31721	480198
0.160751	5.14482	0.681374	5.18974	-7.54429	241.127	3.88524	-0.00809093	1.45305e+06	25047.3	1	11	0.00500132	0.000963693	0	-0.0037605	-1.87484e-05	4.08822e-07	3.09867	0.000424224	0.000423604	-2.29317e-05	-7.54342	5.19016	5.14524	0.681351	0.19102	0.0252985	0.192688	7.54429	2.50473e+07	1.89123e+08	1.90775e+08	-82.4557	0.0000000E+000	0.0000000E+000	0.0000000E+000	82.4557	0.0000000E+000	0.0000000E+000	0.0000000E+000	-82.4557	0.0000000E+000	0.0000000E+000	0.0000000E+000	-7.54429	0.0000000E+000	0.0000000E+000	0.0000000E+000	7.54429	7.55065	82.4557	0.000000000000000E+000	-3.14352e-05	1.51692e-10	-3.14353e-05	3.88525	480196	2.31721	480198
0.100469	5.3072	0.918631	5.38612	-9.82011	241.127	3.88524	-0.00809093	1.72443e+06	50162.1	1	11	0.00500478	0.000929199	0	-0.0037605	-1.87484e-05	7.05246e-07	3.59736	0.000758983	0.000757488	-4.7622e-05	-9.81823	5.38686	5.30796	0.918584	0.182942	0.0316657	0.185662	9.82011	5.01621e+07	2.89801e+08	2.9411e+08	-80.1799	0.0000000E+000	0.0000000E+000	0.0000000E+000	80.1799	0.0000000E+000	0.0000000E+000	0.0000000E+000	-80.1799	0.0000000E+000	0.0000000E+000	0.0000000E+000	-9.82011	0.0000000E+000	0.0000000E+000	0.0000000E+000	9.82011	5.77729	80.1799	0.000000000000000E+000	-3.14352e-05	1.51692e-10	-3.14353e-05	3.88525	480196	2.31721	480198
0.0602816	5.60622	1.11718	5.71645	-11.2699	241.127	3.88524	-0.00809093	2.36327e+06	90261.7	1	11	0.0050005	0.000874755	0	-0.0037605	-1.87484e-05	2.47015e-07	11.1845	0.000282381	0.000277018	-5.4773e-05	-11.2689	5.71671	5.6065	1.11712	0.171561	0.0341876	0.174934	11.2699	9.02617e+07	4.52952e+08	4.61858e+08	-78.7301	0.0000000E+000	0.0000000E+000	0.0000000E+000	78.7301	0.0000000E+000	0.0000000E+000	0.0000000E+000	-78.7301	0.0000000E+000	0.0000000E+000	0.0000000E+000	-11.2699	0.0000000E+000	0.0000000E+000	0.0000000E+000	11.2699	5.01821	78.7301	0.000000000000000E+000	-3.14352e-05	1.51692e-10	-3.14353e-05	3.88525	480196	2.31721	480198
0.0401878	5.93486	1.31459	6.0787	-12.4895	241.127	3.88524	-0.00809093	3.01257e+06	140894	1	11	0.00500121	0.000822743	0	-0.0037605	-1.87484e-05	2.76717e-07	42.5082	0.000336335	0.00024794	-0.00022726	-12.4869	6.0789	5.9351	1.31436	0.160616	0.0355768	0.164509	12.4895	1.40894e+08	6.36084e+08	6.51501e+08	-77.5105	0.0000000E+000	0.0000000E+000	0.0000000E+000	77.5105	0.0000000E+000	0.0000000E+000	0.0000000E+000	-77.5105	0.0000000E+000	0.0000000E+000	0.0000000E+000	-12.4895	0.0000000E+000	0.0000000E+000	0.0000000E+000	12.4895	4.51462	77.5105	0.000000000000000E+000	-3.14352e-05	1.51692e-10	-3.14353e-05	3.88525	480196	2.31721	480198
0.0200939	6.67925	1.86193	6.93391	-15.5765	241.128	3.88524	-0.00809093	4.25396e+06	306735	1	11	0.00499888	0.000720932	0	-0.0037605	-1.87484e-05	6.15493e-07	-104.463	0.000853746	-0.00021322	0.000826692	-15.5836	6.93393	6.67903	1.86276	0.138922	0.0387263	0.144219	15.5765	3.06735e+08	1.10034e+09	1.14229e+09	-74.4235	0.0000000E+000	0.0000000E+000	0.0000000E+000	74.4235	0.0000000E+000	0.0000000E+000	0.0000000E+000	-74.4235	0.0000000E+000	0.0000000E+000	0.0000000E+000	-15.5765	0.0000000E+000	0.0000000E+000	0.0000000E+000	15.5765	3.58727	74.4235	0.000000000000000E+000	-3.14352e-05	1.51692e-10	-3.14353e-05	3.88525	480196	2.31721	480198
0.00796479	8.11628	2.25837	8.42462	-15.5493	20330.1	3.88522	0.000395263	8.84812e+06	635829	1	11	0.00499492	0.000592895	0	-0.059991	0.000114888	2.1284e-07	-59.9659	0.000358984	0.000179677	0.000310782	-15.551	8.42488	8.11646	2.25868	0.114355	0.0318196	0.1187	15.5493	6.35829e+08	2.28508e+09	2.3719e+09	-74.4507	0.0000000E+000	0.0000000E+000	0.0000000E+000	74.4507	0.0000000E+000	0.0000000E+000	0.0000000E+000	-74.4507	0.0000000E+000	0.0000000E+000	0.0000000E+000	-15.5493	0.0000000E+000	0.0000000E+000	0.0000000E+000	15.5493	3.59387	74.4507	-0.0562305	1.53568e-06	4.54108e-11	1.53564e-06	3.88511	9.82947e+06	290.661	9.82918e+06
0.00497799	8.73291	2.41974	9.06195	-15.4872	20330.1	3.88522	0.000395263	1.32129e+07	942089	1	11	0.00500149	0.000551922	0	-0.059991	0.000114888	5.01631e-07	-111.342	0.00090888	-0.000330773	0.000846553	-15.4929	9.06186	8.73258	2.42059	0.106345	0.0294663	0.110352	15.4872	9.42089e+08	3.40002e+09	3.52813e+09	-74.5128	0.0000000E+000	0.0000000E+000	0.0000000E+000	74.5128	0.0000000E+000	0.0000000E+000	0.0000000E+000	-74.5128	0.0000000E+000	0.0000000E+000	0.0000000E+000	-15.4872	0.0000000E+000	0.0000000E+000	0.0000000E+000	15.4872	3.60903	74.5128	0.000000000000000E+000	1.53568e-06	4.54108e-11	1.53564e-06	3.88511	9.82947e+06	290.661	9.82918e+06
0.00318591	9.19143	3.17748	9.72516	-19.0703	20330.1	3.88522	0.000395263	1.57218e+07	1.67832e+06	1	11	0.00500358	0.000514498	0	-0.059991	0.000114888	3.73227e-07	-66.632	0.000725419	0.000287727	0.000665917	-19.0735	9.72565	9.19171	3.17815	0.0971828	0.0335962	0.102826	19.0703	1.67832e+09	4.85485e+09	5.13676e+09	-70.9297	0.0000000E+000	0.0000000E+000	0.0000000E+000	70.9297	0.0000000E+000	0.0000000E+000	0.0000000E+000	-70.9297	0.0000000E+000	0.0000000E+000	0.0000000E+000	-19.0703	0.0000000E+000	0.0000000E+000	0.0000000E+000	19.0703	2.89268	70.9297	0.000000000000000E+000	1.53568e-06	4.54108e-11	1.53564e-06	3.88511	9.82947e+06	290.661	9.82918e+06
0.0019912	9.55609	3.89943	10.3211	-22.1983	20330.1	3.88522	0.000395263	2.04977e+07	2.92589e+06	1	11	0.0050074	0.000485163	0	-0.059991	0.000114888	2.82347e-07	-55.2462	0.000581964	0.000331749	0.000478147	-22.2	10.3216	9.55642	3.89991	0.089708	0.036606	0.0968892	22.1983	2.92589e+09	7.1703e+09	7.74429e+09	-67.8017	0.0000000E+000	0.0000000E+000	0.0000000E+000	67.8017	0.0000000E+000	0.0000000E+000	0.0000000E+000	-67.8017	0.0000000E+000	0.0000000E+000	0.0000000E+000	-22.1983	0.0000000E+000	0.0000000E+000	0.0000000E+000	22.1983	2.45064	67.8017	0.000000000000000E+000	1.53568e-06	4.54108e-11	1.53564e-06	3.88511	9.82947e+06	290.661	9.82918e+06
0.00129428	9.29348	5.21974	10.659	-29.321	20330.1	3.88522	0.000395263	2.35583e+07	5.64948e+06	1	11	0.00500945	0.000469974	0	-0.059991	0.000114888	5.45665e-07	-12.5246	0.00116105	0.00113342	0.000251785	-29.3192	10.6601	9.29461	5.21999	0.0817984	0.0459426	0.0938174	29.321	5.64948e+09	1.00586e+10	1.15366e+10	-60.679	0.0000000E+000	0.0000000E+000	0.0000000E+000	60.679	0.0000000E+000	0.0000000E+000	0.0000000E+000	-60.679	0.0000000E+000	0.0000000E+000	0.0000000E+000	-29.321	0.0000000E+000	0.0000000E+000	0.0000000E+000	29.321	1.78045	60.679	0.000000000000000E+000	1.53568e-06	4.54108e-11	1.53564e-06	3.88511	9.82947e+06	290.661	9.82918e+06
0.000796479	10.2906	7.76223	12.8899	-37.0273	20330.1	3.88522	0.000395263	2.5743e+07	9.33542e+06	1	11	0.0050099	0.000388669	0	-0.059991	0.000114888	8.57633e-07	-19.9954	0.00220659	0.00207358	0.000754532	-37.0244	12.892	10.2927	7.76298	0.061936	0.0467184	0.0775802	37.0273	9.33542e+09	1.23763e+10	1.55023e+10	-52.9727	0.0000000E+000	0.0000000E+000	0.0000000E+000	52.9727	0.0000000E+000	0.0000000E+000	0.0000000E+000	-52.9727	0.0000000E+000	0.0000000E+000	0.0000000E+000	-37.0273	0.0000000E+000	0.0000000E+000	0.0000000E+000	37.0273	1.32573	52.9727	0.000000000000000E+000	1.53568e-06	4.54108e-11	1.53564e-06	3.88511	9.82947e+06	290.661	9.82918e+06
0.000497799	10.3412	10.9392	15.0534	-46.6096	20330.1	3.88522	0.000395263	2.92269e+07	1.5434e+07	1	11	0.00500694	0.000332612	0	-0.059991	0.000114888	8.15629e-07	-76.4374	0.0024522	0.000575059	0.00238382	-46.6142	15.0555	10.3418	10.9415	0.0456353	0.0482741	0.0664301	46.6096	1.5434e+10	1.45904e+10	2.12389e+10	-43.3904	0.0000000E+000	0.0000000E+000	0.0000000E+000	43.3904	0.0000000E+000	0.0000000E+000	0.0000000E+000	-43.3904	0.0000000E+000	0.0000000E+000	0.0000000E+000	-46.6096	0.0000000E+000	0.0000000E+000	0.0000000E+000	46.6096	0.945337	43.3904	0.000000000000000E+000	1.53568e-06	4.54108e-11	1.53564e-06	3.88511	9.82947e+06	290.661	9.82918e+06
0.000298679	9.66994	17.1683	19.7043	-60.6099	20330.1	3.88522	0.000395263	3.10375e+07	2.35625e+07	1	11	0.00501522	0.000254524	0	-0.059991	0.000114888	1.76901e-06	-38.944	0.00695025	0.00540564	0.00436865	-60.6025	19.7108	9.67535	17.1727	0.0249058	0.0442187	0.0507503	60.6099	2.35625e+10	1.32714e+10	2.70429e+10	-29.3901	0.0000000E+000	0.0000000E+000	0.0000000E+000	29.3901	0.0000000E+000	0.0000000E+000	0.0000000E+000	-29.3901	0.0000000E+000	0.0000000E+000	0.0000000E+000	-60.6099	0.0000000E+000	0.0000000E+000	0.0000000E+000	60.6099	0.563243	29.3901	0.000000000000000E+000	1.53568e-06	4.54108e-11	1.53564e-06	3.88511	9.82947e+06	290.661	9.82918e+06
9.95598e-05	7.26812	75.9639	76.3108	-84.5347	20330.1	3.88522	0.000395263	2.1044e+07	2.08531e+07	1	11	0.00500945	6.56454e-05	0	-0.059991	0.000114888	1.99213e-06	-71.5673	0.0303468	0.00959536	0.0287899	-84.5295	76.3404	7.27771	75.9927	0.0012481	0.0130447	0.0131043	84.5347	2.08531e+10	1.9952e+09	2.09484e+10	-5.46535	0.0000000E+000	0.0000000E+000	0.0000000E+000	5.46535	0.0000000E+000	0.0000000E+000	0.0000000E+000	-5.46535	0.0000000E+000	0.0000000E+000	0.0000000E+000	-84.5347	0.0000000E+000	0.0000000E+000	0.0000000E+000	84.5347	0.0956786	5.46535	0.000000000000000E+000	1.53568e-06	4.54108e-11	1.53564e-06	3.88511	9.82947e+06	290.661	9.82918e+06