File: txt/18303_R274_UC74_SOC50_C01.mpt
EC-Lab ASCII FILE
Nb header lines : 65

Potentio Electrochemical Impedance Spectroscopy

Run on channel : 1 (SN 66354)
User :
CE vs. WE compliance from -10 V to 10 V
Electrode connection : standard
Potential control : Ewe
Ewe ctrl range : min = -10.00 V, max = 10.00 V
Safety Limits :
	Do not start on E overload
Acquisition started on : 10/09/2025 15:25:39.695
Technique started on : 10/09/2025 15:25:42.390
Loaded Setting File :  C:\Users\Celltest\OneDrive - store-dot.com\Documents\EC-Lab\Data\txt_done\UC80_17231_EIS_50SOC.mps
Saved on :
	File : 18303_R274_UC74_SOC50_C01.mpr
	Directory : C:\Users\Celltest\OneDrive - store-dot.com\Documents\EC-Lab\Data\Michael\
	Host : 169.254.61.224
Device : VMP-3e (SN .003165)
Address : USB
EC-LAB for windows v11.62 (software)
Internet server v27.00 (firmware)
Command interpretor v12.03 (firmware)
Electrode material :
Initial state :
Electrolyte :
Comments :
Electrode surface area : 0.001 cm²
Characteristic mass : 0.001 g
Equivalent Weight : 0.000 g/eq.
Density : 0.000 g/cm3
Volume (V) : 0.001 cm³
Record Ece
Cycle Definition : Charge/Discharge alternance
Mode                Multi sine
E (V)               0.0000
vs.                 Eoc
tE (h:m:s)          0:00:0.0000
record              0
dI                  0.000
unit dI             mA
dt (s)              0.000
fi                  1.000
unit fi             MHz
ff                  0.100
unit ff             mHz
Nd                  10
Points              per decade
spacing             Logarithmic
Va (mV)             5.0
pw                  0.10
Na                  2
corr                0
E range min (V)     -10.000
E range max (V)     10.000
I Range             Auto
Bandwidth           5
nc cycles           0
goto Ns'            0
nr cycles           0
inc. cycle          0

freq/Hz	Re(Z)/Ohm	-Im(Z)/Ohm	|Z|/Ohm	Phase(Z)/deg	time/s	<Ewe>/V	<I>/mA	Cs/µF	Cp/µF	cycle number	I Range	|Ewe|/V	|I|/A	Ns	(Q-Qo)/mA.h	<Ece>/V	|Ece|/V	Phase(Zce)/deg	|Zce|/Ohm	Re(Zce)/Ohm	-Im(Zce)/Ohm	Phase(Zwe-ce)/deg	|Zwe-ce|/Ohm	Re(Zwe-ce)/Ohm	-Im(Zwe-ce)/Ohm	Re(Y)/Ohm-1	Im(Y)/Ohm-1	|Y|/Ohm-1	Phase(Y)/deg	Re(C)/nF	Im(C)/nF	|C|/nF	Phase(C)/deg	Re(M)	Im(M)	|M|	Phase(M)/deg	Re(Permittivity)	Im(Permittivity)	|Permittivity|	Phase(Permittivity)/deg	Re(Resistivity)/Ohm.cm	Im(Resistivity)/Ohm.cm	|Resistivity|/Ohm.cm	Phase(Resistivity)/deg	Re(Conductivity)/mS/cm	Im(Conductivity)/mS/cm	|Conductivity|/mS/cm	Phase(Conductivity)/deg	Tan(Delta)	Loss Angle(Delta)/deg	dq/mA.h	Pwe/W	Pce/W	Pwe-ce/W	<Ewe-Ece>/V	Rwe/Ohm	Rce/Ohm	Rwe-ce/Ohm		Ewe-Ece/V
1.00002e+06	1.09689	-0.0272721	1.09723	1.42426	2.69456	3.88584	0.120997	-5.83571	-0.00360525	1	9	0.000213617	0.000194687	0	3.35748e-07	0.000231267	0.000190469	-6.84351	0.978334	0.971364	0.116576	-2.47242	2.07018	2.06825	0.0893043	0.911105	-0.0226529	0.911387	-1.42426	-3.60525	145.004	145.049	-91.4243	0.0000000E+000	0.0000000E+000	0.0000000E+000	91.4243	0.0000000E+000	0.0000000E+000	0.0000000E+000	-91.4243	0.0000000E+000	0.0000000E+000	0.0000000E+000	1.42426	0.0000000E+000	0.0000000E+000	0.0000000E+000	-1.42426	40.2203	88.5757	3.35748e-07	0.000470177	2.79828e-08	0.000470149	3.88561	32115.1	1.91134	32113.2
630957	0.303178	0.261419	0.400321	-40.77	3.46055	3.88554	0.0667551	0.964902	0.411474	1	9	0.000134323	0.00033554	0	1.39017e-05	0.000135881	0.000124817	-109.472	0.371989	-0.123999	0.350713	-73.6846	0.637818	0.179179	0.612133	1.89183	1.63125	2.498	40.77	411.474	477.201	630.104	-49.23	0.0000000E+000	0.0000000E+000	0.0000000E+000	49.23	0.0000000E+000	0.0000000E+000	0.0000000E+000	-49.23	0.0000000E+000	0.0000000E+000	0.0000000E+000	-40.77	0.0000000E+000	0.0000000E+000	0.0000000E+000	40.77	1.15974	49.23	7.28254e-06	0.00025938	9.07074e-09	0.000259371	3.88541	58205.9	2.03551	58203.9
398103	0.501349	0.135755	0.519403	-15.1512	4.22854	3.8856	0.0820667	2.94489	0.201173	1	9	0.000500931	0.000964436	0	2.80665e-05	-3.5815e-05	6.76491e-05	168.459	0.0701437	-0.0687256	-0.014033	-15.7144	0.449421	0.432623	0.121722	1.85836	0.503206	1.92529	15.1512	201.173	742.941	769.696	-74.8488	0.0000000E+000	0.0000000E+000	0.0000000E+000	74.8488	0.0000000E+000	0.0000000E+000	0.0000000E+000	-74.8488	0.0000000E+000	0.0000000E+000	0.0000000E+000	-15.1512	0.0000000E+000	0.0000000E+000	0.0000000E+000	15.1512	3.69304	74.8488	6.91625e-06	0.000318878	-2.93922e-09	0.000318881	3.88563	47346.8	0.436413	47347.2
251206	0.645629	0.235286	0.687166	-20.0232	4.99656	3.88553	0.0694748	2.69273	0.315692	1	9	0.00177272	0.00257976	0	4.37757e-05	2.1417e-05	6.24769e-05	111.218	0.0242181	-0.00876508	-0.0225763	-18.4691	0.671447	0.636864	0.21271	1.36729	0.49828	1.45525	20.0232	315.692	866.263	921.994	-69.9768	0.0000000E+000	0.0000000E+000	0.0000000E+000	69.9768	0.0000000E+000	0.0000000E+000	0.0000000E+000	-69.9768	0.0000000E+000	0.0000000E+000	0.0000000E+000	-20.0232	0.0000000E+000	0.0000000E+000	0.0000000E+000	20.0232	2.74402	69.9768	5.46969e-06	0.000269946	1.48794e-09	0.000269945	3.88551	55927.2	0.308269	55926.9
158486	0.763049	0.306116	0.822162	-21.8594	5.76252	3.88548	0.0490595	3.28052	0.454779	1	9	0.00502393	0.00611063	0	5.22234e-05	4.04943e-05	6.71649e-05	90.4738	0.0109915	-9.08849e-05	-0.0109911	-21.1473	0.818048	0.762958	0.295125	1.12885	0.452868	1.21631	21.8594	454.779	1133.62	1221.44	-68.1406	0.0000000E+000	0.0000000E+000	0.0000000E+000	68.1406	0.0000000E+000	0.0000000E+000	0.0000000E+000	-68.1406	0.0000000E+000	0.0000000E+000	0.0000000E+000	-21.8594	0.0000000E+000	0.0000000E+000	0.0000000E+000	21.8594	2.49268	68.1406	6.06129e-06	0.000190619	1.98663e-09	0.000190617	3.88544	79199.3	0.825412	79198.5
100004	0.884151	0.337113	0.946239	-20.8711	6.53053	3.88544	0.0493948	4.72093	0.599208	1	9	0.00528287	0.00558302	0	0.000102424	-0.000245665	4.74572e-05	96.9912	0.00850028	-0.00103463	-0.00843708	-20.4141	0.942297	0.883117	0.328676	0.987471	0.376508	1.05682	20.8711	599.209	1571.55	1681.91	-69.1289	0.0000000E+000	0.0000000E+000	0.0000000E+000	69.1289	0.0000000E+000	0.0000000E+000	0.0000000E+000	-69.1289	0.0000000E+000	0.0000000E+000	0.0000000E+000	-20.8711	0.0000000E+000	0.0000000E+000	0.0000000E+000	20.8711	2.62271	69.1289	2.37862e-05	0.00019192	-1.21346e-08	0.000191932	3.88568	78660.9	4.97351	78665.9
63093.8	0.994963	0.347068	1.05376	-19.23	7.29655	3.88543	0.0535672	7.26807	0.788434	1	9	0.00529115	0.00502121	0	8.10013e-05	-0.000150279	4.13282e-05	85.6083	0.00823072	0.000630263	-0.00820655	-18.7966	1.05168	0.995593	0.338861	0.896034	0.312559	0.948984	19.23	788.434	2260.26	2393.82	-70.77	0.0000000E+000	0.0000000E+000	0.0000000E+000	70.77	0.0000000E+000	0.0000000E+000	0.0000000E+000	-70.77	0.0000000E+000	0.0000000E+000	0.0000000E+000	-19.23	0.0000000E+000	0.0000000E+000	0.0000000E+000	19.23	2.86677	70.77	-8.1605e-06	0.000208132	-8.05002e-09	0.00020814	3.88558	72533.8	2.80542	72536.6
39814.1	1.09362	0.356648	1.1503	-18.0621	8.06256	3.88544	0.0514065	11.2084	1.07746	1	9	0.00530316	0.00461023	0	9.35042e-05	0.000307577	1.36044e-05	60.8301	0.0029509	0.00143827	-0.00257667	-17.918	1.15087	1.09505	0.354072	0.826497	0.269536	0.869337	18.0621	1077.46	3303.89	3475.14	-71.9379	0.0000000E+000	0.0000000E+000	0.0000000E+000	71.9379	0.0000000E+000	0.0000000E+000	0.0000000E+000	-71.9379	0.0000000E+000	0.0000000E+000	0.0000000E+000	-18.0621	0.0000000E+000	0.0000000E+000	0.0000000E+000	18.0621	3.06637	71.9379	-1.23822e-06	0.000199737	1.58114e-08	0.000199721	3.88513	75582.6	5.98323	75576.6
25116.9	1.1901	0.378705	1.2489	-17.6518	8.83057	3.88543	0.0528221	16.7322	1.53851	1	9	0.00531254	0.00425377	0	8.6959e-05	0.000174035	9.56149e-06	46.382	0.00224777	0.00155062	-0.00162728	-17.5591	1.24989	1.19165	0.377078	0.763004	0.242798	0.800704	17.6518	1538.51	4834.83	5073.71	-72.3482	0.0000000E+000	0.0000000E+000	0.0000000E+000	72.3482	0.0000000E+000	0.0000000E+000	0.0000000E+000	-72.3482	0.0000000E+000	0.0000000E+000	0.0000000E+000	-17.6518	0.0000000E+000	0.0000000E+000	0.0000000E+000	17.6518	3.14255	72.3482	2.40503e-06	0.000205237	9.19292e-09	0.000205228	3.88526	73556.9	3.29474	73553.6
15847.7	1.28686	0.413545	1.35168	-17.8153	9.47255	3.88543	0.0474575	24.2846	2.27317	1	9	0.00545911	0.00403877	0	9.56909e-05	0.000135881	6.17579e-06	-17.9712	0.00152912	0.00145452	0.000471793	-17.8155	1.3532	1.28831	0.414017	0.704346	0.226349	0.739823	17.8153	2273.17	7073.6	7429.88	-72.1847	0.0000000E+000	0.0000000E+000	0.0000000E+000	72.1847	0.0000000E+000	0.0000000E+000	0.0000000E+000	-72.1847	0.0000000E+000	0.0000000E+000	0.0000000E+000	-17.8153	0.0000000E+000	0.0000000E+000	0.0000000E+000	17.8153	3.11178	72.1847	6.30943e-06	0.000184393	6.44856e-09	0.000184386	3.8853	81871.9	2.86321	81869
10002.2	1.39881	0.467074	1.47473	-18.4646	9.99054	3.88544	0.0541633	34.0673	3.41732	1	9	0.00520676	0.00353065	0	0.000108683	0.000174035	6.40383e-06	-100.421	0.00181378	-0.000328077	0.00178386	-18.5344	1.47498	1.39848	0.468858	0.643183	0.214764	0.678091	18.4646	3417.32	10234.3	10789.8	-71.5354	0.0000000E+000	0.0000000E+000	0.0000000E+000	71.5354	0.0000000E+000	0.0000000E+000	0.0000000E+000	-71.5354	0.0000000E+000	0.0000000E+000	0.0000000E+000	-18.4646	0.0000000E+000	0.0000000E+000	0.0000000E+000	18.4646	2.99483	71.5354	6.44163e-06	0.000210448	9.42632e-09	0.000210438	3.88526	71735.6	3.21316	71732.4
6309.38	1.52824	0.528528	1.61705	-19.0775	10.5086	3.88544	0.0566593	47.7271	5.09864	1	9	0.00492272	0.00304426	0	0.000114374	5.95716e-05	8.34429e-06	8.75459	0.00274099	0.00270906	-0.000417186	-19.0322	1.61947	1.53095	0.528111	0.584445	0.202125	0.61841	19.0775	5098.63	14742.7	15599.5	-70.9225	0.0000000E+000	0.0000000E+000	0.0000000E+000	70.9225	0.0000000E+000	0.0000000E+000	0.0000000E+000	-70.9225	0.0000000E+000	0.0000000E+000	0.0000000E+000	-19.0775	0.0000000E+000	0.0000000E+000	0.0000000E+000	19.0775	2.8915	70.9225	3.41512e-06	0.000220146	3.37528e-09	0.000220143	3.88538	68575.4	1.0514	68574.4
3983.6	1.68634	0.61016	1.79333	-19.8914	11.0711	3.88529	-0.0553273	65.4788	7.57995	1	9	0.00476659	0.00265795	0	0.000115895	0.000364808	1.22166e-05	-36.3256	0.00459625	0.00370303	0.00272269	-19.9328	1.79774	1.69004	0.612882	0.524353	0.189724	0.557621	19.8914	7579.95	20949.2	22278.4	-70.1086	0.0000000E+000	0.0000000E+000	0.0000000E+000	70.1086	0.0000000E+000	0.0000000E+000	0.0000000E+000	-70.1086	0.0000000E+000	0.0000000E+000	0.0000000E+000	-19.8914	0.0000000E+000	0.0000000E+000	0.0000000E+000	19.8914	2.76377	70.1086	-2.85159e-06	-0.000214962	-2.01839e-08	-0.000214942	3.88492	70223.7	6.59365	70217.1
2510.8	1.85823	0.699724	1.9856	-20.6341	11.8958	3.88526	-0.0137514	90.5901	11.2499	1	9	0.00467192	0.0023529	0	0.000110272	2.1417e-05	5.29894e-06	-30.1826	0.00225209	0.00194677	0.00113226	-20.6449	1.98782	1.86017	0.700856	0.471318	0.177477	0.503625	20.6341	11249.9	29875.9	31923.8	-69.3659	0.0000000E+000	0.0000000E+000	0.0000000E+000	69.3659	0.0000000E+000	0.0000000E+000	0.0000000E+000	-69.3659	0.0000000E+000	0.0000000E+000	0.0000000E+000	-20.6341	0.0000000E+000	0.0000000E+000	0.0000000E+000	20.6341	2.65566	69.3659	4.68743e-08	-5.34279e-05	-2.94513e-10	-5.34276e-05	3.88524	282535	1.55744	282534
1585.51	2.0755	0.802554	2.22526	-21.1405	12.7978	3.88526	-0.0140867	125.077	16.2691	1	9	0.00463398	0.00208244	0	0.000106543	9.77262e-05	6.25892e-06	-31.2377	0.00300557	0.00256983	0.00155866	-21.154	2.22822	2.07807	0.804112	0.419141	0.162073	0.449385	21.1405	16269.1	42073.8	45109.8	-68.8595	0.0000000E+000	0.0000000E+000	0.0000000E+000	68.8595	0.0000000E+000	0.0000000E+000	0.0000000E+000	-68.8595	0.0000000E+000	0.0000000E+000	0.0000000E+000	-21.1405	0.0000000E+000	0.0000000E+000	0.0000000E+000	21.1405	2.58612	68.8595	-3.89337e-06	-5.47306e-05	-1.37664e-09	-5.47292e-05	3.88516	275810	6.93747	275803
1000.32	2.32431	0.921037	2.50015	-21.6165	13.6998	3.88527	-0.0121123	172.744	23.4437	1	9	0.0045992	0.00183957	0	0.000101775	0.000326654	6.95506e-06	37.7694	0.00378081	0.00298866	-0.00231569	-21.542	2.50208	2.3273	0.918721	0.371846	0.147348	0.399976	21.6165	23443.7	59162.2	63637.8	-68.3835	0.0000000E+000	0.0000000E+000	0.0000000E+000	68.3835	0.0000000E+000	0.0000000E+000	0.0000000E+000	-68.3835	0.0000000E+000	0.0000000E+000	0.0000000E+000	-21.6165	0.0000000E+000	0.0000000E+000	0.0000000E+000	21.6165	2.52358	68.3835	-2.68846e-06	-4.70594e-05	-3.95651e-09	-4.70554e-05	3.88494	320772	26.9689	320745
631.01	2.65579	1.03587	2.85066	-21.3078	14.6016	3.88526	-0.0167691	243.49	32.1513	1	9	0.00458061	0.00160686	0	9.93388e-05	0.000116803	4.21836e-06	64.7787	0.00262521	0.00111864	-0.00237495	-21.2552	2.85084	2.65691	1.03349	0.326817	0.127472	0.350797	21.3078	32151.3	82430.6	88478.9	-68.6922	0.0000000E+000	0.0000000E+000	0.0000000E+000	68.6922	0.0000000E+000	0.0000000E+000	0.0000000E+000	-68.6922	0.0000000E+000	0.0000000E+000	0.0000000E+000	-21.3078	0.0000000E+000	0.0000000E+000	0.0000000E+000	21.3078	2.56384	68.6922	-8.15678e-07	-6.51521e-05	-1.95868e-09	-6.51502e-05	3.88514	231692	6.96542	231685
398.089	3.04446	1.09265	3.2346	-19.743	15.7488	3.88533	-0.0502731	365.896	41.7525	1	10	0.00458299	0.00141687	0	8.75807e-05	0.00021219	1.62872e-05	7.40015	0.0114952	0.0113994	-0.00148056	-19.6504	3.24483	3.05586	1.09117	0.290984	0.104434	0.309158	19.743	41752.5	116335	123600	-70.257	0.0000000E+000	0.0000000E+000	0.0000000E+000	70.257	0.0000000E+000	0.0000000E+000	0.0000000E+000	-70.257	0.0000000E+000	0.0000000E+000	0.0000000E+000	-19.743	0.0000000E+000	0.0000000E+000	0.0000000E+000	19.743	2.7863	70.257	-5.63822e-06	-0.000195328	-1.06675e-08	-0.000195317	3.88512	77284.4	4.22075	77280.2
251.044	3.461	1.04081	3.61411	-16.7373	16.6471	3.88531	-0.0517751	609.114	50.517	1	10	0.00457883	0.00126693	0	7.40005e-05	-3.5815e-05	1.5588e-05	-9.29633	0.0123037	0.0121421	0.00198755	-16.7122	3.62631	3.47314	1.0428	0.264971	0.0796834	0.276693	16.7373	50517	167984	175416	-73.2627	0.0000000E+000	0.0000000E+000	0.0000000E+000	73.2627	0.0000000E+000	0.0000000E+000	0.0000000E+000	-73.2627	0.0000000E+000	0.0000000E+000	0.0000000E+000	-16.7373	0.0000000E+000	0.0000000E+000	0.0000000E+000	16.7373	3.3253	73.2627	-6.6004e-06	-0.000201162	1.85432e-09	-0.000201164	3.88535	75042.2	0.691742	75042.9
158.428	3.81906	0.893341	3.92216	-13.1657	17.5519	3.88532	-0.0492817	1124.53	58.3384	1	10	0.00457075	0.00116537	0	5.92939e-05	-0.00028382	4.88342e-06	71.4191	0.00419046	0.00133526	-0.00397203	-13.1048	3.92255	3.8204	0.889369	0.24826	0.0580721	0.254962	13.1657	58338.4	249399	256131	-76.8343	0.0000000E+000	0.0000000E+000	0.0000000E+000	76.8343	0.0000000E+000	0.0000000E+000	0.0000000E+000	-76.8343	0.0000000E+000	0.0000000E+000	0.0000000E+000	-13.1657	0.0000000E+000	0.0000000E+000	0.0000000E+000	13.1657	4.27503	76.8343	-6.70742e-06	-0.000191476	1.39871e-08	-0.00019149	3.88561	78839	5.75913	78844.7
100.032	4.07362	0.717102	4.13625	-9.98381	18.4508	3.88531	-0.0500234	2218.71	66.688	1	10	0.00456646	0.00110401	0	4.73921e-05	4.04943e-05	5.71309e-06	-79.1432	0.00517486	0.00097471	0.00508223	-10.0508	4.1381	4.07459	0.722184	0.238104	0.0419147	0.241765	9.98381	66688	378832	384657	-80.0162	0.0000000E+000	0.0000000E+000	0.0000000E+000	80.0162	0.0000000E+000	0.0000000E+000	0.0000000E+000	-80.0162	0.0000000E+000	0.0000000E+000	0.0000000E+000	-9.98381	0.0000000E+000	0.0000000E+000	0.0000000E+000	9.98381	5.68067	80.0162	-6.61952e-06	-0.000194356	-2.02566e-09	-0.000194354	3.88527	77669.8	0.809506	77669
63.0823	4.23539	0.534466	4.26898	-7.19217	19.3679	3.88532	-0.045771	4720.55	73.992	1	10	0.00455827	0.00106777	0	3.49272e-05	-0.000302897	9.75228e-06	-63.8133	0.00913334	0.00403053	0.00819589	-7.29441	4.27401	4.23942	0.542662	0.232405	0.0293273	0.234248	7.19217	73992	586352	591002	-82.8078	0.0000000E+000	0.0000000E+000	0.0000000E+000	82.8078	0.0000000E+000	0.0000000E+000	0.0000000E+000	-82.8078	0.0000000E+000	0.0000000E+000	0.0000000E+000	-7.19217	0.0000000E+000	0.0000000E+000	0.0000000E+000	7.19217	7.92453	82.8078	-5.39406e-06	-0.000177835	1.38639e-08	-0.000177849	3.88562	84886.1	6.61767	84892.8
39.8089	4.35225	0.385096	4.36926	-5.05648	20.2689	3.88531	-0.0511191	10381.8	80.648	1	10	0.00456939	0.0010458	0	2.50475e-05	0.000193113	1.16311e-05	-22.8592	0.0111217	0.0102482	0.00432042	-5.10096	4.37985	4.3625	0.389417	0.227981	0.0201722	0.228872	5.05648	80647.9	911462	915023	-84.9435	0.0000000E+000	0.0000000E+000	0.0000000E+000	84.9435	0.0000000E+000	0.0000000E+000	0.0000000E+000	-84.9435	0.0000000E+000	0.0000000E+000	0.0000000E+000	-5.05648	0.0000000E+000	0.0000000E+000	0.0000000E+000	5.05648	11.3017	84.9435	-5.23115e-06	-0.000198614	-9.87176e-09	-0.000198604	3.88512	76005.1	3.7777	76001.3
25.1044	4.41296	0.27526	4.42154	-3.56921	21.148	3.8853	-0.0500383	23031.8	89.2616	1	10	0.00457267	0.00103418	0	1.29044e-05	5.95716e-05	1.43758e-05	66.4223	0.0139007	0.00556017	-0.0127402	-3.40014	4.42632	4.41853	0.262519	0.225727	0.0140798	0.226165	3.56921	89261.7	1.43104e+06	1.43382e+06	-86.4308	0.0000000E+000	0.0000000E+000	0.0000000E+000	86.4308	0.0000000E+000	0.0000000E+000	0.0000000E+000	-86.4308	0.0000000E+000	0.0000000E+000	0.0000000E+000	-3.56921	0.0000000E+000	0.0000000E+000	0.0000000E+000	3.56921	16.032	86.4308	-6.06312e-06	-0.000194414	-2.98086e-09	-0.000194411	3.88525	77646.6	1.19052	77645.4
15.8576	4.4517	0.221962	4.45723	-2.85441	22.0261	3.88531	-0.052554	45217.3	112.133	1	10	0.0045737	0.00102613	0	4.83283e-06	0.000383886	1.04398e-05	-115.329	0.010174	-0.0043526	0.00919588	-2.97536	4.45335	4.44735	0.231158	0.224076	0.0111725	0.224355	2.85441	112133	2.24895e+06	2.25174e+06	-87.1456	0.0000000E+000	0.0000000E+000	0.0000000E+000	87.1456	0.0000000E+000	0.0000000E+000	0.0000000E+000	-87.1456	0.0000000E+000	0.0000000E+000	0.0000000E+000	-2.85441	0.0000000E+000	0.0000000E+000	0.0000000E+000	2.85441	20.0561	87.1456	-3.43246e-06	-0.000204189	-2.01747e-08	-0.000204169	3.88493	73929.9	7.3046	73922.6
10.0032	4.46962	0.171463	4.47291	-2.19689	23.0078	3.88531	-0.0494495	92792.1	136.355	1	10	0.0045621	0.00101994	0	-1.01448e-05	-3.5815e-05	3.52686e-06	-65.8954	0.00345791	0.00141222	0.00315638	-2.23659	4.47444	4.47104	0.174619	0.223404	0.00857017	0.223568	2.19689	136355	3.55444e+06	3.55706e+06	-87.8031	0.0000000E+000	0.0000000E+000	0.0000000E+000	87.8031	0.0000000E+000	0.0000000E+000	0.0000000E+000	-87.8031	0.0000000E+000	0.0000000E+000	0.0000000E+000	-2.19689	0.0000000E+000	0.0000000E+000	0.0000000E+000	2.19689	26.0676	87.8031	-4.9918e-06	-0.000192127	1.77103e-09	-0.000192128	3.88535	78571.3	0.724274	78572
6.31058	4.49315	0.16481	4.49617	-2.10069	23.9313	3.88533	-0.044146	153026	205.613	1	10	0.00456006	0.00101421	0	-1.30843e-05	0.000250345	8.90664e-06	93.6389	0.00878186	-0.000557363	-0.00876416	-1.98932	4.4953	4.49259	0.156046	0.222262	0.00815266	0.222412	2.10069	205613	5.60552e+06	5.60929e+06	-87.8993	0.0000000E+000	0.0000000E+000	0.0000000E+000	87.8993	0.0000000E+000	0.0000000E+000	0.0000000E+000	-87.8993	0.0000000E+000	0.0000000E+000	0.0000000E+000	-2.10069	0.0000000E+000	0.0000000E+000	0.0000000E+000	2.10069	27.2625	87.8993	3.54102e-06	-0.000171522	-1.10517e-08	-0.000171511	3.88508	88010.8	5.67083	88005.1
3.97785	4.52799	0.165694	4.53102	-2.0957	24.9383	3.88535	-0.0340386	241471	322.913	1	10	0.00456534	0.00100757	0	-4.00982e-05	-9.30469e-05	5.98451e-06	113.562	0.00593953	-0.00237424	-0.00544435	-2.02796	4.52845	4.52562	0.160249	0.220553	0.00807074	0.220701	2.0957	322913	8.82439e+06	8.8303e+06	-87.9043	0.0000000E+000	0.0000000E+000	0.0000000E+000	87.9043	0.0000000E+000	0.0000000E+000	0.0000000E+000	-87.9043	0.0000000E+000	0.0000000E+000	0.0000000E+000	-2.0957	0.0000000E+000	0.0000000E+000	0.0000000E+000	2.0957	27.3275	87.9043	-1.23467e-05	-0.000132252	3.16718e-09	-0.000132255	3.88544	114145	2.73357	114148
2.51367	4.55572	0.175443	4.55909	-2.2054	26.4979	3.88535	-0.0312707	360890	534.428	1	10	0.00456647	0.00100162	0	-2.96125e-05	-0.000150279	7.8237e-06	67.6999	0.00781107	0.00296397	-0.00722687	-2.11326	4.56178	4.55868	0.168216	0.219179	0.0084407	0.219342	2.2054	534429	1.38775e+07	1.38878e+07	-87.7946	0.0000000E+000	0.0000000E+000	0.0000000E+000	87.7946	0.0000000E+000	0.0000000E+000	0.0000000E+000	-87.7946	0.0000000E+000	0.0000000E+000	0.0000000E+000	-2.2054	0.0000000E+000	0.0000000E+000	0.0000000E+000	2.2054	25.967	87.7946	7.77985e-06	-0.000121498	4.69932e-09	-0.000121502	3.8855	124249	4.80574	124254
1.58469	4.59605	0.210498	4.60087	-2.6223	29.6103	3.88536	-0.0281155	477121	998.723	1	11	0.00456505	0.000992214	0	-7.08881e-05	-3.5815e-05	2.96025e-06	-49.9288	0.00298348	0.00192058	0.00228309	-2.6496	4.6029	4.59798	0.212781	0.217122	0.00994416	0.21735	2.6223	998722	2.18063e+07	2.18292e+07	-87.3777	0.0000000E+000	0.0000000E+000	0.0000000E+000	87.3777	0.0000000E+000	0.0000000E+000	0.0000000E+000	-87.3777	0.0000000E+000	0.0000000E+000	0.0000000E+000	-2.6223	0.0000000E+000	0.0000000E+000	0.0000000E+000	2.6223	21.8342	87.3777	-3.54335e-05	-0.000109239	1.00695e-09	-0.00010924	3.8854	138193	1.27385	138194
1.00469	4.65055	0.25213	4.65738	-3.10326	240.427	3.88533	-0.0220513	628292	1841.31	1	11	0.00500938	0.00107558	0	-0.0051856	0.000269422	5.38061e-07	9.3587	0.000500252	0.000493594	-8.13484e-05	-3.10193	4.65787	4.65104	0.252049	0.214398	0.0116236	0.214713	3.10326	1.84131e+06	3.39631e+07	3.4013e+07	-86.8967	0.0000000E+000	0.0000000E+000	0.0000000E+000	86.8967	0.0000000E+000	0.0000000E+000	0.0000000E+000	-86.8967	0.0000000E+000	0.0000000E+000	0.0000000E+000	-3.10326	0.0000000E+000	0.0000000E+000	0.0000000E+000	3.10326	18.445	86.8967	-0.0050803	-8.56767e-05	-5.94111e-09	-8.56707e-05	3.88506	176195	12.2179	176182
0.632957	4.70798	0.325294	4.7192	-3.95252	240.428	3.88533	-0.0220513	772983	3672.69	1	11	0.00502179	0.00106412	0	-0.0051856	0.000269422	3.56941e-07	-8.95284	0.000335434	0.000331347	5.22006e-05	-3.95288	4.71954	4.70831	0.325346	0.211396	0.0146062	0.2119	3.95252	3.67269e+06	5.31549e+07	5.32816e+07	-86.0475	0.0000000E+000	0.0000000E+000	0.0000000E+000	86.0475	0.0000000E+000	0.0000000E+000	0.0000000E+000	-86.0475	0.0000000E+000	0.0000000E+000	0.0000000E+000	-3.95252	0.0000000E+000	0.0000000E+000	0.0000000E+000	3.95252	14.473	86.0475	0.000000000000000E+000	-8.56767e-05	-5.94111e-09	-8.56707e-05	3.88506	176195	12.2179	176182
0.401878	4.77074	0.424959	4.78963	-5.09025	240.429	3.88533	-0.0220513	931922	7336.18	1	11	0.00503459	0.00105114	0	-0.0051856	0.000269422	3.6999e-07	-45.3009	0.000351988	0.000247582	0.000250197	-5.09297	4.7899	4.77098	0.425209	0.207961	0.0185244	0.208785	5.09025	7.33619e+06	8.23585e+07	8.26846e+07	-84.9097	0.0000000E+000	0.0000000E+000	0.0000000E+000	84.9097	0.0000000E+000	0.0000000E+000	0.0000000E+000	-84.9097	0.0000000E+000	0.0000000E+000	0.0000000E+000	-5.09025	0.0000000E+000	0.0000000E+000	0.0000000E+000	5.09025	11.2263	84.9097	0.000000000000000E+000	-8.56767e-05	-5.94111e-09	-8.56707e-05	3.88506	176195	12.2179	176182
0.251173	4.88683	0.565719	4.91947	-6.60339	240.429	3.88533	-0.0220513	1.12007e+06	14811.9	1	11	0.00503632	0.00102375	0	-0.0051856	0.000269422	3.52292e-07	-6.4814	0.000344118	0.000341919	3.88443e-05	-6.60339	4.91981	4.88717	0.565758	0.201926	0.0233757	0.203274	6.60339	1.48119e+07	1.27949e+08	1.28804e+08	-83.3966	0.0000000E+000	0.0000000E+000	0.0000000E+000	83.3966	0.0000000E+000	0.0000000E+000	0.0000000E+000	-83.3966	0.0000000E+000	0.0000000E+000	0.0000000E+000	-6.60339	0.0000000E+000	0.0000000E+000	0.0000000E+000	6.60339	8.63827	83.3966	0.000000000000000E+000	-8.56767e-05	-5.94111e-09	-8.56707e-05	3.88506	176195	12.2179	176182
0.160751	5.04185	0.690246	5.08888	-7.79552	240.43	3.88533	-0.0220513	1.43438e+06	26389.2	1	11	0.00503162	0.000988749	0	-0.0051856	0.000269422	6.69792e-07	13.2822	0.000677414	0.000659293	-0.000155634	-7.79277	5.08951	5.04251	0.69009	0.194691	0.0266538	0.196507	7.79552	2.63892e+07	1.92758e+08	1.94556e+08	-82.2045	0.0000000E+000	0.0000000E+000	0.0000000E+000	82.2045	0.0000000E+000	0.0000000E+000	0.0000000E+000	-82.2045	0.0000000E+000	0.0000000E+000	0.0000000E+000	-7.79552	0.0000000E+000	0.0000000E+000	0.0000000E+000	7.79552	7.30443	82.2045	0.000000000000000E+000	-8.56767e-05	-5.94111e-09	-8.56707e-05	3.88506	176195	12.2179	176182
0.100469	5.22301	0.931123	5.30536	-10.1081	240.431	3.88533	-0.0220513	1.70129e+06	52404	1	11	0.00503397	0.000948847	0	-0.0051856	0.000269422	6.56462e-07	-20.4439	0.000691853	0.000648276	0.000241657	-10.1095	5.30604	5.22366	0.931364	0.185563	0.0330809	0.188489	10.1081	5.2404e+07	2.93953e+08	2.98588e+08	-79.8919	0.0000000E+000	0.0000000E+000	0.0000000E+000	79.8919	0.0000000E+000	0.0000000E+000	0.0000000E+000	-79.8919	0.0000000E+000	0.0000000E+000	0.0000000E+000	-10.1081	0.0000000E+000	0.0000000E+000	0.0000000E+000	10.1081	5.60937	79.8919	0.000000000000000E+000	-8.56767e-05	-5.94111e-09	-8.56707e-05	3.88506	176195	12.2179	176182
0.0602816	5.5379	1.12647	5.65131	-11.4977	240.432	3.88533	-0.0220513	2.34377e+06	93123	1	11	0.00503008	0.000890073	0	-0.0051856	0.000269422	6.77275e-07	4.76306	0.000760921	0.000758293	-6.31833e-05	-11.4956	5.65204	5.53866	1.12641	0.173399	0.0352713	0.17695	11.4977	9.3123e+07	4.57807e+08	4.67182e+08	-78.5023	0.0000000E+000	0.0000000E+000	0.0000000E+000	78.5023	0.0000000E+000	0.0000000E+000	0.0000000E+000	-78.5023	0.0000000E+000	0.0000000E+000	0.0000000E+000	-11.4977	0.0000000E+000	0.0000000E+000	0.0000000E+000	11.4977	4.91615	78.5023	0.000000000000000E+000	-8.56767e-05	-5.94111e-09	-8.56707e-05	3.88506	176195	12.2179	176182
0.0401878	5.88459	1.31238	6.02916	-12.5724	240.432	3.88533	-0.0220513	3.01763e+06	142979	1	11	0.005029	0.000834113	0	-0.0051856	0.000269422	6.30225e-07	-9.36434	0.000755563	0.000745494	0.000122939	-12.572	6.02991	5.88533	1.3125	0.161884	0.0361033	0.165861	12.5724	1.42979e+08	6.41105e+08	6.56856e+08	-77.4276	0.0000000E+000	0.0000000E+000	0.0000000E+000	77.4276	0.0000000E+000	0.0000000E+000	0.0000000E+000	-77.4276	0.0000000E+000	0.0000000E+000	0.0000000E+000	-12.5724	0.0000000E+000	0.0000000E+000	0.0000000E+000	12.5724	4.4839	77.4276	0.000000000000000E+000	-8.56767e-05	-5.94111e-09	-8.56707e-05	3.88506	176195	12.2179	176182
0.0200939	6.59629	1.8095	6.83998	-15.3401	240.433	3.88533	-0.0220513	4.37722e+06	306341	1	11	0.00503101	0.00073553	0	-0.0051856	0.000269422	1.13714e-06	-105.685	0.00154601	-0.000417972	0.00148844	-15.353	6.83997	6.59587	1.81099	0.140991	0.0386766	0.146199	15.3401	3.06341e+08	1.11673e+09	1.15798e+09	-74.6599	0.0000000E+000	0.0000000E+000	0.0000000E+000	74.6599	0.0000000E+000	0.0000000E+000	0.0000000E+000	-74.6599	0.0000000E+000	0.0000000E+000	0.0000000E+000	-15.3401	0.0000000E+000	0.0000000E+000	0.0000000E+000	15.3401	3.64537	74.6599	0.000000000000000E+000	-8.56767e-05	-5.94111e-09	-8.56707e-05	3.88506	176195	12.2179	176182
0.00796479	7.93216	2.16191	8.2215	-15.2456	20329.3	3.88534	0.000801818	9.24292e+06	639118	1	11	0.00502255	0.000610905	0	-0.0621202	-1.67377e-05	4.53212e-07	-11.4365	0.00074187	0.00072714	0.0001471	-15.2453	8.22224	7.93289	2.16205	0.117352	0.0319842	0.121632	15.2456	6.39118e+08	2.34496e+09	2.4305e+09	-74.7544	0.0000000E+000	0.0000000E+000	0.0000000E+000	74.7544	0.0000000E+000	0.0000000E+000	0.0000000E+000	-74.7544	0.0000000E+000	0.0000000E+000	0.0000000E+000	-15.2456	0.0000000E+000	0.0000000E+000	0.0000000E+000	15.2456	3.66906	74.7544	-0.0569346	3.11534e-06	-1.34206e-11	3.11535e-06	3.88536	4.84567e+06	20.8746	4.84569e+06
0.00497799	8.52176	2.36215	8.84308	-15.4928	20329.3	3.88534	0.000801818	1.3535e+07	965751	1	11	0.00503023	0.000568832	0	-0.0621202	-1.67377e-05	4.3465e-07	-27.6793	0.000764109	0.000676665	0.000354946	-15.4939	8.84383	8.52244	2.3625	0.108974	0.0302064	0.113083	15.4928	9.65751e+08	3.48408e+09	3.61545e+09	-74.5072	0.0000000E+000	0.0000000E+000	0.0000000E+000	74.5072	0.0000000E+000	0.0000000E+000	0.0000000E+000	-74.5072	0.0000000E+000	0.0000000E+000	0.0000000E+000	-15.4928	0.0000000E+000	0.0000000E+000	0.0000000E+000	15.4928	3.60764	74.5072	0.000000000000000E+000	3.11534e-06	-1.34206e-11	3.11535e-06	3.88536	4.84567e+06	20.8746	4.84569e+06
0.00318591	8.9582	3.07068	9.46987	-18.9206	20329.3	3.88534	0.000801818	1.62687e+07	1.71053e+06	1	11	0.00503189	0.000531358	0	-0.0621202	-1.67377e-05	4.54743e-07	-46.299	0.000855814	0.000591278	0.000618714	-18.923	9.47063	8.95879	3.07129	0.0998925	0.034241	0.105598	18.9206	1.71053e+09	4.99021e+09	5.27524e+09	-71.0794	0.0000000E+000	0.0000000E+000	0.0000000E+000	71.0794	0.0000000E+000	0.0000000E+000	0.0000000E+000	-71.0794	0.0000000E+000	0.0000000E+000	0.0000000E+000	-18.9206	0.0000000E+000	0.0000000E+000	0.0000000E+000	18.9206	2.91734	71.0794	0.000000000000000E+000	3.11534e-06	-1.34206e-11	3.11535e-06	3.88536	4.84567e+06	20.8746	4.84569e+06
0.0019912	9.32326	3.77051	10.0568	-22.0194	20329.3	3.88534	0.000801818	2.11986e+07	2.97978e+06	1	11	0.00503553	0.000500707	0	-0.0621202	-1.67377e-05	8.21196e-07	-39.7475	0.00164007	0.001261	0.00104867	-22.0222	10.0584	9.32452	3.77156	0.0921819	0.0372801	0.0994349	22.0194	2.97978e+09	7.36803e+09	7.94776e+09	-67.9806	0.0000000E+000	0.0000000E+000	0.0000000E+000	67.9806	0.0000000E+000	0.0000000E+000	0.0000000E+000	-67.9806	0.0000000E+000	0.0000000E+000	0.0000000E+000	-22.0194	0.0000000E+000	0.0000000E+000	0.0000000E+000	22.0194	2.47268	67.9806	0.000000000000000E+000	3.11534e-06	-1.34206e-11	3.11535e-06	3.88536	4.84567e+06	20.8746	4.84569e+06
0.00129428	9.10319	5.05829	10.4141	-29.0592	20329.3	3.88534	0.000801818	2.43102e+07	5.73521e+06	1	11	0.00503442	0.000483421	0	-0.0621202	-1.67377e-05	2.53195e-07	79.9674	0.000523757	9.12429e-05	-0.000515748	-29.0565	10.414	9.10328	5.05778	0.0839356	0.0466398	0.0960232	29.0592	5.73521e+09	1.03214e+10	1.18078e+10	-60.9408	0.0000000E+000	0.0000000E+000	0.0000000E+000	60.9408	0.0000000E+000	0.0000000E+000	0.0000000E+000	-60.9408	0.0000000E+000	0.0000000E+000	0.0000000E+000	-29.0592	0.0000000E+000	0.0000000E+000	0.0000000E+000	29.0592	1.79966	60.9408	0.000000000000000E+000	3.11534e-06	-1.34206e-11	3.11535e-06	3.88536	4.84567e+06	20.8746	4.84569e+06
0.000796479	10.0396	7.5367	12.5537	-36.8955	20329.3	3.88534	0.000801818	2.65134e+07	9.55618e+06	1	11	0.00503555	0.000401121	0	-0.0621202	-1.67377e-05	7.0805e-07	-43.5708	0.00176518	0.00127891	0.00121665	-36.8964	12.5554	10.0409	7.53791	0.0637049	0.0478232	0.0796579	36.8955	9.55618e+09	1.27297e+10	1.59175e+10	-53.1045	0.0000000E+000	0.0000000E+000	0.0000000E+000	53.1045	0.0000000E+000	0.0000000E+000	0.0000000E+000	-53.1045	0.0000000E+000	0.0000000E+000	0.0000000E+000	-36.8955	0.0000000E+000	0.0000000E+000	0.0000000E+000	36.8955	1.33209	53.1045	0.000000000000000E+000	3.11534e-06	-1.34206e-11	3.11535e-06	3.88536	4.84567e+06	20.8746	4.84569e+06
0.000497799	10.1376	10.6321	14.6905	-46.364	20329.3	3.88534	0.000801818	3.00709e+07	1.57511e+07	1	11	0.00503722	0.000342889	0	-0.0621202	-1.67377e-05	5.57686e-07	1.11936	0.00162644	0.00162612	-3.17729e-05	-46.3593	14.6916	10.1392	10.6321	0.046974	0.0492656	0.068071	46.364	1.57511e+10	1.50184e+10	2.17635e+10	-43.636	0.0000000E+000	0.0000000E+000	0.0000000E+000	43.636	0.0000000E+000	0.0000000E+000	0.0000000E+000	-43.636	0.0000000E+000	0.0000000E+000	0.0000000E+000	-46.364	0.0000000E+000	0.0000000E+000	0.0000000E+000	46.364	0.953485	43.636	0.000000000000000E+000	3.11534e-06	-1.34206e-11	3.11535e-06	3.88536	4.84567e+06	20.8746	4.84569e+06
0.000298679	9.42547	16.697	19.1737	-60.5553	20329.3	3.88534	0.000801818	3.19136e+07	2.42015e+07	1	11	0.00504221	0.000262976	0	-0.0621202	-1.67377e-05	5.79544e-07	52.6512	0.00220379	0.00133697	-0.00175192	-60.5492	19.1728	9.42681	16.6953	0.0256385	0.045418	0.0521548	60.5553	2.42015e+10	1.36618e+10	2.77913e+10	-29.4447	0.0000000E+000	0.0000000E+000	0.0000000E+000	29.4447	0.0000000E+000	0.0000000E+000	0.0000000E+000	-29.4447	0.0000000E+000	0.0000000E+000	0.0000000E+000	-60.5553	0.0000000E+000	0.0000000E+000	0.0000000E+000	60.5553	0.5645	29.4447	0.000000000000000E+000	3.11534e-06	-1.34206e-11	3.11535e-06	3.88536	4.84567e+06	20.8746	4.84569e+06
9.95598e-05	6.52096	73.7551	74.0428	-84.9474	20329.3	3.88534	0.000801818	2.16742e+07	2.15061e+07	1	11	0.00502973	6.79299e-05	0	-0.0621202	-1.67377e-05	2.05402e-06	-95.7395	0.0302373	-0.00302389	0.0300858	-84.9518	74.0725	6.51793	73.7852	0.00118945	0.0134532	0.0135057	84.9474	2.15061e+10	1.90143e+09	2.159e+10	-5.05259	0.0000000E+000	0.0000000E+000	0.0000000E+000	5.05259	0.0000000E+000	0.0000000E+000	0.0000000E+000	-5.05259	0.0000000E+000	0.0000000E+000	0.0000000E+000	-84.9474	0.0000000E+000	0.0000000E+000	0.0000000E+000	84.9474	0.0884136	5.05258	0.000000000000000E+000	3.11534e-06	-1.34206e-11	3.11535e-06	3.88536	4.84567e+06	20.8746	4.84569e+06