File: txt/18348_R257_UA646_SOC00_C03.mpt
EC-Lab ASCII FILE
Nb header lines : 65

Potentio Electrochemical Impedance Spectroscopy

Run on channel : 3 (SN 65921)
User :
CE vs. WE compliance from -10 V to 10 V
Electrode connection : standard
Potential control : Ewe
Ewe ctrl range : min = -10.00 V, max = 10.00 V
Safety Limits :
	Do not start on E overload
Acquisition started on : 10/13/2025 14:39:47.632
Technique started on : 10/13/2025 14:39:49.359
Loaded Setting File :  C:\Users\Celltest\OneDrive - store-dot.com\Documents\EC-Lab\Data\@Biologic Test Protocols\anode half cell EIS SOC00.mps
Saved on :
	File : 18348_R257_UA646_SOC00_C03.mpr
	Directory : C:\Users\Celltest\OneDrive - store-dot.com\Documents\EC-Lab\Data\John\
	Host : 169.254.61.224
Device : VMP-3e (SN .003165)
Address : USB
EC-LAB for windows v11.62 (software)
Internet server v27.00 (firmware)
Command interpretor v12.03 (firmware)
Electrode material :
Initial state :
Electrolyte :
Comments :
Electrode surface area : 0.001 cm²
Characteristic mass : 0.001 g
Equivalent Weight : 0.000 g/eq.
Density : 0.000 g/cm3
Volume (V) : 0.001 cm³
Record Ece
Cycle Definition : Charge/Discharge alternance
Mode                Single sine
E (V)               0.0000
vs.                 Eoc
tE (h:m:s)          0:00:0.0000
record              0
dI                  0.000
unit dI             mA
dt (s)              0.000
fi                  100.000
unit fi             kHz
ff                  10.000
unit ff             mHz
Nd                  6
Points              per decade
spacing             Logarithmic
Va (mV)             5.0
pw                  0.10
Na                  2
corr                0
E range min (V)     -10.000
E range max (V)     10.000
I Range             Auto
Bandwidth           5
nc cycles           0
goto Ns'            0
nr cycles           0
inc. cycle          0

freq/Hz	Re(Z)/Ohm	-Im(Z)/Ohm	|Z|/Ohm	Phase(Z)/deg	time/s	<Ewe>/V	<I>/mA	Cs/µF	Cp/µF	cycle number	I Range	|Ewe|/V	|I|/A	Ns	(Q-Qo)/mA.h	<Ece>/V	|Ece|/V	Phase(Zce)/deg	|Zce|/Ohm	Re(Zce)/Ohm	-Im(Zce)/Ohm	Phase(Zwe-ce)/deg	|Zwe-ce|/Ohm	Re(Zwe-ce)/Ohm	-Im(Zwe-ce)/Ohm	Re(Y)/Ohm-1	Im(Y)/Ohm-1	|Y|/Ohm-1	Phase(Y)/deg	Re(C)/nF	Im(C)/nF	|C|/nF	Phase(C)/deg	Re(M)	Im(M)	|M|	Phase(M)/deg	Re(Permittivity)	Im(Permittivity)	|Permittivity|	Phase(Permittivity)/deg	Re(Resistivity)/Ohm.cm	Im(Resistivity)/Ohm.cm	|Resistivity|/Ohm.cm	Phase(Resistivity)/deg	Re(Conductivity)/mS/cm	Im(Conductivity)/mS/cm	|Conductivity|/mS/cm	Phase(Conductivity)/deg	Tan(Delta)	Loss Angle(Delta)/deg	dq/mA.h	Pwe/W	Pce/W	Pwe-ce/W	<Ewe-Ece>/V	Rwe/Ohm	Rce/Ohm	Rwe-ce/Ohm		Ewe-Ece/V
100004	1.34407	0.513532	1.43883	-20.9105	1.72655	0.251289	0.0106223	3.09911	0.394777	1	9	0.00472939	0.00328696	0	-3.70046e-06	-0.000137797	3.29042e-05	98.5827	0.0100105	-0.00149394	-0.00989841	-20.5623	1.43393	1.34257	0.503633	0.649235	0.248055	0.695009	20.9105	394.777	1033.25	1106.1	-69.0895	0.0000000E+000	0.0000000E+000	0.0000000E+000	69.0895	0.0000000E+000	0.0000000E+000	0.0000000E+000	-69.0895	0.0000000E+000	0.0000000E+000	0.0000000E+000	-20.9105	0.0000000E+000	0.0000000E+000	0.0000000E+000	20.9105	2.6173	69.0895	-3.70046e-06	2.66926e-06	-1.46372e-09	2.67073e-06	0.251427	23656.8	12.9725	23669.7
68132	1.48308	0.60491	1.6017	-22.1893	2.23354	0.251288	0.00625894	3.8617	0.550804	1	9	0.00505394	0.00315536	0	2.34408e-06	-8.05151e-05	2.52766e-05	73.5845	0.00801068	0.00226383	-0.00768415	-21.904	1.60091	1.48534	0.597226	0.578099	0.235792	0.624337	22.1893	550.804	1350.43	1458.44	-67.8107	0.0000000E+000	0.0000000E+000	0.0000000E+000	67.8107	0.0000000E+000	0.0000000E+000	0.0000000E+000	-67.8107	0.0000000E+000	0.0000000E+000	0.0000000E+000	-22.1893	0.0000000E+000	0.0000000E+000	0.0000000E+000	22.1893	2.45174	67.8107	6.04454e-06	1.57279e-06	-5.03939e-10	1.5733e-06	0.251368	40148.6	12.864	40161.5
46420.4	1.64946	0.672353	1.78123	-22.1768	2.74053	0.251265	0.00282792	5.09935	0.726559	1	9	0.00510357	0.0028652	0	2.13515e-05	-6.1421e-05	1.73703e-05	44.9929	0.0060625	0.00428737	-0.0042863	-21.9973	1.78359	1.65374	0.668067	0.51988	0.211914	0.561411	22.1768	726.559	1782.44	1924.83	-67.8232	0.0000000E+000	0.0000000E+000	0.0000000E+000	67.8232	0.0000000E+000	0.0000000E+000	0.0000000E+000	-67.8232	0.0000000E+000	0.0000000E+000	0.0000000E+000	-22.1768	0.0000000E+000	0.0000000E+000	0.0000000E+000	22.1768	2.45326	67.8232	1.90074e-05	7.10558e-07	-1.73694e-10	7.10731e-07	0.251326	88851.4	21.7195	88873.1
31621.1	1.8086	0.755777	1.96016	-22.6791	3.24953	0.251283	0.00957805	6.65961	0.990042	1	9	0.00508879	0.00259611	0	3.86161e-05	-9.96091e-05	1.37554e-05	-0.535354	0.00529846	0.00529823	4.95065e-05	-22.6209	1.96507	1.8139	0.755827	0.470716	0.196703	0.510163	22.6791	990.042	2369.2	2567.74	-67.3209	0.0000000E+000	0.0000000E+000	0.0000000E+000	67.3209	0.0000000E+000	0.0000000E+000	0.0000000E+000	-67.3209	0.0000000E+000	0.0000000E+000	0.0000000E+000	-22.6791	0.0000000E+000	0.0000000E+000	0.0000000E+000	22.6791	2.39303	67.3209	1.72646e-05	2.4068e-06	-9.54061e-10	2.40776e-06	0.251383	26235.3	10.3997	26245.7
21544.7	2.00176	0.838582	2.17031	-22.7299	3.51052	0.251276	0.00420776	8.80916	1.31517	1	9	0.0046616	0.00214789	0	3.80821e-05	-4.13882e-06	8.73504e-06	24.4127	0.0040668	0.00370319	-0.00168083	-22.6513	2.17308	2.00546	0.836901	0.424978	0.178033	0.460763	22.7299	1315.17	3139.4	3403.75	-67.2701	0.0000000E+000	0.0000000E+000	0.0000000E+000	67.2701	0.0000000E+000	0.0000000E+000	0.0000000E+000	-67.2701	0.0000000E+000	0.0000000E+000	0.0000000E+000	-22.7299	0.0000000E+000	0.0000000E+000	0.0000000E+000	22.7299	2.38708	67.2701	-5.33973e-07	1.05731e-06	-1.74151e-11	1.05733e-06	0.25128	59717.3	0.983615	59718.3
14678.6	2.19564	0.924542	2.38235	-22.835	3.89356	0.251292	0.00215661	11.7276	1.76624	1	9	0.00487901	0.00204798	0	3.63525e-05	9.13315e-05	1.13872e-05	-78.7717	0.00556021	0.00108268	0.00545379	-22.9457	2.38547	2.19672	0.929996	0.386855	0.162897	0.419753	22.835	1766.24	4194.54	4551.24	-67.1649	0.0000000E+000	0.0000000E+000	0.0000000E+000	67.1649	0.0000000E+000	0.0000000E+000	0.0000000E+000	-67.1649	0.0000000E+000	0.0000000E+000	0.0000000E+000	-22.835	0.0000000E+000	0.0000000E+000	0.0000000E+000	22.835	2.37484	67.1649	-1.72964e-06	5.41937e-07	1.96966e-10	5.4174e-07	0.2512	116522	42.3496	116479
10002.2	2.4237	1.02657	2.63215	-22.9553	4.27652	0.251277	0.0045061	15.5001	2.35772	1	9	0.00494966	0.00188047	0	3.72803e-05	0.000301366	5.24789e-06	10.2222	0.00279074	0.00274644	-0.000495264	-22.9221	2.63448	2.42645	1.02607	0.349832	0.148173	0.379918	22.9553	2357.72	5566.52	6045.24	-67.0447	0.0000000E+000	0.0000000E+000	0.0000000E+000	67.0447	0.0000000E+000	0.0000000E+000	0.0000000E+000	-67.0447	0.0000000E+000	0.0000000E+000	0.0000000E+000	-22.9553	0.0000000E+000	0.0000000E+000	0.0000000E+000	22.9553	2.36097	67.0447	9.27828e-07	1.13228e-06	1.35799e-09	1.13092e-06	0.250975	55763.7	66.8797	55696.9
6810.42	2.64158	1.1423	2.87799	-23.3851	4.53554	0.251273	0.0061843	20.4582	3.22291	1	9	0.00471573	0.00163855	0	3.7182e-05	-0.00029055	2.50429e-05	-110.301	0.0152836	-0.00530272	0.0143342	-23.6888	2.87885	2.63628	1.15663	0.318924	0.137912	0.347465	23.3851	3222.91	7453.03	8120.02	-66.6149	0.0000000E+000	0.0000000E+000	0.0000000E+000	66.6149	0.0000000E+000	0.0000000E+000	0.0000000E+000	-66.6149	0.0000000E+000	0.0000000E+000	0.0000000E+000	-23.3851	0.0000000E+000	0.0000000E+000	0.0000000E+000	23.3851	2.31252	66.6149	-9.83267e-08	1.55395e-06	-1.79685e-09	1.55575e-06	0.251564	40630.9	46.9819	40677.9
4646	2.90042	1.27744	3.16927	-23.7702	4.80164	0.251242	-0.00992654	26.8164	4.35675	1	9	0.00461068	0.00145481	0	3.64632e-05	0.000110426	1.26282e-05	-22.3098	0.00868029	0.00803052	0.00329517	-23.7663	3.17795	2.90845	1.28073	0.288764	0.127181	0.31553	23.7702	4356.75	9891.98	10808.9	-66.2298	0.0000000E+000	0.0000000E+000	0.0000000E+000	66.2298	0.0000000E+000	0.0000000E+000	0.0000000E+000	-66.2298	0.0000000E+000	0.0000000E+000	0.0000000E+000	-23.7702	0.0000000E+000	0.0000000E+000	0.0000000E+000	23.7702	2.2705	66.2298	-7.18789e-07	-2.49396e-06	-1.09614e-09	-2.49287e-06	0.251132	25310.2	11.1243	25299
3163.08	3.20554	1.4847	3.53268	-24.852	5.17362	0.251047	-0.0307736	33.89	5.98604	1	9	0.00453943	0.00128498	0	3.39734e-05	1.49552e-05	7.13692e-06	-22.5967	0.00555409	0.00512772	0.00213411	-24.8484	3.53823	3.21067	1.48683	0.256858	0.118968	0.283071	24.852	5986.04	12924.2	14243.1	-65.148	0.0000000E+000	0.0000000E+000	0.0000000E+000	65.148	0.0000000E+000	0.0000000E+000	0.0000000E+000	-65.148	0.0000000E+000	0.0000000E+000	0.0000000E+000	-24.852	0.0000000E+000	0.0000000E+000	0.0000000E+000	24.852	2.15905	65.148	-2.48976e-06	-7.72562e-06	-4.60228e-10	-7.72516e-06	0.251032	8157.84	0.485976	8157.36
2155.69	3.47945	1.69131	3.86873	-25.9237	5.87081	0.251213	-0.0157029	43.6526	8.34295	1	10	0.00467133	0.00120746	0	3.95646e-05	-8.05151e-05	4.23119e-06	-19.3472	0.00350421	0.00330633	0.00116092	-25.9178	3.87221	3.48275	1.69247	0.232473	0.113002	0.258483	25.9237	8342.95	17163.5	19083.8	-64.0763	0.0000000E+000	0.0000000E+000	0.0000000E+000	64.0763	0.0000000E+000	0.0000000E+000	0.0000000E+000	-64.0763	0.0000000E+000	0.0000000E+000	0.0000000E+000	-25.9237	0.0000000E+000	0.0000000E+000	0.0000000E+000	25.9237	2.05725	64.0763	5.59117e-06	-3.94479e-06	1.26432e-09	-3.94605e-06	0.251294	15997.8	5.12739	16003
1468.59	3.81275	1.97333	4.29314	-27.3643	6.32209	0.25122	-0.0162287	54.9186	11.603	1	10	0.00461131	0.00107411	0	3.71153e-05	-0.000195079	1.03223e-05	-79.031	0.00961013	0.00182859	0.00943456	-27.4648	4.29911	3.81458	1.98277	0.206865	0.107065	0.23293	27.3643	11603	22418.5	25243.2	-62.6357	0.0000000E+000	0.0000000E+000	0.0000000E+000	62.6357	0.0000000E+000	0.0000000E+000	0.0000000E+000	-62.6357	0.0000000E+000	0.0000000E+000	0.0000000E+000	-27.3643	0.0000000E+000	0.0000000E+000	0.0000000E+000	27.3643	1.93214	62.6357	-2.44928e-06	-4.07697e-06	3.16589e-09	-4.08014e-06	0.251415	15479.9	12.0206	15492
1000.32	4.18659	2.35018	4.80114	-29.3081	6.77283	0.251221	-0.015606	67.6985	16.2216	1	10	0.00457724	0.000953367	0	3.45735e-05	0.00012952	2.269e-05	49.918	0.0237998	0.0153243	-0.0182098	-29.0293	4.80564	4.20191	2.33197	0.181624	0.101956	0.208284	29.3081	16221.6	28897.1	33138.8	-60.6919	0.0000000E+000	0.0000000E+000	0.0000000E+000	60.6919	0.0000000E+000	0.0000000E+000	0.0000000E+000	-60.6919	0.0000000E+000	0.0000000E+000	0.0000000E+000	-29.3081	0.0000000E+000	0.0000000E+000	0.0000000E+000	29.3081	1.78139	60.6919	-2.54178e-06	-3.92055e-06	-2.02128e-09	-3.91853e-06	0.251091	16097.7	8.29935	16089.4
681.09	4.59768	2.87002	5.41994	-31.9737	7.22352	0.251219	-0.0154979	81.42	22.8303	1	10	0.00453605	0.000836919	0	3.25768e-05	-0.000252362	9.43714e-06	87.6408	0.0112761	0.000464169	-0.0112665	-31.8699	5.41437	4.59815	2.85875	0.156513	0.0977004	0.184504	31.9737	22830.3	36573.5	43114.3	-58.0263	0.0000000E+000	0.0000000E+000	0.0000000E+000	58.0263	0.0000000E+000	0.0000000E+000	0.0000000E+000	-58.0263	0.0000000E+000	0.0000000E+000	0.0000000E+000	-31.9737	0.0000000E+000	0.0000000E+000	0.0000000E+000	31.9737	1.60197	58.0263	-1.99669e-06	-3.89335e-06	3.91106e-09	-3.89726e-06	0.251471	16209.9	16.2837	16226.2
463.961	5.11605	3.58363	6.24631	-35.0101	7.89035	0.251223	-0.0167843	95.7228	31.5076	1	10	0.00488839	0.000782605	0	3.00165e-05	9.13315e-05	7.71523e-06	6.25449	0.0098584	0.00979972	-0.00107402	-34.9505	6.25372	5.12585	3.58256	0.131126	0.0918495	0.160095	35.0101	31507.6	44980.7	54918.1	-54.9899	0.0000000E+000	0.0000000E+000	0.0000000E+000	54.9899	0.0000000E+000	0.0000000E+000	0.0000000E+000	-54.9899	0.0000000E+000	0.0000000E+000	0.0000000E+000	-35.0101	0.0000000E+000	0.0000000E+000	0.0000000E+000	35.0101	1.42761	54.9899	-2.56032e-06	-4.21662e-06	-1.53294e-09	-4.21508e-06	0.251132	14967.7	5.44148	14962.3
316.316	5.82243	4.53288	7.37887	-37.9015	8.33804	0.251227	-0.016527	111	41.8884	1	10	0.0048697	0.000659952	0	2.86469e-05	9.13315e-05	1.13989e-05	-32.7124	0.0172724	0.0145329	0.00933437	-37.8894	7.39607	5.83697	4.54221	0.106936	0.083252	0.135522	37.9015	41888.4	53805.2	68188.2	-52.0985	0.0000000E+000	0.0000000E+000	0.0000000E+000	52.0985	0.0000000E+000	0.0000000E+000	0.0000000E+000	-52.0985	0.0000000E+000	0.0000000E+000	0.0000000E+000	-37.9015	0.0000000E+000	0.0000000E+000	0.0000000E+000	37.9015	1.28449	52.0985	-1.36958e-06	-4.15204e-06	-1.50944e-09	-4.15054e-06	0.251136	15201	5.52619	15195.5
215.345	6.8623	5.73864	8.94556	-39.9043	8.78859	0.251225	-0.0164898	128.788	53.0005	1	10	0.0048656	0.000543912	0	2.67894e-05	-0.000156891	3.33974e-06	41.0262	0.00614023	0.00463225	-0.00403047	-39.8654	8.94653	6.86693	5.73461	0.0857539	0.0717123	0.111787	39.9043	53000.5	63378.2	82618.7	-50.0957	0.0000000E+000	0.0000000E+000	0.0000000E+000	50.0957	0.0000000E+000	0.0000000E+000	0.0000000E+000	-50.0957	0.0000000E+000	0.0000000E+000	0.0000000E+000	-39.9043	0.0000000E+000	0.0000000E+000	0.0000000E+000	39.9043	1.19581	50.0957	-1.85753e-06	-4.14264e-06	2.5871e-09	-4.14523e-06	0.251382	15235.2	9.51447	15244.7
146.737	8.37268	7.10764	10.9827	-40.3282	9.23455	0.251209	-0.0181752	152.6	63.9122	1	10	0.00485799	0.00044233	0	2.4113e-05	-4.13882e-06	7.54999e-06	13.5505	0.0170687	0.0165936	-0.00399924	-40.2563	10.9928	8.38928	7.10364	0.0694135	0.0589257	0.0910521	40.3282	63912.3	75287.6	98757.3	-49.6718	0.0000000E+000	0.0000000E+000	0.0000000E+000	49.6718	0.0000000E+000	0.0000000E+000	0.0000000E+000	-49.6718	0.0000000E+000	0.0000000E+000	0.0000000E+000	-40.3282	0.0000000E+000	0.0000000E+000	0.0000000E+000	40.3282	1.17798	49.6718	-2.67642e-06	-4.56578e-06	7.52238e-11	-4.56585e-06	0.251213	13821.5	0.227718	13821.8
100.032	10.5061	8.50054	13.5143	-38.9766	9.68581	0.251205	-0.0165121	187.169	74.0524	1	10	0.00485583	0.00035931	0	2.24622e-05	-4.13882e-06	1.30306e-05	80.8483	0.0362657	0.00576802	-0.0358041	-38.843	13.4963	10.5118	8.46473	0.0575244	0.0465434	0.0739956	38.9766	74052.4	91523.7	117730	-51.0234	0.0000000E+000	0.0000000E+000	0.0000000E+000	51.0234	0.0000000E+000	0.0000000E+000	0.0000000E+000	-51.0234	0.0000000E+000	0.0000000E+000	0.0000000E+000	-38.9766	0.0000000E+000	0.0000000E+000	0.0000000E+000	38.9766	1.23593	51.0234	-1.65073e-06	-4.14793e-06	6.83407e-11	-4.148e-06	0.251209	15213.4	0.250653	15213.6
68.104	13.2067	9.55461	16.3005	-35.8845	10.1485	0.251223	-0.0137938	244.588	84.0342	1	10	0.00484762	0.00029739	0	2.10107e-05	1.49552e-05	6.71034e-06	-10.0433	0.0225641	0.0222184	0.00393501	-35.8499	16.3209	13.2289	9.55854	0.0497039	0.0359591	0.0613476	35.8845	84034.2	116155	143366	-54.1155	0.0000000E+000	0.0000000E+000	0.0000000E+000	54.1155	0.0000000E+000	0.0000000E+000	0.0000000E+000	-54.1155	0.0000000E+000	0.0000000E+000	0.0000000E+000	-35.8845	0.0000000E+000	0.0000000E+000	0.0000000E+000	35.8845	1.38224	54.1155	-1.4515e-06	-3.46531e-06	-2.06289e-10	-3.4651e-06	0.251208	18212.7	1.0842	18211.7
46.4415	16.3737	10.1361	19.2572	-31.7593	10.8247	0.251248	-0.0100934	338.099	93.6694	1	11	0.00485533	0.000252131	0	1.85365e-05	0.000110426	5.42409e-06	-6.31313	0.021513	0.0213825	0.00236561	-31.7319	19.2766	16.3951	10.1384	0.0441533	0.0273328	0.0519287	31.7593	93669.4	151313	177959	-58.2407	0.0000000E+000	0.0000000E+000	0.0000000E+000	58.2407	0.0000000E+000	0.0000000E+000	0.0000000E+000	-58.2407	0.0000000E+000	0.0000000E+000	0.0000000E+000	-31.7593	0.0000000E+000	0.0000000E+000	0.0000000E+000	31.7593	1.61539	58.2407	-2.47422e-06	-2.53595e-06	-1.11457e-09	-2.53483e-06	0.251138	24892.3	10.9404	24881.4
31.6296	19.5632	9.97726	21.9606	-27.0216	11.2545	0.251245	-0.0102366	504.331	104.1	1	11	0.00485882	0.000221252	0	1.73087e-05	-8.05151e-05	1.19185e-05	31.2153	0.0538684	0.0460696	-0.0279176	-26.9023	21.989	19.6093	9.94935	0.0405652	0.0206883	0.0455362	27.0216	104100	204118	229131	-62.9784	0.0000000E+000	0.0000000E+000	0.0000000E+000	62.9784	0.0000000E+000	0.0000000E+000	0.0000000E+000	-62.9784	0.0000000E+000	0.0000000E+000	0.0000000E+000	-27.0216	0.0000000E+000	0.0000000E+000	0.0000000E+000	27.0216	1.96078	62.9784	-1.22787e-06	-2.57189e-06	8.242e-10	-2.57271e-06	0.251325	24543.8	7.86542	24551.7
21.5517	22.393	9.31152	24.2519	-22.5786	11.6754	0.251246	-0.0104092	793.081	116.915	1	11	0.00484959	0.000199968	0	1.62321e-05	0.00022499	8.25219e-06	-56.6446	0.0412676	0.0226902	0.0344699	-22.6332	24.2861	22.4157	9.34599	0.0380735	0.0158318	0.041234	22.5786	116915	281165	304504	-67.4214	0.0000000E+000	0.0000000E+000	0.0000000E+000	67.4214	0.0000000E+000	0.0000000E+000	0.0000000E+000	-67.4214	0.0000000E+000	0.0000000E+000	0.0000000E+000	-22.5786	0.0000000E+000	0.0000000E+000	0.0000000E+000	22.5786	2.40487	67.4214	-1.0766e-06	-2.61528e-06	-2.34198e-09	-2.61294e-06	0.251021	24136.8	21.6144	24115.2
14.6852	24.7847	8.32307	26.1449	-18.5628	12.1362	0.251252	-0.00956574	1302.14	131.963	1	11	0.00484807	0.000185431	0	1.5759e-05	0.000110426	5.11007e-06	60.666	0.0275578	0.0135006	-0.0240243	-18.5035	26.1501	24.7982	8.29905	0.0362585	0.0121761	0.0382484	18.5628	131963	392963	414529	-71.4372	0.0000000E+000	0.0000000E+000	0.0000000E+000	71.4372	0.0000000E+000	0.0000000E+000	0.0000000E+000	-71.4372	0.0000000E+000	0.0000000E+000	0.0000000E+000	-18.5628	0.0000000E+000	0.0000000E+000	0.0000000E+000	18.5628	2.97783	71.4372	-4.73063e-07	-2.40341e-06	-1.0563e-09	-2.40236e-06	0.251142	26265.8	11.5439	26254.3
10.0032	26.7466	7.32711	27.7321	-15.3201	12.5868	0.251254	-0.00983945	2171.44	151.583	1	11	0.00484864	0.000174839	0	1.46814e-05	-0.000156891	6.26322e-06	113.674	0.0358229	-0.0143839	-0.0328082	-15.2625	27.7095	26.7322	7.2943	0.034778	0.00952727	0.0360593	15.3201	151583	553332	573719	-74.6799	0.0000000E+000	0.0000000E+000	0.0000000E+000	74.6799	0.0000000E+000	0.0000000E+000	0.0000000E+000	-74.6799	0.0000000E+000	0.0000000E+000	0.0000000E+000	-15.3201	0.0000000E+000	0.0000000E+000	0.0000000E+000	15.3201	3.65036	74.6799	-1.0776e-06	-2.47221e-06	1.54372e-09	-2.47375e-06	0.251411	25535.4	15.9451	25551.3
6.81719	28.3244	6.37949	29.0339	-12.6929	12.9265	0.251243	-0.00983386	3659.56	176.681	1	11	0.00484442	0.000166854	0	1.44273e-05	3.40493e-05	1.49859e-05	89.7663	0.0898144	0.000366347	-0.0898137	-12.5197	29.0147	28.3248	6.28968	0.0336008	0.00756788	0.0344425	12.6929	176681	784447	804098	-77.3071	0.0000000E+000	0.0000000E+000	0.0000000E+000	77.3071	0.0000000E+000	0.0000000E+000	0.0000000E+000	-77.3071	0.0000000E+000	0.0000000E+000	0.0000000E+000	-12.6929	0.0000000E+000	0.0000000E+000	0.0000000E+000	12.6929	4.43991	77.3071	-2.5408e-07	-2.47069e-06	-3.34836e-10	-2.47036e-06	0.251209	25548.8	3.46246	25545.4
4.63925	29.5772	5.59067	30.1009	-10.7037	13.4104	0.251249	-0.00916674	6136.33	211.678	1	11	0.0048435	0.000160909	0	1.14025e-05	-4.13882e-06	7.80442e-06	-3.29138	0.0485022	0.0484221	0.00278469	-10.6919	30.149	29.6256	5.59345	0.0326435	0.00617027	0.0332216	10.7037	211678	1.11987e+06	1.1397e+06	-79.2963	0.0000000E+000	0.0000000E+000	0.0000000E+000	79.2963	0.0000000E+000	0.0000000E+000	0.0000000E+000	-79.2963	0.0000000E+000	0.0000000E+000	0.0000000E+000	-10.7037	0.0000000E+000	0.0000000E+000	0.0000000E+000	10.7037	5.29046	79.2963	-3.02482e-06	-2.30314e-06	3.79394e-11	-2.30317e-06	0.251253	27408.8	0.451504	27409.3
3.1604	30.7596	4.97494	31.1593	-9.18724	14.1035	0.251244	-0.00936139	10122.6	258.042	1	11	0.00484976	0.000155644	0	9.01349e-06	3.40493e-05	4.39783e-06	20.9679	0.0282557	0.0263847	-0.0101112	-9.16116	31.1837	30.786	4.96483	0.0316815	0.00512404	0.0320932	9.18724	258042	1.59545e+06	1.61618e+06	-80.8128	0.0000000E+000	0.0000000E+000	0.0000000E+000	80.8128	0.0000000E+000	0.0000000E+000	0.0000000E+000	-80.8128	0.0000000E+000	0.0000000E+000	0.0000000E+000	-9.18724	0.0000000E+000	0.0000000E+000	0.0000000E+000	9.18724	6.18291	80.8128	-2.389e-06	-2.35199e-06	-3.18749e-10	-2.35167e-06	0.25121	26838.3	3.63721	26834.7
2.15577	31.6647	4.53921	31.9884	-8.15791	15.1071	0.251246	-0.0090255	16264.4	327.502	1	11	0.00484587	0.000151488	0	8.63947e-06	-2.32329e-05	4.74905e-06	-40.8152	0.0313493	0.0237258	0.0204906	-8.18818	32.0148	31.6884	4.5597	0.030945	0.00443604	0.0312613	8.15791	327502	2.28459e+06	2.30795e+06	-81.8421	0.0000000E+000	0.0000000E+000	0.0000000E+000	81.8421	0.0000000E+000	0.0000000E+000	0.0000000E+000	-81.8421	0.0000000E+000	0.0000000E+000	0.0000000E+000	-8.15791	0.0000000E+000	0.0000000E+000	0.0000000E+000	8.15791	6.97582	81.8421	-3.74024e-07	-2.26762e-06	2.09688e-10	-2.26783e-06	0.251269	27837.3	2.57414	27839.9
1.46631	32.5675	4.15701	32.8318	-7.27406	16.5666	0.251251	-0.0085126	26110.4	418.588	1	11	0.00484781	0.000147656	0	8.60169e-06	3.40493e-05	8.15365e-07	-4.96697	0.00552205	0.00550131	0.000478106	-7.27367	32.8373	32.573	4.15749	0.0302132	0.0038565	0.0304583	7.27406	418588	3.27937e+06	3.30598e+06	-82.7259	0.0000000E+000	0.0000000E+000	0.0000000E+000	82.7259	0.0000000E+000	0.0000000E+000	0.0000000E+000	-82.7259	0.0000000E+000	0.0000000E+000	0.0000000E+000	-7.27406	0.0000000E+000	0.0000000E+000	0.0000000E+000	7.27406	7.83436	82.7259	-3.77744e-08	-2.1388e-06	-2.89848e-10	-2.13851e-06	0.251217	29515.2	3.99987	29511.2
1.00006	33.3953	4.0003	33.634	-6.8307	19.7426	0.251251	-0.00827404	39783.2	562.765	1	12	0.00484744	0.000144123	0	3.13941e-06	-6.1421e-05	4.10629e-06	6.81798	0.0284915	0.0282901	-0.00338239	-6.81926	33.6617	33.4236	3.99691	0.0295208	0.00353618	0.0297318	6.8307	562765	4.69807e+06	4.73166e+06	-83.1693	0.0000000E+000	0.0000000E+000	0.0000000E+000	83.1693	0.0000000E+000	0.0000000E+000	0.0000000E+000	-83.1693	0.0000000E+000	0.0000000E+000	0.0000000E+000	-6.8307	0.0000000E+000	0.0000000E+000	0.0000000E+000	6.8307	8.3482	83.1693	-5.46228e-06	-2.07886e-06	5.082e-10	-2.07937e-06	0.251312	30366.2	7.42334	30373.6
0.681362	34.2128	3.92749	34.4375	-6.54866	22.853	0.251252	-0.00779332	59473.9	773.561	1	12	0.00484782	0.000140772	0	-7.0408e-06	-0.000195079	3.08003e-06	4.38722	0.0218796	0.0218155	-0.00167371	-6.54176	34.459	34.2346	3.92582	0.0288487	0.00331171	0.0290381	6.54866	773561	6.73857e+06	6.78282e+06	-83.4513	0.0000000E+000	0.0000000E+000	0.0000000E+000	83.4513	0.0000000E+000	0.0000000E+000	0.0000000E+000	-83.4513	0.0000000E+000	0.0000000E+000	0.0000000E+000	-6.54866	0.0000000E+000	0.0000000E+000	0.0000000E+000	6.54866	8.7111	83.4513	-1.01802e-05	-1.95809e-06	1.52032e-09	-1.95961e-06	0.251447	32239.4	25.0316	32264.4
0.464091	34.9396	3.91238	35.158	-6.3891	27.4096	0.251252	-0.00775142	87655	1085.45	1	12	0.00484651	0.00013785	0	-2.55309e-05	-0.000233268	2.57883e-06	-16.5518	0.0187076	0.0179324	0.00532945	-6.39447	35.1764	34.9576	3.9177	0.0282664	0.00316514	0.028443	6.3891	1.08545e+06	9.69365e+06	9.75424e+06	-83.6109	0.0000000E+000	0.0000000E+000	0.0000000E+000	83.6109	0.0000000E+000	0.0000000E+000	0.0000000E+000	-83.6109	0.0000000E+000	0.0000000E+000	0.0000000E+000	-6.3891	0.0000000E+000	0.0000000E+000	0.0000000E+000	6.3891	8.93054	83.6109	-1.84901e-05	-1.94756e-06	1.80816e-09	-1.94937e-06	0.251486	32413.7	30.0935	32443.8
0.316193	35.7438	4.03363	35.9707	-6.43849	34.0831	0.251252	-0.007957	124788	1569.15	1	12	0.00484896	0.000134803	0	-5.10678e-05	0.000110426	9.54677e-07	40.8	0.00708201	0.00536105	-0.00462753	-6.43021	35.9755	35.7492	4.029	0.027625	0.00311744	0.0278004	6.43849	1.56915e+06	1.3905e+07	1.39933e+07	-83.5615	0.0000000E+000	0.0000000E+000	0.0000000E+000	83.5615	0.0000000E+000	0.0000000E+000	0.0000000E+000	-83.5615	0.0000000E+000	0.0000000E+000	0.0000000E+000	-6.43849	0.0000000E+000	0.0000000E+000	0.0000000E+000	6.43849	8.86145	83.5615	-2.55369e-05	-1.99921e-06	-8.78657e-10	-1.99834e-06	0.251142	31576.2	13.8778	31562.4
0.215268	36.5884	4.41106	36.8533	-6.87436	43.8765	0.251246	-0.00847922	167609	2401.22	1	12	0.00484973	0.000131595	0	-7.9981e-05	5.31434e-05	1.78304e-06	24.702	0.0135494	0.0123095	-0.00566227	-6.86333	36.8648	36.6007	4.4054	0.0269395	0.00324781	0.0271346	6.87436	2.40122e+06	1.99173e+07	2.00616e+07	-83.1256	0.0000000E+000	0.0000000E+000	0.0000000E+000	83.1256	0.0000000E+000	0.0000000E+000	0.0000000E+000	-83.1256	0.0000000E+000	0.0000000E+000	0.0000000E+000	-6.87436	0.0000000E+000	0.0000000E+000	0.0000000E+000	6.87436	8.29468	83.1256	-2.89132e-05	-2.13037e-06	-4.50614e-10	-2.12992e-06	0.251193	29630.8	6.26748	29624.6
0.146929	37.4416	5.0222	37.7769	-7.63973	58.2149	0.251244	-0.00885567	215685	3812.02	1	12	0.00484709	0.000128308	0	-0.00010641	3.40493e-05	1.42419e-06	-17.9534	0.0110997	0.0105592	0.00342141	-7.64274	37.7878	37.4521	5.02562	0.0262362	0.00351918	0.0264712	7.63973	3.81202e+06	2.84194e+07	2.86739e+07	-82.3603	0.0000000E+000	0.0000000E+000	0.0000000E+000	82.3603	0.0000000E+000	0.0000000E+000	0.0000000E+000	-82.3603	0.0000000E+000	0.0000000E+000	0.0000000E+000	-7.63973	0.0000000E+000	0.0000000E+000	0.0000000E+000	7.63973	7.45521	82.3603	-2.64288e-05	-2.22494e-06	-3.0153e-10	-2.22464e-06	0.25121	28371	3.84492	28367.2
0.0999041	38.4188	5.77258	38.85	-8.54501	79.292	0.251252	-0.00892974	275973	6092.91	1	12	0.00484854	0.000124801	0	-0.000127698	0.00012952	3.62608e-06	13.746	0.0290548	0.0282226	-0.00690393	-8.52877	38.8769	38.447	5.76567	0.0254543	0.00382461	0.02574	8.54501	6.0929e+06	4.05507e+07	4.10058e+07	-81.455	0.0000000E+000	0.0000000E+000	0.0000000E+000	81.455	0.0000000E+000	0.0000000E+000	0.0000000E+000	-81.455	0.0000000E+000	0.0000000E+000	0.0000000E+000	-8.54501	0.0000000E+000	0.0000000E+000	0.0000000E+000	8.54501	6.65539	81.455	-2.12884e-05	-2.24361e-06	-1.15658e-09	-2.24246e-06	0.251122	28136.5	14.5043	28122
0.0680626	39.621	6.65327	40.1758	-9.53233	110.219	0.251255	-0.00903483	351460	9638.7	1	12	0.00484388	0.000120567	0	-0.000156236	0.000186802	2.20214e-06	10.9788	0.0182648	0.0179306	-0.00347847	-9.52321	40.1929	39.6389	6.64979	0.024547	0.00412199	0.0248906	9.53233	9.6387e+06	5.73996e+07	5.82033e+07	-80.4677	0.0000000E+000	0.0000000E+000	0.0000000E+000	80.4677	0.0000000E+000	0.0000000E+000	0.0000000E+000	-80.4677	0.0000000E+000	0.0000000E+000	0.0000000E+000	-9.53233	0.0000000E+000	0.0000000E+000	0.0000000E+000	9.53233	5.95512	80.4677	-2.85381e-05	-2.27004e-06	-1.68772e-09	-2.26836e-06	0.251068	27809.6	20.6757	27788.9
0.0464052	41.2142	7.73819	41.9344	-10.6338	155.571	0.251256	-0.00880918	443215	15092.2	1	12	0.00484759	0.000115599	0	-0.000213511	-9.96091e-05	2.21712e-06	-16.152	0.0191793	0.0184223	0.00533543	-10.6363	41.9535	41.2327	7.74352	0.0234373	0.00440047	0.0238468	10.6338	1.50922e+07	8.03823e+07	8.17868e+07	-79.3662	0.0000000E+000	0.0000000E+000	0.0000000E+000	79.3662	0.0000000E+000	0.0000000E+000	0.0000000E+000	-79.3662	0.0000000E+000	0.0000000E+000	0.0000000E+000	-10.6338	0.0000000E+000	0.0000000E+000	0.0000000E+000	10.6338	5.32608	79.3662	-5.72745e-05	-2.21336e-06	8.77475e-10	-2.21424e-06	0.251356	28522.1	11.3074	28533.4
0.0315922	42.94	9.31281	43.9383	-12.2368	222.176	0.251251	-0.00890787	540953	24301.6	1	12	0.00484864	0.000110351	0	-0.000362949	-9.96091e-05	2.81466e-06	-4.77735	0.0255064	0.0254177	0.00212427	-12.2325	43.9636	42.9654	9.31493	0.0222421	0.00482386	0.0227592	12.2368	2.43016e+07	1.12051e+08	1.14656e+08	-77.7632	0.0000000E+000	0.0000000E+000	0.0000000E+000	77.7632	0.0000000E+000	0.0000000E+000	0.0000000E+000	-77.7632	0.0000000E+000	0.0000000E+000	0.0000000E+000	-12.2368	0.0000000E+000	0.0000000E+000	0.0000000E+000	12.2368	4.61086	77.7632	-0.000149438	-2.23811e-06	8.87305e-10	-2.239e-06	0.251351	28205.5	11.1822	28216.7
0.0215268	44.7162	11.2817	46.1174	-14.1599	319.913	0.251255	-0.00934144	655342	39217.9	1	12	0.00484872	0.000105139	0	-0.000684394	0.000110426	2.16333e-06	-23.2663	0.0205759	0.0189027	0.00812759	-14.164	46.1377	44.7351	11.2898	0.021025	0.00530449	0.0216838	14.1599	3.9218e+07	1.55445e+08	1.60316e+08	-75.8401	0.0000000E+000	0.0000000E+000	0.0000000E+000	75.8401	0.0000000E+000	0.0000000E+000	0.0000000E+000	-75.8401	0.0000000E+000	0.0000000E+000	0.0000000E+000	-14.1599	0.0000000E+000	0.0000000E+000	0.0000000E+000	14.1599	3.96362	75.8401	-0.000321445	-2.34708e-06	-1.03153e-09	-2.34605e-06	0.251144	26896.8	11.821	26884.9
0.0146812	46.8339	13.5614	48.7578	-16.1491	463.215	0.251251	-0.0103861	799381	61841	1	12	0.00484686	9.94068e-05	0	-0.00127198	0.000110426	3.0287e-06	7.92034	0.0304678	0.0301772	-0.00419835	-16.1346	48.7856	46.864	13.5572	0.0197002	0.0057045	0.0205095	16.1491	6.1841e+07	2.13565e+08	2.22339e+08	-73.8509	0.0000000E+000	0.0000000E+000	0.0000000E+000	73.8509	0.0000000E+000	0.0000000E+000	0.0000000E+000	-73.8509	0.0000000E+000	0.0000000E+000	0.0000000E+000	-16.1491	0.0000000E+000	0.0000000E+000	0.0000000E+000	16.1491	3.45346	73.8509	-0.000587589	-2.6095e-06	-1.14689e-09	-2.60836e-06	0.25114	24191.2	10.6321	24180.5
0.0100092	49.6859	16.4708	52.3448	-18.3403	673.396	0.25125	-0.011584	965399	95585	1	12	0.00484617	9.25815e-05	0	-0.00218696	0.00022499	2.67796e-06	92.6793	0.0289254	-0.00135214	-0.0288938	-18.3107	52.3345	49.6846	16.4419	0.0181337	0.00601129	0.0191041	18.3403	9.5585e+07	2.88342e+08	3.03772e+08	-71.6597	0.0000000E+000	0.0000000E+000	0.0000000E+000	71.6597	0.0000000E+000	0.0000000E+000	0.0000000E+000	-71.6597	0.0000000E+000	0.0000000E+000	0.0000000E+000	-18.3403	0.0000000E+000	0.0000000E+000	0.0000000E+000	18.3403	3.01661	71.6597	-0.000914973	-2.91047e-06	-2.60627e-09	-2.90786e-06	0.251025	21689.5	19.4226	21670.1