File: txt/18347_R257_UA646_SOC00_C02.mpt
EC-Lab ASCII FILE
Nb header lines : 65

Potentio Electrochemical Impedance Spectroscopy

Run on channel : 2 (SN 66139)
User :
CE vs. WE compliance from -10 V to 10 V
Electrode connection : standard
Potential control : Ewe
Ewe ctrl range : min = -10.00 V, max = 10.00 V
Safety Limits :
	Do not start on E overload
Acquisition started on : 10/13/2025 14:39:37.044
Technique started on : 10/13/2025 14:39:38.956
Loaded Setting File :  C:\Users\Celltest\OneDrive - store-dot.com\Documents\EC-Lab\Data\@Biologic Test Protocols\anode half cell EIS SOC00.mps
Saved on :
	File : 18347_R257_UA646_SOC00_C02.mpr
	Directory : C:\Users\Celltest\OneDrive - store-dot.com\Documents\EC-Lab\Data\John\
	Host : 169.254.61.224
Device : VMP-3e (SN .003165)
Address : USB
EC-LAB for windows v11.62 (software)
Internet server v27.00 (firmware)
Command interpretor v12.03 (firmware)
Electrode material :
Initial state :
Electrolyte :
Comments :
Electrode surface area : 0.001 cm²
Characteristic mass : 0.001 g
Equivalent Weight : 0.000 g/eq.
Density : 0.000 g/cm3
Volume (V) : 0.001 cm³
Record Ece
Cycle Definition : Charge/Discharge alternance
Mode                Single sine
E (V)               0.0000
vs.                 Eoc
tE (h:m:s)          0:00:0.0000
record              0
dI                  0.000
unit dI             mA
dt (s)              0.000
fi                  100.000
unit fi             kHz
ff                  10.000
unit ff             mHz
Nd                  6
Points              per decade
spacing             Logarithmic
Va (mV)             5.0
pw                  0.10
Na                  2
corr                0
E range min (V)     -10.000
E range max (V)     10.000
I Range             Auto
Bandwidth           5
nc cycles           0
goto Ns'            0
nr cycles           0
inc. cycle          0

freq/Hz	Re(Z)/Ohm	-Im(Z)/Ohm	|Z|/Ohm	Phase(Z)/deg	time/s	<Ewe>/V	<I>/mA	Cs/µF	Cp/µF	cycle number	I Range	|Ewe|/V	|I|/A	Ns	(Q-Qo)/mA.h	<Ece>/V	|Ece|/V	Phase(Zce)/deg	|Zce|/Ohm	Re(Zce)/Ohm	-Im(Zce)/Ohm	Phase(Zwe-ce)/deg	|Zwe-ce|/Ohm	Re(Zwe-ce)/Ohm	-Im(Zwe-ce)/Ohm	Re(Y)/Ohm-1	Im(Y)/Ohm-1	|Y|/Ohm-1	Phase(Y)/deg	Re(C)/nF	Im(C)/nF	|C|/nF	Phase(C)/deg	Re(M)	Im(M)	|M|	Phase(M)/deg	Re(Permittivity)	Im(Permittivity)	|Permittivity|	Phase(Permittivity)/deg	Re(Resistivity)/Ohm.cm	Im(Resistivity)/Ohm.cm	|Resistivity|/Ohm.cm	Phase(Resistivity)/deg	Re(Conductivity)/mS/cm	Im(Conductivity)/mS/cm	|Conductivity|/mS/cm	Phase(Conductivity)/deg	Tan(Delta)	Loss Angle(Delta)/deg	dq/mA.h	Pwe/W	Pce/W	Pwe-ce/W	<Ewe-Ece>/V	Rwe/Ohm	Rce/Ohm	Rwe-ce/Ohm		Ewe-Ece/V
100004	1.27103	0.455527	1.3502	-19.7172	1.91156	0.246858	-0.00625501	3.49373	0.397671	1	9	0.00460729	0.0034123	0	-2.85656e-06	0.000248523	2.49976e-05	87.3032	0.00732571	0.00034468	-0.0073176	-19.4195	1.34807	1.27138	0.44821	0.697208	0.249873	0.740632	19.7172	397.671	1109.6	1178.71	-70.2828	0.0000000E+000	0.0000000E+000	0.0000000E+000	70.2828	0.0000000E+000	0.0000000E+000	0.0000000E+000	-70.2828	0.0000000E+000	0.0000000E+000	0.0000000E+000	-19.7172	0.0000000E+000	0.0000000E+000	0.0000000E+000	19.7172	2.79025	70.2828	-2.85656e-06	-1.5441e-06	-1.55452e-09	-1.54254e-06	0.246609	39465.7	39.7319	39425.9
68132	1.39553	0.5208	1.48954	-20.4651	2.41854	0.246853	-0.00785658	4.48537	0.548318	1	9	0.0050533	0.00339251	0	2.61894e-06	9.57967e-05	2.01498e-05	93.306	0.0059395	-0.00034252	-0.00592962	-20.2557	1.48716	1.39519	0.51487	0.628974	0.234727	0.671346	20.4651	548.318	1469.27	1568.25	-69.5349	0.0000000E+000	0.0000000E+000	0.0000000E+000	69.5349	0.0000000E+000	0.0000000E+000	0.0000000E+000	-69.5349	0.0000000E+000	0.0000000E+000	0.0000000E+000	-20.4651	0.0000000E+000	0.0000000E+000	0.0000000E+000	20.4651	2.6796	69.5349	5.4755e-06	-1.93942e-06	-7.52634e-10	-1.93867e-06	0.246758	31420	12.1932	31407.8
46420.4	1.53641	0.580424	1.64239	-20.6956	2.92554	0.24685	-0.00219521	5.90699	0.737743	1	9	0.00505334	0.00307682	0	-1.81248e-05	-0.000209657	7.78652e-06	11.4448	0.0025307	0.00248038	-0.000502153	-20.6487	1.64453	1.53889	0.579922	0.56958	0.215176	0.608869	20.6956	737.743	1952.84	2087.54	-69.3044	0.0000000E+000	0.0000000E+000	0.0000000E+000	69.3044	0.0000000E+000	0.0000000E+000	0.0000000E+000	-69.3044	0.0000000E+000	0.0000000E+000	0.0000000E+000	-20.6956	0.0000000E+000	0.0000000E+000	0.0000000E+000	20.6956	2.64704	69.3044	-2.07438e-05	-5.41888e-07	4.6024e-10	-5.42348e-07	0.24706	112450	95.5066	112545
31621.1	1.67685	0.650069	1.79845	-21.1899	3.43254	0.246856	-0.00297738	7.74253	1.01159	1	9	0.00498156	0.00276992	0	-2.87867e-05	1.94333e-05	8.88336e-06	-13.2328	0.00320708	0.00312193	0.000734128	-21.1758	1.80163	1.67997	0.650803	0.518439	0.200985	0.556035	21.1899	1011.59	2609.4	2798.62	-68.8101	0.0000000E+000	0.0000000E+000	0.0000000E+000	68.8101	0.0000000E+000	0.0000000E+000	0.0000000E+000	-68.8101	0.0000000E+000	0.0000000E+000	0.0000000E+000	-21.1899	0.0000000E+000	0.0000000E+000	0.0000000E+000	21.1899	2.5795	68.8101	-1.06619e-05	-7.34985e-07	-5.78603e-11	-7.34927e-07	0.246837	82910.7	6.52699	82904.2
21544.7	1.83702	0.718126	1.9724	-21.3515	3.69156	0.246853	-0.00826629	10.2868	1.36362	1	9	0.00542569	0.00275081	0	-2.64549e-05	0.000229433	1.0993e-05	-55.27	0.00399628	0.00227672	0.00328432	-21.4162	1.97571	1.8393	0.721411	0.472199	0.184592	0.506998	21.3515	1363.62	3488.23	3745.29	-68.6485	0.0000000E+000	0.0000000E+000	0.0000000E+000	68.6485	0.0000000E+000	0.0000000E+000	0.0000000E+000	-68.6485	0.0000000E+000	0.0000000E+000	0.0000000E+000	-21.3515	0.0000000E+000	0.0000000E+000	0.0000000E+000	21.3515	2.55807	68.6485	2.33182e-06	-2.04056e-06	-1.89656e-09	-2.03867e-06	0.246624	29862.6	27.7552	29834.9
14678.6	2.01099	0.781806	2.15761	-21.2444	4.07453	0.246849	-0.00186001	13.8687	1.82091	1	9	0.00506089	0.0023456	0	-2.9887e-05	0.000229433	2.9023e-05	-100.294	0.0123734	-0.00221113	0.0121742	-21.5667	2.16	2.00878	0.79398	0.431979	0.167939	0.463475	21.2444	1820.91	4683.8	5025.3	-68.7556	0.0000000E+000	0.0000000E+000	0.0000000E+000	68.7556	0.0000000E+000	0.0000000E+000	0.0000000E+000	-68.7556	0.0000000E+000	0.0000000E+000	0.0000000E+000	-21.2444	0.0000000E+000	0.0000000E+000	0.0000000E+000	21.2444	2.57224	68.7556	-3.43215e-06	-4.59142e-07	-4.26747e-10	-4.58715e-07	0.24662	132714	123.35	132591
10002.2	2.18558	0.877744	2.35525	-21.8808	4.33355	0.246853	-0.00659026	18.1282	2.51779	1	9	0.00451733	0.00191799	0	-2.92958e-05	-0.000133293	1.07464e-05	-101.314	0.00560296	-0.00109925	0.00549407	-22.0147	2.35628	2.18448	0.883238	0.393998	0.158232	0.424584	21.8808	2517.79	6269.27	6755.96	-68.1192	0.0000000E+000	0.0000000E+000	0.0000000E+000	68.1192	0.0000000E+000	0.0000000E+000	0.0000000E+000	-68.1192	0.0000000E+000	0.0000000E+000	0.0000000E+000	-21.8808	0.0000000E+000	0.0000000E+000	0.0000000E+000	21.8808	2.48999	68.1192	5.91201e-07	-1.62683e-06	8.78439e-10	-1.6277e-06	0.246986	37457.2	20.2258	37477.4
6810.42	2.40829	0.950178	2.58896	-21.5314	4.71653	0.246853	-0.0090485	24.5947	3.31284	1	9	0.0048464	0.00187195	0	-3.0402e-05	0.000267614	0.000142225	40.3058	0.0759771	0.0579403	-0.0491471	-20.0696	2.62567	2.46623	0.901031	0.359301	0.14176	0.386256	21.5314	3312.84	8396.63	9026.54	-68.4686	0.0000000E+000	0.0000000E+000	0.0000000E+000	68.4686	0.0000000E+000	0.0000000E+000	0.0000000E+000	-68.4686	0.0000000E+000	0.0000000E+000	0.0000000E+000	-21.5314	0.0000000E+000	0.0000000E+000	0.0000000E+000	21.5314	2.53457	68.4686	-1.10613e-06	-2.23365e-06	-2.42151e-09	-2.23123e-06	0.246585	27281.1	29.5755	27251.5
4646	2.59464	1.0985	2.8176	-22.9465	4.98263	0.246821	-0.0231275	31.1846	4.74006	1	9	0.00470369	0.0016694	0	-3.16137e-05	-7.60209e-05	8.85365e-06	-32.1426	0.0053035	0.00449061	0.00282161	-22.9637	2.82283	2.59913	1.10132	0.326828	0.13837	0.354912	22.9465	4740.06	11195.9	12158	-67.0535	0.0000000E+000	0.0000000E+000	0.0000000E+000	67.0535	0.0000000E+000	0.0000000E+000	0.0000000E+000	-67.0535	0.0000000E+000	0.0000000E+000	0.0000000E+000	-22.9465	0.0000000E+000	0.0000000E+000	0.0000000E+000	22.9465	2.36198	67.0535	-1.21172e-06	-5.70835e-06	1.75817e-09	-5.7101e-06	0.246897	10672.2	3.28704	10675.5
3163.08	2.84375	1.28954	3.12247	-24.3927	5.35568	0.246637	-0.047449	39.0189	6.65502	1	9	0.00462516	0.00148125	0	-3.73266e-05	7.67059e-05	4.61016e-06	-17.3286	0.00311234	0.00297108	0.000927015	-24.3857	3.12556	2.84672	1.29047	0.291672	0.132263	0.32026	24.3927	6655.02	14675.9	16114.3	-65.6073	0.0000000E+000	0.0000000E+000	0.0000000E+000	65.6073	0.0000000E+000	0.0000000E+000	0.0000000E+000	-65.6073	0.0000000E+000	0.0000000E+000	0.0000000E+000	-24.3927	0.0000000E+000	0.0000000E+000	0.0000000E+000	24.3927	2.20524	65.6073	-5.71288e-06	-1.17027e-05	-3.63962e-09	-1.1699e-05	0.24656	5197.94	1.61659	5196.32
2155.69	3.10807	1.46778	3.43722	-25.279	5.80683	0.246855	0.0604151	50.3006	9.17236	1	9	0.00458398	0.00133363	0	-3.06612e-05	1.94333e-05	7.82919e-06	-77.114	0.00587058	0.00130921	0.00572274	-25.3558	3.44085	3.10938	1.4735	0.263073	0.124236	0.290933	25.279	9172.36	19422.7	21479.6	-64.721	0.0000000E+000	0.0000000E+000	0.0000000E+000	64.721	0.0000000E+000	0.0000000E+000	0.0000000E+000	-64.721	0.0000000E+000	0.0000000E+000	0.0000000E+000	-25.279	0.0000000E+000	0.0000000E+000	0.0000000E+000	25.279	2.11753	64.721	6.66535e-06	1.49138e-05	1.17407e-09	1.49126e-05	0.246836	4085.98	0.321663	4085.66
1468.59	3.38314	1.71507	3.79303	-26.8825	6.50403	0.246789	-0.0215799	63.1886	12.919	1	10	0.00470223	0.0012397	0	-2.98324e-05	0.000286705	1.08378e-05	-22.2782	0.00874224	0.00808967	0.00331421	-26.8719	3.80175	3.39123	1.71838	0.235151	0.119209	0.263641	26.8825	12919	25483.9	28571.5	-63.1175	0.0000000E+000	0.0000000E+000	0.0000000E+000	63.1175	0.0000000E+000	0.0000000E+000	0.0000000E+000	-63.1175	0.0000000E+000	0.0000000E+000	0.0000000E+000	-26.8825	0.0000000E+000	0.0000000E+000	0.0000000E+000	26.8825	1.9726	63.1175	8.28863e-07	-5.32569e-06	-6.18708e-09	-5.31951e-06	0.246502	11436	13.2857	11422.8
1000.32	3.68478	2.03082	4.20736	-28.8608	6.95478	0.24679	-0.0218407	78.3447	18.253	1	10	0.00463187	0.0011009	0	-3.24487e-05	-1.87484e-05	2.79746e-05	-43.7522	0.0254107	0.0183551	0.0175725	-28.9492	4.23192	3.70314	2.04839	0.208158	0.114724	0.237679	28.8608	18253	33118.8	37815.7	-61.1392	0.0000000E+000	0.0000000E+000	0.0000000E+000	61.1392	0.0000000E+000	0.0000000E+000	0.0000000E+000	-61.1392	0.0000000E+000	0.0000000E+000	0.0000000E+000	-28.8608	0.0000000E+000	0.0000000E+000	0.0000000E+000	28.8608	1.81443	61.1392	-2.61637e-06	-5.39006e-06	4.09477e-10	-5.39047e-06	0.246808	11299.5	0.858414	11300.4
681.09	4.06071	2.51422	4.77605	-31.764	7.40559	0.246793	-0.0219115	92.9422	25.7561	1	10	0.00461898	0.000967112	0	-3.44631e-05	0.00017216	9.86608e-06	101.546	0.0102016	-0.0020419	-0.00999515	-31.6748	4.76906	4.05867	2.50422	0.178018	0.110221	0.209378	31.764	25756.1	41598.7	48926.8	-58.236	0.0000000E+000	0.0000000E+000	0.0000000E+000	58.236	0.0000000E+000	0.0000000E+000	0.0000000E+000	-58.236	0.0000000E+000	0.0000000E+000	0.0000000E+000	-31.764	0.0000000E+000	0.0000000E+000	0.0000000E+000	31.764	1.6151	58.236	-2.01435e-06	-5.4076e-06	-3.77228e-09	-5.40383e-06	0.246621	11263.2	7.85707	11255.3
463.961	4.52121	3.15435	5.51282	-34.9026	7.85732	0.246794	-0.0210584	108.75	35.6041	1	10	0.00459209	0.000832983	0	-3.73609e-05	0.000248523	7.20146e-06	-28.5036	0.00864539	0.00759746	0.0041257	-34.8926	5.52141	4.5288	3.15847	0.148767	0.103791	0.181395	34.9026	35604.1	51032.3	62225	-55.0974	0.0000000E+000	0.0000000E+000	0.0000000E+000	55.0974	0.0000000E+000	0.0000000E+000	0.0000000E+000	-55.0974	0.0000000E+000	0.0000000E+000	0.0000000E+000	-34.9026	0.0000000E+000	0.0000000E+000	0.0000000E+000	34.9026	1.43333	55.0974	-2.89778e-06	-5.1971e-06	-5.23351e-09	-5.19186e-06	0.246546	11719.5	11.8016	11707.7
316.316	5.15569	4.01098	6.53216	-37.8819	8.30509	0.246785	-0.0230924	125.444	47.2972	1	10	0.00456944	0.000699529	0	-3.95448e-05	3.85242e-05	1.2234e-05	-95.5852	0.017489	-0.00170213	0.0174059	-38.0114	6.54153	5.15399	4.02839	0.120829	0.0940019	0.153089	37.8819	47297.2	60795.6	77026.8	-52.1181	0.0000000E+000	0.0000000E+000	0.0000000E+000	52.1181	0.0000000E+000	0.0000000E+000	0.0000000E+000	-52.1181	0.0000000E+000	0.0000000E+000	0.0000000E+000	-37.8819	0.0000000E+000	0.0000000E+000	0.0000000E+000	37.8819	1.28539	52.1181	-2.18395e-06	-5.69885e-06	-8.89615e-10	-5.69796e-06	0.246746	10686.8	1.66826	10685.2
215.345	6.10623	5.05689	7.92832	-39.63	8.75559	0.246793	-0.0213415	146.151	59.4577	1	10	0.00455937	0.000575074	0	-4.16492e-05	0.000210342	1.18549e-05	-75.4026	0.0206146	0.00519541	0.0199492	-39.7169	7.94505	6.11143	5.07684	0.0971429	0.0804492	0.12613	39.63	59457.7	71795.5	93219.1	-50.37	0.0000000E+000	0.0000000E+000	0.0000000E+000	50.37	0.0000000E+000	0.0000000E+000	0.0000000E+000	-50.37	0.0000000E+000	0.0000000E+000	0.0000000E+000	-39.63	0.0000000E+000	0.0000000E+000	0.0000000E+000	39.63	1.20751	50.37	-2.10439e-06	-5.26694e-06	-4.48902e-09	-5.26245e-06	0.246583	11564	9.85598	11554.1
146.737	7.50887	6.21791	9.74913	-39.6273	9.20155	0.246792	-0.0231259	174.435	70.9564	1	10	0.00455921	0.000467653	0	-4.46218e-05	-9.51117e-05	8.3457e-06	-33.0673	0.0178459	0.0149554	0.00973715	-39.6153	9.76686	7.52383	6.22765	0.0790028	0.0654203	0.102573	39.6273	70956.4	85688.4	111253	-50.3727	0.0000000E+000	0.0000000E+000	0.0000000E+000	50.3727	0.0000000E+000	0.0000000E+000	0.0000000E+000	-50.3727	0.0000000E+000	0.0000000E+000	0.0000000E+000	-39.6273	0.0000000E+000	0.0000000E+000	0.0000000E+000	39.6273	1.20762	50.3727	-2.97261e-06	-5.70729e-06	2.19955e-09	-5.70949e-06	0.246887	10671.7	4.11278	10675.8
100.032	9.4359	7.36451	11.9696	-37.9712	9.65279	0.246795	-0.0212633	216.042	81.783	1	10	0.00455595	0.000380625	0	-4.70824e-05	-5.69301e-05	1.11705e-05	-88.9117	0.0293478	0.000557397	0.0293426	-38.0802	11.9882	9.43646	7.39385	0.0658599	0.0514022	0.0835447	37.9712	81782.9	104786	132923	-52.0288	0.0000000E+000	0.0000000E+000	0.0000000E+000	52.0288	0.0000000E+000	0.0000000E+000	0.0000000E+000	-52.0288	0.0000000E+000	0.0000000E+000	0.0000000E+000	-37.9712	0.0000000E+000	0.0000000E+000	0.0000000E+000	37.9712	1.28127	52.0288	-2.4606e-06	-5.24768e-06	1.21052e-09	-5.24889e-06	0.246852	11606.6	2.67738	11609.3
68.104	11.8343	8.10683	14.3448	-34.4121	10.1154	0.246796	-0.0188904	288.268	92.0686	1	10	0.00454954	0.000317157	0	-4.9326e-05	-0.000343293	5.65859e-06	103.266	0.0178416	-0.00409424	-0.0173655	-34.3641	14.3316	11.8302	8.08946	0.0575118	0.0393971	0.0697118	34.4121	92068.6	134402	162912	-55.5879	0.0000000E+000	0.0000000E+000	0.0000000E+000	55.5879	0.0000000E+000	0.0000000E+000	0.0000000E+000	-55.5879	0.0000000E+000	0.0000000E+000	0.0000000E+000	-34.4121	0.0000000E+000	0.0000000E+000	0.0000000E+000	34.4121	1.4598	55.5879	-2.2436e-06	-4.66206e-06	6.48492e-09	-4.66854e-06	0.247139	13064.6	18.1729	13082.8
46.4415	14.4613	8.30963	16.6787	-29.8822	10.5516	0.246782	-0.0246123	412.412	102.37	1	10	0.00455221	0.000272936	0	-5.23086e-05	0.000229433	3.92011e-06	55.4644	0.0143628	0.00814252	-0.0118317	-29.833	16.6799	14.4694	8.2978	0.0519856	0.0298715	0.0599567	29.8822	102370	178154	205471	-60.1178	0.0000000E+000	0.0000000E+000	0.0000000E+000	60.1178	0.0000000E+000	0.0000000E+000	0.0000000E+000	-60.1178	0.0000000E+000	0.0000000E+000	0.0000000E+000	-29.8822	0.0000000E+000	0.0000000E+000	0.0000000E+000	29.8822	1.74031	60.1178	-2.98263e-06	-6.07386e-06	-5.64686e-09	-6.06822e-06	0.246552	10026.8	9.32187	10017.5
31.6296	17.0756	7.97695	18.8469	-25.0399	11.2156	0.246833	-0.00903119	630.798	113.001	1	11	0.00454889	0.00024136	0	-5.49254e-05	-7.60209e-05	8.29541e-06	87.3357	0.0343695	0.00159764	-0.0343323	-24.9432	18.8339	17.0772	7.94262	0.0480722	0.0224572	0.053059	25.0399	113001	241892	266985	-64.9601	0.0000000E+000	0.0000000E+000	0.0000000E+000	64.9601	0.0000000E+000	0.0000000E+000	0.0000000E+000	-64.9601	0.0000000E+000	0.0000000E+000	0.0000000E+000	-25.0399	0.0000000E+000	0.0000000E+000	0.0000000E+000	25.0399	2.14061	64.9601	-2.61671e-06	-2.2292e-06	6.86559e-10	-2.22988e-06	0.246909	27331.2	8.4176	27339.6
21.5517	19.2567	7.2508	20.5766	-20.633	11.6375	0.246815	-0.00913633	1018.48	126.467	1	11	0.00454505	0.000220884	0	-5.60281e-05	-9.51117e-05	9.41425e-06	-20.0993	0.0426207	0.040025	0.0146466	-20.6319	20.6192	19.2968	7.26545	0.0454816	0.0171253	0.0485989	20.633	126467	335872	358893	-69.367	0.0000000E+000	0.0000000E+000	0.0000000E+000	69.367	0.0000000E+000	0.0000000E+000	0.0000000E+000	-69.367	0.0000000E+000	0.0000000E+000	0.0000000E+000	-20.633	0.0000000E+000	0.0000000E+000	0.0000000E+000	20.633	2.65581	69.367	-1.10279e-06	-2.25498e-06	8.68972e-10	-2.25585e-06	0.24691	27014.7	10.4103	27025.1
14.6852	21.0472	6.39771	21.998	-16.9077	12.0972	0.246834	-0.00860129	1694.01	143.284	1	11	0.00454722	0.000206711	0	-5.73107e-05	-0.000133293	9.43733e-06	71.3608	0.0456548	0.0145916	-0.0432602	-16.7889	21.9995	21.0617	6.35445	0.0434936	0.0132208	0.0454586	16.9077	143284	471376	492672	-73.0923	0.0000000E+000	0.0000000E+000	0.0000000E+000	73.0923	0.0000000E+000	0.0000000E+000	0.0000000E+000	-73.0923	0.0000000E+000	0.0000000E+000	0.0000000E+000	-16.9077	0.0000000E+000	0.0000000E+000	0.0000000E+000	16.9077	3.2898	73.0923	-1.28257e-06	-2.12309e-06	1.1465e-09	-2.12424e-06	0.246967	28697.3	15.4969	28712.8
10.0032	22.3719	5.59189	23.0601	-14.0336	12.5478	0.246828	-0.00884402	2845.26	167.308	1	11	0.00453128	0.000196498	0	-5.69006e-05	-1.87484e-05	7.76672e-06	85.9389	0.0395256	0.00279919	-0.0394264	-13.9369	23.0533	22.3747	5.55246	0.0420706	0.0105156	0.0433649	14.0336	167308	669360	689953	-75.9664	0.0000000E+000	0.0000000E+000	0.0000000E+000	75.9664	0.0000000E+000	0.0000000E+000	0.0000000E+000	-75.9664	0.0000000E+000	0.0000000E+000	0.0000000E+000	-14.0336	0.0000000E+000	0.0000000E+000	0.0000000E+000	14.0336	4.00077	75.9664	4.1008e-07	-2.18295e-06	1.65811e-10	-2.18312e-06	0.246847	27909.1	2.11989	27911.2
6.81719	23.5983	4.9243	24.1066	-11.7869	12.8875	0.246834	-0.00764642	4741.01	197.828	1	11	0.00454234	0.000188427	0	-5.86809e-05	-0.00028602	1.04956e-05	-18.9768	0.0557008	0.0526734	0.0181131	-11.8034	24.1619	23.651	4.94241	0.0406077	0.00847368	0.0414824	11.7869	197828	948033	968454	-78.2131	0.0000000E+000	0.0000000E+000	0.0000000E+000	78.2131	0.0000000E+000	0.0000000E+000	0.0000000E+000	-78.2131	0.0000000E+000	0.0000000E+000	0.0000000E+000	-11.7869	0.0000000E+000	0.0000000E+000	0.0000000E+000	11.7869	4.79222	78.2131	-1.78029e-06	-1.8874e-06	2.18703e-09	-1.88958e-06	0.24712	32281	37.4058	32318.4
4.63925	24.5783	4.36789	24.9633	-10.077	13.3714	0.246832	-0.00841225	7854.18	240.457	1	11	0.0045499	0.000182263	0	-6.09671e-05	7.67059e-05	1.06534e-05	-18.2449	0.0584505	0.055512	0.0182997	-10.096	25.0212	24.6338	4.38619	0.0394408	0.00700916	0.0400587	10.077	240457	1.35306e+06	1.37426e+06	-79.923	0.0000000E+000	0.0000000E+000	0.0000000E+000	79.923	0.0000000E+000	0.0000000E+000	0.0000000E+000	-79.923	0.0000000E+000	0.0000000E+000	0.0000000E+000	-10.077	0.0000000E+000	0.0000000E+000	0.0000000E+000	10.077	5.62703	79.923	-2.28614e-06	-2.07641e-06	-6.45269e-10	-2.07576e-06	0.246755	29341.9	9.11835	29332.8
3.1604	25.4021	4.0125	25.7171	-8.97621	14.0644	0.246833	-0.00810185	12550.6	305.527	1	11	0.00454189	0.00017661	0	-6.06857e-05	0.000114888	2.78906e-06	69.0404	0.0157922	0.00564904	-0.0147473	-8.9418	25.7204	25.4078	3.99775	0.0384084	0.00606695	0.0388846	8.97621	305527	1.93422e+06	1.9582e+06	-81.0238	0.0000000E+000	0.0000000E+000	0.0000000E+000	81.0238	0.0000000E+000	0.0000000E+000	0.0000000E+000	-81.0238	0.0000000E+000	0.0000000E+000	0.0000000E+000	-8.97621	0.0000000E+000	0.0000000E+000	0.0000000E+000	8.97621	6.33076	81.0238	2.81328e-07	-1.99981e-06	-9.30802e-10	-1.99888e-06	0.246718	30466.3	14.1804	30452.1
2.15577	26.2114	3.69888	26.4711	-8.03239	15.0681	0.246831	-0.00747146	19959.4	389.713	1	11	0.00454581	0.000171728	0	-5.99039e-05	0.000210342	3.80436e-06	68.7467	0.0221535	0.00803044	-0.0206467	-7.98572	26.4762	26.2194	3.67823	0.0374065	0.0052787	0.0377771	8.03239	389714	2.76163e+06	2.78899e+06	-81.9676	0.0000000E+000	0.0000000E+000	0.0000000E+000	81.9676	0.0000000E+000	0.0000000E+000	0.0000000E+000	-81.9676	0.0000000E+000	0.0000000E+000	0.0000000E+000	-8.03239	0.0000000E+000	0.0000000E+000	0.0000000E+000	8.03239	7.0863	81.9676	7.81832e-07	-1.84418e-06	-1.57156e-09	-1.84261e-06	0.24662	33036.5	28.1527	33008.3
1.46631	27.0263	3.49611	27.2515	-7.37082	16.5276	0.246837	-0.00684025	31046.3	510.974	1	11	0.00454575	0.000166807	0	-6.20319e-05	0.000496704	2.52416e-06	-48.5608	0.0151322	0.0100149	0.011344	-7.39177	27.2629	27.0363	3.50745	0.036392	0.00470766	0.0366953	7.37082	510974	3.95003e+06	3.98294e+06	-82.6292	0.0000000E+000	0.0000000E+000	0.0000000E+000	82.6292	0.0000000E+000	0.0000000E+000	0.0000000E+000	-82.6292	0.0000000E+000	0.0000000E+000	0.0000000E+000	-7.37082	0.0000000E+000	0.0000000E+000	0.0000000E+000	7.37082	7.73039	82.6292	-2.128e-06	-1.68842e-06	-3.39758e-09	-1.68503e-06	0.24634	36085.9	72.615	36013.3
1.00006	27.7448	3.39293	27.9515	-6.97213	19.7037	0.246832	-0.0067385	46904.8	691.126	1	12	0.00454763	0.000162697	0	-7.17999e-05	-3.78392e-05	2.31975e-06	-7.63537	0.0142581	0.0141317	0.00189444	-6.97246	27.9658	27.7589	3.39483	0.0355117	0.00434275	0.0357763	6.97213	691126	5.6515e+06	5.6936e+06	-83.0279	0.0000000E+000	0.0000000E+000	0.0000000E+000	83.0279	0.0000000E+000	0.0000000E+000	0.0000000E+000	-83.0279	0.0000000E+000	0.0000000E+000	0.0000000E+000	-6.97213	0.0000000E+000	0.0000000E+000	0.0000000E+000	6.97213	8.17723	83.0279	-9.76796e-06	-1.66328e-06	2.5498e-10	-1.66354e-06	0.24687	36630.2	5.61537	36635.8
0.681362	28.4474	3.296	28.6377	-6.60898	22.8158	0.246834	-0.00662798	70868.9	938.755	1	12	0.00454647	0.000158758	0	-8.45766e-05	0.000210342	4.70824e-06	-51.2795	0.0296567	0.0185509	0.0231383	-6.65067	28.6588	28.4659	3.31913	0.034687	0.00401893	0.034919	6.60898	938756	8.1023e+06	8.1565e+06	-83.391	0.0000000E+000	0.0000000E+000	0.0000000E+000	83.391	0.0000000E+000	0.0000000E+000	0.0000000E+000	-83.391	0.0000000E+000	0.0000000E+000	0.0000000E+000	-6.60898	0.0000000E+000	0.0000000E+000	0.0000000E+000	6.60898	8.6309	83.391	-1.27767e-05	-1.63601e-06	-1.39414e-09	-1.63462e-06	0.246624	37241.2	31.7354	37209.5
0.464091	29.15	3.25016	29.3306	-6.36207	27.3724	0.246834	-0.00720901	105515	1295.62	1	12	0.00454605	0.000154993	0	-9.96077e-05	3.85242e-05	1.72711e-06	-32.4219	0.0111431	0.00940617	0.00597438	-6.37162	29.3406	29.1594	3.25613	0.0338841	0.00377799	0.034094	6.36207	1.29562e+06	1.16202e+07	1.16922e+07	-83.6379	0.0000000E+000	0.0000000E+000	0.0000000E+000	83.6379	0.0000000E+000	0.0000000E+000	0.0000000E+000	-83.6379	0.0000000E+000	0.0000000E+000	0.0000000E+000	-6.36207	0.0000000E+000	0.0000000E+000	0.0000000E+000	6.36207	8.9688	83.6379	-1.50311e-05	-1.77943e-06	-2.77721e-10	-1.77915e-06	0.246796	34239.7	5.34389	34234.3
0.316193	29.8143	3.39758	30.0073	-6.50127	34.047	0.246837	-0.00769607	148149	1899.26	1	12	0.00454663	0.000151518	0	-0.000112475	0.000382159	1.83105e-06	-67.7449	0.0120847	0.00457686	0.0111845	-6.5215	30.0131	29.8189	3.40877	0.033111	0.00377326	0.0333253	6.50127	1.89926e+06	1.66663e+07	1.67742e+07	-83.4987	0.0000000E+000	0.0000000E+000	0.0000000E+000	83.4987	0.0000000E+000	0.0000000E+000	0.0000000E+000	-83.4987	0.0000000E+000	0.0000000E+000	0.0000000E+000	-6.50127	0.0000000E+000	0.0000000E+000	0.0000000E+000	6.50127	8.77515	83.4987	-1.28669e-05	-1.89967e-06	-2.94113e-09	-1.89673e-06	0.246455	32073.1	49.6564	32023.5
0.215268	30.4201	3.67066	30.6408	-6.88036	43.8405	0.24684	-0.00791465	201417	2890.59	1	12	0.00454659	0.000148384	0	-0.000119958	0.000114888	2.57092e-06	5.03161	0.0173262	0.0172594	-0.0015196	-6.87368	30.6577	30.4374	3.66914	0.0324012	0.00390971	0.0326363	6.88036	2.89059e+06	2.39554e+07	2.41291e+07	-83.1196	0.0000000E+000	0.0000000E+000	0.0000000E+000	83.1196	0.0000000E+000	0.0000000E+000	0.0000000E+000	-83.1196	0.0000000E+000	0.0000000E+000	0.0000000E+000	-6.88036	0.0000000E+000	0.0000000E+000	0.0000000E+000	6.88036	8.28737	83.1196	-7.48352e-06	-1.95365e-06	-9.09295e-10	-1.95274e-06	0.246725	31187.7	14.5158	31173.2
0.146929	31.0823	4.06432	31.3469	-7.44972	58.1789	0.246833	-0.00799236	266517	4480.35	1	12	0.00454656	0.00014504	0	-0.000123429	5.7615e-05	2.60223e-06	13.0749	0.0179414	0.0174763	-0.00405879	-7.43823	31.3637	31.0998	4.06026	0.0316318	0.00413617	0.0319011	7.44972	4.48035e+06	3.42639e+07	3.45556e+07	-82.5503	0.0000000E+000	0.0000000E+000	0.0000000E+000	82.5503	0.0000000E+000	0.0000000E+000	0.0000000E+000	-82.5503	0.0000000E+000	0.0000000E+000	0.0000000E+000	-7.44972	0.0000000E+000	0.0000000E+000	0.0000000E+000	7.44972	7.6476	82.5503	-3.47131e-06	-1.97277e-06	-4.6048e-10	-1.97231e-06	0.246775	30883.6	7.20876	30876.4
0.0999041	31.9622	4.64397	32.2979	-8.26696	79.2561	0.246834	-0.00763974	343042	7092.16	1	12	0.0045465	0.000140768	0	-0.000134665	-0.000133293	1.55411e-06	-84.084	0.0110402	0.00113791	0.0109814	-8.28595	32.3006	31.9634	4.65495	0.0306401	0.00445186	0.0309618	8.26696	7.09216e+06	4.8812e+07	4.93245e+07	-81.733	0.0000000E+000	0.0000000E+000	0.0000000E+000	81.733	0.0000000E+000	0.0000000E+000	0.0000000E+000	-81.733	0.0000000E+000	0.0000000E+000	0.0000000E+000	-8.26696	0.0000000E+000	0.0000000E+000	0.0000000E+000	8.26696	6.88253	81.733	-1.12356e-05	-1.88574e-06	1.01833e-09	-1.88676e-06	0.246967	32309.2	17.4474	32326.6
0.0680626	32.9695	5.51839	33.4282	-9.502	110.184	0.246826	-0.0076734	423740	11547.8	1	12	0.00454771	0.000136044	0	-0.000178128	0.000153069	1.39449e-06	-23.8553	0.0102502	0.00937456	0.00414548	-9.50635	33.4381	32.9789	5.52253	0.0295045	0.00493841	0.0299149	9.502	1.15478e+07	6.8992e+07	6.99518e+07	-80.498	0.0000000E+000	0.0000000E+000	0.0000000E+000	80.498	0.0000000E+000	0.0000000E+000	0.0000000E+000	-80.498	0.0000000E+000	0.0000000E+000	0.0000000E+000	-9.502	0.0000000E+000	0.0000000E+000	0.0000000E+000	9.502	5.97449	80.498	-4.34634e-05	-1.894e-06	-1.17456e-09	-1.89282e-06	0.246673	32166.5	19.948	32146.6
0.0464052	34.0586	6.67605	34.7067	-11.0903	155.535	0.246834	-0.0076095	513729	19008.4	1	12	0.00454962	0.000131088	0	-0.000296343	3.85242e-05	1.50766e-06	-35.1443	0.0115011	0.00940454	0.00662048	-11.0981	34.7172	34.068	6.68267	0.0282748	0.00554234	0.0288129	11.0903	1.90084e+07	9.69735e+07	9.8819e+07	-78.9097	0.0000000E+000	0.0000000E+000	0.0000000E+000	78.9097	0.0000000E+000	0.0000000E+000	0.0000000E+000	-78.9097	0.0000000E+000	0.0000000E+000	0.0000000E+000	-11.0903	0.0000000E+000	0.0000000E+000	0.0000000E+000	11.0903	5.1016	78.9097	-0.000118215	-1.87828e-06	-2.9315e-10	-1.87799e-06	0.246795	32437.5	5.06264	32432.5
0.0315922	35.2369	8.05415	36.1456	-12.875	222.141	0.246829	-0.00841589	625490	31056.2	1	12	0.00454688	0.000125793	0	-0.000543092	7.67059e-05	1.37046e-06	-34.5307	0.0108945	0.00897517	0.00617555	-12.8814	36.1557	35.2458	8.06033	0.0269703	0.00616465	0.0276659	12.875	3.10562e+07	1.35871e+08	1.39375e+08	-77.125	0.0000000E+000	0.0000000E+000	0.0000000E+000	77.125	0.0000000E+000	0.0000000E+000	0.0000000E+000	-77.125	0.0000000E+000	0.0000000E+000	0.0000000E+000	-12.875	0.0000000E+000	0.0000000E+000	0.0000000E+000	12.875	4.37499	77.125	-0.000246749	-2.07729e-06	-6.45548e-10	-2.07664e-06	0.246752	29329	9.11441	29319.8
0.0215268	36.7536	9.71196	38.0151	-14.8018	319.878	0.246828	-0.00963963	761262	49686.2	1	12	0.00454688	0.000119607	0	-0.000955847	0.000114888	2.11829e-06	-49.0628	0.0177104	0.0116044	0.0133789	-14.8168	38.0297	36.7652	9.72534	0.0254324	0.00672039	0.0263053	14.8018	4.96862e+07	1.8803e+08	1.94484e+08	-75.1982	0.0000000E+000	0.0000000E+000	0.0000000E+000	75.1982	0.0000000E+000	0.0000000E+000	0.0000000E+000	-75.1982	0.0000000E+000	0.0000000E+000	0.0000000E+000	-14.8018	0.0000000E+000	0.0000000E+000	0.0000000E+000	14.8018	3.78436	75.1982	-0.000412755	-2.37933e-06	-1.10747e-09	-2.37822e-06	0.246713	25605.5	11.9183	25593.6
0.0146812	38.8857	12.0342	40.7052	-17.1961	463.181	0.246824	-0.0110084	900829	78736.4	1	12	0.00454502	0.000111657	0	-0.00153859	-5.69301e-05	2.58623e-06	2.9939	0.0231623	0.0231307	-0.00120976	-17.1848	40.727	38.9088	12.033	0.0234687	0.00726301	0.0245669	17.1961	7.87364e+07	2.54418e+08	2.66323e+08	-72.8039	0.0000000E+000	0.0000000E+000	0.0000000E+000	72.8039	0.0000000E+000	0.0000000E+000	0.0000000E+000	-72.8039	0.0000000E+000	0.0000000E+000	0.0000000E+000	-17.1961	0.0000000E+000	0.0000000E+000	0.0000000E+000	17.1961	3.23127	72.8039	-0.000582746	-2.71715e-06	6.26711e-10	-2.71778e-06	0.246881	22421.4	5.1715	22426.6
0.0100092	41.356	15.2415	44.0752	-20.231	673.362	0.246814	-0.0121717	1.04326e+06	124756	1	12	0.00454625	0.000103148	0	-0.00225813	0.000420341	1.68085e-06	-0.89081	0.0162956	0.0162936	0.000253346	-20.224	44.0906	41.3723	15.2418	0.0212888	0.00784584	0.0226885	20.231	1.24756e+08	3.38511e+08	3.60768e+08	-69.769	0.0000000E+000	0.0000000E+000	0.0000000E+000	69.769	0.0000000E+000	0.0000000E+000	0.0000000E+000	-69.769	0.0000000E+000	0.0000000E+000	0.0000000E+000	-20.231	0.0000000E+000	0.0000000E+000	0.0000000E+000	20.231	2.71338	69.769	-0.000719537	-3.00414e-06	-5.11625e-09	-2.99902e-06	0.246394	20277.7	34.5344	20243.2