File: txt/18346_R257_UA646_SOC00_C01.mpt
EC-Lab ASCII FILE
Nb header lines : 65

Potentio Electrochemical Impedance Spectroscopy

Run on channel : 1 (SN 66354)
User :
CE vs. WE compliance from -10 V to 10 V
Electrode connection : standard
Potential control : Ewe
Ewe ctrl range : min = -10.00 V, max = 10.00 V
Safety Limits :
	Do not start on E overload
Acquisition started on : 10/13/2025 14:39:24.925
Technique started on : 10/13/2025 14:39:26.837
Loaded Setting File :  C:\Users\Celltest\OneDrive - store-dot.com\Documents\EC-Lab\Data\@Biologic Test Protocols\anode half cell EIS SOC00.mps
Saved on :
	File : 18346_R257_UA646_SOC00_C01.mpr
	Directory : C:\Users\Celltest\OneDrive - store-dot.com\Documents\EC-Lab\Data\John\
	Host : 169.254.61.224
Device : VMP-3e (SN .003165)
Address : USB
EC-LAB for windows v11.62 (software)
Internet server v27.00 (firmware)
Command interpretor v12.03 (firmware)
Electrode material :
Initial state :
Electrolyte :
Comments :
Electrode surface area : 0.001 cm²
Characteristic mass : 0.001 g
Equivalent Weight : 0.000 g/eq.
Density : 0.000 g/cm3
Volume (V) : 0.001 cm³
Record Ece
Cycle Definition : Charge/Discharge alternance
Mode                Single sine
E (V)               0.0000
vs.                 Eoc
tE (h:m:s)          0:00:0.0000
record              0
dI                  0.000
unit dI             mA
dt (s)              0.000
fi                  100.000
unit fi             kHz
ff                  10.000
unit ff             mHz
Nd                  6
Points              per decade
spacing             Logarithmic
Va (mV)             5.0
pw                  0.10
Na                  2
corr                0
E range min (V)     -10.000
E range max (V)     10.000
I Range             Auto
Bandwidth           5
nc cycles           0
goto Ns'            0
nr cycles           0
inc. cycle          0

freq/Hz	Re(Z)/Ohm	-Im(Z)/Ohm	|Z|/Ohm	Phase(Z)/deg	time/s	<Ewe>/V	<I>/mA	Cs/µF	Cp/µF	cycle number	I Range	|Ewe|/V	|I|/A	Ns	(Q-Qo)/mA.h	<Ece>/V	|Ece|/V	Phase(Zce)/deg	|Zce|/Ohm	Re(Zce)/Ohm	-Im(Zce)/Ohm	Phase(Zwe-ce)/deg	|Zwe-ce|/Ohm	Re(Zwe-ce)/Ohm	-Im(Zwe-ce)/Ohm	Re(Y)/Ohm-1	Im(Y)/Ohm-1	|Y|/Ohm-1	Phase(Y)/deg	Re(C)/nF	Im(C)/nF	|C|/nF	Phase(C)/deg	Re(M)	Im(M)	|M|	Phase(M)/deg	Re(Permittivity)	Im(Permittivity)	|Permittivity|	Phase(Permittivity)/deg	Re(Resistivity)/Ohm.cm	Im(Resistivity)/Ohm.cm	|Resistivity|/Ohm.cm	Phase(Resistivity)/deg	Re(Conductivity)/mS/cm	Im(Conductivity)/mS/cm	|Conductivity|/mS/cm	Phase(Conductivity)/deg	Tan(Delta)	Loss Angle(Delta)/deg	dq/mA.h	Pwe/W	Pce/W	Pwe-ce/W	<Ewe-Ece>/V	Rwe/Ohm	Rce/Ohm	Rwe-ce/Ohm		Ewe-Ece/V
100004	1.16237	0.459573	1.24993	-21.5726	1.91153	0.251248	0.0891451	3.46298	0.468155	1	9	0.00468243	0.00374617	0	1.14161e-05	0.000174035	4.79645e-05	86.928	0.0128036	0.000686159	-0.0127852	-21.0142	1.24592	1.16306	0.446788	0.744006	0.294161	0.800047	21.5726	468.155	1184.08	1273.27	-68.4274	0.0000000E+000	0.0000000E+000	0.0000000E+000	68.4274	0.0000000E+000	0.0000000E+000	0.0000000E+000	-68.4274	0.0000000E+000	0.0000000E+000	0.0000000E+000	-21.5726	0.0000000E+000	0.0000000E+000	0.0000000E+000	21.5726	2.52924	68.4274	1.14161e-05	2.23975e-05	1.55144e-08	2.2382e-05	0.251074	2818.42	1.95227	2816.47
68132	1.28682	0.532509	1.39265	-22.4806	2.42052	0.251244	0.0935038	4.38674	0.641372	1	9	0.00503642	0.00361642	0	1.56679e-05	0.000135881	4.30075e-05	61.6229	0.0118923	0.00565208	-0.0104633	-21.9943	1.39393	1.29248	0.522046	0.663488	0.274563	0.718054	22.4806	641.372	1549.89	1677.36	-67.5194	0.0000000E+000	0.0000000E+000	0.0000000E+000	67.5194	0.0000000E+000	0.0000000E+000	0.0000000E+000	-67.5194	0.0000000E+000	0.0000000E+000	0.0000000E+000	-22.4806	0.0000000E+000	0.0000000E+000	0.0000000E+000	22.4806	2.41653	67.5194	4.25186e-06	2.34923e-05	1.27054e-08	2.34796e-05	0.251108	2686.99	1.45321	2685.54
46420.4	1.42397	0.594262	1.54299	-22.6521	2.92756	0.251248	0.0865745	5.76944	0.855777	1	9	0.00502449	0.00325632	0	2.7003e-05	2.33964e-06	3.75881e-05	-18.9033	0.0115431	0.0109205	0.00373965	-22.6243	1.55451	1.43489	0.598001	0.598097	0.249602	0.64809	22.6521	855.777	2050.61	2222.02	-67.3479	0.0000000E+000	0.0000000E+000	0.0000000E+000	67.3479	0.0000000E+000	0.0000000E+000	0.0000000E+000	-67.3479	0.0000000E+000	0.0000000E+000	0.0000000E+000	-22.6521	0.0000000E+000	0.0000000E+000	0.0000000E+000	22.6521	2.3962	67.3479	1.13351e-05	2.17517e-05	2.02554e-10	2.17515e-05	0.251246	2902.11	0.0270246	2902.08
31621.1	1.57248	0.671717	1.70994	-23.1307	3.31056	0.251241	0.0983096	7.49301	1.15629	1	9	0.00547073	0.00319936	0	3.44323e-05	0.000174035	1.98137e-05	50.1616	0.00619301	0.00396739	-0.00475533	-22.9322	1.71173	1.57645	0.666962	0.537802	0.229733	0.584815	23.1307	1156.29	2706.86	2943.48	-66.8693	0.0000000E+000	0.0000000E+000	0.0000000E+000	66.8693	0.0000000E+000	0.0000000E+000	0.0000000E+000	-66.8693	0.0000000E+000	0.0000000E+000	0.0000000E+000	-23.1307	0.0000000E+000	0.0000000E+000	0.0000000E+000	23.1307	2.34099	66.8693	7.42931e-06	2.46994e-05	1.71094e-08	2.46823e-05	0.251067	2555.61	1.77028	2553.84
21544.7	1.73345	0.743182	1.88604	-23.2063	3.69552	0.251248	0.0904862	9.93996	1.54338	1	9	0.00546149	0.00289574	0	3.74537e-05	4.04943e-05	1.03022e-05	36.1683	0.00355771	0.0028721	-0.00209961	-23.1134	1.88786	1.73632	0.741083	0.487312	0.208926	0.53021	23.2063	1543.38	3599.87	3916.77	-66.7937	0.0000000E+000	0.0000000E+000	0.0000000E+000	66.7937	0.0000000E+000	0.0000000E+000	0.0000000E+000	-66.7937	0.0000000E+000	0.0000000E+000	0.0000000E+000	-23.2063	0.0000000E+000	0.0000000E+000	0.0000000E+000	23.2063	2.33247	66.7937	3.02135e-06	2.27345e-05	3.66417e-09	2.27308e-05	0.251208	2776.64	0.447518	2776.2
14678.6	1.90458	0.825037	2.0756	-23.4216	4.07854	0.251244	0.0888843	13.142	2.07645	1	9	0.00513817	0.00247551	0	4.12612e-05	-0.000112124	1.15679e-05	-88.678	0.00467294	0.000107813	0.0046717	-23.5386	2.07756	1.90469	0.829709	0.442092	0.191508	0.481789	23.4216	2076.46	4793.45	5223.87	-66.5784	0.0000000E+000	0.0000000E+000	0.0000000E+000	66.5784	0.0000000E+000	0.0000000E+000	0.0000000E+000	-66.5784	0.0000000E+000	0.0000000E+000	0.0000000E+000	-23.4216	0.0000000E+000	0.0000000E+000	0.0000000E+000	23.4216	2.30848	66.5784	3.80751e-06	2.23317e-05	-9.96608e-09	2.23416e-05	0.251356	2826.64	1.26146	2827.9
10002.2	2.09515	0.914831	2.28617	-23.5881	4.33753	0.251239	0.0903745	17.3933	2.78513	1	9	0.00532359	0.0023286	0	4.73825e-05	0.000135881	5.50632e-06	61.6791	0.00236464	0.00112181	-0.0020816	-23.529	2.28637	2.09628	0.91275	0.400865	0.175034	0.437412	23.5881	2785.13	6378.54	6960.08	-66.4119	0.0000000E+000	0.0000000E+000	0.0000000E+000	66.4119	0.0000000E+000	0.0000000E+000	0.0000000E+000	-66.4119	0.0000000E+000	0.0000000E+000	0.0000000E+000	-23.5881	0.0000000E+000	0.0000000E+000	0.0000000E+000	23.5881	2.29021	66.4119	6.12132e-06	2.27056e-05	1.22802e-08	2.26933e-05	0.251103	2779.98	1.50353	2778.48
6810.42	2.31573	1.05372	2.54419	-24.467	4.59656	0.251237	0.0856059	22.1778	3.80428	1	9	0.00529111	0.00207968	0	5.21476e-05	-0.000169356	6.52805e-05	144.451	0.0313897	-0.0255391	-0.01825	-24.3294	2.5134	2.29019	1.03547	0.357756	0.16279	0.393052	24.467	3804.28	8360.52	9185.36	-65.5331	0.0000000E+000	0.0000000E+000	0.0000000E+000	65.5331	0.0000000E+000	0.0000000E+000	0.0000000E+000	-65.5331	0.0000000E+000	0.0000000E+000	0.0000000E+000	-24.467	0.0000000E+000	0.0000000E+000	0.0000000E+000	24.467	2.19766	65.5331	4.76515e-06	2.15074e-05	-1.44979e-08	2.15219e-05	0.251407	2934.81	1.97832	2936.79
4646	2.52289	1.16727	2.77984	-24.8287	4.86259	0.251223	0.0659356	29.3474	5.17457	1	9	0.00510633	0.00183692	0	5.86841e-05	0.000288499	8.36934e-06	-34.9351	0.00455619	0.00373517	0.00260909	-24.8451	2.78432	2.52662	1.16988	0.326482	0.151054	0.359733	24.8287	5174.57	11184.1	12323.1	-65.1713	0.0000000E+000	0.0000000E+000	0.0000000E+000	65.1713	0.0000000E+000	0.0000000E+000	0.0000000E+000	-65.1713	0.0000000E+000	0.0000000E+000	0.0000000E+000	-24.8287	0.0000000E+000	0.0000000E+000	0.0000000E+000	24.8287	2.16136	65.1713	6.53651e-06	1.65645e-05	1.90224e-08	1.65455e-05	0.250935	3810.13	4.37547	3805.75
3163.08	2.77775	1.32699	3.07844	-25.5347	5.23562	0.251083	0.0419438	37.9178	7.04556	1	9	0.00500553	0.001626	0	6.2477e-05	0.00021219	1.39904e-05	-23.6624	0.00860423	0.00788084	0.00345328	-25.5295	3.08704	2.78563	1.33044	0.293111	0.140025	0.32484	25.5347	7045.56	14748.3	16344.8	-64.4653	0.0000000E+000	0.0000000E+000	0.0000000E+000	64.4653	0.0000000E+000	0.0000000E+000	0.0000000E+000	-64.4653	0.0000000E+000	0.0000000E+000	0.0000000E+000	-25.5347	0.0000000E+000	0.0000000E+000	0.0000000E+000	25.5347	2.09328	64.4653	3.79284e-06	1.05314e-05	8.90005e-09	1.05225e-05	0.250871	5986.17	5.05891	5981.12
2155.69	3.06738	1.55113	3.43727	-26.8251	5.68783	0.251105	0.0758825	47.5976	9.69291	1	9	0.00494348	0.0014382	0	7.28613e-05	-9.30469e-05	9.20302e-06	-96.4636	0.00639899	-0.000720342	0.00635831	-26.925	3.4395	3.06666	1.55749	0.259621	0.131287	0.290928	26.8251	9692.91	19167.9	21479.3	-63.1749	0.0000000E+000	0.0000000E+000	0.0000000E+000	63.1749	0.0000000E+000	0.0000000E+000	0.0000000E+000	-63.1749	0.0000000E+000	0.0000000E+000	0.0000000E+000	-26.8251	0.0000000E+000	0.0000000E+000	0.0000000E+000	26.8251	1.97751	63.1749	1.03843e-05	1.90545e-05	-7.06063e-09	1.90615e-05	0.251198	3309.13	1.2262	3310.35
1468.59	3.36861	1.82195	3.82976	-28.4072	6.38511	0.251152	-0.00923951	59.4816	13.4621	1	10	0.00503053	0.00131354	0	7.68106e-05	5.95716e-05	8.25293e-06	-108.612	0.00628299	-0.00200529	0.00595439	-28.4998	3.83083	3.36661	1.82791	0.229672	0.124221	0.261113	28.4072	13462.1	24890.1	28297.5	-61.5928	0.0000000E+000	0.0000000E+000	0.0000000E+000	61.5928	0.0000000E+000	0.0000000E+000	0.0000000E+000	-61.5928	0.0000000E+000	0.0000000E+000	0.0000000E+000	-28.4072	0.0000000E+000	0.0000000E+000	0.0000000E+000	28.4072	1.8489	61.5928	3.94931e-06	-2.32052e-06	-5.50412e-10	-2.31997e-06	0.251092	27182.4	6.44748	27175.9
1000.32	3.70013	2.17591	4.2925	-30.4583	6.83577	0.251151	-0.00945195	73.1205	18.7889	1	10	0.00495596	0.00115456	0	7.67539e-05	0.00021219	1.24673e-05	-89.824	0.0107983	3.31773e-05	0.0107982	-30.5821	4.29802	3.70017	2.18671	0.200815	0.118092	0.232964	30.4583	18788.9	31950.5	37065.6	-59.5417	0.0000000E+000	0.0000000E+000	0.0000000E+000	59.5417	0.0000000E+000	0.0000000E+000	0.0000000E+000	-59.5417	0.0000000E+000	0.0000000E+000	0.0000000E+000	-30.4583	0.0000000E+000	0.0000000E+000	0.0000000E+000	30.4583	1.7005	59.5417	-5.66987e-08	-2.37387e-06	-2.00561e-09	-2.37187e-06	0.250939	26571.4	22.4493	26548.9
681.09	4.08465	2.6829	4.88696	-33.2979	7.28554	0.251142	-0.0100035	87.0985	26.2509	1	10	0.00490198	0.00100307	0	7.50261e-05	0.000174035	8.1632e-06	10.7842	0.00813818	0.00799445	-0.00152274	-33.2316	4.89281	4.09265	2.68138	0.171032	0.112338	0.204626	33.2979	26250.9	39966.3	47816.4	-56.7021	0.0000000E+000	0.0000000E+000	0.0000000E+000	56.7021	0.0000000E+000	0.0000000E+000	0.0000000E+000	-56.7021	0.0000000E+000	0.0000000E+000	0.0000000E+000	-33.2979	0.0000000E+000	0.0000000E+000	0.0000000E+000	33.2979	1.52247	56.7021	-1.72783e-06	-2.51231e-06	-1.74097e-09	-2.51057e-06	0.250968	25105.3	17.3974	25087.9
463.961	4.58631	3.3576	5.68399	-36.2075	7.73736	0.251141	-0.00931406	102.167	35.6501	1	10	0.00486945	0.000856697	0	7.3561e-05	0.000460195	5.15786e-06	-4.53607	0.00602063	0.00600178	0.000476152	-36.1757	5.68911	4.59232	3.35807	0.141957	0.103925	0.175933	36.2075	35650.1	48696.3	60351.2	-53.7925	0.0000000E+000	0.0000000E+000	0.0000000E+000	53.7925	0.0000000E+000	0.0000000E+000	0.0000000E+000	-53.7925	0.0000000E+000	0.0000000E+000	0.0000000E+000	-36.2075	0.0000000E+000	0.0000000E+000	0.0000000E+000	36.2075	1.36595	53.7925	-1.46512e-06	-2.33915e-06	-4.28628e-09	-2.33486e-06	0.250681	26963.7	49.4086	26914.3
316.316	5.27703	4.25367	6.77796	-38.8713	8.18509	0.251146	-0.00950787	118.287	46.587	1	10	0.00484449	0.000714742	0	7.30085e-05	0.000307577	5.56582e-06	37.806	0.00778718	0.00615258	-0.00477346	-38.8073	6.77976	5.28319	4.2489	0.114866	0.0925903	0.147537	38.8713	46587	57795	74233.5	-51.1287	0.0000000E+000	0.0000000E+000	0.0000000E+000	51.1287	0.0000000E+000	0.0000000E+000	0.0000000E+000	-51.1287	0.0000000E+000	0.0000000E+000	0.0000000E+000	-38.8713	0.0000000E+000	0.0000000E+000	0.0000000E+000	38.8713	1.24058	51.1287	-5.52476e-07	-2.38786e-06	-2.9244e-09	-2.38494e-06	0.250838	26414.5	32.3497	26382.2
215.345	6.30034	5.35385	8.26789	-40.357	8.63557	0.251152	-0.00944451	138.045	57.8847	1	10	0.00482821	0.000583971	0	7.23297e-05	-0.000226588	1.03624e-05	17.4135	0.0177447	0.0169315	-0.00531038	-40.2531	8.27737	6.31727	5.34854	0.0921668	0.0783208	0.12095	40.357	57884.6	68117.8	89390.5	-49.643	0.0000000E+000	0.0000000E+000	0.0000000E+000	49.643	0.0000000E+000	0.0000000E+000	0.0000000E+000	-49.643	0.0000000E+000	0.0000000E+000	0.0000000E+000	-40.357	0.0000000E+000	0.0000000E+000	0.0000000E+000	40.357	1.17679	49.643	-6.78784e-07	-2.372e-06	2.14001e-09	-2.37414e-06	0.251378	26592.3	23.9915	26616.3
146.737	7.76259	6.58122	10.1769	-40.2917	9.08148	0.251151	-0.0112297	164.806	68.9209	1	10	0.00481176	0.00047281	0	7.06392e-05	-9.30469e-05	3.15571e-06	-90.5113	0.00667439	-5.95602e-05	0.00667412	-40.3205	10.1812	7.76253	6.58789	0.07495	0.0635435	0.0982613	40.2917	68920.9	81292.6	106577	-49.7083	0.0000000E+000	0.0000000E+000	0.0000000E+000	49.7083	0.0000000E+000	0.0000000E+000	0.0000000E+000	-49.7083	0.0000000E+000	0.0000000E+000	0.0000000E+000	-40.2917	0.0000000E+000	0.0000000E+000	0.0000000E+000	40.2917	1.17951	49.7083	-1.69049e-06	-2.82036e-06	1.04489e-09	-2.8214e-06	0.251244	22364.8	8.28577	22373.1
100.032	9.78433	7.7274	12.4678	-38.3008	9.53286	0.251155	-0.0103502	205.896	79.0926	1	10	0.00480643	0.000385508	0	6.96903e-05	0.000269422	4.0671e-06	-29.6641	0.01055	0.00916731	0.00522133	-38.2935	12.4782	9.7935	7.73263	0.0629436	0.0497112	0.0802067	38.3008	79092.6	100146	127612	-51.6992	0.0000000E+000	0.0000000E+000	0.0000000E+000	51.6992	0.0000000E+000	0.0000000E+000	0.0000000E+000	-51.6992	0.0000000E+000	0.0000000E+000	0.0000000E+000	-38.3008	0.0000000E+000	0.0000000E+000	0.0000000E+000	38.3008	1.26619	51.6992	-9.48966e-07	-2.5995e-06	-2.78856e-09	-2.59671e-06	0.250886	24265.8	26.0307	24239.8
68.104	12.3498	8.46469	14.9722	-34.4273	9.99544	0.251152	-0.00793138	276.081	88.2442	1	10	0.00480797	0.000321126	0	6.88749e-05	0.00021219	8.89753e-06	47.9229	0.0277072	0.0185675	-0.0205655	-34.3222	14.9759	12.3683	8.44412	0.0550917	0.0377606	0.0667904	34.4273	88244.2	128746	156085	-55.5727	0.0000000E+000	0.0000000E+000	0.0000000E+000	55.5727	0.0000000E+000	0.0000000E+000	0.0000000E+000	-55.5727	0.0000000E+000	0.0000000E+000	0.0000000E+000	-34.4273	0.0000000E+000	0.0000000E+000	0.0000000E+000	34.4273	1.45897	55.5727	-8.15314e-07	-1.99199e-06	-1.68296e-09	-1.9903e-06	0.25094	31665.7	26.7532	31638.9
46.4415	15.0984	8.67235	17.4119	-29.8725	10.4317	0.25114	-0.0126944	395.164	98.0302	1	10	0.00480205	0.000275792	0	6.7341e-05	2.1417e-05	1.25922e-05	44.1872	0.0456582	0.03274	-0.031824	-29.7281	17.4244	15.1312	8.64052	0.0498015	0.0286053	0.0574321	29.8725	98030.2	170669	196820	-60.1275	0.0000000E+000	0.0000000E+000	0.0000000E+000	60.1275	0.0000000E+000	0.0000000E+000	0.0000000E+000	-60.1275	0.0000000E+000	0.0000000E+000	0.0000000E+000	-29.8725	0.0000000E+000	0.0000000E+000	0.0000000E+000	29.8725	1.74099	60.1275	-1.53392e-06	-3.18807e-06	-2.71876e-10	-3.1878e-06	0.251118	19783.5	1.68712	19781.8
31.6296	17.853	8.28448	19.6815	-24.8931	11.0966	0.251179	-0.00192977	607.381	107.616	1	11	0.00481633	0.000244713	0	6.63127e-05	0.000326654	7.31945e-06	65.8839	0.0299103	0.012221	-0.0272997	-24.8061	19.6811	17.8652	8.25718	0.0460886	0.0213869	0.0508091	24.8931	107616	231911	255663	-65.1069	0.0000000E+000	0.0000000E+000	0.0000000E+000	65.1069	0.0000000E+000	0.0000000E+000	0.0000000E+000	-65.1069	0.0000000E+000	0.0000000E+000	0.0000000E+000	-24.8931	0.0000000E+000	0.0000000E+000	0.0000000E+000	24.8931	2.15499	65.1069	-1.02832e-06	-4.84718e-07	-6.30368e-10	-4.84087e-07	0.250852	130160	169.271	129990
21.5517	20.1193	7.52476	21.4804	-20.5062	11.5175	0.251181	-0.00222471	981.399	120.433	1	11	0.00481148	0.000223994	0	6.59636e-05	0.000174035	1.28405e-05	50.7109	0.0573253	0.0363003	-0.0443675	-20.3615	21.4989	20.1556	7.48039	0.0436042	0.0163083	0.0465541	20.5062	120433	322008	343792	-69.4938	0.0000000E+000	0.0000000E+000	0.0000000E+000	69.4938	0.0000000E+000	0.0000000E+000	0.0000000E+000	-69.4938	0.0000000E+000	0.0000000E+000	0.0000000E+000	-20.5062	0.0000000E+000	0.0000000E+000	0.0000000E+000	20.5062	2.67374	69.4938	-3.49125e-07	-5.58803e-07	-3.87178e-10	-5.58416e-07	0.251007	112905	78.2285	112827
14.6852	21.9239	6.58468	22.8913	-16.7173	11.9782	0.251188	-0.00189291	1645.91	136.186	1	11	0.00480658	0.000209974	0	6.53386e-05	0.000326654	7.6399e-06	68.7863	0.0363851	0.0131658	-0.0339195	-16.6265	22.8942	21.937	6.55077	0.0418383	0.0125659	0.0436846	16.7173	136186	453436	473446	-73.2827	0.0000000E+000	0.0000000E+000	0.0000000E+000	73.2827	0.0000000E+000	0.0000000E+000	0.0000000E+000	-73.2827	0.0000000E+000	0.0000000E+000	0.0000000E+000	-16.7173	0.0000000E+000	0.0000000E+000	0.0000000E+000	16.7173	3.32952	73.2827	-6.24977e-07	-4.75475e-07	-6.18325e-10	-4.74857e-07	0.250861	132700	172.567	132527
10.0032	23.3453	5.68771	24.0282	-13.6925	12.4288	0.251173	-0.00245335	2797.33	156.739	1	11	0.0048023	0.000199861	0	6.66685e-05	0.000116803	2.34473e-06	6.32081	0.0117318	0.0116604	-0.00129161	-13.6829	24.0392	23.357	5.68642	0.040435	0.00985136	0.0416178	13.6925	156739	643338	662156	-76.3075	0.0000000E+000	0.0000000E+000	0.0000000E+000	76.3075	0.0000000E+000	0.0000000E+000	0.0000000E+000	-76.3075	0.0000000E+000	0.0000000E+000	0.0000000E+000	-13.6925	0.0000000E+000	0.0000000E+000	0.0000000E+000	13.6925	4.10451	76.3075	1.32985e-06	-6.16216e-07	-2.8656e-10	-6.15929e-07	0.251056	102379	47.6097	102332
6.81719	24.5595	4.96555	25.0565	-11.4302	12.7685	0.251191	-0.000721363	4701.62	184.647	1	11	0.00480728	0.000191858	0	6.51975e-05	-3.5815e-05	6.93082e-06	-114.566	0.0361248	-0.0150185	0.0328549	-11.5107	25.0483	24.5445	4.9984	0.0391183	0.00790911	0.0399099	11.4302	184647	913261	931740	-78.5698	0.0000000E+000	0.0000000E+000	0.0000000E+000	78.5698	0.0000000E+000	0.0000000E+000	0.0000000E+000	-78.5698	0.0000000E+000	0.0000000E+000	0.0000000E+000	-11.4302	0.0000000E+000	0.0000000E+000	0.0000000E+000	11.4302	4.94598	78.5698	-1.47095e-06	-1.812e-07	2.58356e-11	-1.81226e-07	0.251227	348217	49.6491	348267
4.63925	25.5342	4.25701	25.8866	-9.46518	13.2524	0.251182	-0.00181433	8058.75	217.935	1	11	0.00480875	0.000185762	0	6.41947e-05	0.000174035	4.41416e-06	-33.8158	0.0237625	0.0197426	0.0132244	-9.48685	25.9083	25.5539	4.27023	0.0381041	0.00635264	0.03863	9.46518	217935	1.30721e+06	1.32525e+06	-80.5348	0.0000000E+000	0.0000000E+000	0.0000000E+000	80.5348	0.0000000E+000	0.0000000E+000	0.0000000E+000	-80.5348	0.0000000E+000	0.0000000E+000	0.0000000E+000	-9.46518	0.0000000E+000	0.0000000E+000	0.0000000E+000	9.46518	5.99815	80.5348	-1.00283e-06	-4.55728e-07	-3.15758e-10	-4.55412e-07	0.251008	138443	95.9226	138348
3.1604	26.2929	3.85757	26.5744	-8.3466	13.9454	0.251187	-0.00103082	13054.6	275.084	1	11	0.0048056	0.000180836	0	6.61916e-05	0.00021219	7.07022e-06	-0.991136	0.0390975	0.0390917	0.000676298	-8.33582	26.6132	26.332	3.85824	0.0372316	0.00546243	0.0376302	8.3466	275084	1.87495e+06	1.89502e+06	-81.6534	0.0000000E+000	0.0000000E+000	0.0000000E+000	81.6534	0.0000000E+000	0.0000000E+000	0.0000000E+000	-81.6534	0.0000000E+000	0.0000000E+000	0.0000000E+000	-8.3466	0.0000000E+000	0.0000000E+000	0.0000000E+000	8.3466	6.81594	81.6534	1.99689e-06	-2.58928e-07	-2.1873e-10	-2.58709e-07	0.250974	243676	205.846	243471
2.15577	27.0536	3.4681	27.275	-7.30511	14.9491	0.251194	-0.000247868	21287.6	344.176	1	11	0.00481264	0.000176449	0	6.86515e-05	0.000154958	3.05823e-06	14.7334	0.0173321	0.0167622	-0.00440793	-7.29146	27.291	27.0703	3.46369	0.0363661	0.0046619	0.0366637	7.30511	344176	2.68482e+06	2.70679e+06	-82.6949	0.0000000E+000	0.0000000E+000	0.0000000E+000	82.6949	0.0000000E+000	0.0000000E+000	0.0000000E+000	-82.6949	0.0000000E+000	0.0000000E+000	0.0000000E+000	-7.30511	0.0000000E+000	0.0000000E+000	0.0000000E+000	7.30511	7.8007	82.6949	2.45997e-06	-6.22627e-08	-3.84091e-11	-6.22243e-08	0.251039	1.01342e+06	625.165	1.01279e+06
1.46631	27.7557	3.28239	27.9491	-6.74446	16.4086	0.251198	0.000190751	33067.8	456.087	1	11	0.0048107	0.000172123	0	6.84856e-05	0.000154958	3.11349e-06	89.4871	0.0180887	0.000161912	-0.018088	-6.7076	27.9472	27.7559	3.2643	0.0355317	0.00420197	0.0357793	6.74446	456087	3.85665e+06	3.88352e+06	-83.2555	0.0000000E+000	0.0000000E+000	0.0000000E+000	83.2555	0.0000000E+000	0.0000000E+000	0.0000000E+000	-83.2555	0.0000000E+000	0.0000000E+000	0.0000000E+000	-6.74446	0.0000000E+000	0.0000000E+000	0.0000000E+000	6.74446	8.45596	83.2555	-1.65941e-07	4.79164e-08	2.95585e-11	4.78869e-08	0.251043	1.31689e+06	812.357	1.31608e+06
1.00006	28.3477	3.17151	28.5246	-6.38363	19.5846	0.251189	-0.00090103	50179.6	620.324	1	12	0.00480936	0.000168604	0	6.31317e-05	0.000250345	3.78846e-06	10.2209	0.0224696	0.022113	-0.00398709	-6.37074	28.5461	28.3699	3.16752	0.0348401	0.00389786	0.0350575	6.38363	620324	5.54462e+06	5.57921e+06	-83.6164	0.0000000E+000	0.0000000E+000	0.0000000E+000	83.6164	0.0000000E+000	0.0000000E+000	0.0000000E+000	-83.6164	0.0000000E+000	0.0000000E+000	0.0000000E+000	-6.38363	0.0000000E+000	0.0000000E+000	0.0000000E+000	6.38363	8.93826	83.6164	-5.3539e-06	-2.26329e-07	-2.25568e-10	-2.26103e-07	0.250939	278780	277.843	278502
0.681362	29.043	3.14056	29.2123	-6.17169	22.6949	0.25119	-0.00113002	74376.3	859.642	1	12	0.00482278	0.000165094	0	5.53484e-05	-1.67377e-05	1.56734e-05	-33.127	0.094936	0.0795053	0.0518822	-6.25585	29.297	29.1225	3.19244	0.0340338	0.00368024	0.0342322	6.17169	859642	7.94972e+06	7.99606e+06	-83.8283	0.0000000E+000	0.0000000E+000	0.0000000E+000	83.8283	0.0000000E+000	0.0000000E+000	0.0000000E+000	-83.8283	0.0000000E+000	0.0000000E+000	0.0000000E+000	-6.17169	0.0000000E+000	0.0000000E+000	0.0000000E+000	6.17169	9.24771	83.8283	-7.78333e-06	-2.8385e-07	1.89139e-11	-2.83869e-07	0.251207	222288	14.8118	222303
0.464091	29.6438	3.20117	29.8161	-6.16337	27.2513	0.251197	-0.00190653	107129	1234.88	1	12	0.00481051	0.000161339	0	4.86559e-05	0.000441118	2.51167e-06	16.0956	0.0155676	0.0149574	-0.00431598	-6.15204	29.8305	29.6587	3.19686	0.033345	0.00360086	0.0335389	6.16337	1.23488e+06	1.14353e+07	1.15018e+07	-83.8366	0.0000000E+000	0.0000000E+000	0.0000000E+000	83.8366	0.0000000E+000	0.0000000E+000	0.0000000E+000	-83.8366	0.0000000E+000	0.0000000E+000	0.0000000E+000	-6.16337	0.0000000E+000	0.0000000E+000	0.0000000E+000	6.16337	9.2603	83.8366	-6.69241e-06	-4.78915e-07	-8.41004e-10	-4.78074e-07	0.250756	131756	231.372	131525
0.316193	30.2678	3.4604	30.465	-6.52209	33.9259	0.251196	-0.00289049	145459	1876.69	1	12	0.00481041	0.0001579	0	4.79822e-05	0.00021219	1.67429e-06	4.48722	0.0106035	0.010571	-0.000829582	-6.51828	30.4754	30.2784	3.45957	0.0326122	0.00372842	0.0328246	6.52209	1.87669e+06	1.64152e+07	1.65222e+07	-83.4779	0.0000000E+000	0.0000000E+000	0.0000000E+000	83.4779	0.0000000E+000	0.0000000E+000	0.0000000E+000	-83.4779	0.0000000E+000	0.0000000E+000	0.0000000E+000	-6.52209	0.0000000E+000	0.0000000E+000	0.0000000E+000	6.52209	8.74691	83.4779	-6.73783e-07	-7.2608e-07	-6.13333e-10	-7.25467e-07	0.250984	86904.3	73.4097	86830.9
0.215268	30.9143	3.83595	31.1514	-7.0733	43.7192	0.25119	-0.00368726	192738	2922.53	1	12	0.00480981	0.000154401	0	5.61538e-05	-5.48923e-05	2.31002e-06	-19.6355	0.0149612	0.0140912	0.00502747	-7.07928	31.166	30.9284	3.84098	0.031857	0.00395292	0.0321013	7.0733	2.92253e+06	2.3553e+07	2.37336e+07	-82.9267	0.0000000E+000	0.0000000E+000	0.0000000E+000	82.9267	0.0000000E+000	0.0000000E+000	0.0000000E+000	-82.9267	0.0000000E+000	0.0000000E+000	0.0000000E+000	-7.0733	0.0000000E+000	0.0000000E+000	0.0000000E+000	7.0733	8.0591	82.9267	8.17166e-06	-9.26202e-07	2.02402e-10	-9.26404e-07	0.251245	68123.8	14.887	68138.7
0.146929	31.714	4.31374	32.006	-7.74585	58.0577	0.251196	-0.0038043	251107	4561.47	1	12	0.00481132	0.000150326	0	7.06e-05	0.000250345	2.85486e-06	26.0206	0.0189912	0.0170662	-0.00833133	-7.72697	32.0218	31.731	4.30541	0.0309591	0.00421106	0.0312441	7.74585	4.56147e+06	3.35352e+07	3.3844e+07	-82.2541	0.0000000E+000	0.0000000E+000	0.0000000E+000	82.2541	0.0000000E+000	0.0000000E+000	0.0000000E+000	-82.2541	0.0000000E+000	0.0000000E+000	0.0000000E+000	-7.74585	0.0000000E+000	0.0000000E+000	0.0000000E+000	7.74585	7.35184	82.2541	1.44462e-05	-9.55624e-07	-9.52386e-10	-9.54672e-07	0.250945	66029.4	65.8057	65963.6
0.0999041	32.7563	5.03352	33.1408	-8.73606	79.1339	0.251194	-0.00406152	316494	7301.02	1	12	0.00481043	0.000145151	0	7.62666e-05	-1.67377e-05	2.99355e-06	-26.3359	0.0206237	0.0184831	0.00914933	-8.74684	33.1604	32.7748	5.04266	0.0298243	0.00458297	0.0301743	8.73606	7.30102e+06	4.75124e+07	4.807e+07	-81.2639	0.0000000E+000	0.0000000E+000	0.0000000E+000	81.2639	0.0000000E+000	0.0000000E+000	0.0000000E+000	-81.2639	0.0000000E+000	0.0000000E+000	0.0000000E+000	-8.73606	0.0000000E+000	0.0000000E+000	0.0000000E+000	8.73606	6.50763	81.2639	5.66664e-06	-1.02023e-06	6.79803e-11	-1.0203e-06	0.251211	61847.3	4.12104	61851.4
0.0680626	33.9174	5.99987	34.444	-10.0317	110.06	0.251186	-0.00462303	389735	11825.7	1	12	0.00481298	0.000139733	0	4.82455e-05	0.000383886	2.16387e-06	-12.5716	0.0154857	0.0151144	0.0033706	-10.0328	34.4594	33.9325	6.00324	0.0285888	0.00505726	0.0290326	10.0317	1.18257e+07	6.68509e+07	6.78888e+07	-79.9683	0.0000000E+000	0.0000000E+000	0.0000000E+000	79.9683	0.0000000E+000	0.0000000E+000	0.0000000E+000	-79.9683	0.0000000E+000	0.0000000E+000	0.0000000E+000	-10.0317	0.0000000E+000	0.0000000E+000	0.0000000E+000	10.0317	5.65302	79.9683	-2.80211e-05	-1.16124e-06	-1.77471e-09	-1.15947e-06	0.250802	54333.7	83.0377	54250.7
0.0464052	35.0919	7.21142	35.8252	-11.6127	155.412	0.251193	-0.005326	475590	19270.7	1	12	0.0048126	0.000134336	0	-5.66742e-05	-0.000302897	2.40762e-06	20.4915	0.0179225	0.0167884	-0.00627408	-11.5974	35.8404	35.1087	7.20515	0.0273419	0.00561879	0.0279133	11.6127	1.92707e+07	9.3774e+07	9.57336e+07	-78.3873	0.0000000E+000	0.0000000E+000	0.0000000E+000	78.3873	0.0000000E+000	0.0000000E+000	0.0000000E+000	-78.3873	0.0000000E+000	0.0000000E+000	0.0000000E+000	-11.6127	0.0000000E+000	0.0000000E+000	0.0000000E+000	11.6127	4.86616	78.3873	-0.00010492	-1.33785e-06	1.61323e-09	-1.33947e-06	0.251496	47163.5	56.8714	47220.3
0.0315922	36.4174	8.55158	37.408	-13.2149	222.017	0.251187	-0.00680745	589106	30786.4	1	12	0.00481035	0.000128592	0	-0.000285229	7.86489e-05	2.1045e-06	-20.8593	0.0163657	0.0152931	0.00582743	-13.2182	37.4242	36.4327	8.55741	0.0260244	0.00611109	0.0267323	13.2149	3.07864e+07	1.31106e+08	1.34672e+08	-76.7851	0.0000000E+000	0.0000000E+000	0.0000000E+000	76.7851	0.0000000E+000	0.0000000E+000	0.0000000E+000	-76.7851	0.0000000E+000	0.0000000E+000	0.0000000E+000	-13.2149	0.0000000E+000	0.0000000E+000	0.0000000E+000	13.2149	4.25855	76.7851	-0.000228555	-1.70994e-06	-5.35398e-10	-1.70941e-06	0.251109	36898.9	11.5534	36887.3
0.0215268	38.1412	10.2593	39.4969	-15.0552	319.755	0.251182	-0.00850896	720648	48621.9	1	12	0.00480965	0.000121773	0	-0.000659257	0.000193113	1.78109e-06	8.03484	0.0146263	0.0144828	-0.0020444	-15.0469	39.5104	38.1557	10.2573	0.0244494	0.00657644	0.0253184	15.0552	4.86219e+07	1.80763e+08	1.87188e+08	-74.9448	0.0000000E+000	0.0000000E+000	0.0000000E+000	74.9448	0.0000000E+000	0.0000000E+000	0.0000000E+000	-74.9448	0.0000000E+000	0.0000000E+000	0.0000000E+000	-15.0552	0.0000000E+000	0.0000000E+000	0.0000000E+000	15.0552	3.71772	74.9448	-0.000374028	-2.1373e-06	-1.64319e-09	-2.13566e-06	0.250989	29519.7	22.6952	29497.1
0.0146812	40.3865	12.7707	42.3575	-17.5476	463.058	0.251184	-0.010035	848877	77163.6	1	12	0.00480921	0.000113538	0	-0.00116261	0.000326654	1.68361e-06	-45.7544	0.0148285	0.0103464	0.0106225	-17.557	42.3706	40.3969	12.7813	0.02251	0.00711792	0.0236085	17.5476	7.71636e+07	2.44025e+08	2.55934e+08	-72.4524	0.0000000E+000	0.0000000E+000	0.0000000E+000	72.4524	0.0000000E+000	0.0000000E+000	0.0000000E+000	-72.4524	0.0000000E+000	0.0000000E+000	0.0000000E+000	-17.5476	0.0000000E+000	0.0000000E+000	0.0000000E+000	17.5476	3.16244	72.4524	-0.000503351	-2.52062e-06	-3.27796e-09	-2.51734e-06	0.250857	25030.8	32.5516	24998.3
0.0100092	42.8902	16.1437	45.8278	-20.6261	673.238	0.25119	-0.0111226	984962	122227	1	12	0.00480804	0.000104915	0	-0.00175391	2.33964e-06	1.03875e-06	45.9182	0.00990082	0.00688784	-0.00711223	-20.6148	45.8318	42.8971	16.1366	0.0204221	0.00768677	0.0218208	20.6261	1.22227e+08	3.2473e+08	3.46971e+08	-69.3739	0.0000000E+000	0.0000000E+000	0.0000000E+000	69.3739	0.0000000E+000	0.0000000E+000	0.0000000E+000	-69.3739	0.0000000E+000	0.0000000E+000	0.0000000E+000	-20.6261	0.0000000E+000	0.0000000E+000	0.0000000E+000	20.6261	2.65678	69.3739	-0.000591307	-2.79387e-06	-2.60228e-11	-2.79384e-06	0.251187	22583.8	0.210351	22583.6