File: txt/18349_R257_UA646_SOC00_C04.mpt
EC-Lab ASCII FILE
Nb header lines : 65

Potentio Electrochemical Impedance Spectroscopy

Run on channel : 4 (SN 66756)
User :
CE vs. WE compliance from -10 V to 10 V
Electrode connection : standard
Potential control : Ewe
Ewe ctrl range : min = -10.00 V, max = 10.00 V
Safety Limits :
	Do not start on E overload
Acquisition started on : 10/13/2025 14:39:56.984
Technique started on : 10/13/2025 14:39:58.896
Loaded Setting File :  C:\Users\Celltest\OneDrive - store-dot.com\Documents\EC-Lab\Data\@Biologic Test Protocols\anode half cell EIS SOC00.mps
Saved on :
	File : 18349_R257_UA646_SOC00_C04.mpr
	Directory : C:\Users\Celltest\OneDrive - store-dot.com\Documents\EC-Lab\Data\John\
	Host : 169.254.61.224
Device : VMP-3e (SN .003165)
Address : USB
EC-LAB for windows v11.62 (software)
Internet server v27.00 (firmware)
Command interpretor v12.03 (firmware)
Electrode material :
Initial state :
Electrolyte :
Comments :
Electrode surface area : 0.001 cm²
Characteristic mass : 0.001 g
Equivalent Weight : 0.000 g/eq.
Density : 0.000 g/cm3
Volume (V) : 0.001 cm³
Record Ece
Cycle Definition : Charge/Discharge alternance
Mode                Single sine
E (V)               0.0000
vs.                 Eoc
tE (h:m:s)          0:00:0.0000
record              0
dI                  0.000
unit dI             mA
dt (s)              0.000
fi                  100.000
unit fi             kHz
ff                  10.000
unit ff             mHz
Nd                  6
Points              per decade
spacing             Logarithmic
Va (mV)             5.0
pw                  0.10
Na                  2
corr                0
E range min (V)     -10.000
E range max (V)     10.000
I Range             Auto
Bandwidth           5
nc cycles           0
goto Ns'            0
nr cycles           0
inc. cycle          0

freq/Hz	Re(Z)/Ohm	-Im(Z)/Ohm	|Z|/Ohm	Phase(Z)/deg	time/s	<Ewe>/V	<I>/mA	Cs/µF	Cp/µF	cycle number	I Range	|Ewe|/V	|I|/A	Ns	(Q-Qo)/mA.h	<Ece>/V	|Ece|/V	Phase(Zce)/deg	|Zce|/Ohm	Re(Zce)/Ohm	-Im(Zce)/Ohm	Phase(Zwe-ce)/deg	|Zwe-ce|/Ohm	Re(Zwe-ce)/Ohm	-Im(Zwe-ce)/Ohm	Re(Y)/Ohm-1	Im(Y)/Ohm-1	|Y|/Ohm-1	Phase(Y)/deg	Re(C)/nF	Im(C)/nF	|C|/nF	Phase(C)/deg	Re(M)	Im(M)	|M|	Phase(M)/deg	Re(Permittivity)	Im(Permittivity)	|Permittivity|	Phase(Permittivity)/deg	Re(Resistivity)/Ohm.cm	Im(Resistivity)/Ohm.cm	|Resistivity|/Ohm.cm	Phase(Resistivity)/deg	Re(Conductivity)/mS/cm	Im(Conductivity)/mS/cm	|Conductivity|/mS/cm	Phase(Conductivity)/deg	Tan(Delta)	Loss Angle(Delta)/deg	dq/mA.h	Pwe/W	Pce/W	Pwe-ce/W	<Ewe-Ece>/V	Rwe/Ohm	Rce/Ohm	Rwe-ce/Ohm		Ewe-Ece/V
100004	1.26907	0.473737	1.35461	-20.4704	1.91155	0.250386	-0.0257204	3.35944	0.410881	1	9	0.00459558	0.00339256	0	-7.66578e-06	-0.000263931	4.15955e-05	82.4847	0.0122608	0.0016036	-0.0121555	-19.964	1.35191	1.27067	0.461582	0.691606	0.258174	0.738223	20.4704	410.881	1100.68	1174.87	-69.5296	0.0000000E+000	0.0000000E+000	0.0000000E+000	69.5296	0.0000000E+000	0.0000000E+000	0.0000000E+000	-69.5296	0.0000000E+000	0.0000000E+000	0.0000000E+000	-20.4704	0.0000000E+000	0.0000000E+000	0.0000000E+000	20.4704	2.67884	69.5296	-7.66578e-06	-6.44003e-06	6.78842e-09	-6.44682e-06	0.25065	9734.91	10.2615	9745.17
68132	1.39987	0.550728	1.50431	-21.4754	2.29456	0.250364	-0.0210583	4.24162	0.568504	1	9	0.00549009	0.00364958	0	-6.51679e-06	-0.000321261	3.02812e-05	60.7448	0.00829715	0.00405482	-0.00723886	-21.1625	1.50545	1.40392	0.543489	0.618608	0.243369	0.664758	21.4754	568.504	1445.05	1552.86	-68.5246	0.0000000E+000	0.0000000E+000	0.0000000E+000	68.5246	0.0000000E+000	0.0000000E+000	0.0000000E+000	-68.5246	0.0000000E+000	0.0000000E+000	0.0000000E+000	-21.4754	0.0000000E+000	0.0000000E+000	0.0000000E+000	21.4754	2.54185	68.5246	1.14899e-06	-5.27224e-06	6.7652e-09	-5.279e-06	0.250686	11889.1	15.2558	11904.4
46420.4	1.54376	0.609984	1.6599	-21.5604	2.80152	0.250383	-0.0301961	5.62073	0.75904	1	9	0.00504992	0.0030423	0	-9.46895e-06	-0.000321261	1.05313e-05	62.3739	0.00346161	0.00160515	-0.00306696	-21.4416	1.66027	1.54537	0.606917	0.560292	0.221387	0.602445	21.5604	759.04	1920.99	2065.52	-68.4396	0.0000000E+000	0.0000000E+000	0.0000000E+000	68.4396	0.0000000E+000	0.0000000E+000	0.0000000E+000	-68.4396	0.0000000E+000	0.0000000E+000	0.0000000E+000	-21.5604	0.0000000E+000	0.0000000E+000	0.0000000E+000	21.5604	2.53082	68.4396	-2.95216e-06	-7.56059e-06	9.70083e-09	-7.57029e-06	0.250704	8291.9	10.6392	8302.54
31621.1	1.70096	0.679253	1.83157	-21.7685	3.18452	0.250382	-0.0233334	7.40987	1.01912	1	9	0.00539772	0.00294704	0	-6.07347e-06	-5.37216e-05	2.0412e-05	22.4359	0.00692626	0.00640199	-0.0026434	-21.6179	1.83655	1.70737	0.67661	0.507044	0.20248	0.545978	21.7685	1019.12	2552.05	2748.01	-68.2315	0.0000000E+000	0.0000000E+000	0.0000000E+000	68.2315	0.0000000E+000	0.0000000E+000	0.0000000E+000	-68.2315	0.0000000E+000	0.0000000E+000	0.0000000E+000	-21.7685	0.0000000E+000	0.0000000E+000	0.0000000E+000	21.7685	2.50417	68.2315	3.39548e-06	-5.84227e-06	1.25351e-09	-5.84352e-06	0.250436	10730.6	2.30235	10732.9
21544.7	1.86234	0.760415	2.01161	-22.2107	3.56755	0.250382	-0.0223637	9.7147	1.38818	1	9	0.00535936	0.00266422	0	-1.5126e-06	-0.000435921	1.09645e-05	-18.132	0.00411545	0.00391109	0.00128076	-22.2024	2.01571	1.86626	0.761695	0.460229	0.187917	0.497115	22.2107	1388.18	3399.81	3672.29	-67.7893	0.0000000E+000	0.0000000E+000	0.0000000E+000	67.7893	0.0000000E+000	0.0000000E+000	0.0000000E+000	-67.7893	0.0000000E+000	0.0000000E+000	0.0000000E+000	-22.2107	0.0000000E+000	0.0000000E+000	0.0000000E+000	22.2107	2.44912	67.7893	4.56087e-06	-5.59947e-06	9.74879e-09	-5.60921e-06	0.250818	11195.9	19.4923	11215.4
14678.6	2.04083	0.831613	2.20376	-22.1703	3.95053	0.250375	-0.0302334	13.0381	1.85664	1	9	0.00531496	0.00241177	0	7.96872e-07	-0.000168381	9.09981e-06	15.0891	0.00377309	0.003643	-0.000982212	-22.111	2.20677	2.04447	0.830631	0.420221	0.171235	0.453769	22.1703	1856.64	4556.31	4920.07	-67.8297	0.0000000E+000	0.0000000E+000	0.0000000E+000	67.8297	0.0000000E+000	0.0000000E+000	0.0000000E+000	-67.8297	0.0000000E+000	0.0000000E+000	0.0000000E+000	-22.1703	0.0000000E+000	0.0000000E+000	0.0000000E+000	22.1703	2.45406	67.8297	2.30947e-06	-7.56969e-06	5.09074e-09	-7.57478e-06	0.250543	8281.39	5.56938	8286.96
10002.2	2.22896	0.926204	2.41374	-22.5644	4.33356	0.250379	-0.0291145	17.1797	2.52959	1	9	0.00504361	0.00208954	0	-4.62621e-06	-0.000263931	7.62536e-06	-124.057	0.00364929	-0.00204364	0.00302339	-22.6494	2.41301	2.22692	0.929228	0.382581	0.158974	0.414295	22.5644	2529.59	6087.6	6592.25	-67.4356	0.0000000E+000	0.0000000E+000	0.0000000E+000	67.4356	0.0000000E+000	0.0000000E+000	0.0000000E+000	-67.4356	0.0000000E+000	0.0000000E+000	0.0000000E+000	-22.5644	0.0000000E+000	0.0000000E+000	0.0000000E+000	22.5644	2.40655	67.4356	-5.42308e-06	-7.28967e-06	7.68422e-09	-7.29735e-06	0.250643	8599.81	9.06528	8608.87
6810.42	2.41493	1.04796	2.63251	-23.4585	4.59455	0.250368	-0.0319118	22.2998	3.53389	1	9	0.00520944	0.00197889	0	-5.56202e-06	-0.000244821	4.68567e-05	40.2722	0.0236783	0.0180661	-0.0153061	-22.9982	2.64307	2.43299	1.03266	0.348469	0.151219	0.379866	23.4585	3533.89	8143.49	8877.21	-66.5415	0.0000000E+000	0.0000000E+000	0.0000000E+000	66.5415	0.0000000E+000	0.0000000E+000	0.0000000E+000	-66.5415	0.0000000E+000	0.0000000E+000	0.0000000E+000	-23.4585	0.0000000E+000	0.0000000E+000	0.0000000E+000	23.4585	2.3044	66.5415	-9.35808e-07	-7.9897e-06	7.81269e-09	-7.99751e-06	0.250613	7845.62	7.6718	7853.29
4646	2.64521	1.16344	2.88976	-23.7413	4.85961	0.25037	-0.0346345	29.444	4.77266	1	9	0.00518288	0.00179353	0	-7.33253e-06	-0.000168381	5.251e-06	62.0929	0.00292774	0.0013703	-0.00258727	-23.6834	2.88997	2.64658	1.16085	0.316764	0.139322	0.346049	23.7413	4772.66	10851.2	11854.4	-66.2587	0.0000000E+000	0.0000000E+000	0.0000000E+000	66.2587	0.0000000E+000	0.0000000E+000	0.0000000E+000	-66.2587	0.0000000E+000	0.0000000E+000	0.0000000E+000	-23.7413	0.0000000E+000	0.0000000E+000	0.0000000E+000	23.7413	2.27361	66.2587	-1.77051e-06	-8.67145e-06	5.83181e-09	-8.67729e-06	0.250539	7228.92	4.86166	7233.79
3163.08	2.90379	1.31973	3.18962	-24.4412	5.23467	0.250271	-0.0547005	38.1262	6.52708	1	9	0.00510801	0.00160145	0	-1.41399e-05	9.9158e-05	5.16688e-06	41.4011	0.00322638	0.0024201	-0.00213369	-24.3883	3.19094	2.90621	1.3176	0.285422	0.129721	0.313517	24.4412	6527.08	14361.4	15775.1	-65.5588	0.0000000E+000	0.0000000E+000	0.0000000E+000	65.5588	0.0000000E+000	0.0000000E+000	0.0000000E+000	-65.5588	0.0000000E+000	0.0000000E+000	0.0000000E+000	-24.4412	0.0000000E+000	0.0000000E+000	0.0000000E+000	24.4412	2.20028	65.5588	-6.80733e-06	-1.369e-05	-5.42399e-09	-1.36845e-05	0.250172	4575.31	1.81275	4573.49
2155.69	3.19181	1.52124	3.5358	-25.4828	5.68577	0.250275	-0.0374691	48.5328	8.98376	1	9	0.00503576	0.00142422	0	-1.87443e-05	-0.000321261	2.29257e-05	-49.2647	0.016097	0.0105043	0.0121972	-25.5876	3.55053	3.20232	1.53344	0.255307	0.121681	0.282822	25.4828	8983.76	18849.4	20880.8	-64.5172	0.0000000E+000	0.0000000E+000	0.0000000E+000	64.5172	0.0000000E+000	0.0000000E+000	0.0000000E+000	-64.5172	0.0000000E+000	0.0000000E+000	0.0000000E+000	-25.4828	0.0000000E+000	0.0000000E+000	0.0000000E+000	25.4828	2.09816	64.5172	-4.60445e-06	-9.37758e-06	1.20374e-08	-9.38962e-06	0.250596	6679.49	8.57402	6688.07
1468.59	3.50244	1.78162	3.92954	-26.9616	6.38305	0.250314	-0.0215104	60.828	12.5041	1	10	0.00510208	0.00129839	0	-2.48048e-05	-0.000340371	1.39872e-05	-64.0698	0.0107727	0.00471064	0.00968818	-27.0561	3.93813	3.50715	1.79131	0.226823	0.115381	0.254483	26.9616	12504.1	24581.4	27579	-63.0384	0.0000000E+000	0.0000000E+000	0.0000000E+000	63.0384	0.0000000E+000	0.0000000E+000	0.0000000E+000	-63.0384	0.0000000E+000	0.0000000E+000	0.0000000E+000	-26.9616	0.0000000E+000	0.0000000E+000	0.0000000E+000	26.9616	1.96587	63.0384	-6.06046e-06	-5.38436e-06	7.32152e-09	-5.39168e-06	0.250654	11636.9	15.8235	11652.7
1000.32	3.82458	2.11777	4.37177	-28.9744	6.83478	0.25032	-0.0211971	75.1282	17.6297	1	10	0.00501742	0.00114769	0	-2.66696e-05	8.00481e-05	8.85719e-06	-118.845	0.00771744	-0.00372317	0.00675994	-29.0755	4.37179	3.82086	2.12453	0.20011	0.110806	0.22874	28.9744	17629.7	31838.3	36393.5	-61.0256	0.0000000E+000	0.0000000E+000	0.0000000E+000	61.0256	0.0000000E+000	0.0000000E+000	0.0000000E+000	-61.0256	0.0000000E+000	0.0000000E+000	0.0000000E+000	-28.9744	0.0000000E+000	0.0000000E+000	0.0000000E+000	28.9744	1.80595	61.0256	-1.86483e-06	-5.30605e-06	-1.69679e-09	-5.30435e-06	0.25024	11809.2	3.77637	11805.4
681.09	4.20931	2.59498	4.94492	-31.6532	7.28558	0.250308	-0.0219394	90.0497	24.7988	1	10	0.00497011	0.0010051	0	-2.89398e-05	-7.28316e-05	4.86986e-06	89.5446	0.00484518	3.85073e-05	-0.00484502	-31.6051	4.94241	4.20935	2.59013	0.172144	0.106124	0.202228	31.6532	24798.8	40226.2	47255.9	-58.3468	0.0000000E+000	0.0000000E+000	0.0000000E+000	58.3468	0.0000000E+000	0.0000000E+000	0.0000000E+000	-58.3468	0.0000000E+000	0.0000000E+000	0.0000000E+000	-31.6532	0.0000000E+000	0.0000000E+000	0.0000000E+000	31.6532	1.6221	58.3468	-2.2702e-06	-5.49161e-06	1.59788e-09	-5.49321e-06	0.250381	11409.1	3.31967	11412.4
463.961	4.69984	3.24418	5.7108	-34.6163	7.73728	0.250326	-0.0210964	105.739	34.1232	1	10	0.00493646	0.000864408	0	-3.1666e-05	-7.28316e-05	1.18134e-05	-82.0221	0.0136664	0.00189678	0.0135342	-34.7171	5.72006	4.70174	3.25772	0.144108	0.0994744	0.175107	34.6163	34123.2	49434.3	60067.8	-55.3837	0.0000000E+000	0.0000000E+000	0.0000000E+000	55.3837	0.0000000E+000	0.0000000E+000	0.0000000E+000	-55.3837	0.0000000E+000	0.0000000E+000	0.0000000E+000	-34.6163	0.0000000E+000	0.0000000E+000	0.0000000E+000	34.6163	1.4487	55.3837	-2.72615e-06	-5.28098e-06	1.53648e-09	-5.28252e-06	0.250399	11865.8	3.45232	11869.3
316.316	5.35472	4.08294	6.73375	-37.3253	8.18506	0.250325	-0.021365	123.233	45.3063	1	10	0.00490207	0.000727986	0	-3.39039e-05	-0.000359481	1.11592e-05	-16.8871	0.0153289	0.0146679	0.00445283	-37.2799	6.74811	5.36938	4.08739	0.118093	0.0900449	0.148506	37.3253	45306.3	59418.5	74720.9	-52.6747	0.0000000E+000	0.0000000E+000	0.0000000E+000	52.6747	0.0000000E+000	0.0000000E+000	0.0000000E+000	-52.6747	0.0000000E+000	0.0000000E+000	0.0000000E+000	-37.3253	0.0000000E+000	0.0000000E+000	0.0000000E+000	37.3253	1.31149	52.6747	-2.23792e-06	-5.34819e-06	7.6803e-09	-5.35587e-06	0.250685	11716.6	16.8257	11733.4
215.345	6.32706	5.13377	8.14784	-39.0558	8.63556	0.250317	-0.0219394	143.963	57.1528	1	10	0.00488404	0.000599427	0	-3.57866e-05	-0.000263931	3.0727e-06	22.2918	0.00512606	0.00474296	-0.00194443	-39.0242	8.1503	6.3318	5.13182	0.0953053	0.0773306	0.122732	39.0558	57152.8	70437.4	90707.6	-50.9442	0.0000000E+000	0.0000000E+000	0.0000000E+000	50.9442	0.0000000E+000	0.0000000E+000	0.0000000E+000	-50.9442	0.0000000E+000	0.0000000E+000	0.0000000E+000	-39.0558	0.0000000E+000	0.0000000E+000	0.0000000E+000	39.0558	1.23244	50.9442	-1.88275e-06	-5.49181e-06	5.7905e-09	-5.4976e-06	0.250581	11409.5	12.03	11421.5
146.737	7.74169	6.30651	9.98528	-39.1668	9.08148	0.250303	-0.0221371	171.985	68.6038	1	10	0.0048797	0.00048869	0	-3.82784e-05	9.9158e-05	7.2339e-06	56.7414	0.0148027	0.00811805	-0.012378	-39.0823	9.98377	7.74981	6.29413	0.0776453	0.0632512	0.100147	39.1668	68603.8	84216	108622	-50.8332	0.0000000E+000	0.0000000E+000	0.0000000E+000	50.8332	0.0000000E+000	0.0000000E+000	0.0000000E+000	-50.8332	0.0000000E+000	0.0000000E+000	0.0000000E+000	-39.1668	0.0000000E+000	0.0000000E+000	0.0000000E+000	39.1668	1.22757	50.8332	-2.49181e-06	-5.54099e-06	-2.19507e-09	-5.53879e-06	0.250204	11306.9	4.47927	11302.5
100.032	9.66549	7.38617	12.1646	-37.3863	9.53285	0.250308	-0.0214657	215.408	79.4155	1	10	0.00487233	0.000400534	0	-4.09905e-05	-0.000149271	1.04356e-05	12.1631	0.0260543	0.0254694	-0.00548953	-37.2931	12.1815	9.69096	7.38069	0.0653174	0.0499142	0.0822058	37.3863	79415.5	103923	130793	-52.6137	0.0000000E+000	0.0000000E+000	0.0000000E+000	52.6137	0.0000000E+000	0.0000000E+000	0.0000000E+000	-52.6137	0.0000000E+000	0.0000000E+000	0.0000000E+000	-37.3863	0.0000000E+000	0.0000000E+000	0.0000000E+000	37.3863	1.30859	52.6137	-2.7121e-06	-5.37303e-06	3.20421e-09	-5.37623e-06	0.250457	11660.8	6.95395	11667.8
68.104	12.0834	8.13076	14.5642	-33.9362	9.99543	0.250305	-0.0192724	287.42	89.5784	1	10	0.00485978	0.000333679	0	-4.34853e-05	-0.000206601	3.43631e-06	-64.2727	0.0102983	0.00447036	0.00927739	-33.9566	14.5731	12.0878	8.14004	0.0569656	0.0383315	0.0686613	33.9362	89578.4	133125	160457	-56.0638	0.0000000E+000	0.0000000E+000	0.0000000E+000	56.0638	0.0000000E+000	0.0000000E+000	0.0000000E+000	-56.0638	0.0000000E+000	0.0000000E+000	0.0000000E+000	-33.9362	0.0000000E+000	0.0000000E+000	0.0000000E+000	33.9362	1.48613	56.0638	-2.49478e-06	-4.82397e-06	3.98169e-09	-4.82795e-06	0.250512	12987.8	10.7201	12998.5
46.4415	14.7139	8.30579	16.8963	-29.4441	10.4317	0.250299	-0.0233382	412.603	99.7035	1	10	0.00486749	0.00028808	0	-4.62106e-05	-7.28316e-05	7.62711e-06	33.9058	0.0264756	0.0219736	-0.0147689	-29.3639	16.9082	14.7359	8.29102	0.05154	0.0290936	0.0591845	29.4441	99703.5	176627	202825	-60.5559	0.0000000E+000	0.0000000E+000	0.0000000E+000	60.5559	0.0000000E+000	0.0000000E+000	0.0000000E+000	-60.5559	0.0000000E+000	0.0000000E+000	0.0000000E+000	-29.4441	0.0000000E+000	0.0000000E+000	0.0000000E+000	29.4441	1.77153	60.5559	-2.7253e-06	-5.84155e-06	1.69976e-09	-5.84324e-06	0.250372	10724.9	3.1207	10728
31.6296	17.3354	8.01498	19.0986	-24.8134	11.0966	0.250329	-0.00934471	627.805	110.568	1	11	0.00486582	0.000254774	0	-4.8603e-05	-0.000149271	1.13827e-05	41.0117	0.0446774	0.0337125	-0.0293179	-24.6912	19.1169	17.3691	7.98566	0.0475261	0.0219736	0.05236	24.8134	110568	239144	263467	-65.1866	0.0000000E+000	0.0000000E+000	0.0000000E+000	65.1866	0.0000000E+000	0.0000000E+000	0.0000000E+000	-65.1866	0.0000000E+000	0.0000000E+000	0.0000000E+000	-24.8134	0.0000000E+000	0.0000000E+000	0.0000000E+000	24.8134	2.16287	65.1866	-2.39236e-06	-2.33925e-06	1.3949e-09	-2.34065e-06	0.250478	26788.3	15.9739	26804.3
21.5517	19.5312	7.29171	20.848	-20.4724	11.5175	0.250333	-0.0094876	1012.76	123.891	1	11	0.0048633	0.000233274	0	-4.9672e-05	-0.000111051	1.3138e-06	20.8174	0.00563201	0.00526434	-0.00200156	-20.4622	20.8522	19.5365	7.28971	0.0449367	0.0167765	0.0479662	20.4724	123891	331848	354221	-69.5276	0.0000000E+000	0.0000000E+000	0.0000000E+000	69.5276	0.0000000E+000	0.0000000E+000	0.0000000E+000	-69.5276	0.0000000E+000	0.0000000E+000	0.0000000E+000	-20.4724	0.0000000E+000	0.0000000E+000	0.0000000E+000	20.4724	2.67855	69.5276	-1.06897e-06	-2.37506e-06	1.05361e-09	-2.37611e-06	0.250444	26385.3	11.7049	26397
14.6852	21.3588	6.40556	22.2987	-16.6941	11.9772	0.250339	-0.008925	1691.94	139.618	1	11	0.00486801	0.000218309	0	-5.04372e-05	-9.19415e-05	3.72957e-06	51.1328	0.0170839	0.0107204	-0.0133016	-16.6535	22.3051	21.3696	6.39226	0.0429555	0.0128825	0.0448457	16.6941	139618	465544	486029	-73.3059	0.0000000E+000	0.0000000E+000	0.0000000E+000	73.3059	0.0000000E+000	0.0000000E+000	0.0000000E+000	-73.3059	0.0000000E+000	0.0000000E+000	0.0000000E+000	-16.6941	0.0000000E+000	0.0000000E+000	0.0000000E+000	16.6941	3.33442	73.3059	-7.65285e-07	-2.23427e-06	8.20578e-10	-2.23509e-06	0.250431	28049.2	10.3016	28059.5
10.0032	22.7781	5.55074	23.4446	-13.6954	12.4278	0.250335	-0.00918541	2866.36	160.674	1	11	0.00486258	0.000207407	0	-5.05585e-05	-3.46116e-05	5.62289e-06	37.3983	0.0271104	0.0215374	-0.0164656	-13.6438	23.4617	22.7996	5.53427	0.0414409	0.0100987	0.0426537	13.6954	160674	659342	678637	-76.3046	0.0000000E+000	0.0000000E+000	0.0000000E+000	76.3046	0.0000000E+000	0.0000000E+000	0.0000000E+000	-76.3046	0.0000000E+000	0.0000000E+000	0.0000000E+000	-13.6954	0.0000000E+000	0.0000000E+000	0.0000000E+000	13.6954	4.10361	76.3046	-1.21216e-07	-2.29943e-06	3.17922e-10	-2.29975e-06	0.25037	27253.6	3.76811	27257.3
6.81719	23.9898	4.75745	24.457	-11.2169	12.7675	0.250346	-0.00801469	4907.27	185.688	1	11	0.00486309	0.000198843	0	-5.14832e-05	-0.000321261	7.22982e-06	17.8641	0.0363595	0.0346065	-0.0111536	-11.1755	24.4887	24.0244	4.7463	0.0401071	0.0079537	0.0408882	11.2169	185688	936345	954580	-78.7831	0.0000000E+000	0.0000000E+000	0.0000000E+000	78.7831	0.0000000E+000	0.0000000E+000	0.0000000E+000	-78.7831	0.0000000E+000	0.0000000E+000	0.0000000E+000	-11.2169	0.0000000E+000	0.0000000E+000	0.0000000E+000	11.2169	5.04257	78.7831	-9.24785e-07	-2.00645e-06	2.57481e-09	-2.00902e-06	0.250668	31236	40.084	31276
4.63925	24.9032	4.16719	25.2495	-9.49961	13.2515	0.250331	-0.00848738	8232.44	224.239	1	11	0.00486594	0.000192715	0	-5.45985e-05	-0.000359481	9.19408e-06	-75.2767	0.0477083	0.0121251	0.0461417	-9.59826	25.2691	24.9153	4.21334	0.0390617	0.00653641	0.0396048	9.49961	224239	1.34006e+06	1.35869e+06	-80.5004	0.0000000E+000	0.0000000E+000	0.0000000E+000	80.5004	0.0000000E+000	0.0000000E+000	0.0000000E+000	-80.5004	0.0000000E+000	0.0000000E+000	0.0000000E+000	-9.49961	0.0000000E+000	0.0000000E+000	0.0000000E+000	9.49961	5.97601	80.5004	-3.11525e-06	-2.12465e-06	3.05105e-09	-2.1277e-06	0.25069	29494.5	42.3548	29536.8
3.1604	25.7241	3.74298	25.995	-8.2787	13.9444	0.250346	-0.0083859	13454.3	278.943	1	11	0.00486453	0.000187133	0	-5.55118e-05	8.00481e-05	7.49124e-06	3.26024	0.0400316	0.0399668	-0.00227665	-8.26107	26.0342	25.7641	3.7407	0.038068	0.00553907	0.0384689	8.2787	278943	1.91708e+06	1.93726e+06	-81.7213	0.0000000E+000	0.0000000E+000	0.0000000E+000	81.7213	0.0000000E+000	0.0000000E+000	0.0000000E+000	-81.7213	0.0000000E+000	0.0000000E+000	0.0000000E+000	-8.2787	0.0000000E+000	0.0000000E+000	0.0000000E+000	8.2787	6.87264	81.7213	-9.13317e-07	-2.09938e-06	-6.71275e-10	-2.0987e-06	0.250266	29853.2	9.54556	29843.7
2.15577	26.4149	3.38297	26.6306	-7.29818	14.9471	0.250344	-0.00797356	21823.3	352.171	1	11	0.00486613	0.000182727	0	-5.44449e-05	6.09381e-05	2.76959e-06	19.3091	0.015157	0.0143044	-0.00501188	-7.28358	26.6442	26.4292	3.37796	0.0372466	0.00477019	0.0375508	7.29818	352171	2.74982e+06	2.77228e+06	-82.7018	0.0000000E+000	0.0000000E+000	0.0000000E+000	82.7018	0.0000000E+000	0.0000000E+000	0.0000000E+000	-82.7018	0.0000000E+000	0.0000000E+000	0.0000000E+000	-7.29818	0.0000000E+000	0.0000000E+000	0.0000000E+000	7.29818	7.80819	82.7018	1.06689e-06	-1.99613e-06	-4.85894e-10	-1.99564e-06	0.250283	31396.8	7.64253	31389.1
1.46631	27.0671	3.11363	27.2456	-6.5621	16.4086	0.250345	-0.00737784	34860	455.269	1	11	0.0048629	0.000178484	0	-5.46428e-05	-1.55017e-05	1.64563e-06	-5.23629	0.00922006	0.00918158	0.000841453	-6.56165	27.2548	27.0763	3.11447	0.0364627	0.00419444	0.0367031	6.5621	455269	3.9577e+06	3.9838e+06	-83.4379	0.0000000E+000	0.0000000E+000	0.0000000E+000	83.4379	0.0000000E+000	0.0000000E+000	0.0000000E+000	-83.4379	0.0000000E+000	0.0000000E+000	0.0000000E+000	-6.5621	0.0000000E+000	0.0000000E+000	0.0000000E+000	6.5621	8.69311	83.4379	-1.97855e-07	-1.84701e-06	1.14369e-10	-1.84712e-06	0.250361	33932.1	2.10111	33934.2
1.00006	27.6298	2.98631	27.7908	-6.16875	19.584	0.250346	-0.00668524	53291.4	615.357	1	12	0.00486268	0.000174975	0	-6.18918e-05	-0.000149271	1.91623e-06	72.3283	0.0109515	0.00332447	-0.0104347	-6.14662	27.7929	27.6332	2.97588	0.0357748	0.00386665	0.0359832	6.16875	615357	5.69338e+06	5.72654e+06	-83.8313	0.0000000E+000	0.0000000E+000	0.0000000E+000	83.8313	0.0000000E+000	0.0000000E+000	0.0000000E+000	-83.8313	0.0000000E+000	0.0000000E+000	0.0000000E+000	-6.16875	0.0000000E+000	0.0000000E+000	0.0000000E+000	6.16875	9.25216	83.8313	-7.24907e-06	-1.67362e-06	9.97915e-10	-1.67462e-06	0.250495	37447.5	22.3285	37469.8
0.681362	28.2119	2.97271	28.3681	-6.0151	22.6961	0.25035	-0.00628916	78575.9	862.846	1	12	0.00487082	0.000171701	0	-7.42968e-05	-3.46116e-05	5.10034e-06	-45.0113	0.0297048	0.0210004	0.0210086	-6.05282	28.3912	28.2329	2.99372	0.0350568	0.00369395	0.0352508	6.0151	862846	8.18868e+06	8.23401e+06	-83.9849	0.0000000E+000	0.0000000E+000	0.0000000E+000	83.9849	0.0000000E+000	0.0000000E+000	0.0000000E+000	-83.9849	0.0000000E+000	0.0000000E+000	0.0000000E+000	-6.0151	0.0000000E+000	0.0000000E+000	0.0000000E+000	6.0151	9.49031	83.9849	-1.2405e-05	-1.57449e-06	2.17678e-10	-1.57471e-06	0.250385	39806.6	5.50338	39812.1
0.464091	28.7789	3.01373	28.9362	-5.97824	27.2526	0.250353	-0.00654068	113792	1234.35	1	12	0.0048657	0.000168153	0	-9.26726e-05	0.000156488	5.4417e-06	-27.0005	0.0323617	0.0288343	0.0146922	-6.00121	28.9665	28.8077	3.02843	0.0343708	0.00359932	0.0345587	5.97824	1.23435e+06	1.17871e+07	1.18516e+07	-84.0218	0.0000000E+000	0.0000000E+000	0.0000000E+000	84.0218	0.0000000E+000	0.0000000E+000	0.0000000E+000	-84.0218	0.0000000E+000	0.0000000E+000	0.0000000E+000	-5.97824	0.0000000E+000	0.0000000E+000	0.0000000E+000	5.97824	9.54924	84.0218	-1.83757e-05	-1.63748e-06	-1.02354e-09	-1.63646e-06	0.250197	38276.4	23.9253	38252.4
0.316193	29.3883	3.24464	29.5669	-6.30028	33.926	0.250359	-0.00699152	155132	1868.2	1	12	0.00486473	0.000164533	0	-0.000112763	2.27182e-05	4.27388e-06	-27.842	0.0259758	0.0229688	0.0121316	-6.31874	29.591	29.4113	3.25677	0.0336174	0.00371156	0.0338216	6.30028	1.8682e+06	1.69212e+07	1.7024e+07	-83.6997	0.0000000E+000	0.0000000E+000	0.0000000E+000	83.6997	0.0000000E+000	0.0000000E+000	0.0000000E+000	-83.6997	0.0000000E+000	0.0000000E+000	0.0000000E+000	-6.30028	0.0000000E+000	0.0000000E+000	0.0000000E+000	6.30028	9.05749	83.6997	-2.00906e-05	-1.75039e-06	-1.58835e-10	-1.75023e-06	0.250337	35809	3.2494	35805.7
0.215268	30.0157	3.69653	30.2425	-7.0208	43.7195	0.250349	-0.00777583	200008	2988.13	1	12	0.00486577	0.000160892	0	-0.000128597	-0.000149271	3.07106e-06	-3.95358	0.0190878	0.0190423	0.00131607	-7.01886	30.2616	30.0348	3.69784	0.0328181	0.00404165	0.0330661	7.0208	2.98813e+06	2.42636e+07	2.44469e+07	-82.9792	0.0000000E+000	0.0000000E+000	0.0000000E+000	82.9792	0.0000000E+000	0.0000000E+000	0.0000000E+000	-82.9792	0.0000000E+000	0.0000000E+000	0.0000000E+000	-7.0208	0.0000000E+000	0.0000000E+000	0.0000000E+000	7.0208	8.11998	82.9792	-1.58343e-05	-1.94667e-06	1.16071e-09	-1.94783e-06	0.250498	32195.8	19.1968	32215
0.146929	30.6909	4.25523	30.9845	-7.89363	58.0579	0.250351	-0.00800628	254560	4801.19	1	12	0.00486522	0.000157021	0	-0.000135656	-7.28316e-05	1.16736e-06	-25.245	0.00743438	0.00672434	0.00317069	-7.89772	30.9915	30.6976	4.2584	0.0319684	0.00443236	0.0322743	7.89363	4.80118e+06	3.46286e+07	3.49598e+07	-82.1064	0.0000000E+000	0.0000000E+000	0.0000000E+000	82.1064	0.0000000E+000	0.0000000E+000	0.0000000E+000	-82.1064	0.0000000E+000	0.0000000E+000	0.0000000E+000	-7.89363	0.0000000E+000	0.0000000E+000	0.0000000E+000	7.89363	7.21251	82.1064	-7.05846e-06	-2.00438e-06	5.8311e-10	-2.00496e-06	0.250423	31269.3	9.09681	31278.4
0.0999041	31.5694	4.91279	31.9494	-8.84534	79.135	0.250343	-0.00809434	324271	7667.25	1	12	0.00486773	0.000152357	0	-0.000138909	-3.46116e-05	1.31953e-06	-1.95982	0.00866075	0.00865568	0.000296186	-8.84348	31.958	31.5781	4.91309	0.0309272	0.00481285	0.0312995	8.84534	7.66725e+06	4.92695e+07	4.98625e+07	-81.1547	0.0000000E+000	0.0000000E+000	0.0000000E+000	81.1547	0.0000000E+000	0.0000000E+000	0.0000000E+000	-81.1547	0.0000000E+000	0.0000000E+000	0.0000000E+000	-8.84534	0.0000000E+000	0.0000000E+000	0.0000000E+000	8.84534	6.42597	81.1547	-3.2531e-06	-2.02636e-06	2.80158e-10	-2.02664e-06	0.250377	30928.1	4.27603	30932.4
0.0680626	32.6804	5.77218	33.1863	-10.0165	110.062	0.250341	-0.00802066	405109	12255.6	1	12	0.00486915	0.000146722	0	-0.000159211	0.000156488	1.97776e-06	13.1259	0.0134797	0.0131275	-0.00306111	-10.0074	33.1987	32.6936	5.76911	0.0296736	0.0052411	0.0301329	10.0165	1.22556e+07	6.93877e+07	7.04617e+07	-79.9835	0.0000000E+000	0.0000000E+000	0.0000000E+000	79.9835	0.0000000E+000	0.0000000E+000	0.0000000E+000	-79.9835	0.0000000E+000	0.0000000E+000	0.0000000E+000	-10.0165	0.0000000E+000	0.0000000E+000	0.0000000E+000	10.0165	5.66172	79.9835	-2.03021e-05	-2.0079e-06	-1.25514e-09	-2.00665e-06	0.250185	31212.1	19.5106	31192.6
0.0464052	33.9622	6.93476	34.663	-11.5406	155.414	0.250347	-0.00770302	494564	19794.9	1	12	0.00486177	0.000140258	0	-0.000234063	-1.55017e-05	8.26685e-07	-4.2554	0.00589401	0.00587776	0.00043735	-11.5394	34.6688	33.9681	6.9352	0.028266	0.00577165	0.0288492	11.5406	1.97949e+07	9.69433e+07	9.89436e+07	-78.4594	0.0000000E+000	0.0000000E+000	0.0000000E+000	78.4594	0.0000000E+000	0.0000000E+000	0.0000000E+000	-78.4594	0.0000000E+000	0.0000000E+000	0.0000000E+000	-11.5406	0.0000000E+000	0.0000000E+000	0.0000000E+000	11.5406	4.89738	78.4594	-7.48518e-05	-1.92843e-06	1.1941e-10	-1.92855e-06	0.250363	32499.9	2.01242	32501.9
0.0315922	35.2767	8.44783	36.2741	-13.4672	222.019	0.250346	-0.00804989	596342	32343.8	1	12	0.00486668	0.000134164	0	-0.000433477	3.60827e-06	3.29427e-06	34.2817	0.0245541	0.0202885	-0.0138304	-13.4385	36.2907	35.297	8.434	0.0268098	0.00642023	0.0275678	13.4672	3.23438e+07	1.35062e+08	1.38881e+08	-76.5328	0.0000000E+000	0.0000000E+000	0.0000000E+000	76.5328	0.0000000E+000	0.0000000E+000	0.0000000E+000	-76.5328	0.0000000E+000	0.0000000E+000	0.0000000E+000	-13.4672	0.0000000E+000	0.0000000E+000	0.0000000E+000	13.4672	4.17583	76.5328	-0.000199414	-2.01526e-06	-2.90462e-11	-2.01523e-06	0.250342	31099.3	0.448239	31098.8
0.0215268	36.7034	10.211	38.0973	-15.5467	319.758	0.250341	-0.00910114	724057	52014	1	12	0.00486529	0.000127707	0	-0.000828734	-0.000187491	2.50187e-06	19.839	0.0195907	0.018428	-0.00664865	-15.5297	38.1133	36.7219	10.2043	0.0252882	0.00703524	0.0262486	15.5467	5.2014e+07	1.86964e+08	1.94065e+08	-74.4533	0.0000000E+000	0.0000000E+000	0.0000000E+000	74.4533	0.0000000E+000	0.0000000E+000	0.0000000E+000	-74.4533	0.0000000E+000	0.0000000E+000	0.0000000E+000	-15.5467	0.0000000E+000	0.0000000E+000	0.0000000E+000	15.5467	3.5945	74.4533	-0.000395258	-2.27839e-06	1.70638e-09	-2.28009e-06	0.250528	27506.5	20.6009	27527.1
0.0146812	38.7423	12.4891	40.7056	-17.8674	463.059	0.250342	-0.010483	868019	81711.1	1	12	0.0048643	0.000119499	0	-0.00146199	0.000213818	2.36921e-06	-0.959303	0.0198261	0.0198233	0.000331932	-17.8593	40.7246	38.7622	12.4894	0.0233818	0.00753741	0.0245666	17.8674	8.17111e+07	2.53476e+08	2.66321e+08	-72.1326	0.0000000E+000	0.0000000E+000	0.0000000E+000	72.1326	0.0000000E+000	0.0000000E+000	0.0000000E+000	-72.1326	0.0000000E+000	0.0000000E+000	0.0000000E+000	-17.8674	0.0000000E+000	0.0000000E+000	0.0000000E+000	17.8674	3.1021	72.1326	-0.000633254	-2.62435e-06	-2.24146e-09	-2.62211e-06	0.250129	23880.7	20.3965	23860.3
0.0100092	41.4129	15.6686	44.2779	-20.7242	673.241	0.250338	-0.0118154	1.01482e+06	127080	1	12	0.00486534	0.000109882	0	-0.0023202	3.60827e-06	1.36097e-06	-47.4337	0.0123858	0.00837826	0.00912207	-20.7314	44.289	41.4213	15.6778	0.0211233	0.00799201	0.0225846	20.7242	1.2708e+08	3.35879e+08	3.59116e+08	-69.2758	0.0000000E+000	0.0000000E+000	0.0000000E+000	69.2758	0.0000000E+000	0.0000000E+000	0.0000000E+000	-69.2758	0.0000000E+000	0.0000000E+000	0.0000000E+000	-20.7242	0.0000000E+000	0.0000000E+000	0.0000000E+000	20.7242	2.64305	69.2758	-0.000858208	-2.95784e-06	-4.2633e-11	-2.9578e-06	0.250335	21187.5	0.305388	21187.2