File: txt/18354_R257_UA646_SOC00_C08.mpt
EC-Lab ASCII FILE
Nb header lines : 65

Potentio Electrochemical Impedance Spectroscopy

Run on channel : 8 (SN 65398)
User :
CE vs. WE compliance from -10 V to 10 V
Electrode connection : standard
Potential control : Ewe
Ewe ctrl range : min = -10.00 V, max = 10.00 V
Safety Limits :
	Do not start on E overload
Acquisition started on : 10/13/2025 14:40:50.095
Technique started on : 10/13/2025 14:40:52.150
Loaded Setting File :  C:\Users\Celltest\OneDrive - store-dot.com\Documents\EC-Lab\Data\@Biologic Test Protocols\anode half cell EIS SOC00.mps
Saved on :
	File : 18354_R257_UA646_SOC00_C08.mpr
	Directory : C:\Users\Celltest\OneDrive - store-dot.com\Documents\EC-Lab\Data\John\
	Host : 169.254.61.224
Device : VMP-3e (SN .003165)
Address : USB
EC-LAB for windows v11.62 (software)
Internet server v27.00 (firmware)
Command interpretor v12.03 (firmware)
Electrode material :
Initial state :
Electrolyte :
Comments :
Electrode surface area : 0.001 cm²
Characteristic mass : 0.001 g
Equivalent Weight : 0.000 g/eq.
Density : 0.000 g/cm3
Volume (V) : 0.001 cm³
Record Ece
Cycle Definition : Charge/Discharge alternance
Mode                Single sine
E (V)               0.0000
vs.                 Eoc
tE (h:m:s)          0:00:0.0000
record              0
dI                  0.000
unit dI             mA
dt (s)              0.000
fi                  100.000
unit fi             kHz
ff                  10.000
unit ff             mHz
Nd                  6
Points              per decade
spacing             Logarithmic
Va (mV)             5.0
pw                  0.10
Na                  2
corr                0
E range min (V)     -10.000
E range max (V)     10.000
I Range             Auto
Bandwidth           5
nc cycles           0
goto Ns'            0
nr cycles           0
inc. cycle          0

freq/Hz	Re(Z)/Ohm	-Im(Z)/Ohm	|Z|/Ohm	Phase(Z)/deg	time/s	<Ewe>/V	<I>/mA	Cs/µF	Cp/µF	cycle number	I Range	|Ewe|/V	|I|/A	Ns	(Q-Qo)/mA.h	<Ece>/V	|Ece|/V	Phase(Zce)/deg	|Zce|/Ohm	Re(Zce)/Ohm	-Im(Zce)/Ohm	Phase(Zwe-ce)/deg	|Zwe-ce|/Ohm	Re(Zwe-ce)/Ohm	-Im(Zwe-ce)/Ohm	Re(Y)/Ohm-1	Im(Y)/Ohm-1	|Y|/Ohm-1	Phase(Y)/deg	Re(C)/nF	Im(C)/nF	|C|/nF	Phase(C)/deg	Re(M)	Im(M)	|M|	Phase(M)/deg	Re(Permittivity)	Im(Permittivity)	|Permittivity|	Phase(Permittivity)/deg	Re(Resistivity)/Ohm.cm	Im(Resistivity)/Ohm.cm	|Resistivity|/Ohm.cm	Phase(Resistivity)/deg	Re(Conductivity)/mS/cm	Im(Conductivity)/mS/cm	|Conductivity|/mS/cm	Phase(Conductivity)/deg	Tan(Delta)	Loss Angle(Delta)/deg	dq/mA.h	Pwe/W	Pce/W	Pwe-ce/W	<Ewe-Ece>/V	Rwe/Ohm	Rce/Ohm	Rwe-ce/Ohm		Ewe-Ece/V
100004	1.38236	0.473157	1.4611	-18.8951	2.05456	0.2539	0.0318847	3.36356	0.352738	1	9	0.00493876	0.00338018	0	1.9816e-06	0.000254454	4.63284e-05	62.6901	0.0137059	0.00628831	-0.0121782	-18.3642	1.46316	1.38865	0.460979	0.647536	0.22164	0.684418	18.8951	352.737	1030.55	1089.24	-71.1049	0.0000000E+000	0.0000000E+000	0.0000000E+000	71.1049	0.0000000E+000	0.0000000E+000	0.0000000E+000	-71.1049	0.0000000E+000	0.0000000E+000	0.0000000E+000	-18.8951	0.0000000E+000	0.0000000E+000	0.0000000E+000	18.8951	2.92157	71.1049	1.9816e-06	8.09554e-06	8.11319e-09	8.08742e-06	0.253646	7963.06	7.98043	7955.08
68132	1.50975	0.569185	1.61348	-20.6567	2.43754	0.25389	0.0343401	4.10407	0.510732	1	9	0.00539937	0.0033464	0	1.96677e-06	0.000178102	2.5496e-05	56.8671	0.00761894	0.00416438	-0.00638014	-20.3928	1.61515	1.51392	0.562805	0.579932	0.218637	0.619777	20.6567	510.732	1354.71	1447.79	-69.3433	0.0000000E+000	0.0000000E+000	0.0000000E+000	69.3433	0.0000000E+000	0.0000000E+000	0.0000000E+000	-69.3433	0.0000000E+000	0.0000000E+000	0.0000000E+000	-20.6567	0.0000000E+000	0.0000000E+000	0.0000000E+000	20.6567	2.65248	69.3433	-1.4833e-08	8.7186e-06	6.11602e-09	8.71248e-06	0.253712	7393.4	5.18641	7388.21
46420.4	1.65718	0.650743	1.78037	-21.439	2.82053	0.253884	0.0354561	5.26869	0.703885	1	9	0.0054028	0.00303465	0	5.34688e-06	0.000216278	1.67687e-05	23.0632	0.00552574	0.00508409	-0.00216469	-21.3146	1.78431	1.66226	0.648578	0.522818	0.205301	0.561682	21.439	703.885	1792.51	1925.76	-68.561	0.0000000E+000	0.0000000E+000	0.0000000E+000	68.561	0.0000000E+000	0.0000000E+000	0.0000000E+000	-68.561	0.0000000E+000	0.0000000E+000	0.0000000E+000	-21.439	0.0000000E+000	0.0000000E+000	0.0000000E+000	21.439	2.5466	68.561	3.38011e-06	9.00174e-06	7.66837e-09	8.99408e-06	0.253668	7160.51	6.09987	7154.41
31621.1	1.82042	0.746814	1.96765	-22.3056	3.20354	0.253888	0.0344517	6.73954	0.970866	1	9	0.005398	0.00274338	0	1.58372e-05	6.35733e-05	2.04106e-05	38.0109	0.00743998	0.00586191	-0.00458162	-22.1177	1.97135	1.82628	0.742232	0.470192	0.192893	0.50822	22.3056	970.866	2366.56	2557.97	-67.6944	0.0000000E+000	0.0000000E+000	0.0000000E+000	67.6944	0.0000000E+000	0.0000000E+000	0.0000000E+000	-67.6944	0.0000000E+000	0.0000000E+000	0.0000000E+000	-22.3056	0.0000000E+000	0.0000000E+000	0.0000000E+000	22.3056	2.43758	67.6944	1.04903e-05	8.74688e-06	2.19021e-09	8.74469e-06	0.253825	7369.41	1.84529	7367.56
21544.7	1.99881	0.834634	2.16607	-22.6637	3.58653	0.253891	0.0338564	8.85083	1.31411	1	9	0.00536298	0.0024759	0	1.34621e-05	2.53972e-05	1.26189e-05	27.6823	0.00509669	0.0045133	-0.00236776	-22.5601	2.16933	2.00332	0.832266	0.426017	0.17789	0.461666	22.6637	1314.11	3147.07	3410.42	-67.3363	0.0000000E+000	0.0000000E+000	0.0000000E+000	67.3363	0.0000000E+000	0.0000000E+000	0.0000000E+000	-67.3363	0.0000000E+000	0.0000000E+000	0.0000000E+000	-22.6637	0.0000000E+000	0.0000000E+000	0.0000000E+000	22.6637	2.39484	67.3363	-2.37508e-06	8.59585e-06	8.59857e-10	8.59499e-06	0.253866	7499.05	0.750143	7498.3
14678.6	2.2025	0.931132	2.39124	-22.9168	3.97154	0.253892	0.0319219	11.6446	1.76564	1	9	0.00541347	0.00226388	0	1.88514e-05	0.000273542	8.41982e-06	8.05644	0.0037192	0.00368249	-0.00052124	-22.871	2.39442	2.20618	0.93061	0.385186	0.162842	0.418194	22.9168	1765.64	4176.44	4534.33	-67.0832	0.0000000E+000	0.0000000E+000	0.0000000E+000	67.0832	0.0000000E+000	0.0000000E+000	0.0000000E+000	-67.0832	0.0000000E+000	0.0000000E+000	0.0000000E+000	-22.9168	0.0000000E+000	0.0000000E+000	0.0000000E+000	22.9168	2.3654	67.0832	5.3893e-06	8.10471e-06	8.73198e-09	8.09598e-06	0.253618	7953.53	8.56909	7944.96
10002.2	2.41171	1.0414	2.62695	-23.3552	4.35452	0.253894	0.0315871	15.2794	2.40125	1	9	0.00523031	0.00199102	0	1.89981e-05	0.000159014	1.30583e-05	-25.6553	0.00655858	0.005912	0.00283957	-23.3609	2.6335	2.41762	1.04424	0.34948	0.150909	0.38067	23.3552	2401.26	5560.91	6057.21	-66.6448	0.0000000E+000	0.0000000E+000	0.0000000E+000	66.6448	0.0000000E+000	0.0000000E+000	0.0000000E+000	-66.6448	0.0000000E+000	0.0000000E+000	0.0000000E+000	-23.3552	0.0000000E+000	0.0000000E+000	0.0000000E+000	23.3552	2.31583	66.6448	1.46669e-07	8.01977e-06	5.02277e-09	8.01475e-06	0.253735	8037.9	5.03413	8032.87
6810.42	2.65162	1.17721	2.90119	-23.9392	4.73752	0.253895	0.0270856	19.8515	3.26848	1	9	0.00517112	0.00178241	0	1.78031e-05	0.000159014	2.72786e-05	4.34824	0.0153043	0.0152603	-0.00116035	-23.7966	2.91468	2.66688	1.17605	0.315035	0.139862	0.344686	23.9392	3268.48	7362.15	8055.07	-66.0608	0.0000000E+000	0.0000000E+000	0.0000000E+000	66.0608	0.0000000E+000	0.0000000E+000	0.0000000E+000	-66.0608	0.0000000E+000	0.0000000E+000	0.0000000E+000	-23.9392	0.0000000E+000	0.0000000E+000	0.0000000E+000	23.9392	2.25247	66.0608	-1.19495e-06	6.87691e-06	4.30698e-09	6.8726e-06	0.253736	9373.8	5.87078	9367.93
4646	2.93498	1.33358	3.22375	-24.4359	5.13064	0.253885	0.0225841	25.6874	4.3958	1	9	0.00507927	0.00157558	0	1.92783e-05	0.000311718	8.99867e-06	-78.2686	0.00571135	0.00116126	0.00559205	-24.5177	3.22712	2.93614	1.33917	0.282412	0.128321	0.310198	24.4359	4395.8	9674.39	10626.2	-65.5641	0.0000000E+000	0.0000000E+000	0.0000000E+000	65.5641	0.0000000E+000	0.0000000E+000	0.0000000E+000	-65.5641	0.0000000E+000	0.0000000E+000	0.0000000E+000	-24.4359	0.0000000E+000	0.0000000E+000	0.0000000E+000	24.4359	2.20083	65.5641	1.4752e-06	5.73377e-06	7.03988e-09	5.72673e-06	0.253573	11241.7	13.8025	11227.9
3163.08	3.20451	1.51696	3.54543	-25.3321	5.50261	0.253836	0.00803806	33.1692	6.07222	1	9	0.00510029	0.00143855	0	2.11705e-05	-7.00431e-05	4.19872e-06	-123.567	0.00291871	-0.00161378	0.00243199	-25.3788	3.54501	3.2029	1.51939	0.254932	0.120681	0.282053	25.3321	6072.22	12827.3	14191.9	-64.6679	0.0000000E+000	0.0000000E+000	0.0000000E+000	64.6679	0.0000000E+000	0.0000000E+000	0.0000000E+000	-64.6679	0.0000000E+000	0.0000000E+000	0.0000000E+000	-25.3321	0.0000000E+000	0.0000000E+000	0.0000000E+000	25.3321	2.11245	64.6679	1.89212e-06	2.04035e-06	-5.63011e-10	2.04091e-06	0.253906	31579.3	8.71393	31588
2155.69	3.53738	1.72839	3.93705	-26.0405	6.19986	0.253858	-0.00806834	42.7162	8.23253	1	10	0.00513376	0.00130396	0	2.24412e-05	-0.000108219	5.56939e-06	-2.34708	0.00427113	0.00426755	0.000174915	-26.0155	3.94096	3.54165	1.72856	0.228212	0.111506	0.253997	26.0405	8232.53	16849	18752.7	-63.9595	0.0000000E+000	0.0000000E+000	0.0000000E+000	63.9595	0.0000000E+000	0.0000000E+000	0.0000000E+000	-63.9595	0.0000000E+000	0.0000000E+000	0.0000000E+000	-26.0405	0.0000000E+000	0.0000000E+000	0.0000000E+000	26.0405	2.04663	63.9595	1.27073e-06	-2.04821e-06	8.73149e-10	-2.04909e-06	0.253966	31463.5	13.4128	31476.9
1468.59	3.88375	2.01215	4.37405	-27.3885	6.65102	0.25386	-0.00812042	53.859	11.3976	1	10	0.00504335	0.00115302	0	2.2032e-05	0.000139925	1.26284e-05	-38.3166	0.0109525	0.00859332	0.00679063	-27.4156	4.3848	3.89235	2.01894	0.202995	0.105171	0.228621	27.3885	11397.6	21999.1	24776.3	-62.6115	0.0000000E+000	0.0000000E+000	0.0000000E+000	62.6115	0.0000000E+000	0.0000000E+000	0.0000000E+000	-62.6115	0.0000000E+000	0.0000000E+000	0.0000000E+000	-27.3885	0.0000000E+000	0.0000000E+000	0.0000000E+000	27.3885	1.93015	62.6115	-4.09196e-07	-2.06145e-06	-1.13625e-09	-2.06031e-06	0.25372	31261.9	17.2313	31244.7
1000.32	4.26997	2.36873	4.88299	-29.0189	7.10178	0.253859	-0.0079493	67.1685	15.8061	1	10	0.0049528	0.0010143	0	2.01648e-05	0.000368982	2.15816e-05	3.84905	0.0212774	0.0212294	-0.00142831	-28.8839	4.90087	4.2912	2.3673	0.179083	0.0993446	0.204793	29.0189	15806.1	28492.8	32583.3	-60.9811	0.0000000E+000	0.0000000E+000	0.0000000E+000	60.9811	0.0000000E+000	0.0000000E+000	0.0000000E+000	-60.9811	0.0000000E+000	0.0000000E+000	0.0000000E+000	-29.0189	0.0000000E+000	0.0000000E+000	0.0000000E+000	29.0189	1.80264	60.9811	-1.86719e-06	-2.018e-06	-2.93315e-09	-2.01507e-06	0.25349	31934.8	46.4169	31888.3
681.09	4.70373	2.87376	5.51213	-31.423	7.55155	0.253849	-0.00938521	81.3139	22.1018	1	10	0.00488283	0.000885832	0	1.9521e-05	6.35733e-05	7.2205e-06	-114.706	0.00815109	-0.00340683	0.00740499	-31.5071	5.51309	4.70033	2.88117	0.154811	0.0945826	0.181418	31.423	22101.8	36175.9	42393.2	-58.577	0.0000000E+000	0.0000000E+000	0.0000000E+000	58.577	0.0000000E+000	0.0000000E+000	0.0000000E+000	-58.577	0.0000000E+000	0.0000000E+000	0.0000000E+000	-31.423	0.0000000E+000	0.0000000E+000	0.0000000E+000	31.423	1.63679	58.577	-6.43787e-07	-2.38243e-06	-5.96648e-10	-2.38183e-06	0.253786	27047.8	6.77377	27041
463.961	5.23057	3.53638	6.31387	-34.0625	8.00334	0.253857	-0.00864867	97.0018	30.4304	1	10	0.00482023	0.000763436	0	1.88872e-05	8.26613e-05	1.78876e-05	62.963	0.0234304	0.0106507	-0.0208698	-33.8514	6.31104	5.24122	3.51551	0.131208	0.0887091	0.158382	34.0625	30430.4	45008.8	54330.5	-55.9375	0.0000000E+000	0.0000000E+000	0.0000000E+000	55.9375	0.0000000E+000	0.0000000E+000	0.0000000E+000	-55.9375	0.0000000E+000	0.0000000E+000	0.0000000E+000	-34.0625	0.0000000E+000	0.0000000E+000	0.0000000E+000	34.0625	1.47908	55.9375	-6.33781e-07	-2.19552e-06	-7.1491e-10	-2.19481e-06	0.253774	29352.1	9.55769	29342.6
316.316	5.97154	4.47974	7.46507	-36.8766	8.451	0.253858	-0.00924758	112.317	40.4468	1	10	0.00480567	0.000643754	0	1.72527e-05	0.000216278	1.03284e-05	-70.3039	0.0160441	0.00540736	0.0151054	-36.9443	7.47847	5.97695	4.49485	0.107156	0.0803868	0.133957	36.8766	40446.8	53915.9	67400.8	-53.1234	0.0000000E+000	0.0000000E+000	0.0000000E+000	53.1234	0.0000000E+000	0.0000000E+000	0.0000000E+000	-53.1234	0.0000000E+000	0.0000000E+000	0.0000000E+000	-36.8766	0.0000000E+000	0.0000000E+000	0.0000000E+000	36.8766	1.33301	53.1234	-1.6345e-06	-2.34758e-06	-2.00005e-09	-2.34558e-06	0.253642	27451.3	23.3875	27427.9
215.345	6.98705	5.60488	8.95732	-38.7359	8.90158	0.25386	-0.00911739	131.862	51.6293	1	10	0.0047668	0.000532168	0	1.59357e-05	-5.09551e-05	1.17579e-05	-67.3706	0.0220943	0.00850122	0.0203933	-38.8035	8.97672	6.99555	5.62528	0.0870838	0.0698571	0.111641	38.7359	51629.3	64361.1	82510.3	-51.2641	0.0000000E+000	0.0000000E+000	0.0000000E+000	51.2641	0.0000000E+000	0.0000000E+000	0.0000000E+000	-51.2641	0.0000000E+000	0.0000000E+000	0.0000000E+000	-38.7359	0.0000000E+000	0.0000000E+000	0.0000000E+000	38.7359	1.2466	51.2641	-1.317e-06	-2.31454e-06	4.64577e-10	-2.31501e-06	0.253911	27843.6	5.58878	27849.1
146.737	8.48208	6.91259	10.9421	-39.1788	9.34752	0.253868	-0.00867843	156.906	62.6208	1	10	0.00475639	0.000434687	0	1.53349e-05	0.00019719	4.15272e-06	-111.424	0.00955335	-0.00348956	0.00889323	-39.2264	10.945	8.47859	6.92148	0.0708437	0.057735	0.0913901	39.1788	62620.8	76838.8	99123.9	-50.8212	0.0000000E+000	0.0000000E+000	0.0000000E+000	50.8212	0.0000000E+000	0.0000000E+000	0.0000000E+000	-50.8212	0.0000000E+000	0.0000000E+000	0.0000000E+000	-39.1788	0.0000000E+000	0.0000000E+000	0.0000000E+000	39.1788	1.22705	50.8212	-6.00843e-07	-2.20317e-06	-1.7113e-09	-2.20146e-06	0.25367	29252.7	22.7218	29230
100.032	10.5391	8.16324	13.3309	-37.7601	9.7988	0.253873	-0.00827668	194.903	73.0849	1	10	0.00474308	0.000355797	0	1.41263e-05	0.000273542	8.41338e-06	43.756	0.0236466	0.0170797	-0.0163537	-37.6596	13.3344	10.5562	8.14688	0.0593047	0.0459353	0.0750139	37.7601	73084.9	94356.1	119350	-52.2399	0.0000000E+000	0.0000000E+000	0.0000000E+000	52.2399	0.0000000E+000	0.0000000E+000	0.0000000E+000	-52.2399	0.0000000E+000	0.0000000E+000	0.0000000E+000	-37.7601	0.0000000E+000	0.0000000E+000	0.0000000E+000	37.7601	1.29105	52.2399	-1.20859e-06	-2.10123e-06	-2.26402e-09	-2.09896e-06	0.253599	30673.3	33.0497	30640.2
68.104	13.2099	9.1228	16.0539	-34.6291	10.2615	0.253875	-0.00706025	256.165	82.721	1	10	0.00474489	0.00029556	0	1.30672e-05	0.000254454	6.9738e-06	49.6941	0.0235952	0.015263	-0.0179937	-34.5453	16.0562	13.2252	9.10481	0.0512554	0.0353971	0.0622902	34.6291	82721	119781	145569	-55.3709	0.0000000E+000	0.0000000E+000	0.0000000E+000	55.3709	0.0000000E+000	0.0000000E+000	0.0000000E+000	-55.3709	0.0000000E+000	0.0000000E+000	0.0000000E+000	-34.6291	0.0000000E+000	0.0000000E+000	0.0000000E+000	34.6291	1.44801	55.3709	-1.05911e-06	-1.79242e-06	-1.79651e-09	-1.79063e-06	0.253621	35958.4	36.0403	35922.4
46.4415	16.1778	9.47114	18.7463	-30.3465	10.9376	0.253881	-0.00578601	361.836	92.3605	1	11	0.00474564	0.000253151	0	1.214e-05	0.000139925	8.6959e-06	-81.2268	0.0343506	0.00523926	0.0339487	-30.4279	18.768	16.183	9.50509	0.0460351	0.0269509	0.053344	30.3465	92360.5	157762	182809	-59.6535	0.0000000E+000	0.0000000E+000	0.0000000E+000	59.6535	0.0000000E+000	0.0000000E+000	0.0000000E+000	-59.6535	0.0000000E+000	0.0000000E+000	0.0000000E+000	-30.3465	0.0000000E+000	0.0000000E+000	0.0000000E+000	30.3465	1.70811	59.6535	-9.27139e-07	-1.46896e-06	-8.09611e-10	-1.46815e-06	0.253741	43878.3	24.1834	43854.2
31.6296	19.1157	9.20558	21.2168	-25.7142	11.3675	0.253867	-0.00624498	546.608	102.901	1	11	0.00474273	0.000223537	0	1.13265e-05	-3.1867e-05	6.46705e-06	46.7342	0.0289306	0.0198286	-0.0210667	-25.6397	21.2255	19.1355	9.18451	0.042465	0.02045	0.0471325	25.7142	102901	213677	237163	-64.2858	0.0000000E+000	0.0000000E+000	0.0000000E+000	64.2858	0.0000000E+000	0.0000000E+000	0.0000000E+000	-64.2858	0.0000000E+000	0.0000000E+000	0.0000000E+000	-25.7142	0.0000000E+000	0.0000000E+000	0.0000000E+000	25.7142	2.07653	64.2858	-8.13577e-07	-1.58539e-06	1.99009e-10	-1.58559e-06	0.253899	40651.3	5.10282	40656.4
21.5517	21.704	8.51088	23.313	-21.4119	11.7885	0.253864	-0.00650964	867.688	115.642	1	11	0.00474227	0.000203417	0	1.04663e-05	0.000273542	6.04948e-06	-40.9667	0.0297393	0.0224559	0.0194977	-21.4363	23.3411	21.7264	8.53038	0.0399339	0.0156595	0.0428945	21.4119	115642	294903	316767	-68.5881	0.0000000E+000	0.0000000E+000	0.0000000E+000	68.5881	0.0000000E+000	0.0000000E+000	0.0000000E+000	-68.5881	0.0000000E+000	0.0000000E+000	0.0000000E+000	-21.4119	0.0000000E+000	0.0000000E+000	0.0000000E+000	21.4119	2.55014	68.5881	-8.60187e-07	-1.65256e-06	-1.78066e-09	-1.65078e-06	0.25359	38998.1	42.021	38956.1
14.6852	23.8395	7.58798	25.018	-17.656	12.2492	0.253873	-0.00554592	1428.29	131.391	1	11	0.00473651	0.000189325	0	8.91434e-06	0.000368982	8.87021e-06	22.3698	0.0468519	0.0433261	-0.017831	-17.5871	25.0538	23.8828	7.57014	0.0380884	0.0121233	0.0399713	17.656	131390	412795	433201	-72.344	0.0000000E+000	0.0000000E+000	0.0000000E+000	72.344	0.0000000E+000	0.0000000E+000	0.0000000E+000	-72.344	0.0000000E+000	0.0000000E+000	0.0000000E+000	-17.656	0.0000000E+000	0.0000000E+000	0.0000000E+000	17.656	3.14174	72.344	-1.55194e-06	-1.40796e-06	-2.04635e-09	-1.40591e-06	0.253504	45776.6	66.5321	45710
10.0032	25.6311	6.64238	26.4778	-14.5288	12.6998	0.253869	-0.00591928	2395.28	150.744	1	11	0.00474287	0.000179126	0	8.50137e-06	2.53972e-05	4.13569e-06	87.5182	0.0230881	0.00099975	-0.0230665	-14.4799	26.473	25.6321	6.61932	0.0365597	0.00947457	0.0377675	14.5288	150744	581680	600895	-75.4712	0.0000000E+000	0.0000000E+000	0.0000000E+000	75.4712	0.0000000E+000	0.0000000E+000	0.0000000E+000	-75.4712	0.0000000E+000	0.0000000E+000	0.0000000E+000	-14.5288	0.0000000E+000	0.0000000E+000	0.0000000E+000	14.5288	3.85872	75.4712	-4.12968e-07	-1.50272e-06	-1.50333e-10	-1.50257e-06	0.253843	42888.4	4.29058	42884.2
6.81719	27.0134	5.73294	27.615	-11.9819	13.0395	0.253869	-0.00585227	4072.27	175.51	1	11	0.00473426	0.000171438	0	6.92248e-06	0.000273542	1.11334e-05	47.6785	0.064941	0.0437241	-0.048016	-11.8657	27.6479	27.0571	5.68493	0.0354232	0.00751774	0.0362122	11.9819	175510	826996	845414	-78.0181	0.0000000E+000	0.0000000E+000	0.0000000E+000	78.0181	0.0000000E+000	0.0000000E+000	0.0000000E+000	-78.0181	0.0000000E+000	0.0000000E+000	0.0000000E+000	-11.9819	0.0000000E+000	0.0000000E+000	0.0000000E+000	11.9819	4.71195	78.0181	-1.57889e-06	-1.48571e-06	-1.60084e-09	-1.48411e-06	0.253595	43379.5	46.7411	43332.8
4.63925	28.1089	5.06172	28.561	-10.2082	13.5235	0.253875	-0.00569817	6777.58	212.875	1	11	0.00472985	0.000165605	0	7.92545e-06	0.000216278	3.56081e-06	2.72512	0.0215018	0.0214775	-0.00102229	-10.1985	28.5819	28.1303	5.06069	0.0344586	0.00620514	0.0350128	10.2082	212875	1.18214e+06	1.20116e+06	-79.7918	0.0000000E+000	0.0000000E+000	0.0000000E+000	79.7918	0.0000000E+000	0.0000000E+000	0.0000000E+000	-79.7918	0.0000000E+000	0.0000000E+000	0.0000000E+000	-10.2082	0.0000000E+000	0.0000000E+000	0.0000000E+000	10.2082	5.55323	79.7918	1.00297e-06	-1.44662e-06	-1.23239e-09	-1.44539e-06	0.253659	44553.8	37.9557	44515.9
3.1604	29.2035	4.43644	29.5385	-8.63802	14.2164	0.253867	-0.00529113	11351.3	256.056	1	11	0.00474183	0.00016053	0	8.11361e-06	0.000216278	7.39407e-06	11.9502	0.0460602	0.045062	-0.00953729	-8.60665	29.5817	29.2485	4.4269	0.0334701	0.00508459	0.0338541	8.63802	256056	1.68552e+06	1.70486e+06	-81.362	0.0000000E+000	0.0000000E+000	0.0000000E+000	81.362	0.0000000E+000	0.0000000E+000	0.0000000E+000	-81.362	0.0000000E+000	0.0000000E+000	0.0000000E+000	-8.63802	0.0000000E+000	0.0000000E+000	0.0000000E+000	8.63802	6.58264	81.362	1.88165e-07	-1.34324e-06	-1.14435e-09	-1.3421e-06	0.25365	47979.7	40.8755	47938.8
2.15577	30.0403	4.04947	30.3121	-7.67724	15.22	0.253883	-0.00423472	18231.4	325.376	1	11	0.00473967	0.000156363	0	5.36139e-06	0.000349894	7.91878e-06	-64.4233	0.0506437	0.0218638	0.0456811	-7.75722	30.3399	30.0622	4.09515	0.0326945	0.00440724	0.0329902	7.67724	325376	2.41375e+06	2.43558e+06	-82.3228	0.0000000E+000	0.0000000E+000	0.0000000E+000	82.3228	0.0000000E+000	0.0000000E+000	0.0000000E+000	-82.3228	0.0000000E+000	0.0000000E+000	0.0000000E+000	-7.67724	0.0000000E+000	0.0000000E+000	0.0000000E+000	7.67724	7.41835	82.3228	-2.75223e-06	-1.07512e-06	-1.4817e-09	-1.07364e-06	0.253533	59952.7	82.6251	59870.1
1.46631	30.8093	3.68803	31.0292	-6.82613	16.6814	0.253881	-0.00408446	29430.6	415.765	1	11	0.00474116	0.000152797	0	4.33173e-08	-1.2779e-05	2.3682e-06	32.2232	0.015499	0.0131118	-0.00826438	-6.80811	31.0412	30.8224	3.67977	0.0319993	0.00383048	0.0322277	6.82613	415764	3.47323e+06	3.49803e+06	-83.1739	0.0000000E+000	0.0000000E+000	0.0000000E+000	83.1739	0.0000000E+000	0.0000000E+000	0.0000000E+000	-83.1739	0.0000000E+000	0.0000000E+000	0.0000000E+000	-6.82613	0.0000000E+000	0.0000000E+000	0.0000000E+000	6.82613	8.35385	83.1739	-5.31807e-06	-1.03697e-06	5.21951e-11	-1.03702e-06	0.253894	62157.9	3.12868	62161.1
1.00006	31.507	3.52845	31.7039	-6.38989	19.8549	0.253882	-0.00471124	45103.3	558.663	1	12	0.00473948	0.000149492	0	-7.04079e-06	0.000254454	3.04455e-06	10.6945	0.020366	0.0200123	-0.00377937	-6.37909	31.7234	31.527	3.52467	0.0313459	0.0035104	0.0315418	6.38989	558662	4.98853e+06	5.01972e+06	-83.6101	0.0000000E+000	0.0000000E+000	0.0000000E+000	83.6101	0.0000000E+000	0.0000000E+000	0.0000000E+000	-83.6101	0.0000000E+000	0.0000000E+000	0.0000000E+000	-6.38989	0.0000000E+000	0.0000000E+000	0.0000000E+000	6.38989	8.92942	83.6101	-7.08411e-06	-1.1961e-06	-1.19879e-09	-1.1949e-06	0.253627	53888.6	54.01	53834.5
0.681362	32.1941	3.43959	32.3774	-6.0983	22.9671	0.253887	-0.0051172	67910.2	766.419	1	12	0.00473938	0.000146379	0	-9.45897e-06	6.3091e-06	4.32885e-06	-35.6945	0.0295728	0.0240172	0.0172547	-6.12412	32.4031	32.2182	3.45685	0.030711	0.00328114	0.0308858	6.0983	766419	7.17358e+06	7.21441e+06	-83.9017	0.0000000E+000	0.0000000E+000	0.0000000E+000	83.9017	0.0000000E+000	0.0000000E+000	0.0000000E+000	-83.9017	0.0000000E+000	0.0000000E+000	0.0000000E+000	-6.0983	0.0000000E+000	0.0000000E+000	0.0000000E+000	6.0983	9.35987	83.9017	-2.41818e-06	-1.29919e-06	-3.22849e-11	-1.29916e-06	0.25388	49614.4	1.23292	49613.2
0.464091	32.806	3.48541	32.9906	-6.06453	27.5237	0.253875	-0.00566021	98392.9	1098.22	1	12	0.00473784	0.000143612	0	-8.1761e-06	0.000120837	2.97293e-06	-53.1933	0.0207012	0.0124024	0.0165746	-6.09087	33.0047	32.8184	3.50198	0.030142	0.00320238	0.0303117	6.06453	1.09822e+06	1.03369e+07	1.03951e+07	-83.9355	0.0000000E+000	0.0000000E+000	0.0000000E+000	83.9355	0.0000000E+000	0.0000000E+000	0.0000000E+000	-83.9355	0.0000000E+000	0.0000000E+000	0.0000000E+000	-6.06453	0.0000000E+000	0.0000000E+000	0.0000000E+000	6.06453	9.41238	83.9355	1.28287e-06	-1.43699e-06	-6.83965e-10	-1.4363e-06	0.253754	44852.6	21.3486	44831.3
0.316193	33.4656	3.63176	33.6621	-6.19364	34.1987	0.253883	-0.00514757	138596	1613.26	1	12	0.00474171	0.000140862	0	-5.23223e-06	-0.000127307	1.55422e-06	-25.0029	0.0110336	0.0099996	0.00466351	-6.19969	33.6725	33.4756	3.63643	0.0295336	0.00320506	0.029707	6.19364	1.61326e+06	1.48657e+07	1.4953e+07	-83.8064	0.0000000E+000	0.0000000E+000	0.0000000E+000	83.8064	0.0000000E+000	0.0000000E+000	0.0000000E+000	-83.8064	0.0000000E+000	0.0000000E+000	0.0000000E+000	-6.19364	0.0000000E+000	0.0000000E+000	0.0000000E+000	6.19364	9.21469	83.8064	2.94387e-06	-1.30688e-06	6.55324e-10	-1.30754e-06	0.254011	49321	24.7315	49345.7
0.215268	34.2158	4.03105	34.4524	-6.7192	43.9911	0.253874	-0.00466211	183410	2510.85	1	12	0.00473869	0.000137543	0	-7.84553e-06	0.000445334	3.02361e-06	20.1576	0.021983	0.0206365	-0.00757541	-6.70268	34.472	34.2364	4.02348	0.0288262	0.00339609	0.0290255	6.7192	2.51084e+06	2.13122e+07	2.14596e+07	-83.2808	0.0000000E+000	0.0000000E+000	0.0000000E+000	83.2808	0.0000000E+000	0.0000000E+000	0.0000000E+000	-83.2808	0.0000000E+000	0.0000000E+000	0.0000000E+000	-6.7192	0.0000000E+000	0.0000000E+000	0.0000000E+000	6.7192	8.48805	83.2808	-2.6133e-06	-1.18359e-06	-2.0762e-09	-1.18151e-06	0.253429	54454.8	95.5221	54359.3
0.146929	35.0802	4.63691	35.3853	-7.52972	58.3295	0.253879	-0.0048864	233606	4011.39	1	12	0.00474237	0.000134021	0	-2.92472e-05	0.000216278	3.68115e-06	-31.6246	0.0274671	0.0233883	0.0144024	-7.54786	35.4104	35.1036	4.65131	0.0280166	0.00370324	0.0282603	7.52972	4.01139e+06	3.03479e+07	3.06119e+07	-82.4703	0.0000000E+000	0.0000000E+000	0.0000000E+000	82.4703	0.0000000E+000	0.0000000E+000	0.0000000E+000	-82.4703	0.0000000E+000	0.0000000E+000	0.0000000E+000	-7.52972	0.0000000E+000	0.0000000E+000	0.0000000E+000	7.52972	7.56543	82.4703	-2.14017e-05	-1.24055e-06	-1.05682e-09	-1.2395e-06	0.253662	51956.1	44.2611	51911.8
0.0999041	35.9389	5.47955	36.3542	-8.66905	79.4067	0.253881	-0.00522311	290731	6605	1	12	0.00474342	0.000130478	0	-8.48766e-05	-0.000318188	2.72465e-06	12.5556	0.0208821	0.0203827	-0.00453948	-8.65714	36.3737	35.9593	5.47501	0.0271929	0.00414606	0.0275071	8.66905	6.605e+06	4.33204e+07	4.3821e+07	-81.3309	0.0000000E+000	0.0000000E+000	0.0000000E+000	81.3309	0.0000000E+000	0.0000000E+000	0.0000000E+000	-81.3309	0.0000000E+000	0.0000000E+000	0.0000000E+000	-8.66905	0.0000000E+000	0.0000000E+000	0.0000000E+000	8.66905	6.55872	81.3309	-5.56294e-05	-1.32605e-06	1.66193e-09	-1.32771e-06	0.254199	48607.2	60.9192	48668.1
0.0680626	37.028	6.41781	37.5801	-9.833	110.333	0.253879	-0.00589517	364355	10626.3	1	12	0.00473631	0.000126032	0	-0.000183233	0.000216278	2.56085e-06	-11.072	0.020319	0.0199408	0.0039021	-9.83367	37.6004	37.0479	6.42171	0.0262189	0.00454435	0.0266099	9.833	1.06263e+07	6.13094e+07	6.22234e+07	-80.167	0.0000000E+000	0.0000000E+000	0.0000000E+000	80.167	0.0000000E+000	0.0000000E+000	0.0000000E+000	-80.167	0.0000000E+000	0.0000000E+000	0.0000000E+000	-9.833	0.0000000E+000	0.0000000E+000	0.0000000E+000	9.833	5.76957	80.167	-9.83561e-05	-1.49666e-06	-1.27499e-09	-1.49539e-06	0.253663	43065.7	36.6873	43029
0.0464052	38.443	7.43981	39.1563	-10.953	155.684	0.253872	-0.00752986	460990	16642.2	1	12	0.00474191	0.000121102	0	-0.000339034	0.000216278	1.83836e-06	-11.5106	0.0151803	0.0148749	0.0030292	-10.9532	39.1715	38.4579	7.44284	0.0250734	0.00485242	0.0255387	10.953	1.66422e+07	8.59939e+07	8.75894e+07	-79.047	0.0000000E+000	0.0000000E+000	0.0000000E+000	79.047	0.0000000E+000	0.0000000E+000	0.0000000E+000	-79.047	0.0000000E+000	0.0000000E+000	0.0000000E+000	-10.953	0.0000000E+000	0.0000000E+000	0.0000000E+000	10.953	5.1672	79.047	-0.000155801	-1.91162e-06	-1.62854e-09	-1.90999e-06	0.253656	33715.4	28.7227	33686.7
0.0315922	40.0692	8.96138	41.059	-12.6066	222.29	0.253879	-0.00883342	562167	26779.2	1	12	0.00474028	0.00011545	0	-0.000536789	0.000273542	4.3512e-06	5.75505	0.0376889	0.037499	-0.00377929	-12.5901	41.0948	40.1067	8.9576	0.023768	0.00531566	0.0243552	12.6066	2.67792e+07	1.19738e+08	1.22696e+08	-77.3934	0.0000000E+000	0.0000000E+000	0.0000000E+000	77.3934	0.0000000E+000	0.0000000E+000	0.0000000E+000	-77.3934	0.0000000E+000	0.0000000E+000	0.0000000E+000	-12.6066	0.0000000E+000	0.0000000E+000	0.0000000E+000	12.6066	4.47132	77.3934	-0.000197755	-2.24262e-06	-2.41631e-09	-2.2402e-06	0.253605	28740.7	30.9667	28709.7
0.0215268	41.8075	10.9932	43.2287	-14.7323	320.029	0.253873	-0.0100513	672540	43493.1	1	12	0.00473876	0.000109621	0	-0.000760008	0.000273542	2.97878e-06	-14.9899	0.0271734	0.0262488	0.00702839	-14.7324	43.2558	41.8338	11.0002	0.0223723	0.00588274	0.0231328	14.7323	4.34931e+07	1.65406e+08	1.71029e+08	-75.2677	0.0000000E+000	0.0000000E+000	0.0000000E+000	75.2677	0.0000000E+000	0.0000000E+000	0.0000000E+000	-75.2677	0.0000000E+000	0.0000000E+000	0.0000000E+000	-14.7323	0.0000000E+000	0.0000000E+000	0.0000000E+000	14.7323	3.80304	75.2677	-0.00022322	-2.55177e-06	-2.74946e-09	-2.54902e-06	0.2536	25257.7	27.2145	25230.4
0.0146812	43.8277	13.5002	45.8598	-17.1203	463.33	0.253872	-0.0109116	803008	69587.9	1	12	0.00474161	0.000103393	0	-0.00101518	0.000120837	3.14499e-06	-4.70614	0.0304177	0.0303151	0.00249563	-17.1122	45.8895	43.858	13.5027	0.0208393	0.00641911	0.0218056	17.1203	6.95879e+07	2.25914e+08	2.36389e+08	-72.8797	0.0000000E+000	0.0000000E+000	0.0000000E+000	72.8797	0.0000000E+000	0.0000000E+000	0.0000000E+000	-72.8797	0.0000000E+000	0.0000000E+000	0.0000000E+000	-17.1203	0.0000000E+000	0.0000000E+000	0.0000000E+000	17.1203	3.24645	72.8797	-0.000255173	-2.77015e-06	-1.31853e-09	-2.76883e-06	0.253751	23266.3	11.0742	23255.2
0.0100092	46.6565	16.5512	49.5052	-19.532	673.513	0.253878	-0.0112498	960708	107387	1	12	0.00474086	9.57648e-05	0	-0.00138662	-0.000241836	2.29827e-06	4.06036	0.0239991	0.0239389	-0.00169932	-19.5209	49.5272	46.6804	16.5495	0.0190375	0.00675349	0.0201999	19.532	1.07387e+08	3.02713e+08	3.21197e+08	-70.468	0.0000000E+000	0.0000000E+000	0.0000000E+000	70.468	0.0000000E+000	0.0000000E+000	0.0000000E+000	-70.468	0.0000000E+000	0.0000000E+000	0.0000000E+000	-19.532	0.0000000E+000	0.0000000E+000	0.0000000E+000	19.532	2.81891	70.468	-0.000371435	-2.85606e-06	2.72059e-09	-2.85878e-06	0.25412	22567.4	21.497	22588.9