File: txt/18353_R257_UA646_SOC00_C07.mpt
EC-Lab ASCII FILE
Nb header lines : 65

Potentio Electrochemical Impedance Spectroscopy

Run on channel : 7 (SN 66126)
User :
CE vs. WE compliance from -10 V to 10 V
Electrode connection : standard
Potential control : Ewe
Ewe ctrl range : min = -10.00 V, max = 10.00 V
Safety Limits :
	Do not start on E overload
Acquisition started on : 10/13/2025 14:40:40.999
Technique started on : 10/13/2025 14:40:42.911
Loaded Setting File :  C:\Users\Celltest\OneDrive - store-dot.com\Documents\EC-Lab\Data\@Biologic Test Protocols\anode half cell EIS SOC00.mps
Saved on :
	File : 18353_R257_UA646_SOC00_C07.mpr
	Directory : C:\Users\Celltest\OneDrive - store-dot.com\Documents\EC-Lab\Data\John\
	Host : 169.254.61.224
Device : VMP-3e (SN .003165)
Address : USB
EC-LAB for windows v11.62 (software)
Internet server v27.00 (firmware)
Command interpretor v12.03 (firmware)
Electrode material :
Initial state :
Electrolyte :
Comments :
Electrode surface area : 0.001 cm²
Characteristic mass : 0.001 g
Equivalent Weight : 0.000 g/eq.
Density : 0.000 g/cm3
Volume (V) : 0.001 cm³
Record Ece
Cycle Definition : Charge/Discharge alternance
Mode                Single sine
E (V)               0.0000
vs.                 Eoc
tE (h:m:s)          0:00:0.0000
record              0
dI                  0.000
unit dI             mA
dt (s)              0.000
fi                  100.000
unit fi             kHz
ff                  10.000
unit ff             mHz
Nd                  6
Points              per decade
spacing             Logarithmic
Va (mV)             5.0
pw                  0.10
Na                  2
corr                0
E range min (V)     -10.000
E range max (V)     10.000
I Range             Auto
Bandwidth           5
nc cycles           0
goto Ns'            0
nr cycles           0
inc. cycle          0

freq/Hz	Re(Z)/Ohm	-Im(Z)/Ohm	|Z|/Ohm	Phase(Z)/deg	time/s	<Ewe>/V	<I>/mA	Cs/µF	Cp/µF	cycle number	I Range	|Ewe|/V	|I|/A	Ns	(Q-Qo)/mA.h	<Ece>/V	|Ece|/V	Phase(Zce)/deg	|Zce|/Ohm	Re(Zce)/Ohm	-Im(Zce)/Ohm	Phase(Zwe-ce)/deg	|Zwe-ce|/Ohm	Re(Zwe-ce)/Ohm	-Im(Zwe-ce)/Ohm	Re(Y)/Ohm-1	Im(Y)/Ohm-1	|Y|/Ohm-1	Phase(Y)/deg	Re(C)/nF	Im(C)/nF	|C|/nF	Phase(C)/deg	Re(M)	Im(M)	|M|	Phase(M)/deg	Re(Permittivity)	Im(Permittivity)	|Permittivity|	Phase(Permittivity)/deg	Re(Resistivity)/Ohm.cm	Im(Resistivity)/Ohm.cm	|Resistivity|/Ohm.cm	Phase(Resistivity)/deg	Re(Conductivity)/mS/cm	Im(Conductivity)/mS/cm	|Conductivity|/mS/cm	Phase(Conductivity)/deg	Tan(Delta)	Loss Angle(Delta)/deg	dq/mA.h	Pwe/W	Pce/W	Pwe-ce/W	<Ewe-Ece>/V	Rwe/Ohm	Rce/Ohm	Rwe-ce/Ohm		Ewe-Ece/V
100004	1.2859	0.482881	1.37357	-20.5822	1.91156	0.251532	0.044281	3.29582	0.407325	1	9	0.00488417	0.00355582	0	8.36717e-06	-0.000193068	3.19656e-05	87.933	0.00898968	0.000324246	-0.00898383	-20.2259	1.37074	1.28622	0.473898	0.681557	0.255939	0.728028	20.5822	407.325	1084.69	1158.65	-69.4178	0.0000000E+000	0.0000000E+000	0.0000000E+000	69.4178	0.0000000E+000	0.0000000E+000	0.0000000E+000	-69.4178	0.0000000E+000	0.0000000E+000	0.0000000E+000	-20.5822	0.0000000E+000	0.0000000E+000	0.0000000E+000	20.5822	2.66296	69.4178	8.36717e-06	1.11381e-05	-8.54926e-09	1.11466e-05	0.251725	5680.35	4.36007	5684.71
68132	1.41143	0.55336	1.51603	-21.4079	2.41852	0.251555	0.0467758	4.22145	0.56242	1	9	0.00506796	0.00334291	0	1.10196e-05	-0.000116767	4.04754e-05	79.4886	0.0121078	0.00220884	-0.0119046	-20.9579	1.51379	1.41364	0.541455	0.614108	0.240764	0.659618	21.4079	562.42	1434.54	1540.85	-68.5921	0.0000000E+000	0.0000000E+000	0.0000000E+000	68.5921	0.0000000E+000	0.0000000E+000	0.0000000E+000	-68.5921	0.0000000E+000	0.0000000E+000	0.0000000E+000	-21.4079	0.0000000E+000	0.0000000E+000	0.0000000E+000	21.4079	2.55066	68.5921	2.6524e-06	1.17667e-05	-5.46186e-09	1.17721e-05	0.251672	5377.88	2.4963	5380.38
46420.4	1.55882	0.628695	1.68082	-21.965	2.92552	0.251569	0.0447279	5.45345	0.762971	1	9	0.00509333	0.00303026	0	-8.28203e-07	-0.000173993	1.9662e-05	48.8108	0.00648855	0.00427302	-0.00488289	-21.7564	1.68297	1.56309	0.623812	0.551761	0.222534	0.594947	21.965	762.97	1891.74	2039.81	-68.035	0.0000000E+000	0.0000000E+000	0.0000000E+000	68.035	0.0000000E+000	0.0000000E+000	0.0000000E+000	-68.035	0.0000000E+000	0.0000000E+000	0.0000000E+000	-21.965	0.0000000E+000	0.0000000E+000	0.0000000E+000	21.965	2.47945	68.035	-1.18478e-05	1.12521e-05	-7.78233e-09	1.12599e-05	0.251743	5624.44	3.89003	5628.33
31621.1	1.71492	0.707381	1.85509	-22.4155	3.43252	0.251568	0.0453981	7.11524	1.03459	1	9	0.00521973	0.00281374	0	-3.64594e-06	-0.000231219	9.2032e-06	20.1047	0.00327081	0.00307151	-0.0011243	-22.3473	1.8575	1.71799	0.706257	0.498329	0.205554	0.539059	22.4155	1034.59	2508.18	2713.18	-67.5845	0.0000000E+000	0.0000000E+000	0.0000000E+000	67.5845	0.0000000E+000	0.0000000E+000	0.0000000E+000	-67.5845	0.0000000E+000	0.0000000E+000	0.0000000E+000	-22.4155	0.0000000E+000	0.0000000E+000	0.0000000E+000	22.4155	2.42432	67.5845	-2.81774e-06	1.14207e-05	-1.04969e-08	1.14312e-05	0.251799	5541.38	5.09315	5546.47
21544.7	1.88436	0.795252	2.0453	-22.8811	3.81555	0.251554	0.0503505	9.28914	1.40434	1	9	0.00505273	0.00247041	0	7.3016e-06	-9.76912e-05	3.86305e-06	55.2475	0.00156373	0.000891375	-0.00128479	-22.8382	2.04562	1.88525	0.793967	0.450455	0.190104	0.488926	22.8811	1404.34	3327.6	3611.8	-67.1189	0.0000000E+000	0.0000000E+000	0.0000000E+000	67.1189	0.0000000E+000	0.0000000E+000	0.0000000E+000	-67.1189	0.0000000E+000	0.0000000E+000	0.0000000E+000	-22.8811	0.0000000E+000	0.0000000E+000	0.0000000E+000	22.8811	2.36952	67.1189	1.09475e-05	1.26659e-05	-4.9188e-09	1.26708e-05	0.251652	4996.07	1.94022	4998.01
14678.6	2.06769	0.878199	2.24646	-23.0121	4.20052	0.251575	0.0471854	12.3465	1.88682	1	9	0.00487769	0.00217127	0	1.29983e-05	-0.000231219	1.59429e-05	-65.6279	0.00734265	0.00303002	0.00668831	-23.1386	2.25187	2.07072	0.884888	0.409721	0.174018	0.445144	23.0121	1886.82	4442.46	4826.55	-66.9879	0.0000000E+000	0.0000000E+000	0.0000000E+000	66.9879	0.0000000E+000	0.0000000E+000	0.0000000E+000	-66.9879	0.0000000E+000	0.0000000E+000	0.0000000E+000	-23.0121	0.0000000E+000	0.0000000E+000	0.0000000E+000	23.0121	2.35447	66.9879	5.69675e-06	1.18706e-05	-1.09102e-08	1.18816e-05	0.251806	5331.62	4.90022	5336.52
10002.2	2.26959	0.982228	2.47301	-23.4019	4.58355	0.251569	0.0485259	16.1999	2.55554	1	9	0.00488641	0.00197589	0	1.96097e-05	1.67614e-05	4.51734e-06	-9.40858	0.00228623	0.00225547	0.000373738	-23.3891	2.47523	2.27184	0.982601	0.371103	0.160605	0.404365	23.4019	2555.54	5904.97	6434.24	-66.5981	0.0000000E+000	0.0000000E+000	0.0000000E+000	66.5981	0.0000000E+000	0.0000000E+000	0.0000000E+000	-66.5981	0.0000000E+000	0.0000000E+000	0.0000000E+000	-23.4019	0.0000000E+000	0.0000000E+000	0.0000000E+000	23.4019	2.31065	66.5981	6.61133e-06	1.22076e-05	8.1336e-10	1.22068e-05	0.251552	5184.22	0.345411	5183.87
6810.42	2.46953	1.09052	2.69959	-23.8257	4.84256	0.25159	0.0382487	21.4296	3.49689	1	9	0.00461709	0.00171029	0	2.21279e-05	-0.000288445	2.74167e-05	-86.2409	0.0160304	0.00105099	0.0159959	-24.1264	2.70705	2.47058	1.10651	0.338858	0.149636	0.370426	23.8257	3496.89	7918.88	8656.61	-66.1743	0.0000000E+000	0.0000000E+000	0.0000000E+000	66.1743	0.0000000E+000	0.0000000E+000	0.0000000E+000	-66.1743	0.0000000E+000	0.0000000E+000	0.0000000E+000	-23.8257	0.0000000E+000	0.0000000E+000	0.0000000E+000	23.8257	2.26455	66.1743	2.51827e-06	9.623e-06	-1.10327e-08	9.63403e-06	0.251879	6577.73	7.54131	6585.28
4646	2.72277	1.24782	2.99509	-24.6215	5.10761	0.251545	0.024732	27.453	4.76511	1	9	0.00450565	0.00150435	0	2.48821e-05	-0.000212144	7.95412e-06	66.7688	0.00528742	0.00208558	-0.00485872	-24.5203	2.99496	2.72486	1.24296	0.303524	0.139102	0.33388	24.6215	4765.11	10397.6	11437.5	-65.3785	0.0000000E+000	0.0000000E+000	0.0000000E+000	65.3785	0.0000000E+000	0.0000000E+000	0.0000000E+000	-65.3785	0.0000000E+000	0.0000000E+000	0.0000000E+000	-24.6215	0.0000000E+000	0.0000000E+000	0.0000000E+000	24.6215	2.18203	65.3785	2.75415e-06	6.22121e-06	-5.24674e-09	6.22646e-06	0.251757	10170.8	8.57769	10179.4
3163.08	3.01776	1.43184	3.34022	-25.3829	5.65867	0.251338	-0.0161532	35.1412	6.45735	1	9	0.00495021	0.001482	0	2.42218e-05	-0.000116767	1.2306e-05	9.87922	0.00830359	0.00818046	-0.00142466	-25.3009	3.347	3.02594	1.43041	0.27048	0.128335	0.299382	25.3829	6457.35	13609.6	15063.8	-64.6171	0.0000000E+000	0.0000000E+000	0.0000000E+000	64.6171	0.0000000E+000	0.0000000E+000	0.0000000E+000	-64.6171	0.0000000E+000	0.0000000E+000	0.0000000E+000	-25.3829	0.0000000E+000	0.0000000E+000	0.0000000E+000	25.3829	2.10762	64.6171	-6.60309e-07	-4.05991e-06	1.88615e-09	-4.06179e-06	0.251455	15559.6	7.2287	15566.9
2155.69	3.32725	1.64384	3.71118	-26.2918	6.35484	0.251491	-0.0189667	44.9132	8.81192	1	10	0.00509349	0.00137247	0	2.82658e-05	-9.76912e-05	1.44921e-05	-94.7742	0.0105591	-0.000878828	0.0105224	-26.4433	3.71506	3.32637	1.65436	0.241581	0.119354	0.269456	26.2918	8811.92	17836	19894	-63.7082	0.0000000E+000	0.0000000E+000	0.0000000E+000	63.7082	0.0000000E+000	0.0000000E+000	0.0000000E+000	-63.7082	0.0000000E+000	0.0000000E+000	0.0000000E+000	-26.2918	0.0000000E+000	0.0000000E+000	0.0000000E+000	26.2918	2.02407	63.7082	4.04398e-06	-4.76996e-06	1.85288e-09	-4.77181e-06	0.251589	13259.6	5.15067	13264.8
1468.59	3.6663	1.91473	4.13618	-27.5759	6.80609	0.251491	-0.0182035	56.5995	12.1291	1	10	0.00502702	0.00121538	0	2.50079e-05	-0.000345672	8.49649e-06	-104.321	0.00699082	-0.00172916	0.0067736	-27.6701	4.13778	3.66457	1.9215	0.214304	0.11192	0.241769	27.5759	12129.1	23224.7	26201.2	-62.4241	0.0000000E+000	0.0000000E+000	0.0000000E+000	62.4241	0.0000000E+000	0.0000000E+000	0.0000000E+000	-62.4241	0.0000000E+000	0.0000000E+000	0.0000000E+000	-27.5759	0.0000000E+000	0.0000000E+000	0.0000000E+000	27.5759	1.91479	62.4241	-3.25783e-06	-4.57802e-06	6.29245e-09	-4.58431e-06	0.251836	13815.5	18.9893	13834.5
1000.32	4.00501	2.25437	4.5959	-29.3746	7.25782	0.251484	-0.0178908	70.5758	16.9811	1	10	0.0049381	0.00107446	0	2.26204e-05	-0.000441049	3.24835e-05	-53.5275	0.0302324	0.0179712	0.0243112	-29.5279	4.6235	4.02298	2.27868	0.189611	0.10673	0.217585	29.3746	16981.1	30167.8	34618.7	-60.6254	0.0000000E+000	0.0000000E+000	0.0000000E+000	60.6254	0.0000000E+000	0.0000000E+000	0.0000000E+000	-60.6254	0.0000000E+000	0.0000000E+000	0.0000000E+000	-29.3746	0.0000000E+000	0.0000000E+000	0.0000000E+000	29.3746	1.77655	60.6254	-2.38753e-06	-4.49926e-06	7.89072e-09	-4.50715e-06	0.251925	14056.6	24.6522	14081.3
681.09	4.43583	2.7463	5.21716	-31.7624	7.70757	0.251483	-0.0189444	85.0877	23.5774	1	10	0.00492701	0.000944384	0	1.97953e-05	-0.000231219	8.73061e-06	3.67981	0.00924477	0.00922571	-0.000593336	-31.7036	5.2247	4.44506	2.74571	0.162969	0.100897	0.191675	31.7624	23577.4	38082.2	44790	-58.2376	0.0000000E+000	0.0000000E+000	0.0000000E+000	58.2376	0.0000000E+000	0.0000000E+000	0.0000000E+000	-58.2376	0.0000000E+000	0.0000000E+000	0.0000000E+000	-31.7624	0.0000000E+000	0.0000000E+000	0.0000000E+000	31.7624	1.6152	58.2376	-2.82512e-06	-4.76418e-06	4.3803e-09	-4.76856e-06	0.251714	13274.8	12.2052	13287
463.961	4.95426	3.40294	6.01039	-34.484	8.15931	0.251487	-0.0191603	100.806	32.3138	1	10	0.00490036	0.000815315	0	1.77813e-05	-0.000250295	7.54899e-06	-69.7716	0.00925899	0.00320141	0.00868791	-34.535	6.01795	4.95747	3.41163	0.137143	0.0941997	0.166379	34.484	32313.8	47045	57073.8	-55.516	0.0000000E+000	0.0000000E+000	0.0000000E+000	55.516	0.0000000E+000	0.0000000E+000	0.0000000E+000	-55.516	0.0000000E+000	0.0000000E+000	0.0000000E+000	-34.484	0.0000000E+000	0.0000000E+000	0.0000000E+000	34.484	1.45588	55.516	-2.014e-06	-4.81857e-06	4.79572e-09	-4.82336e-06	0.251738	13125.4	13.0632	13138.5
316.316	5.65615	4.28155	7.09392	-37.1247	8.60704	0.251479	-0.0190002	117.516	42.8082	1	10	0.00488814	0.000689061	0	1.53828e-05	-0.000383823	7.64332e-06	55.0277	0.0110924	0.00635792	-0.00908941	-37.0352	7.09351	5.66251	4.27246	0.112395	0.0850802	0.140966	37.1247	42808.2	56552	70927.2	-52.8753	0.0000000E+000	0.0000000E+000	0.0000000E+000	52.8753	0.0000000E+000	0.0000000E+000	0.0000000E+000	-52.8753	0.0000000E+000	0.0000000E+000	0.0000000E+000	-37.1247	0.0000000E+000	0.0000000E+000	0.0000000E+000	37.1247	1.32105	52.8753	-2.39846e-06	-4.77816e-06	7.29271e-09	-4.78545e-06	0.251863	13235.6	20.201	13255.8
215.345	6.66708	5.36901	8.56015	-38.8445	9.0566	0.251481	-0.0195512	137.655	54.1524	1	10	0.0048741	0.000569394	0	1.36171e-05	3.58368e-05	1.11063e-05	-28.1308	0.0195055	0.0172014	0.00919658	-38.8203	8.57932	6.68428	5.37821	0.0909856	0.0732708	0.11682	38.8445	54152.4	67244.8	86338.5	-51.1555	0.0000000E+000	0.0000000E+000	0.0000000E+000	51.1555	0.0000000E+000	0.0000000E+000	0.0000000E+000	-51.1555	0.0000000E+000	0.0000000E+000	0.0000000E+000	-38.8445	0.0000000E+000	0.0000000E+000	0.0000000E+000	38.8445	1.24177	51.1555	-1.76571e-06	-4.91676e-06	-7.00652e-10	-4.91606e-06	0.251446	12862.7	1.83297	12860.9
146.737	8.11829	6.6041	10.4652	-39.1278	9.50252	0.251483	-0.0201357	164.235	65.4028	1	10	0.00486765	0.000465127	0	1.18041e-05	-0.000212144	6.91706e-06	-79.6704	0.0148713	0.00266659	0.0146303	-39.1807	10.4765	8.12095	6.61873	0.0741256	0.0603	0.0955547	39.1278	65402.9	80398.4	103641	-50.8722	0.0000000E+000	0.0000000E+000	0.0000000E+000	50.8722	0.0000000E+000	0.0000000E+000	0.0000000E+000	-50.8722	0.0000000E+000	0.0000000E+000	0.0000000E+000	-39.1278	0.0000000E+000	0.0000000E+000	0.0000000E+000	39.1278	1.22928	50.8722	-1.81306e-06	-5.06377e-06	4.27165e-09	-5.06805e-06	0.251695	12489.4	10.5357	12500
100.032	10.1387	7.7627	12.7692	-37.4395	9.95384	0.25148	-0.0198081	204.96	75.7472	1	10	0.00486888	0.000381298	0	9.19605e-06	-0.000326596	3.26611e-06	91.5952	0.00856576	-0.00023845	-0.00856244	-37.4097	12.7638	10.1384	7.75414	0.0621805	0.0476086	0.0783134	37.4395	75747.2	98931.7	124600	-52.5605	0.0000000E+000	0.0000000E+000	0.0000000E+000	52.5605	0.0000000E+000	0.0000000E+000	0.0000000E+000	-52.5605	0.0000000E+000	0.0000000E+000	0.0000000E+000	-37.4395	0.0000000E+000	0.0000000E+000	0.0000000E+000	37.4395	1.30608	52.5605	-2.60802e-06	-4.98132e-06	6.46924e-09	-4.98779e-06	0.251806	12695.8	16.488	12712.3
68.104	12.6294	8.57992	15.2681	-34.1907	10.4165	0.251489	-0.0156907	272.373	86.0119	1	10	0.00485929	0.000318263	0	7.03791e-06	-0.00026937	9.91083e-06	66.0506	0.0311404	0.0126408	-0.0284593	-34.0757	15.2626	12.642	8.55146	0.0541763	0.0368053	0.0654958	34.1907	86011.9	126607	153060	-55.8093	0.0000000E+000	0.0000000E+000	0.0000000E+000	55.8093	0.0000000E+000	0.0000000E+000	0.0000000E+000	-55.8093	0.0000000E+000	0.0000000E+000	0.0000000E+000	-34.1907	0.0000000E+000	0.0000000E+000	0.0000000E+000	34.1907	1.47197	55.8093	-2.15814e-06	-3.94604e-06	4.2266e-09	-3.95027e-06	0.251759	16027.9	17.1675	16045.1
46.4415	15.4139	8.81557	17.7568	-29.7662	10.8536	0.251477	-0.0225368	388.744	95.8154	1	10	0.00485879	0.00027363	0	4.72579e-06	-0.000288445	7.52692e-06	-79.5174	0.0275076	0.00500463	0.0270485	-29.8339	17.7746	15.4189	8.84261	0.048886	0.027959	0.0563165	29.7662	95815.4	167532	192996	-60.2338	0.0000000E+000	0.0000000E+000	0.0000000E+000	60.2338	0.0000000E+000	0.0000000E+000	0.0000000E+000	-60.2338	0.0000000E+000	0.0000000E+000	0.0000000E+000	-29.7662	0.0000000E+000	0.0000000E+000	0.0000000E+000	29.7662	1.74849	60.2338	-2.31212e-06	-5.66751e-06	6.50065e-09	-5.67401e-06	0.251766	11158.5	12.7988	11171.3
31.6296	18.2181	8.58188	20.1382	-25.2234	11.5185	0.251524	-0.00816509	586.333	106.48	1	11	0.00486879	0.000241769	0	2.6739e-06	-0.000154917	1.1003e-05	-62.2743	0.0455104	0.0211732	0.0402851	-25.3013	20.1746	18.2393	8.62217	0.0449222	0.0211612	0.0496568	25.2234	106480	226041	249865	-64.7766	0.0000000E+000	0.0000000E+000	0.0000000E+000	64.7766	0.0000000E+000	0.0000000E+000	0.0000000E+000	-64.7766	0.0000000E+000	0.0000000E+000	0.0000000E+000	-25.2234	0.0000000E+000	0.0000000E+000	0.0000000E+000	25.2234	2.12286	64.7766	-2.05189e-06	-2.05372e-06	1.26492e-09	-2.05498e-06	0.251679	30804.8	18.9731	30823.8
21.5517	20.5625	7.82206	22	-20.827	11.9394	0.251531	-0.00825381	944.098	119.347	1	11	0.00485623	0.000220737	0	1.89711e-06	-0.000116767	1.35266e-05	-55.8347	0.0612794	0.0344134	0.0507039	-20.9184	22.0503	20.5969	7.87276	0.0424844	0.0161612	0.0454545	20.827	119347	313738	335672	-69.173	0.0000000E+000	0.0000000E+000	0.0000000E+000	69.173	0.0000000E+000	0.0000000E+000	0.0000000E+000	-69.173	0.0000000E+000	0.0000000E+000	0.0000000E+000	-20.827	0.0000000E+000	0.0000000E+000	0.0000000E+000	20.827	2.62878	69.173	-7.76797e-07	-2.07609e-06	9.63769e-10	-2.07705e-06	0.251648	30474.6	14.147	30488.7
14.6852	22.5046	6.93806	23.5498	-17.1343	12.4002	0.251526	-0.00779683	1562.08	135.583	1	11	0.00485519	0.000206167	0	1.76801e-06	-0.000231219	5.89903e-06	130.819	0.0286129	-0.0187035	-0.0216536	-17.0973	23.5256	22.4859	6.9164	0.0405785	0.0125101	0.0424631	17.1343	135583	439782	460208	-72.8657	0.0000000E+000	0.0000000E+000	0.0000000E+000	72.8657	0.0000000E+000	0.0000000E+000	0.0000000E+000	-72.8657	0.0000000E+000	0.0000000E+000	0.0000000E+000	-17.1343	0.0000000E+000	0.0000000E+000	0.0000000E+000	17.1343	3.24365	72.8657	-1.29099e-07	-1.9611e-06	1.80278e-09	-1.96291e-06	0.251757	32260	29.6555	32289.7
10.0032	24.0808	6.06413	24.8326	-14.1346	12.8509	0.251539	-0.00770924	2623.69	156.461	1	11	0.004858	0.00019563	0	-6.44428e-07	1.67614e-05	6.89868e-06	-53.1367	0.0352639	0.0211551	0.0282136	-14.1858	24.86	24.1019	6.09235	0.0390505	0.00983388	0.0402697	14.1346	156461	621309	640707	-75.8654	0.0000000E+000	0.0000000E+000	0.0000000E+000	75.8654	0.0000000E+000	0.0000000E+000	0.0000000E+000	-75.8654	0.0000000E+000	0.0000000E+000	0.0000000E+000	-14.1346	0.0000000E+000	0.0000000E+000	0.0000000E+000	14.1346	3.97101	75.8654	-2.41243e-06	-1.93917e-06	-1.29217e-10	-1.93904e-06	0.251522	32628.2	2.17419	32626
6.81719	25.2911	5.25211	25.8306	-11.7317	13.1905	0.251545	-0.00706366	4445.09	183.772	1	11	0.00485068	0.000187788	0	4.53923e-07	-7.86157e-05	7.18667e-06	15.347	0.0382702	0.0369055	-0.0101287	-11.6931	25.8647	25.328	5.24198	0.037905	0.00787161	0.0387137	11.7317	183772	884935	903815	-78.2683	0.0000000E+000	0.0000000E+000	0.0000000E+000	78.2683	0.0000000E+000	0.0000000E+000	0.0000000E+000	-78.2683	0.0000000E+000	0.0000000E+000	0.0000000E+000	-11.7317	0.0000000E+000	0.0000000E+000	0.0000000E+000	11.7317	4.81541	78.2683	1.09835e-06	-1.77683e-06	5.55315e-10	-1.77738e-06	0.251624	35611.1	11.1296	35622.3
4.63925	26.5329	4.56055	26.922	-9.75286	13.6745	0.251551	-0.00709385	7522.38	215.862	1	11	0.00487359	0.000181026	0	-9.09181e-07	-9.76912e-05	1.663e-05	-131.145	0.0918648	-0.0604443	0.0691782	-9.92005	26.8742	26.4724	4.62973	0.0366076	0.00629221	0.0371444	9.75286	215862	1.25586e+06	1.27428e+06	-80.2471	0.0000000E+000	0.0000000E+000	0.0000000E+000	80.2471	0.0000000E+000	0.0000000E+000	0.0000000E+000	-80.2471	0.0000000E+000	0.0000000E+000	0.0000000E+000	-9.75286	0.0000000E+000	0.0000000E+000	0.0000000E+000	9.75286	5.81791	80.2471	-1.3631e-06	-1.78446e-06	6.93006e-10	-1.78516e-06	0.251648	35460.4	13.7713	35474.2
3.1604	27.2656	4.06962	27.5676	-8.48922	14.3674	0.251538	-0.0064492	12374.4	269.671	1	11	0.00485799	0.000176221	0	-4.58621e-06	-0.000421973	3.01781e-06	-79.8575	0.0171252	0.00301568	0.0168576	-8.52294	27.5731	27.2686	4.08648	0.035877	0.00535495	0.0362744	8.48922	269671	1.80674e+06	1.82675e+06	-81.5108	0.0000000E+000	0.0000000E+000	0.0000000E+000	81.5108	0.0000000E+000	0.0000000E+000	0.0000000E+000	-81.5108	0.0000000E+000	0.0000000E+000	0.0000000E+000	-8.48922	0.0000000E+000	0.0000000E+000	0.0000000E+000	8.48922	6.69978	81.5108	-3.67703e-06	-1.62222e-06	2.72139e-09	-1.62494e-06	0.25196	39003	65.4303	39068.4
2.15577	28.0963	3.6444	28.3317	-7.39063	15.371	0.251541	-0.00620506	20257.8	335.196	1	11	0.00486129	0.000171585	0	-7.38934e-06	-0.000173993	3.59716e-06	15.24	0.0209643	0.020227	-0.00551074	-7.37432	28.351	28.1165	3.63889	0.0350029	0.00454027	0.0352962	7.39063	335196	2.58418e+06	2.60583e+06	-82.6094	0.0000000E+000	0.0000000E+000	0.0000000E+000	82.6094	0.0000000E+000	0.0000000E+000	0.0000000E+000	-82.6094	0.0000000E+000	0.0000000E+000	0.0000000E+000	-7.39063	0.0000000E+000	0.0000000E+000	0.0000000E+000	7.39063	7.70945	82.6094	-2.80314e-06	-1.56083e-06	1.07964e-09	-1.56191e-06	0.251715	40538.1	28.0405	40566.1
1.46631	28.7753	3.43114	28.9792	-6.7998	16.8326	0.251538	-0.00660767	31634.1	443.468	1	11	0.00486042	0.000167721	0	-7.65499e-06	-0.000116767	1.60587e-06	2.27018	0.00957461	0.0095671	-0.000379268	-6.79681	28.9886	28.7849	3.43077	0.0342648	0.00408571	0.0345076	6.7998	443468	3.71914e+06	3.74549e+06	-83.2002	0.0000000E+000	0.0000000E+000	0.0000000E+000	83.2002	0.0000000E+000	0.0000000E+000	0.0000000E+000	-83.2002	0.0000000E+000	0.0000000E+000	0.0000000E+000	-6.7998	0.0000000E+000	0.0000000E+000	0.0000000E+000	6.7998	8.38651	83.2002	-2.65648e-07	-1.66208e-06	7.71555e-10	-1.66285e-06	0.251655	38067.5	17.6714	38085.2
1.00006	29.4388	3.26285	29.6191	-6.32457	20.008	0.251539	-0.00674812	48774.7	591.898	1	12	0.00486397	0.000164217	0	-7.63464e-06	1.67614e-05	3.98373e-06	-10.8354	0.0242589	0.0238264	0.0045604	-6.32826	29.6433	29.4626	3.26741	0.0335565	0.00371924	0.033762	6.32457	591898	5.34035e+06	5.37305e+06	-83.6754	0.0000000E+000	0.0000000E+000	0.0000000E+000	83.6754	0.0000000E+000	0.0000000E+000	0.0000000E+000	-83.6754	0.0000000E+000	0.0000000E+000	0.0000000E+000	-6.32457	0.0000000E+000	0.0000000E+000	0.0000000E+000	6.32457	9.02242	83.6754	2.03546e-08	-1.69741e-06	-1.13108e-10	-1.6973e-06	0.251522	37275.3	2.48386	37272.8
0.681362	30.0641	3.18142	30.232	-6.04063	23.1202	0.25153	-0.00635025	73421.1	813.075	1	12	0.00485869	0.000160714	0	-8.81266e-06	-0.000383823	4.15637e-06	-91.0813	0.025862	-0.000488055	0.0258573	-6.08946	30.2342	30.0636	3.20728	0.0328939	0.00348088	0.0330776	6.04063	813075	7.68347e+06	7.72638e+06	-83.9594	0.0000000E+000	0.0000000E+000	0.0000000E+000	83.9594	0.0000000E+000	0.0000000E+000	0.0000000E+000	-83.9594	0.0000000E+000	0.0000000E+000	0.0000000E+000	-6.04063	0.0000000E+000	0.0000000E+000	0.0000000E+000	6.04063	9.44989	83.9594	-1.17802e-06	-1.59728e-06	2.43737e-09	-1.59972e-06	0.251914	39609.4	60.4421	39669.9
0.464091	30.7023	3.27294	30.8763	-6.0849	27.6768	0.251535	-0.00581934	104780	1177.35	1	12	0.00486105	0.000157437	0	-1.75409e-05	-0.000193068	2.2784e-06	103.296	0.0144719	-0.00332828	-0.014084	-6.05956	30.8715	30.699	3.25886	0.0322049	0.00343312	0.0323874	6.0849	1.17735e+06	1.10443e+07	1.11069e+07	-83.9151	0.0000000E+000	0.0000000E+000	0.0000000E+000	83.9151	0.0000000E+000	0.0000000E+000	0.0000000E+000	-83.9151	0.0000000E+000	0.0000000E+000	0.0000000E+000	-6.0849	0.0000000E+000	0.0000000E+000	0.0000000E+000	6.0849	9.38063	83.9151	-8.72819e-06	-1.46377e-06	1.12353e-09	-1.46489e-06	0.251728	43223.9	33.177	43257.1
0.316193	31.2609	3.50537	31.4568	-6.39801	34.3529	0.251543	-0.00565385	143593	1783.08	1	12	0.00486311	0.000154596	0	-3.87976e-05	-0.000135842	2.93518e-06	5.22691	0.0189861	0.0189071	-0.00172964	-6.39104	31.4754	31.2798	3.50364	0.0315916	0.00354245	0.0317896	6.39801	1.78309e+06	1.59016e+07	1.60012e+07	-83.602	0.0000000E+000	0.0000000E+000	0.0000000E+000	83.602	0.0000000E+000	0.0000000E+000	0.0000000E+000	-83.602	0.0000000E+000	0.0000000E+000	0.0000000E+000	-6.39801	0.0000000E+000	0.0000000E+000	0.0000000E+000	6.39801	8.918	83.602	-2.12567e-05	-1.42219e-06	7.6803e-10	-1.42295e-06	0.251679	44490.5	24.0265	44514.6
0.215268	31.9061	3.84898	32.1374	-6.87862	44.1463	0.25154	-0.00599036	192086	2755.27	1	12	0.00486019	0.000151232	0	-7.52517e-05	-7.86157e-05	8.1869e-07	-46.4359	0.00541349	0.00373079	0.00392263	-6.88477	32.1416	31.9098	3.85291	0.0308924	0.0037267	0.0311164	6.87862	2.75528e+06	2.28398e+07	2.30054e+07	-83.1214	0.0000000E+000	0.0000000E+000	0.0000000E+000	83.1214	0.0000000E+000	0.0000000E+000	0.0000000E+000	-83.1214	0.0000000E+000	0.0000000E+000	0.0000000E+000	-6.87862	0.0000000E+000	0.0000000E+000	0.0000000E+000	6.87862	8.28949	83.1214	-3.64541e-05	-1.50681e-06	4.70937e-10	-1.50729e-06	0.251618	41990.7	13.1237	42003.9
0.146929	32.7457	4.37849	33.0371	-7.61595	58.4846	0.251537	-0.00681372	247394	4345.43	1	12	0.00486058	0.000147125	0	-0.000123555	-0.000173993	3.39186e-06	-24.6408	0.0230543	0.020955	0.009612	-7.62765	33.0592	32.7667	4.3881	0.030002	0.00401161	0.030269	7.61595	4.34542e+06	3.24985e+07	3.27877e+07	-82.3841	0.0000000E+000	0.0000000E+000	0.0000000E+000	82.3841	0.0000000E+000	0.0000000E+000	0.0000000E+000	-82.3841	0.0000000E+000	0.0000000E+000	0.0000000E+000	-7.61595	0.0000000E+000	0.0000000E+000	0.0000000E+000	7.61595	7.47877	82.3841	-4.83035e-05	-1.7139e-06	1.18554e-09	-1.71509e-06	0.251711	36916.3	25.5357	36941.8
0.0999041	33.7332	5.1849	34.1293	-8.73816	79.5609	0.251541	-0.007555	307253	7091.23	1	12	0.00486171	0.00014245	0	-0.00017431	-0.000383823	2.25516e-06	-30.8624	0.0158313	0.0135896	0.0081211	-8.74816	34.144	33.7468	5.19302	0.0289602	0.00445128	0.0293003	8.73816	7.09123e+06	4.61359e+07	4.66777e+07	-81.2618	0.0000000E+000	0.0000000E+000	0.0000000E+000	81.2618	0.0000000E+000	0.0000000E+000	0.0000000E+000	-81.2618	0.0000000E+000	0.0000000E+000	0.0000000E+000	-8.73816	0.0000000E+000	0.0000000E+000	0.0000000E+000	8.73816	6.50605	81.2618	-5.0755e-05	-1.9004e-06	2.89978e-09	-1.9033e-06	0.251925	33294.7	50.8038	33345.5
0.0680626	34.8362	6.15839	35.3764	-10.0252	110.488	0.25155	-0.00836392	379703	11506.7	1	12	0.00486121	0.000137414	0	-0.000222665	-0.000421973	2.14334e-06	22.5206	0.0155977	0.0144083	-0.00597416	-10.0117	35.3895	34.8506	6.15241	0.0278358	0.00492085	0.0282675	10.0252	1.15067e+07	6.50902e+07	6.60995e+07	-79.9748	0.0000000E+000	0.0000000E+000	0.0000000E+000	79.9748	0.0000000E+000	0.0000000E+000	0.0000000E+000	-79.9748	0.0000000E+000	0.0000000E+000	0.0000000E+000	-10.0252	0.0000000E+000	0.0000000E+000	0.0000000E+000	10.0252	5.65671	79.9748	-4.83547e-05	-2.10394e-06	3.52935e-09	-2.10747e-06	0.251972	30075.6	50.4516	30126
0.0464052	36.0587	7.23119	36.7766	-11.3397	155.84	0.251541	-0.00884009	474289	18336.7	1	12	0.00486097	0.000132175	0	-0.0002584	-7.86157e-05	1.90939e-06	-29.161	0.0144458	0.0126149	0.00703897	-11.3465	36.7904	36.0713	7.23823	0.0266604	0.00534646	0.0271912	11.3397	1.83366e+07	9.14366e+07	9.32571e+07	-78.6603	0.0000000E+000	0.0000000E+000	0.0000000E+000	78.6603	0.0000000E+000	0.0000000E+000	0.0000000E+000	-78.6603	0.0000000E+000	0.0000000E+000	0.0000000E+000	-11.3397	0.0000000E+000	0.0000000E+000	0.0000000E+000	11.3397	4.98655	78.6603	-3.57348e-05	-2.22364e-06	6.9497e-10	-2.22434e-06	0.25162	28454.6	8.8931	28463.5
0.0315922	37.5811	8.51665	38.534	-12.7687	222.444	0.25155	-0.00884594	591523	28894.8	1	12	0.00486138	0.000126158	0	-0.000307939	-0.0004792	3.65614e-06	20.3272	0.0289806	0.0271758	-0.0100673	-12.7452	38.5583	37.6083	8.50658	0.0253093	0.00573561	0.0259511	12.7687	2.88948e+07	1.27503e+08	1.30736e+08	-77.2313	0.0000000E+000	0.0000000E+000	0.0000000E+000	77.2313	0.0000000E+000	0.0000000E+000	0.0000000E+000	-77.2313	0.0000000E+000	0.0000000E+000	0.0000000E+000	-12.7687	0.0000000E+000	0.0000000E+000	0.0000000E+000	12.7687	4.41266	77.2313	-4.95395e-05	-2.22519e-06	4.23897e-09	-2.22943e-06	0.252029	28436.7	54.1717	28490.9
0.0215268	39.4406	10.4315	40.7967	-14.8147	320.183	0.251542	-0.00911343	708755	46337.8	1	12	0.00486202	0.000119177	0	-0.000452809	-0.000250295	2.32595e-06	8.84425	0.0195168	0.0192848	-0.00300069	-14.8037	40.8146	39.4598	10.4285	0.0236969	0.0062675	0.0245118	14.8147	4.63378e+07	1.752e+08	1.81224e+08	-75.1853	0.0000000E+000	0.0000000E+000	0.0000000E+000	75.1853	0.0000000E+000	0.0000000E+000	0.0000000E+000	-75.1853	0.0000000E+000	0.0000000E+000	0.0000000E+000	-14.8147	0.0000000E+000	0.0000000E+000	0.0000000E+000	14.8147	3.78093	75.1853	-0.00014487	-2.29241e-06	2.28104e-09	-2.29469e-06	0.251792	27601.2	27.4644	27628.7
0.0146812	41.5079	13.1507	43.5413	-17.5794	463.486	0.251549	-0.00942302	824349	75197.6	1	12	0.00486126	0.000111647	0	-0.000828406	-0.00026937	1.90179e-06	-27.1741	0.017034	0.0151538	0.00777934	-17.5832	43.5581	41.5231	13.1585	0.0218941	0.00693657	0.0229667	17.5794	7.51976e+07	2.37349e+08	2.48976e+08	-72.4206	0.0000000E+000	0.0000000E+000	0.0000000E+000	72.4206	0.0000000E+000	0.0000000E+000	0.0000000E+000	-72.4206	0.0000000E+000	0.0000000E+000	0.0000000E+000	-17.5794	0.0000000E+000	0.0000000E+000	0.0000000E+000	17.5794	3.15633	72.4206	-0.000375597	-2.37035e-06	2.53828e-09	-2.37289e-06	0.251818	26695.1	28.5864	26723.7
0.0100092	43.8242	16.4177	46.7985	-20.5372	673.668	0.25155	-0.0102739	968525	119198	1	12	0.00486094	0.000103869	0	-0.00161876	-0.0004792	2.17546e-06	4.89279	0.0209441	0.0208678	-0.00178636	-20.5262	46.8174	43.8451	16.4159	0.0200101	0.0074963	0.0213682	20.5372	1.19198e+08	3.18179e+08	3.39774e+08	-69.4628	0.0000000E+000	0.0000000E+000	0.0000000E+000	69.4628	0.0000000E+000	0.0000000E+000	0.0000000E+000	-69.4628	0.0000000E+000	0.0000000E+000	0.0000000E+000	-20.5372	0.0000000E+000	0.0000000E+000	0.0000000E+000	20.5372	2.66933	69.4628	-0.000790349	-2.58439e-06	4.92323e-09	-2.58931e-06	0.252029	24484.4	46.6426	24531.1