File: txt/18351_R257_UA646_SOC00_C06.mpt
EC-Lab ASCII FILE
Nb header lines : 65

Potentio Electrochemical Impedance Spectroscopy

Run on channel : 6 (SN 65795)
User :
CE vs. WE compliance from -10 V to 10 V
Electrode connection : standard
Potential control : Ewe
Ewe ctrl range : min = -10.00 V, max = 10.00 V
Safety Limits :
	Do not start on E overload
Acquisition started on : 10/13/2025 14:40:26.156
Technique started on : 10/13/2025 14:40:28.068
Loaded Setting File :  C:\Users\Celltest\OneDrive - store-dot.com\Documents\EC-Lab\Data\@Biologic Test Protocols\anode half cell EIS SOC00.mps
Saved on :
	File : 18351_R257_UA646_SOC00_C06.mpr
	Directory : C:\Users\Celltest\OneDrive - store-dot.com\Documents\EC-Lab\Data\John\
	Host : 169.254.61.224
Device : VMP-3e (SN .003165)
Address : USB
EC-LAB for windows v11.62 (software)
Internet server v27.00 (firmware)
Command interpretor v12.03 (firmware)
Electrode material :
Initial state :
Electrolyte :
Comments :
Electrode surface area : 0.001 cm²
Characteristic mass : 0.001 g
Equivalent Weight : 0.000 g/eq.
Density : 0.000 g/cm3
Volume (V) : 0.001 cm³
Record Ece
Cycle Definition : Charge/Discharge alternance
Mode                Single sine
E (V)               0.0000
vs.                 Eoc
tE (h:m:s)          0:00:0.0000
record              0
dI                  0.000
unit dI             mA
dt (s)              0.000
fi                  100.000
unit fi             kHz
ff                  10.000
unit ff             mHz
Nd                  6
Points              per decade
spacing             Logarithmic
Va (mV)             5.0
pw                  0.10
Na                  2
corr                0
E range min (V)     -10.000
E range max (V)     10.000
I Range             Auto
Bandwidth           5
nc cycles           0
goto Ns'            0
nr cycles           0
inc. cycle          0

freq/Hz	Re(Z)/Ohm	-Im(Z)/Ohm	|Z|/Ohm	Phase(Z)/deg	time/s	<Ewe>/V	<I>/mA	Cs/µF	Cp/µF	cycle number	I Range	|Ewe|/V	|I|/A	Ns	(Q-Qo)/mA.h	<Ece>/V	|Ece|/V	Phase(Zce)/deg	|Zce|/Ohm	Re(Zce)/Ohm	-Im(Zce)/Ohm	Phase(Zwe-ce)/deg	|Zwe-ce|/Ohm	Re(Zwe-ce)/Ohm	-Im(Zwe-ce)/Ohm	Re(Y)/Ohm-1	Im(Y)/Ohm-1	|Y|/Ohm-1	Phase(Y)/deg	Re(C)/nF	Im(C)/nF	|C|/nF	Phase(C)/deg	Re(M)	Im(M)	|M|	Phase(M)/deg	Re(Permittivity)	Im(Permittivity)	|Permittivity|	Phase(Permittivity)/deg	Re(Resistivity)/Ohm.cm	Im(Resistivity)/Ohm.cm	|Resistivity|/Ohm.cm	Phase(Resistivity)/deg	Re(Conductivity)/mS/cm	Im(Conductivity)/mS/cm	|Conductivity|/mS/cm	Phase(Conductivity)/deg	Tan(Delta)	Loss Angle(Delta)/deg	dq/mA.h	Pwe/W	Pce/W	Pwe-ce/W	<Ewe-Ece>/V	Rwe/Ohm	Rce/Ohm	Rwe-ce/Ohm		Ewe-Ece/V
100004	1.30271	0.491086	1.3922	-20.6551	1.91153	0.253806	0.0298304	3.24076	0.403237	1	9	0.00481349	0.00345748	0	1.29904e-06	0.00017267	4.19192e-05	90.4044	0.0121242	-8.558e-05	-0.0121239	-20.188	1.38789	1.30262	0.478962	0.672118	0.253371	0.718289	20.6551	403.237	1069.67	1143.15	-69.3449	0.0000000E+000	0.0000000E+000	0.0000000E+000	69.3449	0.0000000E+000	0.0000000E+000	0.0000000E+000	-69.3449	0.0000000E+000	0.0000000E+000	0.0000000E+000	-20.6551	0.0000000E+000	0.0000000E+000	0.0000000E+000	20.6551	2.65271	69.3449	1.29904e-06	7.57113e-06	5.1508e-09	7.56598e-06	0.253633	8508.3	5.78837	8502.51
68132	1.4317	0.568854	1.54057	-21.6693	2.41853	0.253777	0.0220824	4.10646	0.559897	1	9	0.00505233	0.00327953	0	2.50876e-05	0.000115375	3.90935e-05	80.7041	0.0119205	0.00192556	-0.0117639	-21.2356	1.53806	1.43362	0.55709	0.603239	0.239684	0.649111	21.6693	559.897	1409.15	1516.31	-68.3307	0.0000000E+000	0.0000000E+000	0.0000000E+000	68.3307	0.0000000E+000	0.0000000E+000	0.0000000E+000	-68.3307	0.0000000E+000	0.0000000E+000	0.0000000E+000	-21.6693	0.0000000E+000	0.0000000E+000	0.0000000E+000	21.6693	2.51681	68.3307	2.37885e-05	5.60401e-06	2.54777e-09	5.60146e-06	0.253661	11492.3	5.22476	11487
46420.4	1.5823	0.6407	1.70709	-22.0439	2.92556	0.253772	0.0236097	5.35127	0.753795	1	9	0.00509653	0.00298551	0	4.18991e-05	0.000287258	1.9472e-05	59.5316	0.00652218	0.00330715	-0.00562152	-21.8275	1.70806	1.5856	0.635078	0.542969	0.219858	0.585792	22.0439	753.795	1861.6	2008.42	-67.9561	0.0000000E+000	0.0000000E+000	0.0000000E+000	67.9561	0.0000000E+000	0.0000000E+000	0.0000000E+000	-67.9561	0.0000000E+000	0.0000000E+000	0.0000000E+000	-22.0439	0.0000000E+000	0.0000000E+000	0.0000000E+000	22.0439	2.46964	67.9561	1.68115e-05	5.99147e-06	6.78206e-09	5.98469e-06	0.253485	10748.7	12.167	10736.5
31621.1	1.73972	0.725752	1.88503	-22.6442	3.43256	0.253774	0.0270739	6.93512	1.028	1	9	0.00498596	0.00264503	0	4.97318e-05	7.71793e-05	1.92543e-05	66.6925	0.00727942	0.00288022	-0.00668538	-22.423	1.88513	1.7426	0.719067	0.489601	0.204245	0.530495	22.6442	1028	2464.25	2670.08	-67.3558	0.0000000E+000	0.0000000E+000	0.0000000E+000	67.3558	0.0000000E+000	0.0000000E+000	0.0000000E+000	-67.3558	0.0000000E+000	0.0000000E+000	0.0000000E+000	-22.6442	0.0000000E+000	0.0000000E+000	0.0000000E+000	22.6442	2.39713	67.3558	7.83272e-06	6.87066e-06	2.08954e-09	6.86857e-06	0.253697	9373.4	2.85069	9370.55
21544.7	1.9253	0.818596	2.0921	-23.0341	3.81554	0.253765	0.0172026	9.02424	1.3816	1	9	0.0052071	0.00248893	0	5.81445e-05	5.80813e-05	5.60035e-06	-3.58122	0.0022501	0.00224571	0.000140549	-23.0136	2.09423	1.92755	0.818736	0.439879	0.187026	0.477988	23.0341	1381.6	3249.47	3530.99	-66.9659	0.0000000E+000	0.0000000E+000	0.0000000E+000	66.9659	0.0000000E+000	0.0000000E+000	0.0000000E+000	-66.9659	0.0000000E+000	0.0000000E+000	0.0000000E+000	-23.0341	0.0000000E+000	0.0000000E+000	0.0000000E+000	23.0341	2.35196	66.9659	8.41271e-06	4.36544e-06	9.99152e-10	4.36444e-06	0.253707	14751.5	3.3763	14748.2
14678.6	2.1167	0.900923	2.30046	-23.0558	4.07456	0.253769	0.0211139	12.035	1.84585	1	9	0.00463043	0.00201283	0	6.1318e-05	0.000249062	4.97928e-06	-21.7922	0.00247377	0.00229698	0.000918367	-23.0545	2.30293	2.119	0.901842	0.399974	0.170239	0.434696	23.0558	1845.85	4336.78	4713.26	-66.9442	0.0000000E+000	0.0000000E+000	0.0000000E+000	66.9442	0.0000000E+000	0.0000000E+000	0.0000000E+000	-66.9442	0.0000000E+000	0.0000000E+000	0.0000000E+000	-23.0558	0.0000000E+000	0.0000000E+000	0.0000000E+000	23.0558	2.34948	66.9442	3.17346e-06	5.35805e-06	5.25866e-09	5.3528e-06	0.25352	12019.1	11.7961	12007.3
10002.2	2.32059	0.991188	2.52341	-23.1286	4.45752	0.253771	0.0253604	16.0534	2.47687	1	9	0.00480955	0.00190597	0	6.22523e-05	0.000134473	2.47638e-06	132.143	0.00129928	-0.000871799	-0.000963375	-23.1163	2.52223	2.31972	0.990225	0.364437	0.155661	0.396289	23.1286	2476.87	5798.91	6305.73	-66.8714	0.0000000E+000	0.0000000E+000	0.0000000E+000	66.8714	0.0000000E+000	0.0000000E+000	0.0000000E+000	-66.8714	0.0000000E+000	0.0000000E+000	0.0000000E+000	-23.1286	0.0000000E+000	0.0000000E+000	0.0000000E+000	23.1286	2.34122	66.8714	9.34315e-07	6.43573e-06	3.4103e-09	6.43232e-06	0.253637	10006.6	5.3025	10001.3
6810.42	2.51998	1.06723	2.73665	-22.9529	4.71654	0.253778	0.0232744	21.8972	3.33014	1	9	0.00449996	0.00164433	0	6.31644e-05	0.000420944	0.000174465	-58.8293	0.106101	0.0549165	0.0907829	-24.2149	2.82331	2.5749	1.15801	0.336479	0.142501	0.36541	22.9529	3330.14	7863.28	8539.38	-67.0471	0.0000000E+000	0.0000000E+000	0.0000000E+000	67.0471	0.0000000E+000	0.0000000E+000	0.0000000E+000	-67.0471	0.0000000E+000	0.0000000E+000	0.0000000E+000	-22.9529	0.0000000E+000	0.0000000E+000	0.0000000E+000	22.9529	2.36124	67.0471	9.12088e-07	5.90653e-06	9.7972e-09	5.89674e-06	0.253358	10903.8	18.0862	10885.7
4646	2.80302	1.26348	3.07463	-24.2638	5.10862	0.253742	-0.00101261	27.1126	4.57852	1	9	0.00500288	0.00162715	0	6.54448e-05	7.71793e-05	7.09965e-06	-45.199	0.00436324	0.00307454	0.00309598	-24.2928	3.0787	2.8061	1.26658	0.296512	0.133655	0.325243	24.2638	4578.52	10157.4	11141.6	-65.7362	0.0000000E+000	0.0000000E+000	0.0000000E+000	65.7362	0.0000000E+000	0.0000000E+000	0.0000000E+000	-65.7362	0.0000000E+000	0.0000000E+000	0.0000000E+000	-24.2638	0.0000000E+000	0.0000000E+000	0.0000000E+000	24.2638	2.21849	65.7362	2.28038e-06	-2.56941e-07	-7.81524e-11	-2.56863e-07	0.253665	250583	76.2184	250506
3163.08	3.09046	1.44891	3.41325	-25.1187	5.48268	0.253544	-0.0261563	34.7271	6.2577	1	9	0.00491905	0.00144116	0	6.21319e-05	0.000134473	8.75441e-06	0.0341236	0.00607455	0.00607455	-3.61782e-06	-25.0755	3.41875	3.09654	1.44891	0.265269	0.124367	0.292976	25.1187	6257.7	13347.4	14741.5	-64.8813	0.0000000E+000	0.0000000E+000	0.0000000E+000	64.8813	0.0000000E+000	0.0000000E+000	0.0000000E+000	-64.8813	0.0000000E+000	0.0000000E+000	0.0000000E+000	-25.1187	0.0000000E+000	0.0000000E+000	0.0000000E+000	25.1187	2.13295	64.8813	-3.31281e-06	-6.63178e-06	-3.51733e-09	-6.62826e-06	0.25341	9693.41	5.14114	9688.27
2155.69	3.40541	1.65498	3.78626	-25.919	6.17879	0.253719	-0.012261	44.611	8.52324	1	10	0.00505335	0.00133466	0	6.67272e-05	0.000420944	5.43265e-06	-5.13843	0.00407045	0.00405409	0.000364559	-25.8972	3.79007	3.40946	1.65534	0.237546	0.115444	0.264113	25.919	8523.24	17538.1	19499.5	-64.081	0.0000000E+000	0.0000000E+000	0.0000000E+000	64.081	0.0000000E+000	0.0000000E+000	0.0000000E+000	-64.081	0.0000000E+000	0.0000000E+000	0.0000000E+000	-25.919	0.0000000E+000	0.0000000E+000	0.0000000E+000	25.919	2.05768	64.081	4.59524e-06	-3.11085e-06	-5.16121e-09	-3.10569e-06	0.253298	20693.1	34.3319	20658.8
1468.59	3.73814	1.91748	4.20123	-27.1555	6.63006	0.253717	-0.0118027	56.5184	11.7732	1	10	0.00497109	0.00118325	0	6.43492e-05	0.00026816	4.49003e-06	-166.502	0.00379467	-0.00368985	0.000885735	-27.1893	4.19836	3.73445	1.91836	0.211788	0.108637	0.238025	27.1555	11773.2	22952	25795.4	-62.8445	0.0000000E+000	0.0000000E+000	0.0000000E+000	62.8445	0.0000000E+000	0.0000000E+000	0.0000000E+000	-62.8445	0.0000000E+000	0.0000000E+000	0.0000000E+000	-27.1555	0.0000000E+000	0.0000000E+000	0.0000000E+000	27.1555	1.94951	62.8445	-2.37794e-06	-2.99453e-06	-3.165e-09	-2.99137e-06	0.253448	21496.5	22.7203	21473.8
1000.32	4.10039	2.25279	4.67849	-28.7848	7.08078	0.253719	-0.0125033	70.6254	16.3754	1	10	0.0049046	0.00104833	0	6.34436e-05	0.000287258	3.30461e-05	-83.1995	0.0315226	0.00373268	0.0313008	-29.0975	4.6969	4.10412	2.28409	0.187333	0.102922	0.213744	28.7848	16375.4	29805.4	34007.6	-61.2152	0.0000000E+000	0.0000000E+000	0.0000000E+000	61.2152	0.0000000E+000	0.0000000E+000	0.0000000E+000	-61.2152	0.0000000E+000	0.0000000E+000	0.0000000E+000	-28.7848	0.0000000E+000	0.0000000E+000	0.0000000E+000	28.7848	1.82014	61.2152	-9.0562e-07	-3.17231e-06	-3.59166e-09	-3.16872e-06	0.253431	20292.2	22.9746	20269.2
681.09	4.52027	2.75375	5.29301	-31.3498	7.53158	0.25372	-0.0126113	84.8576	22.9686	1	10	0.00488392	0.000922711	0	6.12075e-05	0.00017267	7.95628e-06	-36.0508	0.00862272	0.00697143	0.00507448	-31.3575	5.30161	4.52724	2.75883	0.161346	0.0982922	0.188928	31.3498	22968.6	37702.8	44148.2	-58.6502	0.0000000E+000	0.0000000E+000	0.0000000E+000	58.6502	0.0000000E+000	0.0000000E+000	0.0000000E+000	-58.6502	0.0000000E+000	0.0000000E+000	0.0000000E+000	-31.3498	0.0000000E+000	0.0000000E+000	0.0000000E+000	31.3498	1.64149	58.6502	-2.23612e-06	-3.19975e-06	-2.17759e-09	-3.19757e-06	0.253547	20118.4	13.6916	20104.7
463.961	5.03466	3.40044	6.07543	-34.0353	7.98331	0.253716	-0.0121604	100.88	31.6024	1	10	0.0048587	0.00079973	0	6.02702e-05	9.62774e-05	5.89861e-06	-96.5968	0.00737575	-0.000847343	0.00732691	-34.097	6.07883	5.03381	3.40776	0.136401	0.0921258	0.164598	34.0353	31602.4	46790.3	56462.8	-55.9647	0.0000000E+000	0.0000000E+000	0.0000000E+000	55.9647	0.0000000E+000	0.0000000E+000	0.0000000E+000	-55.9647	0.0000000E+000	0.0000000E+000	0.0000000E+000	-34.0353	0.0000000E+000	0.0000000E+000	0.0000000E+000	34.0353	1.48059	55.9647	-9.37303e-07	-3.0853e-06	-1.17077e-09	-3.08413e-06	0.25362	20864.1	7.91727	20856.2
316.316	5.73821	4.27088	7.15314	-36.6598	8.431	0.253708	-0.0133902	117.81	41.9974	1	10	0.00484878	0.000677852	0	5.8163e-05	-9.4703e-05	1.83914e-05	92.8766	0.0271319	-0.00136162	-0.0270977	-36.4918	7.1359	5.73685	4.24378	0.112146	0.0834686	0.139799	36.6598	41997.4	56426.3	70340	-53.3402	0.0000000E+000	0.0000000E+000	0.0000000E+000	53.3402	0.0000000E+000	0.0000000E+000	0.0000000E+000	-53.3402	0.0000000E+000	0.0000000E+000	0.0000000E+000	-36.6598	0.0000000E+000	0.0000000E+000	0.0000000E+000	36.6598	1.34357	53.3401	-2.10719e-06	-3.39719e-06	1.26809e-09	-3.39846e-06	0.253802	18947.3	7.07256	18954.3
215.345	6.72928	5.36484	8.60608	-38.5632	8.88159	0.253703	-0.0130138	137.762	53.5343	1	10	0.00483541	0.000561859	0	5.65748e-05	7.87179e-07	7.95247e-06	-58.7977	0.0141539	0.00733257	0.0121064	-38.5957	8.61936	6.73661	5.37695	0.0908568	0.0724345	0.116197	38.5632	53534.3	67149.6	85877.8	-51.4368	0.0000000E+000	0.0000000E+000	0.0000000E+000	51.4368	0.0000000E+000	0.0000000E+000	0.0000000E+000	-51.4368	0.0000000E+000	0.0000000E+000	0.0000000E+000	-38.5632	0.0000000E+000	0.0000000E+000	0.0000000E+000	38.5632	1.25433	51.4368	-1.58824e-06	-3.30164e-06	-1.02442e-11	-3.30163e-06	0.253702	19494.9	0.0604879	19494.8
146.737	8.18941	6.56451	10.4957	-38.7152	9.32755	0.253687	-0.0156783	165.225	64.634	1	10	0.00482404	0.000459622	0	5.54206e-05	0.000249062	5.26327e-06	17.6839	0.0114513	0.0109102	-0.00347851	-38.6631	10.502	8.20032	6.56103	0.0743416	0.0595911	0.0952773	38.7152	64634	80632.7	103340	-51.2848	0.0000000E+000	0.0000000E+000	0.0000000E+000	51.2848	0.0000000E+000	0.0000000E+000	0.0000000E+000	-51.2848	0.0000000E+000	0.0000000E+000	0.0000000E+000	-38.7152	0.0000000E+000	0.0000000E+000	0.0000000E+000	38.7152	1.24753	51.2848	-1.15412e-06	-3.97739e-06	-3.90486e-09	-3.97348e-06	0.253438	16180.8	15.8858	16164.9
100.032	10.1398	7.74387	12.7587	-37.3693	9.77878	0.25369	-0.0142212	205.458	75.6884	1	10	0.00481383	0.000377299	0	5.33933e-05	5.80813e-05	4.81152e-06	11.7239	0.0127525	0.0124865	-0.00259125	-37.3261	12.767	10.1523	7.74128	0.0622902	0.0475717	0.0783782	37.3693	75688.4	99106.3	124703	-52.6307	0.0000000E+000	0.0000000E+000	0.0000000E+000	52.6307	0.0000000E+000	0.0000000E+000	0.0000000E+000	-52.6307	0.0000000E+000	0.0000000E+000	0.0000000E+000	-37.3693	0.0000000E+000	0.0000000E+000	0.0000000E+000	37.3693	1.3094	52.6307	-2.02737e-06	-3.60778e-06	-8.25987e-10	-3.60695e-06	0.253632	17838.8	4.08413	17834.7
68.104	12.6989	8.60178	15.3379	-34.1124	10.2415	0.253697	-0.0110238	271.681	85.4484	1	10	0.00481718	0.00031407	0	5.18006e-05	5.80813e-05	6.50676e-06	-101.41	0.0207175	-0.00409857	0.0203081	-34.1838	15.3459	12.6948	8.62209	0.0539799	0.0365642	0.0651979	34.1124	85448.4	126148	152364	-55.8876	0.0000000E+000	0.0000000E+000	0.0000000E+000	55.8876	0.0000000E+000	0.0000000E+000	0.0000000E+000	-55.8876	0.0000000E+000	0.0000000E+000	0.0000000E+000	-34.1124	0.0000000E+000	0.0000000E+000	0.0000000E+000	34.1124	1.4763	55.8876	-1.59272e-06	-2.79672e-06	-6.40279e-10	-2.79608e-06	0.253639	23013.5	5.2687	23008.2
46.4415	15.4499	8.87323	17.8167	-29.8697	10.6766	0.25369	-0.0171578	386.217	95.7949	1	10	0.00481089	0.000270022	0	4.99495e-05	0.000210866	8.74859e-06	27.4232	0.0323995	0.0287588	-0.0149219	-29.7821	17.8342	15.4787	8.8583	0.0486713	0.027953	0.0561272	29.8697	95794.9	166796	192348	-60.1303	0.0000000E+000	0.0000000E+000	0.0000000E+000	60.1303	0.0000000E+000	0.0000000E+000	0.0000000E+000	-60.1303	0.0000000E+000	0.0000000E+000	0.0000000E+000	-29.8697	0.0000000E+000	0.0000000E+000	0.0000000E+000	29.8697	1.74118	60.1303	-1.85104e-06	-4.35275e-06	-3.61798e-09	-4.34913e-06	0.253479	14785.7	12.2898	14773.4
31.6296	18.3012	8.6342	20.2357	-25.2571	11.3426	0.253747	-0.00585973	582.781	106.099	1	11	0.00481601	0.000237996	0	4.83016e-05	-0.000362076	6.04321e-06	47.9888	0.0253921	0.0169943	-0.0188667	-25.1883	20.2431	18.3182	8.61533	0.0446934	0.0210855	0.0494176	25.2571	106099	224890	248661	-64.7429	0.0000000E+000	0.0000000E+000	0.0000000E+000	64.7429	0.0000000E+000	0.0000000E+000	0.0000000E+000	-64.7429	0.0000000E+000	0.0000000E+000	0.0000000E+000	-25.2571	0.0000000E+000	0.0000000E+000	0.0000000E+000	25.2571	2.11962	64.7429	-1.64789e-06	-1.48689e-06	2.12166e-09	-1.48901e-06	0.254109	43303.5	61.7905	43365.3
21.5517	20.7059	7.89376	22.1596	-20.8685	11.7635	0.253741	-0.00605932	935.522	118.713	1	11	0.00481216	0.00021716	0	4.77575e-05	0.000497336	9.81109e-06	77.4468	0.0451792	0.00981951	-0.0440991	-20.7529	22.1531	20.7157	7.84967	0.0421669	0.0160754	0.0451273	20.8685	118713	311394	333255	-69.1315	0.0000000E+000	0.0000000E+000	0.0000000E+000	69.1315	0.0000000E+000	0.0000000E+000	0.0000000E+000	-69.1315	0.0000000E+000	0.0000000E+000	0.0000000E+000	-20.8685	0.0000000E+000	0.0000000E+000	0.0000000E+000	20.8685	2.62307	69.1315	-5.44109e-07	-1.5375e-06	-3.01352e-09	-1.53448e-06	0.253244	41876.2	82.0779	41794.1
14.6852	22.6826	6.98593	23.734	-17.1181	12.2242	0.253746	-0.00539079	1551.38	134.408	1	11	0.00481237	0.000202763	0	4.78345e-05	0.000191768	6.3832e-06	-69.0123	0.0314811	0.0112755	0.0293926	-17.1779	23.7534	22.6938	7.01532	0.0402671	0.0124017	0.0421337	17.1181	134408	436408	456637	-72.8819	0.0000000E+000	0.0000000E+000	0.0000000E+000	72.8819	0.0000000E+000	0.0000000E+000	0.0000000E+000	-72.8819	0.0000000E+000	0.0000000E+000	0.0000000E+000	-17.1181	0.0000000E+000	0.0000000E+000	0.0000000E+000	17.1181	3.24689	72.8819	7.69776e-08	-1.36789e-06	-1.03378e-09	-1.36686e-06	0.253554	47070.3	35.5732	47034.7
10.0032	24.2606	6.12534	25.022	-14.1699	12.6748	0.25375	-0.00540982	2597.47	155.657	1	11	0.00481235	0.000192325	0	4.56643e-05	0.000229964	1.28935e-05	-24.2708	0.0670402	0.0611147	0.0275569	-14.1968	25.088	24.3218	6.1529	0.0387489	0.00978335	0.0399649	14.1699	155657	616511	635857	-75.8301	0.0000000E+000	0.0000000E+000	0.0000000E+000	75.8301	0.0000000E+000	0.0000000E+000	0.0000000E+000	-75.8301	0.0000000E+000	0.0000000E+000	0.0000000E+000	-14.1699	0.0000000E+000	0.0000000E+000	0.0000000E+000	14.1699	3.9607	75.8301	-2.17023e-06	-1.37274e-06	-1.24406e-09	-1.3715e-06	0.25352	46905.4	42.5086	46862.9
6.81719	25.5666	5.30627	26.1114	-11.7251	13.0145	0.253742	-0.00600485	4399.72	181.695	1	11	0.00481422	0.000184372	0	4.68067e-05	5.80813e-05	3.33427e-06	5.47056	0.0180845	0.0180021	-0.00172407	-11.7134	26.1287	25.5846	5.30455	0.0374983	0.00778265	0.0382974	11.7251	181695	875439	894095	-78.2749	0.0000000E+000	0.0000000E+000	0.0000000E+000	78.2749	0.0000000E+000	0.0000000E+000	0.0000000E+000	-78.2749	0.0000000E+000	0.0000000E+000	0.0000000E+000	-11.7251	0.0000000E+000	0.0000000E+000	0.0000000E+000	11.7251	4.81818	78.2749	1.14244e-06	-1.52368e-06	-3.48769e-10	-1.52333e-06	0.253684	42256.1	9.6724	42246.5
4.63925	26.6235	4.59778	27.0176	-9.79813	13.4984	0.253739	-0.00511473	7461.46	216.086	1	11	0.00480978	0.000178024	0	4.59791e-05	0.000229964	7.74784e-06	-8.06977	0.0435212	0.0430903	0.00610947	-9.79535	27.0611	26.6666	4.60389	0.036473	0.00629876	0.0370129	9.79813	216086	1.25125e+06	1.26977e+06	-80.2019	0.0000000E+000	0.0000000E+000	0.0000000E+000	80.2019	0.0000000E+000	0.0000000E+000	0.0000000E+000	-80.2019	0.0000000E+000	0.0000000E+000	0.0000000E+000	-9.79813	0.0000000E+000	0.0000000E+000	0.0000000E+000	9.79813	5.79051	80.2019	-8.27562e-07	-1.2978e-06	-1.1762e-09	-1.29663e-06	0.253509	49609.4	44.9611	49564.5
3.1604	27.4936	4.09318	27.7967	-8.46785	14.1915	0.253737	-0.00501381	12303.2	266.781	1	11	0.00481491	0.000173219	0	4.26238e-05	0.00017267	3.77349e-06	13.0498	0.0217845	0.0212219	-0.00491889	-8.45139	27.8169	27.5149	4.08826	0.0355834	0.00529756	0.0359755	8.46785	266781	1.79195e+06	1.8117e+06	-81.5322	0.0000000E+000	0.0000000E+000	0.0000000E+000	81.5322	0.0000000E+000	0.0000000E+000	0.0000000E+000	-81.5322	0.0000000E+000	0.0000000E+000	0.0000000E+000	-8.46785	0.0000000E+000	0.0000000E+000	0.0000000E+000	8.46785	6.71694	81.5322	-3.35531e-06	-1.27219e-06	-8.65733e-10	-1.27133e-06	0.253565	50607.7	34.4388	50573.2
2.15577	28.299	3.70415	28.5404	-7.45723	15.1951	0.25375	-0.00437346	19931	335.727	1	11	0.00481116	0.000168574	0	3.99758e-05	-0.000171095	3.85098e-06	25.7049	0.0228445	0.0205838	-0.00990849	-7.43216	28.5596	28.3196	3.69424	0.0347417	0.00454745	0.035038	7.45723	335727	2.56489e+06	2.58677e+06	-82.5428	0.0000000E+000	0.0000000E+000	0.0000000E+000	82.5428	0.0000000E+000	0.0000000E+000	0.0000000E+000	-82.5428	0.0000000E+000	0.0000000E+000	0.0000000E+000	-7.45723	0.0000000E+000	0.0000000E+000	0.0000000E+000	7.45723	7.63981	82.5428	-2.64804e-06	-1.10977e-06	7.48277e-10	-1.11051e-06	0.253922	58020.6	39.1213	58059.7
1.46631	29.0111	3.48312	29.2195	-6.84626	16.6565	0.253741	-0.00478898	31162	442.811	1	11	0.00481311	0.000164723	0	3.99716e-05	0.000191768	3.04294e-06	56.7264	0.0184731	0.010135	-0.0154446	-6.81383	29.2277	29.0212	3.46768	0.0339797	0.00407967	0.0342238	6.84626	442812	3.6882e+06	3.71469e+06	-83.1537	0.0000000E+000	0.0000000E+000	0.0000000E+000	83.1537	0.0000000E+000	0.0000000E+000	0.0000000E+000	-83.1537	0.0000000E+000	0.0000000E+000	0.0000000E+000	-6.84626	0.0000000E+000	0.0000000E+000	0.0000000E+000	6.84626	8.32905	83.1537	-4.18334e-09	-1.21516e-06	-9.18371e-10	-1.21424e-06	0.253549	52984.4	40.0435	52944.3
1.00006	29.6598	3.26707	29.8392	-6.28588	19.83	0.253745	-0.00494918	48711.8	583.952	1	12	0.00481766	0.000161454	0	4.1227e-05	0.000249062	3.94148e-06	30.5689	0.0244124	0.0210195	-0.0124155	-6.25778	29.8587	29.6808	3.25465	0.0333115	0.00366931	0.033513	6.28588	583952	5.30135e+06	5.33342e+06	-83.7141	0.0000000E+000	0.0000000E+000	0.0000000E+000	83.7141	0.0000000E+000	0.0000000E+000	0.0000000E+000	-83.7141	0.0000000E+000	0.0000000E+000	0.0000000E+000	-6.28588	0.0000000E+000	0.0000000E+000	0.0000000E+000	6.28588	9.07841	83.7141	1.25538e-06	-1.25583e-06	-1.23265e-09	-1.2546e-06	0.253496	51270.1	50.3238	51219.8
0.681362	30.2854	3.21728	30.4558	-6.06389	22.9422	0.25376	-0.00434268	72602.9	810.195	1	12	0.00481295	0.00015803	0	4.24846e-05	9.62774e-05	4.03849e-06	-69.3693	0.0255551	0.00900418	0.0239163	-6.10683	30.4673	30.2944	3.24119	0.0326507	0.00346855	0.0328344	6.06389	810195	7.62667e+06	7.66958e+06	-83.9361	0.0000000E+000	0.0000000E+000	0.0000000E+000	83.9361	0.0000000E+000	0.0000000E+000	0.0000000E+000	-83.9361	0.0000000E+000	0.0000000E+000	0.0000000E+000	-6.06389	0.0000000E+000	0.0000000E+000	0.0000000E+000	6.06389	9.41337	83.9361	1.25765e-06	-1.102e-06	-4.18101e-10	-1.10158e-06	0.253663	58434	22.1701	58411.8
0.464091	30.9302	3.26051	31.1016	-6.01761	27.4988	0.253733	-0.00459148	105180	1155.95	1	12	0.00480861	0.00015461	0	3.68895e-05	0.000382748	1.55529e-06	-18.4666	0.0100594	0.00954145	0.00318633	-6.0216	31.1114	30.9397	3.26369	0.0319755	0.0033707	0.0321527	6.01761	1.15595e+06	1.09657e+07	1.10264e+07	-83.9824	0.0000000E+000	0.0000000E+000	0.0000000E+000	83.9824	0.0000000E+000	0.0000000E+000	0.0000000E+000	-83.9824	0.0000000E+000	0.0000000E+000	0.0000000E+000	-6.01761	0.0000000E+000	0.0000000E+000	0.0000000E+000	6.01761	9.48632	83.9824	-5.5951e-06	-1.16501e-06	-1.75738e-09	-1.16325e-06	0.253351	55261.8	83.3605	55178.4
0.316193	31.4999	3.50573	31.6944	-6.3505	34.1749	0.253741	-0.0041997	143579	1756.63	1	12	0.00481743	0.000151996	0	1.98126e-05	-7.5605e-05	2.17904e-06	62.0335	0.0143361	0.00672302	-0.012662	-6.32641	31.6997	31.5067	3.49307	0.0313577	0.0034899	0.0315513	6.3505	1.75663e+06	1.57838e+07	1.58813e+07	-83.6495	0.0000000E+000	0.0000000E+000	0.0000000E+000	83.6495	0.0000000E+000	0.0000000E+000	0.0000000E+000	-83.6495	0.0000000E+000	0.0000000E+000	0.0000000E+000	-6.3505	0.0000000E+000	0.0000000E+000	0.0000000E+000	6.3505	8.98528	83.6495	-1.7077e-05	-1.06564e-06	3.17518e-10	-1.06595e-06	0.253817	60418.9	18.0025	60436.9
0.215268	32.1172	3.83444	32.3453	-6.80826	43.9683	0.25375	-0.00445758	192814	2709.7	1	12	0.00481061	0.000148727	0	-1.19485e-05	0.000420944	2.75208e-06	-43.5237	0.0185043	0.0134172	0.012743	-6.82785	32.3601	32.1306	3.84719	0.0306984	0.00366505	0.0309164	6.80826	2.7097e+06	2.26964e+07	2.28576e+07	-83.1917	0.0000000E+000	0.0000000E+000	0.0000000E+000	83.1917	0.0000000E+000	0.0000000E+000	0.0000000E+000	-83.1917	0.0000000E+000	0.0000000E+000	0.0000000E+000	-6.80826	0.0000000E+000	0.0000000E+000	0.0000000E+000	6.80826	8.37598	83.1917	-3.17611e-05	-1.13111e-06	-1.87639e-09	-1.12923e-06	0.253329	56925.4	94.4333	56831
0.146929	32.9095	4.33939	33.1944	-7.51159	58.3067	0.253739	-0.00556662	249623	4265.93	1	12	0.0048103	0.000144913	0	-5.74029e-05	0.000210866	2.04228e-06	30.434	0.0140931	0.0121513	-0.00713883	-7.49664	33.2055	32.9217	4.33226	0.0298671	0.00393822	0.0301256	7.51159	4.26593e+06	3.23523e+07	3.26324e+07	-82.4884	0.0000000E+000	0.0000000E+000	0.0000000E+000	82.4884	0.0000000E+000	0.0000000E+000	0.0000000E+000	-82.4884	0.0000000E+000	0.0000000E+000	0.0000000E+000	-7.51159	0.0000000E+000	0.0000000E+000	0.0000000E+000	7.51159	7.58389	82.4884	-4.54544e-05	-1.41247e-06	-1.17381e-09	-1.41129e-06	0.253528	45582.2	37.8803	45544.3
0.0999041	33.8773	5.11464	34.2612	-8.58542	79.3829	0.253737	-0.00672808	311474	6941.4	1	12	0.00481075	0.000140414	0	-0.000107999	5.80813e-05	1.78117e-06	-39.9845	0.0126851	0.00971956	0.00815119	-8.59647	34.272	33.887	5.12279	0.0288605	0.00435722	0.0291875	8.58542	6.9414e+06	4.5977e+07	4.6498e+07	-81.4146	0.0000000E+000	0.0000000E+000	0.0000000E+000	81.4146	0.0000000E+000	0.0000000E+000	0.0000000E+000	-81.4146	0.0000000E+000	0.0000000E+000	0.0000000E+000	-8.58542	0.0000000E+000	0.0000000E+000	0.0000000E+000	8.58542	6.62359	81.4146	-5.05959e-05	-1.70717e-06	-3.90776e-10	-1.70678e-06	0.253679	37713.2	8.63266	37704.5
0.0680626	34.9392	6.115	35.4703	-9.92728	110.31	0.253738	-0.0077637	382397	11365.3	1	12	0.00481173	0.000135655	0	-0.000158936	0.000153571	2.46018e-06	-19.6209	0.0181355	0.0170825	0.00608981	-9.93221	35.4881	34.9563	6.12109	0.0277705	0.00486036	0.0281926	9.92728	1.13653e+07	6.49375e+07	6.59245e+07	-80.0727	0.0000000E+000	0.0000000E+000	0.0000000E+000	80.0727	0.0000000E+000	0.0000000E+000	0.0000000E+000	-80.0727	0.0000000E+000	0.0000000E+000	0.0000000E+000	-9.92728	0.0000000E+000	0.0000000E+000	0.0000000E+000	9.92728	5.71368	80.0727	-5.0937e-05	-1.96995e-06	-1.19228e-09	-1.96876e-06	0.253585	32682.7	19.7807	32662.9
0.0464052	36.11	7.24335	36.8293	-11.3425	155.662	0.253736	-0.00844492	473494	18315	1	12	0.0048147	0.00013073	0	-0.000196635	0.00036365	2.51418e-06	15.5386	0.0192318	0.0185289	-0.00515197	-11.329	36.8464	36.1285	7.23819	0.026622	0.00534015	0.0271523	11.3425	1.8315e+07	9.13049e+07	9.31237e+07	-78.6575	0.0000000E+000	0.0000000E+000	0.0000000E+000	78.6575	0.0000000E+000	0.0000000E+000	0.0000000E+000	-78.6575	0.0000000E+000	0.0000000E+000	0.0000000E+000	-11.3425	0.0000000E+000	0.0000000E+000	0.0000000E+000	11.3425	4.98526	78.6575	-3.76995e-05	-2.14278e-06	-3.07099e-09	-2.13971e-06	0.253372	30046	43.0614	30002.9
0.0315922	37.5421	8.59504	38.5134	-12.8953	222.267	0.253728	-0.00889718	586128	29192	1	12	0.00481746	0.000125085	0	-0.000245499	0.000229964	2.63939e-06	25.5745	0.0211008	0.0190334	-0.00910887	-12.8758	38.5299	37.5611	8.58593	0.0253101	0.00579461	0.025965	12.8953	2.9192e+07	1.27507e+08	1.30806e+08	-77.1047	0.0000000E+000	0.0000000E+000	0.0000000E+000	77.1047	0.0000000E+000	0.0000000E+000	0.0000000E+000	-77.1047	0.0000000E+000	0.0000000E+000	0.0000000E+000	-12.8953	0.0000000E+000	0.0000000E+000	0.0000000E+000	12.8953	4.36788	77.1047	-4.88639e-05	-2.25746e-06	-2.04603e-09	-2.25542e-06	0.253498	28517.8	25.8468	28492
0.0215268	39.4129	10.538	40.7974	-14.9693	320.005	0.253721	-0.00917687	701589	46809.5	1	12	0.00481192	0.000117947	0	-0.000374056	0.000325454	1.92695e-06	-73.883	0.0163375	0.00453529	0.0156954	-14.9889	40.8058	39.4175	10.5537	0.0236796	0.00633131	0.0245114	14.9693	4.68095e+07	1.75071e+08	1.81221e+08	-75.0307	0.0000000E+000	0.0000000E+000	0.0000000E+000	75.0307	0.0000000E+000	0.0000000E+000	0.0000000E+000	-75.0307	0.0000000E+000	0.0000000E+000	0.0000000E+000	-14.9693	0.0000000E+000	0.0000000E+000	0.0000000E+000	14.9693	3.74008	75.0307	-0.000128556	-2.32836e-06	-2.98665e-09	-2.32538e-06	0.253395	27647.8	35.4646	27612.4
0.0146812	41.5566	13.3831	43.6584	-17.8509	463.308	0.253718	-0.00960717	810032	76116.8	1	12	0.00481009	0.000110175	0	-0.000723307	0.000306356	2.18333e-06	9.72881	0.0198168	0.0195318	-0.00334875	-17.8389	43.676	41.5761	13.3798	0.0218024	0.00702136	0.0229051	17.8509	7.61168e+07	2.36354e+08	2.48308e+08	-72.1491	0.0000000E+000	0.0000000E+000	0.0000000E+000	72.1491	0.0000000E+000	0.0000000E+000	0.0000000E+000	-72.1491	0.0000000E+000	0.0000000E+000	0.0000000E+000	-17.8509	0.0000000E+000	0.0000000E+000	0.0000000E+000	17.8509	3.10515	72.1491	-0.000349251	-2.43751e-06	-2.94321e-09	-2.43457e-06	0.253412	26409.2	31.8882	26377.3
0.0100092	43.9459	16.9137	47.0884	-21.0505	673.489	0.253729	-0.0102788	940118	121292	1	12	0.0048129	0.00010221	0	-0.00148311	0.000191768	1.02367e-06	8.60022	0.0100154	0.00990276	-0.00149769	-21.0445	47.0971	43.9558	16.9122	0.0198194	0.00762801	0.0212366	21.0505	1.21292e+08	3.15146e+08	3.37682e+08	-68.9495	0.0000000E+000	0.0000000E+000	0.0000000E+000	68.9495	0.0000000E+000	0.0000000E+000	0.0000000E+000	-68.9495	0.0000000E+000	0.0000000E+000	0.0000000E+000	-21.0505	0.0000000E+000	0.0000000E+000	0.0000000E+000	21.0505	2.59824	68.9495	-0.000759801	-2.60802e-06	-1.97114e-09	-2.60605e-06	0.253537	24684.7	18.6566	24666