File: txt/18355_R257_UA646_SOC00_C01.mpt
EC-Lab ASCII FILE
Nb header lines : 65

Potentio Electrochemical Impedance Spectroscopy

Run on channel : 1 (SN 66354)
User :
CE vs. WE compliance from -10 V to 10 V
Electrode connection : standard
Potential control : Ewe
Ewe ctrl range : min = -10.00 V, max = 10.00 V
Safety Limits :
	Do not start on E overload
Acquisition started on : 10/13/2025 14:53:07.701
Technique started on : 10/13/2025 14:53:09.612
Loaded Setting File :  C:\Users\Celltest\OneDrive - store-dot.com\Documents\EC-Lab\Data\@Biologic Test Protocols\anode half cell EIS SOC00.mps
Saved on :
	File : 18355_R257_UA646_SOC00_C01.mpr
	Directory : C:\Users\Celltest\OneDrive - store-dot.com\Documents\EC-Lab\Data\John\
	Host : 169.254.61.224
Device : VMP-3e (SN .003165)
Address : USB
EC-LAB for windows v11.62 (software)
Internet server v27.00 (firmware)
Command interpretor v12.03 (firmware)
Electrode material :
Initial state :
Electrolyte :
Comments :
Electrode surface area : 0.001 cm²
Characteristic mass : 0.001 g
Equivalent Weight : 0.000 g/eq.
Density : 0.000 g/cm3
Volume (V) : 0.001 cm³
Record Ece
Cycle Definition : Charge/Discharge alternance
Mode                Single sine
E (V)               0.0000
vs.                 Eoc
tE (h:m:s)          0:00:0.0000
record              0
dI                  0.000
unit dI             mA
dt (s)              0.000
fi                  100.000
unit fi             kHz
ff                  10.000
unit ff             mHz
Nd                  6
Points              per decade
spacing             Logarithmic
Va (mV)             5.0
pw                  0.10
Na                  2
corr                0
E range min (V)     -10.000
E range max (V)     10.000
I Range             Auto
Bandwidth           5
nc cycles           0
goto Ns'            0
nr cycles           0
inc. cycle          0

freq/Hz	Re(Z)/Ohm	-Im(Z)/Ohm	|Z|/Ohm	Phase(Z)/deg	time/s	<Ewe>/V	<I>/mA	Cs/µF	Cp/µF	cycle number	I Range	|Ewe|/V	|I|/A	Ns	(Q-Qo)/mA.h	<Ece>/V	|Ece|/V	Phase(Zce)/deg	|Zce|/Ohm	Re(Zce)/Ohm	-Im(Zce)/Ohm	Phase(Zwe-ce)/deg	|Zwe-ce|/Ohm	Re(Zwe-ce)/Ohm	-Im(Zwe-ce)/Ohm	Re(Y)/Ohm-1	Im(Y)/Ohm-1	|Y|/Ohm-1	Phase(Y)/deg	Re(C)/nF	Im(C)/nF	|C|/nF	Phase(C)/deg	Re(M)	Im(M)	|M|	Phase(M)/deg	Re(Permittivity)	Im(Permittivity)	|Permittivity|	Phase(Permittivity)/deg	Re(Resistivity)/Ohm.cm	Im(Resistivity)/Ohm.cm	|Resistivity|/Ohm.cm	Phase(Resistivity)/deg	Re(Conductivity)/mS/cm	Im(Conductivity)/mS/cm	|Conductivity|/mS/cm	Phase(Conductivity)/deg	Tan(Delta)	Loss Angle(Delta)/deg	dq/mA.h	Pwe/W	Pce/W	Pwe-ce/W	<Ewe-Ece>/V	Rwe/Ohm	Rce/Ohm	Rwe-ce/Ohm		Ewe-Ece/V
100004	1.37317	0.483476	1.4558	-19.3965	1.91056	0.254345	0.0761433	3.29176	0.363059	1	9	0.00471738	0.00324041	0	7.13194e-06	-0.000131202	4.1922e-05	92.2751	0.0129373	-0.000513581	-0.0129271	-18.9218	1.45107	1.37266	0.470549	0.647921	0.228125	0.686908	19.3965	363.059	1031.16	1093.21	-70.6035	0.0000000E+000	0.0000000E+000	0.0000000E+000	70.6035	0.0000000E+000	0.0000000E+000	0.0000000E+000	-70.6035	0.0000000E+000	0.0000000E+000	0.0000000E+000	-19.3965	0.0000000E+000	0.0000000E+000	0.0000000E+000	19.3965	2.8402	70.6035	7.13194e-06	1.93666e-05	-9.99012e-09	1.93766e-05	0.254476	3340.34	1.72309	3342.06
68132	1.49713	0.566183	1.60062	-20.7155	2.41752	0.254356	0.0722688	4.12584	0.516239	1	9	0.00503869	0.00314797	0	8.74522e-06	0.000174035	3.51808e-05	88.5897	0.0111757	0.000275049	-0.0111723	-20.3371	1.59696	1.49741	0.55501	0.584368	0.220995	0.62476	20.7155	516.239	1365.07	1459.42	-69.2845	0.0000000E+000	0.0000000E+000	0.0000000E+000	69.2845	0.0000000E+000	0.0000000E+000	0.0000000E+000	-69.2845	0.0000000E+000	0.0000000E+000	0.0000000E+000	-20.7155	0.0000000E+000	0.0000000E+000	0.0000000E+000	20.7155	2.64426	69.2845	1.61328e-06	1.8382e-05	1.25773e-08	1.83694e-05	0.254182	3519.58	2.40817	3517.17
46420.4	1.65171	0.651845	1.77568	-21.5366	2.92453	0.254359	0.0729394	5.25978	0.708805	1	9	0.00508707	0.00286486	0	1.67816e-05	0.000383886	1.80325e-05	34.526	0.00629437	0.00518574	-0.00356753	-21.3685	1.7792	1.65689	0.648277	0.523846	0.206735	0.563165	21.5366	708.805	1796.04	1930.84	-68.4634	0.0000000E+000	0.0000000E+000	0.0000000E+000	68.4634	0.0000000E+000	0.0000000E+000	0.0000000E+000	-68.4634	0.0000000E+000	0.0000000E+000	0.0000000E+000	-21.5366	0.0000000E+000	0.0000000E+000	0.0000000E+000	21.5366	2.5339	68.4634	8.03639e-06	1.85528e-05	2.80004e-08	1.85248e-05	0.253975	3487.26	5.26308	3482
31621.1	1.81333	0.736971	1.95737	-22.1178	3.43356	0.25436	0.0746531	6.82956	0.968164	1	9	0.00503578	0.00257273	0	2.33815e-05	0.000116803	1.21208e-05	47.7874	0.00471127	0.00316542	-0.00348943	-21.9884	1.95899	1.81649	0.733481	0.473295	0.192356	0.510891	22.1178	968.164	2382.18	2571.41	-67.8822	0.0000000E+000	0.0000000E+000	0.0000000E+000	67.8822	0.0000000E+000	0.0000000E+000	0.0000000E+000	-67.8822	0.0000000E+000	0.0000000E+000	0.0000000E+000	-22.1178	0.0000000E+000	0.0000000E+000	0.0000000E+000	22.1178	2.46051	67.8822	6.59988e-06	1.89888e-05	8.71975e-09	1.898e-05	0.254243	3407.22	1.56462	3405.66
21544.7	2.00179	0.819861	2.16318	-22.2722	3.69252	0.254359	0.0746531	9.01031	1.2943	1	9	0.0051526	0.00238196	0	2.98008e-05	5.95716e-05	5.60534e-06	25.83	0.00235325	0.00211814	-0.00102532	-22.2258	2.16475	2.00391	0.818835	0.427793	0.175208	0.462283	22.2722	1294.3	3160.2	3414.98	-67.7278	0.0000000E+000	0.0000000E+000	0.0000000E+000	67.7278	0.0000000E+000	0.0000000E+000	0.0000000E+000	-67.7278	0.0000000E+000	0.0000000E+000	0.0000000E+000	-22.2722	0.0000000E+000	0.0000000E+000	0.0000000E+000	22.2722	2.44162	67.7278	6.41933e-06	1.89887e-05	4.4472e-09	1.89842e-05	0.254299	3407.21	0.797978	3406.41
14678.6	2.19727	0.905151	2.3764	-22.3889	4.07557	0.254358	0.0683199	11.9788	1.73787	1	9	0.00497502	0.00209351	0	4.00796e-05	0.000193113	1.29834e-05	-80.4492	0.00620174	0.00102901	0.00611578	-22.5156	2.37969	2.1983	0.911267	0.389084	0.160281	0.420804	22.3889	1737.87	4218.7	4562.63	-67.6111	0.0000000E+000	0.0000000E+000	0.0000000E+000	67.6111	0.0000000E+000	0.0000000E+000	0.0000000E+000	-67.6111	0.0000000E+000	0.0000000E+000	0.0000000E+000	-22.3889	0.0000000E+000	0.0000000E+000	0.0000000E+000	22.3889	2.42751	67.6111	1.02787e-05	1.73777e-05	1.31934e-08	1.73645e-05	0.254165	3723.05	2.8266	3720.22
10002.2	2.38873	1.00747	2.5925	-22.8681	4.33453	0.254372	0.0746531	15.794	2.38517	1	9	0.004502	0.00173655	0	4.44846e-05	9.77262e-05	8.44959e-06	-34.5151	0.00486573	0.00400925	0.00275704	-22.8897	2.59726	2.39274	1.01023	0.355411	0.149898	0.385729	22.8681	2385.17	5655.29	6137.69	-67.132	0.0000000E+000	0.0000000E+000	0.0000000E+000	67.132	0.0000000E+000	0.0000000E+000	0.0000000E+000	-67.132	0.0000000E+000	0.0000000E+000	0.0000000E+000	-22.8681	0.0000000E+000	0.0000000E+000	0.0000000E+000	22.8681	2.37102	67.132	4.40508e-06	1.89897e-05	7.29556e-09	1.89824e-05	0.254274	3407.39	1.30907	3406.08
6810.42	2.62567	1.12933	2.85824	-23.2731	4.71754	0.25436	0.0669414	20.6931	3.23051	1	9	0.00497527	0.00174068	0	4.96956e-05	4.04943e-05	2.40192e-05	-11.3368	0.0137988	0.0135295	0.00271249	-23.2162	2.87174	2.6392	1.13204	0.321398	0.138237	0.349866	23.2731	3230.51	7510.86	8176.14	-66.7269	0.0000000E+000	0.0000000E+000	0.0000000E+000	66.7269	0.0000000E+000	0.0000000E+000	0.0000000E+000	-66.7269	0.0000000E+000	0.0000000E+000	0.0000000E+000	-23.2731	0.0000000E+000	0.0000000E+000	0.0000000E+000	23.2731	2.32497	66.7269	5.21093e-06	1.70273e-05	2.71074e-09	1.70245e-05	0.25432	3799.75	0.604921	3799.14
4646	2.87086	1.27385	3.14079	-23.9277	4.98563	0.254336	0.0510338	26.8919	4.42367	1	9	0.00484412	0.00154233	0	5.31261e-05	0.000154958	7.26178e-06	-170.368	0.00470832	-0.00464194	0.000787813	-23.9753	3.13686	2.86622	1.27464	0.291028	0.129134	0.318392	23.9277	4423.67	9969.56	10906.9	-66.0723	0.0000000E+000	0.0000000E+000	0.0000000E+000	66.0723	0.0000000E+000	0.0000000E+000	0.0000000E+000	-66.0723	0.0000000E+000	0.0000000E+000	0.0000000E+000	-23.9277	0.0000000E+000	0.0000000E+000	0.0000000E+000	23.9277	2.25368	66.0723	3.43051e-06	1.29797e-05	7.90811e-09	1.29718e-05	0.254181	4983.67	3.03638	4980.63
3163.08	3.16986	1.46913	3.49376	-24.8662	5.35868	0.254146	0.0339714	34.2492	6.05598	1	9	0.00477165	0.00136576	0	6.00934e-05	2.33964e-06	6.54379e-06	-82.5657	0.0047913	0.000619943	0.00475103	-24.9326	3.49632	3.17048	1.47388	0.25969	0.120358	0.286225	24.8662	6055.98	13066.7	14401.8	-65.1338	0.0000000E+000	0.0000000E+000	0.0000000E+000	65.1338	0.0000000E+000	0.0000000E+000	0.0000000E+000	-65.1338	0.0000000E+000	0.0000000E+000	0.0000000E+000	-24.8662	0.0000000E+000	0.0000000E+000	0.0000000E+000	24.8662	2.15765	65.1338	6.96728e-06	8.63368e-06	7.94809e-11	8.6336e-06	0.254143	7481.18	0.0688711	7481.11
2155.69	3.47131	1.68937	3.86056	-25.9506	6.05484	0.254291	-0.00722324	43.7029	8.36866	1	10	0.00489704	0.00126848	0	6.82322e-05	7.86489e-05	6.92442e-06	1.33771	0.00545884	0.00545735	-0.000127439	-25.9135	3.86542	3.47677	1.68924	0.232912	0.11335	0.259029	25.9506	8368.66	17195.9	19124.2	-64.0494	0.0000000E+000	0.0000000E+000	0.0000000E+000	64.0494	0.0000000E+000	0.0000000E+000	0.0000000E+000	-64.0494	0.0000000E+000	0.0000000E+000	0.0000000E+000	-25.9506	0.0000000E+000	0.0000000E+000	0.0000000E+000	25.9506	2.0548	64.0494	8.1388e-06	-1.8368e-06	-5.681e-10	-1.83624e-06	0.254212	35204.5	10.8883	35193.7
1468.59	3.8075	1.95206	4.27874	-27.1437	6.50611	0.254283	-0.00652258	55.517	11.5553	1	10	0.00483375	0.00112971	0	6.67794e-05	-0.000226588	9.76012e-06	51.8499	0.00863946	0.0053368	-0.00679403	-27.0302	4.2804	3.81284	1.94527	0.207974	0.106626	0.233714	27.1437	11555.3	22538.6	25328.2	-62.8563	0.0000000E+000	0.0000000E+000	0.0000000E+000	62.8563	0.0000000E+000	0.0000000E+000	0.0000000E+000	-62.8563	0.0000000E+000	0.0000000E+000	0.0000000E+000	-27.1437	0.0000000E+000	0.0000000E+000	0.0000000E+000	27.1437	1.9505	62.8563	-1.45279e-06	-1.65858e-06	1.47794e-09	-1.66006e-06	0.25451	38985.1	34.739	39019.8
1000.32	4.16497	2.32733	4.7711	-29.1959	6.95686	0.254284	-0.00758476	68.3634	16.2668	1	10	0.0047849	0.00100289	0	6.52316e-05	5.95716e-05	7.23583e-06	15.2901	0.00721496	0.00695957	-0.00190263	-29.1352	4.77625	4.17193	2.32542	0.182968	0.10224	0.209595	29.1959	16266.8	29110.9	33347.5	-60.8041	0.0000000E+000	0.0000000E+000	0.0000000E+000	60.8041	0.0000000E+000	0.0000000E+000	0.0000000E+000	-60.8041	0.0000000E+000	0.0000000E+000	0.0000000E+000	-29.1959	0.0000000E+000	0.0000000E+000	0.0000000E+000	29.1959	1.78959	60.8041	-1.54777e-06	-1.92869e-06	-4.51836e-10	-1.92823e-06	0.254225	33525.7	7.85412	33517.9
681.09	4.57774	2.82901	5.38136	-31.7158	7.40651	0.254277	-0.00815871	82.6001	22.8279	1	10	0.00475116	0.000882892	0	6.43941e-05	0.000135881	8.59971e-06	7.49809	0.00974038	0.00965709	-0.00127105	-31.6503	5.38891	4.5874	2.82774	0.158076	0.0976901	0.185827	31.7158	22827.9	36938.8	43423.4	-58.2842	0.0000000E+000	0.0000000E+000	0.0000000E+000	58.2842	0.0000000E+000	0.0000000E+000	0.0000000E+000	-58.2842	0.0000000E+000	0.0000000E+000	0.0000000E+000	-31.7158	0.0000000E+000	0.0000000E+000	0.0000000E+000	31.7158	1.61814	58.2842	-8.37485e-07	-2.07458e-06	-1.10861e-09	-2.07347e-06	0.254142	31166.4	16.6547	31149.7
463.961	5.09728	3.51195	6.19	-34.5663	7.85832	0.254277	-0.00762576	97.6765	31.4417	1	10	0.00473281	0.000764589	0	6.40064e-05	0.000174035	8.35028e-06	27.1696	0.0109213	0.0097162	-0.00498693	-34.4773	6.19518	5.107	3.50697	0.133032	0.0916573	0.161551	34.5663	31441.7	45634.8	55417.7	-55.4337	0.0000000E+000	0.0000000E+000	0.0000000E+000	55.4337	0.0000000E+000	0.0000000E+000	0.0000000E+000	-55.4337	0.0000000E+000	0.0000000E+000	0.0000000E+000	-34.5663	0.0000000E+000	0.0000000E+000	0.0000000E+000	34.5663	1.45141	55.4337	-3.87746e-07	-1.93905e-06	-1.32715e-09	-1.93773e-06	0.254103	33344.4	22.822	33321.6
316.316	5.77888	4.43934	7.2872	-37.5315	8.30609	0.254289	-0.00709654	113.339	42.0627	1	10	0.00471446	0.000646952	0	6.27163e-05	0.000135881	4.55868e-06	79.4209	0.0070464	0.00129367	-0.00692663	-37.4821	7.284	5.78018	4.43241	0.108824	0.0835983	0.137227	37.5315	42062.7	54754.8	69046	-52.4685	0.0000000E+000	0.0000000E+000	0.0000000E+000	52.4685	0.0000000E+000	0.0000000E+000	0.0000000E+000	-52.4685	0.0000000E+000	0.0000000E+000	0.0000000E+000	-37.5315	0.0000000E+000	0.0000000E+000	0.0000000E+000	37.5315	1.30174	52.4685	-1.29008e-06	-1.80457e-06	-9.64283e-10	-1.8036e-06	0.254153	35832.8	19.1475	35813.6
215.345	6.7641	5.6238	8.79661	-39.7408	8.75657	0.25428	-0.00750651	131.418	53.7138	1	10	0.00469979	0.000534274	0	6.20695e-05	2.33964e-06	4.99094e-06	118.952	0.00934154	-0.00452198	-0.00817411	-39.7186	8.7879	6.75958	5.61563	0.0874138	0.0726775	0.11368	39.7408	53713.8	64605	84017.7	-50.2592	0.0000000E+000	0.0000000E+000	0.0000000E+000	50.2592	0.0000000E+000	0.0000000E+000	0.0000000E+000	-50.2592	0.0000000E+000	0.0000000E+000	0.0000000E+000	-39.7408	0.0000000E+000	0.0000000E+000	0.0000000E+000	39.7408	1.20276	50.2592	-6.46801e-07	-1.90875e-06	-1.75626e-11	-1.90874e-06	0.254278	33874.6	0.311682	33874.3
146.737	8.21104	7.01468	10.7994	-40.5072	9.20249	0.254278	-0.00923208	154.622	65.2362	1	10	0.00469719	0.000434949	0	6.17856e-05	5.95716e-05	6.59031e-06	78.7212	0.0151519	0.00296345	-0.0148593	-40.437	10.792	8.214	6.99982	0.0704043	0.0601463	0.0925978	40.5072	65236.2	76362.2	100434	-49.4928	0.0000000E+000	0.0000000E+000	0.0000000E+000	49.4928	0.0000000E+000	0.0000000E+000	0.0000000E+000	-49.4928	0.0000000E+000	0.0000000E+000	0.0000000E+000	-40.5072	0.0000000E+000	0.0000000E+000	0.0000000E+000	40.5072	1.17055	49.4928	-2.83882e-07	-2.34752e-06	-5.4997e-10	-2.34697e-06	0.254219	27542.9	6.45267	27536.4
100.032	10.2897	8.3761	13.2679	-39.1465	9.65377	0.254273	-0.00824072	189.95	75.7039	1	10	0.00469243	0.000353667	0	6.03861e-05	5.95716e-05	1.44388e-05	-24.67	0.0408259	0.0370996	0.0170404	-39.1025	13.3074	10.3268	8.39314	0.0584519	0.0475814	0.0753698	39.1465	75703.9	92999.4	119916	-50.8535	0.0000000E+000	0.0000000E+000	0.0000000E+000	50.8535	0.0000000E+000	0.0000000E+000	0.0000000E+000	-50.8535	0.0000000E+000	0.0000000E+000	0.0000000E+000	-39.1465	0.0000000E+000	0.0000000E+000	0.0000000E+000	39.1465	1.22846	50.8535	-1.39947e-06	-2.09539e-06	-4.90913e-10	-2.0949e-06	0.254213	30855.6	7.22893	30848.4
68.104	12.8894	9.53783	16.0346	-36.5005	10.1165	0.254284	-0.00538588	245.018	86.6927	1	10	0.00468882	0.000292419	0	5.94532e-05	2.33964e-06	6.01932e-06	-44.1408	0.0205845	0.0147721	0.0143356	-36.5102	16.055	12.9042	9.55216	0.0501325	0.0370967	0.0623653	36.5005	86692.8	117157	145744	-53.4995	0.0000000E+000	0.0000000E+000	0.0000000E+000	53.4995	0.0000000E+000	0.0000000E+000	0.0000000E+000	-53.4995	0.0000000E+000	0.0000000E+000	0.0000000E+000	-36.5005	0.0000000E+000	0.0000000E+000	0.0000000E+000	36.5005	1.3514	53.4995	-9.32925e-07	-1.36954e-06	-1.26011e-11	-1.36953e-06	0.254282	47213	0.434403	47212.6
46.4415	16.0965	10.1565	19.0329	-32.251	10.7927	0.254328	0.000485185	337.418	96.0834	1	11	0.00469214	0.000246528	0	5.87302e-05	0.000383886	2.21214e-05	53.7769	0.0897318	0.0530253	-0.0723886	-31.9816	19.0393	16.1495	10.0841	0.0444346	0.0280372	0.0525406	32.251	96083.4	152277	180056	-57.749	0.0000000E+000	0.0000000E+000	0.0000000E+000	57.749	0.0000000E+000	0.0000000E+000	0.0000000E+000	-57.749	0.0000000E+000	0.0000000E+000	0.0000000E+000	-32.251	0.0000000E+000	0.0000000E+000	0.0000000E+000	32.251	1.58484	57.749	-7.22961e-07	1.23396e-07	1.86256e-10	1.2321e-07	0.253944	524187	791.215	523396
31.6296	19.3075	10.1867	21.83	-27.8164	11.2225	0.254326	0.000101995	493.96	107.561	1	11	0.00469443	0.000215045	0	5.90231e-05	-0.000150279	6.50678e-06	-49.1386	0.0302577	0.0197956	0.0228838	-27.8452	21.8582	19.3273	10.2096	0.0405152	0.0213761	0.0458085	27.8164	107561	203866	230501	-62.1836	0.0000000E+000	0.0000000E+000	0.0000000E+000	62.1836	0.0000000E+000	0.0000000E+000	0.0000000E+000	-62.1836	0.0000000E+000	0.0000000E+000	0.0000000E+000	-27.8164	0.0000000E+000	0.0000000E+000	0.0000000E+000	27.8164	1.89536	62.1836	2.92867e-07	2.594e-08	-1.53277e-11	2.59553e-08	0.254476	2.49352e+06	1473.4	2.49499e+06
21.5517	22.2242	9.5551	24.1912	-23.2649	11.6434	0.254329	0.000262868	772.864	120.575	1	11	0.00468016	0.000193465	0	5.90217e-05	-7.39696e-05	1.07545e-05	99.4507	0.055589	-0.00912767	-0.0548345	-23.1539	24.1612	22.2151	9.50026	0.0379761	0.0163275	0.0413373	23.2649	120575	280446	305267	-66.7351	0.0000000E+000	0.0000000E+000	0.0000000E+000	66.7351	0.0000000E+000	0.0000000E+000	0.0000000E+000	-66.7351	0.0000000E+000	0.0000000E+000	0.0000000E+000	-23.2649	0.0000000E+000	0.0000000E+000	0.0000000E+000	23.2649	2.3259	66.7351	-1.44274e-09	6.68548e-08	-1.94442e-11	6.68742e-08	0.254403	967517	281.395	967798
14.6852	24.7367	8.65321	26.2066	-19.2805	12.1042	0.254327	0.0008006	1252.46	136.552	1	11	0.00468223	0.000178666	0	5.87674e-05	-0.000169356	8.36849e-06	104.949	0.0468386	-0.0120821	-0.0452535	-19.1957	26.1802	24.7246	8.60796	0.0360182	0.0125996	0.0381584	19.2805	136552	390359	413553	-70.7195	0.0000000E+000	0.0000000E+000	0.0000000E+000	70.7195	0.0000000E+000	0.0000000E+000	0.0000000E+000	-70.7195	0.0000000E+000	0.0000000E+000	0.0000000E+000	-19.2805	0.0000000E+000	0.0000000E+000	0.0000000E+000	19.2805	2.85868	70.7195	-2.54259e-07	2.03614e-07	-1.35587e-10	2.0375e-07	0.254496	317670	211.536	317881
10.0032	26.8276	7.73454	27.9203	-16.0826	12.5548	0.254334	0.000535457	2057.06	157.862	1	11	0.00468296	0.000167726	0	5.8096e-05	-0.000131202	2.33847e-06	51.244	0.0139422	0.00872788	-0.0108724	-16.0562	27.9256	26.8363	7.72367	0.0344146	0.00992192	0.0358163	16.0826	157862	547550	569852	-73.9174	0.0000000E+000	0.0000000E+000	0.0000000E+000	73.9174	0.0000000E+000	0.0000000E+000	0.0000000E+000	-73.9174	0.0000000E+000	0.0000000E+000	0.0000000E+000	-16.0826	0.0000000E+000	0.0000000E+000	0.0000000E+000	16.0826	3.46854	73.9174	-6.71424e-07	1.36185e-07	-7.02528e-11	1.36255e-07	0.254465	474985	245.027	475230
6.81719	28.5952	6.77126	29.386	-13.3221	12.8945	0.254345	0.00150293	3447.82	183.065	1	11	0.00468566	0.000159452	0	5.83222e-05	-0.000150279	8.74364e-06	-1.07439	0.0548354	0.0548258	0.0010282	-13.2995	29.4395	28.65	6.77229	0.0331141	0.00784133	0.0340299	13.3221	183065	773086	794465	-76.6779	0.0000000E+000	0.0000000E+000	0.0000000E+000	76.6779	0.0000000E+000	0.0000000E+000	0.0000000E+000	-76.6779	0.0000000E+000	0.0000000E+000	0.0000000E+000	-13.3221	0.0000000E+000	0.0000000E+000	0.0000000E+000	13.3221	4.22302	76.6779	2.26268e-07	3.82263e-07	-2.25858e-10	3.82489e-07	0.254496	169233	99.9907	169333
4.63925	29.9669	5.94641	30.5512	-11.2235	13.3785	0.254333	0.00106686	5769.23	218.56	1	11	0.00469483	0.000153671	0	6.01131e-05	9.77262e-05	1.26826e-05	62.5498	0.0825309	0.0380449	-0.0732389	-11.075	30.5744	30.005	5.87317	0.032106	0.00637086	0.0327319	11.2235	218560	1.10143e+06	1.12291e+06	-78.7765	0.0000000E+000	0.0000000E+000	0.0000000E+000	78.7765	0.0000000E+000	0.0000000E+000	0.0000000E+000	-78.7765	0.0000000E+000	0.0000000E+000	0.0000000E+000	-11.2235	0.0000000E+000	0.0000000E+000	0.0000000E+000	11.2235	5.0395	78.7765	1.79082e-06	2.71337e-07	1.0426e-10	2.71233e-07	0.254235	238394	91.6018	238302
3.1604	31.1423	5.41317	31.6092	-9.86067	14.0715	0.254339	0.00204978	9303.09	272.837	1	11	0.00468386	0.00014818	0	6.01364e-05	0.000135881	7.58688e-06	18.8524	0.0512003	0.0484537	-0.0165444	-9.81614	31.6541	31.1907	5.39662	0.031169	0.00541781	0.0316363	9.86067	272836	1.56964e+06	1.59318e+06	-80.1393	0.0000000E+000	0.0000000E+000	0.0000000E+000	80.1393	0.0000000E+000	0.0000000E+000	0.0000000E+000	-80.1393	0.0000000E+000	0.0000000E+000	0.0000000E+000	-9.86067	0.0000000E+000	0.0000000E+000	0.0000000E+000	9.86067	5.75306	80.1393	2.33425e-08	5.2134e-07	2.78526e-10	5.21062e-07	0.254203	124081	66.2903	124015
2.15577	32.1731	4.9547	32.5523	-8.75486	15.0752	0.254348	0.00254693	14900.5	345.2	1	11	0.00468904	0.000144046	0	5.83072e-05	-0.000188433	4.21369e-06	-21.6195	0.0292523	0.0271945	0.0107777	-8.76631	32.5808	32.2002	4.96548	0.0303618	0.00467577	0.0307198	8.75486	345200	2.24154e+06	2.26796e+06	-81.2451	0.0000000E+000	0.0000000E+000	0.0000000E+000	81.2451	0.0000000E+000	0.0000000E+000	0.0000000E+000	-81.2451	0.0000000E+000	0.0000000E+000	0.0000000E+000	-8.75486	0.0000000E+000	0.0000000E+000	0.0000000E+000	8.75486	6.49344	81.2451	-1.82921e-06	6.47806e-07	-4.79926e-10	6.48286e-07	0.254536	99864.7	73.9846	99938.7
1.46631	33.1895	4.60154	33.507	-7.89342	17.2624	0.254347	0.00139224	23588	444.864	1	12	0.0046897	0.000139962	0	5.69814e-05	0.000135881	2.02644e-06	-25.5704	0.0144785	0.0130604	0.00624921	-7.90093	33.5208	33.2026	4.60779	0.0295618	0.00409857	0.0298445	7.89342	444864	3.20867e+06	3.23936e+06	-82.1066	0.0000000E+000	0.0000000E+000	0.0000000E+000	82.1066	0.0000000E+000	0.0000000E+000	0.0000000E+000	-82.1066	0.0000000E+000	0.0000000E+000	0.0000000E+000	-7.89342	0.0000000E+000	0.0000000E+000	0.0000000E+000	7.89342	7.2127	82.1066	-1.32581e-06	3.54111e-07	1.89178e-10	3.53922e-07	0.254211	182689	97.5989	182592
1.00006	34.1634	4.38926	34.4442	-7.32118	19.3899	0.254353	0.00103065	36257.7	588.779	1	12	0.00468759	0.000136092	0	5.95351e-05	0.000269422	4.21568e-06	-10.314	0.0309766	0.030476	0.00554615	-7.32386	34.4751	34.1938	4.39481	0.0287958	0.00369964	0.0290325	7.32118	588779	4.5827e+06	4.62037e+06	-82.6788	0.0000000E+000	0.0000000E+000	0.0000000E+000	82.6788	0.0000000E+000	0.0000000E+000	0.0000000E+000	-82.6788	0.0000000E+000	0.0000000E+000	0.0000000E+000	-7.32118	0.0000000E+000	0.0000000E+000	0.0000000E+000	7.32118	7.7834	82.6788	2.5537e-06	2.6215e-07	2.7768e-10	2.61872e-07	0.254084	246788	261.409	246527
0.681362	35.0522	4.23921	35.3076	-6.89587	22.502	0.254356	0.000790572	55100.7	794.313	1	12	0.00469021	0.000132839	0	6.56622e-05	0.000174035	5.68189e-07	85.9272	0.00427728	0.000303786	-0.00426648	-6.88894	35.3074	35.0525	4.23495	0.0281177	0.00340055	0.0283225	6.89587	794313	6.56782e+06	6.61568e+06	-83.1041	0.0000000E+000	0.0000000E+000	0.0000000E+000	83.1041	0.0000000E+000	0.0000000E+000	0.0000000E+000	-83.1041	0.0000000E+000	0.0000000E+000	0.0000000E+000	-6.89587	0.0000000E+000	0.0000000E+000	0.0000000E+000	6.89587	8.26855	83.1041	6.12713e-06	2.01086e-07	1.37588e-10	2.00949e-07	0.254182	321736	220.139	321516
0.464091	35.9231	4.14032	36.1609	-6.57462	27.0587	0.254346	0.00053895	82829.3	1085.86	1	12	0.00469024	0.000129705	0	7.42167e-05	0.000250345	4.36692e-06	-1.76502	0.0336682	0.0336522	0.001037	-6.57015	36.1945	35.9567	4.14135	0.0274723	0.00316632	0.0276542	6.57462	1.08586e+06	9.42134e+06	9.48371e+06	-83.4254	0.0000000E+000	0.0000000E+000	0.0000000E+000	83.4254	0.0000000E+000	0.0000000E+000	0.0000000E+000	-83.4254	0.0000000E+000	0.0000000E+000	0.0000000E+000	-6.57462	0.0000000E+000	0.0000000E+000	0.0000000E+000	6.57462	8.67641	83.4254	8.55447e-06	1.3708e-07	1.34923e-10	1.36945e-07	0.254096	471929	464.505	471465
0.316193	36.8128	4.27953	37.0607	-6.63094	33.7321	0.25434	0.000492638	117617	1568.33	1	12	0.0046925	0.000126617	0	8.06249e-05	9.77262e-05	3.57088e-06	3.16044	0.0282023	0.0281594	-0.00155486	-6.62353	37.0885	36.8409	4.27798	0.0268023	0.00311579	0.0269828	6.63094	1.56833e+06	1.34908e+07	1.35817e+07	-83.3691	0.0000000E+000	0.0000000E+000	0.0000000E+000	83.3691	0.0000000E+000	0.0000000E+000	0.0000000E+000	-83.3691	0.0000000E+000	0.0000000E+000	0.0000000E+000	-6.63094	0.0000000E+000	0.0000000E+000	0.0000000E+000	6.63094	8.60206	83.3691	6.40821e-06	1.25298e-07	4.81437e-11	1.25249e-07	0.254242	516282	198.373	516083
0.215268	37.6462	4.65398	37.9327	-7.04739	43.5256	0.254343	0.000439465	158861	2391.31	1	12	0.00469065	0.000123657	0	7.83107e-05	0.000307577	2.66012e-06	-3.99356	0.021512	0.0214598	0.00149819	-7.04566	37.9542	37.6676	4.65548	0.0261633	0.00323441	0.0263624	7.04739	2.39131e+06	1.93434e+07	1.94907e+07	-82.9526	0.0000000E+000	0.0000000E+000	0.0000000E+000	82.9526	0.0000000E+000	0.0000000E+000	0.0000000E+000	-82.9526	0.0000000E+000	0.0000000E+000	0.0000000E+000	-7.04739	0.0000000E+000	0.0000000E+000	0.0000000E+000	7.04739	8.08903	82.9526	-2.3142e-06	1.11775e-07	1.35169e-10	1.1164e-07	0.254036	578757	699.888	578057
0.146929	38.4562	5.19146	38.805	-7.68826	57.8639	0.254343	2.73993e-06	208653	3734.45	1	12	0.00469179	0.000120907	0	6.00031e-05	0.000154958	2.82086e-06	-5.38096	0.0233309	0.0232281	0.00218791	-7.68688	38.8283	38.4794	5.19365	0.0255382	0.00344757	0.0257699	7.68826	3.73445e+06	2.76633e+07	2.79142e+07	-82.3117	0.0000000E+000	0.0000000E+000	0.0000000E+000	82.3117	0.0000000E+000	0.0000000E+000	0.0000000E+000	-82.3117	0.0000000E+000	0.0000000E+000	0.0000000E+000	-7.68826	0.0000000E+000	0.0000000E+000	0.0000000E+000	7.68826	7.40759	82.3117	-1.83076e-05	6.96884e-10	4.24575e-13	6.96459e-10	0.254188	9.28282e+07	56555.4	9.27716e+07
0.0999041	39.469	5.86773	39.9028	-8.45604	78.941	0.254337	-0.00101676	271498	5870.84	1	12	0.00469058	0.00011755	0	2.17314e-05	0.000250345	2.83873e-06	-9.58445	0.0241491	0.023812	0.00402085	-8.45672	39.9269	39.4928	5.87175	0.0247885	0.00368522	0.0250609	8.45604	5.87084e+06	3.949e+07	3.9924e+07	-81.544	0.0000000E+000	0.0000000E+000	0.0000000E+000	81.544	0.0000000E+000	0.0000000E+000	0.0000000E+000	-81.544	0.0000000E+000	0.0000000E+000	0.0000000E+000	-8.45604	0.0000000E+000	0.0000000E+000	0.0000000E+000	8.45604	6.72646	81.544	-3.82718e-05	-2.586e-07	-2.5454e-10	-2.58345e-07	0.254087	250145	246.218	249899
0.0680626	40.7545	6.78128	41.3149	-9.44707	109.868	0.254343	-0.00222846	344826	9289.88	1	12	0.00469044	0.000113529	0	-3.23265e-05	0.000231267	3.64353e-06	9.15693	0.0320933	0.0316844	-0.00510731	-9.43288	41.3453	40.7862	6.77617	0.0238761	0.00397282	0.0242044	9.44707	9.28988e+06	5.58309e+07	5.65985e+07	-80.5529	0.0000000E+000	0.0000000E+000	0.0000000E+000	80.5529	0.0000000E+000	0.0000000E+000	0.0000000E+000	-80.5529	0.0000000E+000	0.0000000E+000	0.0000000E+000	-9.44707	0.0000000E+000	0.0000000E+000	0.0000000E+000	9.44707	6.00986	80.5529	-5.40579e-05	-5.66791e-07	-5.15369e-10	-5.66276e-07	0.254111	114134	103.779	114030
0.0464052	42.357	7.99892	43.1057	-10.6941	155.22	0.254342	-0.00374862	428768	14764.4	1	12	0.00468922	0.000108784	0	-9.26314e-05	0.000288499	2.00642e-06	1.31801	0.018444	0.0184391	-0.000424241	-10.689	43.1237	42.3755	7.9985	0.0227959	0.00430489	0.0231988	10.6941	1.47644e+07	7.81826e+07	7.95644e+07	-79.3059	0.0000000E+000	0.0000000E+000	0.0000000E+000	79.3059	0.0000000E+000	0.0000000E+000	0.0000000E+000	-79.3059	0.0000000E+000	0.0000000E+000	0.0000000E+000	-10.6941	0.0000000E+000	0.0000000E+000	0.0000000E+000	10.6941	5.29534	79.3059	-6.03048e-05	-9.53429e-07	-1.08147e-09	-9.52348e-07	0.254053	67849.4	76.9615	67772.5
0.0315922	43.9907	9.54494	45.0143	-12.2421	221.824	0.254338	-0.00511497	527797	23730.8	1	12	0.00468953	0.000104179	0	-0.000141855	-0.000321975	2.72273e-06	0.707028	0.0261352	0.0261332	-0.0003225	-12.2346	45.0398	44.0168	9.54462	0.02171	0.00471056	0.0222152	12.2421	2.37308e+07	1.0937e+08	1.11915e+08	-77.7579	0.0000000E+000	0.0000000E+000	0.0000000E+000	77.7579	0.0000000E+000	0.0000000E+000	0.0000000E+000	-77.7579	0.0000000E+000	0.0000000E+000	0.0000000E+000	-12.2421	0.0000000E+000	0.0000000E+000	0.0000000E+000	12.2421	4.6088	77.7579	-4.92233e-05	-1.30093e-06	1.64689e-09	-1.30258e-06	0.25466	49724.2	62.9475	49787.1
0.0215268	45.7626	11.3249	47.1431	-13.8998	319.562	0.254338	-0.00597643	652840	37673.8	1	12	0.00469262	9.954e-05	0	-0.000178693	0.000307577	3.0878e-06	28.0326	0.0310207	0.0273813	-0.0145789	-13.8746	47.1662	45.79	11.3103	0.0205909	0.00509563	0.021212	13.8998	3.76738e+07	1.52235e+08	1.56828e+08	-76.1002	0.0000000E+000	0.0000000E+000	0.0000000E+000	76.1002	0.0000000E+000	0.0000000E+000	0.0000000E+000	-76.1002	0.0000000E+000	0.0000000E+000	0.0000000E+000	-13.8998	0.0000000E+000	0.0000000E+000	0.0000000E+000	13.8998	4.04089	76.1002	-3.68387e-05	-1.52003e-06	-1.83821e-09	-1.51819e-06	0.25403	42556.8	51.4649	42505.3
0.0146812	48.1064	13.6607	50.0084	-15.8529	462.865	0.254332	-0.0064842	793573	59217	1	12	0.00468987	9.37817e-05	0	-0.000251861	0.000154958	3.22387e-06	16.7996	0.0343763	0.0329092	-0.00993564	-15.8316	50.0373	48.1393	13.6508	0.0192361	0.00546244	0.0199966	15.8529	5.9217e+07	2.08534e+08	2.16779e+08	-74.1471	0.0000000E+000	0.0000000E+000	0.0000000E+000	74.1471	0.0000000E+000	0.0000000E+000	0.0000000E+000	-74.1471	0.0000000E+000	0.0000000E+000	0.0000000E+000	-15.8529	0.0000000E+000	0.0000000E+000	0.0000000E+000	15.8529	3.52152	74.1471	-7.31675e-05	-1.64914e-06	-1.00478e-09	-1.64814e-06	0.254177	39223.4	23.8978	39199.5
0.0100092	51.0972	17.0159	53.8559	-18.4183	673.047	0.254332	-0.00679717	934473	93284.6	1	12	0.00468972	8.70789e-05	0	-0.000486902	0.000174035	2.18565e-06	-30.6685	0.0250996	0.021589	0.0128026	-18.424	53.8805	51.1188	17.0287	0.0176169	0.00586662	0.0185681	18.4183	9.32846e+07	2.80125e+08	2.95249e+08	-71.5817	0.0000000E+000	0.0000000E+000	0.0000000E+000	71.5817	0.0000000E+000	0.0000000E+000	0.0000000E+000	-71.5817	0.0000000E+000	0.0000000E+000	0.0000000E+000	-18.4183	0.0000000E+000	0.0000000E+000	0.0000000E+000	18.4183	3.00291	71.5817	-0.000235041	-1.72874e-06	-1.18295e-09	-1.72755e-06	0.254158	37417.3	25.6041	37391.7