File: txt/18350_R257_UA646_SOC00_C05.mpt
EC-Lab ASCII FILE
Nb header lines : 65

Potentio Electrochemical Impedance Spectroscopy

Run on channel : 5 (SN 65912)
User :
CE vs. WE compliance from -10 V to 10 V
Electrode connection : standard
Potential control : Ewe
Ewe ctrl range : min = -10.00 V, max = 10.00 V
Safety Limits :
	Do not start on E overload
Acquisition started on : 10/13/2025 14:40:05.524
Technique started on : 10/13/2025 14:40:07.435
Loaded Setting File :  C:\Users\Celltest\OneDrive - store-dot.com\Documents\EC-Lab\Data\@Biologic Test Protocols\anode half cell EIS SOC00.mps
Saved on :
	File : 18350_R257_UA646_SOC00_C05.mpr
	Directory : C:\Users\Celltest\OneDrive - store-dot.com\Documents\EC-Lab\Data\John\
	Host : 169.254.61.224
Device : VMP-3e (SN .003165)
Address : USB
EC-LAB for windows v11.62 (software)
Internet server v27.00 (firmware)
Command interpretor v12.03 (firmware)
Electrode material :
Initial state :
Electrolyte :
Comments :
Electrode surface area : 0.001 cm²
Characteristic mass : 0.001 g
Equivalent Weight : 0.000 g/eq.
Density : 0.000 g/cm3
Volume (V) : 0.001 cm³
Record Ece
Cycle Definition : Charge/Discharge alternance
Mode                Single sine
E (V)               0.0000
vs.                 Eoc
tE (h:m:s)          0:00:0.0000
record              0
dI                  0.000
unit dI             mA
dt (s)              0.000
fi                  100.000
unit fi             kHz
ff                  10.000
unit ff             mHz
Nd                  6
Points              per decade
spacing             Logarithmic
Va (mV)             5.0
pw                  0.10
Na                  2
corr                0
E range min (V)     -10.000
E range max (V)     10.000
I Range             Auto
Bandwidth           5
nc cycles           0
goto Ns'            0
nr cycles           0
inc. cycle          0

freq/Hz	Re(Z)/Ohm	-Im(Z)/Ohm	|Z|/Ohm	Phase(Z)/deg	time/s	<Ewe>/V	<I>/mA	Cs/µF	Cp/µF	cycle number	I Range	|Ewe|/V	|I|/A	Ns	(Q-Qo)/mA.h	<Ece>/V	|Ece|/V	Phase(Zce)/deg	|Zce|/Ohm	Re(Zce)/Ohm	-Im(Zce)/Ohm	Phase(Zwe-ce)/deg	|Zwe-ce|/Ohm	Re(Zwe-ce)/Ohm	-Im(Zwe-ce)/Ohm	Re(Y)/Ohm-1	Im(Y)/Ohm-1	|Y|/Ohm-1	Phase(Y)/deg	Re(C)/nF	Im(C)/nF	|C|/nF	Phase(C)/deg	Re(M)	Im(M)	|M|	Phase(M)/deg	Re(Permittivity)	Im(Permittivity)	|Permittivity|	Phase(Permittivity)/deg	Re(Resistivity)/Ohm.cm	Im(Resistivity)/Ohm.cm	|Resistivity|/Ohm.cm	Phase(Resistivity)/deg	Re(Conductivity)/mS/cm	Im(Conductivity)/mS/cm	|Conductivity|/mS/cm	Phase(Conductivity)/deg	Tan(Delta)	Loss Angle(Delta)/deg	dq/mA.h	Pwe/W	Pce/W	Pwe-ce/W	<Ewe-Ece>/V	Rwe/Ohm	Rce/Ohm	Rwe-ce/Ohm		Ewe-Ece/V
100004	1.32928	0.49775	1.41941	-20.5285	1.91052	0.25071	-0.0228868	3.19737	0.393186	1	9	0.00464551	0.00327284	0	-2.95931e-06	7.30894e-05	3.67633e-05	100.129	0.0112328	-0.00197545	-0.0110578	-20.1369	1.41372	1.3273	0.486693	0.659778	0.247055	0.704517	20.5285	393.186	1050.03	1121.23	-69.4715	0.0000000E+000	0.0000000E+000	0.0000000E+000	69.4715	0.0000000E+000	0.0000000E+000	0.0000000E+000	-69.4715	0.0000000E+000	0.0000000E+000	0.0000000E+000	-20.5285	0.0000000E+000	0.0000000E+000	0.0000000E+000	20.5285	2.67057	69.4715	-2.95931e-06	-5.73794e-06	-1.67278e-09	-5.73627e-06	0.250637	10954.4	3.19353	10951.2
68132	1.46077	0.573989	1.5695	-21.4516	2.41953	0.250697	-0.0256053	4.06973	0.544316	1	9	0.00505401	0.00322014	0	-1.71091e-05	-0.000289644	2.15691e-05	57.3023	0.00669818	0.0036184	-0.00563674	-21.212	1.57082	1.46439	0.568352	0.59301	0.233014	0.637147	21.4516	544.316	1385.26	1488.36	-68.5484	0.0000000E+000	0.0000000E+000	0.0000000E+000	68.5484	0.0000000E+000	0.0000000E+000	0.0000000E+000	-68.5484	0.0000000E+000	0.0000000E+000	0.0000000E+000	-21.4516	0.0000000E+000	0.0000000E+000	0.0000000E+000	21.4516	2.54495	68.5484	-1.41498e-05	-6.41917e-06	7.4164e-09	-6.42658e-06	0.250987	9790.85	11.3119	9802.16
46420.4	1.61608	0.645821	1.74034	-21.7828	2.92655	0.250685	-0.0357345	5.30884	0.731062	1	9	0.00508499	0.00292184	0	-2.83931e-05	-4.14579e-05	1.36562e-05	40.3699	0.00467384	0.0035609	-0.00302734	-21.6469	1.74253	1.61964	0.642794	0.533572	0.213227	0.5746	21.7828	731.062	1829.38	1970.05	-68.2172	0.0000000E+000	0.0000000E+000	0.0000000E+000	68.2172	0.0000000E+000	0.0000000E+000	0.0000000E+000	-68.2172	0.0000000E+000	0.0000000E+000	0.0000000E+000	-21.7828	0.0000000E+000	0.0000000E+000	0.0000000E+000	21.7828	2.50236	68.2172	-1.1284e-05	-8.95809e-06	1.48148e-09	-8.95957e-06	0.250726	7015.2	1.16016	7016.36
31621.1	1.77399	0.730671	1.91858	-22.3857	3.43352	0.250683	-0.0215461	6.88844	0.999093	1	9	0.0050165	0.0026147	0	-3.09386e-05	-9.87315e-05	1.17259e-05	-8.95207	0.0044846	0.00442997	0.00069784	-22.3547	1.92294	1.77842	0.731369	0.481941	0.198501	0.52122	22.3857	999.093	2425.7	2623.39	-67.6143	0.0000000E+000	0.0000000E+000	0.0000000E+000	67.6143	0.0000000E+000	0.0000000E+000	0.0000000E+000	-67.6143	0.0000000E+000	0.0000000E+000	0.0000000E+000	-22.3857	0.0000000E+000	0.0000000E+000	0.0000000E+000	22.3857	2.4279	67.6143	-2.54552e-06	-5.40126e-06	2.12728e-09	-5.40338e-06	0.250782	11634.7	4.58233	11639.3
21544.7	1.95275	0.812802	2.11515	-22.5988	3.69256	0.250682	-0.0314147	9.08856	1.34209	1	9	0.00499621	0.0023621	0	-3.28797e-05	-9.87315e-05	4.75299e-06	-153.188	0.00201219	-0.00179586	0.000907617	-22.6402	2.11384	1.95095	0.81371	0.436478	0.181678	0.472779	22.5988	1342.09	3224.35	3492.52	-67.4012	0.0000000E+000	0.0000000E+000	0.0000000E+000	67.4012	0.0000000E+000	0.0000000E+000	0.0000000E+000	-67.4012	0.0000000E+000	0.0000000E+000	0.0000000E+000	-22.5988	0.0000000E+000	0.0000000E+000	0.0000000E+000	22.5988	2.40249	67.4012	-1.94107e-06	-7.87509e-06	3.10162e-09	-7.8782e-06	0.250781	7979.77	3.14285	7982.91
14678.6	2.15304	0.911895	2.33819	-22.9545	4.07553	0.250679	-0.0279514	11.8902	1.80851	1	9	0.00501828	0.00214622	0	-3.86137e-05	0.000111272	1.7063e-05	-61.8732	0.00795023	0.00374793	0.00701136	-23.0766	2.34438	2.15679	0.918907	0.393815	0.166796	0.427681	22.9545	1808.51	4270	4637.2	-67.0455	0.0000000E+000	0.0000000E+000	0.0000000E+000	67.0455	0.0000000E+000	0.0000000E+000	0.0000000E+000	-67.0455	0.0000000E+000	0.0000000E+000	0.0000000E+000	-22.9545	0.0000000E+000	0.0000000E+000	0.0000000E+000	22.9545	2.36106	67.0455	-5.73404e-06	-7.00684e-06	-3.1102e-09	-7.00373e-06	0.250568	8968.4	3.9809	8964.42
10002.2	2.3566	0.996747	2.55873	-22.9264	4.33455	0.250675	-0.0288824	15.9639	2.42248	1	9	0.0045473	0.00177717	0	-4.2121e-05	0.000111272	1.02978e-05	49.1792	0.00579452	0.00378785	-0.00438505	-22.803	2.56051	2.36039	0.992362	0.359947	0.152243	0.390819	22.9264	2422.48	5727.46	6218.7	-67.0736	0.0000000E+000	0.0000000E+000	0.0000000E+000	67.0736	0.0000000E+000	0.0000000E+000	0.0000000E+000	-67.0736	0.0000000E+000	0.0000000E+000	0.0000000E+000	-22.9264	0.0000000E+000	0.0000000E+000	0.0000000E+000	22.9264	2.3643	67.0736	-3.50725e-06	-7.2401e-06	-3.2138e-09	-7.23688e-06	0.250564	8679.17	3.85258	8675.31
6810.42	2.58727	1.13285	2.82442	-23.6464	4.71752	0.250677	-0.0319361	20.6288	3.31865	1	9	0.00488097	0.00172813	0	-4.39376e-05	0.000321275	2.657e-05	33.691	0.0153749	0.0127926	-0.00852869	-23.3846	2.83275	2.60007	1.12432	0.324328	0.142009	0.354055	23.6464	3318.65	7579.33	8274.03	-66.3536	0.0000000E+000	0.0000000E+000	0.0000000E+000	66.3536	0.0000000E+000	0.0000000E+000	0.0000000E+000	-66.3536	0.0000000E+000	0.0000000E+000	0.0000000E+000	-23.6464	0.0000000E+000	0.0000000E+000	0.0000000E+000	23.6464	2.28386	66.3536	-1.81659e-06	-8.00563e-06	-1.02603e-08	-7.99537e-06	0.250356	7849.34	10.06	7839.28
4646	2.83566	1.28352	3.11262	-24.3531	4.98462	0.250648	-0.0512635	26.6894	4.53828	1	9	0.00477058	0.00153266	0	-4.79124e-05	0.000149454	7.30715e-06	8.07742	0.00476763	0.00472033	-0.000669904	-24.3061	3.11664	2.84038	1.28285	0.292687	0.13248	0.321273	24.3531	4538.28	10026.4	11005.6	-65.6469	0.0000000E+000	0.0000000E+000	0.0000000E+000	65.6469	0.0000000E+000	0.0000000E+000	0.0000000E+000	-65.6469	0.0000000E+000	0.0000000E+000	0.0000000E+000	-24.3531	0.0000000E+000	0.0000000E+000	0.0000000E+000	24.3531	2.20929	65.6469	-3.97486e-06	-1.28491e-05	-7.66155e-09	-1.28414e-05	0.250498	4889.4	2.91541	4886.48
3163.08	3.11867	1.47499	3.44989	-25.312	5.35863	0.250436	-0.0727136	34.1132	6.23575	1	9	0.00470202	0.00136295	0	-5.44496e-05	0.000225819	7.74264e-06	32.5943	0.00568079	0.0047861	-0.00306017	-25.2321	3.45291	3.12346	1.47193	0.262036	0.123931	0.289865	25.312	6235.75	13184.7	14585	-64.688	0.0000000E+000	0.0000000E+000	0.0000000E+000	64.688	0.0000000E+000	0.0000000E+000	0.0000000E+000	-64.688	0.0000000E+000	0.0000000E+000	0.0000000E+000	-25.312	0.0000000E+000	0.0000000E+000	0.0000000E+000	25.312	2.11437	64.688	-6.53714e-06	-1.82101e-05	-1.64201e-08	-1.81937e-05	0.25021	3444.14	3.1056	3441.03
2155.69	3.41881	1.68499	3.81149	-26.2368	6.05486	0.250605	-0.0171484	43.8163	8.5633	1	10	0.00483808	0.00126934	0	-5.2083e-05	7.30894e-05	6.99538e-06	-64.7897	0.00551104	0.00234738	0.00498611	-26.2884	3.8158	3.42116	1.68998	0.235334	0.115987	0.262364	26.2368	8563.3	17374.8	19370.4	-63.7632	0.0000000E+000	0.0000000E+000	0.0000000E+000	63.7632	0.0000000E+000	0.0000000E+000	0.0000000E+000	-63.7632	0.0000000E+000	0.0000000E+000	0.0000000E+000	-26.2368	0.0000000E+000	0.0000000E+000	0.0000000E+000	26.2368	2.02898	63.7632	2.36652e-06	-4.29748e-06	-1.25337e-09	-4.29623e-06	0.250532	14613.9	4.26216	14609.6
1468.59	3.75847	1.97154	4.24418	-27.6796	6.50603	0.250608	-0.017733	54.9686	11.8614	1	10	0.004786	0.00112766	0	-5.39105e-05	-9.87315e-05	3.12172e-06	58.0279	0.00276831	0.00146584	-0.00234838	-27.6423	4.24439	3.75994	1.96919	0.208652	0.10945	0.235617	27.6796	11861.4	22612.2	25534.4	-62.3204	0.0000000E+000	0.0000000E+000	0.0000000E+000	62.3204	0.0000000E+000	0.0000000E+000	0.0000000E+000	-62.3204	0.0000000E+000	0.0000000E+000	0.0000000E+000	-27.6796	0.0000000E+000	0.0000000E+000	0.0000000E+000	27.6796	1.90637	62.3204	-1.82745e-06	-4.44403e-06	1.75081e-09	-4.44578e-06	0.250707	14132.3	5.56767	14137.9
1000.32	4.1107	2.32765	4.72396	-29.5204	6.95678	0.250606	-0.0174277	68.3539	16.5953	1	10	0.00472436	0.00100008	0	-5.68346e-05	3.4907e-05	8.47761e-06	-37.5118	0.0084769	0.00672411	0.00516179	-29.5346	4.73236	4.11742	2.33281	0.184206	0.104305	0.211687	29.5204	16595.3	29307.9	33680.2	-60.4796	0.0000000E+000	0.0000000E+000	0.0000000E+000	60.4796	0.0000000E+000	0.0000000E+000	0.0000000E+000	-60.4796	0.0000000E+000	0.0000000E+000	0.0000000E+000	-29.5204	0.0000000E+000	0.0000000E+000	0.0000000E+000	29.5204	1.76603	60.4796	-2.92408e-06	-4.36748e-06	-6.08348e-10	-4.36687e-06	0.250571	14379.8	2.00296	14377.8
681.09	4.52826	2.84239	5.34644	-32.1165	7.40655	0.250601	-0.0176809	82.2113	23.2365	1	10	0.00469111	0.000877428	0	-5.86009e-05	-9.87315e-05	6.05636e-06	-16.1862	0.0069024	0.00662879	0.00192411	-32.0963	5.35307	4.53489	2.84432	0.158417	0.0994388	0.187041	32.1165	23236.5	37018.5	43707	-57.8835	0.0000000E+000	0.0000000E+000	0.0000000E+000	57.8835	0.0000000E+000	0.0000000E+000	0.0000000E+000	-57.8835	0.0000000E+000	0.0000000E+000	0.0000000E+000	-32.1165	0.0000000E+000	0.0000000E+000	0.0000000E+000	32.1165	1.59312	57.8835	-1.76631e-06	-4.43084e-06	1.74566e-09	-4.43259e-06	0.250699	14173.5	5.58408	14179.1
463.961	5.04291	3.54917	6.16665	-35.1376	7.85828	0.250606	-0.0168096	96.6524	32.016	1	10	0.00466237	0.000756062	0	-6.01676e-05	9.21806e-05	6.76695e-06	40.6246	0.00895025	0.00679317	-0.00582752	-35.057	6.16885	5.0497	3.54334	0.132612	0.0933315	0.162163	35.1376	32016	45490.6	55627.5	-54.8624	0.0000000E+000	0.0000000E+000	0.0000000E+000	54.8624	0.0000000E+000	0.0000000E+000	0.0000000E+000	-54.8624	0.0000000E+000	0.0000000E+000	0.0000000E+000	-35.1376	0.0000000E+000	0.0000000E+000	0.0000000E+000	35.1376	1.42087	54.8624	-1.56668e-06	-4.21259e-06	-1.54952e-09	-4.21104e-06	0.250514	14908.5	5.4838	14903
316.316	5.74581	4.49613	7.29586	-38.0433	8.30601	0.250602	-0.017316	111.908	42.4996	1	10	0.00464871	0.000637172	0	-6.26859e-05	0.00024491	1.13092e-05	7.86002	0.0177491	0.0175823	-0.00242724	-37.9434	7.30822	5.7634	4.4937	0.107944	0.0844668	0.137064	38.0433	42499.6	54312.3	68964.1	-51.9567	0.0000000E+000	0.0000000E+000	0.0000000E+000	51.9567	0.0000000E+000	0.0000000E+000	0.0000000E+000	-51.9567	0.0000000E+000	0.0000000E+000	0.0000000E+000	-38.0433	0.0000000E+000	0.0000000E+000	0.0000000E+000	38.0433	1.27795	51.9567	-2.51834e-06	-4.33943e-06	-4.24087e-09	-4.33519e-06	0.250357	14472.3	14.1436	14458.1
215.345	6.77251	5.68531	8.84249	-40.0124	8.7556	0.250596	-0.0176213	129.997	53.7392	1	10	0.00463956	0.000524689	0	-6.49138e-05	-4.14579e-05	7.61343e-06	-38.7069	0.0145104	0.0113232	0.00907388	-40.0102	8.857	6.78384	5.69438	0.0866165	0.0727117	0.11309	40.0124	53739.2	64015.8	83581.8	-49.9876	0.0000000E+000	0.0000000E+000	0.0000000E+000	49.9876	0.0000000E+000	0.0000000E+000	0.0000000E+000	-49.9876	0.0000000E+000	0.0000000E+000	0.0000000E+000	-40.0124	0.0000000E+000	0.0000000E+000	0.0000000E+000	40.0124	1.19123	49.9876	-2.22795e-06	-4.41584e-06	7.30543e-10	-4.41657e-06	0.250638	14221.2	2.35271	14223.5
146.737	8.26833	7.03045	10.8532	-40.374	9.20247	0.25059	-0.0193118	154.275	64.7358	1	10	0.00462148	0.000425817	0	-6.65814e-05	0.000187637	9.37858e-06	71.6413	0.0220249	0.00693707	-0.0209039	-40.2662	10.845	8.27527	7.00954	0.0701941	0.059685	0.0921385	40.374	64735.8	76134.2	99935.7	-49.626	0.0000000E+000	0.0000000E+000	0.0000000E+000	49.626	0.0000000E+000	0.0000000E+000	0.0000000E+000	-49.626	0.0000000E+000	0.0000000E+000	0.0000000E+000	-40.374	0.0000000E+000	0.0000000E+000	0.0000000E+000	40.374	1.17608	49.626	-1.66758e-06	-4.83933e-06	-3.62359e-09	-4.83571e-06	0.250402	12976	9.71619	12966.3
100.032	10.4655	8.39486	13.4164	-38.7348	9.65384	0.250604	-0.0176474	189.525	74.2032	1	10	0.00464235	0.00034602	0	-6.89616e-05	0.000149454	7.4613e-06	31.9289	0.0215632	0.0183008	-0.011404	-38.648	13.4236	10.4838	8.38346	0.0581416	0.0466382	0.0745356	38.7348	74203.2	92505.5	118589	-51.2652	0.0000000E+000	0.0000000E+000	0.0000000E+000	51.2652	0.0000000E+000	0.0000000E+000	0.0000000E+000	-51.2652	0.0000000E+000	0.0000000E+000	0.0000000E+000	-38.7348	0.0000000E+000	0.0000000E+000	0.0000000E+000	38.7348	1.24665	51.2652	-2.38022e-06	-4.42251e-06	-2.63748e-09	-4.41987e-06	0.250454	14200.6	8.46891	14192.1
68.104	13.1504	9.46201	16.2007	-35.7358	10.1164	0.250607	-0.0155548	246.981	84.2486	1	10	0.00463304	0.000285978	0	-7.097e-05	5.39982e-05	8.84243e-06	8.13689	0.03092	0.0306087	-0.00437638	-35.6601	16.223	13.181	9.45764	0.0501039	0.0360508	0.0617257	35.7358	84248.6	117090	144249	-54.2642	0.0000000E+000	0.0000000E+000	0.0000000E+000	54.2642	0.0000000E+000	0.0000000E+000	0.0000000E+000	-54.2642	0.0000000E+000	0.0000000E+000	0.0000000E+000	-35.7358	0.0000000E+000	0.0000000E+000	0.0000000E+000	35.7358	1.38981	54.2642	-2.00838e-06	-3.89815e-06	-8.39933e-10	-3.89731e-06	0.250553	16111.2	3.47147	16107.7
46.4415	16.2349	9.92747	19.0296	-31.4453	10.7927	0.250641	-0.0073822	345.203	93.9488	1	11	0.00463564	0.000243601	0	-7.28366e-05	-6.05491e-05	8.09089e-06	-0.187243	0.0332137	0.0332135	0.000108542	-31.3935	19.058	16.2681	9.92758	0.0448321	0.0274143	0.0525496	31.4453	93948.8	153639	180087	-58.5547	0.0000000E+000	0.0000000E+000	0.0000000E+000	58.5547	0.0000000E+000	0.0000000E+000	0.0000000E+000	-58.5547	0.0000000E+000	0.0000000E+000	0.0000000E+000	-31.4453	0.0000000E+000	0.0000000E+000	0.0000000E+000	31.4453	1.63535	58.5547	-1.86653e-06	-1.85029e-06	4.46986e-10	-1.85073e-06	0.250702	33952.1	8.20204	33960.3
31.6296	19.3177	9.69598	21.6145	-26.653	11.2226	0.250639	-0.00763501	518.962	104.431	1	11	0.00462728	0.000214082	0	-7.3736e-05	0.000149454	1.21882e-05	51.0063	0.0569322	0.0358237	-0.0442486	-26.5057	21.6267	19.3536	9.65173	0.041349	0.020754	0.0462652	26.653	104431	208062	232799	-63.347	0.0000000E+000	0.0000000E+000	0.0000000E+000	63.347	0.0000000E+000	0.0000000E+000	0.0000000E+000	-63.347	0.0000000E+000	0.0000000E+000	0.0000000E+000	-26.653	0.0000000E+000	0.0000000E+000	0.0000000E+000	26.653	1.99235	63.347	-8.99443e-07	-1.91363e-06	-1.14108e-09	-1.91249e-06	0.25049	32827.7	19.5749	32808.1
21.5517	22.0753	8.99342	23.8369	-22.1659	11.6434	0.250631	-0.00767	821.133	116.886	1	11	0.0046265	0.00019409	0	-7.47329e-05	-0.00023237	1.12403e-05	16.8001	0.0579132	0.0554414	-0.0167388	-22.0785	23.882	22.1307	8.97668	0.0388513	0.0158279	0.0419517	22.1659	116886	286908	309804	-67.8341	0.0000000E+000	0.0000000E+000	0.0000000E+000	67.8341	0.0000000E+000	0.0000000E+000	0.0000000E+000	-67.8341	0.0000000E+000	0.0000000E+000	0.0000000E+000	-22.1659	0.0000000E+000	0.0000000E+000	0.0000000E+000	22.1659	2.45461	67.8341	-9.96928e-07	-1.92234e-06	1.78228e-09	-1.92412e-06	0.250863	32676.8	30.2959	32707.1
14.6852	24.3962	7.99785	25.6737	-18.1508	12.1041	0.250654	-0.00682447	1355.09	131.504	1	11	0.00462926	0.000180311	0	-7.63502e-05	0.000264002	6.72816e-06	-64.8342	0.0373141	0.0158674	0.0337723	-18.2114	25.6993	24.412	8.03163	0.0370122	0.0121338	0.0389504	18.1508	131504	401131	422137	-71.8492	0.0000000E+000	0.0000000E+000	0.0000000E+000	71.8492	0.0000000E+000	0.0000000E+000	0.0000000E+000	-71.8492	0.0000000E+000	0.0000000E+000	0.0000000E+000	-18.1508	0.0000000E+000	0.0000000E+000	0.0000000E+000	18.1508	3.05034	71.8492	-1.6173e-06	-1.71058e-06	-1.80167e-09	-1.70878e-06	0.25039	36728.7	38.6846	36690.1
10.0032	26.2413	7.0486	27.1715	-15.0352	12.5548	0.250651	-0.00681367	2257.24	151.9	1	11	0.0046264	0.000170267	0	-7.70917e-05	0.000130363	8.19885e-06	-97.4903	0.048153	-0.00627715	0.0477421	-15.1358	27.1778	26.235	7.09635	0.0355434	0.00954722	0.0368033	15.0352	151900	565510	585555	-74.9648	0.0000000E+000	0.0000000E+000	0.0000000E+000	74.9648	0.0000000E+000	0.0000000E+000	0.0000000E+000	-74.9648	0.0000000E+000	0.0000000E+000	0.0000000E+000	-15.0352	0.0000000E+000	0.0000000E+000	0.0000000E+000	15.0352	3.72291	74.9648	-7.4146e-07	-1.70785e-06	-8.88251e-10	-1.70696e-06	0.25052	36786.5	19.1326	36767.3
6.81719	27.7221	6.10967	28.3874	-12.4287	12.8945	0.250647	-0.0073997	3821.17	177.003	1	11	0.00462594	0.000162957	0	-7.85829e-05	0.000168545	1.03545e-05	19.0439	0.0635414	0.0600637	-0.0207331	-12.3619	28.4416	27.7822	6.08894	0.0344013	0.0075817	0.0352269	12.4287	177003	803137	822411	-77.5713	0.0000000E+000	0.0000000E+000	0.0000000E+000	77.5713	0.0000000E+000	0.0000000E+000	0.0000000E+000	-77.5713	0.0000000E+000	0.0000000E+000	0.0000000E+000	-12.4287	0.0000000E+000	0.0000000E+000	0.0000000E+000	12.4287	4.53742	77.5713	-1.49119e-06	-1.85471e-06	-1.24719e-09	-1.85346e-06	0.250478	33872.6	22.7773	33849.8
4.63925	28.9375	5.39707	29.4365	-10.5647	13.3784	0.250656	-0.00699574	6356.44	213.677	1	11	0.00462779	0.000157213	0	-7.7763e-05	-0.000251461	4.99267e-06	-49.8514	0.0317575	0.0204764	0.0242746	-10.6038	29.4611	28.958	5.42134	0.0333956	0.00622854	0.0339714	10.5647	213677	1.14567e+06	1.16543e+06	-79.4353	0.0000000E+000	0.0000000E+000	0.0000000E+000	79.4353	0.0000000E+000	0.0000000E+000	0.0000000E+000	-79.4353	0.0000000E+000	0.0000000E+000	0.0000000E+000	-10.5647	0.0000000E+000	0.0000000E+000	0.0000000E+000	10.5647	5.3617	79.4353	8.19881e-07	-1.75352e-06	1.75916e-09	-1.75528e-06	0.250907	35829.8	35.9449	35865.8
3.1604	30.0088	4.74048	30.381	-8.97679	14.0714	0.250645	-0.00663216	10623.2	258.641	1	11	0.00462089	0.000152098	0	-7.81335e-05	9.21806e-05	6.16644e-06	48.8528	0.0405425	0.0266768	-0.0305294	-8.91212	30.4026	30.0355	4.70995	0.0325122	0.00513593	0.0329153	8.97679	258641	1.63729e+06	1.65759e+06	-81.0232	0.0000000E+000	0.0000000E+000	0.0000000E+000	81.0232	0.0000000E+000	0.0000000E+000	0.0000000E+000	-81.0232	0.0000000E+000	0.0000000E+000	0.0000000E+000	-8.97679	0.0000000E+000	0.0000000E+000	0.0000000E+000	8.97679	6.33034	81.0232	-3.70506e-07	-1.66232e-06	-6.11357e-10	-1.6617e-06	0.250552	37792.3	13.899	37778.4
2.15577	30.9302	4.33004	31.2318	-7.96927	15.075	0.25066	-0.00553242	17050.1	327.73	1	11	0.00462689	0.000148147	0	-8.14523e-05	7.30894e-05	3.58965e-06	12.9609	0.0242304	0.0236131	-0.00543452	-7.95341	31.2544	30.9538	4.32461	0.0317094	0.00443913	0.0320186	7.96927	327730	2.34103e+06	2.36386e+06	-82.0307	0.0000000E+000	0.0000000E+000	0.0000000E+000	82.0307	0.0000000E+000	0.0000000E+000	0.0000000E+000	-82.0307	0.0000000E+000	0.0000000E+000	0.0000000E+000	-7.96927	0.0000000E+000	0.0000000E+000	0.0000000E+000	7.96927	7.14316	82.0307	-3.31881e-06	-1.38676e-06	-4.04362e-10	-1.38635e-06	0.250586	45307.4	13.2111	45294.2
1.46631	31.7492	4.00858	32.0012	-7.19597	16.5364	0.250652	-0.00573226	27077.2	424.866	1	11	0.0046238	0.000144488	0	-8.71561e-05	5.39982e-05	3.66655e-06	58.219	0.0253761	0.013365	-0.0215714	-7.15466	32.0118	31.7626	3.98701	0.0310027	0.00391433	0.0312488	7.19597	424866	3.36506e+06	3.39178e+06	-82.804	0.0000000E+000	0.0000000E+000	0.0000000E+000	82.804	0.0000000E+000	0.0000000E+000	0.0000000E+000	-82.804	0.0000000E+000	0.0000000E+000	0.0000000E+000	-7.19597	0.0000000E+000	0.0000000E+000	0.0000000E+000	7.19597	7.9203	82.804	-5.70383e-06	-1.4368e-06	-3.09532e-10	-1.43649e-06	0.250598	43726.5	9.42005	43717.1
1.00006	32.5536	3.81824	32.7768	-6.68971	19.7098	0.250658	-0.00548024	41680.1	565.618	1	12	0.00462642	0.000141149	0	-9.44385e-05	-2.23667e-05	2.17767e-06	-82.5272	0.0154281	0.00200652	0.0152971	-6.71586	32.7806	32.5556	3.83354	0.0303017	0.00355411	0.0305094	6.68971	565619	4.82235e+06	4.85541e+06	-83.3103	0.0000000E+000	0.0000000E+000	0.0000000E+000	83.3103	0.0000000E+000	0.0000000E+000	0.0000000E+000	-83.3103	0.0000000E+000	0.0000000E+000	0.0000000E+000	-6.68971	0.0000000E+000	0.0000000E+000	0.0000000E+000	6.68971	8.52581	83.3103	-7.28236e-06	-1.37366e-06	1.22575e-10	-1.37379e-06	0.25068	45738.5	4.08133	45742.6
0.681362	33.3519	3.80053	33.5677	-6.50096	22.8219	0.250661	-0.00590179	61460.7	787.849	1	12	0.00463057	0.000137947	0	-9.68793e-05	-6.05491e-05	9.438e-06	-27.4234	0.0684175	0.0607293	0.0315105	-6.54259	33.6316	33.4126	3.83205	0.029599	0.00337288	0.0297905	6.50096	787849	6.91383e+06	6.95857e+06	-83.499	0.0000000E+000	0.0000000E+000	0.0000000E+000	83.499	0.0000000E+000	0.0000000E+000	0.0000000E+000	-83.499	0.0000000E+000	0.0000000E+000	0.0000000E+000	-6.50096	0.0000000E+000	0.0000000E+000	0.0000000E+000	6.50096	8.77558	83.499	-2.4408e-06	-1.47935e-06	3.57348e-10	-1.47971e-06	0.250722	42472.1	10.2594	42482.4
0.464091	34.0296	3.79018	34.2401	-6.35533	27.3786	0.250659	-0.0059936	90481.1	1108.68	1	12	0.00462761	0.000135152	0	-9.6203e-05	-3.27544e-06	3.37336e-06	-43.4758	0.0249598	0.0181124	0.0171735	-6.38052	34.26	34.0478	3.80735	0.0290261	0.00323288	0.0292055	6.35533	1.10868e+06	9.95418e+06	1.00157e+07	-83.6447	0.0000000E+000	0.0000000E+000	0.0000000E+000	83.6447	0.0000000E+000	0.0000000E+000	0.0000000E+000	-83.6447	0.0000000E+000	0.0000000E+000	0.0000000E+000	-6.35533	0.0000000E+000	0.0000000E+000	0.0000000E+000	6.35533	8.97838	83.6447	6.76279e-07	-1.50235e-06	1.96317e-11	-1.50237e-06	0.250663	41821.2	0.546489	41821.7
0.316193	34.765	3.94606	34.9882	-6.47574	34.0521	0.250651	-0.00595758	127557	1622.51	1	12	0.00462466	0.000132178	0	-9.57935e-05	-4.14579e-05	1.89946e-06	2.42306	0.0143705	0.0143577	-0.000607554	-6.4721	35.0024	34.7794	3.94545	0.0283987	0.00322344	0.028581	6.47574	1.62251e+06	1.42944e+07	1.43862e+07	-83.5243	0.0000000E+000	0.0000000E+000	0.0000000E+000	83.5243	0.0000000E+000	0.0000000E+000	0.0000000E+000	-83.5243	0.0000000E+000	0.0000000E+000	0.0000000E+000	-6.47574	0.0000000E+000	0.0000000E+000	0.0000000E+000	6.47574	8.81005	83.5243	4.09479e-07	-1.49327e-06	2.46989e-10	-1.49352e-06	0.250692	42072.6	6.95885	42079.6
0.215268	35.629	4.31674	35.8895	-6.90819	43.8455	0.25066	-0.00540728	171271	2477.78	1	12	0.00462875	0.000128972	0	-0.000102413	-0.000117823	1.56803e-06	27.151	0.0121579	0.0108182	-0.0055481	-6.89732	35.8996	35.6398	4.31119	0.027661	0.00335136	0.0278633	6.90819	2.47778e+06	2.04507e+07	2.06003e+07	-83.0918	0.0000000E+000	0.0000000E+000	0.0000000E+000	83.0918	0.0000000E+000	0.0000000E+000	0.0000000E+000	-83.0918	0.0000000E+000	0.0000000E+000	0.0000000E+000	-6.90819	0.0000000E+000	0.0000000E+000	0.0000000E+000	6.90819	8.25367	83.0918	-6.6192e-06	-1.35539e-06	6.371e-10	-1.35603e-06	0.250778	46356	21.7897	46377.8
0.146929	36.4894	4.95891	36.8249	-7.73908	58.1838	0.250656	-0.00544477	218437	3961.11	1	12	0.00462679	0.000125643	0	-0.000128884	1.58158e-05	2.70914e-06	12.3275	0.0215621	0.021065	-0.0046035	-7.72757	36.8451	36.5105	4.95431	0.0269082	0.00365683	0.0271556	7.73908	3.96112e+06	2.91473e+07	2.94152e+07	-82.2609	0.0000000E+000	0.0000000E+000	0.0000000E+000	82.2609	0.0000000E+000	0.0000000E+000	0.0000000E+000	-82.2609	0.0000000E+000	0.0000000E+000	0.0000000E+000	-7.73908	0.0000000E+000	0.0000000E+000	0.0000000E+000	7.73908	7.35836	82.2609	-2.64711e-05	-1.36476e-06	-8.61133e-11	-1.36468e-06	0.25064	46036	2.90476	46033.1
0.0999041	37.4622	5.76522	37.9033	-8.74885	79.2599	0.250655	-0.00572891	276326	6392.92	1	12	0.00462514	0.000122025	0	-0.000188899	1.58158e-05	1.24055e-06	25.8741	0.0101663	0.00914722	-0.00443654	-8.74012	37.9116	37.4714	5.76078	0.026076	0.00401294	0.0263829	8.74885	6.39292e+06	4.1541e+07	4.20301e+07	-81.2512	0.0000000E+000	0.0000000E+000	0.0000000E+000	81.2512	0.0000000E+000	0.0000000E+000	0.0000000E+000	-81.2512	0.0000000E+000	0.0000000E+000	0.0000000E+000	-8.74885	0.0000000E+000	0.0000000E+000	0.0000000E+000	8.74885	6.49797	81.2512	-6.00149e-05	-1.43598e-06	-9.06072e-11	-1.43589e-06	0.250639	43752.6	2.7607	43749.8
0.0680626	38.6636	6.6651	39.2339	-9.78091	110.187	0.250657	-0.00626486	350837	10125	1	12	0.00462719	0.000117939	0	-0.000289578	9.21806e-05	1.23956e-06	70.4535	0.0105102	0.00351641	-0.00990448	-9.76578	39.2357	38.6671	6.6552	0.0251177	0.00432996	0.0254882	9.78091	1.0125e+07	5.87342e+07	5.96005e+07	-80.2191	0.0000000E+000	0.0000000E+000	0.0000000E+000	80.2191	0.0000000E+000	0.0000000E+000	0.0000000E+000	-80.2191	0.0000000E+000	0.0000000E+000	0.0000000E+000	-9.78091	0.0000000E+000	0.0000000E+000	0.0000000E+000	9.78091	5.80091	80.2191	-0.000100679	-1.57033e-06	-5.77499e-10	-1.56975e-06	0.250565	40010	14.7139	39995.3
0.0464052	40.196	7.67434	40.9221	-10.809	155.539	0.250649	-0.00780006	446902	15717.4	1	12	0.00462644	0.000113055	0	-0.000442446	0.000206728	2.16496e-06	-23.8626	0.0191496	0.0175127	0.00774687	-10.8151	40.9407	40.2135	7.68209	0.0240031	0.00458275	0.0244367	10.809	1.57174e+07	8.23231e+07	8.381e+07	-79.191	0.0000000E+000	0.0000000E+000	0.0000000E+000	79.191	0.0000000E+000	0.0000000E+000	0.0000000E+000	-79.191	0.0000000E+000	0.0000000E+000	0.0000000E+000	-10.809	0.0000000E+000	0.0000000E+000	0.0000000E+000	10.809	5.23771	79.191	-0.000152868	-1.95508e-06	-1.61249e-09	-1.95346e-06	0.250442	32134.2	26.5034	32107.7
0.0315922	41.9376	9.11611	42.917	-12.2638	222.143	0.250653	-0.0090407	552625	24933.9	1	12	0.00462346	0.00010773	0	-0.000633163	-2.23667e-05	2.56779e-06	4.87166	0.0238354	0.0237493	-0.0020242	-12.2544	42.9398	41.9614	9.11408	0.0227691	0.00494938	0.0233008	12.2638	2.49339e+07	1.14706e+08	1.17385e+08	-77.7362	0.0000000E+000	0.0000000E+000	0.0000000E+000	77.7362	0.0000000E+000	0.0000000E+000	0.0000000E+000	-77.7362	0.0000000E+000	0.0000000E+000	0.0000000E+000	-12.2638	0.0000000E+000	0.0000000E+000	0.0000000E+000	12.2638	4.60039	77.7362	-0.000190717	-2.26608e-06	2.0221e-10	-2.26628e-06	0.250676	27725	2.474	27727.5
0.0215268	43.7813	11.0244	45.148	-14.1336	319.882	0.250643	-0.0103397	670633	39987.2	1	12	0.00462631	0.00010247	0	-0.000852855	-0.000156005	2.37506e-06	44.6279	0.0231781	0.0164955	-0.0162826	-14.1085	45.16	43.7978	11.0082	0.0214789	0.00540854	0.0221494	14.1336	3.99872e+07	1.58801e+08	1.63758e+08	-75.8664	0.0000000E+000	0.0000000E+000	0.0000000E+000	75.8664	0.0000000E+000	0.0000000E+000	0.0000000E+000	-75.8664	0.0000000E+000	0.0000000E+000	0.0000000E+000	-14.1336	0.0000000E+000	0.0000000E+000	0.0000000E+000	14.1336	3.9713	75.8664	-0.000219692	-2.59158e-06	1.61305e-09	-2.59319e-06	0.250799	24240.7	15.0879	24255.8
0.0146812	45.8957	13.3475	47.7971	-16.2156	463.183	0.250646	-0.0109829	812194	63336.7	1	12	0.00462607	9.67854e-05	0	-0.00111424	-4.14579e-05	1.6677e-06	15.707	0.0172309	0.0165875	-0.00466471	-16.2047	47.8118	45.9122	13.3428	0.0200894	0.00584246	0.0209218	16.2156	6.33366e+07	2.17785e+08	2.26807e+08	-73.7844	0.0000000E+000	0.0000000E+000	0.0000000E+000	73.7844	0.0000000E+000	0.0000000E+000	0.0000000E+000	-73.7844	0.0000000E+000	0.0000000E+000	0.0000000E+000	-16.2156	0.0000000E+000	0.0000000E+000	0.0000000E+000	16.2156	3.43852	73.7844	-0.000261381	-2.75282e-06	4.55328e-10	-2.75328e-06	0.250688	22821.5	3.77476	22825.2
0.0100092	48.7598	16.2461	51.3951	-18.4274	673.365	0.250644	-0.0113375	978750	97797.9	1	12	0.00462383	8.99664e-05	0	-0.00151149	3.4907e-05	2.75574e-06	10.5415	0.0306308	0.0301138	-0.00560383	-18.4109	51.4219	48.7899	16.2405	0.0184595	0.00615046	0.0194571	18.4274	9.77979e+07	2.93522e+08	3.09386e+08	-71.5726	0.0000000E+000	0.0000000E+000	0.0000000E+000	71.5726	0.0000000E+000	0.0000000E+000	0.0000000E+000	-71.5726	0.0000000E+000	0.0000000E+000	0.0000000E+000	-18.4274	0.0000000E+000	0.0000000E+000	0.0000000E+000	18.4274	3.00131	71.5726	-0.000397253	-2.84166e-06	-3.95756e-10	-2.84127e-06	0.250609	22107.6	3.07891	22104.5