File: txt/18394_R277_UA689_SOC00_C04.mpt
EC-Lab ASCII FILE
Nb header lines : 65

Potentio Electrochemical Impedance Spectroscopy

Run on channel : 4 (SN 66756)
User :
CE vs. WE compliance from -10 V to 10 V
Electrode connection : standard
Potential control : Ewe
Ewe ctrl range : min = -10.00 V, max = 10.00 V
Safety Limits :
	Do not start on E overload
Acquisition started on : 10/13/2025 15:09:07.772
Technique started on : 10/13/2025 15:09:09.498
Loaded Setting File :  C:\Users\Celltest\OneDrive - store-dot.com\Documents\EC-Lab\Data\@Biologic Test Protocols\anode half cell EIS SOC00.mps
Saved on :
	File : 18394_R277_UA689_SOC00_C04.mpr
	Directory : C:\Users\Celltest\OneDrive - store-dot.com\Documents\EC-Lab\Data\Gyutae\
	Host : 169.254.61.224
Device : VMP-3e (SN .003165)
Address : USB
EC-LAB for windows v11.62 (software)
Internet server v27.00 (firmware)
Command interpretor v12.03 (firmware)
Electrode material :
Initial state :
Electrolyte :
Comments :
Electrode surface area : 0.001 cm²
Characteristic mass : 0.001 g
Equivalent Weight : 0.000 g/eq.
Density : 0.000 g/cm3
Volume (V) : 0.001 cm³
Record Ece
Cycle Definition : Charge/Discharge alternance
Mode                Single sine
E (V)               0.0000
vs.                 Eoc
tE (h:m:s)          0:00:0.0000
record              0
dI                  0.000
unit dI             mA
dt (s)              0.000
fi                  100.000
unit fi             kHz
ff                  10.000
unit ff             mHz
Nd                  6
Points              per decade
spacing             Logarithmic
Va (mV)             5.0
pw                  0.10
Na                  2
corr                0
E range min (V)     -10.000
E range max (V)     10.000
I Range             Auto
Bandwidth           5
nc cycles           0
goto Ns'            0
nr cycles           0
inc. cycle          0

freq/Hz	Re(Z)/Ohm	-Im(Z)/Ohm	|Z|/Ohm	Phase(Z)/deg	time/s	<Ewe>/V	<I>/mA	Cs/µF	Cp/µF	cycle number	I Range	|Ewe|/V	|I|/A	Ns	(Q-Qo)/mA.h	<Ece>/V	|Ece|/V	Phase(Zce)/deg	|Zce|/Ohm	Re(Zce)/Ohm	-Im(Zce)/Ohm	Phase(Zwe-ce)/deg	|Zwe-ce|/Ohm	Re(Zwe-ce)/Ohm	-Im(Zwe-ce)/Ohm	Re(Y)/Ohm-1	Im(Y)/Ohm-1	|Y|/Ohm-1	Phase(Y)/deg	Re(C)/nF	Im(C)/nF	|C|/nF	Phase(C)/deg	Re(M)	Im(M)	|M|	Phase(M)/deg	Re(Permittivity)	Im(Permittivity)	|Permittivity|	Phase(Permittivity)/deg	Re(Resistivity)/Ohm.cm	Im(Resistivity)/Ohm.cm	|Resistivity|/Ohm.cm	Phase(Resistivity)/deg	Re(Conductivity)/mS/cm	Im(Conductivity)/mS/cm	|Conductivity|/mS/cm	Phase(Conductivity)/deg	Tan(Delta)	Loss Angle(Delta)/deg	dq/mA.h	Pwe/W	Pce/W	Pwe-ce/W	<Ewe-Ece>/V	Rwe/Ohm	Rce/Ohm	Rwe-ce/Ohm		Ewe-Ece/V
100004	1.50166	0.574777	1.60791	-20.9449	1.72556	0.249131	-0.0502993	2.76888	0.35382	1	9	0.00473013	0.00294179	0	-1.13361e-05	-0.000168381	3.44273e-05	105.147	0.0117028	-0.00305795	-0.0112962	-20.6064	1.60104	1.49861	0.563481	0.580833	0.22232	0.621927	20.9449	353.82	924.39	989.791	-69.0551	0.0000000E+000	0.0000000E+000	0.0000000E+000	69.0551	0.0000000E+000	0.0000000E+000	0.0000000E+000	-69.0551	0.0000000E+000	0.0000000E+000	0.0000000E+000	-20.9449	0.0000000E+000	0.0000000E+000	0.0000000E+000	20.9449	2.6126	69.0551	-1.13361e-05	-1.25311e-05	8.46947e-09	-1.25396e-05	0.2493	4952.97	3.34758	4956.32
68132	1.65421	0.679618	1.78838	-22.3349	2.23252	0.249123	-0.0460848	3.43719	0.49638	1	9	0.00506989	0.00283491	0	-2.86533e-05	0.000328477	2.89662e-05	85.042	0.0102177	0.000883071	-0.0101794	-22.0219	1.78535	1.6551	0.669438	0.517216	0.212494	0.559166	22.3349	496.38	1208.21	1306.2	-67.6651	0.0000000E+000	0.0000000E+000	0.0000000E+000	67.6651	0.0000000E+000	0.0000000E+000	0.0000000E+000	-67.6651	0.0000000E+000	0.0000000E+000	0.0000000E+000	-22.3349	0.0000000E+000	0.0000000E+000	0.0000000E+000	22.3349	2.43403	67.6651	-1.73173e-05	-1.14808e-05	-1.51378e-08	-1.14656e-05	0.248794	5405.75	7.12768	5398.63
46420.4	1.84095	0.784618	2.00118	-23.0838	2.73954	0.249121	-0.0404529	4.36972	0.671731	1	9	0.00507697	0.00253698	0	-3.96729e-05	-1.55017e-05	1.43407e-05	16.8228	0.00565264	0.00541073	-0.00163595	-22.9802	2.00552	1.84637	0.782982	0.459694	0.195922	0.499704	23.0838	671.731	1576.09	1713.27	-66.9162	0.0000000E+000	0.0000000E+000	0.0000000E+000	66.9162	0.0000000E+000	0.0000000E+000	0.0000000E+000	-66.9162	0.0000000E+000	0.0000000E+000	0.0000000E+000	-23.0838	0.0000000E+000	0.0000000E+000	0.0000000E+000	23.0838	2.34631	66.9162	-1.10195e-05	-1.00777e-05	6.27088e-10	-1.00783e-05	0.249137	6158.3	0.383203	6158.69
31621.1	2.03269	0.896163	2.22147	-23.7915	3.24855	0.249127	-0.0487329	5.61637	0.914004	1	9	0.00520291	0.0023421	0	-4.13229e-05	4.18282e-05	9.7751e-06	-48.7059	0.00417365	0.00275429	0.00313579	-23.8368	2.22526	2.03544	0.899299	0.411898	0.181596	0.450152	23.7915	914.004	2073.16	2265.7	-66.2085	0.0000000E+000	0.0000000E+000	0.0000000E+000	66.2085	0.0000000E+000	0.0000000E+000	0.0000000E+000	-66.2085	0.0000000E+000	0.0000000E+000	0.0000000E+000	-23.7915	0.0000000E+000	0.0000000E+000	0.0000000E+000	23.7915	2.26822	66.2085	-1.65006e-06	-1.21407e-05	-2.03841e-09	-1.21387e-05	0.249086	5112.1	0.858315	5111.24
21544.7	2.2631	1.00865	2.4777	-24.0222	3.63353	0.249131	-0.0423924	7.32384	1.21373	1	9	0.00479748	0.00193626	0	-4.80011e-05	-0.000130161	7.54474e-06	52.2986	0.00389655	0.00238292	-0.00308298	-23.9347	2.47863	2.26549	1.00557	0.368643	0.164302	0.403599	24.0222	1213.73	2723.24	2981.47	-65.9778	0.0000000E+000	0.0000000E+000	0.0000000E+000	65.9778	0.0000000E+000	0.0000000E+000	0.0000000E+000	-65.9778	0.0000000E+000	0.0000000E+000	0.0000000E+000	-24.0222	0.0000000E+000	0.0000000E+000	0.0000000E+000	24.0222	2.24369	65.9778	-6.67814e-06	-1.05612e-05	5.51785e-09	-1.05668e-05	0.249261	5876.79	3.0704	5879.86
14678.6	2.51544	1.10708	2.74828	-23.7549	4.01652	0.249119	-0.0440334	9.79396	1.58925	1	9	0.00505067	0.00183776	0	-5.37875e-05	9.9158e-05	1.50952e-05	-107.884	0.00821392	-0.0025224	0.00781704	-23.9252	2.74913	2.51292	1.11489	0.333036	0.146573	0.363864	23.7549	1589.24	3611	3945.25	-66.2451	0.0000000E+000	0.0000000E+000	0.0000000E+000	66.2451	0.0000000E+000	0.0000000E+000	0.0000000E+000	-66.2451	0.0000000E+000	0.0000000E+000	0.0000000E+000	-23.7549	0.0000000E+000	0.0000000E+000	0.0000000E+000	23.7549	2.27215	66.2451	-5.7864e-06	-1.09696e-05	-4.36627e-09	-1.09652e-05	0.24902	5657.49	2.25188	5655.24
10002.2	2.7509	1.22006	3.00932	-23.9179	4.27554	0.249115	-0.0432502	13.0419	2.14372	1	9	0.00460115	0.00152897	0	-5.63756e-05	8.00481e-05	1.05001e-05	9.14645	0.00686744	0.00678012	-0.00109164	-23.8467	3.01508	2.75768	1.21897	0.303765	0.134724	0.332301	23.9179	2143.72	4833.5	5287.55	-66.0821	0.0000000E+000	0.0000000E+000	0.0000000E+000	66.0821	0.0000000E+000	0.0000000E+000	0.0000000E+000	-66.0821	0.0000000E+000	0.0000000E+000	0.0000000E+000	-23.9179	0.0000000E+000	0.0000000E+000	0.0000000E+000	23.9179	2.25473	66.0821	-2.58815e-06	-1.07743e-05	-3.4621e-09	-1.07708e-05	0.249035	5759.86	1.85081	5758.01
6810.42	3.06096	1.33317	3.33868	-23.535	4.65856	0.249116	-0.0406021	17.5292	2.79499	1	9	0.00487781	0.001461	0	-5.81118e-05	-0.000206601	7.64682e-05	11.2504	0.0523397	0.051334	-0.0102114	-23.0291	3.3818	3.11229	1.32296	0.274604	0.119601	0.299519	23.535	2794.99	6417.32	6999.57	-66.465	0.0000000E+000	0.0000000E+000	0.0000000E+000	66.465	0.0000000E+000	0.0000000E+000	0.0000000E+000	-66.465	0.0000000E+000	0.0000000E+000	0.0000000E+000	-23.535	0.0000000E+000	0.0000000E+000	0.0000000E+000	23.535	2.296	66.465	-1.73617e-06	-1.01146e-05	8.38844e-09	-1.0123e-05	0.249322	6135.53	5.08844	6140.62
4646	3.34448	1.52146	3.67429	-24.4616	4.92262	0.249077	-0.065554	22.5154	3.86061	1	9	0.00474974	0.0012927	0	-6.15831e-05	-0.000225711	1.12008e-05	-108.201	0.00866465	-0.0027064	0.00823114	-24.5959	3.67524	3.34177	1.52969	0.247732	0.112698	0.272162	24.4616	3860.61	8486.39	9323.26	-65.5384	0.0000000E+000	0.0000000E+000	0.0000000E+000	65.5384	0.0000000E+000	0.0000000E+000	0.0000000E+000	-65.5384	0.0000000E+000	0.0000000E+000	0.0000000E+000	-24.4616	0.0000000E+000	0.0000000E+000	0.0000000E+000	24.4616	2.1982	65.5384	-3.47133e-06	-1.6328e-05	1.47963e-08	-1.63428e-05	0.249303	3799.57	3.44313	3803.01
3163.08	3.68885	1.76734	4.09037	-25.5992	5.50568	0.249033	-0.0340849	28.4702	5.31503	1	10	0.00488981	0.00119544	0	-6.8004e-05	-0.000187491	1.07505e-05	-19.4906	0.00899289	0.00847756	0.00300049	-25.5859	4.09931	3.69733	1.77034	0.220479	0.105632	0.244477	25.5992	5315.02	11093.7	12301.2	-64.4008	0.0000000E+000	0.0000000E+000	0.0000000E+000	64.4008	0.0000000E+000	0.0000000E+000	0.0000000E+000	-64.4008	0.0000000E+000	0.0000000E+000	0.0000000E+000	-25.5992	0.0000000E+000	0.0000000E+000	0.0000000E+000	25.5992	2.08723	64.4008	-6.42084e-06	-8.48826e-06	6.39061e-09	-8.49465e-06	0.249221	7306.27	5.50072	7311.77
2155.69	4.0347	2.03079	4.51696	-26.7175	5.95678	0.249033	-0.0228197	36.3555	7.34863	1	10	0.00480541	0.00106386	0	-7.16046e-05	0.000156488	5.32394e-06	19.072	0.00500436	0.00472966	-0.0016352	-26.672	4.52045	4.03943	2.02915	0.197751	0.0995343	0.221388	26.7175	7348.63	14600	16345.1	-63.2825	0.0000000E+000	0.0000000E+000	0.0000000E+000	63.2825	0.0000000E+000	0.0000000E+000	0.0000000E+000	-63.2825	0.0000000E+000	0.0000000E+000	0.0000000E+000	-26.7175	0.0000000E+000	0.0000000E+000	0.0000000E+000	26.7175	1.98677	63.2825	-3.6006e-06	-5.68287e-06	-3.57101e-09	-5.6793e-06	0.248877	10913.1	6.85757	10906.2
1468.59	4.41226	2.38555	5.01586	-28.3985	6.40805	0.249045	-0.0230995	45.4288	10.2758	1	10	0.00474258	0.000945516	0	-7.38826e-05	-0.000225711	1.09639e-05	52.0709	0.0115956	0.00712768	-0.00914632	-28.2679	5.0178	4.41939	2.3764	0.175376	0.0948193	0.199367	28.3985	10275.8	19005.9	21606	-61.6015	0.0000000E+000	0.0000000E+000	0.0000000E+000	61.6015	0.0000000E+000	0.0000000E+000	0.0000000E+000	-61.6015	0.0000000E+000	0.0000000E+000	0.0000000E+000	-28.3985	0.0000000E+000	0.0000000E+000	0.0000000E+000	28.3985	1.84958	61.6015	-2.27805e-06	-5.75282e-06	5.21381e-09	-5.75803e-06	0.249271	10781.4	9.77127	10791.2
1000.32	4.83704	2.86605	5.62239	-30.6476	6.85878	0.249042	-0.0226258	55.5134	14.4252	1	10	0.00470662	0.000837122	0	-7.62141e-05	-0.000187491	9.48378e-06	63.6508	0.011329	0.00502829	-0.010152	-30.5325	5.62155	4.84207	2.8559	0.153017	0.0906655	0.17786	30.6476	14425.2	24345.6	28298.3	-59.3524	0.0000000E+000	0.0000000E+000	0.0000000E+000	59.3524	0.0000000E+000	0.0000000E+000	0.0000000E+000	-59.3524	0.0000000E+000	0.0000000E+000	0.0000000E+000	-30.6476	0.0000000E+000	0.0000000E+000	0.0000000E+000	30.6476	1.68771	59.3524	-2.33151e-06	-5.63478e-06	4.24213e-09	-5.63902e-06	0.24923	11007	8.28663	11015.3
681.09	5.32715	3.54285	6.39767	-33.6261	7.30959	0.249048	-0.0223348	65.9574	20.2266	1	10	0.00467279	0.000730388	0	-7.88601e-05	-0.000168381	7.88497e-06	-74.3969	0.0107956	0.00290371	0.0103977	-33.6892	6.40585	5.33005	3.55324	0.130152	0.0865581	0.156307	33.6261	20226.6	30413.5	36525.3	-56.3739	0.0000000E+000	0.0000000E+000	0.0000000E+000	56.3739	0.0000000E+000	0.0000000E+000	0.0000000E+000	-56.3739	0.0000000E+000	0.0000000E+000	0.0000000E+000	-33.6261	0.0000000E+000	0.0000000E+000	0.0000000E+000	33.6261	1.50363	56.3739	-2.64598e-06	-5.56244e-06	3.76077e-09	-5.5662e-06	0.249216	11150.7	7.53896	11158.2
463.961	5.9813	4.46747	7.46554	-36.7563	7.76132	0.249046	-0.0221819	76.7852	27.4966	1	10	0.00466098	0.000624333	0	-8.16179e-05	-0.000263931	1.5056e-05	74.3556	0.0241153	0.00650309	-0.0232219	-36.5834	7.45689	5.9878	4.44425	0.107318	0.0801566	0.133949	36.7563	27496.6	36814	45949.2	-53.2437	0.0000000E+000	0.0000000E+000	0.0000000E+000	53.2437	0.0000000E+000	0.0000000E+000	0.0000000E+000	-53.2437	0.0000000E+000	0.0000000E+000	0.0000000E+000	-36.7563	0.0000000E+000	0.0000000E+000	0.0000000E+000	36.7563	1.33886	53.2437	-2.75779e-06	-5.5243e-06	5.85449e-09	-5.53016e-06	0.24931	11227.4	11.8985	11239.3
316.316	6.84004	5.71982	8.91642	-39.9032	8.20905	0.249042	-0.0230436	87.9664	36.1993	1	10	0.00464109	0.00052051	0	-8.41892e-05	4.18282e-05	9.2344e-06	54.9606	0.017741	0.0101858	-0.0145256	-39.7896	8.91493	6.85023	5.7053	0.0860355	0.0719451	0.112153	39.9032	36199.3	43288.9	56429.8	-50.0968	0.0000000E+000	0.0000000E+000	0.0000000E+000	50.0968	0.0000000E+000	0.0000000E+000	0.0000000E+000	-50.0968	0.0000000E+000	0.0000000E+000	0.0000000E+000	-39.9032	0.0000000E+000	0.0000000E+000	0.0000000E+000	39.9032	1.19585	50.0968	-2.57136e-06	-5.73881e-06	-9.6387e-10	-5.73785e-06	0.249	10807.4	1.81518	10805.6
215.345	8.12615	7.27088	10.9041	-41.8206	8.65954	0.249032	-0.0224616	101.648	45.1951	1	10	0.00463335	0.000424917	0	-8.63664e-05	2.27182e-05	9.95121e-06	-4.60348	0.0234192	0.0233436	0.00187961	-41.7463	10.9228	8.14949	7.27276	0.0683444	0.0611512	0.0917084	41.8206	45195.1	50511.4	67779	-48.1794	0.0000000E+000	0.0000000E+000	0.0000000E+000	48.1794	0.0000000E+000	0.0000000E+000	0.0000000E+000	-48.1794	0.0000000E+000	0.0000000E+000	0.0000000E+000	-41.8206	0.0000000E+000	0.0000000E+000	0.0000000E+000	41.8206	1.11763	48.1794	-2.17719e-06	-5.59366e-06	-5.10289e-10	-5.59315e-06	0.249009	11087	1.01142	11086
146.737	10.1227	9.05058	13.5787	-41.7994	9.10555	0.249033	-0.0234427	119.84	53.2398	1	10	0.00463234	0.000341146	0	-8.90809e-05	-3.46116e-05	7.58117e-06	-14.1963	0.0222226	0.021544	0.00544999	-41.7561	13.5984	10.1443	9.05603	0.0549007	0.0490859	0.0736445	41.7994	53239.8	59546.6	79876.6	-48.2006	0.0000000E+000	0.0000000E+000	0.0000000E+000	48.2006	0.0000000E+000	0.0000000E+000	0.0000000E+000	-48.2006	0.0000000E+000	0.0000000E+000	0.0000000E+000	-41.7994	0.0000000E+000	0.0000000E+000	0.0000000E+000	41.7994	1.11846	48.2006	-2.71449e-06	-5.838e-06	8.1139e-10	-5.83881e-06	0.249068	10623.1	1.47644	10624.5
100.032	12.8087	10.7398	16.7154	-39.9792	9.55679	0.249034	-0.0224169	148.144	61.1566	1	10	0.00462171	0.000276493	0	-9.19196e-05	0.000137378	1.27575e-05	-10.9516	0.0461402	0.0452999	0.00876567	-39.9026	16.7558	12.854	10.7486	0.0458426	0.0384381	0.059825	39.9792	61156.6	72937.4	95183.9	-50.0208	0.0000000E+000	0.0000000E+000	0.0000000E+000	50.0208	0.0000000E+000	0.0000000E+000	0.0000000E+000	-50.0208	0.0000000E+000	0.0000000E+000	0.0000000E+000	-39.9792	0.0000000E+000	0.0000000E+000	0.0000000E+000	39.9792	1.19263	50.0208	-2.8387e-06	-5.58258e-06	-3.07959e-09	-5.5795e-06	0.248897	11109.2	6.12832	11103.1
68.104	16.3385	12.0819	20.3204	-36.4818	10.0195	0.24904	-0.0199848	193.426	68.3781	1	10	0.00462335	0.000227523	0	-9.44491e-05	-0.000130161	8.29994e-06	-117.264	0.0364796	-0.0167112	0.0324268	-36.5833	20.3263	16.3218	12.1143	0.0395684	0.0292597	0.0492117	36.4818	68378.1	92469	115005	-53.5182	0.0000000E+000	0.0000000E+000	0.0000000E+000	53.5182	0.0000000E+000	0.0000000E+000	0.0000000E+000	-53.5182	0.0000000E+000	0.0000000E+000	0.0000000E+000	-36.4818	0.0000000E+000	0.0000000E+000	0.0000000E+000	36.4818	1.35232	53.5182	-2.52948e-06	-4.97701e-06	2.60125e-09	-4.97961e-06	0.24917	12461.4	6.51302	12468
46.4415	20.4471	12.6864	24.063	-31.8175	10.6966	0.249085	-0.00995171	270.132	75.0849	1	11	0.00461857	0.000191937	0	-9.76516e-05	-0.000149271	1.2696e-05	-40.0559	0.0661468	0.0506299	0.0425678	-31.84	24.1284	20.4977	12.7289	0.0353128	0.0219099	0.0415576	31.8175	75084.9	121017	142418	-58.1825	0.0000000E+000	0.0000000E+000	0.0000000E+000	58.1825	0.0000000E+000	0.0000000E+000	0.0000000E+000	-58.1825	0.0000000E+000	0.0000000E+000	0.0000000E+000	-31.8175	0.0000000E+000	0.0000000E+000	0.0000000E+000	31.8175	1.61173	58.1825	-3.20253e-06	-2.47882e-06	1.48551e-09	-2.48031e-06	0.249234	25029.4	14.9996	25044.4
31.6296	24.52	12.3789	27.4676	-26.7868	11.1256	0.249092	-0.00993082	406.486	82.5596	1	11	0.00463104	0.0001686	0	-9.85095e-05	0.000252038	2.9701e-06	72.678	0.0176163	0.00524508	-0.0168173	-26.7506	27.4647	24.5253	12.3621	0.0324997	0.0164074	0.0364065	26.7868	82559.6	163534	183192	-63.2132	0.0000000E+000	0.0000000E+000	0.0000000E+000	63.2132	0.0000000E+000	0.0000000E+000	0.0000000E+000	-63.2132	0.0000000E+000	0.0000000E+000	0.0000000E+000	-26.7868	0.0000000E+000	0.0000000E+000	0.0000000E+000	26.7868	1.98079	63.2132	-8.57815e-07	-2.47369e-06	-2.50294e-09	-2.47119e-06	0.24884	25082.7	25.3793	25057.4
21.5517	27.9099	11.2274	30.0835	-21.9136	11.5475	0.249087	-0.0101356	657.748	91.6136	1	11	0.00461122	0.000153281	0	-9.95636e-05	-0.000111051	1.29324e-05	34.8163	0.0843708	0.0692673	-0.0481713	-21.7794	30.1299	27.9792	11.1792	0.0308391	0.0124057	0.0332408	21.9136	91613.6	227740	245476	-68.0864	0.0000000E+000	0.0000000E+000	0.0000000E+000	68.0864	0.0000000E+000	0.0000000E+000	0.0000000E+000	-68.0864	0.0000000E+000	0.0000000E+000	0.0000000E+000	-21.9136	0.0000000E+000	0.0000000E+000	0.0000000E+000	21.9136	2.48588	68.0864	-1.05413e-06	-2.52465e-06	1.12558e-09	-2.52578e-06	0.249198	24575.3	10.9565	24586.3
14.6852	30.782	9.86407	32.3238	-17.768	12.0081	0.249093	-0.00951596	1098.72	102.318	1	11	0.0046175	0.000142851	0	-0.000100115	4.18282e-05	1.14324e-05	-26.139	0.0800305	0.0718456	0.0352574	-17.7886	32.403	30.8538	9.89933	0.0294612	0.00944084	0.0309369	17.768	102318	319295	335289	-72.232	0.0000000E+000	0.0000000E+000	0.0000000E+000	72.232	0.0000000E+000	0.0000000E+000	0.0000000E+000	-72.232	0.0000000E+000	0.0000000E+000	0.0000000E+000	-17.768	0.0000000E+000	0.0000000E+000	0.0000000E+000	17.768	3.12061	72.232	-5.51825e-07	-2.37035e-06	-3.98035e-10	-2.36996e-06	0.249051	26176.3	4.39558	26171.9
10.0032	32.9049	8.45045	33.9726	-14.4031	12.4588	0.249081	-0.00946373	1882.79	116.494	1	11	0.00461321	0.000135792	0	-0.000102196	-0.000111051	1.09602e-05	-78.7467	0.0807132	0.0157509	0.0791614	-14.5257	34.0077	32.9206	8.52962	0.0285103	0.00732186	0.0294354	14.4031	116494	453610	468330	-75.5969	0.0000000E+000	0.0000000E+000	0.0000000E+000	75.5969	0.0000000E+000	0.0000000E+000	0.0000000E+000	-75.5969	0.0000000E+000	0.0000000E+000	0.0000000E+000	-14.4031	0.0000000E+000	0.0000000E+000	0.0000000E+000	14.4031	3.89386	75.5969	-2.08013e-06	-2.35724e-06	1.05096e-09	-2.35829e-06	0.249192	26319.6	11.7344	26331.3
6.81719	34.7286	7.25191	35.4776	-11.7948	12.7985	0.249091	-0.00873063	3219.31	134.511	1	11	0.00461658	0.000130127	0	-0.000101789	6.09381e-05	1.01411e-05	-32.5836	0.0779327	0.0656666	0.0419691	-11.8394	35.5505	34.7942	7.29388	0.0275916	0.0057616	0.0281868	11.7948	134511	644158	658052	-78.2052	0.0000000E+000	0.0000000E+000	0.0000000E+000	78.2052	0.0000000E+000	0.0000000E+000	0.0000000E+000	-78.2052	0.0000000E+000	0.0000000E+000	0.0000000E+000	-11.7948	0.0000000E+000	0.0000000E+000	0.0000000E+000	11.7948	4.78888	78.2052	4.06374e-07	-2.17472e-06	-5.32028e-10	-2.17419e-06	0.24903	28530.7	6.97981	28523.7
4.63925	36.123	6.2923	36.667	-9.88126	13.2824	0.249088	-0.00884554	5452.08	160.558	1	11	0.00461418	0.00012584	0	-0.000103453	-0.000130161	7.1703e-06	22.8161	0.0569794	0.052521	-0.0220952	-9.83322	36.7149	36.1756	6.27021	0.0268679	0.00468015	0.0272725	9.88126	160558	921736	935615	-80.1187	0.0000000E+000	0.0000000E+000	0.0000000E+000	80.1187	0.0000000E+000	0.0000000E+000	0.0000000E+000	-80.1187	0.0000000E+000	0.0000000E+000	0.0000000E+000	-9.88126	0.0000000E+000	0.0000000E+000	0.0000000E+000	9.88126	5.74083	80.1187	-1.66413e-06	-2.20332e-06	1.15135e-09	-2.20447e-06	0.249218	28159.8	14.7149	28174.5
3.1604	37.2743	5.38687	37.6616	-8.22343	13.9755	0.249087	-0.00832453	9348.5	191.258	1	11	0.00461316	0.00012249	0	-0.0001067	-0.000149271	1.65553e-06	57.2555	0.0135156	0.00731053	-0.0113679	-8.20473	37.6672	37.2816	5.3755	0.0262793	0.00379787	0.0265523	8.22343	191258	1.3234e+06	1.33715e+06	-81.7766	0.0000000E+000	0.0000000E+000	0.0000000E+000	81.7766	0.0000000E+000	0.0000000E+000	0.0000000E+000	-81.7766	0.0000000E+000	0.0000000E+000	0.0000000E+000	-8.22343	0.0000000E+000	0.0000000E+000	0.0000000E+000	8.22343	6.91948	81.7766	-3.24648e-06	-2.07353e-06	1.24261e-09	-2.07477e-06	0.249236	29922	17.9315	29939.9
2.15577	38.4028	4.82491	38.7047	-7.16109	14.9792	0.249095	-0.00780176	15301.3	237.783	1	11	0.00461758	0.000119303	0	-0.000109287	-0.000263931	4.59535e-06	26.3659	0.0385184	0.0345116	-0.0171061	-7.12963	38.7368	38.4373	4.8078	0.0256351	0.00322079	0.0258367	7.16109	237783	1.89258e+06	1.90746e+06	-82.8389	0.0000000E+000	0.0000000E+000	0.0000000E+000	82.8389	0.0000000E+000	0.0000000E+000	0.0000000E+000	-82.8389	0.0000000E+000	0.0000000E+000	0.0000000E+000	-7.16109	0.0000000E+000	0.0000000E+000	0.0000000E+000	7.16109	7.95927	82.8389	-2.58702e-06	-1.94337e-06	2.05913e-09	-1.94543e-06	0.249358	31928	33.8297	31961.8
1.46631	39.2676	4.3938	39.5127	-6.38448	17.1663	0.249094	-0.00721836	24703.2	305.465	1	12	0.00462359	0.000117015	0	-0.000111326	-0.000149271	3.8927e-06	-89.374	0.0332667	0.000363463	0.0332647	-6.43235	39.5168	39.268	4.42707	0.0251514	0.00281428	0.0253083	6.38448	305465	2.72996e+06	2.74699e+06	-83.6155	0.0000000E+000	0.0000000E+000	0.0000000E+000	83.6155	0.0000000E+000	0.0000000E+000	0.0000000E+000	-83.6155	0.0000000E+000	0.0000000E+000	0.0000000E+000	-6.38448	0.0000000E+000	0.0000000E+000	0.0000000E+000	6.38448	8.93705	83.6155	-2.03931e-06	-1.79805e-06	1.07749e-09	-1.79913e-06	0.249244	34508.5	20.6794	34529.2
1.00006	40.1341	4.04029	40.3369	-5.74859	19.2938	0.249099	-0.00683751	39389.4	395.184	1	12	0.00462073	0.000114553	0	-0.000112134	-5.37216e-05	3.62634e-06	31.8721	0.0316564	0.0268835	-0.0167153	-5.72116	40.362	40.161	4.02358	0.0246665	0.00248317	0.0247912	5.74859	395184	3.92554e+06	3.94538e+06	-84.2514	0.0000000E+000	0.0000000E+000	0.0000000E+000	84.2514	0.0000000E+000	0.0000000E+000	0.0000000E+000	-84.2514	0.0000000E+000	0.0000000E+000	0.0000000E+000	-5.74859	0.0000000E+000	0.0000000E+000	0.0000000E+000	5.74859	9.93346	84.2514	-8.08256e-07	-1.70322e-06	3.67322e-10	-1.70359e-06	0.249153	36431.3	7.85689	36439.1
0.681362	40.9333	3.80699	41.1099	-5.3135	22.4059	0.249094	-0.00640287	61356.4	526.175	1	12	0.00461837	0.000112342	0	-0.00011598	-0.000206601	2.49085e-06	42.9614	0.022172	0.0162258	-0.0151104	-5.29044	41.1247	40.9495	3.79188	0.0242205	0.00225262	0.024325	5.3135	526176	5.65751e+06	5.68192e+06	-84.6865	0.0000000E+000	0.0000000E+000	0.0000000E+000	84.6865	0.0000000E+000	0.0000000E+000	0.0000000E+000	-84.6865	0.0000000E+000	0.0000000E+000	0.0000000E+000	-5.3135	0.0000000E+000	0.0000000E+000	0.0000000E+000	5.3135	10.7521	84.6865	-3.84604e-06	-1.59492e-06	1.32284e-09	-1.59624e-06	0.249301	38903.5	32.267	38935.8
0.464091	41.6514	3.73567	41.8186	-5.12509	26.9625	0.249094	-0.00574758	91801.2	732.567	1	12	0.00462258	0.000110539	0	-0.00012624	-0.000187491	1.99529e-06	34.1521	0.0180506	0.0149378	-0.0101335	-5.10944	41.8326	41.6663	3.72554	0.0238172	0.00213614	0.0239128	5.12509	732567	8.16786e+06	8.20064e+06	-84.8749	0.0000000E+000	0.0000000E+000	0.0000000E+000	84.8749	0.0000000E+000	0.0000000E+000	0.0000000E+000	-84.8749	0.0000000E+000	0.0000000E+000	0.0000000E+000	-5.12509	0.0000000E+000	0.0000000E+000	0.0000000E+000	5.12509	11.1496	84.8749	-1.02598e-05	-1.43169e-06	1.07762e-09	-1.43276e-06	0.249281	43338.9	32.6209	43371.5
0.316193	42.2719	3.77188	42.4399	-5.09895	33.6371	0.249096	-0.00530724	133447	1054.09	1	12	0.00462082	0.000108879	0	-0.000145274	0.000156488	2.49779e-06	16.6569	0.0229409	0.0219783	-0.00657577	-5.08747	42.4612	42.2939	3.76531	0.0234695	0.00209416	0.0235628	5.09895	1.05409e+06	1.18133e+07	1.18602e+07	-84.9011	0.0000000E+000	0.0000000E+000	0.0000000E+000	84.9011	0.0000000E+000	0.0000000E+000	0.0000000E+000	-84.9011	0.0000000E+000	0.0000000E+000	0.0000000E+000	-5.09895	0.0000000E+000	0.0000000E+000	0.0000000E+000	5.09895	11.2071	84.9011	-1.90336e-05	-1.32201e-06	-8.30519e-10	-1.32118e-06	0.24894	46935.2	29.4857	46905.7
0.215268	42.8895	3.98403	43.0741	-5.30701	43.4306	0.249103	-0.00518851	185575	1587.56	1	12	0.00462024	0.000107263	0	-0.000173186	-0.000168381	1.49941e-06	0.645466	0.0139789	0.013978	-0.000157476	-5.30508	43.088	42.9034	3.98387	0.0231163	0.00214729	0.0232158	5.30701	1.58756e+06	1.70907e+07	1.71642e+07	-84.693	0.0000000E+000	0.0000000E+000	0.0000000E+000	84.693	0.0000000E+000	0.0000000E+000	0.0000000E+000	-84.693	0.0000000E+000	0.0000000E+000	0.0000000E+000	-5.30701	0.0000000E+000	0.0000000E+000	0.0000000E+000	5.30701	10.7653	84.693	-2.79118e-05	-1.29247e-06	8.73648e-10	-1.29335e-06	0.249272	48010.5	32.4527	48043
0.146929	43.5877	4.52274	43.8218	-5.92391	57.769	0.249107	-0.00533535	239503	2551.15	1	12	0.00462267	0.000105488	0	-0.00020612	-5.37216e-05	1.74217e-06	15.0984	0.0165153	0.0159452	-0.00430188	-5.91617	43.8372	43.6037	4.51844	0.0226979	0.00235517	0.0228197	5.92391	2.55115e+06	2.45866e+07	2.47186e+07	-84.0761	0.0000000E+000	0.0000000E+000	0.0000000E+000	84.0761	0.0000000E+000	0.0000000E+000	0.0000000E+000	-84.0761	0.0000000E+000	0.0000000E+000	0.0000000E+000	-5.92391	0.0000000E+000	0.0000000E+000	0.0000000E+000	5.92391	9.63746	84.0761	-3.29345e-05	-1.32907e-06	2.86623e-10	-1.32936e-06	0.249161	46689.9	10.069	46700
0.0999041	44.3051	5.49831	44.645	-7.07429	78.8463	0.249109	-0.00551029	289740	4394.61	1	12	0.00461853	0.00010345	0	-0.000237053	-9.19415e-05	3.564e-06	2.17364	0.0344514	0.0344266	-0.00130668	-7.06719	44.679	44.3395	5.497	0.0222284	0.00275857	0.0223989	7.07429	4.39462e+06	3.54116e+07	3.56832e+07	-82.9257	0.0000000E+000	0.0000000E+000	0.0000000E+000	82.9257	0.0000000E+000	0.0000000E+000	0.0000000E+000	-82.9257	0.0000000E+000	0.0000000E+000	0.0000000E+000	-7.07429	0.0000000E+000	0.0000000E+000	0.0000000E+000	7.07429	8.05795	82.9257	-3.09328e-05	-1.37266e-06	5.06624e-10	-1.37317e-06	0.249201	45207.9	16.6854	45224.6
0.0680626	45.0987	6.89871	45.6233	-8.69706	109.774	0.249108	-0.00547351	338956	7750.07	1	12	0.00462202	0.000101308	0	-0.000260486	-0.000206601	2.91177e-06	37.1931	0.0287417	0.0228957	-0.0173745	-8.67116	45.6433	45.1216	6.88133	0.0216666	0.00331432	0.0219186	8.69706	7.75007e+06	5.06643e+07	5.12536e+07	-81.3029	0.0000000E+000	0.0000000E+000	0.0000000E+000	81.3029	0.0000000E+000	0.0000000E+000	0.0000000E+000	-81.3029	0.0000000E+000	0.0000000E+000	0.0000000E+000	-8.69706	0.0000000E+000	0.0000000E+000	0.0000000E+000	8.69706	6.53727	81.3029	-2.34335e-05	-1.36349e-06	1.13083e-09	-1.36462e-06	0.249314	45511.5	37.7457	45549.3
0.0464052	46.02	8.61558	46.8195	-10.6038	155.125	0.249102	-0.00490949	398079	13479.8	1	12	0.00461961	9.86686e-05	0	-0.000264281	-3.46116e-05	1.82589e-06	-2.2328	0.0185053	0.0184912	0.000720963	-10.6005	46.8378	46.0384	8.6163	0.0209939	0.00393035	0.0213586	10.6038	1.34798e+07	7.20023e+07	7.32532e+07	-79.3962	0.0000000E+000	0.0000000E+000	0.0000000E+000	79.3962	0.0000000E+000	0.0000000E+000	0.0000000E+000	-79.3962	0.0000000E+000	0.0000000E+000	0.0000000E+000	-10.6038	0.0000000E+000	0.0000000E+000	0.0000000E+000	10.6038	5.34148	79.3962	-3.79415e-06	-1.22296e-06	1.69925e-10	-1.22313e-06	0.249136	50738.8	7.04995	50745.9
0.0315922	47.6077	10.9877	48.8592	-12.9961	221.731	0.249107	-0.00434363	458496	23187.4	1	12	0.00462242	9.46069e-05	0	-0.000268482	-9.19415e-05	2.70725e-06	-12.5995	0.0286158	0.0279267	0.00624212	-12.9958	48.8879	47.6357	10.9939	0.0199427	0.00460269	0.020467	12.9961	2.31874e+07	1.00467e+08	1.03108e+08	-77.004	0.0000000E+000	0.0000000E+000	0.0000000E+000	77.004	0.0000000E+000	0.0000000E+000	0.0000000E+000	-77.004	0.0000000E+000	0.0000000E+000	0.0000000E+000	-12.9961	0.0000000E+000	0.0000000E+000	0.0000000E+000	12.9961	4.33284	77.004	-4.20134e-06	-1.08203e-06	3.9936e-10	-1.08243e-06	0.249199	57350	21.167	57371.1
0.0215268	49.8586	14.5127	51.9278	-16.2291	319.469	0.249105	-0.00405944	509440	39791.4	1	12	0.00462077	8.89845e-05	0	-0.000333392	-5.37216e-05	1.99216e-06	9.92887	0.0223878	0.0220525	-0.00386022	-16.2182	51.9479	49.8806	14.5088	0.0184901	0.00538206	0.0192575	16.2291	3.97914e+07	1.36704e+08	1.42377e+08	-73.7709	0.0000000E+000	0.0000000E+000	0.0000000E+000	73.7709	0.0000000E+000	0.0000000E+000	0.0000000E+000	-73.7709	0.0000000E+000	0.0000000E+000	0.0000000E+000	-16.2291	0.0000000E+000	0.0000000E+000	0.0000000E+000	16.2291	3.43551	73.7709	-6.49102e-05	-1.01123e-06	2.1808e-10	-1.01144e-06	0.249159	61364.3	13.2337	61377.6
0.0146812	52.501	19.0761	55.8592	-19.9685	462.772	0.249108	-0.00409358	568290	66276.4	1	12	0.00462325	8.2766e-05	0	-0.000549731	-0.000111051	2.5934e-06	-19.3124	0.0313341	0.0295709	0.0103628	-19.9681	55.8906	52.5306	19.0865	0.0168259	0.00611364	0.0179021	19.9685	6.62764e+07	1.82405e+08	1.94073e+08	-70.0315	0.0000000E+000	0.0000000E+000	0.0000000E+000	70.0315	0.0000000E+000	0.0000000E+000	0.0000000E+000	-70.0315	0.0000000E+000	0.0000000E+000	0.0000000E+000	-19.9685	0.0000000E+000	0.0000000E+000	0.0000000E+000	19.9685	2.75219	70.0315	-0.000216339	-1.01974e-06	4.54598e-10	-1.0202e-06	0.249219	60853.5	27.1282	60880.6
0.0100092	55.9508	24.1999	60.96	-23.3895	672.953	0.249107	-0.00451306	657066	103549	1	12	0.00462012	7.57894e-05	0	-0.00100414	8.00481e-05	1.47305e-06	30.832	0.0194361	0.0166893	-0.00996142	-23.3747	60.9714	55.9675	24.1899	0.0150562	0.00651214	0.0164042	23.3895	1.03549e+08	2.39408e+08	2.60842e+08	-66.6105	0.0000000E+000	0.0000000E+000	0.0000000E+000	66.6105	0.0000000E+000	0.0000000E+000	0.0000000E+000	-66.6105	0.0000000E+000	0.0000000E+000	0.0000000E+000	-23.3895	0.0000000E+000	0.0000000E+000	0.0000000E+000	23.3895	2.31203	66.6105	-0.000454406	-1.12424e-06	-3.61262e-10	-1.12387e-06	0.249027	55196.9	17.737	55179.2