File: txt/18398_R277_UA690_SOC00_C07.mpt
EC-Lab ASCII FILE
Nb header lines : 65

Potentio Electrochemical Impedance Spectroscopy

Run on channel : 7 (SN 66126)
User :
CE vs. WE compliance from -10 V to 10 V
Electrode connection : standard
Potential control : Ewe
Ewe ctrl range : min = -10.00 V, max = 10.00 V
Safety Limits :
	Do not start on E overload
Acquisition started on : 10/13/2025 14:56:44.937
Technique started on : 10/13/2025 14:56:46.592
Loaded Setting File :  C:\Users\Celltest\OneDrive - store-dot.com\Documents\EC-Lab\Data\@Biologic Test Protocols\anode half cell EIS SOC00.mps
Saved on :
	File : 18398_R277_UA690_SOC00_C07.mpr
	Directory : C:\Users\Celltest\OneDrive - store-dot.com\Documents\EC-Lab\Data\Gyutae\
	Host : 169.254.61.224
Device : VMP-3e (SN .003165)
Address : USB
EC-LAB for windows v11.62 (software)
Internet server v27.00 (firmware)
Command interpretor v12.03 (firmware)
Electrode material :
Initial state :
Electrolyte :
Comments :
Electrode surface area : 0.001 cm²
Characteristic mass : 0.001 g
Equivalent Weight : 0.000 g/eq.
Density : 0.000 g/cm3
Volume (V) : 0.001 cm³
Record Ece
Cycle Definition : Charge/Discharge alternance
Mode                Single sine
E (V)               0.0000
vs.                 Eoc
tE (h:m:s)          0:00:0.0000
record              0
dI                  0.000
unit dI             mA
dt (s)              0.000
fi                  100.000
unit fi             kHz
ff                  10.000
unit ff             mHz
Nd                  6
Points              per decade
spacing             Logarithmic
Va (mV)             5.0
pw                  0.10
Na                  2
corr                0
E range min (V)     -10.000
E range max (V)     10.000
I Range             Auto
Bandwidth           5
nc cycles           0
goto Ns'            0
nr cycles           0
inc. cycle          0

freq/Hz	Re(Z)/Ohm	-Im(Z)/Ohm	|Z|/Ohm	Phase(Z)/deg	time/s	<Ewe>/V	<I>/mA	Cs/µF	Cp/µF	cycle number	I Range	|Ewe|/V	|I|/A	Ns	(Q-Qo)/mA.h	<Ece>/V	|Ece|/V	Phase(Zce)/deg	|Zce|/Ohm	Re(Zce)/Ohm	-Im(Zce)/Ohm	Phase(Zwe-ce)/deg	|Zwe-ce|/Ohm	Re(Zwe-ce)/Ohm	-Im(Zwe-ce)/Ohm	Re(Y)/Ohm-1	Im(Y)/Ohm-1	|Y|/Ohm-1	Phase(Y)/deg	Re(C)/nF	Im(C)/nF	|C|/nF	Phase(C)/deg	Re(M)	Im(M)	|M|	Phase(M)/deg	Re(Permittivity)	Im(Permittivity)	|Permittivity|	Phase(Permittivity)/deg	Re(Resistivity)/Ohm.cm	Im(Resistivity)/Ohm.cm	|Resistivity|/Ohm.cm	Phase(Resistivity)/deg	Re(Conductivity)/mS/cm	Im(Conductivity)/mS/cm	|Conductivity|/mS/cm	Phase(Conductivity)/deg	Tan(Delta)	Loss Angle(Delta)/deg	dq/mA.h	Pwe/W	Pce/W	Pwe-ce/W	<Ewe-Ece>/V	Rwe/Ohm	Rce/Ohm	Rwe-ce/Ohm		Ewe-Ece/V
100004	-0.156333	-0.0255795	0.158412	170.708	1.6546	0.24096	0.0771232	-62.2174	-1.62225	1	9	3.83994e-05	0.000242402	0	9.34872e-06	1.67614e-05	3.16028e-05	162.679	0.130374	-0.124462	-0.0388158	167.084	0.288084	-0.280795	-0.0643953	-6.2298	-1.01933	6.31265	-170.708	-1622.25	-9914.67	10046.5	99.2925	0.0000000E+000	0.0000000E+000	0.0000000E+000	-99.2925	0.0000000E+000	0.0000000E+000	0.0000000E+000	99.2925	0.0000000E+000	0.0000000E+000	0.0000000E+000	170.708	0.0000000E+000	0.0000000E+000	0.0000000E+000	-170.708	6.11166	80.7075	9.34872e-06	1.85836e-05	1.29269e-09	1.85823e-05	0.240943	3124.35	0.217332	3124.13
68132	1.41964	0.547872	1.52169	-21.1028	2.39556	0.241072	0.0666971	4.26373	0.552709	1	9	0.00541573	0.00355903	0	3.18555e-05	-0.000116767	3.30429e-05	76.026	0.00928424	0.00224197	-0.00900948	-20.7557	1.52056	1.42188	0.538862	0.613093	0.236607	0.657165	21.1028	552.709	1432.17	1535.12	-68.8972	0.0000000E+000	0.0000000E+000	0.0000000E+000	68.8972	0.0000000E+000	0.0000000E+000	0.0000000E+000	-68.8972	0.0000000E+000	0.0000000E+000	0.0000000E+000	-21.1028	0.0000000E+000	0.0000000E+000	0.0000000E+000	21.1028	2.59118	68.8972	2.25068e-05	1.60788e-05	-7.788e-09	1.60866e-05	0.241188	3614.42	1.7507	3616.17
46420.4	1.56287	0.621853	1.68204	-21.6972	2.90256	0.241109	0.0705697	5.51346	0.753574	1	9	0.00505228	0.00300366	0	4.39696e-05	-0.000402898	2.00059e-05	64.8249	0.00666052	0.00283329	-0.00602786	-21.4708	1.68246	1.5657	0.615825	0.552395	0.219793	0.594516	21.6972	753.574	1893.92	2038.33	-68.3028	0.0000000E+000	0.0000000E+000	0.0000000E+000	68.3028	0.0000000E+000	0.0000000E+000	0.0000000E+000	-68.3028	0.0000000E+000	0.0000000E+000	0.0000000E+000	-21.6972	0.0000000E+000	0.0000000E+000	0.0000000E+000	21.6972	2.51325	68.3028	1.21141e-05	1.7015e-05	-2.84324e-08	1.70434e-05	0.241512	3416.61	5.70922	3422.31
31621.1	1.71223	0.704258	1.85141	-22.3579	3.40956	0.241071	0.0696388	7.14679	1.03412	1	9	0.00502241	0.00271275	0	5.67546e-05	-0.000555501	1.47373e-05	11.6803	0.00543261	0.00532011	-0.00109984	-22.264	1.85591	1.71755	0.703158	0.499526	0.205461	0.54013	22.3579	1034.12	2514.21	2718.57	-67.6421	0.0000000E+000	0.0000000E+000	0.0000000E+000	67.6421	0.0000000E+000	0.0000000E+000	0.0000000E+000	-67.6421	0.0000000E+000	0.0000000E+000	0.0000000E+000	-22.3579	0.0000000E+000	0.0000000E+000	0.0000000E+000	22.3579	2.43125	67.6421	1.27851e-05	1.67879e-05	-3.86844e-08	1.68266e-05	0.241626	3461.73	7.9769	3469.71
21544.7	1.89173	0.78968	2.04993	-22.6576	3.79252	0.241094	0.0652449	9.35468	1.3882	1	9	0.00525806	0.00256499	0	6.728e-05	-0.000116767	1.08807e-05	-100.681	0.00424202	-0.000786236	0.00416852	-22.7735	2.05082	1.89094	0.793848	0.450173	0.18792	0.487821	22.6576	1388.2	3325.52	3603.63	-67.3424	0.0000000E+000	0.0000000E+000	0.0000000E+000	67.3424	0.0000000E+000	0.0000000E+000	0.0000000E+000	-67.3424	0.0000000E+000	0.0000000E+000	0.0000000E+000	-22.6576	0.0000000E+000	0.0000000E+000	0.0000000E+000	22.6576	2.39556	67.3424	1.05254e-05	1.57302e-05	-7.61843e-09	1.57378e-05	0.241211	3695.22	1.78967	3697.01
14678.6	2.07679	0.8746	2.25344	-22.8374	4.05155	0.241112	0.0608511	12.3973	1.86747	1	9	0.00487283	0.00216239	0	7.31978e-05	-0.000460124	1.8879e-05	-42.5737	0.00873059	0.00642927	0.00590658	-22.9121	2.26166	2.08322	0.880507	0.408979	0.172233	0.443766	22.8374	1867.47	4434.42	4811.6	-67.1626	0.0000000E+000	0.0000000E+000	0.0000000E+000	67.1626	0.0000000E+000	0.0000000E+000	0.0000000E+000	-67.1626	0.0000000E+000	0.0000000E+000	0.0000000E+000	-22.8374	0.0000000E+000	0.0000000E+000	0.0000000E+000	22.8374	2.37456	67.1626	5.91777e-06	1.46719e-05	-2.7999e-08	1.46999e-05	0.241572	3962.34	7.56148	3969.9
10002.2	2.27959	0.982991	2.48249	-23.3264	4.43655	0.241085	0.0579839	16.1873	2.53803	1	9	0.00491509	0.0019799	0	7.89104e-05	-0.000326596	6.46526e-06	-46.2934	0.00326545	0.00225631	0.00236056	-23.3558	2.4855	2.28184	0.985352	0.369896	0.159504	0.402821	23.3264	2538.03	5885.76	6409.66	-66.6736	0.0000000E+000	0.0000000E+000	0.0000000E+000	66.6736	0.0000000E+000	0.0000000E+000	0.0000000E+000	-66.6736	0.0000000E+000	0.0000000E+000	0.0000000E+000	-23.3264	0.0000000E+000	0.0000000E+000	0.0000000E+000	23.3264	2.31903	66.6736	5.71269e-06	1.3979e-05	-1.89373e-08	1.3998e-05	0.241412	4157.8	5.63254	4163.43
6810.42	2.48804	1.09934	2.72009	-23.8382	4.69556	0.241088	0.0525102	21.2577	3.47225	1	9	0.00466865	0.00171636	0	8.3907e-05	-0.000154917	1.02713e-05	-134.656	0.00598435	-0.00420608	0.00425691	-23.9561	2.71797	2.48383	1.10359	0.336272	0.148581	0.367635	23.8382	3472.25	7858.46	8591.38	-66.1618	0.0000000E+000	0.0000000E+000	0.0000000E+000	66.1618	0.0000000E+000	0.0000000E+000	0.0000000E+000	-66.1618	0.0000000E+000	0.0000000E+000	0.0000000E+000	-23.8382	0.0000000E+000	0.0000000E+000	0.0000000E+000	23.8382	2.26322	66.1618	4.99655e-06	1.26596e-05	-8.13474e-09	1.26677e-05	0.241243	4591.26	2.95024	4594.21
4646	2.74969	1.23359	3.01373	-24.1624	4.96063	0.24106	0.0437597	27.7695	4.65269	1	9	0.00454444	0.00150791	0	8.74395e-05	-0.000116767	1.0477e-05	49.1889	0.00694801	0.00454099	-0.00525872	-24.0359	3.01573	2.75423	1.22833	0.302744	0.13582	0.331815	24.1624	4652.69	10370.9	11366.8	-65.8376	0.0000000E+000	0.0000000E+000	0.0000000E+000	65.8376	0.0000000E+000	0.0000000E+000	0.0000000E+000	-65.8376	0.0000000E+000	0.0000000E+000	0.0000000E+000	-24.1624	0.0000000E+000	0.0000000E+000	0.0000000E+000	24.1624	2.22901	65.8376	3.53247e-06	1.05487e-05	-5.10967e-09	1.05538e-05	0.241177	5508.74	2.66836	5511.4
3163.08	3.0303	1.41476	3.34429	-25.0264	5.51063	0.240895	-0.00308332	35.5655	6.36478	1	9	0.00497899	0.0014888	0	8.86915e-05	1.67614e-05	7.34174e-06	-38.4612	0.0049313	0.00386136	0.00306719	-25.046	3.34909	3.03417	1.41782	0.270943	0.126495	0.299017	25.0264	6364.78	13632.9	15045.5	-64.9736	0.0000000E+000	0.0000000E+000	0.0000000E+000	64.9736	0.0000000E+000	0.0000000E+000	0.0000000E+000	-64.9736	0.0000000E+000	0.0000000E+000	0.0000000E+000	-25.0264	0.0000000E+000	0.0000000E+000	0.0000000E+000	25.0264	2.14193	64.9736	1.252e-06	-7.42757e-07	-5.16806e-11	-7.42705e-07	0.240879	78128.7	5.43615	78123.2
2155.69	3.36392	1.62024	3.73379	-25.7179	6.20677	0.240999	-0.00774258	45.5673	8.58054	1	10	0.00509386	0.00136426	0	9.11857e-05	-0.000441049	6.50744e-06	15.2041	0.00476994	0.00460298	-0.00125096	-25.67	3.73739	3.36853	1.61899	0.241294	0.11622	0.267824	25.7179	8580.54	17814.8	19773.5	-64.2821	0.0000000E+000	0.0000000E+000	0.0000000E+000	64.2821	0.0000000E+000	0.0000000E+000	0.0000000E+000	-64.2821	0.0000000E+000	0.0000000E+000	0.0000000E+000	-25.7179	0.0000000E+000	0.0000000E+000	0.0000000E+000	25.7179	2.07618	64.2821	2.4942e-06	-1.86595e-06	3.41485e-09	-1.86936e-06	0.24144	31126.4	56.9641	31183.4
1468.59	3.70845	1.87476	4.1554	-26.8183	6.65802	0.240996	-0.00737775	57.8062	11.7663	1	10	0.00501606	0.00120712	0	9.1302e-05	-0.000231219	2.99526e-06	-82.5798	0.00248133	0.000320454	0.00246055	-26.8466	4.15679	3.70877	1.87722	0.214767	0.108573	0.240651	26.8183	11766.3	23274.9	26080	-63.1817	0.0000000E+000	0.0000000E+000	0.0000000E+000	63.1817	0.0000000E+000	0.0000000E+000	0.0000000E+000	-63.1817	0.0000000E+000	0.0000000E+000	0.0000000E+000	-26.8183	0.0000000E+000	0.0000000E+000	0.0000000E+000	26.8183	1.97809	63.1817	1.16362e-07	-1.77801e-06	1.70588e-09	-1.77971e-06	0.241227	32665.2	31.3401	32696.5
1000.32	4.11553	2.17593	4.65534	-27.8659	7.10882	0.240998	-0.00741126	73.1201	15.9743	1	10	0.00497404	0.00106846	0	9.08549e-05	-0.000383823	1.31107e-05	-27.3011	0.0122707	0.0109039	0.00562816	-27.8644	4.66761	4.12643	2.18155	0.189899	0.100402	0.214807	27.8659	15974.3	30213.7	34176.7	-62.1341	0.0000000E+000	0.0000000E+000	0.0000000E+000	62.1341	0.0000000E+000	0.0000000E+000	0.0000000E+000	-62.1341	0.0000000E+000	0.0000000E+000	0.0000000E+000	-27.8659	0.0000000E+000	0.0000000E+000	0.0000000E+000	27.8659	1.89139	62.1341	-4.47092e-07	-1.7861e-06	2.84461e-09	-1.78894e-06	0.241382	32517.8	51.7891	32569.6
681.09	4.53117	2.57398	5.21123	-29.5992	7.55952	0.241006	-0.00814092	90.7843	22.1483	1	10	0.0049204	0.000944193	0	9.04522e-05	-0.000135842	4.77512e-06	39.3529	0.00505736	0.00391063	-0.00320685	-29.5473	5.21305	4.53508	2.57077	0.166852	0.0947819	0.191893	29.5992	22148.3	38989.4	44841.1	-60.4008	0.0000000E+000	0.0000000E+000	0.0000000E+000	60.4008	0.0000000E+000	0.0000000E+000	0.0000000E+000	-60.4008	0.0000000E+000	0.0000000E+000	0.0000000E+000	-29.5992	0.0000000E+000	0.0000000E+000	0.0000000E+000	29.5992	1.76038	60.4008	-4.02743e-07	-1.96201e-06	1.10588e-09	-1.96312e-06	0.241142	29604.3	16.6863	29620.9
463.961	5.05777	3.10652	5.93561	-31.5586	8.01135	0.241002	-0.00753039	110.424	30.247	1	10	0.00490196	0.000825856	0	8.93293e-05	0.000150289	7.09604e-06	-22.8521	0.00859235	0.00791794	0.00333687	-31.546	5.94411	5.06569	3.10986	0.143558	0.0881745	0.168475	31.5586	30247	49245.5	57792.7	-58.4414	0.0000000E+000	0.0000000E+000	0.0000000E+000	58.4414	0.0000000E+000	0.0000000E+000	0.0000000E+000	-58.4414	0.0000000E+000	0.0000000E+000	0.0000000E+000	-31.5586	0.0000000E+000	0.0000000E+000	0.0000000E+000	31.5586	1.62811	58.4414	-1.1229e-06	-1.81484e-06	-1.13174e-09	-1.81371e-06	0.240851	32003.9	19.9577	31983.9
316.316	5.76711	3.80546	6.90949	-33.4191	8.45903	0.240991	-0.00816326	132.218	40.1064	1	10	0.00489095	0.00070786	0	8.88214e-05	-0.000364747	1.33671e-05	45.7152	0.0188838	0.0131852	-0.0135185	-33.2654	6.91308	5.78029	3.79194	0.1208	0.0797104	0.144728	33.4191	40106.4	60780.6	72820.4	-56.5809	0.0000000E+000	0.0000000E+000	0.0000000E+000	56.5809	0.0000000E+000	0.0000000E+000	0.0000000E+000	-56.5809	0.0000000E+000	0.0000000E+000	0.0000000E+000	-33.4191	0.0000000E+000	0.0000000E+000	0.0000000E+000	33.4191	1.51548	56.5809	-5.07847e-07	-1.96727e-06	2.97753e-09	-1.97025e-06	0.241356	29521.4	44.6815	29566.1
215.345	6.71161	4.62556	8.15116	-34.5742	8.90854	0.241001	-0.00767558	159.78	51.4531	1	10	0.00486476	0.000596818	0	8.85935e-05	-0.000288445	9.01659e-06	-10.3518	0.0151078	0.0148619	0.00271475	-34.5307	8.16494	6.72647	4.62828	0.101015	0.0696186	0.122682	34.5742	51453.1	74657.5	90670.6	-55.4258	0.0000000E+000	0.0000000E+000	0.0000000E+000	55.4258	0.0000000E+000	0.0000000E+000	0.0000000E+000	-55.4258	0.0000000E+000	0.0000000E+000	0.0000000E+000	-34.5742	0.0000000E+000	0.0000000E+000	0.0000000E+000	34.5742	1.45098	55.4258	-2.27983e-07	-1.84982e-06	2.21399e-09	-1.85204e-06	0.241289	31398.4	37.5796	31435.9
146.737	8.0838	5.4993	9.77702	-34.2269	9.35454	0.240997	-0.00897855	197.229	62.3985	1	10	0.00487052	0.00049816	0	8.8399e-05	9.3063e-05	6.87271e-06	52.0992	0.0137962	0.00847493	-0.0108862	-34.1463	9.77791	8.09227	5.48841	0.0845673	0.05753	0.102281	34.2269	62398.5	91723.8	110936	-55.7731	0.0000000E+000	0.0000000E+000	0.0000000E+000	55.7731	0.0000000E+000	0.0000000E+000	0.0000000E+000	-55.7731	0.0000000E+000	0.0000000E+000	0.0000000E+000	-34.2269	0.0000000E+000	0.0000000E+000	0.0000000E+000	34.2269	1.46997	55.7731	-1.94439e-07	-2.1638e-06	-8.35572e-10	-2.16297e-06	0.240904	26841.4	10.365	26831
100.032	9.78863	6.19774	11.5857	-32.3402	9.80585	0.240998	-0.00798086	256.713	73.4628	1	10	0.00485755	0.00041927	0	8.68672e-05	-7.86157e-05	6.35874e-06	-12.873	0.0151662	0.014785	0.00337888	-32.3153	11.6	9.80341	6.20112	0.0729247	0.0461728	0.0863131	32.3402	73462.8	116026	137328	-57.6598	0.0000000E+000	0.0000000E+000	0.0000000E+000	57.6598	0.0000000E+000	0.0000000E+000	0.0000000E+000	-57.6598	0.0000000E+000	0.0000000E+000	0.0000000E+000	-32.3402	0.0000000E+000	0.0000000E+000	0.0000000E+000	32.3402	1.57939	57.6598	-1.53177e-06	-1.92337e-06	6.27421e-10	-1.924e-06	0.241077	30197.1	9.85054	30206.9
68.104	11.8277	6.5468	13.5187	-28.9652	10.2685	0.241014	-0.00639124	356.959	83.7158	1	10	0.00485141	0.000358867	0	8.58476e-05	-0.000116767	1.08981e-05	-77.2949	0.030368	0.00667894	0.0296244	-29.0612	13.5389	11.8344	6.57642	0.0647189	0.0358228	0.0739717	28.9652	83715.8	151244	172867	-61.0348	0.0000000E+000	0.0000000E+000	0.0000000E+000	61.0348	0.0000000E+000	0.0000000E+000	0.0000000E+000	-61.0348	0.0000000E+000	0.0000000E+000	0.0000000E+000	-28.9652	0.0000000E+000	0.0000000E+000	0.0000000E+000	28.9652	1.80664	61.0348	-1.0196e-06	-1.54038e-06	7.46283e-10	-1.54112e-06	0.24113	37710	18.2698	37728.3
46.4415	13.9326	6.33716	15.3061	-24.4581	10.7046	0.240995	-0.0108064	540.778	92.6998	1	10	0.00485709	0.00031733	0	8.47988e-05	-0.000173993	7.9496e-06	25.8343	0.0250515	0.0225478	-0.0109167	-24.3861	15.3221	13.9551	6.32624	0.0594706	0.0270499	0.0653334	24.4581	92699.8	203806	223897	-65.5419	0.0000000E+000	0.0000000E+000	0.0000000E+000	65.5419	0.0000000E+000	0.0000000E+000	0.0000000E+000	-65.5419	0.0000000E+000	0.0000000E+000	0.0000000E+000	-24.4581	0.0000000E+000	0.0000000E+000	0.0000000E+000	24.4581	2.19856	65.5419	-1.04886e-06	-2.60429e-06	1.88024e-09	-2.60617e-06	0.241169	22301.1	16.1009	22317.2
31.6296	15.772	5.86213	16.8262	-20.3891	11.1346	0.240995	-0.0129954	858.365	104.187	1	10	0.00485803	0.000288719	0	8.33416e-05	-0.000364747	4.5819e-06	-4.47904	0.0158698	0.0158213	0.00123934	-20.3743	16.8414	15.7878	5.86336	0.0557078	0.0207054	0.0594312	20.3891	104187	280313	299049	-69.6109	0.0000000E+000	0.0000000E+000	0.0000000E+000	69.6109	0.0000000E+000	0.0000000E+000	0.0000000E+000	-69.6109	0.0000000E+000	0.0000000E+000	0.0000000E+000	-20.3891	0.0000000E+000	0.0000000E+000	0.0000000E+000	20.3891	2.69049	69.6109	-1.45718e-06	-3.13184e-06	4.74004e-09	-3.13658e-06	0.24136	18544.7	28.0674	18572.7
21.5517	17.3227	5.08206	18.0528	-16.3504	11.7875	0.241045	0.000741453	1453.11	115.156	1	11	0.00485211	0.000268773	0	8.21582e-05	1.67614e-05	6.40835e-06	-50.87	0.023843	0.0150469	0.0184954	-16.3932	18.0725	17.3378	5.10055	0.0531528	0.0155937	0.055393	16.3504	115156	392523	409066	-73.6496	0.0000000E+000	0.0000000E+000	0.0000000E+000	73.6496	0.0000000E+000	0.0000000E+000	0.0000000E+000	-73.6496	0.0000000E+000	0.0000000E+000	0.0000000E+000	-16.3504	0.0000000E+000	0.0000000E+000	0.0000000E+000	16.3504	3.4086	73.6496	-1.1834e-06	1.78723e-07	1.24278e-11	1.78711e-07	0.241028	325098	22.6061	325075
14.6852	18.4836	4.34053	18.9864	-13.2154	12.2481	0.241055	0.00131696	2496.89	130.496	1	11	0.00485444	0.00025568	0	8.11966e-05	7.39876e-05	5.07014e-06	-32.4292	0.0198301	0.0167377	0.010634	-13.2351	19.0051	18.5003	4.35116	0.0512744	0.0120408	0.0526692	13.2154	130496	555703	570819	-76.7846	0.0000000E+000	0.0000000E+000	0.0000000E+000	76.7846	0.0000000E+000	0.0000000E+000	0.0000000E+000	-76.7846	0.0000000E+000	0.0000000E+000	0.0000000E+000	-13.2154	0.0000000E+000	0.0000000E+000	0.0000000E+000	13.2154	4.25838	76.7846	-9.61556e-07	3.1746e-07	9.74386e-11	3.17362e-07	0.240981	183040	56.1807	182983
10.0032	19.3385	3.65953	19.6817	-10.7157	12.6988	0.24104	0.000997895	4347.67	150.307	1	11	0.00484557	0.000246196	0	8.15447e-05	-0.000116767	9.31947e-06	8.63721	0.0378538	0.0374245	-0.00568479	-10.6792	19.7174	19.3759	3.65384	0.0499226	0.00944711	0.0508086	10.7157	150307	794288	808385	-79.2843	0.0000000E+000	0.0000000E+000	0.0000000E+000	79.2843	0.0000000E+000	0.0000000E+000	0.0000000E+000	-79.2843	0.0000000E+000	0.0000000E+000	0.0000000E+000	-10.7157	0.0000000E+000	0.0000000E+000	0.0000000E+000	10.7157	5.28443	79.2843	3.48031e-07	2.40533e-07	-1.16521e-10	2.4065e-07	0.241157	241549	117.013	241666
6.81719	20.057	3.1124	20.2971	-8.82067	13.0385	0.241054	0.00154545	7501.01	176.378	1	11	0.00484999	0.00023895	0	8.04076e-05	-0.000135842	3.99561e-06	7.23461	0.0167215	0.0165884	-0.00210578	-8.80762	20.3131	20.0736	3.11029	0.0486855	0.0075549	0.0492682	8.82067	176378	1.13662e+06	1.15022e+06	-81.1793	0.0000000E+000	0.0000000E+000	0.0000000E+000	81.1793	0.0000000E+000	0.0000000E+000	0.0000000E+000	-81.1793	0.0000000E+000	0.0000000E+000	0.0000000E+000	-8.82067	0.0000000E+000	0.0000000E+000	0.0000000E+000	8.82067	6.44423	81.1793	-1.1371e-06	3.72536e-07	-2.09936e-10	3.72746e-07	0.24119	155977	87.8983	156065
4.63925	20.6144	2.75267	20.7974	-7.6058	13.5225	0.24103	0.000949812	12462.9	218.328	1	11	0.00484663	0.000233041	0	8.3072e-05	0.000283817	2.47994e-05	67.2805	0.106417	0.0411004	-0.0981596	-7.32315	20.8254	20.6555	2.65451	0.04766	0.00636411	0.048083	7.6058	218328	1.63503e+06	1.64954e+06	-82.3942	0.0000000E+000	0.0000000E+000	0.0000000E+000	82.3942	0.0000000E+000	0.0000000E+000	0.0000000E+000	-82.3942	0.0000000E+000	0.0000000E+000	0.0000000E+000	-7.6058	0.0000000E+000	0.0000000E+000	0.0000000E+000	7.6058	7.48887	82.3942	2.66444e-06	2.28934e-07	2.69573e-10	2.28664e-07	0.240747	253766	298.814	253468
3.1604	21.1558	2.3097	21.2815	-6.23064	14.2154	0.241053	0.00180543	21803.3	256.821	1	11	0.00485566	0.000228164	0	8.47814e-05	7.39876e-05	3.09597e-06	81.4429	0.0135691	0.002019	-0.013418	-6.19414	21.282	21.1578	2.29628	0.0467117	0.00509979	0.0469892	6.23064	256821	2.35236e+06	2.36634e+06	-83.7694	0.0000000E+000	0.0000000E+000	0.0000000E+000	83.7694	0.0000000E+000	0.0000000E+000	0.0000000E+000	-83.7694	0.0000000E+000	0.0000000E+000	0.0000000E+000	-6.23064	0.0000000E+000	0.0000000E+000	0.0000000E+000	6.23064	9.15953	83.7694	1.70943e-06	4.35204e-07	1.33579e-10	4.35071e-07	0.240979	133516	40.9806	133475
2.15577	21.5779	2.06992	21.677	-5.47949	15.219	0.24105	0.00229465	35666.8	325.219	1	11	0.00485333	0.000223893	0	8.27819e-05	-0.000154917	2.76709e-06	-111.577	0.012359	-0.00454499	0.0114929	-5.51088	21.6735	21.5734	2.08141	0.0459211	0.00440511	0.0461319	5.47949	325218	3.39024e+06	3.4058e+06	-84.5205	0.0000000E+000	0.0000000E+000	0.0000000E+000	84.5205	0.0000000E+000	0.0000000E+000	0.0000000E+000	-84.5205	0.0000000E+000	0.0000000E+000	0.0000000E+000	-5.47949	0.0000000E+000	0.0000000E+000	0.0000000E+000	5.47949	10.4245	84.5205	-1.99955e-06	5.53123e-07	-3.55481e-10	5.53479e-07	0.241204	105049	67.5126	105116
1.46631	21.9558	1.85327	22.0339	-4.82484	16.6804	0.241057	0.00238169	58567.4	414.333	1	11	0.00485705	0.000220435	0	7.85429e-05	-0.000460124	2.67689e-06	46.8322	0.0121437	0.00830793	-0.00885702	-4.80008	22.0415	21.9642	1.84441	0.0452237	0.00381729	0.0453846	4.82484	414333	4.90864e+06	4.92609e+06	-85.1752	0.0000000E+000	0.0000000E+000	0.0000000E+000	85.1752	0.0000000E+000	0.0000000E+000	0.0000000E+000	-85.1752	0.0000000E+000	0.0000000E+000	0.0000000E+000	-4.82484	0.0000000E+000	0.0000000E+000	0.0000000E+000	4.82484	11.8471	85.1752	-4.23902e-06	5.74123e-07	-1.09587e-09	5.75219e-07	0.241518	101213	193.193	101406
1.00006	22.3154	1.73574	22.3828	-4.44762	19.8538	0.241048	0.000974189	91687.2	551.375	1	12	0.00485671	0.000216984	0	7.61499e-05	-0.000326596	3.51349e-06	20.7881	0.0161924	0.0151382	-0.00574689	-4.42996	22.3974	22.3305	1.72999	0.0445426	0.00346461	0.0446772	4.44762	551375	7.08873e+06	7.11014e+06	-85.5524	0.0000000E+000	0.0000000E+000	0.0000000E+000	85.5524	0.0000000E+000	0.0000000E+000	0.0000000E+000	-85.5524	0.0000000E+000	0.0000000E+000	0.0000000E+000	-4.44762	0.0000000E+000	0.0000000E+000	0.0000000E+000	4.44762	12.8564	85.5524	-2.39293e-06	2.34827e-07	-3.18166e-10	2.35145e-07	0.241375	247435	335.249	247770
0.681362	22.6243	1.71827	22.6895	-4.34315	22.966	0.241046	0.000193476	135941	779.621	1	12	0.00485551	0.000213998	0	8.037e-05	-2.31406e-06	1.47561e-05	-107.7	0.0689545	-0.0209648	0.0656902	-4.51268	22.6737	22.6034	1.78396	0.0439467	0.00333766	0.0440733	4.34315	779622	1.02652e+07	1.02948e+07	-85.6568	0.0000000E+000	0.0000000E+000	0.0000000E+000	85.6568	0.0000000E+000	0.0000000E+000	0.0000000E+000	-85.6568	0.0000000E+000	0.0000000E+000	0.0000000E+000	-4.34315	0.0000000E+000	0.0000000E+000	0.0000000E+000	4.34315	13.1669	85.6568	4.22002e-06	4.66366e-08	-4.47714e-13	4.6637e-08	0.241048	1.24587e+06	11.9604	1.24588e+06
0.464091	22.9107	1.67424	22.9718	-4.17957	27.5225	0.241047	-0.000413363	204833	1088.04	1	12	0.00485482	0.000211339	0	9.2714e-05	-4.04649e-05	2.94982e-06	34.3628	0.0139578	0.0115219	-0.00787821	-4.15789	22.9827	22.9222	1.66636	0.0434159	0.0031727	0.0435317	4.17957	1.08805e+06	1.4889e+07	1.49287e+07	-85.8204	0.0000000E+000	0.0000000E+000	0.0000000E+000	85.8204	0.0000000E+000	0.0000000E+000	0.0000000E+000	-85.8204	0.0000000E+000	0.0000000E+000	0.0000000E+000	-4.17957	0.0000000E+000	0.0000000E+000	0.0000000E+000	4.17957	13.6842	85.8204	1.2344e-05	-9.964e-08	1.67267e-11	-9.96568e-08	0.241088	583138	97.892	583235
0.316193	23.2082	1.75723	23.2747	-4.32993	34.1971	0.241049	-0.000272206	286444	1632.78	1	12	0.00485629	0.000208651	0	0.000109931	-0.000116767	1.01777e-06	-0.918663	0.00487784	0.00487721	7.82064e-05	-4.32922	23.2795	23.2131	1.75731	0.0428425	0.00324385	0.0429652	4.32993	1.63279e+06	2.15647e+07	2.16264e+07	-85.6701	0.0000000E+000	0.0000000E+000	0.0000000E+000	85.6701	0.0000000E+000	0.0000000E+000	0.0000000E+000	-85.6701	0.0000000E+000	0.0000000E+000	0.0000000E+000	-4.32993	0.0000000E+000	0.0000000E+000	0.0000000E+000	4.32993	13.2073	85.6701	1.72169e-05	-6.5615e-08	3.17846e-11	-6.56468e-08	0.241166	885538	428.964	885967
0.215268	23.4414	1.95949	23.5231	-4.77832	43.9905	0.241056	5.54932e-05	377309	2618.15	1	12	0.00485869	0.00020655	0	0.000120908	-0.000212144	1.71957e-06	24.2612	0.00832521	0.00758994	-0.0034208	-4.76848	23.5304	23.449	1.95607	0.0423636	0.00354122	0.0425113	4.77832	2.61815e+06	3.13209e+07	3.14301e+07	-85.2217	0.0000000E+000	0.0000000E+000	0.0000000E+000	85.2217	0.0000000E+000	0.0000000E+000	0.0000000E+000	-85.2217	0.0000000E+000	0.0000000E+000	0.0000000E+000	-4.77832	0.0000000E+000	0.0000000E+000	0.0000000E+000	4.77832	11.963	85.2217	1.09768e-05	1.3377e-08	-1.17725e-11	1.33887e-08	0.241268	4.34388e+06	3822.87	4.3477e+06
0.146929	23.5379	2.27367	23.6475	-5.51744	58.329	0.241056	0.00458463	476415	4404.25	1	12	0.0048553	0.00020532	0	0.000123006	-0.000460124	2.3862e-06	33.4227	0.0116218	0.00969993	-0.00640144	-5.49975	23.6565	23.5476	2.26727	0.0420919	0.00406592	0.0422878	5.51744	4.40425e+06	4.55944e+07	4.58066e+07	-84.4826	0.0000000E+000	0.0000000E+000	0.0000000E+000	84.4826	0.0000000E+000	0.0000000E+000	0.0000000E+000	-84.4826	0.0000000E+000	0.0000000E+000	0.0000000E+000	-5.51744	0.0000000E+000	0.0000000E+000	0.0000000E+000	5.51744	10.3524	84.4826	2.09871e-06	1.10515e-06	-2.1095e-09	1.10726e-06	0.241516	52579.2	100.362	52679.5
0.0999041	24.1659	3.03661	24.3559	-7.16206	79.4061	0.241058	-0.000445385	524624	8154.86	1	12	0.00485512	0.000199341	0	7.77309e-05	-0.000421973	2.34643e-06	28.4649	0.011771	0.010348	-0.00561028	-7.14594	24.3655	24.1762	3.031	0.0407374	0.00511893	0.0410578	7.16206	8.15486e+06	6.48979e+07	6.54082e+07	-82.8379	0.0000000E+000	0.0000000E+000	0.0000000E+000	82.8379	0.0000000E+000	0.0000000E+000	0.0000000E+000	-82.8379	0.0000000E+000	0.0000000E+000	0.0000000E+000	-7.16206	0.0000000E+000	0.0000000E+000	0.0000000E+000	7.16206	7.95819	82.8379	-4.52754e-05	-1.07364e-07	1.87941e-10	-1.07552e-07	0.24148	541235	947.434	542182
0.0680626	24.548	3.75411	24.8334	-8.69483	110.334	0.241059	-0.00135354	622880	14234.6	1	12	0.00485373	0.000195451	0	-8.23485e-06	1.67614e-05	1.63652e-06	-5.30223	0.00837301	0.00833718	0.000773745	-8.69369	24.8418	24.5564	3.75489	0.0398055	0.00608742	0.0402683	8.69483	1.42346e+07	9.30796e+07	9.41618e+07	-81.3052	0.0000000E+000	0.0000000E+000	0.0000000E+000	81.3052	0.0000000E+000	0.0000000E+000	0.0000000E+000	-81.3052	0.0000000E+000	0.0000000E+000	0.0000000E+000	-8.69483	0.0000000E+000	0.0000000E+000	0.0000000E+000	8.69483	6.53897	81.3052	-8.59658e-05	-3.26284e-07	-2.26872e-11	-3.26261e-07	0.241042	178095	12.3833	178083
0.0464052	25.2458	4.84659	25.7068	-10.8672	155.684	0.241059	-0.00345567	707648	25153.2	1	12	0.00485427	0.000188832	0	-0.000142882	-0.000345672	1.79728e-06	5.10866	0.00951784	0.00948003	-0.000847516	-10.8614	25.716	25.2553	4.84574	0.0382026	0.00733398	0.0389002	10.8672	2.51532e+07	1.31023e+08	1.33415e+08	-79.1328	0.0000000E+000	0.0000000E+000	0.0000000E+000	79.1328	0.0000000E+000	0.0000000E+000	0.0000000E+000	-79.1328	0.0000000E+000	0.0000000E+000	0.0000000E+000	-10.8672	0.0000000E+000	0.0000000E+000	0.0000000E+000	10.8672	5.20899	79.1328	-0.000134647	-8.33019e-07	1.19453e-09	-8.34214e-07	0.241405	69757.6	100.03	69857.6
0.0315922	26.1605	6.5135	26.9592	-13.9813	222.29	0.241058	-0.00526724	773439	45148.3	1	12	0.00485686	0.000180156	0	-0.000282733	-0.000116767	2.50336e-06	14.4942	0.0138955	0.0134533	-0.0034778	-13.9673	26.9714	26.1739	6.51002	0.0359942	0.00896192	0.0370931	13.9813	4.51483e+07	1.81331e+08	1.86867e+08	-76.0187	0.0000000E+000	0.0000000E+000	0.0000000E+000	76.0187	0.0000000E+000	0.0000000E+000	0.0000000E+000	-76.0187	0.0000000E+000	0.0000000E+000	0.0000000E+000	-13.9813	0.0000000E+000	0.0000000E+000	0.0000000E+000	13.9813	4.01635	76.0187	-0.000139851	-1.26971e-06	6.15038e-10	-1.27033e-06	0.241175	45765.6	22.1685	45787.8
0.0215268	27.1304	8.71424	28.4956	-17.8069	320.027	0.241059	-0.00679899	848422	79344.3	1	12	0.00485796	0.000170481	0	-0.000357948	-0.000498275	1.88594e-06	-26.4638	0.0110624	0.00990328	0.00492978	-17.8103	28.5065	27.1403	8.71917	0.0334119	0.0107318	0.0350932	17.8069	7.93443e+07	2.47026e+08	2.59456e+08	-72.1931	0.0000000E+000	0.0000000E+000	0.0000000E+000	72.1931	0.0000000E+000	0.0000000E+000	0.0000000E+000	-72.1931	0.0000000E+000	0.0000000E+000	0.0000000E+000	-17.8069	0.0000000E+000	0.0000000E+000	0.0000000E+000	17.8069	3.11334	72.1931	-7.52154e-05	-1.63896e-06	3.38777e-09	-1.64234e-06	0.241557	35455.1	73.2866	35528.4
0.0146812	28.589	11.3463	30.7583	-21.647	463.33	0.241061	-0.00676954	955440	130014	1	12	0.00485351	0.000157795	0	-0.000331101	-0.000154917	1.14124e-06	36.8146	0.00723244	0.00579014	-0.00433388	-21.6355	30.7621	28.5948	11.342	0.0302187	0.0119931	0.0325116	21.647	1.30014e+08	3.27593e+08	3.5245e+08	-68.353	0.0000000E+000	0.0000000E+000	0.0000000E+000	68.353	0.0000000E+000	0.0000000E+000	0.0000000E+000	-68.353	0.0000000E+000	0.0000000E+000	0.0000000E+000	-21.647	0.0000000E+000	0.0000000E+000	0.0000000E+000	21.647	2.51967	68.353	2.68473e-05	-1.63187e-06	1.04872e-09	-1.63292e-06	0.241216	35609.7	22.8845	35632.6
0.0100092	30.8928	14.7682	34.2413	-25.55	673.513	0.24106	-0.00705186	1.0767e+06	200286	1	12	0.00485621	0.000141823	0	-0.000332908	-0.000250295	3.44763e-06	-11.8176	0.0243094	0.0237941	0.0049785	-25.5403	34.2649	30.9166	14.7732	0.0263486	0.0125959	0.0292045	25.55	2.00286e+08	4.18967e+08	4.64378e+08	-64.45	0.0000000E+000	0.0000000E+000	0.0000000E+000	64.45	0.0000000E+000	0.0000000E+000	0.0000000E+000	-64.45	0.0000000E+000	0.0000000E+000	0.0000000E+000	-25.55	0.0000000E+000	0.0000000E+000	0.0000000E+000	25.55	2.09184	64.45	-1.80724e-06	-1.69992e-06	1.76504e-09	-1.70169e-06	0.24131	34183.9	35.4934	34219.3