File: txt/18392_R277_UA689_SOC00_C02.mpt
EC-Lab ASCII FILE
Nb header lines : 65

Potentio Electrochemical Impedance Spectroscopy

Run on channel : 2 (SN 66139)
User :
CE vs. WE compliance from -10 V to 10 V
Electrode connection : standard
Potential control : Ewe
Ewe ctrl range : min = -10.00 V, max = 10.00 V
Safety Limits :
	Do not start on E overload
Acquisition started on : 10/13/2025 15:08:52.903
Technique started on : 10/13/2025 15:08:54.630
Loaded Setting File :  C:\Users\Celltest\OneDrive - store-dot.com\Documents\EC-Lab\Data\@Biologic Test Protocols\anode half cell EIS SOC00.mps
Saved on :
	File : 18392_R277_UA689_SOC00_C02.mpr
	Directory : C:\Users\Celltest\OneDrive - store-dot.com\Documents\EC-Lab\Data\Gyutae\
	Host : 169.254.61.224
Device : VMP-3e (SN .003165)
Address : USB
EC-LAB for windows v11.62 (software)
Internet server v27.00 (firmware)
Command interpretor v12.03 (firmware)
Electrode material :
Initial state :
Electrolyte :
Comments :
Electrode surface area : 0.001 cm²
Characteristic mass : 0.001 g
Equivalent Weight : 0.000 g/eq.
Density : 0.000 g/cm3
Volume (V) : 0.001 cm³
Record Ece
Cycle Definition : Charge/Discharge alternance
Mode                Single sine
E (V)               0.0000
vs.                 Eoc
tE (h:m:s)          0:00:0.0000
record              0
dI                  0.000
unit dI             mA
dt (s)              0.000
fi                  100.000
unit fi             kHz
ff                  10.000
unit ff             mHz
Nd                  6
Points              per decade
spacing             Logarithmic
Va (mV)             5.0
pw                  0.10
Na                  2
corr                0
E range min (V)     -10.000
E range max (V)     10.000
I Range             Auto
Bandwidth           5
nc cycles           0
goto Ns'            0
nr cycles           0
inc. cycle          0

freq/Hz	Re(Z)/Ohm	-Im(Z)/Ohm	|Z|/Ohm	Phase(Z)/deg	time/s	<Ewe>/V	<I>/mA	Cs/µF	Cp/µF	cycle number	I Range	|Ewe|/V	|I|/A	Ns	(Q-Qo)/mA.h	<Ece>/V	|Ece|/V	Phase(Zce)/deg	|Zce|/Ohm	Re(Zce)/Ohm	-Im(Zce)/Ohm	Phase(Zwe-ce)/deg	|Zwe-ce|/Ohm	Re(Zwe-ce)/Ohm	-Im(Zwe-ce)/Ohm	Re(Y)/Ohm-1	Im(Y)/Ohm-1	|Y|/Ohm-1	Phase(Y)/deg	Re(C)/nF	Im(C)/nF	|C|/nF	Phase(C)/deg	Re(M)	Im(M)	|M|	Phase(M)/deg	Re(Permittivity)	Im(Permittivity)	|Permittivity|	Phase(Permittivity)/deg	Re(Resistivity)/Ohm.cm	Im(Resistivity)/Ohm.cm	|Resistivity|/Ohm.cm	Phase(Resistivity)/deg	Re(Conductivity)/mS/cm	Im(Conductivity)/mS/cm	|Conductivity|/mS/cm	Phase(Conductivity)/deg	Tan(Delta)	Loss Angle(Delta)/deg	dq/mA.h	Pwe/W	Pce/W	Pwe-ce/W	<Ewe-Ece>/V	Rwe/Ohm	Rce/Ohm	Rwe-ce/Ohm		Ewe-Ece/V
100004	1.08739	0.435831	1.17148	-21.8411	1.72655	0.23607	0.0027585	3.65162	0.505419	1	9	0.00451981	0.0038582	0	-5.59094e-06	0.000133978	2.48403e-05	76.9012	0.0064383	0.00145912	-0.00627078	-21.5297	1.17052	1.08885	0.429561	0.792346	0.317576	0.85362	21.8411	505.419	1261.01	1358.53	-68.1589	0.0000000E+000	0.0000000E+000	0.0000000E+000	68.1589	0.0000000E+000	0.0000000E+000	0.0000000E+000	-68.1589	0.0000000E+000	0.0000000E+000	0.0000000E+000	-21.8411	0.0000000E+000	0.0000000E+000	0.0000000E+000	21.8411	2.49498	68.1589	-5.59094e-06	6.512e-07	3.6958e-10	6.5083e-07	0.235936	85578.9	48.5692	85530.3
68132	1.20656	0.507019	1.30877	-22.793	2.23355	0.236063	-0.00476517	4.60728	0.691464	1	9	0.00506812	0.00387245	0	-4.43139e-06	-5.69301e-05	1.48941e-05	81.1693	0.00384617	0.000590449	-0.00380058	-22.6295	1.30784	1.20716	0.503219	0.704412	0.296006	0.764079	22.793	691.464	1645.49	1784.87	-67.207	0.0000000E+000	0.0000000E+000	0.0000000E+000	67.207	0.0000000E+000	0.0000000E+000	0.0000000E+000	-67.207	0.0000000E+000	0.0000000E+000	0.0000000E+000	-22.793	0.0000000E+000	0.0000000E+000	0.0000000E+000	22.793	2.37972	67.207	1.15954e-06	-1.12488e-06	2.71281e-10	-1.12515e-06	0.23612	49539.2	11.9471	49551.2
46420.4	1.33599	0.560307	1.44873	-22.753	2.74055	0.236055	0.0032427	6.11907	0.915304	1	9	0.00510021	0.00352048	0	-6.27624e-06	5.7615e-05	1.10194e-05	-66.2652	0.00313007	0.00125987	0.00286533	-22.8381	1.451	1.33725	0.563173	0.636546	0.266965	0.690262	22.753	915.304	2182.44	2366.6	-67.247	0.0000000E+000	0.0000000E+000	0.0000000E+000	67.247	0.0000000E+000	0.0000000E+000	0.0000000E+000	-67.247	0.0000000E+000	0.0000000E+000	0.0000000E+000	-22.753	0.0000000E+000	0.0000000E+000	0.0000000E+000	22.753	2.38438	67.247	-1.84485e-06	7.65456e-07	1.86828e-10	7.65269e-07	0.235997	72795.7	17.7676	72777.9
31621.1	1.4704	0.633238	1.60096	-23.2995	3.24755	0.236057	-0.00118957	7.94832	1.24351	1	9	0.00508531	0.00317642	0	-1.15327e-05	0.00017216	1.00137e-05	10.4811	0.0031525	0.0030999	-0.000573476	-23.2369	1.60358	1.4735	0.632665	0.573688	0.247063	0.624626	23.2995	1243.51	2887.47	3143.86	-66.7005	0.0000000E+000	0.0000000E+000	0.0000000E+000	66.7005	0.0000000E+000	0.0000000E+000	0.0000000E+000	-66.7005	0.0000000E+000	0.0000000E+000	0.0000000E+000	-23.2995	0.0000000E+000	0.0000000E+000	0.0000000E+000	23.2995	2.32203	66.7005	-5.2565e-06	-2.80806e-07	-2.04796e-10	-2.80601e-07	0.235885	198439	144.725	198295
21544.7	1.62011	0.698561	1.7643	-23.3248	3.63054	0.236065	0.000151285	10.5749	1.65783	1	9	0.00520625	0.00295089	0	-6.70986e-06	-0.000133293	6.85481e-06	24.8645	0.00232297	0.00210764	-0.000976744	-23.2686	1.76585	1.62222	0.697584	0.520476	0.224419	0.566797	23.3248	1657.83	3844.86	4187.05	-66.6752	0.0000000E+000	0.0000000E+000	0.0000000E+000	66.6752	0.0000000E+000	0.0000000E+000	0.0000000E+000	-66.6752	0.0000000E+000	0.0000000E+000	0.0000000E+000	-23.3248	0.0000000E+000	0.0000000E+000	0.0000000E+000	23.3248	2.31922	66.6752	4.82288e-06	3.5713e-08	-2.01653e-11	3.57332e-08	0.236198	1.5604e+06	881.077	1.56128e+06
14678.6	1.77925	0.776784	1.94142	-23.5851	3.88956	0.236058	-0.0064785	13.9584	2.23457	1	9	0.0047755	0.00245979	0	-5.19652e-06	5.7615e-05	7.27996e-06	-72.5512	0.00295958	0.000887439	0.0028234	-23.6509	1.94337	1.78014	0.779607	0.472059	0.206091	0.515086	23.5851	2234.57	5118.37	5584.9	-66.4149	0.0000000E+000	0.0000000E+000	0.0000000E+000	66.4149	0.0000000E+000	0.0000000E+000	0.0000000E+000	-66.4149	0.0000000E+000	0.0000000E+000	0.0000000E+000	-23.5851	0.0000000E+000	0.0000000E+000	0.0000000E+000	23.5851	2.29054	66.4149	1.51334e-06	-1.5293e-06	-3.73259e-10	-1.52893e-06	0.236001	36437.2	8.89326	36428.3
10002.2	1.95374	0.869365	2.13843	-23.9878	4.27254	0.23605	-0.00428099	18.303	3.02506	1	9	0.00505444	0.00236362	0	-7.15988e-06	9.57967e-05	5.23192e-06	-79.8154	0.00221352	0.000391394	0.00217864	-24.0369	2.13968	1.95413	0.871544	0.427243	0.190112	0.467632	23.9878	3025.06	6798.28	7440.94	-66.0122	0.0000000E+000	0.0000000E+000	0.0000000E+000	66.0122	0.0000000E+000	0.0000000E+000	0.0000000E+000	-66.0122	0.0000000E+000	0.0000000E+000	0.0000000E+000	-23.9878	0.0000000E+000	0.0000000E+000	0.0000000E+000	23.9878	2.24732	66.0122	-1.96336e-06	-1.01053e-06	-4.10105e-10	-1.01012e-06	0.235954	55139.1	22.3772	55116.7
6810.42	2.17624	0.99756	2.39398	-24.6261	4.53155	0.23606	0.00484423	23.4265	4.06765	1	9	0.00487382	0.00203586	0	-7.53343e-06	0.000267614	9.4734e-05	155.865	0.0465326	-0.0424651	-0.0190263	-24.6358	2.34745	2.13378	0.978534	0.379721	0.174059	0.417714	24.6261	4067.65	8873.83	9761.69	-65.3739	0.0000000E+000	0.0000000E+000	0.0000000E+000	65.3739	0.0000000E+000	0.0000000E+000	0.0000000E+000	-65.3739	0.0000000E+000	0.0000000E+000	0.0000000E+000	-24.6261	0.0000000E+000	0.0000000E+000	0.0000000E+000	24.6261	2.18156	65.3739	-3.7355e-07	1.14353e-06	1.29639e-09	1.14223e-06	0.235792	48730.1	55.2439	48674.8
4646	2.33921	1.11416	2.591	-25.4682	4.7996	0.236041	-0.0147471	30.7464	5.68529	1	9	0.00463335	0.00178825	0	-7.75038e-06	-0.000266929	3.46025e-06	49.3146	0.00193499	0.00126143	-0.00146731	-25.4269	2.59151	2.34048	1.11269	0.348446	0.165963	0.385952	25.4682	5685.29	11936.5	13221.3	-64.5318	0.0000000E+000	0.0000000E+000	0.0000000E+000	64.5318	0.0000000E+000	0.0000000E+000	0.0000000E+000	-64.5318	0.0000000E+000	0.0000000E+000	0.0000000E+000	-25.4682	0.0000000E+000	0.0000000E+000	0.0000000E+000	25.4682	2.09954	64.5318	-2.16946e-07	-3.48093e-06	3.93644e-09	-3.48487e-06	0.236308	16005.9	18.1004	16024
3163.08	2.56772	1.30984	2.88251	-27.027	5.17261	0.235863	-0.0575799	38.4141	7.93206	1	9	0.00455132	0.00157894	0	-1.48329e-05	0.000534886	7.38618e-06	110.076	0.00467794	-0.00160581	-0.00439369	-26.9636	2.87909	2.56612	1.30545	0.309033	0.157644	0.346919	27.027	7932.06	15549.5	17455.7	-62.973	0.0000000E+000	0.0000000E+000	0.0000000E+000	62.973	0.0000000E+000	0.0000000E+000	0.0000000E+000	-62.973	0.0000000E+000	0.0000000E+000	0.0000000E+000	-27.027	0.0000000E+000	0.0000000E+000	0.0000000E+000	27.027	1.96033	62.973	-7.08253e-06	-1.3581e-05	-3.07987e-08	-1.35502e-05	0.235328	4096.27	9.28946	4086.98
2155.69	2.80998	1.54235	3.20544	-28.7616	5.83881	0.235966	0.0194074	47.8687	11.0826	1	9	0.00487932	0.0015222	0	-1.02641e-05	0.000191251	7.00447e-06	50.0203	0.00460155	0.00295657	-0.00352604	-28.6809	3.20634	2.81294	1.53882	0.273482	0.150109	0.31197	28.7616	11082.6	20191.2	23032.8	-61.2384	0.0000000E+000	0.0000000E+000	0.0000000E+000	61.2384	0.0000000E+000	0.0000000E+000	0.0000000E+000	-61.2384	0.0000000E+000	0.0000000E+000	0.0000000E+000	-28.7616	0.0000000E+000	0.0000000E+000	0.0000000E+000	28.7616	1.82189	61.2384	4.5688e-06	4.57949e-06	3.71168e-09	4.57578e-06	0.235775	12158.6	9.85455	12148.7
1468.59	3.07932	1.86719	3.60119	-31.2311	6.53505	0.235982	-0.0278122	58.0405	15.6033	1	10	0.00501163	0.00139166	0	-1.13468e-05	0.000343978	1.02033e-05	74.9564	0.00733178	0.00190299	-0.00708051	-31.1191	3.59916	3.08122	1.86011	0.237444	0.143978	0.277686	31.2311	15603.3	25732.5	30093.5	-58.7689	0.0000000E+000	0.0000000E+000	0.0000000E+000	58.7689	0.0000000E+000	0.0000000E+000	0.0000000E+000	-58.7689	0.0000000E+000	0.0000000E+000	0.0000000E+000	-31.2311	0.0000000E+000	0.0000000E+000	0.0000000E+000	31.2311	1.64917	58.7689	-1.0827e-06	-6.56319e-06	-9.56678e-09	-6.55362e-06	0.235638	8484.84	12.3679	8472.47
1000.32	3.39863	2.31683	4.1132	-34.2821	6.98585	0.235978	-0.0290341	68.6731	21.788	1	10	0.00493316	0.00119935	0	-1.40046e-05	0.000286705	1.68933e-05	-71.1604	0.0140853	0.00454843	0.0133307	-34.3995	4.12447	3.40318	2.33016	0.200884	0.136942	0.24312	34.2821	21788	31961.4	38681.4	-55.7179	0.0000000E+000	0.0000000E+000	0.0000000E+000	55.7179	0.0000000E+000	0.0000000E+000	0.0000000E+000	-55.7179	0.0000000E+000	0.0000000E+000	0.0000000E+000	-34.2821	0.0000000E+000	0.0000000E+000	0.0000000E+000	34.2821	1.46693	55.7179	-2.65775e-06	-6.85142e-06	-8.32423e-09	-6.8431e-06	0.235692	8127.63	9.87477	8117.76
681.09	3.825	2.93834	4.82333	-37.5312	7.43554	0.23598	-0.0286169	79.5267	29.5138	1	10	0.00488695	0.00101319	0	-1.82008e-05	0.000382159	1.76616e-06	27.9038	0.00174317	0.0015405	-0.000815782	-37.5124	4.82405	3.82654	2.93753	0.164414	0.126302	0.207326	37.5312	29513.8	38419.7	48447.2	-52.4688	0.0000000E+000	0.0000000E+000	0.0000000E+000	52.4688	0.0000000E+000	0.0000000E+000	0.0000000E+000	-52.4688	0.0000000E+000	0.0000000E+000	0.0000000E+000	-37.5312	0.0000000E+000	0.0000000E+000	0.0000000E+000	37.5312	1.30175	52.4688	-4.19621e-06	-6.753e-06	-1.09362e-08	-6.74207e-06	0.235598	8246.18	13.3543	8232.82
463.961	4.41438	3.74371	5.7881	-40.3003	7.88734	0.235955	-0.0288627	91.6299	38.3326	1	10	0.0048463	0.000837286	0	-2.19134e-05	-3.78392e-05	4.40828e-06	-25.4603	0.00526496	0.00475364	0.00226333	-40.2869	5.79319	4.41914	3.74597	0.131764	0.111745	0.172768	40.3003	38332.6	45199.8	59265.6	-49.6997	0.0000000E+000	0.0000000E+000	0.0000000E+000	49.6997	0.0000000E+000	0.0000000E+000	0.0000000E+000	-49.6997	0.0000000E+000	0.0000000E+000	0.0000000E+000	-40.3003	0.0000000E+000	0.0000000E+000	0.0000000E+000	40.3003	1.17915	49.6997	-3.71261e-06	-6.81031e-06	1.09214e-09	-6.8114e-06	0.235993	8175.07	1.31101	8176.38
316.316	5.28105	4.75925	7.10914	-42.025	8.335	0.235959	-0.0288963	105.721	47.3809	1	10	0.00483029	0.000679448	0	-2.4809e-05	0.000191251	6.44483e-06	56.2703	0.00948538	0.005267	-0.00788868	-41.9493	7.10778	5.28632	4.75136	0.104493	0.0941681	0.140664	42.025	47380.8	52575.7	70775.3	-47.975	0.0000000E+000	0.0000000E+000	0.0000000E+000	47.975	0.0000000E+000	0.0000000E+000	0.0000000E+000	-47.975	0.0000000E+000	0.0000000E+000	0.0000000E+000	-42.025	0.0000000E+000	0.0000000E+000	0.0000000E+000	42.025	1.10964	47.975	-2.8956e-06	-6.81833e-06	-5.52644e-09	-6.8128e-06	0.235767	8165.71	6.61853	8159.09
215.345	6.55543	5.96944	8.86611	-42.3213	8.78559	0.235959	-0.0293619	123.809	56.1246	1	10	0.00481498	0.000543077	0	-2.7711e-05	-0.000152384	4.75463e-06	10.0897	0.00875499	0.00861959	-0.00153379	-42.2765	8.87145	6.56405	5.96791	0.0833941	0.0759394	0.112789	42.3213	56124.6	61634.1	83359.1	-47.6787	0.0000000E+000	0.0000000E+000	0.0000000E+000	47.6787	0.0000000E+000	0.0000000E+000	0.0000000E+000	-47.6787	0.0000000E+000	0.0000000E+000	0.0000000E+000	-42.3213	0.0000000E+000	0.0000000E+000	0.0000000E+000	42.3213	1.09817	47.6787	-2.90208e-06	-6.92821e-06	4.4743e-09	-6.93268e-06	0.236111	8036.21	5.18986	8041.4
146.737	8.34764	7.13774	10.9832	-40.5325	9.2315	0.235968	-0.0282071	151.956	64.1776	1	10	0.00480021	0.000437051	0	-3.11779e-05	0.000114888	7.02411e-06	132.737	0.0160716	-0.0109067	-0.0118043	-40.5226	10.9672	8.33673	7.12594	0.0692001	0.0591703	0.0910482	40.5325	64177.6	75056.1	98753.1	-49.4675	0.0000000E+000	0.0000000E+000	0.0000000E+000	49.4675	0.0000000E+000	0.0000000E+000	0.0000000E+000	-49.4675	0.0000000E+000	0.0000000E+000	0.0000000E+000	-40.5325	0.0000000E+000	0.0000000E+000	0.0000000E+000	40.5325	1.16951	49.4675	-3.46688e-06	-6.65597e-06	-3.24065e-09	-6.65273e-06	0.235853	8365.54	4.073	8361.46
100.032	10.6789	8.01083	13.3496	-36.8755	9.68283	0.23596	-0.0283189	198.611	71.5187	1	10	0.00478707	0.000358592	0	-3.4646e-05	0.000133978	4.3406e-06	-38.3119	0.0121046	0.00949782	0.00750414	-36.8768	13.3617	10.6884	8.01833	0.0599223	0.0449509	0.0749084	36.8755	71518.7	95338.8	119182	-53.1245	0.0000000E+000	0.0000000E+000	0.0000000E+000	53.1245	0.0000000E+000	0.0000000E+000	0.0000000E+000	-53.1245	0.0000000E+000	0.0000000E+000	0.0000000E+000	-36.8755	0.0000000E+000	0.0000000E+000	0.0000000E+000	36.8755	1.33306	53.1245	-3.46806e-06	-6.68212e-06	-3.79412e-09	-6.67832e-06	0.235826	8332.24	4.73106	8327.51
68.104	13.406	8.33016	15.7833	-31.8557	10.1455	0.235975	-0.0246458	280.54	78.1455	1	10	0.00478645	0.00030326	0	-3.77447e-05	0.000248523	5.78783e-06	46.1501	0.0190854	0.0132218	-0.0137636	-31.788	15.7873	13.4193	8.31639	0.053815	0.0334393	0.063358	31.8557	78145.5	125763	148064	-58.1443	0.0000000E+000	0.0000000E+000	0.0000000E+000	58.1443	0.0000000E+000	0.0000000E+000	0.0000000E+000	-58.1443	0.0000000E+000	0.0000000E+000	0.0000000E+000	-31.8557	0.0000000E+000	0.0000000E+000	0.0000000E+000	31.8557	1.60934	58.1443	-3.09872e-06	-5.81579e-06	-6.12506e-09	-5.80966e-06	0.235726	9574.63	10.0838	9564.55
46.4415	16.0464	7.97476	17.9188	-26.4266	10.5826	0.235972	-0.0302448	429.73	85.1167	1	10	0.00478704	0.000267152	0	-4.13883e-05	-7.60209e-05	6.89433e-06	79.2068	0.0258067	0.00483269	-0.0253502	-26.3471	17.9118	16.0512	7.94941	0.0499758	0.0248371	0.0558074	26.4266	85116.7	171267	191252	-63.5734	0.0000000E+000	0.0000000E+000	0.0000000E+000	63.5734	0.0000000E+000	0.0000000E+000	0.0000000E+000	-63.5734	0.0000000E+000	0.0000000E+000	0.0000000E+000	-26.4266	0.0000000E+000	0.0000000E+000	0.0000000E+000	26.4266	2.01214	63.5734	-3.64358e-06	-7.13692e-06	2.29924e-09	-7.13922e-06	0.236048	7802.05	2.51352	7804.57
31.6296	18.3306	7.16601	19.6816	-21.3521	11.2475	0.235996	-0.0139905	702.182	93.0862	1	11	0.00478806	0.000243277	0	-4.48286e-05	-5.69301e-05	7.76281e-06	-139.22	0.0319094	-0.0241625	0.0208419	-21.4342	19.6667	18.3065	7.18685	0.0473215	0.0184994	0.050809	21.3521	93086.2	238114	255663	-68.6479	0.0000000E+000	0.0000000E+000	0.0000000E+000	68.6479	0.0000000E+000	0.0000000E+000	0.0000000E+000	-68.6479	0.0000000E+000	0.0000000E+000	0.0000000E+000	-21.3521	0.0000000E+000	0.0000000E+000	0.0000000E+000	21.3521	2.558	68.6479	-3.44027e-06	-3.3017e-06	7.96479e-10	-3.30249e-06	0.236053	16868.3	4.0692	16872.4
21.5517	20.1163	6.17082	21.0415	-17.0538	11.6685	0.235989	-0.0141355	1196.73	102.927	1	11	0.00479035	0.000227662	0	-4.65008e-05	0.000248523	1.39739e-05	96.2787	0.06138	-0.00671284	-0.0610118	-16.9001	21.0173	20.1096	6.10981	0.0454354	0.0139377	0.0475251	17.0538	102927	335531	350963	-72.9462	0.0000000E+000	0.0000000E+000	0.0000000E+000	72.9462	0.0000000E+000	0.0000000E+000	0.0000000E+000	-72.9462	0.0000000E+000	0.0000000E+000	0.0000000E+000	-17.0538	0.0000000E+000	0.0000000E+000	0.0000000E+000	17.0538	3.2599	72.9462	-1.67224e-06	-3.33583e-06	-3.51301e-09	-3.33232e-06	0.235741	16694.8	17.5815	16677.2
14.6852	21.44	5.21418	22.065	-13.6689	12.1282	0.236001	-0.0133097	2078.53	116.07	1	11	0.00478825	0.000217007	0	-4.82735e-05	1.94333e-05	1.2207e-05	-102.698	0.0562516	-0.0123643	0.0548759	-13.8149	22.066	21.4277	5.26906	0.0440371	0.0107098	0.0453207	13.6689	116070	477266	491177	-76.3311	0.0000000E+000	0.0000000E+000	0.0000000E+000	76.3311	0.0000000E+000	0.0000000E+000	0.0000000E+000	-76.3311	0.0000000E+000	0.0000000E+000	0.0000000E+000	-13.6689	0.0000000E+000	0.0000000E+000	0.0000000E+000	13.6689	4.11187	76.3311	-1.77272e-06	-3.1411e-06	-2.58651e-10	-3.14084e-06	0.235982	17731.6	1.46009	17730.1
10.0032	22.4551	4.41879	22.8857	-11.1326	12.5788	0.236008	-0.0135912	3600.62	134.232	1	11	0.00478673	0.000209158	0	-4.84184e-05	9.57967e-05	7.85379e-06	8.91264	0.0375496	0.0370962	-0.00581749	-11.1004	22.921	22.4922	4.41298	0.0428731	0.00843672	0.0436953	11.1326	134232	682128	695210	-78.8674	0.0000000E+000	0.0000000E+000	0.0000000E+000	78.8674	0.0000000E+000	0.0000000E+000	0.0000000E+000	-78.8674	0.0000000E+000	0.0000000E+000	0.0000000E+000	-11.1326	0.0000000E+000	0.0000000E+000	0.0000000E+000	11.1326	5.08173	78.8674	-1.44921e-07	-3.20762e-06	-1.30199e-09	-3.20632e-06	0.235912	17364.8	7.04845	17357.8
6.81719	23.275	3.72467	23.5711	-9.0919	12.9185	0.236007	-0.0122381	6267.97	156.51	1	11	0.00478254	0.000202898	0	-5.05539e-05	0.000114888	5.8142e-06	23.9616	0.0286557	0.0261861	-0.0116378	-9.05395	23.5951	23.3011	3.71303	0.0418918	0.00670391	0.0424248	9.0919	156510	978011	990455	-80.9081	0.0000000E+000	0.0000000E+000	0.0000000E+000	80.9081	0.0000000E+000	0.0000000E+000	0.0000000E+000	-80.9081	0.0000000E+000	0.0000000E+000	0.0000000E+000	-9.0919	0.0000000E+000	0.0000000E+000	0.0000000E+000	9.0919	6.24886	80.9081	-2.13551e-06	-2.88827e-06	-1.406e-09	-2.88687e-06	0.235892	19284.6	9.38771	19275.2
4.63925	23.9406	3.19107	24.1523	-7.59228	13.4035	0.236008	-0.0126669	10750.7	187.668	1	11	0.00478691	0.000198197	0	-5.36823e-05	0.00040125	4.98392e-06	-104.2	0.0251463	-0.00616873	0.024378	-7.65155	24.1494	23.9344	3.21545	0.0410409	0.0054704	0.0414039	7.59228	187669	1.40796e+06	1.42041e+06	-82.4077	0.0000000E+000	0.0000000E+000	0.0000000E+000	82.4077	0.0000000E+000	0.0000000E+000	0.0000000E+000	-82.4077	0.0000000E+000	0.0000000E+000	0.0000000E+000	-7.59228	0.0000000E+000	0.0000000E+000	0.0000000E+000	7.59228	7.50236	82.4077	-3.12832e-06	-2.98949e-06	-5.08258e-09	-2.9844e-06	0.235607	18632	31.6772	18600.3
3.1604	24.5397	2.88206	24.7084	-6.6984	14.0965	0.23601	-0.0122282	17473.3	237.735	1	11	0.00478688	0.000193735	0	-5.42335e-05	0.00017216	3.7079e-06	-97.869	0.0191391	-0.00262031	0.0189588	-6.74278	24.708	24.5371	2.90102	0.0401958	0.00472079	0.0404721	6.6984	237735	2.02423e+06	2.03814e+06	-83.3016	0.0000000E+000	0.0000000E+000	0.0000000E+000	83.3016	0.0000000E+000	0.0000000E+000	0.0000000E+000	-83.3016	0.0000000E+000	0.0000000E+000	0.0000000E+000	-6.6984	0.0000000E+000	0.0000000E+000	0.0000000E+000	6.6984	8.51464	83.3016	-5.51232e-07	-2.88598e-06	-2.10521e-09	-2.88388e-06	0.235838	19300.5	14.0789	19286.4
2.15577	25.0639	2.58458	25.1969	-5.88749	15.1001	0.236008	-0.0115013	28564.7	300.549	1	11	0.00478707	0.000189987	0	-5.41508e-05	5.7615e-05	2.71941e-06	13.045	0.0143137	0.0139443	-0.00323084	-5.87693	25.2104	25.0779	2.58134	0.0394782	0.00407096	0.0396875	5.88749	300549	2.91457e+06	2.93003e+06	-84.1125	0.0000000E+000	0.0000000E+000	0.0000000E+000	84.1125	0.0000000E+000	0.0000000E+000	0.0000000E+000	-84.1125	0.0000000E+000	0.0000000E+000	0.0000000E+000	-5.88749	0.0000000E+000	0.0000000E+000	0.0000000E+000	5.88749	9.69751	84.1125	8.26684e-08	-2.7144e-06	-6.62649e-10	-2.71374e-06	0.23595	20520.1	5.00942	20515
1.46631	25.5832	2.3922	25.6948	-5.342	16.5613	0.23601	-0.0105177	45373	393.28	1	11	0.00478737	0.000186317	0	-5.72806e-05	0.000153069	3.51773e-06	38.2932	0.0188804	0.0148183	-0.0116999	-5.31296	25.7084	25.598	2.3805	0.0387494	0.00362332	0.0389184	5.342	393280	4.2059e+06	4.22425e+06	-84.658	0.0000000E+000	0.0000000E+000	0.0000000E+000	84.658	0.0000000E+000	0.0000000E+000	0.0000000E+000	-84.658	0.0000000E+000	0.0000000E+000	0.0000000E+000	-5.342	0.0000000E+000	0.0000000E+000	0.0000000E+000	5.342	10.6944	84.658	-3.12974e-06	-2.48229e-06	-1.60994e-09	-2.48068e-06	0.235857	22439.2	14.5534	22424.7
1.00006	26.0436	2.28467	26.1436	-5.01342	19.7347	0.236011	-0.00974798	69657.7	531.966	1	12	0.0047894	0.000183196	0	-6.98129e-05	0.000324887	6.07576e-06	9.0504	0.0331654	0.0327525	-0.00521702	-4.99578	26.1758	26.0764	2.27945	0.0381039	0.00334265	0.0382502	5.01342	531966	6.06404e+06	6.08733e+06	-84.9866	0.0000000E+000	0.0000000E+000	0.0000000E+000	84.9866	0.0000000E+000	0.0000000E+000	0.0000000E+000	-84.9866	0.0000000E+000	0.0000000E+000	0.0000000E+000	-5.01342	0.0000000E+000	0.0000000E+000	0.0000000E+000	5.01342	11.3993	84.9866	-1.25323e-05	-2.30063e-06	-3.16699e-09	-2.29747e-06	0.235686	24211.3	33.3286	24178
0.681362	26.4857	2.21753	26.5783	-4.78598	22.8469	0.236006	-0.00926791	105335	733.258	1	12	0.00479166	0.000180285	0	-8.59041e-05	9.57967e-05	2.55569e-06	4.46002	0.0141758	0.0141329	-0.00110236	-4.78107	26.5923	26.4998	2.21643	0.0374935	0.00313917	0.0376246	4.78598	733258	8.75785e+06	8.78849e+06	-85.214	0.0000000E+000	0.0000000E+000	0.0000000E+000	85.214	0.0000000E+000	0.0000000E+000	0.0000000E+000	-85.214	0.0000000E+000	0.0000000E+000	0.0000000E+000	-4.78598	0.0000000E+000	0.0000000E+000	0.0000000E+000	4.78598	11.9437	85.214	-1.60912e-05	-2.18729e-06	-8.87835e-10	-2.1864e-06	0.235911	25464.9	10.3364	25454.6
0.464091	26.9125	2.26102	27.0073	-4.80234	27.4034	0.23601	-0.00931142	151675	1063.06	1	12	0.00478979	0.000177352	0	-0.000105648	0.000439432	2.95854e-06	9.1195	0.0166818	0.0164709	-0.00264396	-4.79383	27.0235	26.929	2.25837	0.036897	0.00309985	0.037027	4.80234	1.06306e+06	1.26534e+07	1.2698e+07	-85.1977	0.0000000E+000	0.0000000E+000	0.0000000E+000	85.1977	0.0000000E+000	0.0000000E+000	0.0000000E+000	-85.1977	0.0000000E+000	0.0000000E+000	0.0000000E+000	-4.80234	0.0000000E+000	0.0000000E+000	0.0000000E+000	4.80234	11.9028	85.1977	-1.97439e-05	-2.19759e-06	-4.09173e-09	-2.1935e-06	0.235571	25346.3	47.1928	25299.2
0.316193	27.3152	2.46527	27.4262	-5.15714	34.0779	0.236008	-0.0094881	204175	1649.69	1	12	0.00479084	0.000174681	0	-0.000123926	0.000191251	1.91967e-06	-0.239094	0.0109895	0.0109895	4.5859e-05	-5.15517	27.4371	27.3262	2.46532	0.0363139	0.00327743	0.0364615	5.15714	1.64969e+06	1.82785e+07	1.83528e+07	-84.8429	0.0000000E+000	0.0000000E+000	0.0000000E+000	84.8429	0.0000000E+000	0.0000000E+000	0.0000000E+000	-84.8429	0.0000000E+000	0.0000000E+000	0.0000000E+000	-5.15714	0.0000000E+000	0.0000000E+000	0.0000000E+000	5.15714	11.08	84.8429	-1.82783e-05	-2.23927e-06	-1.81461e-09	-2.23745e-06	0.235817	24874.1	20.1569	24853.9
0.215268	27.6769	2.8415	27.8224	-5.86184	43.8715	0.236011	-0.0090695	260192	2713.93	1	12	0.00479048	0.000172181	0	-0.00013498	-3.78392e-05	1.36828e-06	63.1703	0.00794678	0.0035867	-0.00709133	-5.84656	27.8253	27.6805	2.83441	0.0357543	0.00367078	0.0359423	5.86184	2.71393e+06	2.64344e+07	2.65734e+07	-84.1382	0.0000000E+000	0.0000000E+000	0.0000000E+000	84.1382	0.0000000E+000	0.0000000E+000	0.0000000E+000	-84.1382	0.0000000E+000	0.0000000E+000	0.0000000E+000	-5.86184	0.0000000E+000	0.0000000E+000	0.0000000E+000	5.86184	9.74025	84.1382	-1.10541e-05	-2.1405e-06	3.43183e-10	-2.14085e-06	0.236049	26022.5	4.17214	26026.7
0.146929	28.0597	3.36119	28.2603	-6.83073	58.2099	0.23601	-0.00802748	322271	4558.81	1	12	0.00478994	0.000169493	0	-0.00013602	9.57967e-05	3.72272e-07	3.74641	0.00219638	0.00219169	-0.000143513	-6.82991	28.2625	28.0619	3.36104	0.0351341	0.0042086	0.0353853	6.83073	4.55881e+06	3.80577e+07	3.83297e+07	-83.1693	0.0000000E+000	0.0000000E+000	0.0000000E+000	83.1693	0.0000000E+000	0.0000000E+000	0.0000000E+000	-83.1693	0.0000000E+000	0.0000000E+000	0.0000000E+000	-6.83073	0.0000000E+000	0.0000000E+000	0.0000000E+000	6.83073	8.34816	83.1693	-1.03941e-06	-1.89457e-06	-7.69006e-10	-1.8938e-06	0.235914	29400.3	11.9336	29388.3
0.0999041	28.6271	4.12083	28.9222	-8.19137	79.2872	0.236003	-0.00656014	386592	7848.01	1	12	0.00479036	0.000165629	0	-0.000133918	0.000191251	3.23992e-06	32.391	0.0195613	0.0165178	-0.0104789	-8.16618	28.937	28.6436	4.11035	0.0342228	0.00492632	0.0345756	8.19137	7.84802e+06	5.45196e+07	5.50816e+07	-81.8086	0.0000000E+000	0.0000000E+000	0.0000000E+000	81.8086	0.0000000E+000	0.0000000E+000	0.0000000E+000	-81.8086	0.0000000E+000	0.0000000E+000	0.0000000E+000	-8.19137	0.0000000E+000	0.0000000E+000	0.0000000E+000	8.19137	6.94693	81.8086	2.10146e-06	-1.54821e-06	-1.25463e-09	-1.54696e-06	0.235812	35975.3	29.1535	35946.1
0.0680626	29.3949	5.25613	29.8612	-10.138	110.215	0.236002	-0.00527995	444882	13783.7	1	12	0.00478966	0.000160398	0	-0.000148395	-3.78392e-05	1.67842e-06	17.3037	0.0104641	0.00999052	-0.0031124	-10.1287	29.8704	29.4049	5.25302	0.0329655	0.00589459	0.0334883	10.138	1.37837e+07	7.70851e+07	7.83078e+07	-79.862	0.0000000E+000	0.0000000E+000	0.0000000E+000	79.862	0.0000000E+000	0.0000000E+000	0.0000000E+000	-79.862	0.0000000E+000	0.0000000E+000	0.0000000E+000	-10.138	0.0000000E+000	0.0000000E+000	0.0000000E+000	10.138	5.5925	79.862	-1.44769e-05	-1.24608e-06	1.99789e-10	-1.24628e-06	0.23604	44697.7	7.16658	44704.9
0.0464052	30.3417	6.90726	31.118	-12.8247	155.566	0.236004	-0.00416779	496533	24464.4	1	12	0.0047915	0.000153978	0	-0.000219902	0.000286705	1.74966e-06	-11.2506	0.011363	0.0111447	0.00221694	-12.8242	31.1294	30.3529	6.90947	0.031334	0.00713315	0.0321357	12.8247	2.44644e+07	1.07466e+08	1.10215e+08	-77.1753	0.0000000E+000	0.0000000E+000	0.0000000E+000	77.1753	0.0000000E+000	0.0000000E+000	0.0000000E+000	-77.1753	0.0000000E+000	0.0000000E+000	0.0000000E+000	-12.8247	0.0000000E+000	0.0000000E+000	0.0000000E+000	12.8247	4.39274	77.1753	-7.15066e-05	-9.83612e-07	-1.19493e-09	-9.82417e-07	0.235717	56625.7	68.7908	56556.9
0.0315922	31.4553	8.89958	32.69	-15.7977	222.172	0.236	-0.00404362	566070	41954.7	1	12	0.00479048	0.000146543	0	-0.000400253	-7.60209e-05	2.75868e-06	-10.3207	0.0188251	0.0185205	0.00337266	-15.7946	32.7087	31.4738	8.90296	0.029435	0.00832799	0.0305904	15.7977	4.19547e+07	1.48287e+08	1.54108e+08	-74.2023	0.0000000E+000	0.0000000E+000	0.0000000E+000	74.2023	0.0000000E+000	0.0000000E+000	0.0000000E+000	-74.2023	0.0000000E+000	0.0000000E+000	0.0000000E+000	-15.7977	0.0000000E+000	0.0000000E+000	0.0000000E+000	15.7977	3.53446	74.2023	-0.000180351	-9.54296e-07	3.074e-10	-9.54603e-07	0.236076	58363.6	18.8002	58382.4
0.0215268	33.1913	11.2734	35.0536	-18.76	319.909	0.236	-0.00453354	655823	67831.5	1	12	0.00479154	0.000136692	0	-0.000707316	3.42479e-07	8.27659e-07	-68.2813	0.00605491	0.00224062	0.00562509	-18.7675	35.0575	33.1935	11.279	0.0270122	0.00917467	0.0285278	18.76	6.78315e+07	1.99711e+08	2.10916e+08	-71.24	0.0000000E+000	0.0000000E+000	0.0000000E+000	71.24	0.0000000E+000	0.0000000E+000	0.0000000E+000	-71.24	0.0000000E+000	0.0000000E+000	0.0000000E+000	-18.76	0.0000000E+000	0.0000000E+000	0.0000000E+000	18.76	2.94422	71.24	-0.000307063	-1.06992e-06	-1.55264e-12	-1.06991e-06	0.236	52056.5	0.0755435	52056.4
0.0146812	35.6381	14.3969	38.4362	-21.9974	463.212	0.235998	-0.00525594	752993	105644	1	12	0.00478847	0.000124582	0	-0.00109456	0.000210342	1.66252e-06	-40.6373	0.0133448	0.0101267	0.00869106	-22.0038	38.4489	35.6482	14.4056	0.0241231	0.00974511	0.0260171	21.9974	1.05644e+08	2.61512e+08	2.82045e+08	-68.0026	0.0000000E+000	0.0000000E+000	0.0000000E+000	68.0026	0.0000000E+000	0.0000000E+000	0.0000000E+000	-68.0026	0.0000000E+000	0.0000000E+000	0.0000000E+000	-21.9974	0.0000000E+000	0.0000000E+000	0.0000000E+000	21.9974	2.4754	68.0026	-0.000387246	-1.24039e-06	-1.10554e-09	-1.23928e-06	0.235787	44901.1	40.0198	44861.1
0.0100092	38.3726	18.5014	42.6	-25.7411	673.395	0.235996	-0.00559522	859445	162109	1	12	0.00479027	0.000112448	0	-0.0014531	0.000248523	2.19737e-06	24.0663	0.0195413	0.0178427	-0.00796881	-25.721	42.6126	38.3905	18.4934	0.0211447	0.0101949	0.0234742	25.7411	1.62109e+08	3.36221e+08	3.73261e+08	-64.2589	0.0000000E+000	0.0000000E+000	0.0000000E+000	64.2589	0.0000000E+000	0.0000000E+000	0.0000000E+000	-64.2589	0.0000000E+000	0.0000000E+000	0.0000000E+000	-25.7411	0.0000000E+000	0.0000000E+000	0.0000000E+000	25.7411	2.07404	64.2589	-0.000358534	-1.32045e-06	-1.39054e-09	-1.31906e-06	0.235747	42178.1	44.4171	42133.7