File: txt/18391_R277_UA689_SOC00_C01.mpt
EC-Lab ASCII FILE
Nb header lines : 65

Potentio Electrochemical Impedance Spectroscopy

Run on channel : 1 (SN 66354)
User :
CE vs. WE compliance from -10 V to 10 V
Electrode connection : standard
Potential control : Ewe
Ewe ctrl range : min = -10.00 V, max = 10.00 V
Safety Limits :
	Do not start on E overload
Acquisition started on : 10/13/2025 15:08:45.965
Technique started on : 10/13/2025 15:08:47.876
Loaded Setting File :  C:\Users\Celltest\OneDrive - store-dot.com\Documents\EC-Lab\Data\@Biologic Test Protocols\anode half cell EIS SOC00.mps
Saved on :
	File : 18391_R277_UA689_SOC00_C01.mpr
	Directory : C:\Users\Celltest\OneDrive - store-dot.com\Documents\EC-Lab\Data\Gyutae\
	Host : 169.254.61.224
Device : VMP-3e (SN .003165)
Address : USB
EC-LAB for windows v11.62 (software)
Internet server v27.00 (firmware)
Command interpretor v12.03 (firmware)
Electrode material :
Initial state :
Electrolyte :
Comments :
Electrode surface area : 0.001 cm²
Characteristic mass : 0.001 g
Equivalent Weight : 0.000 g/eq.
Density : 0.000 g/cm3
Volume (V) : 0.001 cm³
Record Ece
Cycle Definition : Charge/Discharge alternance
Mode                Single sine
E (V)               0.0000
vs.                 Eoc
tE (h:m:s)          0:00:0.0000
record              0
dI                  0.000
unit dI             mA
dt (s)              0.000
fi                  100.000
unit fi             kHz
ff                  10.000
unit ff             mHz
Nd                  6
Points              per decade
spacing             Logarithmic
Va (mV)             5.0
pw                  0.10
Na                  2
corr                0
E range min (V)     -10.000
E range max (V)     10.000
I Range             Auto
Bandwidth           5
nc cycles           0
goto Ns'            0
nr cycles           0
inc. cycle          0

freq/Hz	Re(Z)/Ohm	-Im(Z)/Ohm	|Z|/Ohm	Phase(Z)/deg	time/s	<Ewe>/V	<I>/mA	Cs/µF	Cp/µF	cycle number	I Range	|Ewe|/V	|I|/A	Ns	(Q-Qo)/mA.h	<Ece>/V	|Ece|/V	Phase(Zce)/deg	|Zce|/Ohm	Re(Zce)/Ohm	-Im(Zce)/Ohm	Phase(Zwe-ce)/deg	|Zwe-ce|/Ohm	Re(Zwe-ce)/Ohm	-Im(Zwe-ce)/Ohm	Re(Y)/Ohm-1	Im(Y)/Ohm-1	|Y|/Ohm-1	Phase(Y)/deg	Re(C)/nF	Im(C)/nF	|C|/nF	Phase(C)/deg	Re(M)	Im(M)	|M|	Phase(M)/deg	Re(Permittivity)	Im(Permittivity)	|Permittivity|	Phase(Permittivity)/deg	Re(Resistivity)/Ohm.cm	Im(Resistivity)/Ohm.cm	|Resistivity|/Ohm.cm	Phase(Resistivity)/deg	Re(Conductivity)/mS/cm	Im(Conductivity)/mS/cm	|Conductivity|/mS/cm	Phase(Conductivity)/deg	Tan(Delta)	Loss Angle(Delta)/deg	dq/mA.h	Pwe/W	Pce/W	Pwe-ce/W	<Ewe-Ece>/V	Rwe/Ohm	Rce/Ohm	Rwe-ce/Ohm		Ewe-Ece/V
100004	1.08502	0.397612	1.15557	-20.1257	1.91055	0.236252	0.0718963	4.00263	0.473878	1	9	0.00475664	0.00411626	0	1.42667e-05	-0.000169356	4.79225e-05	88.9802	0.0116423	0.000207204	-0.0116404	-19.5785	1.15182	1.08522	0.385971	0.812531	0.297758	0.86537	20.1257	473.878	1293.13	1377.23	-69.8743	0.0000000E+000	0.0000000E+000	0.0000000E+000	69.8743	0.0000000E+000	0.0000000E+000	0.0000000E+000	-69.8743	0.0000000E+000	0.0000000E+000	0.0000000E+000	-20.1257	0.0000000E+000	0.0000000E+000	0.0000000E+000	20.1257	2.72883	69.8743	1.42667e-05	1.69857e-05	-1.21761e-08	1.69978e-05	0.236421	3286.01	2.35556	3288.37
68132	1.18473	0.449303	1.26707	-20.769	2.41756	0.236266	0.0707042	5.19912	0.653744	1	9	0.00505795	0.00399185	0	1.59081e-05	0.000231267	4.08958e-05	83.0825	0.0102448	0.00123389	-0.0101702	-20.3183	1.26466	1.18597	0.439133	0.737938	0.279859	0.789223	20.769	653.744	1723.81	1843.61	-69.231	0.0000000E+000	0.0000000E+000	0.0000000E+000	69.231	0.0000000E+000	0.0000000E+000	0.0000000E+000	-69.231	0.0000000E+000	0.0000000E+000	0.0000000E+000	-20.769	0.0000000E+000	0.0000000E+000	0.0000000E+000	20.769	2.63682	69.231	1.64144e-06	1.6705e-05	1.63516e-08	1.66887e-05	0.236035	3341.62	3.27091	3338.35
46420.4	1.29974	0.50247	1.39349	-21.1361	2.92455	0.23626	0.0603102	6.82341	0.887187	1	9	0.00508117	0.00364636	0	3.28581e-05	-1.67377e-05	1.78848e-05	66.0358	0.00490485	0.00199218	-0.00448204	-20.9347	1.39374	1.30174	0.497988	0.669346	0.258764	0.717623	21.1361	887.187	2294.89	2460.41	-68.8639	0.0000000E+000	0.0000000E+000	0.0000000E+000	68.8639	0.0000000E+000	0.0000000E+000	0.0000000E+000	-68.8639	0.0000000E+000	0.0000000E+000	0.0000000E+000	-21.1361	0.0000000E+000	0.0000000E+000	0.0000000E+000	21.1361	2.58671	68.8639	1.695e-05	1.42489e-05	-1.00945e-09	1.42499e-05	0.236277	3917.42	0.277526	3917.69
31621.1	1.41611	0.570024	1.52653	-21.9261	3.43152	0.236258	0.0695865	8.82977	1.23119	1	9	0.00509717	0.00333905	0	5.74e-05	0.000154958	1.40735e-05	-0.694664	0.00421481	0.0042145	5.10999e-05	-21.869	1.53046	1.42033	0.570075	0.607695	0.244614	0.655079	21.9261	1231.19	3058.64	3297.13	-68.0739	0.0000000E+000	0.0000000E+000	0.0000000E+000	68.0739	0.0000000E+000	0.0000000E+000	0.0000000E+000	-68.0739	0.0000000E+000	0.0000000E+000	0.0000000E+000	-21.9261	0.0000000E+000	0.0000000E+000	0.0000000E+000	21.9261	2.4843	68.0739	2.45419e-05	1.64404e-05	1.0783e-08	1.64296e-05	0.236103	3395.17	2.22684	3392.95
21544.7	1.55426	0.637842	1.68005	-22.3124	3.81453	0.23627	0.071263	11.5816	1.66935	1	9	0.0052023	0.00309651	0	6.45422e-05	2.1417e-05	1.11922e-06	96.9494	0.000361447	-4.37324e-05	-0.000358792	-22.3016	1.67987	1.55422	0.637483	0.550654	0.225979	0.59522	22.3124	1669.35	4067.8	4397.01	-67.6876	0.0000000E+000	0.0000000E+000	0.0000000E+000	67.6876	0.0000000E+000	0.0000000E+000	0.0000000E+000	-67.6876	0.0000000E+000	0.0000000E+000	0.0000000E+000	-22.3124	0.0000000E+000	0.0000000E+000	0.0000000E+000	22.3124	2.43675	67.6876	7.14223e-06	1.68373e-05	1.52624e-09	1.68358e-05	0.236249	3315.47	0.300534	3315.17
14678.6	1.6935	0.713908	1.83783	-22.8582	4.19751	0.236261	0.0702199	15.1878	2.29175	1	9	0.0049286	0.00268175	0	7.19093e-05	0.00021219	7.70324e-06	-98.3839	0.00287247	-0.000418821	0.00284177	-22.9449	1.83855	1.69308	0.71675	0.50139	0.211364	0.54412	22.8582	2291.75	5436.4	5899.71	-67.1418	0.0000000E+000	0.0000000E+000	0.0000000E+000	67.1418	0.0000000E+000	0.0000000E+000	0.0000000E+000	-67.1418	0.0000000E+000	0.0000000E+000	0.0000000E+000	-22.8582	0.0000000E+000	0.0000000E+000	0.0000000E+000	22.8582	2.37216	67.1418	7.36707e-06	1.65902e-05	1.49e-08	1.65753e-05	0.236049	3364.59	3.0218	3361.57
10002.2	1.85824	0.804452	2.02489	-23.4083	4.58055	0.236265	0.0694003	19.7799	3.12191	1	9	0.00492859	0.002434	0	8.19272e-05	0.000383886	6.92118e-06	-36.2252	0.00284354	0.00229388	0.00168042	-23.4262	2.02766	1.86053	0.806132	0.453208	0.196199	0.493854	23.4083	3121.91	7211.43	7858.18	-66.5917	0.0000000E+000	0.0000000E+000	0.0000000E+000	66.5917	0.0000000E+000	0.0000000E+000	0.0000000E+000	-66.5917	0.0000000E+000	0.0000000E+000	0.0000000E+000	-23.4083	0.0000000E+000	0.0000000E+000	0.0000000E+000	23.4083	2.30994	66.5917	1.0018e-05	1.63968e-05	2.66418e-08	1.63702e-05	0.235881	3404.37	5.53147	3398.84
6810.42	2.04854	0.911403	2.24214	-23.9844	4.83956	0.236258	0.0630298	25.6411	4.23674	1	9	0.00466319	0.0020798	0	8.54008e-05	2.1417e-05	4.20203e-05	35.6572	0.020204	0.0164162	-0.0117776	-23.541	2.25242	2.06496	0.899625	0.407493	0.181295	0.446003	23.9844	4236.74	9522.84	10422.8	-66.0156	0.0000000E+000	0.0000000E+000	0.0000000E+000	66.0156	0.0000000E+000	0.0000000E+000	0.0000000E+000	-66.0156	0.0000000E+000	0.0000000E+000	0.0000000E+000	-23.9844	0.0000000E+000	0.0000000E+000	0.0000000E+000	23.9844	2.24768	66.0156	3.4736e-06	1.48913e-05	1.34991e-09	1.48899e-05	0.236236	3748.35	0.339791	3748.01
4646	2.21846	1.05704	2.45741	-25.4767	5.2326	0.236232	0.045781	32.4078	5.9962	1	9	0.0050139	0.00204032	0	9.27048e-05	-0.000398284	5.89041e-06	-27.9619	0.002887	0.00254997	0.00135367	-25.4796	2.4603	2.22101	1.05839	0.367362	0.175039	0.406932	25.4767	5996.2	12584.5	13940	-64.5233	0.0000000E+000	0.0000000E+000	0.0000000E+000	64.5233	0.0000000E+000	0.0000000E+000	0.0000000E+000	-64.5233	0.0000000E+000	0.0000000E+000	0.0000000E+000	-25.4767	0.0000000E+000	0.0000000E+000	0.0000000E+000	25.4767	2.09874	64.5233	7.30397e-06	1.08149e-05	-1.82338e-08	1.08332e-05	0.23663	5160.04	8.69976	5168.74
3163.08	2.4311	1.22928	2.72422	-26.8233	5.60562	0.236001	-0.00715743	40.9317	8.33442	1	9	0.00493445	0.00181133	0	9.14192e-05	-1.67377e-05	1.04891e-05	-31.1021	0.00579083	0.00495838	0.00299134	-26.8323	2.73	2.43606	1.23227	0.327581	0.16564	0.367077	26.8233	8334.42	16482.7	18470	-63.1767	0.0000000E+000	0.0000000E+000	0.0000000E+000	63.1767	0.0000000E+000	0.0000000E+000	0.0000000E+000	-63.1767	0.0000000E+000	0.0000000E+000	0.0000000E+000	-26.8233	0.0000000E+000	0.0000000E+000	0.0000000E+000	26.8233	1.97767	63.1767	-1.28557e-06	-1.68916e-06	1.19799e-10	-1.68928e-06	0.236017	32972.8	2.3385	32975.2
2155.69	2.6631	1.4657	3.0398	-28.8273	6.05783	0.236162	0.102296	50.3718	11.7109	1	9	0.00487402	0.0016034	0	0.000105312	-0.000302897	5.57025e-06	-38.1013	0.00347402	0.00273378	0.00214366	-28.8379	3.04323	2.66583	1.46785	0.288202	0.15862	0.328969	28.8273	11710.9	21278	24287.9	-61.1727	0.0000000E+000	0.0000000E+000	0.0000000E+000	61.1727	0.0000000E+000	0.0000000E+000	0.0000000E+000	-61.1727	0.0000000E+000	0.0000000E+000	0.0000000E+000	-28.8273	0.0000000E+000	0.0000000E+000	0.0000000E+000	28.8273	1.81694	61.1727	1.38932e-05	2.41583e-05	-3.09851e-08	2.41893e-05	0.236464	2308.61	2.96099	2311.57
1468.59	2.94089	1.78686	3.44118	-31.2825	6.75502	0.236119	-0.0209347	60.6498	16.3529	1	10	0.00502965	0.00146161	0	0.00010996	-5.48923e-05	1.00384e-05	-51.9296	0.00686804	0.00423503	0.00540688	-31.3227	3.44761	2.94513	1.79227	0.24835	0.150895	0.290598	31.2825	16352.9	26914.4	31492.9	-58.7175	0.0000000E+000	0.0000000E+000	0.0000000E+000	58.7175	0.0000000E+000	0.0000000E+000	0.0000000E+000	-58.7175	0.0000000E+000	0.0000000E+000	0.0000000E+000	-31.2825	0.0000000E+000	0.0000000E+000	0.0000000E+000	31.2825	1.64585	58.7175	4.64756e-06	-4.94306e-06	1.14915e-09	-4.94421e-06	0.236174	11278.8	2.62208	11281.5
1000.32	3.27005	2.21331	3.94867	-34.0918	7.20581	0.236167	-0.0173456	71.885	22.5851	1	10	0.00495638	0.0012552	0	0.000108331	2.1417e-05	8.60683e-06	-114.567	0.00685692	-0.00285076	0.00623622	-34.1899	3.94981	3.2672	2.21955	0.209726	0.141952	0.25325	34.0918	22585.1	33368.3	40293.1	-55.9082	0.0000000E+000	0.0000000E+000	0.0000000E+000	55.9082	0.0000000E+000	0.0000000E+000	0.0000000E+000	-55.9082	0.0000000E+000	0.0000000E+000	0.0000000E+000	-34.0918	0.0000000E+000	0.0000000E+000	0.0000000E+000	34.0918	1.47745	55.9082	-1.62867e-06	-4.09646e-06	-3.7149e-10	-4.09609e-06	0.236146	13615.4	1.23472	13614.2
681.09	3.6858	2.7808	4.61714	-37.0332	7.65557	0.236165	-0.0172599	84.0322	30.4817	1	10	0.0048964	0.00106048	0	0.000105429	-0.000150279	7.60486e-06	-131.443	0.00717113	-0.00474641	0.00537557	-37.1219	4.6166	3.68106	2.78618	0.172896	0.130444	0.216584	37.0332	30481.7	40401.9	50610.7	-52.9668	0.0000000E+000	0.0000000E+000	0.0000000E+000	52.9668	0.0000000E+000	0.0000000E+000	0.0000000E+000	-52.9668	0.0000000E+000	0.0000000E+000	0.0000000E+000	-37.0332	0.0000000E+000	0.0000000E+000	0.0000000E+000	37.0332	1.32545	52.9668	-2.9024e-06	-4.07619e-06	2.5938e-09	-4.07878e-06	0.236316	13682.9	8.70682	13691.6
463.961	4.28587	3.51979	5.54596	-39.3947	8.10737	0.236163	-0.0169878	97.459	39.2557	1	10	0.0048661	0.000877415	0	0.000103386	4.04943e-05	6.12909e-06	-125.465	0.0069854	-0.00405296	0.0056894	-39.4667	5.54644	4.28182	3.52548	0.139343	0.114436	0.180312	39.3947	39255.7	47799.7	61853.3	-50.6053	0.0000000E+000	0.0000000E+000	0.0000000E+000	50.6053	0.0000000E+000	0.0000000E+000	0.0000000E+000	-50.6053	0.0000000E+000	0.0000000E+000	0.0000000E+000	-39.3947	0.0000000E+000	0.0000000E+000	0.0000000E+000	39.3947	1.21765	50.6053	-2.04317e-06	-4.0119e-06	-6.87909e-10	-4.01121e-06	0.236123	13901.9	2.38372	13899.5
316.316	5.14852	4.40745	6.77738	-40.5656	8.55505	0.236171	-0.0185159	114.159	48.2795	1	10	0.00483824	0.000713881	0	0.000101578	0.000441118	1.06233e-05	70.3231	0.0148811	0.0050107	-0.0140121	-40.4479	6.77209	5.15353	4.39344	0.112088	0.0959541	0.14755	40.5656	48279.5	56397.2	74239.9	-49.4344	0.0000000E+000	0.0000000E+000	0.0000000E+000	49.4344	0.0000000E+000	0.0000000E+000	0.0000000E+000	-49.4344	0.0000000E+000	0.0000000E+000	0.0000000E+000	-40.5656	0.0000000E+000	0.0000000E+000	0.0000000E+000	40.5656	1.16814	49.4344	-1.80746e-06	-4.37291e-06	-8.16768e-09	-4.36474e-06	0.235729	12755	23.8238	12731.2
215.345	6.39263	5.39727	8.36638	-40.1743	9.0036	0.236171	-0.0178637	136.934	56.9883	1	10	0.00482666	0.000576912	0	0.000100234	2.1417e-05	1.09617e-05	44.6353	0.0190007	0.0135208	-0.0133498	-40.0447	8.36812	6.40615	5.38392	0.0913282	0.077108	0.119526	40.1743	56988.3	67498	88338.2	-49.8257	0.0000000E+000	0.0000000E+000	0.0000000E+000	49.8257	0.0000000E+000	0.0000000E+000	0.0000000E+000	-49.8257	0.0000000E+000	0.0000000E+000	0.0000000E+000	-40.1743	0.0000000E+000	0.0000000E+000	0.0000000E+000	40.1743	1.18442	49.8257	-1.34466e-06	-4.21888e-06	-3.82585e-10	-4.2185e-06	0.23615	13220.8	1.19891	13219.6
146.737	8.13167	6.26241	10.2636	-37.6008	9.45047	0.236158	-0.0185979	173.196	64.4792	1	10	0.0048219	0.000469805	0	9.88067e-05	-1.67377e-05	4.96162e-06	-78.7355	0.010561	0.00206298	0.0103576	-37.6395	10.2716	8.13374	6.27277	0.0771931	0.0594484	0.0974315	37.6008	64479.2	83725.6	105677	-52.3992	0.0000000E+000	0.0000000E+000	0.0000000E+000	52.3992	0.0000000E+000	0.0000000E+000	0.0000000E+000	-52.3992	0.0000000E+000	0.0000000E+000	0.0000000E+000	-37.6008	0.0000000E+000	0.0000000E+000	0.0000000E+000	37.6008	1.29849	52.3992	-1.42693e-06	-4.39204e-06	3.11285e-10	-4.39235e-06	0.236175	12698.1	0.899977	12699
100.032	10.1339	6.76311	12.1834	-33.7181	9.90184	0.236173	-0.0171742	235.253	72.4918	1	10	0.00479384	0.000393472	0	9.61928e-05	-7.39696e-05	2.20797e-05	-134.507	0.056115	-0.0393362	0.0400194	-33.9776	12.173	10.0946	6.80313	0.0682713	0.0455625	0.0820787	33.7181	72491.8	108622	130591	-56.2819	0.0000000E+000	0.0000000E+000	0.0000000E+000	56.2819	0.0000000E+000	0.0000000E+000	0.0000000E+000	-56.2819	0.0000000E+000	0.0000000E+000	0.0000000E+000	-33.7181	0.0000000E+000	0.0000000E+000	0.0000000E+000	33.7181	1.49841	56.2819	-2.61391e-06	-4.05608e-06	1.27037e-09	-4.05735e-06	0.236247	13751.6	4.30702	13755.9
68.104	12.4342	6.70814	14.1283	-28.3465	10.3645	0.236174	-0.0143045	348.374	78.5364	1	10	0.00481029	0.000340472	0	9.40928e-05	5.95716e-05	1.22357e-05	138.355	0.0359376	-0.0268552	-0.0238811	-28.3129	14.0933	12.4073	6.68426	0.0622929	0.0336065	0.07078	28.3465	78536.4	145575	165409	-61.6535	0.0000000E+000	0.0000000E+000	0.0000000E+000	61.6535	0.0000000E+000	0.0000000E+000	0.0000000E+000	-61.6535	0.0000000E+000	0.0000000E+000	0.0000000E+000	-28.3465	0.0000000E+000	0.0000000E+000	0.0000000E+000	28.3465	1.8536	61.6535	-2.09996e-06	-3.37834e-06	-8.52139e-10	-3.37749e-06	0.236114	16510.5	4.16455	16506.4
46.4415	14.4512	6.17686	15.7159	-23.1433	10.8016	0.236165	-0.0203309	554.812	85.7042	1	10	0.00480837	0.000305955	0	9.20029e-05	-0.000131202	1.02371e-05	-103.948	0.0334594	-0.00806494	0.0324729	-23.2637	15.7213	14.4431	6.20933	0.0585092	0.0250086	0.0636298	23.1433	85704.2	200511	218059	-66.8567	0.0000000E+000	0.0000000E+000	0.0000000E+000	66.8567	0.0000000E+000	0.0000000E+000	0.0000000E+000	-66.8567	0.0000000E+000	0.0000000E+000	0.0000000E+000	-23.1433	0.0000000E+000	0.0000000E+000	0.0000000E+000	23.1433	2.33956	66.8567	-2.08993e-06	-4.80146e-06	2.66745e-09	-4.80412e-06	0.236296	11616.1	6.4533	11622.5
31.6296	16.2457	5.47713	17.1442	-18.6311	11.4666	0.236205	-0.00455364	918.701	93.7662	1	11	0.00482017	0.000281155	0	9.05752e-05	-0.000245665	9.45014e-06	-16.9457	0.0336119	0.0321525	0.0097967	-18.6278	17.1778	16.2779	5.48692	0.0552721	0.0186346	0.0583288	18.6311	93766.2	278120	293501	-71.3689	0.0000000E+000	0.0000000E+000	0.0000000E+000	71.3689	0.0000000E+000	0.0000000E+000	0.0000000E+000	-71.3689	0.0000000E+000	0.0000000E+000	0.0000000E+000	-18.6311	0.0000000E+000	0.0000000E+000	0.0000000E+000	18.6311	2.96611	71.3689	-1.42765e-06	-1.07559e-06	1.11867e-09	-1.07671e-06	0.236451	51871.7	53.9492	51925.6
21.5517	17.4783	4.61406	18.0771	-14.788	11.8875	0.236202	-0.00478415	1600.5	104.271	1	11	0.00480975	0.000266069	0	9.02655e-05	0.000460195	1.84539e-05	-67.1997	0.0693576	0.0268775	0.0639381	-14.9618	18.1195	17.5052	4.678	0.0534863	0.0141197	0.0553186	14.788	104271	394985	408516	-75.212	0.0000000E+000	0.0000000E+000	0.0000000E+000	75.212	0.0000000E+000	0.0000000E+000	0.0000000E+000	-75.212	0.0000000E+000	0.0000000E+000	0.0000000E+000	-14.788	0.0000000E+000	0.0000000E+000	0.0000000E+000	14.788	3.78806	75.212	-3.09723e-07	-1.13003e-06	-2.20164e-09	-1.12782e-06	0.235742	49371.8	96.1916	49275.6
14.6852	18.4017	3.87472	18.8052	-11.8907	12.3482	0.236209	-0.00428366	2797.05	118.748	1	11	0.00480714	0.000255628	0	9.09875e-05	0.000307577	7.29186e-06	23.4769	0.0285253	0.026164	-0.0113639	-11.8404	18.8285	18.4279	3.86336	0.0520357	0.0109568	0.0531767	11.8907	118748	563953	576320	-78.1093	0.0000000E+000	0.0000000E+000	0.0000000E+000	78.1093	0.0000000E+000	0.0000000E+000	0.0000000E+000	-78.1093	0.0000000E+000	0.0000000E+000	0.0000000E+000	-11.8907	0.0000000E+000	0.0000000E+000	0.0000000E+000	11.8907	4.74916	78.1093	7.21973e-07	-1.01184e-06	-1.31755e-09	-1.01052e-06	0.235902	55141.9	71.8023	55070.1
10.0032	19.1095	3.22173	19.3792	-9.56969	12.7988	0.236213	-0.00409784	4938.46	136.49	1	11	0.00480161	0.000247771	0	8.94518e-05	0.000326654	1.31807e-06	-51.2988	0.00531971	0.0033262	0.00415159	-9.58016	19.3832	19.1128	3.22589	0.0508837	0.00857864	0.0516017	9.56969	136490	809579	821004	-80.4303	0.0000000E+000	0.0000000E+000	0.0000000E+000	80.4303	0.0000000E+000	0.0000000E+000	0.0000000E+000	-80.4303	0.0000000E+000	0.0000000E+000	0.0000000E+000	-9.56969	0.0000000E+000	0.0000000E+000	0.0000000E+000	9.56969	5.93144	80.4303	-1.53569e-06	-9.67961e-07	-1.33857e-09	-9.66622e-07	0.235886	57643.3	79.7138	57563.6
6.81719	19.7171	2.77069	19.9108	-7.99895	13.1385	0.236233	-0.00280042	8426.1	163.164	1	11	0.00480806	0.00024148	0	9.11364e-05	0.000135881	6.71532e-06	94.0117	0.027809	-0.00194553	-0.0277409	-7.92066	19.9051	19.7152	2.74295	0.0497353	0.00698891	0.0502239	7.99895	163164	1.16113e+06	1.17253e+06	-82.001	0.0000000E+000	0.0000000E+000	0.0000000E+000	82.001	0.0000000E+000	0.0000000E+000	0.0000000E+000	-82.001	0.0000000E+000	0.0000000E+000	0.0000000E+000	-7.99895	0.0000000E+000	0.0000000E+000	0.0000000E+000	7.99895	7.11631	82.001	1.68457e-06	-6.61554e-07	-3.80524e-10	-6.61173e-07	0.236098	84356.3	48.5215	84307.8
4.63925	20.2157	2.37649	20.3549	-6.70475	13.6224	0.236224	-0.00311249	14435.6	196.776	1	11	0.00480784	0.000236201	0	8.87119e-05	0.000326654	1.18559e-05	14.2168	0.0501943	0.048657	-0.0123273	-6.65441	20.4018	20.2643	2.36417	0.0487923	0.00573587	0.0491283	6.70475	196776	1.67388e+06	1.6854e+06	-83.2952	0.0000000E+000	0.0000000E+000	0.0000000E+000	83.2952	0.0000000E+000	0.0000000E+000	0.0000000E+000	-83.2952	0.0000000E+000	0.0000000E+000	0.0000000E+000	-6.70475	0.0000000E+000	0.0000000E+000	0.0000000E+000	6.70475	8.50651	83.2952	-2.42447e-06	-7.35243e-07	-1.01671e-09	-7.34226e-07	0.235897	75895.5	104.949	75790.5
3.1604	20.6647	2.09423	20.7705	-5.78679	14.3154	0.236225	-0.00259524	24046.7	244.46	1	11	0.00481322	0.000231733	0	8.58039e-05	-7.39696e-05	5.36969e-06	4.53866	0.0231719	0.0230992	-0.00183363	-5.77534	20.7933	20.6878	2.09239	0.0478998	0.00485432	0.0481451	5.78679	244460	2.41219e+06	2.42455e+06	-84.2132	0.0000000E+000	0.0000000E+000	0.0000000E+000	84.2132	0.0000000E+000	0.0000000E+000	0.0000000E+000	-84.2132	0.0000000E+000	0.0000000E+000	0.0000000E+000	-5.78679	0.0000000E+000	0.0000000E+000	0.0000000E+000	5.78679	9.86745	84.2132	-2.90796e-06	-6.13059e-07	1.91968e-10	-6.13251e-07	0.236299	91022.5	28.5021	91051
2.15577	21.0388	1.94321	21.1283	-5.27705	15.319	0.236222	-0.00270081	37992.6	321.371	1	11	0.00480637	0.000227484	0	8.63447e-05	0.000135881	1.34127e-06	-17.6861	0.00589609	0.00561741	0.00179124	-5.28048	21.1341	21.0444	1.945	0.0471292	0.004353	0.0473298	5.27705	321371	3.47943e+06	3.49424e+06	-84.723	0.0000000E+000	0.0000000E+000	0.0000000E+000	84.723	0.0000000E+000	0.0000000E+000	0.0000000E+000	-84.723	0.0000000E+000	0.0000000E+000	0.0000000E+000	-5.27705	0.0000000E+000	0.0000000E+000	0.0000000E+000	5.27705	10.8268	84.723	5.40734e-07	-6.37989e-07	-3.66988e-10	-6.37622e-07	0.236086	87463.4	50.3112	87413
1.46631	21.3946	1.81534	21.4715	-4.84995	16.7805	0.236228	-0.00255079	59791	427.393	1	11	0.00481026	0.00022403	0	9.04449e-05	-0.00028382	4.54238e-06	14.4461	0.0202758	0.0196347	-0.00505817	-4.83208	21.4907	21.4143	1.81028	0.0464066	0.00393761	0.0465733	4.84995	427392	5.03702e+06	5.05512e+06	-85.1501	0.0000000E+000	0.0000000E+000	0.0000000E+000	85.1501	0.0000000E+000	0.0000000E+000	0.0000000E+000	-85.1501	0.0000000E+000	0.0000000E+000	0.0000000E+000	-4.84995	0.0000000E+000	0.0000000E+000	0.0000000E+000	4.84995	11.7855	85.1501	4.10027e-06	-6.02568e-07	7.23965e-10	-6.03292e-07	0.236512	92609.8	111.268	92721.1
1.00006	21.7579	1.7579	21.8288	-4.6191	19.955	0.236222	-0.0028565	90531.3	587.12	1	12	0.00481113	0.000220403	0	9.41137e-05	0.000307577	3.01313e-06	43.6611	0.013671	0.0098901	-0.00943834	-4.59233	21.8379	21.7678	1.74846	0.0456623	0.00368922	0.0458111	4.6191	587121	7.26692e+06	7.2906e+06	-85.3809	0.0000000E+000	0.0000000E+000	0.0000000E+000	85.3809	0.0000000E+000	0.0000000E+000	0.0000000E+000	-85.3809	0.0000000E+000	0.0000000E+000	0.0000000E+000	-4.6191	0.0000000E+000	0.0000000E+000	0.0000000E+000	4.6191	12.3772	85.3809	3.66874e-06	-6.74768e-07	-8.78592e-10	-6.73889e-07	0.235915	82696.4	107.676	82588.8
0.681362	22.1051	1.76494	22.1755	-4.565	23.0671	0.236222	-0.00205619	132346	838.355	1	12	0.00481378	0.000217077	0	9.20326e-05	0.000154958	2.22393e-06	50.9202	0.0102449	0.00645838	-0.00795277	-4.54319	22.1813	22.1116	1.75699	0.0449518	0.0035891	0.0450949	4.565	838354	1.05e+07	1.05334e+07	-85.435	0.0000000E+000	0.0000000E+000	0.0000000E+000	85.435	0.0000000E+000	0.0000000E+000	0.0000000E+000	-85.435	0.0000000E+000	0.0000000E+000	0.0000000E+000	-4.565	0.0000000E+000	0.0000000E+000	0.0000000E+000	4.565	12.5245	85.435	-2.08111e-06	-4.85716e-07	-3.18623e-10	-4.85398e-07	0.236067	114883	75.3618	114808
0.464091	22.3843	1.87938	22.463	-4.79929	27.6227	0.23622	-0.00172413	182475	1277.31	1	12	0.00480946	0.000214106	0	7.99853e-05	-1.67377e-05	2.18995e-06	-33.2156	0.0102284	0.00855722	0.00560302	-4.8117	22.472	22.3928	1.88499	0.0443615	0.00372459	0.0445176	4.79929	1.27731e+06	1.52133e+07	1.52668e+07	-85.2007	0.0000000E+000	0.0000000E+000	0.0000000E+000	85.2007	0.0000000E+000	0.0000000E+000	0.0000000E+000	-85.2007	0.0000000E+000	0.0000000E+000	0.0000000E+000	-4.79929	0.0000000E+000	0.0000000E+000	0.0000000E+000	4.79929	11.9104	85.2007	-1.20473e-05	-4.07275e-07	2.88579e-11	-4.07304e-07	0.236237	137008	9.70788	137018
0.316193	22.6962	2.08406	22.7917	-5.24642	34.2962	0.236228	-0.00164	241523	2019.41	1	12	0.00480907	0.000211001	0	5.75519e-05	4.04943e-05	2.16247e-06	5.45447	0.0102486	0.0102022	-0.000974178	-5.24164	22.8017	22.7064	2.08308	0.0436919	0.00401197	0.0438757	5.24642	2.01941e+06	2.19922e+07	2.20847e+07	-84.7536	0.0000000E+000	0.0000000E+000	0.0000000E+000	84.7536	0.0000000E+000	0.0000000E+000	0.0000000E+000	-84.7536	0.0000000E+000	0.0000000E+000	0.0000000E+000	-5.24642	0.0000000E+000	0.0000000E+000	0.0000000E+000	5.24642	10.8904	84.7536	-2.24334e-05	-3.87414e-07	-6.64108e-11	-3.87348e-07	0.236187	144041	24.6916	144016
0.215268	23.0849	2.41796	23.2112	-5.97945	44.0896	0.236219	-0.00293166	305768	3318.13	1	12	0.00481144	0.000207289	0	2.83171e-05	7.86489e-05	2.61068e-06	-22.0366	0.0125944	0.0116743	0.0047254	-5.98805	23.2233	23.0966	2.42268	0.0428482	0.004488	0.0430826	5.97945	3.31813e+06	3.16792e+07	3.18525e+07	-84.0205	0.0000000E+000	0.0000000E+000	0.0000000E+000	84.0205	0.0000000E+000	0.0000000E+000	0.0000000E+000	-84.0205	0.0000000E+000	0.0000000E+000	0.0000000E+000	-5.97945	0.0000000E+000	0.0000000E+000	0.0000000E+000	5.97945	9.54729	84.0205	-2.92348e-05	-6.92514e-07	-2.30572e-10	-6.92284e-07	0.236141	80575.4	26.8274	80548.5
0.146929	23.5458	3.00323	23.7366	-7.26875	58.428	0.236224	-0.00375475	360682	5773.87	1	12	0.00480615	0.000202479	0	5.31246e-06	-0.000150279	1.78616e-06	-55.6762	0.00882149	0.00497417	0.00728536	-7.28467	23.7424	23.5508	3.01052	0.0417906	0.00533033	0.0421291	7.26875	5.77387e+06	4.5268e+07	4.56347e+07	-82.7313	0.0000000E+000	0.0000000E+000	0.0000000E+000	82.7313	0.0000000E+000	0.0000000E+000	0.0000000E+000	-82.7313	0.0000000E+000	0.0000000E+000	0.0000000E+000	-7.26875	0.0000000E+000	0.0000000E+000	0.0000000E+000	7.26875	7.84015	82.7313	-2.30047e-05	-8.86961e-07	5.6426e-10	-8.87526e-07	0.236374	62913.2	40.0236	62953.2
0.0999041	24.0717	3.84031	24.3761	-9.06437	79.5052	0.236226	-0.0042819	414831	10296.1	1	12	0.00481118	0.000197373	0	5.49865e-06	-7.39696e-05	2.39999e-06	17.1761	0.0121596	0.0116173	-0.00359086	-9.05173	24.387	24.0833	3.83671	0.0405115	0.00646305	0.0410238	9.06437	1.02961e+07	6.45379e+07	6.53541e+07	-80.9356	0.0000000E+000	0.0000000E+000	0.0000000E+000	80.9356	0.0000000E+000	0.0000000E+000	0.0000000E+000	-80.9356	0.0000000E+000	0.0000000E+000	0.0000000E+000	-9.06437	0.0000000E+000	0.0000000E+000	0.0000000E+000	9.06437	6.26817	80.9356	1.8619e-07	-1.0115e-06	3.16731e-10	-1.01181e-06	0.2363	55168.4	17.2749	55185.6
0.0680626	24.7262	4.90622	25.2082	-11.223	110.432	0.236225	-0.00430438	476612	18054	1	12	0.00481344	0.000190947	0	3.54753e-05	0.00021219	4.65096e-06	-4.22779	0.0243573	0.0242911	0.00179567	-11.2162	25.2324	24.7505	4.90801	0.038911	0.00772079	0.0396696	11.223	1.8054e+07	9.09879e+07	9.27617e+07	-78.777	0.0000000E+000	0.0000000E+000	0.0000000E+000	78.777	0.0000000E+000	0.0000000E+000	0.0000000E+000	-78.777	0.0000000E+000	0.0000000E+000	0.0000000E+000	-11.223	0.0000000E+000	0.0000000E+000	0.0000000E+000	11.223	5.03977	78.777	2.99766e-05	-1.0168e-06	-9.13346e-10	-1.01589e-06	0.236013	54880.2	49.2963	54831
0.0464052	25.6864	6.16722	26.4164	-13.501	155.784	0.236225	-0.00341033	556114	30310.8	1	12	0.00480864	0.000182033	0	0.000103539	-3.5815e-05	1.9648e-06	-35.9077	0.0107937	0.00874249	0.0063303	-13.5099	26.4263	25.6951	6.17355	0.0368092	0.00883779	0.0378553	13.501	3.03108e+07	1.26244e+08	1.29832e+08	-76.499	0.0000000E+000	0.0000000E+000	0.0000000E+000	76.499	0.0000000E+000	0.0000000E+000	0.0000000E+000	-76.499	0.0000000E+000	0.0000000E+000	0.0000000E+000	-13.501	0.0000000E+000	0.0000000E+000	0.0000000E+000	13.501	4.16498	76.499	6.80637e-05	-8.05604e-07	1.22141e-10	-8.05726e-07	0.236261	69267.5	10.5019	69278
0.0315922	27.0671	7.98169	28.2194	-16.43	222.388	0.236226	-0.002561	631169	50493.9	1	12	0.00480855	0.000170398	0	0.000151192	0.000307577	2.42256e-06	10.3529	0.014217	0.0139855	-0.00255495	-16.417	28.2321	27.0811	7.97913	0.0339896	0.010023	0.0354366	16.43	5.04939e+07	1.71232e+08	1.78522e+08	-73.57	0.0000000E+000	0.0000000E+000	0.0000000E+000	73.57	0.0000000E+000	0.0000000E+000	0.0000000E+000	-73.57	0.0000000E+000	0.0000000E+000	0.0000000E+000	-16.43	0.0000000E+000	0.0000000E+000	0.0000000E+000	16.43	3.39115	73.57	4.76526e-05	-6.04974e-07	-7.87704e-10	-6.04186e-07	0.235918	92239.6	120.1	92119.5
0.0215268	28.648	10.387	30.4729	-19.9292	320.127	0.236219	-0.00233363	711790	82699.5	1	12	0.00481102	0.000157879	0	7.70811e-05	0.000250345	1.91564e-06	24.4011	0.0121336	0.0110498	-0.00501266	-19.9133	30.4816	28.659	10.382	0.0308508	0.0111857	0.0328161	19.9292	8.26995e+07	2.28091e+08	2.4262e+08	-70.0708	0.0000000E+000	0.0000000E+000	0.0000000E+000	70.0708	0.0000000E+000	0.0000000E+000	0.0000000E+000	-70.0708	0.0000000E+000	0.0000000E+000	0.0000000E+000	-19.9292	0.0000000E+000	0.0000000E+000	0.0000000E+000	19.9292	2.75807	70.0708	-7.41105e-05	-5.51247e-07	-5.84212e-10	-5.50663e-07	0.235968	101224	107.277	101116
0.0146812	30.4268	13.1649	33.1528	-23.3969	463.428	0.236222	-0.00274702	823458	129849	1	12	0.00481005	0.000145087	0	-0.000226836	4.04943e-05	2.687e-06	-1.6511	0.0185199	0.0185122	0.000533616	-23.3851	33.17	30.4453	13.1654	0.0276832	0.0119778	0.0301634	23.3969	1.29849e+08	3.00107e+08	3.26994e+08	-66.6031	0.0000000E+000	0.0000000E+000	0.0000000E+000	66.6031	0.0000000E+000	0.0000000E+000	0.0000000E+000	-66.6031	0.0000000E+000	0.0000000E+000	0.0000000E+000	-23.3969	0.0000000E+000	0.0000000E+000	0.0000000E+000	23.3969	2.31121	66.6031	-0.000303917	-6.48907e-07	-1.11238e-10	-6.48796e-07	0.236182	85992.3	14.7412	85977.5
0.0100092	32.6777	16.4564	36.5875	-26.7297	673.61	0.236222	-0.0034808	966246	195475	1	12	0.00481138	0.000131504	0	-0.000801788	2.1417e-05	3.05119e-06	8.82977	0.0232023	0.0229274	-0.00356154	-26.7086	36.6063	32.7006	16.4528	0.024411	0.0122933	0.0273318	26.7297	1.95475e+08	3.88158e+08	4.346e+08	-63.2703	0.0000000E+000	0.0000000E+000	0.0000000E+000	63.2703	0.0000000E+000	0.0000000E+000	0.0000000E+000	-63.2703	0.0000000E+000	0.0000000E+000	0.0000000E+000	-26.7297	0.0000000E+000	0.0000000E+000	0.0000000E+000	26.7297	1.98571	63.2703	-0.000574952	-8.22241e-07	-7.45481e-11	-8.22166e-07	0.236201	67864.3	6.15289	67858.1