File: txt/18395_R277_UA689_SOC00_C02.mpt
EC-Lab ASCII FILE
Nb header lines : 65

Potentio Electrochemical Impedance Spectroscopy

Run on channel : 2 (SN 66139)
User :
CE vs. WE compliance from -10 V to 10 V
Electrode connection : standard
Potential control : Ewe
Ewe ctrl range : min = -10.00 V, max = 10.00 V
Safety Limits :
	Do not start on E overload
Acquisition started on : 10/13/2025 14:53:41.347
Technique started on : 10/13/2025 14:53:43.258
Loaded Setting File :  C:\Users\Celltest\OneDrive - store-dot.com\Documents\EC-Lab\Data\@Biologic Test Protocols\anode half cell EIS SOC00.mps
Saved on :
	File : 18395_R277_UA689_SOC00_C02.mpr
	Directory : C:\Users\Celltest\OneDrive - store-dot.com\Documents\EC-Lab\Data\Gyutae\
	Host : 169.254.61.224
Device : VMP-3e (SN .003165)
Address : USB
EC-LAB for windows v11.62 (software)
Internet server v27.00 (firmware)
Command interpretor v12.03 (firmware)
Electrode material :
Initial state :
Electrolyte :
Comments :
Electrode surface area : 0.001 cm²
Characteristic mass : 0.001 g
Equivalent Weight : 0.000 g/eq.
Density : 0.000 g/cm3
Volume (V) : 0.001 cm³
Record Ece
Cycle Definition : Charge/Discharge alternance
Mode                Single sine
E (V)               0.0000
vs.                 Eoc
tE (h:m:s)          0:00:0.0000
record              0
dI                  0.000
unit dI             mA
dt (s)              0.000
fi                  100.000
unit fi             kHz
ff                  10.000
unit ff             mHz
Nd                  6
Points              per decade
spacing             Logarithmic
Va (mV)             5.0
pw                  0.10
Na                  2
corr                0
E range min (V)     -10.000
E range max (V)     10.000
I Range             Auto
Bandwidth           5
nc cycles           0
goto Ns'            0
nr cycles           0
inc. cycle          0

freq/Hz	Re(Z)/Ohm	-Im(Z)/Ohm	|Z|/Ohm	Phase(Z)/deg	time/s	<Ewe>/V	<I>/mA	Cs/µF	Cp/µF	cycle number	I Range	|Ewe|/V	|I|/A	Ns	(Q-Qo)/mA.h	<Ece>/V	|Ece|/V	Phase(Zce)/deg	|Zce|/Ohm	Re(Zce)/Ohm	-Im(Zce)/Ohm	Phase(Zwe-ce)/deg	|Zwe-ce|/Ohm	Re(Zwe-ce)/Ohm	-Im(Zwe-ce)/Ohm	Re(Y)/Ohm-1	Im(Y)/Ohm-1	|Y|/Ohm-1	Phase(Y)/deg	Re(C)/nF	Im(C)/nF	|C|/nF	Phase(C)/deg	Re(M)	Im(M)	|M|	Phase(M)/deg	Re(Permittivity)	Im(Permittivity)	|Permittivity|	Phase(Permittivity)/deg	Re(Resistivity)/Ohm.cm	Im(Resistivity)/Ohm.cm	|Resistivity|/Ohm.cm	Phase(Resistivity)/deg	Re(Conductivity)/mS/cm	Im(Conductivity)/mS/cm	|Conductivity|/mS/cm	Phase(Conductivity)/deg	Tan(Delta)	Loss Angle(Delta)/deg	dq/mA.h	Pwe/W	Pce/W	Pwe-ce/W	<Ewe-Ece>/V	Rwe/Ohm	Rce/Ohm	Rwe-ce/Ohm		Ewe-Ece/V
100004	1.68666	0.606736	1.79247	-19.785	1.91055	0.241921	0.00327993	2.62304	0.300538	1	9	0.004521	0.00252222	0	-4.23965e-06	-1.87484e-05	1.48352e-05	94.8929	0.0058818	-0.000501679	-0.00586037	-19.6139	1.79002	1.68616	0.600875	0.524956	0.18884	0.557889	19.785	300.538	835.463	887.875	-70.215	0.0000000E+000	0.0000000E+000	0.0000000E+000	70.215	0.0000000E+000	0.0000000E+000	0.0000000E+000	-70.215	0.0000000E+000	0.0000000E+000	0.0000000E+000	-19.785	0.0000000E+000	0.0000000E+000	0.0000000E+000	19.785	2.7799	70.215	-4.23965e-06	7.93485e-07	-6.14934e-11	7.93547e-07	0.24194	73758	5.71608	73763.8
68132	1.84648	0.715411	1.98023	-21.1786	2.41753	0.241908	-0.00446722	3.26523	0.426179	1	9	0.00505405	0.00255225	0	-5.60508e-08	0.00017216	1.95806e-05	57.4736	0.00767187	0.00412508	-0.00646849	-20.9611	1.98176	1.85061	0.708942	0.470884	0.182441	0.504992	21.1786	426.179	1099.97	1179.65	-68.8214	0.0000000E+000	0.0000000E+000	0.0000000E+000	68.8214	0.0000000E+000	0.0000000E+000	0.0000000E+000	-68.8214	0.0000000E+000	0.0000000E+000	0.0000000E+000	-21.1786	0.0000000E+000	0.0000000E+000	0.0000000E+000	21.1786	2.58101	68.8214	4.1836e-06	-1.08065e-06	-7.69077e-10	-1.07989e-06	0.241735	54151.7	38.5385	54113.2
46420.4	2.03737	0.825814	2.19837	-22.0644	2.92454	0.2419	0.00283297	4.15173	0.585857	1	9	0.00505224	0.00229817	0	-8.39188e-06	5.7615e-05	2.01331e-05	69.6594	0.00876047	0.00304515	-0.00821419	-21.8361	2.19813	2.04041	0.8176	0.421567	0.170875	0.454882	22.0644	585.857	1445.37	1559.59	-67.9356	0.0000000E+000	0.0000000E+000	0.0000000E+000	67.9356	0.0000000E+000	0.0000000E+000	0.0000000E+000	-67.9356	0.0000000E+000	0.0000000E+000	0.0000000E+000	-22.0644	0.0000000E+000	0.0000000E+000	0.0000000E+000	22.0644	2.4671	67.9356	-8.33583e-06	6.85297e-07	1.63222e-10	6.85134e-07	0.241843	85387.6	20.3373	85367.2
31621.1	2.23764	0.944854	2.42894	-22.8922	3.43154	0.241904	0.00231151	5.32694	0.806069	1	9	0.00504749	0.00207806	0	-1.47552e-05	3.42479e-07	1.0173e-05	-6.57785	0.00489541	0.00486319	0.000560785	-22.8598	2.43364	2.2425	0.945414	0.379275	0.160151	0.411702	22.8922	806.07	1908.96	2072.17	-67.1078	0.0000000E+000	0.0000000E+000	0.0000000E+000	67.1078	0.0000000E+000	0.0000000E+000	0.0000000E+000	-67.1078	0.0000000E+000	0.0000000E+000	0.0000000E+000	-22.8922	0.0000000E+000	0.0000000E+000	0.0000000E+000	22.8922	2.36824	67.1078	-6.3633e-06	5.59164e-07	7.91645e-13	5.59163e-07	0.241904	104652	0.148162	104652
21544.7	2.47075	1.05422	2.68626	-23.107	3.81456	0.241911	0.00201354	7.00727	1.07924	1	9	0.00504943	0.00187973	0	-1.22367e-05	1.94333e-05	6.95229e-06	-88.1372	0.00369857	0.000120224	0.00369661	-23.1785	2.68782	2.47087	1.05792	0.3424	0.146095	0.372265	23.107	1079.24	2529.38	2750	-66.893	0.0000000E+000	0.0000000E+000	0.0000000E+000	66.893	0.0000000E+000	0.0000000E+000	0.0000000E+000	-66.893	0.0000000E+000	0.0000000E+000	0.0000000E+000	-23.107	0.0000000E+000	0.0000000E+000	0.0000000E+000	23.107	2.34367	66.893	2.51852e-06	4.87097e-07	3.91297e-11	4.87058e-07	0.241892	120142	9.65133	120133
14678.6	2.72141	1.18066	2.96648	-23.4532	4.07352	0.241904	-0.00182279	9.18356	1.45471	1	9	0.0046999	0.00158434	0	-1.40424e-05	3.85242e-05	7.64907e-06	44.0004	0.00482793	0.0034729	-0.00335379	-23.3671	2.96834	2.72488	1.17731	0.30925	0.134166	0.3371	23.4532	1454.71	3353.1	3655.06	-66.5468	0.0000000E+000	0.0000000E+000	0.0000000E+000	66.5468	0.0000000E+000	0.0000000E+000	0.0000000E+000	-66.5468	0.0000000E+000	0.0000000E+000	0.0000000E+000	-23.4532	0.0000000E+000	0.0000000E+000	0.0000000E+000	23.4532	2.30499	66.5468	-1.80577e-06	-4.4094e-07	-7.02214e-11	-4.4087e-07	0.241866	132711	21.1348	132690
10002.2	3.0024	1.31357	3.27717	-23.6297	4.45656	0.241903	-0.00383407	12.1135	1.94615	1	9	0.00496731	0.00151573	0	-1.49768e-05	7.67059e-05	6.77354e-06	71.1157	0.00446884	0.00144638	-0.0042283	-23.5518	3.27681	3.00385	1.30934	0.279556	0.122308	0.305141	23.6297	1946.15	4448.29	4855.39	-66.3703	0.0000000E+000	0.0000000E+000	0.0000000E+000	66.3703	0.0000000E+000	0.0000000E+000	0.0000000E+000	-66.3703	0.0000000E+000	0.0000000E+000	0.0000000E+000	-23.6297	0.0000000E+000	0.0000000E+000	0.0000000E+000	23.6297	2.28568	66.3703	-9.34372e-07	-9.27471e-07	-2.94095e-10	-9.27177e-07	0.241826	63093	20.0064	63073
6810.42	3.31467	1.46439	3.62374	-23.8354	4.71555	0.241906	-0.0080801	15.9584	2.60609	1	9	0.00480864	0.00132698	0	-1.58135e-05	0.000324887	4.14308e-05	-28.2092	0.0312219	0.0275136	0.0147583	-23.8728	3.65487	3.34218	1.47915	0.252422	0.111518	0.275958	23.8354	2606.09	5898.92	6448.95	-66.1646	0.0000000E+000	0.0000000E+000	0.0000000E+000	66.1646	0.0000000E+000	0.0000000E+000	0.0000000E+000	-66.1646	0.0000000E+000	0.0000000E+000	0.0000000E+000	-23.8354	0.0000000E+000	0.0000000E+000	0.0000000E+000	23.8354	2.26351	66.1646	-8.36749e-07	-1.95463e-06	-2.62512e-09	-1.952e-06	0.241581	29938.5	40.2082	29898.3
4646	3.62955	1.66992	3.99528	-24.7068	5.13862	0.241905	-0.0187376	20.5137	3.58379	1	10	0.00487566	0.00122036	0	-1.6337e-05	0.000114888	7.23287e-06	-77.2398	0.00592686	0.00130907	0.00578048	-24.7742	3.99889	3.63086	1.6757	0.227383	0.104617	0.250295	24.7068	3583.79	7789.3	8574.2	-65.2932	0.0000000E+000	0.0000000E+000	0.0000000E+000	65.2932	0.0000000E+000	0.0000000E+000	0.0000000E+000	-65.2932	0.0000000E+000	0.0000000E+000	0.0000000E+000	-24.7068	0.0000000E+000	0.0000000E+000	0.0000000E+000	24.7068	2.17348	65.2932	-5.23495e-07	-4.53272e-06	-2.15272e-09	-4.53056e-06	0.24179	12910.1	6.13139	12904
3163.08	4.00117	1.90564	4.43179	-25.4671	5.51267	0.241839	-0.0247464	26.404	4.88193	1	10	0.00481703	0.00108693	0	-1.95905e-05	0.000324887	8.36431e-06	-15.0598	0.00769538	0.00743109	0.00199947	-25.4492	4.43936	4.0086	1.90764	0.203717	0.0970246	0.225642	25.4671	4881.93	10250.3	11353.5	-64.5329	0.0000000E+000	0.0000000E+000	0.0000000E+000	64.5329	0.0000000E+000	0.0000000E+000	0.0000000E+000	-64.5329	0.0000000E+000	0.0000000E+000	0.0000000E+000	-25.4671	0.0000000E+000	0.0000000E+000	0.0000000E+000	25.4671	2.09964	64.5329	-3.25347e-06	-5.98464e-06	-8.03977e-09	-5.9766e-06	0.241514	9772.72	13.1287	9759.59
2155.69	4.40508	2.19353	4.92101	-26.4712	5.96383	0.241851	-0.0161262	33.6581	6.68758	1	10	0.00474131	0.000963484	0	-2.0987e-05	3.85242e-05	8.84716e-06	-77.4998	0.00918247	0.00198748	0.0089648	-26.5542	4.92679	4.40707	2.2025	0.181905	0.0905807	0.20321	26.4712	6687.58	13430.1	15003.1	-63.5288	0.0000000E+000	0.0000000E+000	0.0000000E+000	63.5288	0.0000000E+000	0.0000000E+000	0.0000000E+000	-63.5288	0.0000000E+000	0.0000000E+000	0.0000000E+000	-26.4712	0.0000000E+000	0.0000000E+000	0.0000000E+000	26.4712	2.00822	63.5288	-1.39653e-06	-3.90014e-06	-6.21249e-10	-3.89952e-06	0.241813	14997.4	2.38892	14995
1468.59	4.83549	2.55826	5.47053	-27.8815	6.41511	0.241846	-0.017173	42.3619	9.26416	1	10	0.00467567	0.000854701	0	-2.34794e-05	0.000286705	7.99578e-06	-19.8857	0.00935506	0.00879724	0.00318207	-27.8679	5.47979	4.84429	2.56144	0.161578	0.0854843	0.182798	27.8815	9264.16	17510.6	19810.3	-62.1185	0.0000000E+000	0.0000000E+000	0.0000000E+000	62.1185	0.0000000E+000	0.0000000E+000	0.0000000E+000	-62.1185	0.0000000E+000	0.0000000E+000	0.0000000E+000	-27.8815	0.0000000E+000	0.0000000E+000	0.0000000E+000	27.8815	1.89015	62.1185	-2.49235e-06	-4.15322e-06	-4.92359e-09	-4.1483e-06	0.241559	14082.9	16.6951	14066.2
1000.32	5.31299	3.0413	6.12187	-29.788	6.86586	0.241851	-0.0167409	52.3146	12.9113	1	10	0.00462688	0.000755796	0	-2.4994e-05	0.000267614	3.19687e-06	77.5099	0.00422981	0.000914785	-0.00412971	-29.7502	6.12061	5.3139	3.03717	0.141765	0.0811503	0.163349	29.788	12911.3	22555.4	25989.4	-60.212	0.0000000E+000	0.0000000E+000	0.0000000E+000	60.212	0.0000000E+000	0.0000000E+000	0.0000000E+000	-60.212	0.0000000E+000	0.0000000E+000	0.0000000E+000	-29.788	0.0000000E+000	0.0000000E+000	0.0000000E+000	29.788	1.74695	60.212	-1.51462e-06	-4.04879e-06	-4.4801e-09	-4.04431e-06	0.241583	14446.7	15.9857	14430.7
681.09	5.8736	3.71747	6.95117	-32.3302	7.31655	0.241844	-0.0155935	62.8591	17.9782	1	10	0.00460368	0.000662288	0	-2.7424e-05	-1.87484e-05	8.99767e-06	-46.551	0.0135857	0.00934302	0.00986308	-32.3576	6.96434	5.88295	3.72733	0.121559	0.0769363	0.143861	32.3302	17978.2	28405.6	33616.9	-57.6698	0.0000000E+000	0.0000000E+000	0.0000000E+000	57.6698	0.0000000E+000	0.0000000E+000	0.0000000E+000	-57.6698	0.0000000E+000	0.0000000E+000	0.0000000E+000	-32.3302	0.0000000E+000	0.0000000E+000	0.0000000E+000	32.3302	1.58	57.6698	-2.42995e-06	-3.77121e-06	2.92353e-10	-3.7715e-06	0.241863	15509.3	1.20232	15510.5
463.961	6.59479	4.61198	8.04746	-34.9665	7.76829	0.241848	-0.0155823	74.3791	24.4292	1	10	0.00458364	0.000569576	0	-2.8988e-05	0.000153069	1.08819e-05	52.6978	0.0191053	0.0115782	-0.0151973	-34.8306	8.04826	6.60637	4.59679	0.101832	0.0712147	0.124263	34.9665	24429.2	34931.9	42626.5	-55.0335	0.0000000E+000	0.0000000E+000	0.0000000E+000	55.0335	0.0000000E+000	0.0000000E+000	0.0000000E+000	-55.0335	0.0000000E+000	0.0000000E+000	0.0000000E+000	-34.9665	0.0000000E+000	0.0000000E+000	0.0000000E+000	34.9665	1.42992	55.0335	-1.564e-06	-3.76856e-06	-2.38518e-09	-3.76617e-06	0.241695	15520.6	9.82325	15510.8
316.316	7.534	5.76251	9.48513	-37.4112	8.21608	0.241847	-0.0166813	87.3147	32.2273	1	10	0.00455787	0.000480527	0	-3.13643e-05	5.7615e-05	8.50333e-06	-39.5981	0.0176958	0.0136353	0.0112793	-37.4153	9.50282	7.54764	5.77379	0.0837412	0.0640509	0.105428	37.4112	32227.3	42134.5	53046.4	-52.5888	0.0000000E+000	0.0000000E+000	0.0000000E+000	52.5888	0.0000000E+000	0.0000000E+000	0.0000000E+000	-52.5888	0.0000000E+000	0.0000000E+000	0.0000000E+000	-37.4112	0.0000000E+000	0.0000000E+000	0.0000000E+000	37.4112	1.30742	52.5888	-2.37637e-06	-4.03432e-06	-9.61093e-10	-4.03336e-06	0.241789	14498.1	3.45387	14494.6
215.345	8.90702	7.19833	11.4521	-38.9439	8.66656	0.241843	-0.0154669	102.673	40.5645	1	10	0.00454244	0.000396646	0	-3.32327e-05	-5.69301e-05	3.87908e-06	42.2513	0.00977968	0.00723895	-0.0065757	-38.8955	11.4536	8.91426	7.19175	0.0679142	0.0548858	0.0873201	38.9439	40564.5	50193.5	64535.7	-51.0561	0.0000000E+000	0.0000000E+000	0.0000000E+000	51.0561	0.0000000E+000	0.0000000E+000	0.0000000E+000	-51.0561	0.0000000E+000	0.0000000E+000	0.0000000E+000	-38.9439	0.0000000E+000	0.0000000E+000	0.0000000E+000	38.9439	1.23737	51.0561	-1.8684e-06	-3.74056e-06	8.8053e-10	-3.74144e-06	0.2419	15636.2	3.68077	15639.9
146.737	10.8938	8.83924	14.0288	-39.0559	9.11252	0.241837	-0.0182906	122.706	48.7141	1	10	0.00455182	0.000324463	0	-3.48822e-05	0.000420341	8.38499e-06	30.8654	0.0258427	0.0221827	-0.0132579	-38.9569	14.0377	10.916	8.82598	0.0553527	0.0449133	0.071282	39.0559	48714.1	60036.9	77314.2	-50.9441	0.0000000E+000	0.0000000E+000	0.0000000E+000	50.9441	0.0000000E+000	0.0000000E+000	0.0000000E+000	-50.9441	0.0000000E+000	0.0000000E+000	0.0000000E+000	-39.0559	0.0000000E+000	0.0000000E+000	0.0000000E+000	39.0559	1.23243	50.9441	-1.64948e-06	-4.42334e-06	-7.68829e-09	-4.41565e-06	0.241416	13221.9	22.9813	13198.9
100.032	13.6116	10.3377	17.0922	-37.2156	9.5638	0.241846	-0.0159214	153.907	56.2997	1	10	0.00455056	0.000266236	0	-3.71612e-05	0.000286705	4.80039e-06	87.0627	0.0180306	0.000923947	-0.0180069	-37.1657	17.0821	13.6126	10.3196	0.0465923	0.0353855	0.0585062	37.2156	56299.7	74130.1	93085.6	-52.7844	0.0000000E+000	0.0000000E+000	0.0000000E+000	52.7844	0.0000000E+000	0.0000000E+000	0.0000000E+000	-52.7844	0.0000000E+000	0.0000000E+000	0.0000000E+000	-37.2156	0.0000000E+000	0.0000000E+000	0.0000000E+000	37.2156	1.31671	52.7844	-2.27902e-06	-3.85052e-06	-4.56473e-09	-3.84596e-06	0.24156	15190.1	18.0076	15172.1
68.104	17.0583	11.443	20.5408	-33.8544	10.2774	0.241895	-0.0078623	204.225	63.3797	1	11	0.00456316	0.00022215	0	-3.9302e-05	0.000210342	7.12245e-06	44.6039	0.0320614	0.022827	-0.0225135	-33.7668	20.5473	17.0811	11.4205	0.0404295	0.0271208	0.0486835	33.8544	63379.7	94481.3	113770	-56.1456	0.0000000E+000	0.0000000E+000	0.0000000E+000	56.1456	0.0000000E+000	0.0000000E+000	0.0000000E+000	-56.1456	0.0000000E+000	0.0000000E+000	0.0000000E+000	-33.8544	0.0000000E+000	0.0000000E+000	0.0000000E+000	33.8544	1.49072	56.1456	-2.14083e-06	-1.90185e-06	-1.65377e-09	-1.9002e-06	0.241684	30766.4	26.7532	30739.7
46.4415	20.751	11.7146	23.8293	-29.446	10.7136	0.241888	-0.00819041	292.541	70.6996	1	11	0.00455509	0.000191155	0	-4.01798e-05	0.00017216	3.87725e-06	-87.3048	0.0202833	0.000953778	0.0202609	-29.4873	23.8401	20.752	11.7348	0.036544	0.0206302	0.0419651	29.446	70699.6	125236	143814	-60.554	0.0000000E+000	0.0000000E+000	0.0000000E+000	60.554	0.0000000E+000	0.0000000E+000	0.0000000E+000	-60.554	0.0000000E+000	0.0000000E+000	0.0000000E+000	-29.446	0.0000000E+000	0.0000000E+000	0.0000000E+000	29.446	1.77138	60.554	-8.77738e-07	-1.98116e-06	-1.41006e-09	-1.97975e-06	0.241716	29533.1	21.0197	29512.1
31.6296	24.3841	11.1924	26.8301	-24.6554	11.1435	0.241882	-0.00822844	449.575	78.2361	1	11	0.00455404	0.000169736	0	-4.11431e-05	1.94333e-05	1.12262e-05	-67.6014	0.066139	0.0252021	0.0611492	-24.7515	26.8786	24.4093	11.2536	0.0338736	0.0155482	0.0372716	24.6554	78236.1	170447	187545	-65.3446	0.0000000E+000	0.0000000E+000	0.0000000E+000	65.3446	0.0000000E+000	0.0000000E+000	0.0000000E+000	-65.3446	0.0000000E+000	0.0000000E+000	0.0000000E+000	-24.6554	0.0000000E+000	0.0000000E+000	0.0000000E+000	24.6554	2.17862	65.3446	-9.63307e-07	-1.99031e-06	-1.59906e-10	-1.99015e-06	0.241862	29395.8	2.36173	29393.5
21.5517	27.4392	10.085	29.2339	-20.1805	11.5645	0.241888	-0.00820868	732.252	87.1452	1	11	0.00454553	0.000155489	0	-4.21694e-05	-0.000228748	5.78622e-06	33.2582	0.0372131	0.0311179	-0.0204082	-20.1219	29.256	27.4703	10.0646	0.032107	0.0118006	0.0342069	20.1805	87145.2	237103	252611	-69.8196	0.0000000E+000	0.0000000E+000	0.0000000E+000	69.8196	0.0000000E+000	0.0000000E+000	0.0000000E+000	-69.8196	0.0000000E+000	0.0000000E+000	0.0000000E+000	-20.1805	0.0000000E+000	0.0000000E+000	0.0000000E+000	20.1805	2.72078	69.8196	-1.02632e-06	-1.98558e-06	1.87772e-09	-1.98746e-06	0.242117	29467.4	27.8666	29495.3
14.6852	29.9089	8.83058	31.1853	-16.4492	12.0242	0.241891	-0.00750324	1227.3	98.4081	1	11	0.00454544	0.000145756	0	-4.37637e-05	9.57967e-05	9.59355e-06	-5.47549	0.0658193	0.065519	0.00628047	-16.4262	31.2499	29.9744	8.83686	0.0307539	0.00908007	0.0320664	16.4492	98408.1	333306	347530	-73.5508	0.0000000E+000	0.0000000E+000	0.0000000E+000	73.5508	0.0000000E+000	0.0000000E+000	0.0000000E+000	-73.5508	0.0000000E+000	0.0000000E+000	0.0000000E+000	-16.4492	0.0000000E+000	0.0000000E+000	0.0000000E+000	16.4492	3.38697	73.5508	-1.59425e-06	-1.81496e-06	-7.18786e-10	-1.81425e-06	0.241795	32238.2	12.7674	32225.4
10.0032	31.8703	7.58879	32.7614	-13.3935	12.4748	0.241895	-0.00757446	2096.57	112.494	1	11	0.00454549	0.000138745	0	-4.45261e-05	-5.69301e-05	6.53627e-06	-98.4294	0.0471098	-0.00690585	0.0466009	-13.4756	32.7655	31.8634	7.63539	0.0296936	0.00707047	0.0305238	13.3935	112494	472437	485645	-76.6065	0.0000000E+000	0.0000000E+000	0.0000000E+000	76.6065	0.0000000E+000	0.0000000E+000	0.0000000E+000	-76.6065	0.0000000E+000	0.0000000E+000	0.0000000E+000	-13.3935	0.0000000E+000	0.0000000E+000	0.0000000E+000	13.3935	4.19966	76.6065	-7.62479e-07	-1.83222e-06	4.31214e-10	-1.83265e-06	0.241952	31935.6	7.51606	31943.1
6.81719	33.3837	6.48937	34.0086	-11.0004	12.8145	0.241907	-0.00702487	3597.6	130.991	1	11	0.00453979	0.000133489	0	-4.59192e-05	-0.000324202	9.14124e-06	-34.2901	0.0684791	0.0565772	0.03858	-11.0459	34.0715	33.4403	6.52795	0.0288641	0.00561081	0.0294043	11.0004	130991	673864	686477	-78.9996	0.0000000E+000	0.0000000E+000	0.0000000E+000	78.9996	0.0000000E+000	0.0000000E+000	0.0000000E+000	-78.9996	0.0000000E+000	0.0000000E+000	0.0000000E+000	-11.0004	0.0000000E+000	0.0000000E+000	0.0000000E+000	11.0004	5.14437	78.9996	-1.3931e-06	-1.69937e-06	2.27748e-09	-1.70164e-06	0.242231	34435.8	46.1506	34481.9
4.63925	34.622	5.66977	35.0832	-9.30032	13.2985	0.241896	-0.00724747	6050.72	158.03	1	11	0.00454003	0.000129408	0	-4.54738e-05	0.000114888	5.9823e-06	10.167	0.0462283	0.0455024	-0.00816014	-9.27519	35.1268	34.6675	5.66161	0.028129	0.00460646	0.0285037	9.30032	158030	964998	977852	-80.6997	0.0000000E+000	0.0000000E+000	0.0000000E+000	80.6997	0.0000000E+000	0.0000000E+000	0.0000000E+000	-80.6997	0.0000000E+000	0.0000000E+000	0.0000000E+000	-9.30032	0.0000000E+000	0.0000000E+000	0.0000000E+000	9.30032	6.10642	80.6997	4.45469e-07	-1.75313e-06	-8.32644e-10	-1.7523e-06	0.241781	33376.6	15.8521	33360.8
3.1604	35.7778	4.91071	36.1132	-7.81534	13.9914	0.241901	-0.00655508	10255	189.623	1	11	0.00454286	0.000125795	0	-4.58647e-05	0.000133978	6.64222e-06	-3.57193	0.052802	0.0526994	0.00328964	-7.80915	36.1659	35.8305	4.914	0.0274335	0.0037654	0.0276907	7.81534	189623	1.38153e+06	1.39448e+06	-82.1847	0.0000000E+000	0.0000000E+000	0.0000000E+000	82.1847	0.0000000E+000	0.0000000E+000	0.0000000E+000	-82.1847	0.0000000E+000	0.0000000E+000	0.0000000E+000	-7.81534	0.0000000E+000	0.0000000E+000	0.0000000E+000	7.81534	7.28567	82.1847	-3.90974e-07	-1.58568e-06	-8.78239e-10	-1.5848e-06	0.241767	36902.8	20.4389	36882.3
2.15577	36.7428	4.416	37.0072	-6.85333	14.9951	0.241902	-0.00575224	16718.2	238.054	1	11	0.00454793	0.000122893	0	-4.88244e-05	3.42479e-07	4.03476e-06	-57.8299	0.0328314	0.0174806	0.0277909	-6.8928	37.0279	36.7602	4.44379	0.0268287	0.00322446	0.0270218	6.85333	238054	1.9807e+06	1.99495e+06	-83.1467	0.0000000E+000	0.0000000E+000	0.0000000E+000	83.1467	0.0000000E+000	0.0000000E+000	0.0000000E+000	-83.1467	0.0000000E+000	0.0000000E+000	0.0000000E+000	-6.85333	0.0000000E+000	0.0000000E+000	0.0000000E+000	6.85333	8.32037	83.1467	-2.95966e-06	-1.39148e-06	-1.97002e-12	-1.39148e-06	0.241902	42053.6	0.0595384	42053.5
1.46631	37.5703	3.96844	37.7793	-6.02964	17.1834	0.241896	-0.00566296	27351.1	301.792	1	12	0.00454893	0.000120408	0	-5.5261e-05	1.94333e-05	5.12967e-06	-74.6755	0.0426023	0.0112592	0.0410876	-6.08979	37.7948	37.5815	4.00953	0.0263231	0.00278044	0.0264695	6.02964	301791	2.85714e+06	2.87303e+06	-83.9704	0.0000000E+000	0.0000000E+000	0.0000000E+000	83.9704	0.0000000E+000	0.0000000E+000	0.0000000E+000	-83.9704	0.0000000E+000	0.0000000E+000	0.0000000E+000	-6.02964	0.0000000E+000	0.0000000E+000	0.0000000E+000	6.02964	9.46726	83.9704	-6.43661e-06	-1.36985e-06	-1.1005e-10	-1.36974e-06	0.241876	42715.4	3.43165	42712
1.00006	38.3315	3.68854	38.5086	-5.4965	19.3119	0.241899	-0.00585259	43145.7	395.851	1	12	0.00454419	0.000118005	0	-5.95311e-05	0.000153069	1.83213e-06	35.9055	0.0155259	0.0125758	-0.00910517	-5.48123	38.5202	38.3441	3.67944	0.0258488	0.00248737	0.0259682	5.4965	395851	4.11371e+06	4.13271e+06	-84.5035	0.0000000E+000	0.0000000E+000	0.0000000E+000	84.5035	0.0000000E+000	0.0000000E+000	0.0000000E+000	-84.5035	0.0000000E+000	0.0000000E+000	0.0000000E+000	-5.4965	0.0000000E+000	0.0000000E+000	0.0000000E+000	5.4965	10.3921	84.5035	-4.27012e-06	-1.41574e-06	-8.95851e-10	-1.41484e-06	0.241746	41332	26.1541	41305.9
0.681362	39.0393	3.51395	39.1971	-5.14337	22.4241	0.241904	-0.0059117	66473.2	534.232	1	12	0.00455034	0.000116089	0	-6.21976e-05	0.000324887	6.15542e-07	50.433	0.00530234	0.00337748	-0.00408747	-5.13698	39.2001	39.0426	3.50986	0.0254094	0.00228711	0.0255121	5.14337	534232	5.93521e+06	5.9592e+06	-84.8566	0.0000000E+000	0.0000000E+000	0.0000000E+000	84.8566	0.0000000E+000	0.0000000E+000	0.0000000E+000	-84.8566	0.0000000E+000	0.0000000E+000	0.0000000E+000	-5.14337	0.0000000E+000	0.0000000E+000	0.0000000E+000	5.14337	11.1098	84.8566	-2.66647e-06	-1.43006e-06	-1.92063e-09	-1.42814e-06	0.241579	40919.4	54.9566	40864.5
0.464091	39.6045	3.45109	39.7546	-4.9801	26.9808	0.241898	-0.00584295	99371.4	748.857	1	12	0.00454703	0.000114378	0	-6.26252e-05	7.67059e-05	2.99135e-06	-6.27367	0.0261533	0.0259967	0.00285797	-4.98095	39.7807	39.6305	3.45395	0.0250594	0.00218364	0.0251543	4.9801	748857	8.59384e+06	8.62641e+06	-85.0199	0.0000000E+000	0.0000000E+000	0.0000000E+000	85.0199	0.0000000E+000	0.0000000E+000	0.0000000E+000	-85.0199	0.0000000E+000	0.0000000E+000	0.0000000E+000	-4.9801	0.0000000E+000	0.0000000E+000	0.0000000E+000	4.9801	11.476	85.0199	-4.27569e-07	-1.4134e-06	-4.48188e-10	-1.41295e-06	0.241821	41399.9	13.1279	41386.8
0.316193	40.1895	3.56049	40.3469	-5.06275	33.6557	0.241899	-0.00528186	141370	1100.92	1	12	0.00454887	0.000112744	0	-6.32134e-05	3.42479e-07	2.14578e-06	17.6364	0.0190324	0.0181378	-0.00576632	-5.05233	40.3645	40.2077	3.55472	0.0246883	0.0021872	0.024785	5.06275	1.10092e+06	1.24268e+07	1.24755e+07	-84.9372	0.0000000E+000	0.0000000E+000	0.0000000E+000	84.9372	0.0000000E+000	0.0000000E+000	0.0000000E+000	-84.9372	0.0000000E+000	0.0000000E+000	0.0000000E+000	-5.06275	0.0000000E+000	0.0000000E+000	0.0000000E+000	5.06275	11.2876	84.9372	-5.88224e-07	-1.27768e-06	-1.80893e-12	-1.27768e-06	0.241899	45798.1	0.0648407	45798.1
0.215268	40.7935	3.89666	40.9792	-5.45643	43.4482	0.241896	-0.00459032	189735	1715.56	1	12	0.00454692	0.000110957	0	-6.98425e-05	0.000324887	1.35269e-06	2.95242	0.0121912	0.012175	-0.000627928	-5.45394	40.9913	40.8057	3.89603	0.024292	0.00232042	0.0244026	5.45643	1.71556e+06	1.796e+07	1.80417e+07	-84.5436	0.0000000E+000	0.0000000E+000	0.0000000E+000	84.5436	0.0000000E+000	0.0000000E+000	0.0000000E+000	-84.5436	0.0000000E+000	0.0000000E+000	0.0000000E+000	-5.45643	0.0000000E+000	0.0000000E+000	0.0000000E+000	5.45643	10.4688	84.5436	-6.62913e-06	-1.11038e-06	-1.49134e-09	-1.10889e-06	0.241571	52697	70.7765	52626.2
0.146929	41.4273	4.58371	41.6802	-6.31378	57.7866	0.241895	-0.00408279	236318	2858.06	1	12	0.00454791	0.000109114	0	-9.1448e-05	0.000382159	2.69901e-06	-4.72709	0.0247356	0.0246515	0.00203845	-6.31284	41.7049	41.452	4.58575	0.0238467	0.00263851	0.0239922	6.31378	2.85806e+06	2.5831e+07	2.59887e+07	-83.6862	0.0000000E+000	0.0000000E+000	0.0000000E+000	83.6862	0.0000000E+000	0.0000000E+000	0.0000000E+000	-83.6862	0.0000000E+000	0.0000000E+000	0.0000000E+000	-6.31378	0.0000000E+000	0.0000000E+000	0.0000000E+000	6.31378	9.03795	83.6862	-2.16054e-05	-9.87605e-07	-1.56028e-09	-9.86045e-07	0.241513	59247.5	93.6026	59153.9
0.0999041	42.066	5.56896	42.433	-7.54132	78.8638	0.241893	-0.00401689	286064	4927.23	1	12	0.00454658	0.000107147	0	-0.000138802	0.000267614	1.27209e-06	-36.4121	0.0118724	0.00955453	0.00704732	-7.54906	42.4434	42.0756	5.57601	0.0233627	0.0030929	0.0235665	7.54132	4.92723e+06	3.72186e+07	3.75433e+07	-82.4587	0.0000000E+000	0.0000000E+000	0.0000000E+000	82.4587	0.0000000E+000	0.0000000E+000	0.0000000E+000	-82.4587	0.0000000E+000	0.0000000E+000	0.0000000E+000	-7.54132	0.0000000E+000	0.0000000E+000	0.0000000E+000	7.54132	7.55365	82.4587	-4.73541e-05	-9.71657e-07	-1.07498e-09	-9.70582e-07	0.241625	60219	66.6223	60152.4
0.0680626	42.9427	6.89311	43.4924	-9.11927	109.79	0.241899	-0.00421969	339232	8521.19	1	12	0.00454592	0.000104522	0	-0.000216059	-0.000114203	1.8586e-06	-1.14324	0.0177819	0.0177783	0.000354783	-9.11602	43.51	42.9604	6.89347	0.0227019	0.00364409	0.0229925	9.11927	8.52119e+06	5.30853e+07	5.37648e+07	-80.8807	0.0000000E+000	0.0000000E+000	0.0000000E+000	80.8807	0.0000000E+000	0.0000000E+000	0.0000000E+000	-80.8807	0.0000000E+000	0.0000000E+000	0.0000000E+000	-9.11927	0.0000000E+000	0.0000000E+000	0.0000000E+000	9.11927	6.22979	80.8807	-7.72566e-05	-1.02074e-06	4.81899e-10	-1.02122e-06	0.242013	57326.3	27.0642	57353.4
0.0464052	44.2611	8.622	45.0931	-11.0231	155.142	0.241896	-0.00510175	397782	14542.6	1	12	0.00454538	0.0001008	0	-0.000328549	9.57967e-05	1.91594e-06	-4.73213	0.0190074	0.0189426	0.00156806	-11.0204	45.112	44.2801	8.62357	0.0217672	0.00424022	0.0221764	11.0231	1.45426e+07	7.46545e+07	7.60578e+07	-78.9769	0.0000000E+000	0.0000000E+000	0.0000000E+000	78.9769	0.0000000E+000	0.0000000E+000	0.0000000E+000	-78.9769	0.0000000E+000	0.0000000E+000	0.0000000E+000	-11.0231	0.0000000E+000	0.0000000E+000	0.0000000E+000	11.0231	5.13351	78.9769	-0.000112491	-1.23409e-06	-4.88731e-10	-1.2336e-06	0.2418	47414.3	18.7772	47395.5
0.0315922	45.882	11.2788	47.2479	-13.8107	221.746	0.241894	-0.00573033	446661	25452.9	1	12	0.00454678	9.62324e-05	0	-0.000452264	0.000114888	1.23731e-06	8.8402	0.0128576	0.0127048	-0.00197594	-13.8047	47.2598	45.8947	11.2768	0.0205531	0.00505239	0.021165	13.8107	2.54529e+07	1.03542e+08	1.06625e+08	-76.1893	0.0000000E+000	0.0000000E+000	0.0000000E+000	76.1893	0.0000000E+000	0.0000000E+000	0.0000000E+000	-76.1893	0.0000000E+000	0.0000000E+000	0.0000000E+000	-13.8107	0.0000000E+000	0.0000000E+000	0.0000000E+000	13.8107	4.06799	76.1893	-0.000123715	-1.38613e-06	-6.58344e-10	-1.38548e-06	0.241779	42213	20.049	42192.9
0.0215268	47.7704	14.7331	49.9907	-17.1405	319.485	0.24189	-0.00615829	501819	43586.9	1	12	0.00454941	9.1005e-05	0	-0.000558724	7.67059e-05	2.71337e-06	32.5986	0.0298157	0.0251187	-0.0160632	-17.1145	50.01	47.7955	14.717	0.0191152	0.00589542	0.0200037	17.1405	4.35869e+07	1.41326e+08	1.47894e+08	-72.8595	0.0000000E+000	0.0000000E+000	0.0000000E+000	72.8595	0.0000000E+000	0.0000000E+000	0.0000000E+000	-72.8595	0.0000000E+000	0.0000000E+000	0.0000000E+000	-17.1405	0.0000000E+000	0.0000000E+000	0.0000000E+000	17.1405	3.24239	72.8595	-0.000106459	-1.48963e-06	-4.72377e-10	-1.48916e-06	0.241814	39278.8	12.4557	39266.3
0.0146812	50.4225	18.7805	53.8065	-20.4285	462.788	0.241887	-0.00635897	577233	70323.1	1	12	0.00454665	8.45e-05	0	-0.000649182	0.000286705	2.54762e-06	2.71127	0.0301494	0.0301156	-0.00142615	-20.4159	53.8342	50.4526	18.7791	0.0174163	0.00648693	0.0185851	20.4285	7.03231e+07	1.88805e+08	2.01477e+08	-69.5715	0.0000000E+000	0.0000000E+000	0.0000000E+000	69.5715	0.0000000E+000	0.0000000E+000	0.0000000E+000	-69.5715	0.0000000E+000	0.0000000E+000	0.0000000E+000	-20.4285	0.0000000E+000	0.0000000E+000	0.0000000E+000	20.4285	2.68483	69.5715	-9.04586e-05	-1.53815e-06	-1.82315e-09	-1.53633e-06	0.241601	38038.8	45.0867	37993.7
0.0100092	54.5641	23.855	59.5509	-23.6146	672.969	0.241886	-0.00648251	666565	106961	1	12	0.00454698	7.63545e-05	0	-0.00081024	0.000382159	1.40441e-06	-2.38853	0.0183933	0.0183773	0.000766552	-23.6082	59.568	54.5825	23.8558	0.0153862	0.00672672	0.0167924	23.6146	1.06961e+08	2.44654e+08	2.67014e+08	-66.3854	0.0000000E+000	0.0000000E+000	0.0000000E+000	66.3854	0.0000000E+000	0.0000000E+000	0.0000000E+000	-66.3854	0.0000000E+000	0.0000000E+000	0.0000000E+000	-23.6146	0.0000000E+000	0.0000000E+000	0.0000000E+000	23.6146	2.28732	66.3854	-0.000161058	-1.56803e-06	-2.47735e-09	-1.56555e-06	0.241503	37313.6	58.9524	37254.6