File: txt/18397_R277_UA690_SOC00_C06.mpt
EC-Lab ASCII FILE
Nb header lines : 65

Potentio Electrochemical Impedance Spectroscopy

Run on channel : 6 (SN 65795)
User :
CE vs. WE compliance from -10 V to 10 V
Electrode connection : standard
Potential control : Ewe
Ewe ctrl range : min = -10.00 V, max = 10.00 V
Safety Limits :
	Do not start on E overload
Acquisition started on : 10/13/2025 14:56:27.328
Technique started on : 10/13/2025 14:56:28.922
Loaded Setting File :  C:\Users\Celltest\OneDrive - store-dot.com\Documents\EC-Lab\Data\@Biologic Test Protocols\anode half cell EIS SOC00.mps
Saved on :
	File : 18397_R277_UA690_SOC00_C06.mpr
	Directory : C:\Users\Celltest\OneDrive - store-dot.com\Documents\EC-Lab\Data\Gyutae\
	Host : 169.254.61.224
Device : VMP-3e (SN .003165)
Address : USB
EC-LAB for windows v11.62 (software)
Internet server v27.00 (firmware)
Command interpretor v12.03 (firmware)
Electrode material :
Initial state :
Electrolyte :
Comments :
Electrode surface area : 0.001 cm²
Characteristic mass : 0.001 g
Equivalent Weight : 0.000 g/eq.
Density : 0.000 g/cm3
Volume (V) : 0.001 cm³
Record Ece
Cycle Definition : Charge/Discharge alternance
Mode                Single sine
E (V)               0.0000
vs.                 Eoc
tE (h:m:s)          0:00:0.0000
record              0
dI                  0.000
unit dI             mA
dt (s)              0.000
fi                  100.000
unit fi             kHz
ff                  10.000
unit ff             mHz
Nd                  6
Points              per decade
spacing             Logarithmic
Va (mV)             5.0
pw                  0.10
Na                  2
corr                0
E range min (V)     -10.000
E range max (V)     10.000
I Range             Auto
Bandwidth           5
nc cycles           0
goto Ns'            0
nr cycles           0
inc. cycle          0

freq/Hz	Re(Z)/Ohm	-Im(Z)/Ohm	|Z|/Ohm	Phase(Z)/deg	time/s	<Ewe>/V	<I>/mA	Cs/µF	Cp/µF	cycle number	I Range	|Ewe|/V	|I|/A	Ns	(Q-Qo)/mA.h	<Ece>/V	|Ece|/V	Phase(Zce)/deg	|Zce|/Ohm	Re(Zce)/Ohm	-Im(Zce)/Ohm	Phase(Zwe-ce)/deg	|Zwe-ce|/Ohm	Re(Zwe-ce)/Ohm	-Im(Zwe-ce)/Ohm	Re(Y)/Ohm-1	Im(Y)/Ohm-1	|Y|/Ohm-1	Phase(Y)/deg	Re(C)/nF	Im(C)/nF	|C|/nF	Phase(C)/deg	Re(M)	Im(M)	|M|	Phase(M)/deg	Re(Permittivity)	Im(Permittivity)	|Permittivity|	Phase(Permittivity)/deg	Re(Resistivity)/Ohm.cm	Im(Resistivity)/Ohm.cm	|Resistivity|/Ohm.cm	Phase(Resistivity)/deg	Re(Conductivity)/mS/cm	Im(Conductivity)/mS/cm	|Conductivity|/mS/cm	Phase(Conductivity)/deg	Tan(Delta)	Loss Angle(Delta)/deg	dq/mA.h	Pwe/W	Pce/W	Pwe-ce/W	<Ewe-Ece>/V	Rwe/Ohm	Rce/Ohm	Rwe-ce/Ohm		Ewe-Ece/V
100004	1.12669	0.39101	1.19261	-19.139	1.59355	0.235381	0.0429052	4.07021	0.437519	1	9	0.0046543	0.00390263	0	-3.6203e-06	1.98852e-05	4.52867e-05	62.0169	0.0116042	0.00544479	-0.0102475	-18.589	1.19445	1.13213	0.380762	0.792152	0.274911	0.838499	19.139	437.519	1260.7	1334.46	-70.861	0.0000000E+000	0.0000000E+000	0.0000000E+000	70.861	0.0000000E+000	0.0000000E+000	0.0000000E+000	-70.861	0.0000000E+000	0.0000000E+000	0.0000000E+000	-19.139	0.0000000E+000	0.0000000E+000	0.0000000E+000	19.139	2.88148	70.861	-3.6203e-06	1.0099e-05	8.53178e-10	1.00982e-05	0.235361	5486.07	0.463469	5485.6
68132	1.23686	0.478438	1.32617	-21.1472	1.97856	0.235347	0.0341142	4.88251	0.635469	1	9	0.0054684	0.00412344	0	1.85482e-06	7.71793e-05	3.64066e-05	47.6339	0.00882917	0.00594967	-0.00652347	-20.7925	1.32939	1.24281	0.471914	0.703269	0.272035	0.75405	21.1472	635.469	1642.82	1761.44	-68.8528	0.0000000E+000	0.0000000E+000	0.0000000E+000	68.8528	0.0000000E+000	0.0000000E+000	0.0000000E+000	-68.8528	0.0000000E+000	0.0000000E+000	0.0000000E+000	-21.1472	0.0000000E+000	0.0000000E+000	0.0000000E+000	21.1472	2.58521	68.8528	5.47512e-06	8.02868e-06	2.63291e-09	8.02604e-06	0.23527	6898.8	2.26238	6896.54
46420.4	1.36022	0.550714	1.46747	-22.0417	2.48556	0.235325	0.0328849	6.22566	0.876794	1	9	0.00504758	0.00343964	0	7.83035e-06	5.80813e-05	8.51889e-06	4.68998	0.00247668	0.00246839	-0.000202504	-21.9982	1.46969	1.36269	0.550512	0.631638	0.255732	0.681443	22.0417	876.794	2165.61	2336.37	-67.9583	0.0000000E+000	0.0000000E+000	0.0000000E+000	67.9583	0.0000000E+000	0.0000000E+000	0.0000000E+000	-67.9583	0.0000000E+000	0.0000000E+000	0.0000000E+000	-22.0417	0.0000000E+000	0.0000000E+000	0.0000000E+000	22.0417	2.46992	67.9583	5.97553e-06	7.73863e-06	1.91e-09	7.73672e-06	0.235267	7156.01	1.7662	7154.24
31621.1	1.50196	0.628548	1.62818	-22.7085	2.86855	0.235318	0.0390684	8.00764	1.19337	1	9	0.00537185	0.0032993	0	2.14202e-06	0.000249062	1.51987e-05	23.2839	0.00460666	0.00423148	-0.00182095	-22.5921	1.63138	1.5062	0.626727	0.566572	0.237101	0.614183	22.7085	1193.37	2851.66	3091.29	-67.2915	0.0000000E+000	0.0000000E+000	0.0000000E+000	67.2915	0.0000000E+000	0.0000000E+000	0.0000000E+000	-67.2915	0.0000000E+000	0.0000000E+000	0.0000000E+000	-22.7085	0.0000000E+000	0.0000000E+000	0.0000000E+000	22.7085	2.38958	67.2915	-5.68833e-06	9.1935e-06	9.73044e-09	9.18377e-06	0.235069	6023.24	6.37502	6016.86
21544.7	1.65659	0.707015	1.80116	-23.1123	3.25156	0.235306	0.0366471	10.4484	1.60992	1	9	0.00542953	0.00301447	0	1.49724e-05	5.80813e-05	7.56538e-06	-25.1958	0.00250969	0.00227091	0.00106841	-23.1152	1.80367	1.65886	0.708084	0.510637	0.217934	0.555198	23.1123	1609.92	3772.18	4101.36	-66.8877	0.0000000E+000	0.0000000E+000	0.0000000E+000	66.8877	0.0000000E+000	0.0000000E+000	0.0000000E+000	-66.8877	0.0000000E+000	0.0000000E+000	0.0000000E+000	-23.1123	0.0000000E+000	0.0000000E+000	0.0000000E+000	23.1123	2.34308	66.8877	1.28304e-05	8.6233e-06	2.12851e-09	8.62118e-06	0.235248	6420.86	1.58488	6419.28
14678.6	1.82354	0.781015	1.98375	-23.1853	3.63652	0.235312	0.0371314	13.8828	2.15189	1	9	0.00544001	0.00274228	0	1.61922e-05	0.000115375	9.03612e-06	42.7377	0.00329511	0.00242015	-0.0022362	-23.0984	1.9851	1.82596	0.778779	0.463382	0.198465	0.504095	23.1853	2151.89	5024.29	5465.73	-66.8147	0.0000000E+000	0.0000000E+000	0.0000000E+000	66.8147	0.0000000E+000	0.0000000E+000	0.0000000E+000	-66.8147	0.0000000E+000	0.0000000E+000	0.0000000E+000	-23.1853	0.0000000E+000	0.0000000E+000	0.0000000E+000	23.1853	2.33483	66.8147	1.21978e-06	8.73746e-06	4.28405e-09	8.73317e-06	0.235197	6337.28	3.10722	6334.18
10002.2	2.00622	0.873597	2.18817	-23.5305	4.01955	0.235324	0.0286756	18.2143	2.90317	1	9	0.00544794	0.00248973	0	1.5326e-05	0.000344552	7.33811e-06	-13.581	0.00294736	0.00286494	0.000692099	-23.5171	2.19107	2.00908	0.874289	0.419002	0.182452	0.457003	23.5305	2903.17	6667.15	7271.81	-66.4695	0.0000000E+000	0.0000000E+000	0.0000000E+000	66.4695	0.0000000E+000	0.0000000E+000	0.0000000E+000	-66.4695	0.0000000E+000	0.0000000E+000	0.0000000E+000	-23.5305	0.0000000E+000	0.0000000E+000	0.0000000E+000	23.5305	2.2965	66.4695	-8.66256e-07	6.74807e-06	9.88024e-09	6.73819e-06	0.23498	8206.42	12.0155	8194.4
6810.42	2.21126	0.978239	2.41798	-23.8641	4.40257	0.235309	0.0294206	23.8892	3.91009	1	9	0.00544242	0.00225081	0	1.92608e-05	0.00017267	3.3799e-05	-45.0275	0.0150163	0.0106131	0.0106232	-23.9919	2.43199	2.22187	0.988862	0.378212	0.167317	0.413569	23.8641	3910.09	8838.55	9664.82	-66.1359	0.0000000E+000	0.0000000E+000	0.0000000E+000	66.1359	0.0000000E+000	0.0000000E+000	0.0000000E+000	-66.1359	0.0000000E+000	0.0000000E+000	0.0000000E+000	-23.8641	0.0000000E+000	0.0000000E+000	0.0000000E+000	23.8641	2.26045	66.1359	3.93483e-06	6.92295e-06	5.08004e-09	6.91787e-06	0.235137	7998.11	5.869	7992.24
4646	2.4273	1.11751	2.6722	-24.7209	4.7946	0.235315	0.0353061	30.6543	5.3611	1	9	0.00535475	0.00200388	0	2.39377e-05	0.000325454	1.07153e-05	-18.6535	0.0053473	0.0050664	0.0017103	-24.7088	2.67751	2.43237	1.11922	0.339929	0.1565	0.374224	24.7209	5361.1	11644.7	12819.5	-65.2791	0.0000000E+000	0.0000000E+000	0.0000000E+000	65.2791	0.0000000E+000	0.0000000E+000	0.0000000E+000	-65.2791	0.0000000E+000	0.0000000E+000	0.0000000E+000	-24.7209	0.0000000E+000	0.0000000E+000	0.0000000E+000	24.7209	2.17207	65.2791	4.6769e-06	8.30804e-06	1.14905e-08	8.29655e-06	0.234989	6664.98	9.21806	6655.77
3163.08	2.67462	1.26097	2.95696	-25.2418	5.34665	0.235299	0.0194004	39.9031	7.2564	1	9	0.0051945	0.0017567	0	2.44223e-05	0.000287258	6.61242e-06	-55.3661	0.00376411	0.00213926	0.00309711	-25.2784	2.96022	2.67676	1.26406	0.305894	0.144215	0.338185	25.2418	7256.4	15391.5	17016.3	-64.7582	0.0000000E+000	0.0000000E+000	0.0000000E+000	64.7582	0.0000000E+000	0.0000000E+000	0.0000000E+000	-64.7582	0.0000000E+000	0.0000000E+000	0.0000000E+000	-25.2418	0.0000000E+000	0.0000000E+000	0.0000000E+000	25.2418	2.12109	64.7582	4.84591e-07	4.56489e-06	5.57291e-09	4.55932e-06	0.235012	12128.6	14.8068	12113.8
2155.69	2.96209	1.44433	3.29547	-25.9941	6.01178	0.235314	0.0332573	51.1172	9.819	1	9	0.00500526	0.00151883	0	3.10474e-05	-1.83109e-05	6.87626e-06	-68.4867	0.00452733	0.00166025	0.00421192	-26.0472	3.29881	2.96375	1.44854	0.27275	0.132994	0.303447	25.9941	9819	20137.2	22403.6	-64.0059	0.0000000E+000	0.0000000E+000	0.0000000E+000	64.0059	0.0000000E+000	0.0000000E+000	0.0000000E+000	-64.0059	0.0000000E+000	0.0000000E+000	0.0000000E+000	-25.9941	0.0000000E+000	0.0000000E+000	0.0000000E+000	25.9941	2.05084	64.0059	6.6251e-06	7.82593e-06	-6.08971e-10	7.82653e-06	0.235333	7075.56	0.550581	7076.11
1468.59	3.27267	1.67951	3.67847	-27.1666	6.70907	0.235314	-0.0154584	64.5262	13.4514	1	10	0.00506219	0.00137617	0	3.12679e-05	9.62774e-05	7.16247e-06	-98.3273	0.00520465	-0.000753781	0.00514978	-27.2433	3.68015	3.27192	1.68466	0.241862	0.124122	0.271852	27.1666	13451.5	26211.2	29461.3	-62.8334	0.0000000E+000	0.0000000E+000	0.0000000E+000	62.8334	0.0000000E+000	0.0000000E+000	0.0000000E+000	-62.8334	0.0000000E+000	0.0000000E+000	0.0000000E+000	-27.1666	0.0000000E+000	0.0000000E+000	0.0000000E+000	27.1666	1.94858	62.8334	2.20565e-07	-3.63758e-06	-1.4883e-09	-3.6361e-06	0.235218	15222.4	6.22815	15216.2
1000.32	3.61394	1.97301	4.11744	-28.6321	7.15976	0.235296	-0.0156932	80.6404	18.5163	1	10	0.0049768	0.00120871	0	2.85999e-05	5.80813e-05	1.13386e-05	114.563	0.0093807	-0.00389954	-0.00853177	-28.5537	4.10993	3.61004	1.96447	0.21317	0.116379	0.242869	28.6321	18516.3	33916.2	38641.5	-61.3679	0.0000000E+000	0.0000000E+000	0.0000000E+000	61.3679	0.0000000E+000	0.0000000E+000	0.0000000E+000	-61.3679	0.0000000E+000	0.0000000E+000	0.0000000E+000	-28.6321	0.0000000E+000	0.0000000E+000	0.0000000E+000	28.6321	1.83169	61.3679	-2.66808e-06	-3.69254e-06	-9.11481e-10	-3.69163e-06	0.235238	14993.5	3.70105	14989.8
681.09	4.00495	2.34652	4.64174	-30.3662	7.60953	0.235299	-0.0163044	99.5845	25.4494	1	10	0.00484878	0.0010446	0	2.73955e-05	0.00036365	4.72082e-06	-46.6351	0.00451924	0.0031031	0.00328547	-30.3819	4.64608	4.00805	2.3498	0.185881	0.108909	0.215436	30.3662	25449.4	43436.1	50342.5	-59.6338	0.0000000E+000	0.0000000E+000	0.0000000E+000	59.6338	0.0000000E+000	0.0000000E+000	0.0000000E+000	-59.6338	0.0000000E+000	0.0000000E+000	0.0000000E+000	-30.3662	0.0000000E+000	0.0000000E+000	0.0000000E+000	30.3662	1.70676	59.6338	-1.2044e-06	-3.83639e-06	-5.92908e-09	-3.83046e-06	0.234935	14431.6	22.3039	14409.3
463.961	4.50689	2.8578	5.33658	-32.3786	8.06135	0.235311	-0.0150634	120.035	34.4227	1	10	0.00475758	0.000891504	0	2.60378e-05	0.000325454	7.78214e-06	60.3485	0.00872923	0.00431855	-0.00758614	-32.285	5.33617	4.51121	2.85021	0.158253	0.100347	0.187386	32.3786	34422.7	54286.3	64280	-57.6214	0.0000000E+000	0.0000000E+000	0.0000000E+000	57.6214	0.0000000E+000	0.0000000E+000	0.0000000E+000	-57.6214	0.0000000E+000	0.0000000E+000	0.0000000E+000	-32.3786	0.0000000E+000	0.0000000E+000	0.0000000E+000	32.3786	1.57705	57.6214	-1.35769e-06	-3.54459e-06	-4.90244e-09	-3.53968e-06	0.234986	15621.4	21.6056	15599.8
316.316	5.14733	3.51628	6.23372	-34.338	8.50903	0.235301	-0.015246	143.092	45.529	1	10	0.00467817	0.000750462	0	2.36323e-05	0.00036365	6.17919e-06	-19.8341	0.00823385	0.00774541	0.00279373	-34.3191	6.24169	5.15508	3.51907	0.132461	0.0904876	0.160418	34.338	45529	66648	80714.6	-55.662	0.0000000E+000	0.0000000E+000	0.0000000E+000	55.662	0.0000000E+000	0.0000000E+000	0.0000000E+000	-55.662	0.0000000E+000	0.0000000E+000	0.0000000E+000	-34.338	0.0000000E+000	0.0000000E+000	0.0000000E+000	34.338	1.46386	55.662	-2.4055e-06	-3.58741e-06	-5.54421e-09	-3.58186e-06	0.234938	15433.6	23.8521	15409.8
215.345	6.08054	4.27784	7.43457	-35.1276	8.95952	0.2353	-0.0152237	172.767	57.2004	1	10	0.00463236	0.000623083	0	2.12624e-05	0.00017267	7.30338e-06	-10.1793	0.0117214	0.0115369	0.0020715	-35.0895	7.4452	6.09207	4.27991	0.110009	0.077395	0.134507	35.1276	57200.4	81304.8	99410	-54.8724	0.0000000E+000	0.0000000E+000	0.0000000E+000	54.8724	0.0000000E+000	0.0000000E+000	0.0000000E+000	-54.8724	0.0000000E+000	0.0000000E+000	0.0000000E+000	-35.1276	0.0000000E+000	0.0000000E+000	0.0000000E+000	35.1276	1.4214	54.8724	-2.36985e-06	-3.58213e-06	-2.62866e-09	-3.57951e-06	0.235128	15456.2	11.3422	15444.9
146.737	7.37077	4.99488	8.90377	-34.1239	9.40548	0.235299	-0.0148361	217.147	68.3371	1	10	0.00459758	0.000516363	0	1.97602e-05	0.000153571	4.80764e-06	-74.5318	0.00931057	0.00248317	0.00897333	-34.1627	8.91086	7.37325	5.00385	0.0929748	0.0630053	0.112312	34.1239	68337.1	100843	121816	-55.8761	0.0000000E+000	0.0000000E+000	0.0000000E+000	55.8761	0.0000000E+000	0.0000000E+000	0.0000000E+000	-55.8761	0.0000000E+000	0.0000000E+000	0.0000000E+000	-34.1239	0.0000000E+000	0.0000000E+000	0.0000000E+000	34.1239	1.47567	55.8761	-1.50226e-06	-3.49091e-06	-2.2784e-09	-3.48864e-06	0.235145	15859.9	10.3512	15849.5
100.032	9.00939	5.52403	10.5681	-31.5142	9.85686	0.2353	-0.0148398	288.021	78.6949	1	10	0.0045874	0.000434081	0	1.78469e-05	5.80813e-05	1.14087e-05	16.9367	0.0262823	0.0251424	-0.00765644	-31.4077	10.5855	9.03453	5.51638	0.0806686	0.0494613	0.0946247	31.5142	78694.9	128347	150552	-58.4858	0.0000000E+000	0.0000000E+000	0.0000000E+000	58.4858	0.0000000E+000	0.0000000E+000	0.0000000E+000	-58.4858	0.0000000E+000	0.0000000E+000	0.0000000E+000	-31.5142	0.0000000E+000	0.0000000E+000	0.0000000E+000	31.5142	1.63094	58.4858	-1.91322e-06	-3.49181e-06	-8.61916e-10	-3.49094e-06	0.235241	15855.9	3.91388	15852
68.104	10.8257	5.65848	12.2153	-27.5957	10.3194	0.235312	-0.0135206	412.998	88.6216	1	10	0.00457415	0.000374461	0	1.60672e-05	0.000134473	1.67675e-05	-33.6302	0.0447778	0.0372833	0.0247993	-27.6177	12.2598	10.8629	5.68327	0.0725516	0.0379221	0.0818646	27.5957	88621.6	169549	191313	-62.4043	0.0000000E+000	0.0000000E+000	0.0000000E+000	62.4043	0.0000000E+000	0.0000000E+000	0.0000000E+000	-62.4043	0.0000000E+000	0.0000000E+000	0.0000000E+000	-27.5957	0.0000000E+000	0.0000000E+000	0.0000000E+000	27.5957	1.91318	62.4043	-1.77976e-06	-3.18157e-06	-1.81817e-09	-3.17975e-06	0.235178	17404	9.9458	17394
46.4415	12.5981	5.34788	13.6862	-23.0012	10.7557	0.235307	-0.0149405	640.814	97.8433	1	10	0.00457142	0.000334017	0	1.44008e-05	0.000191768	9.38324e-06	-17.9945	0.0280921	0.026718	0.00867839	-22.991	13.7142	12.6248	5.35656	0.0672574	0.0285507	0.0730665	23.0012	97843.3	230491	250398	-66.9988	0.0000000E+000	0.0000000E+000	0.0000000E+000	66.9988	0.0000000E+000	0.0000000E+000	0.0000000E+000	-66.9988	0.0000000E+000	0.0000000E+000	0.0000000E+000	-23.0012	0.0000000E+000	0.0000000E+000	0.0000000E+000	23.0012	2.35572	66.9988	-1.66635e-06	-3.5156e-06	-2.86509e-09	-3.51273e-06	0.235115	15749.7	12.8355	15736.8
31.6296	14.0719	4.7818	14.8622	-18.7684	11.1856	0.235307	-0.0149218	1052.29	108.932	1	10	0.00457118	0.000307572	0	1.19398e-05	9.62774e-05	9.20626e-06	21.1393	0.0299321	0.0279178	-0.0107946	-18.6945	14.8851	14.0998	4.771	0.0637072	0.0216485	0.067285	18.7684	108932	320565	338567	-71.2316	0.0000000E+000	0.0000000E+000	0.0000000E+000	71.2316	0.0000000E+000	0.0000000E+000	0.0000000E+000	-71.2316	0.0000000E+000	0.0000000E+000	0.0000000E+000	-18.7684	0.0000000E+000	0.0000000E+000	0.0000000E+000	18.7684	2.9428	71.2316	-2.46104e-06	-3.51122e-06	-1.43663e-09	-3.50978e-06	0.235211	15769.4	6.45212	15762.9
21.5517	15.2673	4.12766	15.8155	-15.1287	11.8384	0.235301	-0.0170594	1789.1	121.865	1	11	0.0045658	0.000288692	0	8.06627e-06	0.000115375	6.18141e-06	-8.58739	0.0214118	0.0211718	0.00319716	-15.1199	15.8368	15.2885	4.13086	0.0610378	0.0165021	0.0632292	15.1287	121865	450751	466934	-74.8713	0.0000000E+000	0.0000000E+000	0.0000000E+000	74.8713	0.0000000E+000	0.0000000E+000	0.0000000E+000	-74.8713	0.0000000E+000	0.0000000E+000	0.0000000E+000	-15.1287	0.0000000E+000	0.0000000E+000	0.0000000E+000	15.1287	3.69879	74.8713	-3.87353e-06	-4.01408e-06	-1.96823e-09	-4.01211e-06	0.235185	13793	6.76316	13786.3
14.6852	16.1739	3.46622	16.5411	-12.0961	12.2992	0.235312	-0.0163297	3126.69	137.299	1	11	0.00457012	0.000276288	0	5.2368e-06	0.000401846	6.80896e-06	16.0944	0.0246444	0.0236785	-0.00683192	-12.0558	16.5629	16.1976	3.45939	0.0591131	0.0126685	0.0604554	12.0961	137299	640657	655204	-77.9039	0.0000000E+000	0.0000000E+000	0.0000000E+000	77.9039	0.0000000E+000	0.0000000E+000	0.0000000E+000	-77.9039	0.0000000E+000	0.0000000E+000	0.0000000E+000	-12.0961	0.0000000E+000	0.0000000E+000	0.0000000E+000	12.0961	4.66614	77.9039	-2.82947e-06	-3.84257e-06	-6.56201e-09	-3.836e-06	0.23491	14410.1	24.6083	14385.5
10.0032	16.8447	2.92285	17.0964	-9.8438	12.7498	0.235312	-0.0163562	5443.46	159.103	1	11	0.00456963	0.000267286	0	5.42257e-06	0.000249062	6.7486e-06	58.1107	0.0252486	0.0133384	-0.0214379	-9.76541	17.1059	16.858	2.90141	0.0576307	0.00999992	0.0584918	9.8438	159103	916927	930628	-80.1562	0.0000000E+000	0.0000000E+000	0.0000000E+000	80.1562	0.0000000E+000	0.0000000E+000	0.0000000E+000	-80.1562	0.0000000E+000	0.0000000E+000	0.0000000E+000	-9.8438	0.0000000E+000	0.0000000E+000	0.0000000E+000	9.8438	5.76311	80.1562	1.85764e-07	-3.84879e-06	-4.07369e-09	-3.84472e-06	0.235062	14386.7	15.2274	14371.5
6.81719	17.3837	2.46294	17.5573	-8.06405	13.0895	0.235301	-0.0161961	9478.96	186.531	1	11	0.00456323	0.000259905	0	1.70314e-06	0.000153571	6.52982e-06	18.6353	0.0251239	0.0238067	-0.00802816	-8.02725	17.5798	17.4075	2.45491	0.0563931	0.00798982	0.0569562	8.06405	186531	1.31656e+06	1.32971e+06	-81.936	0.0000000E+000	0.0000000E+000	0.0000000E+000	81.936	0.0000000E+000	0.0000000E+000	0.0000000E+000	-81.936	0.0000000E+000	0.0000000E+000	0.0000000E+000	-8.06405	0.0000000E+000	0.0000000E+000	0.0000000E+000	8.06405	7.05811	81.936	-3.71942e-06	-3.81097e-06	-2.48726e-09	-3.80848e-06	0.235148	14528.2	9.48199	14518.8
4.63925	17.847	2.158	17.977	-6.89456	13.5745	0.235302	-0.0163315	15897.2	229.082	1	11	0.00456507	0.000253939	0	-7.71011e-07	7.87179e-07	1.20855e-05	-94.645	0.0475921	-0.00385412	0.0474358	-7.04611	17.9789	17.8431	2.20544	0.0552244	0.00667757	0.0556267	6.89456	229082	1.89454e+06	1.90834e+06	-83.1054	0.0000000E+000	0.0000000E+000	0.0000000E+000	83.1054	0.0000000E+000	0.0000000E+000	0.0000000E+000	-83.1054	0.0000000E+000	0.0000000E+000	0.0000000E+000	-6.89456	0.0000000E+000	0.0000000E+000	0.0000000E+000	6.89456	8.27014	83.1054	-2.47416e-06	-3.84284e-06	-1.28558e-11	-3.84283e-06	0.235301	14407.8	0.0481999	14407.8
3.1604	18.2293	1.92161	18.3303	-6.01751	14.2674	0.235304	-0.01596	26206.8	288.008	1	11	0.00456518	0.000249051	0	-4.96233e-07	0.000191768	4.6249e-06	1.33343	0.0185701	0.0185651	-0.000432138	-6.01009	18.3487	18.2478	1.92117	0.054254	0.00571908	0.0545546	6.01751	288008	2.73218e+06	2.74732e+06	-83.9825	0.0000000E+000	0.0000000E+000	0.0000000E+000	83.9825	0.0000000E+000	0.0000000E+000	0.0000000E+000	-83.9825	0.0000000E+000	0.0000000E+000	0.0000000E+000	-6.01751	0.0000000E+000	0.0000000E+000	0.0000000E+000	6.01751	9.48648	83.9825	2.74777e-07	-3.75545e-06	-3.06061e-09	-3.75239e-06	0.235113	14743.4	12.0155	14731.4
2.15577	18.6069	1.71354	18.6856	-5.26164	15.2711	0.235309	-0.0148167	43084.7	362.326	1	11	0.00456624	0.000244372	0	-1.87629e-06	5.80813e-05	5.72926e-06	42.1566	0.0234448	0.01738	-0.0157352	-5.20875	18.7015	18.6242	1.69781	0.0532917	0.00490773	0.0535172	5.26164	362326	3.93439e+06	3.95104e+06	-84.7384	0.0000000E+000	0.0000000E+000	0.0000000E+000	84.7384	0.0000000E+000	0.0000000E+000	0.0000000E+000	-84.7384	0.0000000E+000	0.0000000E+000	0.0000000E+000	-5.26164	0.0000000E+000	0.0000000E+000	0.0000000E+000	5.26164	10.8587	84.7384	-1.38006e-06	-3.48651e-06	-8.60575e-10	-3.48565e-06	0.235251	15881.3	3.91998	15877.4
1.46631	18.9529	1.59012	19.0195	-4.79581	16.7325	0.235301	-0.0139285	68259.6	477.121	1	11	0.0045689	0.000240222	0	-9.34562e-06	-9.4703e-05	4.96277e-06	-46.4556	0.0206591	0.0142324	0.0149746	-4.83714	19.0349	18.9671	1.6051	0.0523936	0.00439576	0.0525777	4.79581	477120	5.68686e+06	5.70684e+06	-85.2042	0.0000000E+000	0.0000000E+000	0.0000000E+000	85.2042	0.0000000E+000	0.0000000E+000	0.0000000E+000	-85.2042	0.0000000E+000	0.0000000E+000	0.0000000E+000	-4.79581	0.0000000E+000	0.0000000E+000	0.0000000E+000	4.79581	11.9191	85.2042	-7.46933e-06	-3.27738e-06	1.31907e-09	-3.2787e-06	0.235396	16893.5	6.79924	16900.3
1.00006	19.2349	1.48038	19.2918	-4.40097	19.9059	0.235302	-0.0132937	107503	633.021	1	12	0.0045674	0.000236753	0	-2.88865e-05	-9.4703e-05	3.04543e-06	75.6814	0.0128633	0.00318128	-0.0124637	-4.36335	19.2941	19.2381	1.46791	0.0516826	0.00397764	0.0518354	4.40097	633021	8.22501e+06	8.24933e+06	-85.599	0.0000000E+000	0.0000000E+000	0.0000000E+000	85.599	0.0000000E+000	0.0000000E+000	0.0000000E+000	-85.599	0.0000000E+000	0.0000000E+000	0.0000000E+000	-4.40097	0.0000000E+000	0.0000000E+000	0.0000000E+000	4.40097	12.9933	85.599	-1.95408e-05	-3.12803e-06	1.25895e-09	-3.12929e-06	0.235397	17700.2	7.1239	17707.4
0.681362	19.5366	1.38946	19.586	-4.06808	23.018	0.235319	-0.0124547	168111	846.056	1	12	0.00457038	0.00023335	0	-4.84054e-05	0.00036365	1.45439e-05	-52.5204	0.0623266	0.0379244	0.0494605	-4.20424	19.6273	19.5745	1.43892	0.0509284	0.00362207	0.051057	4.06808	846056	1.1896e+07	1.19261e+07	-85.9319	0.0000000E+000	0.0000000E+000	0.0000000E+000	85.9319	0.0000000E+000	0.0000000E+000	0.0000000E+000	-85.9319	0.0000000E+000	0.0000000E+000	0.0000000E+000	-4.06808	0.0000000E+000	0.0000000E+000	0.0000000E+000	4.06808	14.0606	85.9319	-1.95189e-05	-2.93083e-06	-4.52916e-09	-2.9263e-06	0.234955	18893.9	29.1977	18864.7
0.464091	19.7763	1.46539	19.8306	-4.23778	27.5746	0.235306	-0.0131947	234025	1277.92	1	12	0.00457155	0.000230531	0	-6.74038e-05	0.000210866	2.06936e-06	-41.5603	0.00897652	0.00671675	0.0059551	-4.2535	19.8377	19.7831	1.47135	0.0502894	0.00372636	0.0504272	4.23778	1.27792e+06	1.72462e+07	1.72935e+07	-85.7622	0.0000000E+000	0.0000000E+000	0.0000000E+000	85.7622	0.0000000E+000	0.0000000E+000	0.0000000E+000	-85.7622	0.0000000E+000	0.0000000E+000	0.0000000E+000	-4.23778	0.0000000E+000	0.0000000E+000	0.0000000E+000	4.23778	13.4956	85.7622	-1.89984e-05	-3.1048e-06	-2.78232e-09	-3.10202e-06	0.235095	17833.3	15.981	17817.3
0.316193	19.9869	1.61462	20.052	-4.61854	34.248	0.235303	-0.0132344	311744	2021.25	1	12	0.00456888	0.000227851	0	-8.11301e-05	0.00036365	5.50748e-07	-160.606	0.00241714	-0.00227999	0.000802625	-4.62135	20.0498	19.9846	1.61542	0.0497084	0.00401563	0.0498703	4.61854	2.02126e+06	2.50206e+07	2.51021e+07	-85.3815	0.0000000E+000	0.0000000E+000	0.0000000E+000	85.3815	0.0000000E+000	0.0000000E+000	0.0000000E+000	-85.3815	0.0000000E+000	0.0000000E+000	0.0000000E+000	-4.61854	0.0000000E+000	0.0000000E+000	0.0000000E+000	4.61854	12.3787	85.3815	-1.37263e-05	-3.1141e-06	-4.8127e-09	-3.10928e-06	0.234939	17779.6	27.4776	17752.1
0.215268	20.1823	1.8551	20.2674	-5.25171	44.0414	0.235309	-0.0121759	398541	3338.97	1	12	0.00456702	0.000225338	0	-8.58577e-05	0.000287258	1.11655e-06	-23.7667	0.00495499	0.00453477	0.00199693	-5.25616	20.2721	20.1869	1.8571	0.0491332	0.00451618	0.0493403	5.25171	3.33897e+06	3.63258e+07	3.6479e+07	-84.7483	0.0000000E+000	0.0000000E+000	0.0000000E+000	84.7483	0.0000000E+000	0.0000000E+000	0.0000000E+000	-84.7483	0.0000000E+000	0.0000000E+000	0.0000000E+000	-5.25171	0.0000000E+000	0.0000000E+000	0.0000000E+000	5.25171	10.8794	84.7483	-4.72758e-06	-2.86508e-06	-3.49761e-09	-2.86159e-06	0.235021	19325.8	23.5924	19302.2
0.146929	20.4434	2.20512	20.562	-6.15637	58.3798	0.235285	-0.0111873	491226	5649.54	1	12	0.00456692	0.000222105	0	-9.17513e-05	0.000153571	5.68229e-07	-69.5261	0.00255838	0.000894873	0.00239677	-6.16274	20.5632	20.4443	2.20752	0.0483529	0.00521555	0.0486333	6.15637	5.64955e+06	5.23764e+07	5.26802e+07	-83.8436	0.0000000E+000	0.0000000E+000	0.0000000E+000	83.8436	0.0000000E+000	0.0000000E+000	0.0000000E+000	-83.8436	0.0000000E+000	0.0000000E+000	0.0000000E+000	-6.15637	0.0000000E+000	0.0000000E+000	0.0000000E+000	6.15637	9.2709	83.8436	-5.89367e-06	-2.6322e-06	-1.71805e-09	-2.63048e-06	0.235131	21031.5	13.7273	21017.7
0.0999041	20.8304	2.7651	21.0132	-7.56141	79.4561	0.235299	-0.00861439	576138	9976.17	1	12	0.00455985	0.000217	0	-0.000113491	0.00017267	1.09407e-06	-29.7565	0.00504181	0.00437701	0.00250232	-7.5666	21.0178	20.8348	2.7676	0.0471754	0.0062622	0.0475892	7.56141	9.97616e+06	7.5154e+07	7.58133e+07	-82.4386	0.0000000E+000	0.0000000E+000	0.0000000E+000	82.4386	0.0000000E+000	0.0000000E+000	0.0000000E+000	-82.4386	0.0000000E+000	0.0000000E+000	0.0000000E+000	-7.56141	0.0000000E+000	0.0000000E+000	0.0000000E+000	7.56141	7.53336	82.4386	-2.17395e-05	-2.02696e-06	-1.48744e-09	-2.02547e-06	0.235127	27314.7	20.0443	27294.6
0.0680626	21.2941	3.61562	21.5989	-9.63661	110.383	0.235286	-0.00793472	646738	18123.1	1	12	0.00457345	0.000211745	0	-0.000186036	0.00017267	2.87409e-06	30.0154	0.0135734	0.0117531	-0.00678986	-9.61365	21.6093	21.3058	3.60883	0.0456454	0.00775035	0.0462987	9.63661	1.81231e+07	1.06735e+08	1.08263e+08	-80.3634	0.0000000E+000	0.0000000E+000	0.0000000E+000	80.3634	0.0000000E+000	0.0000000E+000	0.0000000E+000	-80.3634	0.0000000E+000	0.0000000E+000	0.0000000E+000	-9.63661	0.0000000E+000	0.0000000E+000	0.0000000E+000	9.63661	5.88946	80.3634	-7.25447e-05	-1.86693e-06	-1.37008e-09	-1.86556e-06	0.235113	29652.7	21.7613	29630.9
0.0464052	21.7825	4.72766	22.2896	-12.2455	155.735	0.235285	-0.00772812	725450	32635.9	1	12	0.00457743	0.000205362	0	-0.000369287	0.000249062	1.23813e-06	-70.5011	0.00602903	0.00201242	0.00568325	-12.2587	22.2928	21.7845	4.73334	0.0438432	0.00951572	0.044864	12.2455	3.26358e+07	1.50368e+08	1.53869e+08	-77.7545	0.0000000E+000	0.0000000E+000	0.0000000E+000	77.7545	0.0000000E+000	0.0000000E+000	0.0000000E+000	-77.7545	0.0000000E+000	0.0000000E+000	0.0000000E+000	-12.2455	0.0000000E+000	0.0000000E+000	0.0000000E+000	12.2455	4.60745	77.7545	-0.000183251	-1.81831e-06	-1.92478e-09	-1.81639e-06	0.235036	30445.4	32.228	30413.1
0.0315922	22.5348	6.0801	23.3407	-15.0994	222.339	0.235289	-0.00806432	828570	56224.4	1	12	0.00456911	0.000195758	0	-0.000696819	0.00017267	2.35033e-06	37.9091	0.0120063	0.00947283	-0.0073768	-15.0758	23.3479	22.5443	6.07272	0.0413645	0.0111605	0.0428437	15.0994	5.62244e+07	2.08386e+08	2.15838e+08	-74.9006	0.0000000E+000	0.0000000E+000	0.0000000E+000	74.9006	0.0000000E+000	0.0000000E+000	0.0000000E+000	-74.9006	0.0000000E+000	0.0000000E+000	0.0000000E+000	-15.0994	0.0000000E+000	0.0000000E+000	0.0000000E+000	15.0994	3.70633	74.9006	-0.000327532	-1.89745e-06	-1.39246e-09	-1.89605e-06	0.235116	29176.6	21.4115	29155.2
0.0215268	23.7254	7.94917	25.0217	-18.5234	320.078	0.235281	-0.00923244	930078	93870.8	1	12	0.00457616	0.000182888	0	-0.00114648	5.80813e-05	1.14839e-06	7.96932	0.00627922	0.00621857	-0.000870569	-18.517	25.0273	23.7316	7.9483	0.0378949	0.0126967	0.0399654	18.5234	9.38708e+07	2.8017e+08	2.95478e+08	-71.4766	0.0000000E+000	0.0000000E+000	0.0000000E+000	71.4766	0.0000000E+000	0.0000000E+000	0.0000000E+000	-71.4766	0.0000000E+000	0.0000000E+000	0.0000000E+000	-18.5234	0.0000000E+000	0.0000000E+000	0.0000000E+000	18.5234	2.98464	71.4766	-0.000449662	-2.17222e-06	-5.36232e-10	-2.17169e-06	0.235223	25484.2	6.291	25477.9
0.0146812	25.2485	10.5744	27.3734	-22.7245	463.379	0.235285	-0.00996709	1.02519e+06	152987	1	12	0.00456718	0.000166847	0	-0.00160914	0.000325454	1.33036e-06	59.3849	0.00797354	0.00406067	-0.00686209	-22.708	27.3745	25.2526	10.5675	0.0336959	0.0141122	0.0365318	22.7245	1.52987e+08	3.65289e+08	3.96032e+08	-67.2755	0.0000000E+000	0.0000000E+000	0.0000000E+000	67.2755	0.0000000E+000	0.0000000E+000	0.0000000E+000	-67.2755	0.0000000E+000	0.0000000E+000	0.0000000E+000	-22.7245	0.0000000E+000	0.0000000E+000	0.0000000E+000	22.7245	2.38771	67.2755	-0.000462655	-2.34511e-06	-3.24383e-09	-2.34186e-06	0.23496	23606.2	32.6528	23573.5
0.0100092	27.1201	13.7456	30.4047	-26.8777	673.561	0.235288	-0.0103717	1.1568e+06	236431	1	12	0.00457049	0.000150322	0	-0.00198919	0.00017267	1.50561e-06	27.1789	0.0100159	0.00891	-0.00457496	-26.8624	30.4105	27.1291	13.741	0.0293367	0.014869	0.0328897	26.8777	2.36431e+08	4.66481e+08	5.22976e+08	-63.1223	0.0000000E+000	0.0000000E+000	0.0000000E+000	63.1223	0.0000000E+000	0.0000000E+000	0.0000000E+000	-63.1223	0.0000000E+000	0.0000000E+000	0.0000000E+000	-26.8777	0.0000000E+000	0.0000000E+000	0.0000000E+000	26.8777	1.97301	63.1223	-0.000380057	-2.44033e-06	-1.79088e-09	-2.43854e-06	0.235115	22685.6	16.6481	22668.9