File: txt/18396_R277_UA690_SOC00_C05.mpt
EC-Lab ASCII FILE
Nb header lines : 65

Potentio Electrochemical Impedance Spectroscopy

Run on channel : 5 (SN 65912)
User :
CE vs. WE compliance from -10 V to 10 V
Electrode connection : standard
Potential control : Ewe
Ewe ctrl range : min = -10.00 V, max = 10.00 V
Safety Limits :
	Do not start on E overload
Acquisition started on : 10/13/2025 14:56:20.136
Technique started on : 10/13/2025 14:56:22.190
Loaded Setting File :  C:\Users\Celltest\OneDrive - store-dot.com\Documents\EC-Lab\Data\@Biologic Test Protocols\anode half cell EIS SOC00.mps
Saved on :
	File : 18396_R277_UA690_SOC00_C05.mpr
	Directory : C:\Users\Celltest\OneDrive - store-dot.com\Documents\EC-Lab\Data\Gyutae\
	Host : 169.254.61.224
Device : VMP-3e (SN .003165)
Address : USB
EC-LAB for windows v11.62 (software)
Internet server v27.00 (firmware)
Command interpretor v12.03 (firmware)
Electrode material :
Initial state :
Electrolyte :
Comments :
Electrode surface area : 0.001 cm²
Characteristic mass : 0.001 g
Equivalent Weight : 0.000 g/eq.
Density : 0.000 g/cm3
Volume (V) : 0.001 cm³
Record Ece
Cycle Definition : Charge/Discharge alternance
Mode                Single sine
E (V)               0.0000
vs.                 Eoc
tE (h:m:s)          0:00:0.0000
record              0
dI                  0.000
unit dI             mA
dt (s)              0.000
fi                  100.000
unit fi             kHz
ff                  10.000
unit ff             mHz
Nd                  6
Points              per decade
spacing             Logarithmic
Va (mV)             5.0
pw                  0.10
Na                  2
corr                0
E range min (V)     -10.000
E range max (V)     10.000
I Range             Auto
Bandwidth           5
nc cycles           0
goto Ns'            0
nr cycles           0
inc. cycle          0

freq/Hz	Re(Z)/Ohm	-Im(Z)/Ohm	|Z|/Ohm	Phase(Z)/deg	time/s	<Ewe>/V	<I>/mA	Cs/µF	Cp/µF	cycle number	I Range	|Ewe|/V	|I|/A	Ns	(Q-Qo)/mA.h	<Ece>/V	|Ece|/V	Phase(Zce)/deg	|Zce|/Ohm	Re(Zce)/Ohm	-Im(Zce)/Ohm	Phase(Zwe-ce)/deg	|Zwe-ce|/Ohm	Re(Zwe-ce)/Ohm	-Im(Zwe-ce)/Ohm	Re(Y)/Ohm-1	Im(Y)/Ohm-1	|Y|/Ohm-1	Phase(Y)/deg	Re(C)/nF	Im(C)/nF	|C|/nF	Phase(C)/deg	Re(M)	Im(M)	|M|	Phase(M)/deg	Re(Permittivity)	Im(Permittivity)	|Permittivity|	Phase(Permittivity)/deg	Re(Resistivity)/Ohm.cm	Im(Resistivity)/Ohm.cm	|Resistivity|/Ohm.cm	Phase(Resistivity)/deg	Re(Conductivity)/mS/cm	Im(Conductivity)/mS/cm	|Conductivity|/mS/cm	Phase(Conductivity)/deg	Tan(Delta)	Loss Angle(Delta)/deg	dq/mA.h	Pwe/W	Pce/W	Pwe-ce/W	<Ewe-Ece>/V	Rwe/Ohm	Rce/Ohm	Rwe-ce/Ohm		Ewe-Ece/V
100004	1.11846	0.377688	1.18051	-18.6591	2.05356	0.234093	-0.00449027	4.21377	0.43132	1	9	0.0050418	0.00427087	0	-5.06425e-06	-0.000117823	4.75253e-05	72.4143	0.0111278	0.00336206	-0.0106077	-18.119	1.18035	1.12182	0.36708	0.802569	0.271016	0.847093	18.6591	431.32	1277.28	1348.14	-71.3409	0.0000000E+000	0.0000000E+000	0.0000000E+000	71.3409	0.0000000E+000	0.0000000E+000	0.0000000E+000	-71.3409	0.0000000E+000	0.0000000E+000	0.0000000E+000	-18.6591	0.0000000E+000	0.0000000E+000	0.0000000E+000	18.6591	2.96133	71.3409	-5.06425e-06	-1.05114e-06	5.29056e-10	-1.05167e-06	0.234211	52133.5	26.2396	52159.7
68132	1.21766	0.433603	1.29256	-19.6006	2.43852	0.234068	-0.00482543	5.38737	0.606264	1	9	0.00548699	0.00424507	0	-7.2254e-06	-0.000136914	3.70754e-05	57.3271	0.00873376	0.00471485	-0.00735178	-19.2241	1.29456	1.22237	0.426251	0.72883	0.259533	0.77366	19.6006	606.263	1702.53	1807.25	-70.3994	0.0000000E+000	0.0000000E+000	0.0000000E+000	70.3994	0.0000000E+000	0.0000000E+000	0.0000000E+000	-70.3994	0.0000000E+000	0.0000000E+000	0.0000000E+000	-19.6006	0.0000000E+000	0.0000000E+000	0.0000000E+000	19.6006	2.80823	70.3994	-2.16115e-06	-1.12948e-06	6.60668e-10	-1.13014e-06	0.234205	48507.1	28.3734	48535.5
46420.4	1.3257	0.485798	1.4119	-20.1252	2.94552	0.234052	-0.00705983	7.05758	0.835522	1	9	0.0050086	0.00354741	0	2.68267e-06	0.000321275	2.014e-05	25.8108	0.00567738	0.00511098	-0.00247193	-19.9602	1.41586	1.33081	0.483326	0.665019	0.243695	0.708264	20.1252	835.522	2280.06	2428.33	-69.8748	0.0000000E+000	0.0000000E+000	0.0000000E+000	69.8748	0.0000000E+000	0.0000000E+000	0.0000000E+000	-69.8748	0.0000000E+000	0.0000000E+000	0.0000000E+000	-20.1252	0.0000000E+000	0.0000000E+000	0.0000000E+000	20.1252	2.7289	69.8748	9.90807e-06	-1.65237e-06	-2.26815e-09	-1.6501e-06	0.233731	33152.7	45.5075	33107.2
31621.1	1.44684	0.546368	1.54656	-20.688	3.33052	0.234049	-0.0133534	9.21207	1.14973	1	9	0.00533748	0.00345119	0	-1.07023e-06	7.30894e-05	1.24729e-05	13.528	0.0036141	0.00351383	-0.000845414	-20.6129	1.54955	1.45035	0.545523	0.604902	0.228429	0.646596	20.688	1149.73	3044.58	3254.44	-69.312	0.0000000E+000	0.0000000E+000	0.0000000E+000	69.312	0.0000000E+000	0.0000000E+000	0.0000000E+000	-69.312	0.0000000E+000	0.0000000E+000	0.0000000E+000	-20.688	0.0000000E+000	0.0000000E+000	0.0000000E+000	20.688	2.6481	69.312	-3.7529e-06	-3.12535e-06	-9.7599e-10	-3.12437e-06	0.233976	17527.4	5.47349	17521.9
21544.7	1.58263	0.609016	1.69576	-21.0474	3.71355	0.234037	-0.00773016	12.1297	1.56452	1	9	0.0045412	0.00267797	0	-4.97266e-06	0.000149454	1.28671e-05	69.4131	0.00480479	0.00168949	-0.00449796	-20.8851	1.69573	1.58431	0.604518	0.550363	0.211787	0.589706	21.0474	1564.52	4065.64	4356.28	-68.9526	0.0000000E+000	0.0000000E+000	0.0000000E+000	68.9526	0.0000000E+000	0.0000000E+000	0.0000000E+000	-68.9526	0.0000000E+000	0.0000000E+000	0.0000000E+000	-21.0474	0.0000000E+000	0.0000000E+000	0.0000000E+000	21.0474	2.59866	68.9526	-3.90243e-06	-1.80914e-06	-1.15531e-09	-1.80799e-06	0.233887	30275.8	19.3339	30256.5
14678.6	1.71802	0.670504	1.84423	-21.3196	4.09655	0.234032	-0.0085122	16.1709	2.13751	1	9	0.00504433	0.00273521	0	-5.95219e-06	0.000187637	1.35447e-05	-62.4517	0.00495198	0.00229027	0.00439053	-21.4206	1.84796	1.72031	0.674894	0.505127	0.197139	0.542233	21.3196	2137.51	5476.91	5879.25	-68.6804	0.0000000E+000	0.0000000E+000	0.0000000E+000	68.6804	0.0000000E+000	0.0000000E+000	0.0000000E+000	-68.6804	0.0000000E+000	0.0000000E+000	0.0000000E+000	-21.3196	0.0000000E+000	0.0000000E+000	0.0000000E+000	21.3196	2.56228	68.6804	-9.7953e-07	-1.99213e-06	-1.5972e-09	-1.99053e-06	0.233845	27493.7	22.0433	27471.7
10002.2	1.87021	0.756948	2.01759	-22.0351	4.47953	0.234027	-0.0077674	21.0212	2.95887	1	9	0.00510357	0.00252954	0	-3.8783e-06	0.000264002	8.99494e-06	-58.2322	0.00355595	0.00187213	0.00302323	-22.0947	2.02046	1.87208	0.759972	0.459437	0.185953	0.495642	22.0351	2958.87	7310.54	7886.63	-67.9649	0.0000000E+000	0.0000000E+000	0.0000000E+000	67.9649	0.0000000E+000	0.0000000E+000	0.0000000E+000	-67.9649	0.0000000E+000	0.0000000E+000	0.0000000E+000	-22.0351	0.0000000E+000	0.0000000E+000	0.0000000E+000	22.0351	2.47072	67.9649	2.07389e-06	-1.81778e-06	-2.05061e-09	-1.81573e-06	0.233763	30129.4	33.9884	30095.4
6810.42	2.04476	0.858329	2.21761	-22.7712	4.86254	0.234022	-0.0143961	27.2265	4.07878	1	9	0.00516008	0.00232687	0	-1.43337e-06	5.39982e-05	4.07114e-05	-42.387	0.0174962	0.0129228	0.0117948	-22.9218	2.23409	2.05768	0.870124	0.41579	0.174536	0.450937	22.7712	4078.78	9716.72	10538.1	-67.2288	0.0000000E+000	0.0000000E+000	0.0000000E+000	67.2288	0.0000000E+000	0.0000000E+000	0.0000000E+000	-67.2288	0.0000000E+000	0.0000000E+000	0.0000000E+000	-22.7712	0.0000000E+000	0.0000000E+000	0.0000000E+000	22.7712	2.38226	67.2288	2.44493e-06	-3.369e-06	-7.77363e-10	-3.36822e-06	0.233968	16255.9	3.75089	16252.2
4646	2.23547	0.964175	2.43453	-23.3309	5.25763	0.234017	-0.0174125	35.5292	5.57269	1	9	0.0051196	0.00210291	0	-2.31269e-06	-0.000289644	9.96327e-06	17.6712	0.00473786	0.0045143	-0.0014382	-23.2578	2.43811	2.23998	0.962736	0.37717	0.162676	0.410756	23.3309	5572.69	12920.5	14071	-66.6691	0.0000000E+000	0.0000000E+000	0.0000000E+000	66.6691	0.0000000E+000	0.0000000E+000	0.0000000E+000	-66.6691	0.0000000E+000	0.0000000E+000	0.0000000E+000	-23.3309	0.0000000E+000	0.0000000E+000	0.0000000E+000	23.3309	2.31853	66.6691	-8.79325e-07	-4.07482e-06	5.04343e-09	-4.07987e-06	0.234306	13439.6	16.6342	13456.2
3163.08	2.45797	1.10992	2.69695	-24.3019	5.80767	0.233989	-0.0362559	45.3336	7.67811	1	9	0.00511023	0.00189482	0	-1.00814e-05	9.21806e-05	9.83466e-06	12.8882	0.00519029	0.00505953	-0.00115769	-24.2354	2.70109	2.46303	1.10876	0.337933	0.152596	0.370789	24.3019	7678.11	17003.6	18656.8	-65.6981	0.0000000E+000	0.0000000E+000	0.0000000E+000	65.6981	0.0000000E+000	0.0000000E+000	0.0000000E+000	-65.6981	0.0000000E+000	0.0000000E+000	0.0000000E+000	-24.3019	0.0000000E+000	0.0000000E+000	0.0000000E+000	24.3019	2.21456	65.6981	-7.76867e-06	-8.48347e-06	-3.34209e-09	-8.48013e-06	0.233897	6453.82	2.5425	6451.28
2155.69	2.69587	1.27623	2.98269	-25.3329	6.25878	0.23399	-0.0158112	57.8504	10.5912	1	9	0.00512196	0.00171723	0	-1.19173e-05	-3.27544e-06	6.07762e-06	-125.828	0.00353921	-0.00207171	0.00286949	-25.3998	2.98205	2.6938	1.2791	0.303027	0.143453	0.335267	25.3329	10591.2	22372.5	24752.8	-64.6671	0.0000000E+000	0.0000000E+000	0.0000000E+000	64.6671	0.0000000E+000	0.0000000E+000	0.0000000E+000	-64.6671	0.0000000E+000	0.0000000E+000	0.0000000E+000	-25.3329	0.0000000E+000	0.0000000E+000	0.0000000E+000	25.3329	2.11238	64.6671	-1.83597e-06	-3.69967e-06	5.17887e-11	-3.69972e-06	0.233993	14799	0.207159	14799.2
1468.59	2.96465	1.47054	3.30932	-26.3826	6.71012	0.234	-0.0124969	73.6959	14.5518	1	9	0.00500483	0.00151234	0	-1.47433e-05	0.000149454	5.30635e-06	-70.8522	0.0035087	0.00115087	0.00331458	-26.4251	3.31183	2.9658	1.47385	0.270704	0.134276	0.302177	26.3826	14551.8	29336.9	32747.7	-63.6174	0.0000000E+000	0.0000000E+000	0.0000000E+000	63.6174	0.0000000E+000	0.0000000E+000	0.0000000E+000	-63.6174	0.0000000E+000	0.0000000E+000	0.0000000E+000	-26.3826	0.0000000E+000	0.0000000E+000	0.0000000E+000	26.3826	2.01603	63.6174	-2.826e-06	-2.92427e-06	-1.86771e-09	-2.9224e-06	0.233851	18724.7	11.9593	18712.7
1000.32	3.26274	1.73361	3.69471	-27.9833	7.40482	0.234013	-0.0137378	91.776	20.2057	1	10	0.00502053	0.00135884	0	-1.52503e-05	-7.96403e-05	1.3027e-05	157	0.00958683	-0.00882473	-0.00374587	-27.9963	3.68516	3.25391	1.72987	0.239013	0.126997	0.270657	27.9833	20205.7	38028	43062.7	-62.0167	0.0000000E+000	0.0000000E+000	0.0000000E+000	62.0167	0.0000000E+000	0.0000000E+000	0.0000000E+000	-62.0167	0.0000000E+000	0.0000000E+000	0.0000000E+000	-27.9833	0.0000000E+000	0.0000000E+000	0.0000000E+000	27.9833	1.88205	62.0167	-5.06979e-07	-3.21482e-06	1.09408e-09	-3.21591e-06	0.234092	17034.2	5.79717	17040
681.09	3.60885	2.09186	4.17129	-30.0986	7.85456	0.234015	-0.0133245	111.708	28.0936	1	10	0.00491789	0.00117899	0	-1.74952e-05	-0.000327826	2.49055e-06	-86.5598	0.00211245	0.000126763	0.00210865	-30.1228	4.17246	3.60897	2.09396	0.207409	0.120224	0.239734	30.0986	28093.6	48466.8	56020.3	-59.9014	0.0000000E+000	0.0000000E+000	0.0000000E+000	59.9014	0.0000000E+000	0.0000000E+000	0.0000000E+000	-59.9014	0.0000000E+000	0.0000000E+000	0.0000000E+000	-30.0986	0.0000000E+000	0.0000000E+000	0.0000000E+000	30.0986	1.72519	59.9014	-2.2449e-06	-3.11813e-06	4.36811e-09	-3.1225e-06	0.234343	17562.8	24.6033	17587.4
463.961	4.06398	2.55154	4.79857	-32.1223	8.30629	0.234022	-0.0123452	134.443	38.0117	1	10	0.00486657	0.00101417	0	-1.95483e-05	-3.27544e-06	4.83625e-06	-32.6155	0.00476868	0.00401669	0.00257031	-32.1228	4.80334	4.068	2.55411	0.176493	0.11081	0.208395	32.1223	38011.7	60543.4	71487	-57.8777	0.0000000E+000	0.0000000E+000	0.0000000E+000	57.8777	0.0000000E+000	0.0000000E+000	0.0000000E+000	-57.8777	0.0000000E+000	0.0000000E+000	0.0000000E+000	-32.1223	0.0000000E+000	0.0000000E+000	0.0000000E+000	32.1223	1.59276	57.8777	-2.05306e-06	-2.88905e-06	4.04361e-11	-2.88909e-06	0.234025	18956.4	0.26532	18956.7
316.316	4.67285	3.10201	5.60874	-33.5777	8.75407	0.234024	-0.0128591	162.202	49.6148	1	10	0.00481011	0.000857609	0	-2.03814e-05	9.21806e-05	8.03205e-06	58.8011	0.00936563	0.00485149	-0.00801112	-33.4821	5.60836	4.6777	3.094	0.148543	0.0986081	0.178293	33.5777	49614.8	74739.5	89708.5	-56.4223	0.0000000E+000	0.0000000E+000	0.0000000E+000	56.4223	0.0000000E+000	0.0000000E+000	0.0000000E+000	-56.4223	0.0000000E+000	0.0000000E+000	0.0000000E+000	-33.5777	0.0000000E+000	0.0000000E+000	0.0000000E+000	33.5777	1.50639	56.4223	-8.33114e-07	-3.00933e-06	-1.18536e-09	-3.00815e-06	0.233932	18199.2	7.16853	18192
215.345	5.55156	3.73676	6.69203	-33.9445	9.20456	0.234016	-0.011932	197.784	61.6689	1	10	0.00478575	0.000715142	0	-2.13785e-05	0.000225819	1.23086e-05	22.699	0.0172114	0.0158783	-0.00664171	-33.8216	6.70151	5.56744	3.73012	0.123965	0.0834411	0.149432	33.9445	61668.9	91619.1	110441	-56.0555	0.0000000E+000	0.0000000E+000	0.0000000E+000	56.0555	0.0000000E+000	0.0000000E+000	0.0000000E+000	-56.0555	0.0000000E+000	0.0000000E+000	0.0000000E+000	-33.9445	0.0000000E+000	0.0000000E+000	0.0000000E+000	33.9445	1.48566	56.0555	-9.97112e-07	-2.79227e-06	-2.69446e-09	-2.78957e-06	0.23379	19612.5	18.9256	19593.6
146.737	6.73436	4.27575	7.97707	-32.4121	9.65052	0.234015	-0.0121889	253.669	72.8794	1	10	0.00476575	0.000597431	0	-2.33766e-05	-0.000213279	7.44868e-06	14.3344	0.0124678	0.0120797	-0.0030868	-32.3469	7.98562	6.74644	4.27266	0.10583	0.0671932	0.125359	32.4121	72879.4	114786	135968	-57.5879	0.0000000E+000	0.0000000E+000	0.0000000E+000	57.5879	0.0000000E+000	0.0000000E+000	0.0000000E+000	-57.5879	0.0000000E+000	0.0000000E+000	0.0000000E+000	-32.4121	0.0000000E+000	0.0000000E+000	0.0000000E+000	32.4121	1.57501	57.5879	-1.99812e-06	-2.85238e-06	2.59963e-09	-2.85498e-06	0.234229	19199.1	17.4978	19216.6
100.032	8.14047	4.57101	9.33603	-29.3149	10.1018	0.234018	-0.0130304	348.072	83.439	1	10	0.0047477	0.000508536	0	-2.46453e-05	0.000264002	1.04689e-05	-23.5693	0.0205864	0.018869	0.00823165	-29.3023	9.35651	8.15934	4.57924	0.0933954	0.052443	0.107112	29.3149	83439	148596	170419	-60.6851	0.0000000E+000	0.0000000E+000	0.0000000E+000	60.6851	0.0000000E+000	0.0000000E+000	0.0000000E+000	-60.6851	0.0000000E+000	0.0000000E+000	0.0000000E+000	-29.3149	0.0000000E+000	0.0000000E+000	0.0000000E+000	29.3149	1.78089	60.6851	-1.26867e-06	-3.04934e-06	-3.44004e-09	-3.0459e-06	0.233754	17959.5	20.2605	17939.2
68.104	9.64556	4.50978	10.6478	-25.0584	10.5645	0.23402	-0.014624	518.194	92.9578	1	10	0.00475597	0.000446663	0	-2.61561e-05	0.000130363	1.25821e-05	-117.384	0.0281691	-0.0129564	0.0250126	-25.2099	10.6467	9.6326	4.53479	0.0850767	0.0397776	0.0939164	25.0584	92957.8	198819	219477	-64.9416	0.0000000E+000	0.0000000E+000	0.0000000E+000	64.9416	0.0000000E+000	0.0000000E+000	0.0000000E+000	-64.9416	0.0000000E+000	0.0000000E+000	0.0000000E+000	-25.0584	0.0000000E+000	0.0000000E+000	0.0000000E+000	25.0584	2.13881	64.9416	-1.5108e-06	-3.42231e-06	-1.90643e-09	-3.4204e-06	0.23389	16002.5	8.91433	15993.6
46.4415	10.9574	4.13945	11.7132	-20.6955	11.0017	0.234016	-0.0163926	827.886	103.396	1	10	0.00473722	0.000404434	0	-2.83599e-05	-4.14579e-05	1.06899e-05	59.0062	0.0264318	0.0136109	-0.022658	-20.5683	11.718	10.971	4.1168	0.0798648	0.0301712	0.0853738	20.6955	103396	273696	292576	-69.3045	0.0000000E+000	0.0000000E+000	0.0000000E+000	69.3045	0.0000000E+000	0.0000000E+000	0.0000000E+000	-69.3045	0.0000000E+000	0.0000000E+000	0.0000000E+000	-20.6955	0.0000000E+000	0.0000000E+000	0.0000000E+000	20.6955	2.64706	69.3045	-2.20384e-06	-3.83613e-06	6.79602e-10	-3.83681e-06	0.234057	14275.7	2.52906	14278.2
31.6296	12.0664	3.61892	12.5974	-16.695	11.4316	0.234	-0.0175804	1390.43	114.748	1	10	0.00474749	0.000376864	0	-2.96593e-05	5.39982e-05	9.79725e-06	-47.2805	0.0259968	0.0176365	0.0190994	-16.755	12.6197	12.084	3.63802	0.0760356	0.0228045	0.0793817	16.695	114748	382599	399436	-73.305	0.0000000E+000	0.0000000E+000	0.0000000E+000	73.305	0.0000000E+000	0.0000000E+000	0.0000000E+000	-73.305	0.0000000E+000	0.0000000E+000	0.0000000E+000	-16.695	0.0000000E+000	0.0000000E+000	0.0000000E+000	16.695	3.33424	73.305	-1.29935e-06	-4.1138e-06	-9.49309e-10	-4.11285e-06	0.233946	13310.3	3.0715	13307.2
21.5517	12.9054	3.08873	13.2698	-13.4598	11.8525	0.234005	-0.0178745	2390.89	129.535	1	10	0.00474974	0.000357935	0	-3.14089e-05	-3.27544e-06	5.94634e-06	-52.0164	0.0166129	0.0102242	0.0130941	-13.5044	13.2828	12.9156	3.10182	0.073289	0.0175407	0.0753588	13.4598	129535	541224	556509	-76.5402	0.0000000E+000	0.0000000E+000	0.0000000E+000	76.5402	0.0000000E+000	0.0000000E+000	0.0000000E+000	-76.5402	0.0000000E+000	0.0000000E+000	0.0000000E+000	-13.4598	0.0000000E+000	0.0000000E+000	0.0000000E+000	13.4598	4.17822	76.5402	-1.74962e-06	-4.18273e-06	5.85469e-11	-4.18279e-06	0.234008	13091.5	0.183246	13091.7
14.6852	13.5394	2.58003	13.783	-10.7888	12.5622	0.234031	-0.00747751	4200.65	147.189	1	11	0.00474749	0.000344445	0	-3.18278e-05	0.000416731	7.21998e-06	5.25266	0.0209612	0.0208732	-0.00191896	-10.7647	13.8032	13.5603	2.57811	0.0712705	0.0135811	0.0725529	10.7888	147189	772416	786315	-79.2112	0.0000000E+000	0.0000000E+000	0.0000000E+000	79.2112	0.0000000E+000	0.0000000E+000	0.0000000E+000	-79.2112	0.0000000E+000	0.0000000E+000	0.0000000E+000	-10.7888	0.0000000E+000	0.0000000E+000	0.0000000E+000	10.7888	5.24777	79.2112	-4.18894e-07	-1.74997e-06	-3.11611e-09	-1.74685e-06	0.233614	31298	55.7313	31242.2
10.0032	14.0498	2.20745	14.2222	-8.92907	13.0128	0.234025	-0.00742725	7207.6	173.636	1	11	0.00475316	0.000334207	0	-3.29595e-05	0.000111272	5.55237e-06	69.9915	0.0166136	0.00568449	-0.0156108	-8.8634	14.2254	14.0555	2.19184	0.0694606	0.0109134	0.0703127	8.92907	173636	1.10515e+06	1.1187e+06	-81.0709	0.0000000E+000	0.0000000E+000	0.0000000E+000	81.0709	0.0000000E+000	0.0000000E+000	0.0000000E+000	-81.0709	0.0000000E+000	0.0000000E+000	0.0000000E+000	-8.92907	0.0000000E+000	0.0000000E+000	0.0000000E+000	8.92907	6.36474	81.0709	-1.13168e-06	-1.73816e-06	-8.26444e-10	-1.73733e-06	0.233914	31509	14.9816	31494
6.81719	14.4464	1.83296	14.5622	-7.23106	13.3525	0.234011	-0.00829289	12736.9	201.796	1	11	0.0047486	0.000326091	0	-3.49776e-05	-6.05491e-05	5.98193e-06	-101.155	0.0183443	-0.003549	0.0179978	-7.30307	14.561	14.4428	1.85096	0.0681248	0.00864368	0.068671	7.23106	201796	1.59045e+06	1.6032e+06	-82.7689	0.0000000E+000	0.0000000E+000	0.0000000E+000	82.7689	0.0000000E+000	0.0000000E+000	0.0000000E+000	-82.7689	0.0000000E+000	0.0000000E+000	0.0000000E+000	-7.23106	0.0000000E+000	0.0000000E+000	0.0000000E+000	7.23106	7.88146	82.7689	-2.01815e-06	-1.94063e-06	5.02127e-10	-1.94113e-06	0.234072	28218.3	7.30132	28225.6
4.63925	14.764	1.60938	14.8514	-6.22109	13.8365	0.234021	-0.00777462	21316.4	250.319	1	11	0.00474779	0.000319685	0	-3.23836e-05	0.000187637	2.45966e-06	20.7919	0.00769401	0.00719294	-0.00273118	-6.20762	14.8583	14.7712	1.60665	0.066937	0.00729662	0.0673335	6.22109	250319	2.29635e+06	2.30995e+06	-83.7789	0.0000000E+000	0.0000000E+000	0.0000000E+000	83.7789	0.0000000E+000	0.0000000E+000	0.0000000E+000	-83.7789	0.0000000E+000	0.0000000E+000	0.0000000E+000	-6.22109	0.0000000E+000	0.0000000E+000	0.0000000E+000	6.22109	9.1737	83.7789	2.59401e-06	-1.81943e-06	-1.4588e-09	-1.81797e-06	0.233833	30100.6	24.1345	30076.5
3.1604	15.0528	1.39963	15.1177	-5.31218	14.5294	0.234015	-0.00731146	35980.3	308.404	1	11	0.00474244	0.0003137	0	-3.26873e-05	-2.23667e-05	5.35365e-06	-30.4824	0.0170661	0.0147073	0.00865721	-5.33966	15.1332	15.0675	1.40829	0.0658634	0.00612408	0.0661475	5.31218	308404	3.31683e+06	3.33113e+06	-84.6878	0.0000000E+000	0.0000000E+000	0.0000000E+000	84.6878	0.0000000E+000	0.0000000E+000	0.0000000E+000	-84.6878	0.0000000E+000	0.0000000E+000	0.0000000E+000	-5.31218	0.0000000E+000	0.0000000E+000	0.0000000E+000	5.31218	10.7548	84.6878	-3.03674e-07	-1.71099e-06	1.63533e-10	-1.71116e-06	0.234037	32006.6	3.05912	32009.7
2.15577	15.3177	1.26344	15.3697	-4.71522	15.533	0.23403	-0.00571793	58433.7	394.859	1	11	0.00475048	0.000309081	0	-3.87113e-05	0.000111272	1.04408e-06	119.429	0.00337801	-0.00165976	-0.00294213	-4.7048	15.3678	15.316	1.2605	0.0648428	0.00534839	0.065063	4.71522	394858	4.78718e+06	4.80344e+06	-85.2848	0.0000000E+000	0.0000000E+000	0.0000000E+000	85.2848	0.0000000E+000	0.0000000E+000	0.0000000E+000	-85.2848	0.0000000E+000	0.0000000E+000	0.0000000E+000	-4.71522	0.0000000E+000	0.0000000E+000	0.0000000E+000	4.71522	12.1238	85.2848	-6.02402e-06	-1.33817e-06	-6.36245e-10	-1.33753e-06	0.233919	40929.2	19.4602	40909.8
1.46631	15.5496	1.14947	15.592	-4.22779	16.9944	0.234033	-0.00544824	94426.9	513.202	1	11	0.00475025	0.000304659	0	-4.78347e-05	-0.000308735	4.30186e-06	52.6386	0.0141202	0.00856873	-0.0112231	-4.18436	15.5997	15.5581	1.13825	0.0639609	0.00472818	0.0641354	4.22779	513203	6.94239e+06	6.96133e+06	-85.7722	0.0000000E+000	0.0000000E+000	0.0000000E+000	85.7722	0.0000000E+000	0.0000000E+000	0.0000000E+000	-85.7722	0.0000000E+000	0.0000000E+000	0.0000000E+000	-4.22779	0.0000000E+000	0.0000000E+000	0.0000000E+000	4.22779	13.5276	85.7722	-9.12337e-06	-1.27507e-06	1.68206e-09	-1.27675e-06	0.234342	42955.7	56.6669	43012.4
1.00006	15.7595	1.09192	15.7973	-3.96348	19.1218	0.234026	-0.00648304	145747	696.333	1	11	0.00475116	0.000300757	0	-5.4997e-05	3.4907e-05	2.1248e-06	-27.4623	0.00706485	0.00626875	0.00325806	-3.9737	15.8038	15.7658	1.09518	0.0631505	0.00437547	0.0633019	3.96348	696333	1.00501e+07	1.00742e+07	-86.0365	0.0000000E+000	0.0000000E+000	0.0000000E+000	86.0365	0.0000000E+000	0.0000000E+000	0.0000000E+000	-86.0365	0.0000000E+000	0.0000000E+000	0.0000000E+000	-3.96348	0.0000000E+000	0.0000000E+000	0.0000000E+000	3.96348	14.4328	86.0365	-7.16234e-06	-1.5172e-06	-2.26303e-10	-1.51698e-06	0.233992	36098.3	5.38436	36092.9
0.681362	15.9559	1.09501	15.9935	-3.92589	23.7477	0.234039	-0.00627742	213316	999.943	1	12	0.00475657	0.000297407	0	-5.85061e-05	-6.05491e-05	9.47426e-06	3.23871	0.0318562	0.0318053	-0.00179975	-3.91168	16.0251	15.9877	1.09321	0.0623789	0.00428088	0.0625256	3.92589	999943	1.45707e+07	1.46049e+07	-86.0741	0.0000000E+000	0.0000000E+000	0.0000000E+000	86.0741	0.0000000E+000	0.0000000E+000	0.0000000E+000	-86.0741	0.0000000E+000	0.0000000E+000	0.0000000E+000	-3.92589	0.0000000E+000	0.0000000E+000	0.0000000E+000	3.92589	14.5715	86.0741	-3.50909e-06	-1.46916e-06	3.80092e-10	-1.46954e-06	0.2341	37282.8	9.64554	37292.4
0.464091	16.1017	1.14915	16.1426	-4.08217	28.3033	0.234038	-0.0061867	298430	1512.32	1	12	0.00474854	0.000294162	0	-4.85393e-05	-9.87315e-05	4.42683e-06	-3.79673	0.015049	0.0150159	0.000996498	-4.0819	16.1577	16.1167	1.15014	0.0617906	0.00440988	0.0619477	4.08217	1.51232e+06	2.11904e+07	2.12443e+07	-85.9178	0.0000000E+000	0.0000000E+000	0.0000000E+000	85.9178	0.0000000E+000	0.0000000E+000	0.0000000E+000	-85.9178	0.0000000E+000	0.0000000E+000	0.0000000E+000	-4.08217	0.0000000E+000	0.0000000E+000	0.0000000E+000	4.08217	14.0119	85.9178	9.96685e-06	-1.44793e-06	6.10822e-10	-1.44854e-06	0.234137	37829.3	15.9587	37845.2
0.316193	16.2695	1.27415	16.3193	-4.47799	34.9777	0.234028	-0.00546159	395046	2408.16	1	12	0.00474625	0.000290837	0	-3.54022e-05	0.000168545	3.30878e-06	-9.87207	0.0113768	0.0112083	0.00195053	-4.48175	16.3306	16.2807	1.2761	0.0610902	0.0047843	0.0612772	4.47799	2.40816e+06	3.07496e+07	3.08437e+07	-85.522	0.0000000E+000	0.0000000E+000	0.0000000E+000	85.522	0.0000000E+000	0.0000000E+000	0.0000000E+000	-85.522	0.0000000E+000	0.0000000E+000	0.0000000E+000	-4.47799	0.0000000E+000	0.0000000E+000	0.0000000E+000	4.47799	12.7689	85.522	1.31371e-05	-1.27816e-06	-9.20526e-10	-1.27724e-06	0.233859	42849.7	30.8602	42818.9
0.215268	16.4753	1.51795	16.545	-5.26411	44.7702	0.234026	-0.00372564	487060	4099.81	1	12	0.0047447	0.000286774	0	-3.16469e-05	-0.000136914	2.64752e-06	-1.09115	0.00923206	0.00923038	0.000175806	-5.26178	16.5542	16.4845	1.51813	0.0601861	0.00554527	0.0604411	5.26411	4.09981e+06	4.44977e+07	4.46862e+07	-84.7359	0.0000000E+000	0.0000000E+000	0.0000000E+000	84.7359	0.0000000E+000	0.0000000E+000	0.0000000E+000	-84.7359	0.0000000E+000	0.0000000E+000	0.0000000E+000	-5.26411	0.0000000E+000	0.0000000E+000	0.0000000E+000	5.26411	10.8536	84.7359	3.75523e-06	-8.71896e-07	5.10092e-10	-8.72406e-07	0.234163	62814.9	36.7491	62851.6
0.146929	16.7002	1.91902	16.8101	-6.55512	59.1085	0.234036	-0.00258274	564460	7356.2	1	12	0.00475085	0.000282619	0	-5.81454e-05	-4.14579e-05	3.55326e-06	-8.96549	0.0125726	0.012419	0.00195931	-6.55692	16.8226	16.7126	1.92098	0.0590992	0.0067911	0.0594881	6.55512	7.35619e+06	6.40169e+07	6.44382e+07	-83.4449	0.0000000E+000	0.0000000E+000	0.0000000E+000	83.4449	0.0000000E+000	0.0000000E+000	0.0000000E+000	-83.4449	0.0000000E+000	0.0000000E+000	0.0000000E+000	-6.55512	0.0000000E+000	0.0000000E+000	0.0000000E+000	6.55512	8.70245	83.4449	-2.64985e-05	-6.04454e-07	1.07075e-10	-6.04561e-07	0.234077	90615.1	16.0519	90631.1
0.0999041	16.9485	2.46171	17.1263	-8.26424	80.1858	0.234027	-0.00304919	647142	13370.5	1	12	0.0047459	0.000277111	0	-0.00013979	-4.14579e-05	1.76428e-06	-30.1917	0.00636668	0.00550302	0.00320177	-8.27219	17.1322	16.954	2.46492	0.0577833	0.00839285	0.0583897	8.26424	1.33705e+07	9.20533e+07	9.30193e+07	-81.7358	0.0000000E+000	0.0000000E+000	0.0000000E+000	81.7358	0.0000000E+000	0.0000000E+000	0.0000000E+000	-81.7358	0.0000000E+000	0.0000000E+000	0.0000000E+000	-8.26424	0.0000000E+000	0.0000000E+000	0.0000000E+000	8.26424	6.88483	81.7358	-8.16443e-05	-7.13593e-07	1.26413e-10	-7.13719e-07	0.234068	76750.6	13.5964	76764.1
0.0680626	17.3028	3.15792	17.5886	-10.3432	111.112	0.234027	-0.00410537	740476	23869.8	1	12	0.00474324	0.000269677	0	-0.000280173	9.21806e-05	2.22009e-06	25.1569	0.00823241	0.00745154	-0.00349959	-10.3276	17.5953	17.3103	3.15442	0.0559311	0.0102079	0.056855	10.3432	2.38698e+07	1.30787e+08	1.32947e+08	-79.6568	0.0000000E+000	0.0000000E+000	0.0000000E+000	79.6568	0.0000000E+000	0.0000000E+000	0.0000000E+000	-79.6568	0.0000000E+000	0.0000000E+000	0.0000000E+000	-10.3432	0.0000000E+000	0.0000000E+000	0.0000000E+000	10.3432	5.47919	79.6568	-0.000140383	-9.60768e-07	-3.78435e-10	-9.6039e-07	0.233935	57005.3	22.4537	56982.8
0.0464052	17.9011	4.09227	18.3629	-12.8768	156.463	0.234023	-0.00653104	838087	41623	1	12	0.00474585	0.000258447	0	-0.000479623	7.30894e-05	2.28069e-06	-2.3435	0.00882458	0.00881719	0.000360841	-12.8717	18.3716	17.91	4.09263	0.053088	0.0121361	0.0544575	12.8768	4.1623e+07	1.82075e+08	1.86772e+08	-77.1232	0.0000000E+000	0.0000000E+000	0.0000000E+000	77.1232	0.0000000E+000	0.0000000E+000	0.0000000E+000	-77.1232	0.0000000E+000	0.0000000E+000	0.0000000E+000	-12.8768	0.0000000E+000	0.0000000E+000	0.0000000E+000	12.8768	4.37438	77.1232	-0.00019945	-1.52841e-06	-4.7735e-10	-1.52793e-06	0.23395	35832.4	11.1911	35821.2
0.0315922	18.627	5.51961	19.4276	-16.5058	223.069	0.234027	-0.00758848	912707	73673.3	1	12	0.00475078	0.000244538	0	-0.000651369	0.000168545	2.2139e-06	-4.27345	0.0090534	0.00902823	0.000674629	-16.5001	19.4365	18.6361	5.52029	0.049352	0.0146241	0.0514731	16.5058	7.36733e+07	2.48625e+08	2.59311e+08	-73.4942	0.0000000E+000	0.0000000E+000	0.0000000E+000	73.4942	0.0000000E+000	0.0000000E+000	0.0000000E+000	-73.4942	0.0000000E+000	0.0000000E+000	0.0000000E+000	-16.5058	0.0000000E+000	0.0000000E+000	0.0000000E+000	16.5058	3.3747	73.4942	-0.000171746	-1.77591e-06	-1.279e-09	-1.77463e-06	0.233858	30839.7	22.2107	30817.5
0.0215268	19.4464	7.32662	20.7808	-20.6444	320.808	0.234023	-0.00825845	1.00911e+06	125436	1	12	0.0047452	0.000228346	0	-0.000696629	0.000130363	2.38891e-06	-14.73	0.0104618	0.010118	0.00266007	-20.6414	20.7912	19.4565	7.32928	0.0450313	0.016966	0.0481214	20.6444	1.25436e+08	3.32932e+08	3.55778e+08	-69.3556	0.0000000E+000	0.0000000E+000	0.0000000E+000	69.3556	0.0000000E+000	0.0000000E+000	0.0000000E+000	-69.3556	0.0000000E+000	0.0000000E+000	0.0000000E+000	-20.6444	0.0000000E+000	0.0000000E+000	0.0000000E+000	20.6444	2.65421	69.3556	-4.52597e-05	-1.93266e-06	-1.0766e-09	-1.93159e-06	0.233892	28337.4	15.7854	28321.6
0.0146812	20.6774	9.45739	22.7375	-24.5783	464.11	0.234022	-0.00817819	1.14627e+06	198309	1	12	0.00474379	0.000208632	0	-0.000607756	-3.27544e-06	1.99671e-06	-12.233	0.00957047	0.00935316	0.00202787	-24.5732	22.7469	20.6867	9.45941	0.0399952	0.018293	0.0439801	24.5783	1.98309e+08	4.33578e+08	4.76778e+08	-65.4217	0.0000000E+000	0.0000000E+000	0.0000000E+000	65.4217	0.0000000E+000	0.0000000E+000	0.0000000E+000	-65.4217	0.0000000E+000	0.0000000E+000	0.0000000E+000	-24.5783	0.0000000E+000	0.0000000E+000	0.0000000E+000	24.5783	2.18637	65.4217	8.88733e-05	-1.91388e-06	2.67872e-11	-1.91391e-06	0.234026	28615.4	0.400509	28615.8
0.0100092	22.5743	12.2008	25.6604	-28.39	674.292	0.23403	-0.00804219	1.30327e+06	294634	1	12	0.00475053	0.000185131	0	-0.000582115	0.000130363	3.15847e-06	-1.61369	0.0170607	0.017054	0.000480438	-28.3729	25.6757	22.5913	12.2013	0.0342836	0.0185294	0.0389705	28.39	2.94634e+08	5.4514e+08	6.19667e+08	-61.61	0.0000000E+000	0.0000000E+000	0.0000000E+000	61.61	0.0000000E+000	0.0000000E+000	0.0000000E+000	-61.61	0.0000000E+000	0.0000000E+000	0.0000000E+000	-28.39	0.0000000E+000	0.0000000E+000	0.0000000E+000	28.39	1.85023	61.61	2.56402e-05	-1.88211e-06	-1.0484e-09	-1.88106e-06	0.233899	29100.3	16.2099	29084.1