File: txt/18399_R277_UA690_SOC00_C08.mpt
EC-Lab ASCII FILE
Nb header lines : 65

Potentio Electrochemical Impedance Spectroscopy

Run on channel : 8 (SN 65398)
User :
CE vs. WE compliance from -10 V to 10 V
Electrode connection : standard
Potential control : Ewe
Ewe ctrl range : min = -10.00 V, max = 10.00 V
Safety Limits :
	Do not start on E overload
Acquisition started on : 10/13/2025 14:56:54.035
Technique started on : 10/13/2025 14:56:55.946
Loaded Setting File :  C:\Users\Celltest\OneDrive - store-dot.com\Documents\EC-Lab\Data\@Biologic Test Protocols\anode half cell EIS SOC00.mps
Saved on :
	File : 18399_R277_UA690_SOC00_C08.mpr
	Directory : C:\Users\Celltest\OneDrive - store-dot.com\Documents\EC-Lab\Data\Gyutae\
	Host : 169.254.61.224
Device : VMP-3e (SN .003165)
Address : USB
EC-LAB for windows v11.62 (software)
Internet server v27.00 (firmware)
Command interpretor v12.03 (firmware)
Electrode material :
Initial state :
Electrolyte :
Comments :
Electrode surface area : 0.001 cm²
Characteristic mass : 0.001 g
Equivalent Weight : 0.000 g/eq.
Density : 0.000 g/cm3
Volume (V) : 0.001 cm³
Record Ece
Cycle Definition : Charge/Discharge alternance
Mode                Single sine
E (V)               0.0000
vs.                 Eoc
tE (h:m:s)          0:00:0.0000
record              0
dI                  0.000
unit dI             mA
dt (s)              0.000
fi                  100.000
unit fi             kHz
ff                  10.000
unit ff             mHz
Nd                  6
Points              per decade
spacing             Logarithmic
Va (mV)             5.0
pw                  0.10
Na                  2
corr                0
E range min (V)     -10.000
E range max (V)     10.000
I Range             Auto
Bandwidth           5
nc cycles           0
goto Ns'            0
nr cycles           0
inc. cycle          0

freq/Hz	Re(Z)/Ohm	-Im(Z)/Ohm	|Z|/Ohm	Phase(Z)/deg	time/s	<Ewe>/V	<I>/mA	Cs/µF	Cp/µF	cycle number	I Range	|Ewe|/V	|I|/A	Ns	(Q-Qo)/mA.h	<Ece>/V	|Ece|/V	Phase(Zce)/deg	|Zce|/Ohm	Re(Zce)/Ohm	-Im(Zce)/Ohm	Phase(Zwe-ce)/deg	|Zwe-ce|/Ohm	Re(Zwe-ce)/Ohm	-Im(Zwe-ce)/Ohm	Re(Y)/Ohm-1	Im(Y)/Ohm-1	|Y|/Ohm-1	Phase(Y)/deg	Re(C)/nF	Im(C)/nF	|C|/nF	Phase(C)/deg	Re(M)	Im(M)	|M|	Phase(M)/deg	Re(Permittivity)	Im(Permittivity)	|Permittivity|	Phase(Permittivity)/deg	Re(Resistivity)/Ohm.cm	Im(Resistivity)/Ohm.cm	|Resistivity|/Ohm.cm	Phase(Resistivity)/deg	Re(Conductivity)/mS/cm	Im(Conductivity)/mS/cm	|Conductivity|/mS/cm	Phase(Conductivity)/deg	Tan(Delta)	Loss Angle(Delta)/deg	dq/mA.h	Pwe/W	Pce/W	Pwe-ce/W	<Ewe-Ece>/V	Rwe/Ohm	Rce/Ohm	Rwe-ce/Ohm		Ewe-Ece/V
100004	1.44683	0.510785	1.53435	-19.4449	1.91056	0.240333	-0.00706601	3.11577	0.345297	1	9	0.00472385	0.00307873	0	-2.87931e-06	0.000178102	4.79789e-05	103.691	0.015584	-0.00368838	-0.0151412	-18.9549	1.52589	1.44315	0.495644	0.614568	0.216965	0.651742	19.4449	345.297	978.079	1037.24	-70.5551	0.0000000E+000	0.0000000E+000	0.0000000E+000	70.5551	0.0000000E+000	0.0000000E+000	0.0000000E+000	-70.5551	0.0000000E+000	0.0000000E+000	0.0000000E+000	-19.4449	0.0000000E+000	0.0000000E+000	0.0000000E+000	19.4449	2.83257	70.5551	-2.87931e-06	-1.6982e-06	-1.25847e-09	-1.69694e-06	0.240155	34012.5	25.2054	33987.3
68132	1.57497	0.603651	1.68669	-20.9707	2.41756	0.240328	0.00201134	3.86975	0.49566	1	9	0.00506391	0.00300228	0	-1.38513e-05	0.000368982	4.06211e-05	88.3131	0.0135301	0.000398293	-0.0135242	-20.5358	1.68227	1.57537	0.590126	0.553607	0.212185	0.592877	20.9707	495.66	1293.21	1384.95	-69.0293	0.0000000E+000	0.0000000E+000	0.0000000E+000	69.0293	0.0000000E+000	0.0000000E+000	0.0000000E+000	-69.0293	0.0000000E+000	0.0000000E+000	0.0000000E+000	-20.9707	0.0000000E+000	0.0000000E+000	0.0000000E+000	20.9707	2.60907	69.0293	-1.0972e-05	4.8338e-07	7.42147e-10	4.82637e-07	0.239959	119487	183.451	119303
46420.4	1.74208	0.693876	1.87519	-21.7175	2.92454	0.24033	-0.00260174	4.94117	0.676558	1	9	0.00506897	0.00270319	0	-2.99339e-05	0.000101749	2.44791e-05	80.5057	0.00905564	0.00149372	-0.00893159	-21.4468	1.87329	1.74358	0.684945	0.495428	0.19733	0.53328	21.7175	676.558	1698.6	1828.38	-68.2825	0.0000000E+000	0.0000000E+000	0.0000000E+000	68.2825	0.0000000E+000	0.0000000E+000	0.0000000E+000	-68.2825	0.0000000E+000	0.0000000E+000	0.0000000E+000	-21.7175	0.0000000E+000	0.0000000E+000	0.0000000E+000	21.7175	2.51066	68.2825	-1.60826e-05	-6.25277e-07	-2.64726e-10	-6.25012e-07	0.240228	92372.8	39.1082	92333.7
31621.1	1.9067	0.794028	2.06542	-22.6089	3.43152	0.240324	-0.000369621	6.3388	0.936828	1	9	0.00494955	0.00239639	0	-1.88356e-05	4.44852e-05	1.17689e-05	27.9598	0.00491109	0.00433785	-0.00230258	-22.5038	2.06855	1.91104	0.791725	0.446955	0.18613	0.484162	22.6089	936.828	2249.6	2436.88	-67.3911	0.0000000E+000	0.0000000E+000	0.0000000E+000	67.3911	0.0000000E+000	0.0000000E+000	0.0000000E+000	-67.3911	0.0000000E+000	0.0000000E+000	0.0000000E+000	-22.6089	0.0000000E+000	0.0000000E+000	0.0000000E+000	22.6089	2.4013	67.3911	1.10983e-05	-8.88288e-08	-1.64427e-11	-8.88124e-08	0.24028	650192	120.354	650071
21544.7	2.11563	0.906242	2.30156	-23.1882	3.81453	0.240322	0.00100686	8.15147	1.26381	1	9	0.00496539	0.00215741	0	-1.93407e-05	0.000330806	7.41628e-06	-20.6876	0.00343759	0.00321594	0.0012144	-23.1844	2.30499	2.11884	0.907456	0.399389	0.171081	0.434489	23.1882	1263.81	2950.37	3209.66	-66.8118	0.0000000E+000	0.0000000E+000	0.0000000E+000	66.8118	0.0000000E+000	0.0000000E+000	0.0000000E+000	-66.8118	0.0000000E+000	0.0000000E+000	0.0000000E+000	-23.1882	0.0000000E+000	0.0000000E+000	0.0000000E+000	23.1882	2.33451	66.8118	-5.05112e-07	2.41969e-07	3.33074e-10	2.41636e-07	0.239991	238685	328.553	238357
14678.6	2.33521	1.00516	2.54235	-23.2889	4.19756	0.240324	0.00160208	10.787	1.68617	1	9	0.00491814	0.00193449	0	-1.81016e-05	0.000407158	2.07256e-05	-107.591	0.0107138	-0.00323787	0.0102128	-23.529	2.54344	2.33197	1.01538	0.361289	0.155512	0.393337	23.2889	1686.17	3917.33	4264.81	-66.7111	0.0000000E+000	0.0000000E+000	0.0000000E+000	66.7111	0.0000000E+000	0.0000000E+000	0.0000000E+000	-66.7111	0.0000000E+000	0.0000000E+000	0.0000000E+000	-23.2889	0.0000000E+000	0.0000000E+000	0.0000000E+000	23.2889	2.32321	66.7111	1.23908e-06	3.85019e-07	6.52302e-10	3.84367e-07	0.239917	150007	254.143	149753
10002.2	2.55678	1.11023	2.78742	-23.4719	4.58252	0.240315	-0.00282499	14.3321	2.27369	1	9	0.00504575	0.00181019	0	-1.78608e-05	0.000216278	5.53931e-06	-99.1556	0.00306008	-0.000486909	0.0030211	-23.5328	2.78818	2.55629	1.11325	0.329069	0.142892	0.358754	23.4719	2273.69	5236.14	5708.48	-66.5281	0.0000000E+000	0.0000000E+000	0.0000000E+000	66.5281	0.0000000E+000	0.0000000E+000	0.0000000E+000	-66.5281	0.0000000E+000	0.0000000E+000	0.0000000E+000	-23.4719	0.0000000E+000	0.0000000E+000	0.0000000E+000	23.4719	2.30293	66.5281	2.40863e-07	-6.78887e-07	-6.10982e-10	-6.78276e-07	0.240099	85067.8	76.5589	84991.2
6810.42	2.81298	1.26619	3.08482	-24.2336	4.84156	0.240312	-0.00475951	18.4565	3.10946	1	9	0.00483988	0.00156894	0	-1.67098e-05	0.000273542	4.24867e-05	-2.08098	0.0270799	0.027062	0.000983323	-24.0455	3.10991	2.84004	1.26717	0.295603	0.133057	0.324168	24.2336	3109.46	6908.03	7575.6	-65.7664	0.0000000E+000	0.0000000E+000	0.0000000E+000	65.7664	0.0000000E+000	0.0000000E+000	0.0000000E+000	-65.7664	0.0000000E+000	0.0000000E+000	0.0000000E+000	-24.2336	0.0000000E+000	0.0000000E+000	0.0000000E+000	24.2336	2.22162	65.7664	1.15095e-06	-1.14377e-06	-1.30192e-09	-1.14247e-06	0.240039	50491	57.4727	50433.5
4646	3.09972	1.3929	3.3983	-24.1975	5.10861	0.240276	-0.0305407	24.5935	4.1318	1	9	0.00474292	0.00139567	0	-1.82276e-05	-8.91312e-05	1.0064e-05	-93.5241	0.00721084	-0.000443245	0.00719721	-24.3111	3.40085	3.09927	1.4001	0.26841	0.120614	0.294265	24.1975	4131.8	9194.75	10080.4	-65.8025	0.0000000E+000	0.0000000E+000	0.0000000E+000	65.8025	0.0000000E+000	0.0000000E+000	0.0000000E+000	-65.8025	0.0000000E+000	0.0000000E+000	0.0000000E+000	-24.1975	0.0000000E+000	0.0000000E+000	0.0000000E+000	24.1975	2.22536	65.8025	-1.51774e-06	-7.3382e-06	2.72212e-09	-7.34092e-06	0.240365	7867.42	2.91844	7870.34
3163.08	3.43352	1.62246	3.79756	-25.2924	5.69167	0.240238	-0.0345359	31.0124	5.66077	1	10	0.00488592	0.0012866	0	-2.29422e-05	0.000273542	8.47878e-06	-53.6378	0.00659009	0.00390718	0.0053069	-25.3395	3.80336	3.43743	1.62777	0.238085	0.112503	0.263327	25.2924	5660.77	11979.6	13249.7	-64.7076	0.0000000E+000	0.0000000E+000	0.0000000E+000	64.7076	0.0000000E+000	0.0000000E+000	0.0000000E+000	-64.7076	0.0000000E+000	0.0000000E+000	0.0000000E+000	-25.2924	0.0000000E+000	0.0000000E+000	0.0000000E+000	25.2924	2.11624	64.7076	-4.71464e-06	-8.29683e-06	-9.44701e-09	-8.28738e-06	0.239964	6956.18	7.92051	6948.26
2155.69	3.80371	1.84669	4.2283	-25.8964	6.14283	0.240285	-0.0180825	39.9798	7.62599	1	10	0.00480592	0.00113661	0	-2.58684e-05	0.000445334	9.53526e-06	21.8346	0.00838921	0.00778738	-0.00312019	-25.8124	4.23394	3.8115	1.84357	0.212754	0.103291	0.236502	25.8964	7625.99	15707.6	17461	-64.1036	0.0000000E+000	0.0000000E+000	0.0000000E+000	64.1036	0.0000000E+000	0.0000000E+000	0.0000000E+000	-64.1036	0.0000000E+000	0.0000000E+000	0.0000000E+000	-25.8964	0.0000000E+000	0.0000000E+000	0.0000000E+000	25.8964	2.05975	64.1036	-2.92621e-06	-4.34496e-06	-8.05275e-09	-4.3369e-06	0.23984	13288.3	24.6279	13263.7
1468.59	4.219	2.11795	4.72077	-26.6568	6.5941	0.240294	-0.0169925	51.1686	10.2993	1	10	0.00474014	0.0010041	0	-2.71245e-05	8.26613e-05	6.65599e-06	-105.639	0.00662879	-0.001787	0.00638338	-26.7357	4.72204	4.21722	2.12433	0.189314	0.0950363	0.21183	26.6568	10299.3	20516.5	22956.5	-63.3432	0.0000000E+000	0.0000000E+000	0.0000000E+000	63.3432	0.0000000E+000	0.0000000E+000	0.0000000E+000	-63.3432	0.0000000E+000	0.0000000E+000	0.0000000E+000	-26.6568	0.0000000E+000	0.0000000E+000	0.0000000E+000	26.6568	1.99202	63.3432	-1.25605e-06	-4.0832e-06	-1.40463e-09	-4.0818e-06	0.240211	14141.1	4.86457	14136.3
1000.32	4.67545	2.46207	5.28409	-27.7711	7.04583	0.240288	-0.0176919	64.6221	14.0295	1	10	0.0047007	0.000889596	0	-2.85767e-05	0.00038807	9.806e-06	-52.5128	0.011023	0.00670841	0.00874662	-27.821	5.2941	4.68216	2.47081	0.167449	0.088178	0.189247	27.7711	14029.5	26641.8	30110	-62.2289	0.0000000E+000	0.0000000E+000	0.0000000E+000	62.2289	0.0000000E+000	0.0000000E+000	0.0000000E+000	-62.2289	0.0000000E+000	0.0000000E+000	0.0000000E+000	-27.7711	0.0000000E+000	0.0000000E+000	0.0000000E+000	27.7711	1.89899	62.2289	-1.45225e-06	-4.25116e-06	-6.8657e-09	-4.24429e-06	0.2399	13581.8	21.9349	13559.9
681.09	5.17878	2.86193	5.91696	-28.9262	7.49654	0.240293	-0.0177068	81.6502	19.1019	1	10	0.00465448	0.000786634	0	-3.03898e-05	0.000311718	7.53801e-06	89.9818	0.00958262	3.04505e-06	-0.00958262	-28.8449	5.91233	5.17878	2.85235	0.147921	0.0817451	0.169006	28.9262	19101.9	34565.8	39492.7	-61.0738	0.0000000E+000	0.0000000E+000	0.0000000E+000	61.0738	0.0000000E+000	0.0000000E+000	0.0000000E+000	-61.0738	0.0000000E+000	0.0000000E+000	0.0000000E+000	-28.9262	0.0000000E+000	0.0000000E+000	0.0000000E+000	28.9262	1.80954	61.0738	-1.81306e-06	-4.25482e-06	-5.51952e-09	-4.2493e-06	0.239981	13570.7	17.6044	13553.1
463.961	5.77779	3.39623	6.70203	-30.4474	7.94837	0.240302	-0.0168065	101.005	25.9372	1	10	0.00463695	0.000691873	0	-3.23533e-05	2.53972e-05	5.88211e-06	4.08813	0.00850172	0.00848009	-0.000606094	-30.4062	6.70904	5.78627	3.39563	0.128632	0.0756109	0.149208	30.4474	25937.2	44125.3	51183.8	-59.5526	0.0000000E+000	0.0000000E+000	0.0000000E+000	59.5526	0.0000000E+000	0.0000000E+000	0.0000000E+000	-59.5526	0.0000000E+000	0.0000000E+000	0.0000000E+000	-30.4474	0.0000000E+000	0.0000000E+000	0.0000000E+000	30.4474	1.70124	59.5526	-1.96354e-06	-4.03865e-06	-4.26839e-10	-4.03822e-06	0.240277	14298.1	1.51115	14296.6
316.316	6.54723	4.07947	7.71416	-31.9264	8.396	0.240287	-0.0176659	123.338	34.4926	1	10	0.00462828	0.000599972	0	-3.41976e-05	0.000235366	7.24312e-06	-70.6317	0.0120724	0.00400369	0.0113892	-31.9824	7.72358	6.55123	4.09086	0.110022	0.068553	0.129632	31.9264	34492.6	55357.9	65224.5	-58.0736	0.0000000E+000	0.0000000E+000	0.0000000E+000	58.0736	0.0000000E+000	0.0000000E+000	0.0000000E+000	-58.0736	0.0000000E+000	0.0000000E+000	0.0000000E+000	-31.9264	0.0000000E+000	0.0000000E+000	0.0000000E+000	31.9264	1.60492	58.0736	-1.84435e-06	-4.24488e-06	-4.15794e-09	-4.24072e-06	0.240052	13601.8	13.3232	13588.4
215.345	7.58172	4.91812	9.03717	-32.9707	8.84659	0.240281	-0.0174687	150.275	44.5062	1	10	0.00463237	0.000512591	0	-3.57382e-05	0.000273542	7.1824e-06	40.0855	0.014012	0.0107203	-0.00902273	-32.8858	9.04126	7.59244	4.9091	0.0928331	0.0602192	0.110654	32.9707	44506.2	68610.3	81781.3	-57.0293	0.0000000E+000	0.0000000E+000	0.0000000E+000	57.0293	0.0000000E+000	0.0000000E+000	0.0000000E+000	-57.0293	0.0000000E+000	0.0000000E+000	0.0000000E+000	-32.9707	0.0000000E+000	0.0000000E+000	0.0000000E+000	32.9707	1.54159	57.0293	-1.54052e-06	-4.1974e-06	-4.77842e-09	-4.19263e-06	0.240008	13755	15.659	13739.3
146.737	8.98058	5.77924	10.6794	-32.7623	9.29249	0.24028	-0.0186777	187.676	54.9608	1	10	0.00461527	0.000432164	0	-3.77281e-05	0.00019719	6.88721e-06	-64.6918	0.0159366	0.00681268	0.014407	-32.8075	10.693	8.98739	5.79365	0.0787422	0.0506727	0.0936379	32.7623	54960.8	85405.7	101562	-57.2377	0.0000000E+000	0.0000000E+000	0.0000000E+000	57.2377	0.0000000E+000	0.0000000E+000	0.0000000E+000	-57.2377	0.0000000E+000	0.0000000E+000	0.0000000E+000	-32.7623	0.0000000E+000	0.0000000E+000	0.0000000E+000	32.7623	1.55394	57.2377	-1.98994e-06	-4.48787e-06	-3.68305e-09	-4.48419e-06	0.240083	12864.5	10.5575	12854
100.032	10.7626	6.50613	12.5763	-31.1535	9.74382	0.240284	-0.01777	244.545	65.4484	1	10	0.00461373	0.00036686	0	-4.0001e-05	0.000235366	4.93994e-06	69.4617	0.0134655	0.00472414	-0.0126096	-31.0932	12.5738	10.7673	6.49352	0.0680474	0.0411356	0.0795147	31.1535	65448.4	108266	126511	-58.8465	0.0000000E+000	0.0000000E+000	0.0000000E+000	58.8465	0.0000000E+000	0.0000000E+000	0.0000000E+000	-58.8465	0.0000000E+000	0.0000000E+000	0.0000000E+000	-31.1535	0.0000000E+000	0.0000000E+000	0.0000000E+000	31.1535	1.65422	58.8465	-2.27289e-06	-4.26985e-06	-4.18246e-09	-4.26567e-06	0.240049	13521.9	13.2451	13508.6
68.104	12.902	6.85294	14.6091	-27.9751	10.2065	0.240297	-0.0134623	341.013	75.0376	1	10	0.00461054	0.000315594	0	-4.17861e-05	4.44852e-05	5.22905e-06	44.9238	0.0165689	0.0117316	-0.0117004	-27.913	14.614	12.9138	6.84124	0.0604523	0.0321093	0.0684506	27.9751	75037.6	141273	159965	-62.0249	0.0000000E+000	0.0000000E+000	0.0000000E+000	62.0249	0.0000000E+000	0.0000000E+000	0.0000000E+000	-62.0249	0.0000000E+000	0.0000000E+000	0.0000000E+000	-27.9751	0.0000000E+000	0.0000000E+000	0.0000000E+000	27.9751	1.8827	62.0249	-1.78507e-06	-3.23495e-06	-5.98874e-10	-3.23435e-06	0.240252	17849.6	3.30443	17846.3
46.4415	15.1256	6.73015	16.5553	-23.9867	10.6416	0.24027	-0.0217653	509.201	84.1516	1	10	0.0046098	0.000278448	0	-4.429e-05	-0.000146395	1.19916e-05	36.0772	0.0430659	0.0348069	-0.0253604	-23.8577	16.5769	15.1604	6.70479	0.0551871	0.0245555	0.0604035	23.9867	84151.6	189126	207002	-66.0133	0.0000000E+000	0.0000000E+000	0.0000000E+000	66.0133	0.0000000E+000	0.0000000E+000	0.0000000E+000	-66.0133	0.0000000E+000	0.0000000E+000	0.0000000E+000	-23.9867	0.0000000E+000	0.0000000E+000	0.0000000E+000	23.9867	2.24744	66.0133	-2.50395e-06	-5.22954e-06	3.18633e-09	-5.23273e-06	0.240416	11039.1	6.7261	11045.9
31.6296	17.1197	6.21568	18.2131	-19.9545	11.3075	0.240328	-0.00959325	809.54	94.2857	1	11	0.00460763	0.000252984	0	-4.66549e-05	-0.000108219	6.4004e-06	19.7293	0.0252997	0.0238145	-0.00854057	-19.9038	18.2326	17.1435	6.20714	0.0516091	0.0187378	0.0549054	19.9545	94285.7	259689	276275	-70.0455	0.0000000E+000	0.0000000E+000	0.0000000E+000	70.0455	0.0000000E+000	0.0000000E+000	0.0000000E+000	-70.0455	0.0000000E+000	0.0000000E+000	0.0000000E+000	-19.9545	0.0000000E+000	0.0000000E+000	0.0000000E+000	19.9545	2.75428	70.0455	-2.36487e-06	-2.30552e-06	1.03817e-09	-2.30656e-06	0.240436	25051.8	11.2808	25063.1
21.5517	18.7473	5.46346	19.5272	-16.2475	11.7285	0.24032	-0.00975778	1351.67	105.81	1	11	0.00461418	0.000236295	0	-4.77099e-05	0.000617127	7.28015e-06	-72.9076	0.0308095	0.00905535	0.0294487	-16.323	19.5441	18.7563	5.49291	0.0491655	0.0143281	0.0512107	16.2475	105810	363077	378180	-73.7525	0.0000000E+000	0.0000000E+000	0.0000000E+000	73.7525	0.0000000E+000	0.0000000E+000	0.0000000E+000	-73.7525	0.0000000E+000	0.0000000E+000	0.0000000E+000	-16.2475	0.0000000E+000	0.0000000E+000	0.0000000E+000	16.2475	3.4314	73.7525	-1.05498e-06	-2.34499e-06	-6.02179e-09	-2.33897e-06	0.239703	24628.5	63.2446	24565.3
14.6852	19.9756	4.65741	20.5114	-13.1243	12.1882	0.240347	-0.00864963	2327	119.977	1	11	0.00460864	0.000224687	0	-4.82424e-05	-1.2779e-05	5.71959e-06	3.25488	0.0254558	0.0254147	-0.00144532	-13.1043	20.5358	20.001	4.65596	0.04748	0.0110702	0.0487535	13.1243	119977	514580	528381	-76.8757	0.0000000E+000	0.0000000E+000	0.0000000E+000	76.8757	0.0000000E+000	0.0000000E+000	0.0000000E+000	-76.8757	0.0000000E+000	0.0000000E+000	0.0000000E+000	-13.1243	0.0000000E+000	0.0000000E+000	0.0000000E+000	13.1243	4.28899	76.8757	-5.32566e-07	-2.07891e-06	1.10533e-10	-2.07902e-06	0.240359	27786.9	1.4774	27788.4
10.0032	20.9646	3.98864	21.3406	-10.7721	12.6388	0.240338	-0.0087788	3988.93	139.345	1	11	0.00461354	0.000216186	0	-4.8504e-05	0.000235366	9.2953e-06	60.1126	0.0429968	0.0214252	-0.0372785	-10.6631	21.3547	20.986	3.95136	0.0460333	0.00875812	0.046859	10.7721	139345	732408	745546	-79.2279	0.0000000E+000	0.0000000E+000	0.0000000E+000	79.2279	0.0000000E+000	0.0000000E+000	0.0000000E+000	-79.2279	0.0000000E+000	0.0000000E+000	0.0000000E+000	-10.7721	0.0000000E+000	0.0000000E+000	0.0000000E+000	10.7721	5.25607	79.2279	-2.61608e-07	-2.10988e-06	-2.06623e-09	-2.10782e-06	0.240103	27377.1	26.8107	27350.3
6.81719	21.7405	3.39741	22.0044	-8.88184	12.9785	0.240339	-0.00836934	6871.73	163.812	1	11	0.00460896	0.000209457	0	-4.9205e-05	0.000178102	1.04744e-05	115.037	0.0500072	-0.0211633	-0.0453083	-8.77365	21.9765	21.7193	3.3521	0.0449006	0.00701666	0.0454455	8.88184	163812	1.04825e+06	1.06098e+06	-81.1182	0.0000000E+000	0.0000000E+000	0.0000000E+000	81.1182	0.0000000E+000	0.0000000E+000	0.0000000E+000	-81.1182	0.0000000E+000	0.0000000E+000	0.0000000E+000	-8.88184	0.0000000E+000	0.0000000E+000	0.0000000E+000	8.88184	6.39914	81.1182	-7.00949e-07	-2.01148e-06	-1.49059e-09	-2.00999e-06	0.240161	28716.6	21.2803	28695.3
4.63925	22.3814	2.97314	22.578	-7.56687	13.4624	0.240347	-0.00817503	11538.7	200.087	1	11	0.00461573	0.000204435	0	-5.25164e-05	-0.00039454	1.02903e-05	54.7536	0.0503353	0.0290482	-0.0411077	-7.45387	22.6014	22.4104	2.93203	0.0439053	0.00583238	0.044291	7.56687	200087	1.50622e+06	1.51945e+06	-82.4331	0.0000000E+000	0.0000000E+000	0.0000000E+000	82.4331	0.0000000E+000	0.0000000E+000	0.0000000E+000	-82.4331	0.0000000E+000	0.0000000E+000	0.0000000E+000	-7.56687	0.0000000E+000	0.0000000E+000	0.0000000E+000	7.56687	7.52785	82.4331	-3.31137e-06	-1.96484e-06	3.22538e-09	-1.96807e-06	0.240742	29400.1	48.2616	29448.4
3.1604	22.9455	2.58649	23.0909	-6.4314	14.1555	0.24034	-0.0081607	19470.1	244.292	1	11	0.00460975	0.000199635	0	-5.37255e-05	0.00019719	6.89304e-06	84.4283	0.0345282	0.00335238	-0.0343651	-6.34573	23.0904	22.9489	2.55212	0.0430346	0.00485099	0.0433072	6.4314	244292	2.16719e+06	2.18091e+06	-83.5686	0.0000000E+000	0.0000000E+000	0.0000000E+000	83.5686	0.0000000E+000	0.0000000E+000	0.0000000E+000	-83.5686	0.0000000E+000	0.0000000E+000	0.0000000E+000	-6.4314	0.0000000E+000	0.0000000E+000	0.0000000E+000	6.4314	8.87131	83.5686	-1.20911e-06	-1.96134e-06	-1.60921e-09	-1.95973e-06	0.240143	29450.9	24.1633	29426.8
2.15577	23.4251	2.30873	23.5386	-5.62878	15.1591	0.240339	-0.00767251	31977.5	307.631	1	11	0.00461112	0.000195896	0	-5.24341e-05	0.000330806	6.42663e-06	-11.3202	0.0328063	0.0321681	0.00643961	-5.63669	23.5713	23.4573	2.31517	0.0422785	0.00416689	0.0424834	5.62878	307631	3.12132e+06	3.13644e+06	-84.3712	0.0000000E+000	0.0000000E+000	0.0000000E+000	84.3712	0.0000000E+000	0.0000000E+000	0.0000000E+000	-84.3712	0.0000000E+000	0.0000000E+000	0.0000000E+000	-5.62878	0.0000000E+000	0.0000000E+000	0.0000000E+000	5.62878	10.1463	84.3712	1.29133e-06	-1.844e-06	-2.53811e-09	-1.84146e-06	0.240008	31324.6	43.1158	31281.5
1.46631	23.8698	2.05999	23.9585	-4.93248	16.6205	0.240329	-0.00749954	52690.1	389.53	1	11	0.0046105	0.000192437	0	-5.19695e-05	0.000445334	2.08465e-06	11.8018	0.0108329	0.0106039	-0.00221562	-4.92502	23.9689	23.8804	2.05777	0.0415843	0.00358878	0.0417389	4.93248	389530	4.51361e+06	4.53038e+06	-85.0675	0.0000000E+000	0.0000000E+000	0.0000000E+000	85.0675	0.0000000E+000	0.0000000E+000	0.0000000E+000	-85.0675	0.0000000E+000	0.0000000E+000	0.0000000E+000	-4.93248	0.0000000E+000	0.0000000E+000	0.0000000E+000	4.93248	11.5873	85.0675	4.64616e-07	-1.80236e-06	-3.3398e-09	-1.79902e-06	0.239883	32045.8	59.3816	31986.4
1.00006	24.2572	1.92808	24.3337	-4.54459	19.7939	0.240324	-0.00722389	82540.7	518.204	1	12	0.00461123	0.0001895	0	-5.8728e-05	0.000330806	5.52415e-06	24.672	0.0291512	0.0264901	-0.0121684	-4.51112	24.3591	24.2837	1.91591	0.0409661	0.00325618	0.0410953	4.54459	518204	6.51954e+06	6.5401e+06	-85.4554	0.0000000E+000	0.0000000E+000	0.0000000E+000	85.4554	0.0000000E+000	0.0000000E+000	0.0000000E+000	-85.4554	0.0000000E+000	0.0000000E+000	0.0000000E+000	-4.54459	0.0000000E+000	0.0000000E+000	0.0000000E+000	4.54459	12.581	85.4554	-6.75847e-06	-1.73607e-06	-2.38971e-09	-1.73368e-06	0.239993	33267.9	45.7934	33222.1
0.681362	24.6187	1.86909	24.6895	-4.34166	22.9061	0.240322	-0.00654931	124972	716.221	1	12	0.00461599	0.000186961	0	-7.15129e-05	0.000445334	7.68625e-06	58.0583	0.0411114	0.0217503	-0.0348866	-4.25717	24.7086	24.6404	1.8342	0.0403868	0.00306623	0.040503	4.34166	716221	9.43369e+06	9.46084e+06	-85.6583	0.0000000E+000	0.0000000E+000	0.0000000E+000	85.6583	0.0000000E+000	0.0000000E+000	0.0000000E+000	-85.6583	0.0000000E+000	0.0000000E+000	0.0000000E+000	-4.34166	0.0000000E+000	0.0000000E+000	0.0000000E+000	4.34166	13.1715	85.6583	-1.27849e-05	-1.57394e-06	-2.91663e-09	-1.57103e-06	0.239877	36694.3	67.9971	36626.3
0.464091	24.9171	1.81668	24.9833	-4.17	27.4626	0.240329	-0.00639724	188772	998.155	1	12	0.00461171	0.000184592	0	-9.1269e-05	-0.000318188	1.59403e-06	53.9165	0.00863541	0.00508594	-0.00697879	-4.15319	24.9878	24.9222	1.80971	0.0399208	0.00291059	0.0400268	4.17	998154	1.36904e+07	1.37268e+07	-85.83	0.0000000E+000	0.0000000E+000	0.0000000E+000	85.83	0.0000000E+000	0.0000000E+000	0.0000000E+000	-85.83	0.0000000E+000	0.0000000E+000	0.0000000E+000	-4.17	0.0000000E+000	0.0000000E+000	0.0000000E+000	4.17	13.7157	85.83	-1.9756e-05	-1.53745e-06	2.03553e-09	-1.53948e-06	0.240648	37567.6	49.7383	37617.4
0.316193	25.2249	1.93667	25.2992	-4.39034	34.1361	0.240336	-0.00672814	259903	1523.04	1	12	0.00461317	0.000182345	0	-0.000113244	0.000178102	3.36075e-06	-11.0772	0.0184308	0.0180874	0.00354113	-4.3952	25.3175	25.243	1.94021	0.039411	0.00302583	0.039527	4.39034	1.52304e+06	1.98374e+07	1.98958e+07	-85.6097	0.0000000E+000	0.0000000E+000	0.0000000E+000	85.6097	0.0000000E+000	0.0000000E+000	0.0000000E+000	-85.6097	0.0000000E+000	0.0000000E+000	0.0000000E+000	-4.39034	0.0000000E+000	0.0000000E+000	0.0000000E+000	4.39034	13.0249	85.6097	-2.19752e-05	-1.61701e-06	-1.19829e-09	-1.61581e-06	0.240157	35720.9	26.4711	35694.5
0.215268	25.5397	2.20749	25.635	-4.94001	43.9295	0.240338	-0.007267	334920	2483.56	1	12	0.00461726	0.000180116	0	-0.000131432	0.000311718	3.58525e-06	5.9876	0.0199053	0.0197967	-0.00207639	-4.93158	25.6545	25.5595	2.20542	0.0388643	0.00335919	0.0390092	4.94001	2.48356e+06	2.87337e+07	2.88409e+07	-85.06	0.0000000E+000	0.0000000E+000	0.0000000E+000	85.06	0.0000000E+000	0.0000000E+000	0.0000000E+000	-85.06	0.0000000E+000	0.0000000E+000	0.0000000E+000	-4.94001	0.0000000E+000	0.0000000E+000	0.0000000E+000	4.94001	11.5696	85.06	-1.81875e-05	-1.74653e-06	-2.26525e-09	-1.74427e-06	0.240026	33072.5	42.895	33029.6
0.146929	25.8534	2.64412	25.9882	-5.83956	58.2679	0.240328	-0.00797514	409667	4240.74	1	12	0.0046137	0.00017753	0	-0.000139146	0.000120837	3.54103e-06	4.1334	0.019946	0.0198942	-0.00143769	-5.83195	26.0079	25.8733	2.64269	0.0382793	0.00391497	0.038479	5.83956	4.24074e+06	4.14646e+07	4.16808e+07	-84.1604	0.0000000E+000	0.0000000E+000	0.0000000E+000	84.1604	0.0000000E+000	0.0000000E+000	0.0000000E+000	-84.1604	0.0000000E+000	0.0000000E+000	0.0000000E+000	-5.83956	0.0000000E+000	0.0000000E+000	0.0000000E+000	5.83956	9.77767	84.1604	-7.71473e-06	-1.91665e-06	-9.63695e-10	-1.91568e-06	0.240207	30134.6	15.1518	30119.5
0.0999041	26.2292	3.24106	26.4287	-7.04415	79.3452	0.240335	-0.00722714	491530	7392.17	1	12	0.00461061	0.000174455	0	-0.000132898	8.26613e-05	2.9786e-06	26.069	0.0170738	0.0153368	-0.00750311	-7.02394	26.443	26.2446	3.23356	0.037552	0.00464018	0.0378376	7.04415	7.39217e+06	5.98233e+07	6.02783e+07	-82.9559	0.0000000E+000	0.0000000E+000	0.0000000E+000	82.9559	0.0000000E+000	0.0000000E+000	0.0000000E+000	-82.9559	0.0000000E+000	0.0000000E+000	0.0000000E+000	-7.04415	0.0000000E+000	0.0000000E+000	0.0000000E+000	7.04415	8.09279	82.9559	6.24884e-06	-1.73693e-06	-5.97405e-10	-1.73634e-06	0.240252	33254.4	11.4376	33243
0.0680626	26.775	4.06465	27.0817	-8.63204	110.273	0.240326	-0.00690629	575292	12959.3	1	12	0.00461287	0.000170331	0	-0.000130071	0.000120837	3.74849e-06	-20.7651	0.022007	0.0205775	0.00780232	-8.64181	27.1033	26.7956	4.07245	0.036507	0.00554204	0.0369252	8.63204	1.29593e+07	8.53665e+07	8.63445e+07	-81.368	0.0000000E+000	0.0000000E+000	0.0000000E+000	81.368	0.0000000E+000	0.0000000E+000	0.0000000E+000	-81.368	0.0000000E+000	0.0000000E+000	0.0000000E+000	-8.63204	0.0000000E+000	0.0000000E+000	0.0000000E+000	8.63204	6.58728	81.368	2.82696e-06	-1.65976e-06	-8.34538e-10	-1.65893e-06	0.240206	34798.2	17.4967	34780.7
0.0464052	27.5668	5.25316	28.0628	-10.789	155.623	0.240326	-0.00595211	652879	22877.6	1	12	0.00460828	0.000164213	0	-0.00016171	6.3091e-06	2.76553e-06	-9.11932	0.0168411	0.0166282	0.00266916	-10.788	28.0797	27.5834	5.25583	0.0350044	0.00667049	0.0356343	10.789	2.28776e+07	1.20054e+08	1.22214e+08	-79.211	0.0000000E+000	0.0000000E+000	0.0000000E+000	79.211	0.0000000E+000	0.0000000E+000	0.0000000E+000	-79.211	0.0000000E+000	0.0000000E+000	0.0000000E+000	-10.789	0.0000000E+000	0.0000000E+000	0.0000000E+000	10.789	5.24765	79.211	-3.16396e-05	-1.43045e-06	-3.75525e-11	-1.43041e-06	0.24032	40376.6	1.05998	40375.6
0.0315922	28.396	6.98733	29.2431	-13.824	222.229	0.240334	-0.0059683	720989	41162.9	1	12	0.00461619	0.000157856	0	-0.00030856	-0.000108219	3.41732e-06	22.2363	0.0216483	0.0200384	-0.00819231	-13.799	29.2606	28.4161	6.97914	0.0332056	0.00817082	0.0341962	13.824	4.11629e+07	1.67283e+08	1.72273e+08	-76.176	0.0000000E+000	0.0000000E+000	0.0000000E+000	76.176	0.0000000E+000	0.0000000E+000	0.0000000E+000	-76.176	0.0000000E+000	0.0000000E+000	0.0000000E+000	-13.824	0.0000000E+000	0.0000000E+000	0.0000000E+000	13.824	4.06393	76.176	-0.00014685	-1.43438e-06	6.45885e-10	-1.43503e-06	0.240442	40268.3	18.1323	40286.5
0.0215268	29.3865	9.08891	30.76	-17.1862	319.966	0.240327	-0.00694544	813447	71019.9	1	12	0.00461142	0.000149916	0	-0.000659538	0.000101749	2.97356e-06	-14.1183	0.0198348	0.0192357	0.00483821	-17.1842	30.7798	29.4058	9.09375	0.0310582	0.00960593	0.0325098	17.1862	7.10199e+07	2.29624e+08	2.40356e+08	-72.8138	0.0000000E+000	0.0000000E+000	0.0000000E+000	72.8138	0.0000000E+000	0.0000000E+000	0.0000000E+000	-72.8138	0.0000000E+000	0.0000000E+000	0.0000000E+000	-17.1862	0.0000000E+000	0.0000000E+000	0.0000000E+000	17.1862	3.23323	72.8138	-0.000350978	-1.66917e-06	-7.06694e-10	-1.66847e-06	0.240225	34602.1	14.6498	34587.5
0.0146812	30.985	11.7269	33.1299	-20.7302	463.269	0.240331	-0.00796076	924434	115825	1	12	0.00461542	0.000139313	0	-0.00124649	0.000235366	2.66618e-06	-5.91842	0.0191381	0.0190361	0.00197337	-20.7217	33.1484	31.004	11.7289	0.02823	0.0106842	0.0301842	20.7302	1.15825e+08	3.06035e+08	3.2722e+08	-69.2698	0.0000000E+000	0.0000000E+000	0.0000000E+000	69.2698	0.0000000E+000	0.0000000E+000	0.0000000E+000	-69.2698	0.0000000E+000	0.0000000E+000	0.0000000E+000	-20.7302	0.0000000E+000	0.0000000E+000	0.0000000E+000	20.7302	2.64221	69.2698	-0.00058695	-1.91321e-06	-1.87369e-09	-1.91134e-06	0.240095	30189.4	29.5658	30159.9
0.0100092	33.4513	15.4327	36.8397	-24.7662	673.451	0.240326	-0.00919209	1.03034e+06	180815	1	12	0.00460861	0.000125099	0	-0.00201145	2.53972e-05	1.58361e-06	-51.1307	0.0126588	0.00794398	0.00985589	-24.775	36.851	33.4593	15.4426	0.024648	0.0113714	0.0271447	24.7662	1.80815e+08	3.91926e+08	4.31625e+08	-65.2338	0.0000000E+000	0.0000000E+000	0.0000000E+000	65.2338	0.0000000E+000	0.0000000E+000	0.0000000E+000	-65.2338	0.0000000E+000	0.0000000E+000	0.0000000E+000	-24.7662	0.0000000E+000	0.0000000E+000	0.0000000E+000	24.7662	2.16755	65.2338	-0.000764961	-2.2091e-06	-2.33453e-10	-2.20886e-06	0.2403	26144.8	2.76293	26142.1