File: txt/18393_R277_UA689_SOC00_C03.mpt
EC-Lab ASCII FILE
Nb header lines : 65

Potentio Electrochemical Impedance Spectroscopy

Run on channel : 3 (SN 65921)
User :
CE vs. WE compliance from -10 V to 10 V
Electrode connection : standard
Potential control : Ewe
Ewe ctrl range : min = -10.00 V, max = 10.00 V
Safety Limits :
	Do not start on E overload
Acquisition started on : 10/13/2025 15:08:59.554
Technique started on : 10/13/2025 15:09:01.424
Loaded Setting File :  C:\Users\Celltest\OneDrive - store-dot.com\Documents\EC-Lab\Data\@Biologic Test Protocols\anode half cell EIS SOC00.mps
Saved on :
	File : 18393_R277_UA689_SOC00_C03.mpr
	Directory : C:\Users\Celltest\OneDrive - store-dot.com\Documents\EC-Lab\Data\Gyutae\
	Host : 169.254.61.224
Device : VMP-3e (SN .003165)
Address : USB
EC-LAB for windows v11.62 (software)
Internet server v27.00 (firmware)
Command interpretor v12.03 (firmware)
Electrode material :
Initial state :
Electrolyte :
Comments :
Electrode surface area : 0.001 cm²
Characteristic mass : 0.001 g
Equivalent Weight : 0.000 g/eq.
Density : 0.000 g/cm3
Volume (V) : 0.001 cm³
Record Ece
Cycle Definition : Charge/Discharge alternance
Mode                Single sine
E (V)               0.0000
vs.                 Eoc
tE (h:m:s)          0:00:0.0000
record              0
dI                  0.000
unit dI             mA
dt (s)              0.000
fi                  100.000
unit fi             kHz
ff                  10.000
unit ff             mHz
Nd                  6
Points              per decade
spacing             Logarithmic
Va (mV)             5.0
pw                  0.10
Na                  2
corr                0
E range min (V)     -10.000
E range max (V)     10.000
I Range             Auto
Bandwidth           5
nc cycles           0
goto Ns'            0
nr cycles           0
inc. cycle          0

freq/Hz	Re(Z)/Ohm	-Im(Z)/Ohm	|Z|/Ohm	Phase(Z)/deg	time/s	<Ewe>/V	<I>/mA	Cs/µF	Cp/µF	cycle number	I Range	|Ewe|/V	|I|/A	Ns	(Q-Qo)/mA.h	<Ece>/V	|Ece|/V	Phase(Zce)/deg	|Zce|/Ohm	Re(Zce)/Ohm	-Im(Zce)/Ohm	Phase(Zwe-ce)/deg	|Zwe-ce|/Ohm	Re(Zwe-ce)/Ohm	-Im(Zwe-ce)/Ohm	Re(Y)/Ohm-1	Im(Y)/Ohm-1	|Y|/Ohm-1	Phase(Y)/deg	Re(C)/nF	Im(C)/nF	|C|/nF	Phase(C)/deg	Re(M)	Im(M)	|M|	Phase(M)/deg	Re(Permittivity)	Im(Permittivity)	|Permittivity|	Phase(Permittivity)/deg	Re(Resistivity)/Ohm.cm	Im(Resistivity)/Ohm.cm	|Resistivity|/Ohm.cm	Phase(Resistivity)/deg	Re(Conductivity)/mS/cm	Im(Conductivity)/mS/cm	|Conductivity|/mS/cm	Phase(Conductivity)/deg	Tan(Delta)	Loss Angle(Delta)/deg	dq/mA.h	Pwe/W	Pce/W	Pwe-ce/W	<Ewe-Ece>/V	Rwe/Ohm	Rce/Ohm	Rwe-ce/Ohm		Ewe-Ece/V
100004	1.22742	0.45355	1.30853	-20.2801	1.86955	0.237451	0.033073	3.50897	0.42156	1	9	0.00491297	0.00375457	0	1.15755e-05	-0.000252362	2.76301e-05	91.5838	0.00735908	-0.0002034	-0.00735626	-19.9804	1.30581	1.22721	0.446193	0.716841	0.264884	0.764215	20.2801	421.56	1140.85	1216.24	-69.7199	0.0000000E+000	0.0000000E+000	0.0000000E+000	69.7199	0.0000000E+000	0.0000000E+000	0.0000000E+000	-69.7199	0.0000000E+000	0.0000000E+000	0.0000000E+000	-20.2801	0.0000000E+000	0.0000000E+000	0.0000000E+000	20.2801	2.70624	69.7199	1.15755e-05	7.85321e-06	-8.34636e-09	7.86156e-06	0.237703	7179.6	7.63045	7187.23
68132	1.34875	0.528431	1.44857	-21.3949	2.37852	0.237437	0.0375109	4.42059	0.58827	1	9	0.00502332	0.00346777	0	3.06168e-05	7.22374e-05	2.62166e-05	71.3171	0.00756007	0.00242173	-0.0071617	-21.0962	1.44823	1.35117	0.52127	0.642762	0.25183	0.690335	21.3949	588.27	1501.48	1612.61	-68.6051	0.0000000E+000	0.0000000E+000	0.0000000E+000	68.6051	0.0000000E+000	0.0000000E+000	0.0000000E+000	-68.6051	0.0000000E+000	0.0000000E+000	0.0000000E+000	-21.3949	0.0000000E+000	0.0000000E+000	0.0000000E+000	21.3949	2.55236	68.6051	1.90413e-05	8.90647e-06	2.70969e-09	8.90376e-06	0.237364	6329.79	1.92577	6327.87
46420.4	1.48471	0.597851	1.60056	-21.9333	2.76354	0.237438	0.0321407	5.7348	0.800134	1	9	0.00543066	0.00339298	0	3.45524e-05	-9.96091e-05	2.08456e-05	12.2257	0.00614375	0.00600442	-0.00130102	-21.8102	1.60564	1.49071	0.59655	0.57956	0.233373	0.624782	21.9333	800.134	1987.06	2142.1	-68.0667	0.0000000E+000	0.0000000E+000	0.0000000E+000	68.0667	0.0000000E+000	0.0000000E+000	0.0000000E+000	-68.0667	0.0000000E+000	0.0000000E+000	0.0000000E+000	-21.9333	0.0000000E+000	0.0000000E+000	0.0000000E+000	21.9333	2.48341	68.0667	3.93559e-06	7.63142e-06	-3.20151e-09	7.63462e-06	0.237538	7387.46	3.09916	7390.56
31621.1	1.63623	0.674331	1.76974	-22.3977	3.14655	0.237428	0.0299404	7.46396	1.08367	1	9	0.00544618	0.00307739	0	3.42017e-05	-6.1421e-05	1.02933e-05	16.8102	0.00334483	0.0032019	-0.000967329	-22.3294	1.77233	1.63943	0.673364	0.522428	0.215305	0.565055	22.3977	1083.67	2629.47	2844.02	-67.6023	0.0000000E+000	0.0000000E+000	0.0000000E+000	67.6023	0.0000000E+000	0.0000000E+000	0.0000000E+000	-67.6023	0.0000000E+000	0.0000000E+000	0.0000000E+000	-22.3977	0.0000000E+000	0.0000000E+000	0.0000000E+000	22.3977	2.42645	67.6023	-3.50769e-07	7.10867e-06	-1.83897e-09	7.1105e-06	0.237489	7930.02	2.05145	7932.07
21544.7	1.79857	0.745471	1.94694	-22.5131	3.52953	0.237424	0.0357954	9.90944	1.4528	1	9	0.00540658	0.00277696	0	4.05661e-05	-0.00029055	4.24628e-06	99.3428	0.00152911	-0.000248238	-0.00150883	-22.4748	1.94613	1.79832	0.743962	0.474485	0.196665	0.513627	22.5131	1452.8	3505.11	3794.27	-67.4869	0.0000000E+000	0.0000000E+000	0.0000000E+000	67.4869	0.0000000E+000	0.0000000E+000	0.0000000E+000	-67.4869	0.0000000E+000	0.0000000E+000	0.0000000E+000	-22.5131	0.0000000E+000	0.0000000E+000	0.0000000E+000	22.5131	2.41266	67.4869	6.36442e-06	8.4987e-06	-1.04004e-08	8.5091e-06	0.237715	6632.8	8.11695	6640.92
14678.6	1.97721	0.834263	2.14601	-22.8768	3.91455	0.23742	0.0430677	12.9967	1.96416	1	9	0.00529446	0.00246712	0	3.89269e-05	-0.00029055	5.99081e-06	66.5589	0.00242826	0.000965975	-0.00222785	-22.812	2.14603	1.97818	0.832036	0.429329	0.181151	0.465981	22.8768	1964.16	4655.06	5052.48	-67.1232	0.0000000E+000	0.0000000E+000	0.0000000E+000	67.1232	0.0000000E+000	0.0000000E+000	0.0000000E+000	-67.1232	0.0000000E+000	0.0000000E+000	0.0000000E+000	-22.8768	0.0000000E+000	0.0000000E+000	0.0000000E+000	22.8768	2.37001	67.1232	-1.63923e-06	1.02251e-05	-1.25133e-08	1.02377e-05	0.237711	5512.73	6.74636	5519.48
10002.2	2.16188	0.935908	2.35577	-23.4085	4.29952	0.237425	0.0389281	17.0016	2.68344	1	9	0.00520207	0.00220823	0	4.5528e-05	-0.000175985	9.32295e-06	41.2453	0.00422192	0.00317443	-0.00278344	-23.3158	2.35758	2.16505	0.933124	0.389553	0.168643	0.42449	23.4085	2683.44	6198.55	6754.47	-66.5915	0.0000000E+000	0.0000000E+000	0.0000000E+000	66.5915	0.0000000E+000	0.0000000E+000	0.0000000E+000	-66.5915	0.0000000E+000	0.0000000E+000	0.0000000E+000	-23.4085	0.0000000E+000	0.0000000E+000	0.0000000E+000	23.4085	2.30993	66.5915	6.60111e-06	9.24251e-06	-6.85077e-09	9.24936e-06	0.237601	6099.07	4.52078	6103.6
6810.42	2.36311	1.05299	2.5871	-24.0176	4.55852	0.237426	0.0339307	22.1932	3.67659	1	9	0.00549657	0.00212461	0	4.60971e-05	3.40493e-05	1.59394e-05	-53.6617	0.00750226	0.00444548	0.00604331	-24.0995	2.59362	2.36756	1.05904	0.353067	0.157325	0.386533	24.0176	3676.59	8250.95	9033.02	-65.9824	0.0000000E+000	0.0000000E+000	0.0000000E+000	65.9824	0.0000000E+000	0.0000000E+000	0.0000000E+000	-65.9824	0.0000000E+000	0.0000000E+000	0.0000000E+000	-24.0176	0.0000000E+000	0.0000000E+000	0.0000000E+000	24.0176	2.24418	65.9824	5.69112e-07	8.05604e-06	1.15532e-09	8.05488e-06	0.237392	6997.37	1.00349	6996.37
4646	2.59027	1.20184	2.85551	-24.8905	4.95063	0.237408	0.0304624	28.5032	5.04918	1	9	0.00496115	0.0017374	0	4.80192e-05	0.000167708	8.90075e-06	-57.6585	0.00512304	0.00274064	0.00432833	-24.946	2.85982	2.59301	1.20617	0.317671	0.147394	0.3502	24.8905	5049.18	10882.3	11996.6	-65.1095	0.0000000E+000	0.0000000E+000	0.0000000E+000	65.1095	0.0000000E+000	0.0000000E+000	0.0000000E+000	-65.1095	0.0000000E+000	0.0000000E+000	0.0000000E+000	-24.8905	0.0000000E+000	0.0000000E+000	0.0000000E+000	24.8905	2.15525	65.1095	1.92213e-06	7.23203e-06	5.10878e-09	7.22692e-06	0.237241	7793.48	5.5054	7787.98
3163.08	2.83945	1.39216	3.16237	-26.1184	5.32368	0.237292	-0.010747	36.1426	7.00446	1	9	0.00486849	0.00153951	0	4.58327e-05	-0.000347832	5.07282e-06	82.3559	0.0032951	0.000438314	-0.00326582	-26.0618	3.16133	2.83989	1.3889	0.283928	0.139208	0.316218	26.1184	7004.46	14286.3	15911	-63.8816	0.0000000E+000	0.0000000E+000	0.0000000E+000	63.8816	0.0000000E+000	0.0000000E+000	0.0000000E+000	-63.8816	0.0000000E+000	0.0000000E+000	0.0000000E+000	-26.1184	0.0000000E+000	0.0000000E+000	0.0000000E+000	26.1184	2.0396	63.8816	-2.18656e-06	-2.55018e-06	3.73815e-09	-2.55391e-06	0.23764	22079.9	32.3655	22112.2
2155.69	3.09686	1.64028	3.50443	-27.9084	5.77482	0.237341	0.0369142	45.0106	9.86092	1	9	0.0047915	0.00136727	0	4.98234e-05	5.31434e-05	5.32366e-06	-20.1737	0.00389365	0.00365478	0.00134279	-27.8999	3.50829	3.10051	1.64163	0.252165	0.133562	0.285353	27.9084	9860.92	18617.4	21067.7	-62.0916	0.0000000E+000	0.0000000E+000	0.0000000E+000	62.0916	0.0000000E+000	0.0000000E+000	0.0000000E+000	-62.0916	0.0000000E+000	0.0000000E+000	0.0000000E+000	-27.9084	0.0000000E+000	0.0000000E+000	0.0000000E+000	27.9084	1.888	62.0916	3.99071e-06	8.76126e-06	1.96174e-09	8.75929e-06	0.237288	6429.54	1.43965	6428.1
1468.59	3.37115	1.95938	3.89921	-30.166	6.47204	0.237368	-0.016225	55.3097	13.9664	1	10	0.00486793	0.00124844	0	4.90368e-05	-0.000195079	1.30787e-05	53.816	0.010476	0.00618482	-0.00845544	-30.013	3.90032	3.37733	1.95092	0.221731	0.128874	0.256463	30.166	13966.4	24029.5	27793.5	-59.834	0.0000000E+000	0.0000000E+000	0.0000000E+000	59.834	0.0000000E+000	0.0000000E+000	0.0000000E+000	-59.834	0.0000000E+000	0.0000000E+000	0.0000000E+000	-30.166	0.0000000E+000	0.0000000E+000	0.0000000E+000	30.166	1.72052	59.834	-7.86542e-07	-3.85128e-06	3.16516e-09	-3.85445e-06	0.237563	14629.8	12.0234	14641.8
1000.32	3.70997	2.42499	4.4322	-33.1702	6.92279	0.237374	-0.0158521	65.6103	19.6404	1	10	0.00478899	0.0010805	0	4.71649e-05	0.00012952	5.74342e-06	-127.008	0.00531553	-0.00319955	0.00424473	-33.2388	4.43185	3.70677	2.42923	0.188856	0.123444	0.225621	33.1702	19640.4	30047.8	35897.3	-56.8298	0.0000000E+000	0.0000000E+000	0.0000000E+000	56.8298	0.0000000E+000	0.0000000E+000	0.0000000E+000	-56.8298	0.0000000E+000	0.0000000E+000	0.0000000E+000	-33.1702	0.0000000E+000	0.0000000E+000	0.0000000E+000	33.1702	1.52989	56.8298	-1.87193e-06	-3.76287e-06	-2.05316e-09	-3.76081e-06	0.237244	14974.3	8.17051	14966.1
681.09	4.13639	3.06476	5.14805	-36.5357	7.37254	0.237366	-0.0161019	76.2465	27.0225	1	10	0.00472463	0.00091775	0	4.57686e-05	-6.1421e-05	3.12542e-06	-58.0575	0.00340552	0.00180175	0.00288985	-36.5496	5.15122	4.13819	3.06765	0.156076	0.11564	0.194248	36.5357	27022.5	36471.3	45391.3	-53.4643	0.0000000E+000	0.0000000E+000	0.0000000E+000	53.4643	0.0000000E+000	0.0000000E+000	0.0000000E+000	-53.4643	0.0000000E+000	0.0000000E+000	0.0000000E+000	-36.5357	0.0000000E+000	0.0000000E+000	0.0000000E+000	36.5357	1.34966	53.4643	-1.39627e-06	-3.82206e-06	9.88997e-10	-3.82305e-06	0.237428	14741.5	3.81451	14745.3
463.961	4.72651	3.91673	6.13846	-39.6476	7.82435	0.237366	-0.0169969	87.5821	35.6569	1	10	0.00468728	0.000763593	0	4.36096e-05	9.13315e-05	1.91322e-05	-7.80193	0.0250555	0.0248236	0.00340126	-39.5246	6.15975	4.75133	3.92013	0.125436	0.103945	0.162907	39.6476	35656.9	43029	55883	-50.3524	0.0000000E+000	0.0000000E+000	0.0000000E+000	50.3524	0.0000000E+000	0.0000000E+000	0.0000000E+000	-50.3524	0.0000000E+000	0.0000000E+000	0.0000000E+000	-39.6476	0.0000000E+000	0.0000000E+000	0.0000000E+000	39.6476	1.20675	50.3524	-2.15899e-06	-4.03449e-06	-1.55235e-09	-4.03293e-06	0.237275	13965.3	5.37343	13959.9
316.316	5.5741	5.02769	7.50655	-42.0496	8.27202	0.237364	-0.0163555	100.076	44.8939	1	10	0.00465611	0.000620273	0	4.18279e-05	0.000148614	1.21274e-05	10.6536	0.0195518	0.0192148	-0.00361454	-41.9311	7.51841	5.59332	5.02407	0.0989224	0.0892253	0.133217	42.0496	44893.9	49773	67028.4	-47.9504	0.0000000E+000	0.0000000E+000	0.0000000E+000	47.9504	0.0000000E+000	0.0000000E+000	0.0000000E+000	-47.9504	0.0000000E+000	0.0000000E+000	0.0000000E+000	-42.0496	0.0000000E+000	0.0000000E+000	0.0000000E+000	42.0496	1.10868	47.9504	-1.78174e-06	-3.88221e-06	-2.43065e-09	-3.87977e-06	0.237215	14512.8	9.08646	14503.7
215.345	6.79694	6.31518	9.27793	-42.8958	8.72156	0.23737	-0.0161243	117.031	54.2214	1	10	0.00461888	0.000497836	0	3.94865e-05	0.000110426	1.28056e-05	-12.8037	0.0257226	0.025083	0.00570042	-42.8164	9.30019	6.82202	6.32088	0.0789608	0.0733642	0.107783	42.8958	54221.3	58357.6	79659.1	-47.1042	0.0000000E+000	0.0000000E+000	0.0000000E+000	47.1042	0.0000000E+000	0.0000000E+000	0.0000000E+000	-47.1042	0.0000000E+000	0.0000000E+000	0.0000000E+000	-42.8958	0.0000000E+000	0.0000000E+000	0.0000000E+000	42.8958	1.07629	47.1042	-2.34137e-06	-3.82743e-06	-1.78054e-09	-3.82565e-06	0.23726	14721.2	6.84838	14714.4
146.737	8.66092	7.7507	11.6226	-41.8255	9.16747	0.237379	-0.0165196	139.939	62.232	1	10	0.00462287	0.000397748	0	3.70618e-05	-0.000195079	6.68976e-06	96.7781	0.0168191	-0.00198505	-0.0167015	-41.7706	11.61	8.65894	7.734	0.0641146	0.0573765	0.0860393	41.8255	62232	69540.3	93320.2	-48.1745	0.0000000E+000	0.0000000E+000	0.0000000E+000	48.1745	0.0000000E+000	0.0000000E+000	0.0000000E+000	-48.1745	0.0000000E+000	0.0000000E+000	0.0000000E+000	-41.8255	0.0000000E+000	0.0000000E+000	0.0000000E+000	41.8255	1.11744	48.1745	-2.42472e-06	-3.9214e-06	3.22263e-09	-3.92462e-06	0.237574	14369.5	11.809	14381.4
100.032	11.1267	8.91896	14.2601	-38.715	9.61885	0.237367	-0.0155128	178.389	69.7826	1	10	0.00461634	0.000323723	0	3.54174e-05	7.22374e-05	1.04834e-05	50.695	0.0323838	0.0205135	-0.0250581	-38.5849	14.2605	11.1472	8.8939	0.0547166	0.0438598	0.0701255	38.715	69782.6	87056.4	111573	-51.285	0.0000000E+000	0.0000000E+000	0.0000000E+000	51.285	0.0000000E+000	0.0000000E+000	0.0000000E+000	-51.285	0.0000000E+000	0.0000000E+000	0.0000000E+000	-38.715	0.0000000E+000	0.0000000E+000	0.0000000E+000	38.715	1.24754	51.285	-1.64443e-06	-3.68223e-06	-1.1206e-09	-3.68111e-06	0.237295	15301.4	4.65664	15296.7
68.104	14.1441	9.58988	17.0886	-34.1377	10.0814	0.23738	-0.013447	243.688	76.7442	1	10	0.00460932	0.00026973	0	3.39004e-05	-4.13882e-06	5.55908e-06	-44.9736	0.0206098	0.01458	0.0145666	-34.1507	17.1089	14.1587	9.60444	0.0484352	0.0328396	0.0585184	34.1377	76744.2	113190	136754	-55.8623	0.0000000E+000	0.0000000E+000	0.0000000E+000	55.8623	0.0000000E+000	0.0000000E+000	0.0000000E+000	-55.8623	0.0000000E+000	0.0000000E+000	0.0000000E+000	-34.1377	0.0000000E+000	0.0000000E+000	0.0000000E+000	34.1377	1.4749	55.8623	-1.517e-06	-3.19204e-06	5.56546e-11	-3.1921e-06	0.237384	17653	0.307788	17653.3
46.4415	17.3438	9.50809	19.779	-28.7321	10.7566	0.2374	-0.0108743	360.429	83.2906	1	11	0.00461304	0.000233229	0	3.12523e-05	7.22374e-05	1.07571e-05	-150.534	0.0461225	-0.0401562	0.0226883	-28.8458	19.7548	17.3036	9.53078	0.0443336	0.0243043	0.0505585	28.7321	83290.6	151931	173264	-61.2679	0.0000000E+000	0.0000000E+000	0.0000000E+000	61.2679	0.0000000E+000	0.0000000E+000	0.0000000E+000	-61.2679	0.0000000E+000	0.0000000E+000	0.0000000E+000	-28.7321	0.0000000E+000	0.0000000E+000	0.0000000E+000	28.7321	1.82411	61.2679	-2.64805e-06	-2.58155e-06	-7.85528e-10	-2.58077e-06	0.237328	21831.4	6.64298	21824.8
31.6296	20.2052	8.79054	22.0346	-23.512	11.1875	0.237386	-0.0111237	572.416	91.1025	1	11	0.00461561	0.00020947	0	3.0043e-05	-0.000233268	1.22204e-05	67.5114	0.0583393	0.0223148	-0.0539029	-23.3603	22.0337	20.2276	8.73663	0.0416152	0.0181052	0.0453831	23.512	91102.5	209401	228360	-66.488	0.0000000E+000	0.0000000E+000	0.0000000E+000	66.488	0.0000000E+000	0.0000000E+000	0.0000000E+000	-66.488	0.0000000E+000	0.0000000E+000	0.0000000E+000	-23.512	0.0000000E+000	0.0000000E+000	0.0000000E+000	23.512	2.29852	66.488	-1.2093e-06	-2.64062e-06	2.5948e-09	-2.64321e-06	0.237619	21340.5	20.9703	21361.5
21.5517	22.471	7.67497	23.7455	-18.8576	11.6084	0.237395	-0.0111651	962.191	100.52	1	11	0.00460868	0.000194086	0	2.89097e-05	-8.05151e-05	5.14158e-06	81.6839	0.0264913	0.00383154	-0.0262127	-18.7948	23.7407	22.4748	7.64876	0.0398527	0.0136117	0.0421132	18.8576	100520	294304	310997	-71.1424	0.0000000E+000	0.0000000E+000	0.0000000E+000	71.1424	0.0000000E+000	0.0000000E+000	0.0000000E+000	-71.1424	0.0000000E+000	0.0000000E+000	0.0000000E+000	-18.8576	0.0000000E+000	0.0000000E+000	0.0000000E+000	18.8576	2.92783	71.1424	-1.13333e-06	-2.65054e-06	8.9896e-10	-2.65144e-06	0.237475	21262.2	7.21131	21269.4
14.6852	24.2068	6.54948	25.0771	-15.1397	12.0692	0.237399	-0.0103679	1654.76	112.874	1	11	0.00460481	0.000183626	0	2.8462e-05	0.000263178	5.80613e-06	42.4177	0.0316194	0.0233429	-0.0213282	-15.0788	25.0941	24.2301	6.52815	0.0384929	0.0104148	0.039877	15.1397	112874	417179	432179	-74.8603	0.0000000E+000	0.0000000E+000	0.0000000E+000	74.8603	0.0000000E+000	0.0000000E+000	0.0000000E+000	-74.8603	0.0000000E+000	0.0000000E+000	0.0000000E+000	-15.1397	0.0000000E+000	0.0000000E+000	0.0000000E+000	15.1397	3.69598	74.8603	-4.47708e-07	-2.46132e-06	-2.72859e-09	-2.45859e-06	0.237136	22897.6	25.384	22872.2
10.0032	25.6002	5.52219	26.189	-12.1727	12.5198	0.237397	-0.0104518	2881.18	128.101	1	11	0.00461185	0.000176099	0	2.68636e-05	-6.1421e-05	1.10046e-05	1.06171	0.0624913	0.0624805	-0.00115791	-12.1415	26.2499	25.6627	5.52103	0.0373254	0.00805142	0.0381839	12.1727	128101	593863	607522	-77.8273	0.0000000E+000	0.0000000E+000	0.0000000E+000	77.8273	0.0000000E+000	0.0000000E+000	0.0000000E+000	-77.8273	0.0000000E+000	0.0000000E+000	0.0000000E+000	-12.1727	0.0000000E+000	0.0000000E+000	0.0000000E+000	12.1727	4.63588	77.8273	-1.59836e-06	-2.48121e-06	6.41958e-10	-2.48186e-06	0.237458	22713.6	5.87662	22719.5
6.81719	26.6652	4.65585	27.0686	-9.90423	12.8595	0.237396	-0.0104275	5014.36	148.348	1	11	0.00460947	0.000170288	0	2.69579e-05	0.000282272	4.81808e-06	64.1828	0.0282936	0.0123219	-0.0254696	-9.84665	27.0764	26.6775	4.63038	0.0363926	0.00635429	0.0369431	9.90423	148348	849625	862479	-80.0958	0.0000000E+000	0.0000000E+000	0.0000000E+000	80.0958	0.0000000E+000	0.0000000E+000	0.0000000E+000	-80.0958	0.0000000E+000	0.0000000E+000	0.0000000E+000	-9.90423	0.0000000E+000	0.0000000E+000	0.0000000E+000	9.90423	5.72725	80.0958	9.42814e-08	-2.47545e-06	-2.9434e-09	-2.47251e-06	0.237114	22766.3	27.0699	22739.2
4.63925	27.5296	4.04962	27.8259	-8.36822	13.3435	0.237402	-0.00973094	8471.46	179.427	1	11	0.00461221	0.000165752	0	2.3957e-05	0.000148614	8.60247e-06	21.6228	0.0518995	0.0482473	-0.0191247	-8.31489	27.8708	27.5779	4.03049	0.0355552	0.00523018	0.0359378	8.36822	179427	1.21976e+06	1.23289e+06	-81.6318	0.0000000E+000	0.0000000E+000	0.0000000E+000	81.6318	0.0000000E+000	0.0000000E+000	0.0000000E+000	-81.6318	0.0000000E+000	0.0000000E+000	0.0000000E+000	-8.36822	0.0000000E+000	0.0000000E+000	0.0000000E+000	8.36822	6.79808	81.6318	-3.00088e-06	-2.31015e-06	-1.44615e-09	-2.3087e-06	0.237254	24396.7	15.2723	24381.4
3.1604	28.2605	3.52732	28.4798	-7.11454	14.0364	0.237391	-0.00992	14276.9	219.003	1	11	0.00460753	0.000161782	0	2.085e-05	-6.1421e-05	9.54404e-06	-7.29454	0.058993	0.0585156	0.00749035	-7.11492	28.5388	28.319	3.53481	0.0348423	0.00434881	0.0351126	7.11454	219003	1.75463e+06	1.76824e+06	-82.8855	0.0000000E+000	0.0000000E+000	0.0000000E+000	82.8855	0.0000000E+000	0.0000000E+000	0.0000000E+000	-82.8855	0.0000000E+000	0.0000000E+000	0.0000000E+000	-7.11454	0.0000000E+000	0.0000000E+000	0.0000000E+000	7.11454	8.0119	82.8855	-3.107e-06	-2.35492e-06	6.09296e-10	-2.35553e-06	0.237452	23930.5	6.19163	23936.7
2.15577	28.9105	3.15325	29.082	-6.22461	15.0401	0.2374	-0.00925838	23413.1	275.251	1	11	0.00460853	0.000158467	0	1.9844e-05	-4.13882e-06	6.44288e-06	18.16	0.0406576	0.0386324	-0.0126718	-6.19158	29.119	28.9491	3.14058	0.0341828	0.0037283	0.0343856	6.22461	275251	2.52363e+06	2.5386e+06	-83.7754	0.0000000E+000	0.0000000E+000	0.0000000E+000	83.7754	0.0000000E+000	0.0000000E+000	0.0000000E+000	-83.7754	0.0000000E+000	0.0000000E+000	0.0000000E+000	-6.22461	0.0000000E+000	0.0000000E+000	0.0000000E+000	6.22461	9.16848	83.7754	-1.00608e-06	-2.19794e-06	3.83187e-11	-2.19798e-06	0.237404	25641.7	0.447035	25642.1
1.46631	29.4666	2.87823	29.6068	-5.57882	16.5006	0.237397	-0.00898712	37711.1	356.399	1	11	0.00460764	0.000155628	0	1.9929e-05	5.31434e-05	2.06485e-06	80.1643	0.0132679	0.00226647	-0.0130729	-5.55322	29.6078	29.4688	2.86515	0.033616	0.00328354	0.033776	5.57882	356399	3.64872e+06	3.66609e+06	-84.4212	0.0000000E+000	0.0000000E+000	0.0000000E+000	84.4212	0.0000000E+000	0.0000000E+000	0.0000000E+000	-84.4212	0.0000000E+000	0.0000000E+000	0.0000000E+000	-5.57882	0.0000000E+000	0.0000000E+000	0.0000000E+000	5.57882	10.2378	84.4212	8.50044e-08	-2.13351e-06	-4.77606e-10	-2.13304e-06	0.237344	26415.2	5.91328	26409.3
1.00006	30.0363	2.72338	30.1595	-5.18083	19.676	0.237394	-0.00856687	58436.5	476.49	1	12	0.00461178	0.000152913	0	1.56427e-05	-0.000175985	1.56349e-06	22.924	0.0102247	0.00941716	-0.00398262	-5.17168	30.1685	30.0457	2.7194	0.0330216	0.00299407	0.0331571	5.18083	476490	5.25522e+06	5.27678e+06	-84.8192	0.0000000E+000	0.0000000E+000	0.0000000E+000	84.8192	0.0000000E+000	0.0000000E+000	0.0000000E+000	-84.8192	0.0000000E+000	0.0000000E+000	0.0000000E+000	-5.18083	0.0000000E+000	0.0000000E+000	0.0000000E+000	5.18083	11.029	84.8192	-4.28632e-06	-2.03372e-06	1.50764e-09	-2.03523e-06	0.23757	27710.7	20.5426	27731.3
0.681362	30.5643	2.64527	30.6786	-4.94649	22.7882	0.237395	-0.00763496	88302.2	656.51	1	12	0.00461159	0.000150319	0	6.99629e-06	0.000148614	3.43978e-06	-56.9647	0.0228831	0.0124749	0.0191837	-4.98016	30.6927	30.5768	2.66446	0.0324746	0.0028106	0.032596	4.94649	656510	7.58553e+06	7.61389e+06	-85.0535	0.0000000E+000	0.0000000E+000	0.0000000E+000	85.0535	0.0000000E+000	0.0000000E+000	0.0000000E+000	-85.0535	0.0000000E+000	0.0000000E+000	0.0000000E+000	-4.94649	0.0000000E+000	0.0000000E+000	0.0000000E+000	4.94649	11.5543	85.0535	-8.64636e-06	-1.8125e-06	-1.13466e-09	-1.81137e-06	0.237247	31093.2	19.4649	31073.7
0.464091	31.0276	2.67765	31.143	-4.93234	27.3448	0.237397	-0.00707121	128075	946.784	1	12	0.00461185	0.000148086	0	-1.04242e-05	-2.32329e-05	2.33508e-06	18.7315	0.0157684	0.0149332	-0.00506376	-4.9207	31.1574	31.0426	2.67258	0.0319911	0.00276079	0.03211	4.93234	946784	1.0971e+07	1.10118e+07	-85.0677	0.0000000E+000	0.0000000E+000	0.0000000E+000	85.0677	0.0000000E+000	0.0000000E+000	0.0000000E+000	-85.0677	0.0000000E+000	0.0000000E+000	0.0000000E+000	-4.93234	0.0000000E+000	0.0000000E+000	0.0000000E+000	4.93234	11.5876	85.0677	-1.74205e-05	-1.67868e-06	1.64285e-10	-1.67885e-06	0.23742	33572.3	3.28556	33575.6
0.316193	31.5026	2.83501	31.6299	-5.14236	34.0208	0.237391	-0.00705428	177547	1426.35	1	12	0.00460957	0.000145735	0	-3.65859e-05	1.49552e-05	2.73235e-06	12.5116	0.0187487	0.0183035	-0.00406169	-5.13206	31.6477	31.5209	2.83094	0.0314884	0.00283373	0.0316157	5.14236	1.42635e+06	1.58496e+07	1.59137e+07	-84.8576	0.0000000E+000	0.0000000E+000	0.0000000E+000	84.8576	0.0000000E+000	0.0000000E+000	0.0000000E+000	-84.8576	0.0000000E+000	0.0000000E+000	0.0000000E+000	-5.14236	0.0000000E+000	0.0000000E+000	0.0000000E+000	5.14236	11.112	84.8576	-2.61617e-05	-1.67462e-06	-1.05499e-10	-1.67452e-06	0.237376	33652	2.12002	33649.9
0.215268	32.0248	3.19235	32.1835	-5.69266	43.8132	0.23739	-0.00723773	231595	2278.69	1	12	0.00461003	0.000143242	0	-6.75688e-05	-0.000233268	4.4009e-06	-11.2828	0.0307236	0.0301298	0.00601114	-5.69799	32.2141	32.0549	3.19837	0.0309186	0.00308209	0.0310718	5.69266	2.27869e+06	2.28592e+07	2.29725e+07	-84.3073	0.0000000E+000	0.0000000E+000	0.0000000E+000	84.3073	0.0000000E+000	0.0000000E+000	0.0000000E+000	-84.3073	0.0000000E+000	0.0000000E+000	0.0000000E+000	-5.69266	0.0000000E+000	0.0000000E+000	0.0000000E+000	5.69266	10.0317	84.3073	-3.09829e-05	-1.71816e-06	1.68833e-09	-1.71985e-06	0.237623	32798.9	32.2294	32831.2
0.146929	32.5919	3.82885	32.816	-6.70033	58.1516	0.23739	-0.00724003	282908	3851.33	1	12	0.00460875	0.000140442	0	-9.51724e-05	-0.000137797	3.73162e-06	15.2802	0.0265705	0.0256312	-0.00700239	-6.68298	32.8406	32.6175	3.82185	0.0302648	0.00355547	0.0304729	6.70033	3.85133e+06	3.27832e+07	3.30086e+07	-83.2997	0.0000000E+000	0.0000000E+000	0.0000000E+000	83.2997	0.0000000E+000	0.0000000E+000	0.0000000E+000	-83.2997	0.0000000E+000	0.0000000E+000	0.0000000E+000	-6.70033	0.0000000E+000	0.0000000E+000	0.0000000E+000	6.70033	8.51218	83.2997	-2.76036e-05	-1.71871e-06	9.97657e-10	-1.71971e-06	0.237528	32788.6	19.0327	32807.6
0.0999041	33.1776	4.75275	33.5163	-8.15227	79.2286	0.237391	-0.00687693	335190	6740.17	1	12	0.00461117	0.00013758	0	-0.000110111	0.000263178	1.13755e-06	-22.0744	0.00826828	0.00766219	0.00310731	-8.15567	33.5243	33.1852	4.75586	0.0295348	0.00423091	0.0298363	8.15227	6.74018e+06	4.70512e+07	4.75315e+07	-81.8477	0.0000000E+000	0.0000000E+000	0.0000000E+000	81.8477	0.0000000E+000	0.0000000E+000	0.0000000E+000	-81.8477	0.0000000E+000	0.0000000E+000	0.0000000E+000	-8.15227	0.0000000E+000	0.0000000E+000	0.0000000E+000	8.15227	6.9807	81.8477	-1.49386e-05	-1.63252e-06	-1.80986e-09	-1.63071e-06	0.237128	34519.9	38.2697	34481.6
0.0680626	33.9494	5.92518	34.4626	-9.90009	110.156	0.237387	-0.00625468	394648	11665.9	1	12	0.00461004	0.000133769	0	-0.000112937	0.000110426	2.99207e-06	15.5707	0.0223674	0.0215465	-0.00600403	-9.8841	34.4828	33.971	5.91917	0.0285849	0.0049889	0.029017	9.90009	1.16659e+07	6.68417e+07	6.78521e+07	-80.0999	0.0000000E+000	0.0000000E+000	0.0000000E+000	80.0999	0.0000000E+000	0.0000000E+000	0.0000000E+000	-80.0999	0.0000000E+000	0.0000000E+000	0.0000000E+000	-9.90009	0.0000000E+000	0.0000000E+000	0.0000000E+000	9.90009	5.72969	80.0999	-2.82566e-06	-1.48478e-06	-6.90677e-10	-1.48409e-06	0.237277	37953.5	17.6549	37935.9
0.0464052	35.1134	7.3723	35.879	-11.8574	155.507	0.237398	-0.00485234	465212	19641.6	1	12	0.00461079	0.00012851	0	-0.000105598	7.22374e-05	1.90037e-06	3.29461	0.0147878	0.0147633	-0.000849855	-11.8512	35.8932	35.1282	7.37145	0.0272768	0.00572694	0.0278715	11.8574	1.96416e+07	9.35505e+07	9.55902e+07	-78.1426	0.0000000E+000	0.0000000E+000	0.0000000E+000	78.1426	0.0000000E+000	0.0000000E+000	0.0000000E+000	-78.1426	0.0000000E+000	0.0000000E+000	0.0000000E+000	-11.8574	0.0000000E+000	0.0000000E+000	0.0000000E+000	11.8574	4.76288	78.1426	7.33888e-06	-1.15194e-06	-3.50521e-10	-1.15158e-06	0.237326	48924.4	14.8871	48909.5
0.0315922	36.6813	9.5954	37.9156	-14.6594	222.113	0.2374	-0.0041055	525022	33625.5	1	12	0.00461162	0.000121629	0	-0.000139487	-4.13882e-06	2.00765e-06	-14.5013	0.0165064	0.0159805	0.00413322	-14.6594	37.9321	36.6973	9.59953	0.0255158	0.00667465	0.0263744	14.6594	3.36255e+07	1.28543e+08	1.32869e+08	-75.3406	0.0000000E+000	0.0000000E+000	0.0000000E+000	75.3406	0.0000000E+000	0.0000000E+000	0.0000000E+000	-75.3406	0.0000000E+000	0.0000000E+000	0.0000000E+000	-14.6594	0.0000000E+000	0.0000000E+000	0.0000000E+000	14.6594	3.8228	75.3406	-3.38889e-05	-9.74646e-07	1.69919e-11	-9.74663e-07	0.237404	57824.8	1.00811	57825.8
0.0215268	38.4834	12.4594	40.4501	-17.9398	319.851	0.237396	-0.0040029	593397	56298.6	1	12	0.00460896	0.000113942	0	-0.000294286	-8.05151e-05	3.02142e-06	-12.8268	0.0265172	0.0258555	0.00588697	-17.9365	40.4765	38.5093	12.4652	0.0235199	0.00761477	0.0247218	17.9398	5.62986e+07	1.7389e+08	1.82777e+08	-72.0602	0.0000000E+000	0.0000000E+000	0.0000000E+000	72.0602	0.0000000E+000	0.0000000E+000	0.0000000E+000	-72.0602	0.0000000E+000	0.0000000E+000	0.0000000E+000	-17.9398	0.0000000E+000	0.0000000E+000	0.0000000E+000	17.9398	3.08872	72.0602	-0.0001548	-9.5027e-07	3.22294e-10	-9.50593e-07	0.237476	59306	20.1142	59326.1
0.0146812	40.741	15.7212	43.669	-21.1007	463.152	0.237399	-0.00420371	689564	89371.2	1	12	0.00460758	0.000105512	0	-0.000640123	-6.1421e-05	2.33539e-06	-5.077	0.022134	0.0220472	0.00195874	-21.0926	43.6903	40.763	15.7231	0.0213641	0.00824401	0.0228995	21.1007	8.93712e+07	2.31603e+08	2.48248e+08	-68.8993	0.0000000E+000	0.0000000E+000	0.0000000E+000	68.8993	0.0000000E+000	0.0000000E+000	0.0000000E+000	-68.8993	0.0000000E+000	0.0000000E+000	0.0000000E+000	-21.1007	0.0000000E+000	0.0000000E+000	0.0000000E+000	21.1007	2.59147	68.8993	-0.000345837	-9.97955e-07	2.58196e-10	-9.98213e-07	0.23746	56473.7	14.6112	56488.3
0.0100092	43.8342	19.6016	48.0173	-24.0931	673.332	0.237398	-0.00492379	811204	135182	1	12	0.00461121	9.60323e-05	0	-0.0012005	-0.000118703	1.58892e-06	-50.1409	0.0165457	0.0106042	0.0127008	-24.1017	48.0321	43.8448	19.6143	0.0190116	0.00850152	0.0208258	24.0931	1.35182e+08	3.02301e+08	3.3115e+08	-65.9069	0.0000000E+000	0.0000000E+000	0.0000000E+000	65.9069	0.0000000E+000	0.0000000E+000	0.0000000E+000	-65.9069	0.0000000E+000	0.0000000E+000	0.0000000E+000	-24.0931	0.0000000E+000	0.0000000E+000	0.0000000E+000	24.0931	2.23625	65.9069	-0.000560372	-1.1689e-06	5.8447e-10	-1.16948e-06	0.237517	48214.5	24.1081	48238.6