File: txt/18403_R288_UA691_SOC00_C03.mpt
EC-Lab ASCII FILE
Nb header lines : 65

Potentio Electrochemical Impedance Spectroscopy

Run on channel : 3 (SN 65921)
User :
CE vs. WE compliance from -10 V to 10 V
Electrode connection : standard
Potential control : Ewe
Ewe ctrl range : min = -10.00 V, max = 10.00 V
Safety Limits :
	Do not start on E overload
Acquisition started on : 10/14/2025 16:30:19.060
Technique started on : 10/14/2025 16:30:20.786
Loaded Setting File :  NONE
Saved on :
	File : 18403_R288_UA691_SOC00_C03.mpr
	Directory : C:\Users\Celltest\OneDrive - store-dot.com\Documents\EC-Lab\Data\Charmaine\
	Host : 169.254.61.224
Device : VMP-3e (SN .003165)
Address : USB
EC-LAB for windows v11.62 (software)
Internet server v27.00 (firmware)
Command interpretor v12.03 (firmware)
Electrode material :
Initial state :
Electrolyte :
Comments :
Electrode surface area : 0.001 cm²
Characteristic mass : 0.001 g
Equivalent Weight : 0.000 g/eq.
Density : 0.000 g/cm3
Volume (V) : 0.001 cm³
Record Ece
Cycle Definition : Charge/Discharge alternance
Mode                Single sine
E (V)               0.0000
vs.                 Eoc
tE (h:m:s)          0:00:0.0000
record              0
dI                  0.000
unit dI             mA
dt (s)              0.000
fi                  100.000
unit fi             kHz
ff                  10.000
unit ff             mHz
Nd                  6
Points              per decade
spacing             Logarithmic
Va (mV)             5.0
pw                  0.10
Na                  2
corr                0
E range min (V)     -10.000
E range max (V)     10.000
I Range             Auto
Bandwidth           5
nc cycles           0
goto Ns'            0
nr cycles           0
inc. cycle          0

freq/Hz	Re(Z)/Ohm	-Im(Z)/Ohm	|Z|/Ohm	Phase(Z)/deg	time/s	<Ewe>/V	<I>/mA	Cs/µF	Cp/µF	cycle number	I Range	|Ewe|/V	|I|/A	Ns	(Q-Qo)/mA.h	<Ece>/V	|Ece|/V	Phase(Zce)/deg	|Zce|/Ohm	Re(Zce)/Ohm	-Im(Zce)/Ohm	Phase(Zwe-ce)/deg	|Zwe-ce|/Ohm	Re(Zwe-ce)/Ohm	-Im(Zwe-ce)/Ohm	Re(Y)/Ohm-1	Im(Y)/Ohm-1	|Y|/Ohm-1	Phase(Y)/deg	Re(C)/nF	Im(C)/nF	|C|/nF	Phase(C)/deg	Re(M)	Im(M)	|M|	Phase(M)/deg	Re(Permittivity)	Im(Permittivity)	|Permittivity|	Phase(Permittivity)/deg	Re(Resistivity)/Ohm.cm	Im(Resistivity)/Ohm.cm	|Resistivity|/Ohm.cm	Phase(Resistivity)/deg	Re(Conductivity)/mS/cm	Im(Conductivity)/mS/cm	|Conductivity|/mS/cm	Phase(Conductivity)/deg	Tan(Delta)	Loss Angle(Delta)/deg	dq/mA.h	Pwe/W	Pce/W	Pwe-ce/W	<Ewe-Ece>/V	Rwe/Ohm	Rce/Ohm	Rwe-ce/Ohm		Ewe-Ece/V
100004	1.32426	0.426129	1.39114	-17.8374	1.72551	0.260473	0.0109952	3.73476	0.350434	1	9	0.00463779	0.00333381	0	4.65577e-06	-2.32329e-05	3.63398e-05	85.1072	0.0109004	0.000929704	-0.0108606	-17.3991	1.38874	1.32519	0.415269	0.684282	0.220192	0.718837	17.8374	350.434	1089.03	1144.02	-72.1626	0.0000000E+000	0.0000000E+000	0.0000000E+000	72.1626	0.0000000E+000	0.0000000E+000	0.0000000E+000	-72.1626	0.0000000E+000	0.0000000E+000	0.0000000E+000	-17.8374	0.0000000E+000	0.0000000E+000	0.0000000E+000	17.8374	3.10766	72.1626	4.65577e-06	2.86396e-06	-2.55451e-10	2.86422e-06	0.260497	23689.7	2.113	23691.8
68132	1.43918	0.481942	1.51773	-18.5143	2.23255	0.260463	-0.00567501	4.847	0.488736	1	9	0.00505636	0.00333153	0	-1.97535e-06	-4.23269e-05	2.78418e-05	62.7043	0.00835707	0.00383241	-0.00742652	-18.2028	1.51903	1.44301	0.474516	0.624778	0.209221	0.658879	18.5143	488.736	1459.47	1539.13	-71.4857	0.0000000E+000	0.0000000E+000	0.0000000E+000	71.4857	0.0000000E+000	0.0000000E+000	0.0000000E+000	-71.4857	0.0000000E+000	0.0000000E+000	0.0000000E+000	-18.5143	0.0000000E+000	0.0000000E+000	0.0000000E+000	18.5143	2.98621	71.4857	-6.63113e-06	-1.47813e-06	2.40206e-10	-1.47837e-06	0.260505	45896.5	7.45849	45903.9
46420.4	1.5654	0.532423	1.65346	-18.7842	2.73952	0.260452	-0.00530207	6.43954	0.667697	1	9	0.00507221	0.00306762	0	1.64976e-06	0.000301366	2.3331e-05	46.8323	0.00760556	0.00520323	-0.00554715	-18.5446	1.65662	1.5706	0.526876	0.572579	0.194746	0.604791	18.7842	667.697	1963.12	2073.56	-71.2158	0.0000000E+000	0.0000000E+000	0.0000000E+000	71.2158	0.0000000E+000	0.0000000E+000	0.0000000E+000	-71.2158	0.0000000E+000	0.0000000E+000	0.0000000E+000	-18.7842	0.0000000E+000	0.0000000E+000	0.0000000E+000	18.7842	2.94014	71.2158	3.62512e-06	-1.38094e-06	-1.59787e-09	-1.37934e-06	0.260151	49122.8	56.8393	49065.9
31621.1	1.69768	0.594165	1.79865	-19.2894	3.24652	0.260465	-0.002244	8.47101	0.92439	1	9	0.00516196	0.0028699	0	-8.27549e-06	-6.1421e-05	1.41469e-05	-1.37336	0.00492939	0.00492797	0.000118144	-19.2412	1.80334	1.70261	0.594284	0.524761	0.183659	0.555972	19.2894	924.39	2641.22	2798.31	-70.7106	0.0000000E+000	0.0000000E+000	0.0000000E+000	70.7106	0.0000000E+000	0.0000000E+000	0.0000000E+000	-70.7106	0.0000000E+000	0.0000000E+000	0.0000000E+000	-19.2894	0.0000000E+000	0.0000000E+000	0.0000000E+000	19.2894	2.85725	70.7106	-9.92525e-06	-5.84484e-07	1.37829e-10	-5.84622e-07	0.260526	116071	27.3712	116099
21544.7	1.84645	0.659368	1.96065	-19.6517	3.62953	0.26044	-0.00567502	11.2035	1.26709	1	9	0.00514165	0.00262242	0	-5.07719e-06	0.000167708	1.10007e-05	1.61209	0.00419484	0.00419318	-0.000118012	-19.6073	1.96456	1.85064	0.65925	0.480328	0.171525	0.510035	19.6517	1267.09	3548.28	3767.73	-70.3483	0.0000000E+000	0.0000000E+000	0.0000000E+000	70.3483	0.0000000E+000	0.0000000E+000	0.0000000E+000	-70.3483	0.0000000E+000	0.0000000E+000	0.0000000E+000	-19.6517	0.0000000E+000	0.0000000E+000	0.0000000E+000	19.6517	2.80033	70.3483	3.19829e-06	-1.478e-06	-9.51745e-10	-1.47705e-06	0.260272	45892.4	29.5519	45862.8
14678.6	2.00684	0.721078	2.13245	-19.7639	4.01254	0.260453	0.00118699	15.0367	1.71933	1	9	0.00490466	0.00230001	0	-3.94126e-06	0.000148614	1.09617e-05	-100.081	0.00476595	-0.00083421	0.00469237	-19.8901	2.13326	2.006	0.72577	0.44132	0.158571	0.468944	19.7639	1719.33	4785.08	5084.6	-70.2361	0.0000000E+000	0.0000000E+000	0.0000000E+000	70.2361	0.0000000E+000	0.0000000E+000	0.0000000E+000	-70.2361	0.0000000E+000	0.0000000E+000	0.0000000E+000	-19.7639	0.0000000E+000	0.0000000E+000	0.0000000E+000	19.7639	2.78311	70.2361	1.13593e-06	3.09154e-07	1.76402e-10	3.08978e-07	0.260304	219424	125.203	219299
10002.2	2.15918	0.805839	2.30465	-20.4664	4.39553	0.260458	0.003984	19.7458	2.41413	1	9	0.00498872	0.00216463	0	-3.13893e-06	0.00012952	1.06313e-05	-112.254	0.00491139	-0.00185999	0.00454557	-20.5884	2.30451	2.15732	0.810385	0.406516	0.151718	0.433905	20.4664	2414.13	6468.46	6904.27	-69.5336	0.0000000E+000	0.0000000E+000	0.0000000E+000	69.5336	0.0000000E+000	0.0000000E+000	0.0000000E+000	-69.5336	0.0000000E+000	0.0000000E+000	0.0000000E+000	-20.4664	0.0000000E+000	0.0000000E+000	0.0000000E+000	20.4664	2.67942	69.5336	8.02333e-07	1.03767e-06	5.16006e-10	1.03715e-06	0.260329	65376.1	32.51	65343.6
6810.42	2.33667	0.889984	2.50042	-20.8507	4.65454	0.260455	-0.00302721	26.2581	3.32661	1	9	0.0047175	0.00188668	0	-3.94332e-06	-0.000156891	6.47831e-05	-37.7658	0.034337	0.0271441	0.0210292	-21.0766	2.53329	2.36382	0.911013	0.373742	0.14235	0.399933	20.8507	3326.61	8734.09	9346.16	-69.1493	0.0000000E+000	0.0000000E+000	0.0000000E+000	69.1493	0.0000000E+000	0.0000000E+000	0.0000000E+000	-69.1493	0.0000000E+000	0.0000000E+000	0.0000000E+000	-20.8507	0.0000000E+000	0.0000000E+000	0.0000000E+000	20.8507	2.62552	69.1493	-8.04396e-07	-7.88451e-07	4.74942e-10	-7.88926e-07	0.260612	86038	51.8271	86089.9
4646	2.56076	1.00837	2.75214	-21.4934	4.92263	0.260441	-0.0110453	33.972	4.56056	1	9	0.00464958	0.00168944	0	-3.80482e-06	-6.1421e-05	1.0891e-05	-3.29309	0.00644654	0.0064359	0.000370312	-21.4516	2.75827	2.5672	1.00874	0.338085	0.133131	0.363353	21.4934	4560.56	11581.6	12447.1	-68.5066	0.0000000E+000	0.0000000E+000	0.0000000E+000	68.5066	0.0000000E+000	0.0000000E+000	0.0000000E+000	-68.5066	0.0000000E+000	0.0000000E+000	0.0000000E+000	-21.4934	0.0000000E+000	0.0000000E+000	0.0000000E+000	21.4934	2.5395	68.5066	1.38501e-07	-2.87665e-06	6.78415e-10	-2.87733e-06	0.260502	23579.3	5.56081	23584.8
3163.08	2.7939	1.17215	3.02982	-22.7599	5.29461	0.26024	-0.0471455	42.9267	6.42477	1	9	0.00457738	0.00151078	0	-8.55499e-06	9.13315e-05	7.2866e-06	-91.034	0.00482308	-8.70318e-05	0.0048223	-22.8446	3.03161	2.79382	1.17697	0.304353	0.127687	0.330052	22.7599	6424.77	15313.9	16607.1	-67.2401	0.0000000E+000	0.0000000E+000	0.0000000E+000	67.2401	0.0000000E+000	0.0000000E+000	0.0000000E+000	-67.2401	0.0000000E+000	0.0000000E+000	0.0000000E+000	-22.7599	0.0000000E+000	0.0000000E+000	0.0000000E+000	22.7599	2.38358	67.2401	-4.75016e-06	-1.22691e-05	-4.30587e-09	-1.22648e-05	0.260148	5519.93	1.93723	5517.99
2155.69	3.03259	1.34595	3.31786	-23.933	5.74682	0.260472	0.0840905	54.8536	9.02705	1	9	0.00453501	0.00136685	0	1.75794e-06	-0.000137797	7.94199e-06	0.55436	0.00581044	0.00581016	-5.62174e-05	-23.8914	3.32315	3.0384	1.34589	0.275485	0.122268	0.301399	23.933	9027.05	20339.1	22252.3	-66.067	0.0000000E+000	0.0000000E+000	0.0000000E+000	66.067	0.0000000E+000	0.0000000E+000	0.0000000E+000	-66.067	0.0000000E+000	0.0000000E+000	0.0000000E+000	-23.933	0.0000000E+000	0.0000000E+000	0.0000000E+000	23.933	2.25313	66.067	1.03129e-05	2.19032e-05	-1.15874e-08	2.19148e-05	0.26061	3097.52	1.63868	3099.16
1468.59	3.27047	1.55021	3.61927	-25.3611	6.44304	0.260409	-0.0219712	69.9082	12.8254	1	10	0.00462769	0.00127863	0	4.43259e-06	0.000167708	5.65439e-06	-134.316	0.00442224	-0.00308945	0.00316409	-25.4274	3.61784	3.26738	1.55338	0.249671	0.118345	0.276299	25.3611	12825.4	27057.5	29943.2	-64.6389	0.0000000E+000	0.0000000E+000	0.0000000E+000	64.6389	0.0000000E+000	0.0000000E+000	0.0000000E+000	-64.6389	0.0000000E+000	0.0000000E+000	0.0000000E+000	-25.3611	0.0000000E+000	0.0000000E+000	0.0000000E+000	25.3611	2.10969	64.6389	2.67465e-06	-5.7215e-06	-3.68474e-09	-5.71782e-06	0.260242	11852.3	7.63308	11844.7
1000.32	3.57858	1.85346	4.03008	-27.3811	6.89384	0.260411	-0.0219936	85.8414	18.1567	1	10	0.00459296	0.00113967	0	2.14425e-06	-0.000214174	9.01107e-06	77.9074	0.00790676	0.00165641	-0.00773131	-27.2726	4.02801	3.58024	1.84573	0.220335	0.114118	0.248134	27.3811	18156.7	35056.1	39479.1	-62.6189	0.0000000E+000	0.0000000E+000	0.0000000E+000	62.6189	0.0000000E+000	0.0000000E+000	0.0000000E+000	-62.6189	0.0000000E+000	0.0000000E+000	0.0000000E+000	-27.3811	0.0000000E+000	0.0000000E+000	0.0000000E+000	27.3811	1.93075	62.6189	-2.28835e-06	-5.72738e-06	4.71044e-09	-5.73209e-06	0.260626	11840.3	9.73801	11850.1
681.09	3.9281	2.24423	4.52399	-29.7406	7.3426	0.260408	-0.0216841	104.123	25.6236	1	10	0.00454984	0.00100571	0	-1.24774e-06	-0.000118703	8.70726e-06	-19.7174	0.0086578	0.00815017	0.00292098	-29.7215	4.53252	3.93625	2.24716	0.191928	0.109654	0.221044	29.7406	25623.6	44849.1	51652.8	-60.2594	0.0000000E+000	0.0000000E+000	0.0000000E+000	60.2594	0.0000000E+000	0.0000000E+000	0.0000000E+000	-60.2594	0.0000000E+000	0.0000000E+000	0.0000000E+000	-29.7406	0.0000000E+000	0.0000000E+000	0.0000000E+000	29.7406	1.75031	60.2594	-3.39199e-06	-5.64671e-06	2.57397e-09	-5.64928e-06	0.260527	12009.2	5.47421	12014.7
463.961	4.37652	2.78225	5.18602	-32.445	7.7953	0.260415	-0.0211993	123.294	35.4868	1	10	0.00452714	0.000872949	0	-3.95538e-06	-9.96091e-05	9.38256e-06	-134.132	0.0107481	-0.00748408	0.0077143	-32.5614	5.18386	4.36904	2.78996	0.162727	0.103449	0.192826	32.445	35486.8	55821.2	66146.1	-57.555	0.0000000E+000	0.0000000E+000	0.0000000E+000	57.555	0.0000000E+000	0.0000000E+000	0.0000000E+000	-57.555	0.0000000E+000	0.0000000E+000	0.0000000E+000	-32.445	0.0000000E+000	0.0000000E+000	0.0000000E+000	32.445	1.57301	57.555	-2.70764e-06	-5.52062e-06	2.11165e-09	-5.52273e-06	0.260515	12284.1	4.6987	12288.8
316.316	4.98616	3.46835	6.07381	-34.8223	8.24308	0.260401	-0.0222285	145.07	47.3042	1	10	0.0045046	0.000741642	0	-6.25973e-06	-0.000252362	5.16265e-06	80.1667	0.00696111	0.00118884	-0.00685884	-34.7628	6.07087	4.98734	3.46149	0.135158	0.0940157	0.164641	34.8223	47304.2	68005.2	82839.6	-55.1777	0.0000000E+000	0.0000000E+000	0.0000000E+000	55.1777	0.0000000E+000	0.0000000E+000	0.0000000E+000	-55.1777	0.0000000E+000	0.0000000E+000	0.0000000E+000	-34.8223	0.0000000E+000	0.0000000E+000	0.0000000E+000	34.8223	1.43762	55.1777	-2.30435e-06	-5.78832e-06	5.60962e-09	-5.79393e-06	0.260653	11714.7	11.3531	11726.1
215.345	5.87115	4.26138	7.25464	-35.9728	8.69356	0.260403	-0.0213149	173.434	59.8419	1	10	0.00450726	0.000621294	0	-8.04159e-06	-0.000118703	5.09465e-06	78.722	0.00820007	0.00160368	-0.00804172	-35.9139	7.25122	5.87275	4.25334	0.111556	0.0809691	0.137843	35.9728	59841.9	82447.5	101876	-54.0272	0.0000000E+000	0.0000000E+000	0.0000000E+000	54.0272	0.0000000E+000	0.0000000E+000	0.0000000E+000	-54.0272	0.0000000E+000	0.0000000E+000	0.0000000E+000	-35.9728	0.0000000E+000	0.0000000E+000	0.0000000E+000	35.9728	1.37776	54.0272	-1.78185e-06	-5.55048e-06	2.53015e-09	-5.55301e-06	0.260522	12217	5.56902	12222.5
146.737	7.05704	5.10368	8.70915	-35.8746	9.13947	0.260403	-0.0219749	212.518	72.9812	1	10	0.00450113	0.000516828	0	-1.04474e-05	-2.32329e-05	4.27504e-06	131.427	0.00827169	-0.00547309	-0.00620211	-35.8626	8.70108	7.05157	5.09748	0.0930402	0.0672871	0.114822	35.8746	72981.2	100914	124538	-54.1254	0.0000000E+000	0.0000000E+000	0.0000000E+000	54.1254	0.0000000E+000	0.0000000E+000	0.0000000E+000	-54.1254	0.0000000E+000	0.0000000E+000	0.0000000E+000	-35.8746	0.0000000E+000	0.0000000E+000	0.0000000E+000	35.8746	1.38274	54.1254	-2.40577e-06	-5.72234e-06	5.10541e-10	-5.72285e-06	0.260426	11850	1.05724	11851.1
100.032	8.54014	5.86697	10.3612	-34.4886	9.80479	0.260406	-0.0213709	271.186	86.9504	1	10	0.00485811	0.000468873	0	-1.38556e-05	-0.000443302	1.0439e-05	26.6514	0.0222641	0.0198986	-0.00998684	-34.3809	10.372	8.56004	5.85699	0.0795502	0.05465	0.0965135	34.4886	86950.4	126568	153557	-55.5114	0.0000000E+000	0.0000000E+000	0.0000000E+000	55.5114	0.0000000E+000	0.0000000E+000	0.0000000E+000	-55.5114	0.0000000E+000	0.0000000E+000	0.0000000E+000	-34.4886	0.0000000E+000	0.0000000E+000	0.0000000E+000	34.4886	1.45563	55.5114	-3.40821e-06	-5.5651e-06	9.47375e-09	-5.57457e-06	0.260849	12185.1	20.7433	12205.8
68.104	10.3686	6.40585	12.1878	-31.7082	10.2675	0.260406	-0.0195735	364.814	100.779	1	10	0.00485893	0.00039867	0	-1.58966e-05	-0.000366926	8.18742e-06	21.7331	0.0205368	0.019077	-0.00760443	-31.6307	12.2001	10.3877	6.39824	0.069802	0.0431245	0.082049	31.7082	100779	163123	191744	-58.2918	0.0000000E+000	0.0000000E+000	0.0000000E+000	58.2918	0.0000000E+000	0.0000000E+000	0.0000000E+000	-58.2918	0.0000000E+000	0.0000000E+000	0.0000000E+000	-31.7082	0.0000000E+000	0.0000000E+000	0.0000000E+000	31.7082	1.61862	58.2918	-2.04104e-06	-5.09707e-06	7.18204e-09	-5.10425e-06	0.260773	13304	18.746	13322.7
46.4415	12.3564	6.64797	14.0312	-28.2811	10.7036	0.260402	-0.024037	515.495	115.721	1	10	0.00485171	0.000345779	0	-1.87214e-05	-0.000233268	1.01346e-05	42.3075	0.0293095	0.0216756	-0.0197285	-28.1683	14.041	12.378	6.62824	0.0627624	0.0337674	0.0712696	28.2811	115721	215086	244240	-61.7189	0.0000000E+000	0.0000000E+000	0.0000000E+000	61.7189	0.0000000E+000	0.0000000E+000	0.0000000E+000	-61.7189	0.0000000E+000	0.0000000E+000	0.0000000E+000	-28.2811	0.0000000E+000	0.0000000E+000	0.0000000E+000	28.2811	1.85867	61.7189	-2.82475e-06	-6.25929e-06	5.60706e-09	-6.2649e-06	0.260635	10833.4	9.70452	10843.1
31.6296	14.2833	6.60261	15.7355	-24.8093	11.1335	0.26039	-0.0268859	762.099	134.177	1	10	0.00484533	0.000307922	0	-2.20514e-05	-2.32329e-05	6.06197e-06	47.783	0.0196867	0.0132283	-0.0145801	-24.7409	15.7414	14.2965	6.58803	0.0576853	0.0266657	0.0635504	24.8093	134177	290263	319776	-65.1907	0.0000000E+000	0.0000000E+000	0.0000000E+000	65.1907	0.0000000E+000	0.0000000E+000	0.0000000E+000	-65.1907	0.0000000E+000	0.0000000E+000	0.0000000E+000	-24.8093	0.0000000E+000	0.0000000E+000	0.0000000E+000	24.8093	2.16328	65.1907	-3.33007e-06	-7.00081e-06	6.24636e-10	-7.00144e-06	0.260413	9685.01	0.864129	9685.87
21.5517	16.2152	6.29997	17.3961	-21.2322	11.7855	0.260435	-0.014001	1172.19	153.735	1	11	0.00486062	0.000279409	0	-2.53503e-05	-6.1421e-05	8.15158e-06	-9.36769	0.0291744	0.0287853	0.0047487	-21.2125	17.4246	16.244	6.30472	0.0535822	0.0208179	0.0574842	21.2322	153735	395694	424509	-68.7678	0.0000000E+000	0.0000000E+000	0.0000000E+000	68.7678	0.0000000E+000	0.0000000E+000	0.0000000E+000	-68.7678	0.0000000E+000	0.0000000E+000	0.0000000E+000	-21.2322	0.0000000E+000	0.0000000E+000	0.0000000E+000	21.2322	2.57386	68.7678	-3.29885e-06	-3.64636e-06	8.59958e-10	-3.64722e-06	0.260496	18601.1	4.38689	18605.5
14.6852	17.8321	5.81816	18.7572	-18.0702	12.2461	0.260444	-0.0132131	1862.76	179.221	1	11	0.0048597	0.000259084	0	-2.6248e-05	7.22374e-05	7.13677e-06	97.1274	0.0275462	-0.00341782	-0.0273333	-17.994	18.7455	17.8287	5.79082	0.0506832	0.0165366	0.0533127	18.0702	179221	549295	577793	-71.9298	0.0000000E+000	0.0000000E+000	0.0000000E+000	71.9298	0.0000000E+000	0.0000000E+000	0.0000000E+000	-71.9298	0.0000000E+000	0.0000000E+000	0.0000000E+000	-18.0702	0.0000000E+000	0.0000000E+000	0.0000000E+000	18.0702	3.0649	71.9298	-8.97767e-07	-3.44128e-06	-9.5448e-10	-3.44032e-06	0.260372	19711.1	5.46711	19705.6
10.0032	19.2319	5.28678	19.9454	-15.3707	12.6968	0.26044	-0.0131411	3009.47	211.441	1	11	0.00485499	0.000243415	0	-2.71479e-05	-0.000137797	7.06799e-06	25.3113	0.0290368	0.0262492	-0.0124143	-15.3164	19.9674	19.2582	5.27436	0.0483436	0.0132895	0.050137	15.3707	211441	769167	797700	-74.6293	0.0000000E+000	0.0000000E+000	0.0000000E+000	74.6293	0.0000000E+000	0.0000000E+000	0.0000000E+000	-74.6293	0.0000000E+000	0.0000000E+000	0.0000000E+000	-15.3707	0.0000000E+000	0.0000000E+000	0.0000000E+000	15.3707	3.63774	74.6293	-8.99879e-07	-3.42247e-06	1.81081e-09	-3.42428e-06	0.260578	19818.7	10.486	19829.2
6.81719	20.4429	4.54361	20.9417	-12.5308	13.0365	0.260453	-0.0130953	5138.23	241.875	1	11	0.00483782	0.000231014	0	-2.80547e-05	5.31434e-05	6.15536e-05	-65.6269	0.26645	0.109958	0.242703	-13.1093	21.1028	20.5528	4.78632	0.0466141	0.0103604	0.0477515	12.5308	241875	1.08826e+06	1.11481e+06	-77.4692	0.0000000E+000	0.0000000E+000	0.0000000E+000	77.4692	0.0000000E+000	0.0000000E+000	0.0000000E+000	-77.4692	0.0000000E+000	0.0000000E+000	0.0000000E+000	-12.5308	0.0000000E+000	0.0000000E+000	0.0000000E+000	12.5308	4.49926	77.4692	-9.06767e-07	-3.4107e-06	-6.95926e-10	-3.41001e-06	0.2604	19889.1	4.05822	19885.1
4.63925	21.4533	4.2545	21.8711	-11.217	13.5204	0.260443	-0.0125788	8063.51	305.125	1	11	0.00483651	0.000221136	0	-3.22071e-05	-0.000309644	1.73445e-05	-110.732	0.0784334	-0.027765	0.0733546	-11.4198	21.8583	21.4256	4.32785	0.0448489	0.00889417	0.0457224	11.217	305125	1.5386e+06	1.56856e+06	-78.783	0.0000000E+000	0.0000000E+000	0.0000000E+000	78.783	0.0000000E+000	0.0000000E+000	0.0000000E+000	-78.783	0.0000000E+000	0.0000000E+000	0.0000000E+000	-11.217	0.0000000E+000	0.0000000E+000	0.0000000E+000	11.217	5.04251	78.783	-4.15244e-06	-3.27605e-06	3.89494e-09	-3.27995e-06	0.260752	20704.9	24.6163	20729.5
3.1604	22.4984	3.90275	22.8344	-9.84106	14.2135	0.260433	-0.0126178	12903.5	376.939	1	11	0.00485245	0.000212506	0	-3.46043e-05	0.000148614	5.39901e-06	-10.3885	0.0254064	0.0249899	0.00458134	-9.84167	22.8598	22.5234	3.90734	0.0431492	0.00748501	0.0437936	9.84106	376939	2.17296e+06	2.20541e+06	-80.1589	0.0000000E+000	0.0000000E+000	0.0000000E+000	80.1589	0.0000000E+000	0.0000000E+000	0.0000000E+000	-80.1589	0.0000000E+000	0.0000000E+000	0.0000000E+000	-9.84106	0.0000000E+000	0.0000000E+000	0.0000000E+000	9.84106	5.76475	80.1589	-2.39714e-06	-3.28607e-06	-1.87517e-09	-3.2842e-06	0.260284	20640.2	11.7781	20628.4
2.15577	23.3337	3.54418	23.6013	-8.63671	15.2171	0.260447	-0.0119036	20830.6	469.745	1	11	0.00485612	0.000205756	0	-3.44998e-05	5.31434e-05	6.34545e-06	8.71472	0.0308396	0.0304836	-0.00467266	-8.6144	23.6307	23.3642	3.53951	0.0418901	0.00636273	0.0423705	8.63671	469744	3.09264e+06	3.12811e+06	-81.3633	0.0000000E+000	0.0000000E+000	0.0000000E+000	81.3633	0.0000000E+000	0.0000000E+000	0.0000000E+000	-81.3633	0.0000000E+000	0.0000000E+000	0.0000000E+000	-8.63671	0.0000000E+000	0.0000000E+000	0.0000000E+000	8.63671	6.58366	81.3633	1.0445e-07	-3.10024e-06	-6.32595e-10	-3.09961e-06	0.260394	21879.7	4.4645	21875.3
1.46631	24.1185	3.20638	24.3307	-7.57264	16.6785	0.260445	-0.0111159	33851.6	587.893	1	11	0.00485747	0.000199643	0	-3.49921e-05	1.49552e-05	4.99001e-06	10.8124	0.0249946	0.0245509	-0.00468882	-7.55409	24.3545	24.1431	3.20169	0.0407418	0.00541632	0.0411003	7.57264	587893	4.42216e+06	4.46107e+06	-82.4274	0.0000000E+000	0.0000000E+000	0.0000000E+000	82.4274	0.0000000E+000	0.0000000E+000	0.0000000E+000	-82.4274	0.0000000E+000	0.0000000E+000	0.0000000E+000	-7.57264	0.0000000E+000	0.0000000E+000	0.0000000E+000	7.57264	7.52205	82.4274	-4.92278e-07	-2.89508e-06	-1.66241e-10	-2.89491e-06	0.26043	23430	1.34539	23428.6
1.00006	24.8418	2.99964	25.0222	-6.88513	19.853	0.260442	-0.010551	53054.6	762.448	1	12	0.00485781	0.00019414	0	-4.36898e-05	-0.000214174	3.25358e-06	-10.6954	0.0167589	0.0164678	0.00311025	-6.88768	25.0389	24.8582	3.00275	0.0396763	0.00479091	0.0399645	6.88513	762449	6.31427e+06	6.36014e+06	-83.1149	0.0000000E+000	0.0000000E+000	0.0000000E+000	83.1149	0.0000000E+000	0.0000000E+000	0.0000000E+000	-83.1149	0.0000000E+000	0.0000000E+000	0.0000000E+000	-6.88513	0.0000000E+000	0.0000000E+000	0.0000000E+000	6.88513	8.28158	83.1149	-8.69767e-06	-2.74794e-06	2.25975e-09	-2.7502e-06	0.260657	24684.1	20.2988	24704.3
0.681362	25.5205	2.91759	25.6867	-6.52193	22.965	0.26045	-0.0096708	80060.3	1032.88	1	12	0.00486556	0.000189419	0	-5.8553e-05	0.000205896	3.17205e-06	100.961	0.0167462	-0.00318418	-0.0164407	-6.4863	25.6817	25.5173	2.90115	0.0386786	0.00442187	0.0389306	6.52193	1.03288e+06	9.03469e+06	9.09354e+06	-83.4781	0.0000000E+000	0.0000000E+000	0.0000000E+000	83.4781	0.0000000E+000	0.0000000E+000	0.0000000E+000	-83.4781	0.0000000E+000	0.0000000E+000	0.0000000E+000	-6.52193	0.0000000E+000	0.0000000E+000	0.0000000E+000	6.52193	8.74712	83.4781	-1.48633e-05	-2.51876e-06	-1.99118e-09	-2.51677e-06	0.260244	26931.6	21.2905	26910.3
0.464091	26.1186	2.80178	26.2685	-6.12279	27.5215	0.260451	-0.00892043	122400	1392.46	1	12	0.00485785	0.000184931	0	-8.19353e-05	-0.00038602	1.07515e-06	20.8739	0.0058138	0.00543222	-0.00207153	-6.11704	26.2737	26.1241	2.79971	0.0378513	0.00406037	0.0380685	6.12279	1.39246e+06	1.29807e+07	1.30552e+07	-83.8772	0.0000000E+000	0.0000000E+000	0.0000000E+000	83.8772	0.0000000E+000	0.0000000E+000	0.0000000E+000	-83.8772	0.0000000E+000	0.0000000E+000	0.0000000E+000	-6.12279	0.0000000E+000	0.0000000E+000	0.0000000E+000	6.12279	9.32214	83.8772	-2.33823e-05	-2.32334e-06	3.44347e-09	-2.32678e-06	0.260837	29197.1	43.2737	29240.4
0.316193	26.8123	2.90485	26.9692	-6.18332	34.1959	0.260443	-0.00907632	173278	2010.27	1	12	0.00485838	0.000180145	0	-0.000110456	1.49552e-05	4.02917e-06	20.6078	0.0223662	0.0209351	-0.00787221	-6.16192	26.9892	26.8332	2.89698	0.0368636	0.00399381	0.0370793	6.18332	2.01027e+06	1.85552e+07	1.86638e+07	-83.8167	0.0000000E+000	0.0000000E+000	0.0000000E+000	83.8167	0.0000000E+000	0.0000000E+000	0.0000000E+000	-83.8167	0.0000000E+000	0.0000000E+000	0.0000000E+000	-6.18332	0.0000000E+000	0.0000000E+000	0.0000000E+000	6.18332	9.23018	83.8167	-2.85206e-05	-2.36387e-06	-1.35739e-10	-2.36373e-06	0.260428	28694.8	1.64772	28693.2
0.215268	27.5325	3.2318	27.7215	-6.69481	43.9894	0.260444	-0.00900322	228769	3109.22	1	12	0.00485399	0.000175098	0	-0.000137068	-8.05151e-05	2.98399e-06	-8.96857	0.0170418	0.0168335	0.0026567	-6.69621	27.7385	27.5493	3.23445	0.0358271	0.00420543	0.0360731	6.69481	3.10922e+06	2.64882e+07	2.66701e+07	-83.3052	0.0000000E+000	0.0000000E+000	0.0000000E+000	83.3052	0.0000000E+000	0.0000000E+000	0.0000000E+000	-83.3052	0.0000000E+000	0.0000000E+000	0.0000000E+000	-6.69481	0.0000000E+000	0.0000000E+000	0.0000000E+000	6.69481	8.51925	83.3052	-2.66119e-05	-2.34484e-06	7.24895e-10	-2.34556e-06	0.260525	28927.9	8.94292	28936.8
0.146929	28.3415	3.75704	28.5895	-7.55127	58.3277	0.260445	-0.0085864	288315	4979.05	1	12	0.00485584	0.000169847	0	-0.000152837	-0.000233268	1.44007e-06	-10.6543	0.00847864	0.00833247	0.00156756	-7.55219	28.5979	28.3498	3.7586	0.0346746	0.00459657	0.0349779	7.55127	4.97905e+06	3.75599e+07	3.78885e+07	-82.4487	0.0000000E+000	0.0000000E+000	0.0000000E+000	82.4487	0.0000000E+000	0.0000000E+000	0.0000000E+000	-82.4487	0.0000000E+000	0.0000000E+000	0.0000000E+000	-7.55127	0.0000000E+000	0.0000000E+000	0.0000000E+000	7.55127	7.54358	82.4487	-1.57688e-05	-2.23629e-06	2.00293e-09	-2.23829e-06	0.260679	30332.3	27.1671	30359.5
0.0999041	29.3573	4.41081	29.6868	-8.54454	79.4038	0.260452	-0.00754646	361176	7973.13	1	12	0.00485539	0.000163554	0	-0.00015359	0.000110426	2.87235e-06	12.6103	0.0175621	0.0171384	-0.00383413	-8.53232	29.7032	29.3744	4.40698	0.0333111	0.00500486	0.033685	8.54454	7.97313e+06	5.30672e+07	5.36628e+07	-81.4555	0.0000000E+000	0.0000000E+000	0.0000000E+000	81.4555	0.0000000E+000	0.0000000E+000	0.0000000E+000	-81.4555	0.0000000E+000	0.0000000E+000	0.0000000E+000	-8.54454	0.0000000E+000	0.0000000E+000	0.0000000E+000	8.54454	6.65576	81.4555	-7.53471e-07	-1.96549e-06	-8.33322e-10	-1.96466e-06	0.260342	34513.2	14.6328	34498.5
0.0680626	30.6325	5.32702	31.0922	-9.86514	110.33	0.260447	-0.00650735	438962	12885.2	1	12	0.00485387	0.000156112	0	-0.000151443	5.31434e-05	2.60184e-06	-36.3344	0.0166664	0.013426	0.00987483	-9.87883	31.1071	30.6459	5.3369	0.0316868	0.00551037	0.0321624	9.86514	1.28852e+07	7.40952e+07	7.52073e+07	-80.1349	0.0000000E+000	0.0000000E+000	0.0000000E+000	80.1349	0.0000000E+000	0.0000000E+000	0.0000000E+000	-80.1349	0.0000000E+000	0.0000000E+000	0.0000000E+000	-9.86514	0.0000000E+000	0.0000000E+000	0.0000000E+000	9.86514	5.75039	80.1349	2.14696e-06	-1.69482e-06	-3.45822e-10	-1.69447e-06	0.260394	40023.5	8.16667	40015.4
0.0464052	32.273	6.54019	32.929	-11.456	155.681	0.260449	-0.00464006	524400	20686.5	1	12	0.00485582	0.000147464	0	-0.000164898	-0.000156891	1.75176e-06	-1.2475	0.0118792	0.0118764	0.000258626	-11.4523	32.9407	32.2848	6.54045	0.0297634	0.00603162	0.0303684	11.456	2.06865e+07	1.02079e+08	1.04154e+08	-78.544	0.0000000E+000	0.0000000E+000	0.0000000E+000	78.544	0.0000000E+000	0.0000000E+000	0.0000000E+000	-78.544	0.0000000E+000	0.0000000E+000	0.0000000E+000	-11.456	0.0000000E+000	0.0000000E+000	0.0000000E+000	11.456	4.93456	78.544	-1.34546e-05	-1.2085e-06	7.27985e-10	-1.20923e-06	0.260606	56130.5	33.8124	56164.3
0.0315922	34.0711	8.22917	35.0508	-13.5786	222.287	0.260454	-0.00340294	612187	33744.4	1	12	0.0048567	0.000138562	0	-0.000247537	-6.1421e-05	3.32729e-06	-1.09234	0.024013	0.0240087	0.000457779	-13.5701	35.0742	34.0951	8.22963	0.0277326	0.00669825	0.0285301	13.5786	3.37444e+07	1.39711e+08	1.43728e+08	-76.4214	0.0000000E+000	0.0000000E+000	0.0000000E+000	76.4214	0.0000000E+000	0.0000000E+000	0.0000000E+000	-76.4214	0.0000000E+000	0.0000000E+000	0.0000000E+000	-13.5786	0.0000000E+000	0.0000000E+000	0.0000000E+000	13.5786	4.14028	76.4214	-8.26391e-05	-8.8631e-07	2.09012e-10	-8.86519e-07	0.260515	76537.8	18.0494	76555.9
0.0215268	35.9908	10.2869	37.432	-15.951	320.025	0.260452	-0.00301297	718717	54279.7	1	12	0.00485697	0.000129754	0	-0.000458638	-0.000118703	2.4067e-06	-1.76731	0.0185481	0.0185393	0.000572032	-15.944	37.45	36.0093	10.2874	0.0256865	0.0073417	0.0267151	15.951	5.42797e+07	1.89909e+08	1.97514e+08	-74.049	0.0000000E+000	0.0000000E+000	0.0000000E+000	74.049	0.0000000E+000	0.0000000E+000	0.0000000E+000	-74.049	0.0000000E+000	0.0000000E+000	0.0000000E+000	-15.951	0.0000000E+000	0.0000000E+000	0.0000000E+000	15.951	3.49871	74.049	-0.000211102	-7.84733e-07	3.57649e-10	-7.85091e-07	0.260571	86443.8	39.3975	86483.2
0.0146812	38.236	12.7542	40.3071	-18.4469	463.326	0.260448	-0.00340145	849975	85103.9	1	12	0.00485623	0.000120481	0	-0.000828963	-9.96091e-05	1.36231e-06	-12.6568	0.0113073	0.0110325	0.00247755	-18.4453	40.3184	38.247	12.7567	0.0235347	0.00785037	0.0248095	18.4469	8.51039e+07	2.55134e+08	2.68954e+08	-71.5531	0.0000000E+000	0.0000000E+000	0.0000000E+000	71.5531	0.0000000E+000	0.0000000E+000	0.0000000E+000	-71.5531	0.0000000E+000	0.0000000E+000	0.0000000E+000	-18.4469	0.0000000E+000	0.0000000E+000	0.0000000E+000	18.4469	2.99792	71.5531	-0.000370325	-8.85902e-07	3.38816e-10	-8.86241e-07	0.260548	76569.7	29.2843	76599
0.0100092	41.1305	16.1403	44.184	-21.4259	673.506	0.260448	-0.00391165	985167	131463	1	12	0.00485655	0.000109916	0	-0.00131127	3.40493e-05	2.12216e-06	-20.5734	0.019307	0.0180757	0.0067846	-21.4256	44.2033	41.1485	16.1471	0.0210685	0.00826766	0.0226326	21.4259	1.31463e+08	3.35009e+08	3.5988e+08	-68.5741	0.0000000E+000	0.0000000E+000	0.0000000E+000	68.5741	0.0000000E+000	0.0000000E+000	0.0000000E+000	-68.5741	0.0000000E+000	0.0000000E+000	0.0000000E+000	-21.4259	0.0000000E+000	0.0000000E+000	0.0000000E+000	21.4259	2.5483	68.5741	-0.000482306	-1.01878e-06	-1.33189e-10	-1.01865e-06	0.260414	66582.7	8.7046	66574