File: txt/18402_R288_UA691_SOC00_C02.mpt
EC-Lab ASCII FILE
Nb header lines : 65

Potentio Electrochemical Impedance Spectroscopy

Run on channel : 2 (SN 66139)
User :
CE vs. WE compliance from -10 V to 10 V
Electrode connection : standard
Potential control : Ewe
Ewe ctrl range : min = -10.00 V, max = 10.00 V
Safety Limits :
	Do not start on E overload
Acquisition started on : 10/14/2025 16:30:08.341
Technique started on : 10/14/2025 16:30:10.210
Loaded Setting File :  NONE
Saved on :
	File : 18402_R288_UA691_SOC00_C02.mpr
	Directory : C:\Users\Celltest\OneDrive - store-dot.com\Documents\EC-Lab\Data\Charmaine\
	Host : 169.254.61.224
Device : VMP-3e (SN .003165)
Address : USB
EC-LAB for windows v11.62 (software)
Internet server v27.00 (firmware)
Command interpretor v12.03 (firmware)
Electrode material :
Initial state :
Electrolyte :
Comments :
Electrode surface area : 0.001 cm²
Characteristic mass : 0.001 g
Equivalent Weight : 0.000 g/eq.
Density : 0.000 g/cm3
Volume (V) : 0.001 cm³
Record Ece
Cycle Definition : Charge/Discharge alternance
Mode                Single sine
E (V)               0.0000
vs.                 Eoc
tE (h:m:s)          0:00:0.0000
record              0
dI                  0.000
unit dI             mA
dt (s)              0.000
fi                  100.000
unit fi             kHz
ff                  10.000
unit ff             mHz
Nd                  6
Points              per decade
spacing             Logarithmic
Va (mV)             5.0
pw                  0.10
Na                  2
corr                0
E range min (V)     -10.000
E range max (V)     10.000
I Range             Auto
Bandwidth           5
nc cycles           0
goto Ns'            0
nr cycles           0
inc. cycle          0

freq/Hz	Re(Z)/Ohm	-Im(Z)/Ohm	|Z|/Ohm	Phase(Z)/deg	time/s	<Ewe>/V	<I>/mA	Cs/µF	Cp/µF	cycle number	I Range	|Ewe|/V	|I|/A	Ns	(Q-Qo)/mA.h	<Ece>/V	|Ece|/V	Phase(Zce)/deg	|Zce|/Ohm	Re(Zce)/Ohm	-Im(Zce)/Ohm	Phase(Zwe-ce)/deg	|Zwe-ce|/Ohm	Re(Zwe-ce)/Ohm	-Im(Zwe-ce)/Ohm	Re(Y)/Ohm-1	Im(Y)/Ohm-1	|Y|/Ohm-1	Phase(Y)/deg	Re(C)/nF	Im(C)/nF	|C|/nF	Phase(C)/deg	Re(M)	Im(M)	|M|	Phase(M)/deg	Re(Permittivity)	Im(Permittivity)	|Permittivity|	Phase(Permittivity)/deg	Re(Resistivity)/Ohm.cm	Im(Resistivity)/Ohm.cm	|Resistivity|/Ohm.cm	Phase(Resistivity)/deg	Re(Conductivity)/mS/cm	Im(Conductivity)/mS/cm	|Conductivity|/mS/cm	Phase(Conductivity)/deg	Tan(Delta)	Loss Angle(Delta)/deg	dq/mA.h	Pwe/W	Pce/W	Pwe-ce/W	<Ewe-Ece>/V	Rwe/Ohm	Rce/Ohm	Rwe-ce/Ohm		Ewe-Ece/V
100004	1.23232	0.384698	1.29097	-17.3369	1.86853	0.263732	0.0115113	4.13699	0.367358	1	9	0.00489891	0.00379475	0	-4.26949e-06	3.85242e-05	2.59495e-05	31.6126	0.00683826	0.00582355	-0.00358443	-17.1089	1.29547	1.23815	0.381113	0.739418	0.230826	0.77461	17.3369	367.358	1176.78	1232.78	-72.6631	0.0000000E+000	0.0000000E+000	0.0000000E+000	72.6631	0.0000000E+000	0.0000000E+000	0.0000000E+000	-72.6631	0.0000000E+000	0.0000000E+000	0.0000000E+000	-17.3369	0.0000000E+000	0.0000000E+000	0.0000000E+000	17.3369	3.20335	72.6631	-4.26949e-06	3.0359e-06	4.43463e-10	3.03546e-06	0.263694	22910.8	3.34664	22907.4
68132	1.33661	0.447332	1.40948	-18.5042	2.25356	0.263717	0.0175079	5.22202	0.525995	1	9	0.00547954	0.00388763	0	-1.52905e-06	0.000229433	1.74031e-05	9.17054	0.00447652	0.0044193	-0.00071344	-18.4199	1.41344	1.34103	0.446619	0.672802	0.225171	0.709482	18.5042	525.995	1571.65	1657.33	-71.4958	0.0000000E+000	0.0000000E+000	0.0000000E+000	71.4958	0.0000000E+000	0.0000000E+000	0.0000000E+000	-71.4958	0.0000000E+000	0.0000000E+000	0.0000000E+000	-18.5042	0.0000000E+000	0.0000000E+000	0.0000000E+000	18.5042	2.98796	71.4958	2.74044e-06	4.61712e-06	4.01688e-09	4.61311e-06	0.263488	15062.8	13.1045	15049.7
46420.4	1.45083	0.507251	1.53695	-19.2711	2.76055	0.263718	0.0135226	6.7591	0.736234	1	9	0.00506761	0.00329719	0	-1.91342e-06	-9.51117e-05	1.91228e-05	-4.82062	0.00579972	0.00577921	0.000487388	-19.2173	1.54257	1.45661	0.507739	0.614183	0.214736	0.65064	19.2711	736.234	2105.76	2230.76	-70.7289	0.0000000E+000	0.0000000E+000	0.0000000E+000	70.7289	0.0000000E+000	0.0000000E+000	0.0000000E+000	-70.7289	0.0000000E+000	0.0000000E+000	0.0000000E+000	-19.2711	0.0000000E+000	0.0000000E+000	0.0000000E+000	19.2711	2.86018	70.7289	-3.84375e-07	3.56614e-06	-1.28615e-09	3.56742e-06	0.263813	19502	7.03356	19509.1
31621.1	1.57508	0.565886	1.67365	-19.762	3.14353	0.263716	0.0130384	8.89434	1.01681	1	9	0.00537969	0.00321434	0	7.67483e-09	7.67059e-05	1.90317e-05	19.6188	0.00592088	0.00557716	-0.001988	-19.6338	1.67823	1.58066	0.563898	0.562306	0.202021	0.597495	19.762	1016.81	2830.19	3007.3	-70.238	0.0000000E+000	0.0000000E+000	0.0000000E+000	70.238	0.0000000E+000	0.0000000E+000	0.0000000E+000	-70.238	0.0000000E+000	0.0000000E+000	0.0000000E+000	-19.762	0.0000000E+000	0.0000000E+000	0.0000000E+000	19.762	2.7834	70.238	1.9211e-06	3.43842e-06	1.00012e-09	3.43742e-06	0.263639	20226.1	5.88309	20220.3
21544.7	1.71933	0.63171	1.83171	-20.1741	3.52652	0.263705	0.0124424	11.694	1.39086	1	9	0.00545795	0.0029797	0	4.77057e-06	0.000229433	1.25762e-05	1.54635	0.00422062	0.00421909	-0.000113896	-20.1254	1.83563	1.72355	0.631596	0.512444	0.18828	0.545938	20.1741	1390.86	3785.53	4032.95	-69.8259	0.0000000E+000	0.0000000E+000	0.0000000E+000	69.8259	0.0000000E+000	0.0000000E+000	0.0000000E+000	-69.8259	0.0000000E+000	0.0000000E+000	0.0000000E+000	-20.1741	0.0000000E+000	0.0000000E+000	0.0000000E+000	20.1741	2.72171	69.8259	4.76289e-06	3.28114e-06	2.8547e-09	3.27828e-06	0.263476	21194	18.4395	21175.6
14678.6	1.86354	0.694249	1.98866	-20.4325	3.90955	0.263701	0.0154966	15.6178	1.9034	1	9	0.00541553	0.00272321	0	1.19286e-06	0.00017216	4.13997e-06	110.058	0.00152026	-0.000521407	-0.00142805	-20.3992	1.98767	1.86302	0.692821	0.471214	0.175548	0.502852	20.4325	1903.4	5109.22	5452.25	-69.5675	0.0000000E+000	0.0000000E+000	0.0000000E+000	69.5675	0.0000000E+000	0.0000000E+000	0.0000000E+000	-69.5675	0.0000000E+000	0.0000000E+000	0.0000000E+000	-20.4325	0.0000000E+000	0.0000000E+000	0.0000000E+000	20.4325	2.68425	69.5675	-3.57771e-06	4.08647e-06	2.66789e-09	4.08381e-06	0.263529	17016.7	11.1095	17005.6
10002.2	2.0226	0.76861	2.16372	-20.8073	4.29456	0.263704	0.00998419	20.7022	2.61233	1	9	0.00540933	0.00250002	0	5.12944e-07	3.85242e-05	9.01977e-06	-84.9111	0.00360788	0.000320021	0.00359366	-20.8932	2.16529	2.02292	0.772204	0.432025	0.164174	0.462168	20.8073	2612.33	6874.36	7353.99	-69.1927	0.0000000E+000	0.0000000E+000	0.0000000E+000	69.1927	0.0000000E+000	0.0000000E+000	0.0000000E+000	-69.1927	0.0000000E+000	0.0000000E+000	0.0000000E+000	-20.8073	0.0000000E+000	0.0000000E+000	0.0000000E+000	20.8073	2.6315	69.1927	-6.79919e-07	2.63287e-06	3.84633e-10	2.63249e-06	0.263666	26412.2	3.85852	26408.3
6810.42	2.20088	0.863905	2.36436	-21.4314	4.67956	0.263711	0.00484424	27.0508	3.61148	1	9	0.00529959	0.00224145	0	7.08628e-06	-9.51117e-05	1.13243e-05	-82.4728	0.00505223	0.000661824	0.00500869	-21.5384	2.36681	2.20154	0.868914	0.393703	0.154539	0.422947	21.4314	3611.48	9200.58	9884	-68.5686	0.0000000E+000	0.0000000E+000	0.0000000E+000	68.5686	0.0000000E+000	0.0000000E+000	0.0000000E+000	-68.5686	0.0000000E+000	0.0000000E+000	0.0000000E+000	-21.4314	0.0000000E+000	0.0000000E+000	0.0000000E+000	21.4314	2.54759	68.5686	6.57333e-06	1.27748e-06	-4.60745e-10	1.27794e-06	0.263806	54437.9	19.634	54457.5
4646	2.38844	0.981564	2.58227	-22.341	5.07263	0.263704	0.00745144	34.8997	5.04263	1	9	0.0050603	0.00195964	0	9.13811e-06	0.000363069	9.04563e-06	-68.9943	0.00461597	0.00165465	0.00430922	-22.4153	2.58544	2.39009	0.985874	0.358188	0.147203	0.387257	22.341	5042.63	12270.2	13266	-67.659	0.0000000E+000	0.0000000E+000	0.0000000E+000	67.659	0.0000000E+000	0.0000000E+000	0.0000000E+000	-67.659	0.0000000E+000	0.0000000E+000	0.0000000E+000	-22.341	0.0000000E+000	0.0000000E+000	0.0000000E+000	22.341	2.4333	67.659	2.05184e-06	1.96497e-06	2.70538e-09	1.96227e-06	0.263341	35389.6	48.7246	35340.9
3163.08	2.60094	1.11633	2.83039	-23.2292	5.44563	0.263673	-0.00476522	45.0729	7.01152	1	9	0.00538846	0.00190379	0	7.03618e-06	3.42479e-07	7.38206e-06	67.1569	0.00387757	0.0015053	-0.00357346	-23.1507	2.83037	2.60245	1.11276	0.324667	0.139348	0.353308	23.2292	7011.52	16336.1	17777.2	-66.7708	0.0000000E+000	0.0000000E+000	0.0000000E+000	66.7708	0.0000000E+000	0.0000000E+000	0.0000000E+000	-66.7708	0.0000000E+000	0.0000000E+000	0.0000000E+000	-23.2292	0.0000000E+000	0.0000000E+000	0.0000000E+000	23.2292	2.3299	66.7708	-2.10193e-06	-1.25646e-06	-1.63199e-12	-1.25646e-06	0.263673	55332.8	0.0718707	55332.8
2155.69	2.83461	1.2795	3.11001	-24.2937	5.89678	0.263674	0.00324265	57.7023	9.76677	1	9	0.00539953	0.00173618	0	6.47643e-06	-0.000190566	1.01734e-05	28.4334	0.00585965	0.00515281	-0.00278999	-24.2079	3.11356	2.83977	1.27671	0.293069	0.132287	0.321542	24.2937	9766.77	21637.4	23739.5	-65.7063	0.0000000E+000	0.0000000E+000	0.0000000E+000	65.7063	0.0000000E+000	0.0000000E+000	0.0000000E+000	-65.7063	0.0000000E+000	0.0000000E+000	0.0000000E+000	-24.2937	0.0000000E+000	0.0000000E+000	0.0000000E+000	24.2937	2.21541	65.7063	-5.59752e-07	8.55003e-07	-6.1794e-10	8.55621e-07	0.263864	81314.2	58.7685	81373
1468.59	3.08897	1.50043	3.4341	-25.9076	6.59403	0.263689	-0.0135372	72.2277	13.7883	1	10	0.00541652	0.00157728	0	3.90145e-06	0.000229433	5.05407e-06	28.6823	0.00320431	0.00281112	-0.00153791	-25.864	3.43596	3.09178	1.49889	0.261932	0.12723	0.291197	25.9076	13788.2	28386.2	31557.8	-64.0924	0.0000000E+000	0.0000000E+000	0.0000000E+000	64.0924	0.0000000E+000	0.0000000E+000	0.0000000E+000	-64.0924	0.0000000E+000	0.0000000E+000	0.0000000E+000	-25.9076	0.0000000E+000	0.0000000E+000	0.0000000E+000	25.9076	2.05873	64.0924	-2.57497e-06	-3.5696e-06	-3.10587e-09	-3.5665e-06	0.26346	19478.9	16.9483	19461.9
1000.32	3.38714	1.78723	3.82974	-27.8185	7.04478	0.26369	-0.0141854	89.0225	19.3875	1	10	0.00532884	0.00139144	0	2.6533e-06	-0.000152384	6.95176e-06	-0.970689	0.0049961	0.00499538	8.46385e-05	-27.7848	3.8342	3.39214	1.78732	0.230937	0.121855	0.261114	27.8185	19387.6	36743	41544.3	-62.1815	0.0000000E+000	0.0000000E+000	0.0000000E+000	62.1815	0.0000000E+000	0.0000000E+000	0.0000000E+000	-62.1815	0.0000000E+000	0.0000000E+000	0.0000000E+000	-27.8185	0.0000000E+000	0.0000000E+000	0.0000000E+000	27.8185	1.89519	62.1815	-1.24815e-06	-3.74054e-06	2.16163e-09	-3.7427e-06	0.263842	18588.9	10.7424	18599.6
681.09	3.72818	2.16852	4.31298	-30.1847	7.49558	0.263686	-0.0141593	107.759	27.2411	1	10	0.00523548	0.00121389	0	1.32443e-06	-3.78392e-05	4.12114e-06	-113.199	0.00339499	-0.00133738	0.00312048	-30.2295	4.3134	3.72684	2.17164	0.20042	0.116576	0.231858	30.1847	27241.1	46833.6	54179.9	-59.8153	0.0000000E+000	0.0000000E+000	0.0000000E+000	59.8153	0.0000000E+000	0.0000000E+000	0.0000000E+000	-59.8153	0.0000000E+000	0.0000000E+000	0.0000000E+000	-30.1847	0.0000000E+000	0.0000000E+000	0.0000000E+000	30.1847	1.71923	59.8153	-1.32887e-06	-3.73362e-06	5.35777e-10	-3.73415e-06	0.263724	18622.8	2.67239	18625.5
463.961	4.16803	2.67139	4.95064	-32.6568	7.94731	0.26369	-0.0140997	128.411	37.3899	1	10	0.00516376	0.00104305	0	-5.68245e-07	-3.78392e-05	6.79083e-06	-4.75879	0.00651056	0.00648812	0.000540124	-32.6216	4.9564	4.17452	2.67193	0.170062	0.108997	0.201994	32.6568	37389.9	58337.4	69291.1	-57.3432	0.0000000E+000	0.0000000E+000	0.0000000E+000	57.3432	0.0000000E+000	0.0000000E+000	0.0000000E+000	-57.3432	0.0000000E+000	0.0000000E+000	0.0000000E+000	-32.6568	0.0000000E+000	0.0000000E+000	0.0000000E+000	32.6568	1.56025	57.3432	-1.89268e-06	-3.71795e-06	5.33521e-10	-3.71848e-06	0.263728	18701.8	2.68369	18704.5
316.316	4.76127	3.32676	5.80836	-34.9425	8.39509	0.263678	-0.0136974	151.244	49.6151	1	10	0.00511969	0.000881434	0	-1.8058e-06	0.000153069	3.83978e-06	80.7993	0.00435628	0.000696542	-0.00430024	-34.9038	5.80647	4.76197	3.32246	0.141129	0.0986085	0.172166	34.9425	49615.1	71009.2	86625.4	-55.0575	0.0000000E+000	0.0000000E+000	0.0000000E+000	55.0575	0.0000000E+000	0.0000000E+000	0.0000000E+000	-55.0575	0.0000000E+000	0.0000000E+000	0.0000000E+000	-34.9425	0.0000000E+000	0.0000000E+000	0.0000000E+000	34.9425	1.4312	55.0575	-1.23755e-06	-3.6117e-06	-2.09665e-09	-3.6096e-06	0.263525	19250.2	11.1751	19239.1
215.345	5.58378	4.0989	6.92673	-36.2814	8.84558	0.263686	-0.0136899	180.31	63.139	1	10	0.00508368	0.000733922	0	-2.665e-06	0.000229433	7.11697e-06	80.4056	0.00969718	0.00161626	-0.00956154	-36.2097	6.92238	5.58539	4.08934	0.116378	0.0854302	0.144368	36.2814	63139	86011.8	106698	-53.7186	0.0000000E+000	0.0000000E+000	0.0000000E+000	53.7186	0.0000000E+000	0.0000000E+000	0.0000000E+000	-53.7186	0.0000000E+000	0.0000000E+000	0.0000000E+000	-36.2814	0.0000000E+000	0.0000000E+000	0.0000000E+000	36.2814	1.36226	53.7186	-8.59204e-07	-3.60984e-06	-3.14092e-09	-3.6067e-06	0.263456	19261.3	16.7592	19244.5
146.737	6.70714	4.90832	8.31128	-36.1968	9.29149	0.263685	-0.0140885	220.977	77.0684	1	10	0.00506681	0.00060963	0	-4.3945e-06	9.57967e-05	7.17177e-06	-68.1192	0.0117641	0.00438422	0.0109167	-36.2397	8.32127	6.71153	4.91924	0.0970961	0.0710554	0.120318	36.1968	77068.4	105313	130500	-53.8032	0.0000000E+000	0.0000000E+000	0.0000000E+000	53.8032	0.0000000E+000	0.0000000E+000	0.0000000E+000	-53.8032	0.0000000E+000	0.0000000E+000	0.0000000E+000	-36.1968	0.0000000E+000	0.0000000E+000	0.0000000E+000	36.1968	1.36648	53.8031	-1.7295e-06	-3.71494e-06	-1.34964e-09	-3.71359e-06	0.263589	18716.3	6.79962	18709.5
100.032	8.15233	5.69272	9.94321	-34.9264	9.74286	0.263685	-0.012971	279.487	91.611	1	10	0.00505217	0.000508102	0	-6.08228e-06	0.000114888	8.36056e-06	26.7933	0.0164545	0.0146879	-0.00741725	-34.8429	9.95102	8.16701	5.6853	0.0824571	0.0575793	0.100571	34.9264	91611	131193	160013	-55.0736	0.0000000E+000	0.0000000E+000	0.0000000E+000	55.0736	0.0000000E+000	0.0000000E+000	0.0000000E+000	-55.0736	0.0000000E+000	0.0000000E+000	0.0000000E+000	-34.9264	0.0000000E+000	0.0000000E+000	0.0000000E+000	34.9264	1.43206	55.0736	-1.68778e-06	-3.42025e-06	-1.4902e-09	-3.41876e-06	0.26357	20328.8	8.85728	20320
68.104	9.87369	6.28096	11.7021	-32.4617	10.2054	0.263688	-0.0123787	372.067	107.187	1	10	0.00503468	0.000430235	0	-7.70702e-06	0.000191251	1.36749e-05	-1.87506	0.0317848	0.0317678	0.00104	-32.3827	11.7295	9.90546	6.282	0.0721022	0.0458664	0.0854544	32.4617	107187	168498	199702	-57.5383	0.0000000E+000	0.0000000E+000	0.0000000E+000	57.5383	0.0000000E+000	0.0000000E+000	0.0000000E+000	-57.5383	0.0000000E+000	0.0000000E+000	0.0000000E+000	-32.4617	0.0000000E+000	0.0000000E+000	0.0000000E+000	32.4617	1.572	57.5383	-1.62473e-06	-3.26411e-06	-2.36743e-09	-3.26174e-06	0.263497	21301.8	15.45	21286.4
46.4415	11.8182	6.56734	13.5204	-29.0608	10.6417	0.263688	-0.0137048	521.824	123.119	1	10	0.00503551	0.000372439	0	-9.42397e-06	0.000210342	1.5242e-05	121.678	0.0409247	-0.0214914	-0.0348275	-28.9758	13.4847	11.7967	6.53251	0.064651	0.0359263	0.0739625	29.0608	123119	221559	253469	-60.9392	0.0000000E+000	0.0000000E+000	0.0000000E+000	60.9392	0.0000000E+000	0.0000000E+000	0.0000000E+000	-60.9392	0.0000000E+000	0.0000000E+000	0.0000000E+000	-29.0608	0.0000000E+000	0.0000000E+000	0.0000000E+000	29.0608	1.79955	60.9392	-1.71695e-06	-3.6138e-06	-2.8827e-09	-3.61092e-06	0.263477	19240.5	15.348	19225.1
31.6296	13.7689	6.56172	15.2525	-25.4807	11.0716	0.263675	-0.0150981	766.848	141.927	1	10	0.00503775	0.000330291	0	-1.0486e-05	-1.87484e-05	6.21805e-06	10.2169	0.018826	0.0185275	-0.00333926	-25.4395	15.2678	13.7874	6.55838	0.0591859	0.0282058	0.0655632	25.4807	141927	297814	329904	-64.5193	0.0000000E+000	0.0000000E+000	0.0000000E+000	64.5193	0.0000000E+000	0.0000000E+000	0.0000000E+000	-64.5193	0.0000000E+000	0.0000000E+000	0.0000000E+000	-25.4807	0.0000000E+000	0.0000000E+000	0.0000000E+000	25.4807	2.09836	64.5193	-1.06201e-06	-3.98098e-06	2.83064e-10	-3.98126e-06	0.263693	17464.1	1.24177	17465.4
21.5517	15.5764	6.2848	16.7965	-21.9732	11.7245	0.263686	-0.0104145	1175.02	164.509	1	11	0.00502976	0.000299452	0	-1.15289e-05	0.000153069	6.61208e-06	-66.9779	0.0220806	0.00863541	0.020322	-22.0264	16.8122	15.5851	6.30512	0.0552113	0.0222767	0.0595361	21.9732	164509	407724	439661	-68.0268	0.0000000E+000	0.0000000E+000	0.0000000E+000	68.0268	0.0000000E+000	0.0000000E+000	0.0000000E+000	-68.0268	0.0000000E+000	0.0000000E+000	0.0000000E+000	-21.9732	0.0000000E+000	0.0000000E+000	0.0000000E+000	21.9732	2.47843	68.0268	-1.04292e-06	-2.74614e-06	-1.59413e-09	-2.74455e-06	0.263532	25319.2	14.6978	25304.5
14.6852	17.2465	5.8757	18.2199	-18.8135	12.1842	0.263689	-0.00973886	1844.52	191.827	1	11	0.0050346	0.000276324	0	-1.22876e-05	-3.78392e-05	4.5669e-06	-107.624	0.0165273	-0.005004	0.0157516	-18.8654	18.2202	17.2415	5.89145	0.0519528	0.0176998	0.0548851	18.8135	191827	563054	594834	-71.1865	0.0000000E+000	0.0000000E+000	0.0000000E+000	71.1865	0.0000000E+000	0.0000000E+000	0.0000000E+000	-71.1865	0.0000000E+000	0.0000000E+000	0.0000000E+000	-18.8135	0.0000000E+000	0.0000000E+000	0.0000000E+000	18.8135	2.93522	71.1865	-7.58695e-07	-2.56803e-06	3.68511e-10	-2.5684e-06	0.263727	27076	3.88538	27079.8
10.0032	18.6963	5.40302	19.4613	-16.1187	12.6348	0.263692	-0.00953677	2944.72	226.972	1	11	0.0050334	0.000258636	0	-1.55534e-05	-0.000114203	9.16065e-06	118.876	0.0354191	-0.0171042	-0.0310154	-16.0449	19.4363	18.6792	5.372	0.049364	0.0142656	0.0513839	16.1187	226972	785400	817539	-73.8813	0.0000000E+000	0.0000000E+000	0.0000000E+000	73.8813	0.0000000E+000	0.0000000E+000	0.0000000E+000	-73.8813	0.0000000E+000	0.0000000E+000	0.0000000E+000	-16.1187	0.0000000E+000	0.0000000E+000	0.0000000E+000	16.1187	3.46034	73.8813	-3.26578e-06	-2.51477e-06	1.08912e-09	-2.51586e-06	0.263807	27650.1	11.975	27662
6.81719	19.9764	4.95429	20.5816	-13.9287	12.9745	0.263695	-0.00941187	4712.31	273.047	1	11	0.00502667	0.000244231	0	-1.46832e-05	0.00017216	9.00962e-06	22.2843	0.0368897	0.0341346	-0.0139887	-13.8681	20.6114	20.0106	4.9403	0.0471584	0.0116956	0.0485871	13.9287	273047	1.10097e+06	1.13432e+06	-76.0713	0.0000000E+000	0.0000000E+000	0.0000000E+000	76.0713	0.0000000E+000	0.0000000E+000	0.0000000E+000	-76.0713	0.0000000E+000	0.0000000E+000	0.0000000E+000	-13.9287	0.0000000E+000	0.0000000E+000	0.0000000E+000	13.9287	4.03215	76.0713	8.70166e-07	-2.48186e-06	-1.62035e-09	-2.48024e-06	0.263523	28017.3	18.2918	27999
4.63925	21.0361	4.369	21.485	-11.733	13.4594	0.263701	-0.00901553	7852.19	324.7	1	11	0.00500075	0.000232755	0	-1.47769e-05	0.000229433	3.92218e-05	-27.9084	0.168511	0.148913	0.0788731	-11.8572	21.6469	21.185	4.44787	0.0455715	0.00946476	0.046544	11.733	324700	1.56338e+06	1.59675e+06	-78.267	0.0000000E+000	0.0000000E+000	0.0000000E+000	78.267	0.0000000E+000	0.0000000E+000	0.0000000E+000	-78.267	0.0000000E+000	0.0000000E+000	0.0000000E+000	-11.733	0.0000000E+000	0.0000000E+000	0.0000000E+000	11.733	4.81486	78.267	-9.37182e-08	-2.3774e-06	-2.06846e-09	-2.37534e-06	0.263472	29249.7	25.4486	29224.2
3.1604	22.1199	4.02821	22.4837	-10.3209	14.1525	0.263697	-0.0082715	12501.6	401.289	1	11	0.00503428	0.000223909	0	-1.89912e-05	0.000153069	3.10349e-06	19.1056	0.0138605	0.013097	-0.0045367	-10.3036	22.4957	22.133	4.02368	0.0437571	0.00796854	0.0444768	10.3209	401289	2.20357e+06	2.23981e+06	-79.6791	0.0000000E+000	0.0000000E+000	0.0000000E+000	79.6791	0.0000000E+000	0.0000000E+000	0.0000000E+000	-79.6791	0.0000000E+000	0.0000000E+000	0.0000000E+000	-10.3209	0.0000000E+000	0.0000000E+000	0.0000000E+000	10.3209	5.49123	79.6791	-4.21427e-06	-2.18117e-06	-1.26611e-09	-2.1799e-06	0.263544	31880.2	18.5056	31861.7
2.15577	23.0014	3.55535	23.2745	-8.78674	15.156	0.263697	-0.00811332	20765.2	484.55	1	11	0.00503012	0.000216121	0	-2.45138e-05	1.94333e-05	3.31405e-06	78.9734	0.0153342	0.00293289	-0.0150511	-8.74902	23.2751	23.0043	3.5403	0.0424612	0.00656328	0.0429654	8.78674	484551	3.1348e+06	3.17203e+06	-81.2133	0.0000000E+000	0.0000000E+000	0.0000000E+000	81.2133	0.0000000E+000	0.0000000E+000	0.0000000E+000	-81.2133	0.0000000E+000	0.0000000E+000	0.0000000E+000	-8.78674	0.0000000E+000	0.0000000E+000	0.0000000E+000	8.78674	6.46951	81.2133	-5.52264e-06	-2.13946e-06	-1.57669e-10	-2.1393e-06	0.263678	32501.8	2.39524	32499.4
1.46631	23.8086	3.25306	24.0298	-7.78036	16.6176	0.263696	-0.00830511	33365.9	611.484	1	11	0.00503334	0.000209462	0	-2.78924e-05	7.67059e-05	3.92669e-06	-23.1062	0.0187466	0.0172427	0.00735683	-7.79216	24.0479	23.8259	3.26042	0.0412318	0.00563366	0.0416149	7.78036	611484	4.47535e+06	4.51693e+06	-82.2196	0.0000000E+000	0.0000000E+000	0.0000000E+000	82.2196	0.0000000E+000	0.0000000E+000	0.0000000E+000	-82.2196	0.0000000E+000	0.0000000E+000	0.0000000E+000	-7.78036	0.0000000E+000	0.0000000E+000	0.0000000E+000	7.78036	7.31884	82.2196	-3.3786e-06	-2.19002e-06	-6.37051e-10	-2.18939e-06	0.263619	31751	9.23598	31741.8
1.00006	24.4875	2.98985	24.6693	-6.96121	19.793	0.263698	-0.00820076	53228.3	781.859	1	12	0.00503434	0.000204073	0	-2.93711e-05	-3.78392e-05	4.03804e-06	-17.2498	0.0197872	0.0188972	0.00586766	-6.96941	24.6888	24.5064	2.99572	0.0402374	0.00491288	0.0405362	6.96121	781859	6.40357e+06	6.45112e+06	-83.0388	0.0000000E+000	0.0000000E+000	0.0000000E+000	83.0388	0.0000000E+000	0.0000000E+000	0.0000000E+000	-83.0388	0.0000000E+000	0.0000000E+000	0.0000000E+000	-6.96121	0.0000000E+000	0.0000000E+000	0.0000000E+000	6.96121	8.19018	83.0388	-1.47866e-06	-2.16253e-06	3.1031e-10	-2.16284e-06	0.263736	32155.3	4.61411	32159.9
0.681362	25.1064	2.81337	25.2635	-6.39377	22.9052	0.263697	-0.00794237	83026.2	1029.63	1	12	0.00503162	0.000199165	0	-2.76986e-05	3.85242e-05	2.84412e-06	69.8424	0.0142802	0.00492101	-0.0134055	-6.36232	25.2669	25.1113	2.79996	0.0393365	0.00440797	0.0395827	6.39377	1.02963e+06	9.18836e+06	9.24587e+06	-83.6062	0.0000000E+000	0.0000000E+000	0.0000000E+000	83.6062	0.0000000E+000	0.0000000E+000	0.0000000E+000	-83.6062	0.0000000E+000	0.0000000E+000	0.0000000E+000	-6.39377	0.0000000E+000	0.0000000E+000	0.0000000E+000	6.39377	8.92396	83.6062	1.67249e-06	-2.09438e-06	-3.05973e-10	-2.09407e-06	0.263658	33201.2	4.85046	33196.4
0.464091	25.7394	2.77173	25.8882	-6.14618	27.4617	0.263694	-0.00695231	123727	1418.29	1	12	0.00503244	0.000194391	0	-3.04948e-05	-9.51117e-05	1.99347e-06	-35.2599	0.0102549	0.00837359	0.00592003	-6.15722	25.8972	25.7478	2.77765	0.0384056	0.00413569	0.0386276	6.14618	1.41829e+06	1.31708e+07	1.32469e+07	-83.8538	0.0000000E+000	0.0000000E+000	0.0000000E+000	83.8538	0.0000000E+000	0.0000000E+000	0.0000000E+000	-83.8538	0.0000000E+000	0.0000000E+000	0.0000000E+000	-6.14618	0.0000000E+000	0.0000000E+000	0.0000000E+000	6.14618	9.28639	83.8538	-2.79622e-06	-1.83328e-06	6.61246e-10	-1.83394e-06	0.263789	37929	13.6806	37942.6
0.316193	26.3767	2.91798	26.5376	-6.3128	34.1351	0.263697	-0.00573159	172499	2085.57	1	12	0.00503407	0.000189695	0	-4.52475e-05	0.000153069	2.68063e-06	-11.6232	0.0141312	0.0138414	0.00284708	-6.31562	26.5517	26.3906	2.92083	0.0374538	0.00414341	0.0376823	6.3128	2.08557e+06	1.88523e+07	1.89673e+07	-83.6872	0.0000000E+000	0.0000000E+000	0.0000000E+000	83.6872	0.0000000E+000	0.0000000E+000	0.0000000E+000	-83.6872	0.0000000E+000	0.0000000E+000	0.0000000E+000	-6.3128	0.0000000E+000	0.0000000E+000	0.0000000E+000	6.3128	9.03938	83.6872	-1.47526e-05	-1.5114e-06	-8.7733e-10	-1.51053e-06	0.263544	46007.7	26.7063	45981
0.215268	27.0831	3.21092	27.2728	-6.76131	43.9285	0.263696	-0.00513396	230257	3191.62	1	12	0.00503885	0.000184758	0	-7.89891e-05	0.000153069	1.46764e-06	-132.286	0.00794359	-0.00534472	0.00587661	-6.77489	27.2682	27.0777	3.21679	0.0364116	0.00431688	0.0366666	6.76131	3.19162e+06	2.69204e+07	2.71089e+07	-83.2387	0.0000000E+000	0.0000000E+000	0.0000000E+000	83.2387	0.0000000E+000	0.0000000E+000	0.0000000E+000	-83.2387	0.0000000E+000	0.0000000E+000	0.0000000E+000	-6.76131	0.0000000E+000	0.0000000E+000	0.0000000E+000	6.76131	8.43469	83.2387	-3.37416e-05	-1.3538e-06	-7.85851e-10	-1.35302e-06	0.263543	51363	29.815	51333.2
0.146929	27.9167	3.67189	28.1571	-7.49312	58.2668	0.263697	-0.00493196	295001	5016.8	1	12	0.00503594	0.000178851	0	-0.000133929	0.000114888	1.24653e-06	10.4158	0.00696965	0.0068548	-0.00126004	-7.48876	28.1638	27.9235	3.67063	0.0352117	0.00463141	0.035515	7.49312	5.01679e+06	3.81417e+07	3.84702e+07	-82.5069	0.0000000E+000	0.0000000E+000	0.0000000E+000	82.5069	0.0000000E+000	0.0000000E+000	0.0000000E+000	-82.5069	0.0000000E+000	0.0000000E+000	0.0000000E+000	-7.49312	0.0000000E+000	0.0000000E+000	0.0000000E+000	7.49312	7.60281	82.5069	-5.49402e-05	-1.30054e-06	-5.66621e-10	-1.29997e-06	0.263582	53466.9	23.2945	53443.6
0.0999041	29.0415	4.38878	29.3712	-8.59357	79.3431	0.263693	-0.00531598	362989	8104.68	1	12	0.0050368	0.000171487	0	-0.000202211	0.000191251	3.19984e-06	-5.93336	0.0186593	0.0185593	0.00192884	-8.59188	29.3899	29.0601	4.39071	0.0336647	0.00508744	0.0340469	8.59357	8.10468e+06	5.36304e+07	5.42394e+07	-81.4064	0.0000000E+000	0.0000000E+000	0.0000000E+000	81.4064	0.0000000E+000	0.0000000E+000	0.0000000E+000	-81.4064	0.0000000E+000	0.0000000E+000	0.0000000E+000	-8.59357	0.0000000E+000	0.0000000E+000	0.0000000E+000	8.59357	6.61722	81.4064	-6.82814e-05	-1.40179e-06	-1.01669e-09	-1.40077e-06	0.263502	49603.8	35.9766	49567.9
0.0680626	30.384	5.41778	30.8632	-10.1102	110.271	0.26369	-0.00561939	431608	13300	1	12	0.00503345	0.000163089	0	-0.0002681	-0.000228748	1.70107e-06	-9.55811	0.0104303	0.0102855	0.00173193	-10.11	30.8736	30.3942	5.41951	0.0318979	0.00568774	0.032401	10.1102	1.33e+07	7.45888e+07	7.57653e+07	-79.8898	0.0000000E+000	0.0000000E+000	0.0000000E+000	79.8898	0.0000000E+000	0.0000000E+000	0.0000000E+000	-79.8898	0.0000000E+000	0.0000000E+000	0.0000000E+000	-10.1102	0.0000000E+000	0.0000000E+000	0.0000000E+000	10.1102	5.60819	79.8898	-6.58895e-05	-1.48178e-06	1.28542e-09	-1.48306e-06	0.263919	46925.1	40.7069	46965.8
0.0464052	31.8851	6.73129	32.5879	-11.9207	155.621	0.263695	-0.00556341	509513	21739	1	12	0.00503618	0.000154541	0	-0.000298567	-0.000171475	1.74541e-06	9.35461	0.0112941	0.0111439	-0.00183579	-11.9135	32.5984	31.8963	6.72945	0.0300245	0.00633849	0.0306862	11.9207	2.1739e+07	1.02974e+08	1.05244e+08	-78.0793	0.0000000E+000	0.0000000E+000	0.0000000E+000	78.0793	0.0000000E+000	0.0000000E+000	0.0000000E+000	-78.0793	0.0000000E+000	0.0000000E+000	0.0000000E+000	-11.9207	0.0000000E+000	0.0000000E+000	0.0000000E+000	11.9207	4.73685	78.0793	-3.04668e-05	-1.46704e-06	9.53987e-10	-1.468e-06	0.263866	47398	30.8219	47428.8
0.0315922	33.5982	8.26931	34.6008	-13.827	222.227	0.263688	-0.00507592	609216	34796.6	1	12	0.00503314	0.000145463	0	-0.000274939	0.000343978	3.09472e-06	13.9936	0.0212749	0.0206436	-0.00514456	-13.8106	34.6197	33.6188	8.26417	0.0280635	0.00690711	0.028901	13.827	3.47966e+07	1.41378e+08	1.45597e+08	-76.173	0.0000000E+000	0.0000000E+000	0.0000000E+000	76.173	0.0000000E+000	0.0000000E+000	0.0000000E+000	-76.173	0.0000000E+000	0.0000000E+000	0.0000000E+000	-13.827	0.0000000E+000	0.0000000E+000	0.0000000E+000	13.827	4.06299	76.173	2.36279e-05	-1.33846e-06	-1.746e-09	-1.33671e-06	0.263344	51948.8	67.7666	51881.1
0.0215268	35.718	10.1748	37.139	-15.9003	319.965	0.26369	-0.00397152	726634	54538.9	1	12	0.00503554	0.000135586	0	-0.000212504	0.000229433	2.36043e-06	60.5481	0.017409	0.00855989	-0.0151592	-15.8742	37.143	35.7266	10.1596	0.0258957	0.00737676	0.0269259	15.9003	5.45389e+07	1.91456e+08	1.99072e+08	-74.0997	0.0000000E+000	0.0000000E+000	0.0000000E+000	74.0997	0.0000000E+000	0.0000000E+000	0.0000000E+000	-74.0997	0.0000000E+000	0.0000000E+000	0.0000000E+000	-15.9003	0.0000000E+000	0.0000000E+000	0.0000000E+000	15.9003	3.51045	74.0997	6.24347e-05	-1.04725e-06	-9.11196e-10	-1.04634e-06	0.26346	66395.1	57.7695	66337.4
0.0146812	38.1303	12.8727	40.2446	-18.6546	463.268	0.263686	-0.00314645	842148	86162	1	12	0.00503498	0.00012511	0	-0.000195661	-7.60209e-05	1.7619e-06	-9.97038	0.0140829	0.0138702	0.00243829	-18.6516	40.2585	38.1441	12.8752	0.0235427	0.00794798	0.0248481	18.6546	8.6162e+07	2.5522e+08	2.69372e+08	-71.3454	0.0000000E+000	0.0000000E+000	0.0000000E+000	71.3454	0.0000000E+000	0.0000000E+000	0.0000000E+000	-71.3454	0.0000000E+000	0.0000000E+000	0.0000000E+000	-18.6546	0.0000000E+000	0.0000000E+000	0.0000000E+000	18.6546	2.9621	71.3454	1.6843e-05	-8.29675e-07	2.39196e-10	-8.29914e-07	0.263762	83804.4	24.1609	83828.5
0.0100092	40.7027	16.5756	43.9484	-22.1579	673.45	0.263685	-0.00300601	959298	136460	1	12	0.00503342	0.00011453	0	-0.000390084	-0.000114203	2.35015e-06	-10.1407	0.0205199	0.0201994	0.00361287	-22.1523	43.9685	40.7229	16.5792	0.0210735	0.00858188	0.022754	22.1579	1.3646e+08	3.35089e+08	3.61809e+08	-67.8421	0.0000000E+000	0.0000000E+000	0.0000000E+000	67.8421	0.0000000E+000	0.0000000E+000	0.0000000E+000	-67.8421	0.0000000E+000	0.0000000E+000	0.0000000E+000	-22.1579	0.0000000E+000	0.0000000E+000	0.0000000E+000	22.1579	2.45558	67.8421	-0.000194423	-7.92639e-07	3.43294e-10	-7.92982e-07	0.263799	87719.3	37.9914	87757.3