File: txt/18404_R288_UA691_SOC00_C04.mpt
EC-Lab ASCII FILE
Nb header lines : 65

Potentio Electrochemical Impedance Spectroscopy

Run on channel : 4 (SN 66756)
User :
CE vs. WE compliance from -10 V to 10 V
Electrode connection : standard
Potential control : Ewe
Ewe ctrl range : min = -10.00 V, max = 10.00 V
Safety Limits :
	Do not start on E overload
Acquisition started on : 10/14/2025 16:30:35.389
Technique started on : 10/14/2025 16:30:37.300
Loaded Setting File :  NONE
Saved on :
	File : 18404_R288_UA691_SOC00_C04.mpr
	Directory : C:\Users\Celltest\OneDrive - store-dot.com\Documents\EC-Lab\Data\Charmaine\
	Host : 169.254.61.224
Device : VMP-3e (SN .003165)
Address : USB
EC-LAB for windows v11.62 (software)
Internet server v27.00 (firmware)
Command interpretor v12.03 (firmware)
Electrode material :
Initial state :
Electrolyte :
Comments :
Electrode surface area : 0.001 cm²
Characteristic mass : 0.001 g
Equivalent Weight : 0.000 g/eq.
Density : 0.000 g/cm3
Volume (V) : 0.001 cm³
Record Ece
Cycle Definition : Charge/Discharge alternance
Mode                Single sine
E (V)               0.0000
vs.                 Eoc
tE (h:m:s)          0:00:0.0000
record              0
dI                  0.000
unit dI             mA
dt (s)              0.000
fi                  100.000
unit fi             kHz
ff                  10.000
unit ff             mHz
Nd                  6
Points              per decade
spacing             Logarithmic
Va (mV)             5.0
pw                  0.10
Na                  2
corr                0
E range min (V)     -10.000
E range max (V)     10.000
I Range             Auto
Bandwidth           5
nc cycles           0
goto Ns'            0
nr cycles           0
inc. cycle          0

freq/Hz	Re(Z)/Ohm	-Im(Z)/Ohm	|Z|/Ohm	Phase(Z)/deg	time/s	<Ewe>/V	<I>/mA	Cs/µF	Cp/µF	cycle number	I Range	|Ewe|/V	|I|/A	Ns	(Q-Qo)/mA.h	<Ece>/V	|Ece|/V	Phase(Zce)/deg	|Zce|/Ohm	Re(Zce)/Ohm	-Im(Zce)/Ohm	Phase(Zwe-ce)/deg	|Zwe-ce|/Ohm	Re(Zwe-ce)/Ohm	-Im(Zwe-ce)/Ohm	Re(Y)/Ohm-1	Im(Y)/Ohm-1	|Y|/Ohm-1	Phase(Y)/deg	Re(C)/nF	Im(C)/nF	|C|/nF	Phase(C)/deg	Re(M)	Im(M)	|M|	Phase(M)/deg	Re(Permittivity)	Im(Permittivity)	|Permittivity|	Phase(Permittivity)/deg	Re(Resistivity)/Ohm.cm	Im(Resistivity)/Ohm.cm	|Resistivity|/Ohm.cm	Phase(Resistivity)/deg	Re(Conductivity)/mS/cm	Im(Conductivity)/mS/cm	|Conductivity|/mS/cm	Phase(Conductivity)/deg	Tan(Delta)	Loss Angle(Delta)/deg	dq/mA.h	Pwe/W	Pce/W	Pwe-ce/W	<Ewe-Ece>/V	Rwe/Ohm	Rce/Ohm	Rwe-ce/Ohm		Ewe-Ece/V
100004	1.27813	0.416298	1.34422	-18.0409	1.91055	0.26088	-0.0232588	3.82296	0.366664	1	9	0.00460729	0.00342748	0	-8.59386e-06	3.60827e-06	4.04796e-05	91.5579	0.0118103	-0.000321089	-0.011806	-17.5652	1.34031	1.27781	0.404492	0.707351	0.23039	0.743926	18.0409	366.663	1125.74	1183.95	-71.9592	0.0000000E+000	0.0000000E+000	0.0000000E+000	71.9592	0.0000000E+000	0.0000000E+000	0.0000000E+000	-71.9592	0.0000000E+000	0.0000000E+000	0.0000000E+000	-18.0409	0.0000000E+000	0.0000000E+000	0.0000000E+000	18.0409	3.07023	71.9592	-8.59386e-06	-6.06775e-06	-8.39241e-11	-6.06766e-06	0.260876	11216.4	0.155136	11216.2
68132	1.39525	0.473639	1.47345	-18.7505	2.41754	0.260857	-0.0263918	4.93198	0.509616	1	9	0.00506131	0.00343499	0	-1.3317e-05	-0.000206601	2.33423e-05	76.2398	0.00679544	0.00161636	-0.00660041	-18.4872	1.47288	1.39687	0.467038	0.642658	0.218159	0.678677	18.7505	509.616	1501.23	1585.38	-71.2495	0.0000000E+000	0.0000000E+000	0.0000000E+000	71.2495	0.0000000E+000	0.0000000E+000	0.0000000E+000	-71.2495	0.0000000E+000	0.0000000E+000	0.0000000E+000	-18.7505	0.0000000E+000	0.0000000E+000	0.0000000E+000	18.7505	2.94582	71.2495	-4.72317e-06	-6.88448e-06	5.45257e-09	-6.88993e-06	0.261064	9884.03	7.82824	9891.86
46420.4	1.5175	0.52503	1.60576	-19.0847	2.92455	0.260864	-0.0168437	6.53022	0.698124	1	9	0.00505417	0.00314752	0	-1.72351e-05	0.000137378	1.02273e-05	49.092	0.00324933	0.00212781	-0.00245572	-18.9772	1.60697	1.51963	0.522574	0.588528	0.20362	0.622757	19.0847	698.124	2017.8	2135.16	-70.9153	0.0000000E+000	0.0000000E+000	0.0000000E+000	70.9153	0.0000000E+000	0.0000000E+000	0.0000000E+000	-70.9153	0.0000000E+000	0.0000000E+000	0.0000000E+000	-19.0847	0.0000000E+000	0.0000000E+000	0.0000000E+000	19.0847	2.89032	70.9153	-3.91801e-06	-4.39391e-06	-2.31395e-09	-4.3916e-06	0.260727	15487.4	8.15606	15479.2
31621.1	1.65153	0.581501	1.75091	-19.3971	3.30953	0.260861	-0.0284431	8.6555	0.954695	1	9	0.0054913	0.00313625	0	-1.57755e-05	-0.000244821	1.04242e-05	14.4226	0.00332378	0.00321903	-0.000827861	-19.3367	1.75367	1.65475	0.580673	0.538713	0.18968	0.571131	19.3971	954.695	2711.44	2874.61	-70.6029	0.0000000E+000	0.0000000E+000	0.0000000E+000	70.6029	0.0000000E+000	0.0000000E+000	0.0000000E+000	-70.6029	0.0000000E+000	0.0000000E+000	0.0000000E+000	-19.3971	0.0000000E+000	0.0000000E+000	0.0000000E+000	19.3971	2.84011	70.6029	1.45953e-06	-7.41972e-06	6.96348e-09	-7.42668e-06	0.261106	9171.33	8.60739	9179.94
21544.7	1.78874	0.642065	1.90049	-19.7455	3.69256	0.260859	-0.0256085	11.5054	1.31319	1	9	0.00532343	0.00280109	0	-1.09487e-05	-0.000130161	4.87373e-06	0.398518	0.00173994	0.0017399	-1.2102e-05	-19.7274	1.90212	1.79048	0.642053	0.495243	0.177766	0.526181	19.7455	1313.2	3658.46	3887	-70.2545	0.0000000E+000	0.0000000E+000	0.0000000E+000	70.2545	0.0000000E+000	0.0000000E+000	0.0000000E+000	-70.2545	0.0000000E+000	0.0000000E+000	0.0000000E+000	-19.7455	0.0000000E+000	0.0000000E+000	0.0000000E+000	19.7455	2.78592	70.2545	4.82684e-06	-6.68023e-06	3.33324e-09	-6.68356e-06	0.26099	10186.4	5.08274	10191.5
14678.6	1.93671	0.69991	2.0593	-19.8694	4.07552	0.260841	-0.0307556	15.4915	1.78953	1	9	0.00511935	0.00248597	0	-1.14828e-05	-0.000416811	5.83427e-06	-28.1135	0.00234688	0.00206999	0.0011059	-19.8788	2.06162	1.93878	0.701016	0.456694	0.165045	0.485602	19.8694	1789.53	4951.77	5265.21	-70.1306	0.0000000E+000	0.0000000E+000	0.0000000E+000	70.1306	0.0000000E+000	0.0000000E+000	0.0000000E+000	-70.1306	0.0000000E+000	0.0000000E+000	0.0000000E+000	-19.8694	0.0000000E+000	0.0000000E+000	0.0000000E+000	19.8694	2.76708	70.1306	-5.34141e-07	-8.02233e-06	1.28193e-08	-8.03515e-06	0.261258	8481.11	13.5524	8494.66
10002.2	2.10439	0.782343	2.24511	-20.3935	4.33456	0.260853	-0.024788	20.3388	2.46971	1	9	0.00528862	0.00235562	0	-1.35526e-05	0.000194708	8.06302e-06	65.5332	0.00342289	0.00141764	-0.00311552	-20.3064	2.24535	2.10581	0.779228	0.417495	0.155211	0.445413	20.3935	2469.71	6643.16	7087.39	-69.6065	0.0000000E+000	0.0000000E+000	0.0000000E+000	69.6065	0.0000000E+000	0.0000000E+000	0.0000000E+000	-69.6065	0.0000000E+000	0.0000000E+000	0.0000000E+000	-20.3935	0.0000000E+000	0.0000000E+000	0.0000000E+000	20.3935	2.68985	69.6065	-2.06981e-06	-6.46603e-06	-4.82642e-09	-6.4612e-06	0.260658	10523.4	7.85492	10515.5
6810.42	2.27914	0.875872	2.44165	-21.0217	4.59354	0.260848	-0.0231842	26.6812	3.43338	1	9	0.00522489	0.00213991	0	-1.55627e-05	-0.000130161	3.69474e-05	39.9123	0.0172659	0.0132434	-0.011078	-20.6688	2.45008	2.29238	0.864794	0.382301	0.146918	0.40956	21.0217	3433.38	8934.12	9571.14	-68.9783	0.0000000E+000	0.0000000E+000	0.0000000E+000	68.9783	0.0000000E+000	0.0000000E+000	0.0000000E+000	-68.9783	0.0000000E+000	0.0000000E+000	0.0000000E+000	-21.0217	0.0000000E+000	0.0000000E+000	0.0000000E+000	21.0217	2.60214	68.9783	-2.01008e-06	-6.04757e-06	3.01769e-09	-6.05058e-06	0.260978	11251.1	5.61422	11256.7
4646	2.46745	0.972508	2.65219	-21.5111	4.85862	0.2608	-0.040341	35.2247	4.73615	1	9	0.00511507	0.00192862	0	-1.99141e-05	-0.000130161	5.53709e-06	-11.4072	0.00287101	0.0028143	0.000567829	-21.5002	2.65501	2.47027	0.973076	0.350785	0.138256	0.377047	21.5111	4736.15	12016.6	12916.3	-68.4889	0.0000000E+000	0.0000000E+000	0.0000000E+000	68.4889	0.0000000E+000	0.0000000E+000	0.0000000E+000	-68.4889	0.0000000E+000	0.0000000E+000	0.0000000E+000	-21.5111	0.0000000E+000	0.0000000E+000	0.0000000E+000	21.5111	2.53721	68.4889	-4.35137e-06	-1.05209e-05	5.25084e-09	-1.05262e-05	0.26093	6464.89	3.22653	6468.12
3163.08	2.67101	1.10763	2.89157	-22.5231	5.23267	0.2607	-0.0680529	45.427	6.66561	1	9	0.00503079	0.00173982	0	-2.53245e-05	2.27182e-05	6.333e-06	-95.081	0.00364004	-0.000322375	0.00362574	-22.5919	2.89266	2.67069	1.11126	0.319455	0.132474	0.345833	22.5231	6665.61	16073.8	17401.1	-67.4769	0.0000000E+000	0.0000000E+000	0.0000000E+000	67.4769	0.0000000E+000	0.0000000E+000	0.0000000E+000	-67.4769	0.0000000E+000	0.0000000E+000	0.0000000E+000	-22.5231	0.0000000E+000	0.0000000E+000	0.0000000E+000	22.5231	2.41146	67.4769	-5.41042e-06	-1.77414e-05	-1.54604e-09	-1.77399e-05	0.260678	3830.85	0.333832	3830.51
2155.69	2.92077	1.27799	3.18812	-23.6319	5.68383	0.260749	-0.0265037	57.7705	9.28306	1	9	0.0049845	0.00156346	0	-3.04637e-05	-0.000168381	1.14562e-05	-81.0102	0.00732745	0.00114498	0.00723744	-23.7427	3.19208	2.92191	1.28523	0.28736	0.125735	0.313664	23.6319	9283.06	21215.8	23157.9	-66.3681	0.0000000E+000	0.0000000E+000	0.0000000E+000	66.3681	0.0000000E+000	0.0000000E+000	0.0000000E+000	-66.3681	0.0000000E+000	0.0000000E+000	0.0000000E+000	-23.6319	0.0000000E+000	0.0000000E+000	0.0000000E+000	23.6319	2.28544	66.3681	-5.13919e-06	-6.91082e-06	4.46273e-09	-6.91528e-06	0.260917	9838.2	6.35312	9844.56
1468.59	3.18624	1.50968	3.5258	-25.3522	6.38103	0.260776	-0.023051	71.7851	13.161	1	10	0.00506625	0.00143691	0	-3.42508e-05	9.9158e-05	4.68287e-06	-86.9362	0.00325899	0.000174188	0.00325434	-25.3988	3.52735	3.18641	1.51294	0.256309	0.121442	0.283624	25.3522	13161	27776.9	30737.1	-64.6478	0.0000000E+000	0.0000000E+000	0.0000000E+000	64.6478	0.0000000E+000	0.0000000E+000	0.0000000E+000	-64.6478	0.0000000E+000	0.0000000E+000	0.0000000E+000	-25.3522	0.0000000E+000	0.0000000E+000	0.0000000E+000	25.3522	2.11054	64.6478	-3.78706e-06	-6.01114e-06	-2.28569e-09	-6.00886e-06	0.260677	11313	4.30168	11308.7
1000.32	3.4806	1.78928	3.91358	-27.2065	6.83179	0.260762	-0.0226668	88.9206	18.5871	1	10	0.0050047	0.00127881	0	-3.80355e-05	-5.37216e-05	4.2213e-06	-64.1389	0.00330097	0.00143985	0.00297039	-27.2355	3.91621	3.48203	1.79225	0.227251	0.116824	0.255521	27.2065	18587.1	36156.6	40654.4	-62.7935	0.0000000E+000	0.0000000E+000	0.0000000E+000	62.7935	0.0000000E+000	0.0000000E+000	0.0000000E+000	-62.7935	0.0000000E+000	0.0000000E+000	0.0000000E+000	-27.2065	0.0000000E+000	0.0000000E+000	0.0000000E+000	27.2065	1.94525	62.7935	-3.78479e-06	-5.91064e-06	1.2177e-09	-5.91185e-06	0.260816	11504.1	2.37006	11506.5
681.09	3.83811	2.17319	4.41065	-29.5191	7.28259	0.260776	-0.02254	107.527	26.104	1	10	0.00496463	0.0011256	0	-4.01722e-05	-7.28316e-05	9.3264e-06	-91.0135	0.00828571	-0.000146562	0.00828442	-29.6136	4.41461	3.83797	2.18148	0.197293	0.11171	0.226724	29.5191	26104	46102.8	52980.1	-60.4809	0.0000000E+000	0.0000000E+000	0.0000000E+000	60.4809	0.0000000E+000	0.0000000E+000	0.0000000E+000	-60.4809	0.0000000E+000	0.0000000E+000	0.0000000E+000	-29.5191	0.0000000E+000	0.0000000E+000	0.0000000E+000	29.5191	1.76612	60.4809	-2.1367e-06	-5.87787e-06	1.64162e-09	-5.87951e-06	0.260848	11569.5	3.23122	11572.7
463.961	4.28287	2.67079	5.04738	-31.9476	7.73432	0.260772	-0.0216932	128.44	35.9622	1	10	0.00492308	0.000975372	0	-4.30972e-05	-0.000359481	6.51994e-06	-62.1359	0.00668456	0.00312421	0.00590955	-31.9858	5.05316	4.28599	2.6767	0.168113	0.104835	0.198122	31.9476	35962.2	57668.8	67963	-58.0524	0.0000000E+000	0.0000000E+000	0.0000000E+000	58.0524	0.0000000E+000	0.0000000E+000	0.0000000E+000	-58.0524	0.0000000E+000	0.0000000E+000	0.0000000E+000	-31.9476	0.0000000E+000	0.0000000E+000	0.0000000E+000	31.9476	1.60359	58.0524	-2.92499e-06	-5.65699e-06	7.79829e-09	-5.66479e-06	0.261132	12020.9	16.5711	12037.5
316.316	4.89467	3.30788	5.90761	-34.0514	8.18201	0.260777	-0.0227302	152.107	47.6898	1	10	0.00490873	0.000830917	0	-4.5468e-05	-5.37216e-05	7.98342e-06	14.6004	0.00960797	0.0092977	-0.00242195	-33.9815	5.91396	4.90396	3.30546	0.140249	0.0947821	0.169273	34.0514	47689.8	70566.6	85170.2	-55.9486	0.0000000E+000	0.0000000E+000	0.0000000E+000	55.9486	0.0000000E+000	0.0000000E+000	0.0000000E+000	-55.9486	0.0000000E+000	0.0000000E+000	0.0000000E+000	-34.0514	0.0000000E+000	0.0000000E+000	0.0000000E+000	34.0514	1.4797	55.9486	-2.37078e-06	-5.92751e-06	1.2211e-09	-5.92873e-06	0.26083	11472.7	2.36345	11475.1
215.345	5.74905	4.02057	7.01545	-34.9668	8.63259	0.260781	-0.0214284	183.823	60.3758	1	10	0.00488874	0.000696854	0	-4.87197e-05	-0.000244821	3.75894e-06	82.9576	0.00539415	0.00066134	-0.00535346	-34.9279	7.01292	5.74971	4.01521	0.116811	0.0816915	0.142543	34.9668	60375.8	86331.9	105349	-55.0332	0.0000000E+000	0.0000000E+000	0.0000000E+000	55.0332	0.0000000E+000	0.0000000E+000	0.0000000E+000	-55.0332	0.0000000E+000	0.0000000E+000	0.0000000E+000	-34.9668	0.0000000E+000	0.0000000E+000	0.0000000E+000	34.9668	1.42991	55.0332	-3.25164e-06	-5.58811e-06	5.24612e-09	-5.59335e-06	0.261025	12169.9	11.4251	12181.3
146.737	6.87384	4.74861	8.35458	-34.6377	9.07854	0.260773	-0.0228533	228.409	73.7899	1	10	0.00487643	0.000583683	0	-5.21328e-05	-9.19415e-05	5.08488e-06	2.53136	0.00871171	0.0087032	-0.000384762	-34.6016	8.36152	6.88254	4.74823	0.0984805	0.0680327	0.119695	34.6377	73789.9	106814	129824	-55.3623	0.0000000E+000	0.0000000E+000	0.0000000E+000	55.3623	0.0000000E+000	0.0000000E+000	0.0000000E+000	-55.3623	0.0000000E+000	0.0000000E+000	0.0000000E+000	-34.6377	0.0000000E+000	0.0000000E+000	0.0000000E+000	34.6377	1.44755	55.3623	-3.41309e-06	-5.95953e-06	2.10117e-09	-5.96163e-06	0.260865	11410.7	4.02311	11414.8
100.032	8.28369	5.39939	9.88802	-33.0967	9.52982	0.260777	-0.0219954	294.67	87.8632	1	10	0.00486926	0.00049244	0	-5.40499e-05	2.27182e-05	5.54012e-06	20.1701	0.0112503	0.0105604	-0.00387922	-33.0445	9.89475	8.29425	5.39551	0.0847237	0.0552238	0.101132	33.0967	87863.2	134799	160906	-56.9033	0.0000000E+000	0.0000000E+000	0.0000000E+000	56.9033	0.0000000E+000	0.0000000E+000	0.0000000E+000	-56.9033	0.0000000E+000	0.0000000E+000	0.0000000E+000	-33.0967	0.0000000E+000	0.0000000E+000	0.0000000E+000	33.0967	1.53419	56.9033	-1.91714e-06	-5.73588e-06	-4.99696e-10	-5.73538e-06	0.260754	11856	1.03286	11854.9
68.104	9.91035	5.84999	11.5081	-30.553	9.99149	0.26077	-0.0207234	399.478	103.227	1	10	0.00486589	0.000422821	0	-5.61826e-05	-0.000187491	7.23074e-06	3.06288	0.0171012	0.0170768	-0.000913749	-30.5059	11.5224	9.92743	5.84908	0.0748304	0.0441717	0.086895	30.553	103227	174874	203068	-59.447	0.0000000E+000	0.0000000E+000	0.0000000E+000	59.447	0.0000000E+000	0.0000000E+000	0.0000000E+000	-59.447	0.0000000E+000	0.0000000E+000	0.0000000E+000	-30.553	0.0000000E+000	0.0000000E+000	0.0000000E+000	30.553	1.69408	59.447	-2.13266e-06	-5.40404e-06	3.88545e-09	-5.40793e-06	0.260958	12583.4	9.04733	12592.4
46.4415	11.6949	6.03716	13.1612	-27.3038	10.4287	0.260762	-0.0244834	567.65	119.442	1	10	0.00486908	0.000369958	0	-5.8995e-05	-0.000111051	7.20952e-06	61.6947	0.0194874	0.00924035	-0.0171574	-27.219	13.1615	11.7041	6.02	0.0675157	0.0348532	0.075981	27.3038	119442	231376	260386	-62.6962	0.0000000E+000	0.0000000E+000	0.0000000E+000	62.6962	0.0000000E+000	0.0000000E+000	0.0000000E+000	-62.6962	0.0000000E+000	0.0000000E+000	0.0000000E+000	-27.3038	0.0000000E+000	0.0000000E+000	0.0000000E+000	27.3038	1.93715	62.6962	-2.81246e-06	-6.38434e-06	2.71892e-09	-6.38705e-06	0.260873	10650.6	4.53579	10655.1
31.6296	13.4681	5.91987	14.7117	-23.7278	10.8586	0.260773	-0.0252071	849.992	137.631	1	10	0.00487076	0.000331082	0	-6.22874e-05	-0.000149271	2.03189e-06	8.72261	0.00613713	0.00606615	-0.000930701	-23.715	14.7169	13.4741	5.91894	0.0622272	0.0273519	0.0679732	23.7278	137631	313118	342030	-66.2722	0.0000000E+000	0.0000000E+000	0.0000000E+000	66.2722	0.0000000E+000	0.0000000E+000	0.0000000E+000	-66.2722	0.0000000E+000	0.0000000E+000	0.0000000E+000	-23.7278	0.0000000E+000	0.0000000E+000	0.0000000E+000	23.7278	2.27506	66.2722	-3.29242e-06	-6.57332e-06	3.76269e-09	-6.57708e-06	0.260922	10345.2	5.92181	10351.2
21.5517	15.1685	5.62024	16.1763	-20.3306	11.5115	0.260805	-0.00814004	1313.96	158.612	1	11	0.00486907	0.000301	0	-6.49401e-05	3.60827e-06	7.90815e-06	91.6101	0.0262729	-0.000738207	-0.0262625	-20.2443	16.1665	15.1678	5.59397	0.0579678	0.0214782	0.0618189	20.3306	158612	428080	456520	-69.6694	0.0000000E+000	0.0000000E+000	0.0000000E+000	69.6694	0.0000000E+000	0.0000000E+000	0.0000000E+000	-69.6694	0.0000000E+000	0.0000000E+000	0.0000000E+000	-20.3306	0.0000000E+000	0.0000000E+000	0.0000000E+000	20.3306	2.69892	69.6694	-2.65262e-06	-2.12296e-06	-2.93715e-11	-2.12293e-06	0.260801	32039.7	0.443274	32039.3
14.6852	16.5714	5.19498	17.3667	-17.4057	11.9722	0.26081	-0.00759162	2086.21	186.678	1	11	0.0048569	0.000279668	0	-6.53302e-05	-0.000244821	5.40397e-06	-84.1296	0.0193228	0.0019763	0.0192215	-17.4642	17.3743	16.5734	5.21421	0.054945	0.0172247	0.0575816	17.4057	186678	595483	624059	-72.5943	0.0000000E+000	0.0000000E+000	0.0000000E+000	72.5943	0.0000000E+000	0.0000000E+000	0.0000000E+000	-72.5943	0.0000000E+000	0.0000000E+000	0.0000000E+000	-17.4057	0.0000000E+000	0.0000000E+000	0.0000000E+000	17.4057	3.18989	72.5943	-3.90101e-07	-1.97997e-06	1.85859e-09	-1.98183e-06	0.261055	34355	32.2489	34387.2
10.0032	17.8496	4.77113	18.4762	-14.9651	12.4228	0.260802	-0.00779606	3334.72	222.37	1	11	0.00486481	0.000263301	0	-6.50764e-05	-0.000263931	9.05013e-06	31.1737	0.0343718	0.0294086	-0.0177921	-14.8884	18.5001	17.879	4.75334	0.0522879	0.0139764	0.0541236	14.9651	222370	831921	861128	-75.0349	0.0000000E+000	0.0000000E+000	0.0000000E+000	75.0349	0.0000000E+000	0.0000000E+000	0.0000000E+000	-75.0349	0.0000000E+000	0.0000000E+000	0.0000000E+000	-14.9651	0.0000000E+000	0.0000000E+000	0.0000000E+000	14.9651	3.74116	75.0349	2.53778e-07	-2.03323e-06	2.05762e-09	-2.03529e-06	0.261066	33453.1	33.8544	33486.9
6.81719	18.9181	4.29235	19.399	-12.7834	12.7625	0.260811	-0.00642313	5439.01	266.288	1	11	0.00484813	0.000249917	0	-6.58639e-05	0.000118268	1.8166e-05	-19.4032	0.0726881	0.0685597	0.024148	-12.8081	19.4712	18.9867	4.3165	0.0502714	0.0114061	0.0515491	12.7834	266288	1.17364e+06	1.20347e+06	-77.2166	0.0000000E+000	0.0000000E+000	0.0000000E+000	77.2166	0.0000000E+000	0.0000000E+000	0.0000000E+000	-77.2166	0.0000000E+000	0.0000000E+000	0.0000000E+000	-12.7834	0.0000000E+000	0.0000000E+000	0.0000000E+000	12.7834	4.40741	77.2166	-7.87476e-07	-1.67523e-06	-7.59651e-10	-1.67447e-06	0.260693	40605	18.4128	40586.6
4.63925	19.9789	3.85586	20.3475	-10.9236	13.2475	0.260808	-0.00686262	8897.15	319.499	1	11	0.00488003	0.000239834	0	-6.93199e-05	-0.000263931	3.05843e-05	74.7314	0.127523	0.0335824	-0.123021	-10.5657	20.3576	20.0124	3.73284	0.0482555	0.00931317	0.049146	10.9236	319499	1.65546e+06	1.68601e+06	-79.0764	0.0000000E+000	0.0000000E+000	0.0000000E+000	79.0764	0.0000000E+000	0.0000000E+000	0.0000000E+000	-79.0764	0.0000000E+000	0.0000000E+000	0.0000000E+000	-10.9236	0.0000000E+000	0.0000000E+000	0.0000000E+000	10.9236	5.18143	79.0764	-3.456e-06	-1.78983e-06	1.81126e-09	-1.79164e-06	0.261072	38004.2	38.4592	38042.6
3.1604	20.8069	3.4488	21.0908	-9.41137	13.9404	0.260815	-0.00670201	14601.9	390.446	1	11	0.00486831	0.000230826	0	-6.98504e-05	-0.000455031	2.53223e-06	-23.3899	0.0109703	0.0100688	0.00435506	-9.41856	21.1014	20.817	3.45316	0.0467758	0.00775322	0.047414	9.41137	390446	2.35559e+06	2.38773e+06	-80.5886	0.0000000E+000	0.0000000E+000	0.0000000E+000	80.5886	0.0000000E+000	0.0000000E+000	0.0000000E+000	-80.5886	0.0000000E+000	0.0000000E+000	0.0000000E+000	-9.41137	0.0000000E+000	0.0000000E+000	0.0000000E+000	9.41137	6.03308	80.5886	-5.30592e-07	-1.74799e-06	3.04962e-09	-1.75104e-06	0.26127	38916	67.8946	38983.9
2.15577	21.5351	3.13348	21.7619	-8.27878	14.944	0.260816	-0.00634432	23560.8	488.488	1	11	0.00486967	0.000223771	0	-6.76065e-05	-0.000244821	6.14635e-06	33.5709	0.0274672	0.0228857	-0.0151885	-8.23058	21.7823	21.558	3.1183	0.0454731	0.00661661	0.045952	8.27878	488488	3.35717e+06	3.39252e+06	-81.7212	0.0000000E+000	0.0000000E+000	0.0000000E+000	81.7212	0.0000000E+000	0.0000000E+000	0.0000000E+000	-81.7212	0.0000000E+000	0.0000000E+000	0.0000000E+000	-8.27878	0.0000000E+000	0.0000000E+000	0.0000000E+000	8.27878	6.87257	81.7212	2.24399e-06	-1.6547e-06	1.55322e-09	-1.65625e-06	0.261061	41110.1	38.589	41148.7
1.46631	22.2007	2.83997	22.3816	-7.28983	16.4054	0.260819	-0.00579567	38219.1	615.354	1	11	0.00486601	0.000217411	0	-6.63495e-05	-0.000225711	2.99655e-06	-34.4369	0.0137829	0.0113674	0.0077942	-7.30592	22.3939	22.2121	2.84777	0.0443184	0.00566932	0.0446795	7.28983	615354	4.81036e+06	4.84956e+06	-82.7102	0.0000000E+000	0.0000000E+000	0.0000000E+000	82.7102	0.0000000E+000	0.0000000E+000	0.0000000E+000	-82.7102	0.0000000E+000	0.0000000E+000	0.0000000E+000	-7.28983	0.0000000E+000	0.0000000E+000	0.0000000E+000	7.28983	7.81723	82.7102	1.25693e-06	-1.51162e-06	1.30815e-09	-1.51293e-06	0.261045	45002.3	38.9448	45041.3
1.00006	22.7893	2.65375	22.9433	-6.64201	19.5788	0.260807	-0.0052641	59969.8	802.305	1	12	0.00486643	0.000212106	0	-7.20752e-05	-0.000149271	3.10624e-06	-34.7419	0.0146447	0.012034	0.00834574	-6.65922	22.9562	22.8014	2.66209	0.0432931	0.00504135	0.0435857	6.64201	802305	6.88987e+06	6.93643e+06	-83.358	0.0000000E+000	0.0000000E+000	0.0000000E+000	83.358	0.0000000E+000	0.0000000E+000	0.0000000E+000	-83.358	0.0000000E+000	0.0000000E+000	0.0000000E+000	-6.64201	0.0000000E+000	0.0000000E+000	0.0000000E+000	6.64201	8.5876	83.358	-5.72568e-06	-1.37291e-06	7.85779e-10	-1.3737e-06	0.260956	49544.5	28.3565	49572.8
0.681362	23.3243	2.53315	23.4615	-6.19834	22.691	0.260816	-0.00432883	92210.7	1074.96	1	12	0.00486688	0.000207441	0	-8.42578e-05	-0.000187491	2.55285e-06	1.15066	0.0123064	0.0123039	-0.000247129	-6.19449	23.4737	23.3366	2.5329	0.0423739	0.00460203	0.042623	6.19834	1.07496e+06	9.89783e+06	9.95604e+06	-83.8017	0.0000000E+000	0.0000000E+000	0.0000000E+000	83.8017	0.0000000E+000	0.0000000E+000	0.0000000E+000	-83.8017	0.0000000E+000	0.0000000E+000	0.0000000E+000	-6.19834	0.0000000E+000	0.0000000E+000	0.0000000E+000	6.19834	9.20765	83.8017	-1.21826e-05	-1.12903e-06	8.11619e-10	-1.12984e-06	0.261004	60251	43.3122	60294.3
0.464091	23.8517	2.49204	23.9816	-5.96464	27.2475	0.260824	-0.00438698	137614	1485.99	1	12	0.00486687	0.000202942	0	-0.000102231	0.000118268	4.37417e-06	-5.8867	0.0215538	0.0214401	0.00221059	-5.96457	24.0031	23.8732	2.49425	0.0414729	0.00433311	0.0416987	5.96464	1.48599e+06	1.42227e+07	1.43001e+07	-84.0354	0.0000000E+000	0.0000000E+000	0.0000000E+000	84.0354	0.0000000E+000	0.0000000E+000	0.0000000E+000	-84.0354	0.0000000E+000	0.0000000E+000	0.0000000E+000	-5.96464	0.0000000E+000	0.0000000E+000	0.0000000E+000	5.96464	9.57118	84.0354	-1.79728e-05	-1.14423e-06	-5.1884e-10	-1.14371e-06	0.260706	59454	26.9588	59427.1
0.316193	24.4177	2.64134	24.5601	-6.17386	33.9219	0.26082	-0.00506661	190565	2204.1	1	12	0.00486497	0.000198084	0	-0.000120851	-0.000149271	2.74341e-06	49.5144	0.0138497	0.00899203	-0.0105337	-6.14718	24.5679	24.4267	2.6308	0.0404803	0.00437888	0.0407164	6.17386	2.2041e+06	2.03756e+07	2.04945e+07	-83.8261	0.0000000E+000	0.0000000E+000	0.0000000E+000	83.8261	0.0000000E+000	0.0000000E+000	0.0000000E+000	-83.8261	0.0000000E+000	0.0000000E+000	0.0000000E+000	-6.17386	0.0000000E+000	0.0000000E+000	0.0000000E+000	6.17386	9.24444	83.8261	-1.86204e-05	-1.32147e-06	7.563e-10	-1.32223e-06	0.260969	51478.1	29.4618	51507.6
0.215268	25.0451	2.97939	25.2217	-6.78408	43.7155	0.260819	-0.0056328	248150	3462.74	1	12	0.00486728	0.00019298	0	-0.000131977	9.9158e-05	4.64744e-06	14.6319	0.0240825	0.0233015	-0.00608342	-6.76412	25.2441	25.0684	2.9733	0.0393708	0.00468359	0.0396484	6.78408	3.46274e+06	2.91082e+07	2.93135e+07	-83.2159	0.0000000E+000	0.0000000E+000	0.0000000E+000	83.2159	0.0000000E+000	0.0000000E+000	0.0000000E+000	-83.2159	0.0000000E+000	0.0000000E+000	0.0000000E+000	-6.78408	0.0000000E+000	0.0000000E+000	0.0000000E+000	6.78408	8.40612	83.2159	-1.11262e-05	-1.46914e-06	-5.58538e-10	-1.46858e-06	0.26072	46303.6	17.6037	46286
0.146929	25.7457	3.46577	25.978	-7.66679	58.0539	0.260815	-0.00570562	312546	5562.91	1	12	0.00486965	0.000187453	0	-0.000127305	-0.000130161	3.45501e-06	-16.928	0.0184313	0.0176327	0.00536663	-7.67333	25.9962	25.7634	3.47113	0.0381501	0.00513558	0.0384942	7.66679	5.56292e+06	4.13246e+07	4.16973e+07	-82.3332	0.0000000E+000	0.0000000E+000	0.0000000E+000	82.3332	0.0000000E+000	0.0000000E+000	0.0000000E+000	-82.3332	0.0000000E+000	0.0000000E+000	0.0000000E+000	-7.66679	0.0000000E+000	0.0000000E+000	0.0000000E+000	7.66679	7.42858	82.3332	4.67234e-06	-1.48811e-06	7.42652e-10	-1.48886e-06	0.260945	45711.9	22.8128	45734.7
0.0999041	26.6146	4.09345	26.9276	-8.74385	79.1311	0.260816	-0.00503314	389177	8993.58	1	12	0.00486734	0.000180757	0	-0.000105962	-0.000283041	2.88779e-06	-23.6584	0.0159761	0.0146333	0.00641093	-8.75259	26.943	26.6292	4.09987	0.0367051	0.00564542	0.0371367	8.74385	8.99359e+06	5.8474e+07	5.91616e+07	-81.2561	0.0000000E+000	0.0000000E+000	0.0000000E+000	81.2561	0.0000000E+000	0.0000000E+000	0.0000000E+000	-81.2561	0.0000000E+000	0.0000000E+000	0.0000000E+000	-8.74385	0.0000000E+000	0.0000000E+000	0.0000000E+000	8.74385	6.50175	81.2561	2.13429e-05	-1.31272e-06	1.42458e-09	-1.31415e-06	0.261099	51819.7	56.2355	51875.9
0.0680626	27.7522	4.98788	28.1969	-10.1889	110.059	0.260818	-0.00423207	468809	14669.8	1	12	0.00486619	0.000172579	0	-8.28589e-05	-0.000302151	3.3173e-06	-71.8904	0.0192219	0.00597486	0.0182698	-10.2233	28.206	27.7582	5.00615	0.0349056	0.00627354	0.0354649	10.1889	1.46698e+07	8.16219e+07	8.29297e+07	-79.8111	0.0000000E+000	0.0000000E+000	0.0000000E+000	79.8111	0.0000000E+000	0.0000000E+000	0.0000000E+000	-79.8111	0.0000000E+000	0.0000000E+000	0.0000000E+000	-10.1889	0.0000000E+000	0.0000000E+000	0.0000000E+000	10.1889	5.56394	79.8111	2.31031e-05	-1.1038e-06	1.27873e-09	-1.10508e-06	0.26112	61628.9	71.3955	61700.3
0.0464052	29.1582	6.20531	29.8112	-12.0142	155.41	0.260819	-0.00295174	552700	23947.4	1	12	0.00487102	0.000163396	0	-8.8261e-05	-0.000321261	3.0083e-06	17.129	0.0184112	0.0175945	-0.00542251	-11.997	29.8273	29.1758	6.19989	0.0328097	0.0069824	0.0335444	12.0142	2.39474e+07	1.12527e+08	1.15047e+08	-77.9858	0.0000000E+000	0.0000000E+000	0.0000000E+000	77.9858	0.0000000E+000	0.0000000E+000	0.0000000E+000	-77.9858	0.0000000E+000	0.0000000E+000	0.0000000E+000	-12.0142	0.0000000E+000	0.0000000E+000	0.0000000E+000	12.0142	4.69891	77.9858	-5.40203e-06	-7.69871e-07	9.4828e-10	-7.7082e-07	0.261141	88361.1	108.838	88470
0.0315922	30.6604	7.81865	31.6416	-14.306	222.016	0.260816	-0.00239586	644330	39341.8	1	12	0.00486899	0.000153879	0	-0.000184743	-0.000111051	2.70761e-06	5.10243	0.0175957	0.017526	-0.0015649	-14.2954	31.6582	30.678	7.81708	0.0306239	0.00780933	0.0316039	14.306	3.93418e+07	1.54277e+08	1.59214e+08	-75.694	0.0000000E+000	0.0000000E+000	0.0000000E+000	75.694	0.0000000E+000	0.0000000E+000	0.0000000E+000	-75.694	0.0000000E+000	0.0000000E+000	0.0000000E+000	-14.306	0.0000000E+000	0.0000000E+000	0.0000000E+000	14.306	3.92145	75.694	-9.64817e-05	-6.24877e-07	2.66063e-10	-6.25143e-07	0.260927	108861	46.3515	108907
0.0215268	32.3664	9.72718	33.7965	-16.7273	319.754	0.260815	-0.00246801	760071	62963	1	12	0.00486817	0.000144044	0	-0.000420434	-0.000302151	1.60567e-06	76.025	0.0111471	0.00269202	-0.0108172	-16.7084	33.7959	32.3691	9.71636	0.0283369	0.00851617	0.0295889	16.7273	6.2963e+07	2.09504e+08	2.18761e+08	-73.2727	0.0000000E+000	0.0000000E+000	0.0000000E+000	73.2727	0.0000000E+000	0.0000000E+000	0.0000000E+000	-73.2727	0.0000000E+000	0.0000000E+000	0.0000000E+000	-16.7273	0.0000000E+000	0.0000000E+000	0.0000000E+000	16.7273	3.32742	73.2727	-0.000235692	-6.43695e-07	7.45713e-10	-6.4444e-07	0.261117	105678	122.427	105800
0.0146812	34.4516	12.1053	36.5164	-19.36	463.057	0.260816	-0.00316185	895540	98414.2	1	12	0.00486687	0.000133279	0	-0.000799161	9.9158e-05	2.9301e-06	-3.90876	0.0219847	0.0219336	0.00149865	-19.3508	36.5376	34.4735	12.1068	0.0258365	0.00907817	0.027385	19.36	9.84142e+07	2.80087e+08	2.96873e+08	-70.64	0.0000000E+000	0.0000000E+000	0.0000000E+000	70.64	0.0000000E+000	0.0000000E+000	0.0000000E+000	-70.64	0.0000000E+000	0.0000000E+000	0.0000000E+000	-19.36	0.0000000E+000	0.0000000E+000	0.0000000E+000	19.36	2.846	70.64	-0.000378727	-8.24661e-07	-3.13523e-10	-8.24347e-07	0.260717	82488.4	31.3608	82457.1
0.0100092	37.0926	15.4342	40.1756	-22.5922	673.238	0.26081	-0.00378224	1.03024e+06	152049	1	12	0.00486356	0.000121058	0	-0.00123512	0.000271148	4.23654e-06	64.762	0.034996	0.0149216	-0.0316555	-22.5423	40.1772	37.1076	15.4026	0.0229807	0.00956226	0.0248907	22.5922	1.52049e+08	3.65414e+08	3.95785e+08	-67.4078	0.0000000E+000	0.0000000E+000	0.0000000E+000	67.4078	0.0000000E+000	0.0000000E+000	0.0000000E+000	-67.4078	0.0000000E+000	0.0000000E+000	0.0000000E+000	-22.5922	0.0000000E+000	0.0000000E+000	0.0000000E+000	22.5922	2.40327	67.4078	-0.000435955	-9.86445e-07	-1.02554e-09	-9.8542e-07	0.260539	68956.6	71.6898	68884.9