File: txt/18400_R277_UA690_SOC00_C03.mpt
EC-Lab ASCII FILE
Nb header lines : 65

Potentio Electrochemical Impedance Spectroscopy

Run on channel : 3 (SN 65921)
User :
CE vs. WE compliance from -10 V to 10 V
Electrode connection : standard
Potential control : Ewe
Ewe ctrl range : min = -10.00 V, max = 10.00 V
Safety Limits :
	Do not start on E overload
Acquisition started on : 10/13/2025 14:54:04.619
Technique started on : 10/13/2025 14:54:06.357
Loaded Setting File :  C:\Users\Celltest\OneDrive - store-dot.com\Documents\EC-Lab\Data\@Biologic Test Protocols\anode half cell EIS SOC00.mps
Saved on :
	File : 18400_R277_UA690_SOC00_C03.mpr
	Directory : C:\Users\Celltest\OneDrive - store-dot.com\Documents\EC-Lab\Data\Gyutae\
	Host : 169.254.61.224
Device : VMP-3e (SN .003165)
Address : USB
EC-LAB for windows v11.62 (software)
Internet server v27.00 (firmware)
Command interpretor v12.03 (firmware)
Electrode material :
Initial state :
Electrolyte :
Comments :
Electrode surface area : 0.001 cm²
Characteristic mass : 0.001 g
Equivalent Weight : 0.000 g/eq.
Density : 0.000 g/cm3
Volume (V) : 0.001 cm³
Record Ece
Cycle Definition : Charge/Discharge alternance
Mode                Single sine
E (V)               0.0000
vs.                 Eoc
tE (h:m:s)          0:00:0.0000
record              0
dI                  0.000
unit dI             mA
dt (s)              0.000
fi                  100.000
unit fi             kHz
ff                  10.000
unit ff             mHz
Nd                  6
Points              per decade
spacing             Logarithmic
Va (mV)             5.0
pw                  0.10
Na                  2
corr                0
E range min (V)     -10.000
E range max (V)     10.000
I Range             Auto
Bandwidth           5
nc cycles           0
goto Ns'            0
nr cycles           0
inc. cycle          0

freq/Hz	Re(Z)/Ohm	-Im(Z)/Ohm	|Z|/Ohm	Phase(Z)/deg	time/s	<Ewe>/V	<I>/mA	Cs/µF	Cp/µF	cycle number	I Range	|Ewe|/V	|I|/A	Ns	(Q-Qo)/mA.h	<Ece>/V	|Ece|/V	Phase(Zce)/deg	|Zce|/Ohm	Re(Zce)/Ohm	-Im(Zce)/Ohm	Phase(Zwe-ce)/deg	|Zwe-ce|/Ohm	Re(Zwe-ce)/Ohm	-Im(Zwe-ce)/Ohm	Re(Y)/Ohm-1	Im(Y)/Ohm-1	|Y|/Ohm-1	Phase(Y)/deg	Re(C)/nF	Im(C)/nF	|C|/nF	Phase(C)/deg	Re(M)	Im(M)	|M|	Phase(M)/deg	Re(Permittivity)	Im(Permittivity)	|Permittivity|	Phase(Permittivity)/deg	Re(Resistivity)/Ohm.cm	Im(Resistivity)/Ohm.cm	|Resistivity|/Ohm.cm	Phase(Resistivity)/deg	Re(Conductivity)/mS/cm	Im(Conductivity)/mS/cm	|Conductivity|/mS/cm	Phase(Conductivity)/deg	Tan(Delta)	Loss Angle(Delta)/deg	dq/mA.h	Pwe/W	Pce/W	Pwe-ce/W	<Ewe-Ece>/V	Rwe/Ohm	Rce/Ohm	Rwe-ce/Ohm		Ewe-Ece/V
100004	2.14432	0.374585	2.17679	-9.90886	1.73754	0.237422	0.0442983	4.24867	0.125812	1	9	0.00437161	0.00200828	0	2.70744e-06	5.31434e-05	1.90917e-05	52.4408	0.00950645	0.00579495	-0.00753599	-9.68767	2.18122	2.15011	0.367049	0.452539	0.0790529	0.459392	9.90886	125.812	720.212	731.118	-80.0911	0.0000000E+000	0.0000000E+000	0.0000000E+000	80.0911	0.0000000E+000	0.0000000E+000	0.0000000E+000	-80.0911	0.0000000E+000	0.0000000E+000	0.0000000E+000	-9.90886	0.0000000E+000	0.0000000E+000	0.0000000E+000	9.90886	5.72451	80.0911	2.70744e-06	1.05174e-05	2.35416e-09	1.0515e-05	0.237369	5359.61	1.19967	5358.41
68132	2.16644	0.696748	2.27573	-17.8283	2.24455	0.237394	0.0383314	3.35269	0.314271	1	9	0.00522877	0.00229763	0	-3.67716e-07	-0.000233268	2.71422e-05	33.4245	0.0118132	0.00985941	-0.00650713	-17.5971	2.28314	2.1763	0.690241	0.418318	0.134535	0.43942	17.8283	314.271	977.182	1026.47	-72.1717	0.0000000E+000	0.0000000E+000	0.0000000E+000	72.1717	0.0000000E+000	0.0000000E+000	0.0000000E+000	-72.1717	0.0000000E+000	0.0000000E+000	0.0000000E+000	-17.8283	0.0000000E+000	0.0000000E+000	0.0000000E+000	17.8283	3.10936	72.1717	-3.07516e-06	9.09962e-06	-8.94147e-09	9.10856e-06	0.237627	6193.19	6.08555	6199.28
46420.4	2.34562	0.845708	2.49343	-19.8266	2.62754	0.237387	0.0328492	4.05407	0.466379	1	9	0.00541397	0.0021713	0	3.90263e-06	1.49552e-05	2.34684e-05	-12.0532	0.0108084	0.0105702	0.00225701	-19.7932	2.50414	2.35619	0.847965	0.377281	0.136028	0.401055	19.8266	466.379	1293.53	1375.04	-70.1734	0.0000000E+000	0.0000000E+000	0.0000000E+000	70.1734	0.0000000E+000	0.0000000E+000	0.0000000E+000	-70.1734	0.0000000E+000	0.0000000E+000	0.0000000E+000	-19.8266	0.0000000E+000	0.0000000E+000	0.0000000E+000	19.8266	2.77356	70.1734	4.27035e-06	7.79799e-06	4.91268e-10	7.7975e-06	0.237372	7226.58	0.455269	7226.12
31621.1	2.55901	0.983483	2.74149	-21.0229	3.01055	0.237377	0.0387789	5.11771	0.658623	1	9	0.00543106	0.00198106	0	1.17815e-05	3.40493e-05	1.05628e-05	45.2529	0.0053319	0.00375355	-0.00378683	-20.9209	2.74364	2.56276	0.979697	0.340486	0.130856	0.364765	21.0229	658.623	1713.73	1835.93	-68.9771	0.0000000E+000	0.0000000E+000	0.0000000E+000	68.9771	0.0000000E+000	0.0000000E+000	0.0000000E+000	-68.9771	0.0000000E+000	0.0000000E+000	0.0000000E+000	-21.0229	0.0000000E+000	0.0000000E+000	0.0000000E+000	21.0229	2.60198	68.9771	7.87884e-06	9.20523e-06	1.32039e-09	9.20391e-06	0.237343	6121.31	0.878037	6120.43
21544.7	2.81905	1.1129	3.03077	-21.5431	3.39354	0.237378	0.0359446	6.63778	0.895017	1	9	0.00545109	0.00179858	0	1.51059e-05	-4.13882e-06	6.01067e-06	-24.7101	0.0033419	0.00303589	0.001397	-21.5466	3.03411	2.82208	1.1143	0.306899	0.121158	0.329949	21.5431	895.017	2267.13	2437.4	-68.4569	0.0000000E+000	0.0000000E+000	0.0000000E+000	68.4569	0.0000000E+000	0.0000000E+000	0.0000000E+000	-68.4569	0.0000000E+000	0.0000000E+000	0.0000000E+000	-21.5431	0.0000000E+000	0.0000000E+000	0.0000000E+000	21.5431	2.53306	68.4569	3.32445e-06	8.53245e-06	-1.48768e-10	8.5326e-06	0.237382	6604.01	0.115144	6604.12
14678.6	3.07936	1.2378	3.31883	-21.8985	3.77654	0.237372	0.0336697	8.75961	1.21848	1	9	0.00534613	0.00161085	0	2.10448e-05	-0.000214174	7.02237e-06	41.8691	0.00435943	0.00324634	-0.00290962	-21.831	3.32075	3.0826	1.23489	0.279571	0.112378	0.301311	21.8985	1218.48	3031.29	3267.02	-68.1015	0.0000000E+000	0.0000000E+000	0.0000000E+000	68.1015	0.0000000E+000	0.0000000E+000	0.0000000E+000	-68.1015	0.0000000E+000	0.0000000E+000	0.0000000E+000	-21.8985	0.0000000E+000	0.0000000E+000	0.0000000E+000	21.8985	2.48776	68.1015	5.93885e-06	7.99223e-06	-7.21115e-09	7.99944e-06	0.237586	7050.03	6.36103	7056.39
10002.2	3.39887	1.39711	3.67481	-22.3451	4.16156	0.237382	0.0338188	11.3892	1.6462	1	9	0.00526885	0.00143377	0	2.7501e-05	-0.000156891	5.1476e-06	-105.865	0.00359025	-0.000981458	0.00345349	-22.4007	3.67522	3.39789	1.40056	0.251689	0.103457	0.272123	22.3451	1646.2	4004.87	4330	-67.6549	0.0000000E+000	0.0000000E+000	0.0000000E+000	67.6549	0.0000000E+000	0.0000000E+000	0.0000000E+000	-67.6549	0.0000000E+000	0.0000000E+000	0.0000000E+000	-22.3451	0.0000000E+000	0.0000000E+000	0.0000000E+000	22.3451	2.4328	67.6549	6.45626e-06	8.02798e-06	-5.30588e-09	8.03329e-06	0.237539	7019.23	4.63917	7023.87
6810.42	3.73701	1.58202	4.05808	-22.9449	4.54654	0.237374	0.0384805	14.7718	2.24501	1	9	0.00529817	0.00130559	0	3.14085e-05	-6.1421e-05	2.8986e-05	31.6457	0.0222016	0.0189004	-0.0116484	-22.6902	4.07099	3.75591	1.57038	0.226925	0.0960664	0.246422	22.9449	2245.01	5303.08	5758.71	-67.0551	0.0000000E+000	0.0000000E+000	0.0000000E+000	67.0551	0.0000000E+000	0.0000000E+000	0.0000000E+000	-67.0551	0.0000000E+000	0.0000000E+000	0.0000000E+000	-22.9449	0.0000000E+000	0.0000000E+000	0.0000000E+000	22.9449	2.36217	67.0551	3.90751e-06	9.13427e-06	-2.36351e-09	9.13664e-06	0.237435	6168.68	1.59616	6170.28
4646	4.06933	1.76702	4.43642	-23.4719	5.09662	0.237383	-0.0087001	19.3865	3.07551	1	10	0.00475329	0.00107143	0	3.36683e-05	9.13315e-05	7.69356e-06	-24.9627	0.00718067	0.00650987	0.00303045	-23.4743	4.4436	4.07584	1.77005	0.206756	0.0897793	0.225407	23.4719	3075.51	7082.7	7721.62	-66.5281	0.0000000E+000	0.0000000E+000	0.0000000E+000	66.5281	0.0000000E+000	0.0000000E+000	0.0000000E+000	-66.5281	0.0000000E+000	0.0000000E+000	0.0000000E+000	-23.4719	0.0000000E+000	0.0000000E+000	0.0000000E+000	23.4719	2.30294	66.5281	2.25975e-06	-2.06525e-06	-7.94593e-10	-2.06446e-06	0.237291	27285	10.4978	27274.6
3163.08	4.48163	1.9902	4.90366	-23.9451	5.64662	0.237373	-0.0105161	25.2821	4.16454	1	10	0.00509883	0.0010398	0	3.05664e-05	0.000167708	9.16657e-06	-23.7025	0.0088157	0.00807205	0.00354381	-23.9447	4.91247	4.4897	1.99375	0.186378	0.0827669	0.203929	23.9451	4164.54	9377.89	10261	-66.0549	0.0000000E+000	0.0000000E+000	0.0000000E+000	66.0549	0.0000000E+000	0.0000000E+000	0.0000000E+000	-66.0549	0.0000000E+000	0.0000000E+000	0.0000000E+000	-23.9451	0.0000000E+000	0.0000000E+000	0.0000000E+000	23.9451	2.25184	66.0549	-3.10189e-06	-2.49623e-06	-1.76363e-09	-2.49447e-06	0.237205	22572.4	15.9478	22556.5
2155.69	4.92365	2.27041	5.42191	-24.7555	6.31278	0.237385	-0.00683939	32.5184	5.70208	1	10	0.00510308	0.000941196	0	3.14849e-05	-0.000214174	8.17337e-06	-59.6572	0.00868402	0.00438693	0.00749447	-24.808	5.42904	4.92804	2.27791	0.167488	0.0772324	0.184437	24.7555	5702.08	12365.6	13617	-65.2445	0.0000000E+000	0.0000000E+000	0.0000000E+000	65.2445	0.0000000E+000	0.0000000E+000	0.0000000E+000	-65.2445	0.0000000E+000	0.0000000E+000	0.0000000E+000	-24.7555	0.0000000E+000	0.0000000E+000	0.0000000E+000	24.7555	2.16862	65.2445	9.1855e-07	-1.62357e-06	1.46482e-09	-1.62504e-06	0.2376	34708.6	31.3147	34739.9
1468.59	5.45321	2.57787	6.03182	-25.3013	6.76405	0.237387	-0.00606751	42.0395	7.67864	1	10	0.00513916	0.000852007	0	3.02823e-05	-6.1421e-05	1.09089e-05	-22.2691	0.0128037	0.0118487	0.00485207	-25.2949	6.04461	5.46506	2.58273	0.149884	0.070854	0.165787	25.3013	7678.63	16243.3	17966.8	-64.6987	0.0000000E+000	0.0000000E+000	0.0000000E+000	64.6987	0.0000000E+000	0.0000000E+000	0.0000000E+000	-64.6987	0.0000000E+000	0.0000000E+000	0.0000000E+000	-25.3013	0.0000000E+000	0.0000000E+000	0.0000000E+000	25.3013	2.11539	64.6987	-1.20268e-06	-1.44035e-06	3.72673e-10	-1.44072e-06	0.237448	39124.2	10.1229	39134.3
1000.32	6.03501	2.95435	6.71934	-26.0834	7.2148	0.237374	-0.00790586	53.8541	10.4109	1	10	0.00502797	0.000748284	0	3.0022e-05	-0.000195079	1.76234e-05	-120.118	0.0235517	-0.0118177	0.0203721	-26.2838	6.71772	6.02319	2.97472	0.133667	0.0654348	0.148824	26.0834	10410.9	21267	23678.5	-63.9166	0.0000000E+000	0.0000000E+000	0.0000000E+000	63.9166	0.0000000E+000	0.0000000E+000	0.0000000E+000	-63.9166	0.0000000E+000	0.0000000E+000	0.0000000E+000	-26.0834	0.0000000E+000	0.0000000E+000	0.0000000E+000	26.0834	2.04275	63.9166	-2.60286e-07	-1.87665e-06	1.54227e-09	-1.87819e-06	0.23757	30025.1	24.6753	30049.8
681.09	6.67104	3.40473	7.48965	-27.0386	7.6656	0.237372	-0.00821536	68.6331	14.1832	1	10	0.00492161	0.000657121	0	2.85885e-05	0.000186802	5.75191e-06	-28.5706	0.00875319	0.0076873	0.00418614	-27.0404	7.4984	6.67872	3.40891	0.118924	0.0606958	0.133518	27.0386	14183.2	27789.8	31200	-62.9614	0.0000000E+000	0.0000000E+000	0.0000000E+000	62.9614	0.0000000E+000	0.0000000E+000	0.0000000E+000	-62.9614	0.0000000E+000	0.0000000E+000	0.0000000E+000	-27.0386	0.0000000E+000	0.0000000E+000	0.0000000E+000	27.0386	1.95935	62.9614	-1.43345e-06	-1.9501e-06	-1.53464e-09	-1.94856e-06	0.237185	28893.7	22.7381	28871
463.961	7.40398	3.99023	8.41076	-28.3216	8.11729	0.237369	-0.00763738	85.9688	19.3494	1	10	0.0048398	0.00057543	0	2.78593e-05	0.000282272	7.31431e-06	-21.1506	0.012711	0.0118548	0.00458641	-28.3108	8.42337	7.41583	3.99482	0.104663	0.0564063	0.118895	28.3216	19349.4	35903.3	40785.3	-61.6784	0.0000000E+000	0.0000000E+000	0.0000000E+000	61.6784	0.0000000E+000	0.0000000E+000	0.0000000E+000	-61.6784	0.0000000E+000	0.0000000E+000	0.0000000E+000	-28.3216	0.0000000E+000	0.0000000E+000	0.0000000E+000	28.3216	1.85553	61.6784	-7.29233e-07	-1.81288e-06	-2.15582e-09	-1.81072e-06	0.237087	31079.9	36.9593	31042.9
316.316	8.27795	4.68926	9.51386	-29.5305	8.56507	0.23737	-0.00796926	107.299	26.0669	1	10	0.00479564	0.000504068	0	2.66041e-05	-0.000175985	4.72248e-06	-100.177	0.00936874	-0.00165533	0.00922134	-29.5837	9.51697	8.27629	4.69848	0.0914553	0.0518072	0.10511	29.5305	26066.9	46015.9	52886.2	-60.4695	0.0000000E+000	0.0000000E+000	0.0000000E+000	60.4695	0.0000000E+000	0.0000000E+000	0.0000000E+000	-60.4695	0.0000000E+000	0.0000000E+000	0.0000000E+000	-29.5305	0.0000000E+000	0.0000000E+000	0.0000000E+000	29.5305	1.7653	60.4695	-1.25516e-06	-1.89166e-06	1.40247e-09	-1.89307e-06	0.237546	29785.7	22.083	29807.8
215.345	9.41154	5.57548	10.9391	-30.6429	9.01452	0.237378	-0.00811096	132.557	34.4356	1	10	0.00477015	0.000436066	0	2.57941e-05	-2.32329e-05	7.52243e-06	-55.6215	0.0172507	0.00974072	0.0142374	-30.681	10.9547	9.42128	5.58972	0.0786503	0.0465931	0.0914155	30.6429	34435.6	58128.2	67562.6	-59.3571	0.0000000E+000	0.0000000E+000	0.0000000E+000	59.3571	0.0000000E+000	0.0000000E+000	0.0000000E+000	-59.3571	0.0000000E+000	0.0000000E+000	0.0000000E+000	-30.6429	0.0000000E+000	0.0000000E+000	0.0000000E+000	30.6429	1.68802	59.3571	-8.0999e-07	-1.92536e-06	1.88441e-10	-1.92555e-06	0.237401	29266.3	2.86438	29269.2
146.737	10.9543	6.57403	12.7755	-30.9693	9.46048	0.237373	-0.00815571	164.986	43.6871	1	10	0.00475141	0.000371915	0	2.50314e-05	0.00012952	2.76535e-06	64.4544	0.00743543	0.00320637	-0.00670856	-30.9362	12.7748	10.9575	6.56732	0.067116	0.0402785	0.0782746	30.9693	43687.1	72795.6	84898.6	-59.0307	0.0000000E+000	0.0000000E+000	0.0000000E+000	59.0307	0.0000000E+000	0.0000000E+000	0.0000000E+000	-59.0307	0.0000000E+000	0.0000000E+000	0.0000000E+000	-30.9693	0.0000000E+000	0.0000000E+000	0.0000000E+000	30.9693	1.6663	59.0307	-7.62698e-07	-1.93594e-06	-1.05632e-09	-1.93488e-06	0.237243	29105.1	15.8809	29089.2
100.032	12.9743	7.45909	14.9656	-29.8952	9.91185	0.237374	-0.00841673	213.302	52.9879	1	10	0.00474615	0.000317137	0	2.38517e-05	3.40493e-05	8.58593e-06	27.9295	0.0270733	0.0239199	-0.0126807	-29.8075	14.9801	12.9982	7.44641	0.0579286	0.0333039	0.0668197	29.8952	52987.9	92166.7	106313	-60.1048	0.0000000E+000	0.0000000E+000	0.0000000E+000	60.1048	0.0000000E+000	0.0000000E+000	0.0000000E+000	-60.1048	0.0000000E+000	0.0000000E+000	0.0000000E+000	-29.8952	0.0000000E+000	0.0000000E+000	0.0000000E+000	29.8952	1.73939	60.1048	-1.17975e-06	-1.99791e-06	-2.86584e-10	-1.99762e-06	0.23734	28202.6	4.04543	28198.6
68.104	15.365	8.0458	17.3441	-27.6385	10.3745	0.237372	-0.00725332	290.455	62.5044	1	10	0.00473411	0.000272952	0	2.28335e-05	0.000205896	4.53254e-06	24.5032	0.0166057	0.0151101	-0.00688711	-27.5952	17.3543	15.3802	8.03891	0.0510773	0.0267463	0.0576563	27.6385	62504.4	119365	134739	-62.3615	0.0000000E+000	0.0000000E+000	0.0000000E+000	62.3615	0.0000000E+000	0.0000000E+000	0.0000000E+000	-62.3615	0.0000000E+000	0.0000000E+000	0.0000000E+000	-27.6385	0.0000000E+000	0.0000000E+000	0.0000000E+000	27.6385	1.9097	62.3615	-1.01821e-06	-1.72174e-06	-1.49343e-09	-1.72024e-06	0.237167	32726.1	28.3865	32697.7
46.4415	17.917	8.08474	19.6566	-24.2865	11.0506	0.237384	-0.0111793	423.885	71.7073	1	11	0.00474463	0.000241376	0	2.13749e-05	-9.96091e-05	5.29424e-06	-3.69386	0.0219335	0.021888	0.00141308	-24.264	19.6771	17.9389	8.08615	0.0463713	0.0209242	0.0508735	24.2865	71707.3	158914	174343	-65.7135	0.0000000E+000	0.0000000E+000	0.0000000E+000	65.7135	0.0000000E+000	0.0000000E+000	0.0000000E+000	-65.7135	0.0000000E+000	0.0000000E+000	0.0000000E+000	-24.2865	0.0000000E+000	0.0000000E+000	0.0000000E+000	24.2865	2.21615	65.7135	-1.45857e-06	-2.65379e-06	1.11356e-09	-2.6549e-06	0.237484	21234.3	8.91015	21243.2
31.6296	20.3239	7.59019	21.695	-20.4787	11.4815	0.237384	-0.0112841	662.94	81.1447	1	11	0.00473774	0.000218379	0	2.00028e-05	7.22374e-05	4.05713e-06	-8.87085	0.0185784	0.0183561	0.00286493	-20.4688	21.7132	20.3423	7.59306	0.0431805	0.0161262	0.0460935	20.4787	81144.7	217278	231936	-69.5213	0.0000000E+000	0.0000000E+000	0.0000000E+000	69.5213	0.0000000E+000	0.0000000E+000	0.0000000E+000	-69.5213	0.0000000E+000	0.0000000E+000	0.0000000E+000	-20.4787	0.0000000E+000	0.0000000E+000	0.0000000E+000	20.4787	2.67766	69.5213	-1.3721e-06	-2.67866e-06	-8.15133e-10	-2.67785e-06	0.237312	21037.1	6.40172	21030.7
21.5517	22.2966	6.80334	23.3115	-16.9685	11.9025	0.237368	-0.0113475	1085.47	92.453	1	11	0.00472483	0.000202683	0	1.85742e-05	5.31434e-05	9.09598e-06	-51.4649	0.0448779	0.0279587	0.0351047	-17.0308	23.3485	22.3246	6.83845	0.0410298	0.0125194	0.0428973	16.9685	92453	302997	316788	-73.0315	0.0000000E+000	0.0000000E+000	0.0000000E+000	73.0315	0.0000000E+000	0.0000000E+000	0.0000000E+000	-73.0315	0.0000000E+000	0.0000000E+000	0.0000000E+000	-16.9685	0.0000000E+000	0.0000000E+000	0.0000000E+000	16.9685	3.2773	73.0315	-1.42862e-06	-2.69353e-06	-6.03043e-10	-2.69292e-06	0.237315	20918.2	4.68328	20913.5
14.6852	23.9641	5.93633	24.6884	-13.9131	12.3622	0.237386	-0.0106542	1825.67	105.554	1	11	0.00473401	0.00019175	0	1.63478e-05	-0.000233268	1.1363e-05	-36.1627	0.0592594	0.0478427	0.0349678	-13.9651	24.7432	24.0119	5.9713	0.0393165	0.00973941	0.0405049	13.9131	105554	426105	438984	-76.0869	0.0000000E+000	0.0000000E+000	0.0000000E+000	76.0869	0.0000000E+000	0.0000000E+000	0.0000000E+000	-76.0869	0.0000000E+000	0.0000000E+000	0.0000000E+000	-13.9131	0.0000000E+000	0.0000000E+000	0.0000000E+000	13.9131	4.03685	76.0869	-2.22644e-06	-2.52917e-06	2.48529e-09	-2.53165e-06	0.237619	22280.9	21.8943	22302.8
10.0032	25.2279	5.05713	25.7298	-11.3351	12.8128	0.237385	-0.0106065	3146.13	121.538	1	11	0.00473101	0.000183873	0	1.53195e-05	5.31434e-05	8.24991e-06	-60.3039	0.0448675	0.0222274	0.0389749	-11.4104	25.7593	25.2502	5.09611	0.0381073	0.00763891	0.0388654	11.3351	121538	606303	618365	-78.6649	0.0000000E+000	0.0000000E+000	0.0000000E+000	78.6649	0.0000000E+000	0.0000000E+000	0.0000000E+000	-78.6649	0.0000000E+000	0.0000000E+000	0.0000000E+000	-11.3351	0.0000000E+000	0.0000000E+000	0.0000000E+000	11.3351	4.98858	78.6649	-1.02822e-06	-2.51782e-06	-5.63666e-10	-2.51726e-06	0.237331	22381	5.01045	22376
6.81719	26.2035	4.33316	26.5593	-9.3898	13.1525	0.237379	-0.0110339	5387.78	143.412	1	11	0.0047196	0.0001777	0	1.32448e-05	0.000282272	1.33996e-05	5.32896	0.0754059	0.07508	-0.00700323	-9.34858	26.6323	26.2786	4.32616	0.037147	0.00614286	0.0376515	9.3898	143412	867239	879017	-80.6102	0.0000000E+000	0.0000000E+000	0.0000000E+000	80.6102	0.0000000E+000	0.0000000E+000	0.0000000E+000	-80.6102	0.0000000E+000	0.0000000E+000	0.0000000E+000	-9.3898	0.0000000E+000	0.0000000E+000	0.0000000E+000	9.3898	6.04719	80.6102	-2.07471e-06	-2.61921e-06	-3.11455e-09	-2.61609e-06	0.237097	21513.7	25.5824	21488.1
4.63925	27.1054	3.75836	27.3648	-7.89413	13.6364	0.237384	-0.0105267	9127.96	172.182	1	11	0.004733	0.00017296	0	1.36945e-05	-0.000156891	5.35968e-06	-79.4557	0.030988	0.00567069	0.0304648	-7.95566	27.3746	27.1111	3.78882	0.036197	0.00501897	0.0365433	7.89413	172182	1.24178e+06	1.25366e+06	-82.1059	0.0000000E+000	0.0000000E+000	0.0000000E+000	82.1059	0.0000000E+000	0.0000000E+000	0.0000000E+000	-82.1059	0.0000000E+000	0.0000000E+000	0.0000000E+000	-7.89413	0.0000000E+000	0.0000000E+000	0.0000000E+000	7.89413	7.21204	82.1059	4.49639e-07	-2.49887e-06	1.65155e-09	-2.50052e-06	0.237541	22550.6	14.9041	22565.5
3.1604	27.8329	3.27914	28.0254	-6.71935	14.3295	0.23738	-0.0101432	15357.4	210.25	1	11	0.00472837	0.000168717	0	1.29642e-05	-0.000347832	4.48455e-06	120.939	0.0265803	-0.0136658	-0.0227982	-6.6763	28.0092	27.8192	3.25634	0.0354368	0.004175	0.0356819	6.71935	210249	1.78457e+06	1.79691e+06	-83.2807	0.0000000E+000	0.0000000E+000	0.0000000E+000	83.2807	0.0000000E+000	0.0000000E+000	0.0000000E+000	-83.2807	0.0000000E+000	0.0000000E+000	0.0000000E+000	-6.71935	0.0000000E+000	0.0000000E+000	0.0000000E+000	6.71935	8.48786	83.2807	-7.30239e-07	-2.40778e-06	3.52812e-09	-2.41131e-06	0.237727	23402.9	34.2922	23437.2
2.15577	28.4559	2.92914	28.6062	-5.87711	15.3332	0.237381	-0.00934704	25204.5	264.263	1	11	0.00472833	0.00016529	0	8.63297e-06	-0.000252362	4.18138e-06	-53.4848	0.0252972	0.0150528	0.0203313	-5.91451	28.6233	28.4709	2.94947	0.0347737	0.00357947	0.0349574	5.87711	264264	2.56725e+06	2.58082e+06	-84.1229	0.0000000E+000	0.0000000E+000	0.0000000E+000	84.1229	0.0000000E+000	0.0000000E+000	0.0000000E+000	-84.1229	0.0000000E+000	0.0000000E+000	0.0000000E+000	-5.87711	0.0000000E+000	0.0000000E+000	0.0000000E+000	5.87711	9.71475	84.1229	-4.33127e-06	-2.21881e-06	2.35883e-09	-2.22117e-06	0.237633	25396.4	26.9991	25423.4
1.46631	29.0373	2.59999	29.1535	-5.11659	16.7926	0.237392	-0.00893609	41746.8	332.035	1	11	0.00473305	0.000162349	0	1.1198e-06	-0.000366926	3.21044e-06	93.0041	0.0197749	-0.00103637	-0.0197477	-5.07811	29.1507	29.0363	2.58024	0.0341645	0.00305907	0.0343012	5.11659	332035	3.70826e+06	3.72309e+06	-84.8834	0.0000000E+000	0.0000000E+000	0.0000000E+000	84.8834	0.0000000E+000	0.0000000E+000	0.0000000E+000	-84.8834	0.0000000E+000	0.0000000E+000	0.0000000E+000	-5.11659	0.0000000E+000	0.0000000E+000	0.0000000E+000	5.11659	11.1683	84.8834	-7.51317e-06	-2.12135e-06	3.27889e-09	-2.12463e-06	0.237759	26565.5	41.0611	26606.6
1.00006	29.5269	2.4139	29.6254	-4.67369	19.9687	0.237384	-0.00922892	65928.5	437.708	1	12	0.00473275	0.000159753	0	-9.94026e-06	-0.000214174	1.8731e-06	8.47732	0.011725	0.0115969	-0.00172847	-4.66853	29.6368	29.5385	2.41217	0.0336426	0.00275037	0.0337549	4.67369	437708	5.35405e+06	5.37191e+06	-85.3263	0.0000000E+000	0.0000000E+000	0.0000000E+000	85.3263	0.0000000E+000	0.0000000E+000	0.0000000E+000	-85.3263	0.0000000E+000	0.0000000E+000	0.0000000E+000	-4.67369	0.0000000E+000	0.0000000E+000	0.0000000E+000	4.67369	12.232	85.3263	-1.10601e-05	-2.1908e-06	1.97659e-09	-2.19278e-06	0.237598	25721.8	23.2068	25745
0.681362	30.0563	2.33849	30.1471	-4.44887	23.0798	0.237388	-0.00935046	99886.2	601.016	1	12	0.00474635	0.00015744	0	-1.56166e-05	0.00012952	1.93334e-05	-87.6865	0.122799	0.00495708	0.122699	-4.68052	30.1618	30.0613	2.46119	0.0330707	0.00257303	0.0331707	4.44887	601016	7.72477e+06	7.74811e+06	-85.5511	0.0000000E+000	0.0000000E+000	0.0000000E+000	85.5511	0.0000000E+000	0.0000000E+000	0.0000000E+000	-85.5511	0.0000000E+000	0.0000000E+000	0.0000000E+000	-4.44887	0.0000000E+000	0.0000000E+000	0.0000000E+000	4.44887	12.8528	85.5511	-5.67636e-06	-2.21968e-06	-1.21107e-09	-2.21847e-06	0.237258	25387.8	13.8517	25374
0.464091	30.3487	2.25711	30.4326	-4.2534	27.6363	0.237383	-0.0094108	151937	835.782	1	12	0.00473306	0.000155526	0	-1.84653e-05	-0.000538773	3.75468e-06	-6.0976	0.0241418	0.0240052	0.0025644	-4.25486	30.4567	30.3728	2.25968	0.032769	0.00243711	0.0328595	4.2534	835782	1.12378e+07	1.12688e+07	-85.7466	0.0000000E+000	0.0000000E+000	0.0000000E+000	85.7466	0.0000000E+000	0.0000000E+000	0.0000000E+000	-85.7466	0.0000000E+000	0.0000000E+000	0.0000000E+000	-4.2534	0.0000000E+000	0.0000000E+000	0.0000000E+000	4.2534	13.4458	85.7466	-2.84872e-06	-2.23396e-06	5.07028e-09	-2.23903e-06	0.237922	25224.5	57.2505	25281.8
0.316193	30.7122	2.3176	30.7995	-4.31548	34.3107	0.237385	-0.00869225	217185	1229.76	1	12	0.00473243	0.000153653	0	-2.12938e-05	-0.000233268	3.51261e-06	-13.1915	0.0228607	0.0222575	0.00521696	-4.32203	30.8221	30.7344	2.32282	0.032376	0.00244316	0.0324681	4.31548	1.22976e+06	1.62964e+07	1.63427e+07	-85.6845	0.0000000E+000	0.0000000E+000	0.0000000E+000	85.6845	0.0000000E+000	0.0000000E+000	0.0000000E+000	-85.6845	0.0000000E+000	0.0000000E+000	0.0000000E+000	-4.31548	0.0000000E+000	0.0000000E+000	0.0000000E+000	4.31548	13.2517	85.6845	-2.82846e-06	-2.06341e-06	2.02762e-09	-2.06544e-06	0.237618	27310	26.8363	27336.8
0.215268	31.1108	2.53409	31.2138	-4.65667	44.1031	0.237386	-0.00762303	291755	1922.95	1	12	0.00473221	0.000151606	0	-3.15119e-05	-0.000118703	1.05105e-06	-36.7764	0.00693276	0.00555299	0.0041506	-4.66344	31.2197	31.1164	2.53824	0.0319313	0.00260092	0.0320371	4.65667	1.92295e+06	2.36079e+07	2.36861e+07	-85.3433	0.0000000E+000	0.0000000E+000	0.0000000E+000	85.3433	0.0000000E+000	0.0000000E+000	0.0000000E+000	-85.3433	0.0000000E+000	0.0000000E+000	0.0000000E+000	-4.65667	0.0000000E+000	0.0000000E+000	0.0000000E+000	4.65667	12.2769	85.3433	-1.02181e-05	-1.8096e-06	9.04878e-10	-1.81051e-06	0.237505	31140.7	15.5717	31156.3
0.146929	31.5493	2.9795	31.6897	-5.39499	58.4415	0.237391	-0.00655424	363554	3213.81	1	12	0.00473449	0.000149401	0	-6.1456e-05	0.00012952	1.81016e-06	-22.9523	0.0121161	0.0111569	0.00472485	-5.40159	31.7012	31.5605	2.98423	0.0314162	0.00296693	0.031556	5.39499	3.21382e+06	3.40304e+07	3.41818e+07	-84.605	0.0000000E+000	0.0000000E+000	0.0000000E+000	84.605	0.0000000E+000	0.0000000E+000	0.0000000E+000	-84.605	0.0000000E+000	0.0000000E+000	0.0000000E+000	-5.39499	0.0000000E+000	0.0000000E+000	0.0000000E+000	5.39499	10.5888	84.605	-2.99441e-05	-1.55592e-06	-8.48903e-10	-1.55507e-06	0.237261	36219.4	19.7612	36199.7
0.0999041	32.015	3.65334	32.2228	-6.51004	79.5187	0.23739	-0.00632667	436061	5605.31	1	12	0.00473452	0.000146931	0	-0.000127631	-4.23269e-05	1.96892e-06	16.6196	0.0134003	0.0128405	-0.00383271	-6.50068	32.2351	32.0279	3.6495	0.0308338	0.00351854	0.0310339	6.51004	5.60531e+06	4.91206e+07	4.94394e+07	-83.49	0.0000000E+000	0.0000000E+000	0.0000000E+000	83.49	0.0000000E+000	0.0000000E+000	0.0000000E+000	-83.49	0.0000000E+000	0.0000000E+000	0.0000000E+000	-6.51004	0.0000000E+000	0.0000000E+000	0.0000000E+000	6.51004	8.76324	83.49	-6.61747e-05	-1.50189e-06	2.67789e-10	-1.50215e-06	0.237432	37522	6.69024	37528.7
0.0680626	32.571	4.53533	32.8853	-7.92714	110.445	0.237391	-0.00648755	515588	9806.58	1	12	0.00473275	0.000143917	0	-0.000238716	5.31434e-05	1.99028e-06	-7.30897	0.0138294	0.013717	0.00175937	-7.92688	32.8991	32.5847	4.53709	0.0301182	0.00419378	0.0304088	7.92714	9.80658e+06	7.04272e+07	7.11066e+07	-82.0729	0.0000000E+000	0.0000000E+000	0.0000000E+000	82.0729	0.0000000E+000	0.0000000E+000	0.0000000E+000	-82.0729	0.0000000E+000	0.0000000E+000	0.0000000E+000	-7.92714	0.0000000E+000	0.0000000E+000	0.0000000E+000	7.92714	7.18162	82.0729	-0.000111085	-1.54009e-06	-3.4477e-10	-1.53974e-06	0.237338	36591.8	8.19159	36583.6
0.0464052	33.3735	5.61234	33.8421	-9.54597	155.796	0.237388	-0.00783626	611096	16806.7	1	12	0.00473242	0.000139838	0	-0.000410593	-0.000309644	2.52856e-06	27.0856	0.018082	0.0160989	-0.00823313	-9.52771	33.8566	33.3896	5.60411	0.0291398	0.00490037	0.029549	9.54597	1.68067e+07	9.99402e+07	1.01344e+08	-80.454	0.0000000E+000	0.0000000E+000	0.0000000E+000	80.454	0.0000000E+000	0.0000000E+000	0.0000000E+000	-80.454	0.0000000E+000	0.0000000E+000	0.0000000E+000	-9.54597	0.0000000E+000	0.0000000E+000	0.0000000E+000	9.54597	5.94645	80.454	-0.000171878	-1.86023e-06	2.42645e-09	-1.86266e-06	0.237697	30293.5	39.5142	30333
0.0315922	34.4035	7.31717	35.173	-12.0071	222.401	0.237384	-0.00883446	688489	29796.4	1	12	0.00473121	0.000134512	0	-0.000616226	-0.000214174	3.27271e-06	3.23539	0.0243302	0.0242914	-0.00137315	-11.9967	35.1965	34.4278	7.3158	0.0278089	0.00591458	0.0284309	12.0071	2.97964e+07	1.40095e+08	1.43229e+08	-77.9929	0.0000000E+000	0.0000000E+000	0.0000000E+000	77.9929	0.0000000E+000	0.0000000E+000	0.0000000E+000	-77.9929	0.0000000E+000	0.0000000E+000	0.0000000E+000	-12.0071	0.0000000E+000	0.0000000E+000	0.0000000E+000	12.0071	4.70175	77.9929	-0.000205633	-2.09716e-06	1.89211e-09	-2.09905e-06	0.237598	26870.2	24.243	26894.5
0.0215268	35.5492	9.65685	36.8375	-15.1975	320.14	0.23739	-0.00926102	765606	52613.5	1	12	0.00473321	0.000128489	0	-0.000811734	-0.000195079	2.19795e-06	7.26232	0.0171061	0.0169689	-0.00216242	-15.1874	36.8533	35.5661	9.65469	0.0261969	0.00711633	0.0271463	15.1975	5.26135e+07	1.93683e+08	2.00702e+08	-74.8025	0.0000000E+000	0.0000000E+000	0.0000000E+000	74.8025	0.0000000E+000	0.0000000E+000	0.0000000E+000	-74.8025	0.0000000E+000	0.0000000E+000	0.0000000E+000	-15.1975	0.0000000E+000	0.0000000E+000	0.0000000E+000	15.1975	3.68124	74.8025	-0.000195507	-2.19848e-06	1.80664e-09	-2.20028e-06	0.237585	25633.3	21.0646	25654.3
0.0146812	37.0248	12.5172	39.0835	-18.6791	463.44	0.237386	-0.00982466	866070	88834	1	12	0.0047357	0.000121169	0	-0.000986314	9.13315e-05	1.32255e-06	4.80131	0.010915	0.0108767	-0.000913588	-18.6727	39.0935	37.0357	12.5163	0.0242385	0.00819445	0.0255862	18.6791	8.8834e+07	2.62764e+08	2.77374e+08	-71.3209	0.0000000E+000	0.0000000E+000	0.0000000E+000	71.3209	0.0000000E+000	0.0000000E+000	0.0000000E+000	-71.3209	0.0000000E+000	0.0000000E+000	0.0000000E+000	-18.6791	0.0000000E+000	0.0000000E+000	0.0000000E+000	18.6791	2.95792	71.3209	-0.000174581	-2.33224e-06	-8.97301e-10	-2.33134e-06	0.237295	24162.3	9.29615	24153
0.0100092	39.4628	16.203	42.6597	-22.3225	673.622	0.237392	-0.0100474	981358	141573	1	12	0.00473498	0.000110994	0	-0.00123789	1.49552e-05	3.48392e-06	0.501338	0.0313883	0.0313871	-0.000274644	-22.3062	42.6886	39.4942	16.2027	0.0216847	0.00890348	0.0234413	22.3225	1.41573e+08	3.44806e+08	3.72739e+08	-67.6775	0.0000000E+000	0.0000000E+000	0.0000000E+000	67.6775	0.0000000E+000	0.0000000E+000	0.0000000E+000	-67.6775	0.0000000E+000	0.0000000E+000	0.0000000E+000	-22.3225	0.0000000E+000	0.0000000E+000	0.0000000E+000	22.3225	2.43553	67.6775	-0.000251574	-2.38518e-06	-1.50262e-10	-2.38503e-06	0.237377	23627.1	1.48846	23625.6