File: txt/18401_R288_UA691_SOC00_C01.mpt
EC-Lab ASCII FILE
Nb header lines : 65

Potentio Electrochemical Impedance Spectroscopy

Run on channel : 1 (SN 66354)
User :
CE vs. WE compliance from -10 V to 10 V
Electrode connection : standard
Potential control : Ewe
Ewe ctrl range : min = -10.00 V, max = 10.00 V
Safety Limits :
	Do not start on E overload
Acquisition started on : 10/14/2025 16:29:59.404
Technique started on : 10/14/2025 16:30:01.326
Loaded Setting File :  NONE
Saved on :
	File : 18401_R288_UA691_SOC00_C01.mpr
	Directory : C:\Users\Celltest\OneDrive - store-dot.com\Documents\EC-Lab\Data\Charmaine\
	Host : 169.254.61.224
Device : VMP-3e (SN .003165)
Address : USB
EC-LAB for windows v11.62 (software)
Internet server v27.00 (firmware)
Command interpretor v12.03 (firmware)
Electrode material :
Initial state :
Electrolyte :
Comments :
Electrode surface area : 0.001 cm²
Characteristic mass : 0.001 g
Equivalent Weight : 0.000 g/eq.
Density : 0.000 g/cm3
Volume (V) : 0.001 cm³
Record Ece
Cycle Definition : Charge/Discharge alternance
Mode                Single sine
E (V)               0.0000
vs.                 Eoc
tE (h:m:s)          0:00:0.0000
record              0
dI                  0.000
unit dI             mA
dt (s)              0.000
fi                  100.000
unit fi             kHz
ff                  10.000
unit ff             mHz
Nd                  6
Points              per decade
spacing             Logarithmic
Va (mV)             5.0
pw                  0.10
Na                  2
corr                0
E range min (V)     -10.000
E range max (V)     10.000
I Range             Auto
Bandwidth           5
nc cycles           0
goto Ns'            0
nr cycles           0
inc. cycle          0

freq/Hz	Re(Z)/Ohm	-Im(Z)/Ohm	|Z|/Ohm	Phase(Z)/deg	time/s	<Ewe>/V	<I>/mA	Cs/µF	Cp/µF	cycle number	I Range	|Ewe|/V	|I|/A	Ns	(Q-Qo)/mA.h	<Ece>/V	|Ece|/V	Phase(Zce)/deg	|Zce|/Ohm	Re(Zce)/Ohm	-Im(Zce)/Ohm	Phase(Zwe-ce)/deg	|Zwe-ce|/Ohm	Re(Zwe-ce)/Ohm	-Im(Zwe-ce)/Ohm	Re(Y)/Ohm-1	Im(Y)/Ohm-1	|Y|/Ohm-1	Phase(Y)/deg	Re(C)/nF	Im(C)/nF	|C|/nF	Phase(C)/deg	Re(M)	Im(M)	|M|	Phase(M)/deg	Re(Permittivity)	Im(Permittivity)	|Permittivity|	Phase(Permittivity)/deg	Re(Resistivity)/Ohm.cm	Im(Resistivity)/Ohm.cm	|Resistivity|/Ohm.cm	Phase(Resistivity)/deg	Re(Conductivity)/mS/cm	Im(Conductivity)/mS/cm	|Conductivity|/mS/cm	Phase(Conductivity)/deg	Tan(Delta)	Loss Angle(Delta)/deg	dq/mA.h	Pwe/W	Pce/W	Pwe-ce/W	<Ewe-Ece>/V	Rwe/Ohm	Rce/Ohm	Rwe-ce/Ohm		Ewe-Ece/V
100004	1.10168	0.356517	1.15793	-17.9321	1.92156	0.261152	0.0827001	4.464	0.423171	1	9	0.00512892	0.00442937	0	1.19287e-05	0.000269422	3.39339e-05	58.7648	0.00766111	0.00397268	-0.0065506	-17.5638	1.15972	1.10566	0.349966	0.821654	0.265896	0.863607	17.9321	423.171	1307.65	1374.42	-72.0679	0.0000000E+000	0.0000000E+000	0.0000000E+000	72.0679	0.0000000E+000	0.0000000E+000	0.0000000E+000	-72.0679	0.0000000E+000	0.0000000E+000	0.0000000E+000	-17.9321	0.0000000E+000	0.0000000E+000	0.0000000E+000	17.9321	3.09013	72.0679	1.19287e-05	2.15973e-05	2.22812e-08	2.1575e-05	0.260883	3157.82	3.25782	3154.56
68132	1.20571	0.40241	1.27109	-18.4566	2.42856	0.261154	0.101923	5.80497	0.581813	1	9	0.00410922	0.00323283	0	1.48643e-05	-0.00028382	2.71217e-05	47.5261	0.00838945	0.00566501	-0.00618793	-18.1121	1.27453	1.21138	0.396222	0.746259	0.249066	0.786725	18.4566	581.813	1743.24	1837.77	-71.5434	0.0000000E+000	0.0000000E+000	0.0000000E+000	71.5434	0.0000000E+000	0.0000000E+000	0.0000000E+000	-71.5434	0.0000000E+000	0.0000000E+000	0.0000000E+000	-18.4566	0.0000000E+000	0.0000000E+000	0.0000000E+000	18.4566	2.99623	71.5434	2.93559e-06	2.66176e-05	-2.89279e-08	2.66466e-05	0.261437	2562.26	2.78464	2565.04
46420.4	1.31717	0.44253	1.38952	-18.5708	2.68753	0.261161	0.0977881	7.74763	0.785821	1	9	0.00490843	0.00353246	0	1.9636e-05	0.000154958	1.08664e-05	30.2793	0.00307616	0.0026565	-0.00155105	-18.4754	1.39155	1.31983	0.440979	0.682199	0.229199	0.719672	18.5708	785.821	2338.96	2467.44	-71.4292	0.0000000E+000	0.0000000E+000	0.0000000E+000	71.4292	0.0000000E+000	0.0000000E+000	0.0000000E+000	-71.4292	0.0000000E+000	0.0000000E+000	0.0000000E+000	-18.5708	0.0000000E+000	0.0000000E+000	0.0000000E+000	18.5708	2.97645	71.4292	4.7718e-06	2.55384e-05	1.51531e-08	2.55233e-05	0.261006	2670.68	1.58463	2669.1
31621.1	1.41326	0.532814	1.51037	-20.6569	3.07052	0.261075	-0.0362852	9.44642	1.17559	1	9	0.279399	0.184988	0	2.13874e-05	0.000441118	0.00021314	78.7846	0.00115219	0.000224098	-0.00113018	-20.6138	1.51018	1.41349	0.531684	0.619525	0.233567	0.662091	20.6569	1175.59	3118.18	3332.43	-69.3431	0.0000000E+000	0.0000000E+000	0.0000000E+000	69.3431	0.0000000E+000	0.0000000E+000	0.0000000E+000	-69.3431	0.0000000E+000	0.0000000E+000	0.0000000E+000	-20.6569	0.0000000E+000	0.0000000E+000	0.0000000E+000	20.6569	2.65245	69.3431	1.75139e-06	-9.47314e-06	-1.6006e-08	-9.45714e-06	0.260633	7195.07	12.157	7182.91
21544.7	1.54038	0.583239	1.6471	-20.7384	3.82556	0.261213	0.0832961	12.6658	1.58814	1	9	0.00507308	0.00308001	0	-0.000318372	0.000116803	9.05692e-06	34.3441	0.00294055	0.00242791	-0.00165894	-20.6546	1.64878	1.5428	0.58158	0.567791	0.214985	0.607129	20.7384	1588.14	4194.39	4484.99	-69.2616	0.0000000E+000	0.0000000E+000	0.0000000E+000	69.2616	0.0000000E+000	0.0000000E+000	0.0000000E+000	-69.2616	0.0000000E+000	0.0000000E+000	0.0000000E+000	-20.7384	0.0000000E+000	0.0000000E+000	0.0000000E+000	20.7384	2.64107	69.2616	-0.000339759	2.1758e-05	9.72928e-09	2.17483e-05	0.261096	3135.95	1.40227	3134.55
14678.6	1.67595	0.636247	1.79266	-20.7884	4.08455	0.261208	0.0830726	17.0416	2.14668	1	9	0.00495385	0.00276341	0	-0.000313954	-3.5815e-05	1.56768e-05	-104.142	0.00567297	-0.00138609	0.00550103	-20.9685	1.79332	1.67456	0.641748	0.521515	0.197984	0.557831	20.7884	2146.68	5654.61	6048.37	-69.2116	0.0000000E+000	0.0000000E+000	0.0000000E+000	69.2116	0.0000000E+000	0.0000000E+000	0.0000000E+000	-69.2116	0.0000000E+000	0.0000000E+000	0.0000000E+000	-20.7884	0.0000000E+000	0.0000000E+000	0.0000000E+000	20.7884	2.63412	69.2116	4.41805e-06	2.16993e-05	-2.97524e-09	2.17022e-05	0.261244	3144.34	0.431129	3144.77
10002.2	1.81701	0.702958	1.94825	-21.1503	4.34554	0.261218	0.0899274	22.6357	2.9469	1	9	0.00459142	0.00235669	0	-0.000306747	2.1417e-05	7.16906e-06	36.8609	0.003042	0.00243389	-0.00182482	-21.0745	1.94986	1.81944	0.701133	0.478706	0.185201	0.513282	21.1503	2946.9	7617.15	8167.33	-68.8497	0.0000000E+000	0.0000000E+000	0.0000000E+000	68.8497	0.0000000E+000	0.0000000E+000	0.0000000E+000	-68.8497	0.0000000E+000	0.0000000E+000	0.0000000E+000	-21.1503	0.0000000E+000	0.0000000E+000	0.0000000E+000	21.1503	2.5848	68.8497	7.20699e-06	2.34906e-05	1.92597e-09	2.34887e-05	0.261196	2904.76	0.238158	2904.53
6810.42	1.96971	0.768387	2.11428	-21.3108	4.72852	0.261199	0.0777452	30.4135	4.01698	1	9	0.00488693	0.00231139	0	-0.000297666	7.86489e-05	5.64975e-05	-60.6477	0.0244431	0.0119815	0.0213052	-21.7269	2.13324	1.9817	0.789693	0.440633	0.171891	0.472973	21.3108	4016.98	10297.3	11053.1	-68.6892	0.0000000E+000	0.0000000E+000	0.0000000E+000	68.6892	0.0000000E+000	0.0000000E+000	0.0000000E+000	-68.6892	0.0000000E+000	0.0000000E+000	0.0000000E+000	-21.3108	0.0000000E+000	0.0000000E+000	0.0000000E+000	21.3108	2.56344	68.6892	9.08106e-06	2.0307e-05	6.11458e-09	2.03009e-05	0.26112	3359.68	1.01162	3358.66
4646	2.15099	0.884143	2.32561	-22.3446	4.99362	0.261184	0.0594906	38.7452	5.60001	1	9	0.00478138	0.00205597	0	-0.000291635	7.86489e-05	5.30397e-06	-121.915	0.00257979	-0.00136383	0.00218982	-22.4073	2.32519	2.14963	0.886333	0.397708	0.163474	0.429994	22.3446	5600.01	13624	14730	-67.6554	0.0000000E+000	0.0000000E+000	0.0000000E+000	67.6554	0.0000000E+000	0.0000000E+000	0.0000000E+000	-67.6554	0.0000000E+000	0.0000000E+000	0.0000000E+000	-22.3446	0.0000000E+000	0.0000000E+000	0.0000000E+000	22.3446	2.43286	67.6554	6.03015e-06	1.5538e-05	4.67887e-09	1.55333e-05	0.261105	4390.34	1.32204	4389.01
3163.08	2.33504	1.01571	2.54639	-23.5083	5.36767	0.260996	0.00774431	49.5384	7.88188	1	9	0.00469443	0.00184357	0	-0.000291485	0.000402963	9.12995e-06	36.7166	0.00495233	0.0039698	-0.00296079	-23.4117	2.54885	2.33901	1.01275	0.360119	0.156646	0.392713	23.5083	7881.88	18119.9	19759.9	-66.4917	0.0000000E+000	0.0000000E+000	0.0000000E+000	66.4917	0.0000000E+000	0.0000000E+000	0.0000000E+000	-66.4917	0.0000000E+000	0.0000000E+000	0.0000000E+000	-23.5083	0.0000000E+000	0.0000000E+000	0.0000000E+000	23.5083	2.29893	66.4917	1.50324e-07	2.02123e-06	3.12067e-09	2.01811e-06	0.260593	33701.6	52.0334	33649.6
2155.69	2.54474	1.16343	2.79808	-24.5695	5.81882	0.261102	0.0899646	63.4589	10.9712	1	9	0.00463376	0.00165605	0	-0.000279759	9.77262e-05	6.41102e-06	-62.5754	0.00387128	0.00178303	0.00343621	-24.6182	2.80113	2.54652	1.16687	0.325029	0.1486	0.357388	24.5695	10971.2	23996.9	26386	-65.4305	0.0000000E+000	0.0000000E+000	0.0000000E+000	65.4305	0.0000000E+000	0.0000000E+000	0.0000000E+000	-65.4305	0.0000000E+000	0.0000000E+000	0.0000000E+000	-24.5695	0.0000000E+000	0.0000000E+000	0.0000000E+000	24.5695	2.18727	65.4305	1.17265e-05	2.349e-05	8.7919e-09	2.34812e-05	0.261005	2902.28	1.08627	2901.19
1468.59	2.78048	1.37186	3.10049	-26.2613	6.27009	0.261091	0.0782295	78.9967	15.4657	1	9	0.00461178	0.00148743	0	-0.000271542	0.000231267	9.22493e-06	-3.31829	0.00620191	0.00619151	0.000358984	-26.2167	3.10621	2.78667	1.37222	0.289239	0.142708	0.322529	26.2613	15465.7	31345.6	34953.3	-63.7387	0.0000000E+000	0.0000000E+000	0.0000000E+000	63.7387	0.0000000E+000	0.0000000E+000	0.0000000E+000	-63.7387	0.0000000E+000	0.0000000E+000	0.0000000E+000	-26.2613	0.0000000E+000	0.0000000E+000	0.0000000E+000	26.2613	2.02679	63.7387	8.21647e-06	2.0425e-05	1.80919e-08	2.04069e-05	0.260859	3337.49	2.95627	3334.54
1000.32	3.05579	1.64333	3.46964	-28.2702	6.96585	0.261113	-0.0166524	96.8182	21.7188	1	10	0.00469473	0.00135309	0	-0.000267296	7.86489e-05	6.42054e-06	61.4712	0.0047451	0.00226626	-0.00416894	-28.1919	3.46966	3.05806	1.63916	0.253837	0.136507	0.288214	28.2702	21718.8	40386.5	45856.1	-61.7298	0.0000000E+000	0.0000000E+000	0.0000000E+000	61.7298	0.0000000E+000	0.0000000E+000	0.0000000E+000	-61.7298	0.0000000E+000	0.0000000E+000	0.0000000E+000	-28.2702	0.0000000E+000	0.0000000E+000	0.0000000E+000	28.2702	1.85952	61.7298	4.24666e-06	-4.34815e-06	-1.30969e-09	-4.34684e-06	0.261034	15680.2	4.72298	15675.5
681.09	3.37644	1.99784	3.92323	-30.6128	7.41655	0.261109	-0.0159704	116.965	30.3312	1	10	0.00464387	0.00118369	0	-0.000270174	0.000174035	7.16058e-06	-95.1916	0.00604939	-0.000547389	0.00602457	-30.6925	3.92583	3.3759	2.00387	0.219367	0.1298	0.254892	30.6128	30331.2	51261.1	59562.4	-59.3872	0.0000000E+000	0.0000000E+000	0.0000000E+000	59.3872	0.0000000E+000	0.0000000E+000	0.0000000E+000	-59.3872	0.0000000E+000	0.0000000E+000	0.0000000E+000	-30.6128	0.0000000E+000	0.0000000E+000	0.0000000E+000	30.6128	1.69005	59.3872	-2.8788e-06	-4.17001e-06	-2.77941e-09	-4.16723e-06	0.260935	16349.6	10.8974	16338.7
463.961	3.81146	2.4722	4.54301	-32.9684	7.86829	0.261124	-0.0155641	138.757	41.0898	1	10	0.00462325	0.00101766	0	-0.00027137	0.000116803	8.29609e-06	-83.7365	0.00815212	0.000889404	0.00810346	-33.048	4.54818	3.81235	2.48031	0.184673	0.119783	0.220118	32.9684	41089.8	63349.3	75508.3	-57.0316	0.0000000E+000	0.0000000E+000	0.0000000E+000	57.0316	0.0000000E+000	0.0000000E+000	0.0000000E+000	-57.0316	0.0000000E+000	0.0000000E+000	0.0000000E+000	-32.9684	0.0000000E+000	0.0000000E+000	0.0000000E+000	32.9684	1.54173	57.0316	-1.19521e-06	-4.06417e-06	-1.81795e-09	-4.06235e-06	0.261007	16777.3	7.50466	16769.8
316.316	4.37654	3.04798	5.33332	-34.8547	8.31607	0.261115	-0.0166002	165.077	53.9158	1	10	0.00459414	0.000861405	0	-0.000273978	0.000269422	6.69657e-06	-41.3892	0.00777401	0.00583234	0.00513994	-34.8642	5.34104	4.38237	3.05312	0.153864	0.107156	0.187501	34.8547	53915.8	77416.8	94341.3	-55.1453	0.0000000E+000	0.0000000E+000	0.0000000E+000	55.1453	0.0000000E+000	0.0000000E+000	0.0000000E+000	-55.1453	0.0000000E+000	0.0000000E+000	0.0000000E+000	-34.8547	0.0000000E+000	0.0000000E+000	0.0000000E+000	34.8547	1.43588	55.1453	-2.60866e-06	-4.33457e-06	-4.47246e-09	-4.3301e-06	0.260846	15729.6	16.23	15713.4
215.345	5.17774	3.68776	6.35677	-35.4598	8.76656	0.261109	-0.0169729	200.412	67.4491	1	10	0.00457638	0.000719922	0	-0.000275906	-0.000226588	6.74462e-06	-120.009	0.00936854	-0.00468559	0.00811264	-35.5438	6.35767	5.17305	3.69587	0.128135	0.0912619	0.157313	35.4598	67449.1	94700.7	116265	-54.5402	0.0000000E+000	0.0000000E+000	0.0000000E+000	54.5402	0.0000000E+000	0.0000000E+000	0.0000000E+000	-54.5402	0.0000000E+000	0.0000000E+000	0.0000000E+000	-35.4598	0.0000000E+000	0.0000000E+000	0.0000000E+000	35.4598	1.40403	54.5402	-1.92783e-06	-4.43178e-06	3.84586e-09	-4.43563e-06	0.261335	15383.8	13.35	15397.2
146.737	6.23924	4.33268	7.59606	-34.7771	9.21247	0.261103	-0.0188886	250.336	81.444	1	10	0.00457016	0.000601649	0	-0.000277165	4.04943e-05	5.36891e-06	-137.653	0.00892367	-0.00659529	0.00601116	-34.8427	7.59408	6.23264	4.33869	0.108132	0.0750896	0.131647	34.7771	81444	117283	142788	-55.2229	0.0000000E+000	0.0000000E+000	0.0000000E+000	55.2229	0.0000000E+000	0.0000000E+000	0.0000000E+000	-55.2229	0.0000000E+000	0.0000000E+000	0.0000000E+000	-34.7771	0.0000000E+000	0.0000000E+000	0.0000000E+000	34.7771	1.44004	55.2229	-1.25858e-06	-4.93187e-06	-7.64879e-10	-4.93111e-06	0.261063	13823.4	2.14385	13821.2
100.032	7.56679	4.86534	8.99599	-32.7404	9.66384	0.261106	-0.0175469	327.015	95.6524	1	10	0.00456884	0.000507875	0	-0.000279772	2.1417e-05	8.75526e-06	-22.9932	0.017239	0.0158694	0.00673395	-32.7219	9.01298	7.58266	4.87207	0.0935004	0.0601194	0.111161	32.7404	95652.4	148763	176861	-57.2596	0.0000000E+000	0.0000000E+000	0.0000000E+000	57.2596	0.0000000E+000	0.0000000E+000	0.0000000E+000	-57.2596	0.0000000E+000	0.0000000E+000	0.0000000E+000	-32.7404	0.0000000E+000	0.0000000E+000	0.0000000E+000	32.7404	1.55524	57.2596	-2.60721e-06	-4.58159e-06	-3.75801e-10	-4.58122e-06	0.261084	14880.5	1.22056	14879.2
68.104	9.07856	5.17128	10.4481	-29.6665	10.1265	0.26111	-0.014174	451.908	110.706	1	10	0.00456666	0.000437081	0	-0.000281839	-3.5815e-05	3.00586e-06	-9.32414	0.00687711	0.00678625	0.00111423	-29.6533	10.4545	9.08534	5.17239	0.0831657	0.0473724	0.0957114	29.6665	110706	194353	223672	-60.3335	0.0000000E+000	0.0000000E+000	0.0000000E+000	60.3335	0.0000000E+000	0.0000000E+000	0.0000000E+000	-60.3335	0.0000000E+000	0.0000000E+000	0.0000000E+000	-29.6665	0.0000000E+000	0.0000000E+000	0.0000000E+000	29.6665	1.75557	60.3335	-2.06759e-06	-3.70098e-06	5.07642e-10	-3.70149e-06	0.261146	18421.8	2.52681	18424.3
46.4415	10.6016	5.23868	11.8253	-26.2958	10.5636	0.261108	-0.0197681	654.172	128.383	1	10	0.00455674	0.000385337	0	-0.000283713	0.000269422	6.12182e-06	-16.6337	0.0158869	0.0152221	0.00454767	-26.2829	11.841	10.6169	5.24323	0.0758135	0.0374624	0.0845643	26.2958	128383	259812	289801	-63.7042	0.0000000E+000	0.0000000E+000	0.0000000E+000	63.7042	0.0000000E+000	0.0000000E+000	0.0000000E+000	-63.7042	0.0000000E+000	0.0000000E+000	0.0000000E+000	-26.2958	0.0000000E+000	0.0000000E+000	0.0000000E+000	26.2958	2.02372	63.7042	-1.87374e-06	-5.16163e-06	-5.32597e-09	-5.1563e-06	0.260839	13208.5	13.6291	13194.9
31.6296	12.1358	5.08031	13.1562	-22.7153	10.9936	0.261114	-0.0199582	990.459	147.691	1	10	0.00455536	0.000346251	0	-0.000286178	0.000154958	5.71208e-06	-66.02	0.0164969	0.00670466	0.015073	-22.7645	13.1682	12.1425	5.09539	0.0701139	0.0293513	0.0760096	22.7153	147691	352802	382468	-67.2847	0.0000000E+000	0.0000000E+000	0.0000000E+000	67.2847	0.0000000E+000	0.0000000E+000	0.0000000E+000	-67.2847	0.0000000E+000	0.0000000E+000	0.0000000E+000	-22.7153	0.0000000E+000	0.0000000E+000	0.0000000E+000	22.7153	2.38878	67.2847	-2.46519e-06	-5.21137e-06	-3.09269e-09	-5.20827e-06	0.260959	13083	7.76413	13075.3
21.5517	13.52	4.79627	14.3456	-19.5323	11.4145	0.261103	-0.0213633	1539.69	172.11	1	10	0.00458042	0.000319291	0	-0.000288702	0.000517427	3.10324e-05	-27.3674	0.0971915	0.0863135	0.0446784	-19.5849	14.4419	13.6064	4.84095	0.0656964	0.023306	0.0697079	19.5323	172110	485154	514778	-70.4677	0.0000000E+000	0.0000000E+000	0.0000000E+000	70.4677	0.0000000E+000	0.0000000E+000	0.0000000E+000	-70.4677	0.0000000E+000	0.0000000E+000	0.0000000E+000	-19.5323	0.0000000E+000	0.0000000E+000	0.0000000E+000	19.5323	2.81886	70.4677	-2.52381e-06	-5.57802e-06	-1.10539e-08	-5.56696e-06	0.260586	12222	24.2204	12197.8
14.6852	14.7462	4.4085	15.3911	-16.6445	12.1242	0.261164	-0.00516101	2458.39	201.695	1	11	0.00456136	0.000296364	0	-0.000292871	0.000116803	5.14782e-06	44.0905	0.0173699	0.0124758	-0.0120859	-16.5881	15.3996	14.7587	4.39642	0.0622505	0.0186103	0.0649728	16.6445	201695	674659	704163	-73.3555	0.0000000E+000	0.0000000E+000	0.0000000E+000	73.3555	0.0000000E+000	0.0000000E+000	0.0000000E+000	-73.3555	0.0000000E+000	0.0000000E+000	0.0000000E+000	-16.6445	0.0000000E+000	0.0000000E+000	0.0000000E+000	16.6445	3.34494	73.3555	-4.16878e-06	-1.34787e-06	-6.02824e-10	-1.34727e-06	0.261047	50603.2	22.6319	50580.6
10.0032	15.8062	3.99488	16.3032	-14.184	12.5758	0.26115	-0.00538817	3982.7	239.133	1	11	0.0045604	0.000279724	0	-0.000291982	0.000154958	8.11726e-06	75.3529	0.0290188	0.00733781	-0.0280757	-14.082	16.3034	15.8135	3.9668	0.0594678	0.01503	0.0613377	14.184	239133	946156	975907	-75.816	0.0000000E+000	0.0000000E+000	0.0000000E+000	75.816	0.0000000E+000	0.0000000E+000	0.0000000E+000	-75.816	0.0000000E+000	0.0000000E+000	0.0000000E+000	-14.184	0.0000000E+000	0.0000000E+000	0.0000000E+000	14.184	3.95661	75.816	8.89342e-07	-1.40712e-06	-8.34941e-10	-1.40628e-06	0.260995	48467.3	28.759	48438.5
6.81719	16.7054	3.53913	17.0762	-11.9616	13.0775	0.261188	-0.0036707	6596.57	283.354	1	11	0.00503627	0.000294929	0	-0.000294176	0.000116803	8.16896e-05	-43.9884	0.27698	0.199282	0.192366	-12.4477	17.3116	16.9047	3.7315	0.0572895	0.0121371	0.0585611	11.9616	283354	1.33749e+06	1.36717e+06	-78.0384	0.0000000E+000	0.0000000E+000	0.0000000E+000	78.0384	0.0000000E+000	0.0000000E+000	0.0000000E+000	-78.0384	0.0000000E+000	0.0000000E+000	0.0000000E+000	-11.9616	0.0000000E+000	0.0000000E+000	0.0000000E+000	11.9616	4.7202	78.0384	-2.19423e-06	-9.58744e-07	-4.28751e-10	-9.58315e-07	0.261072	71154.9	31.8205	71123.1
4.63925	17.5902	3.18847	17.8768	-10.2741	13.5614	0.261178	-0.00471898	10759.4	342.274	1	11	0.00505601	0.000282825	0	-0.000295963	2.33964e-06	3.95512e-05	-16.2583	0.139843	0.134251	0.0391518	-10.3205	18.0159	17.7244	3.22762	0.0550414	0.00997705	0.0559384	10.2741	342274	1.88826e+06	1.91903e+06	-79.7259	0.0000000E+000	0.0000000E+000	0.0000000E+000	79.7259	0.0000000E+000	0.0000000E+000	0.0000000E+000	-79.7259	0.0000000E+000	0.0000000E+000	0.0000000E+000	-10.2741	0.0000000E+000	0.0000000E+000	0.0000000E+000	10.2741	5.5168	79.7259	-1.78733e-06	-1.23249e-06	-1.10407e-11	-1.23248e-06	0.261175	55346.2	0.495794	55345.7
3.1604	18.2794	2.92645	18.5122	-9.09561	14.2544	0.261168	-0.0043425	17208.3	430.036	1	11	0.00505599	0.000273117	0	-0.000293444	-0.000150279	1.6902e-06	63.4594	0.00618857	0.00276525	-0.00553641	-9.07734	18.514	18.2821	2.92091	0.0533393	0.00853939	0.0540186	9.09561	430036	2.68612e+06	2.72033e+06	-80.9044	0.0000000E+000	0.0000000E+000	0.0000000E+000	80.9044	0.0000000E+000	0.0000000E+000	0.0000000E+000	-80.9044	0.0000000E+000	0.0000000E+000	0.0000000E+000	-9.09561	0.0000000E+000	0.0000000E+000	0.0000000E+000	9.09561	6.24627	80.9044	2.51886e-06	-1.13412e-06	6.52585e-10	-1.13477e-06	0.261318	60142.4	34.6066	60177
2.15577	18.9145	2.61738	19.0947	-7.87854	15.258	0.261169	-0.00332512	28206.6	529.979	1	11	0.00505331	0.000264645	0	-0.000290558	0.000231267	2.22867e-06	35.6687	0.00842137	0.00684154	-0.00491048	-7.86114	19.1008	18.9213	2.61247	0.0518762	0.00717862	0.0523705	7.87854	529979	3.82989e+06	3.86639e+06	-82.1215	0.0000000E+000	0.0000000E+000	0.0000000E+000	82.1215	0.0000000E+000	0.0000000E+000	0.0000000E+000	-82.1215	0.0000000E+000	0.0000000E+000	0.0000000E+000	-7.87854	0.0000000E+000	0.0000000E+000	0.0000000E+000	7.87854	7.22649	82.1215	2.88579e-06	-8.6842e-07	-7.68992e-10	-8.67651e-07	0.260938	78544.3	69.5515	78474.8
1.46631	19.5076	2.40889	19.6558	-7.0395	16.7194	0.261163	-0.00284181	45058.6	676.752	1	11	0.00505526	0.000257189	0	-0.000292076	9.77262e-05	1.84773e-06	62.2809	0.00718431	0.00334169	-0.00635982	-7.01991	19.6583	19.511	2.40253	0.0504921	0.00623499	0.0508756	7.0395	676752	5.48047e+06	5.5221e+06	-82.9605	0.0000000E+000	0.0000000E+000	0.0000000E+000	82.9605	0.0000000E+000	0.0000000E+000	0.0000000E+000	-82.9605	0.0000000E+000	0.0000000E+000	0.0000000E+000	-7.0395	0.0000000E+000	0.0000000E+000	0.0000000E+000	7.0395	8.09819	82.9605	-1.51769e-06	-7.42175e-07	-2.7772e-10	-7.41898e-07	0.261065	91900	34.3887	91865.6
1.00006	20.0612	2.25027	20.187	-6.40012	19.8928	0.261159	-0.0034686	70722.6	878.786	1	12	0.00505696	0.000250506	0	-0.000301962	0.000135881	3.63422e-06	-57.1713	0.0145075	0.00786495	0.0121906	-6.43201	20.1962	20.069	2.26246	0.0492281	0.00552193	0.0495368	6.40012	878786	7.8344e+06	7.88353e+06	-83.5999	0.0000000E+000	0.0000000E+000	0.0000000E+000	83.5999	0.0000000E+000	0.0000000E+000	0.0000000E+000	-83.5999	0.0000000E+000	0.0000000E+000	0.0000000E+000	-6.40012	0.0000000E+000	0.0000000E+000	0.0000000E+000	6.40012	8.91503	83.5999	-9.88586e-06	-9.05854e-07	-4.71316e-10	-9.05383e-07	0.261023	75292.3	39.1746	75253.1
0.681362	20.5674	2.17374	20.682	-6.03311	23.0047	0.261168	-0.00312642	107457	1187.04	1	12	0.00505688	0.000244507	0	-0.000315109	0.000250345	3.47082e-06	-11.4549	0.0141952	0.0139124	0.00281912	-6.03682	20.6961	20.5813	2.17656	0.0480835	0.00508187	0.0483513	6.03311	1.18704e+06	1.12315e+07	1.12941e+07	-83.9669	0.0000000E+000	0.0000000E+000	0.0000000E+000	83.9669	0.0000000E+000	0.0000000E+000	0.0000000E+000	-83.9669	0.0000000E+000	0.0000000E+000	0.0000000E+000	-6.03311	0.0000000E+000	0.0000000E+000	0.0000000E+000	6.03311	9.46176	83.9669	-1.31468e-05	-8.16519e-07	-7.82682e-10	-8.15737e-07	0.260917	83535.7	80.0739	83455.6
0.464091	21.1122	2.21021	21.2276	-5.97644	27.5613	0.261161	-0.00433512	155162	1682.09	1	12	0.00505773	0.000238262	0	-0.000327172	-0.000302897	2.74817e-06	-7.46299	0.0115342	0.0114365	0.00149813	-5.97725	21.2391	21.1236	2.2117	0.0468525	0.00490492	0.0471085	5.97644	1.68209e+06	1.60676e+07	1.61554e+07	-84.0236	0.0000000E+000	0.0000000E+000	0.0000000E+000	84.0236	0.0000000E+000	0.0000000E+000	0.0000000E+000	-84.0236	0.0000000E+000	0.0000000E+000	0.0000000E+000	-5.97644	0.0000000E+000	0.0000000E+000	0.0000000E+000	5.97644	9.55214	84.0236	-1.20632e-05	-1.13217e-06	1.3131e-09	-1.13348e-06	0.261464	60243.1	69.8705	60313
0.316193	21.6743	2.41125	21.808	-6.34802	34.2357	0.261166	-0.00505094	208749	2551.98	1	12	0.00505692	0.000231883	0	-0.000330672	0.000231267	1.91438e-06	9.34264	0.0082558	0.00814629	-0.00134023	-6.34215	21.816	21.6825	2.40991	0.0455735	0.00507002	0.0458547	6.34802	2.55198e+06	2.29393e+07	2.30808e+07	-83.652	0.0000000E+000	0.0000000E+000	0.0000000E+000	83.652	0.0000000E+000	0.0000000E+000	0.0000000E+000	-83.652	0.0000000E+000	0.0000000E+000	0.0000000E+000	-6.34802	0.0000000E+000	0.0000000E+000	0.0000000E+000	6.34802	8.98882	83.652	-3.50003e-06	-1.31913e-06	-1.16812e-09	-1.31796e-06	0.260935	51706.4	45.787	51660.6
0.215268	22.3335	2.71566	22.498	-6.9329	44.028	0.261161	-0.00541153	272249	3966.7	1	12	0.00505912	0.00022487	0	-0.000320226	-5.48923e-05	3.58804e-06	-39.0429	0.0159561	0.0123927	0.0100508	-6.95448	22.5115	22.3459	2.72571	0.0441234	0.00536523	0.0444484	6.9329	3.9667e+06	3.2622e+07	3.28623e+07	-83.0671	0.0000000E+000	0.0000000E+000	0.0000000E+000	83.0671	0.0000000E+000	0.0000000E+000	0.0000000E+000	-83.0671	0.0000000E+000	0.0000000E+000	0.0000000E+000	-6.9329	0.0000000E+000	0.0000000E+000	0.0000000E+000	6.9329	8.22396	83.0671	1.04461e-05	-1.41328e-06	2.97051e-10	-1.41358e-06	0.261216	48260.1	10.1436	48270.2
0.146929	23.1853	3.15878	23.3994	-7.75826	58.3664	0.261158	-0.00496501	342921	6249.16	1	12	0.00505896	0.0002162	0	-0.000298216	9.77262e-05	2.39595e-06	-25.9265	0.0110821	0.00996675	0.0048453	-7.76672	23.41	23.1952	3.16362	0.0423449	0.0057691	0.0427361	7.75826	6.24916e+06	4.58685e+07	4.62922e+07	-82.2417	0.0000000E+000	0.0000000E+000	0.0000000E+000	82.2417	0.0000000E+000	0.0000000E+000	0.0000000E+000	-82.2417	0.0000000E+000	0.0000000E+000	0.0000000E+000	-7.75826	0.0000000E+000	0.0000000E+000	0.0000000E+000	7.75826	7.33994	82.2417	2.20094e-05	-1.29665e-06	-4.85211e-10	-1.29616e-06	0.26106	52599.7	19.683	52580
0.0999041	24.2919	3.83695	24.5931	-8.97581	79.4435	0.261161	-0.00393977	415193	10106.4	1	12	0.00505575	0.000205576	0	-0.000279557	0.000193113	1.9334e-06	-6.9291	0.00940477	0.00933608	0.0011346	-8.97503	24.6025	24.3013	3.83809	0.0401639	0.00634396	0.0406618	8.97581	1.01064e+07	6.39842e+07	6.47775e+07	-81.0242	0.0000000E+000	0.0000000E+000	0.0000000E+000	81.0242	0.0000000E+000	0.0000000E+000	0.0000000E+000	-81.0242	0.0000000E+000	0.0000000E+000	0.0000000E+000	-8.97581	0.0000000E+000	0.0000000E+000	0.0000000E+000	8.97581	6.33105	81.0242	1.86591e-05	-1.02892e-06	-7.6082e-10	-1.02816e-06	0.260968	66288.5	49.0162	66239.4
0.0680626	25.625	4.79285	26.0694	-10.5941	110.371	0.261159	-0.00305772	487885	16490.9	1	12	0.00505668	0.00019397	0	-0.000290604	0.00021219	4.30823e-06	-36.3456	0.0222108	0.0178898	0.0131633	-10.6153	26.0894	25.6429	4.80602	0.0377053	0.00705234	0.0383592	10.5941	1.64909e+07	8.81687e+07	8.96976e+07	-79.4059	0.0000000E+000	0.0000000E+000	0.0000000E+000	79.4059	0.0000000E+000	0.0000000E+000	0.0000000E+000	-79.4059	0.0000000E+000	0.0000000E+000	0.0000000E+000	-10.5941	0.0000000E+000	0.0000000E+000	0.0000000E+000	10.5941	5.3465	79.4059	-1.10462e-05	-7.98549e-07	-6.48817e-10	-7.979e-07	0.260946	85409.7	69.3949	85340.3
0.0464052	27.1303	6.00063	27.7859	-12.4718	155.722	0.261162	-0.0023905	571553	26656.3	1	12	0.00505583	0.000181956	0	-0.000376329	0.000231267	2.05234e-06	19.6702	0.0112793	0.0106211	-0.00379667	-12.4594	27.7955	27.1409	5.99683	0.0351402	0.00777225	0.0359894	12.4718	2.66563e+07	1.2052e+08	1.23432e+08	-77.5282	0.0000000E+000	0.0000000E+000	0.0000000E+000	77.5282	0.0000000E+000	0.0000000E+000	0.0000000E+000	-77.5282	0.0000000E+000	0.0000000E+000	0.0000000E+000	-12.4718	0.0000000E+000	0.0000000E+000	0.0000000E+000	12.4718	4.52123	77.5282	-8.5725e-05	-6.24307e-07	-5.52844e-10	-6.23754e-07	0.26093	109250	96.7444	109153
0.0315922	28.9024	7.45309	29.8479	-14.4599	222.328	0.261158	-0.00256449	675933	42145.3	1	12	0.00505758	0.000169445	0	-0.000567902	0.000574659	2.64148e-06	47.0283	0.015589	0.010626	-0.0114063	-14.4336	29.8553	28.913	7.44169	0.0324419	0.00836583	0.0335032	14.4599	4.21453e+07	1.63436e+08	1.68782e+08	-75.5401	0.0000000E+000	0.0000000E+000	0.0000000E+000	75.5401	0.0000000E+000	0.0000000E+000	0.0000000E+000	-75.5401	0.0000000E+000	0.0000000E+000	0.0000000E+000	-14.4599	0.0000000E+000	0.0000000E+000	0.0000000E+000	14.4599	3.87791	75.5401	-0.000191574	-6.69735e-07	-1.4737e-09	-6.68261e-07	0.260583	101836	224.083	101612
0.0215268	31.0338	9.31743	32.4024	-16.7116	320.065	0.261158	-0.00314354	793497	65612	1	12	0.00505569	0.000156028	0	-0.000851914	2.33964e-06	3.71139e-06	17.3838	0.0237866	0.0227002	-0.00710674	-16.688	32.4221	31.0565	9.31032	0.0295585	0.00887447	0.0308619	16.7116	6.5612e+07	2.18536e+08	2.28173e+08	-73.2884	0.0000000E+000	0.0000000E+000	0.0000000E+000	73.2884	0.0000000E+000	0.0000000E+000	0.0000000E+000	-73.2884	0.0000000E+000	0.0000000E+000	0.0000000E+000	-16.7116	0.0000000E+000	0.0000000E+000	0.0000000E+000	16.7116	3.33073	73.2884	-0.000284012	-8.20959e-07	-7.35475e-12	-8.20952e-07	0.261156	83077.8	0.744272	83077
0.0146812	33.4158	11.9528	35.4892	-19.6821	463.368	0.261161	-0.00386031	906963	102881	1	12	0.00505747	0.000142507	0	-0.00115193	-0.000112124	3.44312e-06	-9.97587	0.024161	0.0237957	0.0041855	-19.6755	35.513	33.4396	11.957	0.0265313	0.00949024	0.0281776	19.6821	1.02881e+08	2.87619e+08	3.05466e+08	-70.3179	0.0000000E+000	0.0000000E+000	0.0000000E+000	70.3179	0.0000000E+000	0.0000000E+000	0.0000000E+000	-70.3179	0.0000000E+000	0.0000000E+000	0.0000000E+000	-19.6821	0.0000000E+000	0.0000000E+000	0.0000000E+000	19.6821	2.79564	70.3179	-0.000300012	-1.00816e-06	4.32834e-10	-1.0086e-06	0.261273	67652.9	29.0454	67682
0.0100092	35.8344	15.4416	39.0198	-23.312	673.549	0.261159	-0.00406148	1.02975e+06	161266	1	12	0.00505891	0.00012965	0	-0.00133553	0.000383886	2.63495e-06	17.6379	0.0203236	0.0193682	-0.00615808	-23.2924	39.0352	35.8537	15.4354	0.0235358	0.010142	0.025628	23.312	1.61266e+08	3.74241e+08	4.07509e+08	-66.688	0.0000000E+000	0.0000000E+000	0.0000000E+000	66.688	0.0000000E+000	0.0000000E+000	0.0000000E+000	-66.688	0.0000000E+000	0.0000000E+000	0.0000000E+000	-23.312	0.0000000E+000	0.0000000E+000	0.0000000E+000	23.312	2.32064	66.688	-0.000183607	-1.06069e-06	-1.55915e-09	-1.05913e-06	0.260775	64301.3	94.5186	64206.8