File: txt/18405_R288_UA691_SOC00_C05.mpt
EC-Lab ASCII FILE
Nb header lines : 65

Potentio Electrochemical Impedance Spectroscopy

Run on channel : 5 (SN 65912)
User :
CE vs. WE compliance from -10 V to 10 V
Electrode connection : standard
Potential control : Ewe
Ewe ctrl range : min = -10.00 V, max = 10.00 V
Safety Limits :
	Do not start on E overload
Acquisition started on : 10/14/2025 16:30:49.005
Technique started on : 10/14/2025 16:30:50.731
Loaded Setting File :  NONE
Saved on :
	File : 18405_R288_UA691_SOC00_C05.mpr
	Directory : C:\Users\Celltest\OneDrive - store-dot.com\Documents\EC-Lab\Data\Charmaine\
	Host : 169.254.61.224
Device : VMP-3e (SN .003165)
Address : USB
EC-LAB for windows v11.62 (software)
Internet server v27.00 (firmware)
Command interpretor v12.03 (firmware)
Electrode material :
Initial state :
Electrolyte :
Comments :
Electrode surface area : 0.001 cm²
Characteristic mass : 0.001 g
Equivalent Weight : 0.000 g/eq.
Density : 0.000 g/cm3
Volume (V) : 0.001 cm³
Record Ece
Cycle Definition : Charge/Discharge alternance
Mode                Single sine
E (V)               0.0000
vs.                 Eoc
tE (h:m:s)          0:00:0.0000
record              0
dI                  0.000
unit dI             mA
dt (s)              0.000
fi                  100.000
unit fi             kHz
ff                  10.000
unit ff             mHz
Nd                  6
Points              per decade
spacing             Logarithmic
Va (mV)             5.0
pw                  0.10
Na                  2
corr                0
E range min (V)     -10.000
E range max (V)     10.000
I Range             Auto
Bandwidth           5
nc cycles           0
goto Ns'            0
nr cycles           0
inc. cycle          0

freq/Hz	Re(Z)/Ohm	-Im(Z)/Ohm	|Z|/Ohm	Phase(Z)/deg	time/s	<Ewe>/V	<I>/mA	Cs/µF	Cp/µF	cycle number	I Range	|Ewe|/V	|I|/A	Ns	(Q-Qo)/mA.h	<Ece>/V	|Ece|/V	Phase(Zce)/deg	|Zce|/Ohm	Re(Zce)/Ohm	-Im(Zce)/Ohm	Phase(Zwe-ce)/deg	|Zwe-ce|/Ohm	Re(Zwe-ce)/Ohm	-Im(Zwe-ce)/Ohm	Re(Y)/Ohm-1	Im(Y)/Ohm-1	|Y|/Ohm-1	Phase(Y)/deg	Re(C)/nF	Im(C)/nF	|C|/nF	Phase(C)/deg	Re(M)	Im(M)	|M|	Phase(M)/deg	Re(Permittivity)	Im(Permittivity)	|Permittivity|	Phase(Permittivity)/deg	Re(Resistivity)/Ohm.cm	Im(Resistivity)/Ohm.cm	|Resistivity|/Ohm.cm	Phase(Resistivity)/deg	Re(Conductivity)/mS/cm	Im(Conductivity)/mS/cm	|Conductivity|/mS/cm	Phase(Conductivity)/deg	Tan(Delta)	Loss Angle(Delta)/deg	dq/mA.h	Pwe/W	Pce/W	Pwe-ce/W	<Ewe-Ece>/V	Rwe/Ohm	Rce/Ohm	Rwe-ce/Ohm		Ewe-Ece/V
100004	1.26371	0.376993	1.31875	-16.611	1.72552	0.262161	-0.0195352	4.22154	0.344997	1	9	0.00457506	0.00346925	0	-8.73816e-06	-0.000117823	3.9092e-05	87.8643	0.0112681	0.000419926	-0.0112603	-16.136	1.31598	1.26413	0.365733	0.726651	0.216776	0.758296	16.611	344.997	1156.46	1206.82	-73.389	0.0000000E+000	0.0000000E+000	0.0000000E+000	73.389	0.0000000E+000	0.0000000E+000	0.0000000E+000	-73.389	0.0000000E+000	0.0000000E+000	0.0000000E+000	-16.611	0.0000000E+000	0.0000000E+000	0.0000000E+000	16.611	3.35208	73.389	-8.73816e-06	-5.12136e-06	2.30169e-09	-5.12366e-06	0.262279	13419.9	6.03131	13426
68132	1.36558	0.42736	1.43089	-17.3776	2.23155	0.262149	-0.0165932	5.46606	0.487586	1	9	0.00505763	0.00353461	0	-1.78034e-05	-7.96403e-05	3.51672e-05	80.6049	0.00994938	0.00162415	-0.00981592	-16.9827	1.42954	1.3672	0.417544	0.666968	0.208729	0.698867	17.3776	487.586	1558.02	1632.54	-72.6224	0.0000000E+000	0.0000000E+000	0.0000000E+000	72.6224	0.0000000E+000	0.0000000E+000	0.0000000E+000	-72.6224	0.0000000E+000	0.0000000E+000	0.0000000E+000	-17.3776	0.0000000E+000	0.0000000E+000	0.0000000E+000	17.3776	3.19538	72.6224	-9.06527e-06	-4.3499e-06	1.32149e-09	-4.35122e-06	0.262229	15798.6	4.79957	15803.4
46420.4	1.48134	0.481028	1.55748	-17.9899	2.73854	0.262132	-0.02743	7.12757	0.679883	1	9	0.00503547	0.00323308	0	-1.99374e-05	7.30894e-05	2.2091e-05	54.8139	0.00683281	0.0039373	-0.00558435	-17.7501	1.55952	1.48528	0.475444	0.610671	0.1983	0.642061	17.9899	679.883	2093.72	2201.34	-72.0101	0.0000000E+000	0.0000000E+000	0.0000000E+000	72.0101	0.0000000E+000	0.0000000E+000	0.0000000E+000	-72.0101	0.0000000E+000	0.0000000E+000	0.0000000E+000	-17.9899	0.0000000E+000	0.0000000E+000	0.0000000E+000	17.9899	3.07953	72.0101	-2.13393e-06	-7.19029e-06	-2.00484e-09	-7.18828e-06	0.262059	9556.4	2.66458	9553.73
31621.1	1.59688	0.533158	1.68353	-18.4629	3.24752	0.262126	-0.0264245	9.44033	0.946794	1	9	0.00502477	0.00298466	0	-1.5048e-05	-0.00023237	9.03543e-06	40.1771	0.00302729	0.00231301	-0.00195306	-18.375	1.68511	1.59919	0.531205	0.563416	0.188111	0.593989	18.4629	946.794	2835.78	2989.66	-71.5371	0.0000000E+000	0.0000000E+000	0.0000000E+000	71.5371	0.0000000E+000	0.0000000E+000	0.0000000E+000	-71.5371	0.0000000E+000	0.0000000E+000	0.0000000E+000	-18.4629	0.0000000E+000	0.0000000E+000	0.0000000E+000	18.4629	2.99513	71.5371	4.88936e-06	-6.92656e-06	6.14027e-09	-6.9327e-06	0.262358	9919.8	8.79372	9928.59
21544.7	1.72988	0.592103	1.82841	-18.895	3.63053	0.262138	-0.0196841	12.4762	1.30837	1	9	0.00533636	0.00291858	0	-1.55954e-05	0.000130363	2.55945e-06	-117.713	0.000876952	-0.000407816	0.000776357	-18.9222	1.82827	1.72947	0.59288	0.517452	0.177113	0.546924	18.895	1308.37	3822.52	4040.24	-71.105	0.0000000E+000	0.0000000E+000	0.0000000E+000	71.105	0.0000000E+000	0.0000000E+000	0.0000000E+000	-71.105	0.0000000E+000	0.0000000E+000	0.0000000E+000	-18.895	0.0000000E+000	0.0000000E+000	0.0000000E+000	18.895	2.92159	71.105	-5.47403e-07	-5.15995e-06	-2.56609e-09	-5.15739e-06	0.262007	13317.2	6.62275	13310.6
14678.6	1.86643	0.658316	1.97913	-19.4284	4.01355	0.262131	-0.0104487	16.4703	1.82231	1	9	0.00499345	0.00252305	0	-1.81382e-05	-6.05491e-05	1.64793e-05	-41.0234	0.00653148	0.00492762	0.00428705	-19.4978	1.9852	1.87136	0.662603	0.476501	0.168068	0.505273	19.4284	1822.31	5166.54	5478.5	-70.5716	0.0000000E+000	0.0000000E+000	0.0000000E+000	70.5716	0.0000000E+000	0.0000000E+000	0.0000000E+000	-70.5716	0.0000000E+000	0.0000000E+000	0.0000000E+000	-19.4284	0.0000000E+000	0.0000000E+000	0.0000000E+000	19.4284	2.83516	70.5716	-2.54284e-06	-2.73892e-06	6.32657e-10	-2.73955e-06	0.262192	25087.5	5.79491	25093.3
10002.2	2.02174	0.731606	2.15004	-19.8936	4.27454	0.262127	-0.0215834	21.7494	2.51829	1	9	0.00496418	0.00230887	0	-1.76581e-05	-6.05491e-05	7.068e-06	-97.5613	0.00306123	-0.000402817	0.00303462	-19.9733	2.1507	2.02134	0.73464	0.437352	0.158264	0.465107	19.8936	2518.29	6959.13	7400.76	-70.1064	0.0000000E+000	0.0000000E+000	0.0000000E+000	70.1064	0.0000000E+000	0.0000000E+000	0.0000000E+000	-70.1064	0.0000000E+000	0.0000000E+000	0.0000000E+000	-19.8936	0.0000000E+000	0.0000000E+000	0.0000000E+000	19.8936	2.76343	70.1064	4.80147e-07	-5.65759e-06	1.30685e-09	-5.65889e-06	0.262187	12144.9	2.80536	12147.7
6810.42	2.20198	0.823875	2.35106	-20.5134	4.53553	0.262122	-0.0221047	28.3651	3.48322	1	9	0.00486039	0.00206732	0	-2.07037e-05	-2.23667e-05	3.38843e-05	-112.323	0.0163905	-0.00622563	0.0151621	-20.9128	2.3506	2.19575	0.839037	0.398369	0.149051	0.42534	20.5134	3483.22	9309.62	9939.92	-69.4866	0.0000000E+000	0.0000000E+000	0.0000000E+000	69.4866	0.0000000E+000	0.0000000E+000	0.0000000E+000	-69.4866	0.0000000E+000	0.0000000E+000	0.0000000E+000	-20.5134	0.0000000E+000	0.0000000E+000	0.0000000E+000	20.5134	2.67271	69.4866	-3.04557e-06	-5.79415e-06	4.94409e-10	-5.79464e-06	0.262145	11858.2	1.01185	11859.2
4646	2.36597	0.948912	2.54917	-21.8541	4.8016	0.262094	-0.0476885	36.1006	5.0023	1	9	0.00472067	0.00185185	0	-2.24977e-05	-0.000136914	7.29337e-06	7.15513	0.00393843	0.00390776	-0.000490556	-21.8112	2.55261	2.36988	0.948422	0.364093	0.146026	0.392285	21.8541	5002.3	12472.5	13438.2	-68.1459	0.0000000E+000	0.0000000E+000	0.0000000E+000	68.1459	0.0000000E+000	0.0000000E+000	0.0000000E+000	-68.1459	0.0000000E+000	0.0000000E+000	0.0000000E+000	-21.8541	0.0000000E+000	0.0000000E+000	0.0000000E+000	21.8541	2.49335	68.1459	-1.79408e-06	-1.24989e-05	6.52922e-09	-1.25054e-05	0.262231	5495.96	2.87101	5498.83
3163.08	2.57563	1.07572	2.79125	-22.668	5.17567	0.261944	-0.088764	46.7746	6.94725	1	9	0.00465301	0.001667	0	-3.04588e-05	5.39982e-05	3.89831e-06	-35.908	0.00233852	0.00189411	0.00137151	-22.679	2.79352	2.57753	1.07709	0.330588	0.138071	0.358263	22.668	6947.25	16634	18026.5	-67.332	0.0000000E+000	0.0000000E+000	0.0000000E+000	67.332	0.0000000E+000	0.0000000E+000	0.0000000E+000	-67.332	0.0000000E+000	0.0000000E+000	0.0000000E+000	-22.668	0.0000000E+000	0.0000000E+000	0.0000000E+000	22.668	2.39433	67.332	-7.96105e-06	-2.32512e-05	-4.7931e-09	-2.32464e-05	0.26189	2951.01	0.608334	2950.4
2155.69	2.80382	1.2308	3.06207	-23.7001	5.62677	0.262047	-0.0110445	59.9857	9.69147	1	9	0.00460453	0.00150373	0	-3.04825e-05	0.000340366	2.93318e-06	20.5827	0.0019506	0.00182608	-0.000685751	-23.6746	3.06347	2.80565	1.23011	0.299034	0.131267	0.326577	23.7001	9691.47	22077.7	24111.2	-66.2999	0.0000000E+000	0.0000000E+000	0.0000000E+000	66.2999	0.0000000E+000	0.0000000E+000	0.0000000E+000	-66.2999	0.0000000E+000	0.0000000E+000	0.0000000E+000	-23.7001	0.0000000E+000	0.0000000E+000	0.0000000E+000	23.7001	2.27806	66.2999	-2.36584e-08	-2.89419e-06	-3.75919e-09	-2.89043e-06	0.261707	23726.4	30.8177	23695.6
1468.59	3.04773	1.45944	3.37914	-25.5879	6.07804	0.262039	-0.0143216	74.2566	13.8513	1	9	0.00456046	0.00134959	0	-3.21136e-05	1.58158e-05	3.89242e-06	-67.9226	0.00288415	0.00108403	0.00267267	-25.6208	3.38127	3.04881	1.46211	0.266909	0.127812	0.295933	25.5879	13851.3	28925.6	32071	-64.4121	0.0000000E+000	0.0000000E+000	0.0000000E+000	64.4121	0.0000000E+000	0.0000000E+000	0.0000000E+000	-64.4121	0.0000000E+000	0.0000000E+000	0.0000000E+000	-25.5879	0.0000000E+000	0.0000000E+000	0.0000000E+000	25.5879	2.08829	64.4121	-1.63114e-06	-3.75283e-06	-2.26508e-10	-3.7526e-06	0.262023	18296.8	1.10433	18295.7
1000.32	3.3142	1.7358	3.74125	-27.6431	6.77386	0.262054	-0.0227633	91.6604	19.7309	1	10	0.00463957	0.00124011	0	-3.79255e-05	0.000111272	8.39901e-06	-68.1027	0.00677277	0.00252586	0.00628414	-27.7103	3.7464	3.31673	1.74208	0.23678	0.124013	0.26729	27.6431	19730.9	37672.7	42527	-62.3569	0.0000000E+000	0.0000000E+000	0.0000000E+000	62.3569	0.0000000E+000	0.0000000E+000	0.0000000E+000	-62.3569	0.0000000E+000	0.0000000E+000	0.0000000E+000	-27.6431	0.0000000E+000	0.0000000E+000	0.0000000E+000	27.6431	1.90932	62.3569	-5.81187e-06	-5.96521e-06	-2.53292e-09	-5.96268e-06	0.261942	11512.1	4.88821	11507.2
681.09	3.64548	2.12401	4.21911	-30.2269	7.22351	0.262049	-0.0227708	110.017	27.8824	1	10	0.00459349	0.00108873	0	-4.06385e-05	0.000130363	6.65904e-06	-0.986201	0.00611632	0.00611541	0.000105272	-30.1864	4.22445	3.65159	2.12412	0.204791	0.11932	0.237017	30.2269	27882.4	47855	55385.3	-59.7731	0.0000000E+000	0.0000000E+000	0.0000000E+000	59.7731	0.0000000E+000	0.0000000E+000	0.0000000E+000	-59.7731	0.0000000E+000	0.0000000E+000	0.0000000E+000	-30.2269	0.0000000E+000	0.0000000E+000	0.0000000E+000	30.2269	1.71632	59.7731	-2.71304e-06	-5.96705e-06	-2.96847e-09	-5.96409e-06	0.261918	11508.1	5.72502	11502.4
463.961	4.08129	2.61934	4.84952	-32.6921	7.67535	0.262051	-0.0228117	130.962	38.2061	1	10	0.00456341	0.000941002	0	-4.29139e-05	1.58158e-05	8.97476e-06	111.022	0.00953744	-0.00342134	-0.00890266	-32.6253	4.84184	4.07787	2.61044	0.17354	0.111377	0.206206	32.6921	38206.1	59530.3	70735.9	-57.3079	0.0000000E+000	0.0000000E+000	0.0000000E+000	57.3079	0.0000000E+000	0.0000000E+000	0.0000000E+000	-57.3079	0.0000000E+000	0.0000000E+000	0.0000000E+000	-32.6921	0.0000000E+000	0.0000000E+000	0.0000000E+000	32.6921	1.55814	57.3079	-2.27536e-06	-5.97785e-06	-3.60785e-10	-5.97749e-06	0.262036	11487.6	0.693317	11486.9
316.316	4.67011	3.25426	5.69212	-34.8698	8.12308	0.262054	-0.0222197	154.613	50.5364	1	10	0.0045423	0.000797999	0	-4.60382e-05	-9.87315e-05	5.22749e-06	58.2885	0.00655075	0.00344335	-0.00557275	-34.804	5.69176	4.67356	3.24869	0.144139	0.10044	0.175682	34.8698	50536.4	72523.6	88394.5	-55.1302	0.0000000E+000	0.0000000E+000	0.0000000E+000	55.1302	0.0000000E+000	0.0000000E+000	0.0000000E+000	-55.1302	0.0000000E+000	0.0000000E+000	0.0000000E+000	-34.8698	0.0000000E+000	0.0000000E+000	0.0000000E+000	34.8698	1.43508	55.1302	-3.12434e-06	-5.82277e-06	2.19379e-09	-5.82497e-06	0.262153	11793.8	4.44342	11798.2
215.345	5.49865	3.99708	6.79793	-36.0142	8.57357	0.262054	-0.0221155	184.903	63.9258	1	10	0.00452639	0.000665849	0	-4.84952e-05	-3.27544e-06	1.09648e-05	-119.739	0.0164674	-0.00816853	0.0142986	-36.1521	6.79975	5.49048	4.01138	0.118988	0.0864948	0.147104	36.0142	63925.8	87940.5	108720	-53.9858	0.0000000E+000	0.0000000E+000	0.0000000E+000	53.9858	0.0000000E+000	0.0000000E+000	0.0000000E+000	-53.9858	0.0000000E+000	0.0000000E+000	0.0000000E+000	-36.0142	0.0000000E+000	0.0000000E+000	0.0000000E+000	36.0142	1.37567	53.9858	-2.45701e-06	-5.79546e-06	7.24379e-11	-5.79553e-06	0.262058	11849.4	0.148106	11849.5
146.737	6.61978	4.76651	8.15727	-35.7554	9.01948	0.262042	-0.0230017	227.551	77.6944	1	10	0.00451388	0.000553356	0	-5.0351e-05	0.00024491	5.59094e-06	-45.7781	0.0101037	0.00704671	0.00724074	-35.7678	8.16722	6.62683	4.77375	0.0994841	0.0716326	0.12259	35.7554	77694.4	107903	132964	-54.2446	0.0000000E+000	0.0000000E+000	0.0000000E+000	54.2446	0.0000000E+000	0.0000000E+000	0.0000000E+000	-54.2446	0.0000000E+000	0.0000000E+000	0.0000000E+000	-35.7554	0.0000000E+000	0.0000000E+000	0.0000000E+000	35.7554	1.38881	54.2446	-1.85579e-06	-6.02741e-06	-5.63334e-09	-6.02177e-06	0.261797	11392.3	10.6475	11381.7
100.032	8.02909	5.42418	9.68959	-34.0416	9.47081	0.262056	-0.0219628	293.323	91.9189	1	10	0.00450588	0.000465023	0	-5.35631e-05	-0.000213279	7.64395e-06	-142.776	0.0164378	-0.0130891	0.00994364	-34.1337	9.68432	8.016	5.43413	0.0855177	0.0577729	0.103204	34.0416	91918.9	136062	164201	-55.9584	0.0000000E+000	0.0000000E+000	0.0000000E+000	55.9584	0.0000000E+000	0.0000000E+000	0.0000000E+000	-55.9584	0.0000000E+000	0.0000000E+000	0.0000000E+000	-34.0416	0.0000000E+000	0.0000000E+000	0.0000000E+000	34.0416	1.48024	55.9584	-3.2121e-06	-5.7555e-06	4.68421e-09	-5.76018e-06	0.26227	11931.8	9.7109	11941.5
68.104	9.74289	5.88601	11.3828	-31.1376	9.93345	0.26206	-0.0194607	397.033	106.162	1	10	0.00450926	0.000396145	0	-5.63594e-05	7.30894e-05	4.51003e-06	5.94384	0.0113848	0.0113236	-0.00117894	-31.1031	11.3919	9.75421	5.88483	0.0751946	0.0454276	0.0878516	31.1376	106162	175725	205304	-58.8624	0.0000000E+000	0.0000000E+000	0.0000000E+000	58.8624	0.0000000E+000	0.0000000E+000	0.0000000E+000	-58.8624	0.0000000E+000	0.0000000E+000	0.0000000E+000	-31.1376	0.0000000E+000	0.0000000E+000	0.0000000E+000	31.1376	1.65526	58.8624	-2.79634e-06	-5.09987e-06	-1.42237e-09	-5.09845e-06	0.261987	13466.1	3.75575	13462.4
46.4415	11.544	6.08986	13.0518	-27.8131	10.5766	0.262063	-0.023791	562.738	122.511	1	10	0.00500582	0.000383533	0	-6.11146e-05	-2.23667e-05	1.43858e-05	49.0247	0.0375087	0.0245957	-0.0283188	-27.6529	13.0604	11.5686	6.06154	0.0677662	0.0357489	0.0766175	27.8131	122511	232234	262568	-62.1869	0.0000000E+000	0.0000000E+000	0.0000000E+000	62.1869	0.0000000E+000	0.0000000E+000	0.0000000E+000	-62.1869	0.0000000E+000	0.0000000E+000	0.0000000E+000	-27.8131	0.0000000E+000	0.0000000E+000	0.0000000E+000	27.8131	1.89562	62.1869	-4.75514e-06	-6.23475e-06	5.32126e-10	-6.23528e-06	0.262086	11015.2	0.94013	11016.1
31.6296	13.3481	5.98439	14.6282	-24.1483	11.0075	0.262053	-0.0251799	840.827	140.724	1	10	0.00500418	0.000342092	0	-6.44131e-05	0.000168545	5.20624e-06	92.2302	0.0152189	-0.000592233	-0.0152073	-24.0949	14.6214	13.3475	5.96919	0.0623789	0.0279666	0.0683612	24.1483	140723	313881	343983	-65.8517	0.0000000E+000	0.0000000E+000	0.0000000E+000	65.8517	0.0000000E+000	0.0000000E+000	0.0000000E+000	-65.8517	0.0000000E+000	0.0000000E+000	0.0000000E+000	-24.1483	0.0000000E+000	0.0000000E+000	0.0000000E+000	24.1483	2.23048	65.8517	-3.2985e-06	-6.59845e-06	-4.24395e-09	-6.59421e-06	0.261884	10407.2	6.69366	10400.5
21.5517	15.0015	5.65669	16.0325	-20.6603	11.6605	0.262088	-0.0104412	1305.5	162.516	1	11	0.00500545	0.000312206	0	-6.74241e-05	-6.05491e-05	1.01265e-05	-112.134	0.0324353	-0.0122208	0.0300449	-20.7761	16.0317	14.9893	5.68674	0.0583619	0.0220069	0.0623732	20.6603	162516	430990	460613	-69.3397	0.0000000E+000	0.0000000E+000	0.0000000E+000	69.3397	0.0000000E+000	0.0000000E+000	0.0000000E+000	-69.3397	0.0000000E+000	0.0000000E+000	0.0000000E+000	-20.6603	0.0000000E+000	0.0000000E+000	0.0000000E+000	20.6603	2.65199	69.3397	-3.01098e-06	-2.7365e-06	6.32204e-10	-2.73714e-06	0.262148	25101.3	5.79907	25107.1
14.6852	16.4367	5.16445	17.2289	-17.4429	12.1202	0.262093	-0.00986036	2098.54	188.56	1	11	0.0049995	0.000290181	0	-6.81013e-05	-3.27544e-06	8.56289e-06	10.2396	0.0295088	0.0290388	-0.00524562	-17.3973	17.2551	16.4657	5.1592	0.0553729	0.0173983	0.0580419	17.4429	188560	600122	629048	-72.5571	0.0000000E+000	0.0000000E+000	0.0000000E+000	72.5571	0.0000000E+000	0.0000000E+000	0.0000000E+000	-72.5571	0.0000000E+000	0.0000000E+000	0.0000000E+000	-17.4429	0.0000000E+000	0.0000000E+000	0.0000000E+000	17.4429	3.18266	72.5571	-6.77189e-07	-2.58433e-06	3.2297e-11	-2.58436e-06	0.262096	26580.4	0.332182	26580.8
10.0032	17.7046	4.75064	18.3309	-15.0203	12.5708	0.262089	-0.0101325	3349.11	224.94	1	11	0.00500465	0.000273018	0	-6.80995e-05	0.000149454	1.24975e-05	35.4395	0.0457753	0.0372944	-0.0265425	-14.9101	18.3601	17.7419	4.7241	0.0526889	0.0141379	0.0545528	15.0203	224940	838302	867956	-74.9797	0.0000000E+000	0.0000000E+000	0.0000000E+000	74.9797	0.0000000E+000	0.0000000E+000	0.0000000E+000	-74.9797	0.0000000E+000	0.0000000E+000	0.0000000E+000	-15.0203	0.0000000E+000	0.0000000E+000	0.0000000E+000	15.0203	3.72678	74.9797	1.75661e-09	-2.65562e-06	-1.51435e-09	-2.65411e-06	0.261939	25866.1	14.7499	25851.3
6.81719	18.7487	4.29497	19.2343	-12.9028	12.9105	0.262101	-0.00999998	5435.69	271.032	1	11	0.00498357	0.000259098	0	-6.91994e-05	5.39982e-05	5.73761e-05	3.90165	0.221446	0.220933	-0.0150681	-12.7141	19.4464	18.9696	4.2799	0.0506776	0.0116093	0.0519903	12.9028	271032	1.18313e+06	1.21377e+06	-77.0972	0.0000000E+000	0.0000000E+000	0.0000000E+000	77.0972	0.0000000E+000	0.0000000E+000	0.0000000E+000	-77.0972	0.0000000E+000	0.0000000E+000	0.0000000E+000	-12.9028	0.0000000E+000	0.0000000E+000	0.0000000E+000	12.9028	4.36526	77.0972	-1.09986e-06	-2.621e-06	-5.39981e-10	-2.62046e-06	0.262047	26210.1	5.39983	26204.7
4.63925	19.7226	3.74792	20.0756	-10.7597	13.3944	0.262093	-0.00966117	9153.38	319.026	1	11	0.00498949	0.000248535	0	-7.31337e-05	0.000264002	2.61911e-05	-51.5943	0.105382	0.0654661	0.0825808	-10.9556	20.1555	19.7881	3.83051	0.048936	0.00929938	0.0498117	10.7597	319026	1.67881e+06	1.70885e+06	-79.2403	0.0000000E+000	0.0000000E+000	0.0000000E+000	79.2403	0.0000000E+000	0.0000000E+000	0.0000000E+000	-79.2403	0.0000000E+000	0.0000000E+000	0.0000000E+000	-10.7597	0.0000000E+000	0.0000000E+000	0.0000000E+000	10.7597	5.26228	79.2403	-3.93433e-06	-2.53213e-06	-2.55056e-09	-2.52957e-06	0.261829	27128.5	27.326	27101.2
3.1604	20.6022	3.4128	20.883	-9.40575	14.0874	0.262085	-0.00994302	14756	394.098	1	11	0.00500226	0.000239538	0	-7.43267e-05	7.30894e-05	2.28008e-06	97.768	0.00951865	-0.00128656	-0.0094313	-9.38079	20.8802	20.6009	3.40337	0.0472421	0.00782575	0.0478859	9.40575	394098	2.37908e+06	2.4115e+06	-80.5943	0.0000000E+000	0.0000000E+000	0.0000000E+000	80.5943	0.0000000E+000	0.0000000E+000	0.0000000E+000	-80.5943	0.0000000E+000	0.0000000E+000	0.0000000E+000	-9.40575	0.0000000E+000	0.0000000E+000	0.0000000E+000	9.40575	6.03675	80.5943	-1.19298e-06	-2.60591e-06	-7.2673e-10	-2.60519e-06	0.262012	26358.7	7.35083	26351.3
2.15577	21.2818	3.05969	21.5006	-8.18137	15.091	0.262094	-0.00915342	24129.1	488.647	1	11	0.00500264	0.000232675	0	-7.27501e-05	-2.23667e-05	5.9514e-06	75.7014	0.0255782	0.00631717	-0.0247859	-8.11361	21.5033	21.2881	3.0349	0.046037	0.00661876	0.0465104	8.18137	488646	3.3988e+06	3.43374e+06	-81.8186	0.0000000E+000	0.0000000E+000	0.0000000E+000	81.8186	0.0000000E+000	0.0000000E+000	0.0000000E+000	-81.8186	0.0000000E+000	0.0000000E+000	0.0000000E+000	-8.18137	0.0000000E+000	0.0000000E+000	0.0000000E+000	8.18137	6.95553	81.8186	1.57658e-06	-2.39906e-06	2.04731e-10	-2.39927e-06	0.262117	28633.5	2.44353	28635.9
1.46631	21.9313	2.77322	22.1059	-7.20681	16.5524	0.262099	-0.0083771	39139.1	615.97	1	11	0.00500367	0.000226349	0	-7.23048e-05	0.000283093	2.8104e-06	-67.1019	0.0124162	0.00483107	0.0114378	-7.23464	22.1122	21.9361	2.78465	0.0448793	0.00567499	0.0452367	7.20681	615970	4.87125e+06	4.91004e+06	-82.7932	0.0000000E+000	0.0000000E+000	0.0000000E+000	82.7932	0.0000000E+000	0.0000000E+000	0.0000000E+000	-82.7932	0.0000000E+000	0.0000000E+000	0.0000000E+000	-7.20681	0.0000000E+000	0.0000000E+000	0.0000000E+000	7.20681	7.90826	82.7932	4.4527e-07	-2.19563e-06	-2.3715e-09	-2.19326e-06	0.261816	31287.6	33.7937	31253.8
1.00006	22.478	2.57203	22.6247	-6.52764	19.7258	0.262082	-0.00763932	61875.2	799.656	1	12	0.00500469	0.000221205	0	-8.0107e-05	0.000187637	3.59141e-06	31.883	0.0162357	0.0137862	-0.00857547	-6.50211	22.6374	22.4918	2.56345	0.043913	0.00502471	0.0441995	6.52764	799656	6.98852e+06	7.03412e+06	-83.4724	0.0000000E+000	0.0000000E+000	0.0000000E+000	83.4724	0.0000000E+000	0.0000000E+000	0.0000000E+000	-83.4724	0.0000000E+000	0.0000000E+000	0.0000000E+000	-6.52764	0.0000000E+000	0.0000000E+000	0.0000000E+000	6.52764	8.73941	83.4724	-7.80214e-06	-2.00213e-06	-1.43342e-09	-2.0007e-06	0.261895	34307	24.562	34282.4
0.681362	22.986	2.49003	23.1205	-6.18263	22.838	0.262081	-0.00674319	93807.5	1088.06	1	12	0.00500823	0.000216615	0	-9.45025e-05	-6.05491e-05	3.5815e-06	20.4949	0.016534	0.0154874	-0.00578893	-6.16425	23.1352	23.0015	2.48424	0.0430002	0.00465813	0.0432517	6.18263	1.08806e+06	1.00441e+07	1.01029e+07	-83.8174	0.0000000E+000	0.0000000E+000	0.0000000E+000	83.8174	0.0000000E+000	0.0000000E+000	0.0000000E+000	-83.8174	0.0000000E+000	0.0000000E+000	0.0000000E+000	-6.18263	0.0000000E+000	0.0000000E+000	0.0000000E+000	6.18263	9.23121	83.8174	-1.43956e-05	-1.76726e-06	4.08294e-10	-1.76767e-06	0.262141	38866	8.97929	38875
0.464091	23.4633	2.46705	23.5926	-6.00232	27.3945	0.262078	-0.00689695	139008	1520	1	12	0.00500335	0.000212073	0	-0.000116429	5.39982e-05	2.30529e-06	-25.7722	0.0108703	0.009789	0.00472632	-6.01125	23.6028	23.4731	2.47178	0.0421538	0.00443227	0.0423862	6.00232	1.52e+06	1.44562e+07	1.45359e+07	-83.9977	0.0000000E+000	0.0000000E+000	0.0000000E+000	83.9977	0.0000000E+000	0.0000000E+000	0.0000000E+000	-83.9977	0.0000000E+000	0.0000000E+000	0.0000000E+000	-6.00232	0.0000000E+000	0.0000000E+000	0.0000000E+000	6.00232	9.51066	83.9977	-2.1927e-05	-1.80754e-06	-3.72423e-10	-1.80717e-06	0.262024	37999.2	7.82929	37991.4
0.316193	23.9842	2.60539	24.1253	-6.19968	34.069	0.262085	-0.00703683	193195	2253.17	1	12	0.00500387	0.000207411	0	-0.00013985	-0.000136914	1.17697e-06	-15.9892	0.00567458	0.00545505	0.0015631	-6.20197	24.1309	23.9897	2.60695	0.0412078	0.00447637	0.0414502	6.19968	2.25317e+06	2.07418e+07	2.08639e+07	-83.8003	0.0000000E+000	0.0000000E+000	0.0000000E+000	83.8003	0.0000000E+000	0.0000000E+000	0.0000000E+000	-83.8003	0.0000000E+000	0.0000000E+000	0.0000000E+000	-6.19968	0.0000000E+000	0.0000000E+000	0.0000000E+000	6.19968	9.20563	83.8003	-2.34209e-05	-1.84424e-06	9.6344e-10	-1.84521e-06	0.262221	37244.7	19.4568	37264.2
0.215268	24.5393	2.96017	24.7172	-6.87835	43.8624	0.262079	-0.0074807	249761	3582.28	1	12	0.00500704	0.000202573	0	-0.000156674	0.000264002	1.54025e-06	97.9247	0.00760344	-0.00104829	-0.00753083	-6.86131	24.7153	24.5383	2.95264	0.0401665	0.00484528	0.0404577	6.87835	3.58228e+06	2.96965e+07	2.99117e+07	-83.1217	0.0000000E+000	0.0000000E+000	0.0000000E+000	83.1217	0.0000000E+000	0.0000000E+000	0.0000000E+000	-83.1217	0.0000000E+000	0.0000000E+000	0.0000000E+000	-6.87835	0.0000000E+000	0.0000000E+000	0.0000000E+000	6.87835	8.28982	83.1217	-1.68232e-05	-1.96054e-06	-1.97492e-09	-1.95856e-06	0.261815	35034	35.291	34998.7
0.146929	25.1086	3.46251	25.3462	-7.85167	58.2008	0.262078	-0.00727039	312839	5838.21	1	12	0.00500078	0.000197299	0	-0.000157203	-9.87315e-05	3.59404e-06	10.2366	0.0182162	0.0179262	-0.00323725	-7.83889	25.3635	25.1265	3.45928	0.0390838	0.00538972	0.0394537	7.85167	5.83821e+06	4.2336e+07	4.27367e+07	-82.1483	0.0000000E+000	0.0000000E+000	0.0000000E+000	82.1483	0.0000000E+000	0.0000000E+000	0.0000000E+000	-82.1483	0.0000000E+000	0.0000000E+000	0.0000000E+000	-7.85167	0.0000000E+000	0.0000000E+000	0.0000000E+000	7.85167	7.25154	82.1483	-5.29346e-07	-1.90541e-06	7.17816e-10	-1.90612e-06	0.262177	36047.3	13.58	36060.9
0.0999041	25.8559	4.07833	26.1756	-8.96357	79.277	0.262095	-0.00565123	390620	9482.57	1	12	0.005001	0.000191056	0	-0.000138101	0.000168545	1.9332e-06	-20.1688	0.0101185	0.00949806	0.00348873	-8.96787	26.1855	25.8654	4.08182	0.037737	0.00595236	0.0382035	8.96357	9.48257e+06	6.01179e+07	6.08612e+07	-81.0364	0.0000000E+000	0.0000000E+000	0.0000000E+000	81.0364	0.0000000E+000	0.0000000E+000	0.0000000E+000	-81.0364	0.0000000E+000	0.0000000E+000	0.0000000E+000	-8.96357	0.0000000E+000	0.0000000E+000	0.0000000E+000	8.96357	6.33984	81.0364	1.91019e-05	-1.48116e-06	-9.5249e-10	-1.48021e-06	0.261927	46378.4	29.8245	46348.6
0.0680626	26.8305	4.95128	27.2836	-10.4557	110.204	0.262087	-0.00473952	472274	15553.5	1	12	0.00500611	0.000183484	0	-0.000116864	0.000149454	2.59006e-06	31.6285	0.014116	0.0120193	-0.00740255	-10.4358	27.2941	26.8426	4.94388	0.0360435	0.00665144	0.0366521	10.4557	1.55535e+07	8.42827e+07	8.57058e+07	-79.5443	0.0000000E+000	0.0000000E+000	0.0000000E+000	79.5443	0.0000000E+000	0.0000000E+000	0.0000000E+000	-79.5443	0.0000000E+000	0.0000000E+000	0.0000000E+000	-10.4557	0.0000000E+000	0.0000000E+000	0.0000000E+000	10.4557	5.41891	79.5443	2.12373e-05	-1.24217e-06	-7.08342e-10	-1.24146e-06	0.261938	55298.2	31.5336	55266.7
0.0464052	28.0647	6.13567	28.7276	-12.3323	155.556	0.262086	-0.00318088	558974	25498.6	1	12	0.00500458	0.000174208	0	-0.000121407	0.000283093	1.05549e-06	-29.8916	0.0060588	0.0052528	0.00301946	-12.3359	28.7334	28.07	6.13869	0.0340065	0.0074347	0.0348097	12.3323	2.54986e+07	1.16631e+08	1.19386e+08	-77.6677	0.0000000E+000	0.0000000E+000	0.0000000E+000	77.6677	0.0000000E+000	0.0000000E+000	0.0000000E+000	-77.6677	0.0000000E+000	0.0000000E+000	0.0000000E+000	-12.3323	0.0000000E+000	0.0000000E+000	0.0000000E+000	12.3323	4.57403	77.6677	-4.5434e-06	-8.33666e-07	-9.00485e-10	-8.32765e-07	0.261803	82394.1	88.9981	82305.1
0.0315922	29.3607	7.71893	30.3584	-14.7297	222.16	0.262086	-0.00228897	652654	42192.8	1	12	0.00500327	0.000164807	0	-0.000217736	-0.000194188	1.65473e-06	-20.2987	0.0100405	0.00941692	0.00348317	-14.7316	30.3684	29.3702	7.72241	0.0318572	0.00837526	0.0329398	14.7297	4.21928e+07	1.6049e+08	1.65944e+08	-75.2703	0.0000000E+000	0.0000000E+000	0.0000000E+000	75.2703	0.0000000E+000	0.0000000E+000	0.0000000E+000	-75.2703	0.0000000E+000	0.0000000E+000	0.0000000E+000	-14.7297	0.0000000E+000	0.0000000E+000	0.0000000E+000	14.7297	3.80373	75.2703	-9.63293e-05	-5.99907e-07	4.4449e-10	-6.00351e-07	0.26228	114499	84.8362	114584
0.0215268	30.8138	9.59952	32.2745	-17.3035	319.899	0.26209	-0.00241393	770179	68135.2	1	12	0.00500369	0.000155036	0	-0.000461046	7.30894e-05	1.74649e-06	-16.1428	0.0112651	0.010821	0.00313208	-17.3031	32.2857	30.8246	9.60265	0.029582	0.00921575	0.0309842	17.3035	6.81353e+07	2.1871e+08	2.29077e+08	-72.6965	0.0000000E+000	0.0000000E+000	0.0000000E+000	72.6965	0.0000000E+000	0.0000000E+000	0.0000000E+000	-72.6965	0.0000000E+000	0.0000000E+000	0.0000000E+000	-17.3035	0.0000000E+000	0.0000000E+000	0.0000000E+000	17.3035	3.20993	72.6965	-0.00024331	-6.32668e-07	-1.76433e-10	-6.32491e-07	0.262017	108574	30.2781	108543
0.0146812	32.6796	11.948	34.7953	-20.0829	463.2	0.262088	-0.00314533	907328	106983	1	12	0.00500221	0.000143761	0	-0.000862851	0.000111272	2.11063e-06	-60.2022	0.0146815	0.00729584	0.0127404	-20.0985	34.8065	32.6869	11.9607	0.0269921	0.00986858	0.0287395	20.0829	1.06983e+08	2.92614e+08	3.11558e+08	-69.9171	0.0000000E+000	0.0000000E+000	0.0000000E+000	69.9171	0.0000000E+000	0.0000000E+000	0.0000000E+000	-69.9171	0.0000000E+000	0.0000000E+000	0.0000000E+000	-20.0829	0.0000000E+000	0.0000000E+000	0.0000000E+000	20.0829	2.73515	69.9171	-0.000401804	-8.24355e-07	-3.49987e-10	-8.24005e-07	0.261977	83326.2	35.3768	83290.8
0.0100092	35.0917	15.2506	38.2623	-23.4894	673.382	0.262086	-0.00382834	1.04264e+06	165640	1	12	0.00500284	0.000130751	0	-0.00133012	-3.27544e-06	1.40263e-06	18.2713	0.0107275	0.0101867	-0.00336326	-23.4787	38.2703	35.1019	15.2472	0.0239696	0.010417	0.0261354	23.4894	1.6564e+08	3.81139e+08	4.15576e+08	-66.5106	0.0000000E+000	0.0000000E+000	0.0000000E+000	66.5106	0.0000000E+000	0.0000000E+000	0.0000000E+000	-66.5106	0.0000000E+000	0.0000000E+000	0.0000000E+000	-23.4894	0.0000000E+000	0.0000000E+000	0.0000000E+000	23.4894	2.30101	66.5106	-0.000467273	-1.00335e-06	1.25395e-11	-1.00337e-06	0.262089	68459.5	0.855578	68460.4