File: txt/18442_R297_UC61_11mm_SOC50_C02.mpt
EC-Lab ASCII FILE
Nb header lines : 65

Potentio Electrochemical Impedance Spectroscopy

Run on channel : 2 (SN 66139)
User :
CE vs. WE compliance from -10 V to 10 V
Electrode connection : standard
Potential control : Ewe
Ewe ctrl range : min = -10.00 V, max = 10.00 V
Safety Limits :
	Do not start on E overload
Acquisition started on : 10/16/2025 15:32:01.264
Technique started on : 10/16/2025 15:32:03.959
Loaded Setting File :  C:\Users\Celltest\OneDrive - store-dot.com\Documents\EC-Lab\Data\txt_done\UC80_17231_EIS_50SOC.mps
Saved on :
	File : 18442_R297_UC61_11mm_SOC50_C02.mpr
	Directory : C:\Users\Celltest\OneDrive - store-dot.com\Documents\EC-Lab\Data\Michael\
	Host : 169.254.61.224
Device : VMP-3e (SN .003165)
Address : USB
EC-LAB for windows v11.62 (software)
Internet server v27.00 (firmware)
Command interpretor v12.03 (firmware)
Electrode material :
Initial state :
Electrolyte :
Comments :
Electrode surface area : 0.001 cm²
Characteristic mass : 0.001 g
Equivalent Weight : 0.000 g/eq.
Density : 0.000 g/cm3
Volume (V) : 0.001 cm³
Record Ece
Cycle Definition : Charge/Discharge alternance
Mode                Multi sine
E (V)               0.0000
vs.                 Eoc
tE (h:m:s)          0:00:0.0000
record              0
dI                  0.000
unit dI             mA
dt (s)              0.000
fi                  1.000
unit fi             MHz
ff                  0.100
unit ff             mHz
Nd                  10
Points              per decade
spacing             Logarithmic
Va (mV)             5.0
pw                  0.10
Na                  2
corr                0
E range min (V)     -10.000
E range max (V)     10.000
I Range             Auto
Bandwidth           5
nc cycles           0
goto Ns'            0
nr cycles           0
inc. cycle          0

freq/Hz	Re(Z)/Ohm	-Im(Z)/Ohm	|Z|/Ohm	Phase(Z)/deg	time/s	<Ewe>/V	<I>/mA	Cs/µF	Cp/µF	cycle number	I Range	|Ewe|/V	|I|/A	Ns	(Q-Qo)/mA.h	<Ece>/V	|Ece|/V	Phase(Zce)/deg	|Zce|/Ohm	Re(Zce)/Ohm	-Im(Zce)/Ohm	Phase(Zwe-ce)/deg	|Zwe-ce|/Ohm	Re(Zwe-ce)/Ohm	-Im(Zwe-ce)/Ohm	Re(Y)/Ohm-1	Im(Y)/Ohm-1	|Y|/Ohm-1	Phase(Y)/deg	Re(C)/nF	Im(C)/nF	|C|/nF	Phase(C)/deg	Re(M)	Im(M)	|M|	Phase(M)/deg	Re(Permittivity)	Im(Permittivity)	|Permittivity|	Phase(Permittivity)/deg	Re(Resistivity)/Ohm.cm	Im(Resistivity)/Ohm.cm	|Resistivity|/Ohm.cm	Phase(Resistivity)/deg	Re(Conductivity)/mS/cm	Im(Conductivity)/mS/cm	|Conductivity|/mS/cm	Phase(Conductivity)/deg	Tan(Delta)	Loss Angle(Delta)/deg	dq/mA.h	Pwe/W	Pce/W	Pwe-ce/W	<Ewe-Ece>/V	Rwe/Ohm	Rce/Ohm	Rwe-ce/Ohm		Ewe-Ece/V
1.00002e+06	0.987955	-0.223476	1.01291	12.7458	2.69454	3.82389	-0.0148216	-0.712167	-0.0346654	1	9	0.000210592	0.000207906	0	-9.70672e-06	0.000324887	0.000174463	3.07852	0.839141	0.83793	-0.0450656	8.36677	1.84553	1.82589	-0.268541	0.962923	-0.217813	0.98725	-12.7458	-34.6654	153.251	157.123	-102.746	0.0000000E+000	0.0000000E+000	0.0000000E+000	102.746	0.0000000E+000	0.0000000E+000	0.0000000E+000	-102.746	0.0000000E+000	0.0000000E+000	0.0000000E+000	12.7458	0.0000000E+000	0.0000000E+000	0.0000000E+000	-12.7458	4.42086	77.2542	-9.70672e-06	-5.66764e-05	-4.81536e-09	-5.66716e-05	3.82357	257994	21.9198	257972
630957	0.495345	0.211838	0.538741	-23.1543	3.46055	3.82382	-0.0251015	1.19074	0.184104	1	9	0.000176492	0.000327601	0	-1.41463e-05	7.67059e-05	0.000112251	-101.24	0.342647	-0.0667887	0.336075	-51.9688	0.695607	0.428556	0.547913	1.70666	0.729867	1.85618	23.1543	184.104	430.495	468.21	-66.8457	0.0000000E+000	0.0000000E+000	0.0000000E+000	66.8457	0.0000000E+000	0.0000000E+000	0.0000000E+000	-66.8457	0.0000000E+000	0.0000000E+000	0.0000000E+000	-23.1543	0.0000000E+000	0.0000000E+000	0.0000000E+000	23.1543	2.33832	66.8457	-1.90982e-06	-9.59836e-05	-1.92543e-09	-9.59817e-05	3.82374	152334	3.05583	152331
398103	0.736296	0.172932	0.756331	-13.2173	4.22652	3.82397	-0.0181365	2.31179	0.120858	1	9	0.000709988	0.000938726	0	-1.47787e-05	-7.60209e-05	3.4951e-05	-166.845	0.0372324	-0.0362553	0.00847354	-14.5278	0.723163	0.700041	0.181405	1.28715	0.302309	1.32217	13.2173	120.858	514.579	528.582	-76.7827	0.0000000E+000	0.0000000E+000	0.0000000E+000	76.7827	0.0000000E+000	0.0000000E+000	0.0000000E+000	-76.7827	0.0000000E+000	0.0000000E+000	0.0000000E+000	-13.2173	0.0000000E+000	0.0000000E+000	0.0000000E+000	13.2173	4.25772	76.7827	2.87296e-07	-6.93536e-05	1.37875e-09	-6.93549e-05	3.82405	210844	4.19159	210848
251206	0.86885	0.3197	0.925801	-20.2015	4.99255	3.8239	-0.0166094	1.98174	0.236318	1	9	0.00235929	0.00254838	0	-1.99971e-05	-0.000114203	2.28336e-05	90.2273	0.00896004	-3.55527e-05	-0.00895997	-19.6801	0.922712	0.868814	0.31074	1.0137	0.372998	1.08015	20.2015	236.318	642.242	684.34	-69.7985	0.0000000E+000	0.0000000E+000	0.0000000E+000	69.7985	0.0000000E+000	0.0000000E+000	0.0000000E+000	-69.7985	0.0000000E+000	0.0000000E+000	0.0000000E+000	-20.2015	0.0000000E+000	0.0000000E+000	0.0000000E+000	20.2015	2.7177	69.7985	-2.54296e-06	-6.35126e-05	1.89684e-09	-6.35145e-05	3.82401	230225	6.87579	230232
158486	0.999116	0.424392	1.08551	-23.0142	5.75856	3.82383	-0.0105382	2.36626	0.36168	1	9	0.00518868	0.00477993	0	-4.1909e-05	0.000114888	2.01051e-05	59.7375	0.00420615	0.00211974	-0.00363296	-22.7941	1.08605	1.00124	0.420759	0.8479	0.36016	0.921222	23.0142	361.68	851.478	925.11	-66.9858	0.0000000E+000	0.0000000E+000	0.0000000E+000	66.9858	0.0000000E+000	0.0000000E+000	0.0000000E+000	-66.9858	0.0000000E+000	0.0000000E+000	0.0000000E+000	-23.0142	0.0000000E+000	0.0000000E+000	0.0000000E+000	23.0142	2.35423	66.9858	-1.15729e-05	-4.02964e-05	-1.21071e-09	-4.02952e-05	3.82372	362853	10.902	362843
100004	1.14695	0.50663	1.25386	-23.832	6.52453	3.82377	-0.00841524	3.14133	0.512857	1	9	0.00538722	0.0042965	0	-3.52605e-05	0.00017216	1.08971e-05	95.6355	0.00253627	-0.000249062	-0.00252401	-23.731	1.25262	1.1467	0.504106	0.729534	0.322249	0.797536	23.832	512.857	1161.05	1269.27	-66.168	0.0000000E+000	0.0000000E+000	0.0000000E+000	66.168	0.0000000E+000	0.0000000E+000	0.0000000E+000	-66.168	0.0000000E+000	0.0000000E+000	0.0000000E+000	-23.832	0.0000000E+000	0.0000000E+000	0.0000000E+000	23.832	2.26388	66.168	8.23588e-06	-3.2178e-05	-1.44877e-09	-3.21765e-05	3.8236	454387	20.4581	454366
63093.8	1.29597	0.586396	1.42246	-24.3457	7.29054	3.82377	-0.00711167	4.30172	0.731044	1	9	0.0053934	0.00379159	0	-3.03499e-05	0.000210342	2.29128e-05	82.2114	0.00604307	0.000818946	-0.00598732	-24.1121	1.42075	1.29679	0.580409	0.640492	0.289808	0.703007	24.3457	731.044	1615.65	1773.34	-65.6543	0.0000000E+000	0.0000000E+000	0.0000000E+000	65.6543	0.0000000E+000	0.0000000E+000	0.0000000E+000	-65.6543	0.0000000E+000	0.0000000E+000	0.0000000E+000	-24.3457	0.0000000E+000	0.0000000E+000	0.0000000E+000	24.3457	2.21006	65.6543	-3.59136e-06	-2.71934e-05	-1.49588e-09	-2.71919e-05	3.82356	537676	29.577	537646
39814.1	1.45218	0.684152	1.60527	-25.2261	8.05652	3.82375	-0.00461619	5.84293	1.06131	1	9	0.00541469	0.00337307	0	-1.65309e-05	-3.78392e-05	1.72657e-05	47.5403	0.00511869	0.00345548	-0.00377633	-25.0518	1.60679	1.45563	0.680376	0.56354	0.265496	0.622949	25.2261	1061.31	2252.73	2490.21	-64.7739	0.0000000E+000	0.0000000E+000	0.0000000E+000	64.7739	0.0000000E+000	0.0000000E+000	0.0000000E+000	-64.7739	0.0000000E+000	0.0000000E+000	0.0000000E+000	-25.2261	0.0000000E+000	0.0000000E+000	0.0000000E+000	25.2261	2.1226	64.7739	7.7776e-06	-1.76512e-05	1.74673e-10	-1.76514e-05	3.82379	828335	8.19706	828344
25116.9	1.63978	0.815503	1.83137	-26.4422	8.82255	3.82377	-0.00092885	7.77013	1.54072	1	9	0.00518667	0.00283212	0	-2.02138e-05	0.000229433	2.68278e-06	106.358	0.000947269	-0.000266791	-0.000908923	-26.4205	1.83073	1.63952	0.814594	0.488913	0.243148	0.546038	26.4422	1540.72	3098.03	3460	-63.5578	0.0000000E+000	0.0000000E+000	0.0000000E+000	63.5578	0.0000000E+000	0.0000000E+000	0.0000000E+000	-63.5578	0.0000000E+000	0.0000000E+000	0.0000000E+000	-26.4422	0.0000000E+000	0.0000000E+000	0.0000000E+000	26.4422	2.01076	63.5578	2.4699e-06	-3.5517e-06	-2.13108e-10	-3.55149e-06	3.82354	4.11667e+06	247.007	4.11642e+06
15847.7	1.85957	0.978451	2.10128	-27.752	9.46453	3.82376	-0.00975615	10.264	2.22549	1	9	0.00492201	0.00234239	0	-2.06494e-05	0.000286705	8.46084e-06	-72.4966	0.00361206	0.00108637	0.00344482	-27.8213	2.10385	1.86066	0.981896	0.421159	0.221601	0.475901	27.752	2225.49	4229.61	4779.37	-62.248	0.0000000E+000	0.0000000E+000	0.0000000E+000	62.248	0.0000000E+000	0.0000000E+000	0.0000000E+000	-62.248	0.0000000E+000	0.0000000E+000	0.0000000E+000	-27.752	0.0000000E+000	0.0000000E+000	0.0000000E+000	27.752	1.90053	62.248	-2.80128e-06	-3.73052e-05	-2.79714e-09	-3.73024e-05	3.82348	391934	29.3871	391904
10002.2	2.11033	1.18383	2.4197	-29.2911	10.1065	3.82375	-0.0128476	13.4411	3.21729	1	9	0.00498297	0.00205934	0	-2.359e-05	-0.000266929	1.08793e-05	4.93525	0.00528289	0.00526331	-0.000454487	-29.2208	2.42407	2.11559	1.18337	0.360436	0.202193	0.413275	29.2911	3217.29	5735.24	6576.02	-60.7089	0.0000000E+000	0.0000000E+000	0.0000000E+000	60.7089	0.0000000E+000	0.0000000E+000	0.0000000E+000	-60.7089	0.0000000E+000	0.0000000E+000	0.0000000E+000	-29.2911	0.0000000E+000	0.0000000E+000	0.0000000E+000	29.2911	1.78263	60.7089	-1.44556e-06	-4.9126e-05	3.42939e-09	-4.91294e-05	3.82402	297625	20.7766	297645
6309.38	2.44164	1.45033	2.83991	-30.7103	10.6245	3.82376	-0.0100169	17.3927	4.5362	1	9	0.00465626	0.00163958	0	-2.3252e-05	3.85242e-05	5.85848e-06	-126.537	0.00357315	-0.00212727	0.00287091	-30.782	2.83955	2.43952	1.4532	0.302742	0.179829	0.352124	30.7103	4536.2	7636.72	8882.37	-59.2897	0.0000000E+000	0.0000000E+000	0.0000000E+000	59.2897	0.0000000E+000	0.0000000E+000	0.0000000E+000	-59.2897	0.0000000E+000	0.0000000E+000	0.0000000E+000	-30.7103	0.0000000E+000	0.0000000E+000	0.0000000E+000	30.7103	1.68351	59.2897	4.12995e-07	-3.83021e-05	-3.85892e-10	-3.83018e-05	3.82372	381731	3.84592	381727
3983.6	2.85428	1.77987	3.36375	-31.9468	11.3331	3.82358	-0.0739681	22.4469	6.28469	1	9	0.00500572	0.00148813	0	-3.0708e-05	9.57967e-05	8.65006e-06	-78.6185	0.00581269	0.00114708	0.00569838	-32.0188	3.36774	2.85542	1.78557	0.25226	0.157304	0.297287	31.9468	6284.69	10078.4	11877.4	-58.0532	0.0000000E+000	0.0000000E+000	0.0000000E+000	58.0532	0.0000000E+000	0.0000000E+000	0.0000000E+000	-58.0532	0.0000000E+000	0.0000000E+000	0.0000000E+000	-31.9468	0.0000000E+000	0.0000000E+000	0.0000000E+000	31.9468	1.60364	58.0532	-6.48971e-06	-0.000282823	-7.0859e-09	-0.000282816	3.82348	51692.2	1.29511	51690.9
2510.8	3.36518	2.1629	4.00032	-32.73	12.4018	3.82367	-0.0308296	29.307	8.5675	1	10	0.00514021	0.00128495	0	-3.87179e-05	0.000267614	9.6882e-06	-4.93893	0.00753975	0.00751176	0.000649127	-32.6797	4.00699	3.37269	2.16354	0.21029	0.135159	0.24998	32.73	8567.5	13329.9	15845.8	-57.27	0.0000000E+000	0.0000000E+000	0.0000000E+000	57.27	0.0000000E+000	0.0000000E+000	0.0000000E+000	-57.27	0.0000000E+000	0.0000000E+000	0.0000000E+000	-32.73	0.0000000E+000	0.0000000E+000	0.0000000E+000	32.73	1.55587	57.27	-2.24821e-06	-0.000117882	-8.25045e-09	-0.000117874	3.8234	124026	8.68042	124017
1585.51	4.02394	2.61512	4.79906	-33.0195	13.3038	3.82366	-0.0311277	38.3849	11.3981	1	10	0.00498403	0.00103854	0	-4.57803e-05	0.000133978	5.28379e-06	-74.2835	0.00508769	0.00137814	0.00489748	-33.0595	4.80288	4.02532	2.62002	0.174719	0.113548	0.208374	33.0195	11398.1	17538.5	20916.8	-56.9805	0.0000000E+000	0.0000000E+000	0.0000000E+000	56.9805	0.0000000E+000	0.0000000E+000	0.0000000E+000	-56.9805	0.0000000E+000	0.0000000E+000	0.0000000E+000	-33.0195	0.0000000E+000	0.0000000E+000	0.0000000E+000	33.0195	1.53872	56.9805	-4.27335e-06	-0.000119022	-4.17043e-09	-0.000119017	3.82353	122838	4.30416	122834
1000.32	4.87488	3.08006	5.76639	-32.2856	14.2058	3.82366	-0.0306434	51.6562	14.7378	1	10	0.00488031	0.000846337	0	-5.35692e-05	3.42479e-07	6.23762e-06	18.1285	0.00737014	0.00700429	-0.00229322	-32.2292	5.77109	4.88189	3.07776	0.146608	0.0926299	0.173419	32.2856	14737.8	23325.8	27591.6	-57.7144	0.0000000E+000	0.0000000E+000	0.0000000E+000	57.7144	0.0000000E+000	0.0000000E+000	0.0000000E+000	-57.7144	0.0000000E+000	0.0000000E+000	0.0000000E+000	-32.2856	0.0000000E+000	0.0000000E+000	0.0000000E+000	32.2856	1.58272	57.7144	-3.36138e-06	-0.00011717	-1.04947e-11	-0.00011717	3.82366	124779	0.0111763	124779
631.01	5.95762	3.54127	6.93064	-30.7277	15.1076	3.82366	-0.0303566	71.2239	18.595	1	10	0.00484125	0.000698529	0	-6.04702e-05	9.57967e-05	6.59539e-06	-23.1947	0.00944183	0.00867867	0.00371873	-30.7175	6.94	5.96629	3.54499	0.12403	0.0737245	0.144287	30.7277	18595	31283.1	36392.4	-59.2723	0.0000000E+000	0.0000000E+000	0.0000000E+000	59.2723	0.0000000E+000	0.0000000E+000	0.0000000E+000	-59.2723	0.0000000E+000	0.0000000E+000	0.0000000E+000	-30.7277	0.0000000E+000	0.0000000E+000	0.0000000E+000	30.7277	1.68234	59.2723	-3.8942e-06	-0.000116073	-2.90806e-09	-0.00011607	3.82357	125958	3.15572	125955
398.089	7.2624	3.86276	8.22577	-28.0078	16.0088	3.82367	-0.0297643	103.501	22.8236	1	10	0.00481526	0.000585387	0	-6.79894e-05	-0.000133293	1.47217e-05	-90.7087	0.0251487	-0.000311067	0.0251468	-28.1633	8.23733	7.26208	3.8879	0.107331	0.0570879	0.121569	28.0078	22823.6	42910.8	48603	-61.9922	0.0000000E+000	0.0000000E+000	0.0000000E+000	61.9922	0.0000000E+000	0.0000000E+000	0.0000000E+000	-61.9922	0.0000000E+000	0.0000000E+000	0.0000000E+000	-28.0078	0.0000000E+000	0.0000000E+000	0.0000000E+000	28.0078	1.88011	61.9922	-3.67373e-06	-0.000113809	3.96738e-09	-0.000113813	3.8238	128465	4.47831	128470
251.044	8.71522	3.84778	9.52683	-23.8215	16.907	3.82366	-0.030148	164.763	26.8772	1	10	0.00479421	0.000503232	0	-7.47308e-05	0.000343978	4.95508e-06	39.9887	0.0098465	0.0075441	-0.00632772	-23.7684	9.53117	8.72276	3.84145	0.0960245	0.0423949	0.104967	23.8215	26877.1	60876.8	66545.9	-66.1785	0.0000000E+000	0.0000000E+000	0.0000000E+000	66.1785	0.0000000E+000	0.0000000E+000	0.0000000E+000	-66.1785	0.0000000E+000	0.0000000E+000	0.0000000E+000	-23.8215	0.0000000E+000	0.0000000E+000	0.0000000E+000	23.8215	2.265	66.1785	-3.27584e-06	-0.000115275	-1.03702e-08	-0.000115265	3.82331	126830	11.4097	126818
158.428	10.1072	3.52124	10.703	-19.2078	17.8119	3.82366	-0.0292204	285.293	30.8797	1	10	0.00479413	0.000447924	0	-8.05743e-05	-3.78392e-05	1.44196e-05	-39.1877	0.032192	0.0249514	0.020341	-19.2666	10.7332	10.1321	3.54158	0.0882306	0.0307387	0.0934319	19.2078	30879.7	88635.3	93860.3	-70.7922	0.0000000E+000	0.0000000E+000	0.0000000E+000	70.7922	0.0000000E+000	0.0000000E+000	0.0000000E+000	-70.7922	0.0000000E+000	0.0000000E+000	0.0000000E+000	-19.2078	0.0000000E+000	0.0000000E+000	0.0000000E+000	19.2078	2.87034	70.7922	-3.15217e-06	-0.000111729	1.10568e-09	-0.00011173	3.8237	130856	1.29496	130857
100.032	11.2228	2.93225	11.5996	-14.6426	18.7118	3.82365	-0.0302485	542.601	34.6736	1	10	0.00478419	0.000412446	0	-8.79682e-05	-0.000114203	9.11431e-06	-8.88468	0.0220982	0.021833	0.00341298	-14.6317	11.6215	11.2447	2.93566	0.0834102	0.021793	0.0862102	14.6426	34673.6	132709	137164	-75.3574	0.0000000E+000	0.0000000E+000	0.0000000E+000	75.3574	0.0000000E+000	0.0000000E+000	0.0000000E+000	-75.3574	0.0000000E+000	0.0000000E+000	0.0000000E+000	-14.6426	0.0000000E+000	0.0000000E+000	0.0000000E+000	14.6426	3.82738	75.3574	-3.69901e-06	-0.00011566	3.45446e-09	-0.000115663	3.82377	126408	3.77547	126412
63.0823	12.018	2.29059	12.2344	-10.7909	19.629	3.82367	-0.0264376	1101.45	38.6097	1	10	0.00479112	0.000391611	0	-9.45139e-05	-0.000114203	1.32502e-05	3.5693	0.033835	0.0337694	-0.00210642	-10.7517	12.2672	12.0518	2.28849	0.0802915	0.0153032	0.0817368	10.7909	38609.7	202573	206220	-79.2091	0.0000000E+000	0.0000000E+000	0.0000000E+000	79.2091	0.0000000E+000	0.0000000E+000	0.0000000E+000	-79.2091	0.0000000E+000	0.0000000E+000	0.0000000E+000	-10.7909	0.0000000E+000	0.0000000E+000	0.0000000E+000	10.7909	5.24669	79.2091	-3.5224e-06	-0.000101089	3.01925e-09	-0.000101092	3.82379	144630	4.3197	144634
39.8089	12.4555	1.69029	12.5697	-7.72817	20.5298	3.82366	-0.0284455	2365.26	42.7712	1	10	0.00478363	0.000380568	0	-0.000102133	0.000191251	7.185e-06	-14.6273	0.0188797	0.0182678	0.00476768	-7.73849	12.5884	12.4738	1.69506	0.0788338	0.0106982	0.0795564	7.72817	42771.2	315175	318064	-82.2718	0.0000000E+000	0.0000000E+000	0.0000000E+000	82.2718	0.0000000E+000	0.0000000E+000	0.0000000E+000	-82.2718	0.0000000E+000	0.0000000E+000	0.0000000E+000	-7.72817	0.0000000E+000	0.0000000E+000	0.0000000E+000	7.72817	7.36887	82.2718	-3.64406e-06	-0.000108766	-5.44023e-09	-0.000108761	3.82347	134420	6.72341	134414
25.1044	12.8212	1.20796	12.878	-5.38229	21.4081	3.82366	-0.0298015	5248.28	46.1772	1	10	0.00479349	0.000372224	0	-0.000109377	-0.000114203	8.51275e-06	-70.7443	0.02287	0.00754215	0.0215905	-5.47471	12.8875	12.8287	1.22955	0.0773096	0.00728379	0.0776519	5.38229	46177.2	490121	492291	-84.6177	0.0000000E+000	0.0000000E+000	0.0000000E+000	84.6177	0.0000000E+000	0.0000000E+000	0.0000000E+000	-84.6177	0.0000000E+000	0.0000000E+000	0.0000000E+000	-5.38229	0.0000000E+000	0.0000000E+000	0.0000000E+000	5.38229	10.6139	84.6177	-3.78739e-06	-0.000113951	3.40341e-09	-0.000113954	3.82378	128304	3.83211	128308
15.8576	12.9456	0.91461	12.9779	-4.04125	22.286	3.82367	-0.034093	10973.6	54.5022	1	10	0.00479051	0.00036913	0	-0.000117082	0.000114888	2.26553e-05	-115.971	0.0613749	-0.0268767	0.0551772	-4.29305	12.9551	12.9187	0.969787	0.0768628	0.00543038	0.0770544	4.04125	54502.2	771435	773358	-85.9587	0.0000000E+000	0.0000000E+000	0.0000000E+000	85.9587	0.0000000E+000	0.0000000E+000	0.0000000E+000	-85.9587	0.0000000E+000	0.0000000E+000	0.0000000E+000	-4.04125	0.0000000E+000	0.0000000E+000	0.0000000E+000	4.04125	14.1542	85.9587	-3.89935e-06	-0.00013036	-3.91686e-09	-0.000130356	3.82355	112154	3.36983	112151
10.0032	13.1009	0.699502	13.1196	-3.05631	23.5508	3.82371	-0.0157649	22745.3	64.6592	1	11	0.00478696	0.000364872	0	-0.000119686	0.000458523	1.0366e-05	-46.8074	0.02841	0.0194453	0.0207125	-3.14198	13.1401	13.1204	0.720214	0.0761136	0.00406396	0.076222	3.05631	64659.2	1.211e+06	1.21272e+06	-86.9437	0.0000000E+000	0.0000000E+000	0.0000000E+000	86.9437	0.0000000E+000	0.0000000E+000	0.0000000E+000	-86.9437	0.0000000E+000	0.0000000E+000	0.0000000E+000	-3.05631	0.0000000E+000	0.0000000E+000	0.0000000E+000	3.05631	18.7289	86.9437	-9.9938e-07	-6.02804e-05	-7.22856e-09	-6.02732e-05	3.82325	242546	29.0851	242517
6.31058	13.1897	0.593036	13.203	-2.5744	24.4753	3.82371	-0.0161899	42527.5	85.7995	1	11	0.004783	0.000362265	0	-0.000121479	0.000153069	5.45987e-06	31.5667	0.0150715	0.0128414	-0.00788978	-2.53773	13.2155	13.2025	0.585146	0.0756638	0.003402	0.0757402	2.5744	85799.5	1.90827e+06	1.91019e+06	-87.4256	0.0000000E+000	0.0000000E+000	0.0000000E+000	87.4256	0.0000000E+000	0.0000000E+000	0.0000000E+000	-87.4256	0.0000000E+000	0.0000000E+000	0.0000000E+000	-2.5744	0.0000000E+000	0.0000000E+000	0.0000000E+000	2.5744	22.241	87.4256	1.59112e-06	-6.19055e-05	-2.47818e-09	-6.19031e-05	3.82355	236178	9.45459	236168
3.97785	13.308	0.536261	13.3188	-2.30754	25.4823	3.82372	-0.0143546	74609.8	120.952	1	11	0.00478828	0.000359511	0	-0.000131473	0.000305796	3.84557e-06	128.593	0.0106966	-0.00667238	-0.00836048	-2.27274	13.3118	13.3014	0.5279	0.0750207	0.00302303	0.0750816	2.30754	120952	3.0016e+06	3.00404e+06	-87.6925	0.0000000E+000	0.0000000E+000	0.0000000E+000	87.6925	0.0000000E+000	0.0000000E+000	0.0000000E+000	-87.6925	0.0000000E+000	0.0000000E+000	0.0000000E+000	-2.30754	0.0000000E+000	0.0000000E+000	0.0000000E+000	2.30754	24.8164	87.6925	-5.39752e-06	-5.48878e-05	-4.38957e-09	-5.48835e-05	3.82341	266376	21.303	266355
2.51367	13.3988	0.551866	13.4101	-2.35855	27.0419	3.82372	-0.0140074	114730	194.303	1	11	0.00478732	0.000356993	0	-0.000129409	-7.60209e-05	1.68301e-06	80.4996	0.00471441	0.000778132	-0.00464975	-2.33857	13.4107	13.3995	0.547216	0.0745074	0.0030688	0.0745705	2.35855	194302	4.71748e+06	4.72148e+06	-87.6414	0.0000000E+000	0.0000000E+000	0.0000000E+000	87.6414	0.0000000E+000	0.0000000E+000	0.0000000E+000	-87.6414	0.0000000E+000	0.0000000E+000	0.0000000E+000	-2.35855	0.0000000E+000	0.0000000E+000	0.0000000E+000	2.35855	24.279	87.6414	2.40892e-06	-5.35603e-05	1.06485e-09	-5.35614e-05	3.8238	272979	5.4272	272985
1.58469	13.5204	0.602902	13.5339	-2.55324	29.4776	3.82372	-0.0131017	166583	330.583	1	11	0.00478851	0.000353817	0	-0.000141178	0.000133978	8.77713e-07	10.2764	0.0024807	0.0024409	-0.000442549	-2.55091	13.5363	13.5229	0.60246	0.0738154	0.00329157	0.0738887	2.55324	330583	7.41351e+06	7.42088e+06	-87.4468	0.0000000E+000	0.0000000E+000	0.0000000E+000	87.4468	0.0000000E+000	0.0000000E+000	0.0000000E+000	-87.4468	0.0000000E+000	0.0000000E+000	0.0000000E+000	-2.55324	0.0000000E+000	0.0000000E+000	0.0000000E+000	2.55324	22.4256	87.4468	-9.81977e-06	-5.00974e-05	-1.75535e-09	-5.00956e-05	3.82358	291848	10.226	291838
1.00469	13.5845	0.652225	13.6002	-2.7488	240.297	3.82367	-0.0137076	242879	558.593	1	11	0.00497827	0.000366045	0	-0.00229602	0.000153069	1.22354e-07	-29.8975	0.000334259	0.000289775	0.000166611	-2.74944	13.6005	13.5848	0.652391	0.0734439	0.00352622	0.0735286	2.7488	558593	1.16344e+07	1.16478e+07	-87.2512	0.0000000E+000	0.0000000E+000	0.0000000E+000	87.2512	0.0000000E+000	0.0000000E+000	0.0000000E+000	-87.2512	0.0000000E+000	0.0000000E+000	0.0000000E+000	-2.7488	0.0000000E+000	0.0000000E+000	0.0000000E+000	2.7488	20.828	87.2512	-0.0021392	-5.24135e-05	-2.09821e-09	-5.24114e-05	3.82352	278945	11.1667	278934
0.632957	13.7476	0.785429	13.77	-3.26987	240.297	3.82367	-0.0137076	320139	1041.56	1	11	0.00499033	0.000362405	0	-0.00229602	0.000153069	1.97837e-07	-99.6771	0.000545902	-9.17632e-05	0.000538134	-3.27212	13.77	13.7475	0.785967	0.0725032	0.00414225	0.0726214	3.26987	1.04155e+06	1.82307e+07	1.82604e+07	-86.7301	0.0000000E+000	0.0000000E+000	0.0000000E+000	86.7301	0.0000000E+000	0.0000000E+000	0.0000000E+000	-86.7301	0.0000000E+000	0.0000000E+000	0.0000000E+000	-3.26987	0.0000000E+000	0.0000000E+000	0.0000000E+000	3.26987	17.5033	86.7301	0.000000000000000E+000	-5.24135e-05	-2.09821e-09	-5.24114e-05	3.82352	278945	11.1667	278934
0.401878	13.8894	0.979701	13.9239	-4.03474	240.297	3.82367	-0.0137076	404234	2001.24	1	11	0.005004	0.000359383	0	-0.00229602	0.000153069	1.80656e-07	-27.1355	0.000502684	0.000447354	0.000229273	-4.03555	13.9243	13.8898	0.979931	0.0716411	0.00505328	0.0718191	4.03474	2.00124e+06	2.83719e+07	2.84424e+07	-85.9653	0.0000000E+000	0.0000000E+000	0.0000000E+000	85.9653	0.0000000E+000	0.0000000E+000	0.0000000E+000	-85.9653	0.0000000E+000	0.0000000E+000	0.0000000E+000	-4.03474	0.0000000E+000	0.0000000E+000	0.0000000E+000	4.03474	14.1771	85.9653	0.000000000000000E+000	-5.24135e-05	-2.09821e-09	-5.24114e-05	3.82352	278945	11.1667	278934
0.251173	14.1825	1.25499	14.2379	-5.05684	240.297	3.82367	-0.0137076	504901	3922.76	1	11	0.00500415	0.000351466	0	-0.00229602	0.000153069	4.79478e-07	-5.30293	0.00136422	0.00135838	0.000126084	-5.05687	14.2393	14.1839	1.25512	0.0699615	0.00619078	0.0702349	5.05684	3.92276e+06	4.43308e+07	4.4504e+07	-84.9432	0.0000000E+000	0.0000000E+000	0.0000000E+000	84.9432	0.0000000E+000	0.0000000E+000	0.0000000E+000	-84.9432	0.0000000E+000	0.0000000E+000	0.0000000E+000	-5.05684	0.0000000E+000	0.0000000E+000	0.0000000E+000	5.05684	11.3009	84.9432	0.000000000000000E+000	-5.24135e-05	-2.09821e-09	-5.24114e-05	3.82352	278945	11.1667	278934
0.160751	14.4734	1.43911	14.5448	-5.67832	240.297	3.82367	-0.0137076	687975	6735.11	1	11	0.00500042	0.000343794	0	-0.00229602	0.000153069	4.05015e-07	-49.4374	0.00117807	0.000766076	0.000894977	-5.68153	14.5457	14.4742	1.44001	0.0684157	0.00680265	0.0687531	5.67832	6.73511e+06	6.77364e+07	6.80704e+07	-84.3217	0.0000000E+000	0.0000000E+000	0.0000000E+000	84.3217	0.0000000E+000	0.0000000E+000	0.0000000E+000	-84.3217	0.0000000E+000	0.0000000E+000	0.0000000E+000	-5.67832	0.0000000E+000	0.0000000E+000	0.0000000E+000	5.67832	10.0572	84.3217	0.000000000000000E+000	-5.24135e-05	-2.09821e-09	-5.24114e-05	3.82352	278945	11.1667	278934
0.100469	14.8013	2.01131	14.9373	-7.7384	240.297	3.82367	-0.0137076	787602	14279.8	1	11	0.00500332	0.000334955	0	-0.00229602	0.000153069	3.85185e-07	13.9191	0.00114996	0.0011162	-0.000276625	-7.73677	14.9384	14.8024	2.01104	0.0663368	0.00901436	0.0669465	7.7384	1.42798e+07	1.05085e+08	1.06051e+08	-82.2616	0.0000000E+000	0.0000000E+000	0.0000000E+000	82.2616	0.0000000E+000	0.0000000E+000	0.0000000E+000	-82.2616	0.0000000E+000	0.0000000E+000	0.0000000E+000	-7.7384	0.0000000E+000	0.0000000E+000	0.0000000E+000	7.7384	7.35901	82.2616	0.000000000000000E+000	-5.24135e-05	-2.09821e-09	-5.24114e-05	3.82352	278945	11.1667	278934
0.0602816	15.4394	2.45925	15.634	-9.05028	240.298	3.82367	-0.0137076	1.07358e+06	26564.2	1	11	0.00499715	0.000319633	0	-0.00229602	0.000153069	5.49197e-07	19.5182	0.00171821	0.00161948	-0.000574064	-9.04726	15.6355	15.441	2.45868	0.0631667	0.0100615	0.063963	9.05028	2.65642e+07	1.66772e+08	1.68875e+08	-80.9497	0.0000000E+000	0.0000000E+000	0.0000000E+000	80.9497	0.0000000E+000	0.0000000E+000	0.0000000E+000	-80.9497	0.0000000E+000	0.0000000E+000	0.0000000E+000	-9.05028	0.0000000E+000	0.0000000E+000	0.0000000E+000	9.05028	6.27809	80.9497	0.000000000000000E+000	-5.24135e-05	-2.09821e-09	-5.24114e-05	3.82352	278945	11.1667	278934
0.0401878	16.2484	2.92049	16.5088	-10.1895	240.298	3.82367	-0.0137076	1.35604e+06	42437.7	1	11	0.00499878	0.000302795	0	-0.00229602	0.000153069	4.43835e-07	146.411	0.00146579	-0.00122105	-0.000810917	-10.1875	16.5074	16.2472	2.91968	0.0596185	0.0107158	0.0605738	10.1895	4.24377e+07	2.36106e+08	2.3989e+08	-79.8105	0.0000000E+000	0.0000000E+000	0.0000000E+000	79.8105	0.0000000E+000	0.0000000E+000	0.0000000E+000	-79.8105	0.0000000E+000	0.0000000E+000	0.0000000E+000	-10.1895	0.0000000E+000	0.0000000E+000	0.0000000E+000	10.1895	5.56359	79.8105	0.000000000000000E+000	-5.24135e-05	-2.09821e-09	-5.24114e-05	3.82352	278945	11.1667	278934
0.0200939	17.9854	4.06789	18.4397	-12.7446	240.298	3.82367	-0.0137076	1.9471e+06	94758.6	1	11	0.00499707	0.000270995	0	-0.00229602	0.000153069	1.24579e-06	0.827443	0.00459709	0.00459661	-6.6387e-05	-12.7412	18.4442	17.99	4.06782	0.0528948	0.0119636	0.0542309	12.7446	9.47586e+07	4.18957e+08	4.29539e+08	-77.2554	0.0000000E+000	0.0000000E+000	0.0000000E+000	77.2554	0.0000000E+000	0.0000000E+000	0.0000000E+000	-77.2554	0.0000000E+000	0.0000000E+000	0.0000000E+000	-12.7446	0.0000000E+000	0.0000000E+000	0.0000000E+000	12.7446	4.42131	77.2554	0.000000000000000E+000	-5.24135e-05	-2.09821e-09	-5.24114e-05	3.82352	278945	11.1667	278934
0.00796479	20.2629	4.35331	20.7253	-12.1252	20329.2	3.82368	-0.00143502	4.59015e+06	202519	1	11	0.00499418	0.000240971	0	-0.0293462	0.000153069	4.11275e-07	10.9025	0.00170674	0.00167594	-0.00032281	-12.1233	20.7268	20.2646	4.35298	0.0471739	0.0101349	0.0482503	12.1252	2.02519e+08	9.42644e+08	9.64153e+08	-77.8748	0.0000000E+000	0.0000000E+000	0.0000000E+000	77.8748	0.0000000E+000	0.0000000E+000	0.0000000E+000	-77.8748	0.0000000E+000	0.0000000E+000	0.0000000E+000	-12.1252	0.0000000E+000	0.0000000E+000	0.0000000E+000	12.1252	4.6546	77.8748	-0.0270502	-5.48703e-06	-2.19657e-10	-5.48681e-06	3.82352	2.66455e+06	106.667	2.66445e+06
0.00497799	21.673	4.09781	22.057	-10.7068	20329.2	3.82368	-0.00143502	7.80215e+06	269292	1	11	0.00500123	0.000226741	0	-0.0293462	0.000153069	2.87251e-07	-55.9227	0.00126687	0.00070984	0.00104932	-10.7091	22.0579	21.6737	4.09886	0.0445477	0.00842282	0.045337	10.7068	2.69292e+08	1.42427e+09	1.4495e+09	-79.2933	0.0000000E+000	0.0000000E+000	0.0000000E+000	79.2933	0.0000000E+000	0.0000000E+000	0.0000000E+000	-79.2933	0.0000000E+000	0.0000000E+000	0.0000000E+000	-10.7068	0.0000000E+000	0.0000000E+000	0.0000000E+000	10.7068	5.28893	79.2933	0.000000000000000E+000	-5.48703e-06	-2.19657e-10	-5.48681e-06	3.82352	2.66455e+06	106.667	2.66445e+06
0.00318591	22.4855	5.50934	23.1506	-13.7673	20329.2	3.82368	-0.00143502	9.06748e+06	513526	1	11	0.0050032	0.000216116	0	-0.0293462	0.000153069	2.14292e-07	-9.88419	0.000991561	0.000976843	0.000170209	-13.7671	23.1515	22.4864	5.50951	0.0419545	0.0102796	0.0431955	13.7673	5.13526e+08	2.09587e+09	2.15787e+09	-76.2327	0.0000000E+000	0.0000000E+000	0.0000000E+000	76.2327	0.0000000E+000	0.0000000E+000	0.0000000E+000	-76.2327	0.0000000E+000	0.0000000E+000	0.0000000E+000	-13.7673	0.0000000E+000	0.0000000E+000	0.0000000E+000	13.7673	4.08133	76.2327	0.000000000000000E+000	-5.48703e-06	-2.19657e-10	-5.48681e-06	3.82352	2.66455e+06	106.667	2.66445e+06
0.0019912	23.224	6.57112	24.1357	-15.7986	20329.2	3.82368	-0.00143502	1.21637e+07	901622	1	11	0.00500676	0.000207442	0	-0.0293462	0.000153069	7.08086e-07	-88.5326	0.00341342	8.74092e-05	0.0034123	-15.8064	24.1367	23.2241	6.57453	0.0398672	0.0112802	0.0414323	15.7986	9.01622e+08	3.18656e+09	3.31166e+09	-74.2014	0.0000000E+000	0.0000000E+000	0.0000000E+000	74.2014	0.0000000E+000	0.0000000E+000	0.0000000E+000	-74.2014	0.0000000E+000	0.0000000E+000	0.0000000E+000	-15.7986	0.0000000E+000	0.0000000E+000	0.0000000E+000	15.7986	3.53425	74.2014	0.000000000000000E+000	-5.48703e-06	-2.19657e-10	-5.48681e-06	3.82352	2.66455e+06	106.667	2.66445e+06
0.00129428	22.7261	8.18644	24.1556	-19.8101	20329.2	3.82368	-0.00143502	1.5021e+07	1.72525e+06	1	11	0.00500695	0.000207279	0	-0.0293462	0.000153069	2.84527e-07	12.4247	0.00137268	0.00134053	-0.000295341	-19.8084	24.1568	22.7274	8.18615	0.0389483	0.01403	0.0413982	19.8101	1.72525e+09	4.7894e+09	5.09067e+09	-70.1899	0.0000000E+000	0.0000000E+000	0.0000000E+000	70.1899	0.0000000E+000	0.0000000E+000	0.0000000E+000	-70.1899	0.0000000E+000	0.0000000E+000	0.0000000E+000	-19.8101	0.0000000E+000	0.0000000E+000	0.0000000E+000	19.8101	2.77607	70.1899	0.000000000000000E+000	-5.48703e-06	-2.19657e-10	-5.48681e-06	3.82352	2.66455e+06	106.667	2.66445e+06
0.000796479	24.5291	11.6989	27.1762	-25.4984	20329.2	3.82368	-0.00143502	1.70805e+07	3.16531e+06	1	11	0.00500559	0.00018419	0	-0.0293462	0.000153069	1.24183e-06	-31.3451	0.00674212	0.00575811	0.00350719	-25.4998	27.1829	24.5349	11.7024	0.0332128	0.0158405	0.0367969	25.4984	3.16531e+09	6.6367e+09	7.35288e+09	-64.5016	0.0000000E+000	0.0000000E+000	0.0000000E+000	64.5016	0.0000000E+000	0.0000000E+000	0.0000000E+000	-64.5016	0.0000000E+000	0.0000000E+000	0.0000000E+000	-25.4984	0.0000000E+000	0.0000000E+000	0.0000000E+000	25.4984	2.0967	64.5016	0.000000000000000E+000	-5.48703e-06	-2.19657e-10	-5.48681e-06	3.82352	2.66455e+06	106.667	2.66445e+06
0.000497799	23.6143	16.7855	28.9722	-35.4059	20329.2	3.82368	-0.00143502	1.90473e+07	6.39348e+06	1	11	0.0050071	0.000172824	0	-0.0293462	0.000153069	6.8827e-07	-13.044	0.00398248	0.00387972	0.000898842	-35.4029	28.9759	23.6182	16.7864	0.0281328	0.0199973	0.0345159	35.4059	6.39348e+09	8.99454e+09	1.10353e+10	-54.5941	0.0000000E+000	0.0000000E+000	0.0000000E+000	54.5941	0.0000000E+000	0.0000000E+000	0.0000000E+000	-54.5941	0.0000000E+000	0.0000000E+000	0.0000000E+000	-35.4059	0.0000000E+000	0.0000000E+000	0.0000000E+000	35.4059	1.40683	54.5941	0.000000000000000E+000	-5.48703e-06	-2.19657e-10	-5.48681e-06	3.82352	2.66455e+06	106.667	2.66445e+06
0.000298679	22.7769	25.8856	34.4797	-48.6553	20329.2	3.82368	-0.00143502	2.05852e+07	1.16023e+07	1	11	0.00500807	0.000145247	0	-0.0293462	0.000153069	1.25902e-06	-7.6753	0.00866817	0.00859051	0.00115771	-48.6459	34.4863	22.7855	25.8868	0.0191587	0.0217736	0.0290025	48.6553	1.16023e+10	1.02089e+10	1.54543e+10	-41.3447	0.0000000E+000	0.0000000E+000	0.0000000E+000	41.3447	0.0000000E+000	0.0000000E+000	0.0000000E+000	-41.3447	0.0000000E+000	0.0000000E+000	0.0000000E+000	-48.6553	0.0000000E+000	0.0000000E+000	0.0000000E+000	48.6553	0.879904	41.3447	0.000000000000000E+000	-5.48703e-06	-2.19657e-10	-5.48681e-06	3.82352	2.66455e+06	106.667	2.66445e+06
9.95598e-05	29.1971	95.4383	99.8045	-72.9898	20329.2	3.82368	-0.00143502	1.67499e+07	1.53165e+07	1	11	0.0050011	5.0109e-05	0	-0.0293462	0.000153069	5.50589e-06	-5.91057	0.109878	0.109294	0.0113148	-72.9317	99.8474	29.3064	95.4496	0.00293116	0.00958125	0.0100196	72.9898	1.53165e+10	4.6857e+09	1.60172e+10	-17.0102	0.0000000E+000	0.0000000E+000	0.0000000E+000	17.0102	0.0000000E+000	0.0000000E+000	0.0000000E+000	-17.0102	0.0000000E+000	0.0000000E+000	0.0000000E+000	-72.9898	0.0000000E+000	0.0000000E+000	0.0000000E+000	72.9898	0.305926	17.0102	0.000000000000000E+000	-5.48703e-06	-2.19657e-10	-5.48681e-06	3.82352	2.66455e+06	106.667	2.66445e+06