File: txt/18441_R297_UC61_11mm_SOC50_C01.mpt
EC-Lab ASCII FILE
Nb header lines : 65

Potentio Electrochemical Impedance Spectroscopy

Run on channel : 1 (SN 66354)
User :
CE vs. WE compliance from -10 V to 10 V
Electrode connection : standard
Potential control : Ewe
Ewe ctrl range : min = -10.00 V, max = 10.00 V
Safety Limits :
	Do not start on E overload
Acquisition started on : 10/16/2025 15:31:40.435
Technique started on : 10/16/2025 15:31:43.130
Loaded Setting File :  C:\Users\Celltest\OneDrive - store-dot.com\Documents\EC-Lab\Data\txt_done\UC80_17231_EIS_50SOC.mps
Saved on :
	File : 18441_R297_UC61_11mm_SOC50_C01.mpr
	Directory : C:\Users\Celltest\OneDrive - store-dot.com\Documents\EC-Lab\Data\Michael\
	Host : 169.254.61.224
Device : VMP-3e (SN .003165)
Address : USB
EC-LAB for windows v11.62 (software)
Internet server v27.00 (firmware)
Command interpretor v12.03 (firmware)
Electrode material :
Initial state :
Electrolyte :
Comments :
Electrode surface area : 0.001 cm²
Characteristic mass : 0.001 g
Equivalent Weight : 0.000 g/eq.
Density : 0.000 g/cm3
Volume (V) : 0.001 cm³
Record Ece
Cycle Definition : Charge/Discharge alternance
Mode                Multi sine
E (V)               0.0000
vs.                 Eoc
tE (h:m:s)          0:00:0.0000
record              0
dI                  0.000
unit dI             mA
dt (s)              0.000
fi                  1.000
unit fi             MHz
ff                  0.100
unit ff             mHz
Nd                  10
Points              per decade
spacing             Logarithmic
Va (mV)             5.0
pw                  0.10
Na                  2
corr                0
E range min (V)     -10.000
E range max (V)     10.000
I Range             Auto
Bandwidth           5
nc cycles           0
goto Ns'            0
nr cycles           0
inc. cycle          0

freq/Hz	Re(Z)/Ohm	-Im(Z)/Ohm	|Z|/Ohm	Phase(Z)/deg	time/s	<Ewe>/V	<I>/mA	Cs/µF	Cp/µF	cycle number	I Range	|Ewe|/V	|I|/A	Ns	(Q-Qo)/mA.h	<Ece>/V	|Ece|/V	Phase(Zce)/deg	|Zce|/Ohm	Re(Zce)/Ohm	-Im(Zce)/Ohm	Phase(Zwe-ce)/deg	|Zwe-ce|/Ohm	Re(Zwe-ce)/Ohm	-Im(Zwe-ce)/Ohm	Re(Y)/Ohm-1	Im(Y)/Ohm-1	|Y|/Ohm-1	Phase(Y)/deg	Re(C)/nF	Im(C)/nF	|C|/nF	Phase(C)/deg	Re(M)	Im(M)	|M|	Phase(M)/deg	Re(Permittivity)	Im(Permittivity)	|Permittivity|	Phase(Permittivity)/deg	Re(Resistivity)/Ohm.cm	Im(Resistivity)/Ohm.cm	|Resistivity|/Ohm.cm	Phase(Resistivity)/deg	Re(Conductivity)/mS/cm	Im(Conductivity)/mS/cm	|Conductivity|/mS/cm	Phase(Conductivity)/deg	Tan(Delta)	Loss Angle(Delta)/deg	dq/mA.h	Pwe/W	Pce/W	Pwe-ce/W	<Ewe-Ece>/V	Rwe/Ohm	Rce/Ohm	Rwe-ce/Ohm		Ewe-Ece/V
1.00002e+06	1.0913	-0.00180885	1.0913	0.0949687	2.69455	3.82395	-0.00183009	-87.9853	-0.000241727	1	9	0.000222505	0.000203889	0	-4.44595e-07	7.86489e-05	0.000197506	-6.67335	0.968692	0.962129	0.112571	-3.08754	2.05641	2.05343	0.110762	0.916336	-0.00151884	0.916338	-0.0949687	-0.241732	145.837	145.837	-90.095	0.0000000E+000	0.0000000E+000	0.0000000E+000	90.095	0.0000000E+000	0.0000000E+000	0.0000000E+000	-90.095	0.0000000E+000	0.0000000E+000	0.0000000E+000	0.0949687	0.0000000E+000	0.0000000E+000	0.0000000E+000	-0.0949687	603.312	89.905	-4.44595e-07	-6.99817e-06	-1.43935e-10	-6.99803e-06	3.82387	2.08948e+06	42.9754	2.08944e+06
630957	0.389709	0.239861	0.45761	-31.6118	3.46454	3.82365	-0.0155024	1.05162	0.288928	1	9	0.000157235	0.0003436	0	-4.45123e-07	-9.30469e-05	0.000123899	-115.897	0.36059	-0.157492	0.324379	-67.63	0.610157	0.232218	0.56424	1.86102	1.14543	2.18527	31.6118	288.928	469.43	551.22	-58.3882	0.0000000E+000	0.0000000E+000	0.0000000E+000	58.3882	0.0000000E+000	0.0000000E+000	0.0000000E+000	-58.3882	0.0000000E+000	0.0000000E+000	0.0000000E+000	-31.6118	0.0000000E+000	0.0000000E+000	0.0000000E+000	31.6118	1.62473	58.3882	-2.05469e-07	-5.92758e-05	1.44245e-09	-5.92773e-05	3.82374	246648	6.00208	246654
398103	0.608521	0.106611	0.61779	-9.93718	4.23456	3.82371	-0.00663589	3.74992	0.111672	1	9	0.000601895	0.000974271	0	7.68924e-07	-5.48923e-05	6.11272e-05	167.168	0.0627414	-0.0611746	-0.0139341	-9.61019	0.555137	0.547347	0.0926769	1.59439	0.279332	1.61867	9.93718	111.672	637.41	647.118	-80.0628	0.0000000E+000	0.0000000E+000	0.0000000E+000	80.0628	0.0000000E+000	0.0000000E+000	0.0000000E+000	-80.0628	0.0000000E+000	0.0000000E+000	0.0000000E+000	-9.93718	0.0000000E+000	0.0000000E+000	0.0000000E+000	9.93718	5.70787	80.0628	1.30934e-06	-2.53737e-05	3.64259e-10	-2.5374e-05	3.82376	576216	8.27203	576224
251206	0.722098	0.226546	0.756801	-17.4184	5.00052	3.82363	-0.00916914	2.79662	0.250601	1	9	0.00196594	0.0025977	0	3.70746e-06	0.000269422	6.71096e-05	117.728	0.0258342	-0.0120199	-0.0228677	-16.005	0.738712	0.710078	0.203678	1.26076	0.395542	1.32135	17.4184	250.601	798.77	837.159	-72.5816	0.0000000E+000	0.0000000E+000	0.0000000E+000	72.5816	0.0000000E+000	0.0000000E+000	0.0000000E+000	-72.5816	0.0000000E+000	0.0000000E+000	0.0000000E+000	-17.4184	0.0000000E+000	0.0000000E+000	0.0000000E+000	17.4184	3.18742	72.5816	2.83439e-06	-3.50594e-05	-2.47037e-09	-3.50569e-05	3.82336	417011	29.3836	416981
158486	0.812846	0.336304	0.87967	-22.4766	5.76853	3.8236	0.0089738	2.98605	0.436437	1	9	0.00506765	0.00576085	0	-2.01932e-06	-0.000207511	5.91525e-05	92.8446	0.010268	-0.00050958	-0.0102554	-21.8691	0.875328	0.812337	0.326048	1.05043	0.434603	1.13679	22.4766	436.437	1054.87	1141.59	-67.5234	0.0000000E+000	0.0000000E+000	0.0000000E+000	67.5234	0.0000000E+000	0.0000000E+000	0.0000000E+000	-67.5234	0.0000000E+000	0.0000000E+000	0.0000000E+000	-22.4766	0.0000000E+000	0.0000000E+000	0.0000000E+000	22.4766	2.417	67.5234	-6.05131e-06	3.43122e-05	-1.86216e-09	3.43141e-05	3.82381	426085	23.1241	426108
100004	0.920458	0.447849	1.02363	-25.9452	6.53452	3.82359	0.0225716	3.55364	0.680224	1	9	0.0053069	0.00518441	0	1.23769e-05	5.95716e-05	4.86767e-05	90.707	0.00938905	-0.000115853	-0.00938833	-25.4736	1.01945	0.920343	0.43846	0.878458	0.427413	0.976918	25.9452	680.224	1398.06	1554.76	-64.0548	0.0000000E+000	0.0000000E+000	0.0000000E+000	64.0548	0.0000000E+000	0.0000000E+000	0.0000000E+000	-64.0548	0.0000000E+000	0.0000000E+000	0.0000000E+000	-25.9452	0.0000000E+000	0.0000000E+000	0.0000000E+000	25.9452	2.05529	64.0548	-4.81792e-07	8.63047e-05	1.34463e-09	8.63034e-05	3.82353	169398	2.63922	169396
63093.8	1.04967	0.572301	1.19555	-28.6001	7.30053	3.8236	0.0287931	4.40767	1.01	1	9	0.00533849	0.0044653	0	6.47113e-06	-7.39696e-05	2.60938e-05	77.1801	0.00584368	0.00129664	-0.00569801	-28.3302	1.19397	1.05097	0.566603	0.734375	0.400395	0.836435	28.6001	1010	1852.47	2109.92	-61.3999	0.0000000E+000	0.0000000E+000	0.0000000E+000	61.3999	0.0000000E+000	0.0000000E+000	0.0000000E+000	-61.3999	0.0000000E+000	0.0000000E+000	0.0000000E+000	-28.6001	0.0000000E+000	0.0000000E+000	0.0000000E+000	28.6001	1.83413	61.3999	-1.17088e-05	0.000110093	-2.12981e-09	0.000110095	3.82367	132796	2.56901	132798
39814.1	1.20531	0.710543	1.39915	-30.5199	8.06651	3.8236	0.0304323	5.62592	1.45092	1	9	0.00544509	0.0038917	0	8.44833e-06	-7.39696e-05	2.13449e-05	-62.442	0.00548472	0.00253749	0.00486244	-30.6382	1.40381	1.20784	0.715406	0.615695	0.36296	0.714717	30.5199	1450.92	2461.21	2857.05	-59.4801	0.0000000E+000	0.0000000E+000	0.0000000E+000	59.4801	0.0000000E+000	0.0000000E+000	0.0000000E+000	-59.4801	0.0000000E+000	0.0000000E+000	0.0000000E+000	-30.5199	0.0000000E+000	0.0000000E+000	0.0000000E+000	30.5199	1.69632	59.4801	-3.08317e-06	0.000116361	-2.25106e-09	0.000116363	3.82368	125643	2.43063	125646
25116.9	1.41315	0.88803	1.66901	-32.1455	9.08057	3.82361	0.0312518	7.13553	2.02007	1	9	0.00493209	0.00295511	0	-2.17599e-07	2.33964e-06	9.94597e-06	14.8771	0.00336569	0.00325287	-0.000864128	-32.0611	1.6713	1.4164	0.887166	0.507308	0.318796	0.599159	32.1455	2020.07	3214.59	3796.61	-57.8545	0.0000000E+000	0.0000000E+000	0.0000000E+000	57.8545	0.0000000E+000	0.0000000E+000	0.0000000E+000	-57.8545	0.0000000E+000	0.0000000E+000	0.0000000E+000	-32.1455	0.0000000E+000	0.0000000E+000	0.0000000E+000	32.1455	1.59133	57.8545	9.47886e-07	0.000119495	7.31181e-11	0.000119495	3.82361	122348	0.0748643	122348
15847.7	1.66943	1.09951	1.99898	-33.3695	9.84855	3.82361	0.0205598	9.13389	2.76336	1	9	0.00475807	0.00238025	0	6.10414e-06	0.000231267	4.03212e-06	-129.082	0.00169399	-0.00106794	0.00131495	-33.4178	1.99881	1.66836	1.10082	0.417784	0.275159	0.500256	33.3695	2763.36	4195.72	5023.97	-56.6305	0.0000000E+000	0.0000000E+000	0.0000000E+000	56.6305	0.0000000E+000	0.0000000E+000	0.0000000E+000	-56.6305	0.0000000E+000	0.0000000E+000	0.0000000E+000	-33.3695	0.0000000E+000	0.0000000E+000	0.0000000E+000	33.3695	1.51834	56.6305	2.54489e-06	7.86127e-05	4.75482e-09	7.8608e-05	3.82338	185975	11.2485	185963
10002.2	1.97788	1.31811	2.37685	-33.6805	10.4945	3.82361	0.0354615	12.0718	3.71255	1	9	0.00453081	0.00190623	0	1.11616e-05	0.000231267	6.00501e-06	15.0372	0.00315021	0.00304233	-0.00081731	-33.6235	2.37893	1.98092	1.31729	0.350104	0.233318	0.420725	33.6805	3712.55	5570.83	6694.56	-56.3195	0.0000000E+000	0.0000000E+000	0.0000000E+000	56.3195	0.0000000E+000	0.0000000E+000	0.0000000E+000	-56.3195	0.0000000E+000	0.0000000E+000	0.0000000E+000	-33.6805	0.0000000E+000	0.0000000E+000	0.0000000E+000	33.6805	1.50054	56.3195	1.33349e-06	0.000135591	8.20109e-09	0.000135583	3.82338	107824	6.52164	107818
6309.38	2.34329	1.565	2.81784	-33.7374	11.1365	3.82361	0.0175049	16.1183	4.97179	1	9	0.0048351	0.00171589	0	1.45123e-05	0.000288499	7.84279e-06	-13.1467	0.00457069	0.0044509	0.00103958	-33.7048	2.82212	2.34775	1.56604	0.295116	0.197097	0.354881	33.7374	4971.79	7444.34	8951.92	-56.2626	0.0000000E+000	0.0000000E+000	0.0000000E+000	56.2626	0.0000000E+000	0.0000000E+000	0.0000000E+000	-56.2626	0.0000000E+000	0.0000000E+000	0.0000000E+000	-33.7374	0.0000000E+000	0.0000000E+000	0.0000000E+000	33.7374	1.49732	56.2626	2.1495e-06	6.69321e-05	5.05016e-09	6.6927e-05	3.82332	218430	16.481	218414
3983.6	2.8373	1.87314	3.39984	-33.4321	11.7011	3.82346	-0.0569292	21.3292	6.47435	1	9	0.00471443	0.00138666	0	1.11863e-05	2.1417e-05	3.97811e-06	-139.151	0.00286884	-0.00217011	0.0018764	-33.4787	3.39907	2.83513	1.87502	0.245464	0.162051	0.294131	33.4321	6474.35	9806.91	11751.3	-56.5679	0.0000000E+000	0.0000000E+000	0.0000000E+000	56.5679	0.0000000E+000	0.0000000E+000	0.0000000E+000	-56.5679	0.0000000E+000	0.0000000E+000	0.0000000E+000	-33.4321	0.0000000E+000	0.0000000E+000	0.0000000E+000	33.4321	1.51473	56.5679	-4.01116e-06	-0.000217666	-1.21925e-09	-0.000217665	3.82343	67161.5	0.376203	67161.2
2510.8	3.41029	2.2758	4.09992	-33.7165	12.7348	3.8235	-0.0311427	27.8531	8.58203	1	10	0.00486974	0.00118776	0	1.61826e-06	0.000269422	1.37732e-05	-121.777	0.0115959	-0.00610659	0.0098577	-33.8784	4.10033	3.40419	2.28566	0.202881	0.135389	0.243907	33.7165	8582.03	12860.2	15460.8	-56.2835	0.0000000E+000	0.0000000E+000	0.0000000E+000	56.2835	0.0000000E+000	0.0000000E+000	0.0000000E+000	-56.2835	0.0000000E+000	0.0000000E+000	0.0000000E+000	-33.7165	0.0000000E+000	0.0000000E+000	0.0000000E+000	33.7165	1.4985	56.2835	-4.60586e-06	-0.000119074	-8.39054e-09	-0.000119066	3.82323	122773	8.6512	122765
1585.51	4.1093	2.66398	4.89726	-32.9545	13.6368	3.8235	-0.0308781	37.6809	11.15	1	10	0.004734	0.000966663	0	-5.84224e-06	7.86489e-05	1.40165e-05	-37.5528	0.0144999	0.0114954	0.0088376	-32.9681	4.91171	4.1208	2.67281	0.171341	0.111077	0.204196	32.9545	11150	17199.4	20497.4	-57.0455	0.0000000E+000	0.0000000E+000	0.0000000E+000	57.0455	0.0000000E+000	0.0000000E+000	0.0000000E+000	-57.0455	0.0000000E+000	0.0000000E+000	0.0000000E+000	-32.9545	0.0000000E+000	0.0000000E+000	0.0000000E+000	32.9545	1.54254	57.0455	-2.90124e-06	-0.000118063	-2.42853e-09	-0.00011806	3.82342	123825	2.54707	123823
1000.32	4.94369	3.09602	5.83313	-32.0572	14.5388	3.8235	-0.0321229	51.3898	14.4771	1	10	0.00466104	0.000799063	0	-1.25241e-05	-0.000150279	3.73549e-06	8.32269	0.00467484	0.00462561	-0.000676674	-32.0275	5.83669	4.94831	3.09535	0.145294	0.0909916	0.171435	32.0572	14477.1	23116.9	27275.9	-57.9428	0.0000000E+000	0.0000000E+000	0.0000000E+000	57.9428	0.0000000E+000	0.0000000E+000	0.0000000E+000	-57.9428	0.0000000E+000	0.0000000E+000	0.0000000E+000	-32.0572	0.0000000E+000	0.0000000E+000	0.0000000E+000	32.0572	1.59679	57.9428	-3.53285e-06	-0.000122822	4.8274e-09	-0.000122827	3.82365	119027	4.67824	119032
631.01	5.95353	3.50809	6.91022	-30.5085	15.4405	3.8235	-0.0321788	71.8975	18.5298	1	10	0.00460446	0.000666326	0	-2.10307e-05	-3.5815e-05	5.52407e-06	-75.3815	0.00829034	0.00209233	0.00802196	-30.5569	6.9161	5.95562	3.51611	0.124678	0.0734659	0.144713	30.5085	18529.8	31446.7	36499.9	-59.4915	0.0000000E+000	0.0000000E+000	0.0000000E+000	59.4915	0.0000000E+000	0.0000000E+000	0.0000000E+000	-59.4915	0.0000000E+000	0.0000000E+000	0.0000000E+000	-30.5085	0.0000000E+000	0.0000000E+000	0.0000000E+000	30.5085	1.69709	59.4915	-4.14557e-06	-0.000123036	1.15248e-09	-0.000123037	3.82354	118820	1.113	118821
398.089	7.19585	3.89248	8.18118	-28.4105	16.3419	3.8235	-0.0314819	102.71	23.2506	1	10	0.00458244	0.00056012	0	-2.83876e-05	0.000288499	1.94087e-05	29.4861	0.034651	0.0301629	-0.0170556	-28.2054	8.19964	7.22601	3.87543	0.10751	0.0581561	0.122232	28.4105	23250.6	42982.4	48867.9	-61.5895	0.0000000E+000	0.0000000E+000	0.0000000E+000	61.5895	0.0000000E+000	0.0000000E+000	0.0000000E+000	-61.5895	0.0000000E+000	0.0000000E+000	0.0000000E+000	-28.4105	0.0000000E+000	0.0000000E+000	0.0000000E+000	28.4105	1.84865	61.5895	-3.40227e-06	-0.000120371	-9.08251e-09	-0.000120362	3.82321	121451	9.16397	121442
251.044	8.66428	4.01338	9.54866	-24.854	17.2401	3.8235	-0.0308707	157.964	27.9058	1	10	0.00457397	0.000479016	0	-3.62849e-05	0.000307577	3.87526e-06	-60.4799	0.00809004	0.0039862	0.00703981	-24.8823	9.55524	8.66827	4.02042	0.0950271	0.0440175	0.104727	24.854	27905.8	60244.4	66393.7	-65.146	0.0000000E+000	0.0000000E+000	0.0000000E+000	65.146	0.0000000E+000	0.0000000E+000	0.0000000E+000	-65.146	0.0000000E+000	0.0000000E+000	0.0000000E+000	-24.854	0.0000000E+000	0.0000000E+000	0.0000000E+000	24.854	2.15885	65.146	-3.72611e-06	-0.000118034	-9.4951e-09	-0.000118025	3.82319	123855	9.96338	123845
158.428	10.133	3.80213	10.8228	-20.5672	18.1448	3.8235	-0.0287165	264.217	32.6086	1	10	0.00456462	0.000421759	0	-4.40775e-05	-7.39696e-05	8.86366e-06	-20.3831	0.0210159	0.0197	0.00731975	-20.5669	10.8438	10.1527	3.80945	0.086508	0.0324598	0.0923973	20.5672	32608.6	86904.7	92821.1	-69.4328	0.0000000E+000	0.0000000E+000	0.0000000E+000	69.4328	0.0000000E+000	0.0000000E+000	0.0000000E+000	-69.4328	0.0000000E+000	0.0000000E+000	0.0000000E+000	-20.5672	0.0000000E+000	0.0000000E+000	0.0000000E+000	20.5672	2.66508	69.4328	-3.64761e-06	-0.000109798	2.12415e-09	-0.0001098	3.82357	133146	2.57585	133149
100.032	11.3959	3.24275	11.8483	-15.8838	19.0448	3.82351	-0.0303154	490.646	36.7519	1	10	0.00456295	0.000385113	0	-5.14115e-05	0.000288499	7.49189e-06	-75.0655	0.0194537	0.00501352	0.0187966	-15.9646	11.8583	11.401	3.26154	0.0811775	0.0230993	0.0844	15.8838	36751.9	129157	134284	-74.1162	0.0000000E+000	0.0000000E+000	0.0000000E+000	74.1162	0.0000000E+000	0.0000000E+000	0.0000000E+000	-74.1162	0.0000000E+000	0.0000000E+000	0.0000000E+000	-15.8838	0.0000000E+000	0.0000000E+000	0.0000000E+000	15.8838	3.51429	74.1162	-3.97197e-06	-0.000115911	-8.74596e-09	-0.000115902	3.82322	126124	9.5166	126115
63.0823	12.3289	2.52644	12.5851	-11.5807	19.962	3.82351	-0.0263276	998.626	40.2446	1	10	0.00456737	0.000362918	0	-5.83224e-05	0.000135881	9.46842e-06	67.7467	0.0260897	0.00988021	-0.0241465	-11.4641	12.59	12.3388	2.5023	0.0778414	0.0159513	0.0794589	11.5807	40244.6	196392	200473	-78.4193	0.0000000E+000	0.0000000E+000	0.0000000E+000	78.4193	0.0000000E+000	0.0000000E+000	0.0000000E+000	-78.4193	0.0000000E+000	0.0000000E+000	0.0000000E+000	-11.5807	0.0000000E+000	0.0000000E+000	0.0000000E+000	11.5807	4.87995	78.4193	-3.21023e-06	-0.000100664	-3.57741e-09	-0.00010066	3.82337	145228	5.16116	145223
39.8089	12.9207	1.8912	13.0584	-8.32719	20.8629	3.8235	-0.0309713	2113.99	44.3399	1	10	0.00456871	0.000349867	0	-6.48927e-05	2.1417e-05	5.20967e-06	-24.171	0.0148904	0.013585	0.00609705	-8.34501	13.0727	12.9343	1.89729	0.0757716	0.0110906	0.0765789	8.32719	44339.9	302933	306160	-81.6728	0.0000000E+000	0.0000000E+000	0.0000000E+000	81.6728	0.0000000E+000	0.0000000E+000	0.0000000E+000	-81.6728	0.0000000E+000	0.0000000E+000	0.0000000E+000	-8.32719	0.0000000E+000	0.0000000E+000	0.0000000E+000	8.32719	6.83205	81.6728	-3.29449e-06	-0.000118419	-6.63311e-10	-0.000118418	3.82348	123453	0.691509	123452
25.1044	13.2182	1.38748	13.2908	-5.99222	21.7421	3.82351	-0.0307365	4569.24	49.7955	1	10	0.00455488	0.000342708	0	-7.24342e-05	0.000269422	1.27514e-05	-49.2473	0.0372078	0.0242891	0.0281862	-6.10191	13.318	13.2425	1.41566	0.0748286	0.00785453	0.0752397	5.99222	49795.5	474392	476998	-84.0078	0.0000000E+000	0.0000000E+000	0.0000000E+000	84.0078	0.0000000E+000	0.0000000E+000	0.0000000E+000	-84.0078	0.0000000E+000	0.0000000E+000	0.0000000E+000	-5.99222	0.0000000E+000	0.0000000E+000	0.0000000E+000	5.99222	9.52681	84.0078	-3.81854e-06	-0.000117521	-8.28109e-09	-0.000117513	3.82324	124396	8.76553	124387
15.8576	13.4502	1.05758	13.4918	-4.49587	22.6201	3.82351	-0.0353356	9490.08	58.3122	1	10	0.00455406	0.000337544	0	-7.81439e-05	-9.30469e-05	1.4074e-05	67.3446	0.0416955	0.0160606	-0.0384782	-4.32778	13.5048	13.4663	1.0191	0.0738913	0.00581	0.0741193	4.49587	58312.2	741611	743900	-85.5041	0.0000000E+000	0.0000000E+000	0.0000000E+000	85.5041	0.0000000E+000	0.0000000E+000	0.0000000E+000	-85.5041	0.0000000E+000	0.0000000E+000	0.0000000E+000	-4.49587	0.0000000E+000	0.0000000E+000	0.0000000E+000	4.49587	12.7179	85.5041	-2.71569e-06	-0.000135106	3.28787e-09	-0.000135109	3.8236	108206	2.63324	108208
10.0032	13.712	0.839825	13.7377	-3.50484	23.8848	3.82355	-0.0156598	18944.9	70.8015	1	11	0.00456295	0.000332148	0	-8.47707e-05	2.33964e-06	9.42818e-06	-9.30063	0.0283855	0.0280123	0.00458751	-3.51677	13.7659	13.74	0.844413	0.0726563	0.00445001	0.0727924	3.50484	70801.5	1.15599e+06	1.15816e+06	-86.4952	0.0000000E+000	0.0000000E+000	0.0000000E+000	86.4952	0.0000000E+000	0.0000000E+000	0.0000000E+000	-86.4952	0.0000000E+000	0.0000000E+000	0.0000000E+000	-3.50484	0.0000000E+000	0.0000000E+000	0.0000000E+000	3.50484	16.3272	86.4952	-2.4854e-07	-5.98762e-05	-3.66384e-11	-5.98762e-05	3.82355	244163	0.149404	244163
6.31058	13.8366	0.675467	13.853	-2.79482	24.8073	3.82357	-0.0148864	37337.6	88.7699	1	11	0.00456328	0.000329407	0	-9.07862e-05	0.000326654	8.09111e-06	-89.6609	0.0245627	0.000145393	0.0245622	-2.89625	13.8544	13.8367	0.70003	0.0721005	0.00351978	0.0721864	2.79482	88769.8	1.8184e+06	1.82056e+06	-87.2052	0.0000000E+000	0.0000000E+000	0.0000000E+000	87.2052	0.0000000E+000	0.0000000E+000	0.0000000E+000	-87.2052	0.0000000E+000	0.0000000E+000	0.0000000E+000	-2.79482	0.0000000E+000	0.0000000E+000	0.0000000E+000	2.79482	20.4844	87.2052	-2.14595e-06	-5.69191e-05	-4.86269e-09	-5.69143e-05	3.82325	256850	21.9431	256828
3.97785	13.9527	0.641589	13.9674	-2.63279	25.8144	3.82357	-0.0132905	62361.2	131.582	1	11	0.00456743	0.000327006	0	-9.14625e-05	0.000154958	4.59162e-06	24.9067	0.0140414	0.0127355	-0.00591343	-2.60618	13.9799	13.9654	0.635676	0.0715196	0.00328871	0.0715952	2.63279	131582	2.86152e+06	2.86454e+06	-87.3672	0.0000000E+000	0.0000000E+000	0.0000000E+000	87.3672	0.0000000E+000	0.0000000E+000	0.0000000E+000	-87.3672	0.0000000E+000	0.0000000E+000	0.0000000E+000	-2.63279	0.0000000E+000	0.0000000E+000	0.0000000E+000	2.63279	21.747	87.3672	-2.32352e-06	-5.08172e-05	-2.05947e-09	-5.08151e-05	3.82342	287692	11.6593	287681
2.51367	14.0719	0.659228	14.0873	-2.68219	27.374	3.82356	-0.0131581	96045.2	210.325	1	11	0.0045668	0.000324179	0	-0.000104225	7.86489e-05	5.5231e-06	5.86541	0.0170372	0.016948	-0.00174107	-2.6719	14.1041	14.0888	0.657487	0.0709082	0.00332185	0.0709859	2.68219	210325	4.4896e+06	4.49452e+06	-87.3178	0.0000000E+000	0.0000000E+000	0.0000000E+000	87.3178	0.0000000E+000	0.0000000E+000	0.0000000E+000	-87.3178	0.0000000E+000	0.0000000E+000	0.0000000E+000	-2.68219	0.0000000E+000	0.0000000E+000	0.0000000E+000	2.68219	21.346	87.3178	-5.757e-06	-5.03108e-05	-1.03487e-09	-5.03098e-05	3.82348	290586	5.97722	290580
1.58469	14.1894	0.699429	14.2066	-2.82196	29.8095	3.82357	-0.0129238	143593	348.049	1	11	0.00456577	0.000321384	0	-0.000102592	0.000288499	2.42902e-06	-68.416	0.00755801	0.00278033	0.00702803	-2.84972	14.2097	14.1922	0.706457	0.0703045	0.00346548	0.0703898	2.82196	348048	7.0609e+06	7.06947e+06	-87.178	0.0000000E+000	0.0000000E+000	0.0000000E+000	87.178	0.0000000E+000	0.0000000E+000	0.0000000E+000	-87.178	0.0000000E+000	0.0000000E+000	0.0000000E+000	-2.82196	0.0000000E+000	0.0000000E+000	0.0000000E+000	2.82196	20.2871	87.178	2.35345e-06	-4.94151e-05	-3.72851e-09	-4.94114e-05	3.82329	295855	22.3231	295833
1.00469	14.2869	0.777876	14.3081	-3.1165	240.628	3.82354	-0.0127444	203646	601.915	1	11	0.0050067	0.000349922	0	-0.00209738	5.95716e-05	4.23473e-07	3.32206	0.00121019	0.00120816	-7.01288e-05	-3.11595	14.3093	14.2881	0.777806	0.0697873	0.0037997	0.0698907	3.1165	601915	1.10551e+07	1.10715e+07	-86.8835	0.0000000E+000	0.0000000E+000	0.0000000E+000	86.8835	0.0000000E+000	0.0000000E+000	0.0000000E+000	-86.8835	0.0000000E+000	0.0000000E+000	0.0000000E+000	-3.1165	0.0000000E+000	0.0000000E+000	0.0000000E+000	3.1165	18.3665	86.8835	-0.00199423	-4.87288e-05	-7.59205e-10	-4.87281e-05	3.82348	300017	4.67432	300012
0.632957	14.4686	0.954229	14.5001	-3.77328	240.629	3.82354	-0.0127444	263508	1141.19	1	11	0.00501976	0.000346189	0	-0.00209738	5.95716e-05	3.4058e-07	20.6058	0.000983798	0.000920858	-0.000346235	-3.77168	14.501	14.4695	0.953883	0.0688158	0.00453851	0.0689653	3.77328	1.14119e+06	1.73035e+07	1.73411e+07	-86.2267	0.0000000E+000	0.0000000E+000	0.0000000E+000	86.2267	0.0000000E+000	0.0000000E+000	0.0000000E+000	-86.2267	0.0000000E+000	0.0000000E+000	0.0000000E+000	-3.77328	0.0000000E+000	0.0000000E+000	0.0000000E+000	3.77328	15.1626	86.2267	0.000000000000000E+000	-4.87288e-05	-7.59205e-10	-4.87281e-05	3.82348	300017	4.67432	300012
0.401878	14.6584	1.20155	14.7076	-4.68606	240.63	3.82354	-0.0127444	329598	2199.82	1	11	0.00503319	0.000342218	0	-0.00209738	5.95716e-05	2.67314e-07	3.60573	0.000781124	0.000779578	-4.91251e-05	-4.68562	14.7083	14.6592	1.2015	0.0677649	0.00555469	0.0679922	4.68606	2.19981e+06	2.68368e+07	2.69268e+07	-85.3139	0.0000000E+000	0.0000000E+000	0.0000000E+000	85.3139	0.0000000E+000	0.0000000E+000	0.0000000E+000	-85.3139	0.0000000E+000	0.0000000E+000	0.0000000E+000	-4.68606	0.0000000E+000	0.0000000E+000	0.0000000E+000	4.68606	12.1996	85.3139	0.000000000000000E+000	-4.87288e-05	-7.59205e-10	-4.87281e-05	3.82348	300017	4.67432	300012
0.251173	14.9968	1.55887	15.0776	-5.9344	240.63	3.82354	-0.0127444	406479	4345.03	1	11	0.00503372	0.000333855	0	-0.00209738	5.95716e-05	4.44361e-07	1.78457	0.001331	0.00133036	-4.14496e-05	-5.93372	15.0789	14.9981	1.55882	0.0659682	0.00685718	0.0663237	5.9344	4.34503e+06	4.18005e+07	4.20257e+07	-84.0656	0.0000000E+000	0.0000000E+000	0.0000000E+000	84.0656	0.0000000E+000	0.0000000E+000	0.0000000E+000	-84.0656	0.0000000E+000	0.0000000E+000	0.0000000E+000	-5.9344	0.0000000E+000	0.0000000E+000	0.0000000E+000	5.9344	9.62031	84.0656	0.000000000000000E+000	-4.87288e-05	-7.59205e-10	-4.87281e-05	3.82348	300017	4.67432	300012
0.160751	15.4086	1.8291	15.5168	-6.76968	240.631	3.82354	-0.0127444	541289	7521.39	1	11	0.00502843	0.000324063	0	-0.00209738	5.95716e-05	4.00211e-07	-34.7476	0.00123498	0.00101475	0.000703891	-6.77182	15.5179	15.4097	1.8298	0.0639969	0.00759682	0.0644462	6.76968	7.52139e+06	6.33614e+07	6.38063e+07	-83.2303	0.0000000E+000	0.0000000E+000	0.0000000E+000	83.2303	0.0000000E+000	0.0000000E+000	0.0000000E+000	-83.2303	0.0000000E+000	0.0000000E+000	0.0000000E+000	-6.76968	0.0000000E+000	0.0000000E+000	0.0000000E+000	6.76968	8.42416	83.2303	0.000000000000000E+000	-4.87288e-05	-7.59205e-10	-4.87281e-05	3.82348	300017	4.67432	300012
0.100469	15.8772	2.46062	16.0667	-8.8095	240.632	3.82354	-0.0127444	643788	15099.9	1	11	0.00503111	0.000313138	0	-0.00209738	5.95716e-05	6.47913e-07	-28.1583	0.0020691	0.00182421	0.000976427	-8.81194	16.0687	15.879	2.46159	0.0615061	0.00953209	0.0622404	8.8095	1.50999e+07	9.74327e+07	9.85958e+07	-81.1905	0.0000000E+000	0.0000000E+000	0.0000000E+000	81.1905	0.0000000E+000	0.0000000E+000	0.0000000E+000	-81.1905	0.0000000E+000	0.0000000E+000	0.0000000E+000	-8.8095	0.0000000E+000	0.0000000E+000	0.0000000E+000	8.8095	6.45253	81.1905	0.000000000000000E+000	-4.87288e-05	-7.59205e-10	-4.87281e-05	3.82348	300017	4.67432	300012
0.0602816	16.7049	2.9482	16.9631	-10.0089	240.633	3.82354	-0.0127444	895525	27050.9	1	11	0.00502756	0.000296382	0	-0.00209738	5.95716e-05	6.01729e-07	-8.33484	0.00203025	0.0020088	0.0002943	-10.0087	16.9651	16.7069	2.9485	0.0580543	0.0102458	0.0589515	10.0089	2.70509e+07	1.53274e+08	1.55643e+08	-79.9911	0.0000000E+000	0.0000000E+000	0.0000000E+000	79.9911	0.0000000E+000	0.0000000E+000	0.0000000E+000	-79.9911	0.0000000E+000	0.0000000E+000	0.0000000E+000	-10.0089	0.0000000E+000	0.0000000E+000	0.0000000E+000	10.0089	5.66614	79.9911	0.000000000000000E+000	-4.87288e-05	-7.59205e-10	-4.87281e-05	3.82348	300017	4.67432	300012
0.0401878	17.6248	3.42555	17.9546	-10.9989	240.633	3.82354	-0.0127444	1.1561e+06	42082.8	1	11	0.00502765	0.00028002	0	-0.00209738	5.95716e-05	6.5217e-07	-23.4605	0.00232901	0.00213648	0.000927219	-11.0005	17.9569	17.6269	3.42648	0.0546729	0.0106262	0.055696	10.9989	4.20828e+07	2.1652e+08	2.20572e+08	-79.0011	0.0000000E+000	0.0000000E+000	0.0000000E+000	79.0011	0.0000000E+000	0.0000000E+000	0.0000000E+000	-79.0011	0.0000000E+000	0.0000000E+000	0.0000000E+000	-10.9989	0.0000000E+000	0.0000000E+000	0.0000000E+000	10.9989	5.1451	79.0011	0.000000000000000E+000	-4.87288e-05	-7.59205e-10	-4.87281e-05	3.82348	300017	4.67432	300012
0.0200939	19.6192	4.64436	20.1614	-13.3182	240.634	3.82354	-0.0127444	1.70542e+06	90498.2	1	11	0.00502987	0.00024948	0	-0.00209738	5.95716e-05	4.71625e-07	-87.0543	0.00189043	9.71497e-05	0.00188793	-13.3233	20.1619	19.6193	4.64624	0.0482658	0.0114257	0.0495997	13.3182	9.04983e+07	3.82292e+08	3.92858e+08	-76.6818	0.0000000E+000	0.0000000E+000	0.0000000E+000	76.6818	0.0000000E+000	0.0000000E+000	0.0000000E+000	-76.6818	0.0000000E+000	0.0000000E+000	0.0000000E+000	-13.3182	0.0000000E+000	0.0000000E+000	0.0000000E+000	13.3182	4.22431	76.6818	0.000000000000000E+000	-4.87288e-05	-7.59205e-10	-4.87281e-05	3.82348	300017	4.67432	300012
0.00796479	23.0893	5.16608	23.6602	-12.6118	20329.5	3.82355	-0.000289683	3.86799e+06	184404	1	11	0.00502053	0.000212193	0	-0.0200995	-3.5815e-05	6.00028e-07	-23.6148	0.00282774	0.00259095	0.00113276	-12.6131	23.663	23.0919	5.16721	0.0412453	0.00922834	0.042265	12.6118	1.84404e+08	8.24176e+08	8.44554e+08	-77.3882	0.0000000E+000	0.0000000E+000	0.0000000E+000	77.3882	0.0000000E+000	0.0000000E+000	0.0000000E+000	-77.3882	0.0000000E+000	0.0000000E+000	0.0000000E+000	-12.6118	0.0000000E+000	0.0000000E+000	0.0000000E+000	12.6118	4.46941	77.3882	-0.0180021	-1.10762e-06	1.0375e-11	-1.10763e-06	3.82358	1.31991e+07	123.635	1.31992e+07
0.00497799	24.6835	5.21433	25.2282	-11.9282	20329.5	3.82355	-0.000289683	6.13152e+06	261933	1	11	0.00502837	0.000199315	0	-0.0200995	-3.5815e-05	5.26386e-07	-19.5705	0.00264097	0.00248841	0.000884637	-11.929	25.2308	24.686	5.21521	0.0387823	0.00819266	0.0396381	11.9282	2.61933e+08	1.23994e+09	1.2673e+09	-78.0718	0.0000000E+000	0.0000000E+000	0.0000000E+000	78.0718	0.0000000E+000	0.0000000E+000	0.0000000E+000	-78.0718	0.0000000E+000	0.0000000E+000	0.0000000E+000	-11.9282	0.0000000E+000	0.0000000E+000	0.0000000E+000	11.9282	4.73378	78.0718	0.000000000000000E+000	-1.10762e-06	1.0375e-11	-1.10763e-06	3.82358	1.31991e+07	123.635	1.31992e+07
0.00318591	25.813	6.5761	26.6375	-14.2926	20329.5	3.82355	-0.000289683	7.59657e+06	462987	1	11	0.00503055	0.000188853	0	-0.0200995	-3.5815e-05	4.39914e-07	-5.93344	0.0023294	0.00231692	0.000240797	-14.2919	26.6398	25.8153	6.57634	0.0363791	0.00926793	0.0375411	14.2926	4.62987e+08	1.81735e+09	1.8754e+09	-75.7074	0.0000000E+000	0.0000000E+000	0.0000000E+000	75.7074	0.0000000E+000	0.0000000E+000	0.0000000E+000	-75.7074	0.0000000E+000	0.0000000E+000	0.0000000E+000	-14.2926	0.0000000E+000	0.0000000E+000	0.0000000E+000	14.2926	3.92527	75.7074	0.000000000000000E+000	-1.10762e-06	1.0375e-11	-1.10763e-06	3.82358	1.31991e+07	123.635	1.31992e+07
0.0019912	26.878	7.58169	27.9269	-15.7526	20329.5	3.82355	-0.000289683	1.05424e+07	777012	1	11	0.00503389	0.000180252	0	-0.0200995	-3.5815e-05	5.72749e-07	-41.2639	0.00317748	0.00238845	0.00209564	-15.7554	27.9297	26.8804	7.58379	0.034463	0.00972124	0.0358078	15.7526	7.77012e+08	2.7546e+09	2.86209e+09	-74.2474	0.0000000E+000	0.0000000E+000	0.0000000E+000	74.2474	0.0000000E+000	0.0000000E+000	0.0000000E+000	-74.2474	0.0000000E+000	0.0000000E+000	0.0000000E+000	-15.7526	0.0000000E+000	0.0000000E+000	0.0000000E+000	15.7526	3.54512	74.2474	0.000000000000000E+000	-1.10762e-06	1.0375e-11	-1.10763e-06	3.82358	1.31991e+07	123.635	1.31992e+07
0.00129428	26.7776	9.59781	28.4457	-19.7191	20329.5	3.82355	-0.000289683	1.28121e+07	1.45859e+06	1	11	0.00503431	0.00017698	0	-0.0200995	-3.5815e-05	4.69132e-07	-39.7771	0.00265077	0.00203722	0.00169597	-19.7209	28.4482	26.7796	9.59951	0.0330932	0.0118615	0.0351547	19.7191	1.45859e+09	4.06941e+09	4.32291e+09	-70.2809	0.0000000E+000	0.0000000E+000	0.0000000E+000	70.2809	0.0000000E+000	0.0000000E+000	0.0000000E+000	-70.2809	0.0000000E+000	0.0000000E+000	0.0000000E+000	-19.7191	0.0000000E+000	0.0000000E+000	0.0000000E+000	19.7191	2.78997	70.2809	0.000000000000000E+000	-1.10762e-06	1.0375e-11	-1.10763e-06	3.82358	1.31991e+07	123.635	1.31992e+07
0.000796479	29.1209	13.2411	31.9899	-24.451	20329.5	3.82355	-0.000289683	1.50911e+07	2.58551e+06	1	11	0.00503375	0.000157354	0	-0.0200995	-3.5815e-05	5.87652e-07	-8.06198	0.00373458	0.00369767	0.000523753	-24.4492	31.9934	29.1246	13.2416	0.0284564	0.012939	0.0312599	24.451	2.58551e+09	5.68624e+09	6.24646e+09	-65.549	0.0000000E+000	0.0000000E+000	0.0000000E+000	65.549	0.0000000E+000	0.0000000E+000	0.0000000E+000	-65.549	0.0000000E+000	0.0000000E+000	0.0000000E+000	-24.451	0.0000000E+000	0.0000000E+000	0.0000000E+000	24.451	2.19928	65.549	0.000000000000000E+000	-1.10762e-06	1.0375e-11	-1.10763e-06	3.82358	1.31991e+07	123.635	1.31992e+07
0.000497799	29.0227	18.5264	34.4317	-32.5517	20329.5	3.82355	-0.000289683	1.72574e+07	4.99618e+06	1	11	0.00503538	0.000146242	0	-0.0200995	-3.5815e-05	5.72542e-07	5.64146	0.00391502	0.00389606	-0.000384859	-32.5477	34.4348	29.0266	18.526	0.0244805	0.0156269	0.029043	32.5517	4.99618e+09	7.82684e+09	9.28554e+09	-57.4483	0.0000000E+000	0.0000000E+000	0.0000000E+000	57.4483	0.0000000E+000	0.0000000E+000	0.0000000E+000	-57.4483	0.0000000E+000	0.0000000E+000	0.0000000E+000	-32.5517	0.0000000E+000	0.0000000E+000	0.0000000E+000	32.5517	1.56656	57.4483	0.000000000000000E+000	-1.10762e-06	1.0375e-11	-1.10763e-06	3.82358	1.31991e+07	123.635	1.31992e+07
0.000298679	29.0731	28.064	40.4084	-43.9882	20329.5	3.82355	-0.000289683	1.89874e+07	9.15845e+06	1	11	0.00503605	0.000124629	0	-0.0200995	-3.5815e-05	5.24296e-07	108.173	0.00420686	-0.00131207	-0.00399701	-43.9854	40.4047	29.0718	28.06	0.0178053	0.0171873	0.0247473	43.9882	9.15845e+09	9.48776e+09	1.31869e+10	-46.0118	0.0000000E+000	0.0000000E+000	0.0000000E+000	46.0118	0.0000000E+000	0.0000000E+000	0.0000000E+000	-46.0118	0.0000000E+000	0.0000000E+000	0.0000000E+000	-43.9882	0.0000000E+000	0.0000000E+000	0.0000000E+000	43.9882	1.03596	46.0118	0.000000000000000E+000	-1.10762e-06	1.0375e-11	-1.10763e-06	3.82358	1.31991e+07	123.635	1.31992e+07
9.95598e-05	38.039	92.7929	100.287	-67.7096	20329.5	3.82355	-0.000289683	1.72275e+07	1.4749e+07	1	11	0.00503364	5.01924e-05	0	-0.0200995	-3.5815e-05	1.86772e-06	-35.0813	0.0372113	0.0304515	0.0213868	-67.6982	100.318	38.0694	92.8143	0.00378215	0.00922625	0.00997138	67.7096	1.4749e+10	6.0461e+09	1.59401e+10	-22.2904	0.0000000E+000	0.0000000E+000	0.0000000E+000	22.2904	0.0000000E+000	0.0000000E+000	0.0000000E+000	-22.2904	0.0000000E+000	0.0000000E+000	0.0000000E+000	-67.7096	0.0000000E+000	0.0000000E+000	0.0000000E+000	67.7096	0.409934	22.2904	0.000000000000000E+000	-1.10762e-06	1.0375e-11	-1.10763e-06	3.82358	1.31991e+07	123.635	1.31992e+07