File: txt/18445_R297_UC61_11mm_SOC50_C05.mpt
EC-Lab ASCII FILE
Nb header lines : 65

Potentio Electrochemical Impedance Spectroscopy

Run on channel : 5 (SN 65912)
User :
CE vs. WE compliance from -10 V to 10 V
Electrode connection : standard
Potential control : Ewe
Ewe ctrl range : min = -10.00 V, max = 10.00 V
Safety Limits :
	Do not start on E overload
Acquisition started on : 10/16/2025 15:32:51.809
Technique started on : 10/16/2025 15:32:54.504
Loaded Setting File :  C:\Users\Celltest\OneDrive - store-dot.com\Documents\EC-Lab\Data\txt_done\UC80_17231_EIS_50SOC.mps
Saved on :
	File : 18445_R297_UC61_11mm_SOC50_C05.mpr
	Directory : C:\Users\Celltest\OneDrive - store-dot.com\Documents\EC-Lab\Data\Michael\
	Host : 169.254.61.224
Device : VMP-3e (SN .003165)
Address : USB
EC-LAB for windows v11.62 (software)
Internet server v27.00 (firmware)
Command interpretor v12.03 (firmware)
Electrode material :
Initial state :
Electrolyte :
Comments :
Electrode surface area : 0.001 cm²
Characteristic mass : 0.001 g
Equivalent Weight : 0.000 g/eq.
Density : 0.000 g/cm3
Volume (V) : 0.001 cm³
Record Ece
Cycle Definition : Charge/Discharge alternance
Mode                Multi sine
E (V)               0.0000
vs.                 Eoc
tE (h:m:s)          0:00:0.0000
record              0
dI                  0.000
unit dI             mA
dt (s)              0.000
fi                  1.000
unit fi             MHz
ff                  0.100
unit ff             mHz
Nd                  10
Points              per decade
spacing             Logarithmic
Va (mV)             5.0
pw                  0.10
Na                  2
corr                0
E range min (V)     -10.000
E range max (V)     10.000
I Range             Auto
Bandwidth           5
nc cycles           0
goto Ns'            0
nr cycles           0
inc. cycle          0

freq/Hz	Re(Z)/Ohm	-Im(Z)/Ohm	|Z|/Ohm	Phase(Z)/deg	time/s	<Ewe>/V	<I>/mA	Cs/µF	Cp/µF	cycle number	I Range	|Ewe|/V	|I|/A	Ns	(Q-Qo)/mA.h	<Ece>/V	|Ece|/V	Phase(Zce)/deg	|Zce|/Ohm	Re(Zce)/Ohm	-Im(Zce)/Ohm	Phase(Zwe-ce)/deg	|Zwe-ce|/Ohm	Re(Zwe-ce)/Ohm	-Im(Zwe-ce)/Ohm	Re(Y)/Ohm-1	Im(Y)/Ohm-1	|Y|/Ohm-1	Phase(Y)/deg	Re(C)/nF	Im(C)/nF	|C|/nF	Phase(C)/deg	Re(M)	Im(M)	|M|	Phase(M)/deg	Re(Permittivity)	Im(Permittivity)	|Permittivity|	Phase(Permittivity)/deg	Re(Resistivity)/Ohm.cm	Im(Resistivity)/Ohm.cm	|Resistivity|/Ohm.cm	Phase(Resistivity)/deg	Re(Conductivity)/mS/cm	Im(Conductivity)/mS/cm	|Conductivity|/mS/cm	Phase(Conductivity)/deg	Tan(Delta)	Loss Angle(Delta)/deg	dq/mA.h	Pwe/W	Pce/W	Pwe-ce/W	<Ewe-Ece>/V	Rwe/Ohm	Rce/Ohm	Rwe-ce/Ohm		Ewe-Ece/V
1.00002e+06	0.950612	-0.168826	0.965487	10.0706	2.69453	3.82538	0.0497308	-0.9427	-0.0288242	1	9	0.00021181	0.000219382	0	1.55344e-05	5.39982e-05	0.0001835	0.454412	0.836441	0.836415	-0.00663374	5.60762	1.79562	1.78703	-0.17546	1.01979	-0.181111	1.03575	-10.0706	-28.8243	162.301	164.841	-100.071	0.0000000E+000	0.0000000E+000	0.0000000E+000	100.071	0.0000000E+000	0.0000000E+000	0.0000000E+000	-100.071	0.0000000E+000	0.0000000E+000	0.0000000E+000	10.0706	0.0000000E+000	0.0000000E+000	0.0000000E+000	-10.0706	5.63073	79.9294	1.55344e-05	0.000190239	2.68537e-09	0.000190237	3.82533	76921.8	1.08581	76920.7
630957	0.416088	0.174453	0.451179	-22.7468	3.46256	3.82422	-0.0218069	1.44591	0.216172	1	9	0.000163106	0.00036151	0	1.47583e-05	3.4907e-05	0.000103064	-102.858	0.285094	-0.0634428	0.277946	-52.0636	0.573605	0.352645	0.452398	2.04403	0.856997	2.21641	22.7468	216.172	515.593	559.077	-67.2532	0.0000000E+000	0.0000000E+000	0.0000000E+000	67.2532	0.0000000E+000	0.0000000E+000	0.0000000E+000	-67.2532	0.0000000E+000	0.0000000E+000	0.0000000E+000	-22.7468	0.0000000E+000	0.0000000E+000	0.0000000E+000	22.7468	2.3851	67.2532	-1.62509e-06	-8.33943e-05	-7.61213e-10	-8.33935e-05	3.82418	175368	1.60073	175366
398103	0.637239	0.114879	0.647511	-10.2193	4.22857	3.82399	-0.033314	3.48004	0.109539	1	9	0.000669889	0.00103456	0	8.83226e-06	-0.000251461	4.03798e-05	166.565	0.0390309	-0.0379628	-0.00906829	-10.0132	0.608546	0.599276	0.105811	1.51987	0.273997	1.54437	10.2193	109.539	607.62	617.414	-79.7807	0.0000000E+000	0.0000000E+000	0.0000000E+000	79.7807	0.0000000E+000	0.0000000E+000	0.0000000E+000	-79.7807	0.0000000E+000	0.0000000E+000	0.0000000E+000	-10.2193	0.0000000E+000	0.0000000E+000	0.0000000E+000	10.2193	5.54705	79.7807	-2.9667e-06	-0.000127392	8.37717e-09	-0.000127401	3.82424	114787	7.54823	114794
251206	0.756895	0.249535	0.796967	-18.2465	4.99456	3.82377	-0.055844	2.53898	0.248909	1	9	0.0021778	0.0027326	0	1.09421e-06	-7.96403e-05	5.50722e-05	100.66	0.0201538	-0.00372793	-0.019806	-16.9626	0.787423	0.753167	0.229729	1.19167	0.392871	1.25476	18.2465	248.909	754.995	794.967	-71.7535	0.0000000E+000	0.0000000E+000	0.0000000E+000	71.7535	0.0000000E+000	0.0000000E+000	0.0000000E+000	-71.7535	0.0000000E+000	0.0000000E+000	0.0000000E+000	-18.2465	0.0000000E+000	0.0000000E+000	0.0000000E+000	18.2465	3.03322	71.7535	-4.08426e-06	-0.000213535	4.44743e-09	-0.000213539	3.82385	68472.4	1.42612	68473.9
158486	0.855667	0.369174	0.931909	-23.3376	5.76056	3.82362	-0.0499228	2.72018	0.426887	1	9	0.00510875	0.00548202	0	-6.39786e-06	-9.87315e-05	5.51893e-05	88.3282	0.0100673	0.00029371	-0.010063	-22.7601	0.92824	0.85596	0.359111	0.985275	0.425093	1.07307	23.3376	426.887	989.433	1077.59	-66.6624	0.0000000E+000	0.0000000E+000	0.0000000E+000	66.6624	0.0000000E+000	0.0000000E+000	0.0000000E+000	-66.6624	0.0000000E+000	0.0000000E+000	0.0000000E+000	-23.3376	0.0000000E+000	0.0000000E+000	0.0000000E+000	23.3376	2.31779	66.6624	3.77273e-06	-0.000190886	4.92895e-09	-0.000190891	3.82372	76590.8	1.97768	76592.8
100004	0.972711	0.481328	1.08529	-26.3277	6.52852	3.82353	-0.0348407	3.30646	0.650366	1	9	0.00532172	0.00490352	0	-1.51303e-05	-0.000136914	4.41896e-05	91.9094	0.00901181	-0.000300274	-0.0090068	-25.9069	1.08105	0.972411	0.472321	0.825841	0.408652	0.921417	26.3277	650.366	1314.32	1466.43	-63.6723	0.0000000E+000	0.0000000E+000	0.0000000E+000	63.6723	0.0000000E+000	0.0000000E+000	0.0000000E+000	-63.6723	0.0000000E+000	0.0000000E+000	0.0000000E+000	-26.3277	0.0000000E+000	0.0000000E+000	0.0000000E+000	26.3277	2.02089	63.6723	1.01536e-05	-0.000133214	4.77018e-09	-0.000133219	3.82366	109743	3.92972	109747
63093.8	1.11002	0.607278	1.26528	-28.6826	7.29454	3.82351	-0.0369261	4.1538	0.956864	1	9	0.00536401	0.0042394	0	-3.01291e-05	0.000111272	2.24517e-05	71.2325	0.00529597	0.00170386	-0.00501439	-28.4462	1.26437	1.11172	0.602263	0.693361	0.37933	0.790342	28.6826	956.865	1749.01	1993.65	-61.3174	0.0000000E+000	0.0000000E+000	0.0000000E+000	61.3174	0.0000000E+000	0.0000000E+000	0.0000000E+000	-61.3174	0.0000000E+000	0.0000000E+000	0.0000000E+000	-28.6826	0.0000000E+000	0.0000000E+000	0.0000000E+000	28.6826	1.82786	61.3174	-1.06946e-05	-0.000141187	-4.10884e-09	-0.000141183	3.8234	103545	3.01336	103542
39814.1	1.28289	0.756208	1.48918	-30.5175	8.18655	3.8235	-0.0291803	5.28618	1.36311	1	9	0.00505527	0.00339466	0	-3.71598e-05	0.000149454	3.00906e-05	62.1922	0.0088641	0.00413516	-0.00784046	-30.1767	1.48879	1.28703	0.748368	0.578489	0.340994	0.67151	30.5175	1363.11	2312.48	2684.33	-59.4825	0.0000000E+000	0.0000000E+000	0.0000000E+000	59.4825	0.0000000E+000	0.0000000E+000	0.0000000E+000	-59.4825	0.0000000E+000	0.0000000E+000	0.0000000E+000	-30.5175	0.0000000E+000	0.0000000E+000	0.0000000E+000	30.5175	1.69648	59.4825	-5.34235e-06	-0.000111571	-4.36112e-09	-0.000111567	3.82335	131030	5.12176	131025
25116.9	1.48642	0.947003	1.76246	-32.5013	8.95257	3.82349	-0.0445231	6.69118	1.93182	1	9	0.00543352	0.00308291	0	-3.85639e-05	0.000187637	9.14123e-06	-29.4953	0.00296513	0.00258084	0.00145989	-32.4962	1.76542	1.48901	0.948463	0.478523	0.304868	0.567388	32.5013	1931.82	3032.2	3595.29	-57.4987	0.0000000E+000	0.0000000E+000	0.0000000E+000	57.4987	0.0000000E+000	0.0000000E+000	0.0000000E+000	-57.4987	0.0000000E+000	0.0000000E+000	0.0000000E+000	-32.5013	0.0000000E+000	0.0000000E+000	0.0000000E+000	32.5013	1.56961	57.4987	-2.83872e-06	-0.000170234	-8.35417e-09	-0.000170225	3.82331	85876.6	4.21437	85872.4
15847.7	1.76078	1.16337	2.1104	-33.4533	9.71856	3.82349	-0.0297389	8.63247	2.62328	1	9	0.00497783	0.00235872	0	-4.67934e-05	7.30894e-05	6.54459e-06	1.95577	0.00277464	0.00277302	-9.4693e-05	-33.4097	2.11266	1.76355	1.16328	0.395344	0.26121	0.473844	33.4533	2623.28	3970.36	4758.71	-56.5467	0.0000000E+000	0.0000000E+000	0.0000000E+000	56.5467	0.0000000E+000	0.0000000E+000	0.0000000E+000	-56.5467	0.0000000E+000	0.0000000E+000	0.0000000E+000	-33.4533	0.0000000E+000	0.0000000E+000	0.0000000E+000	33.4533	1.51351	56.5467	-3.36373e-06	-0.000113706	-2.1736e-09	-0.000113704	3.82342	128569	2.4577	128566
10002.2	2.09345	1.41962	2.5294	-34.1422	10.3605	3.82347	-0.0345429	11.2086	3.5307	1	9	0.00455699	0.00180161	0	-5.2513e-05	-9.87315e-05	7.81343e-06	-42.853	0.00433692	0.0031794	0.00294963	-34.157	2.53369	2.09663	1.42257	0.327211	0.22189	0.39535	34.1422	3530.7	5206.56	6290.8	-55.8578	0.0000000E+000	0.0000000E+000	0.0000000E+000	55.8578	0.0000000E+000	0.0000000E+000	0.0000000E+000	-55.8578	0.0000000E+000	0.0000000E+000	0.0000000E+000	-34.1422	0.0000000E+000	0.0000000E+000	0.0000000E+000	34.1422	1.47465	55.8578	-2.86976e-06	-0.000132074	3.41047e-09	-0.000132077	3.82357	110688	2.85823	110691
6309.38	2.48556	1.71902	3.02209	-34.6677	11.0026	3.82347	-0.0375965	14.6742	4.74786	1	9	0.00477028	0.00157847	0	-5.52678e-05	1.58158e-05	7.90335e-06	-78.2744	0.00500697	0.00101754	0.00490249	-34.7331	3.02572	2.48658	1.72392	0.272151	0.18822	0.330897	34.6677	4747.86	6865.03	8346.91	-55.3323	0.0000000E+000	0.0000000E+000	0.0000000E+000	55.3323	0.0000000E+000	0.0000000E+000	0.0000000E+000	-55.3323	0.0000000E+000	0.0000000E+000	0.0000000E+000	-34.6677	0.0000000E+000	0.0000000E+000	0.0000000E+000	34.6677	1.44592	55.3323	-1.88095e-06	-0.000143749	-5.94618e-10	-0.000143749	3.82346	101698	0.420671	101697
3983.6	3.01822	2.0549	3.65134	-34.2482	11.5651	3.82331	-0.123583	19.4426	6.15786	1	9	0.00464886	0.00127319	0	-6.70308e-05	-0.000117823	1.12678e-05	-32.3822	0.00885	0.00747377	0.00473975	-34.2437	3.66018	3.0257	2.05964	0.226385	0.15413	0.273872	34.2482	6157.86	9044.65	10941.9	-55.7518	0.0000000E+000	0.0000000E+000	0.0000000E+000	55.7518	0.0000000E+000	0.0000000E+000	0.0000000E+000	-55.7518	0.0000000E+000	0.0000000E+000	0.0000000E+000	-34.2482	0.0000000E+000	0.0000000E+000	0.0000000E+000	34.2482	1.4688	55.7518	-9.5396e-06	-0.000472498	1.45609e-08	-0.000472512	3.82343	30937.2	0.953388	30938.1
2510.8	3.60588	2.49156	4.38295	-34.6434	12.5988	3.82339	-0.0305676	25.4411	8.22142	1	10	0.00479644	0.00109434	0	-8.09844e-05	-0.000251461	6.562e-06	4.33581	0.0059963	0.00597914	-0.000453332	-34.5942	4.38761	3.61186	2.49111	0.187706	0.1297	0.228157	34.6434	8221.42	11898.3	14462.4	-55.3566	0.0000000E+000	0.0000000E+000	0.0000000E+000	55.3566	0.0000000E+000	0.0000000E+000	0.0000000E+000	-55.3566	0.0000000E+000	0.0000000E+000	0.0000000E+000	-34.6434	0.0000000E+000	0.0000000E+000	0.0000000E+000	34.6434	1.44724	55.3566	-4.51355e-06	-0.000116872	7.68657e-09	-0.00011688	3.82364	125080	8.2264	125088
1585.51	4.35788	2.94787	5.26128	-34.0762	13.5008	3.82339	-0.0308841	34.0521	10.69	1	10	0.00465811	0.000885356	0	-8.82243e-05	0.000283093	4.11189e-06	35.1248	0.00464433	0.0037986	-0.00267216	-34.0289	5.26293	4.36168	2.9452	0.157432	0.106494	0.190068	34.0762	10690	15803.2	19079.2	-55.9238	0.0000000E+000	0.0000000E+000	0.0000000E+000	55.9238	0.0000000E+000	0.0000000E+000	0.0000000E+000	-55.9238	0.0000000E+000	0.0000000E+000	0.0000000E+000	-34.0762	0.0000000E+000	0.0000000E+000	0.0000000E+000	34.0762	1.47832	55.9238	-3.13957e-06	-0.000118082	-8.74306e-09	-0.000118073	3.82311	123798	9.1663	123789
1000.32	5.28221	3.46683	6.31828	-33.2778	14.4028	3.8234	-0.0299346	45.8932	13.8171	1	10	0.00458103	0.000725044	0	-9.50985e-05	-0.000251461	2.48205e-06	9.43681	0.00342332	0.00337699	-0.000561286	-33.2567	6.3208	5.28559	3.46627	0.132318	0.0868431	0.158271	33.2778	13817.1	21052.3	25181.5	-56.7222	0.0000000E+000	0.0000000E+000	0.0000000E+000	56.7222	0.0000000E+000	0.0000000E+000	0.0000000E+000	-56.7222	0.0000000E+000	0.0000000E+000	0.0000000E+000	-33.2778	0.0000000E+000	0.0000000E+000	0.0000000E+000	33.2778	1.52364	56.7222	-3.09961e-06	-0.000114452	7.5274e-09	-0.00011446	3.82365	127725	8.40034	127733
631.01	6.45369	3.99309	7.58913	-31.7463	15.3035	3.8234	-0.0289479	63.1648	17.4867	1	10	0.00454002	0.000598227	0	-0.000102446	-4.14579e-05	9.12608e-06	-86.7707	0.0152552	0.000859348	0.015231	-31.8405	7.59788	6.45455	4.00832	0.112053	0.0693306	0.131767	31.7463	17486.7	28262.4	33234.7	-58.2537	0.0000000E+000	0.0000000E+000	0.0000000E+000	58.2537	0.0000000E+000	0.0000000E+000	0.0000000E+000	-58.2537	0.0000000E+000	0.0000000E+000	0.0000000E+000	-31.7463	0.0000000E+000	0.0000000E+000	0.0000000E+000	31.7463	1.61622	58.2537	-3.94957e-06	-0.000110679	1.20012e-09	-0.000110681	3.82344	132078	1.43215	132080
398.089	7.90756	4.4154	9.05678	-29.178	16.2048	3.8234	-0.0279538	90.546	21.521	1	10	0.00451992	0.000499064	0	-0.000109253	0.000149454	1.35374e-05	52.1998	0.0271255	0.0166255	-0.0214333	-29.0084	9.06089	7.92418	4.39397	0.0964039	0.0538298	0.110414	29.178	21521	38542	44143.4	-60.822	0.0000000E+000	0.0000000E+000	0.0000000E+000	60.822	0.0000000E+000	0.0000000E+000	0.0000000E+000	-60.822	0.0000000E+000	0.0000000E+000	0.0000000E+000	-29.178	0.0000000E+000	0.0000000E+000	0.0000000E+000	29.178	1.7909	60.822	-3.65307e-06	-0.000106878	-4.17781e-09	-0.000106874	3.82325	136776	5.34648	136770
251.044	9.62323	4.50647	10.6261	-25.0933	17.103	3.82341	-0.0286575	140.68	25.302	1	10	0.0045107	0.000424491	0	-0.000115756	-0.000136914	1.50766e-05	-47.4499	0.035517	0.0240178	0.0261649	-25.1659	10.659	9.64725	4.53264	0.0852255	0.0399104	0.0941075	25.0933	25302	54030.6	59661.5	-64.9067	0.0000000E+000	0.0000000E+000	0.0000000E+000	64.9067	0.0000000E+000	0.0000000E+000	0.0000000E+000	-64.9067	0.0000000E+000	0.0000000E+000	0.0000000E+000	-25.0933	0.0000000E+000	0.0000000E+000	0.0000000E+000	25.0933	2.13542	64.9067	-3.41088e-06	-0.000109569	3.92361e-09	-0.000109573	3.82354	133417	4.77759	133422
158.428	11.2711	4.20369	12.0295	-20.4535	18.0078	3.8234	-0.0266655	238.977	29.1824	1	10	0.00450107	0.000374169	0	-0.000121672	-3.27544e-06	5.24459e-06	103.962	0.0140167	-0.0033818	-0.0136026	-20.3984	12.0216	11.2677	4.19009	0.077888	0.0290492	0.0831288	20.4535	29182.4	78245.2	83510.1	-69.5464	0.0000000E+000	0.0000000E+000	0.0000000E+000	69.5464	0.0000000E+000	0.0000000E+000	0.0000000E+000	-69.5464	0.0000000E+000	0.0000000E+000	0.0000000E+000	-20.4535	0.0000000E+000	0.0000000E+000	0.0000000E+000	20.4535	2.68125	69.5464	-3.0894e-06	-0.000101953	8.73412e-11	-0.000101953	3.8234	143384	0.122834	143384
100.032	12.647	3.54767	13.1351	-15.6696	19.1208	3.8234	-0.0281809	448.475	32.7157	1	10	0.00499566	0.000380328	0	-0.000129562	7.30894e-05	7.50227e-06	60.5518	0.0197258	0.0096979	-0.0171772	-15.5861	13.1398	12.6567	3.53049	0.0733023	0.0205624	0.0761317	15.6696	32715.7	116627	121129	-74.3304	0.0000000E+000	0.0000000E+000	0.0000000E+000	74.3304	0.0000000E+000	0.0000000E+000	0.0000000E+000	-74.3304	0.0000000E+000	0.0000000E+000	0.0000000E+000	-15.6696	0.0000000E+000	0.0000000E+000	0.0000000E+000	15.6696	3.56486	74.3304	-4.15606e-06	-0.000107747	-2.05973e-09	-0.000107745	3.82333	135673	2.59358	135671
63.0823	13.5751	2.77528	13.8559	-11.5543	20.0369	3.82341	-0.024316	909.087	36.4711	1	10	0.00499868	0.000360761	0	-0.00013608	0.000111272	6.09617e-06	25.2925	0.0168981	0.0152782	-0.00721951	-11.5124	13.8694	13.5904	2.76806	0.0707088	0.0144556	0.0721713	11.5543	36471.1	178396	182086	-78.4457	0.0000000E+000	0.0000000E+000	0.0000000E+000	78.4457	0.0000000E+000	0.0000000E+000	0.0000000E+000	-78.4457	0.0000000E+000	0.0000000E+000	0.0000000E+000	-11.5543	0.0000000E+000	0.0000000E+000	0.0000000E+000	11.5543	4.89144	78.4457	-2.79018e-06	-9.29701e-05	-2.70569e-09	-9.29674e-05	3.8233	157238	4.57607	157234
39.8089	14.2072	2.03815	14.3526	-8.16392	20.9378	3.8234	-0.0276857	1961.57	39.5562	1	10	0.00498828	0.000347552	0	-0.000142283	-4.14579e-05	2.6235e-06	-38.9849	0.00754851	0.00586755	0.00474888	-8.17936	14.3591	14.213	2.0429	0.0689677	0.00989407	0.0696738	8.16392	39556.2	275731	278554	-81.8361	0.0000000E+000	0.0000000E+000	0.0000000E+000	81.8361	0.0000000E+000	0.0000000E+000	0.0000000E+000	-81.8361	0.0000000E+000	0.0000000E+000	0.0000000E+000	-8.16392	0.0000000E+000	0.0000000E+000	0.0000000E+000	8.16392	6.97061	81.8361	-3.18318e-06	-0.000105853	1.14779e-09	-0.000105855	3.82344	138100	1.49745	138102
25.1044	14.5899	1.48769	14.6655	-5.82216	21.817	3.8234	-0.0281958	4261.45	43.8516	1	10	0.00500085	0.000340993	0	-0.000149752	-7.96403e-05	7.67998e-06	-120.677	0.0225224	-0.0114908	0.0193705	-5.90205	14.6561	14.5784	1.50706	0.0678353	0.00691697	0.068187	5.82216	43851.6	430056	432286	-84.1778	0.0000000E+000	0.0000000E+000	0.0000000E+000	84.1778	0.0000000E+000	0.0000000E+000	0.0000000E+000	-84.1778	0.0000000E+000	0.0000000E+000	0.0000000E+000	-5.82216	0.0000000E+000	0.0000000E+000	0.0000000E+000	5.82216	9.80708	84.1778	-3.09285e-06	-0.000107804	2.24552e-09	-0.000107806	3.82348	135602	2.82454	135605
15.8576	14.8265	1.16463	14.8722	-4.49138	22.93	3.82344	-0.0179133	8617.78	52.847	1	11	0.00499364	0.00033577	0	-0.000159232	0.000149454	1.81822e-05	-45.1405	0.0541508	0.0381964	0.0383842	-4.62691	14.9133	14.8647	1.20301	0.0670331	0.00526547	0.0672395	4.49138	52847	672779	674851	-85.5086	0.0000000E+000	0.0000000E+000	0.0000000E+000	85.5086	0.0000000E+000	0.0000000E+000	0.0000000E+000	-85.5086	0.0000000E+000	0.0000000E+000	0.0000000E+000	-4.49138	0.0000000E+000	0.0000000E+000	0.0000000E+000	4.49138	12.7307	85.5086	-6.44675e-06	-6.84904e-05	-2.67722e-09	-6.84877e-05	3.82329	213442	8.34322	213434
10.0032	15.0128	0.875886	15.0384	-3.33899	23.9118	3.82345	-0.0177066	18164.9	61.6207	1	11	0.00499801	0.00033235	0	-0.000162027	0.000225819	7.39448e-06	134.501	0.0222491	-0.0155948	-0.015869	-3.28203	15.0219	14.9973	0.860017	0.0663837	0.00387298	0.0664965	3.33899	61620.7	1.05619e+06	1.05799e+06	-86.661	0.0000000E+000	0.0000000E+000	0.0000000E+000	86.661	0.0000000E+000	0.0000000E+000	0.0000000E+000	-86.661	0.0000000E+000	0.0000000E+000	0.0000000E+000	-3.33899	0.0000000E+000	0.0000000E+000	0.0000000E+000	3.33899	17.1402	86.661	-8.58577e-07	-6.77005e-05	-3.9985e-09	-6.76965e-05	3.82323	215933	12.7534	215921
6.31058	15.1522	0.7513	15.1708	-2.83861	24.8343	3.82343	-0.018732	33568.9	82.3281	1	11	0.0050009	0.00032964	0	-0.000168991	0.000283093	6.70392e-06	22.2306	0.0203371	0.0188254	-0.00769424	-2.8061	15.1892	15.171	0.743606	0.0658353	0.00326435	0.0659161	2.83861	82328	1.66039e+06	1.66243e+06	-87.1614	0.0000000E+000	0.0000000E+000	0.0000000E+000	87.1614	0.0000000E+000	0.0000000E+000	0.0000000E+000	-87.1614	0.0000000E+000	0.0000000E+000	0.0000000E+000	-2.83861	0.0000000E+000	0.0000000E+000	0.0000000E+000	2.83861	20.1679	87.1614	-3.00981e-06	-7.16205e-05	-5.3029e-09	-7.16152e-05	3.82315	204112	15.1128	204097
3.97785	15.2893	0.723886	15.3064	-2.71069	25.8413	3.82345	-0.016507	55271.5	123.621	1	11	0.0050005	0.000326692	0	-0.000169791	-0.000251461	5.68515e-06	-40.705	0.0174021	0.0131922	0.0113491	-2.75076	15.3202	15.3025	0.735235	0.0652589	0.00308974	0.065332	2.71069	123621	2.61102e+06	2.61395e+06	-87.2893	0.0000000E+000	0.0000000E+000	0.0000000E+000	87.2893	0.0000000E+000	0.0000000E+000	0.0000000E+000	-87.2893	0.0000000E+000	0.0000000E+000	0.0000000E+000	-2.71069	0.0000000E+000	0.0000000E+000	0.0000000E+000	2.71069	21.1212	87.2893	-2.17236e-06	-6.31138e-05	4.15088e-09	-6.3118e-05	3.8237	231626	15.2336	231641
2.51367	15.4018	0.720174	15.4187	-2.67714	27.4009	3.82345	-0.0163513	87917.1	191.803	1	11	0.00499454	0.000323929	0	-0.000184514	-2.23667e-05	3.74271e-06	15.4595	0.0115541	0.0111361	-0.00307983	-2.66379	15.4296	15.413	0.717095	0.0647857	0.00302931	0.0648565	2.67714	191803	4.10195e+06	4.10643e+06	-87.3229	0.0000000E+000	0.0000000E+000	0.0000000E+000	87.3229	0.0000000E+000	0.0000000E+000	0.0000000E+000	-87.3229	0.0000000E+000	0.0000000E+000	0.0000000E+000	-2.67714	0.0000000E+000	0.0000000E+000	0.0000000E+000	2.67714	21.3863	87.3229	-7.1852e-06	-6.25182e-05	3.65723e-10	-6.25186e-05	3.82347	233832	1.36789	233833
1.58469	15.5485	0.788213	15.5685	-2.90206	29.8364	3.82346	-0.0155359	127419	326.609	1	11	0.00499463	0.000320817	0	-0.000185789	0.000168545	4.12956e-06	-0.905505	0.012872	0.0128704	0.000203421	-2.90041	15.5813	15.5614	0.788417	0.06415	0.00325201	0.0642324	2.90206	326609	6.44278e+06	6.45106e+06	-87.0979	0.0000000E+000	0.0000000E+000	0.0000000E+000	87.0979	0.0000000E+000	0.0000000E+000	0.0000000E+000	-87.0979	0.0000000E+000	0.0000000E+000	0.0000000E+000	-2.90206	0.0000000E+000	0.0000000E+000	0.0000000E+000	2.90206	19.7263	87.0979	1.15932e-06	-5.94008e-05	-2.6185e-09	-5.93981e-05	3.82329	246106	10.8488	246095
1.00469	15.6897	0.863159	15.7134	-3.14892	240.654	3.82343	-0.0156346	183525	553.78	1	11	0.00507559	0.000323011	0	-0.00228284	-6.05491e-05	7.06987e-07	10.5263	0.00218874	0.00215191	-0.000399856	-3.14704	15.7155	15.6918	0.862759	0.0635439	0.00349583	0.06364	3.14892	553780	1.00661e+07	1.00813e+07	-86.8511	0.0000000E+000	0.0000000E+000	0.0000000E+000	86.8511	0.0000000E+000	0.0000000E+000	0.0000000E+000	-86.8511	0.0000000E+000	0.0000000E+000	0.0000000E+000	-3.14892	0.0000000E+000	0.0000000E+000	0.0000000E+000	3.14892	18.177	86.8511	-0.00209599	-5.97777e-05	9.46659e-10	-5.97786e-05	3.82349	244550	3.87277	244554
0.632957	15.907	1.04515	15.9413	-3.75915	240.654	3.82343	-0.0156346	240585	1034.14	1	11	0.00509	0.000319297	0	-0.00228284	-6.05491e-05	7.33372e-07	-6.82086	0.00229683	0.00228057	0.000272784	-3.75959	15.9436	15.9093	1.04542	0.0625953	0.00411275	0.0627302	3.75915	1.03414e+06	1.57394e+07	1.57733e+07	-86.2409	0.0000000E+000	0.0000000E+000	0.0000000E+000	86.2409	0.0000000E+000	0.0000000E+000	0.0000000E+000	-86.2409	0.0000000E+000	0.0000000E+000	0.0000000E+000	-3.75915	0.0000000E+000	0.0000000E+000	0.0000000E+000	3.75915	15.2198	86.2409	0.000000000000000E+000	-5.97777e-05	9.46659e-10	-5.97786e-05	3.82349	244550	3.87277	244554
0.401878	16.1219	1.29563	16.1738	-4.59469	240.655	3.82343	-0.0156346	305665	1961.47	1	11	0.00510403	0.000315573	0	-0.00228284	-6.05491e-05	6.96305e-07	-1.9163	0.00220648	0.00220524	7.37835e-05	-4.59432	16.176	16.1241	1.2957	0.0616296	0.00495285	0.0618283	4.59469	1.96147e+06	2.44071e+07	2.44858e+07	-85.4053	0.0000000E+000	0.0000000E+000	0.0000000E+000	85.4053	0.0000000E+000	0.0000000E+000	0.0000000E+000	-85.4053	0.0000000E+000	0.0000000E+000	0.0000000E+000	-4.59469	0.0000000E+000	0.0000000E+000	0.0000000E+000	4.59469	12.4433	85.4053	0.000000000000000E+000	-5.97777e-05	9.46659e-10	-5.97786e-05	3.82349	244550	3.87277	244554
0.251173	16.5163	1.65934	16.5994	-5.73708	240.655	3.82343	-0.0156346	381867	3815.89	1	11	0.00510507	0.000307546	0	-0.00228284	-6.05491e-05	5.16575e-07	5.92916	0.00167967	0.00167068	-0.000173508	-5.7359	16.601	16.5179	1.65916	0.0599414	0.00602212	0.0602431	5.73708	3.81589e+06	3.79816e+07	3.81728e+07	-84.2629	0.0000000E+000	0.0000000E+000	0.0000000E+000	84.2629	0.0000000E+000	0.0000000E+000	0.0000000E+000	-84.2629	0.0000000E+000	0.0000000E+000	0.0000000E+000	-5.73708	0.0000000E+000	0.0000000E+000	0.0000000E+000	5.73708	9.95353	84.2629	0.000000000000000E+000	-5.97777e-05	9.46659e-10	-5.97786e-05	3.82349	244550	3.87277	244554
0.160751	16.9371	1.89546	17.0428	-6.38553	240.656	3.82343	-0.0156346	522337	6461.01	1	11	0.00509634	0.000299032	0	-0.00228284	-6.05491e-05	4.96953e-07	-15.5098	0.00166187	0.00160135	0.000444389	-6.38642	17.0444	16.9387	1.89591	0.0583118	0.00652581	0.0586758	6.38553	6.46101e+06	5.77328e+07	5.80932e+07	-83.6145	0.0000000E+000	0.0000000E+000	0.0000000E+000	83.6145	0.0000000E+000	0.0000000E+000	0.0000000E+000	-83.6145	0.0000000E+000	0.0000000E+000	0.0000000E+000	-6.38553	0.0000000E+000	0.0000000E+000	0.0000000E+000	6.38553	8.93557	83.6145	0.000000000000000E+000	-5.97777e-05	9.46659e-10	-5.97786e-05	3.82349	244550	3.87277	244554
0.100469	17.4307	2.52276	17.6123	-8.2353	240.656	3.82343	-0.0156346	627930	12883.4	1	11	0.0050995	0.000289543	0	-0.00228284	-6.05491e-05	7.05353e-07	-42.964	0.00243609	0.00178269	0.00166029	-8.23981	17.6143	17.4324	2.52442	0.0561931	0.00813289	0.0567786	8.2353	1.28834e+07	8.90163e+07	8.99438e+07	-81.7647	0.0000000E+000	0.0000000E+000	0.0000000E+000	81.7647	0.0000000E+000	0.0000000E+000	0.0000000E+000	-81.7647	0.0000000E+000	0.0000000E+000	0.0000000E+000	-8.2353	0.0000000E+000	0.0000000E+000	0.0000000E+000	8.2353	6.90937	81.7647	0.000000000000000E+000	-5.97777e-05	9.46659e-10	-5.97786e-05	3.82349	244550	3.87277	244554
0.0602816	18.2825	2.98243	18.5241	-9.26509	240.657	3.82343	-0.0156346	885248	22947.2	1	11	0.00509417	0.000275002	0	-0.00228284	-6.05491e-05	7.19941e-07	-3.23341	0.00261795	0.00261378	0.000147662	-9.26424	18.5267	18.2851	2.98258	0.0532794	0.00869151	0.0539837	9.26509	2.29472e+07	1.40668e+08	1.42527e+08	-80.7349	0.0000000E+000	0.0000000E+000	0.0000000E+000	80.7349	0.0000000E+000	0.0000000E+000	0.0000000E+000	-80.7349	0.0000000E+000	0.0000000E+000	0.0000000E+000	-9.26509	0.0000000E+000	0.0000000E+000	0.0000000E+000	9.26509	6.13006	80.7349	0.000000000000000E+000	-5.97777e-05	9.46659e-10	-5.97786e-05	3.82349	244550	3.87277	244554
0.0401878	19.2316	3.39329	19.5287	-10.0064	240.657	3.82343	-0.0156346	1.16709e+06	35237.1	1	11	0.00509759	0.000261031	0	-0.00228284	-6.05491e-05	8.29354e-07	26.5353	0.00317723	0.00284254	-0.00141942	-10.0009	19.5313	19.2345	3.39187	0.0504277	0.00889761	0.0512067	10.0064	3.52371e+07	1.99708e+08	2.02793e+08	-79.9936	0.0000000E+000	0.0000000E+000	0.0000000E+000	79.9936	0.0000000E+000	0.0000000E+000	0.0000000E+000	-79.9936	0.0000000E+000	0.0000000E+000	0.0000000E+000	-10.0064	0.0000000E+000	0.0000000E+000	0.0000000E+000	10.0064	5.66755	79.9936	0.000000000000000E+000	-5.97777e-05	9.46659e-10	-5.97786e-05	3.82349	244550	3.87277	244554
0.0200939	21.203	4.50959	21.6772	-12.0072	240.657	3.82343	-0.0156346	1.75638e+06	76012.9	1	11	0.00509614	0.000235092	0	-0.00228284	-6.05491e-05	1.70151e-06	-36.0268	0.00723761	0.00585336	0.0042569	-12.0149	21.6838	21.2088	4.51385	0.0451221	0.00959689	0.0461314	12.0072	7.60128e+07	3.57393e+08	3.65387e+08	-77.9928	0.0000000E+000	0.0000000E+000	0.0000000E+000	77.9928	0.0000000E+000	0.0000000E+000	0.0000000E+000	-77.9928	0.0000000E+000	0.0000000E+000	0.0000000E+000	-12.0072	0.0000000E+000	0.0000000E+000	0.0000000E+000	12.0072	4.70174	77.9928	0.000000000000000E+000	-5.97777e-05	9.46659e-10	-5.97786e-05	3.82349	244550	3.87277	244554
0.00796479	24.6405	4.94015	25.1308	-11.3369	20329.6	3.82344	-0.00179536	4.04488e+06	156305	1	11	0.00508831	0.000202473	0	-0.0279616	9.21806e-05	3.94425e-07	-159.429	0.00194804	-0.00182383	0.000684482	-11.3392	25.1291	24.6386	4.94084	0.0390154	0.00782218	0.0397918	11.3369	1.56305e+08	7.79618e+08	7.95133e+08	-78.6631	0.0000000E+000	0.0000000E+000	0.0000000E+000	78.6631	0.0000000E+000	0.0000000E+000	0.0000000E+000	-78.6631	0.0000000E+000	0.0000000E+000	0.0000000E+000	-11.3369	0.0000000E+000	0.0000000E+000	0.0000000E+000	11.3369	4.98779	78.6631	-0.0256787	-6.86448e-06	-1.65498e-10	-6.86431e-06	3.82335	2.12962e+06	51.3437	2.12957e+06
0.00497799	26.1616	4.93993	26.6239	-10.6929	20329.6	3.82344	-0.00179536	6.4721e+06	222814	1	11	0.00509722	0.000191452	0	-0.0279616	9.21806e-05	1.3515e-07	-75.1202	0.00070592	0.000181275	0.000682248	-10.6943	26.6242	26.1618	4.94061	0.036908	0.00696909	0.0375602	10.6929	2.22814e+08	1.18001e+09	1.20086e+09	-79.3071	0.0000000E+000	0.0000000E+000	0.0000000E+000	79.3071	0.0000000E+000	0.0000000E+000	0.0000000E+000	-79.3071	0.0000000E+000	0.0000000E+000	0.0000000E+000	-10.6929	0.0000000E+000	0.0000000E+000	0.0000000E+000	10.6929	5.29595	79.3071	0.000000000000000E+000	-6.86448e-06	-1.65498e-10	-6.86431e-06	3.82335	2.12962e+06	51.3437	2.12957e+06
0.00318591	27.1886	6.37807	27.9267	-13.2021	20329.6	3.82344	-0.00179536	7.83244e+06	408541	1	11	0.00510013	0.000182626	0	-0.0279616	9.21806e-05	2.44519e-07	-146.836	0.00133891	-0.00112081	0.000732435	-13.2041	27.9258	27.1875	6.3788	0.0348616	0.00817805	0.035808	13.2021	4.08541e+08	1.74154e+09	1.78882e+09	-76.7979	0.0000000E+000	0.0000000E+000	0.0000000E+000	76.7979	0.0000000E+000	0.0000000E+000	0.0000000E+000	-76.7979	0.0000000E+000	0.0000000E+000	0.0000000E+000	-13.2021	0.0000000E+000	0.0000000E+000	0.0000000E+000	13.2021	4.26283	76.7979	0.000000000000000E+000	-6.86448e-06	-1.65498e-10	-6.86431e-06	3.82335	2.12962e+06	51.3437	2.12957e+06
0.0019912	28.1772	7.46946	29.1504	-14.847	20329.6	3.82344	-0.00179536	1.07008e+07	702595	1	11	0.00510129	0.000174999	0	-0.0279616	9.21806e-05	5.30345e-07	-93.3172	0.00303056	-0.00017536	0.00302549	-14.8528	29.151	28.177	7.47248	0.0331595	0.0087902	0.0343048	14.847	7.02595e+08	2.65041e+09	2.74196e+09	-75.153	0.0000000E+000	0.0000000E+000	0.0000000E+000	75.153	0.0000000E+000	0.0000000E+000	0.0000000E+000	-75.153	0.0000000E+000	0.0000000E+000	0.0000000E+000	-14.847	0.0000000E+000	0.0000000E+000	0.0000000E+000	14.847	3.77232	75.153	0.000000000000000E+000	-6.86448e-06	-1.65498e-10	-6.86431e-06	3.82335	2.12962e+06	51.3437	2.12957e+06
0.00129428	27.9618	9.45612	29.5174	-18.6845	20329.6	3.82344	-0.00179536	1.30041e+07	1.33459e+06	1	11	0.00510219	0.000172853	0	-0.0279616	9.21806e-05	7.43239e-07	28.0047	0.00429982	0.00379635	-0.00201895	-18.6785	29.5204	27.9655	9.4541	0.0320928	0.0108532	0.0338783	18.6845	1.33459e+09	3.94639e+09	4.16595e+09	-71.3155	0.0000000E+000	0.0000000E+000	0.0000000E+000	71.3155	0.0000000E+000	0.0000000E+000	0.0000000E+000	-71.3155	0.0000000E+000	0.0000000E+000	0.0000000E+000	-18.6845	0.0000000E+000	0.0000000E+000	0.0000000E+000	18.6845	2.957	71.3155	0.000000000000000E+000	-6.86448e-06	-1.65498e-10	-6.86431e-06	3.82335	2.12962e+06	51.3437	2.12957e+06
0.000796479	30.2233	13.225	32.9901	-23.633	20329.6	3.82344	-0.00179536	1.51096e+07	2.42814e+06	1	11	0.00510138	0.000154634	0	-0.0279616	9.21806e-05	5.06036e-07	-139.791	0.00327248	-0.00249918	0.00211264	-23.6381	32.9887	30.2208	13.2271	0.0277699	0.0121514	0.0303121	23.633	2.42814e+09	5.54907e+09	6.05707e+09	-66.367	0.0000000E+000	0.0000000E+000	0.0000000E+000	66.367	0.0000000E+000	0.0000000E+000	0.0000000E+000	-66.367	0.0000000E+000	0.0000000E+000	0.0000000E+000	-23.633	0.0000000E+000	0.0000000E+000	0.0000000E+000	23.633	2.28532	66.367	0.000000000000000E+000	-6.86448e-06	-1.65498e-10	-6.86431e-06	3.82335	2.12962e+06	51.3437	2.12957e+06
0.000497799	30.1044	18.6176	35.3961	-31.7341	20329.6	3.82344	-0.00179536	1.71729e+07	4.75092e+06	1	11	0.00510049	0.000144097	0	-0.0279616	9.21806e-05	9.22211e-07	-135.952	0.00639991	-0.00459996	0.00444964	-31.7441	35.3946	30.0998	18.622	0.024028	0.0148598	0.0282517	31.7341	4.75092e+09	7.68216e+09	9.03255e+09	-58.2659	0.0000000E+000	0.0000000E+000	0.0000000E+000	58.2659	0.0000000E+000	0.0000000E+000	0.0000000E+000	-58.2659	0.0000000E+000	0.0000000E+000	0.0000000E+000	-31.7341	0.0000000E+000	0.0000000E+000	0.0000000E+000	31.7341	1.61698	58.2659	0.000000000000000E+000	-6.86448e-06	-1.65498e-10	-6.86431e-06	3.82335	2.12962e+06	51.3437	2.12957e+06
0.000298679	30.2167	28.3019	41.4011	-43.1258	20329.6	3.82344	-0.00179536	1.88278e+07	8.79847e+06	1	11	0.00510256	0.000123247	0	-0.0279616	9.21806e-05	1.41742e-06	-93.5678	0.0115007	-0.000715677	0.0114784	-43.1381	41.4084	30.216	28.3134	0.0176289	0.0165117	0.024154	43.1258	8.79847e+09	9.39376e+09	1.28707e+10	-46.8742	0.0000000E+000	0.0000000E+000	0.0000000E+000	46.8742	0.0000000E+000	0.0000000E+000	0.0000000E+000	-46.8742	0.0000000E+000	0.0000000E+000	0.0000000E+000	-43.1258	0.0000000E+000	0.0000000E+000	0.0000000E+000	43.1258	1.06766	46.8742	0.000000000000000E+000	-6.86448e-06	-1.65498e-10	-6.86431e-06	3.82335	2.12962e+06	51.3437	2.12957e+06
9.95598e-05	39.4108	93.2065	101.196	-67.0798	20329.6	3.82344	-0.00179536	1.7151e+07	1.45497e+07	1	11	0.00510308	5.04276e-05	0	-0.0279616	9.21806e-05	1.297e-06	112.348	0.0257201	-0.00977952	-0.0237884	-67.0796	101.17	39.401	93.1827	0.00384846	0.00910161	0.0098818	67.0798	1.45497e+10	6.15209e+09	1.57969e+10	-22.9202	0.0000000E+000	0.0000000E+000	0.0000000E+000	22.9202	0.0000000E+000	0.0000000E+000	0.0000000E+000	-22.9202	0.0000000E+000	0.0000000E+000	0.0000000E+000	-67.0798	0.0000000E+000	0.0000000E+000	0.0000000E+000	67.0798	0.422833	22.9203	0.000000000000000E+000	-6.86448e-06	-1.65498e-10	-6.86431e-06	3.82335	2.12962e+06	51.3437	2.12957e+06