File: txt/18444_R297_UC61_11mm_SOC50_C04.mpt
EC-Lab ASCII FILE
Nb header lines : 65

Potentio Electrochemical Impedance Spectroscopy

Run on channel : 4 (SN 66756)
User :
CE vs. WE compliance from -10 V to 10 V
Electrode connection : standard
Potential control : Ewe
Ewe ctrl range : min = -10.00 V, max = 10.00 V
Safety Limits :
	Do not start on E overload
Acquisition started on : 10/16/2025 15:32:35.564
Technique started on : 10/16/2025 15:32:38.259
Loaded Setting File :  C:\Users\Celltest\OneDrive - store-dot.com\Documents\EC-Lab\Data\txt_done\UC80_17231_EIS_50SOC.mps
Saved on :
	File : 18444_R297_UC61_11mm_SOC50_C04.mpr
	Directory : C:\Users\Celltest\OneDrive - store-dot.com\Documents\EC-Lab\Data\Michael\
	Host : 169.254.61.224
Device : VMP-3e (SN .003165)
Address : USB
EC-LAB for windows v11.62 (software)
Internet server v27.00 (firmware)
Command interpretor v12.03 (firmware)
Electrode material :
Initial state :
Electrolyte :
Comments :
Electrode surface area : 0.001 cm²
Characteristic mass : 0.001 g
Equivalent Weight : 0.000 g/eq.
Density : 0.000 g/cm3
Volume (V) : 0.001 cm³
Record Ece
Cycle Definition : Charge/Discharge alternance
Mode                Multi sine
E (V)               0.0000
vs.                 Eoc
tE (h:m:s)          0:00:0.0000
record              0
dI                  0.000
unit dI             mA
dt (s)              0.000
fi                  1.000
unit fi             MHz
ff                  0.100
unit ff             mHz
Nd                  10
Points              per decade
spacing             Logarithmic
Va (mV)             5.0
pw                  0.10
Na                  2
corr                0
E range min (V)     -10.000
E range max (V)     10.000
I Range             Auto
Bandwidth           5
nc cycles           0
goto Ns'            0
nr cycles           0
inc. cycle          0

freq/Hz	Re(Z)/Ohm	-Im(Z)/Ohm	|Z|/Ohm	Phase(Z)/deg	time/s	<Ewe>/V	<I>/mA	Cs/µF	Cp/µF	cycle number	I Range	|Ewe|/V	|I|/A	Ns	(Q-Qo)/mA.h	<Ece>/V	|Ece|/V	Phase(Zce)/deg	|Zce|/Ohm	Re(Zce)/Ohm	-Im(Zce)/Ohm	Phase(Zwe-ce)/deg	|Zwe-ce|/Ohm	Re(Zwe-ce)/Ohm	-Im(Zwe-ce)/Ohm	Re(Y)/Ohm-1	Im(Y)/Ohm-1	|Y|/Ohm-1	Phase(Y)/deg	Re(C)/nF	Im(C)/nF	|C|/nF	Phase(C)/deg	Re(M)	Im(M)	|M|	Phase(M)/deg	Re(Permittivity)	Im(Permittivity)	|Permittivity|	Phase(Permittivity)/deg	Re(Resistivity)/Ohm.cm	Im(Resistivity)/Ohm.cm	|Resistivity|/Ohm.cm	Phase(Resistivity)/deg	Re(Conductivity)/mS/cm	Im(Conductivity)/mS/cm	|Conductivity|/mS/cm	Phase(Conductivity)/deg	Tan(Delta)	Loss Angle(Delta)/deg	dq/mA.h	Pwe/W	Pce/W	Pwe-ce/W	<Ewe-Ece>/V	Rwe/Ohm	Rce/Ohm	Rwe-ce/Ohm		Ewe-Ece/V
1.00002e+06	0.933909	-0.0811225	0.937425	4.96444	2.69456	3.82488	0.0220573	-1.96187	-0.014692	1	9	0.000195171	0.000208199	0	2.65696e-05	3.60827e-06	0.00018183	4.5145	0.873347	0.870637	-0.0687423	4.74743	1.81076	1.80455	-0.149865	1.06275	-0.092314	1.06675	-4.96444	-14.692	169.139	169.776	-94.9644	0.0000000E+000	0.0000000E+000	0.0000000E+000	94.9644	0.0000000E+000	0.0000000E+000	0.0000000E+000	-94.9644	0.0000000E+000	0.0000000E+000	0.0000000E+000	4.96444	0.0000000E+000	0.0000000E+000	0.0000000E+000	-4.96444	11.5123	85.0356	2.65696e-05	8.43667e-05	7.95888e-11	8.43666e-05	3.82488	173406	0.163586	173406
630957	0.369946	0.16414	0.404725	-23.9262	3.46055	3.82383	-0.0178135	1.53676	0.252764	1	9	0.00013866	0.000342603	0	2.14071e-05	-0.000225711	0.00010975	-96.9324	0.320342	-0.038665	0.318	-55.5069	0.584984	0.331281	0.48214	2.2585	1.00206	2.47082	23.9262	252.764	569.691	623.248	-66.0738	0.0000000E+000	0.0000000E+000	0.0000000E+000	66.0738	0.0000000E+000	0.0000000E+000	0.0000000E+000	-66.0738	0.0000000E+000	0.0000000E+000	0.0000000E+000	-23.9262	0.0000000E+000	0.0000000E+000	0.0000000E+000	23.9262	2.25384	66.0738	-4.7041e-06	-6.81157e-05	4.0207e-09	-6.81198e-05	3.82406	214660	12.6708	214672
398103	0.567532	0.0655204	0.571302	-6.58552	4.22656	3.8237	-0.0346345	6.10166	0.0802544	1	9	0.000542591	0.000949745	0	1.60671e-05	-0.000225711	3.29392e-05	-170.995	0.0346822	-0.0342548	0.00542826	-7.57827	0.537977	0.533278	0.0709486	1.73884	0.200745	1.75039	6.58552	80.2544	695.158	699.775	-83.4145	0.0000000E+000	0.0000000E+000	0.0000000E+000	83.4145	0.0000000E+000	0.0000000E+000	0.0000000E+000	-83.4145	0.0000000E+000	0.0000000E+000	0.0000000E+000	-6.58552	0.0000000E+000	0.0000000E+000	0.0000000E+000	6.58552	8.66192	83.4145	-1.37596e-06	-0.000132432	7.8174e-09	-0.00013244	3.82392	110401	6.51694	110408
251206	0.684822	0.197416	0.712709	-16.0809	4.99252	3.82347	-0.0420567	3.20928	0.246234	1	9	0.00176948	0.00248275	0	8.93143e-06	-0.000187491	3.97462e-05	75.4071	0.0160089	0.00403343	-0.0154925	-14.7938	0.712473	0.688855	0.181923	1.3482	0.388649	1.4031	16.0809	246.234	854.167	888.95	-73.9191	0.0000000E+000	0.0000000E+000	0.0000000E+000	73.9191	0.0000000E+000	0.0000000E+000	0.0000000E+000	-73.9191	0.0000000E+000	0.0000000E+000	0.0000000E+000	-16.0809	0.0000000E+000	0.0000000E+000	0.0000000E+000	16.0809	3.46893	73.9191	-4.21101e-06	-0.000160802	7.88526e-09	-0.00016081	3.82366	90912.3	4.45806	90916.8
158486	0.764861	0.30912	0.824965	-22.0062	5.75852	3.8234	-0.0483598	3.24864	0.456127	1	9	0.00501328	0.00607696	0	5.6462e-06	-0.000359481	5.5588e-05	61.0745	0.00914732	0.0044243	-0.00800619	-21.3764	0.826117	0.769285	0.301114	1.12386	0.45421	1.21217	22.0062	456.127	1128.6	1217.29	-67.9938	0.0000000E+000	0.0000000E+000	0.0000000E+000	67.9938	0.0000000E+000	0.0000000E+000	0.0000000E+000	-67.9938	0.0000000E+000	0.0000000E+000	0.0000000E+000	-22.0062	0.0000000E+000	0.0000000E+000	0.0000000E+000	22.0062	2.47431	67.9938	6.60814e-06	-0.000184899	1.73844e-08	-0.000184916	3.82376	79061.6	7.43347	79069.1
100004	0.868212	0.418135	0.963654	-25.7157	6.52451	3.8234	-0.0698803	3.80616	0.716603	1	9	0.00531957	0.00552021	0	-3.88181e-06	-9.19415e-05	3.04203e-05	85.2467	0.00551072	0.000456649	-0.00549177	-25.4091	0.961696	0.868668	0.412643	0.93494	0.450272	1.03772	25.7157	716.603	1487.95	1651.52	-64.2843	0.0000000E+000	0.0000000E+000	0.0000000E+000	64.2843	0.0000000E+000	0.0000000E+000	0.0000000E+000	-64.2843	0.0000000E+000	0.0000000E+000	0.0000000E+000	-25.7157	0.0000000E+000	0.0000000E+000	0.0000000E+000	25.7157	2.07639	64.2843	-2.31612e-05	-0.00026718	6.4249e-09	-0.000267187	3.82349	54713.5	1.3157	54714.8
63093.8	0.992613	0.533803	1.12704	-28.2703	7.29255	3.82338	-0.0327695	4.72555	1.06007	1	9	0.00533607	0.00473458	0	1.36024e-05	0.000156488	1.78514e-05	84.6564	0.00377043	0.00035113	-0.00375404	-28.0935	1.12558	0.992964	0.530049	0.781446	0.420243	0.887278	28.2703	1060.07	1971.21	2238.17	-61.7297	0.0000000E+000	0.0000000E+000	0.0000000E+000	61.7297	0.0000000E+000	0.0000000E+000	0.0000000E+000	-61.7297	0.0000000E+000	0.0000000E+000	0.0000000E+000	-28.2703	0.0000000E+000	0.0000000E+000	0.0000000E+000	28.2703	1.85951	61.7297	6.73101e-07	-0.00012529	-5.12804e-09	-0.000125285	3.82322	116675	4.77541	116670
39814.1	1.14767	0.652695	1.32029	-29.6274	8.05856	3.82339	-0.0275853	6.12454	1.49678	1	9	0.005409	0.00409683	0	4.70457e-06	-0.000111051	4.74959e-05	20.1895	0.0115933	0.010881	-0.00400115	-29.2452	1.3278	1.15855	0.648694	0.658386	0.374432	0.757411	29.6274	1496.78	2631.87	3027.72	-60.3726	0.0000000E+000	0.0000000E+000	0.0000000E+000	60.3726	0.0000000E+000	0.0000000E+000	0.0000000E+000	-60.3726	0.0000000E+000	0.0000000E+000	0.0000000E+000	-29.6274	0.0000000E+000	0.0000000E+000	0.0000000E+000	29.6274	1.75836	60.3726	-4.63901e-06	-0.000105469	3.06338e-09	-0.000105472	3.8235	138603	4.02575	138607
25116.9	1.34208	0.811928	1.56856	-31.1731	8.95052	3.82337	-0.0186712	7.80435	2.09106	1	9	0.0054975	0.0035048	0	-1.65947e-06	-9.19415e-05	1.12638e-05	85.9173	0.00321384	0.000228811	-0.00320568	-31.0685	1.5671	1.3423	0.808722	0.545472	0.329999	0.637526	31.1731	2091.06	3456.42	4039.72	-58.8269	0.0000000E+000	0.0000000E+000	0.0000000E+000	58.8269	0.0000000E+000	0.0000000E+000	0.0000000E+000	-58.8269	0.0000000E+000	0.0000000E+000	0.0000000E+000	-31.1731	0.0000000E+000	0.0000000E+000	0.0000000E+000	31.1731	1.65295	58.8269	-3.12865e-06	-7.1387e-05	1.71666e-09	-7.13887e-05	3.82346	204773	4.92423	204778
15847.7	1.57226	0.98452	1.85507	-32.0541	9.59453	3.82338	-0.020275	10.2007	2.87316	1	9	0.0045233	0.00243835	0	3.28867e-06	0.000156488	9.00396e-06	-130.515	0.00369265	-0.00239892	0.00280728	-32.1669	1.85453	1.56986	0.987327	0.456882	0.286092	0.539064	32.0541	2873.16	4588.37	5413.71	-57.9459	0.0000000E+000	0.0000000E+000	0.0000000E+000	57.9459	0.0000000E+000	0.0000000E+000	0.0000000E+000	-57.9459	0.0000000E+000	0.0000000E+000	0.0000000E+000	-32.0541	0.0000000E+000	0.0000000E+000	0.0000000E+000	32.0541	1.59698	57.9459	1.33917e-06	-7.75191e-05	-3.1728e-09	-7.7516e-05	3.82322	188576	7.71825	188568
10002.2	1.84288	1.18409	2.1905	-32.7215	10.3605	3.82339	-0.0188577	13.4382	3.92665	1	9	0.00494795	0.00225882	0	1.79403e-06	2.27182e-05	1.24713e-05	-47.1307	0.00552115	0.00375619	0.00404649	-32.7574	2.19585	1.84664	1.18813	0.384072	0.246773	0.456517	32.7215	3926.65	6111.33	7264.08	-57.2785	0.0000000E+000	0.0000000E+000	0.0000000E+000	57.2785	0.0000000E+000	0.0000000E+000	0.0000000E+000	-57.2785	0.0000000E+000	0.0000000E+000	0.0000000E+000	-32.7215	0.0000000E+000	0.0000000E+000	0.0000000E+000	32.7215	1.55637	57.2785	9.30826e-07	-7.21005e-05	-4.28414e-10	-7.21e-05	3.82337	202749	1.20472	202748
6309.38	2.17918	1.40946	2.59527	-32.8942	11.0025	3.82339	-0.0197902	17.897	5.27865	1	9	0.00502695	0.00193697	0	-2.14259e-06	-0.000340371	8.92147e-06	-41.5751	0.00460589	0.00344561	0.00305648	-32.9095	2.59982	2.18263	1.41252	0.323541	0.209262	0.385317	32.8942	5278.65	8161.35	9719.66	-57.1058	0.0000000E+000	0.0000000E+000	0.0000000E+000	57.1058	0.0000000E+000	0.0000000E+000	0.0000000E+000	-57.1058	0.0000000E+000	0.0000000E+000	0.0000000E+000	-32.8942	0.0000000E+000	0.0000000E+000	0.0000000E+000	32.8942	1.54611	57.1058	-2.18448e-06	-7.56655e-05	6.736e-09	-7.56723e-05	3.82373	193196	17.199	193213
3983.6	2.56028	1.67243	3.05811	-33.1534	11.5671	3.82322	-0.0736475	23.8889	7.14471	1	9	0.00482433	0.00157755	0	-9.83177e-06	-0.000397701	9.61611e-06	-37.8727	0.00609559	0.00481172	0.00374214	-33.1628	3.06419	2.56509	1.67617	0.273767	0.17883	0.326999	33.1534	7144.71	10937.7	13064.4	-56.8466	0.0000000E+000	0.0000000E+000	0.0000000E+000	56.8466	0.0000000E+000	0.0000000E+000	0.0000000E+000	-56.8466	0.0000000E+000	0.0000000E+000	0.0000000E+000	-33.1534	0.0000000E+000	0.0000000E+000	0.0000000E+000	33.1534	1.53088	56.8466	-5.43444e-06	-0.000281571	2.92897e-08	-0.0002816	3.82362	51912.4	5.40006	51917.8
2510.8	3.07139	2.04539	3.69013	-33.6617	12.6368	3.82325	-0.0161614	30.9907	9.52141	1	10	0.00499591	0.00135386	0	-2.23809e-05	4.18282e-05	6.18119e-06	-103.668	0.00456561	-0.0010788	0.00443632	-33.7282	3.69169	3.07031	2.04983	0.225555	0.150208	0.270993	33.6617	9521.41	14297.5	17177.7	-56.3383	0.0000000E+000	0.0000000E+000	0.0000000E+000	56.3383	0.0000000E+000	0.0000000E+000	0.0000000E+000	-56.3383	0.0000000E+000	0.0000000E+000	0.0000000E+000	-33.6617	0.0000000E+000	0.0000000E+000	0.0000000E+000	33.6617	1.50161	56.3383	-2.17474e-06	-6.17889e-05	-6.76e-10	-6.17883e-05	3.82321	236568	2.58816	236565
1585.51	3.65901	2.46002	4.40909	-33.9136	13.5388	3.82327	-0.0190411	40.805	12.7026	1	10	0.00482596	0.00109455	0	-2.61473e-05	0.000156488	8.24381e-06	-106.307	0.0075317	-0.00211474	0.00722872	-34.0069	4.41138	3.6569	2.46725	0.18822	0.126544	0.226804	33.9136	12702.6	18893.7	22766.8	-56.0864	0.0000000E+000	0.0000000E+000	0.0000000E+000	56.0864	0.0000000E+000	0.0000000E+000	0.0000000E+000	-56.0864	0.0000000E+000	0.0000000E+000	0.0000000E+000	-33.9136	0.0000000E+000	0.0000000E+000	0.0000000E+000	33.9136	1.48739	56.0863	-1.36284e-06	-7.2799e-05	-2.97969e-09	-7.2796e-05	3.82311	200791	8.21845	200782
1000.32	4.39397	2.96041	5.2982	-33.9699	14.4408	3.82325	-0.0135465	53.744	16.7794	1	10	0.00472164	0.000891179	0	-3.13912e-05	-0.000130161	6.09973e-06	-31.848	0.00684457	0.00581412	0.00361166	-33.9671	5.30504	4.39978	2.96402	0.156531	0.105462	0.188743	33.9699	16779.4	24904.7	30029.8	-56.0301	0.0000000E+000	0.0000000E+000	0.0000000E+000	56.0301	0.0000000E+000	0.0000000E+000	0.0000000E+000	-56.0301	0.0000000E+000	0.0000000E+000	0.0000000E+000	-33.9699	0.0000000E+000	0.0000000E+000	0.0000000E+000	33.9699	1.48424	56.0302	-2.89107e-06	-5.17917e-05	1.76323e-09	-5.17934e-05	3.82338	282232	9.60849	282241
631.01	5.37051	3.49057	6.40519	-33.0219	15.3415	3.82325	-0.0127968	72.2582	21.4594	1	10	0.00466548	0.000728391	0	-3.49278e-05	-0.000263931	5.36775e-06	-85.8388	0.00736932	0.000534741	0.0073499	-33.0744	6.40965	5.37104	3.49792	0.130904	0.085081	0.156123	33.0219	21459.4	33016.8	39377.9	-56.9781	0.0000000E+000	0.0000000E+000	0.0000000E+000	56.9781	0.0000000E+000	0.0000000E+000	0.0000000E+000	-56.9781	0.0000000E+000	0.0000000E+000	0.0000000E+000	-33.0219	0.0000000E+000	0.0000000E+000	0.0000000E+000	33.0219	1.53857	56.9781	-2.26436e-06	-4.89252e-05	3.37746e-09	-4.89286e-05	3.82351	298767	20.6248	298788
398.089	6.68115	3.97492	7.77417	-30.7504	16.2429	3.82327	-0.0281464	100.58	26.2942	1	10	0.00464142	0.000597031	0	-3.95789e-05	-0.000302151	1.8109e-05	-19.2602	0.0303317	0.028634	0.0100052	-30.706	7.8039	6.70978	3.98493	0.110546	0.0657689	0.128631	30.7504	26294.2	44196	51426.3	-59.2496	0.0000000E+000	0.0000000E+000	0.0000000E+000	59.2496	0.0000000E+000	0.0000000E+000	0.0000000E+000	-59.2496	0.0000000E+000	0.0000000E+000	0.0000000E+000	-30.7504	0.0000000E+000	0.0000000E+000	0.0000000E+000	30.7504	1.68082	59.2496	-2.84262e-06	-0.000107611	8.50447e-09	-0.00010762	3.82357	135835	10.735	135846
251.044	8.19841	4.15402	9.19075	-26.8707	17.141	3.82328	-0.0539108	152.616	31.1772	1	10	0.00462555	0.000503284	0	-4.49006e-05	6.09381e-05	1.24481e-05	57.415	0.0247337	0.0133204	-0.0208405	-26.7173	9.19324	8.21173	4.13318	0.0970572	0.0491776	0.108805	26.8707	31177.2	61531.5	68979.3	-63.1293	0.0000000E+000	0.0000000E+000	0.0000000E+000	63.1293	0.0000000E+000	0.0000000E+000	0.0000000E+000	-63.1293	0.0000000E+000	0.0000000E+000	0.0000000E+000	-26.8707	0.0000000E+000	0.0000000E+000	0.0000000E+000	26.8707	1.97361	63.1293	-4.15245e-06	-0.000206116	-3.28522e-09	-0.000206112	3.82322	70918.6	1.13035	70917.5
158.428	9.72928	3.93686	10.4956	-22.0303	18.0458	3.82328	-0.0500127	255.174	35.9023	1	10	0.00461884	0.000440074	0	-5.12034e-05	-0.000263931	2.70833e-06	3.27957	0.00615427	0.00614419	-0.000352074	-22.0159	10.5012	9.73542	3.93651	0.0883213	0.0357384	0.095278	22.0303	35902.3	88726.4	95714.9	-67.9697	0.0000000E+000	0.0000000E+000	0.0000000E+000	67.9697	0.0000000E+000	0.0000000E+000	0.0000000E+000	-67.9697	0.0000000E+000	0.0000000E+000	0.0000000E+000	-22.0303	0.0000000E+000	0.0000000E+000	0.0000000E+000	22.0303	2.47133	67.9697	-4.88402e-06	-0.000191213	1.31999e-08	-0.000191226	3.82355	76446.2	5.27728	76451.5
100.032	11.052	3.34106	11.546	-16.8202	18.9438	3.82327	-0.0213314	476.208	39.8752	1	10	0.00460738	0.000399046	0	-5.51793e-05	4.18282e-05	1.04826e-05	85.0233	0.0262692	0.00227889	-0.0261702	-16.6926	11.5406	11.0543	3.31489	0.0829047	0.0250624	0.0866102	16.8202	39875.2	131905	137800	-73.1798	0.0000000E+000	0.0000000E+000	0.0000000E+000	73.1798	0.0000000E+000	0.0000000E+000	0.0000000E+000	-73.1798	0.0000000E+000	0.0000000E+000	0.0000000E+000	-16.8202	0.0000000E+000	0.0000000E+000	0.0000000E+000	16.8202	3.30794	73.1798	-1.60417e-06	-8.15557e-05	-8.92254e-10	-8.15548e-05	3.82323	179232	1.96087	179230
63.0823	12.0559	2.62737	12.3389	-12.2944	19.8599	3.82326	-0.0131138	960.266	43.5396	1	10	0.00460885	0.000373524	0	-5.77934e-05	-0.000416811	1.06434e-05	46.2638	0.0284945	0.0196994	-0.0205882	-12.1816	12.3537	12.0756	2.60678	0.0791862	0.0172572	0.0810448	12.2944	43539.6	199785	204474	-77.7056	0.0000000E+000	0.0000000E+000	0.0000000E+000	77.7056	0.0000000E+000	0.0000000E+000	0.0000000E+000	-77.7056	0.0000000E+000	0.0000000E+000	0.0000000E+000	-12.2944	0.0000000E+000	0.0000000E+000	0.0000000E+000	12.2944	4.58858	77.7056	-1.55561e-06	-5.01376e-05	5.46599e-09	-5.01431e-05	3.82368	291544	31.7841	291576
39.8089	12.7834	1.80673	12.9104	-8.04455	20.7609	3.82327	-0.0161129	2212.83	43.3361	1	10	0.00460413	0.000356621	0	-6.29218e-05	-0.000474141	1.08171e-05	50.2191	0.0303323	0.0194082	-0.0233103	-7.93021	12.9264	12.8028	1.78342	0.0766945	0.0108395	0.0774567	8.04455	43336.1	306622	309670	-81.9555	0.0000000E+000	0.0000000E+000	0.0000000E+000	81.9555	0.0000000E+000	0.0000000E+000	0.0000000E+000	-81.9555	0.0000000E+000	0.0000000E+000	0.0000000E+000	-8.04455	0.0000000E+000	0.0000000E+000	0.0000000E+000	8.04455	7.07545	81.9555	-2.60797e-06	-6.16039e-05	7.63978e-09	-6.16115e-05	3.82374	237280	29.4262	237309
25.1044	12.9986	1.46072	13.0804	-6.4117	21.64	3.82327	-0.0134085	4340.14	54.1242	1	10	0.00461461	0.000352787	0	-6.63435e-05	-0.000130161	1.10643e-05	13.7109	0.0313624	0.0304687	-0.00743362	-6.36455	13.1099	13.0291	1.45328	0.0759718	0.00853732	0.07645	6.4117	54124.2	481640	484671	-83.5883	0.0000000E+000	0.0000000E+000	0.0000000E+000	83.5883	0.0000000E+000	0.0000000E+000	0.0000000E+000	-83.5883	0.0000000E+000	0.0000000E+000	0.0000000E+000	-6.4117	0.0000000E+000	0.0000000E+000	0.0000000E+000	6.4117	8.89879	83.5883	-1.59009e-06	-5.12643e-05	1.74527e-09	-5.12661e-05	3.8234	285137	9.70737	285147
15.8576	13.3374	0.920601	13.3691	-3.94853	22.5181	3.82328	-0.0410305	10902.1	51.695	1	10	0.00462359	0.000345841	0	-7.12519e-05	-0.000187491	1.45428e-05	-12.1663	0.0420506	0.0411061	0.00886219	-3.97421	13.4107	13.3785	0.929463	0.0746217	0.00515069	0.0747992	3.94853	51695	748942	750724	-86.0515	0.0000000E+000	0.0000000E+000	0.0000000E+000	86.0515	0.0000000E+000	0.0000000E+000	0.0000000E+000	-86.0515	0.0000000E+000	0.0000000E+000	0.0000000E+000	-3.94853	0.0000000E+000	0.0000000E+000	0.0000000E+000	3.94853	14.4877	86.0515	-3.41204e-06	-0.000156871	7.69286e-09	-0.000156879	3.82346	93181.4	4.56956	93186
10.0032	13.4171	0.776227	13.4396	-3.31107	23.7829	3.82329	0.00568102	20497.1	68.3755	1	11	0.00461135	0.000343118	0	-6.82705e-05	-0.000187491	1.10033e-05	27.6264	0.0320686	0.0284125	-0.0148703	-3.24093	13.4671	13.4455	0.761357	0.074283	0.00429753	0.0744072	3.31107	68375.5	1.18187e+06	1.18385e+06	-86.6889	0.0000000E+000	0.0000000E+000	0.0000000E+000	86.6889	0.0000000E+000	0.0000000E+000	0.0000000E+000	-86.6889	0.0000000E+000	0.0000000E+000	0.0000000E+000	-3.31107	0.0000000E+000	0.0000000E+000	0.0000000E+000	3.31107	17.285	86.6889	1.18149e-06	2.17202e-05	-1.06514e-09	2.17213e-05	3.82348	672994	33.0031	673027
6.31058	13.4387	0.752869	13.4598	-3.2065	24.7073	3.8233	0.00478675	33498.9	104.808	1	11	0.00460928	0.000342448	0	-6.44041e-05	-0.000168381	1.20426e-05	46.1557	0.0351662	0.0243597	-0.0253628	-3.0931	13.4827	13.4631	0.727507	0.0741791	0.0041557	0.0742955	3.2065	104808	1.87082e+06	1.87376e+06	-86.7935	0.0000000E+000	0.0000000E+000	0.0000000E+000	86.7935	0.0000000E+000	0.0000000E+000	0.0000000E+000	-86.7935	0.0000000E+000	0.0000000E+000	0.0000000E+000	-3.2065	0.0000000E+000	0.0000000E+000	0.0000000E+000	3.2065	17.85	86.7935	3.27631e-06	1.83012e-05	-8.05999e-10	1.8302e-05	3.82347	798726	35.1765	798761
3.97785	13.7467	0.601802	13.7598	-2.50669	25.7144	3.82331	0.0053542	66484.1	127.174	1	11	0.00462029	0.000335781	0	-6.83468e-05	-7.28316e-05	5.34552e-06	6.88833	0.0159197	0.0158048	-0.00190932	-2.49589	13.7755	13.7625	0.599892	0.0726058	0.00317854	0.0726753	2.50669	127174	2.90498e+06	2.90776e+06	-87.4933	0.0000000E+000	0.0000000E+000	0.0000000E+000	87.4933	0.0000000E+000	0.0000000E+000	0.0000000E+000	-87.4933	0.0000000E+000	0.0000000E+000	0.0000000E+000	-2.50669	0.0000000E+000	0.0000000E+000	0.0000000E+000	2.50669	22.8425	87.4933	-1.77032e-06	2.04708e-05	-3.89955e-10	2.04712e-05	3.82338	714077	13.6027	714090
2.51367	13.8356	0.927496	13.8667	-3.83519	27.274	3.82331	-0.000406615	68265.1	305.407	1	11	0.00461728	0.000332977	0	-6.08805e-05	-0.000378591	3.7633e-06	25.7292	0.011302	0.0101815	-0.0049064	-3.81217	13.8765	13.8458	0.92259	0.0719539	0.00482356	0.0721154	3.83519	305407	4.55581e+06	4.56603e+06	-86.1648	0.0000000E+000	0.0000000E+000	0.0000000E+000	86.1648	0.0000000E+000	0.0000000E+000	0.0000000E+000	-86.1648	0.0000000E+000	0.0000000E+000	0.0000000E+000	-3.83519	0.0000000E+000	0.0000000E+000	0.0000000E+000	3.83519	14.9172	86.1648	5.88123e-06	-1.55462e-06	1.53941e-10	-1.55477e-06	3.82369	9.40278e+06	931.079	9.40371e+06
1.58469	13.8744	0.320463	13.8781	-1.32315	29.7095	3.82332	-0.00652856	313400	167.107	1	11	0.0046124	0.00033235	0	-6.48036e-05	0.000232928	6.17994e-06	-13.7518	0.0185947	0.0180616	0.00442026	-1.33965	13.8963	13.8925	0.324884	0.0720366	0.00166386	0.0720559	1.32315	167107	7.23487e+06	7.2368e+06	-88.6768	0.0000000E+000	0.0000000E+000	0.0000000E+000	88.6768	0.0000000E+000	0.0000000E+000	0.0000000E+000	-88.6768	0.0000000E+000	0.0000000E+000	0.0000000E+000	-1.32315	0.0000000E+000	0.0000000E+000	0.0000000E+000	1.32315	43.2949	88.6768	-5.8305e-06	-2.49607e-05	-1.52068e-09	-2.49592e-05	3.82308	585630	35.6783	585594
1.00469	14.0544	0.73901	14.0738	-3.00997	240.529	3.82327	-0.00363512	214356	591.039	1	11	0.00506109	0.000359611	0	-0.0014513	-5.37216e-05	4.92375e-07	-5.80929	0.00136919	0.00136216	0.000138586	-3.01024	14.0751	14.0557	0.739149	0.0709561	0.00373104	0.0710542	3.00997	591039	1.12403e+07	1.12558e+07	-86.99	0.0000000E+000	0.0000000E+000	0.0000000E+000	86.99	0.0000000E+000	0.0000000E+000	0.0000000E+000	-86.99	0.0000000E+000	0.0000000E+000	0.0000000E+000	-3.00997	0.0000000E+000	0.0000000E+000	0.0000000E+000	3.00997	19.0178	86.99	-0.00137963	-1.3898e-05	1.95284e-10	-1.38982e-05	3.82333	1.05176e+06	14.7785	1.05178e+06
0.632957	14.2519	0.88838	14.2795	-3.56688	240.53	3.82327	-0.00363512	283040	1095.51	1	11	0.00507424	0.000355351	0	-0.0014513	-5.37216e-05	7.50024e-07	-16.3338	0.00211066	0.00202547	0.000593587	-3.56875	14.2816	14.2539	0.888973	0.0698947	0.00435684	0.0700304	3.56688	1.09551e+06	1.75748e+07	1.76089e+07	-86.4331	0.0000000E+000	0.0000000E+000	0.0000000E+000	86.4331	0.0000000E+000	0.0000000E+000	0.0000000E+000	-86.4331	0.0000000E+000	0.0000000E+000	0.0000000E+000	-3.56688	0.0000000E+000	0.0000000E+000	0.0000000E+000	3.56688	16.0425	86.4331	0.000000000000000E+000	-1.3898e-05	1.95284e-10	-1.38982e-05	3.82333	1.05176e+06	14.7785	1.05178e+06
0.401878	14.4057	1.14756	14.4513	-4.5546	240.53	3.82327	-0.00363512	345104	2176.15	1	11	0.00508743	0.00035204	0	-0.0014513	-5.37216e-05	6.86172e-07	0.130317	0.00194913	0.00194912	-4.4332e-06	-4.55396	14.4532	14.4076	1.14756	0.0689794	0.00549494	0.069198	4.5546	2.17615e+06	2.73178e+07	2.74044e+07	-85.4454	0.0000000E+000	0.0000000E+000	0.0000000E+000	85.4454	0.0000000E+000	0.0000000E+000	0.0000000E+000	-85.4454	0.0000000E+000	0.0000000E+000	0.0000000E+000	-4.5546	0.0000000E+000	0.0000000E+000	0.0000000E+000	4.5546	12.5533	85.4454	0.000000000000000E+000	-1.3898e-05	1.95284e-10	-1.38982e-05	3.82333	1.05176e+06	14.7785	1.05178e+06
0.251173	14.7376	1.38568	14.8026	-5.37136	240.531	3.82327	-0.00363512	457281	4007.14	1	11	0.00508717	0.000343667	0	-0.0014513	-5.37216e-05	5.00606e-07	10.1986	0.00145666	0.00143364	-0.000257917	-5.36985	14.804	14.739	1.38542	0.0672591	0.00632394	0.0675557	5.37136	4.00713e+06	4.26184e+07	4.28064e+07	-84.6286	0.0000000E+000	0.0000000E+000	0.0000000E+000	84.6286	0.0000000E+000	0.0000000E+000	0.0000000E+000	-84.6286	0.0000000E+000	0.0000000E+000	0.0000000E+000	-5.37136	0.0000000E+000	0.0000000E+000	0.0000000E+000	5.37136	10.6356	84.6286	0.000000000000000E+000	-1.3898e-05	1.95284e-10	-1.38982e-05	3.82333	1.05176e+06	14.7785	1.05178e+06
0.160751	15.1051	1.60684	15.1903	-6.07214	240.531	3.82327	-0.00363512	616161	6894.55	1	11	0.00508424	0.000334703	0	-0.0014513	-5.37216e-05	3.77788e-07	-16.9904	0.00112872	0.00107946	0.000329827	-6.07295	15.1914	15.1062	1.60717	0.0654622	0.00696369	0.0658315	6.07214	6.89456e+06	6.48122e+07	6.51779e+07	-83.9279	0.0000000E+000	0.0000000E+000	0.0000000E+000	83.9279	0.0000000E+000	0.0000000E+000	0.0000000E+000	-83.9279	0.0000000E+000	0.0000000E+000	0.0000000E+000	-6.07214	0.0000000E+000	0.0000000E+000	0.0000000E+000	6.07214	9.40049	83.9279	0.000000000000000E+000	-1.3898e-05	1.95284e-10	-1.38982e-05	3.82333	1.05176e+06	14.7785	1.05178e+06
0.100469	15.5029	2.17125	15.6542	-7.97265	240.532	3.82327	-0.00363512	729586	14035.6	1	11	0.00508493	0.000324828	0	-0.0014513	-5.37216e-05	3.10085e-07	-114.961	0.000954613	-0.000402843	0.000865449	-7.97599	15.654	15.5025	2.17211	0.063263	0.00886024	0.0638804	7.97265	1.40356e+07	1.00216e+08	1.01194e+08	-82.0274	0.0000000E+000	0.0000000E+000	0.0000000E+000	82.0274	0.0000000E+000	0.0000000E+000	0.0000000E+000	-82.0274	0.0000000E+000	0.0000000E+000	0.0000000E+000	-7.97265	0.0000000E+000	0.0000000E+000	0.0000000E+000	7.97265	7.1401	82.0274	0.000000000000000E+000	-1.3898e-05	1.95284e-10	-1.38982e-05	3.82333	1.05176e+06	14.7785	1.05178e+06
0.0602816	16.2575	2.5785	16.4607	-9.01225	240.533	3.82327	-0.00363512	1.02392e+06	25124.9	1	11	0.00508036	0.000308635	0	-0.0014513	-5.37216e-05	5.11539e-07	-24.2101	0.00165742	0.00151165	0.000679684	-9.01376	16.4623	16.259	2.57918	0.0600006	0.00951631	0.0607506	9.01225	2.51249e+07	1.58413e+08	1.60393e+08	-80.9878	0.0000000E+000	0.0000000E+000	0.0000000E+000	80.9878	0.0000000E+000	0.0000000E+000	0.0000000E+000	-80.9878	0.0000000E+000	0.0000000E+000	0.0000000E+000	-9.01225	0.0000000E+000	0.0000000E+000	0.0000000E+000	9.01225	6.30503	80.9878	0.000000000000000E+000	-1.3898e-05	1.95284e-10	-1.38982e-05	3.82333	1.05176e+06	14.7785	1.05178e+06
0.0401878	17.0848	2.97529	17.3419	-9.87892	240.533	3.82327	-0.00363512	1.33106e+06	39179.9	1	11	0.00508076	0.000292976	0	-0.0014513	-5.37216e-05	6.36574e-07	48.5019	0.00217278	0.00143968	-0.00162737	-9.87281	17.343	17.0862	2.97366	0.0568088	0.00989319	0.0576638	9.87892	3.91799e+07	2.24979e+08	2.28365e+08	-80.1211	0.0000000E+000	0.0000000E+000	0.0000000E+000	80.1211	0.0000000E+000	0.0000000E+000	0.0000000E+000	-80.1211	0.0000000E+000	0.0000000E+000	0.0000000E+000	-9.87892	0.0000000E+000	0.0000000E+000	0.0000000E+000	9.87892	5.74221	80.1211	0.000000000000000E+000	-1.3898e-05	1.95284e-10	-1.38982e-05	3.82333	1.05176e+06	14.7785	1.05178e+06
0.0200939	18.776	3.89259	19.1753	-11.7125	240.534	3.82327	-0.00363512	2.03478e+06	83851.9	1	11	0.00508158	0.000265007	0	-0.0014513	-5.37216e-05	1.21472e-06	-35.2861	0.00458371	0.00374158	0.00264783	-11.718	19.1795	18.7797	3.89524	0.0510647	0.0105866	0.0521505	11.7125	8.38519e+07	4.04461e+08	4.13062e+08	-78.2875	0.0000000E+000	0.0000000E+000	0.0000000E+000	78.2875	0.0000000E+000	0.0000000E+000	0.0000000E+000	-78.2875	0.0000000E+000	0.0000000E+000	0.0000000E+000	-11.7125	0.0000000E+000	0.0000000E+000	0.0000000E+000	11.7125	4.82352	78.2875	0.000000000000000E+000	-1.3898e-05	1.95284e-10	-1.38982e-05	3.82333	1.05176e+06	14.7785	1.05178e+06
0.00796479	21.4786	4.3683	21.9183	-11.496	20329.4	3.82327	-0.00153611	4.57439e+06	181696	1	11	0.005072	0.000231405	0	-0.0273626	-0.000187491	6.65089e-07	7.81247	0.00287413	0.00284746	-0.000390684	-11.4935	21.921	21.4814	4.36791	0.0447087	0.00909284	0.045624	11.496	1.81696e+08	8.93384e+08	9.11674e+08	-78.504	0.0000000E+000	0.0000000E+000	0.0000000E+000	78.504	0.0000000E+000	0.0000000E+000	0.0000000E+000	-78.504	0.0000000E+000	0.0000000E+000	0.0000000E+000	-11.496	0.0000000E+000	0.0000000E+000	0.0000000E+000	11.496	4.91692	78.504	-0.0259113	-5.87298e-06	2.88008e-10	-5.87327e-06	3.82346	2.48893e+06	122.056	2.48905e+06
0.00497799	22.8121	4.4868	23.2492	-11.1272	20329.4	3.82327	-0.00153611	7.12573e+06	265392	1	11	0.00508005	0.000218505	0	-0.0273626	-0.000187491	7.56052e-07	20.3569	0.00346012	0.00324401	-0.00120366	-11.1227	23.2521	22.8154	4.48559	0.0422037	0.00830083	0.0430123	11.1272	2.65392e+08	1.34933e+09	1.37518e+09	-78.8728	0.0000000E+000	0.0000000E+000	0.0000000E+000	78.8728	0.0000000E+000	0.0000000E+000	0.0000000E+000	-78.8728	0.0000000E+000	0.0000000E+000	0.0000000E+000	-11.1272	0.0000000E+000	0.0000000E+000	0.0000000E+000	11.1272	5.08428	78.8728	0.000000000000000E+000	-5.87298e-06	2.88008e-10	-5.87327e-06	3.82346	2.48893e+06	122.056	2.48905e+06
0.00318591	23.7213	5.85858	24.434	-13.873	20329.4	3.82327	-0.00153611	8.52695e+06	490217	1	11	0.00508209	0.000207992	0	-0.0273626	-0.000187491	9.87285e-07	-4.84143	0.00474674	0.0047298	0.000400617	-13.8713	24.4387	23.726	5.85898	0.0397327	0.00981302	0.0409265	13.873	4.90217e+08	1.98488e+09	2.04452e+09	-76.127	0.0000000E+000	0.0000000E+000	0.0000000E+000	76.127	0.0000000E+000	0.0000000E+000	0.0000000E+000	-76.127	0.0000000E+000	0.0000000E+000	0.0000000E+000	-13.873	0.0000000E+000	0.0000000E+000	0.0000000E+000	13.873	4.04898	76.127	0.000000000000000E+000	-5.87298e-06	2.88008e-10	-5.87327e-06	3.82346	2.48893e+06	122.056	2.48905e+06
0.0019912	24.6773	6.93448	25.6331	-15.6957	20329.4	3.82327	-0.00153611	1.15264e+07	843566	1	11	0.00508695	0.000198453	0	-0.0273626	-0.000187491	7.32697e-07	4.96163	0.00369205	0.00367821	-0.00031932	-15.6928	25.6365	24.6809	6.93416	0.0375574	0.0105539	0.0390121	15.6957	8.43566e+08	3.00194e+09	3.11821e+09	-74.3043	0.0000000E+000	0.0000000E+000	0.0000000E+000	74.3043	0.0000000E+000	0.0000000E+000	0.0000000E+000	-74.3043	0.0000000E+000	0.0000000E+000	0.0000000E+000	-15.6957	0.0000000E+000	0.0000000E+000	0.0000000E+000	15.6957	3.55863	74.3043	0.000000000000000E+000	-5.87298e-06	2.88008e-10	-5.87327e-06	3.82346	2.48893e+06	122.056	2.48905e+06
0.00129428	24.3843	8.83993	25.9372	-19.9269	20329.4	3.82327	-0.00153611	1.39105e+07	1.61583e+06	1	11	0.00508676	0.000196119	0	-0.0273626	-0.000187491	7.11459e-07	6.8935	0.00362769	0.00360147	-0.000435411	-19.9233	25.9404	24.3879	8.83949	0.0362464	0.0131403	0.0385547	19.9269	1.61583e+09	4.45715e+09	4.741e+09	-70.0731	0.0000000E+000	0.0000000E+000	0.0000000E+000	70.0731	0.0000000E+000	0.0000000E+000	0.0000000E+000	-70.0731	0.0000000E+000	0.0000000E+000	0.0000000E+000	-19.9269	0.0000000E+000	0.0000000E+000	0.0000000E+000	19.9269	2.75842	70.0731	0.000000000000000E+000	-5.87298e-06	2.88008e-10	-5.87327e-06	3.82346	2.48893e+06	122.056	2.48905e+06
0.000796479	26.3895	12.6029	29.2445	-25.5279	20329.4	3.82327	-0.00153611	1.58553e+07	2.94462e+06	1	11	0.00508529	0.000173889	0	-0.0273626	-0.000187491	6.83885e-07	-44.0126	0.00393288	0.00282848	0.00273264	-25.5303	29.2482	26.3923	12.6056	0.0308563	0.0147361	0.0341945	25.5279	2.94462e+09	6.1658e+09	6.83286e+09	-64.4721	0.0000000E+000	0.0000000E+000	0.0000000E+000	64.4721	0.0000000E+000	0.0000000E+000	0.0000000E+000	-64.4721	0.0000000E+000	0.0000000E+000	0.0000000E+000	-25.5279	0.0000000E+000	0.0000000E+000	0.0000000E+000	25.5279	2.09392	64.4721	0.000000000000000E+000	-5.87298e-06	2.88008e-10	-5.87327e-06	3.82346	2.48893e+06	122.056	2.48905e+06
0.000497799	26.1184	17.8817	31.6532	-34.3972	20329.4	3.82327	-0.00153611	1.78795e+07	5.7061e+06	1	11	0.00508632	0.000160689	0	-0.0273626	-0.000187491	1.18813e-06	-27.2647	0.00739399	0.00657251	0.0033872	-34.3955	31.6606	26.125	17.8851	0.0260682	0.0178473	0.0315923	34.3972	5.7061e+09	8.33444e+09	1.01006e+10	-55.6028	0.0000000E+000	0.0000000E+000	0.0000000E+000	55.6028	0.0000000E+000	0.0000000E+000	0.0000000E+000	-55.6028	0.0000000E+000	0.0000000E+000	0.0000000E+000	-34.3972	0.0000000E+000	0.0000000E+000	0.0000000E+000	34.3972	1.46062	55.6028	0.000000000000000E+000	-5.87298e-06	2.88008e-10	-5.87327e-06	3.82346	2.48893e+06	122.056	2.48905e+06
0.000298679	25.8736	27.3065	37.6177	-46.5433	20329.5	3.82327	-0.00153611	1.95141e+07	1.02825e+07	1	11	0.00508811	0.000135259	0	-0.0273626	-0.000187491	1.6856e-06	-27.726	0.012462	0.0110312	0.00579788	-46.5372	37.6295	25.8847	27.3123	0.0182841	0.0192967	0.0265833	46.5433	1.02825e+10	9.74291e+09	1.41652e+10	-43.4567	0.0000000E+000	0.0000000E+000	0.0000000E+000	43.4567	0.0000000E+000	0.0000000E+000	0.0000000E+000	-43.4567	0.0000000E+000	0.0000000E+000	0.0000000E+000	-46.5433	0.0000000E+000	0.0000000E+000	0.0000000E+000	46.5433	0.947528	43.4567	0.000000000000000E+000	-5.87298e-06	2.88008e-10	-5.87327e-06	3.82346	2.48893e+06	122.056	2.48905e+06
9.95598e-05	33.8179	93.1759	99.1232	-70.0518	20329.5	3.82327	-0.00153611	1.71566e+07	1.51597e+07	1	11	0.00508929	5.13431e-05	0	-0.0273626	-0.000187491	5.60442e-06	7.4728	0.109156	0.108229	-0.0141964	-69.9902	99.1468	33.9262	93.1617	0.00344189	0.00948316	0.0100885	70.0518	1.51596e+10	5.50215e+09	1.61273e+10	-19.9482	0.0000000E+000	0.0000000E+000	0.0000000E+000	19.9482	0.0000000E+000	0.0000000E+000	0.0000000E+000	-19.9482	0.0000000E+000	0.0000000E+000	0.0000000E+000	-70.0518	0.0000000E+000	0.0000000E+000	0.0000000E+000	70.0518	0.362947	19.9482	0.000000000000000E+000	-5.87298e-06	2.88008e-10	-5.87327e-06	3.82346	2.48893e+06	122.056	2.48905e+06