File: txt/18443_R297_UC61_11mm_SOC50_C03.mpt
EC-Lab ASCII FILE
Nb header lines : 65

Potentio Electrochemical Impedance Spectroscopy

Run on channel : 3 (SN 65921)
User :
CE vs. WE compliance from -10 V to 10 V
Electrode connection : standard
Potential control : Ewe
Ewe ctrl range : min = -10.00 V, max = 10.00 V
Safety Limits :
	Do not start on E overload
Acquisition started on : 10/16/2025 15:32:17.177
Technique started on : 10/16/2025 15:32:19.412
Loaded Setting File :  C:\Users\Celltest\OneDrive - store-dot.com\Documents\EC-Lab\Data\txt_done\UC80_17231_EIS_50SOC.mps
Saved on :
	File : 18443_R297_UC61_11mm_SOC50_C03.mpr
	Directory : C:\Users\Celltest\OneDrive - store-dot.com\Documents\EC-Lab\Data\Michael\
	Host : 169.254.61.224
Device : VMP-3e (SN .003165)
Address : USB
EC-LAB for windows v11.62 (software)
Internet server v27.00 (firmware)
Command interpretor v12.03 (firmware)
Electrode material :
Initial state :
Electrolyte :
Comments :
Electrode surface area : 0.001 cm²
Characteristic mass : 0.001 g
Equivalent Weight : 0.000 g/eq.
Density : 0.000 g/cm3
Volume (V) : 0.001 cm³
Record Ece
Cycle Definition : Charge/Discharge alternance
Mode                Multi sine
E (V)               0.0000
vs.                 Eoc
tE (h:m:s)          0:00:0.0000
record              0
dI                  0.000
unit dI             mA
dt (s)              0.000
fi                  1.000
unit fi             MHz
ff                  0.100
unit ff             mHz
Nd                  10
Points              per decade
spacing             Logarithmic
Va (mV)             5.0
pw                  0.10
Na                  2
corr                0
E range min (V)     -10.000
E range max (V)     10.000
I Range             Auto
Bandwidth           5
nc cycles           0
goto Ns'            0
nr cycles           0
inc. cycle          0

freq/Hz	Re(Z)/Ohm	-Im(Z)/Ohm	|Z|/Ohm	Phase(Z)/deg	time/s	<Ewe>/V	<I>/mA	Cs/µF	Cp/µF	cycle number	I Range	|Ewe|/V	|I|/A	Ns	(Q-Qo)/mA.h	<Ece>/V	|Ece|/V	Phase(Zce)/deg	|Zce|/Ohm	Re(Zce)/Ohm	-Im(Zce)/Ohm	Phase(Zwe-ce)/deg	|Zwe-ce|/Ohm	Re(Zwe-ce)/Ohm	-Im(Zwe-ce)/Ohm	Re(Y)/Ohm-1	Im(Y)/Ohm-1	|Y|/Ohm-1	Phase(Y)/deg	Re(C)/nF	Im(C)/nF	|C|/nF	Phase(C)/deg	Re(M)	Im(M)	|M|	Phase(M)/deg	Re(Permittivity)	Im(Permittivity)	|Permittivity|	Phase(Permittivity)/deg	Re(Resistivity)/Ohm.cm	Im(Resistivity)/Ohm.cm	|Resistivity|/Ohm.cm	Phase(Resistivity)/deg	Re(Conductivity)/mS/cm	Im(Conductivity)/mS/cm	|Conductivity|/mS/cm	Phase(Conductivity)/deg	Tan(Delta)	Loss Angle(Delta)/deg	dq/mA.h	Pwe/W	Pce/W	Pwe-ce/W	<Ewe-Ece>/V	Rwe/Ohm	Rce/Ohm	Rwe-ce/Ohm		Ewe-Ece/V
1.00002e+06	1.73135	2.74267	3.24343	-57.7373	2.23451	3.82396	-0.0182498	0.0580281	0.0414933	1	10	0.000226996	6.99863e-05	0	-1.81458e-05	9.13315e-05	0.000196388	-64.1659	2.8061	1.2228	2.52565	-60.719	6.04006	2.95415	5.26833	0.16458	0.260715	0.308316	57.7373	41.4933	26.1932	49.0691	-32.2627	0.0000000E+000	0.0000000E+000	0.0000000E+000	32.2627	0.0000000E+000	0.0000000E+000	0.0000000E+000	-32.2627	0.0000000E+000	0.0000000E+000	0.0000000E+000	-57.7373	0.0000000E+000	0.0000000E+000	0.0000000E+000	57.7373	0.631263	32.2627	-1.81458e-05	-6.97866e-05	-1.66678e-09	-6.97849e-05	3.82387	209535	5.00452	209530
630957	0.541848	0.216809	0.583614	-21.8078	3.40552	3.82355	-0.0401343	1.16344	0.160563	1	9	0.000199897	0.000342516	0	-2.81786e-05	7.22374e-05	0.000113766	-103.335	0.332148	-0.0766063	0.323193	-49.2533	0.712777	0.465241	0.540001	1.59084	0.63654	1.71346	21.8078	160.563	401.279	432.21	-68.1922	0.0000000E+000	0.0000000E+000	0.0000000E+000	68.1922	0.0000000E+000	0.0000000E+000	0.0000000E+000	-68.1922	0.0000000E+000	0.0000000E+000	0.0000000E+000	-21.8078	0.0000000E+000	0.0000000E+000	0.0000000E+000	21.8078	2.4992	68.1922	-3.32357e-06	-0.000153455	-2.8992e-09	-0.000153453	3.82347	95268.6	1.79989	95266.8
398103	0.731117	0.125225	0.741764	-9.71923	4.17153	3.82364	-0.0268205	3.19252	0.0909877	1	9	0.000728233	0.000981759	0	-3.35772e-05	1.49552e-05	5.53665e-05	171.429	0.0563953	-0.0557655	-0.00840441	-9.81374	0.685381	0.675352	0.11682	1.32879	0.227593	1.34814	9.71923	90.9877	531.226	538.962	-80.2808	0.0000000E+000	0.0000000E+000	0.0000000E+000	80.2808	0.0000000E+000	0.0000000E+000	0.0000000E+000	-80.2808	0.0000000E+000	0.0000000E+000	0.0000000E+000	-9.71923	0.0000000E+000	0.0000000E+000	0.0000000E+000	9.71923	5.83844	80.2808	-1.07608e-06	-0.000102552	-4.01108e-10	-0.000102552	3.82362	142564	0.557605	142563
251206	0.853529	0.260617	0.89243	-16.9795	4.93755	3.82354	-0.0333468	2.43101	0.207321	1	9	0.00232516	0.00260542	0	-3.86349e-05	-2.32329e-05	5.1884e-05	100.51	0.0199139	-0.00363259	-0.0195798	-15.8337	0.883415	0.849896	0.241037	1.07169	0.32723	1.12054	16.9795	207.321	678.983	709.93	-73.0205	0.0000000E+000	0.0000000E+000	0.0000000E+000	73.0205	0.0000000E+000	0.0000000E+000	0.0000000E+000	-73.0205	0.0000000E+000	0.0000000E+000	0.0000000E+000	-16.9795	0.0000000E+000	0.0000000E+000	0.0000000E+000	16.9795	3.27503	73.0205	-3.7918e-06	-0.000127503	7.74743e-10	-0.000127504	3.82356	114660	0.696704	114660
158486	0.952554	0.374923	1.02368	-21.4845	5.70352	3.82349	-0.0295056	2.67847	0.359286	1	9	0.00515783	0.00503851	0	-3.98561e-05	0.000167708	4.49889e-05	91.6986	0.00892901	-0.00026468	-0.00892509	-21.0235	1.0202	0.952289	0.365998	0.90899	0.357776	0.976866	21.4845	359.286	912.826	980.988	-68.5155	0.0000000E+000	0.0000000E+000	0.0000000E+000	68.5155	0.0000000E+000	0.0000000E+000	0.0000000E+000	-68.5155	0.0000000E+000	0.0000000E+000	0.0000000E+000	-21.4845	0.0000000E+000	0.0000000E+000	0.0000000E+000	21.4845	2.54067	68.5155	1.03525e-05	-0.000112814	-4.94831e-09	-0.000112809	3.82332	129586	5.68394	129580
100004	1.06851	0.483754	1.17291	-24.3581	6.46956	3.82347	-0.0157442	3.28988	0.559626	1	9	0.00534827	0.00455982	0	-1.74396e-05	-9.96091e-05	3.30952e-05	98.514	0.00725802	-0.00107456	-0.00717803	-24.0593	1.16899	1.06743	0.476576	0.776687	0.351636	0.852579	24.3581	559.626	1236.09	1356.87	-65.6419	0.0000000E+000	0.0000000E+000	0.0000000E+000	65.6419	0.0000000E+000	0.0000000E+000	0.0000000E+000	-65.6419	0.0000000E+000	0.0000000E+000	0.0000000E+000	-24.3581	0.0000000E+000	0.0000000E+000	0.0000000E+000	24.3581	2.20878	65.6419	8.91097e-06	-6.01977e-05	1.56827e-09	-6.01993e-05	3.82357	242849	6.3267	242855
63093.8	1.20844	0.605575	1.35169	-26.6164	7.23552	3.82347	-0.00548854	4.16548	0.836084	1	9	0.00537423	0.00397595	0	-4.41082e-05	-0.000328738	2.84641e-05	61.5755	0.00715908	0.00340772	-0.00629602	-26.3131	1.35193	1.21185	0.599279	0.661416	0.331449	0.739817	26.6164	836.084	1668.43	1866.2	-63.3836	0.0000000E+000	0.0000000E+000	0.0000000E+000	63.3836	0.0000000E+000	0.0000000E+000	0.0000000E+000	-63.3836	0.0000000E+000	0.0000000E+000	0.0000000E+000	-26.6164	0.0000000E+000	0.0000000E+000	0.0000000E+000	26.6164	1.99553	63.3836	-1.09266e-05	-2.09853e-05	1.80429e-09	-2.09871e-05	3.8238	696627	59.8953	696686
39814.1	1.37232	0.74449	1.56126	-28.48	8.00152	3.82347	-0.0092552	5.36939	1.22093	1	9	0.00548073	0.00351045	0	-4.5638e-05	-0.000195079	1.21995e-05	84.5425	0.0034752	0.000330519	-0.00345945	-28.3625	1.5599	1.37265	0.741031	0.562996	0.305428	0.640508	28.48	1220.93	2250.55	2560.4	-61.52	0.0000000E+000	0.0000000E+000	0.0000000E+000	61.52	0.0000000E+000	0.0000000E+000	0.0000000E+000	-61.52	0.0000000E+000	0.0000000E+000	0.0000000E+000	-28.48	0.0000000E+000	0.0000000E+000	0.0000000E+000	28.48	1.8433	61.52	6.78397e-06	-3.53869e-05	1.8055e-09	-3.53887e-05	3.82366	413116	21.0778	413137
25116.9	1.58344	0.931732	1.83723	-30.4736	8.89156	3.82346	-0.0142525	6.80084	1.74912	1	9	0.00520901	0.00283526	0	-4.38199e-05	-4.13882e-06	9.99107e-06	13.7164	0.00352387	0.00342337	-0.000835567	-30.3971	1.83976	1.58686	0.930897	0.469111	0.276036	0.544299	30.4736	1749.12	2972.55	3448.98	-59.5264	0.0000000E+000	0.0000000E+000	0.0000000E+000	59.5264	0.0000000E+000	0.0000000E+000	0.0000000E+000	-59.5264	0.0000000E+000	0.0000000E+000	0.0000000E+000	-30.4736	0.0000000E+000	0.0000000E+000	0.0000000E+000	30.4736	1.69946	59.5264	3.64025e-07	-5.44941e-05	5.89886e-11	-5.44941e-05	3.82347	268266	0.290392	268266
15847.7	1.84273	1.14046	2.16709	-31.7532	9.53552	3.82345	-0.0101503	8.80595	2.43881	1	9	0.00499343	0.00230421	0	-4.37553e-05	-4.23269e-05	7.54362e-06	-140.56	0.00327385	-0.00252836	0.00207977	-31.8351	2.16604	1.8402	1.14254	0.39238	0.242842	0.461448	31.7532	2438.81	3940.59	4634.23	-58.2468	0.0000000E+000	0.0000000E+000	0.0000000E+000	58.2468	0.0000000E+000	0.0000000E+000	0.0000000E+000	-58.2468	0.0000000E+000	0.0000000E+000	0.0000000E+000	-31.7532	0.0000000E+000	0.0000000E+000	0.0000000E+000	31.7532	1.61578	58.2468	-9.03674e-07	-3.8809e-05	4.2963e-10	-3.88094e-05	3.82349	376684	4.17003	376689
10002.2	2.17593	1.39137	2.58275	-32.5964	10.1775	3.82345	-0.0103367	11.4362	3.31896	1	9	0.00458583	0.00177556	0	-4.459e-05	0.000110426	7.53577e-06	-86.2265	0.00424416	0.000279317	0.00423496	-32.6721	2.58527	2.17621	1.39561	0.326198	0.208583	0.387184	32.5964	3318.96	5190.44	6160.86	-57.4036	0.0000000E+000	0.0000000E+000	0.0000000E+000	57.4036	0.0000000E+000	0.0000000E+000	0.0000000E+000	-57.4036	0.0000000E+000	0.0000000E+000	0.0000000E+000	-32.5964	0.0000000E+000	0.0000000E+000	0.0000000E+000	32.5964	1.56387	57.4036	7.94628e-07	-3.9522e-05	-1.14144e-09	-3.95209e-05	3.82334	369889	10.6828	369878
6309.38	2.54937	1.67454	3.05014	-33.2987	10.8235	3.82346	-0.0119031	15.0639	4.54035	1	9	0.00478041	0.00156727	0	-4.60701e-05	-4.23269e-05	9.89722e-06	-119.275	0.00631492	-0.00308797	0.00550842	-33.417	3.05059	2.54628	1.68005	0.274027	0.179993	0.327854	33.2987	4540.35	6912.36	8270.16	-56.7013	0.0000000E+000	0.0000000E+000	0.0000000E+000	56.7013	0.0000000E+000	0.0000000E+000	0.0000000E+000	-56.7013	0.0000000E+000	0.0000000E+000	0.0000000E+000	-33.2987	0.0000000E+000	0.0000000E+000	0.0000000E+000	33.2987	1.52243	56.7013	4.26423e-07	-4.55109e-05	5.03821e-10	-4.55114e-05	3.8235	321215	3.55596	321219
3983.6	3.06478	2.03273	3.67761	-33.5546	11.3861	3.82327	-0.0862292	19.6546	6.00471	1	9	0.00465521	0.00126582	0	-5.40668e-05	-0.000156891	4.87812e-06	-24.5654	0.00385371	0.0035049	0.00160211	-33.5452	3.68142	3.06828	2.03433	0.226603	0.150296	0.271915	33.5546	6004.71	9053.38	10863.7	-56.4454	0.0000000E+000	0.0000000E+000	0.0000000E+000	56.4454	0.0000000E+000	0.0000000E+000	0.0000000E+000	-56.4454	0.0000000E+000	0.0000000E+000	0.0000000E+000	-33.5546	0.0000000E+000	0.0000000E+000	0.0000000E+000	33.5546	1.50771	56.4454	-7.11801e-06	-0.000329678	1.35286e-08	-0.000329691	3.82343	44338.5	1.81947	44340.3
2510.8	3.62787	2.4857	4.39775	-34.4177	12.4198	3.82337	-0.0423421	25.5011	8.14697	1	10	0.00478606	0.0010883	0	-6.84087e-05	0.000110426	1.03316e-05	-41.1165	0.00949334	0.00715203	0.00624274	-34.4321	4.40717	3.63502	2.49194	0.187582	0.128525	0.227389	34.4177	8146.97	11890.5	14413.8	-55.5823	0.0000000E+000	0.0000000E+000	0.0000000E+000	55.5823	0.0000000E+000	0.0000000E+000	0.0000000E+000	-55.5823	0.0000000E+000	0.0000000E+000	0.0000000E+000	-34.4177	0.0000000E+000	0.0000000E+000	0.0000000E+000	34.4177	1.4595	55.5823	-5.89803e-06	-0.000161889	-4.67565e-09	-0.000161885	3.82326	90297.1	2.60794	90294.5
1585.51	4.36703	2.98473	5.28957	-34.3514	13.3218	3.82337	-0.0410668	33.6315	10.7082	1	10	0.00464403	0.000877959	0	-7.8261e-05	-0.000233268	8.72585e-06	-44.0844	0.00993879	0.00713919	0.00691459	-34.3696	5.29937	4.37417	2.99165	0.156079	0.106675	0.189051	34.3514	10708.2	15667.4	18977.2	-55.6486	0.0000000E+000	0.0000000E+000	0.0000000E+000	55.6486	0.0000000E+000	0.0000000E+000	0.0000000E+000	-55.6486	0.0000000E+000	0.0000000E+000	0.0000000E+000	-34.3514	0.0000000E+000	0.0000000E+000	0.0000000E+000	34.3514	1.46312	55.6486	-4.64189e-06	-0.000157013	9.57955e-09	-0.000157023	3.8236	93101.1	5.6802	93106.8
1000.32	5.29658	3.55213	6.37742	-33.8476	14.2238	3.82338	-0.0409027	44.7911	13.8957	1	10	0.00456675	0.000716081	0	-8.8007e-05	-8.05151e-05	5.69173e-06	-108.208	0.00794845	-0.00248363	0.00755046	-33.9164	6.37956	5.2941	3.55968	0.130229	0.0873373	0.156803	33.8476	13895.7	20719.9	24948	-56.1524	0.0000000E+000	0.0000000E+000	0.0000000E+000	56.1524	0.0000000E+000	0.0000000E+000	0.0000000E+000	-56.1524	0.0000000E+000	0.0000000E+000	0.0000000E+000	-33.8476	0.0000000E+000	0.0000000E+000	0.0000000E+000	33.8476	1.4911	56.1524	-4.30769e-06	-0.000156387	3.29329e-09	-0.00015639	3.82346	93474.9	1.96845	93476.8
631.01	6.50245	4.1352	7.70596	-32.4541	15.1246	3.82337	-0.0413204	60.994	17.5642	1	10	0.00452626	0.000587372	0	-9.81551e-05	-4.23269e-05	8.02082e-06	-2.75449	0.0136554	0.0136396	0.000656231	-32.4039	7.71782	6.51609	4.13586	0.109502	0.0696376	0.12977	32.4541	17564.2	27619	32730.9	-57.5459	0.0000000E+000	0.0000000E+000	0.0000000E+000	57.5459	0.0000000E+000	0.0000000E+000	0.0000000E+000	-57.5459	0.0000000E+000	0.0000000E+000	0.0000000E+000	-32.4541	0.0000000E+000	0.0000000E+000	0.0000000E+000	32.4541	1.57246	57.5459	-5.3461e-06	-0.000157983	1.74897e-09	-0.000157985	3.82341	92529.9	1.02436	92530.9
398.089	8.05993	4.60336	9.28188	-29.7325	16.0258	3.82338	-0.0392434	86.849	21.362	1	10	0.00451883	0.000486844	0	-0.00010795	0.00012952	1.64836e-05	7.86459	0.0338581	0.0335396	-0.00463288	-29.6053	9.30873	8.09347	4.59873	0.0935532	0.0534322	0.107737	29.7325	21362	37402.3	43072.9	-60.2675	0.0000000E+000	0.0000000E+000	0.0000000E+000	60.2675	0.0000000E+000	0.0000000E+000	0.0000000E+000	-60.2675	0.0000000E+000	0.0000000E+000	0.0000000E+000	-29.7325	0.0000000E+000	0.0000000E+000	0.0000000E+000	29.7325	1.75088	60.2675	-5.14056e-06	-0.000150042	-5.08279e-09	-0.000150037	3.82325	97427.4	3.30042	97424.1
251.044	9.78777	4.70612	10.8604	-25.679	17.1371	3.82337	-0.0423682	134.712	25.2954	1	10	0.0048737	0.000448759	0	-0.000119665	0.000110426	6.18739e-06	-73.6231	0.0137878	0.00388753	0.0132284	-25.733	10.8696	9.79165	4.71935	0.0829838	0.0399	0.0920778	25.679	25295.4	52609.4	58374.7	-64.321	0.0000000E+000	0.0000000E+000	0.0000000E+000	64.321	0.0000000E+000	0.0000000E+000	0.0000000E+000	-64.321	0.0000000E+000	0.0000000E+000	0.0000000E+000	-25.679	0.0000000E+000	0.0000000E+000	0.0000000E+000	25.679	2.0798	64.321	-5.19414e-06	-0.000161989	-4.67853e-09	-0.000161984	3.82326	90241.4	2.60633	90238.8
158.428	11.5378	4.41053	12.352	-20.9203	18.0439	3.82337	-0.0415367	227.77	29.0402	1	10	0.00486779	0.000394088	0	-0.000130415	-9.96091e-05	3.88801e-06	-51.9455	0.00986584	0.00608141	0.0077686	-20.9439	12.3605	11.5439	4.4183	0.0756213	0.0289077	0.0809583	20.9203	29040.2	75968.1	81329.5	-69.0797	0.0000000E+000	0.0000000E+000	0.0000000E+000	69.0797	0.0000000E+000	0.0000000E+000	0.0000000E+000	-69.0797	0.0000000E+000	0.0000000E+000	0.0000000E+000	-20.9203	0.0000000E+000	0.0000000E+000	0.0000000E+000	20.9203	2.61596	69.0797	-5.16285e-06	-0.00015881	4.13743e-09	-0.000158814	3.82347	92048	2.3981	92050.4
100.032	12.9868	3.66219	13.4933	-15.7481	18.9428	3.82336	-0.0418611	434.45	32.0029	1	10	0.00486243	0.00036036	0	-0.000140368	0.000282272	1.78431e-05	89.9119	0.0495147	7.6171e-05	-0.0495146	-15.5455	13.48	12.9868	3.61268	0.0713293	0.0201144	0.0741111	15.7481	32002.9	113488	117914	-74.2519	0.0000000E+000	0.0000000E+000	0.0000000E+000	74.2519	0.0000000E+000	0.0000000E+000	0.0000000E+000	-74.2519	0.0000000E+000	0.0000000E+000	0.0000000E+000	-15.7481	0.0000000E+000	0.0000000E+000	0.0000000E+000	15.7481	3.54617	74.2519	-5.1789e-06	-0.00016005	-1.18162e-08	-0.000160038	3.82308	91334.5	6.74307	91327.8
63.0823	13.9865	2.88453	14.2808	-11.6531	19.858	3.82337	-0.0384529	874.658	35.6846	1	10	0.00485613	0.000340045	0	-0.000150113	0.000148614	7.72968e-06	40.3027	0.0227313	0.0173358	-0.0147032	-11.5814	14.2948	14.0038	2.86982	0.0685807	0.0141439	0.070024	11.6531	35684.6	173027	176669	-78.3469	0.0000000E+000	0.0000000E+000	0.0000000E+000	78.3469	0.0000000E+000	0.0000000E+000	0.0000000E+000	-78.3469	0.0000000E+000	0.0000000E+000	0.0000000E+000	-11.6531	0.0000000E+000	0.0000000E+000	0.0000000E+000	11.6531	4.84879	78.3469	-4.50907e-06	-0.000147019	-5.71462e-09	-0.000147014	3.82322	99429.9	3.86483	99426.1
39.8089	14.6227	2.13464	14.7777	-8.30543	20.7588	3.82337	-0.0407834	1872.9	39.0796	1	10	0.00485673	0.000328652	0	-0.000159861	0.000110426	6.08134e-06	-63.1268	0.0185039	0.00836408	0.0165056	-8.36403	14.7884	14.6311	2.15115	0.0669598	0.00977486	0.0676695	8.30543	39079.6	267703	270541	-81.6946	0.0000000E+000	0.0000000E+000	0.0000000E+000	81.6946	0.0000000E+000	0.0000000E+000	0.0000000E+000	-81.6946	0.0000000E+000	0.0000000E+000	0.0000000E+000	-8.30543	0.0000000E+000	0.0000000E+000	0.0000000E+000	8.30543	6.8502	81.6946	-5.00391e-06	-0.00015593	-4.50353e-09	-0.000155926	3.82326	93748.2	2.70761	93745.5
25.1044	15.014	1.56572	15.0955	-5.95348	21.6381	3.82337	-0.0413167	4049.08	43.5602	1	10	0.00485763	0.000321794	0	-0.000170573	-0.000252362	1.22828e-05	-33.4554	0.0381699	0.0318457	0.0210426	-6.02023	15.1293	15.0459	1.58676	0.0658878	0.00687101	0.0662451	5.95348	43560.2	417710	419975	-84.0465	0.0000000E+000	0.0000000E+000	0.0000000E+000	84.0465	0.0000000E+000	0.0000000E+000	0.0000000E+000	-84.0465	0.0000000E+000	0.0000000E+000	0.0000000E+000	-5.95348	0.0000000E+000	0.0000000E+000	0.0000000E+000	5.95348	9.58925	84.0465	-4.68375e-06	-0.000157969	1.04267e-08	-0.000157979	3.82362	92538.3	6.10799	92544.4
15.8576	15.3079	1.16225	15.352	-4.34184	22.763	3.82342	-0.032604	8635.44	49.4943	1	11	0.00485155	0.000316022	0	-0.000181498	0.000110426	1.82546e-05	-85.1925	0.0577636	0.00484104	0.0575604	-4.55455	15.3612	15.3127	1.21981	0.0649513	0.00493141	0.0651383	4.34184	49494.2	651886	653762	-85.6582	0.0000000E+000	0.0000000E+000	0.0000000E+000	85.6582	0.0000000E+000	0.0000000E+000	0.0000000E+000	-85.6582	0.0000000E+000	0.0000000E+000	0.0000000E+000	-4.34184	0.0000000E+000	0.0000000E+000	0.0000000E+000	4.34184	13.1709	85.6582	-4.8338e-06	-0.000124659	-3.60032e-09	-0.000124655	3.82331	117268	3.38687	117265
10.0032	15.505	0.921454	15.5323	-3.40106	23.7449	3.82341	-0.0320383	17266.6	60.7688	1	11	0.00486057	0.000312932	0	-0.000188842	-4.23269e-05	4.53182e-06	-49.9056	0.0144818	0.00932699	0.0110783	-3.43979	15.5423	15.5143	0.932533	0.0642684	0.00381944	0.0643818	3.40106	60768.8	1.02254e+06	1.02434e+06	-86.5989	0.0000000E+000	0.0000000E+000	0.0000000E+000	86.5989	0.0000000E+000	0.0000000E+000	0.0000000E+000	-86.5989	0.0000000E+000	0.0000000E+000	0.0000000E+000	-3.40106	0.0000000E+000	0.0000000E+000	0.0000000E+000	3.40106	16.8266	86.5989	-1.32628e-06	-0.000122496	1.35608e-09	-0.000122497	3.82346	119339	1.32114	119340
6.31058	15.6337	0.771958	15.6527	-2.82685	24.6693	3.82341	-0.0328956	32670.6	79.4631	1	11	0.00485762	0.000310337	0	-0.000197695	-0.000156891	6.4684e-06	22.1449	0.0208431	0.0193056	-0.00785683	-2.79468	15.6716	15.653	0.764101	0.063809	0.00315076	0.0638867	2.82685	79463.1	1.60928e+06	1.61124e+06	-87.1731	0.0000000E+000	0.0000000E+000	0.0000000E+000	87.1731	0.0000000E+000	0.0000000E+000	0.0000000E+000	-87.1731	0.0000000E+000	0.0000000E+000	0.0000000E+000	-2.82685	0.0000000E+000	0.0000000E+000	0.0000000E+000	2.82685	20.2519	87.1731	-1.00789e-06	-0.000125773	5.16104e-09	-0.000125779	3.82357	116229	4.76937	116233
3.97785	15.7525	0.713667	15.7686	-2.59402	25.6763	3.82343	-0.0302721	56062.9	114.836	1	11	0.00485659	0.00030799	0	-0.000208028	9.13315e-05	5.46049e-06	65.8778	0.0177294	0.00724573	-0.0161812	-2.53411	15.7751	15.7597	0.697486	0.063352	0.00287017	0.063417	2.59402	114836	2.53473e+06	2.53733e+06	-87.406	0.0000000E+000	0.0000000E+000	0.0000000E+000	87.406	0.0000000E+000	0.0000000E+000	0.0000000E+000	-87.406	0.0000000E+000	0.0000000E+000	0.0000000E+000	-2.59402	0.0000000E+000	0.0000000E+000	0.0000000E+000	2.59402	22.0726	87.406	-7.95508e-06	-0.000115743	-2.76479e-09	-0.00011574	3.82334	126302	3.01702	126299
2.51367	15.8848	0.729785	15.9016	-2.63045	27.2359	3.82343	-0.0303483	86759.3	182.737	1	11	0.00485668	0.000305421	0	-0.000221473	-0.000405114	6.10712e-06	-80.3369	0.0199957	0.00335638	0.019712	-2.70083	15.9058	15.8882	0.749497	0.0628206	0.00288612	0.0628868	2.63045	182736	3.97753e+06	3.98172e+06	-87.3696	0.0000000E+000	0.0000000E+000	0.0000000E+000	87.3696	0.0000000E+000	0.0000000E+000	0.0000000E+000	-87.3696	0.0000000E+000	0.0000000E+000	0.0000000E+000	-2.63045	0.0000000E+000	0.0000000E+000	0.0000000E+000	2.63045	21.7664	87.3696	-4.81491e-06	-0.000116035	1.22945e-08	-0.000116047	3.82383	125985	13.3488	125998
1.58469	16.0351	0.780145	16.054	-2.78538	29.6715	3.82343	-0.0293759	128737	304.007	1	11	0.00485715	0.00030255	0	-0.000232114	-0.000156891	2.98786e-06	-11.042	0.00987558	0.00969275	0.00189146	-2.79044	16.0638	16.0448	0.782036	0.062216	0.00302695	0.0622896	2.78538	304006	6.24855e+06	6.25594e+06	-87.2146	0.0000000E+000	0.0000000E+000	0.0000000E+000	87.2146	0.0000000E+000	0.0000000E+000	0.0000000E+000	-87.2146	0.0000000E+000	0.0000000E+000	0.0000000E+000	-2.78538	0.0000000E+000	0.0000000E+000	0.0000000E+000	2.78538	20.554	87.2146	-7.43549e-06	-0.000112317	4.60882e-09	-0.000112321	3.82359	130156	5.34083	130161
1.00469	16.118	0.8412	16.1399	-2.98757	240.49	3.82341	-0.0244908	188316	511.544	1	11	0.00503815	0.000312154	0	-0.00293156	-0.000175985	5.69068e-07	1.27775	0.00182303	0.00182258	-4.0652e-05	-2.98708	16.1417	16.1198	0.84116	0.061874	0.00322921	0.0619582	2.98757	511544	9.80154e+06	9.81488e+06	-87.0124	0.0000000E+000	0.0000000E+000	0.0000000E+000	87.0124	0.0000000E+000	0.0000000E+000	0.0000000E+000	-87.0124	0.0000000E+000	0.0000000E+000	0.0000000E+000	-2.98757	0.0000000E+000	0.0000000E+000	0.0000000E+000	2.98757	19.1607	87.0124	-0.00268296	-9.36381e-05	4.31002e-09	-9.36424e-05	3.82358	156116	7.18579	156124
0.632957	16.3303	1.01356	16.3618	-3.55156	240.491	3.82341	-0.0244908	248084	951.994	1	11	0.00505162	0.000308746	0	-0.00293156	-0.000175985	6.36431e-07	-14.9866	0.00206135	0.00199123	0.000533048	-3.55299	16.3638	16.3323	1.01409	0.0610008	0.00378607	0.0611182	3.55156	951994	1.53384e+07	1.5368e+07	-86.4484	0.0000000E+000	0.0000000E+000	0.0000000E+000	86.4484	0.0000000E+000	0.0000000E+000	0.0000000E+000	-86.4484	0.0000000E+000	0.0000000E+000	0.0000000E+000	-3.55156	0.0000000E+000	0.0000000E+000	0.0000000E+000	3.55156	16.1119	86.4484	0.000000000000000E+000	-9.36381e-05	4.31002e-09	-9.36424e-05	3.82358	156116	7.18579	156124
0.401878	16.5363	1.2562	16.5839	-4.3442	240.493	3.82341	-0.0244908	315260	1808.88	1	11	0.00506502	0.000305418	0	-0.00293156	-0.000175985	4.82136e-07	-19.4553	0.00157861	0.00148848	0.00052579	-4.34562	16.5854	16.5377	1.25672	0.0601262	0.00456756	0.0602994	4.3442	1.80888e+06	2.38117e+07	2.38803e+07	-85.6558	0.0000000E+000	0.0000000E+000	0.0000000E+000	85.6558	0.0000000E+000	0.0000000E+000	0.0000000E+000	-85.6558	0.0000000E+000	0.0000000E+000	0.0000000E+000	-4.3442	0.0000000E+000	0.0000000E+000	0.0000000E+000	4.3442	13.1638	85.6558	0.000000000000000E+000	-9.36381e-05	4.31002e-09	-9.36424e-05	3.82358	156116	7.18579	156124
0.251173	16.9281	1.59814	17.0034	-5.39317	240.495	3.82341	-0.0244908	396488	3502.6	1	11	0.00506575	0.000297926	0	-0.00293156	-0.000175985	3.7034e-07	-31.7139	0.00124306	0.00105745	0.00065345	-5.39503	17.0045	16.9292	1.5988	0.0585514	0.0055277	0.0588118	5.39317	3.5026e+06	3.71008e+07	3.72658e+07	-84.6068	0.0000000E+000	0.0000000E+000	0.0000000E+000	84.6068	0.0000000E+000	0.0000000E+000	0.0000000E+000	-84.6068	0.0000000E+000	0.0000000E+000	0.0000000E+000	-5.39317	0.0000000E+000	0.0000000E+000	0.0000000E+000	5.39317	10.5924	84.6068	0.000000000000000E+000	-9.36381e-05	4.31002e-09	-9.36424e-05	3.82358	156116	7.18579	156124
0.160751	17.3279	1.80637	17.4218	-5.95137	240.497	3.82341	-0.0244908	548099	5892.31	1	11	0.00505967	0.000290421	0	-0.00293156	-0.000175985	5.01945e-07	3.43164	0.00172834	0.00172524	-0.000103454	-5.95045	17.4235	17.3297	1.80627	0.0570898	0.0059514	0.0573992	5.95137	5.89231e+06	5.6523e+07	5.68293e+07	-84.0486	0.0000000E+000	0.0000000E+000	0.0000000E+000	84.0486	0.0000000E+000	0.0000000E+000	0.0000000E+000	-84.0486	0.0000000E+000	0.0000000E+000	0.0000000E+000	-5.95137	0.0000000E+000	0.0000000E+000	0.0000000E+000	5.95137	9.59267	84.0486	0.000000000000000E+000	-9.36381e-05	4.31002e-09	-9.36424e-05	3.82358	156116	7.18579	156124
0.100469	17.8078	2.42288	17.9718	-7.74795	240.498	3.82341	-0.0244908	653815	11883.2	1	11	0.00506338	0.00028174	0	-0.00293156	-0.000175985	4.81845e-07	11.8967	0.00171025	0.00167351	-0.000352564	-7.74611	17.9734	17.8094	2.42253	0.0551347	0.00750148	0.0556426	7.74795	1.18832e+07	8.73396e+07	8.81443e+07	-82.2521	0.0000000E+000	0.0000000E+000	0.0000000E+000	82.2521	0.0000000E+000	0.0000000E+000	0.0000000E+000	-82.2521	0.0000000E+000	0.0000000E+000	0.0000000E+000	-7.74795	0.0000000E+000	0.0000000E+000	0.0000000E+000	7.74795	7.34983	82.2521	0.000000000000000E+000	-9.36381e-05	4.31002e-09	-9.36424e-05	3.82358	156116	7.18579	156124
0.0602816	18.6324	2.84101	18.8478	-8.66948	240.5	3.82341	-0.0244908	929314	21114.8	1	11	0.0050593	0.00026843	0	-0.00293156	-0.000175985	7.30582e-07	9.28809	0.00272169	0.00268601	-0.000439277	-8.66693	18.8504	18.6351	2.84057	0.0524504	0.00799745	0.0530566	8.66948	2.11148e+07	1.38479e+08	1.4008e+08	-81.3305	0.0000000E+000	0.0000000E+000	0.0000000E+000	81.3305	0.0000000E+000	0.0000000E+000	0.0000000E+000	-81.3305	0.0000000E+000	0.0000000E+000	0.0000000E+000	-8.66948	0.0000000E+000	0.0000000E+000	0.0000000E+000	8.66948	6.55839	81.3305	0.000000000000000E+000	-9.36381e-05	4.31002e-09	-9.36424e-05	3.82358	156116	7.18579	156124
0.0401878	19.5705	3.20713	19.8315	-9.30666	240.502	3.82341	-0.0244908	1.23484e+06	32294.6	1	11	0.00506005	0.000255152	0	-0.00293156	-0.000175985	7.45443e-07	-20.4342	0.00292157	0.00273772	0.00102001	-9.30829	19.8344	19.5732	3.20815	0.049761	0.00815461	0.0504247	9.30666	3.22946e+07	1.97068e+08	1.99696e+08	-80.6933	0.0000000E+000	0.0000000E+000	0.0000000E+000	80.6933	0.0000000E+000	0.0000000E+000	0.0000000E+000	-80.6933	0.0000000E+000	0.0000000E+000	0.0000000E+000	-9.30666	0.0000000E+000	0.0000000E+000	0.0000000E+000	9.30666	6.10219	80.6933	0.000000000000000E+000	-9.36381e-05	4.31002e-09	-9.36424e-05	3.82358	156116	7.18579	156124
0.0200939	21.4108	4.25487	21.8295	-11.2397	240.504	3.82341	-0.0244908	1.86153e+06	70721.8	1	11	0.00505926	0.000231762	0	-0.00293156	-0.000175985	1.12146e-06	-71.2571	0.00483886	0.00155483	0.00458225	-11.2507	21.8319	21.4124	4.25945	0.0449309	0.00892888	0.0458095	11.2397	7.07218e+07	3.55878e+08	3.62837e+08	-78.7603	0.0000000E+000	0.0000000E+000	0.0000000E+000	78.7603	0.0000000E+000	0.0000000E+000	0.0000000E+000	-78.7603	0.0000000E+000	0.0000000E+000	0.0000000E+000	-11.2397	0.0000000E+000	0.0000000E+000	0.0000000E+000	11.2397	5.03209	78.7603	0.000000000000000E+000	-9.36381e-05	4.31002e-09	-9.36424e-05	3.82358	156116	7.18579	156124
0.00796479	24.5684	4.51579	24.98	-10.415	20329.3	3.82343	-0.000785796	4.42499e+06	144609	1	11	0.00505353	0.000202303	0	-0.0246651	0.000263178	6.22691e-07	-165.622	0.00307801	-0.00298161	0.000764304	-10.4179	24.9772	24.5655	4.51655	0.0393725	0.00723683	0.040032	10.415	1.44609e+08	7.86753e+08	7.99932e+08	-79.585	0.0000000E+000	0.0000000E+000	0.0000000E+000	79.585	0.0000000E+000	0.0000000E+000	0.0000000E+000	-79.585	0.0000000E+000	0.0000000E+000	0.0000000E+000	-10.415	0.0000000E+000	0.0000000E+000	0.0000000E+000	10.415	5.44057	79.585	-0.0217336	-3.00444e-06	-2.06804e-10	-3.00423e-06	3.82317	4.86568e+06	334.919	4.86535e+06
0.00497799	25.9439	4.49852	26.3311	-9.83692	20329.3	3.82343	-0.000785796	7.10717e+06	207443	1	11	0.00506038	0.000192183	0	-0.0246651	0.000263178	6.40953e-07	-162.795	0.00333512	-0.00318589	0.000986495	-9.84022	26.3281	25.9408	4.4995	0.0374196	0.00648832	0.037978	9.83692	2.07443e+08	1.19637e+09	1.21422e+09	-80.1631	0.0000000E+000	0.0000000E+000	0.0000000E+000	80.1631	0.0000000E+000	0.0000000E+000	0.0000000E+000	-80.1631	0.0000000E+000	0.0000000E+000	0.0000000E+000	-9.83692	0.0000000E+000	0.0000000E+000	0.0000000E+000	9.83692	5.76722	80.1631	0.000000000000000E+000	-3.00444e-06	-2.06804e-10	-3.00423e-06	3.82317	4.86568e+06	334.919	4.86535e+06
0.00318591	26.8227	5.88085	27.4599	-12.3663	20329.3	3.82343	-0.000785796	8.49466e+06	389609	1	11	0.00506323	0.000184387	0	-0.0246651	0.000263178	9.34993e-07	-155.974	0.00507083	-0.00463148	0.00206463	-12.3726	27.4558	26.8181	5.88291	0.0355719	0.00779908	0.0364168	12.3663	3.89609e+08	1.77702e+09	1.81923e+09	-77.6337	0.0000000E+000	0.0000000E+000	0.0000000E+000	77.6337	0.0000000E+000	0.0000000E+000	0.0000000E+000	-77.6337	0.0000000E+000	0.0000000E+000	0.0000000E+000	-12.3663	0.0000000E+000	0.0000000E+000	0.0000000E+000	12.3663	4.56103	77.6337	0.000000000000000E+000	-3.00444e-06	-2.06804e-10	-3.00423e-06	3.82317	4.86568e+06	334.919	4.86535e+06
0.0019912	27.7044	6.98087	28.5703	-14.1428	20329.3	3.82343	-0.000785796	1.14498e+07	683573	1	11	0.00506473	0.000177272	0	-0.0246651	0.000263178	5.00861e-07	-88.8494	0.00282538	5.6736e-05	0.00282481	-14.1483	28.5711	27.7044	6.98369	0.0339404	0.00855222	0.0350013	14.1428	6.83573e+08	2.71284e+09	2.79763e+09	-75.8572	0.0000000E+000	0.0000000E+000	0.0000000E+000	75.8572	0.0000000E+000	0.0000000E+000	0.0000000E+000	-75.8572	0.0000000E+000	0.0000000E+000	0.0000000E+000	-14.1428	0.0000000E+000	0.0000000E+000	0.0000000E+000	14.1428	3.96861	75.8572	0.000000000000000E+000	-3.00444e-06	-2.06804e-10	-3.00423e-06	3.82317	4.86568e+06	334.919	4.86535e+06
0.00129428	27.4113	8.82503	28.7969	-17.8459	20329.3	3.82343	-0.000785796	1.3934e+07	1.30863e+06	1	11	0.00506737	0.000175969	0	-0.0246651	0.000263178	5.0071e-07	75.6246	0.00284544	0.000706448	-0.00275635	-17.8402	28.7967	27.412	8.82228	0.0330551	0.010642	0.0347259	17.8459	1.30863e+09	4.06472e+09	4.27018e+09	-72.1541	0.0000000E+000	0.0000000E+000	0.0000000E+000	72.1541	0.0000000E+000	0.0000000E+000	0.0000000E+000	-72.1541	0.0000000E+000	0.0000000E+000	0.0000000E+000	-17.8459	0.0000000E+000	0.0000000E+000	0.0000000E+000	17.8459	3.10609	72.1541	0.000000000000000E+000	-3.00444e-06	-2.06804e-10	-3.00423e-06	3.82317	4.86568e+06	334.919	4.86535e+06
0.000796479	29.4405	12.5476	32.0029	-23.0838	20329.3	3.82343	-0.000785796	1.59252e+07	2.44809e+06	1	11	0.0050647	0.000158257	0	-0.0246651	0.000263178	6.84068e-07	-94.7734	0.0043225	-0.000359701	0.00430751	-23.0912	32.0043	29.4402	12.5519	0.0287453	0.0122513	0.0312471	23.0838	2.44809e+09	5.74397e+09	6.24391e+09	-66.9162	0.0000000E+000	0.0000000E+000	0.0000000E+000	66.9162	0.0000000E+000	0.0000000E+000	0.0000000E+000	-66.9162	0.0000000E+000	0.0000000E+000	0.0000000E+000	-23.0838	0.0000000E+000	0.0000000E+000	0.0000000E+000	23.0838	2.3463	66.9162	0.000000000000000E+000	-3.00444e-06	-2.06804e-10	-3.00423e-06	3.82317	4.86568e+06	334.919	4.86535e+06
0.000497799	29.1376	17.7712	34.1294	-31.3793	20329.3	3.82343	-0.000785796	1.79908e+07	4.87782e+06	1	11	0.0050675	0.000148479	0	-0.0246651	0.000263178	8.12978e-07	9.18574	0.00547537	0.00540515	-0.000874063	-31.3733	34.1335	29.143	17.7703	0.0250148	0.0152567	0.0293003	31.3793	4.87782e+09	7.99766e+09	9.36781e+09	-58.6207	0.0000000E+000	0.0000000E+000	0.0000000E+000	58.6207	0.0000000E+000	0.0000000E+000	0.0000000E+000	-58.6207	0.0000000E+000	0.0000000E+000	0.0000000E+000	-31.3793	0.0000000E+000	0.0000000E+000	0.0000000E+000	31.3793	1.6396	58.6207	0.000000000000000E+000	-3.00444e-06	-2.06804e-10	-3.00423e-06	3.82317	4.86568e+06	334.919	4.86535e+06
0.000298679	28.8863	27.1952	39.6736	-43.2728	20329.3	3.82343	-0.000785796	1.9594e+07	9.20668e+06	1	11	0.00506995	0.000127791	0	-0.0246651	0.000263178	9.78188e-07	4.32095	0.00765457	0.00763281	-0.000576721	-43.2647	39.6788	28.8939	27.1946	0.0183522	0.0172778	0.0252057	43.2728	9.20668e+09	9.77918e+09	1.34311e+10	-46.7272	0.0000000E+000	0.0000000E+000	0.0000000E+000	46.7272	0.0000000E+000	0.0000000E+000	0.0000000E+000	-46.7272	0.0000000E+000	0.0000000E+000	0.0000000E+000	-43.2728	0.0000000E+000	0.0000000E+000	0.0000000E+000	43.2728	1.06218	46.7272	0.000000000000000E+000	-3.00444e-06	-2.06804e-10	-3.00423e-06	3.82317	4.86568e+06	334.919	4.86535e+06
9.95598e-05	36.5515	92.6632	99.6116	-68.473	20329.3	3.82343	-0.000785796	1.72516e+07	1.49287e+07	1	11	0.00505984	5.07957e-05	0	-0.0246651	0.000263178	5.00629e-06	-1.32633	0.0985573	0.0985309	0.00228128	-68.4207	99.6499	36.65	92.6655	0.00368371	0.00933871	0.010039	68.473	1.49287e+10	5.88872e+09	1.60482e+10	-21.527	0.0000000E+000	0.0000000E+000	0.0000000E+000	21.527	0.0000000E+000	0.0000000E+000	0.0000000E+000	-21.527	0.0000000E+000	0.0000000E+000	0.0000000E+000	-68.473	0.0000000E+000	0.0000000E+000	0.0000000E+000	68.473	0.394456	21.527	0.000000000000000E+000	-3.00444e-06	-2.06804e-10	-3.00423e-06	3.82317	4.86568e+06	334.919	4.86535e+06