File: txt/18478_R301_UA693_SOC00_C02.mpt
EC-Lab ASCII FILE
Nb header lines : 65

Potentio Electrochemical Impedance Spectroscopy

Run on channel : 2 (SN 66139)
User :
CE vs. WE compliance from -10 V to 10 V
Electrode connection : standard
Potential control : Ewe
Ewe ctrl range : min = -10.00 V, max = 10.00 V
Safety Limits :
	Do not start on E overload
Acquisition started on : 10/21/2025 09:25:45.906
Technique started on : 10/21/2025 09:25:47.818
Loaded Setting File :  C:\Users\Celltest\OneDrive - store-dot.com\Documents\EC-Lab\Data\@Biologic Test Protocols\anode half cell EIS SOC00.mps
Saved on :
	File : 18478_R301_UA693_SOC00_C02.mpr
	Directory : C:\Users\Celltest\OneDrive - store-dot.com\Documents\EC-Lab\Data\Gyutae\
	Host : 169.254.61.224
Device : VMP-3e (SN .003165)
Address : USB
EC-LAB for windows v11.62 (software)
Internet server v27.00 (firmware)
Command interpretor v12.03 (firmware)
Electrode material :
Initial state :
Electrolyte :
Comments :
Electrode surface area : 0.001 cm²
Characteristic mass : 0.001 g
Equivalent Weight : 0.000 g/eq.
Density : 0.000 g/cm3
Volume (V) : 0.001 cm³
Record Ece
Cycle Definition : Charge/Discharge alternance
Mode                Single sine
E (V)               0.0000
vs.                 Eoc
tE (h:m:s)          0:00:0.0000
record              0
dI                  0.000
unit dI             mA
dt (s)              0.000
fi                  100.000
unit fi             kHz
ff                  10.000
unit ff             mHz
Nd                  6
Points              per decade
spacing             Logarithmic
Va (mV)             5.0
pw                  0.10
Na                  2
corr                0
E range min (V)     -10.000
E range max (V)     10.000
I Range             Auto
Bandwidth           5
nc cycles           0
goto Ns'            0
nr cycles           0
inc. cycle          0

freq/Hz	Re(Z)/Ohm	-Im(Z)/Ohm	|Z|/Ohm	Phase(Z)/deg	time/s	<Ewe>/V	<I>/mA	Cs/µF	Cp/µF	cycle number	I Range	|Ewe|/V	|I|/A	Ns	(Q-Qo)/mA.h	<Ece>/V	|Ece|/V	Phase(Zce)/deg	|Zce|/Ohm	Re(Zce)/Ohm	-Im(Zce)/Ohm	Phase(Zwe-ce)/deg	|Zwe-ce|/Ohm	Re(Zwe-ce)/Ohm	-Im(Zwe-ce)/Ohm	Re(Y)/Ohm-1	Im(Y)/Ohm-1	|Y|/Ohm-1	Phase(Y)/deg	Re(C)/nF	Im(C)/nF	|C|/nF	Phase(C)/deg	Re(M)	Im(M)	|M|	Phase(M)/deg	Re(Permittivity)	Im(Permittivity)	|Permittivity|	Phase(Permittivity)/deg	Re(Resistivity)/Ohm.cm	Im(Resistivity)/Ohm.cm	|Resistivity|/Ohm.cm	Phase(Resistivity)/deg	Re(Conductivity)/mS/cm	Im(Conductivity)/mS/cm	|Conductivity|/mS/cm	Phase(Conductivity)/deg	Tan(Delta)	Loss Angle(Delta)/deg	dq/mA.h	Pwe/W	Pce/W	Pwe-ce/W	<Ewe-Ece>/V	Rwe/Ohm	Rce/Ohm	Rwe-ce/Ohm		Ewe-Ece/V
100004	1.22646	0.501942	1.3252	-22.2574	1.91153	0.260343	-0.00696268	3.17067	0.45488	1	9	0.00464826	0.0035076	0	4.36784e-06	0.00017216	2.34071e-05	109.612	0.00667326	-0.00223992	-0.00628611	-22.0418	1.32075	1.22422	0.495656	0.698381	0.28582	0.754605	22.2574	454.88	1111.47	1200.95	-67.7426	0.0000000E+000	0.0000000E+000	0.0000000E+000	67.7426	0.0000000E+000	0.0000000E+000	0.0000000E+000	-67.7426	0.0000000E+000	0.0000000E+000	0.0000000E+000	-22.2574	0.0000000E+000	0.0000000E+000	0.0000000E+000	22.2574	2.44343	67.7426	4.36784e-06	-1.81269e-06	-1.1987e-09	-1.81149e-06	0.260171	37391.2	24.7261	37366.5
68132	1.35907	0.57454	1.47552	-22.916	2.41855	0.260322	-0.00200898	4.06582	0.61645	1	9	0.0050544	0.0034255	0	3.25473e-06	7.67059e-05	1.9248e-05	89.3736	0.00561903	6.14256e-05	-0.00561869	-22.7138	1.4734	1.35913	0.568922	0.624238	0.263894	0.677726	22.916	616.45	1458.21	1583.15	-67.084	0.0000000E+000	0.0000000E+000	0.0000000E+000	67.084	0.0000000E+000	0.0000000E+000	0.0000000E+000	-67.084	0.0000000E+000	0.0000000E+000	0.0000000E+000	-22.916	0.0000000E+000	0.0000000E+000	0.0000000E+000	22.916	2.36549	67.084	-1.11311e-06	-5.22981e-07	-1.541e-10	-5.22827e-07	0.260246	129580	38.1816	129541
46420.4	1.50818	0.647036	1.64112	-23.2201	2.92552	0.260316	-0.00476518	5.29887	0.823681	1	9	0.00509641	0.00310545	0	-1.3138e-06	5.7615e-05	8.93821e-06	-0.485893	0.00287824	0.00287813	2.44084e-05	-23.1814	1.64377	1.51106	0.64706	0.559982	0.240241	0.60934	23.2201	823.682	1919.93	2089.16	-66.7799	0.0000000E+000	0.0000000E+000	0.0000000E+000	66.7799	0.0000000E+000	0.0000000E+000	0.0000000E+000	-66.7799	0.0000000E+000	0.0000000E+000	0.0000000E+000	-23.2201	0.0000000E+000	0.0000000E+000	0.0000000E+000	23.2201	2.33091	66.7799	-4.56853e-06	-1.24045e-06	-2.74546e-10	-1.24017e-06	0.260258	54628.8	12.0908	54616.7
31621.1	1.659	0.720859	1.80884	-23.4857	3.43454	0.260327	-0.0031636	6.9822	1.1089	1	9	0.00507603	0.00280623	0	8.14537e-06	0.000286705	1.50742e-05	-21.8377	0.00537168	0.00498621	0.00199815	-23.4808	1.81421	1.66398	0.722857	0.507043	0.220318	0.55284	23.4857	1108.9	2552.04	2782.55	-66.5143	0.0000000E+000	0.0000000E+000	0.0000000E+000	66.5143	0.0000000E+000	0.0000000E+000	0.0000000E+000	-66.5143	0.0000000E+000	0.0000000E+000	0.0000000E+000	-23.4857	0.0000000E+000	0.0000000E+000	0.0000000E+000	23.4857	2.30142	66.5143	9.45917e-06	-8.23572e-07	-9.07021e-10	-8.22665e-07	0.260041	82288.2	90.6261	82197.6
21544.7	1.83794	0.80242	2.00547	-23.5855	3.81753	0.260322	-0.00595705	9.20615	1.47384	1	9	0.00513315	0.00255958	0	3.19523e-06	9.57967e-05	1.25916e-05	-91.7895	0.00491939	-0.000153625	0.00491699	-23.7158	2.0073	1.83778	0.807337	0.456983	0.199513	0.498637	23.5855	1473.84	3375.83	3683.53	-66.4145	0.0000000E+000	0.0000000E+000	0.0000000E+000	66.4145	0.0000000E+000	0.0000000E+000	0.0000000E+000	-66.4145	0.0000000E+000	0.0000000E+000	0.0000000E+000	-23.5855	0.0000000E+000	0.0000000E+000	0.0000000E+000	23.5855	2.29049	66.4145	-4.95014e-06	-1.55075e-06	-5.70666e-10	-1.55018e-06	0.260226	43699.8	16.0812	43683.7
14678.6	2.0281	0.899214	2.21851	-23.9114	4.07655	0.260326	0.00134313	12.0579	1.98096	1	9	0.00478663	0.00215759	0	1.78181e-06	0.000191251	1.21314e-05	64.7445	0.00562267	0.00239894	-0.00508522	-23.7663	2.21865	2.0305	0.894129	0.412067	0.182701	0.450753	23.9114	1980.96	4467.9	4887.36	-66.0886	0.0000000E+000	0.0000000E+000	0.0000000E+000	66.0886	0.0000000E+000	0.0000000E+000	0.0000000E+000	-66.0886	0.0000000E+000	0.0000000E+000	0.0000000E+000	-23.9114	0.0000000E+000	0.0000000E+000	0.0000000E+000	23.9114	2.25541	66.0886	-1.41343e-06	3.49651e-07	2.56874e-10	3.49394e-07	0.260135	193821	142.392	193678
10002.2	2.2319	0.999072	2.4453	-24.1149	4.45955	0.260319	-0.00409479	15.9267	2.65861	1	9	0.00496959	0.0020323	0	1.89849e-06	0.000267614	9.67006e-06	-124.792	0.00475819	-0.00271504	0.00390755	-24.2245	2.44443	2.22918	1.00298	0.373257	0.167083	0.408947	24.1149	2658.61	5939.25	6507.15	-65.8851	0.0000000E+000	0.0000000E+000	0.0000000E+000	65.8851	0.0000000E+000	0.0000000E+000	0.0000000E+000	-65.8851	0.0000000E+000	0.0000000E+000	0.0000000E+000	-24.1149	0.0000000E+000	0.0000000E+000	0.0000000E+000	24.1149	2.23397	65.8851	1.16688e-07	-1.06595e-06	-1.09582e-09	-1.06486e-06	0.260052	63573.3	65.3549	63508
6810.42	2.52388	1.09956	2.753	-23.541	4.71856	0.260327	-0.00595709	21.2533	3.39041	1	9	0.00486877	0.00176853	0	4.60264e-07	3.85242e-05	0.00019075	14.2124	0.107858	0.104557	-0.026481	-22.2081	2.83905	2.62844	1.07308	0.333009	0.14508	0.36324	23.541	3390.41	7782.2	8488.67	-66.459	0.0000000E+000	0.0000000E+000	0.0000000E+000	66.459	0.0000000E+000	0.0000000E+000	0.0000000E+000	-66.459	0.0000000E+000	0.0000000E+000	0.0000000E+000	-23.541	0.0000000E+000	0.0000000E+000	0.0000000E+000	23.541	2.29535	66.459	-1.43823e-06	-1.55079e-06	-2.29492e-10	-1.55056e-06	0.260288	43700.4	6.46695	43693.9
4646	2.67104	1.26886	2.9571	-25.4098	4.98463	0.260292	-0.022755	26.9977	4.97075	1	9	0.00462051	0.00156251	0	-2.12744e-06	9.57967e-05	1.71691e-05	-173.229	0.0109882	-0.0109115	0.00129546	-25.5235	2.94781	2.66013	1.27016	0.305455	0.145104	0.338169	25.4098	4970.75	10463.8	11584.4	-64.5902	0.0000000E+000	0.0000000E+000	0.0000000E+000	64.5902	0.0000000E+000	0.0000000E+000	0.0000000E+000	-64.5902	0.0000000E+000	0.0000000E+000	0.0000000E+000	-25.4098	0.0000000E+000	0.0000000E+000	0.0000000E+000	25.4098	2.10507	64.5902	-2.5877e-06	-5.92294e-06	-2.17985e-09	-5.92076e-06	0.260196	11438.9	4.20992	11434.7
3163.08	2.90924	1.487	3.26724	-27.073	5.35768	0.26013	-0.0397391	33.8376	7.00906	1	9	0.00453172	0.00138702	0	-5.132e-06	5.7615e-05	1.05161e-05	-36.3997	0.00758184	0.0061026	0.00449918	-27.0945	3.27472	2.91534	1.4915	0.272532	0.1393	0.306069	27.073	7009.06	13712.9	15400.3	-62.927	0.0000000E+000	0.0000000E+000	0.0000000E+000	62.927	0.0000000E+000	0.0000000E+000	0.0000000E+000	-62.927	0.0000000E+000	0.0000000E+000	0.0000000E+000	-27.073	0.0000000E+000	0.0000000E+000	0.0000000E+000	27.073	1.95645	62.927	-3.00456e-06	-1.03374e-05	-2.28957e-09	-1.03351e-05	0.260073	6545.95	1.44983	6544.5
2155.69	3.18013	1.75223	3.63091	-28.8545	6.26881	0.260245	-0.0193224	42.135	9.81281	1	10	0.00520313	0.00143301	0	-4.41569e-06	3.85242e-05	9.19711e-06	-81.6304	0.00641803	0.000934195	0.00634968	-28.935	3.6348	3.18106	1.75858	0.24122	0.132911	0.275413	28.8545	9812.81	17809.3	20333.8	-61.1455	0.0000000E+000	0.0000000E+000	0.0000000E+000	61.1455	0.0000000E+000	0.0000000E+000	0.0000000E+000	-61.1455	0.0000000E+000	0.0000000E+000	0.0000000E+000	-28.8545	0.0000000E+000	0.0000000E+000	0.0000000E+000	28.8545	1.8149	61.1455	7.16306e-07	-5.02857e-06	-7.44381e-10	-5.02783e-06	0.260207	13468.5	1.99375	13466.5
1468.59	3.46957	2.13543	4.07406	-31.6112	6.72008	0.260251	-0.0184768	50.7499	13.9428	1	10	0.00511627	0.00125582	0	-7.16415e-06	-9.51117e-05	5.62871e-06	97.9632	0.00448211	-0.000620942	-0.00443889	-31.5626	4.0712	3.46895	2.13099	0.209036	0.128656	0.245455	31.6112	13942.8	22653.8	26600.7	-58.3888	0.0000000E+000	0.0000000E+000	0.0000000E+000	58.3888	0.0000000E+000	0.0000000E+000	0.0000000E+000	-58.3888	0.0000000E+000	0.0000000E+000	0.0000000E+000	-31.6112	0.0000000E+000	0.0000000E+000	0.0000000E+000	31.6112	1.62477	58.3888	-2.74845e-06	-4.80861e-06	1.75736e-09	-4.81037e-06	0.260346	14085.3	5.14762	14090.4
1000.32	3.80279	2.6793	4.65187	-35.167	7.17083	0.260238	-0.0191809	59.3828	19.6991	1	10	0.00504671	0.00108488	0	-8.70972e-06	-3.78392e-05	1.51316e-05	-106.446	0.0139478	-0.00394867	0.0133771	-35.3295	4.65636	3.79885	2.69267	0.175731	0.123813	0.214967	35.167	19699.1	27959.5	34202.2	-54.833	0.0000000E+000	0.0000000E+000	0.0000000E+000	54.833	0.0000000E+000	0.0000000E+000	0.0000000E+000	-54.833	0.0000000E+000	0.0000000E+000	0.0000000E+000	-35.167	0.0000000E+000	0.0000000E+000	0.0000000E+000	35.167	1.41933	54.833	-1.54558e-06	-4.99161e-06	7.2579e-10	-4.99233e-06	0.260276	13567.6	1.97276	13569.6
681.09	4.22759	3.43709	5.4485	-39.1116	7.62154	0.260236	-0.0194528	67.9869	27.0553	1	10	0.00500853	0.00091925	0	-1.16137e-05	0.000286705	9.58208e-06	45.4855	0.0104238	0.00730803	-0.00743293	-39.0024	5.44949	4.2349	3.42966	0.14241	0.115781	0.183537	39.1116	27055.3	33277.9	42888.3	-50.8884	0.0000000E+000	0.0000000E+000	0.0000000E+000	50.8884	0.0000000E+000	0.0000000E+000	0.0000000E+000	-50.8884	0.0000000E+000	0.0000000E+000	0.0000000E+000	-39.1116	0.0000000E+000	0.0000000E+000	0.0000000E+000	39.1116	1.22999	50.8884	-2.90394e-06	-5.06233e-06	-5.57723e-09	-5.05675e-06	0.259949	13377.8	14.7385	13363
463.961	4.78566	4.46659	6.54622	-43.0249	8.07336	0.260243	-0.0188345	76.8002	35.7548	1	10	0.00496194	0.000757986	0	-1.3518e-05	-9.51117e-05	9.42812e-06	-33.0002	0.0124384	0.0104317	0.00677447	-43.006	6.55847	4.79609	4.47337	0.111676	0.104231	0.15276	43.0249	35754.8	38308.9	52402	-46.9751	0.0000000E+000	0.0000000E+000	0.0000000E+000	46.9751	0.0000000E+000	0.0000000E+000	0.0000000E+000	-46.9751	0.0000000E+000	0.0000000E+000	0.0000000E+000	-43.0249	0.0000000E+000	0.0000000E+000	0.0000000E+000	43.0249	1.07143	46.9751	-1.90437e-06	-4.90153e-06	1.79138e-09	-4.90333e-06	0.260338	13817.4	5.04988	13822.4
316.316	5.60953	5.8451	8.10136	-46.1781	8.52105	0.260234	-0.0193038	86.081	44.81	1	10	0.00493787	0.000609511	0	-1.61456e-05	3.42479e-07	7.29322e-06	-113.44	0.0119657	-0.00475978	0.0109783	-46.2561	8.10599	5.60477	5.85608	0.0854694	0.0890587	0.123436	46.1781	44810	43004.1	62107.1	-43.8219	0.0000000E+000	0.0000000E+000	0.0000000E+000	43.8219	0.0000000E+000	0.0000000E+000	0.0000000E+000	-43.8219	0.0000000E+000	0.0000000E+000	0.0000000E+000	-46.1781	0.0000000E+000	0.0000000E+000	0.0000000E+000	46.1781	0.959698	43.8219	-2.62753e-06	-5.02352e-06	-6.61117e-12	-5.02352e-06	0.260234	13481	0.0177415	13480.9
215.345	6.85841	7.6176	10.2502	-48.0021	8.97154	0.260248	-0.0188903	97.0215	53.585	1	10	0.00492532	0.000480511	0	-1.80705e-05	0.000191251	8.13156e-06	106.701	0.0169227	-0.00486314	-0.0162089	-47.9616	10.2349	6.85355	7.60139	0.0652774	0.0725032	0.0975595	48.0021	53585	48244.6	72103.4	-41.9979	0.0000000E+000	0.0000000E+000	0.0000000E+000	41.9979	0.0000000E+000	0.0000000E+000	0.0000000E+000	-41.9979	0.0000000E+000	0.0000000E+000	0.0000000E+000	-48.0021	0.0000000E+000	0.0000000E+000	0.0000000E+000	48.0021	0.900338	41.9979	-1.92489e-06	-4.91617e-06	-3.6128e-09	-4.91256e-06	0.260057	13776.8	10.1243	13766.6
146.737	8.74451	9.74565	13.0937	-48.0992	9.4175	0.260236	-0.0198701	111.293	61.6549	1	10	0.00492194	0.000375902	0	-1.98642e-05	1.94333e-05	3.6373e-06	-137.662	0.00967618	-0.00715253	0.00651689	-48.1416	13.0937	8.73736	9.75217	0.051005	0.0568445	0.0763728	48.0992	61654.9	55321.3	82835.8	-41.9008	0.0000000E+000	0.0000000E+000	0.0000000E+000	41.9008	0.0000000E+000	0.0000000E+000	0.0000000E+000	-41.9008	0.0000000E+000	0.0000000E+000	0.0000000E+000	-48.0992	0.0000000E+000	0.0000000E+000	0.0000000E+000	48.0992	0.897273	41.9008	-1.79371e-06	-5.1709e-06	-3.86142e-10	-5.17052e-06	0.260216	13096.9	0.978019	13095.9
100.032	11.5599	11.9927	16.657	-46.0529	9.86878	0.260242	-0.0195795	132.667	68.771	1	10	0.00491057	0.000294805	0	-2.25448e-05	-3.78392e-05	1.0881e-05	-128.334	0.036909	-0.0228926	0.0289518	-46.1787	16.662	11.537	12.0217	0.0416638	0.0432239	0.0600349	46.0529	68771	66288.8	95517.9	-43.9471	0.0000000E+000	0.0000000E+000	0.0000000E+000	43.9471	0.0000000E+000	0.0000000E+000	0.0000000E+000	-43.9471	0.0000000E+000	0.0000000E+000	0.0000000E+000	-46.0529	0.0000000E+000	0.0000000E+000	0.0000000E+000	46.0529	0.963906	43.9471	-2.68064e-06	-5.09541e-06	7.40873e-10	-5.09616e-06	0.26028	13291.5	1.93259	13293.5
68.104	15.5079	13.9622	20.8671	-41.9976	10.5824	0.260286	-0.00658826	167.376	74.9334	1	11	0.00492179	0.000235863	0	-2.47316e-05	0.000286705	8.42493e-06	125.071	0.0357196	-0.0205243	-0.0292343	-41.9756	20.8323	15.4874	13.9329	0.0356145	0.0320647	0.0479223	41.9976	74933.4	83229.1	111991	-48.0024	0.0000000E+000	0.0000000E+000	0.0000000E+000	48.0024	0.0000000E+000	0.0000000E+000	0.0000000E+000	-48.0024	0.0000000E+000	0.0000000E+000	0.0000000E+000	-41.9976	0.0000000E+000	0.0000000E+000	0.0000000E+000	41.9976	1.11071	48.0024	-2.18675e-06	-1.71483e-06	-1.88889e-09	-1.71294e-06	0.259999	39507.5	43.5176	39464
46.4415	20.2229	15.131	25.2569	-36.8042	11.0187	0.260282	-0.00705545	226.489	81.2867	1	11	0.00491613	0.000194645	0	-2.55037e-05	0.000363069	1.27881e-05	123.128	0.0656998	-0.0359061	-0.0550201	-36.7529	25.1952	20.187	15.076	0.0317017	0.0237195	0.0395931	36.8042	81286.7	108642	135685	-53.1958	0.0000000E+000	0.0000000E+000	0.0000000E+000	53.1958	0.0000000E+000	0.0000000E+000	0.0000000E+000	-53.1958	0.0000000E+000	0.0000000E+000	0.0000000E+000	-36.8042	0.0000000E+000	0.0000000E+000	0.0000000E+000	36.8042	1.33652	53.1958	-7.72105e-07	-1.8364e-06	-2.56161e-09	-1.83384e-06	0.259919	36890.9	51.4593	36839.4
31.6296	25.1635	15.0656	29.3287	-30.9093	11.4475	0.260275	-0.0071028	333.996	88.1306	1	11	0.00490581	0.00016727	0	-2.61974e-05	-5.69301e-05	7.55681e-06	-19.3857	0.0451773	0.042616	0.0149955	-30.8916	29.373	25.2061	15.0806	0.029254	0.0175146	0.0340963	30.9093	88130.6	147202	171567	-59.0907	0.0000000E+000	0.0000000E+000	0.0000000E+000	59.0907	0.0000000E+000	0.0000000E+000	0.0000000E+000	-59.0907	0.0000000E+000	0.0000000E+000	0.0000000E+000	-30.9093	0.0000000E+000	0.0000000E+000	0.0000000E+000	30.9093	1.67027	59.0907	-6.93697e-07	-1.84868e-06	4.04363e-10	-1.84909e-06	0.260332	36644	8.01516	36652
21.5517	29.6387	13.9919	32.7754	-25.2711	11.8684	0.26027	-0.00713076	527.792	96.1874	1	11	0.00490465	0.000149644	0	-2.70625e-05	3.85242e-05	7.11681e-06	-59.0349	0.0475581	0.0244694	0.0407802	-25.3172	32.8149	29.6632	14.0326	0.0275908	0.0130251	0.0305107	25.2711	96187.4	203752	225315	-64.7289	0.0000000E+000	0.0000000E+000	0.0000000E+000	64.7289	0.0000000E+000	0.0000000E+000	0.0000000E+000	-64.7289	0.0000000E+000	0.0000000E+000	0.0000000E+000	-25.2711	0.0000000E+000	0.0000000E+000	0.0000000E+000	25.2711	2.11828	64.7289	-8.65176e-07	-1.85592e-06	-2.74707e-10	-1.85565e-06	0.260231	36499.6	5.40253	36494.2
14.6852	33.3918	12.4226	35.6277	-20.4064	12.3291	0.260284	-0.00647715	872.429	106.066	1	11	0.00491285	0.000137894	0	-2.82921e-05	0.000114888	6.9659e-06	-36.4977	0.0505163	0.0406091	0.0300467	-20.4289	35.6762	33.4324	12.4526	0.0263066	0.00978669	0.028068	20.4064	106066	285106	304196	-69.5936	0.0000000E+000	0.0000000E+000	0.0000000E+000	69.5936	0.0000000E+000	0.0000000E+000	0.0000000E+000	-69.5936	0.0000000E+000	0.0000000E+000	0.0000000E+000	-20.4064	0.0000000E+000	0.0000000E+000	0.0000000E+000	20.4064	2.68799	69.5936	-1.22954e-06	-1.6859e-06	-7.44144e-10	-1.68516e-06	0.260169	40185	17.7373	40167.2
10.0032	36.3704	10.7383	37.9225	-16.4492	12.7799	0.26028	-0.00650586	1481.65	118.802	1	11	0.00492258	0.000129806	0	-2.93983e-05	3.85242e-05	1.13136e-05	76.8698	0.0871575	0.0197992	-0.0848789	-16.3177	37.9176	36.3902	10.6534	0.0252903	0.00746692	0.0263696	16.4492	118802	402379	419550	-73.5508	0.0000000E+000	0.0000000E+000	0.0000000E+000	73.5508	0.0000000E+000	0.0000000E+000	0.0000000E+000	-73.5508	0.0000000E+000	0.0000000E+000	0.0000000E+000	-16.4492	0.0000000E+000	0.0000000E+000	0.0000000E+000	16.4492	3.38698	73.5508	-1.10622e-06	-1.69334e-06	-2.50633e-10	-1.69309e-06	0.260241	40006.9	5.92145	40001
6.81719	38.5248	9.05444	39.5745	-13.2261	13.1195	0.260285	-0.00601594	2578.42	134.972	1	11	0.00490674	0.000123987	0	-3.0203e-05	0.00017216	5.12081e-06	2.20196	0.041301	0.0412706	-0.00158687	-13.2102	39.6144	38.5661	9.05285	0.0245985	0.00578136	0.0252688	13.2261	134972	574280	589928	-76.7739	0.0000000E+000	0.0000000E+000	0.0000000E+000	76.7739	0.0000000E+000	0.0000000E+000	0.0000000E+000	-76.7739	0.0000000E+000	0.0000000E+000	0.0000000E+000	-13.2261	0.0000000E+000	0.0000000E+000	0.0000000E+000	13.2261	4.2548	76.7739	-8.04736e-07	-1.56586e-06	-1.0357e-09	-1.56482e-06	0.260113	43266	28.6173	43237.3
4.63925	40.2291	7.85816	40.9894	-11.0527	13.6035	0.260287	-0.00601556	4365.68	160.454	1	11	0.00490486	0.000119662	0	-2.96299e-05	7.67059e-05	6.70335e-06	80.6144	0.0560192	0.00913552	-0.0552692	-10.9744	40.9878	40.2382	7.80289	0.023944	0.00467711	0.0243966	11.0527	160454	821428	836953	-78.9473	0.0000000E+000	0.0000000E+000	0.0000000E+000	78.9473	0.0000000E+000	0.0000000E+000	0.0000000E+000	-78.9473	0.0000000E+000	0.0000000E+000	0.0000000E+000	-11.0527	0.0000000E+000	0.0000000E+000	0.0000000E+000	11.0527	5.1194	78.9473	5.73115e-07	-1.56577e-06	-4.61429e-10	-1.56531e-06	0.26021	43268.8	12.7512	43256.1
3.1604	41.8669	6.82056	42.4189	-9.25279	14.2964	0.260291	-0.00537426	7383.44	190.889	1	11	0.00490752	0.000115692	0	-3.0498e-05	0.000343978	4.59762e-06	20.0966	0.0397402	0.0373206	-0.0136549	-9.22651	42.4535	41.9042	6.8069	0.0232677	0.00379055	0.0235744	9.25279	190889	1.17174e+06	1.18719e+06	-80.7472	0.0000000E+000	0.0000000E+000	0.0000000E+000	80.7472	0.0000000E+000	0.0000000E+000	0.0000000E+000	-80.7472	0.0000000E+000	0.0000000E+000	0.0000000E+000	-9.25279	0.0000000E+000	0.0000000E+000	0.0000000E+000	9.25279	6.13834	80.7472	-8.68088e-07	-1.39887e-06	-1.84863e-09	-1.39702e-06	0.259947	48432.9	64.0047	48368.9
2.15577	43.0792	6.1358	43.514	-8.10615	15.3	0.260292	-0.00471375	12032.3	239.239	1	11	0.00490614	0.000112749	0	-3.35816e-05	1.94333e-05	2.14848e-06	-90.0475	0.0190555	-1.57861e-05	0.0190555	-8.13099	43.5167	43.0792	6.15486	0.0227515	0.00324051	0.0229811	8.10615	239239	1.67969e+06	1.69664e+06	-81.8939	0.0000000E+000	0.0000000E+000	0.0000000E+000	81.8939	0.0000000E+000	0.0000000E+000	0.0000000E+000	-81.8939	0.0000000E+000	0.0000000E+000	0.0000000E+000	-8.10615	0.0000000E+000	0.0000000E+000	0.0000000E+000	8.10615	7.02096	81.8939	-3.08359e-06	-1.22695e-06	-9.16039e-11	-1.22686e-06	0.260272	55219.7	4.12269	55215.5
1.46631	44.2605	5.50879	44.602	-7.09472	17.4895	0.260283	-0.00472697	19703.3	300.567	1	12	0.00491007	0.000110086	0	-3.88158e-05	3.85242e-05	3.26819e-06	-46.0009	0.0296875	0.0206223	0.0213557	-7.11865	44.6251	44.2811	5.53015	0.0222489	0.00276916	0.0224205	7.09472	300568	2.41492e+06	2.43355e+06	-82.9053	0.0000000E+000	0.0000000E+000	0.0000000E+000	82.9053	0.0000000E+000	0.0000000E+000	0.0000000E+000	-82.9053	0.0000000E+000	0.0000000E+000	0.0000000E+000	-7.09472	0.0000000E+000	0.0000000E+000	0.0000000E+000	7.09472	8.03452	82.9053	-5.23423e-06	-1.23035e-06	-1.82103e-10	-1.23017e-06	0.260245	55063.5	8.14986	55055.3
1.00006	45.3972	5.07725	45.6802	-6.38148	19.6179	0.260288	-0.00473561	31344.7	387.226	1	12	0.00490942	0.000107474	0	-4.09698e-05	-0.000209657	3.20046e-06	14.5109	0.0297791	0.0288291	-0.00746155	-6.36817	45.708	45.426	5.06979	0.0217557	0.00243317	0.0218913	6.38148	387227	3.4623e+06	3.48389e+06	-83.6185	0.0000000E+000	0.0000000E+000	0.0000000E+000	83.6185	0.0000000E+000	0.0000000E+000	0.0000000E+000	-83.6185	0.0000000E+000	0.0000000E+000	0.0000000E+000	-6.38148	0.0000000E+000	0.0000000E+000	0.0000000E+000	6.38148	8.94129	83.6185	-2.15398e-06	-1.23262e-06	9.92852e-10	-1.23361e-06	0.260497	54964	44.2724	55008.2
0.681362	46.3788	4.80611	46.6271	-5.91629	22.7301	0.26029	-0.00463767	48601.4	516.367	1	12	0.00491026	0.000105309	0	-4.13346e-05	0.000267614	1.79755e-06	-71.7437	0.0170693	0.00534727	0.0162101	-5.93542	46.6341	46.3841	4.82232	0.0213325	0.00221063	0.0214467	5.91629	516367	4.98292e+06	5.0096e+06	-84.0837	0.0000000E+000	0.0000000E+000	0.0000000E+000	84.0837	0.0000000E+000	0.0000000E+000	0.0000000E+000	-84.0837	0.0000000E+000	0.0000000E+000	0.0000000E+000	-5.91629	0.0000000E+000	0.0000000E+000	0.0000000E+000	5.91629	9.64997	84.0837	-3.6475e-07	-1.20714e-06	-1.24111e-09	-1.2059e-06	0.260023	56125.3	57.7045	56067.6
0.464091	47.2823	4.61559	47.507	-5.57542	27.2868	0.260285	-0.00431369	74300.2	701.341	1	12	0.00490791	0.000103309	0	-4.02819e-05	5.7615e-05	2.34065e-06	87.3616	0.0226567	0.00104294	-0.0226327	-5.54813	47.5059	47.2833	4.59296	0.0209499	0.00204509	0.0210495	5.57542	701341	7.18456e+06	7.21871e+06	-84.4246	0.0000000E+000	0.0000000E+000	0.0000000E+000	84.4246	0.0000000E+000	0.0000000E+000	0.0000000E+000	-84.4246	0.0000000E+000	0.0000000E+000	0.0000000E+000	-5.57542	0.0000000E+000	0.0000000E+000	0.0000000E+000	5.57542	10.244	84.4246	1.0527e-06	-1.12279e-06	-2.48533e-10	-1.12254e-06	0.260228	60339.4	13.3563	60326
0.316193	48.2241	4.57913	48.441	-5.42427	33.9618	0.260287	-0.00363085	109922	982.254	1	12	0.00490832	0.000101326	0	-4.09808e-05	3.85242e-05	1.55575e-06	102.879	0.015354	-0.00342241	-0.0149677	-5.40703	48.4362	48.2207	4.56416	0.0205512	0.00195144	0.0206437	5.42427	982254	1.03444e+07	1.03909e+07	-84.5757	0.0000000E+000	0.0000000E+000	0.0000000E+000	84.5757	0.0000000E+000	0.0000000E+000	0.0000000E+000	-84.5757	0.0000000E+000	0.0000000E+000	0.0000000E+000	-5.42427	0.0000000E+000	0.0000000E+000	0.0000000E+000	5.42427	10.5313	84.5757	-6.98933e-07	-9.45064e-07	-1.39875e-10	-9.44924e-07	0.260249	71687.7	10.6102	71677.1
0.215268	49.109	4.76015	49.3392	-5.53639	43.7542	0.260283	-0.00286793	155318	1445.7	1	12	0.00490856	9.94861e-05	0	-4.88191e-05	0.000114888	2.67745e-06	21.7596	0.0269129	0.0249952	-0.00997694	-5.52207	49.3631	49.134	4.75017	0.0201733	0.0019554	0.0202679	5.53639	1.4457e+06	1.49148e+07	1.49847e+07	-84.4636	0.0000000E+000	0.0000000E+000	0.0000000E+000	84.4636	0.0000000E+000	0.0000000E+000	0.0000000E+000	-84.4636	0.0000000E+000	0.0000000E+000	0.0000000E+000	-5.53639	0.0000000E+000	0.0000000E+000	0.0000000E+000	5.53639	10.3167	84.4636	-7.83826e-06	-7.46472e-07	-3.29489e-10	-7.46142e-07	0.260168	90756.5	40.0595	90716.5
0.146929	49.9333	5.20697	50.2041	-5.9532	58.0925	0.260285	-0.00213741	208031	2237.8	1	12	0.00490919	9.77847e-05	0	-6.94872e-05	-3.78392e-05	1.53775e-06	1.31639	0.0157258	0.0157217	-0.000361274	-5.95093	50.2197	49.949	5.20661	0.0198113	0.00206589	0.0199187	5.9532	2.2378e+06	2.14598e+07	2.15762e+07	-84.0468	0.0000000E+000	0.0000000E+000	0.0000000E+000	84.0468	0.0000000E+000	0.0000000E+000	0.0000000E+000	-84.0468	0.0000000E+000	0.0000000E+000	0.0000000E+000	-5.9532	0.0000000E+000	0.0000000E+000	0.0000000E+000	5.9532	9.5897	84.0468	-2.06682e-05	-5.56336e-07	8.08778e-11	-5.56417e-07	0.260323	121776	17.7033	121794
0.0999041	50.8205	5.91592	51.1636	-6.63982	79.1698	0.260278	-0.00178854	269287	3600.28	1	12	0.00490981	9.5963e-05	0	-0.000106576	5.7615e-05	1.79963e-06	13.3022	0.0187534	0.0182503	-0.00431491	-6.63266	51.1813	50.8387	5.9116	0.019414	0.00225995	0.0195451	6.63982	3.60028e+06	3.09281e+07	3.11369e+07	-83.3602	0.0000000E+000	0.0000000E+000	0.0000000E+000	83.3602	0.0000000E+000	0.0000000E+000	0.0000000E+000	-83.3602	0.0000000E+000	0.0000000E+000	0.0000000E+000	-6.63982	0.0000000E+000	0.0000000E+000	0.0000000E+000	6.63982	8.59046	83.3602	-3.70885e-05	-4.65518e-07	-1.03047e-10	-4.65415e-07	0.26022	145525	32.2134	145493
0.0680626	51.8976	7.03482	52.3722	-7.7195	110.096	0.260282	-0.00144795	332398	5997.39	1	12	0.00490667	9.36883e-05	0	-0.000155376	0.000363069	1.68657e-06	-66.1523	0.018002	0.00727833	0.016465	-7.73628	52.3817	51.9049	7.05128	0.018921	0.00256478	0.0190941	7.7195	5.99739e+06	4.42442e+07	4.46489e+07	-82.2805	0.0000000E+000	0.0000000E+000	0.0000000E+000	82.2805	0.0000000E+000	0.0000000E+000	0.0000000E+000	-82.2805	0.0000000E+000	0.0000000E+000	0.0000000E+000	-7.7195	0.0000000E+000	0.0000000E+000	0.0000000E+000	7.7195	7.37725	82.2805	-4.88002e-05	-3.76875e-07	-5.25705e-10	-3.76349e-07	0.259919	179759	250.747	179508
0.0464052	53.382	8.67113	54.0817	-9.22629	155.447	0.260284	-0.00161838	395528	10167.9	1	12	0.00490902	9.07706e-05	0	-0.000204574	3.85242e-05	2.34936e-06	-22.4374	0.0258824	0.023923	0.00987864	-9.23255	54.1069	53.4059	8.68101	0.0182513	0.00296467	0.0184906	9.22629	1.01679e+07	6.25962e+07	6.34167e+07	-80.7737	0.0000000E+000	0.0000000E+000	0.0000000E+000	80.7737	0.0000000E+000	0.0000000E+000	0.0000000E+000	-80.7737	0.0000000E+000	0.0000000E+000	0.0000000E+000	-9.22629	0.0000000E+000	0.0000000E+000	0.0000000E+000	9.22629	6.15629	80.7737	-4.91982e-05	-4.21238e-07	-6.23467e-11	-4.21175e-07	0.260245	160830	23.8042	160806
0.0315922	55.04	11.0885	56.1458	-11.3905	222.053	0.260275	-0.00169713	454325	17720.6	1	12	0.00491137	8.74752e-05	0	-0.000224071	0.000191251	3.78197e-06	-27.7644	0.0432348	0.0382572	0.0201403	-11.403	56.1873	55.0782	11.1087	0.01746	0.00351754	0.0178108	11.3905	1.77206e+07	8.79597e+07	8.97269e+07	-78.6095	0.0000000E+000	0.0000000E+000	0.0000000E+000	78.6095	0.0000000E+000	0.0000000E+000	0.0000000E+000	-78.6095	0.0000000E+000	0.0000000E+000	0.0000000E+000	-11.3905	0.0000000E+000	0.0000000E+000	0.0000000E+000	11.3905	4.96368	78.6095	-1.94968e-05	-4.41721e-07	-3.24578e-10	-4.41396e-07	0.260084	153362	112.691	153249
0.0215268	56.8143	13.9342	58.4981	-13.7803	319.792	0.260278	-0.00127712	530591	30105	1	12	0.00490893	8.39161e-05	0	-0.00017897	0.000382159	1.94531e-06	11.1851	0.0231816	0.0227413	-0.00449673	-13.7707	58.5191	56.837	13.9297	0.0166025	0.00407191	0.0170946	13.7803	3.0105e+07	1.22748e+08	1.26386e+08	-76.2197	0.0000000E+000	0.0000000E+000	0.0000000E+000	76.2197	0.0000000E+000	0.0000000E+000	0.0000000E+000	-76.2197	0.0000000E+000	0.0000000E+000	0.0000000E+000	-13.7803	0.0000000E+000	0.0000000E+000	0.0000000E+000	13.7803	4.07733	76.2197	4.5101e-05	-3.32407e-07	-4.88065e-10	-3.31919e-07	0.259896	203800	299.234	203501
0.0146812	59.0902	17.2545	61.5578	-16.2779	463.095	0.26028	-0.000600964	628286	49362.2	1	12	0.00490932	7.97513e-05	0	-5.26214e-05	0.000153069	2.63688e-06	-18.7674	0.0330638	0.0313059	0.0106375	-16.2793	61.5909	59.1215	17.2651	0.0155937	0.00455339	0.0162449	16.2779	4.93622e+07	1.69047e+08	1.76107e+08	-73.7221	0.0000000E+000	0.0000000E+000	0.0000000E+000	73.7221	0.0000000E+000	0.0000000E+000	0.0000000E+000	-73.7221	0.0000000E+000	0.0000000E+000	0.0000000E+000	-16.2779	0.0000000E+000	0.0000000E+000	0.0000000E+000	16.2779	3.42463	73.7221	0.000126349	-1.56419e-07	-9.19891e-11	-1.56327e-07	0.260127	433104	254.706	432850
0.0100092	62.1123	21.7826	65.8212	-19.3256	673.277	0.260279	-6.92246e-05	729982	79946.8	1	12	0.00490957	7.45895e-05	0	0.000112477	0.000343978	2.11901e-06	14.967	0.028409	0.0274452	-0.00733696	-19.3117	65.8446	62.1398	21.7753	0.0143366	0.00502781	0.0151927	19.3256	7.99468e+07	2.27965e+08	2.41578e+08	-70.6744	0.0000000E+000	0.0000000E+000	0.0000000E+000	70.6744	0.0000000E+000	0.0000000E+000	0.0000000E+000	-70.6744	0.0000000E+000	0.0000000E+000	0.0000000E+000	-19.3256	0.0000000E+000	0.0000000E+000	0.0000000E+000	19.3256	2.85146	70.6744	0.000165098	-1.80177e-08	-2.38117e-11	-1.79939e-08	0.259935	3.75993e+06	4969.01	3.75496e+06