File: txt/18479_R301_UA693_SOC00_C03.mpt
EC-Lab ASCII FILE
Nb header lines : 65

Potentio Electrochemical Impedance Spectroscopy

Run on channel : 3 (SN 65921)
User :
CE vs. WE compliance from -10 V to 10 V
Electrode connection : standard
Potential control : Ewe
Ewe ctrl range : min = -10.00 V, max = 10.00 V
Safety Limits :
	Do not start on E overload
Acquisition started on : 10/21/2025 09:25:55.866
Technique started on : 10/21/2025 09:25:57.921
Loaded Setting File :  C:\Users\Celltest\OneDrive - store-dot.com\Documents\EC-Lab\Data\@Biologic Test Protocols\anode half cell EIS SOC00.mps
Saved on :
	File : 18479_R301_UA693_SOC00_C03.mpr
	Directory : C:\Users\Celltest\OneDrive - store-dot.com\Documents\EC-Lab\Data\Gyutae\
	Host : 169.254.61.224
Device : VMP-3e (SN .003165)
Address : USB
EC-LAB for windows v11.62 (software)
Internet server v27.00 (firmware)
Command interpretor v12.03 (firmware)
Electrode material :
Initial state :
Electrolyte :
Comments :
Electrode surface area : 0.001 cm²
Characteristic mass : 0.001 g
Equivalent Weight : 0.000 g/eq.
Density : 0.000 g/cm3
Volume (V) : 0.001 cm³
Record Ece
Cycle Definition : Charge/Discharge alternance
Mode                Single sine
E (V)               0.0000
vs.                 Eoc
tE (h:m:s)          0:00:0.0000
record              0
dI                  0.000
unit dI             mA
dt (s)              0.000
fi                  100.000
unit fi             kHz
ff                  10.000
unit ff             mHz
Nd                  6
Points              per decade
spacing             Logarithmic
Va (mV)             5.0
pw                  0.10
Na                  2
corr                0
E range min (V)     -10.000
E range max (V)     10.000
I Range             Auto
Bandwidth           5
nc cycles           0
goto Ns'            0
nr cycles           0
inc. cycle          0

freq/Hz	Re(Z)/Ohm	-Im(Z)/Ohm	|Z|/Ohm	Phase(Z)/deg	time/s	<Ewe>/V	<I>/mA	Cs/µF	Cp/µF	cycle number	I Range	|Ewe|/V	|I|/A	Ns	(Q-Qo)/mA.h	<Ece>/V	|Ece|/V	Phase(Zce)/deg	|Zce|/Ohm	Re(Zce)/Ohm	-Im(Zce)/Ohm	Phase(Zwe-ce)/deg	|Zwe-ce|/Ohm	Re(Zwe-ce)/Ohm	-Im(Zwe-ce)/Ohm	Re(Y)/Ohm-1	Im(Y)/Ohm-1	|Y|/Ohm-1	Phase(Y)/deg	Re(C)/nF	Im(C)/nF	|C|/nF	Phase(C)/deg	Re(M)	Im(M)	|M|	Phase(M)/deg	Re(Permittivity)	Im(Permittivity)	|Permittivity|	Phase(Permittivity)/deg	Re(Resistivity)/Ohm.cm	Im(Resistivity)/Ohm.cm	|Resistivity|/Ohm.cm	Phase(Resistivity)/deg	Re(Conductivity)/mS/cm	Im(Conductivity)/mS/cm	|Conductivity|/mS/cm	Phase(Conductivity)/deg	Tan(Delta)	Loss Angle(Delta)/deg	dq/mA.h	Pwe/W	Pce/W	Pwe-ce/W	<Ewe-Ece>/V	Rwe/Ohm	Rce/Ohm	Rwe-ce/Ohm		Ewe-Ece/V
100004	1.38858	0.547408	1.49259	-21.5154	2.05453	0.264207	0.0333714	2.90732	0.391054	1	9	0.00495492	0.00331969	0	5.85009e-06	-2.32329e-05	3.17193e-05	77.8473	0.00955489	0.00201147	-0.00934076	-21.1531	1.49106	1.39059	0.538067	0.623294	0.245715	0.669978	21.5154	391.054	991.966	1066.26	-68.4846	0.0000000E+000	0.0000000E+000	0.0000000E+000	68.4846	0.0000000E+000	0.0000000E+000	0.0000000E+000	-68.4846	0.0000000E+000	0.0000000E+000	0.0000000E+000	-21.5154	0.0000000E+000	0.0000000E+000	0.0000000E+000	21.5154	2.53665	68.4846	5.85009e-06	8.81696e-06	-7.75313e-10	8.81773e-06	0.264231	7917.19	0.696192	7917.88
68132	1.53781	0.633574	1.66321	-22.3915	2.56155	0.264196	0.0326255	3.68698	0.53502	1	9	0.00512824	0.00308333	0	2.28632e-05	7.22374e-05	2.31384e-05	74.8539	0.00750436	0.00196075	-0.00724368	-22.1349	1.66228	1.53977	0.626331	0.555913	0.229035	0.601245	22.3915	535.02	1298.6	1404.5	-67.6085	0.0000000E+000	0.0000000E+000	0.0000000E+000	67.6085	0.0000000E+000	0.0000000E+000	0.0000000E+000	-67.6085	0.0000000E+000	0.0000000E+000	0.0000000E+000	-22.3915	0.0000000E+000	0.0000000E+000	0.0000000E+000	22.3915	2.4272	67.6085	1.70131e-05	8.61954e-06	2.35678e-09	8.61718e-06	0.264124	8097.85	2.21414	8095.64
46420.4	1.69867	0.711025	1.84147	-22.7131	2.94456	0.264209	0.0374364	4.82199	0.718895	1	9	0.00541112	0.00293847	0	1.81677e-05	3.40493e-05	1.88125e-05	23.3997	0.00640213	0.0058756	-0.00254255	-22.5699	1.84592	1.70454	0.708483	0.50093	0.209678	0.543043	22.7131	718.895	1717.47	1861.86	-67.2869	0.0000000E+000	0.0000000E+000	0.0000000E+000	67.2869	0.0000000E+000	0.0000000E+000	0.0000000E+000	-67.2869	0.0000000E+000	0.0000000E+000	0.0000000E+000	-22.7131	0.0000000E+000	0.0000000E+000	0.0000000E+000	22.7131	2.38904	67.2869	-4.69546e-06	9.89101e-06	1.27468e-09	9.88973e-06	0.264175	7057.54	0.909525	7056.63
31621.1	1.86952	0.807902	2.03662	-23.3713	3.32754	0.2642	0.0435898	6.22994	0.98035	1	9	0.00542484	0.00266365	0	1.88602e-05	0.00012952	1.22897e-05	34.5955	0.00461387	0.00379805	-0.00261966	-23.2614	2.03907	1.87332	0.805283	0.450724	0.194777	0.49101	23.3713	980.35	2268.58	2471.34	-66.6287	0.0000000E+000	0.0000000E+000	0.0000000E+000	66.6287	0.0000000E+000	0.0000000E+000	0.0000000E+000	-66.6287	0.0000000E+000	0.0000000E+000	0.0000000E+000	-23.3713	0.0000000E+000	0.0000000E+000	0.0000000E+000	23.3713	2.31405	66.6287	6.92445e-07	1.15164e-05	5.64573e-09	1.15108e-05	0.26407	6061.04	2.97133	6058.07
21544.7	2.06463	0.891361	2.24883	-23.3512	3.71053	0.264199	0.0319915	8.28755	1.30203	1	9	0.00529145	0.00235298	0	2.17228e-05	1.49552e-05	5.94867e-06	32.9797	0.00252814	0.00212077	-0.00137618	-23.2977	2.25023	2.06676	0.889985	0.408253	0.176255	0.444676	23.3512	1302.03	3015.85	3284.91	-66.6488	0.0000000E+000	0.0000000E+000	0.0000000E+000	66.6488	0.0000000E+000	0.0000000E+000	0.0000000E+000	-66.6488	0.0000000E+000	0.0000000E+000	0.0000000E+000	-23.3512	0.0000000E+000	0.0000000E+000	0.0000000E+000	23.3512	2.31627	66.6488	2.86265e-06	8.45211e-06	4.7844e-10	8.45163e-06	0.264184	8258.41	0.467476	8257.95
14678.6	2.2724	0.985371	2.47685	-23.4428	4.09355	0.264189	0.0328865	11.0036	1.74155	1	9	0.0051915	0.00209601	0	1.99108e-05	-0.000271456	1.06918e-05	-41.0842	0.00510102	0.00384487	0.00335223	-23.4784	2.48171	2.27625	0.988723	0.370413	0.16062	0.403739	23.4428	1741.55	4016.27	4377.6	-66.5572	0.0000000E+000	0.0000000E+000	0.0000000E+000	66.5572	0.0000000E+000	0.0000000E+000	0.0000000E+000	-66.5572	0.0000000E+000	0.0000000E+000	0.0000000E+000	-23.4428	0.0000000E+000	0.0000000E+000	0.0000000E+000	23.4428	2.30614	66.5572	-1.81203e-06	8.68824e-06	-8.92723e-09	8.69717e-06	0.26446	8033.34	8.25432	8041.6
10002.2	2.50334	1.10918	2.73806	-23.8973	4.47656	0.264199	0.0367277	14.3456	2.35418	1	9	0.00518763	0.00189464	0	2.11443e-05	-4.13882e-06	1.01095e-05	-11.4336	0.00533586	0.00522997	0.00105773	-23.8732	2.74327	2.50857	1.11024	0.333912	0.147951	0.365222	23.8973	2354.18	5313.2	5811.39	-66.1027	0.0000000E+000	0.0000000E+000	0.0000000E+000	66.1027	0.0000000E+000	0.0000000E+000	0.0000000E+000	-66.1027	0.0000000E+000	0.0000000E+000	0.0000000E+000	-23.8973	0.0000000E+000	0.0000000E+000	0.0000000E+000	23.8973	2.25692	66.1027	1.23351e-06	9.70343e-06	-1.52009e-10	9.70358e-06	0.264203	7193.44	0.112689	7193.56
6810.42	2.78298	1.24181	3.04747	-24.0472	4.85954	0.264203	0.0369515	18.8187	3.12481	1	9	0.00497299	0.00163184	0	2.43721e-05	0.00012952	8.9091e-05	-134.099	0.0545953	-0.0379925	0.0392073	-25.0173	3.02919	2.74499	1.28102	0.299662	0.133714	0.328141	24.0472	3124.81	7002.89	7668.44	-65.9528	0.0000000E+000	0.0000000E+000	0.0000000E+000	65.9528	0.0000000E+000	0.0000000E+000	0.0000000E+000	-65.9528	0.0000000E+000	0.0000000E+000	0.0000000E+000	-24.0472	0.0000000E+000	0.0000000E+000	0.0000000E+000	24.0472	2.24106	65.9528	3.22779e-06	9.76271e-06	4.78594e-09	9.75792e-06	0.264074	7150.01	3.50513	7146.5
4646	3.02669	1.41387	3.34064	-25.0389	5.12461	0.26417	0.0284485	24.2287	4.34	1	9	0.00494555	0.00148042	0	2.62177e-05	-0.000195079	4.10145e-06	-14.2666	0.00277047	0.00268503	0.000682738	-25.03	3.34337	3.02938	1.41455	0.271211	0.126692	0.299343	25.0389	4340	9290.71	10254.4	-64.9611	0.0000000E+000	0.0000000E+000	0.0000000E+000	64.9611	0.0000000E+000	0.0000000E+000	0.0000000E+000	-64.9611	0.0000000E+000	0.0000000E+000	0.0000000E+000	-25.0389	0.0000000E+000	0.0000000E+000	0.0000000E+000	25.0389	2.14071	64.9611	1.84558e-06	7.51525e-06	-5.54973e-09	7.5208e-06	0.264365	9285.88	6.85727	9292.73
3163.08	3.32327	1.65012	3.71039	-26.4059	5.49868	0.264093	0.00241764	30.4927	6.03093	1	9	0.00488593	0.00131682	0	2.72401e-05	-0.000137797	8.00919e-06	23.5002	0.00608221	0.00557775	-0.00242529	-26.3342	3.71431	3.32885	1.64769	0.241394	0.11986	0.269513	26.4059	6030.93	12146.1	13560.9	-63.5941	0.0000000E+000	0.0000000E+000	0.0000000E+000	63.5941	0.0000000E+000	0.0000000E+000	0.0000000E+000	-63.5941	0.0000000E+000	0.0000000E+000	0.0000000E+000	-26.4059	0.0000000E+000	0.0000000E+000	0.0000000E+000	26.4059	2.01396	63.5941	1.02237e-06	6.38481e-07	-3.33144e-10	6.38814e-07	0.264231	109236	56.9967	109293
2155.69	3.58766	1.92248	4.07028	-28.1851	6.19482	0.264153	-0.00890145	38.4036	8.56736	1	10	0.00495204	0.00121663	0	2.96896e-05	1.49552e-05	8.64492e-06	82.0755	0.00710561	0.000979636	-0.00703775	-28.0912	4.06783	3.58863	1.91544	0.216552	0.116041	0.245683	28.1851	8567.36	15988	18138.8	-61.8149	0.0000000E+000	0.0000000E+000	0.0000000E+000	61.8149	0.0000000E+000	0.0000000E+000	0.0000000E+000	-61.8149	0.0000000E+000	0.0000000E+000	0.0000000E+000	-28.1851	0.0000000E+000	0.0000000E+000	0.0000000E+000	28.1851	1.86616	61.8149	2.44957e-06	-2.35134e-06	-1.33123e-10	-2.35121e-06	0.264138	29675.2	1.68009	29673.6
1468.59	3.91785	2.31302	4.54968	-30.5568	6.64606	0.264153	-0.00938621	46.8533	12.1098	1	10	0.00486416	0.00106912	0	2.77618e-05	-2.32329e-05	4.55733e-06	-22.234	0.00426268	0.00394574	0.00161296	-30.549	4.5539	3.92179	2.31463	0.189272	0.111742	0.219796	30.5568	12109.8	20511.9	23819.8	-59.4432	0.0000000E+000	0.0000000E+000	0.0000000E+000	59.4432	0.0000000E+000	0.0000000E+000	0.0000000E+000	-59.4432	0.0000000E+000	0.0000000E+000	0.0000000E+000	-30.5568	0.0000000E+000	0.0000000E+000	0.0000000E+000	30.5568	1.69382	59.4432	-1.92783e-06	-2.4794e-06	2.18069e-10	-2.47962e-06	0.264177	28142.7	2.47521	28145.2
1000.32	4.27888	2.87487	5.15497	-33.8962	7.09681	0.264158	-0.00858824	55.343	17.2126	1	10	0.00477531	0.00092635	0	2.6318e-05	1.49552e-05	7.20714e-06	4.11121	0.00778014	0.00776012	-0.000557778	-33.843	5.1611	4.28664	2.87432	0.161019	0.108185	0.193988	33.8962	17212.6	25618.8	30864.2	-56.1038	0.0000000E+000	0.0000000E+000	0.0000000E+000	56.1038	0.0000000E+000	0.0000000E+000	0.0000000E+000	-56.1038	0.0000000E+000	0.0000000E+000	0.0000000E+000	-33.8962	0.0000000E+000	0.0000000E+000	0.0000000E+000	33.8962	1.48837	56.1038	-1.44375e-06	-2.26865e-06	-1.28439e-10	-2.26853e-06	0.264143	30758.2	1.74136	30756.4
681.09	4.73527	3.63792	5.97137	-37.5337	7.54657	0.264142	-0.00835705	64.2336	23.8408	1	10	0.00470981	0.000788732	0	2.48763e-05	-0.000309644	7.49958e-06	138.333	0.0095084	-0.00710302	-0.00632113	-37.5271	5.96188	4.72816	3.6316	0.1328	0.102025	0.167466	37.5337	23840.8	31032.2	39132.9	-52.4663	0.0000000E+000	0.0000000E+000	0.0000000E+000	52.4663	0.0000000E+000	0.0000000E+000	0.0000000E+000	-52.4663	0.0000000E+000	0.0000000E+000	0.0000000E+000	-37.5337	0.0000000E+000	0.0000000E+000	0.0000000E+000	37.5337	1.30164	52.4663	-1.44177e-06	-2.20745e-06	2.58771e-09	-2.21004e-06	0.264452	31607.1	37.0518	31644.1
463.961	5.31293	4.72348	7.10904	-41.6388	7.99837	0.264147	-0.00799908	72.6235	32.0611	1	10	0.0046629	0.000655912	0	2.41275e-05	5.31434e-05	1.33652e-05	37.4455	0.0203766	0.0161776	-0.0123891	-41.4776	7.11293	5.32911	4.71109	0.105126	0.093463	0.140666	41.6388	32061.1	36062.1	48253.4	-48.3612	0.0000000E+000	0.0000000E+000	0.0000000E+000	48.3612	0.0000000E+000	0.0000000E+000	0.0000000E+000	-48.3612	0.0000000E+000	0.0000000E+000	0.0000000E+000	-41.6388	0.0000000E+000	0.0000000E+000	0.0000000E+000	41.6388	1.12479	48.3612	-7.48731e-07	-2.11293e-06	-4.25098e-10	-2.11251e-06	0.264094	33022.1	6.64368	33015.5
316.316	6.14834	6.1379	8.68769	-44.9513	8.44603	0.264152	-0.00881944	81.9745	40.9176	1	10	0.00462357	0.000532198	0	2.30233e-05	-6.1421e-05	1.10917e-05	-29.9586	0.0208413	0.0180566	0.0104076	-44.9158	8.70783	6.1664	6.14831	0.0814609	0.0813226	0.115105	44.9513	40917.6	40987.2	57915.5	-45.0487	0.0000000E+000	0.0000000E+000	0.0000000E+000	45.0487	0.0000000E+000	0.0000000E+000	0.0000000E+000	-45.0487	0.0000000E+000	0.0000000E+000	0.0000000E+000	-44.9513	0.0000000E+000	0.0000000E+000	0.0000000E+000	44.9513	1.0017	45.0487	-1.10427e-06	-2.32967e-06	5.41699e-10	-2.33021e-06	0.264213	29951.1	6.96427	29958
215.345	7.37376	8.02265	10.8966	-47.4133	8.89652	0.264153	-0.00880453	92.1231	49.9372	1	10	0.00460043	0.000422191	0	2.23961e-05	0.000110426	8.19628e-06	86.9869	0.0194137	0.00102046	-0.0193868	-47.3403	10.883	7.37478	8.00326	0.0621025	0.0675675	0.091772	47.4133	49937.2	45898.2	67826	-42.5867	0.0000000E+000	0.0000000E+000	0.0000000E+000	42.5867	0.0000000E+000	0.0000000E+000	0.0000000E+000	-42.5867	0.0000000E+000	0.0000000E+000	0.0000000E+000	-47.4133	0.0000000E+000	0.0000000E+000	0.0000000E+000	47.4133	0.919118	42.5867	-6.27173e-07	-2.32574e-06	-9.72245e-10	-2.32477e-06	0.264043	30002	12.5419	29989.4
146.737	9.36326	10.305	13.9235	-47.7413	9.34248	0.264153	-0.00904318	105.252	57.6542	1	10	0.00459908	0.000330311	0	2.17746e-05	-0.000309644	7.32576e-06	-0.366358	0.0221784	0.0221779	0.000141811	-47.6742	13.9385	9.38544	10.3051	0.0482981	0.0531559	0.071821	47.7413	57654.2	52385.3	77898.8	-42.2587	0.0000000E+000	0.0000000E+000	0.0000000E+000	42.2587	0.0000000E+000	0.0000000E+000	0.0000000E+000	-42.2587	0.0000000E+000	0.0000000E+000	0.0000000E+000	-47.7413	0.0000000E+000	0.0000000E+000	0.0000000E+000	47.7413	0.908613	42.2587	-6.21462e-07	-2.38879e-06	2.80016e-09	-2.39159e-06	0.264463	29210.2	34.2406	29244.5
100.032	12.2222	12.872	17.7502	-46.4832	9.79381	0.264143	-0.00974048	123.605	65.0008	1	10	0.00459806	0.000259042	0	2.03589e-05	-6.1421e-05	8.49524e-06	-69.2274	0.0327948	0.011631	0.030663	-46.524	17.7805	12.2339	12.9026	0.0387921	0.0408543	0.0563373	46.4832	65000.8	61719.7	89635	-43.5168	0.0000000E+000	0.0000000E+000	0.0000000E+000	43.5168	0.0000000E+000	0.0000000E+000	0.0000000E+000	-43.5168	0.0000000E+000	0.0000000E+000	0.0000000E+000	-46.4832	0.0000000E+000	0.0000000E+000	0.0000000E+000	46.4832	0.949522	43.5168	-1.41576e-06	-2.57288e-06	5.9827e-10	-2.57348e-06	0.264204	27118.1	6.30575	27124.4
68.104	16.2791	15.2832	22.329	-43.1926	10.5075	0.264178	-0.0061686	152.91	71.6345	1	11	0.00459992	0.000206007	0	1.89656e-05	9.13315e-05	3.93424e-06	-20.9272	0.0190977	0.0178379	0.00682133	-43.1741	22.3467	16.297	15.29	0.0326507	0.0306531	0.0447848	43.1926	71634.5	76302.6	104659	-46.8074	0.0000000E+000	0.0000000E+000	0.0000000E+000	46.8074	0.0000000E+000	0.0000000E+000	0.0000000E+000	-46.8074	0.0000000E+000	0.0000000E+000	0.0000000E+000	-43.1926	0.0000000E+000	0.0000000E+000	0.0000000E+000	43.1926	1.06517	46.8074	-1.39332e-06	-1.62961e-06	-5.63388e-10	-1.62905e-06	0.264087	42826.3	14.8059	42811.5
46.4415	21.3414	16.8908	27.2168	-38.3601	10.9436	0.264168	-0.00641733	202.891	78.1428	1	11	0.00458261	0.000168374	0	1.81972e-05	0.000110426	2.10463e-05	118.306	0.124997	-0.0592716	-0.110051	-38.2554	27.1021	21.2822	16.7807	0.0288104	0.0228021	0.036742	38.3601	78142.8	98733	125915	-51.6399	0.0000000E+000	0.0000000E+000	0.0000000E+000	51.6399	0.0000000E+000	0.0000000E+000	0.0000000E+000	-51.6399	0.0000000E+000	0.0000000E+000	0.0000000E+000	-38.3601	0.0000000E+000	0.0000000E+000	0.0000000E+000	38.3601	1.26349	51.64	-7.68369e-07	-1.69525e-06	-7.08637e-10	-1.69454e-06	0.264057	41164.7	17.2074	41147.5
31.6296	27.0523	17.2716	32.0957	-32.5562	11.3735	0.264165	-0.00665375	291.337	84.3656	1	11	0.00459448	0.00014315	0	1.76852e-05	1.49552e-05	4.99826e-06	-55.8187	0.0349164	0.0196165	0.0288851	-32.5808	32.1278	27.0719	17.3004	0.026261	0.0167663	0.0311568	32.5562	84365.6	132141	156776	-57.4438	0.0000000E+000	0.0000000E+000	0.0000000E+000	57.4438	0.0000000E+000	0.0000000E+000	0.0000000E+000	-57.4438	0.0000000E+000	0.0000000E+000	0.0000000E+000	-32.5562	0.0000000E+000	0.0000000E+000	0.0000000E+000	32.5562	1.56629	57.4438	-5.1203e-07	-1.75769e-06	-9.95085e-11	-1.75759e-06	0.26415	39701.7	2.24764	39699.4
21.5517	32.3493	16.3998	36.2689	-26.8832	11.7944	0.264166	-0.00670223	450.297	92.0682	1	11	0.00458887	0.000126524	0	1.69293e-05	-4.23269e-05	5.64316e-06	-16.8693	0.0446016	0.0426823	0.0129429	-26.871	36.3128	32.392	16.4128	0.0245922	0.0124673	0.0275719	26.8832	92068.2	181608	203612	-63.1168	0.0000000E+000	0.0000000E+000	0.0000000E+000	63.1168	0.0000000E+000	0.0000000E+000	0.0000000E+000	-63.1168	0.0000000E+000	0.0000000E+000	0.0000000E+000	-26.8832	0.0000000E+000	0.0000000E+000	0.0000000E+000	26.8832	1.97254	63.1168	-7.5583e-07	-1.7705e-06	2.83685e-10	-1.77078e-06	0.264208	39414.6	6.31535	39420.9
14.6852	36.774	14.7544	39.6234	-21.8615	12.2552	0.264174	-0.00594748	734.55	101.849	1	11	0.0045827	0.000115656	0	1.61385e-05	-8.05151e-05	5.83185e-06	171.832	0.0504239	-0.0499124	-0.00716377	-21.8788	39.5744	36.724	14.7472	0.0234227	0.00939759	0.0252376	21.8615	101849	253851	273520	-68.1385	0.0000000E+000	0.0000000E+000	0.0000000E+000	68.1385	0.0000000E+000	0.0000000E+000	0.0000000E+000	-68.1385	0.0000000E+000	0.0000000E+000	0.0000000E+000	-21.8615	0.0000000E+000	0.0000000E+000	0.0000000E+000	21.8615	2.49241	68.1385	-7.90777e-07	-1.57117e-06	4.78861e-10	-1.57165e-06	0.264254	44417.8	13.5377	44431.3
10.0032	40.3307	12.9238	42.3508	-17.7678	12.7068	0.264161	-0.00610111	1231.1	114.643	1	11	0.0045788	0.000108116	0	1.46995e-05	0.000186802	5.05139e-06	87.8315	0.0467219	0.00176785	-0.0466884	-17.7069	42.3382	40.3324	12.8771	0.022486	0.00720554	0.0236123	17.7678	114643	357762	375682	-72.2322	0.0000000E+000	0.0000000E+000	0.0000000E+000	72.2322	0.0000000E+000	0.0000000E+000	0.0000000E+000	-72.2322	0.0000000E+000	0.0000000E+000	0.0000000E+000	-17.7678	0.0000000E+000	0.0000000E+000	0.0000000E+000	17.7678	3.12066	72.2322	-1.43907e-06	-1.61167e-06	-1.1397e-09	-1.61053e-06	0.263974	43297.1	30.6177	43266.5
6.81719	43.3026	11.1429	44.7132	-14.4306	13.0465	0.264158	-0.00645574	2095.17	130.118	1	11	0.004587	0.000102587	0	1.44569e-05	5.31434e-05	5.00488e-06	98.7069	0.0487867	-0.00738533	-0.0482244	-14.3731	44.6941	43.2952	11.0946	0.0216591	0.00557345	0.0223647	14.4306	130118	505657	522130	-75.5694	0.0000000E+000	0.0000000E+000	0.0000000E+000	75.5694	0.0000000E+000	0.0000000E+000	0.0000000E+000	-75.5694	0.0000000E+000	0.0000000E+000	0.0000000E+000	-14.4306	0.0000000E+000	0.0000000E+000	0.0000000E+000	14.4306	3.88613	75.5694	-2.42565e-07	-1.70534e-06	-3.4308e-10	-1.70499e-06	0.264105	40918.3	8.23195	40910.1
4.63925	45.5243	9.66652	46.5393	-11.988	13.5305	0.264177	-0.00572448	3548.97	153.11	1	11	0.00458993	9.86247e-05	0	1.45826e-05	1.49552e-05	6.97424e-06	51.7012	0.0707149	0.0438264	-0.0554963	-11.91	46.5707	45.5682	9.61102	0.0210186	0.00446304	0.0214872	11.988	153110	721068	737144	-78.012	0.0000000E+000	0.0000000E+000	0.0000000E+000	78.012	0.0000000E+000	0.0000000E+000	0.0000000E+000	-78.012	0.0000000E+000	0.0000000E+000	0.0000000E+000	-11.988	0.0000000E+000	0.0000000E+000	0.0000000E+000	11.988	4.70949	78.012	1.25638e-07	-1.51228e-06	-8.5611e-11	-1.51219e-06	0.264162	46148.6	2.61251	46146
3.1604	47.4667	8.43846	48.2109	-10.0805	14.2234	0.264168	-0.0054187	5967.81	182.832	1	11	0.00458847	9.51749e-05	0	1.29031e-05	9.13315e-05	7.94329e-06	-7.36885	0.0834599	0.0827706	0.0107043	-10.0758	48.2943	47.5495	8.44917	0.020422	0.00363055	0.0207422	10.0805	182831	1.02843e+06	1.04456e+06	-79.9195	0.0000000E+000	0.0000000E+000	0.0000000E+000	79.9195	0.0000000E+000	0.0000000E+000	0.0000000E+000	-79.9195	0.0000000E+000	0.0000000E+000	0.0000000E+000	-10.0805	0.0000000E+000	0.0000000E+000	0.0000000E+000	10.0805	5.62504	79.9195	-1.67941e-06	-1.43145e-06	-4.94898e-10	-1.43095e-06	0.264077	48751.2	16.8549	48734.4
2.15577	49.0785	7.37102	49.6289	-8.54132	15.2271	0.264176	-0.00478701	10015.9	220.941	1	11	0.00458943	9.2475e-05	0	9.90452e-06	0.00022499	2.80179e-06	-103.141	0.0302978	-0.00688791	0.0295044	-8.57619	49.6265	49.0716	7.40052	0.0199261	0.00299266	0.0201495	8.54132	220941	1.47109e+06	1.48759e+06	-81.4587	0.0000000E+000	0.0000000E+000	0.0000000E+000	81.4587	0.0000000E+000	0.0000000E+000	0.0000000E+000	-81.4587	0.0000000E+000	0.0000000E+000	0.0000000E+000	-8.54132	0.0000000E+000	0.0000000E+000	0.0000000E+000	8.54132	6.65831	81.4587	-2.99863e-06	-1.26461e-06	-1.07703e-09	-1.26353e-06	0.263951	55186	47.0001	55139
1.46631	50.5355	6.65613	50.9719	-7.50335	17.4154	0.264168	-0.00499241	16306.9	278.07	1	12	0.00459205	9.00898e-05	0	6.09406e-06	-9.96091e-05	2.99029e-06	-121.849	0.0331923	-0.017515	0.0281949	-7.53735	50.9583	50.5179	6.68432	0.0194507	0.00256188	0.0196186	7.50335	278070	2.1112e+06	2.12943e+06	-82.4967	0.0000000E+000	0.0000000E+000	0.0000000E+000	82.4967	0.0000000E+000	0.0000000E+000	0.0000000E+000	-82.4967	0.0000000E+000	0.0000000E+000	0.0000000E+000	-7.50335	0.0000000E+000	0.0000000E+000	0.0000000E+000	7.50335	7.59232	82.4967	-3.81047e-06	-1.31883e-06	4.9729e-10	-1.31933e-06	0.264267	52913.9	19.9521	52933.9
1.00006	51.8475	6.08413	52.2032	-6.69286	19.5439	0.264174	-0.00492045	26157.4	355.301	1	12	0.00459058	8.79366e-05	0	5.20065e-06	-0.000175985	3.18031e-06	-12.0097	0.0361659	0.0353744	0.00752531	-6.69653	52.2392	51.8828	6.09165	0.0190254	0.00223256	0.0191559	6.69286	355301	3.02779e+06	3.04856e+06	-83.3071	0.0000000E+000	0.0000000E+000	0.0000000E+000	83.3071	0.0000000E+000	0.0000000E+000	0.0000000E+000	-83.3071	0.0000000E+000	0.0000000E+000	0.0000000E+000	-6.69286	0.0000000E+000	0.0000000E+000	0.0000000E+000	6.69286	8.52176	83.3071	-8.93406e-07	-1.29985e-06	8.65927e-10	-1.30072e-06	0.26435	53688.9	35.7661	53724.7
0.681362	53.0166	5.62007	53.3136	-6.0511	22.6561	0.264172	-0.00476938	41562.3	461.857	1	12	0.00458828	8.6062e-05	0	4.91411e-06	0.000110426	4.12848e-06	11.1512	0.0479709	0.0470653	-0.00927749	-6.03586	53.3595	53.0637	5.6108	0.0186524	0.00197727	0.0187569	6.0511	461857	4.3569e+06	4.38131e+06	-83.9489	0.0000000E+000	0.0000000E+000	0.0000000E+000	83.9489	0.0000000E+000	0.0000000E+000	0.0000000E+000	-83.9489	0.0000000E+000	0.0000000E+000	0.0000000E+000	-6.0511	0.0000000E+000	0.0000000E+000	0.0000000E+000	6.0511	9.43343	83.9489	-2.86538e-07	-1.25994e-06	-5.26661e-10	-1.25941e-06	0.264062	55389.2	23.153	55366.1
0.464091	54.1143	5.21562	54.3651	-5.50525	27.2126	0.264182	-0.00413636	65752.4	605.178	1	12	0.00459028	8.44344e-05	0	3.6688e-06	-0.000137797	4.54375e-06	24.2611	0.0538139	0.0490612	-0.0221119	-5.47711	54.4118	54.1634	5.1935	0.0183093	0.00176468	0.0183942	5.50525	605178	6.27899e+06	6.30808e+06	-84.4948	0.0000000E+000	0.0000000E+000	0.0000000E+000	84.4948	0.0000000E+000	0.0000000E+000	0.0000000E+000	-84.4948	0.0000000E+000	0.0000000E+000	0.0000000E+000	-5.50525	0.0000000E+000	0.0000000E+000	0.0000000E+000	5.50525	10.3754	84.4948	-1.24532e-06	-1.09275e-06	5.69979e-10	-1.09332e-06	0.26432	63868.3	33.3137	63901.6
0.316193	55.1456	5.1432	55.3849	-5.32833	33.8861	0.264174	-0.00365959	97866.5	843.953	1	12	0.00458542	8.27918e-05	0	-2.05957e-06	0.000110426	1.83544e-06	-19.5656	0.0221694	0.0208893	0.00742422	-5.33396	55.4064	55.1665	5.15063	0.0179774	0.00167668	0.0180555	5.32833	843952	9.04889e+06	9.08816e+06	-84.6717	0.0000000E+000	0.0000000E+000	0.0000000E+000	84.6717	0.0000000E+000	0.0000000E+000	0.0000000E+000	-84.6717	0.0000000E+000	0.0000000E+000	0.0000000E+000	-5.32833	0.0000000E+000	0.0000000E+000	0.0000000E+000	5.32833	10.722	84.6717	-5.72837e-06	-9.66769e-07	-4.04113e-10	-9.66364e-07	0.264063	72186.6	30.1743	72156.4
0.215268	56.03	5.30319	56.2804	-5.40689	43.6796	0.264176	-0.00302321	139413	1237.84	1	12	0.00458601	8.1485e-05	0	-1.6231e-05	-0.000233268	2.26235e-06	23.1151	0.027764	0.0255351	-0.0108996	-5.3934	56.3048	56.0555	5.29229	0.0176891	0.00167426	0.0177682	5.40689	1.23784e+06	1.30782e+07	1.31366e+07	-84.5931	0.0000000E+000	0.0000000E+000	0.0000000E+000	84.5931	0.0000000E+000	0.0000000E+000	0.0000000E+000	-84.5931	0.0000000E+000	0.0000000E+000	0.0000000E+000	-5.40689	0.0000000E+000	0.0000000E+000	0.0000000E+000	5.40689	10.5653	84.5931	-1.41715e-05	-7.98659e-07	7.05217e-10	-7.99364e-07	0.264409	87382.4	77.1589	87459.6
0.146929	56.9482	5.69307	57.232	-5.70885	58.0179	0.264173	-0.00257749	190269	1882.7	1	12	0.00458841	8.01722e-05	0	-4.15276e-05	-4.13882e-06	2.45346e-06	17.1972	0.0306023	0.0292342	-0.00904795	-5.69693	57.2602	56.9774	5.68402	0.0173861	0.00173807	0.0174727	5.70885	1.8827e+06	1.88328e+07	1.89267e+07	-84.2912	0.0000000E+000	0.0000000E+000	0.0000000E+000	84.2912	0.0000000E+000	0.0000000E+000	0.0000000E+000	-84.2912	0.0000000E+000	0.0000000E+000	0.0000000E+000	-5.70885	0.0000000E+000	0.0000000E+000	0.0000000E+000	5.70885	10.0031	84.2912	-2.52966e-05	-6.80903e-07	1.06677e-11	-6.80914e-07	0.264177	102493	1.60576	102494
0.0999041	58.0061	6.45573	58.3642	-6.35054	79.0938	0.26417	-0.00234393	246770	3019.18	1	12	0.00458795	7.86089e-05	0	-7.67492e-05	-0.000195079	2.67022e-06	14.0243	0.0339684	0.0329559	-0.0082317	-6.33894	58.3961	58.039	6.4475	0.0170287	0.00189519	0.0171338	6.35054	3.01918e+06	2.7128e+07	2.72954e+07	-83.6495	0.0000000E+000	0.0000000E+000	0.0000000E+000	83.6495	0.0000000E+000	0.0000000E+000	0.0000000E+000	-83.6495	0.0000000E+000	0.0000000E+000	0.0000000E+000	-6.35054	0.0000000E+000	0.0000000E+000	0.0000000E+000	6.35054	8.98521	83.6495	-3.52216e-05	-6.19198e-07	4.57253e-10	-6.19655e-07	0.264366	112704	83.2274	112787
0.0680626	59.3138	7.73477	59.816	-7.42969	110.02	0.264175	-0.00210994	302318	5055.04	1	12	0.00458962	7.6729e-05	0	-0.00011459	1.49552e-05	1.2436e-06	-5.87553	0.0162077	0.0161225	0.00165914	-7.42927	59.8322	59.3299	7.73643	0.0165776	0.00216179	0.0167179	7.42969	5.05504e+06	3.87643e+07	3.90926e+07	-82.5703	0.0000000E+000	0.0000000E+000	0.0000000E+000	82.5703	0.0000000E+000	0.0000000E+000	0.0000000E+000	-82.5703	0.0000000E+000	0.0000000E+000	0.0000000E+000	-7.42969	0.0000000E+000	0.0000000E+000	0.0000000E+000	7.42969	7.66846	82.5703	-3.78407e-05	-5.57395e-07	-3.15547e-11	-5.57363e-07	0.264161	125205	7.088	125198
0.0464052	60.8351	9.67066	61.599	-9.03245	155.371	0.264178	-0.0019359	354648	8741.03	1	12	0.00458769	7.44767e-05	0	-0.000138882	-0.000175985	3.62459e-06	19.1585	0.0486674	0.0459719	-0.0159718	-9.01108	61.6419	60.8811	9.65469	0.0160327	0.00254864	0.016234	9.03245	8.74102e+06	5.49871e+07	5.56775e+07	-80.9676	0.0000000E+000	0.0000000E+000	0.0000000E+000	80.9676	0.0000000E+000	0.0000000E+000	0.0000000E+000	-80.9676	0.0000000E+000	0.0000000E+000	0.0000000E+000	-9.03245	0.0000000E+000	0.0000000E+000	0.0000000E+000	9.03245	6.29069	80.9676	-2.42924e-05	-5.11421e-07	3.4069e-10	-5.11762e-07	0.264354	136463	90.9063	136554
0.0315922	62.5167	12.0987	63.6767	-10.9529	221.975	0.264172	-0.00168758	416392	15032	1	12	0.00459121	7.21019e-05	0	-0.000128751	-9.96091e-05	2.72231e-06	-6.22036	0.0377564	0.0375341	0.00409101	-10.9501	63.7143	62.5543	12.1028	0.0154183	0.00298385	0.0157043	10.9529	1.5032e+07	7.7674e+07	7.91152e+07	-79.0471	0.0000000E+000	0.0000000E+000	0.0000000E+000	79.0471	0.0000000E+000	0.0000000E+000	0.0000000E+000	-79.0471	0.0000000E+000	0.0000000E+000	0.0000000E+000	-10.9529	0.0000000E+000	0.0000000E+000	0.0000000E+000	10.9529	5.16724	79.0471	1.01318e-05	-4.4581e-07	1.68098e-10	-4.45978e-07	0.264272	156539	59.025	156598
0.0215268	64.6633	14.8909	66.3557	-12.9682	319.714	0.264171	-0.00105987	496502	25003.7	1	12	0.00459014	6.91747e-05	0	-7.1203e-05	-9.96091e-05	1.44341e-06	9.70542	0.0208661	0.0205675	-0.00351767	-12.9612	66.375	64.6839	14.8873	0.0146859	0.00338192	0.0150703	12.9682	2.50037e+07	1.08578e+08	1.1142e+08	-77.0318	0.0000000E+000	0.0000000E+000	0.0000000E+000	77.0318	0.0000000E+000	0.0000000E+000	0.0000000E+000	-77.0318	0.0000000E+000	0.0000000E+000	0.0000000E+000	-12.9682	0.0000000E+000	0.0000000E+000	0.0000000E+000	12.9682	4.34248	77.0318	5.75475e-05	-2.79988e-07	1.05573e-10	-2.80094e-07	0.264271	249248	93.9821	249342
0.0146812	67.5617	18.5101	70.0514	-15.3215	463.016	0.264171	-0.000340539	585668	40891.5	1	12	0.00458857	6.55029e-05	0	1.99795e-05	9.13315e-05	1.93736e-06	9.29448	0.0295767	0.0291883	-0.00477689	-15.3114	70.0783	67.5909	18.5053	0.0137679	0.00377202	0.0142752	15.3215	4.08915e+07	1.49254e+08	1.54754e+08	-74.6785	0.0000000E+000	0.0000000E+000	0.0000000E+000	74.6785	0.0000000E+000	0.0000000E+000	0.0000000E+000	-74.6785	0.0000000E+000	0.0000000E+000	0.0000000E+000	-15.3215	0.0000000E+000	0.0000000E+000	0.0000000E+000	15.3215	3.65	74.6785	9.11825e-05	-8.99606e-08	-3.11019e-11	-8.99295e-08	0.26408	775744	268.197	775476
0.0100092	71.0064	23.6232	74.8329	-18.4018	673.197	0.26417	8.65527e-05	673107	67077.2	1	12	0.0045904	6.1342e-05	0	8.31375e-05	-4.13882e-06	2.32178e-06	-1.82472	0.0378497	0.0378305	0.00120521	-18.3935	74.8692	71.0442	23.6244	0.0126798	0.00421845	0.0133631	18.4018	6.70772e+07	2.0162e+08	2.12486e+08	-71.5982	0.0000000E+000	0.0000000E+000	0.0000000E+000	71.5982	0.0000000E+000	0.0000000E+000	0.0000000E+000	-71.5982	0.0000000E+000	0.0000000E+000	0.0000000E+000	-18.4018	0.0000000E+000	0.0000000E+000	0.0000000E+000	18.4018	3.0058	71.5982	6.3158e-05	2.28646e-08	-3.58226e-13	2.2865e-08	0.264174	3.05213e+06	47.8185	3.05218e+06