File: txt/18477_R301_UA693_SOC00_C01.mpt
EC-Lab ASCII FILE
Nb header lines : 65

Potentio Electrochemical Impedance Spectroscopy

Run on channel : 1 (SN 66354)
User :
CE vs. WE compliance from -10 V to 10 V
Electrode connection : standard
Potential control : Ewe
Ewe ctrl range : min = -10.00 V, max = 10.00 V
Safety Limits :
	Do not start on E overload
Acquisition started on : 10/21/2025 09:25:36.444
Technique started on : 10/21/2025 09:25:38.356
Loaded Setting File :  C:\Users\Celltest\OneDrive - store-dot.com\Documents\EC-Lab\Data\@Biologic Test Protocols\anode half cell EIS SOC00.mps
Saved on :
	File : 18477_R301_UA693_SOC00_C01.mpr
	Directory : C:\Users\Celltest\OneDrive - store-dot.com\Documents\EC-Lab\Data\Gyutae\
	Host : 169.254.61.224
Device : VMP-3e (SN .003165)
Address : USB
EC-LAB for windows v11.62 (software)
Internet server v27.00 (firmware)
Command interpretor v12.03 (firmware)
Electrode material :
Initial state :
Electrolyte :
Comments :
Electrode surface area : 0.001 cm²
Characteristic mass : 0.001 g
Equivalent Weight : 0.000 g/eq.
Density : 0.000 g/cm3
Volume (V) : 0.001 cm³
Record Ece
Cycle Definition : Charge/Discharge alternance
Mode                Single sine
E (V)               0.0000
vs.                 Eoc
tE (h:m:s)          0:00:0.0000
record              0
dI                  0.000
unit dI             mA
dt (s)              0.000
fi                  100.000
unit fi             kHz
ff                  10.000
unit ff             mHz
Nd                  6
Points              per decade
spacing             Logarithmic
Va (mV)             5.0
pw                  0.10
Na                  2
corr                0
E range min (V)     -10.000
E range max (V)     10.000
I Range             Auto
Bandwidth           5
nc cycles           0
goto Ns'            0
nr cycles           0
inc. cycle          0

freq/Hz	Re(Z)/Ohm	-Im(Z)/Ohm	|Z|/Ohm	Phase(Z)/deg	time/s	<Ewe>/V	<I>/mA	Cs/µF	Cp/µF	cycle number	I Range	|Ewe|/V	|I|/A	Ns	(Q-Qo)/mA.h	<Ece>/V	|Ece|/V	Phase(Zce)/deg	|Zce|/Ohm	Re(Zce)/Ohm	-Im(Zce)/Ohm	Phase(Zwe-ce)/deg	|Zwe-ce|/Ohm	Re(Zwe-ce)/Ohm	-Im(Zwe-ce)/Ohm	Re(Y)/Ohm-1	Im(Y)/Ohm-1	|Y|/Ohm-1	Phase(Y)/deg	Re(C)/nF	Im(C)/nF	|C|/nF	Phase(C)/deg	Re(M)	Im(M)	|M|	Phase(M)/deg	Re(Permittivity)	Im(Permittivity)	|Permittivity|	Phase(Permittivity)/deg	Re(Resistivity)/Ohm.cm	Im(Resistivity)/Ohm.cm	|Resistivity|/Ohm.cm	Phase(Resistivity)/deg	Re(Conductivity)/mS/cm	Im(Conductivity)/mS/cm	|Conductivity|/mS/cm	Phase(Conductivity)/deg	Tan(Delta)	Loss Angle(Delta)/deg	dq/mA.h	Pwe/W	Pce/W	Pwe-ce/W	<Ewe-Ece>/V	Rwe/Ohm	Rce/Ohm	Rwe-ce/Ohm		Ewe-Ece/V
100004	1.11589	0.477279	1.21367	-23.157	1.91152	0.259937	0.0711512	3.33451	0.515673	1	9	0.00486754	0.00401059	0	8.88831e-06	0.000326654	5.09704e-05	101.627	0.012709	-0.00256137	-0.0124482	-22.6613	1.20647	1.11333	0.464831	0.757561	0.324019	0.823946	23.157	515.673	1205.65	1311.3	-66.843	0.0000000E+000	0.0000000E+000	0.0000000E+000	66.843	0.0000000E+000	0.0000000E+000	0.0000000E+000	-66.843	0.0000000E+000	0.0000000E+000	0.0000000E+000	-23.157	0.0000000E+000	0.0000000E+000	0.0000000E+000	23.157	2.33802	66.843	8.88831e-06	1.84948e-05	2.32418e-08	1.84716e-05	0.25961	3653.3	4.59098	3648.71
68132	1.23564	0.532937	1.34567	-23.3307	2.41856	0.259943	0.0703689	4.38321	0.687491	1	9	0.00504656	0.00375022	0	2.84176e-05	7.86489e-05	2.97285e-05	87.0481	0.00792714	0.000408235	-0.00791662	-23.0137	1.34293	1.23605	0.525021	0.682361	0.294305	0.743123	23.3307	687.491	1593.98	1735.92	-66.6693	0.0000000E+000	0.0000000E+000	0.0000000E+000	66.6693	0.0000000E+000	0.0000000E+000	0.0000000E+000	-66.6693	0.0000000E+000	0.0000000E+000	0.0000000E+000	-23.3307	0.0000000E+000	0.0000000E+000	0.0000000E+000	23.3307	2.31855	66.6693	1.95293e-05	1.82919e-05	5.53443e-09	1.82863e-05	0.259864	3694	1.11767	3692.88
46420.4	1.37972	0.584117	1.49827	-22.9459	2.92554	0.259938	0.0659729	5.86965	0.892137	1	9	0.0050795	0.00339025	0	2.6896e-05	2.1417e-05	2.21223e-05	45.1373	0.00652529	0.004603	-0.00462512	-22.7147	1.50072	1.38432	0.579492	0.614625	0.260208	0.667437	22.9459	892.138	2107.28	2288.35	-67.0541	0.0000000E+000	0.0000000E+000	0.0000000E+000	67.0541	0.0000000E+000	0.0000000E+000	0.0000000E+000	-67.0541	0.0000000E+000	0.0000000E+000	0.0000000E+000	-22.9459	0.0000000E+000	0.0000000E+000	0.0000000E+000	22.9459	2.36206	67.0541	-1.52158e-06	1.71489e-05	1.41294e-09	1.71474e-05	0.259917	3940.08	0.324633	3939.75
31621.1	1.50892	0.655323	1.64508	-23.4752	3.43254	0.259954	0.07171	7.68046	1.21877	1	9	0.00514001	0.00312446	0	2.52106e-05	5.95716e-05	1.09847e-05	49.0705	0.00351571	0.00230325	-0.00265618	-23.3585	1.64614	1.51123	0.652667	0.55756	0.242147	0.607872	23.4752	1218.77	2806.3	3059.53	-66.5248	0.0000000E+000	0.0000000E+000	0.0000000E+000	66.5248	0.0000000E+000	0.0000000E+000	0.0000000E+000	-66.5248	0.0000000E+000	0.0000000E+000	0.0000000E+000	-23.4752	0.0000000E+000	0.0000000E+000	0.0000000E+000	23.4752	2.30257	66.5248	-1.68534e-06	1.86413e-05	4.27188e-09	1.86371e-05	0.259895	3625.08	0.830728	3624.25
21544.7	1.6707	0.730103	1.82327	-23.6055	3.81556	0.259951	0.0709277	10.118	1.62242	1	9	0.00518147	0.00284186	0	2.70505e-05	0.000135881	7.64435e-06	-53.1923	0.00268991	0.00161161	0.00215368	-23.6472	1.82561	1.67232	0.732257	0.502573	0.219626	0.548466	23.6055	1622.42	3712.61	4051.63	-66.3945	0.0000000E+000	0.0000000E+000	0.0000000E+000	66.3945	0.0000000E+000	0.0000000E+000	0.0000000E+000	-66.3945	0.0000000E+000	0.0000000E+000	0.0000000E+000	-23.6055	0.0000000E+000	0.0000000E+000	0.0000000E+000	23.6055	2.28831	66.3945	1.83984e-06	1.84377e-05	9.63771e-09	1.84281e-05	0.259815	3665.01	1.91577	3663.09
14678.6	1.84162	0.80911	2.01152	-23.7182	4.19854	0.25995	0.0628435	13.4007	2.16818	1	9	0.00489585	0.00243391	0	3.12027e-05	5.95716e-05	6.75561e-06	-64.9982	0.00277563	0.00117311	0.00251553	-23.7703	2.01361	1.84279	0.811626	0.455146	0.199967	0.497136	23.7182	2168.18	4934.99	5390.28	-66.2818	0.0000000E+000	0.0000000E+000	0.0000000E+000	66.2818	0.0000000E+000	0.0000000E+000	0.0000000E+000	-66.2818	0.0000000E+000	0.0000000E+000	0.0000000E+000	-23.7182	0.0000000E+000	0.0000000E+000	0.0000000E+000	23.7182	2.2761	66.2818	4.15226e-06	1.63361e-05	3.74369e-09	1.63324e-05	0.25989	4136.46	0.947935	4135.51
10002.2	2.01862	0.898819	2.20969	-24.0017	4.58153	0.259946	0.0677611	17.7032	2.9291	1	9	0.004863	0.00220076	0	3.86503e-05	2.33964e-06	4.63363e-06	-30.3303	0.00210546	0.00181729	0.00106322	-24.0077	2.21178	2.02044	0.899882	0.413422	0.184082	0.452553	24.0017	2929.1	6578.36	7201	-65.9983	0.0000000E+000	0.0000000E+000	0.0000000E+000	65.9983	0.0000000E+000	0.0000000E+000	0.0000000E+000	-65.9983	0.0000000E+000	0.0000000E+000	0.0000000E+000	-24.0017	0.0000000E+000	0.0000000E+000	0.0000000E+000	24.0017	2.24586	65.9983	7.44757e-06	1.76142e-05	1.58537e-10	1.7614e-05	0.259943	3836.21	0.0345279	3836.18
6810.42	2.18931	1.01567	2.41344	-24.8877	4.84251	0.259949	0.0646689	23.0087	4.075	1	9	0.00457279	0.00189472	0	4.46827e-05	-5.48923e-05	4.17038e-05	65.3253	0.0220105	0.00918864	-0.0200008	-24.3651	2.41346	2.1985	0.995671	0.375868	0.174374	0.414347	24.8877	4075	8783.79	9683.01	-65.1123	0.0000000E+000	0.0000000E+000	0.0000000E+000	65.1123	0.0000000E+000	0.0000000E+000	0.0000000E+000	-65.1123	0.0000000E+000	0.0000000E+000	0.0000000E+000	-24.8877	0.0000000E+000	0.0000000E+000	0.0000000E+000	24.8877	2.15553	65.1123	6.03234e-06	1.68106e-05	-3.54983e-09	1.68142e-05	0.260004	4019.69	0.84882	4020.54
4646	2.38959	1.15985	2.6562	-25.8909	5.23364	0.259922	0.0458928	29.5351	5.63147	1	9	0.00497515	0.00187303	0	5.17795e-05	0.000288499	1.92766e-05	9.02294	0.0102917	0.0101643	-0.00161404	-25.7642	2.66465	2.39975	1.15824	0.33869	0.164392	0.376478	25.8909	5631.47	11602.3	12896.7	-64.1091	0.0000000E+000	0.0000000E+000	0.0000000E+000	64.1091	0.0000000E+000	0.0000000E+000	0.0000000E+000	-64.1091	0.0000000E+000	0.0000000E+000	0.0000000E+000	-25.8909	0.0000000E+000	0.0000000E+000	0.0000000E+000	25.8909	2.06026	64.1091	7.09687e-06	1.19285e-05	1.324e-08	1.19153e-05	0.259634	5663.69	6.28638	5657.4
3163.08	2.62359	1.38364	2.96609	-27.8064	5.60561	0.259682	0.0153442	36.3653	7.91343	1	9	0.0049165	0.00165757	0	5.15263e-05	-7.39696e-05	5.60987e-06	-31.5043	0.00338439	0.00288553	0.00176856	-27.8107	2.96947	2.62647	1.38541	0.298214	0.157273	0.337144	27.8064	7913.43	15005.1	16963.9	-62.1936	0.0000000E+000	0.0000000E+000	0.0000000E+000	62.1936	0.0000000E+000	0.0000000E+000	0.0000000E+000	-62.1936	0.0000000E+000	0.0000000E+000	0.0000000E+000	-27.8064	0.0000000E+000	0.0000000E+000	0.0000000E+000	27.8064	1.89615	62.1936	-2.53248e-07	3.98461e-06	-1.135e-09	3.98574e-06	0.259756	16923.8	4.82069	16928.6
2155.69	2.83593	1.66151	3.28681	-30.3652	6.05778	0.259908	0.141823	44.4355	11.355	1	9	0.00485602	0.00147743	0	6.88259e-05	-7.39696e-05	1.02506e-05	-49.5088	0.00693816	0.00450516	0.00527651	-30.4047	3.29336	2.84043	1.66679	0.26251	0.153799	0.304247	30.3652	11355	19381.2	22462.6	-59.6348	0.0000000E+000	0.0000000E+000	0.0000000E+000	59.6348	0.0000000E+000	0.0000000E+000	0.0000000E+000	-59.6348	0.0000000E+000	0.0000000E+000	0.0000000E+000	-30.3652	0.0000000E+000	0.0000000E+000	0.0000000E+000	30.3652	1.70684	59.6348	1.72996e-05	3.68609e-05	-1.04906e-08	3.68714e-05	0.259982	1832.63	0.521564	1833.15
1468.59	3.13498	2.04502	3.74302	-33.1174	6.7551	0.259858	-0.0136112	52.9933	15.8188	1	10	0.00500874	0.00133815	0	7.60557e-05	0.000154958	7.78377e-06	40.6345	0.00581679	0.00441425	-0.00378808	-33.032	3.74465	3.13939	2.04124	0.223764	0.145967	0.267164	33.1174	15818.8	24249.9	28953.2	-56.8826	0.0000000E+000	0.0000000E+000	0.0000000E+000	56.8826	0.0000000E+000	0.0000000E+000	0.0000000E+000	-56.8826	0.0000000E+000	0.0000000E+000	0.0000000E+000	-33.1174	0.0000000E+000	0.0000000E+000	0.0000000E+000	33.1174	1.53298	56.8826	7.22978e-06	-3.53698e-06	-2.10917e-09	-3.53487e-06	0.259703	19091.4	11.3846	19080.1
1000.32	3.46796	2.58539	4.32562	-36.7048	7.2058	0.259857	-0.013246	61.5398	21.9842	1	10	0.00495002	0.00114435	0	7.55386e-05	-3.5815e-05	4.90617e-06	100.66	0.00428729	-0.000793095	-0.0042133	-36.6663	4.32246	3.46717	2.58117	0.185344	0.138175	0.231181	36.7048	21984.2	29488.9	36781.8	-53.2952	0.0000000E+000	0.0000000E+000	0.0000000E+000	53.2952	0.0000000E+000	0.0000000E+000	0.0000000E+000	-53.2952	0.0000000E+000	0.0000000E+000	0.0000000E+000	-36.7048	0.0000000E+000	0.0000000E+000	0.0000000E+000	36.7048	1.34137	53.2952	-5.17064e-07	-3.44205e-06	4.74404e-10	-3.44253e-06	0.259892	19617.8	2.70384	19620.5
681.09	3.92217	3.33325	5.14723	-40.3595	7.6556	0.259856	-0.0134957	70.1048	29.3993	1	10	0.0049399	0.00095972	0	7.37963e-05	9.77262e-05	5.40933e-05	-50.6863	0.0563636	0.03571	0.0436079	-40.4708	5.20269	3.95788	3.37686	0.14804	0.125812	0.194279	40.3595	29399.3	34593.5	45398.6	-49.6405	0.0000000E+000	0.0000000E+000	0.0000000E+000	49.6405	0.0000000E+000	0.0000000E+000	0.0000000E+000	-49.6405	0.0000000E+000	0.0000000E+000	0.0000000E+000	-40.3595	0.0000000E+000	0.0000000E+000	0.0000000E+000	40.3595	1.17668	49.6405	-1.74232e-06	-3.50693e-06	-1.31888e-09	-3.50562e-06	0.259758	19254.8	7.24129	19247.5
463.961	4.47458	4.28874	6.198	-43.7851	8.10834	0.259871	-0.0123143	79.9851	38.2971	1	10	0.00485443	0.000783226	0	7.23738e-05	9.77262e-05	8.32858e-06	55.5325	0.0106337	0.00601801	-0.00876692	-43.6881	6.19628	4.4806	4.27997	0.11648	0.111642	0.161342	43.7851	38297.1	39956.6	55346.2	-46.2149	0.0000000E+000	0.0000000E+000	0.0000000E+000	46.2149	0.0000000E+000	0.0000000E+000	0.0000000E+000	-46.2149	0.0000000E+000	0.0000000E+000	0.0000000E+000	-43.7851	0.0000000E+000	0.0000000E+000	0.0000000E+000	43.7851	1.04333	46.2149	-1.42247e-06	-3.20011e-06	-1.20342e-09	-3.19891e-06	0.259773	21103.2	7.93602	21095.3
316.316	5.35506	5.55361	7.71487	-46.0427	8.55602	0.259858	-0.0145281	90.5991	46.948	1	10	0.0048384	0.000627153	0	7.07957e-05	0.000479272	1.15534e-05	21.7979	0.018422	0.0171048	-0.00684069	-45.9161	7.72183	5.37216	5.54677	0.089972	0.0933079	0.12962	46.0427	46948	45269.6	65218.5	-43.9573	0.0000000E+000	0.0000000E+000	0.0000000E+000	43.9573	0.0000000E+000	0.0000000E+000	0.0000000E+000	-43.9573	0.0000000E+000	0.0000000E+000	0.0000000E+000	-46.0427	0.0000000E+000	0.0000000E+000	0.0000000E+000	46.0427	0.964248	43.9573	-1.57812e-06	-3.77523e-06	-6.9629e-09	-3.76826e-06	0.259378	17886.6	32.9894	17853.6
215.345	6.62533	7.12742	9.73114	-47.0909	9.00651	0.259853	-0.0139616	103.694	55.6277	1	10	0.00481498	0.000494801	0	6.97823e-05	0.00042204	6.27795e-06	27.7548	0.0126878	0.0112281	-0.00590858	-47.0188	9.73447	6.63656	7.12151	0.0699648	0.0752671	0.102763	47.0909	55627.7	51709	75949.1	-42.9091	0.0000000E+000	0.0000000E+000	0.0000000E+000	42.9091	0.0000000E+000	0.0000000E+000	0.0000000E+000	-42.9091	0.0000000E+000	0.0000000E+000	0.0000000E+000	-47.0909	0.0000000E+000	0.0000000E+000	0.0000000E+000	47.0909	0.929554	42.9091	-1.0134e-06	-3.62796e-06	-5.89234e-09	-3.62207e-06	0.259431	18612.1	30.2287	18581.8
146.737	8.58284	8.94218	12.3947	-46.1746	9.45252	0.259861	-0.0151095	121.293	63.1325	1	10	0.00481299	0.000388311	0	6.84528e-05	0.00021219	6.67828e-06	18.7218	0.0171983	0.0162883	-0.00552019	-46.1027	12.402	8.59913	8.93666	0.0558678	0.0582068	0.0806799	46.1746	63132.5	60595.6	87507.3	-43.8254	0.0000000E+000	0.0000000E+000	0.0000000E+000	43.8254	0.0000000E+000	0.0000000E+000	0.0000000E+000	-43.8254	0.0000000E+000	0.0000000E+000	0.0000000E+000	-46.1746	0.0000000E+000	0.0000000E+000	0.0000000E+000	46.1746	0.959816	43.8254	-1.3295e-06	-3.92636e-06	-3.20608e-09	-3.92315e-06	0.259649	17198.5	14.0435	17184.5
100.032	11.2272	10.6687	15.4878	-43.5389	9.9038	0.259863	-0.0139467	149.132	70.7644	1	10	0.00479059	0.000309314	0	6.65629e-05	-0.000188433	3.9766e-05	-17.6943	0.128562	0.12248	0.039075	-43.3331	15.6036	11.3497	10.7078	0.0468051	0.0444768	0.0645671	43.5389	70764.4	74468.9	102729	-46.4611	0.0000000E+000	0.0000000E+000	0.0000000E+000	46.4611	0.0000000E+000	0.0000000E+000	0.0000000E+000	-46.4611	0.0000000E+000	0.0000000E+000	0.0000000E+000	-43.5389	0.0000000E+000	0.0000000E+000	0.0000000E+000	43.5389	1.05235	46.4611	-1.88995e-06	-3.62422e-06	2.62802e-09	-3.62685e-06	0.260052	18632.6	13.511	18646.1
68.104	14.8955	11.9343	19.0867	-38.7018	10.3665	0.259878	-0.0104359	195.817	76.5563	1	10	0.00480281	0.00025163	0	6.51387e-05	0.000135881	5.2598e-06	103.924	0.0209029	-0.00502996	-0.0202886	-38.6636	19.0701	14.8905	11.914	0.0408876	0.0327592	0.0523924	38.7018	76556.3	95551.9	122438	-51.2982	0.0000000E+000	0.0000000E+000	0.0000000E+000	51.2982	0.0000000E+000	0.0000000E+000	0.0000000E+000	-51.2982	0.0000000E+000	0.0000000E+000	0.0000000E+000	-38.7018	0.0000000E+000	0.0000000E+000	0.0000000E+000	38.7018	1.24813	51.2982	-1.42418e-06	-2.71206e-06	-1.41804e-09	-2.71064e-06	0.259742	24902.3	13.0205	24889.3
46.4415	18.9366	12.5143	22.6981	-33.4589	11.0437	0.259917	-0.00156446	273.846	83.242	1	11	0.00480538	0.000211709	0	6.34653e-05	0.000326654	5.63238e-05	17.0892	0.266044	0.254297	-0.0781798	-32.9441	22.868	19.1909	12.4361	0.0367556	0.0242901	0.0440566	33.4589	83242	125961	150982	-56.5411	0.0000000E+000	0.0000000E+000	0.0000000E+000	56.5411	0.0000000E+000	0.0000000E+000	0.0000000E+000	-56.5411	0.0000000E+000	0.0000000E+000	0.0000000E+000	-33.4589	0.0000000E+000	0.0000000E+000	0.0000000E+000	33.4589	1.5132	56.5411	-1.67342e-06	-4.0663e-07	-5.11036e-10	-4.06119e-07	0.259591	166139	208.797	165930
31.6296	22.9383	11.9145	25.8481	-27.4481	11.4736	0.259925	-0.00164117	422.328	89.7321	1	11	0.00480849	0.000186029	0	6.36945e-05	0.000135881	9.30026e-06	-3.61714	0.0499936	0.049894	0.00315405	-27.4034	25.8938	22.9882	11.9177	0.0343325	0.0178328	0.0386876	27.4481	89732.1	172756	194670	-62.5519	0.0000000E+000	0.0000000E+000	0.0000000E+000	62.5519	0.0000000E+000	0.0000000E+000	0.0000000E+000	-62.5519	0.0000000E+000	0.0000000E+000	0.0000000E+000	-27.4481	0.0000000E+000	0.0000000E+000	0.0000000E+000	27.4481	1.92524	62.5519	2.29266e-07	-4.26581e-07	-2.23003e-10	-4.26358e-07	0.259789	158378	82.7951	158295
21.5517	26.2172	10.5879	28.2745	-21.9915	11.8945	0.259932	-0.00155887	697.473	97.8046	1	11	0.00478662	0.000169291	0	6.36256e-05	0.000250345	1.39179e-05	130.09	0.0822129	-0.0529447	-0.0628953	-21.9133	28.2019	26.1643	10.525	0.0327942	0.0132441	0.0353676	21.9915	97804.6	242178	261182	-68.0085	0.0000000E+000	0.0000000E+000	0.0000000E+000	68.0085	0.0000000E+000	0.0000000E+000	0.0000000E+000	-68.0085	0.0000000E+000	0.0000000E+000	0.0000000E+000	-21.9915	0.0000000E+000	0.0000000E+000	0.0000000E+000	21.9915	2.47614	68.0085	-6.89511e-08	-4.05201e-07	-3.90255e-10	-4.04811e-07	0.259682	166744	160.593	166583
14.6852	28.8547	9.27056	30.3074	-17.8114	12.3552	0.259922	-0.00105093	1169.06	109.383	1	11	0.00479719	0.000158285	0	6.39736e-05	2.33964e-06	7.14138e-06	-22.8726	0.0451173	0.0415698	0.0175363	-17.8189	30.3523	28.8963	9.2881	0.0314137	0.0100927	0.0329953	17.8114	109383	340456	357596	-72.1886	0.0000000E+000	0.0000000E+000	0.0000000E+000	72.1886	0.0000000E+000	0.0000000E+000	0.0000000E+000	-72.1886	0.0000000E+000	0.0000000E+000	0.0000000E+000	-17.8114	0.0000000E+000	0.0000000E+000	0.0000000E+000	17.8114	3.11251	72.1886	3.48049e-07	-2.7316e-07	-2.4588e-12	-2.73158e-07	0.25992	247326	2.22626	247324
10.0032	30.8947	7.86591	31.8803	-14.2843	12.8058	0.259927	-0.00130602	2022.7	123.136	1	11	0.00480367	0.000150678	0	6.25901e-05	0.000135881	7.58276e-06	18.2326	0.0503241	0.0477975	-0.0157452	-14.2357	31.9227	30.9425	7.85016	0.0303976	0.00773935	0.0313673	14.2843	123136	483638	499067	-75.7158	0.0000000E+000	0.0000000E+000	0.0000000E+000	75.7158	0.0000000E+000	0.0000000E+000	0.0000000E+000	-75.7158	0.0000000E+000	0.0000000E+000	0.0000000E+000	-14.2843	0.0000000E+000	0.0000000E+000	0.0000000E+000	14.2843	3.92767	75.7158	-1.3835e-06	-3.3947e-07	-1.77463e-10	-3.39292e-07	0.259791	199022	104.042	198918
6.81719	32.453	6.70472	33.1383	-11.673	13.1455	0.259934	-0.000151606	3482.04	142.539	1	11	0.00480365	0.000144957	0	6.38213e-05	0.000269422	8.91274e-06	23.3494	0.0614852	0.0564498	-0.0243689	-11.612	33.1887	32.5094	6.68035	0.0295524	0.00610547	0.0301765	11.673	142539	689934	704505	-78.327	0.0000000E+000	0.0000000E+000	0.0000000E+000	78.327	0.0000000E+000	0.0000000E+000	0.0000000E+000	-78.327	0.0000000E+000	0.0000000E+000	0.0000000E+000	-11.673	0.0000000E+000	0.0000000E+000	0.0000000E+000	11.673	4.84032	78.327	1.23116e-06	-3.94076e-08	-4.0846e-11	-3.93667e-08	0.259664	1.71453e+06	1777.12	1.71275e+06
4.63925	33.7031	5.64548	34.1727	-9.50912	13.6304	0.259928	-0.000673699	6076.75	165.85	1	11	0.00479837	0.000140415	0	6.39667e-05	0.000231267	4.85975e-06	-78.6755	0.0346098	0.00679615	0.033936	-9.56334	34.185	33.7099	5.67942	0.0288611	0.00483441	0.0292632	9.50912	165850	990113	1.00391e+06	-80.4909	0.0000000E+000	0.0000000E+000	0.0000000E+000	80.4909	0.0000000E+000	0.0000000E+000	0.0000000E+000	-80.4909	0.0000000E+000	0.0000000E+000	0.0000000E+000	-9.50912	0.0000000E+000	0.0000000E+000	0.0000000E+000	9.50912	5.96992	80.4909	1.4542e-07	-1.75113e-07	-1.55805e-10	-1.74957e-07	0.259697	385822	343.28	385479
3.1604	34.7744	4.96635	35.1273	-8.1278	14.3235	0.25993	0.000217247	10140.1	202.688	1	11	0.00480674	0.000136838	0	6.2192e-05	0.000116803	3.84766e-06	52.7926	0.0281184	0.0170033	-0.022395	-8.08774	35.1409	34.7914	4.94395	0.028182	0.00402484	0.0284679	8.1278	202688	1.41922e+06	1.43362e+06	-81.8722	0.0000000E+000	0.0000000E+000	0.0000000E+000	81.8722	0.0000000E+000	0.0000000E+000	0.0000000E+000	-81.8722	0.0000000E+000	0.0000000E+000	0.0000000E+000	-8.1278	0.0000000E+000	0.0000000E+000	0.0000000E+000	8.1278	7.00201	81.8722	-1.77469e-06	5.64691e-08	2.53752e-11	5.64437e-08	0.259813	1.19647e+06	537.652	1.19593e+06
2.15577	35.6904	4.38529	35.9588	-7.00484	15.327	0.25992	0.000452599	16835.2	250.384	1	11	0.00480516	0.000133629	0	6.07639e-05	0.000479272	3.48618e-06	21.2735	0.0260884	0.0243108	-0.00946541	-6.98516	35.9818	35.7147	4.37583	0.027602	0.00339147	0.0278096	7.00484	250384	2.03779e+06	2.05311e+06	-82.9952	0.0000000E+000	0.0000000E+000	0.0000000E+000	82.9952	0.0000000E+000	0.0000000E+000	0.0000000E+000	-82.9952	0.0000000E+000	0.0000000E+000	0.0000000E+000	-7.00484	0.0000000E+000	0.0000000E+000	0.0000000E+000	7.00484	8.13866	82.9952	-1.42813e-06	1.1764e-07	2.16918e-10	1.17423e-07	0.259441	574284	1058.93	573225
1.46631	36.4856	4.04035	36.7087	-6.31908	17.5145	0.259924	-0.000315215	26864.3	325.444	1	12	0.00480605	0.000130924	0	6.20467e-05	0.000307577	1.84157e-06	-11.0746	0.014066	0.013804	0.00270188	-6.3209	36.7227	36.4994	4.04305	0.027076	0.00299835	0.0272415	6.31908	325444	2.93886e+06	2.95683e+06	-83.6809	0.0000000E+000	0.0000000E+000	0.0000000E+000	83.6809	0.0000000E+000	0.0000000E+000	0.0000000E+000	-83.6809	0.0000000E+000	0.0000000E+000	0.0000000E+000	-6.31908	0.0000000E+000	0.0000000E+000	0.0000000E+000	6.31908	9.03031	83.6809	1.28283e-06	-8.19319e-08	-9.69527e-11	-8.18349e-08	0.259616	824594	975.768	823618
1.00006	37.2609	3.78195	37.4523	-5.79562	19.643	0.259926	-0.000338144	42080.1	429.092	1	12	0.00480889	0.0001284	0	6.60427e-05	4.04943e-05	4.06991e-06	-13.4078	0.0316971	0.0308331	0.00734992	-5.80204	37.4837	37.2917	3.7893	0.0265641	0.00269624	0.0267006	5.79562	429092	4.22754e+06	4.24926e+06	-84.2044	0.0000000E+000	0.0000000E+000	0.0000000E+000	84.2044	0.0000000E+000	0.0000000E+000	0.0000000E+000	-84.2044	0.0000000E+000	0.0000000E+000	0.0000000E+000	-5.79562	0.0000000E+000	0.0000000E+000	0.0000000E+000	5.79562	9.8523	84.2044	3.99593e-06	-8.78922e-08	-1.36929e-11	-8.78785e-08	0.259885	768684	119.755	768564
0.681362	38.0258	3.64686	38.2003	-5.47819	22.7551	0.25992	-0.000249262	64050.6	583.752	1	12	0.00480416	0.000125763	0	7.01815e-05	0.000231267	2.96055e-06	-3.41679	0.0235408	0.0234989	0.001403	-5.47692	38.2238	38.0493	3.64826	0.0260583	0.00249911	0.0261778	5.47819	583751	6.08678e+06	6.11471e+06	-84.5218	0.0000000E+000	0.0000000E+000	0.0000000E+000	84.5218	0.0000000E+000	0.0000000E+000	0.0000000E+000	-84.5218	0.0000000E+000	0.0000000E+000	0.0000000E+000	-5.47819	0.0000000E+000	0.0000000E+000	0.0000000E+000	5.47819	10.427	84.5218	4.13884e-06	-6.47881e-08	-5.76461e-11	-6.47305e-08	0.259689	1.04276e+06	927.81	1.04183e+06
0.464091	38.7839	3.65448	38.9557	-5.3829	27.3115	0.259914	0.000141019	93840.8	825.848	1	12	0.00480932	0.000123456	0	7.11219e-05	5.95716e-05	3.33916e-06	-15.551	0.0270474	0.0260573	0.00725128	-5.38991	38.9824	38.81	3.66173	0.025557	0.00240815	0.0256702	5.3829	825848	8.76449e+06	8.80331e+06	-84.6171	0.0000000E+000	0.0000000E+000	0.0000000E+000	84.6171	0.0000000E+000	0.0000000E+000	0.0000000E+000	-84.6171	0.0000000E+000	0.0000000E+000	0.0000000E+000	-5.3829	0.0000000E+000	0.0000000E+000	0.0000000E+000	5.3829	10.6127	84.6171	9.40398e-07	3.66529e-08	8.40073e-12	3.66445e-08	0.259855	1.84311e+06	422.436	1.84269e+06
0.316193	39.4764	3.80055	39.6589	-5.49915	33.9861	0.259925	0.000677345	132441	1216.28	1	12	0.00480953	0.000121272	0	6.57058e-05	0.000154958	2.62775e-06	-4.82509	0.0216681	0.0215913	0.0018226	-5.49878	39.6806	39.498	3.80238	0.025099	0.00241638	0.025215	5.49915	1.21628e+06	1.26335e+07	1.26919e+07	-84.5008	0.0000000E+000	0.0000000E+000	0.0000000E+000	84.5008	0.0000000E+000	0.0000000E+000	0.0000000E+000	-84.5008	0.0000000E+000	0.0000000E+000	0.0000000E+000	-5.49915	0.0000000E+000	0.0000000E+000	0.0000000E+000	5.49915	10.387	84.5008	-5.41611e-06	1.76059e-07	1.0496e-10	1.75954e-07	0.25977	383741	228.773	383512
0.215268	40.1334	4.0706	40.3393	-5.79153	43.7795	0.259918	0.000453751	181628	1849.46	1	12	0.00480834	0.000119197	0	5.17253e-05	0.000269422	2.69245e-06	7.1172	0.0225882	0.0224141	-0.00279866	-5.78437	40.3613	40.1558	4.0678	0.0246632	0.00250151	0.0247897	5.79153	1.84945e+06	1.82344e+07	1.83279e+07	-84.2085	0.0000000E+000	0.0000000E+000	0.0000000E+000	84.2085	0.0000000E+000	0.0000000E+000	0.0000000E+000	-84.2085	0.0000000E+000	0.0000000E+000	0.0000000E+000	-5.79153	0.0000000E+000	0.0000000E+000	0.0000000E+000	5.79153	9.85931	84.2085	-1.39804e-05	1.17938e-07	1.22251e-10	1.17816e-07	0.259648	572819	593.766	572226
0.146929	40.8965	4.52632	41.1462	-6.31565	58.1178	0.259924	0.000214718	239314	2896	1	12	0.00480845	0.000116863	0	3.23239e-05	0.00042204	1.7985e-06	28.4531	0.0153899	0.0135309	-0.00733234	-6.30343	41.1588	40.91	4.51898	0.0241561	0.00267354	0.0243036	6.31565	2.89601e+06	2.61662e+07	2.63259e+07	-83.6843	0.0000000E+000	0.0000000E+000	0.0000000E+000	83.6843	0.0000000E+000	0.0000000E+000	0.0000000E+000	-83.6843	0.0000000E+000	0.0000000E+000	0.0000000E+000	-6.31565	0.0000000E+000	0.0000000E+000	0.0000000E+000	6.31565	9.03526	83.6843	-1.94014e-05	5.58104e-08	9.06197e-11	5.57198e-08	0.259502	1.21054e+06	1965.56	1.20857e+06
0.0999041	41.8046	5.3602	42.1469	-7.30661	79.194	0.259918	-0.000434172	297205	4807.15	1	12	0.00480469	0.000113999	0	1.61243e-05	0.000441118	3.28638e-06	17.3361	0.0288282	0.0275186	-0.00859013	-7.29028	42.1731	41.8321	5.35161	0.0235339	0.00301752	0.0237266	7.30661	4.80715e+06	3.74913e+07	3.77983e+07	-82.6934	0.0000000E+000	0.0000000E+000	0.0000000E+000	82.6934	0.0000000E+000	0.0000000E+000	0.0000000E+000	-82.6934	0.0000000E+000	0.0000000E+000	0.0000000E+000	-7.30661	0.0000000E+000	0.0000000E+000	0.0000000E+000	7.30661	7.79908	82.6934	-1.61996e-05	-1.12849e-07	-1.91521e-10	-1.12658e-07	0.259477	598651	1016	597635
0.0680626	42.8209	6.61411	43.3287	-8.78051	110.121	0.259924	-0.000887426	353541	8238.18	1	12	0.00481009	0.000111014	0	1.49693e-05	0.000174035	1.74622e-06	10.9352	0.0157298	0.0154441	-0.00298391	-8.77349	43.3435	42.8364	6.61113	0.0228089	0.00352306	0.0230794	8.78051	8.23818e+06	5.33355e+07	5.39679e+07	-81.2195	0.0000000E+000	0.0000000E+000	0.0000000E+000	81.2195	0.0000000E+000	0.0000000E+000	0.0000000E+000	-81.2195	0.0000000E+000	0.0000000E+000	0.0000000E+000	-8.78051	0.0000000E+000	0.0000000E+000	0.0000000E+000	8.78051	6.47418	81.2195	-1.15506e-06	-2.30663e-07	-1.54444e-10	-2.30509e-07	0.25975	292897	196.113	292700
0.0464052	43.8819	8.22071	44.6453	-10.6106	155.473	0.259921	-0.000902742	417200	14145.3	1	12	0.00481107	0.000107762	0	5.22106e-05	-3.5815e-05	2.53862e-06	10.5054	0.0235576	0.0231627	-0.00429521	-10.5998	44.6673	43.9051	8.21641	0.0220158	0.00412437	0.0223988	10.6106	1.41453e+07	7.55071e+07	7.68206e+07	-79.3894	0.0000000E+000	0.0000000E+000	0.0000000E+000	79.3894	0.0000000E+000	0.0000000E+000	0.0000000E+000	-79.3894	0.0000000E+000	0.0000000E+000	0.0000000E+000	-10.6106	0.0000000E+000	0.0000000E+000	0.0000000E+000	10.6106	5.33797	79.3894	3.72413e-05	-2.34642e-07	3.23317e-11	-2.34674e-07	0.259957	287924	39.6736	287964
0.0315922	45.3292	10.1446	46.4505	-12.6148	222.078	0.25992	-0.000417102	496601	23686	1	12	0.00480855	0.00010352	0	0.000136622	7.86489e-05	1.88442e-06	-21.1548	0.0182035	0.0169767	0.00656945	-12.6181	46.4685	45.3462	10.1511	0.0210086	0.00470166	0.0215283	12.6148	2.3686e+07	1.05837e+08	1.08455e+08	-77.3852	0.0000000E+000	0.0000000E+000	0.0000000E+000	77.3852	0.0000000E+000	0.0000000E+000	0.0000000E+000	-77.3852	0.0000000E+000	0.0000000E+000	0.0000000E+000	-12.6148	0.0000000E+000	0.0000000E+000	0.0000000E+000	12.6148	4.46833	77.3852	8.44118e-05	-1.08413e-07	-3.28046e-11	-1.0838e-07	0.259841	623157	188.56	622968
0.0215268	47.3571	12.7033	49.0312	-15.0158	319.816	0.259916	0.00033509	582003	39067.1	1	12	0.00480637	9.80267e-05	0	0.000246948	0.000326654	3.54929e-06	25.4974	0.0362074	0.032681	-0.0155862	-14.9883	49.0588	47.3897	12.6877	0.0196988	0.00528409	0.0203952	15.0158	3.90671e+07	1.4564e+08	1.50788e+08	-74.9842	0.0000000E+000	0.0000000E+000	0.0000000E+000	74.9842	0.0000000E+000	0.0000000E+000	0.0000000E+000	-74.9842	0.0000000E+000	0.0000000E+000	0.0000000E+000	-15.0158	0.0000000E+000	0.0000000E+000	0.0000000E+000	15.0158	3.72794	74.9842	0.000110325	8.70953e-08	1.09458e-10	8.69858e-08	0.259589	775660	974.824	774685
0.0146812	49.5836	16.3882	52.2217	-18.2896	463.119	0.259914	0.000702097	661498	65146.1	1	12	0.00480703	9.20504e-05	0	0.000317262	0.000135881	1.58392e-06	-14.0414	0.0172071	0.016693	0.00417484	-18.2882	52.2388	49.6003	16.3923	0.0181818	0.00600937	0.0191491	18.2896	6.51461e+07	1.97104e+08	2.07591e+08	-71.7104	0.0000000E+000	0.0000000E+000	0.0000000E+000	71.7104	0.0000000E+000	0.0000000E+000	0.0000000E+000	-71.7104	0.0000000E+000	0.0000000E+000	0.0000000E+000	-18.2896	0.0000000E+000	0.0000000E+000	0.0000000E+000	18.2896	3.02557	71.7104	7.03144e-05	1.82484e-07	9.54014e-11	1.82389e-07	0.259778	370196	193.536	370003
0.0100092	51.658	21.133	55.8135	-22.2492	673.299	0.259914	0.000622871	752421	107871	1	12	0.00480976	8.61755e-05	0	0.000248622	0.000193113	1.88333e-06	1.88466	0.0218546	0.0218428	-0.000718746	-22.24	55.8335	51.6798	21.1323	0.0165828	0.00678394	0.0179168	22.2492	1.07871e+08	2.63682e+08	2.84893e+08	-67.7508	0.0000000E+000	0.0000000E+000	0.0000000E+000	67.7508	0.0000000E+000	0.0000000E+000	0.0000000E+000	-67.7508	0.0000000E+000	0.0000000E+000	0.0000000E+000	-22.2492	0.0000000E+000	0.0000000E+000	0.0000000E+000	22.2492	2.44442	67.7508	-6.86395e-05	1.61893e-07	1.20284e-10	1.61773e-07	0.259721	417284	310.036	416974