File: txt/18485_R301_UA694_SOC00_C07.mpt
EC-Lab ASCII FILE
Nb header lines : 65

Potentio Electrochemical Impedance Spectroscopy

Run on channel : 7 (SN 66126)
User :
CE vs. WE compliance from -10 V to 10 V
Electrode connection : standard
Potential control : Ewe
Ewe ctrl range : min = -10.00 V, max = 10.00 V
Safety Limits :
	Do not start on E overload
Acquisition started on : 10/21/2025 09:26:52.819
Technique started on : 10/21/2025 09:26:54.730
Loaded Setting File :  C:\Users\Celltest\OneDrive - store-dot.com\Documents\EC-Lab\Data\@Biologic Test Protocols\anode half cell EIS SOC00.mps
Saved on :
	File : 18485_R301_UA694_SOC00_C07.mpr
	Directory : C:\Users\Celltest\OneDrive - store-dot.com\Documents\EC-Lab\Data\Gyutae\
	Host : 169.254.61.224
Device : VMP-3e (SN .003165)
Address : USB
EC-LAB for windows v11.62 (software)
Internet server v27.00 (firmware)
Command interpretor v12.03 (firmware)
Electrode material :
Initial state :
Electrolyte :
Comments :
Electrode surface area : 0.001 cm²
Characteristic mass : 0.001 g
Equivalent Weight : 0.000 g/eq.
Density : 0.000 g/cm3
Volume (V) : 0.001 cm³
Record Ece
Cycle Definition : Charge/Discharge alternance
Mode                Single sine
E (V)               0.0000
vs.                 Eoc
tE (h:m:s)          0:00:0.0000
record              0
dI                  0.000
unit dI             mA
dt (s)              0.000
fi                  100.000
unit fi             kHz
ff                  10.000
unit ff             mHz
Nd                  6
Points              per decade
spacing             Logarithmic
Va (mV)             5.0
pw                  0.10
Na                  2
corr                0
E range min (V)     -10.000
E range max (V)     10.000
I Range             Auto
Bandwidth           5
nc cycles           0
goto Ns'            0
nr cycles           0
inc. cycle          0

freq/Hz	Re(Z)/Ohm	-Im(Z)/Ohm	|Z|/Ohm	Phase(Z)/deg	time/s	<Ewe>/V	<I>/mA	Cs/µF	Cp/µF	cycle number	I Range	|Ewe|/V	|I|/A	Ns	(Q-Qo)/mA.h	<Ece>/V	|Ece|/V	Phase(Zce)/deg	|Zce|/Ohm	Re(Zce)/Ohm	-Im(Zce)/Ohm	Phase(Zwe-ce)/deg	|Zwe-ce|/Ohm	Re(Zwe-ce)/Ohm	-Im(Zwe-ce)/Ohm	Re(Y)/Ohm-1	Im(Y)/Ohm-1	|Y|/Ohm-1	Phase(Y)/deg	Re(C)/nF	Im(C)/nF	|C|/nF	Phase(C)/deg	Re(M)	Im(M)	|M|	Phase(M)/deg	Re(Permittivity)	Im(Permittivity)	|Permittivity|	Phase(Permittivity)/deg	Re(Resistivity)/Ohm.cm	Im(Resistivity)/Ohm.cm	|Resistivity|/Ohm.cm	Phase(Resistivity)/deg	Re(Conductivity)/mS/cm	Im(Conductivity)/mS/cm	|Conductivity|/mS/cm	Phase(Conductivity)/deg	Tan(Delta)	Loss Angle(Delta)/deg	dq/mA.h	Pwe/W	Pce/W	Pwe-ce/W	<Ewe-Ece>/V	Rwe/Ohm	Rce/Ohm	Rwe-ce/Ohm		Ewe-Ece/V
100004	1.31819	0.514654	1.4151	-21.3268	1.91051	0.266032	0.0652449	3.09235	0.409021	1	9	0.00463261	0.0032737	0	7.38736e-07	-0.000135842	4.10539e-05	83.7588	0.0125405	0.00136334	-0.0124662	-20.8354	1.41189	1.31956	0.502187	0.658273	0.257005	0.706664	21.3268	409.021	1047.63	1124.65	-68.6732	0.0000000E+000	0.0000000E+000	0.0000000E+000	68.6732	0.0000000E+000	0.0000000E+000	0.0000000E+000	-68.6732	0.0000000E+000	0.0000000E+000	0.0000000E+000	-21.3268	0.0000000E+000	0.0000000E+000	0.0000000E+000	21.3268	2.56132	68.6732	7.38736e-07	1.73573e-05	-8.863e-09	1.73661e-05	0.266168	4077.44	2.08203	4079.52
68132	1.45304	0.605944	1.57433	-22.637	2.41956	0.266012	0.0544465	3.8551	0.571099	1	9	0.005047	0.00320582	0	1.50866e-06	1.67614e-05	2.57469e-05	63.466	0.00803131	0.00358782	-0.00718537	-22.3455	1.57489	1.45663	0.598759	0.586258	0.24448	0.635192	22.637	571.099	1369.49	1483.79	-67.363	0.0000000E+000	0.0000000E+000	0.0000000E+000	67.363	0.0000000E+000	0.0000000E+000	0.0000000E+000	-67.363	0.0000000E+000	0.0000000E+000	0.0000000E+000	-22.637	0.0000000E+000	0.0000000E+000	0.0000000E+000	22.637	2.39798	67.363	7.69923e-07	1.44834e-05	9.12597e-10	1.44825e-05	0.265995	4885.75	0.30785	4885.44
46420.4	1.61348	0.686284	1.75337	-23.0422	2.92655	0.266026	0.0540369	4.99583	0.765365	1	9	0.00506651	0.00288959	0	1.44284e-05	-0.000364747	2.08589e-05	45.0217	0.00721866	0.00510243	-0.0051063	-22.8237	1.75608	1.61858	0.681177	0.524828	0.223232	0.570331	23.0422	765.365	1799.4	1955.41	-66.9578	0.0000000E+000	0.0000000E+000	0.0000000E+000	66.9578	0.0000000E+000	0.0000000E+000	0.0000000E+000	-66.9578	0.0000000E+000	0.0000000E+000	0.0000000E+000	-23.0422	0.0000000E+000	0.0000000E+000	0.0000000E+000	23.0422	2.35104	66.9578	1.29197e-05	1.43752e-05	-1.97098e-08	1.43949e-05	0.266391	4923.05	6.74997	4929.8
31621.1	1.78555	0.780816	1.94881	-23.6196	3.43353	0.266023	0.0620054	6.44605	1.03479	1	9	0.00514412	0.00263962	0	2.74476e-05	-4.04649e-05	1.74054e-05	53.9684	0.00659389	0.00387874	-0.00533243	-23.4305	1.95024	1.78943	0.775484	0.470146	0.205594	0.513134	23.6196	1034.79	2366.33	2582.7	-66.3804	0.0000000E+000	0.0000000E+000	0.0000000E+000	66.3804	0.0000000E+000	0.0000000E+000	0.0000000E+000	-66.3804	0.0000000E+000	0.0000000E+000	0.0000000E+000	-23.6196	0.0000000E+000	0.0000000E+000	0.0000000E+000	23.6196	2.28677	66.3804	1.30192e-05	1.64949e-05	-2.50904e-09	1.64974e-05	0.266063	4290.32	0.652603	4290.97
21544.7	1.97241	0.87374	2.15727	-23.8925	3.81652	0.266018	0.0550422	8.45469	1.38693	1	9	0.00527317	0.00244437	0	3.79295e-05	-0.000402898	5.17306e-06	-31.8203	0.00211631	0.00179824	0.00111584	-23.9002	2.15937	1.9742	0.874856	0.423826	0.187747	0.463549	23.8925	1386.93	3130.89	3424.33	-66.1075	0.0000000E+000	0.0000000E+000	0.0000000E+000	66.1075	0.0000000E+000	0.0000000E+000	0.0000000E+000	-66.1075	0.0000000E+000	0.0000000E+000	0.0000000E+000	-23.8925	0.0000000E+000	0.0000000E+000	0.0000000E+000	23.8925	2.25743	66.1075	1.04819e-05	1.46422e-05	-2.21764e-08	1.46644e-05	0.266421	4832.98	7.3198	4840.3
14678.6	2.18322	0.963735	2.38647	-23.818	4.07554	0.266024	0.0577977	11.2507	1.83477	1	9	0.00530373	0.00222242	0	4.36463e-05	3.58368e-05	6.70969e-06	-72.2527	0.00301909	0.00092028	0.00287542	-23.8722	2.38848	2.18414	0.96661	0.383341	0.169217	0.419029	23.818	1834.77	4156.44	4543.38	-66.182	0.0000000E+000	0.0000000E+000	0.0000000E+000	66.182	0.0000000E+000	0.0000000E+000	0.0000000E+000	-66.182	0.0000000E+000	0.0000000E+000	0.0000000E+000	-23.818	0.0000000E+000	0.0000000E+000	0.0000000E+000	23.818	2.26538	66.182	5.71689e-06	1.53756e-05	2.07128e-09	1.53735e-05	0.265989	4602.68	0.620038	4602.06
10002.2	2.40195	1.07097	2.62989	-24.0309	4.33653	0.266022	0.0564572	14.8575	2.46391	1	9	0.00501509	0.00190696	0	4.79021e-05	-0.000460124	7.52266e-06	-34.9818	0.00394485	0.00323215	0.00226165	-24.0472	2.63376	2.40518	1.07323	0.347287	0.154846	0.380244	24.0309	2463.91	5526.01	6050.43	-65.9691	0.0000000E+000	0.0000000E+000	0.0000000E+000	65.9691	0.0000000E+000	0.0000000E+000	0.0000000E+000	-65.9691	0.0000000E+000	0.0000000E+000	0.0000000E+000	-24.0309	0.0000000E+000	0.0000000E+000	0.0000000E+000	24.0309	2.24278	65.9691	4.25576e-06	1.50188e-05	-2.59773e-08	1.50448e-05	0.266482	4711.92	8.14997	4720.07
6810.42	2.61856	1.21922	2.88849	-24.967	4.59553	0.266025	0.0505366	19.1675	3.41497	1	9	0.00475691	0.00164685	0	5.08344e-05	-7.86157e-05	0.000145483	-16.4287	0.0883402	0.0847335	0.0249846	-24.7144	2.97588	2.70329	1.2442	0.31385	0.14613	0.346202	24.967	3414.97	7334.46	8090.51	-65.033	0.0000000E+000	0.0000000E+000	0.0000000E+000	65.033	0.0000000E+000	0.0000000E+000	0.0000000E+000	-65.033	0.0000000E+000	0.0000000E+000	0.0000000E+000	-24.967	0.0000000E+000	0.0000000E+000	0.0000000E+000	24.967	2.14774	65.033	2.93234e-06	1.3444e-05	-3.97298e-09	1.3448e-05	0.266104	5264	1.55562	5265.56
4646	2.93049	1.354	3.22817	-24.7988	4.8606	0.265988	0.0312111	25.3001	4.45089	1	9	0.00469034	0.00145294	0	5.21386e-05	-0.000154917	5.24743e-06	75.6655	0.00361159	0.000894165	-0.00349915	-24.7357	3.22752	2.93138	1.3505	0.281208	0.129929	0.309773	24.7988	4450.89	9633.15	10611.7	-65.2012	0.0000000E+000	0.0000000E+000	0.0000000E+000	65.2012	0.0000000E+000	0.0000000E+000	0.0000000E+000	-65.2012	0.0000000E+000	0.0000000E+000	0.0000000E+000	-24.7988	0.0000000E+000	0.0000000E+000	0.0000000E+000	24.7988	2.16432	65.2012	1.30419e-06	8.30178e-06	-4.83515e-09	8.30662e-06	0.266143	8522.22	4.96353	8527.19
3163.08	3.23746	1.54461	3.58706	-25.5061	5.23566	0.265847	0.0134123	32.5754	6.04022	1	9	0.00459365	0.00128062	0	5.4685e-05	-0.000288445	1.218e-05	-130.969	0.00951102	-0.00623588	0.00718146	-25.6526	3.58454	3.23123	1.5518	0.25161	0.120045	0.27878	25.5061	6040.22	12660.1	14027.2	-64.4939	0.0000000E+000	0.0000000E+000	0.0000000E+000	64.4939	0.0000000E+000	0.0000000E+000	0.0000000E+000	-64.4939	0.0000000E+000	0.0000000E+000	0.0000000E+000	-25.5061	0.0000000E+000	0.0000000E+000	0.0000000E+000	25.5061	2.09597	64.4939	2.54641e-06	3.56561e-06	-3.8687e-09	3.56948e-06	0.266136	19821.2	21.5061	19842.7
2155.69	3.58231	1.76897	3.99527	-26.2805	5.93185	0.26593	-0.0150801	41.7362	8.18206	1	10	0.00470063	0.00117655	0	5.71096e-05	-0.000212144	6.54806e-06	28.9645	0.00556549	0.00486936	-0.00269518	-26.215	3.99845	3.58718	1.76628	0.224425	0.110823	0.250296	26.2805	8182.06	16569.3	18479.4	-63.7195	0.0000000E+000	0.0000000E+000	0.0000000E+000	63.7195	0.0000000E+000	0.0000000E+000	0.0000000E+000	-63.7195	0.0000000E+000	0.0000000E+000	0.0000000E+000	-26.2805	0.0000000E+000	0.0000000E+000	0.0000000E+000	26.2805	2.02508	63.7195	2.4246e-06	-4.01026e-06	3.19916e-09	-4.01346e-06	0.266142	17634.5	14.0678	17648.5
1468.59	3.93831	2.0433	4.43682	-27.4215	6.38311	0.265937	-0.0150653	53.038	11.2489	1	10	0.00462678	0.00104282	0	5.49768e-05	-0.000383823	1.20786e-05	137.036	0.0115827	-0.00847602	-0.00789404	-27.3814	4.42566	3.92983	2.03541	0.200063	0.103798	0.225387	27.4215	11248.9	21681.3	24425.8	-62.5785	0.0000000E+000	0.0000000E+000	0.0000000E+000	62.5785	0.0000000E+000	0.0000000E+000	0.0000000E+000	-62.5785	0.0000000E+000	0.0000000E+000	0.0000000E+000	-27.4215	0.0000000E+000	0.0000000E+000	0.0000000E+000	27.4215	1.92742	62.5785	-2.13281e-06	-4.00641e-06	5.78238e-09	-4.01219e-06	0.266321	17652.3	25.4773	17677.8
1000.32	4.32347	2.40149	4.94566	-29.0502	6.83386	0.265936	-0.0158433	66.2521	15.6212	1	10	0.00458057	0.00092618	0	5.23176e-05	-0.000135842	1.60701e-05	-5.36132	0.017351	0.0172751	0.00162121	-28.9697	4.96155	4.34074	2.40312	0.17676	0.0981824	0.202198	29.0502	15621.2	28123.2	32170.4	-60.9498	0.0000000E+000	0.0000000E+000	0.0000000E+000	60.9498	0.0000000E+000	0.0000000E+000	0.0000000E+000	-60.9498	0.0000000E+000	0.0000000E+000	0.0000000E+000	-29.0502	0.0000000E+000	0.0000000E+000	0.0000000E+000	29.0502	1.80032	60.9498	-2.6592e-06	-4.2133e-06	2.15219e-09	-4.21545e-06	0.266072	16785.4	8.57409	16793.9
681.09	4.73137	2.8906	5.5445	-31.4225	7.28455	0.26593	-0.0161411	80.8404	21.9725	1	10	0.0045346	0.000817856	0	5.09513e-05	3.58368e-05	7.53859e-06	76.8461	0.00921751	0.0020976	-0.00897566	-31.332	5.54161	4.73347	2.88162	0.153909	0.0940293	0.180359	31.4225	21972.5	35964.9	42145.7	-58.5775	0.0000000E+000	0.0000000E+000	0.0000000E+000	58.5775	0.0000000E+000	0.0000000E+000	0.0000000E+000	-58.5775	0.0000000E+000	0.0000000E+000	0.0000000E+000	-31.4225	0.0000000E+000	0.0000000E+000	0.0000000E+000	31.4225	1.63682	58.5775	-1.36628e-06	-4.29241e-06	-5.78446e-10	-4.29183e-06	0.265894	16475.3	2.22022	16473.1
463.961	5.2389	3.58053	6.34557	-34.3507	7.73628	0.265931	-0.014693	95.8057	30.5032	1	10	0.00451829	0.000712037	0	4.89129e-05	-0.000250295	1.02292e-05	-12.3741	0.0143661	0.0140324	0.00307857	-34.3023	6.3589	5.25293	3.58361	0.130106	0.0889213	0.15759	34.3507	30503.2	44631.1	54059	-55.6493	0.0000000E+000	0.0000000E+000	0.0000000E+000	55.6493	0.0000000E+000	0.0000000E+000	0.0000000E+000	-55.6493	0.0000000E+000	0.0000000E+000	0.0000000E+000	-34.3507	0.0000000E+000	0.0000000E+000	0.0000000E+000	34.3507	1.46316	55.6493	-2.03846e-06	-3.90732e-06	3.67757e-09	-3.91099e-06	0.266181	18099.2	17.035	18116.2
316.316	5.88013	4.55593	7.43858	-37.7686	8.18402	0.265917	-0.0158992	110.439	41.4283	1	10	0.00450076	0.000605057	0	4.72768e-05	-0.000212144	5.14904e-06	72.2641	0.00851001	0.00259241	-0.00810553	-37.707	7.43567	5.88272	4.54783	0.106269	0.0823375	0.134434	37.7686	41428.3	53469.5	67640.9	-52.2314	0.0000000E+000	0.0000000E+000	0.0000000E+000	52.2314	0.0000000E+000	0.0000000E+000	0.0000000E+000	-52.2314	0.0000000E+000	0.0000000E+000	0.0000000E+000	-37.7686	0.0000000E+000	0.0000000E+000	0.0000000E+000	37.7686	1.29065	52.2314	-1.63612e-06	-4.22785e-06	3.37291e-09	-4.23123e-06	0.266129	16725.2	13.3431	16738.6
215.345	6.82206	5.83649	8.97804	-40.548	8.84851	0.265911	-0.0172282	126.629	53.5149	1	10	0.00486864	0.000542283	0	4.42622e-05	-0.000574577	8.33538e-06	-66.9373	0.0153709	0.00602137	0.0141424	-40.5916	8.99181	6.82809	5.85064	0.0846355	0.0724084	0.111383	40.548	53514.9	62551.7	82319.9	-49.452	0.0000000E+000	0.0000000E+000	0.0000000E+000	49.452	0.0000000E+000	0.0000000E+000	0.0000000E+000	-49.452	0.0000000E+000	0.0000000E+000	0.0000000E+000	-40.548	0.0000000E+000	0.0000000E+000	0.0000000E+000	40.548	1.16886	49.452	-3.0146e-06	-4.58117e-06	9.89891e-09	-4.59106e-06	0.266486	15434.7	33.351	15468
146.737	8.23185	7.38371	11.0581	-41.8911	9.29447	0.265917	-0.0180621	146.894	65.4922	1	10	0.0048619	0.000439667	0	4.17328e-05	-0.000154917	1.12183e-05	5.52577	0.0255154	0.0253969	-0.00245697	-41.7939	11.0754	8.25725	7.38126	0.0673183	0.0603824	0.0904311	41.8911	65492.2	73015	98083.8	-48.1089	0.0000000E+000	0.0000000E+000	0.0000000E+000	48.1089	0.0000000E+000	0.0000000E+000	0.0000000E+000	-48.1089	0.0000000E+000	0.0000000E+000	0.0000000E+000	-41.8911	0.0000000E+000	0.0000000E+000	0.0000000E+000	41.8911	1.11487	48.1089	-2.52936e-06	-4.80302e-06	2.79813e-09	-4.80582e-06	0.266072	14722.4	8.57694	14731
100.032	10.2512	9.09501	13.7042	-41.58	9.7458	0.265927	-0.0175186	174.935	77.0506	1	10	0.00484546	0.000353574	0	4.00994e-05	-7.86157e-05	8.55728e-06	-5.47989	0.0242022	0.0240916	0.00231123	-41.5205	13.7238	10.2752	9.09732	0.0545839	0.0484278	0.0729702	41.58	77050.6	86845.2	116099	-48.42	0.0000000E+000	0.0000000E+000	0.0000000E+000	48.42	0.0000000E+000	0.0000000E+000	0.0000000E+000	-48.42	0.0000000E+000	0.0000000E+000	0.0000000E+000	-41.58	0.0000000E+000	0.0000000E+000	0.0000000E+000	41.58	1.12712	48.42	-1.63344e-06	-4.65866e-06	1.37724e-09	-4.66004e-06	0.266006	15179.7	4.48757	15184.2
68.104	13.1928	10.6999	16.9864	-39.0435	10.2084	0.265926	-0.0149387	218.407	86.6611	1	10	0.00485517	0.000285826	0	3.84894e-05	-0.000231219	7.6585e-06	-20.4842	0.0267943	0.0251	0.00937665	-39.0148	17.0118	13.2179	10.7093	0.0457228	0.0370832	0.0588705	39.0435	86661.1	106852	137577	-50.9565	0.0000000E+000	0.0000000E+000	0.0000000E+000	50.9565	0.0000000E+000	0.0000000E+000	0.0000000E+000	-50.9565	0.0000000E+000	0.0000000E+000	0.0000000E+000	-39.0435	0.0000000E+000	0.0000000E+000	0.0000000E+000	39.0435	1.23298	50.9565	-1.60996e-06	-3.97259e-06	3.45411e-09	-3.97605e-06	0.266157	17801.2	15.4779	17816.6
46.4415	16.7133	11.6736	20.3864	-34.9327	10.8847	0.265964	-0.00850205	293.569	96.2574	1	11	0.0048416	0.000237491	0	3.68436e-05	-0.000116767	3.46975e-05	-4.07049	0.1461	0.145732	0.0103707	-34.7233	20.512	16.859	11.6839	0.0402143	0.028088	0.0490522	34.9327	96257.4	137814	168102	-55.0673	0.0000000E+000	0.0000000E+000	0.0000000E+000	55.0673	0.0000000E+000	0.0000000E+000	0.0000000E+000	-55.0673	0.0000000E+000	0.0000000E+000	0.0000000E+000	-34.9327	0.0000000E+000	0.0000000E+000	0.0000000E+000	34.9327	1.43172	55.0673	-1.64583e-06	-2.26124e-06	9.92755e-10	-2.26223e-06	0.266081	31282.4	13.7339	31296.1
31.6296	20.5967	11.8792	23.7769	-29.9742	11.3145	0.26596	-0.00838799	423.585	105.731	1	11	0.00485286	0.0002041	0	3.54186e-05	-0.000288445	8.47983e-06	60.4102	0.0415474	0.0205156	-0.0361289	-29.8741	23.7766	20.6172	11.843	0.0364325	0.0210124	0.0420577	29.9742	105731	183322	211628	-60.0258	0.0000000E+000	0.0000000E+000	0.0000000E+000	60.0258	0.0000000E+000	0.0000000E+000	0.0000000E+000	-60.0258	0.0000000E+000	0.0000000E+000	0.0000000E+000	-29.9742	0.0000000E+000	0.0000000E+000	0.0000000E+000	29.9742	1.73385	60.0258	-1.42502e-06	-2.23087e-06	2.41948e-09	-2.23329e-06	0.266248	31707.2	34.3879	31741.6
21.5517	24.2015	11.173	26.6561	-24.7812	11.7354	0.265964	-0.0083824	660.95	116.122	1	11	0.00485001	0.000181947	0	3.43783e-05	-7.86157e-05	5.31853e-06	132.505	0.0292311	-0.0197501	-0.0215498	-24.7569	26.6291	24.1817	11.1514	0.0340603	0.0157245	0.0375149	24.7812	116122	251528	277039	-65.2188	0.0000000E+000	0.0000000E+000	0.0000000E+000	65.2188	0.0000000E+000	0.0000000E+000	0.0000000E+000	-65.2188	0.0000000E+000	0.0000000E+000	0.0000000E+000	-24.7812	0.0000000E+000	0.0000000E+000	0.0000000E+000	24.7812	2.16607	65.2188	-1.04028e-06	-2.22942e-06	6.58989e-10	-2.23008e-06	0.266043	31728.8	9.37867	31738.2
14.6852	27.16	10.0429	28.9573	-20.2928	12.1962	0.265967	-0.00780727	1079.15	129.803	1	11	0.00484456	0.0001673	0	3.30609e-05	1.67614e-05	3.73615e-06	-7.64394	0.022332	0.0221335	0.00297052	-20.2831	28.9791	27.1821	10.0459	0.0323902	0.0119769	0.0345336	20.2928	129803	351039	374269	-69.7072	0.0000000E+000	0.0000000E+000	0.0000000E+000	69.7072	0.0000000E+000	0.0000000E+000	0.0000000E+000	-69.7072	0.0000000E+000	0.0000000E+000	0.0000000E+000	-20.2928	0.0000000E+000	0.0000000E+000	0.0000000E+000	20.2928	2.70439	69.7072	-1.31735e-06	-2.07647e-06	-1.3086e-10	-2.07634e-06	0.26595	34066.6	2.14689	34064.4
10.0032	29.5289	8.80597	30.814	-16.6054	12.6468	0.265958	-0.00797761	1806.77	147.558	1	11	0.00484208	0.000157139	0	3.33738e-05	-0.000193068	7.28673e-06	41.8005	0.0463712	0.0345684	-0.0309083	-16.532	30.8383	29.5635	8.77506	0.0310994	0.00927432	0.0324528	16.6054	147558	494804	516337	-73.3946	0.0000000E+000	0.0000000E+000	0.0000000E+000	73.3946	0.0000000E+000	0.0000000E+000	0.0000000E+000	-73.3946	0.0000000E+000	0.0000000E+000	0.0000000E+000	-16.6054	0.0000000E+000	0.0000000E+000	0.0000000E+000	16.6054	3.35328	73.3946	3.12876e-07	-2.12171e-06	1.54022e-09	-2.12325e-06	0.266151	33338.1	24.2013	33362.3
6.81719	31.4785	7.59264	32.3813	-13.5608	12.9865	0.265972	-0.00684076	3074.84	169.052	1	11	0.00484281	0.000149556	0	3.16354e-05	-7.86157e-05	1.00911e-05	0.455319	0.0674737	0.0674716	-0.000536196	-13.5319	32.4467	31.546	7.5921	0.0300211	0.00724111	0.0308821	13.5608	169052	700877	720976	-76.4392	0.0000000E+000	0.0000000E+000	0.0000000E+000	76.4392	0.0000000E+000	0.0000000E+000	0.0000000E+000	-76.4392	0.0000000E+000	0.0000000E+000	0.0000000E+000	-13.5608	0.0000000E+000	0.0000000E+000	0.0000000E+000	13.5608	4.14593	76.4392	-1.73842e-06	-1.81945e-06	5.37792e-10	-1.81999e-06	0.26605	38880.4	11.4922	38891.9
4.63925	33.0757	6.48514	33.7054	-11.0933	13.4704	0.265974	-0.0072381	5289.96	195.836	1	11	0.00484307	0.000143688	0	3.0126e-05	-0.000307521	7.94268e-06	59.5795	0.0552773	0.0279892	-0.0476674	-11.0046	33.7238	33.1037	6.43748	0.0291144	0.00570847	0.0296688	11.0933	195836	998805	1.01782e+06	-78.9067	0.0000000E+000	0.0000000E+000	0.0000000E+000	78.9067	0.0000000E+000	0.0000000E+000	0.0000000E+000	-78.9067	0.0000000E+000	0.0000000E+000	0.0000000E+000	-11.0933	0.0000000E+000	0.0000000E+000	0.0000000E+000	11.0933	5.10022	78.9067	-1.50942e-06	-1.92514e-06	2.22587e-09	-1.92737e-06	0.266281	36746.3	42.4864	36788.8
3.1604	34.341	5.75356	34.8197	-9.5111	14.1634	0.265984	-0.00643877	8752.7	238.982	1	11	0.0048504	0.000139301	0	3.06016e-05	-0.000288445	4.85517e-06	-34.2817	0.0348539	0.028799	0.0196319	-9.53511	34.8513	34.3698	5.77319	0.0283246	0.00474555	0.0287194	9.5111	238982	1.4264e+06	1.44628e+06	-80.4889	0.0000000E+000	0.0000000E+000	0.0000000E+000	80.4889	0.0000000E+000	0.0000000E+000	0.0000000E+000	-80.4889	0.0000000E+000	0.0000000E+000	0.0000000E+000	-9.5111	0.0000000E+000	0.0000000E+000	0.0000000E+000	9.5111	5.96866	80.4889	4.7564e-07	-1.71261e-06	1.85723e-09	-1.71447e-06	0.266273	41309.8	44.7982	41354.6
2.15577	35.4681	5.06123	35.8274	-8.12116	15.167	0.265974	-0.00594079	14586.9	291.101	1	11	0.00484812	0.000135319	0	3.0912e-05	-9.76912e-05	6.50455e-06	-46.1554	0.0480683	0.0332971	0.0346679	-8.16848	35.8653	35.5014	5.0959	0.0276317	0.00394298	0.0279116	8.12116	291101	2.03998e+06	2.06064e+06	-81.8788	0.0000000E+000	0.0000000E+000	0.0000000E+000	81.8788	0.0000000E+000	0.0000000E+000	0.0000000E+000	-81.8788	0.0000000E+000	0.0000000E+000	0.0000000E+000	-8.12116	0.0000000E+000	0.0000000E+000	0.0000000E+000	8.12116	7.00781	81.8788	3.10364e-07	-1.5801e-06	5.80363e-10	-1.58068e-06	0.266072	44770.8	16.4441	44787.3
1.46631	36.5055	4.58917	36.7929	-7.16516	17.3536	0.265977	-0.00585709	23651.6	367.961	1	12	0.00485172	0.000131866	0	2.68059e-05	-0.000402898	3.01409e-06	36.843	0.0228573	0.0182922	-0.0137058	-7.14044	36.8093	36.5238	4.57547	0.0269669	0.00339006	0.0271792	7.16516	367961	2.92702e+06	2.95006e+06	-82.8348	0.0000000E+000	0.0000000E+000	0.0000000E+000	82.8348	0.0000000E+000	0.0000000E+000	0.0000000E+000	-82.8348	0.0000000E+000	0.0000000E+000	0.0000000E+000	-7.16516	0.0000000E+000	0.0000000E+000	0.0000000E+000	7.16516	7.95471	82.8348	-4.1061e-06	-1.55785e-06	2.35981e-09	-1.56021e-06	0.26638	45411.2	68.7881	45480
1.00006	37.409	4.12692	37.6359	-6.29536	19.4836	0.265976	-0.0055429	38562.6	463.675	1	12	0.00484909	0.000128842	0	1.93549e-05	-0.000402898	2.60224e-06	15.8807	0.0201971	0.0194263	-0.00552665	-6.28376	37.6546	37.4284	4.1214	0.0264101	0.00291354	0.0265704	6.29536	463675	4.20304e+06	4.22853e+06	-83.7046	0.0000000E+000	0.0000000E+000	0.0000000E+000	83.7046	0.0000000E+000	0.0000000E+000	0.0000000E+000	-83.7046	0.0000000E+000	0.0000000E+000	0.0000000E+000	-6.29536	0.0000000E+000	0.0000000E+000	0.0000000E+000	6.29536	9.06462	83.7046	-7.451e-06	-1.47428e-06	2.23322e-09	-1.47651e-06	0.266379	47985.1	72.6872	48057.8
0.681362	38.2648	3.76144	38.4492	-5.61416	22.5965	0.265981	-0.00519747	62099.4	594.322	1	12	0.00484791	0.000126086	0	9.75099e-06	-0.000383823	1.67971e-06	50.0403	0.0133219	0.00855596	-0.0102112	-5.59778	38.4567	38.2733	3.75123	0.0258836	0.00254437	0.0260084	5.61416	594323	6.04598e+06	6.07512e+06	-84.3858	0.0000000E+000	0.0000000E+000	0.0000000E+000	84.3858	0.0000000E+000	0.0000000E+000	0.0000000E+000	-84.3858	0.0000000E+000	0.0000000E+000	0.0000000E+000	-5.61416	0.0000000E+000	0.0000000E+000	0.0000000E+000	5.61416	10.1729	84.3858	-9.60388e-06	-1.38243e-06	1.99491e-09	-1.38443e-06	0.266365	51175.2	73.8479	51249
0.464091	39.0382	3.54801	39.1991	-5.19308	27.152	0.265985	-0.00522017	96657	791.86	1	12	0.00484643	0.000123636	0	7.32917e-07	-9.76912e-05	3.01583e-06	-37.9596	0.0243928	0.0192323	0.0150041	-5.21237	39.2197	39.0575	3.56301	0.0254061	0.00230904	0.0255108	5.19308	791861	8.71274e+06	8.74865e+06	-84.8069	0.0000000E+000	0.0000000E+000	0.0000000E+000	84.8069	0.0000000E+000	0.0000000E+000	0.0000000E+000	-84.8069	0.0000000E+000	0.0000000E+000	0.0000000E+000	-5.19308	0.0000000E+000	0.0000000E+000	0.0000000E+000	5.19308	11.0029	84.8069	-9.01807e-06	-1.38848e-06	5.09964e-10	-1.389e-06	0.266082	50953.3	18.7142	50972
0.316193	39.6876	3.48788	39.8406	-5.02244	33.8282	0.265982	-0.00518819	144313	1106.06	1	12	0.00485025	0.000121742	0	-4.27539e-06	-2.13895e-05	2.28117e-06	-64.109	0.0187378	0.00818207	0.016857	-5.04555	39.8502	39.6958	3.50473	0.0250037	0.0021974	0.0251	5.02244	1.10606e+06	1.25855e+07	1.2634e+07	-84.9776	0.0000000E+000	0.0000000E+000	0.0000000E+000	84.9776	0.0000000E+000	0.0000000E+000	0.0000000E+000	-84.9776	0.0000000E+000	0.0000000E+000	0.0000000E+000	-5.02244	0.0000000E+000	0.0000000E+000	0.0000000E+000	5.02244	11.3787	84.9776	-5.00831e-06	-1.37996e-06	1.10973e-10	-1.38008e-06	0.266003	51266.7	4.12272	51270.8
0.215268	40.2324	3.53147	40.3871	-5.01639	43.6216	0.265986	-0.00466962	209356	1600.71	1	12	0.00485077	0.000120107	0	-2.96393e-06	-5.95403e-05	3.97316e-06	31.1379	0.0330801	0.0283141	-0.0171057	-4.98872	40.4138	40.2607	3.51437	0.0246656	0.00216507	0.0247604	5.01639	1.60071e+06	1.82361e+07	1.83062e+07	-84.9836	0.0000000E+000	0.0000000E+000	0.0000000E+000	84.9836	0.0000000E+000	0.0000000E+000	0.0000000E+000	-84.9836	0.0000000E+000	0.0000000E+000	0.0000000E+000	-5.01639	0.0000000E+000	0.0000000E+000	0.0000000E+000	5.01639	11.3925	84.9836	1.31146e-06	-1.24206e-06	2.78031e-10	-1.24233e-06	0.266046	56960.9	12.7506	56973.7
0.146929	40.7627	3.76914	40.9366	-5.28286	57.96	0.26598	-0.00390319	287390	2436.31	1	12	0.00485042	0.000118486	0	2.97563e-06	-4.04649e-05	1.6708e-06	97.1499	0.0141012	-0.00175511	-0.0139916	-5.26358	40.9335	40.7609	3.75515	0.0243243	0.00224916	0.024428	5.28286	2.43631e+06	2.63483e+07	2.64607e+07	-84.7171	0.0000000E+000	0.0000000E+000	0.0000000E+000	84.7171	0.0000000E+000	0.0000000E+000	0.0000000E+000	-84.7171	0.0000000E+000	0.0000000E+000	0.0000000E+000	-5.28286	0.0000000E+000	0.0000000E+000	0.0000000E+000	5.28286	10.8148	84.7171	5.93956e-06	-1.03817e-06	1.57942e-10	-1.03833e-06	0.26602	68144.3	10.3671	68154.6
0.0999041	41.4143	4.28254	41.6352	-5.90381	79.0373	0.265981	-0.00264333	371994	3935.66	1	12	0.00484997	0.000116487	0	5.96939e-06	-0.000460124	2.27097e-06	-22.3124	0.0194954	0.0180357	0.00740155	-5.91139	41.6539	41.4324	4.28994	0.0238908	0.00247048	0.0240182	5.90381	3.93566e+06	3.80598e+07	3.82628e+07	-84.0962	0.0000000E+000	0.0000000E+000	0.0000000E+000	84.0962	0.0000000E+000	0.0000000E+000	0.0000000E+000	-84.0962	0.0000000E+000	0.0000000E+000	0.0000000E+000	-5.90381	0.0000000E+000	0.0000000E+000	0.0000000E+000	5.90381	9.67051	84.0962	2.99376e-06	-7.03075e-07	1.21626e-09	-7.04291e-07	0.266441	100623	174.07	100797
0.0680626	42.1532	5.19583	42.4722	-7.02688	109.965	0.26598	-0.00156852	450045	6735.31	1	12	0.00484871	0.000114162	0	-5.32346e-06	-0.000402898	2.55284e-06	-112.871	0.0223616	-0.00869091	0.0206036	-7.0559	42.4661	42.1445	5.21644	0.023368	0.00288035	0.0235448	7.02688	6.73531e+06	5.46427e+07	5.50563e+07	-82.9731	0.0000000E+000	0.0000000E+000	0.0000000E+000	82.9731	0.0000000E+000	0.0000000E+000	0.0000000E+000	-82.9731	0.0000000E+000	0.0000000E+000	0.0000000E+000	-7.02688	0.0000000E+000	0.0000000E+000	0.0000000E+000	7.02688	8.11288	82.9731	-1.12928e-05	-4.17195e-07	6.31954e-10	-4.17827e-07	0.266383	169574	256.865	169831
0.0464052	42.9577	6.50057	43.4468	-8.60499	155.316	0.265981	-0.000782397	527596	11811.1	1	12	0.00485037	0.000111639	0	-5.59306e-05	-9.76912e-05	9.62706e-07	79.5636	0.00862336	0.00156207	-0.0084807	-8.59362	43.4471	42.9593	6.49209	0.0227576	0.00344379	0.0230167	8.60499	1.18111e+07	7.80512e+07	7.89398e+07	-81.395	0.0000000E+000	0.0000000E+000	0.0000000E+000	81.395	0.0000000E+000	0.0000000E+000	0.0000000E+000	-81.395	0.0000000E+000	0.0000000E+000	0.0000000E+000	-8.60499	0.0000000E+000	0.0000000E+000	0.0000000E+000	8.60499	6.6083	81.395	-5.06071e-05	-2.08103e-07	7.64333e-11	-2.08179e-07	0.266078	339956	124.861	340081
0.0315922	43.9787	8.1248	44.7229	-10.467	221.922	0.265978	-0.000597457	620051	20464.1	1	12	0.00485075	0.000108462	0	-0.000162026	-0.000212144	2.75445e-06	-9.39962	0.0253954	0.0250544	0.00414756	-10.4664	44.7483	44.0037	8.12894	0.0219878	0.00406212	0.0223599	10.467	2.04641e+07	1.1077e+08	1.12645e+08	-79.533	0.0000000E+000	0.0000000E+000	0.0000000E+000	79.533	0.0000000E+000	0.0000000E+000	0.0000000E+000	-79.533	0.0000000E+000	0.0000000E+000	0.0000000E+000	-10.467	0.0000000E+000	0.0000000E+000	0.0000000E+000	10.467	5.4129	79.533	-0.000106096	-1.5891e-07	1.26747e-10	-1.59037e-07	0.26619	445184	355.078	445539
0.0215268	45.4642	10.3038	46.6172	-12.7696	319.661	0.26598	-0.000794042	717533	35054.9	1	12	0.00484766	0.000103989	0	-0.000309419	-0.00026937	1.43311e-06	46.3997	0.0137814	0.00950401	-0.00998009	-12.7551	46.6242	45.4737	10.2939	0.0209208	0.00474141	0.0214513	12.7696	3.50549e+07	1.54674e+08	1.58597e+08	-77.2304	0.0000000E+000	0.0000000E+000	0.0000000E+000	77.2304	0.0000000E+000	0.0000000E+000	0.0000000E+000	-77.2304	0.0000000E+000	0.0000000E+000	0.0000000E+000	-12.7696	0.0000000E+000	0.0000000E+000	0.0000000E+000	12.7696	4.41235	77.2304	-0.000147393	-2.11199e-07	2.13891e-10	-2.11413e-07	0.266249	334969	339.239	335308
0.0146812	47.3702	13.5177	49.2612	-15.9268	462.963	0.265977	-0.00103396	801969	60388.2	1	12	0.00485031	9.84611e-05	0	-0.000434941	-7.86157e-05	2.73215e-06	-26.429	0.0277485	0.0248484	0.0123505	-15.9326	49.2884	47.395	13.53	0.0195207	0.00557048	0.0203	15.9268	6.03882e+07	2.11619e+08	2.20067e+08	-74.0732	0.0000000E+000	0.0000000E+000	0.0000000E+000	74.0732	0.0000000E+000	0.0000000E+000	0.0000000E+000	-74.0732	0.0000000E+000	0.0000000E+000	0.0000000E+000	-15.9268	0.0000000E+000	0.0000000E+000	0.0000000E+000	15.9268	3.50431	74.0732	-0.000125522	-2.7501e-07	8.12856e-11	-2.75091e-07	0.266055	257241	76.0336	257317
0.0100092	49.4125	17.8009	52.5211	-19.8116	673.145	0.265982	-0.000993361	893267	102612	1	12	0.00484824	9.23104e-05	0	-0.000426939	-0.000193068	2.73e-06	61.9501	0.0295741	0.0139069	-0.0261003	-19.7797	52.5253	49.4264	17.7748	0.017913	0.00645318	0.01904	19.8116	1.02612e+08	2.84834e+08	3.02753e+08	-70.1884	0.0000000E+000	0.0000000E+000	0.0000000E+000	70.1884	0.0000000E+000	0.0000000E+000	0.0000000E+000	-70.1884	0.0000000E+000	0.0000000E+000	0.0000000E+000	-19.8116	0.0000000E+000	0.0000000E+000	0.0000000E+000	19.8116	2.77585	70.1884	8.00202e-06	-2.64216e-07	1.91786e-10	-2.64408e-07	0.266175	267760	194.359	267954