File: txt/18484_R301_UA694_SOC00_C06.mpt
EC-Lab ASCII FILE
Nb header lines : 65

Potentio Electrochemical Impedance Spectroscopy

Run on channel : 6 (SN 65795)
User :
CE vs. WE compliance from -10 V to 10 V
Electrode connection : standard
Potential control : Ewe
Ewe ctrl range : min = -10.00 V, max = 10.00 V
Safety Limits :
	Do not start on E overload
Acquisition started on : 10/21/2025 09:26:46.959
Technique started on : 10/21/2025 09:26:48.738
Loaded Setting File :  C:\Users\Celltest\OneDrive - store-dot.com\Documents\EC-Lab\Data\@Biologic Test Protocols\anode half cell EIS SOC00.mps
Saved on :
	File : 18484_R301_UA694_SOC00_C06.mpr
	Directory : C:\Users\Celltest\OneDrive - store-dot.com\Documents\EC-Lab\Data\Gyutae\
	Host : 169.254.61.224
Device : VMP-3e (SN .003165)
Address : USB
EC-LAB for windows v11.62 (software)
Internet server v27.00 (firmware)
Command interpretor v12.03 (firmware)
Electrode material :
Initial state :
Electrolyte :
Comments :
Electrode surface area : 0.001 cm²
Characteristic mass : 0.001 g
Equivalent Weight : 0.000 g/eq.
Density : 0.000 g/cm3
Volume (V) : 0.001 cm³
Record Ece
Cycle Definition : Charge/Discharge alternance
Mode                Single sine
E (V)               0.0000
vs.                 Eoc
tE (h:m:s)          0:00:0.0000
record              0
dI                  0.000
unit dI             mA
dt (s)              0.000
fi                  100.000
unit fi             kHz
ff                  10.000
unit ff             mHz
Nd                  6
Points              per decade
spacing             Logarithmic
Va (mV)             5.0
pw                  0.10
Na                  2
corr                0
E range min (V)     -10.000
E range max (V)     10.000
I Range             Auto
Bandwidth           5
nc cycles           0
goto Ns'            0
nr cycles           0
inc. cycle          0

freq/Hz	Re(Z)/Ohm	-Im(Z)/Ohm	|Z|/Ohm	Phase(Z)/deg	time/s	<Ewe>/V	<I>/mA	Cs/µF	Cp/µF	cycle number	I Range	|Ewe|/V	|I|/A	Ns	(Q-Qo)/mA.h	<Ece>/V	|Ece|/V	Phase(Zce)/deg	|Zce|/Ohm	Re(Zce)/Ohm	-Im(Zce)/Ohm	Phase(Zwe-ce)/deg	|Zwe-ce|/Ohm	Re(Zwe-ce)/Ohm	-Im(Zwe-ce)/Ohm	Re(Y)/Ohm-1	Im(Y)/Ohm-1	|Y|/Ohm-1	Phase(Y)/deg	Re(C)/nF	Im(C)/nF	|C|/nF	Phase(C)/deg	Re(M)	Im(M)	|M|	Phase(M)/deg	Re(Permittivity)	Im(Permittivity)	|Permittivity|	Phase(Permittivity)/deg	Re(Resistivity)/Ohm.cm	Im(Resistivity)/Ohm.cm	|Resistivity|/Ohm.cm	Phase(Resistivity)/deg	Re(Conductivity)/mS/cm	Im(Conductivity)/mS/cm	|Conductivity|/mS/cm	Phase(Conductivity)/deg	Tan(Delta)	Loss Angle(Delta)/deg	dq/mA.h	Pwe/W	Pce/W	Pwe-ce/W	<Ewe-Ece>/V	Rwe/Ohm	Rce/Ohm	Rwe-ce/Ohm		Ewe-Ece/V
100004	1.22123	0.414749	1.28974	-18.7583	1.77854	0.26043	0.0581776	3.83723	0.396814	1	9	0.00452995	0.00351231	0	7.60818e-06	-5.65069e-05	4.51333e-05	64.9777	0.0128501	0.00543521	-0.011644	-18.1915	1.2912	1.22667	0.403105	0.734168	0.249335	0.775352	18.7583	396.814	1168.42	1233.96	-71.2417	0.0000000E+000	0.0000000E+000	0.0000000E+000	71.2417	0.0000000E+000	0.0000000E+000	0.0000000E+000	-71.2417	0.0000000E+000	0.0000000E+000	0.0000000E+000	-18.7583	0.0000000E+000	0.0000000E+000	0.0000000E+000	18.7583	2.9445	71.2417	7.60818e-06	1.51512e-05	-3.28744e-09	1.51545e-05	0.260486	4476.46	0.971283	4477.43
68132	1.3145	0.521707	1.41424	-21.6474	2.28554	0.260375	0.0459596	4.47757	0.60932	1	9	0.00509165	0.00360026	0	2.90682e-05	-3.74089e-05	2.37084e-05	48.8569	0.00658518	0.00433267	-0.0049591	-21.3963	1.41646	1.31883	0.516748	0.657221	0.260842	0.707091	21.6474	609.321	1535.25	1651.75	-68.3526	0.0000000E+000	0.0000000E+000	0.0000000E+000	68.3526	0.0000000E+000	0.0000000E+000	0.0000000E+000	-68.3526	0.0000000E+000	0.0000000E+000	0.0000000E+000	-21.6474	0.0000000E+000	0.0000000E+000	0.0000000E+000	21.6474	2.51962	68.3526	2.146e-05	1.19667e-05	-1.7193e-09	1.19685e-05	0.260412	5665.3	0.813951	5666.11
46420.4	1.44488	0.60573	1.56671	-22.7447	2.66853	0.260367	0.0471144	5.66021	0.846081	1	9	0.00547573	0.00349505	0	4.21649e-05	9.62774e-05	1.5555e-05	41.905	0.00445059	0.00331237	-0.00297254	-22.5977	1.56862	1.44819	0.602758	0.588645	0.246775	0.638279	22.7447	846.081	2018.2	2188.38	-67.2553	0.0000000E+000	0.0000000E+000	0.0000000E+000	67.2553	0.0000000E+000	0.0000000E+000	0.0000000E+000	-67.2553	0.0000000E+000	0.0000000E+000	0.0000000E+000	-22.7447	0.0000000E+000	0.0000000E+000	0.0000000E+000	22.7447	2.38535	67.2553	1.30967e-05	1.2267e-05	4.53605e-09	1.22625e-05	0.260271	5526.27	2.04348	5524.23
31621.1	1.60138	0.68683	1.74246	-23.2144	3.17553	0.26034	0.0491259	7.32813	1.13859	1	9	0.00507402	0.00291199	0	4.18722e-05	0.000325454	1.50003e-05	34.491	0.00515122	0.00424572	-0.00291702	-23.0715	1.74521	1.60563	0.683913	0.527437	0.226217	0.573902	23.2144	1138.59	2654.69	2888.56	-66.7856	0.0000000E+000	0.0000000E+000	0.0000000E+000	66.7856	0.0000000E+000	0.0000000E+000	0.0000000E+000	-66.7856	0.0000000E+000	0.0000000E+000	0.0000000E+000	-23.2144	0.0000000E+000	0.0000000E+000	0.0000000E+000	23.2144	2.33155	66.7856	-2.92684e-07	1.27894e-05	1.59882e-08	1.27734e-05	0.260014	5299.44	6.6249	5292.82
21544.7	1.7699	0.777399	1.93311	-23.7127	3.55856	0.260329	0.0464811	9.50246	1.53678	1	9	0.00544495	0.00281668	0	4.70643e-05	0.000382748	1.62004e-05	58.051	0.0057516	0.00304353	-0.00488034	-23.544	1.93394	1.77295	0.772519	0.473628	0.208033	0.517302	23.7127	1536.78	3498.78	3821.41	-66.2873	0.0000000E+000	0.0000000E+000	0.0000000E+000	66.2873	0.0000000E+000	0.0000000E+000	0.0000000E+000	-66.2873	0.0000000E+000	0.0000000E+000	0.0000000E+000	-23.7127	0.0000000E+000	0.0000000E+000	0.0000000E+000	23.7127	2.2767	66.2873	5.19206e-06	1.21004e-05	1.77906e-08	1.20826e-05	0.259947	5600.75	8.23448	5592.52
14678.6	1.95536	0.875788	2.14253	-24.1272	4.06554	0.260329	0.0500943	12.3805	2.06863	1	9	0.00506035	0.00236186	0	5.47757e-05	0.000229964	7.94183e-06	-38.2291	0.00336253	0.00264141	0.00208076	-24.1491	2.14579	1.958	0.877869	0.425964	0.190786	0.466739	24.1272	2068.63	4618.59	5060.69	-65.8728	0.0000000E+000	0.0000000E+000	0.0000000E+000	65.8728	0.0000000E+000	0.0000000E+000	0.0000000E+000	-65.8728	0.0000000E+000	0.0000000E+000	0.0000000E+000	-24.1272	0.0000000E+000	0.0000000E+000	0.0000000E+000	24.1272	2.23268	65.8728	7.71141e-06	1.3041e-05	1.15199e-08	1.30295e-05	0.260099	5196.77	4.59061	5192.18
10002.2	2.16258	0.983073	2.37554	-24.4458	4.44856	0.260326	0.0497218	16.1859	2.77196	1	9	0.00542832	0.00228509	0	6.2357e-05	0.000229964	6.60755e-06	81.4151	0.00289159	0.000431643	-0.00285919	-24.3787	2.37475	2.16301	0.980214	0.38322	0.174206	0.420958	24.4458	2771.96	6097.78	6698.26	-65.5542	0.0000000E+000	0.0000000E+000	0.0000000E+000	65.5542	0.0000000E+000	0.0000000E+000	0.0000000E+000	-65.5542	0.0000000E+000	0.0000000E+000	0.0000000E+000	-24.4458	0.0000000E+000	0.0000000E+000	0.0000000E+000	24.4458	2.19981	65.5542	7.58125e-06	1.29439e-05	1.14342e-08	1.29325e-05	0.260096	5235.65	4.625	5231.02
6810.42	2.38411	1.11271	2.63099	-25.0193	4.95455	0.260319	0.0429796	21.0022	3.75655	1	9	0.00504147	0.00191619	0	7.14485e-05	0.000153571	2.21539e-05	49.619	0.0115615	0.00749029	-0.00880698	-24.7768	2.63408	2.3916	1.1039	0.34442	0.160747	0.380085	25.0193	3756.55	8048.86	8882.33	-64.9807	0.0000000E+000	0.0000000E+000	0.0000000E+000	64.9807	0.0000000E+000	0.0000000E+000	0.0000000E+000	-64.9807	0.0000000E+000	0.0000000E+000	0.0000000E+000	-25.0193	0.0000000E+000	0.0000000E+000	0.0000000E+000	25.0193	2.14262	64.9807	9.09157e-06	1.11884e-05	6.60044e-09	1.11818e-05	0.260166	6056.82	3.57313	6053.24
4646	2.62477	1.25983	2.91146	-25.64	5.34764	0.260328	0.0495356	27.1912	5.09135	1	9	0.00536467	0.00184261	0	7.4538e-05	-0.000113801	6.732e-06	-167.27	0.00365352	-0.00356372	0.00080506	-25.6847	2.90859	2.6212	1.26064	0.309649	0.148625	0.343471	25.64	5091.35	10607.4	11766	-64.36	0.0000000E+000	0.0000000E+000	0.0000000E+000	64.36	0.0000000E+000	0.0000000E+000	0.0000000E+000	-64.36	0.0000000E+000	0.0000000E+000	0.0000000E+000	-25.64	0.0000000E+000	0.0000000E+000	0.0000000E+000	25.64	2.08342	64.36	3.08951e-06	1.28955e-05	-5.6372e-09	1.29011e-05	0.260442	5255.37	2.29736	5257.67
3163.08	2.9069	1.42299	3.2365	-26.0828	5.89768	0.260314	0.0311714	35.3596	6.83534	1	9	0.00529539	0.00163615	0	8.35759e-05	1.98852e-05	2.74911e-06	26.9545	0.00168024	0.00149771	-0.000761621	-26.059	3.23752	2.9084	1.42223	0.277509	0.135847	0.308975	26.0828	6835.34	13963.3	15546.5	-63.9172	0.0000000E+000	0.0000000E+000	0.0000000E+000	63.9172	0.0000000E+000	0.0000000E+000	0.0000000E+000	-63.9172	0.0000000E+000	0.0000000E+000	0.0000000E+000	-26.0828	0.0000000E+000	0.0000000E+000	0.0000000E+000	26.0828	2.04281	63.9172	9.03782e-06	8.11433e-06	6.19849e-10	8.11371e-06	0.260294	8351.06	0.637932	8350.42
2155.69	3.22793	1.63383	3.61787	-26.8465	6.8078	0.260313	-0.00143165	45.1883	9.21588	1	10	0.00484725	0.00133981	0	8.51877e-05	0.000191768	7.61614e-06	10.1065	0.0056845	0.00559629	-0.000997502	-26.7924	3.62241	3.23353	1.63284	0.246615	0.124825	0.276406	26.8465	9215.88	18207.6	20407.1	-63.1535	0.0000000E+000	0.0000000E+000	0.0000000E+000	63.1535	0.0000000E+000	0.0000000E+000	0.0000000E+000	-63.1535	0.0000000E+000	0.0000000E+000	0.0000000E+000	-26.8465	0.0000000E+000	0.0000000E+000	0.0000000E+000	26.8465	1.97568	63.1535	1.61187e-06	-3.72678e-07	-2.74545e-10	-3.72404e-07	0.260121	181827	133.948	181693
1468.59	3.5615	1.88362	4.02893	-27.8736	7.25907	0.260312	-0.000693793	57.5343	12.5757	1	10	0.00546753	0.00135707	0	8.42996e-05	7.87179e-07	1.05338e-05	-44.9381	0.00776219	0.00549462	0.00548277	-27.906	4.03635	3.56699	1.8891	0.219408	0.116041	0.248205	27.8736	12575.7	23777.9	26898.6	-62.1264	0.0000000E+000	0.0000000E+000	0.0000000E+000	62.1264	0.0000000E+000	0.0000000E+000	0.0000000E+000	-62.1264	0.0000000E+000	0.0000000E+000	0.0000000E+000	-27.8736	0.0000000E+000	0.0000000E+000	0.0000000E+000	27.8736	1.89078	62.1264	-8.88096e-07	-1.80602e-07	-5.46139e-13	-1.80602e-07	0.260311	375201	1.1346	375200
1000.32	3.91598	2.22437	4.50364	-29.5976	7.92481	0.260315	-0.00090249	71.5275	17.4486	1	10	0.00515713	0.0011451	0	8.38541e-05	0.000153571	4.16905e-06	-68.3907	0.00364077	0.00134081	0.00338489	-29.6266	4.50648	3.91733	2.22776	0.193069	0.109668	0.222043	29.5976	17448.6	30718.1	35327.9	-60.4024	0.0000000E+000	0.0000000E+000	0.0000000E+000	60.4024	0.0000000E+000	0.0000000E+000	0.0000000E+000	-60.4024	0.0000000E+000	0.0000000E+000	0.0000000E+000	-29.5976	0.0000000E+000	0.0000000E+000	0.0000000E+000	29.5976	1.76049	60.4024	-4.45544e-07	-2.34931e-07	-1.38597e-10	-2.34793e-07	0.260161	288440	170.164	288270
681.09	4.30553	2.69575	5.07983	-32.0512	8.37357	0.260307	-0.00135713	86.6835	24.4116	1	10	0.00505243	0.000994606	0	8.28969e-05	0.000134473	1.03892e-05	-79.403	0.0104456	0.00192093	0.0102674	-32.1377	5.08691	4.30745	2.70602	0.166851	0.104467	0.196857	32.0512	24411.6	38989.2	46000.9	-57.9488	0.0000000E+000	0.0000000E+000	0.0000000E+000	57.9488	0.0000000E+000	0.0000000E+000	0.0000000E+000	-57.9488	0.0000000E+000	0.0000000E+000	0.0000000E+000	-32.0512	0.0000000E+000	0.0000000E+000	0.0000000E+000	32.0512	1.59716	57.9488	-9.57199e-07	-3.53272e-07	-1.82498e-10	-3.53089e-07	0.260173	191807	99.0864	191708
463.961	4.7809	3.33315	5.82811	-34.8834	8.82537	0.260319	-0.000473941	102.916	33.6618	1	10	0.00491039	0.000842535	0	8.2838e-05	0.000210866	8.37178e-06	-17.9616	0.00993641	0.00945215	0.00306419	-34.855	5.83762	4.79036	3.33621	0.140752	0.0981292	0.171582	34.8834	33661.8	48282.9	58858.8	-55.1166	0.0000000E+000	0.0000000E+000	0.0000000E+000	55.1166	0.0000000E+000	0.0000000E+000	0.0000000E+000	-55.1166	0.0000000E+000	0.0000000E+000	0.0000000E+000	-34.8834	0.0000000E+000	0.0000000E+000	0.0000000E+000	34.8834	1.43435	55.1166	-5.88502e-08	-1.23376e-07	-9.99379e-11	-1.23276e-07	0.260108	549265	444.919	548820
316.316	5.43392	4.20035	6.86807	-37.7036	9.27305	0.260309	-0.00121553	119.788	44.8038	1	10	0.00478573	0.000696808	0	8.28756e-05	0.000249062	1.07819e-05	-4.10198	0.0154733	0.0154337	0.00110683	-37.6323	6.88096	5.44935	4.20145	0.115198	0.0890463	0.145601	37.7036	44803.8	57961.9	73259.6	-52.2964	0.0000000E+000	0.0000000E+000	0.0000000E+000	52.2964	0.0000000E+000	0.0000000E+000	0.0000000E+000	-52.2964	0.0000000E+000	0.0000000E+000	0.0000000E+000	-37.7036	0.0000000E+000	0.0000000E+000	0.0000000E+000	37.7036	1.29368	52.2964	3.75542e-08	-3.16415e-07	-3.02743e-10	-3.16112e-07	0.26006	214152	204.899	213948
215.345	6.38226	5.35268	8.32973	-39.9859	9.7226	0.260318	-0.000298802	138.075	57.0159	1	10	0.00471129	0.000565599	0	8.33772e-05	9.62774e-05	9.77413e-06	-12.4054	0.017281	0.0168775	0.00371242	-39.931	8.34505	6.39913	5.35639	0.091984	0.0771453	0.120052	39.9859	57015.9	67982.7	88726.9	-50.0141	0.0000000E+000	0.0000000E+000	0.0000000E+000	50.0141	0.0000000E+000	0.0000000E+000	0.0000000E+000	-50.0141	0.0000000E+000	0.0000000E+000	0.0000000E+000	-39.9859	0.0000000E+000	0.0000000E+000	0.0000000E+000	39.9859	1.19235	50.0141	5.01578e-07	-7.77835e-08	-2.87679e-11	-7.77548e-08	0.260222	871206	322.211	870883
146.737	7.74343	6.66962	10.2198	-40.7392	10.1685	0.260314	-0.000623011	162.622	69.2619	1	10	0.00464609	0.000454616	0	8.39708e-05	5.80813e-05	6.95134e-06	-68.5962	0.0152906	0.00558013	0.014236	-40.7792	10.2333	7.74901	6.68386	0.0741391	0.063858	0.0978492	40.7392	69261.9	80413.1	106130	-49.2608	0.0000000E+000	0.0000000E+000	0.0000000E+000	49.2608	0.0000000E+000	0.0000000E+000	0.0000000E+000	-49.2608	0.0000000E+000	0.0000000E+000	0.0000000E+000	-40.7392	0.0000000E+000	0.0000000E+000	0.0000000E+000	40.7392	1.161	49.2608	5.93587e-07	-1.62179e-07	-3.61853e-11	-1.62143e-07	0.260256	417833	93.2267	417740
100.032	9.76977	7.99719	12.6255	-39.3026	10.6198	0.26032	-0.00082425	198.95	79.8217	1	10	0.00460944	0.00036509	0	8.33688e-05	0.000134473	1.16103e-05	-107.915	0.0318012	-0.00978208	0.0302593	-39.4368	12.6371	9.75999	8.02745	0.0612896	0.0501695	0.0792047	39.3026	79821.7	97514.1	126018	-50.6974	0.0000000E+000	0.0000000E+000	0.0000000E+000	50.6974	0.0000000E+000	0.0000000E+000	0.0000000E+000	-50.6974	0.0000000E+000	0.0000000E+000	0.0000000E+000	-39.3026	0.0000000E+000	0.0000000E+000	0.0000000E+000	39.3026	1.22165	50.6974	-6.01986e-07	-2.14569e-07	-1.1084e-10	-2.14458e-07	0.260185	315826	163.146	315663
68.104	12.3757	9.05903	15.337	-36.2042	11.0825	0.26031	-0.000705002	257.968	90.001	1	10	0.00458319	0.000298832	0	8.30424e-05	0.000210866	7.20281e-06	55.6981	0.0241032	0.0135834	-0.0199112	-36.1142	15.3362	12.3893	9.03912	0.0526124	0.0385123	0.0652017	36.2042	90001	122952	152372	-53.7958	0.0000000E+000	0.0000000E+000	0.0000000E+000	53.7958	0.0000000E+000	0.0000000E+000	0.0000000E+000	-53.7958	0.0000000E+000	0.0000000E+000	0.0000000E+000	-36.2042	0.0000000E+000	0.0000000E+000	0.0000000E+000	36.2042	1.36612	53.7958	-3.26397e-07	-1.83519e-07	-1.48661e-10	-1.83371e-07	0.260099	369233	299.099	368934
46.4415	15.3911	9.46461	18.0684	-31.589	11.5187	0.260307	-0.00186769	362.085	99.3524	1	10	0.0045763	0.000253277	0	8.30359e-05	0.000191768	3.81213e-05	-58.1487	0.150513	0.079428	0.127848	-31.8008	18.2031	15.4706	9.59246	0.0471447	0.0289911	0.0553453	31.589	99352.4	161565	189668	-58.411	0.0000000E+000	0.0000000E+000	0.0000000E+000	58.411	0.0000000E+000	0.0000000E+000	0.0000000E+000	-58.411	0.0000000E+000	0.0000000E+000	0.0000000E+000	-31.589	0.0000000E+000	0.0000000E+000	0.0000000E+000	31.589	1.62618	58.411	-6.50671e-09	-4.86172e-07	-3.58162e-10	-4.85814e-07	0.260115	139374	102.676	139271
31.6296	18.4279	9.26025	20.6237	-26.6802	12.1835	0.260294	-0.00511958	543.381	109.551	1	11	0.00456954	0.000221567	0	8.25921e-05	0.000191768	1.03963e-05	33.6474	0.0469219	0.0390608	-0.0259985	-26.567	20.647	18.4669	9.23425	0.0433252	0.0217715	0.0484879	26.6802	109551	218006	243983	-63.3198	0.0000000E+000	0.0000000E+000	0.0000000E+000	63.3198	0.0000000E+000	0.0000000E+000	0.0000000E+000	-63.3198	0.0000000E+000	0.0000000E+000	0.0000000E+000	-26.6802	0.0000000E+000	0.0000000E+000	0.0000000E+000	26.6802	1.99	63.3198	-4.43798e-07	-1.3326e-06	-9.81768e-10	-1.33161e-06	0.260102	50842.9	37.4577	50805.5
21.5517	21.1178	8.40148	22.7276	-21.6946	12.6045	0.260302	-0.00506772	878.987	120.112	1	11	0.00456978	0.000201067	0	8.21717e-05	9.62774e-05	9.11007e-06	-89.9076	0.0453086	7.30655e-05	0.0453085	-21.8006	22.7445	21.1178	8.44679	0.0408828	0.0162648	0.0439993	21.6946	120112	301911	324926	-68.3054	0.0000000E+000	0.0000000E+000	0.0000000E+000	68.3054	0.0000000E+000	0.0000000E+000	0.0000000E+000	-68.3054	0.0000000E+000	0.0000000E+000	0.0000000E+000	-21.6946	0.0000000E+000	0.0000000E+000	0.0000000E+000	21.6946	2.51358	68.3054	-4.20332e-07	-1.31914e-06	-4.87907e-10	-1.31865e-06	0.260206	51364.7	18.9982	51345.7
14.6852	23.2165	7.40758	24.3696	-17.6961	13.0652	0.260314	-0.00471108	1463.07	135.183	1	11	0.00456726	0.000187416	0	8.24572e-05	0.000325454	6.2704e-06	22.4185	0.0334571	0.0309285	-0.0127595	-17.6455	24.3952	23.2474	7.39482	0.039093	0.0124732	0.0410347	17.6961	135183	423683	444727	-72.3039	0.0000000E+000	0.0000000E+000	0.0000000E+000	72.3039	0.0000000E+000	0.0000000E+000	0.0000000E+000	-72.3039	0.0000000E+000	0.0000000E+000	0.0000000E+000	-17.6961	0.0000000E+000	0.0000000E+000	0.0000000E+000	17.6961	3.13415	72.3039	2.85427e-07	-1.22636e-06	-1.53324e-09	-1.22483e-06	0.259988	55255.7	69.0827	55186.7
10.0032	24.8537	6.40563	25.6659	-14.4525	13.5158	0.26029	-0.00484463	2483.82	154.715	1	11	0.00456103	0.000177708	0	8.07543e-05	0.000134473	5.40757e-06	-53.9831	0.0304295	0.0178933	0.0246127	-14.4957	25.6893	24.8715	6.43024	0.0377293	0.00972412	0.0389623	14.4525	154715	600288	619905	-75.5475	0.0000000E+000	0.0000000E+000	0.0000000E+000	75.5475	0.0000000E+000	0.0000000E+000	0.0000000E+000	-75.5475	0.0000000E+000	0.0000000E+000	0.0000000E+000	-14.4525	0.0000000E+000	0.0000000E+000	0.0000000E+000	14.4525	3.87997	75.5475	-1.70287e-06	-1.26101e-06	-6.51474e-10	-1.26036e-06	0.260156	53727.5	27.7572	53699.8
6.81719	26.1644	5.5138	26.7391	-11.9002	13.8555	0.260294	-0.00489984	4234.12	180.042	1	11	0.00456095	0.000170572	0	8.18743e-05	0.000440042	4.33659e-06	-33.2224	0.0254237	0.0212682	0.0139294	-11.92	26.7628	26.1857	5.52773	0.0365947	0.00771185	0.0373985	11.9002	180042	854344	873109	-78.0998	0.0000000E+000	0.0000000E+000	0.0000000E+000	78.0998	0.0000000E+000	0.0000000E+000	0.0000000E+000	-78.0998	0.0000000E+000	0.0000000E+000	0.0000000E+000	-11.9002	0.0000000E+000	0.0000000E+000	0.0000000E+000	11.9002	4.74526	78.0998	1.12e-06	-1.2754e-06	-2.15614e-09	-1.27325e-06	0.259854	53123	89.8074	53033.2
4.63925	27.3015	4.67612	27.6991	-9.71915	14.3395	0.260305	-0.00419663	7336.46	209.087	1	11	0.00456238	0.000164713	0	8.04573e-05	0.000249062	5.66863e-06	35.1029	0.0344153	0.0281558	-0.0197904	-9.66901	27.7235	27.3297	4.65633	0.0355841	0.00609475	0.0361023	9.71915	209087	1.22076e+06	1.23853e+06	-80.2809	0.0000000E+000	0.0000000E+000	0.0000000E+000	80.2809	0.0000000E+000	0.0000000E+000	0.0000000E+000	-80.2809	0.0000000E+000	0.0000000E+000	0.0000000E+000	-9.71915	0.0000000E+000	0.0000000E+000	0.0000000E+000	9.71915	5.83849	80.2809	-1.41701e-06	-1.0924e-06	-1.04522e-09	-1.09136e-06	0.260056	62027.2	59.3481	61967.8
3.1604	28.1857	4.1248	28.4859	-8.32579	15.0324	0.260302	-0.00429791	12208.9	255.989	1	11	0.00456445	0.000160236	0	7.75141e-05	0.000249062	6.59968e-06	-39.8841	0.0411874	0.0316048	0.0264109	-8.36909	28.521	28.2173	4.15121	0.0347351	0.00508327	0.0351051	8.32579	255989	1.74923e+06	1.76786e+06	-81.6742	0.0000000E+000	0.0000000E+000	0.0000000E+000	81.6742	0.0000000E+000	0.0000000E+000	0.0000000E+000	-81.6742	0.0000000E+000	0.0000000E+000	0.0000000E+000	-8.32579	0.0000000E+000	0.0000000E+000	0.0000000E+000	8.32579	6.83322	81.6742	-2.94319e-06	-1.11875e-06	-1.07045e-09	-1.11768e-06	0.260053	60564.7	57.9495	60506.7
2.15577	29.025	3.63415	29.2516	-7.13672	16.036	0.260309	-0.00409068	20315	313.56	1	11	0.00456393	0.000156023	0	7.6119e-05	7.71793e-05	1.03912e-06	78.9687	0.00666006	0.00127437	-0.006537	-7.12371	29.2521	29.0263	3.62761	0.0339213	0.0042472	0.0341861	7.13672	313560	2.50432e+06	2.52388e+06	-82.8633	0.0000000E+000	0.0000000E+000	0.0000000E+000	82.8633	0.0000000E+000	0.0000000E+000	0.0000000E+000	-82.8633	0.0000000E+000	0.0000000E+000	0.0000000E+000	-7.13672	0.0000000E+000	0.0000000E+000	0.0000000E+000	7.13672	7.98674	82.8633	-1.39506e-06	-1.06484e-06	-3.15716e-10	-1.06453e-06	0.260232	63634.8	18.8671	63615.9
1.46631	29.7014	3.24981	29.8787	-6.24424	17.4973	0.260303	-0.00414296	33399.2	395.121	1	11	0.00456234	0.000152696	0	7.72948e-05	0.000191768	5.82308e-06	8.14062	0.0381352	0.037751	-0.00540007	-6.22609	29.9156	29.7392	3.24441	0.0332701	0.00364029	0.0334687	6.24424	395121	3.61118e+06	3.63273e+06	-83.7558	0.0000000E+000	0.0000000E+000	0.0000000E+000	83.7558	0.0000000E+000	0.0000000E+000	0.0000000E+000	-83.7558	0.0000000E+000	0.0000000E+000	0.0000000E+000	-6.24424	0.0000000E+000	0.0000000E+000	0.0000000E+000	6.24424	9.13943	83.7558	1.17573e-06	-1.07843e-06	-7.94486e-10	-1.07763e-06	0.260111	62830.2	46.2875	62783.9
1.00006	30.3568	2.93337	30.4981	-5.51935	20.6707	0.260309	-0.00398331	54253.2	501.894	1	12	0.00456734	0.000149758	0	7.88647e-05	-0.000113801	1.79757e-06	-1.7287	0.0120031	0.0119977	0.000362098	-5.51786	30.5101	30.3687	2.93373	0.0326369	0.0031537	0.0327889	5.51935	501894	5.19399e+06	5.21818e+06	-84.4807	0.0000000E+000	0.0000000E+000	0.0000000E+000	84.4807	0.0000000E+000	0.0000000E+000	0.0000000E+000	-84.4807	0.0000000E+000	0.0000000E+000	0.0000000E+000	-5.51935	0.0000000E+000	0.0000000E+000	0.0000000E+000	5.51935	10.3488	84.4807	1.56991e-06	-1.03689e-06	4.53304e-10	-1.03735e-06	0.260423	65350.1	28.5695	65378.7
0.681362	30.9123	2.6534	31.026	-4.90604	23.7828	0.260323	-0.00314929	88031.6	643.863	1	12	0.00456597	0.000147166	0	7.85169e-05	0.000229964	1.65907e-06	-57.4304	0.0112735	0.00606878	0.00950059	-4.92255	31.0329	30.9184	2.6629	0.0321129	0.00275646	0.032231	4.90604	643863	7.50105e+06	7.52863e+06	-85.094	0.0000000E+000	0.0000000E+000	0.0000000E+000	85.094	0.0000000E+000	0.0000000E+000	0.0000000E+000	-85.094	0.0000000E+000	0.0000000E+000	0.0000000E+000	-4.90604	0.0000000E+000	0.0000000E+000	0.0000000E+000	4.90604	11.6501	85.094	-3.47801e-07	-8.19833e-07	-7.24223e-10	-8.19109e-07	0.260093	82660.7	73.0207	82587.7
0.464091	31.3767	2.54957	31.4801	-4.64546	28.3395	0.260321	-0.0024034	134509	882.288	1	12	0.00456487	0.000145008	0	7.15904e-05	-0.000151997	2.08593e-06	61.4522	0.014385	0.00687445	-0.012636	-4.62152	31.486	31.3836	2.53693	0.0316617	0.00257272	0.0317661	4.64546	882288	1.0858e+07	1.08938e+07	-85.3545	0.0000000E+000	0.0000000E+000	0.0000000E+000	85.3545	0.0000000E+000	0.0000000E+000	0.0000000E+000	-85.3545	0.0000000E+000	0.0000000E+000	0.0000000E+000	-4.64546	0.0000000E+000	0.0000000E+000	0.0000000E+000	4.64546	12.3067	85.3545	-6.92647e-06	-6.25655e-07	3.65309e-10	-6.2602e-07	0.260473	108314	63.2426	108377
0.316193	31.7779	2.5305	31.8785	-4.5529	35.014	0.260315	-0.00222201	198912	1253.37	1	12	0.00456523	0.000143207	0	5.5753e-05	-5.65069e-05	3.26568e-06	61.6377	0.0228039	0.0108329	-0.0200665	-4.51541	31.8877	31.7888	2.51043	0.0312701	0.00249006	0.0313691	4.5529	1.25337e+06	1.57397e+07	1.57895e+07	-85.4471	0.0000000E+000	0.0000000E+000	0.0000000E+000	85.4471	0.0000000E+000	0.0000000E+000	0.0000000E+000	-85.4471	0.0000000E+000	0.0000000E+000	0.0000000E+000	-4.5529	0.0000000E+000	0.0000000E+000	0.0000000E+000	4.5529	12.558	85.4471	-1.58374e-05	-5.78421e-07	1.25559e-10	-5.78547e-07	0.260371	117153	25.4306	117178
0.215268	32.1796	2.67019	32.2902	-4.74341	44.8074	0.260316	-0.00214217	276884	1893.4	1	12	0.00456555	0.000141391	0	3.17421e-05	-0.000113801	1.82885e-06	19.6905	0.0129347	0.0121783	-0.0043582	-4.73392	32.302	32.1918	2.66584	0.0308631	0.00256095	0.0309691	4.74341	1.8934e+06	2.28181e+07	2.28965e+07	-85.2566	0.0000000E+000	0.0000000E+000	0.0000000E+000	85.2566	0.0000000E+000	0.0000000E+000	0.0000000E+000	-85.2566	0.0000000E+000	0.0000000E+000	0.0000000E+000	-4.74341	0.0000000E+000	0.0000000E+000	0.0000000E+000	4.74341	12.0514	85.2566	-2.40108e-05	-5.57642e-07	2.43781e-10	-5.57885e-07	0.26043	121520	53.1242	121573
0.146929	32.6284	3.01592	32.7675	-5.28098	59.1457	0.260305	-0.00272726	359164	3042.61	1	12	0.00456822	0.000139413	0	4.76032e-06	0.000153571	2.68621e-06	26.7071	0.019268	0.0172124	-0.00865962	-5.26314	32.7838	32.6456	3.00726	0.0303885	0.00280888	0.0305181	5.28098	3.04261e+06	3.29172e+07	3.30575e+07	-84.719	0.0000000E+000	0.0000000E+000	0.0000000E+000	84.719	0.0000000E+000	0.0000000E+000	0.0000000E+000	-84.719	0.0000000E+000	0.0000000E+000	0.0000000E+000	-5.28098	0.0000000E+000	0.0000000E+000	0.0000000E+000	5.28098	10.8187	84.719	-2.69818e-05	-7.0992e-07	-4.1883e-10	-7.09501e-07	0.260151	95445.4	56.3097	95389.1
0.0999041	33.1269	3.67495	33.3301	-6.33026	80.2219	0.260309	-0.00281866	433496	5270.06	1	12	0.00456742	0.000137036	0	-1.12218e-05	0.000440042	1.90868e-06	39.9744	0.0139283	0.0106737	-0.00894816	-6.31296	33.3397	33.1375	3.666	0.02982	0.0033081	0.0300029	6.33026	5.27006e+06	4.75056e+07	4.7797e+07	-83.6697	0.0000000E+000	0.0000000E+000	0.0000000E+000	83.6697	0.0000000E+000	0.0000000E+000	0.0000000E+000	-83.6697	0.0000000E+000	0.0000000E+000	0.0000000E+000	-6.33026	0.0000000E+000	0.0000000E+000	0.0000000E+000	6.33026	9.01423	83.6697	-1.59822e-05	-7.33724e-07	-1.24033e-09	-7.32483e-07	0.259869	92352.3	156.118	92196.1
0.0680626	33.6873	4.60722	34.0009	-7.78769	111.149	0.260304	-0.00285648	507543	9318.99	1	12	0.00457048	0.000134422	0	-5.24697e-06	3.89833e-05	1.99009e-06	-48.5429	0.0148048	0.00980165	0.0110955	-7.80397	34.0121	33.6971	4.61831	0.0291397	0.00398526	0.029411	7.78769	9.31898e+06	6.81391e+07	6.87734e+07	-82.2123	0.0000000E+000	0.0000000E+000	0.0000000E+000	82.2123	0.0000000E+000	0.0000000E+000	0.0000000E+000	-82.2123	0.0000000E+000	0.0000000E+000	0.0000000E+000	-7.78769	0.0000000E+000	0.0000000E+000	0.0000000E+000	7.78769	7.31186	82.2123	5.97487e-06	-7.43553e-07	-1.11355e-10	-7.43442e-07	0.260265	91127.8	13.6473	91114.1
0.0464052	34.3132	5.73363	34.789	-9.4863	156.501	0.260303	-0.0019311	598169	16248	1	12	0.00456905	0.000131336	0	4.56884e-05	0.000306356	8.54922e-07	25.055	0.00650942	0.0058969	-0.00275666	-9.48022	34.7943	34.3191	5.73088	0.0283517	0.00473747	0.0287447	9.4863	1.6248e+07	9.72371e+07	9.85852e+07	-80.5137	0.0000000E+000	0.0000000E+000	0.0000000E+000	80.5137	0.0000000E+000	0.0000000E+000	0.0000000E+000	-80.5137	0.0000000E+000	0.0000000E+000	0.0000000E+000	-9.4863	0.0000000E+000	0.0000000E+000	0.0000000E+000	9.4863	5.98455	80.5137	5.09354e-05	-5.02672e-07	-5.91605e-10	-5.0208e-07	0.259997	134795	158.643	134636
0.0315922	35.3306	7.24351	36.0655	-11.5863	223.106	0.260296	-0.000820864	695491	28054.6	1	12	0.00456543	0.000126587	0	0.000131316	-3.74089e-05	1.88637e-06	-81.786	0.0149018	0.00212903	0.0147489	-11.6085	36.0706	35.3328	7.25826	0.0271623	0.00556883	0.0277273	11.5863	2.80546e+07	1.36838e+08	1.39684e+08	-78.4137	0.0000000E+000	0.0000000E+000	0.0000000E+000	78.4137	0.0000000E+000	0.0000000E+000	0.0000000E+000	-78.4137	0.0000000E+000	0.0000000E+000	0.0000000E+000	-11.5863	0.0000000E+000	0.0000000E+000	0.0000000E+000	11.5863	4.87756	78.4137	8.56273e-05	-2.13668e-07	3.07076e-11	-2.13699e-07	0.260334	317101	45.5726	317146
0.0215268	36.69	9.47652	37.8941	-14.4822	320.845	0.260302	0.000321194	780175	48791.8	1	12	0.00456097	0.000120361	0	0.000205608	7.71793e-05	2.47215e-06	0.408263	0.0205395	0.0205389	-0.000146353	-14.4742	37.914	36.7106	9.47638	0.0255508	0.00659941	0.0263893	14.4822	4.87917e+07	1.88906e+08	1.95105e+08	-75.5178	0.0000000E+000	0.0000000E+000	0.0000000E+000	75.5178	0.0000000E+000	0.0000000E+000	0.0000000E+000	-75.5178	0.0000000E+000	0.0000000E+000	0.0000000E+000	-14.4822	0.0000000E+000	0.0000000E+000	0.0000000E+000	14.4822	3.87168	75.5178	7.42928e-05	8.36074e-08	2.47895e-11	8.35826e-08	0.260225	810420	240.289	810180
0.0146812	38.1143	12.5524	40.1281	-18.2286	464.146	0.260289	0.000459331	863637	84506.6	1	12	0.00456284	0.000113707	0	0.000169885	5.80813e-05	1.12291e-06	19.6494	0.00987549	0.00930042	-0.00332078	-18.22	40.1359	38.1236	12.5491	0.0236696	0.00779528	0.0249202	18.2286	8.45066e+07	2.56596e+08	2.70154e+08	-71.7714	0.0000000E+000	0.0000000E+000	0.0000000E+000	71.7714	0.0000000E+000	0.0000000E+000	0.0000000E+000	-71.7714	0.0000000E+000	0.0000000E+000	0.0000000E+000	-18.2286	0.0000000E+000	0.0000000E+000	0.0000000E+000	18.2286	3.03641	71.7714	-3.57239e-05	1.19559e-07	2.66786e-11	1.19532e-07	0.260231	566670	126.447	566544
0.0100092	39.9056	16.2	43.0685	-22.095	674.328	0.260294	0.000308997	981541	138872	1	12	0.00456308	0.000105949	0	-5.96038e-05	0.000229964	2.12244e-06	3.52487	0.0200326	0.0199947	-0.00123164	-22.0835	43.0866	39.9256	16.1987	0.0215137	0.00873361	0.0232188	22.095	1.38872e+08	3.42087e+08	3.692e+08	-67.905	0.0000000E+000	0.0000000E+000	0.0000000E+000	67.905	0.0000000E+000	0.0000000E+000	0.0000000E+000	-67.905	0.0000000E+000	0.0000000E+000	0.0000000E+000	-22.095	0.0000000E+000	0.0000000E+000	0.0000000E+000	22.095	2.46332	67.905	-0.000229488	8.04299e-08	7.1058e-11	8.03589e-08	0.260064	842384	744.227	841639