File: txt/18482_R301_UA694_SOC00_C05.mpt
EC-Lab ASCII FILE
Nb header lines : 65

Potentio Electrochemical Impedance Spectroscopy

Run on channel : 5 (SN 65912)
User :
CE vs. WE compliance from -10 V to 10 V
Electrode connection : standard
Potential control : Ewe
Ewe ctrl range : min = -10.00 V, max = 10.00 V
Safety Limits :
	Do not start on E overload
Acquisition started on : 10/21/2025 09:26:41.171
Technique started on : 10/21/2025 09:26:43.225
Loaded Setting File :  C:\Users\Celltest\OneDrive - store-dot.com\Documents\EC-Lab\Data\@Biologic Test Protocols\anode half cell EIS SOC00.mps
Saved on :
	File : 18482_R301_UA694_SOC00_C05.mpr
	Directory : C:\Users\Celltest\OneDrive - store-dot.com\Documents\EC-Lab\Data\Gyutae\
	Host : 169.254.61.224
Device : VMP-3e (SN .003165)
Address : USB
EC-LAB for windows v11.62 (software)
Internet server v27.00 (firmware)
Command interpretor v12.03 (firmware)
Electrode material :
Initial state :
Electrolyte :
Comments :
Electrode surface area : 0.001 cm²
Characteristic mass : 0.001 g
Equivalent Weight : 0.000 g/eq.
Density : 0.000 g/cm3
Volume (V) : 0.001 cm³
Record Ece
Cycle Definition : Charge/Discharge alternance
Mode                Single sine
E (V)               0.0000
vs.                 Eoc
tE (h:m:s)          0:00:0.0000
record              0
dI                  0.000
unit dI             mA
dt (s)              0.000
fi                  100.000
unit fi             kHz
ff                  10.000
unit ff             mHz
Nd                  6
Points              per decade
spacing             Logarithmic
Va (mV)             5.0
pw                  0.10
Na                  2
corr                0
E range min (V)     -10.000
E range max (V)     10.000
I Range             Auto
Bandwidth           5
nc cycles           0
goto Ns'            0
nr cycles           0
inc. cycle          0

freq/Hz	Re(Z)/Ohm	-Im(Z)/Ohm	|Z|/Ohm	Phase(Z)/deg	time/s	<Ewe>/V	<I>/mA	Cs/µF	Cp/µF	cycle number	I Range	|Ewe|/V	|I|/A	Ns	(Q-Qo)/mA.h	<Ece>/V	|Ece|/V	Phase(Zce)/deg	|Zce|/Ohm	Re(Zce)/Ohm	-Im(Zce)/Ohm	Phase(Zwe-ce)/deg	|Zwe-ce|/Ohm	Re(Zwe-ce)/Ohm	-Im(Zwe-ce)/Ohm	Re(Y)/Ohm-1	Im(Y)/Ohm-1	|Y|/Ohm-1	Phase(Y)/deg	Re(C)/nF	Im(C)/nF	|C|/nF	Phase(C)/deg	Re(M)	Im(M)	|M|	Phase(M)/deg	Re(Permittivity)	Im(Permittivity)	|Permittivity|	Phase(Permittivity)/deg	Re(Resistivity)/Ohm.cm	Im(Resistivity)/Ohm.cm	|Resistivity|/Ohm.cm	Phase(Resistivity)/deg	Re(Conductivity)/mS/cm	Im(Conductivity)/mS/cm	|Conductivity|/mS/cm	Phase(Conductivity)/deg	Tan(Delta)	Loss Angle(Delta)/deg	dq/mA.h	Pwe/W	Pce/W	Pwe-ce/W	<Ewe-Ece>/V	Rwe/Ohm	Rce/Ohm	Rwe-ce/Ohm		Ewe-Ece/V
100004	1.06992	0.408444	1.14523	-20.8945	2.05352	0.257516	-0.00102696	3.89647	0.495624	1	9	0.0048812	0.00426221	0	-8.54516e-07	9.21806e-05	4.63189e-05	68.3294	0.0108673	0.00401299	-0.0100992	-20.351	1.14543	1.07393	0.398345	0.815767	0.311421	0.873189	20.8945	495.624	1298.28	1389.67	-69.1055	0.0000000E+000	0.0000000E+000	0.0000000E+000	69.1055	0.0000000E+000	0.0000000E+000	0.0000000E+000	-69.1055	0.0000000E+000	0.0000000E+000	0.0000000E+000	-20.8945	0.0000000E+000	0.0000000E+000	0.0000000E+000	20.8945	2.61949	69.1055	-8.54516e-07	-2.64459e-07	-9.46659e-11	-2.64364e-07	0.257424	250755	89.7606	250666
68132	1.17621	0.468924	1.26624	-21.7359	2.43853	0.257494	-0.00307515	4.98157	0.683188	1	9	0.0054805	0.00432818	0	-3.29853e-06	-0.000117823	3.17169e-05	39.6201	0.00732801	0.00564469	-0.00467302	-21.4457	1.26977	1.18185	0.464251	0.733591	0.292463	0.789741	21.7359	683.188	1713.65	1844.82	-68.2641	0.0000000E+000	0.0000000E+000	0.0000000E+000	68.2641	0.0000000E+000	0.0000000E+000	0.0000000E+000	-68.2641	0.0000000E+000	0.0000000E+000	0.0000000E+000	-21.7359	0.0000000E+000	0.0000000E+000	0.0000000E+000	21.7359	2.50832	68.2641	-2.44402e-06	-7.91832e-07	3.62323e-10	-7.92195e-07	0.257611	83733.6	38.3144	83771.9
46420.4	1.29318	0.524392	1.39546	-22.0728	2.94553	0.257494	-0.0115658	6.53816	0.923279	1	9	0.0050648	0.00362948	0	-1.85819e-06	-6.05491e-05	2.03132e-05	41.0959	0.00559672	0.00421774	-0.00367884	-21.8681	1.398	1.2974	0.520714	0.664087	0.269291	0.716609	22.0728	923.279	2276.86	2456.94	-67.9272	0.0000000E+000	0.0000000E+000	0.0000000E+000	67.9272	0.0000000E+000	0.0000000E+000	0.0000000E+000	-67.9272	0.0000000E+000	0.0000000E+000	0.0000000E+000	-22.0728	0.0000000E+000	0.0000000E+000	0.0000000E+000	22.0728	2.46606	67.9272	1.44035e-06	-2.97814e-06	7.00301e-10	-2.97884e-06	0.257555	22263.4	5.23517	22268.6
31621.1	1.42482	0.591214	1.54261	-22.5355	3.33054	0.257481	-0.00620332	8.5133	1.25048	1	9	0.00539993	0.00350052	0	-2.28855e-06	0.000187637	1.72185e-05	38.5822	0.00491883	0.00384512	-0.00306756	-22.3758	1.54499	1.42866	0.588147	0.598754	0.248447	0.648253	22.5355	1250.48	3013.64	3262.77	-67.4645	0.0000000E+000	0.0000000E+000	0.0000000E+000	67.4645	0.0000000E+000	0.0000000E+000	0.0000000E+000	-67.4645	0.0000000E+000	0.0000000E+000	0.0000000E+000	-22.5355	0.0000000E+000	0.0000000E+000	0.0000000E+000	22.5355	2.40998	67.4645	-4.30362e-07	-1.59724e-06	-1.16397e-09	-1.59607e-06	0.257294	41507	30.2478	41476.8
21544.7	1.56801	0.659514	1.70106	-22.812	3.71352	0.257461	-0.00962938	11.201	1.6837	1	9	0.00547749	0.00322005	0	6.2331e-06	5.39982e-05	6.2512e-06	113.213	0.00194134	-0.000765178	-0.00178418	-22.7665	1.69966	1.56724	0.65773	0.541888	0.227922	0.587869	22.812	1683.7	4003.03	4342.71	-67.188	0.0000000E+000	0.0000000E+000	0.0000000E+000	67.188	0.0000000E+000	0.0000000E+000	0.0000000E+000	-67.188	0.0000000E+000	0.0000000E+000	0.0000000E+000	-22.812	0.0000000E+000	0.0000000E+000	0.0000000E+000	22.812	2.37752	67.188	8.52165e-06	-2.4792e-06	-5.1997e-10	-2.47868e-06	0.257407	26737.1	5.60765	26731.5
14678.6	1.72094	0.73176	1.87005	-23.0357	4.09657	0.257477	-0.00597989	14.8172	2.26881	1	9	0.0054638	0.00292174	0	8.27812e-06	-0.000156005	9.31582e-06	-33.5186	0.00318845	0.00265823	0.00176069	-23.0535	1.87319	1.72359	0.733521	0.492105	0.209248	0.534745	23.0357	2268.81	5335.72	5798.05	-66.9643	0.0000000E+000	0.0000000E+000	0.0000000E+000	66.9643	0.0000000E+000	0.0000000E+000	0.0000000E+000	-66.9643	0.0000000E+000	0.0000000E+000	0.0000000E+000	-23.0357	0.0000000E+000	0.0000000E+000	0.0000000E+000	23.0357	2.35177	66.9643	2.04502e-06	-1.53968e-06	9.32894e-10	-1.54061e-06	0.257633	43057.1	26.0883	43083.2
10002.2	1.88777	0.823392	2.05953	-23.5655	4.47955	0.257475	-0.00787912	19.3249	3.08883	1	9	0.00543094	0.00263698	0	2.51017e-06	5.39982e-05	1.26794e-05	-2.18241	0.00480829	0.0048048	0.000183104	-23.5168	2.06401	1.89258	0.823576	0.445055	0.19412	0.485548	23.5655	3088.84	7081.7	7726.02	-66.4345	0.0000000E+000	0.0000000E+000	0.0000000E+000	66.4345	0.0000000E+000	0.0000000E+000	0.0000000E+000	-66.4345	0.0000000E+000	0.0000000E+000	0.0000000E+000	-23.5655	0.0000000E+000	0.0000000E+000	0.0000000E+000	23.5655	2.29268	66.4345	-5.76794e-06	-2.02868e-06	-4.25458e-10	-2.02825e-06	0.257421	32678.2	6.85333	32671.3
6810.42	2.07908	0.933007	2.27883	-24.1687	4.86454	0.257468	-0.0156995	25.0473	4.19863	1	9	0.00537549	0.00235888	0	6.89131e-06	-0.000289644	3.77656e-05	-11.5727	0.0160099	0.0156845	0.00321177	-24.0815	2.29446	2.09476	0.936219	0.400357	0.179664	0.438822	24.1687	4198.63	9356.06	10255	-65.8313	0.0000000E+000	0.0000000E+000	0.0000000E+000	65.8313	0.0000000E+000	0.0000000E+000	0.0000000E+000	-65.8313	0.0000000E+000	0.0000000E+000	0.0000000E+000	-24.1687	0.0000000E+000	0.0000000E+000	0.0000000E+000	24.1687	2.22836	65.8313	4.38114e-06	-4.04212e-06	4.54726e-09	-4.04667e-06	0.257758	16399.8	18.4492	16418.2
4646	2.29299	1.05162	2.52264	-24.6374	5.25762	0.25746	-0.0111563	32.5747	5.66096	1	9	0.00514761	0.00204057	0	8.85997e-06	-0.000136914	1.50056e-05	-16.7801	0.00735366	0.00704054	0.002123	-24.6146	2.52993	2.30003	1.05374	0.360323	0.165253	0.39641	24.6374	5660.96	12343.3	13579.6	-65.3626	0.0000000E+000	0.0000000E+000	0.0000000E+000	65.3626	0.0000000E+000	0.0000000E+000	0.0000000E+000	-65.3626	0.0000000E+000	0.0000000E+000	0.0000000E+000	-24.6374	0.0000000E+000	0.0000000E+000	0.0000000E+000	24.6374	2.18043	65.3626	1.96866e-06	-2.87229e-06	1.52745e-09	-2.87382e-06	0.257597	23077.6	12.2724	23089.9
3163.08	2.52179	1.19878	2.79222	-25.4249	5.63067	0.257437	-0.0358462	41.9731	7.73658	1	9	0.00543572	0.00194674	0	3.50527e-06	0.000187637	6.8265e-06	-3.31205	0.00350663	0.00350078	0.000202592	-25.3978	2.79547	2.52529	1.19898	0.323452	0.153759	0.358138	25.4249	7736.58	16274.9	18020.2	-64.5751	0.0000000E+000	0.0000000E+000	0.0000000E+000	64.5751	0.0000000E+000	0.0000000E+000	0.0000000E+000	-64.5751	0.0000000E+000	0.0000000E+000	0.0000000E+000	-25.4249	0.0000000E+000	0.0000000E+000	0.0000000E+000	25.4249	2.10364	64.5751	-5.3547e-06	-9.22814e-06	-6.72607e-09	-9.22141e-06	0.257249	7181.69	5.23449	7176.46
2155.69	2.76737	1.37672	3.09091	-26.4496	6.08178	0.257441	-0.00944322	53.6275	10.6392	1	9	0.00539916	0.00174679	0	1.86204e-06	1.58158e-05	9.92284e-06	-84.2413	0.00568063	0.000569986	0.00565196	-26.5386	3.09394	2.76794	1.38237	0.289665	0.144103	0.32353	26.4496	10639.2	21386	23886.2	-63.5504	0.0000000E+000	0.0000000E+000	0.0000000E+000	63.5504	0.0000000E+000	0.0000000E+000	0.0000000E+000	-63.5504	0.0000000E+000	0.0000000E+000	0.0000000E+000	-26.4496	0.0000000E+000	0.0000000E+000	0.0000000E+000	26.4496	2.01012	63.5504	-1.64323e-06	-2.43107e-06	-1.49352e-10	-2.43092e-06	0.257425	27262	1.67483	27260.3
1468.59	3.03116	1.60369	3.42925	-27.8819	6.77908	0.257454	-0.0126282	67.577	14.7789	1	10	0.00541984	0.00158048	0	-1.48646e-06	0.000378549	5.06557e-06	-111.309	0.00320509	-0.00116473	0.00298597	-27.9351	3.42961	3.02999	1.60668	0.257757	0.136371	0.291609	27.8819	14778.9	27933.8	31602.5	-62.1181	0.0000000E+000	0.0000000E+000	0.0000000E+000	62.1181	0.0000000E+000	0.0000000E+000	0.0000000E+000	-62.1181	0.0000000E+000	0.0000000E+000	0.0000000E+000	-27.8819	0.0000000E+000	0.0000000E+000	0.0000000E+000	27.8819	1.89011	62.1181	-3.34851e-06	-3.25119e-06	-4.7804e-09	-3.24641e-06	0.257076	20387.2	29.9764	20357.2
1000.32	3.33385	1.91268	3.84355	-29.8436	7.23085	0.257468	-0.0122335	83.1837	20.5996	1	10	0.00530914	0.00138131	0	-2.71458e-06	-0.000194188	1.27548e-05	32.1947	0.00923387	0.00781409	-0.00491978	-29.7221	3.84789	3.34166	1.90776	0.225673	0.129472	0.260176	29.8436	20599.6	35905.5	41395	-60.1564	0.0000000E+000	0.0000000E+000	0.0000000E+000	60.1564	0.0000000E+000	0.0000000E+000	0.0000000E+000	-60.1564	0.0000000E+000	0.0000000E+000	0.0000000E+000	-29.8436	0.0000000E+000	0.0000000E+000	0.0000000E+000	29.8436	1.74302	60.1564	-1.22812e-06	-3.14974e-06	2.3756e-09	-3.15212e-06	0.257662	21046.1	15.8734	21062
681.09	3.64802	2.30932	4.31752	-32.3353	7.6796	0.257459	-0.0128628	101.189	28.9489	1	10	0.005151	0.00119305	0	-3.43629e-06	9.21806e-05	4.44409e-05	119.152	0.0372499	-0.0181455	-0.0325315	-32.0975	4.28483	3.62987	2.27679	0.195699	0.123884	0.231614	32.3353	28948.9	45730.3	54122.9	-57.6647	0.0000000E+000	0.0000000E+000	0.0000000E+000	57.6647	0.0000000E+000	0.0000000E+000	0.0000000E+000	-57.6647	0.0000000E+000	0.0000000E+000	0.0000000E+000	-32.3353	0.0000000E+000	0.0000000E+000	0.0000000E+000	32.3353	1.57969	57.6647	-7.21707e-07	-3.31164e-06	-1.1857e-09	-3.31045e-06	0.257367	20015.8	7.16646	20008.7
463.961	4.13754	2.91171	5.05938	-35.1352	8.13234	0.257447	-0.0128479	117.812	39.0205	1	10	0.00512922	0.00101381	0	-5.20576e-06	1.58158e-05	4.53653e-06	72.9281	0.00447475	0.00131366	-0.00427758	-35.087	5.05799	4.13885	2.90743	0.16164	0.113751	0.197653	35.1352	39020.5	55448.2	67801.9	-54.8648	0.0000000E+000	0.0000000E+000	0.0000000E+000	54.8648	0.0000000E+000	0.0000000E+000	0.0000000E+000	-54.8648	0.0000000E+000	0.0000000E+000	0.0000000E+000	-35.1352	0.0000000E+000	0.0000000E+000	0.0000000E+000	35.1352	1.421	54.8648	-1.76946e-06	-3.30766e-06	-2.03199e-10	-3.30745e-06	0.257432	20038.1	1.231	20036.9
316.316	4.76636	3.65383	6.00572	-37.4733	8.58002	0.257442	-0.0124011	137.705	50.9703	1	10	0.00507102	0.000844366	0	-6.5265e-06	-0.000308735	7.57766e-06	-34.6278	0.00897438	0.00738466	0.00509963	-37.4691	6.01468	4.77375	3.65893	0.132147	0.101302	0.166508	37.4733	50970.3	66489.9	83778.8	-52.5267	0.0000000E+000	0.0000000E+000	0.0000000E+000	52.5267	0.0000000E+000	0.0000000E+000	0.0000000E+000	-52.5267	0.0000000E+000	0.0000000E+000	0.0000000E+000	-37.4733	0.0000000E+000	0.0000000E+000	0.0000000E+000	37.4733	1.30448	52.5267	-1.32074e-06	-3.19256e-06	3.82865e-09	-3.19639e-06	0.257751	20759.6	24.8958	20784.5
215.345	5.69113	4.56374	7.29498	-38.7262	9.02957	0.257452	-0.0130117	161.944	63.381	1	10	0.00504202	0.000691164	0	-8.62856e-06	0.000187637	6.71049e-06	-30.7977	0.00970898	0.00833982	0.00497108	-38.7157	7.30459	5.69947	4.56871	0.106943	0.0857577	0.137081	38.7262	63381	79038.2	101312	-51.2738	0.0000000E+000	0.0000000E+000	0.0000000E+000	51.2738	0.0000000E+000	0.0000000E+000	0.0000000E+000	-51.2738	0.0000000E+000	0.0000000E+000	0.0000000E+000	-38.7262	0.0000000E+000	0.0000000E+000	0.0000000E+000	38.7262	1.24703	51.2738	-2.10206e-06	-3.3499e-06	-2.44148e-09	-3.34746e-06	0.257265	19786.2	14.4206	19771.7
146.737	7.02709	5.49501	8.92049	-38.0245	9.47553	0.257453	-0.0126133	197.384	74.898	1	10	0.00501349	0.00056202	0	-1.07563e-05	-0.000213279	9.20114e-06	23.2799	0.0163716	0.0150387	-0.00647042	-37.9323	8.92836	7.04213	5.48854	0.0883077	0.0690543	0.112102	38.0245	74898	95780.6	121588	-51.9755	0.0000000E+000	0.0000000E+000	0.0000000E+000	51.9755	0.0000000E+000	0.0000000E+000	0.0000000E+000	-51.9755	0.0000000E+000	0.0000000E+000	0.0000000E+000	-38.0245	0.0000000E+000	0.0000000E+000	0.0000000E+000	38.0245	1.27881	51.9755	-2.12773e-06	-3.24734e-06	2.69016e-09	-3.25003e-06	0.257666	20411.2	16.909	20428.1
100.032	8.8068	6.3031	10.83	-35.5916	9.92686	0.257457	-0.0120101	252.422	85.5025	1	10	0.00501389	0.000462964	0	-1.18404e-05	0.000206728	8.71133e-06	73.9175	0.0188164	0.00521256	-0.01808	-35.4977	10.8237	8.81201	6.28502	0.0750865	0.05374	0.0923362	35.5916	85502.5	119466	146911	-54.4084	0.0000000E+000	0.0000000E+000	0.0000000E+000	54.4084	0.0000000E+000	0.0000000E+000	0.0000000E+000	-54.4084	0.0000000E+000	0.0000000E+000	0.0000000E+000	-35.5916	0.0000000E+000	0.0000000E+000	0.0000000E+000	35.5916	1.39722	54.4084	-1.08415e-06	-3.09209e-06	-2.48283e-09	-3.08961e-06	0.25725	21436.6	17.2128	21419.4
68.104	10.922	6.63461	12.7792	-31.2768	10.3894	0.257461	-0.0114851	352.235	94.9419	1	10	0.00500152	0.000391381	0	-1.3008e-05	-7.96403e-05	9.20807e-06	-45.0326	0.0235271	0.0166267	0.0166457	-31.3019	12.802	10.9386	6.65125	0.0668798	0.0406266	0.0782524	31.2768	94941.9	156294	182871	-58.7232	0.0000000E+000	0.0000000E+000	0.0000000E+000	58.7232	0.0000000E+000	0.0000000E+000	0.0000000E+000	-58.7232	0.0000000E+000	0.0000000E+000	0.0000000E+000	-31.2768	0.0000000E+000	0.0000000E+000	0.0000000E+000	31.2768	1.64621	58.7232	-1.16757e-06	-2.95698e-06	9.14681e-10	-2.95789e-06	0.257541	22416.9	6.9342	22423.8
46.4415	13.0775	6.49757	14.6028	-26.4205	10.8257	0.257458	-0.013533	527.427	104.423	1	10	0.0049832	0.000341251	0	-1.46568e-05	-6.05491e-05	1.85342e-05	148.601	0.0543125	-0.0463589	-0.0282966	-26.4019	14.5486	13.0312	6.46928	0.0613277	0.0304706	0.0684802	26.4205	104423	210170	234681	-63.5795	0.0000000E+000	0.0000000E+000	0.0000000E+000	63.5795	0.0000000E+000	0.0000000E+000	0.0000000E+000	-63.5795	0.0000000E+000	0.0000000E+000	0.0000000E+000	-26.4205	0.0000000E+000	0.0000000E+000	0.0000000E+000	26.4205	2.01268	63.5795	-1.64883e-06	-3.48418e-06	8.19412e-10	-3.485e-06	0.257518	19024.4	4.47417	19028.9
31.6296	14.9768	6.03841	16.1483	-21.9584	11.2555	0.257456	-0.0131086	833.306	116.518	1	10	0.0049982	0.000309518	0	-1.55593e-05	-6.05491e-05	7.9678e-06	30.7677	0.0257426	0.0221193	-0.0131688	-21.8858	16.1639	14.999	6.02524	0.0574335	0.0231562	0.0619259	21.9584	116518	288996	311602	-68.0416	0.0000000E+000	0.0000000E+000	0.0000000E+000	68.0416	0.0000000E+000	0.0000000E+000	0.0000000E+000	-68.0416	0.0000000E+000	0.0000000E+000	0.0000000E+000	-21.9584	0.0000000E+000	0.0000000E+000	0.0000000E+000	21.9584	2.48026	68.0416	-9.02418e-07	-3.37488e-06	7.93711e-10	-3.37568e-06	0.257517	19640.3	4.61905	19645
21.5517	16.5084	5.26951	17.329	-17.7032	11.9085	0.257467	-0.00831077	1401.42	129.587	1	11	0.0049992	0.000288488	0	-1.62157e-05	-9.87315e-05	5.02765e-06	9.78612	0.0174276	0.017174	-0.00296219	-17.6766	17.3444	16.5255	5.26654	0.054974	0.0175478	0.0577068	17.7032	129587	405972	426152	-72.2968	0.0000000E+000	0.0000000E+000	0.0000000E+000	72.2968	0.0000000E+000	0.0000000E+000	0.0000000E+000	-72.2968	0.0000000E+000	0.0000000E+000	0.0000000E+000	-17.7032	0.0000000E+000	0.0000000E+000	0.0000000E+000	17.7032	3.13281	72.2968	-6.56437e-07	-2.13975e-06	8.20535e-10	-2.14057e-06	0.257566	30979.9	11.88	30991.8
14.6852	17.6717	4.5013	18.236	-14.2904	12.3682	0.257472	-0.00774521	2407.71	146.697	1	11	0.00498948	0.000273607	0	-1.6008e-05	0.000130363	9.47955e-06	-77.9881	0.0346466	0.00721046	0.033888	-14.3879	18.2513	17.6789	4.53519	0.0531399	0.0135357	0.0548367	14.2904	146697	575920	594310	-75.7096	0.0000000E+000	0.0000000E+000	0.0000000E+000	75.7096	0.0000000E+000	0.0000000E+000	0.0000000E+000	-75.7096	0.0000000E+000	0.0000000E+000	0.0000000E+000	-14.2904	0.0000000E+000	0.0000000E+000	0.0000000E+000	14.2904	3.92591	75.7096	2.07711e-07	-1.99417e-06	-1.00969e-09	-1.99316e-06	0.257341	33242.7	16.8314	33225.9
10.0032	18.6177	3.96657	19.0355	-12.0273	12.8188	0.257468	-0.00752889	4011.13	174.167	1	11	0.00499836	0.00026258	0	-1.89287e-05	0.000168545	2.50887e-05	75.7843	0.0955467	0.0234637	-0.0926209	-11.7399	19.0394	18.6412	3.87395	0.0513801	0.0109467	0.0525333	12.0273	174167	817478	835826	-77.9727	0.0000000E+000	0.0000000E+000	0.0000000E+000	77.9727	0.0000000E+000	0.0000000E+000	0.0000000E+000	-77.9727	0.0000000E+000	0.0000000E+000	0.0000000E+000	-12.0273	0.0000000E+000	0.0000000E+000	0.0000000E+000	12.0273	4.69365	77.9727	-2.92067e-06	-1.93845e-06	-1.26896e-09	-1.93718e-06	0.2573	34197.4	22.3865	34175
6.81719	19.381	3.3804	19.6736	-9.89389	13.1585	0.257456	-0.00819646	6906.32	203.899	1	11	0.00499367	0.000253826	0	-1.73117e-05	-0.000136914	7.21871e-06	23.3252	0.0284396	0.0261153	-0.0112607	-9.84857	19.6974	19.4071	3.36914	0.0500735	0.00873372	0.0508295	9.89389	203899	1.16902e+06	1.18667e+06	-80.1061	0.0000000E+000	0.0000000E+000	0.0000000E+000	80.1061	0.0000000E+000	0.0000000E+000	0.0000000E+000	-80.1061	0.0000000E+000	0.0000000E+000	0.0000000E+000	-9.89389	0.0000000E+000	0.0000000E+000	0.0000000E+000	9.89389	5.73335	80.1061	1.617e-06	-2.11023e-06	1.12221e-09	-2.11135e-06	0.257593	31410.6	16.704	31427.3
4.63925	20.0427	2.89778	20.2511	-8.22681	13.6425	0.257464	-0.00725524	11838.8	242.403	1	11	0.00498988	0.0002464	0	-1.89079e-05	0.000111272	5.6872e-06	55.0277	0.0230812	0.0132297	-0.0189134	-8.16852	20.2615	20.056	2.87886	0.0488718	0.00706588	0.0493799	8.22681	242403	1.6766e+06	1.69404e+06	-81.7732	0.0000000E+000	0.0000000E+000	0.0000000E+000	81.7732	0.0000000E+000	0.0000000E+000	0.0000000E+000	-81.7732	0.0000000E+000	0.0000000E+000	0.0000000E+000	-8.22681	0.0000000E+000	0.0000000E+000	0.0000000E+000	8.22681	6.91659	81.7732	-1.59629e-06	-1.86796e-06	-8.07304e-10	-1.86715e-06	0.257352	35486.6	15.3368	35471.3
3.1604	20.6062	2.54653	20.763	-7.04493	14.3354	0.257453	-0.00717687	19775.6	297.473	1	11	0.00499342	0.000240496	0	-2.36399e-05	-0.00023237	2.75744e-06	-62.4107	0.0114656	0.00531009	0.0101619	-7.07096	20.7695	20.6115	2.5567	0.047799	0.00590703	0.0481626	7.04493	297473	2.40712e+06	2.42543e+06	-82.9551	0.0000000E+000	0.0000000E+000	0.0000000E+000	82.9551	0.0000000E+000	0.0000000E+000	0.0000000E+000	-82.9551	0.0000000E+000	0.0000000E+000	0.0000000E+000	-7.04493	0.0000000E+000	0.0000000E+000	0.0000000E+000	7.04493	8.09188	82.9551	-4.73192e-06	-1.8477e-06	1.66769e-09	-1.84937e-06	0.257685	35872.6	32.3776	35904.9
2.15577	21.1394	2.25981	21.2598	-6.10177	15.3391	0.257462	-0.00672459	32669.8	369.123	1	11	0.00499379	0.000234893	0	-2.69355e-05	-0.000117823	1.56493e-06	116.323	0.00666231	-0.00295429	-0.00597148	-6.08662	21.2562	21.1364	2.25384	0.0467706	0.0049998	0.0470371	6.10177	369123	3.45296e+06	3.47263e+06	-83.8982	0.0000000E+000	0.0000000E+000	0.0000000E+000	83.8982	0.0000000E+000	0.0000000E+000	0.0000000E+000	-83.8982	0.0000000E+000	0.0000000E+000	0.0000000E+000	-6.10177	0.0000000E+000	0.0000000E+000	0.0000000E+000	6.10177	9.3545	83.8982	-3.29565e-06	-1.73132e-06	7.9231e-10	-1.73212e-06	0.257579	38286.6	17.5212	38304.1
1.46631	21.5836	2.03976	21.6797	-5.39872	16.8006	0.257457	-0.00709625	53212.6	471.048	1	11	0.00499817	0.000230546	0	-2.64232e-05	-0.000194188	3.31806e-06	43.267	0.0143922	0.0104799	-0.0098644	-5.37017	21.6893	21.5941	2.0299	0.0459214	0.00433981	0.046126	5.39872	471048	4.98436e+06	5.00657e+06	-84.6013	0.0000000E+000	0.0000000E+000	0.0000000E+000	84.6013	0.0000000E+000	0.0000000E+000	0.0000000E+000	-84.6013	0.0000000E+000	0.0000000E+000	0.0000000E+000	-5.39872	0.0000000E+000	0.0000000E+000	0.0000000E+000	5.39872	10.5814	84.6013	5.12269e-07	-1.82698e-06	1.378e-09	-1.82835e-06	0.257651	36280.6	27.3648	36308
1.00006	21.9367	1.83843	22.0136	-4.79055	19.9756	0.257456	-0.00635434	86565.4	603.751	1	12	0.00499534	0.00022692	0	-2.42737e-05	-0.000175096	4.91026e-06	5.02081	0.0216387	0.0215556	-0.00189377	-4.78096	22.0349	21.9583	1.83654	0.0452677	0.00379372	0.0454264	4.79055	603751	7.20412e+06	7.22938e+06	-85.2095	0.0000000E+000	0.0000000E+000	0.0000000E+000	85.2095	0.0000000E+000	0.0000000E+000	0.0000000E+000	-85.2095	0.0000000E+000	0.0000000E+000	0.0000000E+000	-4.79055	0.0000000E+000	0.0000000E+000	0.0000000E+000	4.79055	11.9323	85.2095	2.14956e-06	-1.63596e-06	1.11262e-09	-1.63707e-06	0.257631	40516.5	27.5554	40544.1
0.681362	22.2752	1.71451	22.3411	-4.40134	23.0874	0.257459	-0.00532852	136239	802.366	1	12	0.00499732	0.000223683	0	-2.31075e-05	-6.05491e-05	2.65471e-06	-28.9021	0.0118682	0.01039	0.00573609	-4.41396	22.3519	22.2856	1.72025	0.0446285	0.00343503	0.0447605	4.40134	802366	1.04245e+07	1.04553e+07	-85.5987	0.0000000E+000	0.0000000E+000	0.0000000E+000	85.5987	0.0000000E+000	0.0000000E+000	0.0000000E+000	-85.5987	0.0000000E+000	0.0000000E+000	0.0000000E+000	-4.40134	0.0000000E+000	0.0000000E+000	0.0000000E+000	4.40134	12.9922	85.5987	1.16615e-06	-1.37187e-06	3.22637e-10	-1.3722e-06	0.257519	48317.1	11.3632	48328.4
0.464091	22.5471	1.70093	22.6112	-4.31415	27.6439	0.257461	-0.00390757	201619	1140.92	1	12	0.00499597	0.000220952	0	-3.04631e-05	0.000206728	2.65838e-06	-5.20665	0.0120315	0.0119819	0.00109184	-4.31463	22.6232	22.5591	1.70202	0.0441006	0.0033269	0.0442259	4.31415	1.14093e+06	1.51238e+07	1.51668e+07	-85.6858	0.0000000E+000	0.0000000E+000	0.0000000E+000	85.6858	0.0000000E+000	0.0000000E+000	0.0000000E+000	-85.6858	0.0000000E+000	0.0000000E+000	0.0000000E+000	-4.31415	0.0000000E+000	0.0000000E+000	0.0000000E+000	4.31415	13.2558	85.6858	-7.35556e-06	-1.00605e-06	-8.07803e-10	-1.00524e-06	0.257255	65887.9	52.9045	65835
0.316193	22.8035	1.80187	22.8746	-4.51797	34.32	0.257468	-0.00266385	279347	1733.34	1	12	0.00499906	0.000218542	0	-5.13041e-05	0.000206728	1.99552e-06	-3.31342	0.00913107	0.00911581	0.000527756	-4.51749	22.8837	22.8126	1.8024	0.0435808	0.00344363	0.0437166	4.51797	1.73334e+06	2.19363e+07	2.20046e+07	-85.482	0.0000000E+000	0.0000000E+000	0.0000000E+000	85.482	0.0000000E+000	0.0000000E+000	0.0000000E+000	-85.482	0.0000000E+000	0.0000000E+000	0.0000000E+000	-4.51797	0.0000000E+000	0.0000000E+000	0.0000000E+000	4.51797	12.6555	85.482	-2.0841e-05	-6.85857e-07	-5.50693e-10	-6.85306e-07	0.257261	96652.4	77.6048	96574.8
0.215268	23.0602	1.9957	23.1464	-4.94624	44.1133	0.257464	-0.00271636	370463	2754.05	1	12	0.0049961	0.000215848	0	-8.7474e-05	9.21806e-05	2.32697e-06	-3.81499	0.0107806	0.0107567	0.000717287	-4.94571	23.1572	23.0709	1.99642	0.0430424	0.00372503	0.0432033	4.94624	2.75405e+06	3.18228e+07	3.19417e+07	-85.0538	0.0000000E+000	0.0000000E+000	0.0000000E+000	85.0538	0.0000000E+000	0.0000000E+000	0.0000000E+000	-85.0538	0.0000000E+000	0.0000000E+000	0.0000000E+000	-4.94624	0.0000000E+000	0.0000000E+000	0.0000000E+000	4.94624	11.5549	85.0538	-3.61699e-05	-6.99365e-07	-2.50395e-10	-6.99114e-07	0.257372	94783	33.9354	94749
0.146929	23.4	2.35096	23.5178	-5.73715	58.4517	0.257458	-0.00336814	460753	4604.3	1	12	0.00499803	0.000212521	0	-0.000131665	1.58158e-05	1.52761e-06	34.7173	0.00718803	0.00590836	-0.00409378	-5.72579	23.5233	23.4059	2.34686	0.042308	0.00425061	0.042521	5.73715	4.6043e+06	4.58285e+07	4.60592e+07	-84.2628	0.0000000E+000	0.0000000E+000	0.0000000E+000	84.2628	0.0000000E+000	0.0000000E+000	0.0000000E+000	-84.2628	0.0000000E+000	0.0000000E+000	0.0000000E+000	-5.73715	0.0000000E+000	0.0000000E+000	0.0000000E+000	5.73715	9.9534	84.2628	-4.41912e-05	-8.67156e-07	-5.32698e-11	-8.67102e-07	0.257442	76439.3	4.6957	76434.6
0.0999041	23.8185	2.96138	24.0019	-7.0873	79.5279	0.25746	-0.0037972	537950	8189.21	1	12	0.00499334	0.00020804	0	-0.000165466	0.000111272	2.69443e-06	0.354446	0.0129515	0.0129512	-8.01207e-05	-7.0833	24.0147	23.8314	2.9613	0.0413451	0.0051405	0.0416635	7.0873	8.18921e+06	6.5866e+07	6.63731e+07	-82.9127	0.0000000E+000	0.0000000E+000	0.0000000E+000	82.9127	0.0000000E+000	0.0000000E+000	0.0000000E+000	-82.9127	0.0000000E+000	0.0000000E+000	0.0000000E+000	-7.0873	0.0000000E+000	0.0000000E+000	0.0000000E+000	7.0873	8.04302	82.9127	-3.3801e-05	-9.77626e-07	-4.22521e-10	-9.77204e-07	0.257349	67802.6	29.3037	67773.3
0.0680626	24.2688	3.80534	24.5653	-8.91141	110.455	0.257469	-0.00353355	614494	14745.5	1	12	0.00499462	0.00020332	0	-0.000166216	0.000149454	1.84337e-06	6.72498	0.00906637	0.00900399	-0.0010617	-8.90571	24.574	24.2778	3.80428	0.0402164	0.00630593	0.0407078	8.91141	1.47455e+07	9.40405e+07	9.51895e+07	-81.0886	0.0000000E+000	0.0000000E+000	0.0000000E+000	81.0886	0.0000000E+000	0.0000000E+000	0.0000000E+000	-81.0886	0.0000000E+000	0.0000000E+000	0.0000000E+000	-8.91141	0.0000000E+000	0.0000000E+000	0.0000000E+000	8.91141	6.37756	81.0886	-7.4974e-07	-9.0978e-07	-5.28104e-10	-9.09252e-07	0.25732	72864.3	42.2958	72822
0.0464052	24.7653	4.85129	25.236	-11.0834	155.807	0.257465	-0.00256092	706962	26125.9	1	12	0.00499685	0.000198005	0	-9.44872e-05	-0.000136914	2.02505e-06	18.8834	0.0102272	0.0096768	-0.00330997	-11.0718	25.2448	24.775	4.84798	0.0388869	0.00761759	0.039626	11.0834	2.61259e+07	1.3337e+08	1.35904e+08	-78.9166	0.0000000E+000	0.0000000E+000	0.0000000E+000	78.9166	0.0000000E+000	0.0000000E+000	0.0000000E+000	-78.9166	0.0000000E+000	0.0000000E+000	0.0000000E+000	-11.0834	0.0000000E+000	0.0000000E+000	0.0000000E+000	11.0834	5.10489	78.9166	7.17287e-05	-6.59346e-07	3.50625e-10	-6.59697e-07	0.257602	100536	53.4629	100590
0.0315922	25.568	6.18304	26.305	-13.5947	222.412	0.25746	-0.00104959	814776	45016	1	12	0.00499679	0.000189956	0	5.01105e-05	0.000264002	1.37917e-06	-42.794	0.00726046	0.00532773	0.0049325	-13.6024	26.3113	25.5733	6.18797	0.0369506	0.00893566	0.0380156	13.5947	4.5016e+07	1.86149e+08	1.91515e+08	-76.4053	0.0000000E+000	0.0000000E+000	0.0000000E+000	76.4053	0.0000000E+000	0.0000000E+000	0.0000000E+000	-76.4053	0.0000000E+000	0.0000000E+000	0.0000000E+000	-13.5947	0.0000000E+000	0.0000000E+000	0.0000000E+000	13.5947	4.13518	76.4053	0.000144598	-2.70227e-07	-2.77093e-10	-2.6995e-07	0.257196	245296	251.529	245045
0.0215268	26.7107	8.1248	27.9191	-16.9186	320.151	0.257461	0.000387491	909972	77064.1	1	12	0.00499134	0.000178779	0	0.000202511	-6.05491e-05	1.61197e-06	17.1912	0.00901656	0.00861373	-0.00266495	-16.9082	27.9265	26.7193	8.12214	0.0342676	0.0104234	0.0358178	16.9186	7.70641e+07	2.53352e+08	2.64814e+08	-73.0814	0.0000000E+000	0.0000000E+000	0.0000000E+000	73.0814	0.0000000E+000	0.0000000E+000	0.0000000E+000	-73.0814	0.0000000E+000	0.0000000E+000	0.0000000E+000	-16.9186	0.0000000E+000	0.0000000E+000	0.0000000E+000	16.9186	3.28755	73.0814	0.000152401	9.97636e-08	-2.34622e-11	9.97871e-08	0.257521	664430	156.259	664587
0.0146812	27.9978	10.8134	30.0135	-21.1177	463.453	0.257459	0.00082449	1.00253e+06	130134	1	12	0.00499528	0.000166435	0	0.000215896	0.000130363	1.6615e-06	-80.3196	0.0099829	0.00167864	0.00984075	-21.1341	30.0186	27.9995	10.8233	0.0310808	0.0120041	0.0333184	21.1177	1.30134e+08	3.36939e+08	3.61196e+08	-68.8823	0.0000000E+000	0.0000000E+000	0.0000000E+000	68.8823	0.0000000E+000	0.0000000E+000	0.0000000E+000	-68.8823	0.0000000E+000	0.0000000E+000	0.0000000E+000	-21.1177	0.0000000E+000	0.0000000E+000	0.0000000E+000	21.1177	2.58917	68.8823	1.33849e-05	2.12273e-07	1.07483e-10	2.12165e-07	0.257329	312265	158.114	312107
0.0100092	29.4347	14.0023	32.5955	-25.4408	673.635	0.257463	0.000523843	1.13559e+06	209560	1	12	0.0049937	0.000153202	0	-6.14233e-05	3.4907e-05	3.61074e-06	-27.0779	0.0235685	0.0209851	0.0107284	-25.442	32.619	29.4557	14.0131	0.0277041	0.0131791	0.0306791	25.4408	2.09559e+08	4.40521e+08	4.87826e+08	-64.5592	0.0000000E+000	0.0000000E+000	0.0000000E+000	64.5592	0.0000000E+000	0.0000000E+000	0.0000000E+000	-64.5592	0.0000000E+000	0.0000000E+000	0.0000000E+000	-25.4408	0.0000000E+000	0.0000000E+000	0.0000000E+000	25.4408	2.10213	64.5592	-0.000277319	1.3487e-07	1.82858e-11	1.34852e-07	0.257429	491489	66.6363	491423