File: txt/18486_R301_UA694_SOC00_C08.mpt
EC-Lab ASCII FILE
Nb header lines : 65

Potentio Electrochemical Impedance Spectroscopy

Run on channel : 8 (SN 65398)
User :
CE vs. WE compliance from -10 V to 10 V
Electrode connection : standard
Potential control : Ewe
Ewe ctrl range : min = -10.00 V, max = 10.00 V
Safety Limits :
	Do not start on E overload
Acquisition started on : 10/21/2025 09:27:02.604
Technique started on : 10/21/2025 09:27:04.383
Loaded Setting File :  C:\Users\Celltest\OneDrive - store-dot.com\Documents\EC-Lab\Data\@Biologic Test Protocols\anode half cell EIS SOC00.mps
Saved on :
	File : 18486_R301_UA694_SOC00_C08.mpr
	Directory : C:\Users\Celltest\OneDrive - store-dot.com\Documents\EC-Lab\Data\Gyutae\
	Host : 169.254.61.224
Device : VMP-3e (SN .003165)
Address : USB
EC-LAB for windows v11.62 (software)
Internet server v27.00 (firmware)
Command interpretor v12.03 (firmware)
Electrode material :
Initial state :
Electrolyte :
Comments :
Electrode surface area : 0.001 cm²
Characteristic mass : 0.001 g
Equivalent Weight : 0.000 g/eq.
Density : 0.000 g/cm3
Volume (V) : 0.001 cm³
Record Ece
Cycle Definition : Charge/Discharge alternance
Mode                Single sine
E (V)               0.0000
vs.                 Eoc
tE (h:m:s)          0:00:0.0000
record              0
dI                  0.000
unit dI             mA
dt (s)              0.000
fi                  100.000
unit fi             kHz
ff                  10.000
unit ff             mHz
Nd                  6
Points              per decade
spacing             Logarithmic
Va (mV)             5.0
pw                  0.10
Na                  2
corr                0
E range min (V)     -10.000
E range max (V)     10.000
I Range             Auto
Bandwidth           5
nc cycles           0
goto Ns'            0
nr cycles           0
inc. cycle          0

freq/Hz	Re(Z)/Ohm	-Im(Z)/Ohm	|Z|/Ohm	Phase(Z)/deg	time/s	<Ewe>/V	<I>/mA	Cs/µF	Cp/µF	cycle number	I Range	|Ewe|/V	|I|/A	Ns	(Q-Qo)/mA.h	<Ece>/V	|Ece|/V	Phase(Zce)/deg	|Zce|/Ohm	Re(Zce)/Ohm	-Im(Zce)/Ohm	Phase(Zwe-ce)/deg	|Zwe-ce|/Ohm	Re(Zwe-ce)/Ohm	-Im(Zwe-ce)/Ohm	Re(Y)/Ohm-1	Im(Y)/Ohm-1	|Y|/Ohm-1	Phase(Y)/deg	Re(C)/nF	Im(C)/nF	|C|/nF	Phase(C)/deg	Re(M)	Im(M)	|M|	Phase(M)/deg	Re(Permittivity)	Im(Permittivity)	|Permittivity|	Phase(Permittivity)/deg	Re(Resistivity)/Ohm.cm	Im(Resistivity)/Ohm.cm	|Resistivity|/Ohm.cm	Phase(Resistivity)/deg	Re(Conductivity)/mS/cm	Im(Conductivity)/mS/cm	|Conductivity|/mS/cm	Phase(Conductivity)/deg	Tan(Delta)	Loss Angle(Delta)/deg	dq/mA.h	Pwe/W	Pce/W	Pwe-ce/W	<Ewe-Ece>/V	Rwe/Ohm	Rce/Ohm	Rwe-ce/Ohm		Ewe-Ece/V
100004	1.89367	0.00436252	1.89368	-0.131994	1.77853	0.269542	0.0342656	364.81	0.00193611	1	9	0.00148818	0.00078587	0	2.61767e-06	0.000216278	2.78532e-05	54.3044	0.0354425	0.0206799	-0.0287838	0.730881	1.91451	1.91435	-0.0244213	0.528072	0.00121654	0.528073	0.131994	1.93614	840.422	840.424	-89.868	0.0000000E+000	0.0000000E+000	0.0000000E+000	89.868	0.0000000E+000	0.0000000E+000	0.0000000E+000	-89.868	0.0000000E+000	0.0000000E+000	0.0000000E+000	-0.131994	0.0000000E+000	0.0000000E+000	0.0000000E+000	0.131994	434.077	89.868	2.61767e-06	9.23603e-06	7.41089e-09	9.22862e-06	0.269326	7866.26	6.3118	7859.95
68132	1.96312	-0.00768604	1.96314	0.224324	2.16153	0.269556	0.0321079	-303.925	-0.00465875	1	9	0.00141464	0.000720599	0	5.04375e-06	0.000216278	1.71957e-05	87.3519	0.023863	0.00110251	-0.0238375	0.919453	1.96448	1.96423	-0.0315236	0.509385	-0.00199435	0.509388	-0.224324	-4.65882	1189.91	1189.92	-90.2243	0.0000000E+000	0.0000000E+000	0.0000000E+000	90.2243	0.0000000E+000	0.0000000E+000	0.0000000E+000	-90.2243	0.0000000E+000	0.0000000E+000	0.0000000E+000	0.224324	0.0000000E+000	0.0000000E+000	0.0000000E+000	-0.224324	255.414	89.7757	2.42608e-06	8.65487e-06	6.94422e-09	8.64793e-06	0.26934	8395.32	6.73597	8388.59
46420.4	1.43204	-1.04029	1.77002	35.9962	2.54452	0.269571	0.03434	-3.29576	-1.13845	1	9	0.000514092	0.000290445	0	8.13918e-06	0.00019719	1.75713e-05	0.977896	0.060498	0.0604892	-0.0010325	34.9031	1.81989	1.49253	-1.04133	0.45709	-0.332048	0.564967	-35.9962	-1138.45	1567.16	1937.02	-125.996	0.0000000E+000	0.0000000E+000	0.0000000E+000	125.996	0.0000000E+000	0.0000000E+000	0.0000000E+000	-125.996	0.0000000E+000	0.0000000E+000	0.0000000E+000	35.9962	0.0000000E+000	0.0000000E+000	0.0000000E+000	-35.9962	1.37658	54.0038	3.09543e-06	9.25708e-06	6.7715e-09	9.25031e-06	0.269374	7850.06	5.74227	7844.32
31621.1	2.10245	0.876579	2.27787	-22.6328	3.30054	0.269546	-0.0161806	5.74185	0.85031	1	9	0.0052246	0.00229364	0	4.03149e-05	0.000178102	1.13893e-05	5.99979	0.00496562	0.00493842	-0.00051903	-22.5731	2.28223	2.10739	0.87606	0.405199	0.168941	0.439007	22.6328	850.31	2039.44	2209.6	-67.3671	0.0000000E+000	0.0000000E+000	0.0000000E+000	67.3671	0.0000000E+000	0.0000000E+000	0.0000000E+000	-67.3671	0.0000000E+000	0.0000000E+000	0.0000000E+000	-22.6328	0.0000000E+000	0.0000000E+000	0.0000000E+000	22.6328	2.39847	67.3671	3.21757e-05	-4.3614e-06	-2.88179e-09	-4.35852e-06	0.269368	16658.6	11.0071	16647.6
21544.7	2.32047	0.991903	2.52358	-23.1447	3.68352	0.269551	-0.0160318	7.4475	1.15058	1	9	0.00507323	0.00201033	0	4.32375e-05	-1.2779e-05	1.05917e-05	-11.7593	0.00526863	0.00515806	0.00107375	-23.1211	2.52874	2.32562	0.992977	0.36437	0.155753	0.396263	23.1447	1150.58	2691.67	2927.28	-66.8553	0.0000000E+000	0.0000000E+000	0.0000000E+000	66.8553	0.0000000E+000	0.0000000E+000	0.0000000E+000	-66.8553	0.0000000E+000	0.0000000E+000	0.0000000E+000	-23.1447	0.0000000E+000	0.0000000E+000	0.0000000E+000	23.1447	2.33941	66.8553	2.92257e-06	-4.32138e-06	2.04869e-10	-4.32158e-06	0.269564	16813.5	0.797102	16814.3
14678.6	2.57644	1.09931	2.80116	-23.1068	3.94255	0.269546	-0.0142461	9.86318	1.51907	1	9	0.00462664	0.00165168	0	4.25921e-05	0.000101749	1.15244e-05	-87.9889	0.00697738	0.000244856	0.00697308	-23.2359	2.80413	2.57668	1.10628	0.328355	0.140101	0.356995	23.1068	1519.07	3560.24	3870.77	-66.8932	0.0000000E+000	0.0000000E+000	0.0000000E+000	66.8932	0.0000000E+000	0.0000000E+000	0.0000000E+000	-66.8932	0.0000000E+000	0.0000000E+000	0.0000000E+000	-23.1068	0.0000000E+000	0.0000000E+000	0.0000000E+000	23.1068	2.34369	66.8932	-6.45341e-07	-3.83997e-06	-1.44953e-09	-3.83852e-06	0.269444	18920.7	7.14227	18913.6
10002.2	2.82616	1.227	3.08102	-23.4684	4.32553	0.269547	-0.0169246	12.9682	2.05673	1	9	0.00490115	0.00159076	0	3.98885e-05	0.00019719	1.39134e-05	-62.0612	0.00874638	0.00409792	0.00772698	-23.5697	3.08786	2.83025	1.23472	0.297719	0.129257	0.324568	23.4684	2056.73	4737.3	5164.51	-66.5316	0.0000000E+000	0.0000000E+000	0.0000000E+000	66.5316	0.0000000E+000	0.0000000E+000	0.0000000E+000	-66.5316	0.0000000E+000	0.0000000E+000	0.0000000E+000	-23.4684	0.0000000E+000	0.0000000E+000	0.0000000E+000	23.4684	2.30331	66.5316	-2.70365e-06	-4.56198e-06	-3.33736e-09	-4.55864e-06	0.26935	15926.3	11.651	15914.6
6810.42	3.08511	1.38297	3.3809	-24.1454	4.58454	0.269548	-0.0138741	16.8979	2.82744	1	9	0.00470936	0.00139293	0	3.79129e-05	6.3091e-06	8.36361e-05	37.7728	0.0600433	0.047461	-0.0367784	-23.2551	3.40958	3.13257	1.34619	0.269902	0.120989	0.295779	24.1454	2827.44	6307.42	6912.16	-65.8546	0.0000000E+000	0.0000000E+000	0.0000000E+000	65.8546	0.0000000E+000	0.0000000E+000	0.0000000E+000	-65.8546	0.0000000E+000	0.0000000E+000	0.0000000E+000	-24.1454	0.0000000E+000	0.0000000E+000	0.0000000E+000	24.1454	2.23079	65.8546	-1.9756e-06	-3.73972e-06	-8.75328e-11	-3.73963e-06	0.269541	19428.2	0.454741	19427.7
4646	3.39684	1.52351	3.72285	-24.1566	4.85059	0.269489	-0.0398784	22.4851	3.76561	1	9	0.00465225	0.00124965	0	3.57998e-05	-5.09551e-05	1.69956e-05	36.6028	0.0136003	0.0109182	-0.00810938	-23.9743	3.72951	3.40776	1.5154	0.245089	0.109925	0.268612	24.1566	3765.61	8395.86	9201.64	-65.8434	0.0000000E+000	0.0000000E+000	0.0000000E+000	65.8434	0.0000000E+000	0.0000000E+000	0.0000000E+000	-65.8434	0.0000000E+000	0.0000000E+000	0.0000000E+000	-24.1566	0.0000000E+000	0.0000000E+000	0.0000000E+000	24.1566	2.22961	65.8434	-2.11312e-06	-1.07468e-05	2.03201e-09	-1.07488e-05	0.26954	6757.77	1.27776	6759.05
3163.08	3.77207	1.77006	4.16673	-25.1386	5.43366	0.269465	-0.0317422	28.4264	5.1299	1	10	0.00476091	0.0011426	0	3.32507e-05	0.000139925	1.09069e-05	66.8455	0.00954566	0.00375346	-0.00877674	-25.0074	4.16641	3.77582	1.76129	0.217265	0.101953	0.239997	25.1386	5129.9	10932	12075.8	-64.8614	0.0000000E+000	0.0000000E+000	0.0000000E+000	64.8614	0.0000000E+000	0.0000000E+000	0.0000000E+000	-64.8614	0.0000000E+000	0.0000000E+000	0.0000000E+000	-25.1386	0.0000000E+000	0.0000000E+000	0.0000000E+000	25.1386	2.13104	64.8614	-2.54905e-06	-8.5534e-06	-4.44154e-09	-8.54896e-06	0.269325	8489.17	4.40819	8484.76
2155.69	4.15465	2.01455	4.61731	-25.8683	5.88486	0.269484	-0.0159807	36.6485	6.97644	1	10	0.00467461	0.00101241	0	3.23117e-05	0.000311718	8.6396e-06	-95.2812	0.00853369	-0.00078548	0.00849747	-25.9674	4.62032	4.15387	2.02305	0.194875	0.0944931	0.216576	25.8683	6976.44	14387.7	15989.9	-64.1317	0.0000000E+000	0.0000000E+000	0.0000000E+000	64.1317	0.0000000E+000	0.0000000E+000	0.0000000E+000	-64.1317	0.0000000E+000	0.0000000E+000	0.0000000E+000	-25.8683	0.0000000E+000	0.0000000E+000	0.0000000E+000	25.8683	2.06232	64.1317	-9.39075e-07	-4.30655e-06	-4.98147e-09	-4.30157e-06	0.269172	16863.1	19.5059	16843.6
1468.59	4.57507	2.31698	5.12832	-26.8593	6.3361	0.269492	-0.0149317	46.7733	9.54754	1	10	0.00461642	0.000900182	0	2.97274e-05	4.44852e-05	5.9877e-06	-69.9175	0.00665165	0.00228399	0.00624723	-26.91	5.13318	4.57735	2.32322	0.173959	0.0880992	0.194996	26.8593	9547.54	18852.4	21132.2	-63.1407	0.0000000E+000	0.0000000E+000	0.0000000E+000	63.1407	0.0000000E+000	0.0000000E+000	0.0000000E+000	-63.1407	0.0000000E+000	0.0000000E+000	0.0000000E+000	-26.8593	0.0000000E+000	0.0000000E+000	0.0000000E+000	26.8593	1.97459	63.1407	-2.58422e-06	-4.02397e-06	-6.64239e-10	-4.02331e-06	0.269448	18048.3	2.97925	18045.4
1000.32	5.04871	2.69339	5.72222	-28.079	6.78678	0.269498	-0.0142212	59.0721	13.0873	1	10	0.00457751	0.000799954	0	2.80779e-05	-8.91312e-05	5.9751e-06	33.0991	0.0074693	0.00625724	-0.0040789	-28.0135	5.72583	5.05497	2.68931	0.154188	0.0822563	0.174757	28.079	13087.3	24532	27804.6	-61.921	0.0000000E+000	0.0000000E+000	0.0000000E+000	61.921	0.0000000E+000	0.0000000E+000	0.0000000E+000	-61.921	0.0000000E+000	0.0000000E+000	0.0000000E+000	-28.079	0.0000000E+000	0.0000000E+000	0.0000000E+000	28.079	1.87448	61.921	-1.64958e-06	-3.83258e-06	1.26755e-09	-3.83384e-06	0.269587	18950.5	6.2675	18956.7
681.09	5.53284	3.18012	6.38165	-29.8891	7.23653	0.269494	-0.0161481	73.4805	18.2471	1	10	0.00453714	0.000710967	0	2.58421e-05	-0.000241836	1.55997e-05	20.4906	0.0219416	0.0205533	-0.00768072	-29.7377	6.39566	5.55339	3.17244	0.135857	0.0780868	0.156699	29.8891	18247.1	31746.6	36617	-60.1109	0.0000000E+000	0.0000000E+000	0.0000000E+000	60.1109	0.0000000E+000	0.0000000E+000	0.0000000E+000	-60.1109	0.0000000E+000	0.0000000E+000	0.0000000E+000	-29.8891	0.0000000E+000	0.0000000E+000	0.0000000E+000	29.8891	1.73982	60.1109	-2.23578e-06	-4.35181e-06	3.90519e-09	-4.35572e-06	0.269735	16688.9	14.9761	16703.8
463.961	6.10285	3.90861	7.24721	-32.6378	7.68832	0.269491	-0.0146787	87.7641	25.5282	1	10	0.00452254	0.000624039	0	2.43195e-05	0.000445334	1.37081e-05	-30.3015	0.0219667	0.0189657	0.0110833	-32.6307	7.26915	6.12182	3.91969	0.116196	0.0744185	0.137984	32.6378	25528.2	39859.4	47333.5	-57.3622	0.0000000E+000	0.0000000E+000	0.0000000E+000	57.3622	0.0000000E+000	0.0000000E+000	0.0000000E+000	-57.3622	0.0000000E+000	0.0000000E+000	0.0000000E+000	-32.6378	0.0000000E+000	0.0000000E+000	0.0000000E+000	32.6378	1.56139	57.3622	-1.52257e-06	-3.95578e-06	-6.53694e-09	-3.94925e-06	0.269045	18359.3	30.3388	18328.9
316.316	6.80735	4.87444	8.37259	-35.6048	8.13602	0.269495	-0.0154711	103.222	34.9868	1	10	0.00450732	0.000538343	0	2.23103e-05	-7.00431e-05	7.79262e-06	-84.1699	0.0144752	0.00147039	0.0144003	-35.679	8.38217	6.80882	4.88884	0.0971089	0.0695354	0.119437	35.6048	34986.8	48860.5	60095.2	-54.3952	0.0000000E+000	0.0000000E+000	0.0000000E+000	54.3952	0.0000000E+000	0.0000000E+000	0.0000000E+000	-54.3952	0.0000000E+000	0.0000000E+000	0.0000000E+000	-35.6048	0.0000000E+000	0.0000000E+000	0.0000000E+000	35.6048	1.39654	54.3952	-2.00926e-06	-4.16939e-06	1.08364e-09	-4.17047e-06	0.269565	17419.3	4.52736	17423.8
215.345	7.81877	6.17427	9.96267	-38.2972	8.80055	0.26949	-0.0148685	119.702	45.9749	1	10	0.0048863	0.000490461	0	1.98092e-05	0.00029263	7.97332e-06	45.0127	0.0162568	0.0114927	-0.0114978	-38.2044	9.96458	7.83026	6.16278	0.0787747	0.0622063	0.100375	38.2972	45974.9	58220.1	74184	-51.7028	0.0000000E+000	0.0000000E+000	0.0000000E+000	51.7028	0.0000000E+000	0.0000000E+000	0.0000000E+000	-51.7028	0.0000000E+000	0.0000000E+000	0.0000000E+000	-38.2972	0.0000000E+000	0.0000000E+000	0.0000000E+000	38.2972	1.26635	51.7028	-2.50104e-06	-4.0069e-06	-4.35095e-09	-4.00255e-06	0.269197	18125	19.6813	18105.3
146.737	9.22673	7.7925	12.0771	-40.183	9.24646	0.269489	-0.0166652	139.188	57.9473	1	10	0.00487212	0.000403419	0	1.81927e-05	0.000311718	1.46665e-05	-28.3975	0.0363555	0.0319808	0.0172902	-40.1479	12.1127	9.25871	7.80979	0.0632594	0.0534262	0.0828016	40.183	57947.3	68612.7	89808.6	-49.817	0.0000000E+000	0.0000000E+000	0.0000000E+000	49.817	0.0000000E+000	0.0000000E+000	0.0000000E+000	-49.817	0.0000000E+000	0.0000000E+000	0.0000000E+000	-40.183	0.0000000E+000	0.0000000E+000	0.0000000E+000	40.183	1.18405	49.817	-1.61651e-06	-4.49109e-06	-5.19484e-09	-4.4859e-06	0.269177	16170.8	18.7047	16152.1
100.032	11.3757	9.63642	14.9086	-40.2681	9.69677	0.269494	-0.0150359	165.107	68.9796	1	10	0.00487032	0.000326677	0	1.61235e-05	0.00019719	1.77164e-05	-60.8084	0.0542323	0.0264508	0.0473444	-40.341	14.9594	11.4022	9.68377	0.0511803	0.043355	0.0670752	40.2681	68979.6	81429.9	106719	-49.7319	0.0000000E+000	0.0000000E+000	0.0000000E+000	49.7319	0.0000000E+000	0.0000000E+000	0.0000000E+000	-49.7319	0.0000000E+000	0.0000000E+000	0.0000000E+000	-40.2681	0.0000000E+000	0.0000000E+000	0.0000000E+000	40.2681	1.18049	49.7319	-2.06924e-06	-4.05207e-06	-2.96492e-09	-4.04911e-06	0.269297	17923.4	13.1146	17910.3
68.104	14.3775	11.3532	18.3196	-38.2962	10.1595	0.269502	-0.0116395	205.84	79.0555	1	10	0.00486173	0.000265384	0	1.45022e-05	0.000273542	2.47411e-06	74.2119	0.00932277	0.00253655	-0.00897106	-38.2693	18.316	14.3801	11.3442	0.0428403	0.0338286	0.0545863	38.2962	79055.5	100115	127565	-51.7038	0.0000000E+000	0.0000000E+000	0.0000000E+000	51.7038	0.0000000E+000	0.0000000E+000	0.0000000E+000	-51.7038	0.0000000E+000	0.0000000E+000	0.0000000E+000	-38.2962	0.0000000E+000	0.0000000E+000	0.0000000E+000	38.2962	1.26639	51.7038	-1.62124e-06	-3.13688e-06	-3.1839e-09	-3.1337e-06	0.269229	23154.1	23.5011	23130.6
46.4415	18.0562	12.6735	22.0601	-35.0647	10.8357	0.269535	-0.0073736	270.406	89.2479	1	11	0.00485912	0.000220268	0	1.20241e-05	0.000311718	4.57178e-05	-7.97438	0.207555	0.205548	0.0287942	-34.8213	22.245	18.2618	12.7023	0.0371034	0.0260426	0.0453308	35.0647	89247.9	127153	155348	-54.9353	0.0000000E+000	0.0000000E+000	0.0000000E+000	54.9353	0.0000000E+000	0.0000000E+000	0.0000000E+000	-54.9353	0.0000000E+000	0.0000000E+000	0.0000000E+000	-35.0647	0.0000000E+000	0.0000000E+000	0.0000000E+000	35.0647	1.42472	54.9353	-2.47811e-06	-1.98744e-06	-2.29849e-09	-1.98515e-06	0.269223	36554	42.2749	36511.8
31.6296	22.3458	12.9377	25.8209	-30.0699	11.2656	0.269534	-0.00769149	388.927	97.6432	1	11	0.00487602	0.00018884	0	1.15517e-05	0.000254454	2.66565e-06	-29.2882	0.0141159	0.0123115	0.00690555	-30.0695	25.835	22.3581	12.9446	0.033516	0.0194051	0.0387283	30.0699	97643.2	168647	194875	-59.9301	0.0000000E+000	0.0000000E+000	0.0000000E+000	59.9301	0.0000000E+000	0.0000000E+000	0.0000000E+000	-59.9301	0.0000000E+000	0.0000000E+000	0.0000000E+000	-30.0699	0.0000000E+000	0.0000000E+000	0.0000000E+000	30.0699	1.72718	59.9301	-4.72434e-07	-2.07312e-06	-1.95713e-09	-2.07116e-06	0.269279	35043.1	33.0825	35010
21.5517	26.3151	12.4616	29.1165	-25.34	11.6864	0.269528	-0.0079126	592.606	108.55	1	11	0.00487997	0.000167601	0	1.07534e-05	0.00038807	6.98622e-06	-49.7826	0.0416836	0.0269147	0.0318296	-25.3739	29.1545	26.342	12.4934	0.0310402	0.0146992	0.0343447	25.34	108550	229226	253629	-64.66	0.0000000E+000	0.0000000E+000	0.0000000E+000	64.66	0.0000000E+000	0.0000000E+000	0.0000000E+000	-64.66	0.0000000E+000	0.0000000E+000	0.0000000E+000	-25.34	0.0000000E+000	0.0000000E+000	0.0000000E+000	25.34	2.1117	64.66	-7.98273e-07	-2.13267e-06	-3.07065e-09	-2.1296e-06	0.26914	34063.1	49.0446	34014.1
14.6852	29.6382	11.2587	31.7046	-20.8004	12.1472	0.269537	-0.0070144	962.615	121.391	1	11	0.00486624	0.000153487	0	1.03486e-05	0.000101749	5.61837e-06	-4.4683	0.0366049	0.0364936	0.00285179	-20.7818	31.7398	29.6747	11.2616	0.0294854	0.0112007	0.0315411	20.8004	121391	319557	341837	-69.1996	0.0000000E+000	0.0000000E+000	0.0000000E+000	69.1996	0.0000000E+000	0.0000000E+000	0.0000000E+000	-69.1996	0.0000000E+000	0.0000000E+000	0.0000000E+000	-20.8004	0.0000000E+000	0.0000000E+000	0.0000000E+000	20.8004	2.63247	69.1996	-4.04814e-07	-1.89064e-06	-7.13711e-10	-1.88993e-06	0.269436	38426.3	14.5058	38411.8
10.0032	32.4346	10.0012	33.9416	-17.1371	12.5978	0.269542	-0.00694405	1590.85	138.124	1	11	0.00487116	0.000143516	0	8.31544e-06	0.000311718	6.89326e-06	-89.6134	0.0480313	0.000324052	0.0480302	-17.2144	33.9561	32.435	10.0492	0.0281543	0.00868138	0.0294624	17.1371	138124	447947	468758	-72.8629	0.0000000E+000	0.0000000E+000	0.0000000E+000	72.8629	0.0000000E+000	0.0000000E+000	0.0000000E+000	-72.8629	0.0000000E+000	0.0000000E+000	0.0000000E+000	-17.1371	0.0000000E+000	0.0000000E+000	0.0000000E+000	17.1371	3.24307	72.8629	-2.03315e-06	-1.87171e-06	-2.16458e-09	-1.86955e-06	0.26923	38816.3	44.89	38771.4
6.81719	34.7002	8.80341	35.7995	-14.2356	12.9375	0.269542	-0.0071793	2651.94	160.366	1	11	0.00486987	0.000136032	0	8.81784e-06	0.000254454	1.09321e-05	11.3814	0.0803644	0.078784	-0.0158591	-14.1801	35.872	34.779	8.78755	0.0270756	0.00686906	0.0279334	14.2356	160366	632111	652136	-75.7644	0.0000000E+000	0.0000000E+000	0.0000000E+000	75.7644	0.0000000E+000	0.0000000E+000	0.0000000E+000	-75.7644	0.0000000E+000	0.0000000E+000	0.0000000E+000	-14.2356	0.0000000E+000	0.0000000E+000	0.0000000E+000	14.2356	3.94168	75.7644	5.02395e-07	-1.93512e-06	-1.8268e-09	-1.9333e-06	0.269288	37544.3	35.4427	37508.9
4.63925	36.5639	7.5481	37.3349	-11.6641	13.4214	0.26955	-0.00646498	4545	185.772	1	11	0.00486611	0.000130337	0	8.16499e-06	-5.09551e-05	1.00035e-05	-12.8883	0.0767514	0.0748178	0.0171195	-11.6666	37.4116	36.6387	7.56522	0.0262315	0.00541513	0.0267846	11.6641	185772	899903	918878	-78.3359	0.0000000E+000	0.0000000E+000	0.0000000E+000	78.3359	0.0000000E+000	0.0000000E+000	0.0000000E+000	-78.3359	0.0000000E+000	0.0000000E+000	0.0000000E+000	-11.6641	0.0000000E+000	0.0000000E+000	0.0000000E+000	11.6641	4.84412	78.3359	-6.5285e-07	-1.74263e-06	3.29423e-10	-1.74296e-06	0.269601	41693.8	7.88171	41701.7
3.1604	38.0927	6.69033	38.6758	-9.96142	14.1144	0.269546	-0.00604063	7527.16	225.241	1	11	0.00487298	0.000125996	0	5.31456e-06	4.44852e-05	4.52753e-06	-135.993	0.035934	-0.0258456	0.0249651	-10.0045	38.6547	38.0669	6.7153	0.0254662	0.00447269	0.025856	9.96142	225241	1.28246e+06	1.30208e+06	-80.0386	0.0000000E+000	0.0000000E+000	0.0000000E+000	80.0386	0.0000000E+000	0.0000000E+000	0.0000000E+000	-80.0386	0.0000000E+000	0.0000000E+000	0.0000000E+000	-9.96142	0.0000000E+000	0.0000000E+000	0.0000000E+000	9.96142	5.6937	80.0386	-2.85043e-06	-1.62823e-06	-2.68719e-10	-1.62796e-06	0.269502	44622.2	7.36434	44614.9
2.15577	39.4649	5.84419	39.8953	-8.42347	15.1181	0.269556	-0.00533087	12632.6	271.081	1	11	0.00486912	0.000122047	0	2.41301e-06	-3.1867e-05	5.507e-06	65.4897	0.0451218	0.0187191	-0.0410558	-8.36122	39.9078	39.4837	5.80314	0.0247952	0.00367181	0.0250656	8.42347	271081	1.83057e+06	1.85053e+06	-81.5765	0.0000000E+000	0.0000000E+000	0.0000000E+000	81.5765	0.0000000E+000	0.0000000E+000	0.0000000E+000	-81.5765	0.0000000E+000	0.0000000E+000	0.0000000E+000	-8.42347	0.0000000E+000	0.0000000E+000	0.0000000E+000	8.42347	6.75285	81.5765	-2.90154e-06	-1.43697e-06	1.69879e-10	-1.43714e-06	0.269588	50565.2	5.97783	50571.2
1.46631	40.5987	5.23693	40.9351	-7.35013	17.3056	0.269548	-0.00522209	20726.1	339.218	1	12	0.004869	0.000118944	0	4.5831e-07	-8.91312e-05	3.61572e-06	-40.6452	0.0303984	0.023065	0.0198007	-7.37348	40.9605	40.6218	5.25673	0.0242282	0.00312525	0.0244289	7.35013	339218	2.62975e+06	2.65154e+06	-82.6499	0.0000000E+000	0.0000000E+000	0.0000000E+000	82.6499	0.0000000E+000	0.0000000E+000	0.0000000E+000	-82.6499	0.0000000E+000	0.0000000E+000	0.0000000E+000	-7.35013	0.0000000E+000	0.0000000E+000	0.0000000E+000	7.35013	7.75239	82.6499	-1.9547e-06	-1.40761e-06	4.65451e-10	-1.40807e-06	0.269638	51617	17.0681	51634
1.00006	41.6272	4.68471	41.89	-6.42103	19.4356	0.26955	-0.00505989	33971.1	424.869	1	12	0.00487182	0.0001163	0	1.24367e-06	8.26613e-05	4.74419e-06	30.944	0.0407926	0.0349866	-0.0209755	-6.38719	41.9224	41.6622	4.66373	0.0237223	0.0026697	0.0238721	6.42103	424869	3.77528e+06	3.79911e+06	-83.579	0.0000000E+000	0.0000000E+000	0.0000000E+000	83.579	0.0000000E+000	0.0000000E+000	0.0000000E+000	-83.579	0.0000000E+000	0.0000000E+000	0.0000000E+000	-6.42103	0.0000000E+000	0.0000000E+000	0.0000000E+000	6.42103	8.88576	83.579	7.85361e-07	-1.36389e-06	-4.18257e-10	-1.36348e-06	0.269468	53272	16.3366	53255.6
0.681362	42.532	4.27998	42.7468	-5.7463	22.5461	0.269547	-0.00478263	54575.9	547.111	1	12	0.00486949	0.000113915	0	9.85245e-07	0.000349894	3.85522e-06	-19.2862	0.0338431	0.0319438	0.0111779	-5.75691	42.7797	42.564	4.29115	0.023276	0.00234225	0.0233936	5.7463	547111	5.43689e+06	5.46435e+06	-84.2537	0.0000000E+000	0.0000000E+000	0.0000000E+000	84.2537	0.0000000E+000	0.0000000E+000	0.0000000E+000	-84.2537	0.0000000E+000	0.0000000E+000	0.0000000E+000	-5.7463	0.0000000E+000	0.0000000E+000	0.0000000E+000	5.7463	9.93744	84.2537	-2.58426e-07	-1.28914e-06	-1.67341e-09	-1.28747e-06	0.269197	56359.7	73.1594	56286.5
0.464091	43.3728	4.02777	43.5594	-5.3055	27.1026	0.269551	-0.00403005	85143.8	727.978	1	12	0.00487148	0.000111835	0	-3.58625e-06	0.000254454	2.96955e-06	-15.2312	0.0265529	0.0256202	0.00697582	-5.31151	43.5855	43.3984	4.03474	0.0228588	0.00212276	0.0229572	5.3055	727978	7.83919e+06	7.87292e+06	-84.6945	0.0000000E+000	0.0000000E+000	0.0000000E+000	84.6945	0.0000000E+000	0.0000000E+000	0.0000000E+000	-84.6945	0.0000000E+000	0.0000000E+000	0.0000000E+000	-5.3055	0.0000000E+000	0.0000000E+000	0.0000000E+000	5.3055	10.7684	84.6945	-4.5715e-06	-1.08631e-06	-1.02546e-09	-1.08528e-06	0.269297	66885.3	63.1391	66822.2
0.316193	44.0737	3.97541	44.2527	-5.15407	33.776	0.269563	-0.00315885	126615	1021.81	1	12	0.00487239	0.000110104	0	-1.56264e-05	0.000139925	3.10604e-06	-4.43146	0.0282101	0.0281258	0.0021797	-5.15361	44.2809	44.1019	3.97759	0.0225061	0.00203003	0.0225975	5.15407	1.02181e+06	1.13284e+07	1.13744e+07	-84.8459	0.0000000E+000	0.0000000E+000	0.0000000E+000	84.8459	0.0000000E+000	0.0000000E+000	0.0000000E+000	-84.8459	0.0000000E+000	0.0000000E+000	0.0000000E+000	-5.15407	0.0000000E+000	0.0000000E+000	0.0000000E+000	5.15407	11.0866	84.8459	-1.20401e-05	-8.51509e-07	-4.42004e-10	-8.51067e-07	0.269423	85335.6	44.2963	85291.3
0.215268	44.7241	4.04444	44.9066	-5.16725	43.5695	0.269549	-0.0030399	182803	1482.79	1	12	0.00486971	0.000108441	0	-3.79078e-05	0.000426246	2.7639e-06	-25.2532	0.0254877	0.0230518	0.0108735	-5.17841	44.9305	44.7471	4.05531	0.022178	0.00200557	0.0222685	5.16725	1.48279e+06	1.63969e+07	1.64638e+07	-84.8327	0.0000000E+000	0.0000000E+000	0.0000000E+000	84.8327	0.0000000E+000	0.0000000E+000	0.0000000E+000	-84.8327	0.0000000E+000	0.0000000E+000	0.0000000E+000	-5.16725	0.0000000E+000	0.0000000E+000	0.0000000E+000	5.16725	11.0582	84.8327	-2.22814e-05	-8.19402e-07	-1.29574e-09	-8.18107e-07	0.269123	88670.6	140.217	88530.4
0.146929	45.4543	4.35368	45.6624	-5.47118	57.9079	0.269546	-0.00287434	248803	2261.8	1	12	0.00487105	0.000106675	0	-6.82536e-05	8.26613e-05	1.67664e-06	1.39512	0.0157172	0.0157125	-0.000382667	-5.46883	45.678	45.4701	4.3533	0.0218001	0.00208805	0.0218999	5.47118	2.26179e+06	2.36141e+07	2.37222e+07	-84.5288	0.0000000E+000	0.0000000E+000	0.0000000E+000	84.5288	0.0000000E+000	0.0000000E+000	0.0000000E+000	-84.5288	0.0000000E+000	0.0000000E+000	0.0000000E+000	-5.47118	0.0000000E+000	0.0000000E+000	0.0000000E+000	5.47118	10.4404	84.5288	-3.03458e-05	-7.74767e-07	-2.37597e-10	-7.74529e-07	0.269463	93776.7	28.7584	93748
0.0999041	46.2869	5.04325	46.5608	-6.21822	78.9851	0.269551	-0.00280554	315883	3706.01	1	12	0.00487696	0.000104744	0	-9.81918e-05	0.000216278	3.57335e-06	30.2859	0.0341152	0.0294591	-0.0172048	-6.19326	46.5882	46.3163	5.02605	0.0213509	0.00232632	0.0214773	6.21822	3.70601e+06	3.40137e+07	3.4215e+07	-83.7818	0.0000000E+000	0.0000000E+000	0.0000000E+000	83.7818	0.0000000E+000	0.0000000E+000	0.0000000E+000	-83.7818	0.0000000E+000	0.0000000E+000	0.0000000E+000	-6.21822	0.0000000E+000	0.0000000E+000	0.0000000E+000	6.21822	9.17798	83.7818	-2.99382e-05	-7.56238e-07	-6.06776e-10	-7.55631e-07	0.269335	96078.1	77.0894	96001.1
0.0680626	47.1948	6.15427	47.5944	-7.42953	109.913	0.269552	-0.00275908	379957	6352.97	1	12	0.00487532	0.000102435	0	-0.000117681	-0.000146395	3.36051e-06	-5.16629	0.0328064	0.0326731	0.0029541	-7.42797	47.6272	47.2275	6.15722	0.0208345	0.00271685	0.0210109	7.42953	6.35297e+06	4.87186e+07	4.9131e+07	-82.5705	0.0000000E+000	0.0000000E+000	0.0000000E+000	82.5705	0.0000000E+000	0.0000000E+000	0.0000000E+000	-82.5705	0.0000000E+000	0.0000000E+000	0.0000000E+000	-7.42953	0.0000000E+000	0.0000000E+000	0.0000000E+000	7.42953	7.66863	82.5705	-1.94888e-05	-7.43713e-07	4.03916e-10	-7.44117e-07	0.269698	97696.3	53.0596	97749.4
0.0464052	48.1419	7.54438	48.7294	-8.90646	155.264	0.269546	-0.00231429	454600	10896.7	1	12	0.00487449	0.000100032	0	-0.000103972	0.000426246	1.95862e-06	17.0274	0.01958	0.0187217	-0.00573359	-8.8964	48.7471	48.1606	7.53865	0.020274	0.00317717	0.0205215	8.90646	1.08967e+07	6.95334e+07	7.03821e+07	-81.0935	0.0000000E+000	0.0000000E+000	0.0000000E+000	81.0935	0.0000000E+000	0.0000000E+000	0.0000000E+000	-81.0935	0.0000000E+000	0.0000000E+000	0.0000000E+000	-8.90646	0.0000000E+000	0.0000000E+000	0.0000000E+000	8.90646	6.38116	81.0935	1.37084e-05	-6.23809e-07	-9.86458e-10	-6.22823e-07	0.26912	116470	184.18	116286
0.0315922	49.3464	9.31036	50.217	-10.6846	221.87	0.269544	-0.00150237	541095	18599.6	1	12	0.00487129	9.70046e-05	0	-4.81146e-05	0.000120837	2.11305e-06	-14.1436	0.021783	0.0211227	0.00532273	-10.6861	50.2388	49.3675	9.31568	0.0195683	0.00369202	0.0199136	10.6846	1.85996e+07	9.85811e+07	1.0032e+08	-79.3154	0.0000000E+000	0.0000000E+000	0.0000000E+000	79.3154	0.0000000E+000	0.0000000E+000	0.0000000E+000	-79.3154	0.0000000E+000	0.0000000E+000	0.0000000E+000	-10.6846	0.0000000E+000	0.0000000E+000	0.0000000E+000	10.6846	5.30016	79.3154	5.58575e-05	-4.04956e-07	-1.81543e-10	-4.04774e-07	0.269423	179412	80.431	179332
0.0215268	51.0893	11.6421	52.399	-12.8373	319.608	0.269551	-0.000496073	635050	31349.3	1	12	0.00487432	9.30231e-05	0	3.44661e-05	0.000101749	2.49628e-06	36.6741	0.026835	0.0215229	-0.0160276	-12.8149	52.4164	51.1108	11.6261	0.0186073	0.00424021	0.0190843	12.8373	3.13493e+07	1.3757e+08	1.41097e+08	-77.1628	0.0000000E+000	0.0000000E+000	0.0000000E+000	77.1628	0.0000000E+000	0.0000000E+000	0.0000000E+000	-77.1628	0.0000000E+000	0.0000000E+000	0.0000000E+000	-12.8373	0.0000000E+000	0.0000000E+000	0.0000000E+000	12.8373	4.38831	77.1628	8.25807e-05	-1.33717e-07	-5.04752e-11	-1.33667e-07	0.269449	543369	205.109	543164
0.0146812	53.1454	15.1698	55.2681	-15.9309	462.911	0.269547	0.000133374	714625	53838.4	1	12	0.00487185	8.81494e-05	0	8.12076e-05	0.000159014	1.89998e-06	88.8297	0.0215541	0.000440213	-0.0215496	-15.9093	55.2626	53.1459	15.1483	0.0173987	0.00496629	0.0180936	15.9309	5.38384e+07	1.88615e+08	1.96148e+08	-74.0691	0.0000000E+000	0.0000000E+000	0.0000000E+000	74.0691	0.0000000E+000	0.0000000E+000	0.0000000E+000	-74.0691	0.0000000E+000	0.0000000E+000	0.0000000E+000	-15.9309	0.0000000E+000	0.0000000E+000	0.0000000E+000	15.9309	3.50336	74.0691	4.67415e-05	3.59506e-08	2.12083e-11	3.59294e-08	0.269388	2.02098e+06	1192.24	2.01979e+06
0.0100092	55.3546	19.8699	58.8128	-19.746	673.093	0.269548	0.000371783	800250	91343	1	12	0.00487135	8.28281e-05	0	-2.43403e-06	0.000101749	3.90494e-06	-22.8988	0.0471451	0.0434298	0.0183444	-19.7485	58.8599	55.398	19.8883	0.0160033	0.00574451	0.0170031	19.746	9.1343e+07	2.54467e+08	2.70365e+08	-70.254	0.0000000E+000	0.0000000E+000	0.0000000E+000	70.254	0.0000000E+000	0.0000000E+000	0.0000000E+000	-70.254	0.0000000E+000	0.0000000E+000	0.0000000E+000	-19.746	0.0000000E+000	0.0000000E+000	0.0000000E+000	19.746	2.78584	70.254	-8.36416e-05	1.00213e-07	3.78287e-11	1.00176e-07	0.269447	725016	273.68	724742