File: txt/18481_R301_UA693_SOC00_C04.mpt
EC-Lab ASCII FILE
Nb header lines : 65

Potentio Electrochemical Impedance Spectroscopy

Run on channel : 4 (SN 66756)
User :
CE vs. WE compliance from -10 V to 10 V
Electrode connection : standard
Potential control : Ewe
Ewe ctrl range : min = -10.00 V, max = 10.00 V
Safety Limits :
	Do not start on E overload
Acquisition started on : 10/21/2025 09:26:08.351
Technique started on : 10/21/2025 09:26:10.130
Loaded Setting File :  C:\Users\Celltest\OneDrive - store-dot.com\Documents\EC-Lab\Data\@Biologic Test Protocols\anode half cell EIS SOC00.mps
Saved on :
	File : 18481_R301_UA693_SOC00_C04.mpr
	Directory : C:\Users\Celltest\OneDrive - store-dot.com\Documents\EC-Lab\Data\Gyutae\
	Host : 169.254.61.224
Device : VMP-3e (SN .003165)
Address : USB
EC-LAB for windows v11.62 (software)
Internet server v27.00 (firmware)
Command interpretor v12.03 (firmware)
Electrode material :
Initial state :
Electrolyte :
Comments :
Electrode surface area : 0.001 cm²
Characteristic mass : 0.001 g
Equivalent Weight : 0.000 g/eq.
Density : 0.000 g/cm3
Volume (V) : 0.001 cm³
Record Ece
Cycle Definition : Charge/Discharge alternance
Mode                Single sine
E (V)               0.0000
vs.                 Eoc
tE (h:m:s)          0:00:0.0000
record              0
dI                  0.000
unit dI             mA
dt (s)              0.000
fi                  100.000
unit fi             kHz
ff                  10.000
unit ff             mHz
Nd                  6
Points              per decade
spacing             Logarithmic
Va (mV)             5.0
pw                  0.10
Na                  2
corr                0
E range min (V)     -10.000
E range max (V)     10.000
I Range             Auto
Bandwidth           5
nc cycles           0
goto Ns'            0
nr cycles           0
inc. cycle          0

freq/Hz	Re(Z)/Ohm	-Im(Z)/Ohm	|Z|/Ohm	Phase(Z)/deg	time/s	<Ewe>/V	<I>/mA	Cs/µF	Cp/µF	cycle number	I Range	|Ewe|/V	|I|/A	Ns	(Q-Qo)/mA.h	<Ece>/V	|Ece|/V	Phase(Zce)/deg	|Zce|/Ohm	Re(Zce)/Ohm	-Im(Zce)/Ohm	Phase(Zwe-ce)/deg	|Zwe-ce|/Ohm	Re(Zwe-ce)/Ohm	-Im(Zwe-ce)/Ohm	Re(Y)/Ohm-1	Im(Y)/Ohm-1	|Y|/Ohm-1	Phase(Y)/deg	Re(C)/nF	Im(C)/nF	|C|/nF	Phase(C)/deg	Re(M)	Im(M)	|M|	Phase(M)/deg	Re(Permittivity)	Im(Permittivity)	|Permittivity|	Phase(Permittivity)/deg	Re(Resistivity)/Ohm.cm	Im(Resistivity)/Ohm.cm	|Resistivity|/Ohm.cm	Phase(Resistivity)/deg	Re(Conductivity)/mS/cm	Im(Conductivity)/mS/cm	|Conductivity|/mS/cm	Phase(Conductivity)/deg	Tan(Delta)	Loss Angle(Delta)/deg	dq/mA.h	Pwe/W	Pce/W	Pwe-ce/W	<Ewe-Ece>/V	Rwe/Ohm	Rce/Ohm	Rwe-ce/Ohm		Ewe-Ece/V
100004	1.88761	0.436175	1.93735	-13.0111	1.77852	0.268193	-0.0107269	3.64874	0.184948	1	9	0.003484	0.00179833	0	-3.01331e-06	-0.000225711	3.10958e-05	41.0816	0.0172915	0.0130339	-0.0113628	-12.5991	1.94754	1.90064	0.424813	0.502917	0.116211	0.516169	13.0111	184.948	800.388	821.478	-76.9889	0.0000000E+000	0.0000000E+000	0.0000000E+000	76.9889	0.0000000E+000	0.0000000E+000	0.0000000E+000	-76.9889	0.0000000E+000	0.0000000E+000	0.0000000E+000	-13.0111	0.0000000E+000	0.0000000E+000	0.0000000E+000	13.0111	4.32764	76.9889	-3.01331e-06	-2.87689e-06	2.42119e-09	-2.87931e-06	0.268419	25001.8	21.0415	25022.8
68132	2.07133	0.400644	2.10972	-10.9471	2.16153	0.268188	-0.0149043	5.83056	0.210269	1	9	0.00274899	0.00130301	0	-3.21137e-06	-0.000187491	1.73153e-05	35.4889	0.0132887	0.0108201	-0.0077147	-10.6868	2.1189	2.08215	0.392929	0.46537	0.0900134	0.473996	10.9471	210.269	1087.09	1107.24	-79.0529	0.0000000E+000	0.0000000E+000	0.0000000E+000	79.0529	0.0000000E+000	0.0000000E+000	0.0000000E+000	-79.0529	0.0000000E+000	0.0000000E+000	0.0000000E+000	-10.9471	0.0000000E+000	0.0000000E+000	0.0000000E+000	10.9471	5.17001	79.0529	-1.98063e-07	-3.99714e-06	2.79442e-09	-3.99993e-06	0.268375	17994	12.5797	18006.6
46420.4	0.0733055	-0.37365	0.380773	78.9003	2.3166	0.26822	-0.00535618	-9.17585	-8.83576	1	9	9.45443e-05	0.000248296	0	-3.46246e-06	-3.46116e-05	8.90155e-06	114.465	0.0358506	-0.0148468	-0.0326318	81.8121	0.410466	0.0584587	-0.406282	0.505596	-2.57711	2.62623	-78.9003	-8835.76	1733.46	9004.2	-168.9	0.0000000E+000	0.0000000E+000	0.0000000E+000	168.9	0.0000000E+000	0.0000000E+000	0.0000000E+000	-168.9	0.0000000E+000	0.0000000E+000	0.0000000E+000	78.9003	0.0000000E+000	0.0000000E+000	0.0000000E+000	-78.9003	0.196187	11.0997	-2.51085e-07	-1.43664e-06	1.85386e-10	-1.43682e-06	0.268255	50076.8	6.462	50083.3
31621.1	2.29105	0.954206	2.48182	-22.6113	3.30552	0.268184	-0.0462713	5.27473	0.779729	1	9	0.00507686	0.00204562	0	-0.000115416	6.09381e-05	1.11761e-05	18.0335	0.00546345	0.00519506	-0.00169134	-22.5293	2.48597	2.29625	0.952515	0.371958	0.154918	0.40293	22.6113	779.729	1872.13	2028.02	-67.3887	0.0000000E+000	0.0000000E+000	0.0000000E+000	67.3887	0.0000000E+000	0.0000000E+000	0.0000000E+000	-67.3887	0.0000000E+000	0.0000000E+000	0.0000000E+000	-22.6113	0.0000000E+000	0.0000000E+000	0.0000000E+000	22.6113	2.40101	67.3887	-0.000111953	-1.24092e-05	-2.81968e-09	-1.24064e-05	0.268123	5795.91	1.31698	5794.6
21544.7	2.52944	1.04192	2.73563	-22.3876	3.68855	0.268177	-0.0485464	7.09	1.02849	1	9	0.00518807	0.00189648	0	-0.000118209	6.09381e-05	6.20385e-06	-41.5615	0.00327125	0.00244769	0.00217022	-22.41	2.73872	2.53189	1.04409	0.337995	0.139226	0.365546	22.3876	1028.49	2496.84	2700.37	-67.6124	0.0000000E+000	0.0000000E+000	0.0000000E+000	67.6124	0.0000000E+000	0.0000000E+000	0.0000000E+000	-67.6124	0.0000000E+000	0.0000000E+000	0.0000000E+000	-22.3876	0.0000000E+000	0.0000000E+000	0.0000000E+000	22.3876	2.42768	67.6124	-2.79327e-06	-1.3019e-05	-2.95833e-09	-1.3016e-05	0.268116	5524.13	1.25526	5522.87
14678.6	2.77031	1.16936	3.00699	-22.8848	3.94753	0.268169	-0.0445183	9.27233	1.40223	1	9	0.00486985	0.00161951	0	-0.000122562	-7.28316e-05	1.70334e-05	-96.1535	0.0105176	-0.00112741	0.010457	-23.0765	3.01003	2.76918	1.17981	0.306382	0.129325	0.332558	22.8848	1402.23	3322	3605.82	-67.1152	0.0000000E+000	0.0000000E+000	0.0000000E+000	67.1152	0.0000000E+000	0.0000000E+000	0.0000000E+000	-67.1152	0.0000000E+000	0.0000000E+000	0.0000000E+000	-22.8848	0.0000000E+000	0.0000000E+000	0.0000000E+000	22.8848	2.36909	67.1152	-4.35303e-06	-1.19384e-05	3.24234e-09	-1.19417e-05	0.268242	6023.79	1.63599	6025.42
10002.2	3.05737	1.2866	3.31706	-22.8223	4.20655	0.268175	-0.0445183	12.3674	1.86064	1	9	0.00462392	0.00139398	0	-0.000125225	-0.000302151	4.13759e-06	10.4055	0.00296818	0.00291936	-0.000536093	-22.7942	3.31954	3.06029	1.28607	0.277871	0.116933	0.301472	22.8223	1860.64	4421.46	4797.01	-67.1777	0.0000000E+000	0.0000000E+000	0.0000000E+000	67.1777	0.0000000E+000	0.0000000E+000	0.0000000E+000	-67.1777	0.0000000E+000	0.0000000E+000	0.0000000E+000	-22.8223	0.0000000E+000	0.0000000E+000	0.0000000E+000	22.8223	2.37632	67.1777	-2.66318e-06	-1.19387e-05	1.34513e-08	-1.19522e-05	0.268477	6023.93	6.78712	6030.72
6810.42	3.34685	1.44603	3.64588	-23.3671	4.46553	0.268181	-0.0488075	16.161	2.54226	1	9	0.00448685	0.00123066	0	-0.000127788	-0.000283041	1.93897e-05	139.786	0.0157555	-0.0120314	-0.0101725	-23.295	3.6308	3.33482	1.43586	0.251786	0.108786	0.274282	23.3671	2542.26	5884.08	6409.79	-66.6329	0.0000000E+000	0.0000000E+000	0.0000000E+000	66.6329	0.0000000E+000	0.0000000E+000	0.0000000E+000	-66.6329	0.0000000E+000	0.0000000E+000	0.0000000E+000	-23.3671	0.0000000E+000	0.0000000E+000	0.0000000E+000	23.3671	2.31451	66.6329	-2.5629e-06	-1.30892e-05	1.38145e-08	-1.31031e-05	0.268464	5494.67	5.79913	5500.47
4646	3.65963	1.6382	4.00957	-24.1152	5.01564	0.268171	-0.0205443	20.9109	3.49071	1	10	0.00507369	0.0012654	0	-0.000131282	-0.000321261	1.17514e-05	-122.238	0.00928672	-0.00495383	0.00785511	-24.2467	4.00826	3.65468	1.64606	0.227637	0.1019	0.249404	24.1152	3490.71	7798	8543.65	-65.8848	0.0000000E+000	0.0000000E+000	0.0000000E+000	65.8848	0.0000000E+000	0.0000000E+000	0.0000000E+000	-65.8848	0.0000000E+000	0.0000000E+000	0.0000000E+000	-24.1152	0.0000000E+000	0.0000000E+000	0.0000000E+000	24.1152	2.23393	65.8848	-3.49358e-06	-5.50938e-06	6.60009e-09	-5.51598e-06	0.268492	13053.3	15.6375	13068.9
3163.08	3.99322	1.8627	4.4063	-25.0074	5.38869	0.268113	-0.0236702	27.0127	4.8273	1	10	0.00501189	0.00113744	0	-0.000133079	3.60827e-06	1.04705e-05	-38.8037	0.00920537	0.00717372	0.00576858	-25.0359	4.41524	4.0004	1.86847	0.205672	0.0959389	0.226948	25.0074	4827.3	10348.7	11419.2	-64.9926	0.0000000E+000	0.0000000E+000	0.0000000E+000	64.9926	0.0000000E+000	0.0000000E+000	0.0000000E+000	-64.9926	0.0000000E+000	0.0000000E+000	0.0000000E+000	-25.0074	0.0000000E+000	0.0000000E+000	0.0000000E+000	25.0074	2.14378	64.9926	-1.79711e-06	-6.34629e-06	-8.54085e-11	-6.3462e-06	0.26811	11327	0.152439	11326.9
2155.69	4.35514	2.16204	4.86227	-26.4014	5.83984	0.268116	-0.0163516	34.1483	6.75181	1	10	0.00494584	0.00101719	0	-0.000134478	-0.000321261	9.97882e-06	82.1933	0.00981022	0.00133253	-0.0097193	-26.2918	4.85915	4.35647	2.15232	0.184215	0.0914505	0.205665	26.4014	6751.81	13600.6	15184.3	-63.5986	0.0000000E+000	0.0000000E+000	0.0000000E+000	63.5986	0.0000000E+000	0.0000000E+000	0.0000000E+000	-63.5986	0.0000000E+000	0.0000000E+000	0.0000000E+000	-26.4014	0.0000000E+000	0.0000000E+000	0.0000000E+000	26.4014	2.01436	63.5986	-1.39891e-06	-4.38413e-06	5.25313e-09	-4.38938e-06	0.268438	16396.9	19.6471	16416.6
1468.59	4.72729	2.5717	5.38153	-28.5467	6.29108	0.268126	-0.0159823	42.1405	9.62339	1	10	0.00488376	0.000907504	0	-0.000136735	-0.000130161	6.06216e-06	14.8161	0.00668004	0.00645793	-0.0017082	-28.4979	5.38639	4.73374	2.56999	0.16323	0.0887991	0.185821	28.5467	9623.39	17689.7	20137.9	-61.4533	0.0000000E+000	0.0000000E+000	0.0000000E+000	61.4533	0.0000000E+000	0.0000000E+000	0.0000000E+000	-61.4533	0.0000000E+000	0.0000000E+000	0.0000000E+000	-28.5467	0.0000000E+000	0.0000000E+000	0.0000000E+000	28.5467	1.8382	61.4533	-2.25763e-06	-4.28527e-06	2.08028e-09	-4.28735e-06	0.268256	16776.4	8.14409	16784.5
1000.32	5.15314	3.12711	6.02775	-31.2509	6.74178	0.268132	-0.0154153	50.8789	13.6935	1	10	0.00484267	0.000803397	0	-0.000139277	-0.000244821	6.32395e-06	-8.21472	0.00787152	0.00779076	0.00112471	-31.2216	6.03499	5.16093	3.12824	0.141828	0.0860664	0.1659	31.2509	13693.5	22565.4	26395.3	-58.7491	0.0000000E+000	0.0000000E+000	0.0000000E+000	58.7491	0.0000000E+000	0.0000000E+000	0.0000000E+000	-58.7491	0.0000000E+000	0.0000000E+000	0.0000000E+000	-31.2509	0.0000000E+000	0.0000000E+000	0.0000000E+000	31.2509	1.64789	58.7491	-2.54144e-06	-4.13334e-06	3.774e-09	-4.13711e-06	0.268377	17393.8	15.8817	17409.7
681.09	5.6415	3.9208	6.87016	-34.799	7.19258	0.26813	-0.0150796	59.5993	19.4114	1	10	0.00480383	0.000699231	0	-0.000140908	9.9158e-05	9.73736e-06	46.5171	0.0139258	0.00958288	-0.0101043	-34.6842	6.87228	5.65108	3.9107	0.119525	0.0830693	0.145557	34.799	19411.4	27930.3	34013.3	-55.201	0.0000000E+000	0.0000000E+000	0.0000000E+000	55.201	0.0000000E+000	0.0000000E+000	0.0000000E+000	-55.201	0.0000000E+000	0.0000000E+000	0.0000000E+000	-34.799	0.0000000E+000	0.0000000E+000	0.0000000E+000	34.799	1.43886	55.201	-1.63124e-06	-4.0433e-06	-1.49527e-09	-4.0418e-06	0.268031	17780.9	6.57563	17774.4
463.961	6.26788	5.02399	8.03286	-38.7138	7.64431	0.268135	-0.015766	68.2794	26.7084	1	10	0.00477931	0.00059497	0	-0.000142836	-1.55017e-05	1.14831e-05	-106.541	0.0193003	-0.00549491	0.0185016	-38.8411	8.04017	6.26239	5.0425	0.097136	0.0778589	0.124489	38.7138	26708.4	33321.1	42704	-51.2862	0.0000000E+000	0.0000000E+000	0.0000000E+000	51.2862	0.0000000E+000	0.0000000E+000	0.0000000E+000	-51.2862	0.0000000E+000	0.0000000E+000	0.0000000E+000	-38.7138	0.0000000E+000	0.0000000E+000	0.0000000E+000	38.7138	1.24759	51.2862	-1.92854e-06	-4.22741e-06	2.44399e-10	-4.22765e-06	0.26815	17007.2	0.983237	17008.2
316.316	7.12954	6.52855	9.66707	-42.4805	8.092	0.268126	-0.0163628	77.0695	35.15	1	10	0.00476644	0.000493059	0	-0.00014478	-5.37216e-05	9.65781e-06	-50.47	0.0195875	0.0124671	0.0151077	-42.4966	9.68647	7.14201	6.54366	0.0762907	0.0698597	0.103444	42.4805	35150	38385.8	52048	-47.5195	0.0000000E+000	0.0000000E+000	0.0000000E+000	47.5195	0.0000000E+000	0.0000000E+000	0.0000000E+000	-47.5195	0.0000000E+000	0.0000000E+000	0.0000000E+000	-42.4805	0.0000000E+000	0.0000000E+000	0.0000000E+000	42.4805	1.09206	47.5195	-1.94365e-06	-4.38729e-06	8.79036e-10	-4.38817e-06	0.26818	16386.3	3.28315	16389.6
215.345	8.36146	8.52336	11.9399	-45.5494	8.54258	0.268142	-0.0159115	86.7112	44.187	1	10	0.00475892	0.000398572	0	-0.000147129	4.18282e-05	6.9543e-06	-1.65701	0.017448	0.0174407	0.000504533	-45.4914	11.9525	8.3789	8.52387	0.0586515	0.0597872	0.0837526	45.5494	44187	43347.6	61899.1	-44.4506	0.0000000E+000	0.0000000E+000	0.0000000E+000	44.4506	0.0000000E+000	0.0000000E+000	0.0000000E+000	-44.4506	0.0000000E+000	0.0000000E+000	0.0000000E+000	-45.5494	0.0000000E+000	0.0000000E+000	0.0000000E+000	45.5494	0.981005	44.4506	-2.349e-06	-4.26653e-06	-6.65547e-10	-4.26586e-06	0.2681	16852.1	2.62881	16849.5
146.737	10.3158	10.9939	15.0758	-46.8225	8.98854	0.268133	-0.0175117	98.6572	52.4647	1	10	0.00474341	0.000314637	0	-0.000149479	3.60827e-06	1.24826e-05	-5.71041	0.0396729	0.0394761	0.00394748	-46.7236	15.1057	10.3553	10.9978	0.0453879	0.0483713	0.0663313	46.8225	52464.7	49228.8	71944.6	-43.1775	0.0000000E+000	0.0000000E+000	0.0000000E+000	43.1775	0.0000000E+000	0.0000000E+000	0.0000000E+000	-43.1775	0.0000000E+000	0.0000000E+000	0.0000000E+000	-46.8225	0.0000000E+000	0.0000000E+000	0.0000000E+000	46.8225	0.938323	43.1775	-2.35e-06	-4.69546e-06	-6.3187e-11	-4.6954e-06	0.268129	15311.6	0.206049	15311.4
100.032	13.2722	13.8498	19.1825	-46.2201	9.43981	0.268138	-0.015669	114.878	59.8847	1	10	0.0047495	0.000247596	0	-0.000151094	-0.000130161	7.37043e-06	33.7493	0.029768	0.0247514	-0.0165379	-46.1326	19.1877	13.2969	13.8333	0.0360688	0.0376387	0.0521309	46.2201	59884.7	57387	82942.4	-43.7799	0.0000000E+000	0.0000000E+000	0.0000000E+000	43.7799	0.0000000E+000	0.0000000E+000	0.0000000E+000	-43.7799	0.0000000E+000	0.0000000E+000	0.0000000E+000	-46.2201	0.0000000E+000	0.0000000E+000	0.0000000E+000	46.2201	0.958292	43.7799	-1.61512e-06	-4.20146e-06	2.0395e-09	-4.2035e-06	0.268268	17112.7	8.30694	17121
68.104	17.5665	16.8003	24.3071	-43.7228	10.1535	0.268181	-0.00442567	139.101	66.4507	1	11	0.00475431	0.000195594	0	-0.00015227	-0.000130161	4.17799e-06	-95.8736	0.0213605	-0.00218593	0.0212484	-43.7625	24.3202	17.5644	16.8216	0.0297318	0.0284349	0.0411403	43.7228	66450.7	69481.4	96142.4	-46.2772	0.0000000E+000	0.0000000E+000	0.0000000E+000	46.2772	0.0000000E+000	0.0000000E+000	0.0000000E+000	-46.2772	0.0000000E+000	0.0000000E+000	0.0000000E+000	-43.7228	0.0000000E+000	0.0000000E+000	0.0000000E+000	43.7228	1.04561	46.2772	-1.17556e-06	-1.18688e-06	5.76052e-10	-1.18746e-06	0.268311	60596.7	29.4105	60626.1
46.4415	23.0969	18.7198	29.7304	-39.0245	10.5907	0.268163	-0.00510841	183.067	72.5794	1	11	0.00472482	0.000158922	0	-0.000152775	-0.000168381	4.56661e-05	108.819	0.287349	-0.0926926	-0.271988	-38.7273	29.4876	23.0042	18.4479	0.0261307	0.0211787	0.0336356	39.0245	72579.4	89549.7	115269	-50.9755	0.0000000E+000	0.0000000E+000	0.0000000E+000	50.9755	0.0000000E+000	0.0000000E+000	0.0000000E+000	-50.9755	0.0000000E+000	0.0000000E+000	0.0000000E+000	-39.0245	0.0000000E+000	0.0000000E+000	0.0000000E+000	39.0245	1.23382	50.9755	-5.05425e-07	-1.36989e-06	8.60161e-10	-1.37075e-06	0.268331	52494.4	32.9616	52527.4
31.6296	29.4245	19.9005	35.5223	-34.0714	11.0206	0.268168	-0.00516139	252.85	79.3578	1	11	0.00474888	0.000133687	0	-0.000153658	-0.000130161	4.85445e-06	16.3595	0.036312	0.0348418	-0.0102278	-34.0263	35.5454	29.4594	19.8903	0.0233189	0.0157711	0.0281514	34.0714	79357.8	117337	141653	-55.9286	0.0000000E+000	0.0000000E+000	0.0000000E+000	55.9286	0.0000000E+000	0.0000000E+000	0.0000000E+000	-55.9286	0.0000000E+000	0.0000000E+000	0.0000000E+000	-34.0714	0.0000000E+000	0.0000000E+000	0.0000000E+000	34.0714	1.47858	55.9286	-8.82676e-07	-1.38412e-06	6.71814e-10	-1.38479e-06	0.268298	51956.5	25.2183	51981.8
21.5517	35.6163	19.4968	40.6035	-28.6968	11.4414	0.268169	-0.00525839	378.769	87.3321	1	11	0.00474032	0.000116746	0	-0.000154294	6.09381e-05	1.30977e-05	25.5376	0.112189	0.101229	-0.0483651	-28.5686	40.6692	35.7175	19.4484	0.0216034	0.0118259	0.0246284	28.6968	87332.1	159536	181876	-61.3032	0.0000000E+000	0.0000000E+000	0.0000000E+000	61.3032	0.0000000E+000	0.0000000E+000	0.0000000E+000	-61.3032	0.0000000E+000	0.0000000E+000	0.0000000E+000	-28.6968	0.0000000E+000	0.0000000E+000	0.0000000E+000	28.6968	1.82678	61.3032	-6.36594e-07	-1.41014e-06	-3.20436e-10	-1.40982e-06	0.268108	50998.4	11.5888	50986.8
14.6852	41.0837	17.9928	44.8509	-23.6512	11.9022	0.268177	-0.00445552	602.343	96.9385	1	11	0.00473804	0.00010564	0	-0.000155058	-0.000378591	7.45028e-06	6.07129	0.0705254	0.0701299	-0.00745918	-23.6066	44.9122	41.1538	17.9853	0.0204233	0.00894448	0.0222961	23.6512	96938.5	221344	241641	-66.3488	0.0000000E+000	0.0000000E+000	0.0000000E+000	66.3488	0.0000000E+000	0.0000000E+000	0.0000000E+000	-66.3488	0.0000000E+000	0.0000000E+000	0.0000000E+000	-23.6512	0.0000000E+000	0.0000000E+000	0.0000000E+000	23.6512	2.28334	66.3488	-7.63802e-07	-1.19487e-06	1.68682e-09	-1.19656e-06	0.268556	60189.9	84.9711	60274.9
10.0032	45.643	16.0194	48.3726	-19.3396	12.3528	0.268182	-0.00463908	993.198	108.925	1	11	0.00473962	9.79816e-05	0	-0.000154831	-0.000321261	6.60053e-06	145.763	0.067365	-0.0556918	-0.0379008	-19.319	48.3075	45.5873	15.9815	0.0195064	0.00684616	0.0206729	19.3396	108925	310354	328914	-70.6604	0.0000000E+000	0.0000000E+000	0.0000000E+000	70.6604	0.0000000E+000	0.0000000E+000	0.0000000E+000	-70.6604	0.0000000E+000	0.0000000E+000	0.0000000E+000	-19.3396	0.0000000E+000	0.0000000E+000	0.0000000E+000	19.3396	2.84924	70.6604	2.27674e-07	-1.24412e-06	1.49035e-09	-1.24561e-06	0.268504	57809.4	69.2511	57878.7
6.81719	49.4379	14.1893	51.4339	-16.0142	12.6925	0.268187	-0.00371944	1645.33	125.221	1	11	0.00474532	9.22605e-05	0	-0.000155815	0.000118268	6.298e-06	-101.562	0.0682633	-0.0136819	0.0668781	-16.09	51.4392	49.4242	14.2562	0.0186879	0.00536368	0.0194424	16.0142	125221	436291	453905	-73.9858	0.0000000E+000	0.0000000E+000	0.0000000E+000	73.9858	0.0000000E+000	0.0000000E+000	0.0000000E+000	-73.9858	0.0000000E+000	0.0000000E+000	0.0000000E+000	-16.0142	0.0000000E+000	0.0000000E+000	0.0000000E+000	16.0142	3.48416	73.9858	-9.84108e-07	-9.97505e-07	-4.39891e-10	-9.97065e-07	0.268069	72104.1	31.7973	72072.3
4.63925	52.4018	12.4541	53.8614	-13.3692	13.1764	0.268175	-0.00424548	2754.62	147.275	1	11	0.00474547	8.81053e-05	0	-0.000156785	-0.000244821	8.80524e-06	39.3243	0.0999399	0.0773107	-0.0633328	-13.2847	53.922	52.4791	12.3907	0.018063	0.00429295	0.0185662	13.3692	147275	619674	636935	-76.6308	0.0000000E+000	0.0000000E+000	0.0000000E+000	76.6308	0.0000000E+000	0.0000000E+000	0.0000000E+000	-76.6308	0.0000000E+000	0.0000000E+000	0.0000000E+000	-13.3692	0.0000000E+000	0.0000000E+000	0.0000000E+000	13.3692	4.20761	76.6308	-9.70754e-07	-1.13853e-06	1.03938e-09	-1.13957e-06	0.26842	63167.2	57.6663	63224.8
3.1604	54.8281	11.0616	55.9328	-11.4063	13.8694	0.268194	-0.00344112	4552.62	178.059	1	11	0.00473882	8.47235e-05	0	-0.000156452	-0.000225711	3.82984e-06	-54.1778	0.045204	0.0264566	0.0366531	-11.4378	55.966	54.8545	11.0982	0.0175255	0.00353577	0.0178786	11.4063	178059	882569	900352	-78.5937	0.0000000E+000	0.0000000E+000	0.0000000E+000	78.5937	0.0000000E+000	0.0000000E+000	0.0000000E+000	-78.5937	0.0000000E+000	0.0000000E+000	0.0000000E+000	-11.4063	0.0000000E+000	0.0000000E+000	0.0000000E+000	11.4063	4.95662	78.5937	3.33329e-07	-9.22888e-07	7.767e-10	-9.23665e-07	0.268419	77937.8	65.5923	78003.4
2.15577	57.1429	9.77847	57.9735	-9.71057	15.383	0.268185	-0.00258453	7550.01	214.798	1	12	0.00474443	8.18378e-05	0	-0.000156383	-3.46116e-05	1.91135e-06	22.1727	0.0233553	0.0216282	-0.00881429	-9.69838	57.9934	57.1645	9.76965	0.0170021	0.00290945	0.0172492	9.71057	214798	1.25522e+06	1.27347e+06	-80.2894	0.0000000E+000	0.0000000E+000	0.0000000E+000	80.2894	0.0000000E+000	0.0000000E+000	0.0000000E+000	-80.2894	0.0000000E+000	0.0000000E+000	0.0000000E+000	-9.71057	0.0000000E+000	0.0000000E+000	0.0000000E+000	9.71057	5.84375	80.2894	6.91664e-08	-6.93133e-07	8.94549e-11	-6.93222e-07	0.26822	103765	13.3918	103779
1.46631	59.1857	8.9105	59.8527	-8.56168	16.8444	0.268192	-0.00233547	12181.3	269.979	1	12	0.0047456	7.92881e-05	0	-0.000158412	-0.000263931	3.99864e-06	-55.6509	0.0504317	0.0284553	0.0416372	-8.59702	59.887	59.2141	8.95214	0.0165215	0.00248734	0.0167077	8.56168	269979	1.79326e+06	1.81347e+06	-81.4383	0.0000000E+000	0.0000000E+000	0.0000000E+000	81.4383	0.0000000E+000	0.0000000E+000	0.0000000E+000	-81.4383	0.0000000E+000	0.0000000E+000	0.0000000E+000	-8.56168	0.0000000E+000	0.0000000E+000	0.0000000E+000	8.56168	6.64224	81.4383	-2.02868e-06	-6.26354e-07	6.16403e-10	-6.26971e-07	0.268456	114834	113.01	114947
1.00006	60.9717	8.08338	61.5052	-7.55201	18.9729	0.268195	-0.00219624	19687.9	340.065	1	12	0.00473788	7.70322e-05	0	-0.000162257	8.00481e-05	4.31379e-06	-7.31316	0.0559998	0.0555443	0.00712835	-7.55179	61.5612	61.0272	8.09051	0.0161178	0.00213683	0.0162588	7.55201	340065	2.56506e+06	2.5875e+06	-82.448	0.0000000E+000	0.0000000E+000	0.0000000E+000	82.448	0.0000000E+000	0.0000000E+000	0.0000000E+000	-82.448	0.0000000E+000	0.0000000E+000	0.0000000E+000	-7.55201	0.0000000E+000	0.0000000E+000	0.0000000E+000	7.55201	7.54284	82.448	-3.84584e-06	-5.89021e-07	-1.75805e-10	-5.88846e-07	0.268115	122115	36.4477	122079
0.681362	62.7093	7.4587	63.1513	-6.78295	22.0851	0.268192	-0.00220978	31316.9	436.858	1	12	0.00474444	7.51281e-05	0	-0.000166956	3.60827e-06	4.43563e-06	-5.97456	0.0590409	0.0587202	0.00614537	-6.78219	63.2103	62.768	7.46485	0.0157242	0.00187025	0.015835	6.78295	436858	3.6729e+06	3.69879e+06	-83.2171	0.0000000E+000	0.0000000E+000	0.0000000E+000	83.2171	0.0000000E+000	0.0000000E+000	0.0000000E+000	-83.2171	0.0000000E+000	0.0000000E+000	0.0000000E+000	-6.78295	0.0000000E+000	0.0000000E+000	0.0000000E+000	6.78295	8.40754	83.2171	-4.69891e-06	-5.92645e-07	-7.9735e-12	-5.92637e-07	0.268188	121366	1.63286	121364
0.464091	64.3172	7.06151	64.7037	-6.26552	26.6418	0.268185	-0.00241567	48564.6	578.438	1	12	0.00474453	7.33271e-05	0	-0.000170778	-1.55017e-05	3.60903e-06	-4.43084	0.0492182	0.0490711	0.00380238	-6.26413	64.7529	64.3662	7.06531	0.0153628	0.00168671	0.0154551	6.26552	578438	5.2685e+06	5.30015e+06	-83.7345	0.0000000E+000	0.0000000E+000	0.0000000E+000	83.7345	0.0000000E+000	0.0000000E+000	0.0000000E+000	-83.7345	0.0000000E+000	0.0000000E+000	0.0000000E+000	-6.26552	0.0000000E+000	0.0000000E+000	0.0000000E+000	6.26552	9.10814	83.7345	-3.82136e-06	-6.47845e-07	3.74469e-11	-6.47882e-07	0.2682	111019	6.41715	111025
0.316193	65.6704	6.87478	66.0293	-5.97631	33.3167	0.268189	-0.0023649	73216.5	793.695	1	12	0.00474399	7.18468e-05	0	-0.000171684	-3.46116e-05	6.17715e-07	12.7604	0.00859767	0.00838533	-0.001899	-5.97391	66.0374	65.6788	6.87289	0.0150625	0.00157683	0.0151448	5.97631	793694	7.58166e+06	7.62309e+06	-84.0237	0.0000000E+000	0.0000000E+000	0.0000000E+000	84.0237	0.0000000E+000	0.0000000E+000	0.0000000E+000	-84.0237	0.0000000E+000	0.0000000E+000	0.0000000E+000	-5.97631	0.0000000E+000	0.0000000E+000	0.0000000E+000	5.97631	9.55236	84.0237	-9.05837e-07	-6.3424e-07	8.1853e-11	-6.34322e-07	0.268224	113404	14.6356	113419
0.215268	66.8477	6.87038	67.1998	-5.86806	43.1091	0.268186	-0.00216284	107612	1124.83	1	12	0.00474171	7.05613e-05	0	-0.000168761	-9.19415e-05	3.2172e-06	-4.77441	0.0455943	0.0454361	0.00379494	-5.86732	67.2454	66.8932	6.87417	0.014803	0.0015214	0.014881	5.86806	1.12482e+06	1.09444e+07	1.1002e+07	-84.1319	0.0000000E+000	0.0000000E+000	0.0000000E+000	84.1319	0.0000000E+000	0.0000000E+000	0.0000000E+000	-84.1319	0.0000000E+000	0.0000000E+000	0.0000000E+000	-5.86806	0.0000000E+000	0.0000000E+000	0.0000000E+000	5.86806	9.72984	84.1319	2.923e-06	-5.80045e-07	1.98855e-10	-5.80243e-07	0.268278	123997	42.5096	124040
0.146929	68.0582	7.14607	68.4324	-5.99406	57.4473	0.268188	-0.00170191	151581	1652.94	1	12	0.00474308	6.93105e-05	0	-0.000163339	8.00481e-05	2.04621e-06	-11.058	0.0295223	0.0289742	0.00566246	-5.99624	68.4618	68.0872	7.15174	0.0145331	0.00152596	0.014613	5.99406	1.65294e+06	1.57424e+07	1.58289e+07	-84.0059	0.0000000E+000	0.0000000E+000	0.0000000E+000	84.0059	0.0000000E+000	0.0000000E+000	0.0000000E+000	-84.0059	0.0000000E+000	0.0000000E+000	0.0000000E+000	-5.99406	0.0000000E+000	0.0000000E+000	0.0000000E+000	5.99406	9.52386	84.0059	5.42127e-06	-4.56431e-07	-1.36234e-10	-4.56294e-07	0.268108	157581	47.0344	157534
0.0999041	69.3856	7.92007	69.8361	-6.51189	78.5244	0.268183	-0.001191	201144	2587.05	1	12	0.00474311	6.79177e-05	0	-0.000160922	-0.000244821	2.88143e-06	12.2627	0.0424254	0.0414574	-0.00901094	-6.50069	69.8763	69.427	7.91106	0.0142269	0.00162393	0.0143192	6.51189	2.58705e+06	2.26645e+07	2.28117e+07	-83.4881	0.0000000E+000	0.0000000E+000	0.0000000E+000	83.4881	0.0000000E+000	0.0000000E+000	0.0000000E+000	-83.4881	0.0000000E+000	0.0000000E+000	0.0000000E+000	-6.51189	0.0000000E+000	0.0000000E+000	0.0000000E+000	6.51189	8.76073	83.4881	2.41715e-06	-3.19406e-07	2.91583e-10	-3.19698e-07	0.268427	225174	205.559	225379
0.0680626	70.8751	9.35342	71.4896	-7.51791	109.452	0.268181	-0.000692027	250001	4279.54	1	12	0.00474189	6.63298e-05	0	-0.000168593	4.18282e-05	2.03116e-06	-0.603452	0.0306222	0.0306205	0.000322514	-7.51496	71.52	70.9057	9.35375	0.0138678	0.00183014	0.0139881	7.51791	4.27953e+06	3.24279e+07	3.27091e+07	-82.4821	0.0000000E+000	0.0000000E+000	0.0000000E+000	82.4821	0.0000000E+000	0.0000000E+000	0.0000000E+000	-82.4821	0.0000000E+000	0.0000000E+000	0.0000000E+000	-7.51791	0.0000000E+000	0.0000000E+000	0.0000000E+000	7.51791	7.57745	82.4821	-7.67062e-06	-1.85588e-07	-2.89462e-11	-1.85559e-07	0.268139	387529	60.443	387469
0.0464052	72.3915	11.3989	73.2834	-8.94842	154.802	0.268187	-0.00030148	300878	7279.55	1	12	0.00474221	6.47105e-05	0	-0.000199666	-9.19415e-05	2.34203e-06	-1.27811	0.0361924	0.0361834	0.000807287	-8.94465	73.3193	72.4277	11.3997	0.0134796	0.00212252	0.0136456	8.94842	7.27955e+06	4.62306e+07	4.68002e+07	-81.0516	0.0000000E+000	0.0000000E+000	0.0000000E+000	81.0516	0.0000000E+000	0.0000000E+000	0.0000000E+000	-81.0516	0.0000000E+000	0.0000000E+000	0.0000000E+000	-8.94842	0.0000000E+000	0.0000000E+000	0.0000000E+000	8.94842	6.35075	81.0516	-3.10733e-05	-8.08531e-08	2.77185e-11	-8.08808e-08	0.268279	889569	304.967	889874
0.0315922	74.4821	13.9023	75.7684	-10.5728	221.408	0.268185	-0.000312658	362372	12199.7	1	12	0.00474505	6.26257e-05	0	-0.000261571	3.60827e-06	4.11892e-06	-0.29189	0.0657704	0.0657696	0.000335062	-10.5639	75.8331	74.5478	13.9026	0.012974	0.00242164	0.0131981	10.5728	1.21997e+07	6.53605e+07	6.64894e+07	-79.4272	0.0000000E+000	0.0000000E+000	0.0000000E+000	79.4272	0.0000000E+000	0.0000000E+000	0.0000000E+000	-79.4272	0.0000000E+000	0.0000000E+000	0.0000000E+000	-10.5728	0.0000000E+000	0.0000000E+000	0.0000000E+000	10.5728	5.35754	79.4272	-6.19045e-05	-8.38502e-08	-1.12816e-12	-8.38491e-08	0.268181	857757	11.5406	857746
0.0215268	77.3504	17.2982	79.2611	-12.6059	319.146	0.268186	-0.000463782	427405	20357.4	1	12	0.00474308	5.98413e-05	0	-0.000342496	-0.000474141	4.00332e-06	7.76313	0.066899	0.0662858	-0.00903658	-12.5891	79.3238	77.4167	17.2892	0.0123124	0.00275348	0.0126165	12.6059	2.03574e+07	9.10298e+07	9.32784e+07	-77.3941	0.0000000E+000	0.0000000E+000	0.0000000E+000	77.3941	0.0000000E+000	0.0000000E+000	0.0000000E+000	-77.3941	0.0000000E+000	0.0000000E+000	0.0000000E+000	-12.6059	0.0000000E+000	0.0000000E+000	0.0000000E+000	12.6059	4.47158	77.3941	-8.09258e-05	-1.2438e-07	2.19898e-10	-1.246e-07	0.26866	578260	1022.34	579282
0.0146812	80.7336	22.1012	83.7041	-15.3099	462.449	0.268186	-0.000667023	490505	34196.5	1	12	0.00474322	5.66664e-05	0	-0.000405966	-0.000225711	2.82619e-06	15.5149	0.0498742	0.0480568	-0.0133408	-15.2924	83.747	80.7817	22.0879	0.0115229	0.00315444	0.0119468	15.3099	3.41965e+07	1.24917e+08	1.29513e+08	-74.6901	0.0000000E+000	0.0000000E+000	0.0000000E+000	74.6901	0.0000000E+000	0.0000000E+000	0.0000000E+000	-74.6901	0.0000000E+000	0.0000000E+000	0.0000000E+000	-15.3099	0.0000000E+000	0.0000000E+000	0.0000000E+000	15.3099	3.65291	74.6901	-6.34692e-05	-1.78886e-07	1.50555e-10	-1.79037e-07	0.268412	402064	338.386	402403
0.0100092	84.3031	28.3054	88.9281	-18.5599	672.631	0.268185	-0.000686482	561763	56913.2	1	12	0.00474225	5.33268e-05	0	-0.00039308	8.00481e-05	1.96408e-06	2.0133	0.036831	0.0368083	-0.00129393	-18.5515	88.9626	84.3399	28.3041	0.0106602	0.00357924	0.011245	18.5599	5.69132e+07	1.69507e+08	1.78806e+08	-71.4401	0.0000000E+000	0.0000000E+000	0.0000000E+000	71.4401	0.0000000E+000	0.0000000E+000	0.0000000E+000	-71.4401	0.0000000E+000	0.0000000E+000	0.0000000E+000	-18.5599	0.0000000E+000	0.0000000E+000	0.0000000E+000	18.5599	2.97834	71.4401	1.28852e-05	-1.84104e-07	-5.49516e-11	-1.84049e-07	0.268105	390666	116.606	390549