File: txt/18502_R303_UC88_11mm_SOC50_C01.mpt
EC-Lab ASCII FILE
Nb header lines : 65

Potentio Electrochemical Impedance Spectroscopy

Run on channel : 1 (SN 66354)
User :
CE vs. WE compliance from -10 V to 10 V
Electrode connection : standard
Potential control : Ewe
Ewe ctrl range : min = -10.00 V, max = 10.00 V
Safety Limits :
	Do not start on E overload
Acquisition started on : 10/20/2025 14:14:33.280
Technique started on : 10/20/2025 14:14:35.975
Loaded Setting File :  C:\Users\Celltest\OneDrive - store-dot.com\Documents\EC-Lab\Data\txt_done\18445_R297_UC61_11mm_SOC50.mps
Saved on :
	File : 18502_R303_UC88_11mm_SOC50_C01.mpr
	Directory : C:\Users\Celltest\OneDrive - store-dot.com\Documents\EC-Lab\Data\Michael\
	Host : 169.254.61.224
Device : VMP-3e (SN .003165)
Address : USB
EC-LAB for windows v11.62 (software)
Internet server v27.00 (firmware)
Command interpretor v12.03 (firmware)
Electrode material :
Initial state :
Electrolyte :
Comments :
Electrode surface area : 0.001 cm²
Characteristic mass : 0.001 g
Equivalent Weight : 0.000 g/eq.
Density : 0.000 g/cm3
Volume (V) : 0.001 cm³
Record Ece
Cycle Definition : Charge/Discharge alternance
Mode                Multi sine
E (V)               0.0000
vs.                 Eoc
tE (h:m:s)          0:00:0.0000
record              0
dI                  0.000
unit dI             mA
dt (s)              0.000
fi                  1.000
unit fi             MHz
ff                  0.100
unit ff             mHz
Nd                  10
Points              per decade
spacing             Logarithmic
Va (mV)             5.0
pw                  0.10
Na                  2
corr                0
E range min (V)     -10.000
E range max (V)     10.000
I Range             Auto
Bandwidth           5
nc cycles           0
goto Ns'            0
nr cycles           0
inc. cycle          0

freq/Hz	Re(Z)/Ohm	-Im(Z)/Ohm	|Z|/Ohm	Phase(Z)/deg	time/s	<Ewe>/V	<I>/mA	Cs/µF	Cp/µF	cycle number	I Range	|Ewe|/V	|I|/A	Ns	(Q-Qo)/mA.h	<Ece>/V	|Ece|/V	Phase(Zce)/deg	|Zce|/Ohm	Re(Zce)/Ohm	-Im(Zce)/Ohm	Phase(Zwe-ce)/deg	|Zwe-ce|/Ohm	Re(Zwe-ce)/Ohm	-Im(Zwe-ce)/Ohm	Re(Y)/Ohm-1	Im(Y)/Ohm-1	|Y|/Ohm-1	Phase(Y)/deg	Re(C)/nF	Im(C)/nF	|C|/nF	Phase(C)/deg	Re(M)	Im(M)	|M|	Phase(M)/deg	Re(Permittivity)	Im(Permittivity)	|Permittivity|	Phase(Permittivity)/deg	Re(Resistivity)/Ohm.cm	Im(Resistivity)/Ohm.cm	|Resistivity|/Ohm.cm	Phase(Resistivity)/deg	Re(Conductivity)/mS/cm	Im(Conductivity)/mS/cm	|Conductivity|/mS/cm	Phase(Conductivity)/deg	Tan(Delta)	Loss Angle(Delta)/deg	dq/mA.h	Pwe/W	Pce/W	Pwe-ce/W	<Ewe-Ece>/V	Rwe/Ohm	Rce/Ohm	Rwe-ce/Ohm		Ewe-Ece/V
1.00002e+06	1.08158	-0.00534886	1.08159	0.283349	2.69457	3.8259	0.0540887	-29.7544	-0.000727687	1	9	0.00020976	0.000193936	0	9.47418e-06	0.000193113	0.000203854	-5.7916	1.05114	1.04578	0.106071	-2.71072	2.12974	2.12736	0.100722	0.92455	-0.00457228	0.924562	-0.283349	-0.727686	147.144	147.146	-90.2833	0.0000000E+000	0.0000000E+000	0.0000000E+000	90.2833	0.0000000E+000	0.0000000E+000	0.0000000E+000	-90.2833	0.0000000E+000	0.0000000E+000	0.0000000E+000	0.283349	0.0000000E+000	0.0000000E+000	0.0000000E+000	-0.283349	202.208	89.7167	9.47418e-06	0.000206938	1.04452e-08	0.000206928	3.82571	70733.9	3.5703	70730.4
630957	0.350565	0.30418	0.464135	-40.9477	3.46455	3.82561	0.0365791	0.829258	0.356175	1	9	0.000159667	0.00034401	0	1.85104e-05	0.00021219	0.000118374	-113.576	0.344099	-0.137629	0.315377	-71.0327	0.655128	0.212936	0.619557	1.62735	1.41203	2.15455	40.9477	356.175	410.488	543.471	-49.0523	0.0000000E+000	0.0000000E+000	0.0000000E+000	49.0523	0.0000000E+000	0.0000000E+000	0.0000000E+000	-49.0523	0.0000000E+000	0.0000000E+000	0.0000000E+000	-40.9477	0.0000000E+000	0.0000000E+000	0.0000000E+000	40.9477	1.15249	49.0523	4.49379e-06	0.000139938	7.76173e-09	0.00013993	3.8254	104585	5.80085	104579
398103	0.530856	0.20762	0.570012	-21.3607	4.23054	3.82567	0.0482397	1.92555	0.255462	1	9	0.000547834	0.000961092	0	2.97829e-05	-0.000150279	5.99744e-05	162.877	0.0624023	-0.0596364	-0.0183725	-21.881	0.507802	0.471219	0.189248	1.63383	0.639001	1.75435	21.3607	255.462	653.179	701.358	-68.6393	0.0000000E+000	0.0000000E+000	0.0000000E+000	68.6393	0.0000000E+000	0.0000000E+000	0.0000000E+000	-68.6393	0.0000000E+000	0.0000000E+000	0.0000000E+000	-21.3607	0.0000000E+000	0.0000000E+000	0.0000000E+000	21.3607	2.55686	68.6393	6.10564e-06	0.000184549	-7.24941e-09	0.000184557	3.82582	79305.3	3.11525	79308.5
251206	0.652214	0.380267	0.754974	-30.2439	4.99654	3.82561	0.0406772	1.6661	0.422683	1	9	0.00194957	0.00258229	0	3.9155e-05	0.000174035	6.42482e-05	117.472	0.0248803	-0.0114776	-0.0220747	-29.2066	0.73406	0.640736	0.358192	1.14426	0.667152	1.32455	30.2439	422.683	724.963	839.185	-59.7561	0.0000000E+000	0.0000000E+000	0.0000000E+000	59.7561	0.0000000E+000	0.0000000E+000	0.0000000E+000	-59.7561	0.0000000E+000	0.0000000E+000	0.0000000E+000	-30.2439	0.0000000E+000	0.0000000E+000	0.0000000E+000	30.2439	1.71515	59.7561	3.64701e-06	0.000155615	7.07927e-09	0.000155608	3.82543	94048	4.27845	94043.7
158486	0.766117	0.561218	0.949685	-36.2246	5.76252	3.82556	0.0455576	1.78936	0.624887	1	9	0.00509781	0.0053679	0	5.93975e-05	4.04943e-05	6.02748e-05	101.637	0.0112288	-0.00226496	-0.0109979	-35.7661	0.941389	0.763852	0.55022	0.849447	0.622261	1.05298	36.2246	624.887	853.032	1057.42	-53.7754	0.0000000E+000	0.0000000E+000	0.0000000E+000	53.7754	0.0000000E+000	0.0000000E+000	0.0000000E+000	-53.7754	0.0000000E+000	0.0000000E+000	0.0000000E+000	-36.2246	0.0000000E+000	0.0000000E+000	0.0000000E+000	36.2246	1.3651	53.7754	1.83547e-05	0.000174283	1.84482e-09	0.000174281	3.82552	83972.1	0.888859	83971.2
100004	0.926525	0.784642	1.21413	-40.2601	6.52853	3.82554	0.0541633	2.0283	0.847121	1	9	0.005377	0.00442869	0	8.51681e-05	7.86489e-05	4.38092e-05	98.091	0.00989213	-0.00139228	-0.00979366	-39.948	1.20676	0.925132	0.774849	0.628531	0.532281	0.823635	40.2601	847.121	1000.3	1310.81	-49.7399	0.0000000E+000	0.0000000E+000	0.0000000E+000	49.7399	0.0000000E+000	0.0000000E+000	0.0000000E+000	-49.7399	0.0000000E+000	0.0000000E+000	0.0000000E+000	-40.2601	0.0000000E+000	0.0000000E+000	0.0000000E+000	40.2601	1.18082	49.7399	1.86378e-05	0.000207204	4.25988e-09	0.0002072	3.82546	70629.8	1.45207	70628.4
63093.8	1.16902	1.03566	1.56179	-41.5385	7.29655	3.82553	0.0634768	2.43565	1.07104	1	9	0.00543218	0.00347817	0	0.000101304	2.33964e-06	2.88521e-05	87.111	0.00829521	0.00041809	-0.00828466	-41.3	1.55663	1.16944	1.02738	0.479263	0.424591	0.64029	41.5385	1071.04	1208.95	1615.14	-48.4615	0.0000000E+000	0.0000000E+000	0.0000000E+000	48.4615	0.0000000E+000	0.0000000E+000	0.0000000E+000	-48.4615	0.0000000E+000	0.0000000E+000	0.0000000E+000	-41.5385	0.0000000E+000	0.0000000E+000	0.0000000E+000	41.5385	1.12877	48.4615	-4.93905e-06	0.000242832	1.48513e-10	0.000242832	3.82553	60266.6	0.0368582	60266.5
39814.1	1.51912	1.27356	1.98234	-39.975	8.31056	3.82553	0.062769	3.13881	1.29553	1	9	0.00506611	0.00255562	0	0.000111587	-9.30469e-05	1.48478e-05	52.4575	0.00580987	0.00354025	-0.00460665	-39.8072	1.9821	1.52266	1.26895	0.386576	0.324088	0.504455	39.975	1295.53	1545.32	2016.54	-50.025	0.0000000E+000	0.0000000E+000	0.0000000E+000	50.025	0.0000000E+000	0.0000000E+000	0.0000000E+000	-50.025	0.0000000E+000	0.0000000E+000	0.0000000E+000	-39.975	0.0000000E+000	0.0000000E+000	0.0000000E+000	39.975	1.19281	50.025	-5.78047e-07	0.000240125	-5.84046e-09	0.000240131	3.82562	60946.2	1.48237	60947.7
25116.9	1.92025	1.54479	2.4645	-38.8157	9.20053	3.82553	0.0568455	4.10189	1.61163	1	9	0.00489931	0.00198795	0	0.000132588	0.000116803	1.18965e-05	60.3184	0.00598429	0.00296329	-0.00519909	-38.6783	2.46356	1.92322	1.53959	0.316156	0.254339	0.405762	38.8157	1611.63	2003.34	2571.14	-51.1843	0.0000000E+000	0.0000000E+000	0.0000000E+000	51.1843	0.0000000E+000	0.0000000E+000	0.0000000E+000	-51.1843	0.0000000E+000	0.0000000E+000	0.0000000E+000	-38.8157	0.0000000E+000	0.0000000E+000	0.0000000E+000	38.8157	1.24305	51.1843	5.62159e-06	0.000217464	6.63976e-09	0.000217457	3.82541	67296.9	2.05475	67294.8
15847.7	2.39955	1.77018	2.98185	-36.4167	9.96754	3.82553	0.0574043	5.6733	1.99941	1	9	0.00498075	0.00167036	0	0.000146459	0.000116803	1.19414e-05	-83.0411	0.00714899	0.00086615	0.00709632	-36.5164	2.98676	2.40042	1.77728	0.269873	0.199089	0.335363	36.4167	1999.41	2710.28	3367.98	-53.5833	0.0000000E+000	0.0000000E+000	0.0000000E+000	53.5833	0.0000000E+000	0.0000000E+000	0.0000000E+000	-53.5833	0.0000000E+000	0.0000000E+000	0.0000000E+000	-36.4167	0.0000000E+000	0.0000000E+000	0.0000000E+000	36.4167	1.35554	53.5833	5.86048e-06	0.000219602	6.70503e-09	0.000219596	3.82542	66641.9	2.03475	66639.9
10002.2	2.91437	1.99789	3.53343	-34.4318	10.6095	3.82553	0.0566965	7.96438	2.54626	1	9	0.00486943	0.0013781	0	0.000157173	0.000193113	1.0709e-05	1.02503	0.0077708	0.00776956	-0.000139014	-34.3588	3.53976	2.92214	1.99775	0.233428	0.160022	0.283011	34.4318	2546.26	3714.29	4503.26	-55.5682	0.0000000E+000	0.0000000E+000	0.0000000E+000	55.5682	0.0000000E+000	0.0000000E+000	0.0000000E+000	-55.5682	0.0000000E+000	0.0000000E+000	0.0000000E+000	-34.4318	0.0000000E+000	0.0000000E+000	0.0000000E+000	34.4318	1.45873	55.5682	7.35254e-06	0.000216894	1.09488e-08	0.000216883	3.82534	67473.8	3.40608	67470.4
6309.38	3.468	2.35122	4.1899	-34.1363	11.2835	3.82549	-0.00910162	10.7285	3.37847	1	10	0.00505633	0.00120679	0	0.000161962	4.04943e-05	6.39159e-06	-124.957	0.00529635	-0.00303459	0.0043408	-34.2087	4.18982	3.46496	2.35556	0.197548	0.133933	0.238669	34.1363	3378.47	4983.17	6020.47	-55.8637	0.0000000E+000	0.0000000E+000	0.0000000E+000	55.8637	0.0000000E+000	0.0000000E+000	0.0000000E+000	-55.8637	0.0000000E+000	0.0000000E+000	0.0000000E+000	-34.1363	0.0000000E+000	0.0000000E+000	0.0000000E+000	34.1363	1.47498	55.8637	1.6359e-06	-3.48181e-05	-3.68563e-10	-3.48177e-05	3.82544	420308	4.44913	420304
3983.6	4.14714	2.74322	4.97232	-33.4836	11.8461	3.82542	-0.0329391	14.5641	4.43288	1	10	0.00481297	0.000967953	0	0.000158208	-5.48923e-05	9.34267e-06	-39.6991	0.00965199	0.00742633	0.00616527	-33.4956	4.98192	4.15456	2.74939	0.167737	0.110954	0.201113	33.4836	4432.88	6701.53	8034.98	-56.5164	0.0000000E+000	0.0000000E+000	0.0000000E+000	56.5164	0.0000000E+000	0.0000000E+000	0.0000000E+000	-56.5164	0.0000000E+000	0.0000000E+000	0.0000000E+000	-33.4836	0.0000000E+000	0.0000000E+000	0.0000000E+000	33.4836	1.51178	56.5164	-2.35103e-06	-0.000126006	1.8081e-09	-0.000126008	3.82547	116136	1.66648	116138
2510.8	4.96048	3.20048	5.90334	-32.8299	12.6708	3.82536	-0.0136783	19.8058	5.82139	1	10	0.00464007	0.000786008	0	0.00015326	4.04943e-05	1.33082e-05	10.4163	0.0169314	0.0166523	-0.00306118	-32.7176	5.91568	4.97713	3.19742	0.14234	0.0918374	0.169396	32.8299	5821.4	9022.68	10737.7	-57.1701	0.0000000E+000	0.0000000E+000	0.0000000E+000	57.1701	0.0000000E+000	0.0000000E+000	0.0000000E+000	-57.1701	0.0000000E+000	0.0000000E+000	0.0000000E+000	-32.8299	0.0000000E+000	0.0000000E+000	0.0000000E+000	32.8299	1.54992	57.1701	-1.88448e-06	-5.23245e-05	-5.53893e-10	-5.23239e-05	3.82532	279666	2.96047	279663
1585.51	5.96276	3.7198	7.02791	-31.9575	13.5728	3.82536	-0.0136485	26.9856	7.55996	1	10	0.00455363	0.000647936	0	0.000150083	0.000174035	3.90223e-06	94.8445	0.00602255	-0.000508611	-0.00600104	-31.9182	7.0243	5.96225	3.7138	0.120725	0.0753127	0.14229	31.9575	7559.96	12118.5	14283.2	-58.0425	0.0000000E+000	0.0000000E+000	0.0000000E+000	58.0425	0.0000000E+000	0.0000000E+000	0.0000000E+000	-58.0425	0.0000000E+000	0.0000000E+000	0.0000000E+000	-31.9575	0.0000000E+000	0.0000000E+000	0.0000000E+000	31.9575	1.60298	58.0425	-1.17101e-06	-5.22104e-05	-2.37532e-09	-5.2208e-05	3.82518	280277	12.7512	280264
1000.32	7.17921	4.25525	8.34555	-30.656	14.4748	3.82536	-0.0137864	37.3901	9.72066	1	10	0.00450825	0.000540198	0	0.000147284	0.000135881	6.11467e-06	64.6494	0.0113193	0.00484643	-0.0102293	-30.5786	8.34451	7.18406	4.24502	0.103078	0.0610963	0.119824	30.656	9720.66	16400.2	19064.5	-59.344	0.0000000E+000	0.0000000E+000	0.0000000E+000	59.344	0.0000000E+000	0.0000000E+000	0.0000000E+000	-59.344	0.0000000E+000	0.0000000E+000	0.0000000E+000	-30.656	0.0000000E+000	0.0000000E+000	0.0000000E+000	30.656	1.68714	59.344	-1.51035e-06	-5.2738e-05	-1.87331e-09	-5.27361e-05	3.82523	277474	9.85615	277464
631.01	8.61402	4.69821	9.81196	-28.6087	15.5895	3.82536	-0.0138833	53.6848	12.3085	1	10	0.00496109	0.000505617	0	0.000142589	4.04943e-05	8.47872e-06	33.1433	0.0167691	0.0140408	-0.00916825	-28.5225	9.81991	8.62806	4.68904	0.0894735	0.0488001	0.101916	28.6087	12308.5	22567.2	25705.6	-61.3913	0.0000000E+000	0.0000000E+000	0.0000000E+000	61.3913	0.0000000E+000	0.0000000E+000	0.0000000E+000	-61.3913	0.0000000E+000	0.0000000E+000	0.0000000E+000	-28.6087	0.0000000E+000	0.0000000E+000	0.0000000E+000	28.6087	1.83347	61.3913	-1.83216e-06	-5.31086e-05	-5.62194e-10	-5.3108e-05	3.82532	275537	2.91676	275534
398.089	10.3107	4.94742	11.4362	-25.6332	16.4908	3.82535	-0.0140547	80.8092	15.1235	1	10	0.00492967	0.000431057	0	0.000139416	-3.5815e-05	2.51451e-05	109.773	0.0583336	-0.0197342	-0.0548942	-25.4273	11.3948	10.291	4.89253	0.0788354	0.0378279	0.0874413	25.6332	15123.5	31518.2	34958.8	-64.3668	0.0000000E+000	0.0000000E+000	0.0000000E+000	64.3668	0.0000000E+000	0.0000000E+000	0.0000000E+000	-64.3668	0.0000000E+000	0.0000000E+000	0.0000000E+000	-25.6332	0.0000000E+000	0.0000000E+000	0.0000000E+000	25.6332	2.08406	64.3668	-1.39373e-06	-5.37643e-05	5.0337e-10	-5.37648e-05	3.82538	272175	2.54825	272178
251.044	12.1678	4.89657	13.1161	-21.9208	17.3881	3.82536	-0.0143454	129.473	18.0448	1	10	0.00494858	0.00037729	0	0.000135611	-5.48923e-05	1.2073e-05	-47.0852	0.0319991	0.0217885	0.0234351	-21.9801	13.1451	12.1896	4.92	0.0707299	0.028463	0.0762421	21.9208	18044.8	44840.7	48335.3	-68.0792	0.0000000E+000	0.0000000E+000	0.0000000E+000	68.0792	0.0000000E+000	0.0000000E+000	0.0000000E+000	-68.0792	0.0000000E+000	0.0000000E+000	0.0000000E+000	-21.9208	0.0000000E+000	0.0000000E+000	0.0000000E+000	21.9208	2.48497	68.0792	-1.82421e-06	-5.48764e-05	7.87454e-10	-5.48772e-05	3.82541	266660	3.82646	266664
158.428	13.8759	4.33926	14.5385	-17.3655	18.2928	3.82535	-0.0109949	231.511	20.6235	1	10	0.00493464	0.000339418	0	0.000132021	2.33964e-06	8.49207e-06	2.25376	0.0250195	0.0250002	-0.000983903	-17.3325	14.5621	13.9009	4.33828	0.0656476	0.0205293	0.0687827	17.3655	20623.5	65948.7	69098.2	-72.6345	0.0000000E+000	0.0000000E+000	0.0000000E+000	72.6345	0.0000000E+000	0.0000000E+000	0.0000000E+000	-72.6345	0.0000000E+000	0.0000000E+000	0.0000000E+000	-17.3655	0.0000000E+000	0.0000000E+000	0.0000000E+000	17.3655	3.19775	72.6345	-1.53999e-06	-4.20595e-05	-2.57242e-11	-4.20595e-05	3.82535	347920	0.212793	347920
100.032	15.1643	3.58542	15.5824	-13.3026	19.1928	3.82535	-0.0137491	443.753	23.4936	1	10	0.00493739	0.000316856	0	0.000128834	0.000174035	9.49842e-06	40.8917	0.0299771	0.0226611	-0.0196239	-13.2133	15.6	15.187	3.56579	0.0624529	0.0147662	0.0641748	13.3026	23493.6	99365	102105	-76.6974	0.0000000E+000	0.0000000E+000	0.0000000E+000	76.6974	0.0000000E+000	0.0000000E+000	0.0000000E+000	-76.6974	0.0000000E+000	0.0000000E+000	0.0000000E+000	-13.3026	0.0000000E+000	0.0000000E+000	0.0000000E+000	13.3026	4.22945	76.6974	-1.82751e-06	-5.25953e-05	-2.39284e-09	-5.25929e-05	3.82518	278225	12.6579	278212
63.0823	16.0651	2.77465	16.3029	-9.79904	20.109	3.82537	-0.00878858	909.295	26.3383	1	10	0.00493986	0.000303004	0	0.000126218	7.86489e-05	2.66766e-06	27.7275	0.00880404	0.00779308	-0.00409622	-9.7802	16.3099	16.0729	2.77055	0.0604437	0.0104394	0.0613386	9.79904	26338.3	152498	154756	-80.201	0.0000000E+000	0.0000000E+000	0.0000000E+000	80.201	0.0000000E+000	0.0000000E+000	0.0000000E+000	-80.201	0.0000000E+000	0.0000000E+000	0.0000000E+000	-9.79904	0.0000000E+000	0.0000000E+000	0.0000000E+000	9.79904	5.78996	80.201	-9.57767e-07	-3.36196e-05	-6.91212e-10	-3.36189e-05	3.82529	435266	8.94898	435257
39.8089	16.6838	2.05153	16.8095	-7.01021	21.0099	3.82535	-0.0122919	1948.77	29.0275	1	10	0.00493564	0.000293623	0	0.000123695	0.000193113	1.15962e-05	11.0892	0.0394935	0.0387561	-0.00759608	-6.96849	16.847	16.7226	2.04394	0.0590455	0.00726056	0.0594903	7.01021	29027.6	236062	237840	-82.9898	0.0000000E+000	0.0000000E+000	0.0000000E+000	82.9898	0.0000000E+000	0.0000000E+000	0.0000000E+000	-82.9898	0.0000000E+000	0.0000000E+000	0.0000000E+000	-7.01021	0.0000000E+000	0.0000000E+000	0.0000000E+000	7.01021	8.13236	82.9898	-1.26565e-06	-4.70209e-05	-2.37372e-09	-4.70185e-05	3.82516	311209	15.7106	311194
25.1044	17.168	1.55027	17.2378	-5.15981	22.124	3.82542	-0.00946883	4089.44	33.0759	1	11	0.00493332	0.000286191	0	0.000120322	2.33964e-06	7.21657e-06	10.3152	0.0252159	0.0248083	-0.00451526	-5.13748	17.2621	17.1928	1.54575	0.0577769	0.00521725	0.058012	5.15981	33075.9	366289	367780	-84.8402	0.0000000E+000	0.0000000E+000	0.0000000E+000	84.8402	0.0000000E+000	0.0000000E+000	0.0000000E+000	-84.8402	0.0000000E+000	0.0000000E+000	0.0000000E+000	-5.15981	0.0000000E+000	0.0000000E+000	0.0000000E+000	5.15981	11.0742	84.8402	-1.3604e-06	-3.62222e-05	-2.21537e-11	-3.62222e-05	3.82541	404001	0.247089	404001
15.8576	17.4321	1.19317	17.4729	-3.91561	23.002	3.82543	-0.00937648	8411.62	39.2246	1	11	0.00494167	0.00028282	0	0.000118229	0.000269422	1.81337e-05	131.607	0.0641174	-0.0425753	-0.0479414	-3.76792	17.4272	17.3895	1.14523	0.057098	0.00390818	0.0572316	3.91561	39224.5	573065	574406	-86.0844	0.0000000E+000	0.0000000E+000	0.0000000E+000	86.0844	0.0000000E+000	0.0000000E+000	0.0000000E+000	-86.0844	0.0000000E+000	0.0000000E+000	0.0000000E+000	-3.91561	0.0000000E+000	0.0000000E+000	0.0000000E+000	3.91561	14.6099	86.0844	-8.41718e-07	-3.5869e-05	-2.52623e-09	-3.58665e-05	3.82516	407981	28.7338	407952
10.0032	17.5971	0.936242	17.622	-3.04552	23.9838	3.82543	-0.00905287	16993.9	47.969	1	11	0.00493727	0.000280177	0	0.000115886	4.04943e-05	3.72904e-06	11.4815	0.0133096	0.0130432	-0.00264929	-3.03467	17.6349	17.6101	0.933593	0.0566672	0.00301494	0.0567473	3.04552	47969	901598	902873	-86.9545	0.0000000E+000	0.0000000E+000	0.0000000E+000	86.9545	0.0000000E+000	0.0000000E+000	0.0000000E+000	-86.9545	0.0000000E+000	0.0000000E+000	0.0000000E+000	-3.04552	0.0000000E+000	0.0000000E+000	0.0000000E+000	3.04552	18.7954	86.9545	-3.0564e-06	-3.46311e-05	-3.66589e-10	-3.46308e-05	3.82539	422565	4.47308	422561
6.31058	17.7525	0.794609	17.7703	-2.56287	24.9073	3.82542	-0.00888046	31739.3	63.4625	1	11	0.0049381	0.000277886	0	0.000113597	-1.67377e-05	9.67747e-06	10.9766	0.0348254	0.0341883	-0.00663101	-2.53664	17.8041	17.7867	0.787978	0.0562175	0.00251632	0.0562738	2.56287	63462.5	1.41782e+06	1.41924e+06	-87.4371	0.0000000E+000	0.0000000E+000	0.0000000E+000	87.4371	0.0000000E+000	0.0000000E+000	0.0000000E+000	-87.4371	0.0000000E+000	0.0000000E+000	0.0000000E+000	-2.56287	0.0000000E+000	0.0000000E+000	0.0000000E+000	2.56287	22.3411	87.4371	-3.54685e-06	-3.39715e-05	1.48638e-10	-3.39716e-05	3.82544	430769	1.88478	430771
3.97785	17.865	0.729489	17.8799	-2.33829	25.9144	3.82543	-0.00779065	54847	91.2981	1	11	0.00493425	0.000275967	0	0.000114741	0.000116803	7.68204e-06	-57.2551	0.0278368	0.0150569	0.0234132	-2.41122	17.8959	17.88	0.752902	0.0558823	0.00228187	0.0559288	2.33829	91298.2	2.23587e+06	2.23773e+06	-87.6617	0.0000000E+000	0.0000000E+000	0.0000000E+000	87.6617	0.0000000E+000	0.0000000E+000	0.0000000E+000	-87.6617	0.0000000E+000	0.0000000E+000	0.0000000E+000	-2.33829	0.0000000E+000	0.0000000E+000	0.0000000E+000	2.33829	24.4897	87.6617	2.15139e-06	-2.98026e-05	-9.09975e-10	-2.98017e-05	3.82531	491028	14.9928	491013
2.51367	18.0105	0.731388	18.0254	-2.32544	27.474	3.82543	-0.00654431	86569.2	142.525	1	11	0.00493656	0.000273868	0	0.000108527	0.000231267	5.40629e-06	-22.776	0.0197405	0.0182013	0.00764212	-2.34735	18.0439	18.0287	0.73903	0.0554317	0.00225102	0.0554774	2.32544	142525	3.5097e+06	3.51259e+06	-87.6746	0.0000000E+000	0.0000000E+000	0.0000000E+000	87.6746	0.0000000E+000	0.0000000E+000	0.0000000E+000	-87.6746	0.0000000E+000	0.0000000E+000	0.0000000E+000	-2.32544	0.0000000E+000	0.0000000E+000	0.0000000E+000	2.32544	24.6251	87.6746	-5.39834e-06	-2.50348e-05	-1.51349e-09	-2.50333e-05	3.8252	584543	35.3387	584508
1.58469	18.1659	0.788948	18.1831	-2.4868	29.9094	3.82544	-0.00684831	127300	239.658	1	11	0.00493181	0.000271231	0	9.94448e-05	2.1417e-05	5.73239e-06	-46.8399	0.0211347	0.014457	0.0154166	-2.53331	18.1982	18.1804	0.804364	0.0549445	0.00238624	0.0549963	2.4868	239657	5.51824e+06	5.52345e+06	-87.5132	0.0000000E+000	0.0000000E+000	0.0000000E+000	87.5132	0.0000000E+000	0.0000000E+000	0.0000000E+000	-87.5132	0.0000000E+000	0.0000000E+000	0.0000000E+000	-2.4868	0.0000000E+000	0.0000000E+000	0.0000000E+000	2.4868	23.0255	87.5132	-2.78224e-06	-2.61978e-05	-1.4667e-10	-2.61977e-05	3.82542	558597	3.12733	558594
1.00469	18.3764	0.88061	18.3975	-2.74356	240.726	3.82541	-0.00149151	179888	412.148	1	11	0.00500668	0.00027214	0	-0.00108102	0.000154958	4.34438e-07	-14.9008	0.00159638	0.0015427	0.000410504	-2.7446	18.399	18.3779	0.881021	0.054293	0.00260176	0.0543553	2.74356	412149	8.60062e+06	8.6105e+06	-87.2564	0.0000000E+000	0.0000000E+000	0.0000000E+000	87.2564	0.0000000E+000	0.0000000E+000	0.0000000E+000	-87.2564	0.0000000E+000	0.0000000E+000	0.0000000E+000	-2.74356	0.0000000E+000	0.0000000E+000	0.0000000E+000	2.74356	20.8678	87.2564	-0.00118298	-5.70565e-06	-2.31122e-10	-5.70542e-06	3.82526	2.56479e+06	103.893	2.56468e+06
0.632957	18.6042	1.05315	18.634	-3.23996	240.728	3.82541	-0.00149151	238757	762.651	1	11	0.00501904	0.000269349	0	-0.00108102	0.000154958	3.78948e-07	6.0562	0.0014069	0.00139905	-0.000148433	-3.23926	18.6353	18.6056	1.053	0.0535797	0.00303305	0.0536655	3.23996	762652	1.34724e+07	1.3494e+07	-86.76	0.0000000E+000	0.0000000E+000	0.0000000E+000	86.76	0.0000000E+000	0.0000000E+000	0.0000000E+000	-86.76	0.0000000E+000	0.0000000E+000	0.0000000E+000	-3.23996	0.0000000E+000	0.0000000E+000	0.0000000E+000	3.23996	17.6653	86.76	0.000000000000000E+000	-5.70565e-06	-2.31122e-10	-5.70542e-06	3.82526	2.56479e+06	103.893	2.56468e+06
0.401878	18.8211	1.30062	18.866	-3.9531	240.73	3.82541	-0.00149151	304493	1447.16	1	11	0.00503281	0.000266766	0	-0.00108102	0.000154958	3.36091e-07	-26.7755	0.00125987	0.00112479	0.000567568	-3.95458	18.8671	18.8222	1.30119	0.0528794	0.00365419	0.0530055	3.9531	1.44716e+06	2.09417e+07	2.09917e+07	-86.0469	0.0000000E+000	0.0000000E+000	0.0000000E+000	86.0469	0.0000000E+000	0.0000000E+000	0.0000000E+000	-86.0469	0.0000000E+000	0.0000000E+000	0.0000000E+000	-3.9531	0.0000000E+000	0.0000000E+000	0.0000000E+000	3.9531	14.4709	86.0469	0.000000000000000E+000	-5.70565e-06	-2.31122e-10	-5.70542e-06	3.82526	2.56479e+06	103.893	2.56468e+06
0.251173	19.2532	1.62148	19.3214	-4.81402	240.732	3.82541	-0.00149151	390781	2752.21	1	11	0.00503397	0.000260539	0	-0.00108102	0.000154958	6.90576e-07	-20.0074	0.00265057	0.00249061	0.000906873	-4.81608	19.324	19.2557	1.62239	0.0515735	0.00434345	0.0517561	4.81402	2.75221e+06	3.26793e+07	3.2795e+07	-85.186	0.0000000E+000	0.0000000E+000	0.0000000E+000	85.186	0.0000000E+000	0.0000000E+000	0.0000000E+000	-85.186	0.0000000E+000	0.0000000E+000	0.0000000E+000	-4.81402	0.0000000E+000	0.0000000E+000	0.0000000E+000	4.81402	11.8738	85.186	0.000000000000000E+000	-5.70565e-06	-2.31122e-10	-5.70542e-06	3.82526	2.56479e+06	103.893	2.56468e+06
0.160751	19.669	1.81408	19.7525	-5.2695	240.734	3.82541	-0.00149151	545772	4603.4	1	11	0.00502837	0.000254569	0	-0.00108102	0.000154958	4.76372e-07	-38.5258	0.00187128	0.00146396	0.00116556	-5.27247	19.754	19.6705	1.81524	0.0504126	0.00464957	0.0506266	5.2695	4.6034e+06	4.99121e+07	5.01239e+07	-84.7305	0.0000000E+000	0.0000000E+000	0.0000000E+000	84.7305	0.0000000E+000	0.0000000E+000	0.0000000E+000	-84.7305	0.0000000E+000	0.0000000E+000	0.0000000E+000	-5.2695	0.0000000E+000	0.0000000E+000	0.0000000E+000	5.2695	10.8424	84.7305	0.000000000000000E+000	-5.70565e-06	-2.31122e-10	-5.70542e-06	3.82526	2.56479e+06	103.893	2.56468e+06
0.100469	20.1769	2.38697	20.3176	-6.74685	240.736	3.82541	-0.00149151	663651	9159.85	1	11	0.00503182	0.000247658	0	-0.00108102	0.000154958	4.04518e-07	-25.8397	0.00163337	0.00147006	0.000711914	-6.74835	20.3191	20.1784	2.38768	0.0488776	0.00578232	0.0492184	6.74685	9.15985e+06	7.74276e+07	7.79676e+07	-83.2532	0.0000000E+000	0.0000000E+000	0.0000000E+000	83.2532	0.0000000E+000	0.0000000E+000	0.0000000E+000	-83.2532	0.0000000E+000	0.0000000E+000	0.0000000E+000	-6.74685	0.0000000E+000	0.0000000E+000	0.0000000E+000	6.74685	8.45294	83.2532	0.000000000000000E+000	-5.70565e-06	-2.31122e-10	-5.70542e-06	3.82526	2.56479e+06	103.893	2.56468e+06
0.0602816	20.9888	2.68018	21.1592	-7.27707	240.738	3.82541	-0.00149151	985078	15805.3	1	11	0.00502838	0.000237645	0	-0.00108102	0.000154958	3.65334e-07	-61.7109	0.00153731	0.000728563	0.00135371	-7.28046	21.1601	20.9895	2.68154	0.0468801	0.00598641	0.0472608	7.27707	1.58053e+07	1.23772e+08	1.24777e+08	-82.7229	0.0000000E+000	0.0000000E+000	0.0000000E+000	82.7229	0.0000000E+000	0.0000000E+000	0.0000000E+000	-82.7229	0.0000000E+000	0.0000000E+000	0.0000000E+000	-7.27707	0.0000000E+000	0.0000000E+000	0.0000000E+000	7.27707	7.83109	82.7229	0.000000000000000E+000	-5.70565e-06	-2.31122e-10	-5.70542e-06	3.82526	2.56479e+06	103.893	2.56468e+06
0.0401878	21.9162	2.93687	22.1121	-7.6324	240.74	3.82541	-0.00149151	1.34847e+06	23787.5	1	11	0.0050273	0.000227355	0	-0.00108102	0.000154958	6.98373e-07	28.4359	0.00307173	0.00270113	-0.00146269	-7.62772	22.1146	21.9189	2.9354	0.0448234	0.00600652	0.045224	7.6324	2.37875e+07	1.77513e+08	1.791e+08	-82.3676	0.0000000E+000	0.0000000E+000	0.0000000E+000	82.3676	0.0000000E+000	0.0000000E+000	0.0000000E+000	-82.3676	0.0000000E+000	0.0000000E+000	0.0000000E+000	-7.6324	0.0000000E+000	0.0000000E+000	0.0000000E+000	7.6324	7.46246	82.3676	0.000000000000000E+000	-5.70565e-06	-2.31122e-10	-5.70542e-06	3.82526	2.56479e+06	103.893	2.56468e+06
0.0200939	23.5406	3.79729	23.8449	-9.16332	240.741	3.82541	-0.00149151	2.08585e+06	52897.8	1	11	0.00502793	0.00021086	0	-0.00108102	0.000154958	7.47733e-07	-41.4732	0.00354612	0.00265698	0.00234849	-9.16787	23.8479	23.5433	3.79964	0.0414024	0.00667853	0.0419376	9.16332	5.28977e+07	3.27931e+08	3.3217e+08	-80.8367	0.0000000E+000	0.0000000E+000	0.0000000E+000	80.8367	0.0000000E+000	0.0000000E+000	0.0000000E+000	-80.8367	0.0000000E+000	0.0000000E+000	0.0000000E+000	-9.16332	0.0000000E+000	0.0000000E+000	0.0000000E+000	9.16332	6.19933	80.8367	0.000000000000000E+000	-5.70565e-06	-2.31122e-10	-5.70542e-06	3.82526	2.56479e+06	103.893	2.56468e+06
0.00796479	29.2275	4.31771	29.5447	-8.40339	20329.6	3.8254	0.00056194	4.62799e+06	98841.5	1	11	0.00502087	0.000169941	0	-0.00499899	5.95716e-05	7.46091e-07	-14.5102	0.00439029	0.00425025	0.0011	-8.40429	29.5491	29.2318	4.31881	0.0334836	0.00494645	0.033847	8.40339	9.88415e+07	6.6908e+08	6.76341e+08	-81.5966	0.0000000E+000	0.0000000E+000	0.0000000E+000	81.5966	0.0000000E+000	0.0000000E+000	0.0000000E+000	-81.5966	0.0000000E+000	0.0000000E+000	0.0000000E+000	-8.40339	0.0000000E+000	0.0000000E+000	0.0000000E+000	8.40339	6.76922	81.5966	-0.00391797	2.14965e-06	3.34756e-11	2.14961e-06	3.82535	6.8075e+06	106.011	6.80739e+06
0.00497799	30.5737	4.43883	30.8943	-8.26073	20329.6	3.8254	0.00056194	7.20274e+06	148689	1	11	0.00502832	0.000162759	0	-0.00499899	5.95716e-05	7.15234e-07	-15.7422	0.00439443	0.0042296	0.00119225	-8.26179	30.8986	30.578	4.44002	0.0320326	0.00465064	0.0323685	8.26073	1.48689e+08	1.02414e+09	1.03488e+09	-81.7393	0.0000000E+000	0.0000000E+000	0.0000000E+000	81.7393	0.0000000E+000	0.0000000E+000	0.0000000E+000	-81.7393	0.0000000E+000	0.0000000E+000	0.0000000E+000	-8.26073	0.0000000E+000	0.0000000E+000	0.0000000E+000	8.26073	6.88779	81.7393	0.000000000000000E+000	2.14965e-06	3.34756e-11	2.14961e-06	3.82535	6.8075e+06	106.011	6.80739e+06
0.00318591	31.4022	5.92611	31.9565	-10.687	20329.6	3.8254	0.00056194	8.42978e+06	289893	1	11	0.00503095	0.000157431	0	-0.00499899	5.95716e-05	6.56062e-07	-23.9608	0.0041673	0.00380817	0.00169239	-10.6887	31.9605	31.406	5.9278	0.0307498	0.00580299	0.0312926	10.687	2.89893e+08	1.53613e+09	1.56324e+09	-79.313	0.0000000E+000	0.0000000E+000	0.0000000E+000	79.313	0.0000000E+000	0.0000000E+000	0.0000000E+000	-79.313	0.0000000E+000	0.0000000E+000	0.0000000E+000	-10.687	0.0000000E+000	0.0000000E+000	0.0000000E+000	10.687	5.29896	79.313	0.000000000000000E+000	2.14965e-06	3.34756e-11	2.14961e-06	3.82535	6.8075e+06	106.011	6.80739e+06
0.0019912	32.2841	6.96496	33.0269	-12.1744	20329.6	3.8254	0.00056194	1.14759e+07	510375	1	11	0.00503348	0.000152405	0	-0.00499899	5.95716e-05	7.04554e-07	-36.0688	0.00462289	0.00373673	0.00272176	-12.1776	33.0311	32.2879	6.96768	0.0295974	0.00638534	0.0302784	12.1744	5.10375e+08	2.3657e+09	2.42013e+09	-77.8256	0.0000000E+000	0.0000000E+000	0.0000000E+000	77.8256	0.0000000E+000	0.0000000E+000	0.0000000E+000	-77.8256	0.0000000E+000	0.0000000E+000	0.0000000E+000	-12.1744	0.0000000E+000	0.0000000E+000	0.0000000E+000	12.1744	4.63522	77.8256	0.000000000000000E+000	2.14965e-06	3.34756e-11	2.14961e-06	3.82535	6.8075e+06	106.011	6.80739e+06
0.00129428	31.9625	8.99958	33.2053	-15.7255	20329.6	3.8254	0.00056194	1.36638e+07	1.00369e+06	1	11	0.00503399	0.000151602	0	-0.00499899	5.95716e-05	9.68334e-07	-6.28768	0.00638733	0.00634891	0.000699544	-15.7237	33.2116	31.9688	9.00028	0.0289885	0.00816221	0.0301157	15.7255	1.00369e+09	3.56466e+09	3.70327e+09	-74.2745	0.0000000E+000	0.0000000E+000	0.0000000E+000	74.2745	0.0000000E+000	0.0000000E+000	0.0000000E+000	-74.2745	0.0000000E+000	0.0000000E+000	0.0000000E+000	-15.7255	0.0000000E+000	0.0000000E+000	0.0000000E+000	15.7255	3.55155	74.2745	0.000000000000000E+000	2.14965e-06	3.34756e-11	2.14961e-06	3.82535	6.8075e+06	106.011	6.80739e+06
0.000796479	33.7228	12.7264	36.0442	-20.6756	20329.6	3.8254	0.00056194	1.57015e+07	1.9574e+06	1	11	0.00503365	0.000139652	0	-0.00499899	5.95716e-05	1.05071e-06	-12.89	0.00752375	0.00733415	0.00167839	-20.674	36.0517	33.7301	12.728	0.0259568	0.00979564	0.0277437	20.6756	1.9574e+09	5.18678e+09	5.54383e+09	-69.3244	0.0000000E+000	0.0000000E+000	0.0000000E+000	69.3244	0.0000000E+000	0.0000000E+000	0.0000000E+000	-69.3244	0.0000000E+000	0.0000000E+000	0.0000000E+000	-20.6756	0.0000000E+000	0.0000000E+000	0.0000000E+000	20.6756	2.64984	69.3244	0.000000000000000E+000	2.14965e-06	3.34756e-11	2.14961e-06	3.82535	6.8075e+06	106.011	6.80739e+06
0.000497799	34.0123	18.8579	38.8903	-29.0058	20329.6	3.8254	0.00056194	1.6954e+07	3.98635e+06	1	11	0.00503494	0.000129465	0	-0.00499899	5.95716e-05	3.51386e-07	-82.5001	0.00271414	0.000354263	0.00269092	-29.0091	38.8919	34.0127	18.8606	0.0224881	0.0124684	0.0257133	29.0058	3.98635e+09	7.18984e+09	8.22099e+09	-60.9942	0.0000000E+000	0.0000000E+000	0.0000000E+000	60.9942	0.0000000E+000	0.0000000E+000	0.0000000E+000	-60.9942	0.0000000E+000	0.0000000E+000	0.0000000E+000	-29.0058	0.0000000E+000	0.0000000E+000	0.0000000E+000	29.0058	1.80361	60.9942	0.000000000000000E+000	2.14965e-06	3.34756e-11	2.14961e-06	3.82535	6.8075e+06	106.011	6.80739e+06
0.000298679	34.6741	28.5563	44.9194	-39.4736	20329.6	3.8254	0.00056194	1.86601e+07	7.54133e+06	1	11	0.0050343	0.000112074	0	-0.00499899	5.95716e-05	9.20643e-07	130.959	0.0082146	-0.00538478	-0.00620353	-39.4718	44.9113	34.6687	28.5501	0.0171845	0.0141525	0.0222621	39.4736	7.54133e+09	9.15697e+09	1.18626e+10	-50.5264	0.0000000E+000	0.0000000E+000	0.0000000E+000	50.5264	0.0000000E+000	0.0000000E+000	0.0000000E+000	-50.5264	0.0000000E+000	0.0000000E+000	0.0000000E+000	-39.4736	0.0000000E+000	0.0000000E+000	0.0000000E+000	39.4736	1.21424	50.5264	0.000000000000000E+000	2.14965e-06	3.34756e-11	2.14961e-06	3.82535	6.8075e+06	106.011	6.80739e+06
9.95598e-05	42.112	88.9099	98.3788	-64.6555	20329.6	3.8254	0.00056194	1.79798e+07	1.46853e+07	1	11	0.00503587	5.11886e-05	0	-0.00499899	5.95716e-05	1.63032e-06	-89.9186	0.0318492	4.5229e-05	0.0318492	-64.6634	98.4076	42.1121	88.9417	0.00435114	0.00918643	0.0101648	64.6555	1.46853e+10	6.95567e+09	1.62493e+10	-25.3445	0.0000000E+000	0.0000000E+000	0.0000000E+000	25.3445	0.0000000E+000	0.0000000E+000	0.0000000E+000	-25.3445	0.0000000E+000	0.0000000E+000	0.0000000E+000	-64.6555	0.0000000E+000	0.0000000E+000	0.0000000E+000	64.6555	0.473649	25.3445	0.000000000000000E+000	2.14965e-06	3.34756e-11	2.14961e-06	3.82535	6.8075e+06	106.011	6.80739e+06