File: txt/18505_R303_UC88_11mm_SOC50_C04.mpt
EC-Lab ASCII FILE
Nb header lines : 65

Potentio Electrochemical Impedance Spectroscopy

Run on channel : 4 (SN 66756)
User :
CE vs. WE compliance from -10 V to 10 V
Electrode connection : standard
Potential control : Ewe
Ewe ctrl range : min = -10.00 V, max = 10.00 V
Safety Limits :
	Do not start on E overload
Acquisition started on : 10/20/2025 14:15:27.182
Technique started on : 10/20/2025 14:15:29.417
Loaded Setting File :  C:\Users\Celltest\OneDrive - store-dot.com\Documents\EC-Lab\Data\txt_done\UC80_17231_EIS_50SOC.mps
Saved on :
	File : 18505_R303_UC88_11mm_SOC50_C04.mpr
	Directory : C:\Users\Celltest\OneDrive - store-dot.com\Documents\EC-Lab\Data\Michael\
	Host : 169.254.61.224
Device : VMP-3e (SN .003165)
Address : USB
EC-LAB for windows v11.62 (software)
Internet server v27.00 (firmware)
Command interpretor v12.03 (firmware)
Electrode material :
Initial state :
Electrolyte :
Comments :
Electrode surface area : 0.001 cm²
Characteristic mass : 0.001 g
Equivalent Weight : 0.000 g/eq.
Density : 0.000 g/cm3
Volume (V) : 0.001 cm³
Record Ece
Cycle Definition : Charge/Discharge alternance
Mode                Multi sine
E (V)               0.0000
vs.                 Eoc
tE (h:m:s)          0:00:0.0000
record              0
dI                  0.000
unit dI             mA
dt (s)              0.000
fi                  1.000
unit fi             MHz
ff                  0.100
unit ff             mHz
Nd                  10
Points              per decade
spacing             Logarithmic
Va (mV)             5.0
pw                  0.10
Na                  2
corr                0
E range min (V)     -10.000
E range max (V)     10.000
I Range             Auto
Bandwidth           5
nc cycles           0
goto Ns'            0
nr cycles           0
inc. cycle          0

freq/Hz	Re(Z)/Ohm	-Im(Z)/Ohm	|Z|/Ohm	Phase(Z)/deg	time/s	<Ewe>/V	<I>/mA	Cs/µF	Cp/µF	cycle number	I Range	|Ewe|/V	|I|/A	Ns	(Q-Qo)/mA.h	<Ece>/V	|Ece|/V	Phase(Zce)/deg	|Zce|/Ohm	Re(Zce)/Ohm	-Im(Zce)/Ohm	Phase(Zwe-ce)/deg	|Zwe-ce|/Ohm	Re(Zwe-ce)/Ohm	-Im(Zwe-ce)/Ohm	Re(Y)/Ohm-1	Im(Y)/Ohm-1	|Y|/Ohm-1	Phase(Y)/deg	Re(C)/nF	Im(C)/nF	|C|/nF	Phase(C)/deg	Re(M)	Im(M)	|M|	Phase(M)/deg	Re(Permittivity)	Im(Permittivity)	|Permittivity|	Phase(Permittivity)/deg	Re(Resistivity)/Ohm.cm	Im(Resistivity)/Ohm.cm	|Resistivity|/Ohm.cm	Phase(Resistivity)/deg	Re(Conductivity)/mS/cm	Im(Conductivity)/mS/cm	|Conductivity|/mS/cm	Phase(Conductivity)/deg	Tan(Delta)	Loss Angle(Delta)/deg	dq/mA.h	Pwe/W	Pce/W	Pwe-ce/W	<Ewe-Ece>/V	Rwe/Ohm	Rce/Ohm	Rwe-ce/Ohm		Ewe-Ece/V
1.00002e+06	3.97935	1.72335	4.33649	-23.4161	2.23453	3.82603	0.0749705	0.0923506	0.0145851	1	10	0.000193961	4.47276e-05	0	1.26863e-05	-0.000168381	0.000191788	-66.9627	4.2879	1.67799	3.94595	-45.0605	8.00914	5.65733	5.66929	0.21161	0.0916423	0.230601	23.4161	14.5851	33.6781	36.7007	-66.5839	0.0000000E+000	0.0000000E+000	0.0000000E+000	66.5839	0.0000000E+000	0.0000000E+000	0.0000000E+000	-66.5839	0.0000000E+000	0.0000000E+000	0.0000000E+000	-23.4161	0.0000000E+000	0.0000000E+000	0.0000000E+000	23.4161	2.30908	66.5839	1.26863e-05	0.00028684	-1.26236e-08	0.000286852	3.8262	51033.8	2.24597	51036.1
630957	0.269093	-0.508447	0.575265	62.1102	3.41456	3.82501	0.00527355	-0.496106	-0.387553	1	9	0.000117691	0.000204585	0	1.1232e-05	-0.000111051	0.000103101	-78.9323	0.503954	0.096743	0.494581	2.17068	0.366099	0.365836	-0.0138665	0.813143	-1.53642	1.73833	-62.1102	-387.552	205.11	438.483	-152.11	0.0000000E+000	0.0000000E+000	0.0000000E+000	152.11	0.0000000E+000	0.0000000E+000	0.0000000E+000	-152.11	0.0000000E+000	0.0000000E+000	0.0000000E+000	62.1102	0.0000000E+000	0.0000000E+000	0.0000000E+000	-62.1102	0.529245	27.8898	-3.98385e-07	2.01714e-05	-5.85635e-10	2.0172e-05	3.82512	725319	21.0582	725340
398103	0.830084	-0.180032	0.849383	12.237	4.18055	3.82488	-0.00897401	-2.22062	-0.0997624	1	9	0.000472976	0.000556847	0	8.19178e-06	-0.000225711	4.39193e-05	150.139	0.0788715	-0.0683998	-0.0392705	16.062	0.792626	0.761684	-0.219302	1.15058	-0.249541	1.17733	-12.237	-99.7624	459.98	470.675	-102.237	0.0000000E+000	0.0000000E+000	0.0000000E+000	102.237	0.0000000E+000	0.0000000E+000	0.0000000E+000	-102.237	0.0000000E+000	0.0000000E+000	0.0000000E+000	12.237	0.0000000E+000	0.0000000E+000	0.0000000E+000	-12.237	4.61076	77.763	-1.69476e-06	-3.43245e-05	2.02554e-09	-3.43265e-05	3.8251	426217	25.1516	426242
251206	0.859183	0.234609	0.890638	-15.2729	4.94651	3.82466	-0.019268	2.70051	0.187384	1	9	0.00134052	0.00150512	0	2.5845e-06	-0.000225711	6.13339e-05	80.4213	0.0407502	0.00678094	-0.040182	-12.6542	0.887522	0.865964	0.194427	1.08314	0.295762	1.12279	15.2729	187.384	686.235	711.359	-74.7271	0.0000000E+000	0.0000000E+000	0.0000000E+000	74.7271	0.0000000E+000	0.0000000E+000	0.0000000E+000	-74.7271	0.0000000E+000	0.0000000E+000	0.0000000E+000	-15.2729	0.0000000E+000	0.0000000E+000	0.0000000E+000	15.2729	3.66219	74.7271	-2.91374e-06	-7.36937e-05	4.34901e-09	-7.3698e-05	3.82488	198497	11.7143	198509
158486	0.924677	0.485107	1.0442	-27.6826	5.71255	3.82459	-0.0180745	2.0701	0.446785	1	9	0.00336844	0.00322586	0	3.43853e-07	-0.000149271	5.50008e-05	55.8611	0.01705	0.00956848	-0.0141119	-26.7547	1.04626	0.934245	0.470995	0.84805	0.444907	0.95767	27.6826	446.785	851.629	961.711	-62.3174	0.0000000E+000	0.0000000E+000	0.0000000E+000	62.3174	0.0000000E+000	0.0000000E+000	0.0000000E+000	-62.3174	0.0000000E+000	0.0000000E+000	0.0000000E+000	-27.6826	0.0000000E+000	0.0000000E+000	0.0000000E+000	27.6826	1.90613	62.3174	-7.58834e-07	-6.91275e-05	2.698e-09	-6.91302e-05	3.82474	211602	8.25868	211610
100004	1.06574	0.710863	1.28107	-33.7037	6.35655	3.82456	-0.0252728	2.23881	0.689358	1	9	0.00533496	0.00416446	0	2.02878e-06	-3.46116e-05	3.60863e-05	52.5264	0.0086653	0.00527193	-0.00687707	-33.3172	1.28167	1.07102	0.703986	0.649394	0.433153	0.780598	33.7037	689.358	1033.5	1242.31	-56.2963	0.0000000E+000	0.0000000E+000	0.0000000E+000	56.2963	0.0000000E+000	0.0000000E+000	0.0000000E+000	-56.2963	0.0000000E+000	0.0000000E+000	0.0000000E+000	-33.7037	0.0000000E+000	0.0000000E+000	0.0000000E+000	33.7037	1.49923	56.2963	1.72306e-06	-9.66574e-05	8.74734e-10	-9.66583e-05	3.82459	151331	1.36952	151332
63093.8	1.2884	0.948869	1.6001	-36.3705	7.24652	3.82456	-0.0295993	2.65844	0.934851	1	9	0.0050898	0.00318092	0	-9.31911e-06	-0.000206601	2.1748e-05	46.2818	0.00683702	0.00472515	-0.00494144	-36.1278	1.60099	1.29313	0.943927	0.503217	0.370603	0.624959	36.3705	934.851	1269.37	1576.47	-53.6295	0.0000000E+000	0.0000000E+000	0.0000000E+000	53.6295	0.0000000E+000	0.0000000E+000	0.0000000E+000	-53.6295	0.0000000E+000	0.0000000E+000	0.0000000E+000	-36.3705	0.0000000E+000	0.0000000E+000	0.0000000E+000	36.3705	1.35783	53.6295	-1.04365e-05	-0.000113205	6.11526e-09	-0.000113211	3.82477	129211	6.97993	129218
39814.1	1.60959	1.17997	1.99577	-36.2447	8.01252	3.82455	-0.0194545	3.38776	1.18422	1	9	0.00541925	0.00271536	0	-1.35729e-05	2.27182e-05	1.3388e-05	32.3968	0.00493047	0.00416308	-0.00264165	-36.1129	1.99758	1.61375	1.17733	0.404104	0.296243	0.501059	36.2447	1184.22	1615.39	2002.96	-53.7553	0.0000000E+000	0.0000000E+000	0.0000000E+000	53.7553	0.0000000E+000	0.0000000E+000	0.0000000E+000	-53.7553	0.0000000E+000	0.0000000E+000	0.0000000E+000	-36.2447	0.0000000E+000	0.0000000E+000	0.0000000E+000	36.2447	1.36409	53.7553	-2.86918e-06	-7.44046e-05	-4.41972e-10	-7.44042e-05	3.82453	196589	1.16776	196588
25116.9	2.01223	1.37756	2.4386	-34.3953	8.78053	3.82454	-0.0204242	4.59984	1.46786	1	9	0.00537397	0.00220372	0	-1.24951e-05	9.9158e-05	2.28472e-06	-61.9094	0.00103676	0.000488176	0.000914633	-34.4066	2.43952	2.01272	1.37848	0.338375	0.231649	0.410072	34.3953	1467.86	2144.14	2598.45	-55.6047	0.0000000E+000	0.0000000E+000	0.0000000E+000	55.6047	0.0000000E+000	0.0000000E+000	0.0000000E+000	-55.6047	0.0000000E+000	0.0000000E+000	0.0000000E+000	-34.3953	0.0000000E+000	0.0000000E+000	0.0000000E+000	34.3953	1.46072	55.6047	-2.63804e-06	-7.81134e-05	-2.02523e-09	-7.81113e-05	3.82445	187255	4.85492	187250
15847.7	2.44934	1.55447	2.90097	-32.4012	9.54652	3.82454	-0.026168	6.46058	1.85502	1	9	0.00531798	0.00183317	0	-1.98921e-05	-9.19415e-05	1.33608e-05	-74.4283	0.00728836	0.00195652	0.00702084	-32.4974	2.90639	2.4513	1.56149	0.291046	0.184712	0.344712	32.4012	1855.02	2922.91	3461.87	-57.5988	0.0000000E+000	0.0000000E+000	0.0000000E+000	57.5988	0.0000000E+000	0.0000000E+000	0.0000000E+000	-57.5988	0.0000000E+000	0.0000000E+000	0.0000000E+000	-32.4012	0.0000000E+000	0.0000000E+000	0.0000000E+000	32.4012	1.57567	57.5988	-8.90923e-07	-0.000100081	2.40593e-09	-0.000100083	3.82463	146153	3.51351	146157
10002.2	2.89676	1.73367	3.37592	-30.8999	10.3125	3.82453	-0.0185594	9.17818	2.4205	1	9	0.00529575	0.00156868	0	-2.40147e-05	-9.19415e-05	9.31488e-06	-21.5792	0.00593803	0.00552183	0.00218393	-30.8836	3.38178	2.90229	1.73586	0.254172	0.152118	0.296215	30.8999	2420.5	4044.37	4713.36	-59.1001	0.0000000E+000	0.0000000E+000	0.0000000E+000	59.1001	0.0000000E+000	0.0000000E+000	0.0000000E+000	-59.1001	0.0000000E+000	0.0000000E+000	0.0000000E+000	-30.8999	0.0000000E+000	0.0000000E+000	0.0000000E+000	30.8999	1.67088	59.1001	-2.23285e-06	-7.0981e-05	1.70638e-09	-7.09827e-05	3.82463	206070	4.95391	206075
6309.38	3.38945	1.94927	3.90999	-29.9032	11.0786	3.82454	-0.0238556	12.9408	3.21628	1	9	0.00527013	0.00134786	0	-3.22516e-05	-5.37216e-05	1.08764e-05	-40.1577	0.00806934	0.00616718	0.00520386	-29.9242	3.91793	3.39562	1.95448	0.221706	0.127503	0.255755	29.9032	3216.28	5592.56	6451.45	-60.0968	0.0000000E+000	0.0000000E+000	0.0000000E+000	60.0968	0.0000000E+000	0.0000000E+000	0.0000000E+000	-60.0968	0.0000000E+000	0.0000000E+000	0.0000000E+000	-29.9032	0.0000000E+000	0.0000000E+000	0.0000000E+000	29.9032	1.73883	60.0968	-6.44409e-06	-9.12367e-05	1.28156e-09	-9.1238e-05	3.82459	160320	2.25195	160323
3983.6	3.97241	2.22231	4.55178	-29.2242	11.9201	3.82456	-0.0227451	17.9779	4.28535	1	10	0.00547225	0.00120222	0	-3.86086e-05	-0.000149271	1.24199e-05	-60.231	0.0103308	0.0051293	0.00896751	-29.2911	4.56064	3.97754	2.23128	0.191731	0.107261	0.219694	29.2242	4285.35	7660.12	8777.34	-60.7758	0.0000000E+000	0.0000000E+000	0.0000000E+000	60.7758	0.0000000E+000	0.0000000E+000	0.0000000E+000	-60.7758	0.0000000E+000	0.0000000E+000	0.0000000E+000	-29.2242	0.0000000E+000	0.0000000E+000	0.0000000E+000	29.2242	1.78752	60.7758	-1.39844e-06	-8.69901e-05	3.39519e-09	-8.69935e-05	3.82471	168149	6.56279	168155
2510.8	4.62495	2.54887	5.28081	-28.8597	12.9218	3.82453	-0.014203	24.8691	5.79368	1	10	0.00528941	0.00100163	0	-4.13735e-05	3.60827e-06	8.17019e-06	-121.832	0.0081569	-0.00430219	0.0069301	-28.9481	5.28039	4.62065	2.5558	0.165847	0.0914002	0.189365	28.8597	5793.68	10512.7	12003.5	-61.1403	0.0000000E+000	0.0000000E+000	0.0000000E+000	61.1403	0.0000000E+000	0.0000000E+000	0.0000000E+000	-61.1403	0.0000000E+000	0.0000000E+000	0.0000000E+000	-28.8597	0.0000000E+000	0.0000000E+000	0.0000000E+000	28.8597	1.81451	61.1403	-1.58123e-06	-5.43198e-05	-5.12483e-11	-5.43198e-05	3.82452	269276	0.25405	269276
1585.51	5.39621	2.91387	6.13268	-28.3684	13.8238	3.82452	-0.0176982	34.4494	7.77717	1	10	0.00520363	0.000848509	0	-4.57895e-05	-0.000321261	7.97214e-06	-59.1987	0.00939547	0.00481107	0.00807023	-28.4133	6.14075	5.40102	2.92194	0.143479	0.0774765	0.163061	28.3684	7777.17	14402.6	16368.2	-61.6316	0.0000000E+000	0.0000000E+000	0.0000000E+000	61.6316	0.0000000E+000	0.0000000E+000	0.0000000E+000	-61.6316	0.0000000E+000	0.0000000E+000	0.0000000E+000	-28.3684	0.0000000E+000	0.0000000E+000	0.0000000E+000	28.3684	1.85191	61.6317	-2.74093e-06	-6.76872e-05	5.68574e-09	-6.76928e-05	3.82484	216097	18.1522	216115
1000.32	6.3494	3.29635	7.15408	-27.4365	14.7258	3.82452	-0.0157884	48.2668	10.2472	1	10	0.00502746	0.00070274	0	-5.12517e-05	-9.19415e-05	4.29585e-06	-14.5355	0.006113	0.00591734	0.00153424	-27.4256	7.16004	6.35532	3.29788	0.124058	0.0644059	0.13978	27.4365	10247.2	19738.2	22239.6	-62.5635	0.0000000E+000	0.0000000E+000	0.0000000E+000	62.5635	0.0000000E+000	0.0000000E+000	0.0000000E+000	-62.5635	0.0000000E+000	0.0000000E+000	0.0000000E+000	-27.4365	0.0000000E+000	0.0000000E+000	0.0000000E+000	27.4365	1.92619	62.5635	-2.31215e-06	-6.03829e-05	1.45161e-09	-6.03843e-05	3.82461	242237	5.82338	242243
631.01	7.48711	3.62898	8.32024	-25.8593	15.6265	3.82453	-0.015158	69.5023	13.222	1	10	0.00489585	0.000588427	0	-5.43625e-05	-0.000187491	1.31566e-05	10.2208	0.0223589	0.0220041	-0.00396742	-25.7689	8.33832	7.50912	3.62502	0.108154	0.052422	0.120189	25.8593	13222	27278.9	30314.4	-64.1407	0.0000000E+000	0.0000000E+000	0.0000000E+000	64.1407	0.0000000E+000	0.0000000E+000	0.0000000E+000	-64.1407	0.0000000E+000	0.0000000E+000	0.0000000E+000	-25.8593	0.0000000E+000	0.0000000E+000	0.0000000E+000	25.8593	2.06314	64.1407	-1.52011e-06	-5.7972e-05	2.84199e-09	-5.79748e-05	3.82471	252311	12.3692	252324
398.089	8.77778	3.80387	9.56654	-23.4296	16.5278	3.82453	-0.0150349	105.103	16.6171	1	10	0.00481566	0.000503386	0	-5.89477e-05	-0.000111051	1.80071e-05	-37.328	0.035772	0.0284451	0.0216913	-23.4809	9.60127	8.80622	3.82556	0.0959123	0.0415638	0.104531	23.4296	16617.1	38345.5	41791.2	-66.5704	0.0000000E+000	0.0000000E+000	0.0000000E+000	66.5704	0.0000000E+000	0.0000000E+000	0.0000000E+000	-66.5704	0.0000000E+000	0.0000000E+000	0.0000000E+000	-23.4296	0.0000000E+000	0.0000000E+000	0.0000000E+000	23.4296	2.30759	66.5704	-2.12509e-06	-5.75012e-05	1.66964e-09	-5.75029e-05	3.82464	254377	7.38626	254385
251.044	10.1573	3.65136	10.7936	-19.7726	17.4261	3.82453	-0.0196304	173.626	19.8696	1	10	0.00477265	0.000442172	0	-6.41643e-05	8.00481e-05	9.50687e-06	-35.7158	0.0215004	0.0174566	0.0125512	-19.8039	10.8143	10.1747	3.66391	0.0871849	0.0313414	0.0926471	19.7726	19869.6	55272.7	58735.6	-70.2274	0.0000000E+000	0.0000000E+000	0.0000000E+000	70.2274	0.0000000E+000	0.0000000E+000	0.0000000E+000	-70.2274	0.0000000E+000	0.0000000E+000	0.0000000E+000	-19.7726	0.0000000E+000	0.0000000E+000	0.0000000E+000	19.7726	2.78178	70.2274	-2.44101e-06	-7.50772e-05	-1.57138e-09	-7.50757e-05	3.82445	194827	4.07775	194822
158.428	11.4603	3.24153	11.9099	-15.7935	18.3309	3.82453	-0.0143709	309.911	22.9573	1	10	0.00475701	0.000399416	0	-6.93431e-05	-0.000283041	1.00005e-05	-128.241	0.0250377	-0.0154975	0.0196651	-15.9049	11.9004	11.4448	3.26119	0.080794	0.0228525	0.0839637	15.7935	22957.3	81164.5	84348.8	-74.2065	0.0000000E+000	0.0000000E+000	0.0000000E+000	74.2065	0.0000000E+000	0.0000000E+000	0.0000000E+000	-74.2065	0.0000000E+000	0.0000000E+000	0.0000000E+000	-15.7935	0.0000000E+000	0.0000000E+000	0.0000000E+000	15.7935	3.53546	74.2065	-2.26837e-06	-5.49619e-05	4.06755e-09	-5.49659e-05	3.82481	266130	19.6954	266150
100.032	12.4412	2.6925	12.7293	-12.2115	19.2289	3.82452	-0.0154974	590.916	26.4381	1	10	0.00474194	0.000372523	0	-7.27639e-05	-0.000225711	1.0084e-05	-66.79	0.0270694	0.0106681	0.0248786	-12.3106	12.745	12.4519	2.71738	0.0767816	0.0166169	0.0785591	12.2115	26438.1	122163	124991	-77.7885	0.0000000E+000	0.0000000E+000	0.0000000E+000	77.7885	0.0000000E+000	0.0000000E+000	0.0000000E+000	-77.7885	0.0000000E+000	0.0000000E+000	0.0000000E+000	-12.2115	0.0000000E+000	0.0000000E+000	0.0000000E+000	12.2115	4.6207	77.7885	-1.68814e-06	-5.92702e-05	3.49794e-09	-5.92737e-05	3.82475	246785	14.5644	246799
63.0823	13.0531	2.08477	13.2186	-9.0743	20.1449	3.82453	-0.015613	1210.19	30.1024	1	10	0.0047365	0.000358321	0	-7.68946e-05	-7.28316e-05	5.24492e-06	-44.2593	0.0146375	0.0104832	0.0102156	-9.11083	13.2305	13.0636	2.09499	0.0747043	0.0119313	0.0756511	9.0743	30102.4	188477	190866	-80.9257	0.0000000E+000	0.0000000E+000	0.0000000E+000	80.9257	0.0000000E+000	0.0000000E+000	0.0000000E+000	-80.9257	0.0000000E+000	0.0000000E+000	0.0000000E+000	-9.0743	0.0000000E+000	0.0000000E+000	0.0000000E+000	9.0743	6.26119	80.9257	-1.82276e-06	-5.97126e-05	1.13712e-09	-5.97137e-05	3.8246	244957	4.66479	244962
39.8089	13.5508	1.60114	13.6451	-6.7387	21.0458	3.82453	-0.0164374	2496.96	34.3807	1	10	0.00474008	0.000347383	0	-8.13676e-05	-3.46116e-05	5.3393e-06	35.631	0.0153701	0.0124926	-0.00895403	-6.69525	13.6565	13.5633	1.59218	0.0727801	0.00859954	0.0732864	6.7387	34380.7	290973	292997	-83.2613	0.0000000E+000	0.0000000E+000	0.0000000E+000	83.2613	0.0000000E+000	0.0000000E+000	0.0000000E+000	-83.2613	0.0000000E+000	0.0000000E+000	0.0000000E+000	-6.7387	0.0000000E+000	0.0000000E+000	0.0000000E+000	6.7387	8.46325	83.2613	-2.14369e-06	-6.28654e-05	5.68926e-10	-6.28659e-05	3.82456	232672	2.10566	232674
25.1044	13.7775	1.12514	13.8234	-4.66869	21.925	3.82453	-0.0150237	5634.6	37.329	1	10	0.00474038	0.000342924	0	-8.57128e-05	-0.000244821	4.81761e-06	66.6998	0.0140486	0.0055569	-0.0129029	-4.61353	13.8279	13.7831	1.11224	0.0721011	0.00588812	0.0723411	4.66869	37329	457100	458622	-85.3313	0.0000000E+000	0.0000000E+000	0.0000000E+000	85.3313	0.0000000E+000	0.0000000E+000	0.0000000E+000	-85.3313	0.0000000E+000	0.0000000E+000	0.0000000E+000	-4.66869	0.0000000E+000	0.0000000E+000	0.0000000E+000	4.66869	12.2452	85.3313	-1.49837e-06	-5.74585e-05	3.67811e-09	-5.74622e-05	3.82478	254567	16.2957	254583
15.8576	13.942	1.23194	13.9963	-5.04968	23.039	3.82452	-0.0216734	8146.9	63.1175	1	11	0.0047341	0.00033824	0	-9.53277e-05	4.18282e-05	7.24616e-06	41.4118	0.0214231	0.0160668	-0.0141707	-4.98617	14.011	13.958	1.21777	0.0711703	0.00628878	0.0714476	5.04968	63117.4	714302	717085	-84.9503	0.0000000E+000	0.0000000E+000	0.0000000E+000	84.9503	0.0000000E+000	0.0000000E+000	0.0000000E+000	-84.9503	0.0000000E+000	0.0000000E+000	0.0000000E+000	-5.04968	0.0000000E+000	0.0000000E+000	0.0000000E+000	5.04968	11.317	84.9503	-6.22861e-06	-8.28905e-05	-9.06561e-10	-8.28896e-05	3.82448	176461	1.92993	176459
10.0032	14.2406	0.763861	14.261	-3.07039	24.0198	3.82454	-0.010671	20828.9	59.7577	1	11	0.00474009	0.000332381	0	-9.74704e-05	-0.000130161	7.89134e-06	20.0912	0.0237419	0.0222971	-0.00815571	-3.03293	14.2829	14.2629	0.755705	0.0700205	0.00375589	0.0701212	3.07039	59757.6	1.11405e+06	1.11566e+06	-86.9296	0.0000000E+000	0.0000000E+000	0.0000000E+000	86.9296	0.0000000E+000	0.0000000E+000	0.0000000E+000	-86.9296	0.0000000E+000	0.0000000E+000	0.0000000E+000	-3.07039	0.0000000E+000	0.0000000E+000	0.0000000E+000	3.07039	18.6429	86.9296	-1.76918e-06	-4.08116e-05	1.38895e-09	-4.0813e-05	3.82467	358405	12.1977	358417
6.31058	13.9896	0.576787	14.0015	-2.36095	24.9443	3.82454	-0.0162717	43725.5	74.2021	1	11	0.00473447	0.00033814	0	-0.000104142	-0.000187491	6.55928e-06	12.5905	0.0193981	0.0189316	-0.00422843	-2.34049	14.0203	14.0086	0.572559	0.0713602	0.00294215	0.0714208	2.36095	74202.1	1.79973e+06	1.80126e+06	-87.6391	0.0000000E+000	0.0000000E+000	0.0000000E+000	87.6391	0.0000000E+000	0.0000000E+000	0.0000000E+000	-87.6391	0.0000000E+000	0.0000000E+000	0.0000000E+000	-2.36095	0.0000000E+000	0.0000000E+000	0.0000000E+000	2.36095	24.2544	87.6391	-3.85443e-06	-6.22315e-05	3.05079e-09	-6.22346e-05	3.82472	235043	11.5226	235054
3.97785	14.376	0.552859	14.3866	-2.20235	25.9513	3.82454	-0.00930796	72369.8	106.873	1	11	0.00474101	0.000329543	0	-0.000101916	-0.000130161	3.65516e-06	37.2432	0.0110916	0.00882971	-0.00671262	-2.1743	14.3952	14.3848	0.546146	0.0694578	0.00267115	0.0695091	2.20235	106873	2.77902e+06	2.78108e+06	-87.7977	0.0000000E+000	0.0000000E+000	0.0000000E+000	87.7977	0.0000000E+000	0.0000000E+000	0.0000000E+000	-87.7977	0.0000000E+000	0.0000000E+000	0.0000000E+000	-2.20235	0.0000000E+000	0.0000000E+000	0.0000000E+000	2.20235	26.003	87.7977	6.58806e-07	-3.55987e-05	1.21154e-09	-3.55999e-05	3.82467	410890	13.9839	410904
2.51367	14.5434	0.484145	14.5515	-1.90665	27.511	3.82455	-0.00994113	130778	144.767	1	11	0.00474366	0.000325991	0	-0.000114744	9.9158e-05	8.68161e-06	-36.2034	0.0266314	0.0214896	0.0157299	-1.96564	14.5735	14.5649	0.499875	0.0686834	0.00228644	0.0687214	1.90665	144767	4.34873e+06	4.35114e+06	-88.0934	0.0000000E+000	0.0000000E+000	0.0000000E+000	88.0934	0.0000000E+000	0.0000000E+000	0.0000000E+000	-88.0934	0.0000000E+000	0.0000000E+000	0.0000000E+000	-1.90665	0.0000000E+000	0.0000000E+000	0.0000000E+000	1.90665	30.0394	88.0934	-7.37683e-06	-3.80203e-05	-9.85743e-10	-3.80193e-05	3.82445	384720	9.97453	384710
1.58469	14.3443	0.52732	14.354	-2.10534	29.9465	3.82455	-0.0150531	190459	257.042	1	11	0.00473274	0.000329716	0	-0.000118556	-9.19415e-05	2.42e-06	70.5251	0.00733967	0.002447	-0.00691975	-2.07738	14.3562	14.3468	0.520401	0.0696199	0.00255934	0.0696669	2.10534	257043	6.99214e+06	6.99686e+06	-87.8947	0.0000000E+000	0.0000000E+000	0.0000000E+000	87.8947	0.0000000E+000	0.0000000E+000	0.0000000E+000	-87.8947	0.0000000E+000	0.0000000E+000	0.0000000E+000	-2.10534	0.0000000E+000	0.0000000E+000	0.0000000E+000	2.10534	27.2023	87.8947	9.44126e-07	-5.75713e-05	1.384e-09	-5.75727e-05	3.82464	254071	6.10781	254077
1.00469	14.767	0.736515	14.7854	-2.8553	240.765	3.82451	-0.00740237	215082	533.708	1	11	0.00506065	0.000342274	0	-0.00190228	-9.19415e-05	6.07147e-07	-13.7692	0.00177386	0.00172289	0.000422199	-2.8566	14.7871	14.7687	0.736937	0.0675505	0.00336912	0.0676344	2.8553	533708	1.07008e+07	1.07141e+07	-87.1447	0.0000000E+000	0.0000000E+000	0.0000000E+000	87.1447	0.0000000E+000	0.0000000E+000	0.0000000E+000	-87.1447	0.0000000E+000	0.0000000E+000	0.0000000E+000	-2.8553	0.0000000E+000	0.0000000E+000	0.0000000E+000	2.8553	20.0499	87.1447	-0.00178764	-2.83104e-05	6.80585e-10	-2.83111e-05	3.8246	516660	12.4206	516673
0.632957	14.9483	0.901216	14.9754	-3.45013	240.767	3.82451	-0.00740237	279008	1010.46	1	11	0.00507314	0.000338765	0	-0.00190228	-9.19415e-05	6.10183e-07	1.99938	0.0018012	0.0018001	-6.28415e-05	-3.44948	14.9772	14.9501	0.901154	0.0666551	0.00401857	0.0667762	3.45013	1.01046e+06	1.67602e+07	1.67906e+07	-86.5499	0.0000000E+000	0.0000000E+000	0.0000000E+000	86.5499	0.0000000E+000	0.0000000E+000	0.0000000E+000	-86.5499	0.0000000E+000	0.0000000E+000	0.0000000E+000	-3.45013	0.0000000E+000	0.0000000E+000	0.0000000E+000	3.45013	16.5868	86.5499	0.000000000000000E+000	-2.83104e-05	6.80585e-10	-2.83111e-05	3.8246	516660	12.4206	516673
0.401878	15.1228	1.11838	15.164	-4.22954	240.768	3.82451	-0.00740237	354108	1926.14	1	11	0.00508752	0.000335499	0	-0.00190228	-9.19415e-05	5.13877e-07	-2.9883	0.00153168	0.0015296	7.98496e-05	-4.22941	15.1656	15.1243	1.11846	0.0657659	0.00486363	0.0659454	4.22954	1.92614e+06	2.60451e+07	2.61163e+07	-85.7705	0.0000000E+000	0.0000000E+000	0.0000000E+000	85.7705	0.0000000E+000	0.0000000E+000	0.0000000E+000	-85.7705	0.0000000E+000	0.0000000E+000	0.0000000E+000	-4.22954	0.0000000E+000	0.0000000E+000	0.0000000E+000	4.22954	13.522	85.7705	0.000000000000000E+000	-2.83104e-05	6.80585e-10	-2.83111e-05	3.8246	516660	12.4206	516673
0.251173	15.4885	1.40794	15.5524	-5.19404	240.769	3.82451	-0.00740237	450051	3688.39	1	11	0.00508649	0.000327055	0	-0.00190228	-9.19415e-05	4.83222e-07	-20.9631	0.0014775	0.0013797	0.000528598	-5.19552	15.5538	15.4899	1.40847	0.0640347	0.0058209	0.0642988	5.19404	3.68839e+06	4.05753e+07	4.07426e+07	-84.806	0.0000000E+000	0.0000000E+000	0.0000000E+000	84.806	0.0000000E+000	0.0000000E+000	0.0000000E+000	-84.806	0.0000000E+000	0.0000000E+000	0.0000000E+000	-5.19404	0.0000000E+000	0.0000000E+000	0.0000000E+000	5.19404	11.0008	84.806	0.000000000000000E+000	-2.83104e-05	6.80585e-10	-2.83111e-05	3.8246	516660	12.4206	516673
0.160751	15.8443	1.56812	15.9217	-5.65218	240.77	3.82451	-0.00740237	631376	6124.43	1	11	0.00508333	0.00031927	0	-0.00190228	-9.19415e-05	6.89627e-07	29.3532	0.00216001	0.0018827	-0.00105882	-5.64772	15.9235	15.8462	1.56706	0.062502	0.00618584	0.0628073	5.65218	6.12442e+06	6.18814e+07	6.21837e+07	-84.3478	0.0000000E+000	0.0000000E+000	0.0000000E+000	84.3478	0.0000000E+000	0.0000000E+000	0.0000000E+000	-84.3478	0.0000000E+000	0.0000000E+000	0.0000000E+000	-5.65218	0.0000000E+000	0.0000000E+000	0.0000000E+000	5.65218	10.104	84.3478	0.000000000000000E+000	-2.83104e-05	6.80585e-10	-2.83111e-05	3.8246	516660	12.4206	516673
0.100469	16.2457	2.07221	16.3774	-7.26905	240.772	3.82451	-0.00740237	764457	12238.6	1	11	0.00508568	0.000310531	0	-0.00190228	-9.19415e-05	5.22298e-07	24.6388	0.00168195	0.00152881	-0.000701197	-7.26594	16.3788	16.2473	2.07151	0.0605692	0.00772584	0.0610599	7.26905	1.22386e+07	9.59485e+07	9.67259e+07	-82.7309	0.0000000E+000	0.0000000E+000	0.0000000E+000	82.7309	0.0000000E+000	0.0000000E+000	0.0000000E+000	-82.7309	0.0000000E+000	0.0000000E+000	0.0000000E+000	-7.26905	0.0000000E+000	0.0000000E+000	0.0000000E+000	7.26905	7.83982	82.7309	0.000000000000000E+000	-2.83104e-05	6.80585e-10	-2.83111e-05	3.8246	516660	12.4206	516673
0.0602816	16.9338	2.372	17.0991	-7.97384	240.773	3.82451	-0.00740237	1.11306e+06	21419.3	1	11	0.00508114	0.000297159	0	-0.00190228	-9.19415e-05	4.52746e-07	-41.6327	0.00152358	0.00113875	0.00101219	-7.97667	17.1003	16.9349	2.37301	0.0579172	0.00811277	0.0584827	7.97384	2.14193e+07	1.52913e+08	1.54405e+08	-82.0262	0.0000000E+000	0.0000000E+000	0.0000000E+000	82.0262	0.0000000E+000	0.0000000E+000	0.0000000E+000	-82.0262	0.0000000E+000	0.0000000E+000	0.0000000E+000	-7.97384	0.0000000E+000	0.0000000E+000	0.0000000E+000	7.97384	7.13902	82.0262	0.000000000000000E+000	-2.83104e-05	6.80585e-10	-2.83111e-05	3.8246	516660	12.4206	516673
0.0401878	17.7423	2.68027	17.9436	-8.5905	240.774	3.82451	-0.00740237	1.47757e+06	32967.3	1	11	0.00508132	0.000283182	0	-0.00190228	-9.19415e-05	7.19779e-07	12.6727	0.00254175	0.00247983	-0.000557613	-8.58756	17.946	17.7448	2.67971	0.0551048	0.00832448	0.0557301	8.5905	3.29673e+07	2.18231e+08	2.20707e+08	-81.4095	0.0000000E+000	0.0000000E+000	0.0000000E+000	81.4095	0.0000000E+000	0.0000000E+000	0.0000000E+000	-81.4095	0.0000000E+000	0.0000000E+000	0.0000000E+000	-8.5905	0.0000000E+000	0.0000000E+000	0.0000000E+000	8.5905	6.61962	81.4095	0.000000000000000E+000	-2.83104e-05	6.80585e-10	-2.83111e-05	3.8246	516660	12.4206	516673
0.0200939	19.2927	3.58143	19.6223	-10.5165	240.776	3.82451	-0.00740237	2.21156e+06	73673.6	1	11	0.00507868	0.000258822	0	-0.00190228	-9.19415e-05	9.12736e-07	30.9278	0.00352651	0.00302509	-0.00181248	-10.5097	19.625	19.2958	3.57962	0.0501063	0.00930155	0.0509623	10.5165	7.36736e+07	3.9687e+08	4.03651e+08	-79.4835	0.0000000E+000	0.0000000E+000	0.0000000E+000	79.4835	0.0000000E+000	0.0000000E+000	0.0000000E+000	-79.4835	0.0000000E+000	0.0000000E+000	0.0000000E+000	-10.5165	0.0000000E+000	0.0000000E+000	0.0000000E+000	10.5165	5.38688	79.4835	0.000000000000000E+000	-2.83104e-05	6.80585e-10	-2.83111e-05	3.8246	516660	12.4206	516673
0.00796479	23.4668	4.07456	23.8179	-9.8501	20329.7	3.82449	0.000143019	4.90417e+06	143522	1	11	0.00507183	0.000212942	0	-0.0147008	-9.19415e-05	3.35245e-07	6.80821	0.00157435	0.00156325	-0.000186633	-9.84902	23.8194	23.4684	4.07437	0.0413663	0.00718246	0.0419852	9.8501	1.43522e+08	8.26595e+08	8.38962e+08	-80.1499	0.0000000E+000	0.0000000E+000	0.0000000E+000	80.1499	0.0000000E+000	0.0000000E+000	0.0000000E+000	-80.1499	0.0000000E+000	0.0000000E+000	0.0000000E+000	-9.8501	0.0000000E+000	0.0000000E+000	0.0000000E+000	9.8501	5.75935	80.1499	-0.0127986	5.46975e-07	-1.31494e-11	5.46988e-07	3.82458	2.67411e+07	642.862	2.67418e+07
0.00497799	24.7148	4.09839	25.0523	-9.41551	20329.7	3.82449	0.000143019	7.80105e+06	208777	1	11	0.0050797	0.000202764	0	-0.0147008	-9.19415e-05	3.86077e-07	4.74231	0.00190407	0.00189756	-0.000157418	-9.41444	25.0542	24.7167	4.09823	0.0393787	0.00653005	0.0399165	9.41551	2.08777e+08	1.259e+09	1.2762e+09	-80.5845	0.0000000E+000	0.0000000E+000	0.0000000E+000	80.5845	0.0000000E+000	0.0000000E+000	0.0000000E+000	-80.5845	0.0000000E+000	0.0000000E+000	0.0000000E+000	-9.41551	0.0000000E+000	0.0000000E+000	0.0000000E+000	9.41551	6.03038	80.5845	0.000000000000000E+000	5.46975e-07	-1.31494e-11	5.46988e-07	3.82458	2.67411e+07	642.862	2.67418e+07
0.00318591	25.5344	5.55778	26.1322	-12.2794	20329.7	3.82449	0.000143019	8.98844e+06	406569	1	11	0.00508152	0.000194454	0	-0.0147008	-9.19415e-05	2.19277e-07	25.3843	0.00112766	0.00101878	-0.000483412	-12.2779	26.1331	25.5354	5.5573	0.0373915	0.00813858	0.0382669	12.2794	4.06569e+08	1.86792e+09	1.91166e+09	-77.7206	0.0000000E+000	0.0000000E+000	0.0000000E+000	77.7206	0.0000000E+000	0.0000000E+000	0.0000000E+000	-77.7206	0.0000000E+000	0.0000000E+000	0.0000000E+000	-12.2794	0.0000000E+000	0.0000000E+000	0.0000000E+000	12.2794	4.59435	77.7206	0.000000000000000E+000	5.46975e-07	-1.31494e-11	5.46988e-07	3.82458	2.67411e+07	642.862	2.67418e+07
0.0019912	26.3295	6.61865	27.1487	-14.1105	20329.7	3.82449	0.000143019	1.20764e+07	717759	1	11	0.00508542	0.000187317	0	-0.0147008	-9.19415e-05	4.05025e-07	41.1904	0.00216224	0.00162714	-0.00142397	-14.1068	27.1499	26.3311	6.61723	0.0357228	0.00897992	0.0368342	14.1105	7.17759e+08	2.8553e+09	2.94413e+09	-75.8895	0.0000000E+000	0.0000000E+000	0.0000000E+000	75.8895	0.0000000E+000	0.0000000E+000	0.0000000E+000	-75.8895	0.0000000E+000	0.0000000E+000	0.0000000E+000	-14.1105	0.0000000E+000	0.0000000E+000	0.0000000E+000	14.1105	3.97808	75.8895	0.000000000000000E+000	5.46975e-07	-1.31494e-11	5.46988e-07	3.82458	2.67411e+07	642.862	2.67418e+07
0.00129428	25.901	8.60126	27.2918	-18.3704	20329.7	3.82449	0.000143019	1.42965e+07	1.42001e+06	1	11	0.00508728	0.000186403	0	-0.0147008	-9.19415e-05	6.3446e-07	-6.89274	0.00340369	0.00337909	0.000408481	-18.369	27.2951	25.9043	8.60167	0.0347738	0.0115478	0.0366411	18.3704	1.42001e+09	4.27607e+09	4.50569e+09	-71.6296	0.0000000E+000	0.0000000E+000	0.0000000E+000	71.6296	0.0000000E+000	0.0000000E+000	0.0000000E+000	-71.6296	0.0000000E+000	0.0000000E+000	0.0000000E+000	-18.3704	0.0000000E+000	0.0000000E+000	0.0000000E+000	18.3704	3.0113	71.6296	0.000000000000000E+000	5.46975e-07	-1.31494e-11	5.46988e-07	3.82458	2.67411e+07	642.862	2.67418e+07
0.000796479	27.7297	12.2253	30.305	-23.7914	20329.7	3.82449	0.000143019	1.63451e+07	2.65997e+06	1	11	0.00508419	0.000167767	0	-0.0147008	-9.19415e-05	3.32285e-07	-91.1205	0.00198063	-3.87327e-05	0.00198025	-23.7948	30.3057	27.7296	12.2272	0.0301937	0.0133116	0.0329979	23.7914	2.65997e+09	6.03341e+09	6.59374e+09	-66.2086	0.0000000E+000	0.0000000E+000	0.0000000E+000	66.2086	0.0000000E+000	0.0000000E+000	0.0000000E+000	-66.2086	0.0000000E+000	0.0000000E+000	0.0000000E+000	-23.7914	0.0000000E+000	0.0000000E+000	0.0000000E+000	23.7914	2.26823	66.2086	0.000000000000000E+000	5.46975e-07	-1.31494e-11	5.46988e-07	3.82458	2.67411e+07	642.862	2.67418e+07
0.000497799	27.5571	18.0437	32.9389	-33.2158	20329.7	3.82449	0.000143019	1.7719e+07	5.31709e+06	1	11	0.00508655	0.000154424	0	-0.0147008	-9.19415e-05	6.59565e-07	-46.695	0.00427114	0.00292949	0.00310816	-33.2175	32.9431	27.5601	18.0468	0.0253989	0.0166306	0.0303592	33.2158	5.31709e+09	8.12048e+09	9.70636e+09	-56.7842	0.0000000E+000	0.0000000E+000	0.0000000E+000	56.7842	0.0000000E+000	0.0000000E+000	0.0000000E+000	-56.7842	0.0000000E+000	0.0000000E+000	0.0000000E+000	-33.2158	0.0000000E+000	0.0000000E+000	0.0000000E+000	33.2158	1.52724	56.7842	0.000000000000000E+000	5.46975e-07	-1.31494e-11	5.46988e-07	3.82458	2.67411e+07	642.862	2.67418e+07
0.000298679	27.5723	27.2885	38.793	-44.7036	20329.7	3.82449	0.000143019	1.9527e+07	9.66246e+06	1	11	0.00508861	0.000131173	0	-0.0147008	-9.19415e-05	6.19136e-07	-33.5347	0.00471998	0.00393435	0.00260752	-44.7022	38.7976	27.5763	27.2911	0.0183217	0.0181331	0.0257778	44.7036	9.66246e+09	9.76296e+09	1.3736e+10	-45.2964	0.0000000E+000	0.0000000E+000	0.0000000E+000	45.2964	0.0000000E+000	0.0000000E+000	0.0000000E+000	-45.2964	0.0000000E+000	0.0000000E+000	0.0000000E+000	-44.7036	0.0000000E+000	0.0000000E+000	0.0000000E+000	44.7036	1.0104	45.2964	0.000000000000000E+000	5.46975e-07	-1.31494e-11	5.46988e-07	3.82458	2.67411e+07	642.862	2.67418e+07
9.95598e-05	35.214	90.1861	96.8171	-68.6713	20329.7	3.82449	0.000143019	1.77254e+07	1.53805e+07	1	11	0.00508738	5.25462e-05	0	-0.0147008	-9.19415e-05	2.52045e-06	-10.3494	0.0479663	0.0471859	0.00861717	-68.6472	96.8423	35.2612	90.1947	0.00375674	0.00962133	0.0103287	68.6713	1.53805e+10	6.00548e+09	1.65114e+10	-21.3287	0.0000000E+000	0.0000000E+000	0.0000000E+000	21.3287	0.0000000E+000	0.0000000E+000	0.0000000E+000	-21.3287	0.0000000E+000	0.0000000E+000	0.0000000E+000	-68.6713	0.0000000E+000	0.0000000E+000	0.0000000E+000	68.6713	0.39046	21.3286	0.000000000000000E+000	5.46975e-07	-1.31494e-11	5.46988e-07	3.82458	2.67411e+07	642.862	2.67418e+07