File: txt/18504_R303_UC88_11mm_SOC50_C03.mpt
EC-Lab ASCII FILE
Nb header lines : 65

Potentio Electrochemical Impedance Spectroscopy

Run on channel : 3 (SN 65921)
User :
CE vs. WE compliance from -10 V to 10 V
Electrode connection : standard
Potential control : Ewe
Ewe ctrl range : min = -10.00 V, max = 10.00 V
Safety Limits :
	Do not start on E overload
Acquisition started on : 10/20/2025 14:15:05.382
Technique started on : 10/20/2025 14:15:08.076
Loaded Setting File :  C:\Users\Celltest\OneDrive - store-dot.com\Documents\EC-Lab\Data\txt_done\UC80_17231_EIS_50SOC.mps
Saved on :
	File : 18504_R303_UC88_11mm_SOC50_C03.mpr
	Directory : C:\Users\Celltest\OneDrive - store-dot.com\Documents\EC-Lab\Data\Michael\
	Host : 169.254.61.224
Device : VMP-3e (SN .003165)
Address : USB
EC-LAB for windows v11.62 (software)
Internet server v27.00 (firmware)
Command interpretor v12.03 (firmware)
Electrode material :
Initial state :
Electrolyte :
Comments :
Electrode surface area : 0.001 cm²
Characteristic mass : 0.001 g
Equivalent Weight : 0.000 g/eq.
Density : 0.000 g/cm3
Volume (V) : 0.001 cm³
Record Ece
Cycle Definition : Charge/Discharge alternance
Mode                Multi sine
E (V)               0.0000
vs.                 Eoc
tE (h:m:s)          0:00:0.0000
record              0
dI                  0.000
unit dI             mA
dt (s)              0.000
fi                  1.000
unit fi             MHz
ff                  0.100
unit ff             mHz
Nd                  10
Points              per decade
spacing             Logarithmic
Va (mV)             5.0
pw                  0.10
Na                  2
corr                0
E range min (V)     -10.000
E range max (V)     10.000
I Range             Auto
Bandwidth           5
nc cycles           0
goto Ns'            0
nr cycles           0
inc. cycle          0

freq/Hz	Re(Z)/Ohm	-Im(Z)/Ohm	|Z|/Ohm	Phase(Z)/deg	time/s	<Ewe>/V	<I>/mA	Cs/µF	Cp/µF	cycle number	I Range	|Ewe|/V	|I|/A	Ns	(Q-Qo)/mA.h	<Ece>/V	|Ece|/V	Phase(Zce)/deg	|Zce|/Ohm	Re(Zce)/Ohm	-Im(Zce)/Ohm	Phase(Zwe-ce)/deg	|Zwe-ce|/Ohm	Re(Zwe-ce)/Ohm	-Im(Zwe-ce)/Ohm	Re(Y)/Ohm-1	Im(Y)/Ohm-1	|Y|/Ohm-1	Phase(Y)/deg	Re(C)/nF	Im(C)/nF	|C|/nF	Phase(C)/deg	Re(M)	Im(M)	|M|	Phase(M)/deg	Re(Permittivity)	Im(Permittivity)	|Permittivity|	Phase(Permittivity)/deg	Re(Resistivity)/Ohm.cm	Im(Resistivity)/Ohm.cm	|Resistivity|/Ohm.cm	Phase(Resistivity)/deg	Re(Conductivity)/mS/cm	Im(Conductivity)/mS/cm	|Conductivity|/mS/cm	Phase(Conductivity)/deg	Tan(Delta)	Loss Angle(Delta)/deg	dq/mA.h	Pwe/W	Pce/W	Pwe-ce/W	<Ewe-Ece>/V	Rwe/Ohm	Rce/Ohm	Rwe-ce/Ohm		Ewe-Ece/V
1.00002e+06	0.902889	-0.322193	0.958653	19.6388	2.69356	3.82611	0.036765	-0.493965	-0.0557962	1	9	0.000214526	0.000223779	0	-5.5804e-06	0.000415931	0.00018767	13.3359	0.838642	0.816028	-0.19344	16.698	1.79459	1.71892	-0.515633	0.982451	-0.350585	1.04313	-19.6388	-55.7962	156.359	166.016	-109.639	0.0000000E+000	0.0000000E+000	0.0000000E+000	109.639	0.0000000E+000	0.0000000E+000	0.0000000E+000	-109.639	0.0000000E+000	0.0000000E+000	0.0000000E+000	19.6388	0.0000000E+000	0.0000000E+000	0.0000000E+000	-19.6388	2.80232	70.3612	-5.5804e-06	0.000140667	1.52917e-08	0.000140652	3.8257	104070	11.3132	104058
630957	0.534446	0.129733	0.549967	-13.6443	3.45954	3.82572	0.017969	1.94432	0.108193	1	9	0.00016385	0.000297926	0	-3.02832e-06	0.000148614	0.000109213	-100.089	0.366577	-0.0642147	0.360909	-46.2169	0.679594	0.470231	0.490643	1.76698	0.428923	1.81829	13.6443	108.193	445.709	458.653	-76.3557	0.0000000E+000	0.0000000E+000	0.0000000E+000	76.3557	0.0000000E+000	0.0000000E+000	0.0000000E+000	-76.3557	0.0000000E+000	0.0000000E+000	0.0000000E+000	-13.6443	0.0000000E+000	0.0000000E+000	0.0000000E+000	13.6443	4.11957	76.3557	1.26967e-06	6.87444e-05	2.67044e-09	6.87418e-05	3.82557	212906	8.27055	212898
398103	0.710845	0.144449	0.725373	-11.4866	4.22552	3.82581	0.0211763	2.76763	0.109753	1	9	0.000622482	0.000858154	0	1.12589e-06	-0.000252362	5.4995e-05	165.888	0.0640852	-0.062151	-0.0156256	-11.2322	0.661361	0.648693	0.128824	1.35099	0.274532	1.3786	11.4866	109.753	540.103	551.141	-78.5134	0.0000000E+000	0.0000000E+000	0.0000000E+000	78.5134	0.0000000E+000	0.0000000E+000	0.0000000E+000	-78.5134	0.0000000E+000	0.0000000E+000	0.0000000E+000	-11.4866	0.0000000E+000	0.0000000E+000	0.0000000E+000	11.4866	4.92106	78.5134	2.5371e-06	8.10164e-05	-5.34408e-09	8.10217e-05	3.82606	180665	11.9172	180677
251206	0.803842	0.377395	0.888025	-25.1495	4.99155	3.82569	0.0175216	1.67878	0.303204	1	9	0.00206748	0.00232818	0	5.88195e-06	-4.23269e-05	5.13108e-05	90.0313	0.022039	-1.20522e-05	-0.022039	-23.8492	0.878875	0.80383	0.355356	1.01934	0.47857	1.12609	25.1495	303.204	645.817	713.451	-64.8505	0.0000000E+000	0.0000000E+000	0.0000000E+000	64.8505	0.0000000E+000	0.0000000E+000	0.0000000E+000	-64.8505	0.0000000E+000	0.0000000E+000	0.0000000E+000	-25.1495	0.0000000E+000	0.0000000E+000	0.0000000E+000	25.1495	2.12998	64.8505	2.99954e-06	6.7032e-05	-7.41634e-10	6.70328e-05	3.82573	218342	2.41571	218344
158486	0.903129	0.597836	1.08307	-33.503	5.75752	3.82563	0.0218477	1.67976	0.511793	1	9	0.00514717	0.00475237	0	3.93104e-06	-0.000118703	5.36227e-05	69.0249	0.0112834	0.00403902	-0.0105357	-32.919	1.08068	0.907168	0.587301	0.769898	0.509643	0.923298	33.503	511.794	773.147	927.194	-56.497	0.0000000E+000	0.0000000E+000	0.0000000E+000	56.497	0.0000000E+000	0.0000000E+000	0.0000000E+000	-56.497	0.0000000E+000	0.0000000E+000	0.0000000E+000	-33.503	0.0000000E+000	0.0000000E+000	0.0000000E+000	33.503	1.51066	56.497	2.45631e-06	8.35812e-05	-2.59339e-09	8.35838e-05	3.82575	175105	5.43322	175110
100004	1.0792	0.841652	1.36859	-37.9501	6.52555	3.8256	0.019983	1.89091	0.715134	1	9	0.00543385	0.00397039	0	4.43923e-06	5.31434e-05	4.08137e-05	68.144	0.0102795	0.00382682	-0.00954065	-37.5358	1.36578	1.08303	0.832111	0.576172	0.449348	0.730677	37.9501	715.134	916.973	1162.87	-52.0499	0.0000000E+000	0.0000000E+000	0.0000000E+000	52.0499	0.0000000E+000	0.0000000E+000	0.0000000E+000	-52.0499	0.0000000E+000	0.0000000E+000	0.0000000E+000	-37.9501	0.0000000E+000	0.0000000E+000	0.0000000E+000	37.9501	1.28224	52.0498	-2.08804e-06	7.64467e-05	1.06196e-09	7.64457e-05	3.82554	191443	2.65944	191440
63093.8	1.34423	1.12	1.74967	-39.8008	7.29153	3.82559	0.0177454	2.25224	0.922865	1	9	0.00534879	0.00305702	0	-3.50518e-06	0.00012952	2.33227e-05	46.416	0.00762922	0.00525971	-0.00552633	-39.5516	1.75019	1.34949	1.11448	0.439096	0.365851	0.571535	39.8008	922.865	1107.62	1441.7	-50.1992	0.0000000E+000	0.0000000E+000	0.0000000E+000	50.1992	0.0000000E+000	0.0000000E+000	0.0000000E+000	-50.1992	0.0000000E+000	0.0000000E+000	0.0000000E+000	-39.8008	0.0000000E+000	0.0000000E+000	0.0000000E+000	39.8008	1.2002	50.1992	1.20586e-07	6.78864e-05	2.29837e-09	6.78841e-05	3.82546	215583	7.29879	215575
39814.1	1.72004	1.3992	2.21727	-39.1273	8.05756	3.82558	0.012114	2.85696	1.1377	1	9	0.00528846	0.00238512	0	3.37798e-07	-4.23269e-05	1.29186e-05	30.7671	0.00541633	0.004654	-0.00277073	-38.996	2.21914	1.72469	1.39643	0.349865	0.284605	0.451005	39.1273	1137.7	1398.57	1802.87	-50.8727	0.0000000E+000	0.0000000E+000	0.0000000E+000	50.8727	0.0000000E+000	0.0000000E+000	0.0000000E+000	-50.8727	0.0000000E+000	0.0000000E+000	0.0000000E+000	-39.1273	0.0000000E+000	0.0000000E+000	0.0000000E+000	39.1273	1.2293	50.8727	1.0962e-06	4.63431e-05	-5.12749e-10	4.63436e-05	3.82562	315798	3.49405	315802
25116.9	2.19681	1.6567	2.75148	-37.0214	8.82554	3.82558	0.0248684	3.82481	1.38665	1	9	0.00528646	0.00192132	0	1.82987e-06	-0.000137797	1.27524e-05	69.1075	0.00663732	0.00236698	-0.00620093	-36.8885	2.74964	2.19918	1.6505	0.290175	0.218833	0.363441	37.0214	1386.65	1838.71	2302.97	-52.9786	0.0000000E+000	0.0000000E+000	0.0000000E+000	52.9786	0.0000000E+000	0.0000000E+000	0.0000000E+000	-52.9786	0.0000000E+000	0.0000000E+000	0.0000000E+000	-37.0214	0.0000000E+000	0.0000000E+000	0.0000000E+000	37.0214	1.32601	52.9786	2.04117e-07	9.51361e-05	-3.4268e-09	9.51395e-05	3.82572	153833	5.54106	153839
15847.7	2.73668	1.8665	3.31258	-34.2952	9.59152	3.82558	0.0261363	5.38056	1.70824	1	9	0.00519459	0.00156814	0	6.14354e-06	-0.00029055	1.35887e-05	-116.373	0.0086655	-0.00384934	0.00776361	-34.4436	3.31379	2.73283	1.87426	0.249396	0.170096	0.301879	34.2952	1708.24	2504.63	3031.71	-55.7048	0.0000000E+000	0.0000000E+000	0.0000000E+000	55.7048	0.0000000E+000	0.0000000E+000	0.0000000E+000	-55.7048	0.0000000E+000	0.0000000E+000	0.0000000E+000	-34.2952	0.0000000E+000	0.0000000E+000	0.0000000E+000	34.2952	1.46621	55.7048	2.214e-06	9.99866e-05	-7.59391e-09	9.99942e-05	3.82587	146370	11.1167	146381
10002.2	3.29942	2.09905	3.91052	-32.464	10.3575	3.82558	0.0125615	7.58056	2.18412	1	9	0.00518778	0.00132662	0	1.01667e-05	7.22374e-05	8.40874e-06	-52.0925	0.00633846	0.00389427	0.00500107	-32.4952	3.91649	3.30331	2.10405	0.215759	0.137263	0.255721	32.464	2184.12	3433.14	4069.02	-57.536	0.0000000E+000	0.0000000E+000	0.0000000E+000	57.536	0.0000000E+000	0.0000000E+000	0.0000000E+000	-57.536	0.0000000E+000	0.0000000E+000	0.0000000E+000	-32.464	0.0000000E+000	0.0000000E+000	0.0000000E+000	32.464	1.57186	57.536	1.93622e-06	4.80549e-05	9.07409e-10	4.8054e-05	3.82551	304548	5.75071	304542
6309.38	3.85851	2.3596	4.52281	-31.4471	11.0316	3.82556	-0.0265577	10.6904	2.90974	1	10	0.00522193	0.00115457	0	7.82891e-06	-9.96091e-05	1.16918e-05	-164.922	0.0101265	-0.00977792	0.00263419	-31.5403	4.51585	3.84874	2.36224	0.188626	0.115351	0.221101	31.4471	2909.74	4758.12	5577.31	-58.5529	0.0000000E+000	0.0000000E+000	0.0000000E+000	58.5529	0.0000000E+000	0.0000000E+000	0.0000000E+000	-58.5529	0.0000000E+000	0.0000000E+000	0.0000000E+000	-31.4471	0.0000000E+000	0.0000000E+000	0.0000000E+000	31.4471	1.63524	58.5529	-9.72134e-07	-0.000101598	2.64539e-09	-0.000101601	3.82566	144047	3.75067	144051
3983.6	4.54218	2.67465	5.27116	-30.4916	11.594	3.82554	-0.0262781	14.9375	3.8459	1	10	0.00527029	0.000999835	0	3.1653e-06	-0.000118703	7.47291e-06	-124.197	0.00747414	-0.00420073	0.00618195	-30.5727	5.27068	4.53798	2.68083	0.163475	0.0962618	0.189712	30.4916	3845.9	6531.25	7579.46	-59.5084	0.0000000E+000	0.0000000E+000	0.0000000E+000	59.5084	0.0000000E+000	0.0000000E+000	0.0000000E+000	-59.5084	0.0000000E+000	0.0000000E+000	0.0000000E+000	-30.4916	0.0000000E+000	0.0000000E+000	0.0000000E+000	30.4916	1.69823	59.5084	-1.96616e-06	-0.000100528	3.11929e-09	-0.000100531	3.82566	145579	4.5172	145584
2510.8	5.35556	3.05546	6.16586	-29.7057	12.4188	3.82551	-0.0251407	20.7459	5.09444	1	10	0.00508415	0.000824565	0	-2.24685e-06	-0.000309644	8.51977e-06	-94.5363	0.0103324	-0.000817202	0.0103001	-29.7925	6.17026	5.35474	3.06576	0.14087	0.0803691	0.162183	29.7057	5094.44	8929.46	10280.5	-60.2943	0.0000000E+000	0.0000000E+000	0.0000000E+000	60.2943	0.0000000E+000	0.0000000E+000	0.0000000E+000	-60.2943	0.0000000E+000	0.0000000E+000	0.0000000E+000	-29.7057	0.0000000E+000	0.0000000E+000	0.0000000E+000	29.7057	1.75278	60.2943	-2.7659e-06	-9.61761e-05	7.78468e-09	-9.61839e-05	3.82582	152164	12.3164	152176
1585.51	6.31274	3.45217	7.19501	-28.6724	13.3208	3.8255	-0.0253645	29.0777	6.69393	1	10	0.00492593	0.000684631	0	-8.32062e-06	-9.96091e-05	1.2286e-05	38.7619	0.0179454	0.013993	-0.0112354	-28.5405	7.20192	6.32674	3.44094	0.121942	0.0666852	0.138985	28.6724	6693.93	12240.7	13951.5	-61.3276	0.0000000E+000	0.0000000E+000	0.0000000E+000	61.3276	0.0000000E+000	0.0000000E+000	0.0000000E+000	-61.3276	0.0000000E+000	0.0000000E+000	0.0000000E+000	-28.6724	0.0000000E+000	0.0000000E+000	0.0000000E+000	28.6724	1.82863	61.3276	-2.46818e-06	-9.70318e-05	2.52653e-09	-9.70343e-05	3.8256	150821	3.92711	150825
1000.32	7.44927	3.85961	8.38977	-27.3895	14.2228	3.82549	-0.0250997	41.2228	8.72417	1	10	0.00483332	0.000576097	0	-1.39874e-05	-6.1421e-05	1.0485e-05	-108.295	0.0182	-0.00571304	0.0172801	-27.5122	8.39267	7.44356	3.87689	0.105831	0.0548331	0.119193	27.3895	8724.17	16838.2	18964	-62.6105	0.0000000E+000	0.0000000E+000	0.0000000E+000	62.6105	0.0000000E+000	0.0000000E+000	0.0000000E+000	-62.6105	0.0000000E+000	0.0000000E+000	0.0000000E+000	-27.3895	0.0000000E+000	0.0000000E+000	0.0000000E+000	27.3895	1.93006	62.6105	-3.07485e-06	-9.60189e-05	1.54165e-09	-9.60204e-05	3.82555	152412	2.44708	152414
631.01	8.78523	4.19137	9.73385	-25.5055	15.1236	3.8255	-0.0246113	60.1767	11.1576	1	10	0.00478165	0.000491239	0	-2.07109e-05	-2.32329e-05	9.70162e-06	91.4752	0.0197493	-0.000508414	-0.0197427	-25.4018	9.7249	8.78472	4.17163	0.0927222	0.0442371	0.102734	25.5055	11157.6	23386.7	25911.9	-64.4945	0.0000000E+000	0.0000000E+000	0.0000000E+000	64.4945	0.0000000E+000	0.0000000E+000	0.0000000E+000	-64.4945	0.0000000E+000	0.0000000E+000	0.0000000E+000	-25.5055	0.0000000E+000	0.0000000E+000	0.0000000E+000	25.5055	2.09603	64.4945	-3.24182e-06	-9.41504e-05	5.7179e-10	-9.41509e-05	3.82552	155437	0.943994	155438
398.089	10.2797	4.2763	11.1337	-22.587	16.0249	3.82549	-0.0244472	93.4913	13.792	1	10	0.00475171	0.000426786	0	-2.6899e-05	-8.05151e-05	8.61404e-06	72.3848	0.0201835	0.00610797	-0.0192371	-22.4835	11.132	10.2858	4.25707	0.0829281	0.0344976	0.0898173	22.587	13792	33154.4	35908.7	-67.413	0.0000000E+000	0.0000000E+000	0.0000000E+000	67.413	0.0000000E+000	0.0000000E+000	0.0000000E+000	-67.413	0.0000000E+000	0.0000000E+000	0.0000000E+000	-22.587	0.0000000E+000	0.0000000E+000	0.0000000E+000	22.587	2.40388	67.413	-2.97052e-06	-9.35225e-05	1.96837e-09	-9.35245e-05	3.82557	156480	3.29343	156483
251.044	11.8486	4.1013	12.5383	-19.0929	16.923	3.8255	-0.0248797	154.578	16.539	1	10	0.00474118	0.000378135	0	-3.2374e-05	-0.000214174	7.96644e-06	-41.8665	0.0210677	0.0156892	0.0140606	-19.1301	12.5578	11.8643	4.11536	0.075368	0.026088	0.0797553	19.0929	16539	47781.1	50562.6	-70.9071	0.0000000E+000	0.0000000E+000	0.0000000E+000	70.9071	0.0000000E+000	0.0000000E+000	0.0000000E+000	-70.9071	0.0000000E+000	0.0000000E+000	0.0000000E+000	-19.0929	0.0000000E+000	0.0000000E+000	0.0000000E+000	19.0929	2.88899	70.9071	-2.68814e-06	-9.51774e-05	5.32858e-09	-9.51827e-05	3.82571	153759	8.60835	153768
158.428	13.2177	3.58142	13.6943	-15.1606	17.8279	3.8255	-0.0237872	280.499	19.185	1	10	0.00473778	0.000345967	0	-3.73582e-05	5.31434e-05	1.15548e-05	24.4795	0.0333985	0.0303963	-0.0138392	-15.0717	13.7201	13.2481	3.56758	0.0704815	0.0190974	0.073023	15.1606	19185	70804.8	73357.9	-74.8394	0.0000000E+000	0.0000000E+000	0.0000000E+000	74.8394	0.0000000E+000	0.0000000E+000	0.0000000E+000	-74.8394	0.0000000E+000	0.0000000E+000	0.0000000E+000	-15.1606	0.0000000E+000	0.0000000E+000	0.0000000E+000	15.1606	3.69063	74.8394	-2.70264e-06	-9.0998e-05	-1.26413e-09	-9.09967e-05	3.82545	160822	2.23412	160820
100.032	14.2396	2.89352	14.5306	-11.4862	18.7268	3.8255	-0.0248536	549.863	21.8041	1	10	0.0047337	0.000325774	0	-4.34908e-05	-0.000118703	5.07403e-06	10.1676	0.0155753	0.0153307	-0.00274948	-11.4636	14.5451	14.255	2.89077	0.0674418	0.0137043	0.0688201	11.4862	21804.1	107303	109495	-78.5138	0.0000000E+000	0.0000000E+000	0.0000000E+000	78.5138	0.0000000E+000	0.0000000E+000	0.0000000E+000	-78.5138	0.0000000E+000	0.0000000E+000	0.0000000E+000	-11.4862	0.0000000E+000	0.0000000E+000	0.0000000E+000	11.4862	4.92121	78.5138	-3.05067e-06	-9.50776e-05	2.95021e-09	-9.50805e-05	3.82562	153921	4.77609	153926
63.0823	14.9886	2.23341	15.1541	-8.47513	19.6429	3.82551	-0.0233062	1129.65	24.537	1	10	0.00474027	0.000312805	0	-4.89548e-05	-0.000137797	9.04417e-06	-107.036	0.0289132	-0.00847091	0.0276444	-8.58326	15.1498	14.9802	2.26106	0.0652681	0.00972543	0.0659887	8.47513	24537	164670	166488	-81.5249	0.0000000E+000	0.0000000E+000	0.0000000E+000	81.5249	0.0000000E+000	0.0000000E+000	0.0000000E+000	-81.5249	0.0000000E+000	0.0000000E+000	0.0000000E+000	-8.47513	0.0000000E+000	0.0000000E+000	0.0000000E+000	8.47513	6.71108	81.5249	-3.09488e-06	-8.91579e-05	3.21152e-09	-8.91611e-05	3.82565	164142	5.91248	164147
39.8089	15.4002	1.60665	15.4838	-5.95591	20.5438	3.8255	-0.0241377	2488.39	26.792	1	10	0.00473976	0.000306111	0	-5.49053e-05	-0.000118703	1.8659e-05	66.2751	0.060955	0.024525	-0.0558035	-5.74137	15.5025	15.4247	1.55084	0.064235	0.0067014	0.0645837	5.95591	26792	256810	258204	-84.0441	0.0000000E+000	0.0000000E+000	0.0000000E+000	84.0441	0.0000000E+000	0.0000000E+000	0.0000000E+000	-84.0441	0.0000000E+000	0.0000000E+000	0.0000000E+000	-5.95591	0.0000000E+000	0.0000000E+000	0.0000000E+000	5.95591	9.58531	84.0441	-2.83478e-06	-9.23387e-05	2.86522e-09	-9.23416e-05	3.82562	158486	4.91775	158491
25.1044	15.6505	1.20124	15.6965	-4.38909	21.423	3.8255	-0.0245702	5277.64	30.9096	1	10	0.00473482	0.000301648	0	-6.05763e-05	-4.13882e-06	1.40944e-05	12.308	0.0467246	0.0456506	-0.00996014	-4.34022	15.7413	15.6961	1.19128	0.0635215	0.00487555	0.0637084	4.38909	30909.6	402708	403893	-85.6109	0.0000000E+000	0.0000000E+000	0.0000000E+000	85.6109	0.0000000E+000	0.0000000E+000	0.0000000E+000	-85.6109	0.0000000E+000	0.0000000E+000	0.0000000E+000	-4.38909	0.0000000E+000	0.0000000E+000	0.0000000E+000	4.38909	13.0286	85.6109	-3.1823e-06	-9.39935e-05	1.01692e-10	-9.39936e-05	3.82551	155696	0.168448	155697
15.8576	15.8858	0.941265	15.9136	-3.39093	22.548	3.82554	-0.0229089	10662.8	37.3041	1	11	0.00472476	0.0002969	0	-6.65146e-05	-0.000271456	1.13333e-05	74.9731	0.038172	0.00989696	-0.0368667	-3.25638	15.9214	15.8957	0.904398	0.0627292	0.00371684	0.0628392	3.39093	37304.1	629583	630687	-86.6091	0.0000000E+000	0.0000000E+000	0.0000000E+000	86.6091	0.0000000E+000	0.0000000E+000	0.0000000E+000	-86.6091	0.0000000E+000	0.0000000E+000	0.0000000E+000	-3.39093	0.0000000E+000	0.0000000E+000	0.0000000E+000	3.39093	16.877	86.6091	-1.63717e-06	-8.76391e-05	6.21876e-09	-8.76453e-05	3.82582	166989	11.8493	167001
10.0032	16.0526	0.775899	16.0714	-2.76722	23.5288	3.82554	-0.0224935	20505.8	47.7948	1	11	0.00473087	0.000294366	0	-7.36144e-05	-2.32329e-05	3.31939e-06	-29.747	0.0112764	0.00979044	0.00559501	-2.78545	16.0814	16.0624	0.781494	0.0621499	0.003004	0.0622225	2.76722	47794.8	988830	989985	-87.2328	0.0000000E+000	0.0000000E+000	0.0000000E+000	87.2328	0.0000000E+000	0.0000000E+000	0.0000000E+000	-87.2328	0.0000000E+000	0.0000000E+000	0.0000000E+000	-2.76722	0.0000000E+000	0.0000000E+000	0.0000000E+000	2.76722	20.6891	87.2328	-5.19404e-06	-8.60498e-05	5.22589e-10	-8.60503e-05	3.82556	170073	1.03287	170074
6.31058	16.1617	0.681589	16.176	-2.41492	24.4523	3.82552	-0.023274	37002.2	65.6947	1	11	0.00472606	0.000292165	0	-7.80624e-05	-2.32329e-05	8.5848e-06	58.6113	0.0293834	0.0153041	-0.0250833	-2.32395	16.1903	16.177	0.656506	0.061765	0.00260483	0.0618199	2.41492	65694.7	1.55773e+06	1.55912e+06	-87.5851	0.0000000E+000	0.0000000E+000	0.0000000E+000	87.5851	0.0000000E+000	0.0000000E+000	0.0000000E+000	-87.5851	0.0000000E+000	0.0000000E+000	0.0000000E+000	-2.41492	0.0000000E+000	0.0000000E+000	0.0000000E+000	2.41492	23.7117	87.5851	-4.07559e-06	-8.90351e-05	5.40722e-10	-8.90356e-05	3.82554	164369	0.998234	164370
3.97785	16.306	0.642614	16.3186	-2.25684	25.4593	3.82554	-0.0217207	62261.7	96.5504	1	11	0.00473378	0.000290084	0	-8.31105e-05	-0.000309644	3.1971e-06	74.4394	0.0110213	0.00295654	-0.0106173	-2.21919	16.3212	16.3089	0.631997	0.0612321	0.00241314	0.0612796	2.25684	96550.4	2.44991e+06	2.45182e+06	-87.7432	0.0000000E+000	0.0000000E+000	0.0000000E+000	87.7432	0.0000000E+000	0.0000000E+000	0.0000000E+000	-87.7432	0.0000000E+000	0.0000000E+000	0.0000000E+000	-2.25684	0.0000000E+000	0.0000000E+000	0.0000000E+000	2.25684	25.3744	87.7432	-4.55456e-07	-8.30933e-05	6.72567e-09	-8.31e-05	3.82585	176124	14.2557	176139
2.51367	16.4451	0.687979	16.4594	-2.39557	27.0189	3.82554	-0.0204812	92031.4	160.789	1	11	0.00473401	0.000287617	0	-9.07303e-05	-0.000175985	2.99145e-06	-101.928	0.0104008	-0.00214961	0.0101763	-2.43128	16.4577	16.4429	0.698155	0.0607023	0.00253948	0.0607554	2.39557	160789	3.84341e+06	3.84677e+06	-87.6044	0.0000000E+000	0.0000000E+000	0.0000000E+000	87.6044	0.0000000E+000	0.0000000E+000	0.0000000E+000	-87.6044	0.0000000E+000	0.0000000E+000	0.0000000E+000	-2.39557	0.0000000E+000	0.0000000E+000	0.0000000E+000	2.39557	23.9034	87.6044	-6.49135e-06	-7.83517e-05	3.60439e-09	-7.83553e-05	3.82572	186783	8.59254	186792
1.58469	16.5751	0.747262	16.5919	-2.58134	29.4544	3.82554	-0.0204653	134402	272.619	1	11	0.0047297	0.00028506	0	-0.000113987	0.00022499	2.08329e-06	0.46509	0.00730823	0.00730799	-5.93228e-05	-2.58	16.5992	16.5824	0.747203	0.0602092	0.00271444	0.0602703	2.58134	272619	6.04699e+06	6.05314e+06	-87.4187	0.0000000E+000	0.0000000E+000	0.0000000E+000	87.4187	0.0000000E+000	0.0000000E+000	0.0000000E+000	-87.4187	0.0000000E+000	0.0000000E+000	0.0000000E+000	-2.58134	0.0000000E+000	0.0000000E+000	0.0000000E+000	2.58134	22.1811	87.4187	-1.18035e-05	-7.82908e-05	-4.60448e-09	-7.82862e-05	3.82532	186928	10.9937	186917
1.00469	16.741	0.828261	16.7614	-2.8324	240.271	3.82553	-0.011206	191258	467.015	1	11	0.00503826	0.000300586	0	-0.00208307	0.00012952	4.34758e-07	-3.54997	0.00144637	0.00144359	8.95577e-05	-2.83247	16.7629	16.7424	0.828351	0.0595878	0.00294811	0.0596607	2.8324	467015	9.43939e+06	9.45094e+06	-87.1676	0.0000000E+000	0.0000000E+000	0.0000000E+000	87.1676	0.0000000E+000	0.0000000E+000	0.0000000E+000	-87.1676	0.0000000E+000	0.0000000E+000	0.0000000E+000	-2.8324	0.0000000E+000	0.0000000E+000	0.0000000E+000	2.8324	20.2122	87.1676	-0.00196083	-4.28688e-05	-1.45139e-09	-4.28673e-05	3.8254	341383	11.5581	341371
0.632957	16.9658	0.999178	16.9952	-3.37047	240.272	3.82553	-0.011206	251654	869.837	1	11	0.00505101	0.000297203	0	-0.00208307	0.00012952	6.2827e-07	-0.393454	0.00211394	0.00211389	1.45165e-05	-3.3701	16.9973	16.9679	0.999192	0.0587385	0.00345933	0.0588403	3.37047	869836	1.47696e+07	1.47952e+07	-86.6295	0.0000000E+000	0.0000000E+000	0.0000000E+000	86.6295	0.0000000E+000	0.0000000E+000	0.0000000E+000	-86.6295	0.0000000E+000	0.0000000E+000	0.0000000E+000	-3.37047	0.0000000E+000	0.0000000E+000	0.0000000E+000	3.37047	16.9797	86.6295	0.000000000000000E+000	-4.28688e-05	-1.45139e-09	-4.28673e-05	3.8254	341383	11.5581	341371
0.401878	17.176	1.22966	17.22	-4.09493	240.273	3.82553	-0.011206	322062	1642.29	1	11	0.00506545	0.000294162	0	-0.00208307	0.00012952	5.40622e-07	0.616947	0.00183784	0.00183773	-1.9789e-05	-4.09443	17.2218	17.1778	1.22964	0.0579239	0.00414689	0.0580721	4.09493	1.64229e+06	2.29395e+07	2.29982e+07	-85.9051	0.0000000E+000	0.0000000E+000	0.0000000E+000	85.9051	0.0000000E+000	0.0000000E+000	0.0000000E+000	-85.9051	0.0000000E+000	0.0000000E+000	0.0000000E+000	-4.09493	0.0000000E+000	0.0000000E+000	0.0000000E+000	4.09493	13.968	85.9051	0.000000000000000E+000	-4.28688e-05	-1.45139e-09	-4.28673e-05	3.8254	341383	11.5581	341371
0.251173	17.5719	1.55415	17.6405	-5.05438	240.274	3.82553	-0.011206	407713	3164.59	1	11	0.00506626	0.000287195	0	-0.00208307	0.00012952	5.70299e-07	-2.42725	0.00198576	0.00198397	8.40985e-05	-5.05408	17.6425	17.5739	1.55423	0.0564674	0.00499426	0.0566878	5.05438	3.16459e+06	3.57803e+07	3.592e+07	-84.9456	0.0000000E+000	0.0000000E+000	0.0000000E+000	84.9456	0.0000000E+000	0.0000000E+000	0.0000000E+000	-84.9456	0.0000000E+000	0.0000000E+000	0.0000000E+000	-5.05438	0.0000000E+000	0.0000000E+000	0.0000000E+000	5.05438	11.3065	84.9456	0.000000000000000E+000	-4.28688e-05	-1.45139e-09	-4.28673e-05	3.8254	341383	11.5581	341371
0.160751	17.9461	1.69845	18.0263	-5.40647	240.275	3.82553	-0.011206	582925	5174.94	1	11	0.00506013	0.000280708	0	-0.00208307	0.00012952	4.89037e-07	-23.6174	0.00174216	0.00159624	0.000697956	-5.4082	18.028	17.9477	1.69915	0.0552276	0.00522684	0.0554744	5.40647	5.17495e+06	5.46793e+07	5.49236e+07	-84.5935	0.0000000E+000	0.0000000E+000	0.0000000E+000	84.5935	0.0000000E+000	0.0000000E+000	0.0000000E+000	-84.5935	0.0000000E+000	0.0000000E+000	0.0000000E+000	-5.40647	0.0000000E+000	0.0000000E+000	0.0000000E+000	5.40647	10.5662	84.5935	0.000000000000000E+000	-4.28688e-05	-1.45139e-09	-4.28673e-05	3.8254	341383	11.5581	341371
0.100469	18.3815	2.27977	18.5223	-7.07002	240.276	3.82553	-0.011206	694858	10526.6	1	11	0.00506425	0.000273414	0	-0.00208307	0.00012952	4.35194e-07	5.13972	0.00159171	0.00158531	-0.000142593	-7.06898	18.5239	18.3831	2.27963	0.0535784	0.00664508	0.053989	7.07002	1.05266e+07	8.48744e+07	8.55247e+07	-82.93	0.0000000E+000	0.0000000E+000	0.0000000E+000	82.93	0.0000000E+000	0.0000000E+000	0.0000000E+000	-82.93	0.0000000E+000	0.0000000E+000	0.0000000E+000	-7.07002	0.0000000E+000	0.0000000E+000	0.0000000E+000	7.07002	8.06287	82.93	0.000000000000000E+000	-4.28688e-05	-1.45139e-09	-4.28673e-05	3.8254	341383	11.5581	341371
0.0602816	19.1304	2.63214	19.3106	-7.83413	240.277	3.82553	-0.011206	1.00306e+06	18636.1	1	11	0.00505782	0.00026192	0	-0.00208307	0.00012952	6.47443e-07	5.70064	0.00247192	0.00245969	-0.000245538	-7.83242	19.313	19.1328	2.6319	0.0513018	0.00705861	0.0517851	7.83413	1.86361e+07	1.35446e+08	1.36722e+08	-82.1659	0.0000000E+000	0.0000000E+000	0.0000000E+000	82.1659	0.0000000E+000	0.0000000E+000	0.0000000E+000	-82.1659	0.0000000E+000	0.0000000E+000	0.0000000E+000	-7.83413	0.0000000E+000	0.0000000E+000	0.0000000E+000	7.83413	7.26797	82.1659	0.000000000000000E+000	-4.28688e-05	-1.45139e-09	-4.28673e-05	3.8254	341383	11.5581	341371
0.0401878	20.0185	2.96321	20.2366	-8.41999	240.278	3.82553	-0.011206	1.33648e+06	28655.8	1	11	0.00505931	0.000250007	0	-0.00208307	0.00012952	4.76457e-07	-38.0655	0.00190577	0.00150043	0.00117503	-8.42266	20.2383	20.02	2.96439	0.0488827	0.0072358	0.0494153	8.41999	2.86558e+07	1.93589e+08	1.95699e+08	-81.58	0.0000000E+000	0.0000000E+000	0.0000000E+000	81.58	0.0000000E+000	0.0000000E+000	0.0000000E+000	-81.58	0.0000000E+000	0.0000000E+000	0.0000000E+000	-8.41999	0.0000000E+000	0.0000000E+000	0.0000000E+000	8.41999	6.75567	81.58	0.000000000000000E+000	-4.28688e-05	-1.45139e-09	-4.28673e-05	3.8254	341383	11.5581	341371
0.0200939	21.7579	4.03092	22.1281	-10.4958	240.279	3.82553	-0.011206	1.96495e+06	65203.6	1	11	0.00505961	0.000228651	0	-0.00208307	0.00012952	5.54553e-07	-57.8214	0.00242533	0.00129163	0.00205278	-10.5004	22.1298	21.7592	4.03297	0.0444353	0.00823218	0.0451914	10.4958	6.52036e+07	3.51952e+08	3.57941e+08	-79.5042	0.0000000E+000	0.0000000E+000	0.0000000E+000	79.5042	0.0000000E+000	0.0000000E+000	0.0000000E+000	-79.5042	0.0000000E+000	0.0000000E+000	0.0000000E+000	-10.4958	0.0000000E+000	0.0000000E+000	0.0000000E+000	10.4958	5.39775	79.5042	0.000000000000000E+000	-4.28688e-05	-1.45139e-09	-4.28673e-05	3.8254	341383	11.5581	341371
0.00796479	26.6948	4.54497	27.079	-9.66233	20329.1	3.82554	-3.55671e-05	4.39658e+06	123855	1	11	0.00505411	0.000186643	0	-0.0121495	0.00022499	6.61348e-07	168.204	0.00354338	-0.00346855	-0.000724373	-9.66205	27.0754	26.6913	4.54424	0.0364052	0.00619822	0.036929	9.66233	1.23855e+08	7.2746e+08	7.37928e+08	-80.3377	0.0000000E+000	0.0000000E+000	0.0000000E+000	80.3377	0.0000000E+000	0.0000000E+000	0.0000000E+000	-80.3377	0.0000000E+000	0.0000000E+000	0.0000000E+000	-9.66233	0.0000000E+000	0.0000000E+000	0.0000000E+000	9.66233	5.87349	80.3377	-0.0100664	-1.36063e-07	-8.00223e-12	-1.36055e-07	3.82531	1.07558e+08	6325.8	1.07552e+08
0.00497799	28.0882	4.44093	28.4371	-8.98446	20329.1	3.82554	-3.55671e-05	7.19933e+06	175577	1	11	0.00506063	0.000177958	0	-0.0121495	0.00022499	6.62514e-07	-150.988	0.00372286	-0.00325571	0.00180556	-8.98908	28.4342	28.085	4.44274	0.0347338	0.00549164	0.0351653	8.98446	1.75577e+08	1.1105e+09	1.12429e+09	-81.0155	0.0000000E+000	0.0000000E+000	0.0000000E+000	81.0155	0.0000000E+000	0.0000000E+000	0.0000000E+000	-81.0155	0.0000000E+000	0.0000000E+000	0.0000000E+000	-8.98446	0.0000000E+000	0.0000000E+000	0.0000000E+000	8.98446	6.32485	81.0155	0.000000000000000E+000	-1.36063e-07	-8.00223e-12	-1.36055e-07	3.82531	1.07558e+08	6325.8	1.07552e+08
0.00318591	28.9865	6.05128	29.6114	-11.7918	20329.1	3.82554	-3.55671e-05	8.25541e+06	344759	1	11	0.00506261	0.000170968	0	-0.0121495	0.00022499	7.96998e-07	-152.574	0.00466168	-0.00413774	0.00214718	-11.7975	29.6078	28.9824	6.05343	0.0330581	0.00690127	0.0337708	11.7918	3.44759e+08	1.65144e+09	1.68705e+09	-78.2082	0.0000000E+000	0.0000000E+000	0.0000000E+000	78.2082	0.0000000E+000	0.0000000E+000	0.0000000E+000	-78.2082	0.0000000E+000	0.0000000E+000	0.0000000E+000	-11.7918	0.0000000E+000	0.0000000E+000	0.0000000E+000	11.7918	4.79014	78.2082	0.000000000000000E+000	-1.36063e-07	-8.00223e-12	-1.36055e-07	3.82531	1.07558e+08	6325.8	1.07552e+08
0.0019912	29.8133	7.14934	30.6586	-13.4851	20329.1	3.82554	-3.55671e-05	1.118e+07	607950	1	11	0.00506581	0.000165233	0	-0.0121495	0.00022499	2.20712e-07	-1.23744	0.00133576	0.00133545	2.88467e-05	-13.4846	30.6599	29.8147	7.14936	0.0317181	0.0076061	0.0326173	13.4851	6.07951e+08	2.5352e+09	2.60708e+09	-76.5149	0.0000000E+000	0.0000000E+000	0.0000000E+000	76.5149	0.0000000E+000	0.0000000E+000	0.0000000E+000	-76.5149	0.0000000E+000	0.0000000E+000	0.0000000E+000	-13.4851	0.0000000E+000	0.0000000E+000	0.0000000E+000	13.4851	4.17008	76.5149	0.000000000000000E+000	-1.36063e-07	-8.00223e-12	-1.36055e-07	3.82531	1.07558e+08	6325.8	1.07552e+08
0.00129428	29.392	9.26007	30.8162	-17.4873	20329.1	3.82554	-3.55671e-05	1.32794e+07	1.19908e+06	1	11	0.00506728	0.000164436	0	-0.0121495	0.00022499	5.35201e-07	159.383	0.00325478	-0.00304632	-0.00114609	-17.4869	30.813	29.389	9.25893	0.0309507	0.00975115	0.0324504	17.4873	1.19908e+09	3.80595e+09	3.99037e+09	-72.5127	0.0000000E+000	0.0000000E+000	0.0000000E+000	72.5127	0.0000000E+000	0.0000000E+000	0.0000000E+000	-72.5127	0.0000000E+000	0.0000000E+000	0.0000000E+000	-17.4873	0.0000000E+000	0.0000000E+000	0.0000000E+000	17.4873	3.17406	72.5127	0.000000000000000E+000	-1.36063e-07	-8.00223e-12	-1.36055e-07	3.82531	1.07558e+08	6325.8	1.07552e+08
0.000796479	31.4647	12.9811	34.0373	-22.4192	20329.1	3.82554	-3.55671e-05	1.53934e+07	2.23897e+06	1	11	0.00506409	0.000148781	0	-0.0121495	0.00022499	7.16553e-07	-136.141	0.00481617	-0.00347268	0.00333706	-22.4266	34.0354	31.4612	12.9845	0.027159	0.0112048	0.0293795	22.4192	2.23897e+09	5.427e+09	5.87071e+09	-67.5808	0.0000000E+000	0.0000000E+000	0.0000000E+000	67.5808	0.0000000E+000	0.0000000E+000	0.0000000E+000	-67.5808	0.0000000E+000	0.0000000E+000	0.0000000E+000	-22.4192	0.0000000E+000	0.0000000E+000	0.0000000E+000	22.4192	2.42388	67.5808	0.000000000000000E+000	-1.36063e-07	-8.00223e-12	-1.36055e-07	3.82531	1.07558e+08	6325.8	1.07552e+08
0.000497799	31.394	19.1051	36.7504	-31.323	20329.1	3.82554	-3.55671e-05	1.67346e+07	4.52264e+06	1	11	0.00506583	0.000137844	0	-0.0121495	0.00022499	3.97419e-07	153.843	0.0028831	-0.00258785	-0.00127095	-31.3234	36.7475	31.3915	19.1039	0.0232446	0.0141457	0.0272106	31.323	4.52264e+09	7.43171e+09	8.69969e+09	-58.677	0.0000000E+000	0.0000000E+000	0.0000000E+000	58.677	0.0000000E+000	0.0000000E+000	0.0000000E+000	-58.677	0.0000000E+000	0.0000000E+000	0.0000000E+000	-31.323	0.0000000E+000	0.0000000E+000	0.0000000E+000	31.323	1.64323	58.677	0.000000000000000E+000	-1.36063e-07	-8.00223e-12	-1.36055e-07	3.82531	1.07558e+08	6325.8	1.07552e+08
0.000298679	31.8018	28.8513	42.9389	-42.2151	20329.1	3.82554	-3.55671e-05	1.84692e+07	8.33831e+06	1	11	0.00506944	0.000118062	0	-0.0121495	0.00022499	5.15396e-07	9.57636	0.00436548	0.00430465	-0.00072625	-42.2105	42.9416	31.8061	28.8506	0.0172484	0.0156482	0.0232889	42.2151	8.33831e+09	9.19102e+09	1.24098e+10	-47.7849	0.0000000E+000	0.0000000E+000	0.0000000E+000	47.7849	0.0000000E+000	0.0000000E+000	0.0000000E+000	-47.7849	0.0000000E+000	0.0000000E+000	0.0000000E+000	-42.2151	0.0000000E+000	0.0000000E+000	0.0000000E+000	42.2151	1.10226	47.7849	0.000000000000000E+000	-1.36063e-07	-8.00223e-12	-1.36055e-07	3.82531	1.07558e+08	6325.8	1.07552e+08
9.95598e-05	41.43	91.8232	100.737	-65.7155	20329.1	3.82554	-3.55671e-05	1.74094e+07	1.44647e+07	1	11	0.00506097	5.02394e-05	0	-0.0121495	0.00022499	3.76957e-06	-92.0396	0.0750322	-0.0026704	0.0749846	-65.7344	100.804	41.4273	91.8982	0.0040826	0.00904845	0.00992684	65.7155	1.44647e+10	6.52638e+09	1.58689e+10	-24.2845	0.0000000E+000	0.0000000E+000	0.0000000E+000	24.2845	0.0000000E+000	0.0000000E+000	0.0000000E+000	-24.2845	0.0000000E+000	0.0000000E+000	0.0000000E+000	-65.7155	0.0000000E+000	0.0000000E+000	0.0000000E+000	65.7155	0.451193	24.2845	0.000000000000000E+000	-1.36063e-07	-8.00223e-12	-1.36055e-07	3.82531	1.07558e+08	6325.8	1.07552e+08