File: txt/18503_R303_UC88_11mm_SOC50_C02.mpt
EC-Lab ASCII FILE
Nb header lines : 65

Potentio Electrochemical Impedance Spectroscopy

Run on channel : 2 (SN 66139)
User :
CE vs. WE compliance from -10 V to 10 V
Electrode connection : standard
Potential control : Ewe
Ewe ctrl range : min = -10.00 V, max = 10.00 V
Safety Limits :
	Do not start on E overload
Acquisition started on : 10/20/2025 14:14:46.495
Technique started on : 10/20/2025 14:14:49.190
Loaded Setting File :  C:\Users\Celltest\OneDrive - store-dot.com\Documents\EC-Lab\Data\txt_done\UC80_17231_EIS_50SOC.mps
Saved on :
	File : 18503_R303_UC88_11mm_SOC50_C02.mpr
	Directory : C:\Users\Celltest\OneDrive - store-dot.com\Documents\EC-Lab\Data\Michael\
	Host : 169.254.61.224
Device : VMP-3e (SN .003165)
Address : USB
EC-LAB for windows v11.62 (software)
Internet server v27.00 (firmware)
Command interpretor v12.03 (firmware)
Electrode material :
Initial state :
Electrolyte :
Comments :
Electrode surface area : 0.001 cm²
Characteristic mass : 0.001 g
Equivalent Weight : 0.000 g/eq.
Density : 0.000 g/cm3
Volume (V) : 0.001 cm³
Record Ece
Cycle Definition : Charge/Discharge alternance
Mode                Multi sine
E (V)               0.0000
vs.                 Eoc
tE (h:m:s)          0:00:0.0000
record              0
dI                  0.000
unit dI             mA
dt (s)              0.000
fi                  1.000
unit fi             MHz
ff                  0.100
unit ff             mHz
Nd                  10
Points              per decade
spacing             Logarithmic
Va (mV)             5.0
pw                  0.10
Na                  2
corr                0
E range min (V)     -10.000
E range max (V)     10.000
I Range             Auto
Bandwidth           5
nc cycles           0
goto Ns'            0
nr cycles           0
inc. cycle          0

freq/Hz	Re(Z)/Ohm	-Im(Z)/Ohm	|Z|/Ohm	Phase(Z)/deg	time/s	<Ewe>/V	<I>/mA	Cs/µF	Cp/µF	cycle number	I Range	|Ewe|/V	|I|/A	Ns	(Q-Qo)/mA.h	<Ece>/V	|Ece|/V	Phase(Zce)/deg	|Zce|/Ohm	Re(Zce)/Ohm	-Im(Zce)/Ohm	Phase(Zwe-ce)/deg	|Zwe-ce|/Ohm	Re(Zwe-ce)/Ohm	-Im(Zwe-ce)/Ohm	Re(Y)/Ohm-1	Im(Y)/Ohm-1	|Y|/Ohm-1	Phase(Y)/deg	Re(C)/nF	Im(C)/nF	|C|/nF	Phase(C)/deg	Re(M)	Im(M)	|M|	Phase(M)/deg	Re(Permittivity)	Im(Permittivity)	|Permittivity|	Phase(Permittivity)/deg	Re(Resistivity)/Ohm.cm	Im(Resistivity)/Ohm.cm	|Resistivity|/Ohm.cm	Phase(Resistivity)/deg	Re(Conductivity)/mS/cm	Im(Conductivity)/mS/cm	|Conductivity|/mS/cm	Phase(Conductivity)/deg	Tan(Delta)	Loss Angle(Delta)/deg	dq/mA.h	Pwe/W	Pce/W	Pwe-ce/W	<Ewe-Ece>/V	Rwe/Ohm	Rce/Ohm	Rwe-ce/Ohm		Ewe-Ece/V
1.00002e+06	0.915866	-0.310467	0.967057	18.726	2.69454	3.82456	-0.0505777	-0.512621	-0.0528352	1	9	0.000190623	0.000197117	0	-2.69356e-05	-0.000305111	0.000173574	4.23717	0.880564	0.878158	-0.0650606	11.8225	1.8329	1.79402	-0.375527	0.979326	-0.331979	1.03407	-18.726	-52.8352	155.862	164.573	-108.726	0.0000000E+000	0.0000000E+000	0.0000000E+000	108.726	0.0000000E+000	0.0000000E+000	0.0000000E+000	-108.726	0.0000000E+000	0.0000000E+000	0.0000000E+000	18.726	0.0000000E+000	0.0000000E+000	0.0000000E+000	-18.726	2.94996	71.274	-2.69356e-05	-0.000193438	1.54318e-08	-0.000193453	3.82487	75617.6	6.03252	75623.6
630957	0.44203	0.160078	0.470122	-19.9075	3.46052	3.82448	-0.0564626	1.57576	0.182696	1	9	0.000149095	0.000317141	0	-3.88499e-05	0.000210342	0.00010723	-97.578	0.338115	-0.0445894	0.335161	-51.2522	0.634997	0.39744	0.495239	2	0.724284	2.12711	19.9075	182.696	504.487	536.549	-70.0925	0.0000000E+000	0.0000000E+000	0.0000000E+000	70.0925	0.0000000E+000	0.0000000E+000	0.0000000E+000	-70.0925	0.0000000E+000	0.0000000E+000	0.0000000E+000	-19.9075	0.0000000E+000	0.0000000E+000	0.0000000E+000	19.9075	2.76134	70.0925	-5.66826e-06	-0.00021594	-1.18764e-08	-0.000215928	3.82427	67734.8	3.72533	67731.1
398103	0.5752	0.154208	0.595513	-15.0078	4.22654	3.82462	-0.0477843	2.59249	0.17384	1	9	0.000555252	0.000932393	0	-4.90415e-05	0.00040125	4.17032e-05	-169.394	0.0447271	-0.043963	0.00823212	-17.0024	0.555518	0.531237	0.16244	1.62195	0.434835	1.67922	15.0078	173.84	648.427	671.325	-74.9922	0.0000000E+000	0.0000000E+000	0.0000000E+000	74.9922	0.0000000E+000	0.0000000E+000	0.0000000E+000	-74.9922	0.0000000E+000	0.0000000E+000	0.0000000E+000	-15.0078	0.0000000E+000	0.0000000E+000	0.0000000E+000	15.0078	3.73003	74.9922	-5.44748e-06	-0.000182757	-1.91734e-08	-0.000182738	3.82422	80039.4	8.39712	80031
251206	0.679859	0.341805	0.760946	-26.6914	4.99252	3.82456	-0.0433892	1.85358	0.37399	1	9	0.00191012	0.00251019	0	-5.77846e-05	0.000267614	1.7111e-05	87.939	0.0068166	0.000245146	-0.0068122	-26.2231	0.758131	0.680104	0.334993	1.17412	0.590297	1.31415	26.6914	373.99	743.876	832.599	-63.3086	0.0000000E+000	0.0000000E+000	0.0000000E+000	63.3086	0.0000000E+000	0.0000000E+000	0.0000000E+000	-63.3086	0.0000000E+000	0.0000000E+000	0.0000000E+000	-26.6914	0.0000000E+000	0.0000000E+000	0.0000000E+000	26.6914	1.98902	63.3086	-6.67116e-06	-0.000165945	-1.16116e-08	-0.000165933	3.82429	88145.5	6.16776	88139.3
158486	0.784222	0.540456	0.952416	-34.5731	5.75852	3.82449	-0.0401115	1.8581	0.598323	1	9	0.00511189	0.00536729	0	-6.56557e-05	0.000382159	1.90638e-05	83.6938	0.00355186	0.00039014	-0.00353037	-34.3846	0.950739	0.784612	0.536926	0.86454	0.595808	1.04996	34.5731	598.323	868.189	1054.39	-55.4269	0.0000000E+000	0.0000000E+000	0.0000000E+000	55.4269	0.0000000E+000	0.0000000E+000	0.0000000E+000	-55.4269	0.0000000E+000	0.0000000E+000	0.0000000E+000	-34.5731	0.0000000E+000	0.0000000E+000	0.0000000E+000	34.5731	1.45104	55.4269	-1.68505e-06	-0.000153406	-1.5329e-08	-0.00015339	3.82411	95346.5	9.52744	95337
100004	0.956075	0.757577	1.21984	-38.3927	6.52656	3.82442	-0.0391059	2.10076	0.810265	1	9	0.00543796	0.00445794	0	-7.51945e-05	3.42479e-07	1.93005e-05	45.8106	0.00432947	0.00301778	-0.0031044	-38.1904	1.22028	0.959093	0.754472	0.642523	0.509123	0.819782	38.3927	810.265	1022.57	1304.67	-51.6073	0.0000000E+000	0.0000000E+000	0.0000000E+000	51.6073	0.0000000E+000	0.0000000E+000	0.0000000E+000	-51.6073	0.0000000E+000	0.0000000E+000	0.0000000E+000	-38.3927	0.0000000E+000	0.0000000E+000	0.0000000E+000	38.3927	1.26202	51.6073	1.22334e-05	-0.000149557	-1.3393e-11	-0.000149557	3.82442	97796.6	0.00875775	97796.6
63093.8	1.2151	0.980797	1.56155	-38.9095	7.29654	3.8244	-0.0370574	2.5719	1.01462	1	9	0.00545788	0.00349517	0	-9.63392e-05	-0.000228748	2.05542e-05	56.0794	0.00588075	0.00328171	-0.00487992	-38.6945	1.56105	1.21838	0.975917	0.498312	0.402224	0.64039	38.9095	1014.62	1257	1615.39	-51.0905	0.0000000E+000	0.0000000E+000	0.0000000E+000	51.0905	0.0000000E+000	0.0000000E+000	0.0000000E+000	-51.0905	0.0000000E+000	0.0000000E+000	0.0000000E+000	-38.9095	0.0000000E+000	0.0000000E+000	0.0000000E+000	38.9095	1.23889	51.0905	-3.32571e-06	-0.000141722	8.47679e-09	-0.000141731	3.82463	103202	6.1728	103208
39814.1	1.55936	1.18804	1.96037	-37.3029	8.06251	3.8244	-0.0379513	3.36475	1.23578	1	9	0.00548044	0.00279562	0	-0.000102025	0.000210342	7.49024e-06	16.304	0.00267928	0.00257153	-0.000752163	-37.2399	1.96196	1.56193	1.18729	0.405762	0.30914	0.510109	37.3029	1235.77	1622.02	2039.14	-52.6971	0.0000000E+000	0.0000000E+000	0.0000000E+000	52.6971	0.0000000E+000	0.0000000E+000	0.0000000E+000	-52.6971	0.0000000E+000	0.0000000E+000	0.0000000E+000	-37.3029	0.0000000E+000	0.0000000E+000	0.0000000E+000	37.3029	1.31255	52.6971	-1.18329e-06	-0.000145141	-7.98274e-09	-0.000145133	3.82419	100771	5.54241	100766
25116.9	1.96141	1.36702	2.39079	-34.875	8.82853	3.8244	-0.0401488	4.6353	1.51547	1	9	0.00516731	0.00216134	0	-0.000116213	3.85242e-05	2.52281e-06	17.7413	0.00116724	0.00111173	-0.000355682	-34.8528	2.3915	1.96252	1.36667	0.343151	0.239163	0.418272	34.875	1515.47	2174.4	2650.41	-55.125	0.0000000E+000	0.0000000E+000	0.0000000E+000	55.125	0.0000000E+000	0.0000000E+000	0.0000000E+000	-55.125	0.0000000E+000	0.0000000E+000	0.0000000E+000	-34.875	0.0000000E+000	0.0000000E+000	0.0000000E+000	34.875	1.4348	55.125	-5.43428e-06	-0.000153545	-1.5467e-09	-0.000153544	3.82436	95255.6	0.959534	95254.6
15847.7	2.39191	1.50122	2.82398	-32.1133	9.47054	3.8244	-0.0320665	6.68977	1.89048	1	9	0.00488406	0.00172949	0	-0.000124297	-9.51117e-05	4.44957e-06	-47.0118	0.00257276	0.00175423	0.00188196	-32.1267	2.82647	2.39366	1.5031	0.29993	0.188243	0.35411	32.1133	1890.48	3012.14	3556.25	-57.8867	0.0000000E+000	0.0000000E+000	0.0000000E+000	57.8867	0.0000000E+000	0.0000000E+000	0.0000000E+000	-57.8867	0.0000000E+000	0.0000000E+000	0.0000000E+000	-32.1133	0.0000000E+000	0.0000000E+000	0.0000000E+000	32.1133	1.59332	57.8867	-3.2029e-06	-0.000122635	3.0499e-09	-0.000122638	3.82449	119265	2.96608	119268
10002.2	2.83568	1.63969	3.27562	-30.038	10.1125	3.8244	-0.0371692	9.70426	2.43164	1	9	0.00503443	0.00153694	0	-0.000130171	-0.000266929	9.71008e-06	-44.7182	0.00631779	0.00448927	0.00444533	-30.0659	3.28173	2.84017	1.64413	0.264284	0.152818	0.305286	30.038	2431.64	4205.28	4857.7	-59.962	0.0000000E+000	0.0000000E+000	0.0000000E+000	59.962	0.0000000E+000	0.0000000E+000	0.0000000E+000	-59.962	0.0000000E+000	0.0000000E+000	0.0000000E+000	-30.038	0.0000000E+000	0.0000000E+000	0.0000000E+000	30.038	1.7294	59.962	-4.17253e-06	-0.00014215	9.92154e-09	-0.00014216	3.82467	102892	7.18147	102899
6309.38	3.29533	1.81525	3.76222	-28.8483	10.6305	3.8244	-0.0347482	13.8963	3.23504	1	9	0.0047372	0.00125915	0	-0.000135636	0.000153069	9.67944e-06	0.582642	0.0076873	0.0076869	-7.8171e-05	-28.7909	3.76892	3.30302	1.81517	0.232814	0.128247	0.2658	28.8483	3235.04	5872.77	6704.84	-61.1517	0.0000000E+000	0.0000000E+000	0.0000000E+000	61.1517	0.0000000E+000	0.0000000E+000	0.0000000E+000	-61.1517	0.0000000E+000	0.0000000E+000	0.0000000E+000	-28.8483	0.0000000E+000	0.0000000E+000	0.0000000E+000	28.8483	1.81536	61.1517	-3.60457e-06	-0.000132891	-5.31888e-09	-0.000132886	3.82425	110060	4.4051	110056
3983.6	3.82927	2.03292	4.33545	-27.9634	11.3491	3.82434	-0.0503461	19.6528	4.32113	1	10	0.00479423	0.00110582	0	-0.000144198	0.00017216	7.85861e-06	-22.2376	0.00710658	0.00657801	0.00268947	-27.954	4.34252	3.83585	2.03561	0.203727	0.108157	0.230657	27.9634	4321.13	8139.41	9215.32	-62.0366	0.0000000E+000	0.0000000E+000	0.0000000E+000	62.0366	0.0000000E+000	0.0000000E+000	0.0000000E+000	-62.0366	0.0000000E+000	0.0000000E+000	0.0000000E+000	-27.9634	0.0000000E+000	0.0000000E+000	0.0000000E+000	27.9634	1.88363	62.0366	-3.51346e-06	-0.00019254	-8.66758e-09	-0.000192532	3.82416	75960.9	3.41953	75957.5
2510.8	4.44101	2.27186	4.98838	-27.0926	12.1738	3.82429	-0.0445385	27.9014	5.78722	1	10	0.00465084	0.000932335	0	-0.000153305	-0.000190566	2.21356e-05	12.328	0.0237421	0.0231946	-0.00506911	-26.9201	5.00674	4.46421	2.26679	0.178469	0.0912982	0.200466	27.0926	5787.22	11312.8	12707.1	-62.9074	0.0000000E+000	0.0000000E+000	0.0000000E+000	62.9074	0.0000000E+000	0.0000000E+000	0.0000000E+000	-62.9074	0.0000000E+000	0.0000000E+000	0.0000000E+000	-27.0926	0.0000000E+000	0.0000000E+000	0.0000000E+000	27.0926	1.95479	62.9074	-4.75604e-06	-0.000170328	8.48751e-09	-0.000170336	3.82448	85864.8	4.27868	85869.1
1585.51	5.14346	2.5417	5.7372	-26.2968	13.0758	3.82429	-0.0430074	39.4936	7.75134	1	10	0.00455837	0.000794529	0	-0.000163846	-1.87484e-05	9.80738e-06	-19.6227	0.0123436	0.0116268	0.0041453	-26.2825	5.74946	5.15509	2.54585	0.156263	0.0772191	0.174301	26.2968	7751.34	15685.8	17496.5	-63.7032	0.0000000E+000	0.0000000E+000	0.0000000E+000	63.7032	0.0000000E+000	0.0000000E+000	0.0000000E+000	-63.7032	0.0000000E+000	0.0000000E+000	0.0000000E+000	-26.2968	0.0000000E+000	0.0000000E+000	0.0000000E+000	26.2968	2.02363	63.7032	-5.44351e-06	-0.000164473	8.06318e-10	-0.000164474	3.82431	88921.7	0.435933	88922.1
1000.32	5.95378	2.81433	6.58544	-25.2999	14.1918	3.82428	-0.044192	56.5335	10.3249	1	10	0.0048736	0.000740057	0	-0.000177927	0.000133978	1.11357e-05	-21.4039	0.0150471	0.0140093	0.0054913	-25.2911	6.60045	5.96779	2.81982	0.137285	0.0648942	0.15185	25.2999	10324.9	21842.6	24160	-64.7001	0.0000000E+000	0.0000000E+000	0.0000000E+000	64.7001	0.0000000E+000	0.0000000E+000	0.0000000E+000	-64.7001	0.0000000E+000	0.0000000E+000	0.0000000E+000	-25.2999	0.0000000E+000	0.0000000E+000	0.0000000E+000	25.2999	2.11552	64.7001	-9.06389e-06	-0.000169003	-5.92078e-09	-0.000168997	3.82415	86537.9	3.03173	86534.9
631.01	6.87746	3.06467	7.52938	-24.0183	15.0936	3.82429	-0.0447955	82.3001	13.6348	1	10	0.00482906	0.000641362	0	-0.00018836	-0.000190566	1.47281e-05	-49.0793	0.0229637	0.0150416	0.0173518	-24.0921	7.55019	6.8925	3.08202	0.121313	0.0540586	0.132813	24.0183	13634.8	30598	33498.5	-65.9817	0.0000000E+000	0.0000000E+000	0.0000000E+000	65.9817	0.0000000E+000	0.0000000E+000	0.0000000E+000	-65.9817	0.0000000E+000	0.0000000E+000	0.0000000E+000	-24.0183	0.0000000E+000	0.0000000E+000	0.0000000E+000	24.0183	2.24411	65.9817	-4.81088e-06	-0.000171311	8.5365e-09	-0.000171319	3.82448	85372.1	4.25413	85376.4
398.089	7.96617	3.23878	8.59939	-22.125	15.9948	3.82429	-0.0426088	123.441	17.51	1	10	0.00481362	0.000559762	0	-0.000198649	0.00017216	1.46342e-05	-69.4647	0.0261435	0.00917073	0.0244823	-22.2528	8.61713	7.97534	3.26326	0.107724	0.0437971	0.116287	22.125	17510	43067.9	46491.3	-67.875	0.0000000E+000	0.0000000E+000	0.0000000E+000	67.875	0.0000000E+000	0.0000000E+000	0.0000000E+000	-67.875	0.0000000E+000	0.0000000E+000	0.0000000E+000	-22.125	0.0000000E+000	0.0000000E+000	0.0000000E+000	22.125	2.45962	67.875	-5.46752e-06	-0.000162948	-7.33553e-09	-0.000162941	3.82412	89753.5	4.04048	89749.5
251.044	9.14708	3.17861	9.68362	-19.1623	16.8931	3.82429	-0.0429515	199.45	21.4897	1	10	0.00480379	0.000496074	0	-0.000209391	0.000133978	7.54278e-06	-117.126	0.0152049	-0.00693279	0.0135324	-19.2514	9.68153	9.14015	3.19214	0.0975453	0.033897	0.103267	19.1623	21489.7	61841	65468.4	-70.8377	0.0000000E+000	0.0000000E+000	0.0000000E+000	70.8377	0.0000000E+000	0.0000000E+000	0.0000000E+000	-70.8377	0.0000000E+000	0.0000000E+000	0.0000000E+000	-19.1623	0.0000000E+000	0.0000000E+000	0.0000000E+000	19.1623	2.8777	70.8377	-5.54592e-06	-0.000164259	-5.75458e-09	-0.000164253	3.82416	89037.3	3.11929	89034.2
158.428	10.2228	2.85419	10.6137	-15.5997	17.7979	3.82429	-0.0425194	351.969	25.4527	1	10	0.00478739	0.000451056	0	-0.00022056	-0.000133293	4.99911e-06	-143.774	0.0110831	-0.00894062	0.00654987	-15.6468	10.6069	10.2138	2.86074	0.0907471	0.0253365	0.0942177	15.5997	25452.7	91163.2	94649.7	-74.4003	0.0000000E+000	0.0000000E+000	0.0000000E+000	74.4003	0.0000000E+000	0.0000000E+000	0.0000000E+000	-74.4003	0.0000000E+000	0.0000000E+000	0.0000000E+000	-15.5997	0.0000000E+000	0.0000000E+000	0.0000000E+000	15.5997	3.58167	74.4003	-5.5108e-06	-0.000162607	5.66756e-09	-0.000162612	3.82443	89942.3	3.13489	89945.4
100.032	11.1099	2.375	11.361	-12.0667	18.6968	3.82428	-0.0431899	669.911	29.2762	1	10	0.00479345	0.000421922	0	-0.000230754	-1.87484e-05	5.19637e-06	132.668	0.0123159	-0.00834716	-0.00905578	-12.0308	11.3509	11.1016	2.36595	0.0860759	0.0184007	0.0880207	12.0667	29276.2	136950	140044	-77.9334	0.0000000E+000	0.0000000E+000	0.0000000E+000	77.9334	0.0000000E+000	0.0000000E+000	0.0000000E+000	-77.9334	0.0000000E+000	0.0000000E+000	0.0000000E+000	-12.0667	0.0000000E+000	0.0000000E+000	0.0000000E+000	12.0667	4.67786	77.9334	-4.88332e-06	-0.000165171	8.09741e-10	-0.000165171	3.8243	88545.7	0.434091	88546.1
63.0823	11.7306	1.8329	11.8729	-8.88066	19.612	3.82429	-0.0390922	1376.49	32.8049	1	10	0.00478862	0.000403323	0	-0.00024115	-0.000133293	5.01982e-06	-15.6612	0.0124461	0.0119841	0.00335981	-8.88774	11.8853	11.7426	1.83626	0.0832157	0.0130025	0.0842254	8.88066	32804.9	209951	212498	-81.1193	0.0000000E+000	0.0000000E+000	0.0000000E+000	81.1193	0.0000000E+000	0.0000000E+000	0.0000000E+000	-81.1193	0.0000000E+000	0.0000000E+000	0.0000000E+000	-8.88066	0.0000000E+000	0.0000000E+000	0.0000000E+000	8.88066	6.4	81.1193	-4.69792e-06	-0.0001495	5.21074e-09	-0.000149505	3.82442	97827.4	3.40972	97830.8
39.8089	12.1048	1.38165	12.1834	-6.51155	20.5129	3.82428	-0.0413944	2893.63	37.2132	1	10	0.00476814	0.000391362	0	-0.000251961	0.000210342	2.38233e-05	6.2553	0.0608728	0.0605103	-0.00663263	-6.4486	12.2428	12.1654	1.37501	0.0815491	0.00930801	0.0820786	6.51155	37213.1	326031	328148	-83.4884	0.0000000E+000	0.0000000E+000	0.0000000E+000	83.4884	0.0000000E+000	0.0000000E+000	0.0000000E+000	-83.4884	0.0000000E+000	0.0000000E+000	0.0000000E+000	-6.51155	0.0000000E+000	0.0000000E+000	0.0000000E+000	6.51155	8.76118	83.4884	-5.43527e-06	-0.000158304	-8.70697e-09	-0.000158295	3.82407	92386.5	5.08141	92381.5
25.1044	12.395	1.02616	12.4374	-4.73265	21.3921	3.82428	-0.0419718	6178.08	42.056	1	10	0.00479719	0.000385707	0	-0.000262793	-5.69301e-05	9.12783e-06	14.6321	0.0236652	0.0228977	-0.00597811	-4.69656	12.4597	12.4179	1.02018	0.0801287	0.00663374	0.0804028	4.73265	42056	507993	509731	-85.2674	0.0000000E+000	0.0000000E+000	0.0000000E+000	85.2674	0.0000000E+000	0.0000000E+000	0.0000000E+000	-85.2674	0.0000000E+000	0.0000000E+000	0.0000000E+000	-4.73265	0.0000000E+000	0.0000000E+000	0.0000000E+000	4.73265	12.079	85.2674	-4.69191e-06	-0.000160512	2.38946e-09	-0.000160514	3.82434	91115.5	1.35639	91116.8
15.8576	12.5442	0.800997	12.5698	-3.65359	22.27	3.82428	-0.0461738	12530	50.8814	1	10	0.00478859	0.00038096	0	-0.000275406	0.00017216	5.68488e-06	-50.5134	0.0149225	0.0094892	0.0115168	-3.70318	12.58	12.5537	0.812514	0.0793942	0.00506962	0.0795559	3.65359	50881.4	796842	798464	-86.3464	0.0000000E+000	0.0000000E+000	0.0000000E+000	86.3464	0.0000000E+000	0.0000000E+000	0.0000000E+000	-86.3464	0.0000000E+000	0.0000000E+000	0.0000000E+000	-3.65359	0.0000000E+000	0.0000000E+000	0.0000000E+000	3.65359	15.6608	86.3464	-6.99623e-06	-0.000176582	-7.94929e-09	-0.000176574	3.82411	82823.5	3.72852	82819.8
10.0032	12.6999	0.633137	12.7157	-2.85404	23.4968	3.82434	-0.0320018	25129.5	62.3016	1	11	0.00479327	0.000376957	0	-0.000288221	0.000515795	9.0725e-06	93.5857	0.0240677	-0.00150523	-0.0240206	-2.74625	12.713	12.6984	0.609116	0.0785455	0.00391578	0.0786431	2.85404	62301.7	1.24969e+06	1.25124e+06	-87.146	0.0000000E+000	0.0000000E+000	0.0000000E+000	87.146	0.0000000E+000	0.0000000E+000	0.0000000E+000	-87.146	0.0000000E+000	0.0000000E+000	0.0000000E+000	-2.85404	0.0000000E+000	0.0000000E+000	0.0000000E+000	2.85404	20.0587	87.146	-6.74789e-06	-0.000122386	-1.65064e-08	-0.000122369	3.82382	119504	16.1177	119488
6.31058	12.7785	0.53645	12.7898	-2.40391	24.4203	3.82433	-0.0318736	47013.4	82.7096	1	11	0.00478029	0.000373759	0	-0.000293293	0.000191251	7.94902e-06	54.779	0.0212677	0.0122658	-0.0173743	-2.32391	12.8013	12.7908	0.519076	0.0781188	0.00327948	0.0781876	2.40391	82709.7	1.97018e+06	1.97192e+06	-87.5961	0.0000000E+000	0.0000000E+000	0.0000000E+000	87.5961	0.0000000E+000	0.0000000E+000	0.0000000E+000	-87.5961	0.0000000E+000	0.0000000E+000	0.0000000E+000	-2.40391	0.0000000E+000	0.0000000E+000	0.0000000E+000	2.40391	23.8205	87.5961	-2.6616e-06	-0.000121895	-6.09585e-09	-0.000121889	3.82414	119984	6.0003	119978
3.97785	12.888	0.526654	12.8987	-2.34004	25.4274	3.82436	-0.0306724	75970.7	126.65	1	11	0.00478485	0.000370955	0	-0.000305169	0.00040125	3.68094e-06	7.30392	0.00992286	0.00984235	-0.00126152	-2.33266	12.9085	12.8978	0.525393	0.0774625	0.00316543	0.0775271	2.34004	126650	3.09929e+06	3.10188e+06	-87.66	0.0000000E+000	0.0000000E+000	0.0000000E+000	87.66	0.0000000E+000	0.0000000E+000	0.0000000E+000	-87.66	0.0000000E+000	0.0000000E+000	0.0000000E+000	-2.34004	0.0000000E+000	0.0000000E+000	0.0000000E+000	2.34004	24.4714	87.66	-3.98316e-06	-0.000117302	-1.23073e-08	-0.00011729	3.82396	124684	13.0818	124671
2.51367	13.0002	0.548594	13.0118	-2.41638	26.987	3.82435	-0.0293159	115414	205.157	1	11	0.00479053	0.000368168	0	-0.000310366	5.7615e-05	4.25843e-06	35.5189	0.0115665	0.00941429	-0.00671983	-2.38509	13.0209	13.0097	0.541874	0.0767849	0.00324023	0.0768532	2.41638	205157	4.86169e+06	4.86601e+06	-87.5836	0.0000000E+000	0.0000000E+000	0.0000000E+000	87.5836	0.0000000E+000	0.0000000E+000	0.0000000E+000	-87.5836	0.0000000E+000	0.0000000E+000	0.0000000E+000	-2.41638	0.0000000E+000	0.0000000E+000	0.0000000E+000	2.41638	23.6974	87.5836	-4.44182e-06	-0.000112114	-1.68904e-09	-0.000112113	3.8243	130453	1.96531	130451
1.58469	13.1077	0.612866	13.122	-2.67699	29.4224	3.82435	-0.0284023	163874	357.472	1	11	0.00479022	0.000365053	0	-0.000341911	-5.69301e-05	3.30554e-06	107.121	0.00905496	-0.00266563	-0.00865372	-2.63978	13.1189	13.105	0.604213	0.0761247	0.0035593	0.0762079	2.67699	357472	7.64544e+06	7.65379e+06	-87.323	0.0000000E+000	0.0000000E+000	0.0000000E+000	87.323	0.0000000E+000	0.0000000E+000	0.0000000E+000	-87.323	0.0000000E+000	0.0000000E+000	0.0000000E+000	-2.67699	0.0000000E+000	0.0000000E+000	0.0000000E+000	2.67699	21.3875	87.323	-1.88114e-05	-0.000108621	1.61695e-09	-0.000108622	3.82441	134649	2.00442	134651
1.00469	13.2638	0.68617	13.2815	-2.96142	240.239	3.82432	-0.0167618	230863	616.2	1	11	0.00497828	0.000374827	0	-0.00293402	-0.000171475	2.26322e-07	67.2189	0.000603803	0.0002338	-0.000556701	-2.95897	13.2817	13.264	0.685613	0.0751919	0.00388987	0.0752925	2.96142	616200	1.19113e+07	1.19272e+07	-87.0386	0.0000000E+000	0.0000000E+000	0.0000000E+000	87.0386	0.0000000E+000	0.0000000E+000	0.0000000E+000	-87.0386	0.0000000E+000	0.0000000E+000	0.0000000E+000	-2.96142	0.0000000E+000	0.0000000E+000	0.0000000E+000	2.96142	19.3302	87.0386	-0.00257311	-6.41026e-05	2.87423e-09	-6.41054e-05	3.82449	228157	10.2301	228167
0.632957	13.4379	0.847485	13.4646	-3.60869	240.24	3.82432	-0.0167618	296697	1175.42	1	11	0.0049901	0.00037061	0	-0.00293402	-0.000171475	2.20425e-07	-103.749	0.000594762	-0.000141354	0.00057772	-3.61118	13.4645	13.4377	0.848063	0.0741217	0.00467463	0.074269	3.60869	1.17542e+06	1.86377e+07	1.86747e+07	-86.3913	0.0000000E+000	0.0000000E+000	0.0000000E+000	86.3913	0.0000000E+000	0.0000000E+000	0.0000000E+000	-86.3913	0.0000000E+000	0.0000000E+000	0.0000000E+000	-3.60869	0.0000000E+000	0.0000000E+000	0.0000000E+000	3.60869	15.8562	86.3913	0.000000000000000E+000	-6.41026e-05	2.87423e-09	-6.41054e-05	3.82449	228157	10.2301	228167
0.401878	13.6126	1.05614	13.6535	-4.43643	240.242	3.82432	-0.0167618	374978	2243.67	1	11	0.00500442	0.00036653	0	-0.00293402	-0.000171475	1.03075e-07	122.291	0.000281219	-0.000150232	-0.000237728	-4.43548	13.6533	13.6124	1.0559	0.0730219	0.00566544	0.0732414	4.43643	2.24368e+06	2.89188e+07	2.90057e+07	-85.5636	0.0000000E+000	0.0000000E+000	0.0000000E+000	85.5636	0.0000000E+000	0.0000000E+000	0.0000000E+000	-85.5636	0.0000000E+000	0.0000000E+000	0.0000000E+000	-4.43643	0.0000000E+000	0.0000000E+000	0.0000000E+000	4.43643	12.889	85.5636	0.000000000000000E+000	-6.41026e-05	2.87423e-09	-6.41054e-05	3.82449	228157	10.2301	228167
0.251173	13.9273	1.35945	13.9935	-5.57498	240.243	3.82432	-0.0167618	466105	4399	1	11	0.00500419	0.000357607	0	-0.00293402	-0.000171475	2.85584e-07	-126.835	0.000798597	-0.000478766	0.000639172	-5.57778	13.9931	13.9269	1.36009	0.0711236	0.00694237	0.0714616	5.57498	4.399e+06	4.50671e+07	4.52813e+07	-84.425	0.0000000E+000	0.0000000E+000	0.0000000E+000	84.425	0.0000000E+000	0.0000000E+000	0.0000000E+000	-84.425	0.0000000E+000	0.0000000E+000	0.0000000E+000	-5.57498	0.0000000E+000	0.0000000E+000	0.0000000E+000	5.57498	10.2449	84.425	0.000000000000000E+000	-6.41026e-05	2.87423e-09	-6.41054e-05	3.82449	228157	10.2301	228167
0.160751	14.2818	1.53574	14.3641	-6.13752	240.244	3.82432	-0.0167618	644686	7369.31	1	11	0.00500046	0.000348122	0	-0.00293402	-0.000171475	3.14086e-07	-48.9561	0.000902229	0.000592437	0.000680467	-6.13997	14.3648	14.2824	1.53642	0.0692189	0.00744322	0.069618	6.13752	7.36932e+06	6.85317e+07	6.89267e+07	-83.8625	0.0000000E+000	0.0000000E+000	0.0000000E+000	83.8625	0.0000000E+000	0.0000000E+000	0.0000000E+000	-83.8625	0.0000000E+000	0.0000000E+000	0.0000000E+000	-6.13752	0.0000000E+000	0.0000000E+000	0.0000000E+000	6.13752	9.2996	83.8625	0.000000000000000E+000	-6.41026e-05	2.87423e-09	-6.41054e-05	3.82449	228157	10.2301	228167
0.100469	14.667	2.06874	14.8122	-8.02845	240.245	3.82432	-0.0167618	765738	14936.7	1	11	0.00500333	0.000337785	0	-0.00293402	-0.000171475	3.41423e-07	-1.10117	0.00101077	0.00101058	1.94249e-05	-8.02798	14.8132	14.668	2.06876	0.0668502	0.00942904	0.0675119	8.02845	1.49367e+07	1.05898e+08	1.06947e+08	-81.9715	0.0000000E+000	0.0000000E+000	0.0000000E+000	81.9715	0.0000000E+000	0.0000000E+000	0.0000000E+000	-81.9715	0.0000000E+000	0.0000000E+000	0.0000000E+000	-8.02845	0.0000000E+000	0.0000000E+000	0.0000000E+000	8.02845	7.08983	81.9715	0.000000000000000E+000	-6.41026e-05	2.87423e-09	-6.41054e-05	3.82449	228157	10.2301	228167
0.0602816	15.3478	2.42876	15.5388	-8.99238	240.246	3.82432	-0.0167618	1.08705e+06	26557.4	1	11	0.00499846	0.000321677	0	-0.00293402	-0.000171475	6.32336e-07	14.808	0.00196575	0.00190046	-0.000502409	-8.98946	15.5406	15.3497	2.42826	0.0635641	0.0100589	0.0643551	8.99238	2.65574e+07	1.67821e+08	1.6991e+08	-81.0076	0.0000000E+000	0.0000000E+000	0.0000000E+000	81.0076	0.0000000E+000	0.0000000E+000	0.0000000E+000	-81.0076	0.0000000E+000	0.0000000E+000	0.0000000E+000	-8.99238	0.0000000E+000	0.0000000E+000	0.0000000E+000	8.99238	6.31919	81.0076	0.000000000000000E+000	-6.41026e-05	2.87423e-09	-6.41054e-05	3.82449	228157	10.2301	228167
0.0401878	16.1338	2.79061	16.3734	-9.81315	240.248	3.82432	-0.0167618	1.41915e+06	41223.8	1	11	0.00499784	0.000305242	0	-0.00293402	-0.000171475	3.32155e-07	-76.6397	0.00108817	0.000251448	0.00105872	-9.81665	16.3738	16.1341	2.79167	0.0601811	0.0104093	0.0610747	9.81315	4.12238e+07	2.38334e+08	2.41873e+08	-80.1869	0.0000000E+000	0.0000000E+000	0.0000000E+000	80.1869	0.0000000E+000	0.0000000E+000	0.0000000E+000	-80.1869	0.0000000E+000	0.0000000E+000	0.0000000E+000	-9.81315	0.0000000E+000	0.0000000E+000	0.0000000E+000	9.81315	5.78147	80.1869	0.000000000000000E+000	-6.41026e-05	2.87423e-09	-6.41054e-05	3.82449	228157	10.2301	228167
0.0200939	17.7742	3.86366	18.1893	-12.2638	240.249	3.82432	-0.0167618	2.05002e+06	92496.1	1	11	0.00499957	0.000274863	0	-0.00293402	-0.000171475	7.45233e-07	-36.4592	0.00271129	0.00218063	0.00161118	-12.2673	18.1918	17.7764	3.86527	0.0537228	0.011678	0.0549774	12.2638	9.2496e+07	4.25515e+08	4.35452e+08	-77.7362	0.0000000E+000	0.0000000E+000	0.0000000E+000	77.7362	0.0000000E+000	0.0000000E+000	0.0000000E+000	-77.7362	0.0000000E+000	0.0000000E+000	0.0000000E+000	-12.2638	0.0000000E+000	0.0000000E+000	0.0000000E+000	12.2638	4.60036	77.7362	0.000000000000000E+000	-6.41026e-05	2.87423e-09	-6.41054e-05	3.82449	228157	10.2301	228167
0.00796479	22.016	4.40029	22.4514	-11.3026	20329.2	3.82428	-0.00048034	4.54114e+06	174437	1	11	0.00499331	0.000222405	0	-0.0211261	-3.78392e-05	1.81786e-07	16.3068	0.000817366	0.000784485	-0.0002295	-11.3017	22.4521	22.0168	4.40006	0.0436768	0.00872958	0.0445406	11.3026	1.74437e+08	8.72763e+08	8.90025e+08	-78.6974	0.0000000E+000	0.0000000E+000	0.0000000E+000	78.6974	0.0000000E+000	0.0000000E+000	0.0000000E+000	-78.6974	0.0000000E+000	0.0000000E+000	0.0000000E+000	-11.3026	0.0000000E+000	0.0000000E+000	0.0000000E+000	11.3026	5.00331	78.6974	-0.018192	-1.83696e-06	1.81757e-11	-1.83697e-06	3.82432	7.9616e+06	78.7758	7.96168e+06
0.00497799	23.3649	4.38331	23.7725	-10.6253	20329.2	3.82428	-0.00048034	7.29397e+06	247980	1	11	0.00500145	0.000210388	0	-0.0211261	-3.78392e-05	3.99942e-07	-100.878	0.00190097	-0.00035876	0.00186681	-10.6299	23.7725	23.3646	4.38517	0.0413441	0.00775625	0.0420654	10.6253	2.4798e+08	1.32184e+09	1.3449e+09	-79.3747	0.0000000E+000	0.0000000E+000	0.0000000E+000	79.3747	0.0000000E+000	0.0000000E+000	0.0000000E+000	-79.3747	0.0000000E+000	0.0000000E+000	0.0000000E+000	-10.6253	0.0000000E+000	0.0000000E+000	0.0000000E+000	10.6253	5.33043	79.3747	0.000000000000000E+000	-1.83696e-06	1.81757e-11	-1.83697e-06	3.82432	7.9616e+06	78.7758	7.96168e+06
0.00318591	24.3013	5.81299	24.9869	-13.4526	20329.2	3.82428	-0.00048034	8.59383e+06	465116	1	11	0.00500386	0.000200259	0	-0.0211261	-3.78392e-05	2.19307e-07	-81.1984	0.00109512	0.000167568	0.00108222	-13.455	24.9873	24.3015	5.81407	0.0389229	0.00931055	0.040021	13.4526	4.65116e+08	1.94443e+09	1.99928e+09	-76.5474	0.0000000E+000	0.0000000E+000	0.0000000E+000	76.5474	0.0000000E+000	0.0000000E+000	0.0000000E+000	-76.5474	0.0000000E+000	0.0000000E+000	0.0000000E+000	-13.4526	0.0000000E+000	0.0000000E+000	0.0000000E+000	13.4526	4.18052	76.5474	0.000000000000000E+000	-1.83696e-06	1.81757e-11	-1.83697e-06	3.82432	7.9616e+06	78.7758	7.96168e+06
0.0019912	25.1281	6.74959	26.0188	-15.0352	20329.2	3.82428	-0.00048034	1.18421e+07	796907	1	11	0.00500655	0.00019242	0	-0.0211261	-3.78392e-05	4.7504e-07	-26.3173	0.00246876	0.00221288	0.0010945	-15.0362	26.0212	25.1303	6.75068	0.037118	0.00997015	0.0384337	15.0352	7.96907e+08	2.96682e+09	3.07198e+09	-74.9648	0.0000000E+000	0.0000000E+000	0.0000000E+000	74.9648	0.0000000E+000	0.0000000E+000	0.0000000E+000	-74.9648	0.0000000E+000	0.0000000E+000	0.0000000E+000	-15.0352	0.0000000E+000	0.0000000E+000	0.0000000E+000	15.0352	3.72291	74.9648	0.000000000000000E+000	-1.83696e-06	1.81757e-11	-1.83697e-06	3.82432	7.9616e+06	78.7758	7.96168e+06
0.00129428	24.7134	8.78027	26.2268	-19.5593	20329.2	3.82428	-0.00048034	1.40051e+07	1.56967e+06	1	11	0.00500672	0.000190901	0	-0.0211261	-3.78392e-05	2.88821e-07	50.9165	0.00151294	0.000953837	-0.00117439	-19.5562	26.2274	24.7144	8.7791	0.0359287	0.0127649	0.0381289	19.5593	1.56967e+09	4.41808e+09	4.68864e+09	-70.4407	0.0000000E+000	0.0000000E+000	0.0000000E+000	70.4407	0.0000000E+000	0.0000000E+000	0.0000000E+000	-70.4407	0.0000000E+000	0.0000000E+000	0.0000000E+000	-19.5593	0.0000000E+000	0.0000000E+000	0.0000000E+000	19.5593	2.81466	70.4407	0.000000000000000E+000	-1.83696e-06	1.81757e-11	-1.83697e-06	3.82432	7.9616e+06	78.7758	7.96168e+06
0.000796479	26.7481	12.3616	29.4664	-24.8039	20329.2	3.82428	-0.00048034	1.61649e+07	2.84488e+06	1	11	0.00500648	0.000169904	0	-0.0211261	-3.78392e-05	3.80879e-07	-66.9961	0.00224172	0.000876051	0.00206346	-24.8068	29.4681	26.749	12.3636	0.0308062	0.014237	0.0339369	24.8039	2.84488e+09	6.15579e+09	6.78138e+09	-65.1961	0.0000000E+000	0.0000000E+000	0.0000000E+000	65.1961	0.0000000E+000	0.0000000E+000	0.0000000E+000	-65.1961	0.0000000E+000	0.0000000E+000	0.0000000E+000	-24.8039	0.0000000E+000	0.0000000E+000	0.0000000E+000	24.8039	2.16381	65.1961	0.000000000000000E+000	-1.83696e-06	1.81757e-11	-1.83697e-06	3.82432	7.9616e+06	78.7758	7.96168e+06
0.000497799	26.5503	18.0221	32.0891	-34.1683	20329.2	3.82428	-0.00048034	1.77403e+07	5.59571e+06	1	11	0.00500673	0.000156026	0	-0.0211261	-3.78392e-05	2.99553e-07	50.4021	0.00191989	0.00122373	-0.00147935	-34.1649	32.0893	26.5515	18.0206	0.0257841	0.017502	0.0311632	34.1683	5.59571e+09	8.24364e+09	9.96341e+09	-55.8317	0.0000000E+000	0.0000000E+000	0.0000000E+000	55.8317	0.0000000E+000	0.0000000E+000	0.0000000E+000	-55.8317	0.0000000E+000	0.0000000E+000	0.0000000E+000	-34.1683	0.0000000E+000	0.0000000E+000	0.0000000E+000	34.1683	1.47321	55.8317	0.000000000000000E+000	-1.83696e-06	1.81757e-11	-1.83697e-06	3.82432	7.9616e+06	78.7758	7.96168e+06
0.000298679	26.5392	27.2214	38.0175	-45.7269	20329.2	3.82428	-0.00048034	1.95751e+07	1.00359e+07	1	11	0.0050075	0.000131716	0	-0.0211261	-3.78392e-05	6.30856e-07	-90.2128	0.00478954	-1.77923e-05	0.0047895	-45.732	38.0209	26.5392	27.2261	0.018362	0.018834	0.0263037	45.7269	1.00359e+10	9.78442e+09	1.40162e+10	-44.2731	0.0000000E+000	0.0000000E+000	0.0000000E+000	44.2731	0.0000000E+000	0.0000000E+000	0.0000000E+000	-44.2731	0.0000000E+000	0.0000000E+000	0.0000000E+000	-45.7269	0.0000000E+000	0.0000000E+000	0.0000000E+000	45.7269	0.974941	44.2731	0.000000000000000E+000	-1.83696e-06	1.81757e-11	-1.83697e-06	3.82432	7.9616e+06	78.7758	7.96168e+06
9.95598e-05	34.83	91.5705	97.9708	-69.175	20329.2	3.82428	-0.00048034	1.74574e+07	1.5251e+07	1	11	0.00500943	5.11319e-05	0	-0.0211261	-3.78392e-05	2.85411e-06	-93.9705	0.0558186	-0.00386502	0.0556846	-69.1887	98.0215	34.8261	91.6262	0.00362877	0.0095403	0.0102071	69.175	1.5251e+10	5.80091e+09	1.6317e+10	-20.825	0.0000000E+000	0.0000000E+000	0.0000000E+000	20.825	0.0000000E+000	0.0000000E+000	0.0000000E+000	-20.825	0.0000000E+000	0.0000000E+000	0.0000000E+000	-69.175	0.0000000E+000	0.0000000E+000	0.0000000E+000	69.175	0.380363	20.825	0.000000000000000E+000	-1.83696e-06	1.81757e-11	-1.83697e-06	3.82432	7.9616e+06	78.7758	7.96168e+06