File: txt/18506_R303_UC88_11mm_SOC50_C05.mpt
EC-Lab ASCII FILE
Nb header lines : 65

Potentio Electrochemical Impedance Spectroscopy

Run on channel : 5 (SN 65912)
User :
CE vs. WE compliance from -10 V to 10 V
Electrode connection : standard
Potential control : Ewe
Ewe ctrl range : min = -10.00 V, max = 10.00 V
Safety Limits :
	Do not start on E overload
Acquisition started on : 10/20/2025 14:15:43.480
Technique started on : 10/20/2025 14:15:46.349
Loaded Setting File :  C:\Users\Celltest\OneDrive - store-dot.com\Documents\EC-Lab\Data\txt_done\UC80_17231_EIS_50SOC.mps
Saved on :
	File : 18506_R303_UC88_11mm_SOC50_C05.mpr
	Directory : C:\Users\Celltest\OneDrive - store-dot.com\Documents\EC-Lab\Data\Michael\
	Host : 169.254.61.224
Device : VMP-3e (SN .003165)
Address : USB
EC-LAB for windows v11.62 (software)
Internet server v27.00 (firmware)
Command interpretor v12.03 (firmware)
Electrode material :
Initial state :
Electrolyte :
Comments :
Electrode surface area : 0.001 cm²
Characteristic mass : 0.001 g
Equivalent Weight : 0.000 g/eq.
Density : 0.000 g/cm3
Volume (V) : 0.001 cm³
Record Ece
Cycle Definition : Charge/Discharge alternance
Mode                Multi sine
E (V)               0.0000
vs.                 Eoc
tE (h:m:s)          0:00:0.0000
record              0
dI                  0.000
unit dI             mA
dt (s)              0.000
fi                  1.000
unit fi             MHz
ff                  0.100
unit ff             mHz
Nd                  10
Points              per decade
spacing             Logarithmic
Va (mV)             5.0
pw                  0.10
Na                  2
corr                0
E range min (V)     -10.000
E range max (V)     10.000
I Range             Auto
Bandwidth           5
nc cycles           0
goto Ns'            0
nr cycles           0
inc. cycle          0

freq/Hz	Re(Z)/Ohm	-Im(Z)/Ohm	|Z|/Ohm	Phase(Z)/deg	time/s	<Ewe>/V	<I>/mA	Cs/µF	Cp/µF	cycle number	I Range	|Ewe|/V	|I|/A	Ns	(Q-Qo)/mA.h	<Ece>/V	|Ece|/V	Phase(Zce)/deg	|Zce|/Ohm	Re(Zce)/Ohm	-Im(Zce)/Ohm	Phase(Zwe-ce)/deg	|Zwe-ce|/Ohm	Re(Zwe-ce)/Ohm	-Im(Zwe-ce)/Ohm	Re(Y)/Ohm-1	Im(Y)/Ohm-1	|Y|/Ohm-1	Phase(Y)/deg	Re(C)/nF	Im(C)/nF	|C|/nF	Phase(C)/deg	Re(M)	Im(M)	|M|	Phase(M)/deg	Re(Permittivity)	Im(Permittivity)	|Permittivity|	Phase(Permittivity)/deg	Re(Resistivity)/Ohm.cm	Im(Resistivity)/Ohm.cm	|Resistivity|/Ohm.cm	Phase(Resistivity)/deg	Re(Conductivity)/mS/cm	Im(Conductivity)/mS/cm	|Conductivity|/mS/cm	Phase(Conductivity)/deg	Tan(Delta)	Loss Angle(Delta)/deg	dq/mA.h	Pwe/W	Pce/W	Pwe-ce/W	<Ewe-Ece>/V	Rwe/Ohm	Rce/Ohm	Rwe-ce/Ohm		Ewe-Ece/V
1.00002e+06	0.945145	-0.176874	0.961552	10.5997	2.86856	3.82732	0.102984	-0.899805	-0.030446	1	9	0.000203546	0.000211685	0	3.70849e-05	0.000149454	0.000196682	0.578476	0.929126	0.929078	-0.00938058	5.67524	1.88345	1.87422	-0.186254	1.02224	-0.191301	1.03999	-10.5997	-30.446	162.691	165.516	-100.6	0.0000000E+000	0.0000000E+000	0.0000000E+000	100.6	0.0000000E+000	0.0000000E+000	0.0000000E+000	-100.6	0.0000000E+000	0.0000000E+000	0.0000000E+000	10.5997	0.0000000E+000	0.0000000E+000	0.0000000E+000	-10.5997	5.34361	79.4003	3.70849e-05	0.000394152	1.53914e-08	0.000394136	3.82717	37164.3	1.45124	37162.9
630957	0.519144	0.12256	0.533415	-13.2832	3.63651	3.82615	0.00813392	2.05812	0.108652	1	9	0.000193274	0.000362333	0	4.32105e-05	-7.96403e-05	0.000106104	-107.319	0.292835	-0.0871761	0.279558	-42.9504	0.590166	0.431968	0.402118	1.82456	0.430743	1.87471	13.2832	108.652	460.233	472.884	-76.7168	0.0000000E+000	0.0000000E+000	0.0000000E+000	76.7168	0.0000000E+000	0.0000000E+000	0.0000000E+000	-76.7168	0.0000000E+000	0.0000000E+000	0.0000000E+000	-13.2832	0.0000000E+000	0.0000000E+000	0.0000000E+000	13.2832	4.23583	76.7168	2.06551e-06	3.11216e-05	-6.47788e-10	3.11223e-05	3.82623	470394	9.79113	470404
398103	0.697272	0.164228	0.716352	-13.2533	4.40253	3.82592	-0.00195803	2.43431	0.127944	1	9	0.000732409	0.00102242	0	4.54686e-05	-0.000175096	3.78751e-05	161.731	0.0370447	-0.0351775	-0.0116127	-12.9802	0.679457	0.662095	0.152616	1.35878	0.320034	1.39596	13.2533	127.944	543.218	558.082	-76.7467	0.0000000E+000	0.0000000E+000	0.0000000E+000	76.7467	0.0000000E+000	0.0000000E+000	0.0000000E+000	-76.7467	0.0000000E+000	0.0000000E+000	0.0000000E+000	-13.2533	0.0000000E+000	0.0000000E+000	0.0000000E+000	13.2533	4.24575	76.7467	1.53639e-06	-7.49129e-06	3.42845e-10	-7.49163e-06	3.8261	1.95396e+06	89.4245	1.95405e+06
251206	0.806869	0.354776	0.881421	-23.7348	5.16855	3.82569	-0.021211	1.78581	0.289319	1	9	0.00239537	0.00271763	0	3.99422e-05	-9.87315e-05	5.14969e-05	103.729	0.0189492	-0.00449733	-0.0184078	-22.7443	0.870025	0.802372	0.336368	1.03857	0.456654	1.13453	23.7348	289.319	658	718.797	-66.2652	0.0000000E+000	0.0000000E+000	0.0000000E+000	66.2652	0.0000000E+000	0.0000000E+000	0.0000000E+000	-66.2652	0.0000000E+000	0.0000000E+000	0.0000000E+000	-23.7348	0.0000000E+000	0.0000000E+000	0.0000000E+000	23.7348	2.27431	66.2652	-2.3779e-06	-8.11466e-05	2.09419e-09	-8.11487e-05	3.82579	180364	4.65474	180368
158486	0.92252	0.551093	1.07459	-30.8532	5.93453	3.82551	-0.0250466	1.82223	0.479256	1	9	0.00520347	0.00484228	0	3.4814e-05	3.4907e-05	5.29014e-05	92.9488	0.0109249	-0.000562022	-0.0109104	-30.3664	1.06855	0.921958	0.540182	0.798894	0.477242	0.930587	30.8532	479.256	802.266	934.514	-59.1468	0.0000000E+000	0.0000000E+000	0.0000000E+000	59.1468	0.0000000E+000	0.0000000E+000	0.0000000E+000	-59.1468	0.0000000E+000	0.0000000E+000	0.0000000E+000	-30.8532	0.0000000E+000	0.0000000E+000	0.0000000E+000	30.8532	1.67398	59.1468	5.17749e-06	-9.5816e-05	-8.74302e-10	-9.58151e-05	3.82547	152735	1.39368	152734
100004	1.08966	0.76802	1.33313	-35.177	6.70054	3.82542	-0.0223654	2.0722	0.687756	1	9	0.00541568	0.00406239	0	7.90414e-06	0.000206728	3.86206e-05	94.038	0.00950686	-0.000669451	-0.00948326	-34.859	1.32714	1.089	0.758536	0.613128	0.432146	0.750117	35.177	687.756	975.787	1193.8	-54.823	0.0000000E+000	0.0000000E+000	0.0000000E+000	54.823	0.0000000E+000	0.0000000E+000	0.0000000E+000	-54.823	0.0000000E+000	0.0000000E+000	0.0000000E+000	-35.177	0.0000000E+000	0.0000000E+000	0.0000000E+000	35.177	1.4188	54.823	-6.15213e-06	-8.55569e-05	-4.62355e-09	-8.55523e-05	3.82521	171042	9.24321	171033
63093.8	1.34641	1.00694	1.6813	-36.7918	7.46656	3.82539	-0.0156622	2.50512	0.898565	1	9	0.00549348	0.00326741	0	-1.40341e-05	-0.00023237	2.07435e-05	105.527	0.00634861	-0.00169948	-0.00611691	-36.6591	1.67628	1.34471	1.00083	0.476309	0.356218	0.594779	36.7918	898.565	1201.5	1500.34	-53.2082	0.0000000E+000	0.0000000E+000	0.0000000E+000	53.2082	0.0000000E+000	0.0000000E+000	0.0000000E+000	-53.2082	0.0000000E+000	0.0000000E+000	0.0000000E+000	-36.7918	0.0000000E+000	0.0000000E+000	0.0000000E+000	36.7918	1.33713	53.2082	-7.87337e-06	-5.99142e-05	3.63943e-09	-5.99178e-05	3.82563	244243	14.8363	244258
39814.1	1.70228	1.24091	2.10656	-36.0908	8.35851	3.8254	-0.0138747	3.2214	1.11782	1	9	0.00549836	0.00261011	0	-2.32601e-05	-6.05491e-05	1.60922e-05	21.0252	0.00616536	0.00575488	-0.002212	-35.9502	2.10992	1.70804	1.2387	0.383603	0.279634	0.474706	36.0908	1117.82	1533.44	1897.62	-53.9092	0.0000000E+000	0.0000000E+000	0.0000000E+000	53.9092	0.0000000E+000	0.0000000E+000	0.0000000E+000	-53.9092	0.0000000E+000	0.0000000E+000	0.0000000E+000	-36.0908	0.0000000E+000	0.0000000E+000	0.0000000E+000	36.0908	1.3718	53.9092	-1.74882e-06	-5.30763e-05	8.40102e-10	-5.30772e-05	3.82546	275710	4.36398	275714
25116.9	2.14426	1.44625	2.5864	-33.9986	9.12456	3.82539	-0.00992734	4.38139	1.36995	1	9	0.00467915	0.00180913	0	-2.21036e-05	0.000206728	8.38734e-06	-85.7535	0.00463611	0.000343289	0.00462338	-34.0792	2.58928	2.14461	1.45087	0.320542	0.216197	0.386637	33.9986	1369.95	2031.14	2449.95	-56.0014	0.0000000E+000	0.0000000E+000	0.0000000E+000	56.0014	0.0000000E+000	0.0000000E+000	0.0000000E+000	-56.0014	0.0000000E+000	0.0000000E+000	0.0000000E+000	-33.9986	0.0000000E+000	0.0000000E+000	0.0000000E+000	33.9986	1.48264	56.0014	-6.76788e-07	-3.7976e-05	-2.05226e-09	-3.79739e-05	3.82519	385339	20.8241	385319
15847.7	2.63102	1.57743	3.06766	-30.9448	9.89253	3.8254	-0.00992733	6.36656	1.68341	1	9	0.00505861	0.00164901	0	-2.31425e-05	-0.000117823	1.08009e-05	-56.7133	0.00654993	0.00359479	0.00547532	-30.9978	3.07356	2.63462	1.5829	0.279582	0.167623	0.325981	30.9448	1683.41	2807.78	3273.76	-59.0552	0.0000000E+000	0.0000000E+000	0.0000000E+000	59.0552	0.0000000E+000	0.0000000E+000	0.0000000E+000	-59.0552	0.0000000E+000	0.0000000E+000	0.0000000E+000	-30.9448	0.0000000E+000	0.0000000E+000	0.0000000E+000	30.9448	1.66792	59.0552	-1.04797e-07	-3.7976e-05	1.16967e-09	-3.79772e-05	3.82551	385340	11.8685	385352
10002.2	3.11514	1.69174	3.54486	-28.5051	10.4125	3.82539	-0.0097039	9.40566	2.14219	1	9	0.0045273	0.00127714	0	-2.60474e-05	0.000111272	8.04742e-06	-69.0642	0.00630111	0.00225152	0.00588513	-28.5713	3.54965	3.11739	1.69763	0.247901	0.134628	0.282098	28.5051	2142.19	3944.58	4488.73	-61.4949	0.0000000E+000	0.0000000E+000	0.0000000E+000	61.4949	0.0000000E+000	0.0000000E+000	0.0000000E+000	-61.4949	0.0000000E+000	0.0000000E+000	0.0000000E+000	-28.5051	0.0000000E+000	0.0000000E+000	0.0000000E+000	28.5051	1.84138	61.4949	-1.66079e-06	-3.71212e-05	-1.07977e-09	-3.71201e-05	3.82528	394212	11.4667	394201
6309.38	3.60852	1.76311	4.01621	-26.04	11.0546	3.82539	-0.0143961	14.3072	2.75727	1	9	0.00484335	0.00120595	0	-2.88694e-05	-0.000156005	7.91511e-06	-72.6107	0.00656338	0.00196155	0.00626341	-26.1079	4.02073	3.61048	1.76938	0.223715	0.109307	0.248991	26.04	2757.27	5643.24	6280.82	-63.96	0.0000000E+000	0.0000000E+000	0.0000000E+000	63.96	0.0000000E+000	0.0000000E+000	0.0000000E+000	-63.96	0.0000000E+000	0.0000000E+000	0.0000000E+000	-26.04	0.0000000E+000	0.0000000E+000	0.0000000E+000	26.04	2.04668	63.96	-9.76784e-07	-5.50707e-05	2.24587e-09	-5.50729e-05	3.82554	265724	10.8366	265734
3983.6	4.08575	1.97477	4.53796	-25.7959	11.7731	3.82527	-0.0280133	20.2315	3.83124	1	10	0.00492461	0.0010852	0	-3.25087e-05	0.000264002	6.81486e-06	5.11374	0.0062798	0.00625481	-0.000559739	-25.7552	4.54335	4.09201	1.97421	0.198404	0.0958947	0.220363	25.7959	3831.24	7926.74	8804.07	-64.2041	0.0000000E+000	0.0000000E+000	0.0000000E+000	64.2041	0.0000000E+000	0.0000000E+000	0.0000000E+000	-64.2041	0.0000000E+000	0.0000000E+000	0.0000000E+000	-25.7959	0.0000000E+000	0.0000000E+000	0.0000000E+000	25.7959	2.06898	64.2041	-1.37163e-06	-0.000107159	-7.39557e-09	-0.000107151	3.82501	136552	9.42414	136542
2510.8	4.66856	2.17618	5.15085	-24.9919	12.5978	3.82526	-0.00532288	29.1281	5.1993	1	10	0.00481861	0.000935498	0	-3.45759e-05	-3.27544e-06	6.18285e-06	42.0464	0.00660915	0.00490797	-0.00442636	-24.9242	5.15343	4.67347	2.17176	0.175965	0.0820234	0.194143	24.9919	5199.3	11154.1	12306.3	-65.0081	0.0000000E+000	0.0000000E+000	0.0000000E+000	65.0081	0.0000000E+000	0.0000000E+000	0.0000000E+000	-65.0081	0.0000000E+000	0.0000000E+000	0.0000000E+000	-24.9919	0.0000000E+000	0.0000000E+000	0.0000000E+000	24.9919	2.1453	65.0081	-2.49406e-08	-2.03614e-05	1.74348e-11	-2.03614e-05	3.82526	718644	0.615351	718645
1585.51	5.3144	2.40292	5.8324	-24.3302	13.4988	3.82526	-0.00497661	41.7746	7.09082	1	10	0.00473445	0.000811749	0	-3.58547e-05	-0.000289644	5.29475e-06	45.7819	0.00652264	0.00454883	-0.00467471	-24.27	5.83462	5.31895	2.39825	0.156228	0.070639	0.171456	24.3302	7090.82	15682.4	17210.9	-65.6698	0.0000000E+000	0.0000000E+000	0.0000000E+000	65.6698	0.0000000E+000	0.0000000E+000	0.0000000E+000	-65.6698	0.0000000E+000	0.0000000E+000	0.0000000E+000	-24.3302	0.0000000E+000	0.0000000E+000	0.0000000E+000	24.3302	2.21164	65.6698	-1.19043e-06	-1.90368e-05	1.44144e-09	-1.90383e-05	3.82555	768648	58.201	768706
1000.32	6.06608	2.66599	6.62607	-23.7251	14.4008	3.82526	-0.00407183	59.6792	9.66112	1	10	0.00469114	0.000707982	0	-3.73733e-05	0.000111272	1.53094e-05	-34.5595	0.021624	0.0178082	0.0122665	-23.7601	6.64731	6.08388	2.67825	0.138164	0.0607221	0.150919	23.7251	9661.13	21982.5	24011.8	-66.2749	0.0000000E+000	0.0000000E+000	0.0000000E+000	66.2749	0.0000000E+000	0.0000000E+000	0.0000000E+000	-66.2749	0.0000000E+000	0.0000000E+000	0.0000000E+000	-23.7251	0.0000000E+000	0.0000000E+000	0.0000000E+000	23.7251	2.27536	66.2749	-8.89526e-07	-1.55758e-05	-4.5308e-10	-1.55754e-05	3.82515	939446	27.3272	939418
631.01	6.94897	2.90345	7.53115	-22.6764	15.3015	3.82527	-0.00454098	86.8699	12.9115	1	10	0.00466398	0.000619291	0	-3.77851e-05	1.58158e-05	3.7913e-06	129.69	0.00612199	-0.00390969	-0.00471095	-22.6548	7.52573	6.94506	2.89874	0.122517	0.0511908	0.132782	22.6764	12911.5	30901.7	33490.6	-67.3236	0.0000000E+000	0.0000000E+000	0.0000000E+000	67.3236	0.0000000E+000	0.0000000E+000	0.0000000E+000	-67.3236	0.0000000E+000	0.0000000E+000	0.0000000E+000	-22.6764	0.0000000E+000	0.0000000E+000	0.0000000E+000	22.6764	2.39335	67.3236	-1.06752e-07	-1.73705e-05	-7.18192e-11	-1.73704e-05	3.82525	842388	3.4829	842384
398.089	8.00381	3.04983	8.56518	-20.8592	16.2029	3.82526	-0.00383726	131.088	16.6204	1	10	0.00465899	0.000543945	0	-3.85855e-05	0.000264002	1.83517e-05	-21.4489	0.0337382	0.0314016	0.0123371	-20.8616	8.59892	8.03521	3.06217	0.1091	0.0415722	0.116752	20.8592	16620.4	43617.7	46677	-69.1408	0.0000000E+000	0.0000000E+000	0.0000000E+000	69.1408	0.0000000E+000	0.0000000E+000	0.0000000E+000	-69.1408	0.0000000E+000	0.0000000E+000	0.0000000E+000	-20.8592	0.0000000E+000	0.0000000E+000	0.0000000E+000	20.8592	2.62434	69.1408	-1.96122e-07	-1.46785e-05	-1.01304e-09	-1.46775e-05	3.82499	996872	68.7995	996803
251.044	9.10425	3.01157	9.58942	-18.3036	17.101	3.82526	-0.00391918	210.512	20.7624	1	10	0.00464216	0.000484091	0	-3.99278e-05	-0.000194188	6.05068e-06	-57.0622	0.0124991	0.00679609	0.01049	-18.3503	9.59917	9.11105	3.02206	0.0990056	0.0327498	0.104282	18.3036	20762.4	62766.7	66111.6	-71.6964	0.0000000E+000	0.0000000E+000	0.0000000E+000	71.6964	0.0000000E+000	0.0000000E+000	0.0000000E+000	-71.6964	0.0000000E+000	0.0000000E+000	0.0000000E+000	-18.3036	0.0000000E+000	0.0000000E+000	0.0000000E+000	18.3036	3.02309	71.6964	-5.0023e-07	-1.49919e-05	7.61055e-10	-1.49926e-05	3.82546	976038	49.5481	976087
158.428	10.1253	2.69566	10.478	-14.908	18.0059	3.82527	-0.00225481	372.668	24.6657	1	10	0.00463521	0.000442375	0	-4.13452e-05	0.000111272	5.51897e-06	72.2711	0.0124758	0.00379905	-0.0118833	-14.8399	10.4786	10.1291	2.68378	0.0922254	0.0245531	0.0954379	14.908	24665.7	92648.4	95875.5	-75.092	0.0000000E+000	0.0000000E+000	0.0000000E+000	75.092	0.0000000E+000	0.0000000E+000	0.0000000E+000	-75.092	0.0000000E+000	0.0000000E+000	0.0000000E+000	-14.908	0.0000000E+000	0.0000000E+000	0.0000000E+000	14.908	3.75616	75.092	-4.26867e-07	-8.62526e-06	-2.50897e-10	-8.62501e-06	3.82516	1.69649e+06	49.3486	1.69644e+06
100.032	10.9769	2.24279	11.2037	-11.5477	18.9048	3.82528	-0.00255641	709.403	28.428	1	10	0.00463361	0.000413579	0	-4.20208e-05	0.000111272	9.67159e-06	-19.7576	0.0233851	0.0220084	0.00790514	-11.5647	11.2268	10.9989	2.25069	0.0874496	0.0178676	0.0892563	11.5477	28428	139136	142010	-78.4523	0.0000000E+000	0.0000000E+000	0.0000000E+000	78.4523	0.0000000E+000	0.0000000E+000	0.0000000E+000	-78.4523	0.0000000E+000	0.0000000E+000	0.0000000E+000	-11.5477	0.0000000E+000	0.0000000E+000	0.0000000E+000	11.5477	4.89432	78.4523	-6.11765e-07	-9.77897e-06	-2.84456e-10	-9.77868e-06	3.82517	1.49635e+06	43.5266	1.4963e+06
63.0823	11.5403	1.73123	11.6694	-8.53167	19.8219	3.82528	0.000705299	1457.33	32.0752	1	10	0.00463631	0.000397305	0	-4.2245e-05	0.000283093	1.21857e-05	9.72814	0.0306708	0.0302298	-0.00518256	-8.48461	11.6985	11.5705	1.72605	0.0847458	0.0127132	0.0856941	8.53167	32075.2	213811	216204	-81.4683	0.0000000E+000	0.0000000E+000	0.0000000E+000	81.4683	0.0000000E+000	0.0000000E+000	0.0000000E+000	-81.4683	0.0000000E+000	0.0000000E+000	0.0000000E+000	-8.53167	0.0000000E+000	0.0000000E+000	0.0000000E+000	8.53167	6.66595	81.4683	1.91813e-07	2.69797e-06	1.99665e-10	2.69777e-06	3.825	5.42363e+06	401.38	5.42323e+06
39.8089	11.8955	1.31381	11.9678	-6.30256	20.7229	3.82527	-0.00162183	3043.04	36.6728	1	10	0.00464902	0.000388461	0	-4.18955e-05	-0.000117823	1.24785e-05	124.908	0.0321229	-0.0183826	-0.0263432	-6.18666	11.9467	11.8771	1.28747	0.0830526	0.00917284	0.0835576	6.30256	36672.8	332042	334061	-83.6974	0.0000000E+000	0.0000000E+000	0.0000000E+000	83.6974	0.0000000E+000	0.0000000E+000	0.0000000E+000	-83.6974	0.0000000E+000	0.0000000E+000	0.0000000E+000	-6.30256	0.0000000E+000	0.0000000E+000	0.0000000E+000	6.30256	9.05418	83.6974	1.58097e-07	-6.20395e-06	1.91089e-10	-6.20414e-06	3.82539	2.35861e+06	72.6479	2.35868e+06
25.1044	12.1207	0.977561	12.1601	-4.61104	21.602	3.82526	-0.00305535	6485.24	41.9122	1	10	0.00463221	0.000380935	0	-4.32299e-05	0.000206728	2.71741e-06	-30.835	0.00713353	0.00612518	0.00365642	-4.62588	12.1665	12.1269	0.981217	0.0819701	0.00661105	0.0822363	4.61104	41912.2	519667	521354	-85.389	0.0000000E+000	0.0000000E+000	0.0000000E+000	85.389	0.0000000E+000	0.0000000E+000	0.0000000E+000	-85.389	0.0000000E+000	0.0000000E+000	0.0000000E+000	-4.61104	0.0000000E+000	0.0000000E+000	0.0000000E+000	4.61104	12.399	85.389	-5.07945e-07	-1.16875e-05	-6.31626e-10	-1.16869e-05	3.82506	1.25199e+06	67.661	1.25192e+06
15.8576	12.2848	0.744106	12.3073	-3.46625	22.48	3.82526	-0.00889366	13488	49.3051	1	10	0.00463199	0.000376361	0	-4.24813e-05	0.000187637	1.16901e-05	-15.3561	0.0310608	0.0299519	0.00822543	-3.49596	12.3377	12.3148	0.752332	0.0811039	0.00491257	0.0812525	3.46625	49305.1	814001	815493	-86.5338	0.0000000E+000	0.0000000E+000	0.0000000E+000	86.5338	0.0000000E+000	0.0000000E+000	0.0000000E+000	-86.5338	0.0000000E+000	0.0000000E+000	0.0000000E+000	-3.46625	0.0000000E+000	0.0000000E+000	0.0000000E+000	3.46625	16.5095	86.5338	3.2525e-07	-3.40206e-05	-1.66878e-09	-3.40189e-05	3.82507	430111	21.0978	430090
10.0032	12.4033	0.586138	12.4172	-2.70558	23.7058	3.82531	-0.000279445	27144.5	60.4833	1	11	0.00462863	0.000372761	0	-4.40814e-05	0.000111272	1.16965e-05	-10.28	0.0313782	0.0308745	0.00559968	-2.72462	12.4483	12.4342	0.591737	0.0804439	0.0038015	0.0805337	2.70558	60483.3	1.27989e+06	1.28132e+06	-87.2944	0.0000000E+000	0.0000000E+000	0.0000000E+000	87.2944	0.0000000E+000	0.0000000E+000	0.0000000E+000	-87.2944	0.0000000E+000	0.0000000E+000	0.0000000E+000	-2.70558	0.0000000E+000	0.0000000E+000	0.0000000E+000	2.70558	21.1611	87.2944	1.46058e-06	-1.06897e-06	-3.10944e-11	-1.06893e-06	3.8252	1.3689e+07	398.189	1.36886e+07
6.31058	12.5008	0.526622	12.5119	-2.41227	24.6283	3.8253	-0.00140534	47890.8	84.8401	1	11	0.00462889	0.000369958	0	-4.62611e-05	-0.000136914	4.5157e-06	-29.5605	0.012206	0.0106172	0.00602173	-2.43775	12.5228	12.5115	0.532643	0.0798529	0.00336396	0.0799237	2.41227	84840.2	2.01392e+06	2.0157e+06	-87.5877	0.0000000E+000	0.0000000E+000	0.0000000E+000	87.5877	0.0000000E+000	0.0000000E+000	0.0000000E+000	-87.5877	0.0000000E+000	0.0000000E+000	0.0000000E+000	-2.41227	0.0000000E+000	0.0000000E+000	0.0000000E+000	2.41227	23.7378	87.5877	-3.38473e-06	-5.37585e-06	1.92411e-10	-5.37604e-06	3.82543	2.72197e+06	97.424	2.72207e+06
3.97785	12.6022	0.478985	12.6113	-2.17665	25.6354	3.82533	0.0012426	83531.3	120.496	1	11	0.00463075	0.00036719	0	-4.01007e-05	-0.000213279	4.84763e-06	-16.0607	0.0132019	0.0126867	0.00365239	-2.19103	12.6241	12.6149	0.482638	0.0792367	0.00301163	0.0792939	2.17665	120496	3.17028e+06	3.17257e+06	-87.8233	0.0000000E+000	0.0000000E+000	0.0000000E+000	87.8233	0.0000000E+000	0.0000000E+000	0.0000000E+000	-87.8233	0.0000000E+000	0.0000000E+000	0.0000000E+000	-2.17665	0.0000000E+000	0.0000000E+000	0.0000000E+000	2.17665	26.3102	87.8233	3.46747e-06	4.75335e-06	-2.6502e-10	4.75362e-06	3.82554	3.07849e+06	171.639	3.07866e+06
2.51367	12.6895	0.501674	12.6994	-2.26398	27.1949	3.82532	0.00116516	126209	196.953	1	11	0.0046319	0.000364733	0	-4.79783e-05	9.21806e-05	6.45104e-06	-4.78419	0.017687	0.0176254	0.00147515	-2.26749	12.7171	12.7072	0.50315	0.0786821	0.00311066	0.0787436	2.26398	196954	4.98181e+06	4.9857e+06	-87.736	0.0000000E+000	0.0000000E+000	0.0000000E+000	87.736	0.0000000E+000	0.0000000E+000	0.0000000E+000	-87.736	0.0000000E+000	0.0000000E+000	0.0000000E+000	-2.26398	0.0000000E+000	0.0000000E+000	0.0000000E+000	2.26398	25.2944	87.736	-5.5296e-06	4.45713e-06	1.07406e-10	4.45702e-06	3.82522	3.28307e+06	79.1138	3.28299e+06
1.58469	12.8018	0.545942	12.8135	-2.44194	29.6304	3.82532	0.000703116	183963	333.957	1	11	0.00463177	0.000361477	0	-4.47878e-05	0.000149454	7.40942e-06	-7.80809	0.0204976	0.0203076	0.00278472	-2.45049	12.8339	12.8221	0.548727	0.077972	0.00332517	0.0780429	2.44194	333957	7.83098e+06	7.83809e+06	-87.5581	0.0000000E+000	0.0000000E+000	0.0000000E+000	87.5581	0.0000000E+000	0.0000000E+000	0.0000000E+000	-87.5581	0.0000000E+000	0.0000000E+000	0.0000000E+000	-2.44194	0.0000000E+000	0.0000000E+000	0.0000000E+000	2.44194	23.4491	87.5581	5.19144e-06	2.68964e-06	1.05084e-10	2.68954e-06	3.82517	5.44052e+06	212.56	5.44031e+06
1.00469	12.9265	0.616464	12.9412	-2.73037	240.447	3.82531	0.00200777	256968	583.105	1	11	0.00507555	0.000392201	0	-0.00137782	0.000187637	6.22025e-07	-11.8902	0.00158598	0.00155195	0.00032677	-2.73149	12.9427	12.928	0.616791	0.077185	0.00368095	0.0772727	2.73037	583106	1.2227e+07	1.22409e+07	-87.2696	0.0000000E+000	0.0000000E+000	0.0000000E+000	87.2696	0.0000000E+000	0.0000000E+000	0.0000000E+000	-87.2696	0.0000000E+000	0.0000000E+000	0.0000000E+000	-2.73037	0.0000000E+000	0.0000000E+000	0.0000000E+000	2.73037	20.9687	87.2696	-0.00134306	7.68037e-06	3.76732e-10	7.68e-06	3.82513	1.90525e+06	93.4551	1.90516e+06
0.632957	13.0881	0.747122	13.1094	-3.26714	240.448	3.82531	0.00200777	336554	1093.13	1	11	0.00509031	0.000388295	0	-0.00137782	0.000187637	6.95924e-07	1.53058	0.00179226	0.00179162	-4.78721e-05	-3.26648	13.1112	13.0899	0.747074	0.0761572	0.00434737	0.0762812	3.26714	1.09313e+06	1.91495e+07	1.91807e+07	-86.7329	0.0000000E+000	0.0000000E+000	0.0000000E+000	86.7329	0.0000000E+000	0.0000000E+000	0.0000000E+000	-86.7329	0.0000000E+000	0.0000000E+000	0.0000000E+000	-3.26714	0.0000000E+000	0.0000000E+000	0.0000000E+000	3.26714	17.518	86.7329	0.000000000000000E+000	7.68037e-06	3.76732e-10	7.68e-06	3.82513	1.90525e+06	93.4551	1.90516e+06
0.401878	13.2311	0.935705	13.2641	-4.04523	240.45	3.82531	0.00200777	423241	2106.24	1	11	0.00510329	0.000384743	0	-0.00137782	0.000187637	8.3455e-07	1.98629	0.00216911	0.00216781	-7.51823e-05	-4.04425	13.2663	13.2333	0.93563	0.0752035	0.0053184	0.0753913	4.04523	2.10624e+06	2.97827e+07	2.98571e+07	-85.9548	0.0000000E+000	0.0000000E+000	0.0000000E+000	85.9548	0.0000000E+000	0.0000000E+000	0.0000000E+000	-85.9548	0.0000000E+000	0.0000000E+000	0.0000000E+000	-4.04523	0.0000000E+000	0.0000000E+000	0.0000000E+000	4.04523	14.1402	85.9548	0.000000000000000E+000	7.68037e-06	3.76732e-10	7.68e-06	3.82513	1.90525e+06	93.4551	1.90516e+06
0.251173	13.5164	1.2024	13.5697	-5.08357	240.451	3.82531	0.00200777	526986	4137.63	1	11	0.00510525	0.000376223	0	-0.00137782	0.000187637	7.20983e-07	-6.32909	0.00191637	0.00190469	0.000211258	-5.08375	13.5716	13.5183	1.20261	0.0734036	0.00652988	0.0736934	5.08357	4.13763e+06	4.65119e+07	4.66955e+07	-84.9164	0.0000000E+000	0.0000000E+000	0.0000000E+000	84.9164	0.0000000E+000	0.0000000E+000	0.0000000E+000	-84.9164	0.0000000E+000	0.0000000E+000	0.0000000E+000	-5.08357	0.0000000E+000	0.0000000E+000	0.0000000E+000	5.08357	11.2412	84.9164	0.000000000000000E+000	7.68037e-06	3.76732e-10	7.68e-06	3.82513	1.90525e+06	93.4551	1.90516e+06
0.160751	13.8021	1.37094	13.87	-5.6725	240.452	3.82531	0.00200777	722185	7055.57	1	11	0.00509674	0.000367465	0	-0.00137782	0.000187637	5.90717e-07	10.0488	0.00160754	0.00158288	-0.000280495	-5.6707	13.8715	13.8037	1.37066	0.071745	0.00712632	0.0720981	5.6725	7.05556e+06	7.10327e+07	7.13822e+07	-84.3275	0.0000000E+000	0.0000000E+000	0.0000000E+000	84.3275	0.0000000E+000	0.0000000E+000	0.0000000E+000	-84.3275	0.0000000E+000	0.0000000E+000	0.0000000E+000	-5.6725	0.0000000E+000	0.0000000E+000	0.0000000E+000	5.6725	10.0676	84.3275	0.000000000000000E+000	7.68037e-06	3.76732e-10	7.68e-06	3.82513	1.90525e+06	93.4551	1.90516e+06
0.100469	14.1355	1.87005	14.2586	-7.53617	240.453	3.82531	0.00200777	847097	14570.8	1	11	0.00510059	0.00035772	0	-0.00137782	0.000187637	6.49341e-07	2.29482	0.00181522	0.00181377	-7.26843e-05	-7.53493	14.2604	14.1373	1.86998	0.0695271	0.00919808	0.0701329	7.53617	1.45708e+07	1.10139e+08	1.11099e+08	-82.4638	0.0000000E+000	0.0000000E+000	0.0000000E+000	82.4638	0.0000000E+000	0.0000000E+000	0.0000000E+000	-82.4638	0.0000000E+000	0.0000000E+000	0.0000000E+000	-7.53617	0.0000000E+000	0.0000000E+000	0.0000000E+000	7.53617	7.55888	82.4638	0.000000000000000E+000	7.68037e-06	3.76732e-10	7.68e-06	3.82513	1.90525e+06	93.4551	1.90516e+06
0.0602816	14.7439	2.22779	14.9113	-8.59235	240.455	3.82531	0.00200777	1.18511e+06	26453.3	1	11	0.0050957	0.000341735	0	-0.00137782	0.000187637	8.1844e-07	-11.6246	0.00239496	0.00234583	0.00048258	-8.59284	14.9137	14.7463	2.22828	0.0663107	0.0100195	0.0670634	8.59235	2.64533e+07	1.75073e+08	1.7706e+08	-81.4077	0.0000000E+000	0.0000000E+000	0.0000000E+000	81.4077	0.0000000E+000	0.0000000E+000	0.0000000E+000	-81.4077	0.0000000E+000	0.0000000E+000	0.0000000E+000	-8.59235	0.0000000E+000	0.0000000E+000	0.0000000E+000	8.59235	6.61817	81.4077	0.000000000000000E+000	7.68037e-06	3.76732e-10	7.68e-06	3.82513	1.90525e+06	93.4551	1.90516e+06
0.0401878	15.4882	2.56667	15.6994	-9.40942	240.456	3.82531	0.00200777	1.54297e+06	41241	1	11	0.0050952	0.000324548	0	-0.00137782	0.000187637	8.57886e-07	-4.01259	0.00264333	0.00263685	0.000184969	-9.40851	15.702	15.4908	2.56685	0.0628397	0.0104137	0.0636967	9.40942	4.1241e+07	2.48863e+08	2.52257e+08	-80.5906	0.0000000E+000	0.0000000E+000	0.0000000E+000	80.5906	0.0000000E+000	0.0000000E+000	0.0000000E+000	-80.5906	0.0000000E+000	0.0000000E+000	0.0000000E+000	-9.40942	0.0000000E+000	0.0000000E+000	0.0000000E+000	9.40942	6.03435	80.5906	0.000000000000000E+000	7.68037e-06	3.76732e-10	7.68e-06	3.82513	1.90525e+06	93.4551	1.90516e+06
0.0200939	16.9718	3.50728	17.3304	-11.676	240.457	3.82531	0.00200777	2.25832e+06	92493.3	1	11	0.00509579	0.000294038	0	-0.00137782	0.000187637	6.09031e-07	21.4128	0.00207127	0.0019283	-0.000756189	-11.6723	17.3321	16.9737	3.50653	0.0565081	0.0116776	0.0577021	11.676	9.24933e+07	4.47576e+08	4.57033e+08	-78.324	0.0000000E+000	0.0000000E+000	0.0000000E+000	78.324	0.0000000E+000	0.0000000E+000	0.0000000E+000	-78.324	0.0000000E+000	0.0000000E+000	0.0000000E+000	-11.676	0.0000000E+000	0.0000000E+000	0.0000000E+000	11.676	4.83901	78.324	0.000000000000000E+000	7.68037e-06	3.76732e-10	7.68e-06	3.82513	1.90525e+06	93.4551	1.90516e+06
0.00796479	20.9231	4.10004	21.3211	-11.087	20329.4	3.82531	-0.000766564	4.87369e+06	180226	1	11	0.00508957	0.000238711	0	-0.0214837	-0.00023237	2.92288e-07	59.3317	0.00122444	0.000624549	-0.00105319	-11.0839	21.3215	20.9238	4.09899	0.0460266	0.00901926	0.046902	11.087	1.80226e+08	9.19719e+08	9.37211e+08	-78.9129	0.0000000E+000	0.0000000E+000	0.0000000E+000	78.9129	0.0000000E+000	0.0000000E+000	0.0000000E+000	-78.9129	0.0000000E+000	0.0000000E+000	0.0000000E+000	-11.087	0.0000000E+000	0.0000000E+000	0.0000000E+000	11.087	5.10315	78.9129	-0.0201059	-2.93235e-06	1.78126e-10	-2.93253e-06	3.82555	4.99021e+06	303.132	4.99051e+06
0.00497799	22.2158	4.12501	22.5955	-10.5188	20329.4	3.82531	-0.000766564	7.75071e+06	258312	1	11	0.00509755	0.0002256	0	-0.0214837	-0.00023237	1.89939e-07	95.5624	0.000841928	-8.16077e-05	-0.000837963	-10.5168	22.5953	22.2157	4.12417	0.0435128	0.0080794	0.0442565	10.5188	2.58312e+08	1.39118e+09	1.41496e+09	-79.4812	0.0000000E+000	0.0000000E+000	0.0000000E+000	79.4812	0.0000000E+000	0.0000000E+000	0.0000000E+000	-79.4812	0.0000000E+000	0.0000000E+000	0.0000000E+000	-10.5188	0.0000000E+000	0.0000000E+000	0.0000000E+000	10.5188	5.38565	79.4812	0.000000000000000E+000	-2.93235e-06	1.78126e-10	-2.93253e-06	3.82555	4.99021e+06	303.132	4.99051e+06
0.00318591	23.042	5.51548	23.6929	-13.4614	20329.4	3.82531	-0.000766564	9.05739e+06	490830	1	11	0.00510062	0.00021528	0	-0.0214837	-0.00023237	3.8972e-07	-21.8279	0.00181029	0.0016805	0.000673105	-13.462	23.6947	23.0437	5.51615	0.0410471	0.00982529	0.0422067	13.4614	4.9083e+08	2.05054e+09	2.10847e+09	-76.5386	0.0000000E+000	0.0000000E+000	0.0000000E+000	76.5386	0.0000000E+000	0.0000000E+000	0.0000000E+000	-76.5386	0.0000000E+000	0.0000000E+000	0.0000000E+000	-13.4614	0.0000000E+000	0.0000000E+000	0.0000000E+000	13.4614	4.1777	76.5386	0.000000000000000E+000	-2.93235e-06	1.78126e-10	-2.93253e-06	3.82555	4.99021e+06	303.132	4.99051e+06
0.0019912	23.8059	6.47749	24.6715	-15.2214	20329.4	3.82531	-0.000766564	1.23396e+07	850595	1	11	0.00510095	0.000206755	0	-0.0214837	-0.00023237	2.1052e-07	-71.6945	0.00101821	0.000319803	0.000966684	-15.2234	24.672	23.8063	6.47845	0.0391107	0.0106418	0.0405327	15.2214	8.50595e+08	3.12609e+09	3.23975e+09	-74.7786	0.0000000E+000	0.0000000E+000	0.0000000E+000	74.7786	0.0000000E+000	0.0000000E+000	0.0000000E+000	-74.7786	0.0000000E+000	0.0000000E+000	0.0000000E+000	-15.2214	0.0000000E+000	0.0000000E+000	0.0000000E+000	15.2214	3.67518	74.7786	0.000000000000000E+000	-2.93235e-06	1.78126e-10	-2.93253e-06	3.82555	4.99021e+06	303.132	4.99051e+06
0.00129428	23.3621	8.49286	24.8579	-19.9778	20329.4	3.82531	-0.000766564	1.4479e+07	1.69012e+06	1	11	0.00510279	0.000205278	0	-0.0214837	-0.00023237	5.39478e-07	-9.50932	0.00262803	0.00259192	0.000434172	-19.9767	24.8605	23.3647	8.49329	0.0378079	0.0137444	0.0402286	19.9778	1.69012e+09	4.64916e+09	4.94684e+09	-70.0222	0.0000000E+000	0.0000000E+000	0.0000000E+000	70.0222	0.0000000E+000	0.0000000E+000	0.0000000E+000	-70.0222	0.0000000E+000	0.0000000E+000	0.0000000E+000	-19.9778	0.0000000E+000	0.0000000E+000	0.0000000E+000	19.9778	2.75079	70.0222	0.000000000000000E+000	-2.93235e-06	1.78126e-10	-2.93253e-06	3.82555	4.99021e+06	303.132	4.99051e+06
0.000796479	25.1239	12.1368	27.9018	-25.7842	20329.4	3.82531	-0.000766564	1.64642e+07	3.11519e+06	1	11	0.0051016	0.000182841	0	-0.0214837	-0.00023237	7.52534e-07	-140.715	0.00411578	-0.00318564	0.00260603	-25.7918	27.9001	25.1207	12.1394	0.0322717	0.0155897	0.0358399	25.7842	3.11519e+09	6.44863e+09	7.16165e+09	-64.2158	0.0000000E+000	0.0000000E+000	0.0000000E+000	64.2158	0.0000000E+000	0.0000000E+000	0.0000000E+000	-64.2158	0.0000000E+000	0.0000000E+000	0.0000000E+000	-25.7842	0.0000000E+000	0.0000000E+000	0.0000000E+000	25.7842	2.07006	64.2158	0.000000000000000E+000	-2.93235e-06	1.78126e-10	-2.93253e-06	3.82555	4.99021e+06	303.132	4.99051e+06
0.000497799	24.8084	17.9099	30.5978	-35.8267	20329.4	3.82531	-0.000766564	1.78514e+07	6.11619e+06	1	11	0.0051013	0.000166721	0	-0.0214837	-0.00023237	5.62555e-07	18.7133	0.00337422	0.00319584	-0.00108256	-35.8215	30.5997	24.8116	17.9089	0.0264984	0.01913	0.0326821	35.8267	6.11619e+09	8.47199e+09	1.0449e+10	-54.1733	0.0000000E+000	0.0000000E+000	0.0000000E+000	54.1733	0.0000000E+000	0.0000000E+000	0.0000000E+000	-54.1733	0.0000000E+000	0.0000000E+000	0.0000000E+000	-35.8267	0.0000000E+000	0.0000000E+000	0.0000000E+000	35.8267	1.38517	54.1733	0.000000000000000E+000	-2.93235e-06	1.78126e-10	-2.93253e-06	3.82555	4.99021e+06	303.132	4.99051e+06
0.000298679	24.5475	27.2421	36.6703	-47.9784	20329.4	3.82531	-0.000766564	1.95602e+07	1.07951e+07	1	11	0.00510279	0.000139153	0	-0.0214837	-0.00023237	1.51138e-06	-100.787	0.0108613	-0.00203269	0.0106694	-47.9919	36.6769	24.5455	27.2528	0.0182548	0.0202587	0.02727	47.9784	1.07951e+10	9.7273e+09	1.45311e+10	-42.0216	0.0000000E+000	0.0000000E+000	0.0000000E+000	42.0216	0.0000000E+000	0.0000000E+000	0.0000000E+000	-42.0216	0.0000000E+000	0.0000000E+000	0.0000000E+000	-47.9784	0.0000000E+000	0.0000000E+000	0.0000000E+000	47.9784	0.901086	42.0216	0.000000000000000E+000	-2.93235e-06	1.78126e-10	-2.93253e-06	3.82555	4.99021e+06	303.132	4.99051e+06
9.95598e-05	31.7153	93.1852	98.4344	-71.2041	20329.4	3.82531	-0.000766564	1.71549e+07	1.53741e+07	1	11	0.00510018	5.1813e-05	0	-0.0214837	-0.00023237	2.63959e-06	90.7956	0.0509446	-0.000707371	-0.0509397	-71.195	98.386	31.7146	93.1342	0.00327322	0.00961729	0.010159	71.2041	1.53741e+10	5.23252e+09	1.62401e+10	-18.7959	0.0000000E+000	0.0000000E+000	0.0000000E+000	18.7959	0.0000000E+000	0.0000000E+000	0.0000000E+000	-18.7959	0.0000000E+000	0.0000000E+000	0.0000000E+000	-71.2041	0.0000000E+000	0.0000000E+000	0.0000000E+000	71.2041	0.340347	18.7959	0.000000000000000E+000	-2.93235e-06	1.78126e-10	-2.93253e-06	3.82555	4.99021e+06	303.132	4.99051e+06