File: txt/18570_R297_UC90_SOC50_C01.mpt
EC-Lab ASCII FILE
Nb header lines : 65

Potentio Electrochemical Impedance Spectroscopy

Run on channel : 1 (SN 66354)
User :
CE vs. WE compliance from -10 V to 10 V
Electrode connection : standard
Potential control : Ewe
Ewe ctrl range : min = -10.00 V, max = 10.00 V
Safety Limits :
	Do not start on E overload
Acquisition started on : 10/21/2025 16:34:18.266
Technique started on : 10/21/2025 16:34:20.961
Loaded Setting File :  C:\Users\Celltest\OneDrive - store-dot.com\Documents\EC-Lab\Data\@Biologic Test Protocols\cathode half cell EIS SOC50.mps
Saved on :
	File : 18570_R297_UC90_SOC50_C01.mpr
	Directory : C:\Users\Celltest\OneDrive - store-dot.com\Documents\EC-Lab\Data\Michael\
	Host : 169.254.61.224
Device : VMP-3e (SN .003165)
Address : USB
EC-LAB for windows v11.62 (software)
Internet server v27.00 (firmware)
Command interpretor v12.03 (firmware)
Electrode material :
Initial state :
Electrolyte :
Comments :
Electrode surface area : 0.001 cm²
Characteristic mass : 0.001 g
Equivalent Weight : 0.000 g/eq.
Density : 0.000 g/cm3
Volume (V) : 0.001 cm³
Record Ece
Cycle Definition : Charge/Discharge alternance
Mode                Multi sine
E (V)               0.0000
vs.                 Eoc
tE (h:m:s)          0:00:0.0000
record              0
dI                  0.000
unit dI             mA
dt (s)              0.000
fi                  1.000
unit fi             MHz
ff                  0.100
unit ff             mHz
Nd                  10
Points              per decade
spacing             Logarithmic
Va (mV)             5.0
pw                  0.10
Na                  2
corr                0
E range min (V)     -10.000
E range max (V)     10.000
I Range             Auto
Bandwidth           5
nc cycles           0
goto Ns'            0
nr cycles           0
inc. cycle          0

freq/Hz	Re(Z)/Ohm	-Im(Z)/Ohm	|Z|/Ohm	Phase(Z)/deg	time/s	<Ewe>/V	<I>/mA	Cs/µF	Cp/µF	cycle number	I Range	|Ewe|/V	|I|/A	Ns	(Q-Qo)/mA.h	<Ece>/V	|Ece|/V	Phase(Zce)/deg	|Zce|/Ohm	Re(Zce)/Ohm	-Im(Zce)/Ohm	Phase(Zwe-ce)/deg	|Zwe-ce|/Ohm	Re(Zwe-ce)/Ohm	-Im(Zwe-ce)/Ohm	Re(Y)/Ohm-1	Im(Y)/Ohm-1	|Y|/Ohm-1	Phase(Y)/deg	Re(C)/nF	Im(C)/nF	|C|/nF	Phase(C)/deg	Re(M)	Im(M)	|M|	Phase(M)/deg	Re(Permittivity)	Im(Permittivity)	|Permittivity|	Phase(Permittivity)/deg	Re(Resistivity)/Ohm.cm	Im(Resistivity)/Ohm.cm	|Resistivity|/Ohm.cm	Phase(Resistivity)/deg	Re(Conductivity)/mS/cm	Im(Conductivity)/mS/cm	|Conductivity|/mS/cm	Phase(Conductivity)/deg	Tan(Delta)	Loss Angle(Delta)/deg	dq/mA.h	Pwe/W	Pce/W	Pwe-ce/W	<Ewe-Ece>/V	Rwe/Ohm	Rce/Ohm	Rwe-ce/Ohm		Ewe-Ece/V
1.00002e+06	1.09557	-0.092149	1.09944	4.80786	2.69453	3.88668	0.0563612	-1.72711	-0.0121327	1	9	0.000217143	0.000197503	0	2.46252e-05	0.000345731	0.000195374	-4.33755	0.989217	0.986384	0.0748168	0.476976	2.08203	2.08196	-0.0173323	0.906353	-0.0762337	0.909553	-4.80786	-12.1327	144.248	144.757	-94.8079	0.0000000E+000	0.0000000E+000	0.0000000E+000	94.8079	0.0000000E+000	0.0000000E+000	0.0000000E+000	-94.8079	0.0000000E+000	0.0000000E+000	0.0000000E+000	4.80786	0.0000000E+000	0.0000000E+000	0.0000000E+000	-4.80786	11.8891	85.1921	2.46252e-05	0.000219058	1.94858e-08	0.000219038	3.88633	68960.2	6.13421	68954.1
630957	0.447148	0.206538	0.492544	-24.7923	3.46154	3.88639	0.0371752	1.22129	0.214749	1	9	0.000166691	0.00033843	0	3.44325e-05	2.33964e-06	0.000131641	-111.053	0.388976	-0.139733	0.363011	-61.642	0.647217	0.307415	0.569549	1.84315	0.851354	2.03028	24.7923	214.749	464.924	512.124	-65.2077	0.0000000E+000	0.0000000E+000	0.0000000E+000	65.2077	0.0000000E+000	0.0000000E+000	0.0000000E+000	-65.2077	0.0000000E+000	0.0000000E+000	0.0000000E+000	-24.7923	0.0000000E+000	0.0000000E+000	0.0000000E+000	24.7923	2.16497	65.2077	5.17182e-06	0.000144477	8.69767e-11	0.000144477	3.88639	104543	0.0629356	104543
398103	0.642783	0.163704	0.663302	-14.2883	4.22755	3.88643	0.0423536	2.44211	0.148751	1	9	0.000642659	0.000968879	0	4.76726e-05	0.000174035	6.69205e-05	164.273	0.0690701	-0.0664846	-0.0187212	-14.1212	0.594256	0.576299	0.144983	1.46097	0.37208	1.50761	14.2883	148.751	584.072	602.716	-75.7117	0.0000000E+000	0.0000000E+000	0.0000000E+000	75.7117	0.0000000E+000	0.0000000E+000	0.0000000E+000	-75.7117	0.0000000E+000	0.0000000E+000	0.0000000E+000	-14.2883	0.0000000E+000	0.0000000E+000	0.0000000E+000	14.2883	3.9265	75.7117	6.47324e-06	0.000164604	7.37102e-09	0.000164597	3.88625	91761.5	4.10911	91757.4
251206	0.771103	0.294692	0.825496	-20.9154	4.99853	3.88635	0.0449242	2.14991	0.273986	1	9	0.00214684	0.00260067	0	5.98325e-05	2.33964e-06	5.90063e-05	115.988	0.0226888	-0.00994182	-0.0203947	-19.8175	0.809077	0.761161	0.274298	1.13157	0.432453	1.21139	20.9154	273.986	716.923	767.494	-69.0846	0.0000000E+000	0.0000000E+000	0.0000000E+000	69.0846	0.0000000E+000	0.0000000E+000	0.0000000E+000	-69.0846	0.0000000E+000	0.0000000E+000	0.0000000E+000	-20.9154	0.0000000E+000	0.0000000E+000	0.0000000E+000	20.9154	2.61664	69.0846	4.26817e-06	0.000174591	1.05107e-10	0.000174591	3.88635	86509.2	0.0520799	86509.1
158486	0.882901	0.416885	0.976375	-25.2755	5.76453	3.88632	0.0461536	2.40887	0.439149	1	9	0.00510875	0.00523236	0	7.68104e-05	-5.48923e-05	6.33326e-05	101.553	0.012104	-0.00242422	-0.0118588	-24.7028	0.969168	0.880477	0.405026	0.926145	0.437303	1.0242	25.2755	439.149	930.054	1028.52	-64.7244	0.0000000E+000	0.0000000E+000	0.0000000E+000	64.7244	0.0000000E+000	0.0000000E+000	0.0000000E+000	-64.7244	0.0000000E+000	0.0000000E+000	0.0000000E+000	-25.2755	0.0000000E+000	0.0000000E+000	0.0000000E+000	25.2755	2.11786	64.7244	5.80653e-06	0.000179368	-2.53348e-09	0.00017937	3.88638	84204.1	1.18934	84205.2
100004	1.02998	0.529942	1.15832	-27.2266	6.53053	3.88631	0.0542378	3.00314	0.628607	1	9	0.00533849	0.00460884	0	9.66199e-05	0.000154958	3.03129e-05	125.701	0.00657712	-0.00383812	-0.0053411	-27.0778	1.15246	1.02614	0.524601	0.76767	0.39498	0.863323	27.2266	628.607	1221.74	1373.97	-62.7734	0.0000000E+000	0.0000000E+000	0.0000000E+000	62.7734	0.0000000E+000	0.0000000E+000	0.0000000E+000	-62.7734	0.0000000E+000	0.0000000E+000	0.0000000E+000	-27.2266	0.0000000E+000	0.0000000E+000	0.0000000E+000	27.2266	1.94357	62.7734	8.07888e-06	0.000210785	8.40459e-09	0.000210776	3.88615	71653.1	2.85701	71650.2
63093.8	1.1997	0.63694	1.3583	-27.9646	7.29655	3.88632	0.0609436	3.96036	0.870849	1	9	0.00537005	0.00395351	0	0.000122368	0.000250345	3.60121e-05	89.6554	0.00910888	5.47886e-05	-0.00910871	-27.6231	1.3541	1.19975	0.627831	0.650254	0.345231	0.736216	27.9646	870.849	1640.27	1857.11	-62.0354	0.0000000E+000	0.0000000E+000	0.0000000E+000	62.0354	0.0000000E+000	0.0000000E+000	0.0000000E+000	-62.0354	0.0000000E+000	0.0000000E+000	0.0000000E+000	-27.9646	0.0000000E+000	0.0000000E+000	0.0000000E+000	27.9646	1.88353	62.0354	1.89418e-05	0.000236846	1.52569e-08	0.000236831	3.88607	63769.2	4.10781	63765.1
39814.1	1.38978	0.735053	1.57219	-27.8743	8.06253	3.88632	0.0600494	5.43833	1.18875	1	9	0.00548726	0.0034902	0	0.000129168	-5.48923e-05	1.64935e-05	72.3926	0.00472566	0.00142948	-0.00450427	-27.7048	1.57136	1.39121	0.730548	0.562257	0.297377	0.636055	27.8743	1188.75	2247.6	2542.6	-62.1257	0.0000000E+000	0.0000000E+000	0.0000000E+000	62.1257	0.0000000E+000	0.0000000E+000	0.0000000E+000	-62.1257	0.0000000E+000	0.0000000E+000	0.0000000E+000	-27.8743	0.0000000E+000	0.0000000E+000	0.0000000E+000	27.8743	1.89072	62.1257	4.05964e-07	0.000233371	-3.29625e-09	0.000233375	3.88638	64718.7	0.914118	64719.6
25116.9	1.60873	0.86467	1.82638	-28.2574	8.95656	3.88632	0.0506613	7.32831	1.64256	1	9	0.00508986	0.00278685	0	0.000144941	0.000116803	5.52848e-06	31.7031	0.00198377	0.00168776	-0.00104251	-28.2036	1.82737	1.61042	0.863627	0.482282	0.25922	0.547531	28.2574	1642.56	3056.01	3469.47	-61.7426	0.0000000E+000	0.0000000E+000	0.0000000E+000	61.7426	0.0000000E+000	0.0000000E+000	0.0000000E+000	-61.7426	0.0000000E+000	0.0000000E+000	0.0000000E+000	-28.2574	0.0000000E+000	0.0000000E+000	0.0000000E+000	28.2574	1.86051	61.7426	4.30239e-06	0.000196886	5.91742e-09	0.00019688	3.88621	76711.8	2.30558	76709.5
15847.7	1.85762	0.994252	2.10696	-28.157	9.72254	3.88632	0.0490221	10.1008	2.24925	1	9	0.00484574	0.00229987	0	0.000160328	0.000364808	8.4152e-06	-111.789	0.00365899	-0.00135817	0.00339759	-28.2558	2.10737	1.85626	0.99765	0.41845	0.223966	0.474617	28.157	2249.25	4202.4	4766.48	-61.843	0.0000000E+000	0.0000000E+000	0.0000000E+000	61.843	0.0000000E+000	0.0000000E+000	0.0000000E+000	-61.843	0.0000000E+000	0.0000000E+000	0.0000000E+000	-28.157	0.0000000E+000	0.0000000E+000	0.0000000E+000	28.157	1.86836	61.843	7.13107e-06	0.000190516	1.78837e-08	0.000190498	3.88595	79276.8	7.44171	79269.4
10002.2	2.14166	1.13745	2.42497	-27.9732	10.3665	3.88631	0.0494692	13.9891	3.07782	1	9	0.00458603	0.00189117	0	0.000168704	7.86489e-05	7.06247e-06	-77.5955	0.00373445	0.000802207	0.00364727	-28.0403	2.4274	2.14246	1.1411	0.364197	0.193428	0.412375	27.9732	3077.82	5795.08	6561.7	-62.0268	0.0000000E+000	0.0000000E+000	0.0000000E+000	62.0268	0.0000000E+000	0.0000000E+000	0.0000000E+000	-62.0268	0.0000000E+000	0.0000000E+000	0.0000000E+000	-27.9732	0.0000000E+000	0.0000000E+000	0.0000000E+000	27.9732	1.88285	62.0268	2.88159e-06	0.000192253	3.89069e-09	0.000192249	3.88624	78560.3	1.58986	78558.7
6309.38	2.45754	1.32451	2.79174	-28.3227	11.0085	3.88631	0.0537907	19.0449	4.28684	1	9	0.00479932	0.00171911	0	0.000179689	-3.5815e-05	1.26912e-05	-47.6797	0.0073824	0.00497039	0.00545849	-28.3728	2.79871	2.46251	1.32996	0.315319	0.169943	0.3582	28.3227	4286.84	7953.96	9035.63	-61.6773	0.0000000E+000	0.0000000E+000	0.0000000E+000	61.6773	0.0000000E+000	0.0000000E+000	0.0000000E+000	-61.6773	0.0000000E+000	0.0000000E+000	0.0000000E+000	-28.3227	0.0000000E+000	0.0000000E+000	0.0000000E+000	28.3227	1.85544	61.6773	5.4234e-06	0.000209047	-1.92651e-09	0.000209049	3.88635	72248.8	0.665821	72249.5
3983.6	2.83159	1.5575	3.23167	-28.8128	11.5711	3.88612	-0.0457529	25.6517	5.95825	1	9	0.00470415	0.00145564	0	0.000180031	-1.67377e-05	1.46844e-05	-105.353	0.0100879	-0.00267096	0.00972787	-28.9866	3.23403	2.82891	1.56723	0.271129	0.149133	0.309438	28.8128	5958.25	10832.3	12362.8	-61.1872	0.0000000E+000	0.0000000E+000	0.0000000E+000	61.1872	0.0000000E+000	0.0000000E+000	0.0000000E+000	-61.1872	0.0000000E+000	0.0000000E+000	0.0000000E+000	-28.8128	0.0000000E+000	0.0000000E+000	0.0000000E+000	28.8128	1.81803	61.1872	-2.35023e-06	-0.000177802	7.65797e-10	-0.000177802	3.88614	84937.2	0.365827	84937.5
2510.8	3.2985	1.86212	3.78782	-29.4463	12.6409	3.88623	-0.00550512	34.0407	8.22691	1	10	0.00484606	0.00127938	0	0.000186971	0.000193113	1.41524e-05	-112.921	0.0110619	-0.00430815	0.0101885	-29.6125	3.7891	3.29419	1.87231	0.229899	0.129786	0.264004	29.4463	8226.91	14572.9	16734.7	-60.5537	0.0000000E+000	0.0000000E+000	0.0000000E+000	60.5537	0.0000000E+000	0.0000000E+000	0.0000000E+000	-60.5537	0.0000000E+000	0.0000000E+000	0.0000000E+000	-29.4463	0.0000000E+000	0.0000000E+000	0.0000000E+000	29.4463	1.77136	60.5537	7.39113e-06	-2.13941e-05	-1.06311e-09	-2.13931e-05	3.88603	705929	35.0787	705894
1585.51	3.83156	2.19762	4.41706	-29.8368	13.5429	3.88623	-0.00478583	45.6771	11.3068	1	10	0.00472857	0.00107053	0	0.000185972	0.000307577	5.71993e-06	-144.815	0.00534311	-0.00436692	0.00307877	-29.8997	4.4148	3.82719	2.2007	0.196386	0.112639	0.226395	29.8368	11306.8	19713.4	22725.8	-60.1632	0.0000000E+000	0.0000000E+000	0.0000000E+000	60.1632	0.0000000E+000	0.0000000E+000	0.0000000E+000	-60.1632	0.0000000E+000	0.0000000E+000	0.0000000E+000	-29.8368	0.0000000E+000	0.0000000E+000	0.0000000E+000	29.8368	1.7435	60.1632	3.90302e-07	-1.85988e-05	-1.47201e-09	-1.85973e-05	3.88592	812029	64.2682	811964
1000.32	4.48001	2.61188	5.18579	-30.2425	14.4448	3.88622	-0.00557594	60.9156	15.4527	1	10	0.00466352	0.000899289	0	0.000185613	2.33964e-06	1.18075e-05	11.1666	0.0131298	0.0128812	-0.00254275	-30.1467	5.19564	4.49289	2.60934	0.16659	0.0971233	0.192835	30.2425	15452.7	26505.2	30680.8	-59.7575	0.0000000E+000	0.0000000E+000	0.0000000E+000	59.7575	0.0000000E+000	0.0000000E+000	0.0000000E+000	-59.7575	0.0000000E+000	0.0000000E+000	0.0000000E+000	-30.2425	0.0000000E+000	0.0000000E+000	0.0000000E+000	30.2425	1.71524	59.7575	-4.20864e-07	-2.16693e-05	-1.30457e-11	-2.16693e-05	3.88622	696963	0.419597	696963
631.01	5.28248	3.04983	6.09968	-29.9999	15.3455	3.88623	-0.00522934	82.7007	20.675	1	10	0.00460437	0.000754854	0	0.000183469	0.000269422	7.56425e-06	-113.143	0.0100208	-0.00393847	0.00921439	-30.0933	6.10088	5.27855	3.05904	0.141979	0.0819712	0.163943	29.9999	20675	35810.3	41350.2	-60.0001	0.0000000E+000	0.0000000E+000	0.0000000E+000	60.0001	0.0000000E+000	0.0000000E+000	0.0000000E+000	-60.0001	0.0000000E+000	0.0000000E+000	0.0000000E+000	-29.9999	0.0000000E+000	0.0000000E+000	0.0000000E+000	29.9999	1.73206	60.0001	-1.09516e-06	-2.03224e-05	-1.4089e-09	-2.0321e-05	3.88596	743158	51.5212	743106
398.089	6.36357	3.50604	7.26549	-28.8528	16.2468	3.88623	-0.00502063	114.031	26.5538	1	10	0.00459162	0.000631976	0	0.000182234	2.33964e-06	1.92629e-05	-37.8259	0.0304804	0.0240758	0.0186925	-28.8901	7.2956	6.38764	3.52473	0.120551	0.0664182	0.137637	28.8528	26553.8	48196	55026.9	-61.1472	0.0000000E+000	0.0000000E+000	0.0000000E+000	61.1472	0.0000000E+000	0.0000000E+000	0.0000000E+000	-61.1472	0.0000000E+000	0.0000000E+000	0.0000000E+000	-28.8528	0.0000000E+000	0.0000000E+000	0.0000000E+000	28.8528	1.81503	61.1472	-6.29222e-07	-1.95113e-05	-1.17465e-11	-1.95113e-05	3.88623	774051	0.466006	774051
251.044	7.69934	3.80227	8.58703	-26.2822	17.145	3.88622	-0.0061499	166.735	32.6909	1	10	0.00458556	0.00053401	0	0.000181473	7.86489e-05	8.19555e-06	43.2247	0.0153472	0.0111831	-0.0105107	-26.1863	8.59241	7.71052	3.79176	0.104416	0.0515652	0.116455	26.2822	32690.9	66196.9	73829	-63.7178	0.0000000E+000	0.0000000E+000	0.0000000E+000	63.7178	0.0000000E+000	0.0000000E+000	0.0000000E+000	-63.7178	0.0000000E+000	0.0000000E+000	0.0000000E+000	-26.2822	0.0000000E+000	0.0000000E+000	0.0000000E+000	26.2822	2.02493	63.7178	-4.12143e-07	-2.38999e-05	-4.83683e-10	-2.38994e-05	3.88614	631917	12.7886	631904
158.428	9.12606	3.74157	9.86328	-22.293	18.0499	3.88622	-0.00470758	268.493	38.6365	1	10	0.00456647	0.000462977	0	0.000181516	9.77262e-05	5.54381e-06	84.5828	0.0119743	0.00113046	-0.0119208	-22.2264	9.85981	9.12719	3.72965	0.0938081	0.0384602	0.101386	22.293	38636.5	94238.3	101851	-67.707	0.0000000E+000	0.0000000E+000	0.0000000E+000	67.707	0.0000000E+000	0.0000000E+000	0.0000000E+000	-67.707	0.0000000E+000	0.0000000E+000	0.0000000E+000	-22.293	0.0000000E+000	0.0000000E+000	0.0000000E+000	22.293	2.4391	67.707	-1.59555e-07	-1.82947e-05	-4.60053e-10	-1.82942e-05	3.88613	825525	20.7593	825505
100.032	10.4354	3.33206	10.9544	-17.7085	18.9488	3.88622	-0.00587784	477.494	44.1789	1	10	0.00456586	0.000416805	0	0.000180009	0.000135881	2.30115e-05	-8.85362	0.0552093	0.0545515	0.0084973	-17.6643	11.009	10.4899	3.34056	0.0869618	0.0277673	0.0912873	17.7085	44178.9	138360	145242	-72.2915	0.0000000E+000	0.0000000E+000	0.0000000E+000	72.2915	0.0000000E+000	0.0000000E+000	0.0000000E+000	-72.2915	0.0000000E+000	0.0000000E+000	0.0000000E+000	-17.7085	0.0000000E+000	0.0000000E+000	0.0000000E+000	17.7085	3.1318	72.2915	-5.63586e-07	-2.28426e-05	-7.98685e-10	-2.28418e-05	3.88609	661166	23.1175	661143
63.0823	11.4133	2.71933	11.7328	-13.4014	19.865	3.88623	-0.00201673	927.791	49.8395	1	10	0.00457422	0.000389867	0	0.000179529	2.1417e-05	9.81221e-06	-52.0684	0.0251681	0.0154714	0.0198512	-13.4781	11.7524	11.4288	2.73918	0.0829105	0.0197543	0.0852313	13.4014	49839.5	209181	215036	-76.5986	0.0000000E+000	0.0000000E+000	0.0000000E+000	76.5986	0.0000000E+000	0.0000000E+000	0.0000000E+000	-76.5986	0.0000000E+000	0.0000000E+000	0.0000000E+000	-13.4014	0.0000000E+000	0.0000000E+000	0.0000000E+000	13.4014	4.19709	76.5986	-4.24327e-07	-7.83747e-06	-4.31922e-11	-7.83743e-06	3.88621	1.927e+06	10.6196	1.92699e+06
39.8089	12.1271	2.06697	12.302	-9.67266	20.7659	3.88623	-0.00445787	1934.22	54.6036	1	10	0.00455981	0.000370655	0	0.000177951	-0.000341052	6.79348e-06	9.69616	0.0183283	0.0180665	-0.00308691	-9.64439	12.3193	12.1452	2.06389	0.0801318	0.0136578	0.0812874	9.67266	54603.7	320365	324985	-80.3273	0.0000000E+000	0.0000000E+000	0.0000000E+000	80.3273	0.0000000E+000	0.0000000E+000	0.0000000E+000	-80.3273	0.0000000E+000	0.0000000E+000	0.0000000E+000	-9.67266	0.0000000E+000	0.0000000E+000	0.0000000E+000	9.67266	5.8671	80.3273	-5.81983e-07	-1.73243e-05	1.52037e-09	-1.73259e-05	3.88658	871768	76.5055	871845
25.1044	12.555	1.53325	12.6483	-6.96263	21.645	3.88622	-0.00759968	4134.83	60.7604	1	10	0.00456678	0.000361061	0	0.000176222	2.1417e-05	3.62129e-06	94.9485	0.0100296	-0.000865159	-0.00999219	-6.91817	12.6462	12.5541	1.52325	0.0784793	0.00958409	0.0790623	6.96263	60760.4	497536	501233	-83.0374	0.0000000E+000	0.0000000E+000	0.0000000E+000	83.0374	0.0000000E+000	0.0000000E+000	0.0000000E+000	-83.0374	0.0000000E+000	0.0000000E+000	0.0000000E+000	-6.96263	0.0000000E+000	0.0000000E+000	0.0000000E+000	6.96263	8.1885	83.0374	-1.04783e-06	-2.95341e-05	-1.62762e-10	-2.95339e-05	3.8862	511366	2.81814	511364
15.8576	12.7981	1.16744	12.8512	-5.2121	22.523	3.88622	-0.0118745	8597.04	70.9465	1	10	0.00456194	0.000354982	0	0.000174385	-3.5815e-05	1.41688e-05	-7.59559	0.0399143	0.0395641	0.00527587	-5.21948	12.8911	12.8376	1.17272	0.0774921	0.00706883	0.0778138	5.2121	70946.5	777751	780980	-84.7879	0.0000000E+000	0.0000000E+000	0.0000000E+000	84.7879	0.0000000E+000	0.0000000E+000	0.0000000E+000	-84.7879	0.0000000E+000	0.0000000E+000	0.0000000E+000	-5.2121	0.0000000E+000	0.0000000E+000	0.0000000E+000	5.2121	10.9625	84.7879	-1.02473e-06	-4.61469e-05	4.25284e-10	-4.61473e-05	3.88626	327275	3.01613	327278
10.0032	13.0792	0.878027	13.1086	-3.8406	23.7878	3.88627	0.00607143	18120.6	81.2972	1	11	0.00456451	0.000348207	0	0.000179421	-3.5815e-05	1.19214e-05	-67.333	0.0342365	0.0131939	0.0315921	-3.97435	13.1239	13.0924	0.909619	0.0761144	0.00510969	0.0762857	3.8406	81297.2	1.21101e+06	1.21374e+06	-86.1594	0.0000000E+000	0.0000000E+000	0.0000000E+000	86.1594	0.0000000E+000	0.0000000E+000	0.0000000E+000	-86.1594	0.0000000E+000	0.0000000E+000	0.0000000E+000	-3.8406	0.0000000E+000	0.0000000E+000	0.0000000E+000	3.8406	14.8961	86.1594	2.03211e-06	2.35952e-05	-2.17448e-10	2.35954e-05	3.88631	640092	5.89893	640097
6.31058	13.1827	0.721302	13.2025	-3.13185	24.7113	3.88628	0.00582156	34965	104.366	1	11	0.00455826	0.000345258	0	0.000182813	0.000154958	9.26629e-06	49.182	0.0268387	0.0175434	-0.0203113	-3.03979	13.2189	13.2003	0.700991	0.0756303	0.00413816	0.0757435	3.13185	104366	1.90742e+06	1.91028e+06	-86.8681	0.0000000E+000	0.0000000E+000	0.0000000E+000	86.8681	0.0000000E+000	0.0000000E+000	0.0000000E+000	-86.8681	0.0000000E+000	0.0000000E+000	0.0000000E+000	-3.13185	0.0000000E+000	0.0000000E+000	0.0000000E+000	3.13185	18.2763	86.8681	3.82712e-06	2.26242e-05	9.02097e-10	2.26233e-05	3.88613	667567	26.618	667541
3.97785	13.3002	0.642328	13.3157	-2.76494	25.7183	3.88628	0.00737778	62289.5	144.945	1	11	0.00456274	0.000342659	0	0.000179105	0.000288499	5.73851e-06	20.6348	0.016747	0.0156726	-0.00590181	-2.73635	13.331	13.3158	0.636426	0.0750121	0.00362269	0.0750996	2.76494	144945	3.00126e+06	3.00475e+06	-87.2351	0.0000000E+000	0.0000000E+000	0.0000000E+000	87.2351	0.0000000E+000	0.0000000E+000	0.0000000E+000	-87.2351	0.0000000E+000	0.0000000E+000	0.0000000E+000	-2.76494	0.0000000E+000	0.0000000E+000	0.0000000E+000	2.76494	20.7062	87.2351	-2.34559e-06	2.86722e-05	2.12848e-09	2.867e-05	3.886	526755	39.1038	526716
2.51367	13.4059	0.638351	13.4211	-2.7262	27.2779	3.88629	0.00755132	99186.3	224.384	1	11	0.00456383	0.000340048	0	0.000189432	2.1417e-05	9.81485e-06	-4.69644	0.0288631	0.0287662	0.00236321	-2.73042	13.45	13.4347	0.640714	0.0744251	0.0035439	0.0745094	2.7262	224384	4.71227e+06	4.71761e+06	-87.2738	0.0000000E+000	0.0000000E+000	0.0000000E+000	87.2738	0.0000000E+000	0.0000000E+000	0.0000000E+000	-87.2738	0.0000000E+000	0.0000000E+000	0.0000000E+000	-2.7262	0.0000000E+000	0.0000000E+000	0.0000000E+000	2.7262	21.0009	87.2738	7.32529e-06	2.93466e-05	1.61726e-10	2.93465e-05	3.88627	514650	2.83619	514648
1.58469	13.5633	0.731166	13.583	-3.0857	29.7134	3.88629	0.00843195	137360	398.019	1	11	0.00457101	0.000336525	0	0.000194236	5.95716e-05	4.12268e-06	-12.2788	0.0122507	0.0119705	0.00260535	-3.09395	13.5951	13.5753	0.733772	0.0735148	0.00396302	0.0736216	3.0857	398019	7.38333e+06	7.39405e+06	-86.9143	0.0000000E+000	0.0000000E+000	0.0000000E+000	86.9143	0.0000000E+000	0.0000000E+000	0.0000000E+000	-86.9143	0.0000000E+000	0.0000000E+000	0.0000000E+000	-3.0857	0.0000000E+000	0.0000000E+000	0.0000000E+000	3.0857	18.5502	86.9143	-5.2294e-07	3.2769e-05	5.02305e-10	3.27685e-05	3.88623	460900	7.06498	460893
1.00469	13.7342	0.809929	13.7581	-3.37492	240.531	3.88626	0.00162235	195587	677.827	1	11	0.00500749	0.000363967	0	-0.000876328	9.77262e-05	3.20938e-07	33.1392	0.000881778	0.000738353	-0.000482046	-3.37273	13.7588	13.7349	0.809447	0.0725586	0.0042789	0.0726846	3.37492	677826	1.14941e+07	1.15141e+07	-86.6251	0.0000000E+000	0.0000000E+000	0.0000000E+000	86.6251	0.0000000E+000	0.0000000E+000	0.0000000E+000	-86.6251	0.0000000E+000	0.0000000E+000	0.0000000E+000	-3.37492	0.0000000E+000	0.0000000E+000	0.0000000E+000	3.37492	16.9573	86.6251	-0.00106552	6.30487e-06	1.58546e-10	6.30472e-06	3.88617	2.39546e+06	60.2375	2.3954e+06
0.632957	13.9395	0.983343	13.9741	-4.03518	240.531	3.88626	0.00162235	255706	1266.2	1	11	0.00502074	0.000359289	0	-0.000876328	9.77262e-05	3.24112e-07	-28.6166	0.000902094	0.000791898	0.000432054	-4.03672	13.9749	13.9402	0.983775	0.0713836	0.00503568	0.071561	4.03518	1.2662e+06	1.79492e+07	1.79938e+07	-85.9648	0.0000000E+000	0.0000000E+000	0.0000000E+000	85.9648	0.0000000E+000	0.0000000E+000	0.0000000E+000	-85.9648	0.0000000E+000	0.0000000E+000	0.0000000E+000	-4.03518	0.0000000E+000	0.0000000E+000	0.0000000E+000	4.03518	14.1756	85.9648	0.000000000000000E+000	6.30487e-06	1.58546e-10	6.30472e-06	3.88617	2.39546e+06	60.2375	2.3954e+06
0.401878	14.1488	1.2044	14.2	-4.86552	240.531	3.88626	0.00162235	328817	2365.5	1	11	0.00503394	0.000354504	0	-0.000876328	9.77262e-05	3.57671e-07	-39.0036	0.00100893	0.000784049	0.000634993	-4.86781	14.2008	14.1496	1.20504	0.0701689	0.00597307	0.0704227	4.86552	2.3655e+06	2.77889e+07	2.78894e+07	-85.1345	0.0000000E+000	0.0000000E+000	0.0000000E+000	85.1345	0.0000000E+000	0.0000000E+000	0.0000000E+000	-85.1345	0.0000000E+000	0.0000000E+000	0.0000000E+000	-4.86552	0.0000000E+000	0.0000000E+000	0.0000000E+000	4.86552	11.7476	85.1345	0.000000000000000E+000	6.30487e-06	1.58546e-10	6.30472e-06	3.88617	2.39546e+06	60.2375	2.3954e+06
0.251173	14.4879	1.52146	14.5676	-5.99498	240.531	3.88626	0.00162235	416472	4542.88	1	11	0.00503438	0.000345588	0	-0.000876328	9.77262e-05	2.58763e-07	-26.3099	0.000748762	0.000671197	0.000331871	-5.99601	14.5683	14.4886	1.52179	0.0682701	0.00716944	0.0686455	5.99498	4.54288e+06	4.32591e+07	4.34969e+07	-84.005	0.0000000E+000	0.0000000E+000	0.0000000E+000	84.005	0.0000000E+000	0.0000000E+000	0.0000000E+000	-84.005	0.0000000E+000	0.0000000E+000	0.0000000E+000	-5.99498	0.0000000E+000	0.0000000E+000	0.0000000E+000	5.99498	9.52238	84.005	0.000000000000000E+000	6.30487e-06	1.58546e-10	6.30472e-06	3.88617	2.39546e+06	60.2375	2.3954e+06
0.160751	14.88	1.75018	14.9825	-6.70832	240.531	3.88626	0.00162235	565695	7719.33	1	11	0.00503006	0.000335728	0	-0.000876328	9.77262e-05	5.40782e-07	12.4098	0.00161077	0.00157314	-0.000346158	-6.7063	14.9841	14.8815	1.74984	0.0662874	0.00779674	0.0667444	6.70832	7.71933e+06	6.56293e+07	6.60817e+07	-83.2917	0.0000000E+000	0.0000000E+000	0.0000000E+000	83.2917	0.0000000E+000	0.0000000E+000	0.0000000E+000	-83.2917	0.0000000E+000	0.0000000E+000	0.0000000E+000	-6.70832	0.0000000E+000	0.0000000E+000	0.0000000E+000	6.70832	8.50194	83.2917	0.000000000000000E+000	6.30487e-06	1.58546e-10	6.30472e-06	3.88617	2.39546e+06	60.2375	2.3954e+06
0.100469	15.2924	2.34848	15.4716	-8.73084	240.531	3.88626	0.00162235	674526	15541.8	1	11	0.00503261	0.00032528	0	-0.000876328	9.77262e-05	5.09195e-07	-17.494	0.00156541	0.001493	0.000470569	-8.73173	15.4732	15.2938	2.34896	0.0638855	0.00981105	0.0646344	8.73084	1.55418e+07	1.01202e+08	1.02388e+08	-81.2692	0.0000000E+000	0.0000000E+000	0.0000000E+000	81.2692	0.0000000E+000	0.0000000E+000	0.0000000E+000	-81.2692	0.0000000E+000	0.0000000E+000	0.0000000E+000	-8.73084	0.0000000E+000	0.0000000E+000	0.0000000E+000	8.73084	6.51158	81.2692	0.000000000000000E+000	6.30487e-06	1.58546e-10	6.30472e-06	3.88617	2.39546e+06	60.2375	2.3954e+06
0.0602816	16.0408	2.84995	16.292	-10.0746	240.532	3.88626	0.00162235	926397	28348.2	1	11	0.00502699	0.000308556	0	-0.000876328	9.77262e-05	7.76701e-07	-30.6333	0.00251721	0.00216592	0.00128262	-10.0777	16.2943	16.0429	2.85124	0.0604335	0.0107372	0.06138	10.0746	2.83482e+07	1.59556e+08	1.62055e+08	-79.9254	0.0000000E+000	0.0000000E+000	0.0000000E+000	79.9254	0.0000000E+000	0.0000000E+000	0.0000000E+000	-79.9254	0.0000000E+000	0.0000000E+000	0.0000000E+000	-10.0746	0.0000000E+000	0.0000000E+000	0.0000000E+000	10.0746	5.62843	79.9254	0.000000000000000E+000	6.30487e-06	1.58546e-10	6.30472e-06	3.88617	2.39546e+06	60.2375	2.3954e+06
0.0401878	16.9045	3.34845	17.233	-11.2041	240.532	3.88626	0.00162235	1.18272e+06	44652.9	1	11	0.0050284	0.00029179	0	-0.000876328	9.77262e-05	3.81022e-07	9.02374	0.00130581	0.00128965	-0.000204808	-11.2026	17.2342	16.9058	3.34824	0.0569223	0.0112752	0.0580283	11.2041	4.46529e+07	2.25429e+08	2.29809e+08	-78.7959	0.0000000E+000	0.0000000E+000	0.0000000E+000	78.7959	0.0000000E+000	0.0000000E+000	0.0000000E+000	-78.7959	0.0000000E+000	0.0000000E+000	0.0000000E+000	-11.2041	0.0000000E+000	0.0000000E+000	0.0000000E+000	11.2041	5.04847	78.7959	0.000000000000000E+000	6.30487e-06	1.58546e-10	6.30472e-06	3.88617	2.39546e+06	60.2375	2.3954e+06
0.0200939	18.7799	4.66908	19.3516	-13.9619	240.532	3.88626	0.00162235	1.69639e+06	98754	1	11	0.00502819	0.000259833	0	-0.000876328	9.77262e-05	4.43441e-07	49.4199	0.00170664	0.00111019	-0.00129619	-13.9574	19.3524	18.781	4.66779	0.0501487	0.012468	0.0516753	13.9619	9.87539e+07	3.97206e+08	4.09298e+08	-76.0381	0.0000000E+000	0.0000000E+000	0.0000000E+000	76.0381	0.0000000E+000	0.0000000E+000	0.0000000E+000	-76.0381	0.0000000E+000	0.0000000E+000	0.0000000E+000	-13.9619	0.0000000E+000	0.0000000E+000	0.0000000E+000	13.9619	4.02218	76.0381	0.000000000000000E+000	6.30487e-06	1.58546e-10	6.30472e-06	3.88617	2.39546e+06	60.2375	2.3954e+06
0.00796479	21.2017	5.3865	21.8753	-14.2549	20329.4	3.8863	0.000303074	3.70971e+06	224929	1	11	0.00502155	0.000229554	0	-0.0173723	0.000307577	5.97033e-07	-30.1928	0.00260084	0.00224801	0.00130799	-14.2568	21.8778	21.204	5.3878	0.0443062	0.0112564	0.0457137	14.2549	2.24929e+08	8.85341e+08	9.13466e+08	-75.7451	0.0000000E+000	0.0000000E+000	0.0000000E+000	75.7451	0.0000000E+000	0.0000000E+000	0.0000000E+000	-75.7451	0.0000000E+000	0.0000000E+000	0.0000000E+000	-14.2549	0.0000000E+000	0.0000000E+000	0.0000000E+000	14.2549	3.93609	75.7451	-0.0164959	1.17783e-06	9.32183e-11	1.17774e-06	3.88599	1.2823e+07	1014.86	1.28219e+07
0.00497799	22.8095	5.65742	23.5006	-13.9299	20329.4	3.8863	0.000303074	5.65129e+06	327511	1	11	0.00502927	0.000214006	0	-0.0173723	0.000307577	5.81233e-07	-3.2069	0.00271597	0.00271171	0.000151936	-13.9287	23.5033	22.8122	5.65758	0.0413006	0.0102438	0.042552	13.9299	3.27511e+08	1.32045e+09	1.36046e+09	-76.0701	0.0000000E+000	0.0000000E+000	0.0000000E+000	76.0701	0.0000000E+000	0.0000000E+000	0.0000000E+000	-76.0701	0.0000000E+000	0.0000000E+000	0.0000000E+000	-13.9299	0.0000000E+000	0.0000000E+000	0.0000000E+000	13.9299	4.03178	76.0701	0.000000000000000E+000	1.17783e-06	9.32183e-11	1.17774e-06	3.88599	1.2823e+07	1014.86	1.28219e+07
0.00318591	23.9065	7.35713	25.013	-17.1055	20329.4	3.8863	0.000303074	6.79012e+06	587440	1	11	0.0050316	0.00020116	0	-0.0173723	0.000307577	5.99522e-07	-38.879	0.00298033	0.00232011	0.00187069	-17.1081	25.0158	23.9089	7.35901	0.0382107	0.0117592	0.0399792	17.1055	5.87439e+08	1.90885e+09	1.99719e+09	-72.8945	0.0000000E+000	0.0000000E+000	0.0000000E+000	72.8945	0.0000000E+000	0.0000000E+000	0.0000000E+000	-72.8945	0.0000000E+000	0.0000000E+000	0.0000000E+000	-17.1055	0.0000000E+000	0.0000000E+000	0.0000000E+000	17.1055	3.24944	72.8945	0.000000000000000E+000	1.17783e-06	9.32183e-11	1.17774e-06	3.88599	1.2823e+07	1014.86	1.28219e+07
0.0019912	24.9394	8.92982	26.4899	-19.7005	20329.4	3.8863	0.000303074	8.95083e+06	1.01716e+06	1	11	0.00503347	0.000190015	0	-0.0173723	0.000307577	9.98026e-07	-11.2993	0.00525236	0.00515055	0.00102912	-19.6988	26.4951	24.9445	8.93085	0.0355407	0.0127257	0.0377503	19.7005	1.01716e+09	2.84074e+09	3.01735e+09	-70.2995	0.0000000E+000	0.0000000E+000	0.0000000E+000	70.2995	0.0000000E+000	0.0000000E+000	0.0000000E+000	-70.2995	0.0000000E+000	0.0000000E+000	0.0000000E+000	-19.7005	0.0000000E+000	0.0000000E+000	0.0000000E+000	19.7005	2.79282	70.2995	0.000000000000000E+000	1.17783e-06	9.32183e-11	1.17774e-06	3.88599	1.2823e+07	1014.86	1.28219e+07
0.00129428	24.8836	11.4883	27.4076	-24.7818	20329.4	3.8863	0.000303074	1.07038e+07	1.88064e+06	1	11	0.00503561	0.000183731	0	-0.0173723	0.000307577	3.24215e-07	-19.4107	0.00176462	0.00166432	0.000586451	-24.7815	27.4093	24.8853	11.4888	0.0331263	0.0152937	0.0364863	24.7818	1.88064e+09	4.07348e+09	4.48665e+09	-65.2182	0.0000000E+000	0.0000000E+000	0.0000000E+000	65.2182	0.0000000E+000	0.0000000E+000	0.0000000E+000	-65.2182	0.0000000E+000	0.0000000E+000	0.0000000E+000	-24.7818	0.0000000E+000	0.0000000E+000	0.0000000E+000	24.7818	2.166	65.2182	0.000000000000000E+000	1.17783e-06	9.32183e-11	1.17774e-06	3.88599	1.2823e+07	1014.86	1.28219e+07
0.000796479	27.4316	16.0214	31.7675	-30.287	20329.4	3.8863	0.000303074	1.24723e+07	3.17233e+06	1	11	0.00503412	0.000158467	0	-0.0173723	0.000307577	1.04036e-06	-38.2943	0.00656513	0.00515257	0.00406841	-30.2886	31.774	27.4368	16.0254	0.0271822	0.0158757	0.0314787	30.287	3.17233e+09	5.43163e+09	6.29017e+09	-59.713	0.0000000E+000	0.0000000E+000	0.0000000E+000	59.713	0.0000000E+000	0.0000000E+000	0.0000000E+000	-59.713	0.0000000E+000	0.0000000E+000	0.0000000E+000	-30.287	0.0000000E+000	0.0000000E+000	0.0000000E+000	30.287	1.71219	59.713	0.000000000000000E+000	1.17783e-06	9.32183e-11	1.17774e-06	3.88599	1.2823e+07	1014.86	1.28219e+07
0.000497799	27.4884	22.4751	35.5069	-39.2701	20329.4	3.8863	0.000303074	1.42254e+07	5.69955e+06	1	11	0.00503666	0.00014185	0	-0.0173723	0.000307577	6.34763e-07	24.2698	0.00447489	0.0040794	-0.00183933	-39.2636	35.5089	27.4925	22.4732	0.0218034	0.0178268	0.0281635	39.2701	5.69955e+09	6.97091e+09	9.00436e+09	-50.7299	0.0000000E+000	0.0000000E+000	0.0000000E+000	50.7299	0.0000000E+000	0.0000000E+000	0.0000000E+000	-50.7299	0.0000000E+000	0.0000000E+000	0.0000000E+000	-39.2701	0.0000000E+000	0.0000000E+000	0.0000000E+000	39.2701	1.22306	50.7299	0.000000000000000E+000	1.17783e-06	9.32183e-11	1.17774e-06	3.88599	1.2823e+07	1014.86	1.28219e+07
0.000298679	26.8471	34.9033	44.0342	-52.433	20329.4	3.8863	0.000303074	1.52668e+07	9.59183e+06	1	11	0.00503782	0.000114407	0	-0.0173723	0.000307577	8.26726e-07	119.411	0.00722619	-0.00354852	-0.0062949	-52.4317	44.027	26.8436	34.897	0.0138458	0.0180006	0.0227096	52.433	9.59183e+09	7.3779e+09	1.21011e+10	-37.567	0.0000000E+000	0.0000000E+000	0.0000000E+000	37.567	0.0000000E+000	0.0000000E+000	0.0000000E+000	-37.567	0.0000000E+000	0.0000000E+000	0.0000000E+000	-52.433	0.0000000E+000	0.0000000E+000	0.0000000E+000	52.433	0.769186	37.567	0.000000000000000E+000	1.17783e-06	9.32183e-11	1.17774e-06	3.88599	1.2823e+07	1014.86	1.28219e+07
9.95598e-05	36.3742	131.066	136.02	-74.4893	20329.4	3.8863	0.000303074	1.21968e+07	1.13246e+07	1	11	0.00503661	3.70285e-05	0	-0.0173723	0.000307577	2.00052e-06	-78.0211	0.0540266	0.0112133	0.0528501	-74.4907	136.074	36.3854	131.119	0.00196602	0.00708411	0.00735186	74.4893	1.13246e+10	3.14286e+09	1.17526e+10	-15.5107	0.0000000E+000	0.0000000E+000	0.0000000E+000	15.5107	0.0000000E+000	0.0000000E+000	0.0000000E+000	-15.5107	0.0000000E+000	0.0000000E+000	0.0000000E+000	-74.4893	0.0000000E+000	0.0000000E+000	0.0000000E+000	74.4893	0.277526	15.5107	0.000000000000000E+000	1.17783e-06	9.32183e-11	1.17774e-06	3.88599	1.2823e+07	1014.86	1.28219e+07