File: txt/18574_R297_UC90_SOC50_C05.mpt
EC-Lab ASCII FILE
Nb header lines : 65

Potentio Electrochemical Impedance Spectroscopy

Run on channel : 5 (SN 65912)
User :
CE vs. WE compliance from -10 V to 10 V
Electrode connection : standard
Potential control : Ewe
Ewe ctrl range : min = -10.00 V, max = 10.00 V
Safety Limits :
	Do not start on E overload
Acquisition started on : 10/21/2025 16:35:05.807
Technique started on : 10/21/2025 16:35:08.501
Loaded Setting File :  C:\Users\Celltest\OneDrive - store-dot.com\Documents\EC-Lab\Data\@Biologic Test Protocols\cathode half cell EIS SOC50.mps
Saved on :
	File : 18574_R297_UC90_SOC50_C05.mpr
	Directory : C:\Users\Celltest\OneDrive - store-dot.com\Documents\EC-Lab\Data\Michael\
	Host : 169.254.61.224
Device : VMP-3e (SN .003165)
Address : USB
EC-LAB for windows v11.62 (software)
Internet server v27.00 (firmware)
Command interpretor v12.03 (firmware)
Electrode material :
Initial state :
Electrolyte :
Comments :
Electrode surface area : 0.001 cm²
Characteristic mass : 0.001 g
Equivalent Weight : 0.000 g/eq.
Density : 0.000 g/cm3
Volume (V) : 0.001 cm³
Record Ece
Cycle Definition : Charge/Discharge alternance
Mode                Multi sine
E (V)               0.0000
vs.                 Eoc
tE (h:m:s)          0:00:0.0000
record              0
dI                  0.000
unit dI             mA
dt (s)              0.000
fi                  1.000
unit fi             MHz
ff                  0.100
unit ff             mHz
Nd                  10
Points              per decade
spacing             Logarithmic
Va (mV)             5.0
pw                  0.10
Na                  2
corr                0
E range min (V)     -10.000
E range max (V)     10.000
I Range             Auto
Bandwidth           5
nc cycles           0
goto Ns'            0
nr cycles           0
inc. cycle          0

freq/Hz	Re(Z)/Ohm	-Im(Z)/Ohm	|Z|/Ohm	Phase(Z)/deg	time/s	<Ewe>/V	<I>/mA	Cs/µF	Cp/µF	cycle number	I Range	|Ewe|/V	|I|/A	Ns	(Q-Qo)/mA.h	<Ece>/V	|Ece|/V	Phase(Zce)/deg	|Zce|/Ohm	Re(Zce)/Ohm	-Im(Zce)/Ohm	Phase(Zwe-ce)/deg	|Zwe-ce|/Ohm	Re(Zwe-ce)/Ohm	-Im(Zwe-ce)/Ohm	Re(Y)/Ohm-1	Im(Y)/Ohm-1	|Y|/Ohm-1	Phase(Y)/deg	Re(C)/nF	Im(C)/nF	|C|/nF	Phase(C)/deg	Re(M)	Im(M)	|M|	Phase(M)/deg	Re(Permittivity)	Im(Permittivity)	|Permittivity|	Phase(Permittivity)/deg	Re(Resistivity)/Ohm.cm	Im(Resistivity)/Ohm.cm	|Resistivity|/Ohm.cm	Phase(Resistivity)/deg	Re(Conductivity)/mS/cm	Im(Conductivity)/mS/cm	|Conductivity|/mS/cm	Phase(Conductivity)/deg	Tan(Delta)	Loss Angle(Delta)/deg	dq/mA.h	Pwe/W	Pce/W	Pwe-ce/W	<Ewe-Ece>/V	Rwe/Ohm	Rce/Ohm	Rwe-ce/Ohm		Ewe-Ece/V
1.00002e+06	1.00428	-0.107203	1.00998	6.09305	2.69352	3.88918	0.0470495	-1.48458	-0.016726	1	9	0.00021744	0.000215291	0	1.80101e-05	1.58158e-05	0.000187288	2.26395	0.869933	0.869254	-0.034365	4.32118	1.87887	1.87353	-0.141568	0.984522	-0.105094	0.990116	-6.09305	-16.726	156.689	157.579	-96.0931	0.0000000E+000	0.0000000E+000	0.0000000E+000	96.0931	0.0000000E+000	0.0000000E+000	0.0000000E+000	-96.0931	0.0000000E+000	0.0000000E+000	0.0000000E+000	6.09305	0.0000000E+000	0.0000000E+000	0.0000000E+000	-6.09305	9.36798	83.9069	1.80101e-05	0.000182984	7.44125e-10	0.000182983	3.88916	82661.3	0.336152	82661
630957	0.464833	0.161444	0.492071	-19.153	3.45953	3.88802	-0.0234082	1.56242	0.168185	1	9	0.000181103	0.000368043	0	1.72335e-05	-2.23667e-05	0.000107189	-104.413	0.291241	-0.0724933	0.282074	-48.5038	0.592148	0.39234	0.443518	1.91973	0.666757	2.03223	19.153	168.185	484.241	512.617	-70.847	0.0000000E+000	0.0000000E+000	0.0000000E+000	70.847	0.0000000E+000	0.0000000E+000	0.0000000E+000	-70.847	0.0000000E+000	0.0000000E+000	0.0000000E+000	-19.153	0.0000000E+000	0.0000000E+000	0.0000000E+000	19.153	2.87921	70.847	-1.51981e-06	-9.10115e-05	5.23563e-10	-9.1012e-05	3.88804	166097	0.955505	166098
398103	0.66402	0.144439	0.679548	-12.2719	4.22556	3.88779	-0.0342077	2.76783	0.125046	1	9	0.000700624	0.00103101	0	1.31544e-05	-0.000136914	4.59531e-05	170.56	0.0445708	-0.0439672	-0.00731002	-12.4706	0.635035	0.620053	0.137129	1.43794	0.312784	1.47157	12.2719	125.046	574.864	588.307	-77.7281	0.0000000E+000	0.0000000E+000	0.0000000E+000	77.7281	0.0000000E+000	0.0000000E+000	0.0000000E+000	-77.7281	0.0000000E+000	0.0000000E+000	0.0000000E+000	-12.2719	0.0000000E+000	0.0000000E+000	0.0000000E+000	12.2719	4.59724	77.7281	-2.43603e-06	-0.000132992	4.68351e-09	-0.000132997	3.88792	113652	4.00243	113656
251206	0.791712	0.286557	0.841976	-19.8975	4.99152	3.88756	-0.0482098	2.21095	0.256095	1	9	0.00230071	0.00273251	0	2.41722e-06	3.4907e-05	4.96715e-05	92.7939	0.018178	-0.000886056	-0.0181564	-18.7468	0.835131	0.790826	0.2684	1.11678	0.404214	1.18768	19.8975	256.095	707.552	752.472	-70.1025	0.0000000E+000	0.0000000E+000	0.0000000E+000	70.1025	0.0000000E+000	0.0000000E+000	0.0000000E+000	-70.1025	0.0000000E+000	0.0000000E+000	0.0000000E+000	-19.8975	0.0000000E+000	0.0000000E+000	0.0000000E+000	19.8975	2.76285	70.1025	-6.3231e-06	-0.000187419	-1.68286e-09	-0.000187417	3.88753	80638.3	0.724064	80637.6
158486	0.912713	0.405749	0.998838	-23.9677	5.75756	3.88741	-0.0518965	2.47498	0.40841	1	9	0.00515398	0.00515997	0	1.47885e-05	-0.000194188	5.42219e-05	91.9462	0.0105082	-0.00035687	-0.0105021	-23.423	0.994291	0.912356	0.395247	0.914838	0.406694	1.00116	23.9677	408.41	918.699	1005.39	-66.0323	0.0000000E+000	0.0000000E+000	0.0000000E+000	66.0323	0.0000000E+000	0.0000000E+000	0.0000000E+000	-66.0323	0.0000000E+000	0.0000000E+000	0.0000000E+000	-23.9677	0.0000000E+000	0.0000000E+000	0.0000000E+000	23.9677	2.24945	66.0323	8.20735e-06	-0.000201743	1.00777e-08	-0.000201753	3.8876	74906.9	3.74182	74910.6
100004	1.04924	0.507418	1.1655	-25.8086	6.52356	3.8873	-0.0496621	3.13645	0.594495	1	9	0.0053631	0.00460156	0	2.76289e-06	-0.000251461	2.88509e-05	108.323	0.00626982	-0.00197108	-0.00595193	-25.5866	1.16114	1.04727	0.501466	0.77242	0.373546	0.858004	25.8086	594.495	1229.3	1365.5	-64.1914	0.0000000E+000	0.0000000E+000	0.0000000E+000	64.1914	0.0000000E+000	0.0000000E+000	0.0000000E+000	-64.1914	0.0000000E+000	0.0000000E+000	0.0000000E+000	-25.8086	0.0000000E+000	0.0000000E+000	0.0000000E+000	25.8086	2.0678	64.1914	-1.57945e-05	-0.000193052	1.24881e-08	-0.000193064	3.88755	78275	5.06344	78280
63093.8	1.20128	0.612869	1.34859	-27.0297	7.29152	3.88729	-0.0426611	4.1159	0.850046	1	9	0.0053728	0.00398402	0	1.21867e-05	3.4907e-05	2.73482e-05	71.3466	0.00686448	0.00219555	-0.00650389	-26.741	1.34761	1.20348	0.606366	0.660521	0.336984	0.741516	27.0297	850.046	1666.17	1870.48	-62.9703	0.0000000E+000	0.0000000E+000	0.0000000E+000	62.9703	0.0000000E+000	0.0000000E+000	0.0000000E+000	-62.9703	0.0000000E+000	0.0000000E+000	0.0000000E+000	-27.0297	0.0000000E+000	0.0000000E+000	0.0000000E+000	27.0297	1.9601	62.9703	-3.30184e-06	-0.000165836	-1.48917e-09	-0.000165834	3.88725	91120.2	0.81824	91119.4
39814.1	1.37459	0.728605	1.55575	-27.926	8.05753	3.88729	-0.0378199	5.48645	1.20336	1	9	0.00546123	0.00351035	0	1.28528e-05	0.000111272	2.2308e-05	17.4885	0.00635491	0.00606117	-0.00190974	-27.7598	1.56022	1.38065	0.726695	0.567928	0.301032	0.642777	27.926	1203.36	2270.27	2569.47	-62.074	0.0000000E+000	0.0000000E+000	0.0000000E+000	62.074	0.0000000E+000	0.0000000E+000	0.0000000E+000	-62.074	0.0000000E+000	0.0000000E+000	0.0000000E+000	-27.926	0.0000000E+000	0.0000000E+000	0.0000000E+000	27.926	1.8866	62.074	1.02119e-07	-0.000147017	-4.20829e-09	-0.000147013	3.88717	102784	2.94215	102781
25116.9	1.57994	0.882321	1.80961	-29.1812	8.94953	3.88728	-0.0421025	7.1817	1.70729	1	9	0.00526507	0.0029095	0	7.31783e-06	9.21806e-05	8.31765e-06	7.98506	0.00285879	0.00283108	-0.000397129	-29.1266	1.81189	1.58277	0.881923	0.482469	0.269435	0.552604	29.1812	1707.29	3057.19	3501.61	-60.8188	0.0000000E+000	0.0000000E+000	0.0000000E+000	60.8188	0.0000000E+000	0.0000000E+000	0.0000000E+000	-60.8188	0.0000000E+000	0.0000000E+000	0.0000000E+000	-29.1812	0.0000000E+000	0.0000000E+000	0.0000000E+000	29.1812	1.79067	60.8188	-4.25748e-06	-0.000163664	-3.88104e-09	-0.000163661	3.88719	92329	2.18943	92326.9
15847.7	1.82642	1.06645	2.11498	-30.2808	9.59155	3.88729	-0.0433314	9.41699	2.39433	1	9	0.00486186	0.00229877	0	4.88542e-06	-7.96403e-05	4.99211e-06	5.55558	0.00217164	0.00216144	-0.000210239	-30.2464	2.11674	1.82858	1.06624	0.408309	0.238413	0.472818	30.2808	2394.33	4100.56	4748.41	-59.7192	0.0000000E+000	0.0000000E+000	0.0000000E+000	59.7192	0.0000000E+000	0.0000000E+000	0.0000000E+000	-59.7192	0.0000000E+000	0.0000000E+000	0.0000000E+000	-30.2808	0.0000000E+000	0.0000000E+000	0.0000000E+000	30.2808	1.71261	59.7192	-2.58354e-06	-0.000168442	3.45093e-09	-0.000168445	3.88737	89710.6	1.83793	89712.4
10002.2	2.11387	1.27576	2.46901	-31.1117	10.2336	3.88728	-0.0364793	12.4726	3.33001	1	9	0.00457512	0.00185302	0	1.59022e-06	1.58158e-05	2.68403e-05	47.6053	0.0144846	0.00976604	-0.0106971	-30.7824	2.47189	2.12364	1.26506	0.346763	0.209277	0.405021	31.1117	3330.01	5517.68	6444.67	-58.8883	0.0000000E+000	0.0000000E+000	0.0000000E+000	58.8883	0.0000000E+000	0.0000000E+000	0.0000000E+000	-58.8883	0.0000000E+000	0.0000000E+000	0.0000000E+000	-31.1117	0.0000000E+000	0.0000000E+000	0.0000000E+000	31.1117	1.65696	58.8883	-8.07889e-07	-0.000141806	-5.76949e-10	-0.000141805	3.88727	106561	0.433555	106561
6309.38	2.4726	1.54746	2.91692	-32.0401	10.8756	3.88728	-0.040464	16.301	4.58781	1	9	0.00479472	0.00164376	0	-4.36375e-06	5.39982e-05	1.42525e-05	-75.191	0.00867069	0.00221621	0.00838268	-32.1564	2.92325	2.47482	1.55585	0.290607	0.181874	0.342828	32.0401	4587.81	7330.6	8647.87	-57.9599	0.0000000E+000	0.0000000E+000	0.0000000E+000	57.9599	0.0000000E+000	0.0000000E+000	0.0000000E+000	-57.9599	0.0000000E+000	0.0000000E+000	0.0000000E+000	-32.0401	0.0000000E+000	0.0000000E+000	0.0000000E+000	32.0401	1.59784	57.9599	-3.41984e-06	-0.000157295	-2.18498e-09	-0.000157293	3.88723	96067.8	1.33448	96066.4
3983.6	2.94589	1.84349	3.47515	-32.0376	11.4381	3.8871	-0.10083	21.6723	6.09868	1	9	0.00467264	0.00134458	0	-1.38486e-05	0.000187637	6.4144e-06	57.746	0.00477054	0.00254591	-0.00403441	-31.9589	3.47518	2.94844	1.83945	0.243932	0.152648	0.287757	32.0376	6098.68	9745.69	11496.6	-57.9624	0.0000000E+000	0.0000000E+000	0.0000000E+000	57.9624	0.0000000E+000	0.0000000E+000	0.0000000E+000	-57.9624	0.0000000E+000	0.0000000E+000	0.0000000E+000	-32.0376	0.0000000E+000	0.0000000E+000	0.0000000E+000	32.0376	1.598	57.9624	-7.68412e-06	-0.000391935	-1.89194e-08	-0.000391916	3.88691	38551.1	1.86093	38549.3
2510.8	3.44454	2.23656	4.10696	-32.9959	12.4718	3.8872	-0.0258426	28.3417	8.4052	1	10	0.00480081	0.00116895	0	-2.60146e-05	1.58158e-05	8.9961e-06	-63.217	0.00769591	0.00346788	0.00687029	-33.0498	4.11361	3.44801	2.24343	0.204217	0.132599	0.243489	32.9959	8405.2	12944.9	15434.3	-57.0041	0.0000000E+000	0.0000000E+000	0.0000000E+000	57.0041	0.0000000E+000	0.0000000E+000	0.0000000E+000	-57.0041	0.0000000E+000	0.0000000E+000	0.0000000E+000	-32.9959	0.0000000E+000	0.0000000E+000	0.0000000E+000	32.9959	1.54011	57.0041	-2.32726e-06	-0.000100455	-4.08721e-10	-0.000100455	3.88718	150418	0.612004	150418
1585.51	4.10191	2.6821	4.90095	-33.1793	13.3738	3.8872	-0.0251538	37.4263	11.209	1	10	0.00468	0.000954918	0	-3.19165e-05	-7.96403e-05	3.0637e-06	-8.37456	0.00320834	0.00317413	0.000467275	-33.1636	4.90386	4.10508	2.68256	0.170776	0.111664	0.204042	33.1793	11209	17142.6	20482	-56.8207	0.0000000E+000	0.0000000E+000	0.0000000E+000	56.8207	0.0000000E+000	0.0000000E+000	0.0000000E+000	-56.8207	0.0000000E+000	0.0000000E+000	0.0000000E+000	-33.1793	0.0000000E+000	0.0000000E+000	0.0000000E+000	33.1793	1.52937	56.8207	-3.6764e-06	-9.77778e-05	2.00325e-09	-9.77798e-05	3.88728	154538	3.16614	154541
1000.32	4.8906	3.19654	5.84259	-33.169	14.2759	3.8872	-0.0251724	49.7738	14.8988	1	10	0.00459466	0.000786407	0	-3.86276e-05	-2.23667e-05	7.3942e-06	-81.8093	0.00940252	0.00133957	0.0093066	-33.2381	5.84881	4.89194	3.20585	0.143269	0.0936417	0.171157	33.169	14898.8	22794.6	27231.7	-56.831	0.0000000E+000	0.0000000E+000	0.0000000E+000	56.831	0.0000000E+000	0.0000000E+000	0.0000000E+000	-56.831	0.0000000E+000	0.0000000E+000	0.0000000E+000	-33.169	0.0000000E+000	0.0000000E+000	0.0000000E+000	33.169	1.52997	56.831	-2.93941e-06	-9.78502e-05	5.63022e-10	-9.78507e-05	3.88722	154423	0.888539	154424
631.01	5.9298	3.80846	7.04748	-32.7109	15.1766	3.8872	-0.0250309	66.2269	19.3404	1	10	0.00456322	0.000647497	0	-4.37787e-05	7.30894e-05	9.83215e-06	-82.9887	0.0151849	0.00185354	0.0150713	-32.8058	7.05719	5.93166	3.82353	0.119391	0.07668	0.141895	32.7109	19340.4	30113.2	35789.1	-57.2891	0.0000000E+000	0.0000000E+000	0.0000000E+000	57.2891	0.0000000E+000	0.0000000E+000	0.0000000E+000	-57.2891	0.0000000E+000	0.0000000E+000	0.0000000E+000	-32.7109	0.0000000E+000	0.0000000E+000	0.0000000E+000	32.7109	1.55701	57.2891	-2.70417e-06	-9.73001e-05	-1.8295e-09	-9.72983e-05	3.88712	155296	2.91997	155293
398.089	7.27655	4.35419	8.47981	-30.8957	16.0778	3.88718	-0.0245059	91.819	24.2089	1	10	0.0045352	0.000534824	0	-4.96268e-05	0.000111272	7.55471e-06	67.3072	0.0141256	0.00544952	-0.0130321	-30.8012	8.47781	7.282	4.34116	0.101194	0.0605529	0.117927	30.8957	24208.9	40457	47147	-59.1043	0.0000000E+000	0.0000000E+000	0.0000000E+000	59.1043	0.0000000E+000	0.0000000E+000	0.0000000E+000	-59.1043	0.0000000E+000	0.0000000E+000	0.0000000E+000	-30.8957	0.0000000E+000	0.0000000E+000	0.0000000E+000	30.8957	1.67116	59.1043	-3.07025e-06	-9.5259e-05	-2.72682e-09	-9.52563e-05	3.88707	158622	4.54061	158618
251.044	8.93314	4.6771	10.0835	-27.6351	16.976	3.88718	-0.0249527	135.548	29.1627	1	10	0.0045182	0.00044808	0	-5.60092e-05	-9.87315e-05	1.84915e-05	59.1472	0.0412683	0.0211638	-0.0354284	-27.401	10.0859	8.9543	4.64168	0.0878586	0.0459999	0.0991722	27.6351	29162.7	55699.9	62872.4	-62.3649	0.0000000E+000	0.0000000E+000	0.0000000E+000	62.3649	0.0000000E+000	0.0000000E+000	0.0000000E+000	-62.3649	0.0000000E+000	0.0000000E+000	0.0000000E+000	-27.6351	0.0000000E+000	0.0000000E+000	0.0000000E+000	27.6351	1.90997	62.3649	-3.22293e-06	-9.69958e-05	2.46362e-09	-9.69983e-05	3.88728	155782	3.95674	155786
158.428	10.7434	4.60345	11.6881	-23.1947	17.8809	3.88719	-0.0233368	218.225	33.8519	1	10	0.0045122	0.000386051	0	-6.27125e-05	-7.96403e-05	6.11978e-06	-38.4809	0.0158523	0.0124094	0.00986413	-23.2152	11.7034	10.7558	4.61331	0.0786417	0.0336973	0.0855571	23.1947	33851.9	79002.3	85949.5	-66.8053	0.0000000E+000	0.0000000E+000	0.0000000E+000	66.8053	0.0000000E+000	0.0000000E+000	0.0000000E+000	-66.8053	0.0000000E+000	0.0000000E+000	0.0000000E+000	-23.1947	0.0000000E+000	0.0000000E+000	0.0000000E+000	23.1947	2.33377	66.8053	-3.12575e-06	-9.07144e-05	1.85855e-09	-9.07163e-05	3.88727	166569	3.41265	166573
100.032	12.3802	4.03645	13.0216	-18.058	18.7798	3.88719	-0.0247554	394.168	37.8747	1	10	0.00450955	0.000346312	0	-6.8602e-05	0.000111272	1.0754e-05	66.2373	0.031053	0.0125128	-0.0284204	-17.9221	13.0248	12.3928	4.00803	0.0730125	0.023805	0.0767952	18.058	37874.7	116166	122184	-71.942	0.0000000E+000	0.0000000E+000	0.0000000E+000	71.942	0.0000000E+000	0.0000000E+000	0.0000000E+000	-71.942	0.0000000E+000	0.0000000E+000	0.0000000E+000	-18.058	0.0000000E+000	0.0000000E+000	0.0000000E+000	18.058	3.06711	71.942	-2.85454e-06	-9.62288e-05	-2.75458e-09	-9.6226e-05	3.88707	157024	4.49485	157019
63.0823	13.5588	3.25557	13.9441	-13.5016	19.695	3.88719	-0.0217245	774.971	42.2432	1	10	0.00451162	0.00032355	0	-7.43435e-05	-0.000251461	6.40191e-06	-33.9259	0.0197865	0.016418	0.0110432	-13.5299	13.9627	13.5752	3.26661	0.0697329	0.0167434	0.0717148	13.5016	42243.2	175934	180935	-76.4984	0.0000000E+000	0.0000000E+000	0.0000000E+000	76.4984	0.0000000E+000	0.0000000E+000	0.0000000E+000	-76.4984	0.0000000E+000	0.0000000E+000	0.0000000E+000	-13.5016	0.0000000E+000	0.0000000E+000	0.0000000E+000	13.5016	4.16479	76.4984	-2.50954e-06	-8.44474e-05	5.46288e-09	-8.44528e-05	3.88744	178931	11.575	178942
39.8089	14.3523	2.46608	14.5627	-9.74962	20.5958	3.88719	-0.0243197	1621.18	46.4907	1	10	0.00450411	0.000309292	0	-8.04548e-05	7.30894e-05	7.8758e-06	-42.2198	0.0254639	0.0188579	0.0171112	-9.80332	14.5841	14.3712	2.48319	0.0676771	0.0116286	0.0686688	9.74962	46490.7	270571	274536	-80.2504	0.0000000E+000	0.0000000E+000	0.0000000E+000	80.2504	0.0000000E+000	0.0000000E+000	0.0000000E+000	-80.2504	0.0000000E+000	0.0000000E+000	0.0000000E+000	-9.74962	0.0000000E+000	0.0000000E+000	0.0000000E+000	9.74962	5.81989	80.2504	-3.079e-06	-9.45354e-05	-1.77752e-09	-9.45336e-05	3.88711	159837	3.00535	159834
25.1044	14.8747	1.85195	14.9896	-7.09698	21.4751	3.88718	-0.0241783	3423.26	52.2541	1	10	0.00450753	0.000300711	0	-8.71909e-05	-0.000156005	1.11333e-05	-38.1097	0.0370231	0.029131	0.0228495	-7.16974	15.0213	14.9039	1.8748	0.0662019	0.00824234	0.066713	7.09698	52254.1	419701	422941	-82.903	0.0000000E+000	0.0000000E+000	0.0000000E+000	82.903	0.0000000E+000	0.0000000E+000	0.0000000E+000	-82.903	0.0000000E+000	0.0000000E+000	0.0000000E+000	-7.09698	0.0000000E+000	0.0000000E+000	0.0000000E+000	7.09698	8.03193	82.903	-2.56058e-06	-9.39852e-05	3.77193e-09	-9.3989e-05	3.88734	160772	6.45229	160778
15.8576	15.2254	1.35494	15.2855	-5.08549	22.6001	3.88724	-0.0135918	7407.35	58.2026	1	11	0.00451486	0.000295368	0	-9.41092e-05	-0.000194188	1.84703e-05	158.756	0.0625333	-0.058284	-0.0226583	-5.02	15.2255	15.1671	1.33228	0.0651638	0.00579908	0.0654213	5.08549	58202.5	654018	656602	-84.9145	0.0000000E+000	0.0000000E+000	0.0000000E+000	84.9145	0.0000000E+000	0.0000000E+000	0.0000000E+000	-84.9145	0.0000000E+000	0.0000000E+000	0.0000000E+000	-5.08549	0.0000000E+000	0.0000000E+000	0.0000000E+000	5.08549	11.2369	84.9145	-2.90373e-06	-5.28344e-05	2.63935e-09	-5.2837e-05	3.88743	286000	14.2872	286014
10.0032	15.3977	1.00813	15.4307	-3.74597	23.8328	3.88723	-0.0134425	15782	67.364	1	11	0.00500691	0.000324477	0	-9.66441e-05	0.00024491	5.18156e-06	4.64857	0.015969	0.0159164	-0.00129419	-3.73732	15.4465	15.4137	1.00684	0.0646674	0.00423396	0.0648058	3.74597	67364	1.02888e+06	1.03109e+06	-86.254	0.0000000E+000	0.0000000E+000	0.0000000E+000	86.254	0.0000000E+000	0.0000000E+000	0.0000000E+000	-86.254	0.0000000E+000	0.0000000E+000	0.0000000E+000	-3.74597	0.0000000E+000	0.0000000E+000	0.0000000E+000	3.74597	15.2735	86.254	9.12601e-07	-5.2254e-05	-3.2922e-09	-5.22507e-05	3.88699	289176	18.2192	289158
6.31058	15.5508	0.809749	15.5719	-2.98077	24.7563	3.88721	-0.0146797	31145.8	84.2209	1	11	0.0050072	0.000321554	0	-0.000100266	9.21806e-05	4.14883e-06	13.1276	0.0129024	0.0125653	-0.00293042	-2.96761	15.5843	15.5634	0.806819	0.0641315	0.00333941	0.0642184	2.98077	84221	1.61742e+06	1.61961e+06	-87.0192	0.0000000E+000	0.0000000E+000	0.0000000E+000	87.0192	0.0000000E+000	0.0000000E+000	0.0000000E+000	-87.0192	0.0000000E+000	0.0000000E+000	0.0000000E+000	-2.98077	0.0000000E+000	0.0000000E+000	0.0000000E+000	2.98077	19.2045	87.0192	1.37006e-06	-5.70629e-05	-1.35318e-09	-5.70616e-05	3.88711	264802	6.27947	264796
3.97785	15.6625	0.743821	15.6802	-2.71896	25.7633	3.88724	-0.0122466	53790.2	121.042	1	11	0.00500549	0.000319224	0	-0.000106864	5.39982e-05	6.00863e-06	-3.03024	0.0188226	0.0187963	0.000995019	-2.71933	15.699	15.6813	0.744816	0.0637029	0.00302528	0.0637747	2.71896	121042	2.54877e+06	2.55164e+06	-87.281	0.0000000E+000	0.0000000E+000	0.0000000E+000	87.281	0.0000000E+000	0.0000000E+000	0.0000000E+000	-87.281	0.0000000E+000	0.0000000E+000	0.0000000E+000	-2.71896	0.0000000E+000	0.0000000E+000	0.0000000E+000	2.71896	21.0569	87.281	-5.65783e-06	-4.76053e-05	-6.61292e-10	-4.76046e-05	3.88718	317414	4.40925	317410
2.51367	15.795	0.714132	15.8111	-2.58873	27.3229	3.88724	-0.0120904	88660.9	180.869	1	11	0.0050069	0.000316669	0	-0.00011052	-0.000327826	5.7714e-06	26.6853	0.0182254	0.0162841	-0.00818483	-2.55646	15.827	15.8113	0.705948	0.063182	0.00285662	0.0632465	2.58873	180868	4.00041e+06	4.0045e+06	-87.4113	0.0000000E+000	0.0000000E+000	0.0000000E+000	87.4113	0.0000000E+000	0.0000000E+000	0.0000000E+000	-87.4113	0.0000000E+000	0.0000000E+000	0.0000000E+000	-2.58873	0.0000000E+000	0.0000000E+000	0.0000000E+000	2.58873	22.1178	87.4113	6.63558e-07	-4.69983e-05	3.96356e-09	-4.70023e-05	3.88756	321513	27.1145	321541
1.58469	15.9302	0.758669	15.9482	-2.72663	29.7584	3.88724	-0.0105967	132381	299.574	1	11	0.00500562	0.000313866	0	-0.000110169	-0.000175096	4.56717e-06	-15.0952	0.0145513	0.0140492	0.00378951	-2.73782	15.9625	15.9442	0.762459	0.0626318	0.00298282	0.0627028	2.72663	299574	6.29031e+06	6.29744e+06	-87.2734	0.0000000E+000	0.0000000E+000	0.0000000E+000	87.2734	0.0000000E+000	0.0000000E+000	0.0000000E+000	-87.2734	0.0000000E+000	0.0000000E+000	0.0000000E+000	-2.72663	0.0000000E+000	0.0000000E+000	0.0000000E+000	2.72663	20.9976	87.2734	-1.95206e-06	-4.11918e-05	1.85544e-09	-4.11936e-05	3.88742	366837	16.5237	366853
1.00469	16.0692	0.854758	16.0919	-3.04483	240.576	3.88722	-0.010803	185329	522.895	1	11	0.00507483	0.000315365	0	-0.00191963	0.000187637	5.13401e-07	18.0481	0.00162796	0.00154786	-0.000504364	-3.04274	16.0934	16.0707	0.854253	0.0620553	0.00330087	0.062143	3.04483	522896	9.83027e+06	9.84416e+06	-86.9552	0.0000000E+000	0.0000000E+000	0.0000000E+000	86.9552	0.0000000E+000	0.0000000E+000	0.0000000E+000	-86.9552	0.0000000E+000	0.0000000E+000	0.0000000E+000	-3.04483	0.0000000E+000	0.0000000E+000	0.0000000E+000	3.04483	18.7997	86.9552	-0.0017997	-4.19937e-05	-2.02704e-09	-4.19916e-05	3.88703	359827	17.3689	359810
0.632957	16.2846	1.00588	16.3156	-3.53461	240.576	3.88722	-0.010803	249976	950.138	1	11	0.00508954	0.000311943	0	-0.00191963	0.000187637	5.46851e-07	-0.193331	0.00175305	0.00175304	5.91523e-06	-3.53426	16.3174	16.2863	1.00589	0.0611744	0.00377869	0.061291	3.53461	950138	1.53821e+07	1.54114e+07	-86.4654	0.0000000E+000	0.0000000E+000	0.0000000E+000	86.4654	0.0000000E+000	0.0000000E+000	0.0000000E+000	-86.4654	0.0000000E+000	0.0000000E+000	0.0000000E+000	-3.53461	0.0000000E+000	0.0000000E+000	0.0000000E+000	3.53461	16.1893	86.4654	0.000000000000000E+000	-4.19937e-05	-2.02704e-09	-4.19916e-05	3.88703	359827	17.3689	359810
0.401878	16.4772	1.24958	16.5245	-4.33685	240.577	3.88722	-0.010803	316928	1812.32	1	11	0.00510292	0.000308809	0	-0.00191963	0.000187637	5.99328e-07	-12.8627	0.00194078	0.00189207	0.000432046	-4.33784	16.5264	16.4791	1.25002	0.0603429	0.00457623	0.0605161	4.33685	1.81232e+06	2.38975e+07	2.39661e+07	-85.6632	0.0000000E+000	0.0000000E+000	0.0000000E+000	85.6632	0.0000000E+000	0.0000000E+000	0.0000000E+000	-85.6632	0.0000000E+000	0.0000000E+000	0.0000000E+000	-4.33685	0.0000000E+000	0.0000000E+000	0.0000000E+000	4.33685	13.1862	85.6632	0.000000000000000E+000	-4.19937e-05	-2.02704e-09	-4.19916e-05	3.88703	359827	17.3689	359810
0.251173	16.8511	1.561	16.9233	-5.29247	240.577	3.88722	-0.010803	405923	3453.67	1	11	0.00510578	0.000301702	0	-0.00191963	0.000187637	8.98487e-07	3.63232	0.00297806	0.00297208	-0.000188671	-5.29091	16.9262	16.8541	1.56081	0.0588384	0.00545048	0.0590903	5.29247	3.45367e+06	3.72827e+07	3.74423e+07	-84.7075	0.0000000E+000	0.0000000E+000	0.0000000E+000	84.7075	0.0000000E+000	0.0000000E+000	0.0000000E+000	-84.7075	0.0000000E+000	0.0000000E+000	0.0000000E+000	-5.29247	0.0000000E+000	0.0000000E+000	0.0000000E+000	5.29247	10.7951	84.7075	0.000000000000000E+000	-4.19937e-05	-2.02704e-09	-4.19916e-05	3.88703	359827	17.3689	359810
0.160751	17.2378	1.86565	17.3385	-6.17708	240.578	3.88722	-0.010803	530684	6144.32	1	11	0.00509596	0.00029391	0	-0.00191963	0.000187637	5.62651e-07	-12.3965	0.00191437	0.00186973	0.000410969	-6.17776	17.3404	17.2397	1.86606	0.0573402	0.00620593	0.0576751	6.17708	6.14432e+06	5.67709e+07	5.71024e+07	-83.8229	0.0000000E+000	0.0000000E+000	0.0000000E+000	83.8229	0.0000000E+000	0.0000000E+000	0.0000000E+000	-83.8229	0.0000000E+000	0.0000000E+000	0.0000000E+000	-6.17708	0.0000000E+000	0.0000000E+000	0.0000000E+000	6.17708	9.23958	83.8229	0.000000000000000E+000	-4.19937e-05	-2.02704e-09	-4.19916e-05	3.88703	359827	17.3689	359810
0.100469	17.7298	2.51508	17.9073	-8.0739	240.578	3.88722	-0.010803	629846	12424.5	1	11	0.00509937	0.000284765	0	-0.00191963	0.000187637	7.25429e-07	-18.1212	0.00254747	0.00242112	0.000792334	-8.07532	17.9098	17.7322	2.51588	0.0552897	0.00784319	0.0558432	8.0739	1.24245e+07	8.75851e+07	8.8462e+07	-81.9261	0.0000000E+000	0.0000000E+000	0.0000000E+000	81.9261	0.0000000E+000	0.0000000E+000	0.0000000E+000	-81.9261	0.0000000E+000	0.0000000E+000	0.0000000E+000	-8.0739	0.0000000E+000	0.0000000E+000	0.0000000E+000	8.0739	7.04938	81.9261	0.000000000000000E+000	-4.19937e-05	-2.02704e-09	-4.19916e-05	3.88703	359827	17.3689	359810
0.0602816	18.5735	3.01624	18.8168	-9.224	240.578	3.88722	-0.010803	875325	22490.9	1	11	0.00509535	0.000270786	0	-0.00191963	0.000187637	2.5861e-07	-9.70934	0.000955035	0.000941355	0.000161067	-9.22403	18.8178	18.5745	3.0164	0.0524567	0.00851868	0.0531439	9.224	2.24909e+07	1.38496e+08	1.4031e+08	-80.776	0.0000000E+000	0.0000000E+000	0.0000000E+000	80.776	0.0000000E+000	0.0000000E+000	0.0000000E+000	-80.776	0.0000000E+000	0.0000000E+000	0.0000000E+000	-9.224	0.0000000E+000	0.0000000E+000	0.0000000E+000	9.224	6.15784	80.776	0.000000000000000E+000	-4.19937e-05	-2.02704e-09	-4.19916e-05	3.88703	359827	17.3689	359810
0.0401878	19.564	3.47043	19.8694	-10.059	240.579	3.88722	-0.010803	1.14115e+06	34812.9	1	11	0.0050954	0.000256445	0	-0.00191963	0.000187637	5.95478e-07	2.76242	0.00232205	0.00231935	-0.00011191	-10.0575	19.8717	19.5663	3.47032	0.049555	0.00879051	0.0503286	10.059	3.48129e+07	1.96252e+08	1.99316e+08	-79.941	0.0000000E+000	0.0000000E+000	0.0000000E+000	79.941	0.0000000E+000	0.0000000E+000	0.0000000E+000	-79.941	0.0000000E+000	0.0000000E+000	0.0000000E+000	-10.059	0.0000000E+000	0.0000000E+000	0.0000000E+000	10.059	5.63733	79.941	0.000000000000000E+000	-4.19937e-05	-2.02704e-09	-4.19916e-05	3.88703	359827	17.3689	359810
0.0200939	21.4057	4.69393	21.9143	-12.3683	240.579	3.88722	-0.010803	1.68741e+06	77417.2	1	11	0.0050972	0.000232597	0	-0.00191963	0.000187637	1.10271e-06	-9.89687	0.00474085	0.0046703	0.000814835	-12.3677	21.919	21.4104	4.69474	0.0445732	0.00977419	0.0456323	12.3683	7.74172e+07	3.53045e+08	3.61434e+08	-77.6317	0.0000000E+000	0.0000000E+000	0.0000000E+000	77.6317	0.0000000E+000	0.0000000E+000	0.0000000E+000	-77.6317	0.0000000E+000	0.0000000E+000	0.0000000E+000	-12.3683	0.0000000E+000	0.0000000E+000	0.0000000E+000	12.3683	4.5603	77.6317	0.000000000000000E+000	-4.19937e-05	-2.02704e-09	-4.19916e-05	3.88703	359827	17.3689	359810
0.00796479	23.6452	5.32033	24.2363	-12.6808	20329.5	3.88723	-0.000917234	3.75584e+06	180988	1	11	0.00508885	0.000209968	0	-0.0239773	-6.05491e-05	1.19186e-07	-67.4279	0.000567638	0.000217885	0.000524156	-12.6819	24.2367	23.6454	5.32086	0.040254	0.00905743	0.0412604	12.6808	1.80988e+08	8.04368e+08	8.24478e+08	-77.3192	0.0000000E+000	0.0000000E+000	0.0000000E+000	77.3192	0.0000000E+000	0.0000000E+000	0.0000000E+000	-77.3192	0.0000000E+000	0.0000000E+000	0.0000000E+000	-12.6808	0.0000000E+000	0.0000000E+000	0.0000000E+000	12.6808	4.4443	77.3192	-0.0220577	-3.5655e-06	5.55377e-11	-3.56556e-06	3.88729	4.23799e+06	66.0127	4.23806e+06
0.00497799	25.2603	5.69096	25.8935	-12.6963	20329.5	3.88723	-0.000917234	5.61798e+06	271376	1	11	0.00509722	0.000196853	0	-0.0239773	-6.05491e-05	2.53549e-07	-144.863	0.00128801	-0.00105331	0.000741293	-12.6984	25.8926	25.2593	5.6917	0.0376755	0.00848799	0.0386198	12.6963	2.71376e+08	1.20455e+09	1.23474e+09	-77.3037	0.0000000E+000	0.0000000E+000	0.0000000E+000	77.3037	0.0000000E+000	0.0000000E+000	0.0000000E+000	-77.3037	0.0000000E+000	0.0000000E+000	0.0000000E+000	-12.6963	0.0000000E+000	0.0000000E+000	0.0000000E+000	12.6963	4.43868	77.3037	0.000000000000000E+000	-3.5655e-06	5.55377e-11	-3.56556e-06	3.88729	4.23799e+06	66.0127	4.23806e+06
0.00318591	26.3671	7.33936	27.3695	-15.5547	20329.5	3.88723	-0.000917234	6.80656e+06	489451	1	11	0.00509974	0.000186329	0	-0.0239773	-6.05491e-05	3.65695e-07	-98.2419	0.00196263	-0.000281349	0.00194236	-15.5588	27.3698	26.3668	7.3413	0.0351988	0.00979767	0.036537	15.5547	4.89451e+08	1.75838e+09	1.82523e+09	-74.4453	0.0000000E+000	0.0000000E+000	0.0000000E+000	74.4453	0.0000000E+000	0.0000000E+000	0.0000000E+000	-74.4453	0.0000000E+000	0.0000000E+000	0.0000000E+000	-15.5547	0.0000000E+000	0.0000000E+000	0.0000000E+000	15.5547	3.59257	74.4453	0.000000000000000E+000	-3.5655e-06	5.55377e-11	-3.56556e-06	3.88729	4.23799e+06	66.0127	4.23806e+06
0.0019912	27.4874	8.8879	28.8887	-17.9183	20329.5	3.88723	-0.000917234	8.99304e+06	851237	1	11	0.00509998	0.000176539	0	-0.0239773	-6.05491e-05	3.8968e-07	-92.2768	0.00220733	-8.76902e-05	0.00220559	-17.9225	28.8893	27.4874	8.89011	0.0329367	0.0106499	0.0346157	17.9183	8.51237e+08	2.63261e+09	2.76681e+09	-72.0817	0.0000000E+000	0.0000000E+000	0.0000000E+000	72.0817	0.0000000E+000	0.0000000E+000	0.0000000E+000	-72.0817	0.0000000E+000	0.0000000E+000	0.0000000E+000	-17.9183	0.0000000E+000	0.0000000E+000	0.0000000E+000	17.9183	3.09268	72.0817	0.000000000000000E+000	-3.5655e-06	5.55377e-11	-3.56556e-06	3.88729	4.23799e+06	66.0127	4.23806e+06
0.00129428	27.6274	11.268	29.8369	-22.1884	20329.5	3.88723	-0.000917234	1.09131e+07	1.55644e+06	1	11	0.00510216	0.000171002	0	-0.0239773	-6.05491e-05	4.28119e-07	3.65511	0.0025036	0.0024985	-0.000159605	-22.1863	29.8392	27.6299	11.2678	0.0310336	0.0126572	0.0335155	22.1884	1.55644e+09	3.81615e+09	4.12134e+09	-67.8116	0.0000000E+000	0.0000000E+000	0.0000000E+000	67.8116	0.0000000E+000	0.0000000E+000	0.0000000E+000	-67.8116	0.0000000E+000	0.0000000E+000	0.0000000E+000	-22.1884	0.0000000E+000	0.0000000E+000	0.0000000E+000	22.1884	2.45185	67.8116	0.000000000000000E+000	-3.5655e-06	5.55377e-11	-3.56556e-06	3.88729	4.23799e+06	66.0127	4.23806e+06
0.000796479	30.0173	15.5137	33.7892	-27.331	20329.5	3.88723	-0.000917234	1.28804e+07	2.71521e+06	1	11	0.00510141	0.000150977	0	-0.0239773	-6.05491e-05	6.87512e-07	-51.0191	0.00455374	0.00286458	0.00353988	-27.3341	33.7934	30.0202	15.5172	0.0262915	0.0135881	0.0295952	27.331	2.71521e+09	5.25364e+09	5.91381e+09	-62.669	0.0000000E+000	0.0000000E+000	0.0000000E+000	62.669	0.0000000E+000	0.0000000E+000	0.0000000E+000	-62.669	0.0000000E+000	0.0000000E+000	0.0000000E+000	-27.331	0.0000000E+000	0.0000000E+000	0.0000000E+000	27.331	1.93489	62.669	0.000000000000000E+000	-3.5655e-06	5.55377e-11	-3.56556e-06	3.88729	4.23799e+06	66.0127	4.23806e+06
0.000497799	30.1162	21.7775	37.1652	-35.8713	20329.5	3.88723	-0.000917234	1.4681e+07	5.04084e+06	1	11	0.00510144	0.000137264	0	-0.0239773	-6.05491e-05	1.26558e-06	-91.1914	0.00922001	-0.000191707	0.00921802	-35.883	37.1704	30.116	21.7868	0.0218036	0.0157666	0.0269069	35.8713	5.04084e+09	6.97099e+09	8.6026e+09	-54.1287	0.0000000E+000	0.0000000E+000	0.0000000E+000	54.1287	0.0000000E+000	0.0000000E+000	0.0000000E+000	-54.1287	0.0000000E+000	0.0000000E+000	0.0000000E+000	-35.8713	0.0000000E+000	0.0000000E+000	0.0000000E+000	35.8713	1.3829	54.1287	0.000000000000000E+000	-3.5655e-06	5.55377e-11	-3.56556e-06	3.88729	4.23799e+06	66.0127	4.23806e+06
0.000298679	29.5542	33.9351	45.0005	-48.9474	20329.5	3.88723	-0.000917234	1.57024e+07	8.92957e+06	1	11	0.00510297	0.000113398	0	-0.0239773	-6.05491e-05	1.06187e-06	-21.0557	0.00936411	0.00873889	0.00336429	-48.9418	45.0087	29.5629	33.9385	0.0145943	0.0167577	0.022222	48.9474	8.92957e+09	7.77677e+09	1.18413e+10	-41.0526	0.0000000E+000	0.0000000E+000	0.0000000E+000	41.0526	0.0000000E+000	0.0000000E+000	0.0000000E+000	-41.0526	0.0000000E+000	0.0000000E+000	0.0000000E+000	-48.9474	0.0000000E+000	0.0000000E+000	0.0000000E+000	48.9474	0.870901	41.0526	0.000000000000000E+000	-3.5655e-06	5.55377e-11	-3.56556e-06	3.88729	4.23799e+06	66.0127	4.23806e+06
9.95598e-05	38.2176	122.927	128.731	-72.7297	20329.5	3.88723	-0.000917234	1.30043e+07	1.18582e+07	1	11	0.00509941	3.96129e-05	0	-0.0239773	-6.05491e-05	1.00638e-06	16.1674	0.0254055	0.0244007	-0.00707403	-72.7184	128.732	38.242	122.92	0.0023062	0.00741791	0.00776813	72.7297	1.18582e+10	3.68666e+09	1.2418e+10	-17.2703	0.0000000E+000	0.0000000E+000	0.0000000E+000	17.2703	0.0000000E+000	0.0000000E+000	0.0000000E+000	-17.2703	0.0000000E+000	0.0000000E+000	0.0000000E+000	-72.7297	0.0000000E+000	0.0000000E+000	0.0000000E+000	72.7297	0.310896	17.2703	0.000000000000000E+000	-3.5655e-06	5.55377e-11	-3.56556e-06	3.88729	4.23799e+06	66.0127	4.23806e+06