File: txt/18572_R297_UC90_SOC50_C03.mpt
EC-Lab ASCII FILE
Nb header lines : 65

Potentio Electrochemical Impedance Spectroscopy

Run on channel : 3 (SN 65921)
User :
CE vs. WE compliance from -10 V to 10 V
Electrode connection : standard
Potential control : Ewe
Ewe ctrl range : min = -10.00 V, max = 10.00 V
Safety Limits :
	Do not start on E overload
Acquisition started on : 10/21/2025 16:34:41.600
Technique started on : 10/21/2025 16:34:44.294
Loaded Setting File :  C:\Users\Celltest\OneDrive - store-dot.com\Documents\EC-Lab\Data\@Biologic Test Protocols\cathode half cell EIS SOC50.mps
Saved on :
	File : 18572_R297_UC90_SOC50_C03.mpr
	Directory : C:\Users\Celltest\OneDrive - store-dot.com\Documents\EC-Lab\Data\Michael\
	Host : 169.254.61.224
Device : VMP-3e (SN .003165)
Address : USB
EC-LAB for windows v11.62 (software)
Internet server v27.00 (firmware)
Command interpretor v12.03 (firmware)
Electrode material :
Initial state :
Electrolyte :
Comments :
Electrode surface area : 0.001 cm²
Characteristic mass : 0.001 g
Equivalent Weight : 0.000 g/eq.
Density : 0.000 g/cm3
Volume (V) : 0.001 cm³
Record Ece
Cycle Definition : Charge/Discharge alternance
Mode                Multi sine
E (V)               0.0000
vs.                 Eoc
tE (h:m:s)          0:00:0.0000
record              0
dI                  0.000
unit dI             mA
dt (s)              0.000
fi                  1.000
unit fi             MHz
ff                  0.100
unit ff             mHz
Nd                  10
Points              per decade
spacing             Logarithmic
Va (mV)             5.0
pw                  0.10
Na                  2
corr                0
E range min (V)     -10.000
E range max (V)     10.000
I Range             Auto
Bandwidth           5
nc cycles           0
goto Ns'            0
nr cycles           0
inc. cycle          0

freq/Hz	Re(Z)/Ohm	-Im(Z)/Ohm	|Z|/Ohm	Phase(Z)/deg	time/s	<Ewe>/V	<I>/mA	Cs/µF	Cp/µF	cycle number	I Range	|Ewe|/V	|I|/A	Ns	(Q-Qo)/mA.h	<Ece>/V	|Ece|/V	Phase(Zce)/deg	|Zce|/Ohm	Re(Zce)/Ohm	-Im(Zce)/Ohm	Phase(Zwe-ce)/deg	|Zwe-ce|/Ohm	Re(Zwe-ce)/Ohm	-Im(Zwe-ce)/Ohm	Re(Y)/Ohm-1	Im(Y)/Ohm-1	|Y|/Ohm-1	Phase(Y)/deg	Re(C)/nF	Im(C)/nF	|C|/nF	Phase(C)/deg	Re(M)	Im(M)	|M|	Phase(M)/deg	Re(Permittivity)	Im(Permittivity)	|Permittivity|	Phase(Permittivity)/deg	Re(Resistivity)/Ohm.cm	Im(Resistivity)/Ohm.cm	|Resistivity|/Ohm.cm	Phase(Resistivity)/deg	Re(Conductivity)/mS/cm	Im(Conductivity)/mS/cm	|Conductivity|/mS/cm	Phase(Conductivity)/deg	Tan(Delta)	Loss Angle(Delta)/deg	dq/mA.h	Pwe/W	Pce/W	Pwe-ce/W	<Ewe-Ece>/V	Rwe/Ohm	Rce/Ohm	Rwe-ce/Ohm		Ewe-Ece/V
1.00002e+06	0.984737	-0.136541	0.994158	7.89413	2.69356	3.88731	0.0131582	-1.1656	-0.0219869	1	9	0.000222928	0.000224238	0	7.6603e-06	-8.05151e-05	0.000192643	0.646487	0.859103	0.859048	-0.00969333	4.53474	1.84957	1.84378	-0.146234	0.996344	-0.13815	1.00588	-7.89413	-21.9869	158.57	160.087	-97.8941	0.0000000E+000	0.0000000E+000	0.0000000E+000	97.8941	0.0000000E+000	0.0000000E+000	0.0000000E+000	-97.8941	0.0000000E+000	0.0000000E+000	0.0000000E+000	7.89413	0.0000000E+000	0.0000000E+000	0.0000000E+000	-7.89413	7.21204	82.1059	7.6603e-06	5.11498e-05	-1.05943e-09	5.11509e-05	3.88739	295430	6.11902	295436
630957	0.490263	0.175801	0.52083	-19.727	3.45955	3.88692	-0.00533945	1.43483	0.163474	1	9	0.000178025	0.000341811	0	8.32463e-06	3.40493e-05	0.000119413	-102.197	0.349356	-0.0738099	0.34147	-51.1625	0.664079	0.416453	0.51727	1.80733	0.648081	1.92001	19.727	163.474	455.888	484.311	-70.2729	0.0000000E+000	0.0000000E+000	0.0000000E+000	70.2729	0.0000000E+000	0.0000000E+000	0.0000000E+000	-70.2729	0.0000000E+000	0.0000000E+000	0.0000000E+000	-19.727	0.0000000E+000	0.0000000E+000	0.0000000E+000	19.727	2.78874	70.2729	1.69267e-07	-2.0754e-05	-1.81804e-10	-2.07538e-05	3.88689	727964	6.37694	727957
398103	0.677752	0.137673	0.691593	-11.4824	4.22756	3.88701	-0.00675659	2.90385	0.115073	1	9	0.000679245	0.000982145	0	9.57578e-06	-0.000175985	5.43768e-05	171.355	0.0553653	-0.0547363	-0.00832185	-11.7292	0.636302	0.623015	0.129351	1.417	0.287838	1.44594	11.4824	115.073	566.491	578.061	-78.5176	0.0000000E+000	0.0000000E+000	0.0000000E+000	78.5176	0.0000000E+000	0.0000000E+000	0.0000000E+000	-78.5176	0.0000000E+000	0.0000000E+000	0.0000000E+000	-11.4824	0.0000000E+000	0.0000000E+000	0.0000000E+000	11.4824	4.9229	78.5176	-2.03398e-07	-2.62629e-05	1.18906e-09	-2.62641e-05	3.88719	575292	26.0465	575318
251206	0.817442	0.268709	0.860474	-18.1967	4.99355	3.88692	-0.00686841	2.3578	0.22993	1	9	0.00225784	0.00262394	0	1.55524e-05	-6.1421e-05	4.49233e-05	97.4906	0.0171205	-0.0022319	-0.0169744	-17.1605	0.853193	0.81521	0.251735	1.10403	0.362916	1.16215	18.1967	229.93	699.473	736.295	-71.8033	0.0000000E+000	0.0000000E+000	0.0000000E+000	71.8033	0.0000000E+000	0.0000000E+000	0.0000000E+000	-71.8033	0.0000000E+000	0.0000000E+000	0.0000000E+000	-18.1967	0.0000000E+000	0.0000000E+000	0.0000000E+000	18.1967	3.04211	71.8033	1.88776e-06	-2.66969e-05	4.21865e-10	-2.66974e-05	3.88698	565912	8.94253	565921
158486	0.929789	0.384818	1.00628	-22.4835	5.75951	3.88686	6.82511e-05	2.6096	0.381636	1	9	0.00513351	0.00510149	0	8.94431e-06	0.000205896	5.34701e-05	84.7098	0.0104813	0.000966367	-0.0104366	-21.9116	1.00323	0.930755	0.374381	0.918227	0.380032	0.993763	22.4835	381.636	922.102	997.957	-67.5165	0.0000000E+000	0.0000000E+000	0.0000000E+000	67.5165	0.0000000E+000	0.0000000E+000	0.0000000E+000	-67.5165	0.0000000E+000	0.0000000E+000	0.0000000E+000	-22.4835	0.0000000E+000	0.0000000E+000	0.0000000E+000	22.4835	2.41618	67.5165	-1.75645e-06	2.65282e-07	1.40526e-11	2.65268e-07	3.88665	5.69494e+07	3016.74	5.69464e+07
100004	1.05043	0.488449	1.15844	-24.9384	6.52555	3.88685	0.0105104	3.25825	0.579262	1	9	0.00533451	0.0046049	0	-1.32829e-05	-8.05151e-05	5.04714e-05	92.5804	0.0109604	-0.000493446	-0.0109492	-24.4555	1.15342	1.04994	0.4775	0.782743	0.363975	0.863229	24.9384	579.262	1245.73	1373.82	-65.0616	0.0000000E+000	0.0000000E+000	0.0000000E+000	65.0616	0.0000000E+000	0.0000000E+000	0.0000000E+000	-65.0616	0.0000000E+000	0.0000000E+000	0.0000000E+000	-24.9384	0.0000000E+000	0.0000000E+000	0.0000000E+000	24.9384	2.15054	65.0616	-1.21049e-05	4.08524e-05	-8.46248e-10	4.08533e-05	3.88693	369808	7.66049	369816
63093.8	1.19396	0.607707	1.33972	-26.9755	7.29156	3.88683	0.0158061	4.15087	0.854087	1	9	0.00537995	0.00401574	0	-3.09082e-05	3.40493e-05	2.50773e-05	102.199	0.00624474	-0.00131958	-0.00610373	-26.7678	1.33578	1.19264	0.601603	0.665217	0.338586	0.746427	26.9755	854.088	1678.02	1882.87	-63.0245	0.0000000E+000	0.0000000E+000	0.0000000E+000	63.0245	0.0000000E+000	0.0000000E+000	0.0000000E+000	-63.0245	0.0000000E+000	0.0000000E+000	0.0000000E+000	-26.9755	0.0000000E+000	0.0000000E+000	0.0000000E+000	26.9755	1.96469	63.0245	-9.80808e-06	6.14356e-05	5.38186e-10	6.14351e-05	3.8868	245907	2.15419	245905
39814.1	1.36302	0.739033	1.55048	-28.4667	8.05756	3.88684	0.0138668	5.40904	1.2289	1	9	0.00547183	0.00352912	0	-3.4852e-05	0.00012952	1.51101e-05	51.4893	0.00428155	0.00266595	-0.00335028	-28.311	1.55123	1.36568	0.735682	0.566982	0.307419	0.644962	28.4667	1228.9	2266.49	2578.21	-61.5333	0.0000000E+000	0.0000000E+000	0.0000000E+000	61.5333	0.0000000E+000	0.0000000E+000	0.0000000E+000	-61.5333	0.0000000E+000	0.0000000E+000	0.0000000E+000	-28.4667	0.0000000E+000	0.0000000E+000	0.0000000E+000	28.4667	1.84433	61.5333	-1.58045e-06	5.38981e-05	1.79603e-09	5.38963e-05	3.88671	280298	9.34026	280288
25116.9	1.56817	0.913532	1.81485	-30.2228	8.94956	3.88684	0.0162163	6.93634	1.7575	1	9	0.00520935	0.0028704	0	-3.8938e-05	5.31434e-05	1.08473e-05	-34.1433	0.00377902	0.00312765	0.00212103	-30.2309	1.81862	1.5713	0.915653	0.476113	0.277358	0.551009	30.2228	1757.5	3016.92	3491.5	-59.7772	0.0000000E+000	0.0000000E+000	0.0000000E+000	59.7772	0.0000000E+000	0.0000000E+000	0.0000000E+000	-59.7772	0.0000000E+000	0.0000000E+000	0.0000000E+000	-30.2228	0.0000000E+000	0.0000000E+000	0.0000000E+000	30.2228	1.7166	59.7772	1.39562e-06	6.30302e-05	8.6179e-10	6.30293e-05	3.88678	239687	3.27715	239683
15847.7	1.83041	1.11599	2.14379	-31.3704	9.71755	3.88684	0.0212136	8.99899	2.43866	1	9	0.00479846	0.00223831	0	-3.08287e-05	-4.13882e-06	4.29046e-06	-5.12992	0.00191683	0.00190915	0.000171392	-31.3478	2.14551	1.83232	1.11616	0.398276	0.242827	0.466464	31.3704	2438.66	3999.8	4684.6	-58.6296	0.0000000E+000	0.0000000E+000	0.0000000E+000	58.6296	0.0000000E+000	0.0000000E+000	0.0000000E+000	-58.6296	0.0000000E+000	0.0000000E+000	0.0000000E+000	-31.3704	0.0000000E+000	0.0000000E+000	0.0000000E+000	31.3704	1.64017	58.6296	3.17529e-06	8.24539e-05	-8.77993e-11	8.2454e-05	3.88684	183224	0.195102	183224
10002.2	2.14902	1.34515	2.5353	-32.0439	10.3616	3.88683	0.0135311	11.8291	3.32994	1	9	0.00464642	0.00183269	0	-2.57619e-05	-4.23269e-05	1.08409e-05	-41.9418	0.00591528	0.00439992	0.00395363	-32.0668	2.54112	2.15342	1.3491	0.334336	0.209273	0.394431	32.0439	3329.94	5319.95	6276.17	-57.9561	0.0000000E+000	0.0000000E+000	0.0000000E+000	57.9561	0.0000000E+000	0.0000000E+000	0.0000000E+000	-57.9561	0.0000000E+000	0.0000000E+000	0.0000000E+000	-32.0439	0.0000000E+000	0.0000000E+000	0.0000000E+000	32.0439	1.59761	57.9561	2.40021e-06	5.25933e-05	-5.72732e-10	5.25939e-05	3.88688	287251	3.12811	287254
6309.38	2.51736	1.61754	2.99225	-32.7228	11.0055	3.88683	0.0104731	15.5948	4.55714	1	9	0.00486804	0.00162688	0	-2.42657e-05	0.000110426	1.3842e-05	12.3615	0.00850829	0.00831103	-0.00182145	-32.6077	2.99826	2.52568	1.61572	0.281158	0.180659	0.334197	32.7228	4557.14	7092.25	8430.15	-57.2772	0.0000000E+000	0.0000000E+000	0.0000000E+000	57.2772	0.0000000E+000	0.0000000E+000	0.0000000E+000	-57.2772	0.0000000E+000	0.0000000E+000	0.0000000E+000	-32.7228	0.0000000E+000	0.0000000E+000	0.0000000E+000	32.7228	1.5563	57.2772	9.68352e-07	4.0707e-05	1.15649e-09	4.07058e-05	3.88672	371126	10.5438	371116
3983.6	3.01076	1.93385	3.57833	-32.7132	11.5681	3.88665	-0.073624	20.6596	6.03401	1	9	0.00475218	0.00132804	0	-2.86697e-05	-0.000118703	4.88935e-06	2.15378	0.00368162	0.00367902	-0.000138362	-32.6795	3.58135	3.01444	1.93371	0.235134	0.15103	0.27946	32.7132	6034.01	9394.18	11165.1	-57.2868	0.0000000E+000	0.0000000E+000	0.0000000E+000	57.2868	0.0000000E+000	0.0000000E+000	0.0000000E+000	-57.2868	0.0000000E+000	0.0000000E+000	0.0000000E+000	-32.7132	0.0000000E+000	0.0000000E+000	0.0000000E+000	32.7132	1.55687	57.2868	-6.10331e-06	-0.000286151	8.7394e-09	-0.000286159	3.88677	52790.6	1.61229	52792.2
2510.8	3.55478	2.35627	4.26479	-33.5383	12.6018	3.88676	-0.0158857	26.9018	8.21177	1	10	0.00489858	0.00114861	0	-3.641e-05	9.13315e-05	1.15472e-05	-52.7589	0.0100532	0.00608389	0.00800331	-33.5827	4.27429	3.56086	2.36428	0.195441	0.129548	0.234478	33.5383	8211.77	12388.6	14863.1	-56.4617	0.0000000E+000	0.0000000E+000	0.0000000E+000	56.4617	0.0000000E+000	0.0000000E+000	0.0000000E+000	-56.4617	0.0000000E+000	0.0000000E+000	0.0000000E+000	-33.5383	0.0000000E+000	0.0000000E+000	0.0000000E+000	33.5383	1.50864	56.4617	-2.69451e-06	-6.17437e-05	-1.45086e-09	-6.17422e-05	3.88667	244671	5.74931	244665
1585.51	4.24943	2.81509	5.09729	-33.523	13.5038	3.88676	-0.0159565	35.6582	10.8759	1	10	0.00476547	0.000934902	0	-3.96115e-05	7.22374e-05	1.07775e-05	6.19402	0.0115279	0.0114606	-0.00124381	-33.4403	5.10617	4.26089	2.81385	0.16355	0.108346	0.196183	33.523	10875.9	16417.4	19693	-56.477	0.0000000E+000	0.0000000E+000	0.0000000E+000	56.477	0.0000000E+000	0.0000000E+000	0.0000000E+000	-56.477	0.0000000E+000	0.0000000E+000	0.0000000E+000	-33.523	0.0000000E+000	0.0000000E+000	0.0000000E+000	33.523	1.50952	56.477	-1.00308e-06	-6.20191e-05	-1.15266e-09	-6.2018e-05	3.88669	243585	4.52715	243580
1000.32	5.0963	3.35187	6.09978	-33.3332	14.4058	3.88676	-0.0164077	47.4672	14.3331	1	10	0.00468617	0.000768252	0	-4.29193e-05	7.22374e-05	1.22051e-05	79.1148	0.0158869	0.00300011	-0.015601	-33.1951	6.09373	5.0993	3.33627	0.13697	0.0900864	0.16394	33.3332	14333.1	21792.5	26083.6	-56.6668	0.0000000E+000	0.0000000E+000	0.0000000E+000	56.6668	0.0000000E+000	0.0000000E+000	0.0000000E+000	-56.6668	0.0000000E+000	0.0000000E+000	0.0000000E+000	-33.3332	0.0000000E+000	0.0000000E+000	0.0000000E+000	33.3332	1.52043	56.6668	-1.36801e-06	-6.37729e-05	-1.18525e-09	-6.37717e-05	3.88669	236886	4.40265	236882
631.01	6.19722	3.92026	7.33308	-32.3168	15.3065	3.88675	-0.0151063	64.3382	18.3877	1	10	0.00464626	0.000633603	0	-4.71044e-05	-9.96091e-05	5.68048e-06	-80.7037	0.00896535	0.00144827	0.0088476	-32.3691	7.33903	6.19867	3.92911	0.115246	0.0729026	0.136368	32.3168	18387.7	29067.6	34395.2	-57.6832	0.0000000E+000	0.0000000E+000	0.0000000E+000	57.6832	0.0000000E+000	0.0000000E+000	0.0000000E+000	-57.6832	0.0000000E+000	0.0000000E+000	0.0000000E+000	-32.3168	0.0000000E+000	0.0000000E+000	0.0000000E+000	32.3168	1.58082	57.6832	-2.23653e-06	-5.87146e-05	1.50473e-09	-5.87161e-05	3.88685	257293	6.59387	257299
398.089	7.60526	4.46222	8.81767	-30.4013	16.2079	3.88676	-0.0137304	89.5961	22.9447	1	10	0.00462051	0.000524006	0	-5.069e-05	-0.000137797	7.37262e-06	18.3358	0.0140697	0.0133554	-0.00442613	-30.3327	8.82696	7.61861	4.45779	0.0978151	0.0573909	0.113409	30.4013	22944.7	39106.2	45340.4	-59.5987	0.0000000E+000	0.0000000E+000	0.0000000E+000	59.5987	0.0000000E+000	0.0000000E+000	0.0000000E+000	-59.5987	0.0000000E+000	0.0000000E+000	0.0000000E+000	-30.4013	0.0000000E+000	0.0000000E+000	0.0000000E+000	30.4013	1.70437	59.5987	-2.04336e-06	-5.33666e-05	1.89201e-09	-5.33685e-05	3.88689	283077	10.0359	283087
251.044	9.32479	4.66844	10.4281	-26.5948	17.1061	3.88677	-0.0157738	135.799	27.2163	1	10	0.00461057	0.000442128	0	-5.39754e-05	-4.13882e-06	1.84808e-05	107.587	0.0417998	-0.0126301	-0.039846	-26.4296	10.399	9.31216	4.6286	0.0857483	0.0429298	0.0958944	26.5948	27216.2	54362	60794.3	-63.4052	0.0000000E+000	0.0000000E+000	0.0000000E+000	63.4052	0.0000000E+000	0.0000000E+000	0.0000000E+000	-63.4052	0.0000000E+000	0.0000000E+000	0.0000000E+000	-26.5948	0.0000000E+000	0.0000000E+000	0.0000000E+000	26.5948	1.99741	63.4052	-1.79488e-06	-6.13091e-05	6.52849e-11	-6.13092e-05	3.88677	246406	0.262385	246406
158.428	11.0963	4.56346	11.9981	-22.3554	18.0108	3.88676	-0.0151324	220.137	31.8463	1	10	0.00460157	0.000383526	0	-5.67895e-05	-0.000156891	7.71461e-06	33.7389	0.0201149	0.0167271	-0.011172	-22.2757	12.0093	11.113	4.55229	0.0770827	0.031701	0.0833468	22.3554	31846.3	77436.2	83729	-67.6446	0.0000000E+000	0.0000000E+000	0.0000000E+000	67.6446	0.0000000E+000	0.0000000E+000	0.0000000E+000	-67.6446	0.0000000E+000	0.0000000E+000	0.0000000E+000	-22.3554	0.0000000E+000	0.0000000E+000	0.0000000E+000	22.3554	2.43156	67.6446	-1.61897e-06	-5.88162e-05	2.37415e-09	-5.88186e-05	3.88692	256850	10.3679	256860
100.032	12.6768	3.93923	13.2748	-17.2622	18.9108	3.88675	-0.0164003	403.896	35.5662	1	10	0.00460097	0.000346595	0	-6.07257e-05	-6.1421e-05	3.57126e-06	-105.775	0.0103038	-0.00280124	0.00991575	-17.3067	13.2751	12.674	3.94915	0.0719376	0.0223541	0.0753307	17.2622	35566.2	114456	119854	-72.7378	0.0000000E+000	0.0000000E+000	0.0000000E+000	72.7378	0.0000000E+000	0.0000000E+000	0.0000000E+000	-72.7378	0.0000000E+000	0.0000000E+000	0.0000000E+000	-17.2622	0.0000000E+000	0.0000000E+000	0.0000000E+000	17.2622	3.2181	72.7378	-1.6164e-06	-6.37438e-05	1.00732e-09	-6.37448e-05	3.88682	236993	3.74512	236997
63.0823	13.777	3.10842	14.1234	-12.7144	19.828	3.88677	-0.0116534	811.658	39.3167	1	10	0.00459282	0.000325193	0	-6.36701e-05	-0.000233268	1.22696e-05	55.0438	0.0377303	0.0216176	-0.0309234	-12.5728	14.1377	13.7987	3.0775	0.0690685	0.0155835	0.0708047	12.7144	39316.6	174258	178638	-77.2856	0.0000000E+000	0.0000000E+000	0.0000000E+000	77.2856	0.0000000E+000	0.0000000E+000	0.0000000E+000	-77.2856	0.0000000E+000	0.0000000E+000	0.0000000E+000	-12.7144	0.0000000E+000	0.0000000E+000	0.0000000E+000	12.7144	4.43217	77.2856	-1.42277e-06	-4.5294e-05	2.71836e-09	-4.52968e-05	3.887	333531	20.0171	333551
39.8089	14.5153	2.31234	14.6983	-9.05135	20.7289	3.88676	-0.0149572	1728.98	42.7912	1	10	0.00460478	0.000313286	0	-6.80302e-05	-2.32329e-05	7.10021e-06	-100.684	0.0226637	-0.00420183	0.0222708	-9.13967	14.6977	14.5111	2.33461	0.0671877	0.0107032	0.0680349	9.05135	42791.2	268615	272002	-80.9486	0.0000000E+000	0.0000000E+000	0.0000000E+000	80.9486	0.0000000E+000	0.0000000E+000	0.0000000E+000	-80.9486	0.0000000E+000	0.0000000E+000	0.0000000E+000	-9.05135	0.0000000E+000	0.0000000E+000	0.0000000E+000	9.05135	6.27733	80.9486	-2.07149e-06	-5.8135e-05	3.47499e-10	-5.81353e-05	3.88678	259859	1.55329	259860
25.1044	14.9632	1.73067	15.063	-6.59762	21.6081	3.88675	-0.0160236	3663.15	48.3575	1	10	0.00460138	0.000305477	0	-7.25276e-05	-2.32329e-05	7.71648e-06	3.53127	0.0252604	0.0252125	-0.00155587	-6.58075	15.0878	14.9884	1.72912	0.0659484	0.00762771	0.066388	6.59762	48357.5	418094	420881	-83.4024	0.0000000E+000	0.0000000E+000	0.0000000E+000	83.4024	0.0000000E+000	0.0000000E+000	0.0000000E+000	-83.4024	0.0000000E+000	0.0000000E+000	0.0000000E+000	-6.59762	0.0000000E+000	0.0000000E+000	0.0000000E+000	6.59762	8.64589	83.4024	-1.80256e-06	-6.228e-05	3.72275e-10	-6.22803e-05	3.88678	242564	1.44991	242565
15.8576	15.3419	1.26198	15.3937	-4.70238	22.7331	3.88679	-0.00876251	7953.03	53.4498	1	11	0.00460125	0.000298904	0	-7.77243e-05	-4.23269e-05	7.45984e-06	-65.8558	0.0249573	0.0102084	0.022774	-4.78368	15.4058	15.3521	1.28475	0.0647429	0.00532553	0.0649615	4.70238	53449.9	649793	651988	-85.2976	0.0000000E+000	0.0000000E+000	0.0000000E+000	85.2976	0.0000000E+000	0.0000000E+000	0.0000000E+000	-85.2976	0.0000000E+000	0.0000000E+000	0.0000000E+000	-4.70238	0.0000000E+000	0.0000000E+000	0.0000000E+000	4.70238	12.1571	85.2976	-1.51266e-06	-3.40581e-05	3.7089e-10	-3.40584e-05	3.88684	443571	4.83046	443576
10.0032	15.4975	0.98644	15.5288	-3.64206	23.7138	3.88681	-0.0080126	16129.1	65.0841	1	11	0.00459562	0.000295941	0	-7.90178e-05	0.00012952	8.91166e-06	-5.76633	0.030113	0.0299606	0.0030255	-3.64617	15.5589	15.5274	0.989466	0.0642663	0.00409066	0.0643964	3.64206	65084	1.0225e+06	1.02457e+06	-86.3579	0.0000000E+000	0.0000000E+000	0.0000000E+000	86.3579	0.0000000E+000	0.0000000E+000	0.0000000E+000	-86.3579	0.0000000E+000	0.0000000E+000	0.0000000E+000	-3.64206	0.0000000E+000	0.0000000E+000	0.0000000E+000	3.64206	15.7105	86.3579	-1.94621e-06	-3.11435e-05	-1.03779e-09	-3.11425e-05	3.88668	485088	16.1645	485071
6.31058	15.6324	0.806585	15.6532	-2.95367	24.6383	3.8868	-0.00885387	31268	83.0223	1	11	0.00459144	0.000293323	0	-8.24542e-05	-6.1421e-05	1.49712e-05	80.0353	0.0510401	0.00883209	-0.0502701	-2.76832	15.6595	15.6412	0.756315	0.0637998	0.00329188	0.0638847	2.95367	83022.4	1.60905e+06	1.61119e+06	-87.0463	0.0000000E+000	0.0000000E+000	0.0000000E+000	87.0463	0.0000000E+000	0.0000000E+000	0.0000000E+000	-87.0463	0.0000000E+000	0.0000000E+000	0.0000000E+000	-2.95367	0.0000000E+000	0.0000000E+000	0.0000000E+000	2.95367	19.381	87.0463	-3.57583e-06	-3.44132e-05	5.43814e-10	-3.44138e-05	3.88686	438995	6.93719	439001
3.97785	15.7657	0.727828	15.7825	-2.64319	25.6453	3.88682	-0.00715978	54972.2	116.909	1	11	0.00459821	0.000291349	0	-7.98151e-05	-9.96091e-05	7.27583e-06	15.7663	0.0249729	0.0240334	-0.00678551	-2.61461	15.8062	15.7898	0.721042	0.0632939	0.00292197	0.0633613	2.64319	116909	2.5324e+06	2.5351e+06	-87.3568	0.0000000E+000	0.0000000E+000	0.0000000E+000	87.3568	0.0000000E+000	0.0000000E+000	0.0000000E+000	-87.3568	0.0000000E+000	0.0000000E+000	0.0000000E+000	-2.64319	0.0000000E+000	0.0000000E+000	0.0000000E+000	2.64319	21.6613	87.3568	1.74724e-06	-2.78288e-05	7.13179e-10	-2.78295e-05	3.88692	542869	13.9123	542883
2.51367	15.878	0.750513	15.8957	-2.70622	27.2049	3.88681	-0.0064786	84363.2	188.066	1	11	0.00459376	0.000288994	0	-8.90824e-05	-4.23269e-05	5.18165e-06	-37.3859	0.0179299	0.0142465	0.0108867	-2.74296	15.9104	15.8922	0.7614	0.06284	0.0029703	0.0629102	2.70622	188066	3.97876e+06	3.9832e+06	-87.2938	0.0000000E+000	0.0000000E+000	0.0000000E+000	87.2938	0.0000000E+000	0.0000000E+000	0.0000000E+000	-87.2938	0.0000000E+000	0.0000000E+000	0.0000000E+000	-2.70622	0.0000000E+000	0.0000000E+000	0.0000000E+000	2.70622	21.1561	87.2938	-6.23999e-06	-2.51811e-05	2.74219e-10	-2.51814e-05	3.88685	599946	6.53335	599953
1.58469	16.0412	0.820179	16.0622	-2.92695	29.6404	3.88681	-0.00731616	122453	319.283	1	11	0.00459398	0.000286012	0	-9.27212e-05	-0.000175985	3.01616e-06	-2.42557	0.0105456	0.0105361	0.000446304	-2.92662	16.0727	16.0518	0.820625	0.0621768	0.00317906	0.062258	2.92695	319283	6.24461e+06	6.25276e+06	-87.0731	0.0000000E+000	0.0000000E+000	0.0000000E+000	87.0731	0.0000000E+000	0.0000000E+000	0.0000000E+000	-87.0731	0.0000000E+000	0.0000000E+000	0.0000000E+000	-2.92695	0.0000000E+000	0.0000000E+000	0.0000000E+000	2.92695	19.5582	87.0731	6.88709e-07	-2.84366e-05	1.28754e-09	-2.84378e-05	3.88699	531264	24.0543	531288
1.00469	16.3002	0.926777	16.3265	-3.25415	240.459	3.8868	-0.00968522	170927	550.775	1	11	0.00503751	0.000308548	0	-0.00171939	0.000244084	5.2762e-07	-14.6115	0.00171001	0.00165471	0.000431372	-3.25533	16.3282	16.3019	0.927209	0.0611513	0.00347687	0.06125	3.25415	550775	9.68706e+06	9.7027e+06	-86.7459	0.0000000E+000	0.0000000E+000	0.0000000E+000	86.7459	0.0000000E+000	0.0000000E+000	0.0000000E+000	-86.7459	0.0000000E+000	0.0000000E+000	0.0000000E+000	-3.25415	0.0000000E+000	0.0000000E+000	0.0000000E+000	3.25415	17.588	86.7459	-0.00163078	-3.76445e-05	-2.36401e-09	-3.76422e-05	3.88656	401312	25.2017	401287
0.632957	16.534	1.11454	16.5715	-3.85641	240.461	3.8868	-0.00968522	225606	1020.51	1	11	0.00504962	0.000304717	0	-0.00171939	0.000244084	3.95617e-07	-0.201876	0.00129831	0.0012983	4.57446e-06	-3.85612	16.5728	16.5353	1.11454	0.0602079	0.00405855	0.0603445	3.85641	1.02051e+06	1.51391e+07	1.51734e+07	-86.1436	0.0000000E+000	0.0000000E+000	0.0000000E+000	86.1436	0.0000000E+000	0.0000000E+000	0.0000000E+000	-86.1436	0.0000000E+000	0.0000000E+000	0.0000000E+000	-3.85641	0.0000000E+000	0.0000000E+000	0.0000000E+000	3.85641	14.8348	86.1436	0.000000000000000E+000	-3.76445e-05	-2.36401e-09	-3.76422e-05	3.88656	401312	25.2017	401287
0.401878	16.7704	1.37529	16.8267	-4.68815	240.462	3.8868	-0.00968522	287961	1923.63	1	11	0.00506364	0.000300929	0	-0.00171939	0.000244084	5.50302e-07	13.2105	0.00182868	0.00178029	-0.000417907	-4.68623	16.8284	16.7722	1.37487	0.0592305	0.0048573	0.0594294	4.68815	1.92363e+06	2.3457e+07	2.35357e+07	-85.3119	0.0000000E+000	0.0000000E+000	0.0000000E+000	85.3119	0.0000000E+000	0.0000000E+000	0.0000000E+000	-85.3119	0.0000000E+000	0.0000000E+000	0.0000000E+000	-4.68815	0.0000000E+000	0.0000000E+000	0.0000000E+000	4.68815	12.1941	85.3119	0.000000000000000E+000	-3.76445e-05	-2.36401e-09	-3.76422e-05	3.88656	401312	25.2017	401287
0.251173	17.1932	1.73482	17.2805	-5.76172	240.463	3.8868	-0.00968522	365252	3681.18	1	11	0.00506656	0.000293195	0	-0.00171939	0.000244084	4.65838e-07	9.0444	0.00158883	0.00156908	-0.000249764	-5.76037	17.2821	17.1948	1.73457	0.0575762	0.00580952	0.0578686	5.76172	3.68118e+06	3.64829e+07	3.66682e+07	-84.2383	0.0000000E+000	0.0000000E+000	0.0000000E+000	84.2383	0.0000000E+000	0.0000000E+000	0.0000000E+000	-84.2383	0.0000000E+000	0.0000000E+000	0.0000000E+000	-5.76172	0.0000000E+000	0.0000000E+000	0.0000000E+000	5.76172	9.91067	84.2383	0.000000000000000E+000	-3.76445e-05	-2.36401e-09	-3.76422e-05	3.88656	401312	25.2017	401287
0.160751	17.6194	1.97934	17.7302	-6.40968	240.464	3.8868	-0.00968522	500202	6233.91	1	11	0.00505847	0.000285303	0	-0.00171939	0.000244084	5.07154e-07	-8.02735	0.0017776	0.00176018	0.000248235	-6.40985	17.732	17.6211	1.97959	0.0560484	0.00629643	0.056401	6.40968	6.23391e+06	5.54919e+07	5.5841e+07	-83.5903	0.0000000E+000	0.0000000E+000	0.0000000E+000	83.5903	0.0000000E+000	0.0000000E+000	0.0000000E+000	-83.5903	0.0000000E+000	0.0000000E+000	0.0000000E+000	-6.40968	0.0000000E+000	0.0000000E+000	0.0000000E+000	6.40968	8.90162	83.5903	0.000000000000000E+000	-3.76445e-05	-2.36401e-09	-3.76422e-05	3.88656	401312	25.2017	401287
0.100469	18.1364	2.6389	18.3274	-8.2786	240.466	3.8868	-0.00968522	600293	12445.4	1	11	0.00506289	0.000276247	0	-0.00171939	0.000244084	4.01912e-07	10.2779	0.0014549	0.00143156	-0.000259586	-8.27715	18.3288	18.1379	2.63864	0.0539945	0.00785636	0.0545631	8.2786	1.24454e+07	8.55335e+07	8.64342e+07	-81.7214	0.0000000E+000	0.0000000E+000	0.0000000E+000	81.7214	0.0000000E+000	0.0000000E+000	0.0000000E+000	-81.7214	0.0000000E+000	0.0000000E+000	0.0000000E+000	-8.2786	0.0000000E+000	0.0000000E+000	0.0000000E+000	8.2786	6.87272	81.7214	0.000000000000000E+000	-3.76445e-05	-2.36401e-09	-3.76422e-05	3.88656	401312	25.2017	401287
0.0602816	18.9956	3.13865	19.2532	-9.38222	240.467	3.8868	-0.00968522	841185	22354.9	1	11	0.00505807	0.000262713	0	-0.00171939	0.000244084	5.25992e-07	-31.504	0.00200215	0.00170704	0.00104624	-9.38447	19.2551	18.9974	3.1397	0.0512446	0.00846716	0.0519394	9.38222	2.23549e+07	1.35296e+08	1.3713e+08	-80.6178	0.0000000E+000	0.0000000E+000	0.0000000E+000	80.6178	0.0000000E+000	0.0000000E+000	0.0000000E+000	-80.6178	0.0000000E+000	0.0000000E+000	0.0000000E+000	-9.38222	0.0000000E+000	0.0000000E+000	0.0000000E+000	9.38222	6.05216	80.6178	0.000000000000000E+000	-3.76445e-05	-2.36401e-09	-3.76422e-05	3.88656	401312	25.2017	401287
0.0401878	19.9923	3.60162	20.3141	-10.2123	240.468	3.8868	-0.00968522	1.09958e+06	34564.3	1	11	0.00505754	0.000248967	0	-0.00171939	0.000244084	8.31212e-07	-82.8143	0.00333865	0.000417617	0.00331243	-10.2213	20.3151	19.9927	3.60493	0.0484469	0.00872774	0.0492268	10.2123	3.45643e+07	1.91864e+08	1.94952e+08	-79.7877	0.0000000E+000	0.0000000E+000	0.0000000E+000	79.7877	0.0000000E+000	0.0000000E+000	0.0000000E+000	-79.7877	0.0000000E+000	0.0000000E+000	0.0000000E+000	-10.2123	0.0000000E+000	0.0000000E+000	0.0000000E+000	10.2123	5.55092	79.7877	0.000000000000000E+000	-3.76445e-05	-2.36401e-09	-3.76422e-05	3.88656	401312	25.2017	401287
0.0200939	21.9426	4.86146	22.4747	-12.4923	240.47	3.8868	-0.00968522	1.62926e+06	76231.5	1	11	0.005058	0.000225053	0	-0.00171939	0.000244084	1.17704e-06	-17.7587	0.00523006	0.00498085	0.00159521	-12.4935	22.4799	21.9476	4.86305	0.043441	0.00962449	0.0444944	12.4923	7.62314e+07	3.44078e+08	3.52421e+08	-77.5077	0.0000000E+000	0.0000000E+000	0.0000000E+000	77.5077	0.0000000E+000	0.0000000E+000	0.0000000E+000	-77.5077	0.0000000E+000	0.0000000E+000	0.0000000E+000	-12.4923	0.0000000E+000	0.0000000E+000	0.0000000E+000	12.4923	4.51359	77.5077	0.000000000000000E+000	-3.76445e-05	-2.36401e-09	-3.76422e-05	3.88656	401312	25.2017	401287
0.00796479	24.6541	5.54429	25.2698	-12.674	20329.3	3.88682	-0.000482853	3.60413e+06	173496	1	11	0.00505338	0.000199977	0	-0.0201409	-0.000424208	7.90617e-07	0.650453	0.00395354	0.00395328	-4.48817e-05	-12.672	25.2736	24.658	5.54425	0.0386087	0.00868247	0.039573	12.674	1.73496e+08	7.71492e+08	7.9076e+08	-77.326	0.0000000E+000	0.0000000E+000	0.0000000E+000	77.326	0.0000000E+000	0.0000000E+000	0.0000000E+000	-77.326	0.0000000E+000	0.0000000E+000	0.0000000E+000	-12.674	0.0000000E+000	0.0000000E+000	0.0000000E+000	12.674	4.44675	77.326	-0.0184215	-1.87676e-06	2.0483e-10	-1.87697e-06	3.88724	8.0497e+06	878.546	8.05057e+06
0.00497799	26.3628	5.82499	26.9986	-12.4596	20329.3	3.88682	-0.000482853	5.48872e+06	255492	1	11	0.00506077	0.000187445	0	-0.0201409	-0.000424208	8.36343e-07	-146.632	0.00446179	-0.00372631	0.00245402	-12.4664	26.9955	26.359	5.82744	0.0361666	0.00799119	0.0370389	12.4596	2.55492e+08	1.15631e+09	1.1842e+09	-77.5404	0.0000000E+000	0.0000000E+000	0.0000000E+000	77.5404	0.0000000E+000	0.0000000E+000	0.0000000E+000	-77.5404	0.0000000E+000	0.0000000E+000	0.0000000E+000	-12.4596	0.0000000E+000	0.0000000E+000	0.0000000E+000	12.4596	4.52581	77.5404	0.000000000000000E+000	-1.87676e-06	2.0483e-10	-1.87697e-06	3.88724	8.0497e+06	878.546	8.05057e+06
0.00318591	27.5259	7.50405	28.5305	-15.2492	20329.3	3.88682	-0.000482853	6.65718e+06	460536	1	11	0.00506237	0.000177437	0	-0.0201409	-0.000424208	1.05038e-06	2.39044	0.00591974	0.00591459	-0.000246906	-15.2456	28.5361	27.5319	7.5038	0.0338161	0.00921886	0.0350502	15.2492	4.60536e+08	1.68931e+09	1.75096e+09	-74.7508	0.0000000E+000	0.0000000E+000	0.0000000E+000	74.7508	0.0000000E+000	0.0000000E+000	0.0000000E+000	-74.7508	0.0000000E+000	0.0000000E+000	0.0000000E+000	-15.2492	0.0000000E+000	0.0000000E+000	0.0000000E+000	15.2492	3.66815	74.7508	0.000000000000000E+000	-1.87676e-06	2.0483e-10	-1.87697e-06	3.88724	8.0497e+06	878.546	8.05057e+06
0.0019912	28.6786	9.00597	30.0594	-17.4339	20329.3	3.88682	-0.000482853	8.87515e+06	796663	1	11	0.00506576	0.000168525	0	-0.0201409	-0.000424208	5.66928e-07	-156.895	0.00336406	-0.00309422	0.0013201	-17.4381	30.0569	28.6755	9.00729	0.0317392	0.0099671	0.0332674	17.4339	7.96663e+08	2.53689e+09	2.65904e+09	-72.5661	0.0000000E+000	0.0000000E+000	0.0000000E+000	72.5661	0.0000000E+000	0.0000000E+000	0.0000000E+000	-72.5661	0.0000000E+000	0.0000000E+000	0.0000000E+000	-17.4339	0.0000000E+000	0.0000000E+000	0.0000000E+000	17.4339	3.1844	72.5661	0.000000000000000E+000	-1.87676e-06	2.0483e-10	-1.87697e-06	3.88724	8.0497e+06	878.546	8.05057e+06
0.00129428	28.8309	11.3173	30.9726	-21.4321	20329.3	3.88682	-0.000482853	1.08655e+07	1.45071e+06	1	11	0.00506651	0.000163581	0	-0.0201409	-0.000424208	1.55401e-07	2.46248	0.000949999	0.000949122	-4.08169e-05	-21.4314	30.9735	28.8318	11.3173	0.030054	0.0117975	0.0322866	21.4321	1.45071e+09	3.69569e+09	3.97022e+09	-68.5679	0.0000000E+000	0.0000000E+000	0.0000000E+000	68.5679	0.0000000E+000	0.0000000E+000	0.0000000E+000	-68.5679	0.0000000E+000	0.0000000E+000	0.0000000E+000	-21.4321	0.0000000E+000	0.0000000E+000	0.0000000E+000	21.4321	2.5475	68.5679	0.000000000000000E+000	-1.87676e-06	2.0483e-10	-1.87697e-06	3.88724	8.0497e+06	878.546	8.05057e+06
0.000796479	31.2648	15.4083	34.8554	-26.2356	20329.3	3.88682	-0.000482853	1.29686e+07	2.53431e+06	1	11	0.00506687	0.000145368	0	-0.0201409	-0.000424208	1.5507e-06	-149.981	0.0106674	-0.00923645	0.00533678	-26.2501	34.8495	31.2555	15.4136	0.0257344	0.0126828	0.0286899	26.2356	2.53431e+09	5.14234e+09	5.73292e+09	-63.7644	0.0000000E+000	0.0000000E+000	0.0000000E+000	63.7644	0.0000000E+000	0.0000000E+000	0.0000000E+000	-63.7644	0.0000000E+000	0.0000000E+000	0.0000000E+000	-26.2356	0.0000000E+000	0.0000000E+000	0.0000000E+000	26.2356	2.02909	63.7644	0.000000000000000E+000	-1.87676e-06	2.0483e-10	-1.87697e-06	3.88724	8.0497e+06	878.546	8.05057e+06
0.000497799	31.405	21.6584	38.1492	-34.5921	20329.3	3.88682	-0.000482853	1.47618e+07	4.75798e+06	1	11	0.00506794	0.000132845	0	-0.0201409	-0.000424208	1.06982e-06	-103.596	0.00805315	-0.00189312	0.00782748	-34.6034	38.152	31.4031	21.6662	0.0215788	0.0148818	0.0262129	34.5921	4.75798e+09	6.89913e+09	8.38071e+09	-55.4079	0.0000000E+000	0.0000000E+000	0.0000000E+000	55.4079	0.0000000E+000	0.0000000E+000	0.0000000E+000	-55.4079	0.0000000E+000	0.0000000E+000	0.0000000E+000	-34.5921	0.0000000E+000	0.0000000E+000	0.0000000E+000	34.5921	1.45001	55.4079	0.000000000000000E+000	-1.87676e-06	2.0483e-10	-1.87697e-06	3.88724	8.0497e+06	878.546	8.05057e+06
0.000298679	31.0795	33.6861	45.8333	-47.3048	20329.3	3.88682	-0.000482853	1.58184e+07	8.54484e+06	1	11	0.00506789	0.000110572	0	-0.0201409	-0.000424208	2.04506e-06	43.4435	0.0184952	0.0134285	-0.012718	-47.2816	45.833	31.0929	33.6734	0.0147949	0.0160357	0.0218182	47.3048	8.54484e+09	7.88364e+09	1.16261e+10	-42.6952	0.0000000E+000	0.0000000E+000	0.0000000E+000	42.6952	0.0000000E+000	0.0000000E+000	0.0000000E+000	-42.6952	0.0000000E+000	0.0000000E+000	0.0000000E+000	-47.3048	0.0000000E+000	0.0000000E+000	0.0000000E+000	47.3048	0.92262	42.6953	0.000000000000000E+000	-1.87676e-06	2.0483e-10	-1.87697e-06	3.88724	8.0497e+06	878.546	8.05057e+06
9.95598e-05	41.1129	119.005	125.907	-70.9414	20329.3	3.88682	-0.000482853	1.34329e+07	1.20006e+07	1	11	0.00506539	4.02313e-05	0	-0.0201409	-0.000424208	2.62241e-06	18.9132	0.0651834	0.0616642	-0.0211283	-70.9118	125.907	41.1745	118.984	0.00259347	0.00750703	0.00794239	70.9414	1.20006e+10	4.14588e+09	1.26966e+10	-19.0586	0.0000000E+000	0.0000000E+000	0.0000000E+000	19.0586	0.0000000E+000	0.0000000E+000	0.0000000E+000	-19.0586	0.0000000E+000	0.0000000E+000	0.0000000E+000	-70.9414	0.0000000E+000	0.0000000E+000	0.0000000E+000	70.9414	0.345471	19.0586	0.000000000000000E+000	-1.87676e-06	2.0483e-10	-1.87697e-06	3.88724	8.0497e+06	878.546	8.05057e+06