File: txt/18573_R297_UC90_SOC50_C04.mpt
EC-Lab ASCII FILE
Nb header lines : 65

Potentio Electrochemical Impedance Spectroscopy

Run on channel : 4 (SN 66756)
User :
CE vs. WE compliance from -10 V to 10 V
Electrode connection : standard
Potential control : Ewe
Ewe ctrl range : min = -10.00 V, max = 10.00 V
Safety Limits :
	Do not start on E overload
Acquisition started on : 10/21/2025 16:34:50.544
Technique started on : 10/21/2025 16:34:53.238
Loaded Setting File :  C:\Users\Celltest\OneDrive - store-dot.com\Documents\EC-Lab\Data\@Biologic Test Protocols\cathode half cell EIS SOC50.mps
Saved on :
	File : 18573_R297_UC90_SOC50_C04.mpr
	Directory : C:\Users\Celltest\OneDrive - store-dot.com\Documents\EC-Lab\Data\Michael\
	Host : 169.254.61.224
Device : VMP-3e (SN .003165)
Address : USB
EC-LAB for windows v11.62 (software)
Internet server v27.00 (firmware)
Command interpretor v12.03 (firmware)
Electrode material :
Initial state :
Electrolyte :
Comments :
Electrode surface area : 0.001 cm²
Characteristic mass : 0.001 g
Equivalent Weight : 0.000 g/eq.
Density : 0.000 g/cm3
Volume (V) : 0.001 cm³
Record Ece
Cycle Definition : Charge/Discharge alternance
Mode                Multi sine
E (V)               0.0000
vs.                 Eoc
tE (h:m:s)          0:00:0.0000
record              0
dI                  0.000
unit dI             mA
dt (s)              0.000
fi                  1.000
unit fi             MHz
ff                  0.100
unit ff             mHz
Nd                  10
Points              per decade
spacing             Logarithmic
Va (mV)             5.0
pw                  0.10
Na                  2
corr                0
E range min (V)     -10.000
E range max (V)     10.000
I Range             Auto
Bandwidth           5
nc cycles           0
goto Ns'            0
nr cycles           0
inc. cycle          0

freq/Hz	Re(Z)/Ohm	-Im(Z)/Ohm	|Z|/Ohm	Phase(Z)/deg	time/s	<Ewe>/V	<I>/mA	Cs/µF	Cp/µF	cycle number	I Range	|Ewe|/V	|I|/A	Ns	(Q-Qo)/mA.h	<Ece>/V	|Ece|/V	Phase(Zce)/deg	|Zce|/Ohm	Re(Zce)/Ohm	-Im(Zce)/Ohm	Phase(Zwe-ce)/deg	|Zwe-ce|/Ohm	Re(Zwe-ce)/Ohm	-Im(Zwe-ce)/Ohm	Re(Y)/Ohm-1	Im(Y)/Ohm-1	|Y|/Ohm-1	Phase(Y)/deg	Re(C)/nF	Im(C)/nF	|C|/nF	Phase(C)/deg	Re(M)	Im(M)	|M|	Phase(M)/deg	Re(Permittivity)	Im(Permittivity)	|Permittivity|	Phase(Permittivity)/deg	Re(Resistivity)/Ohm.cm	Im(Resistivity)/Ohm.cm	|Resistivity|/Ohm.cm	Phase(Resistivity)/deg	Re(Conductivity)/mS/cm	Im(Conductivity)/mS/cm	|Conductivity|/mS/cm	Phase(Conductivity)/deg	Tan(Delta)	Loss Angle(Delta)/deg	dq/mA.h	Pwe/W	Pce/W	Pwe-ce/W	<Ewe-Ece>/V	Rwe/Ohm	Rce/Ohm	Rwe-ce/Ohm		Ewe-Ece/V
1.00002e+06	0.938345	-0.283244	0.980162	16.7967	2.69355	3.89053	0.0799054	-0.56189	-0.0469221	1	9	0.00019669	0.000200671	0	3.34308e-05	-0.000321261	0.000187148	12.782	0.932611	0.9095	-0.206333	14.8393	1.9116	1.84784	-0.489578	0.976712	-0.294826	1.02024	-16.7967	-46.9221	155.446	162.373	-106.797	0.0000000E+000	0.0000000E+000	0.0000000E+000	106.797	0.0000000E+000	0.0000000E+000	0.0000000E+000	-106.797	0.0000000E+000	0.0000000E+000	0.0000000E+000	16.7967	0.0000000E+000	0.0000000E+000	0.0000000E+000	-16.7967	3.31285	73.2033	3.34308e-05	0.000310875	-2.56705e-08	0.000310901	3.89086	48689.2	4.02051	48693.3
630957	0.435167	0.186862	0.47359	-23.2388	3.45952	3.88947	0.0321649	1.3499	0.210153	1	9	0.000129984	0.000274465	0	3.96109e-05	-0.000168381	0.000110883	-96.4317	0.403999	-0.0452555	0.401456	-56.4653	0.705796	0.389911	0.588318	1.94022	0.833135	2.11153	23.2388	210.153	489.409	532.621	-66.7612	0.0000000E+000	0.0000000E+000	0.0000000E+000	66.7612	0.0000000E+000	0.0000000E+000	0.0000000E+000	-66.7612	0.0000000E+000	0.0000000E+000	0.0000000E+000	-23.2388	0.0000000E+000	0.0000000E+000	0.0000000E+000	23.2388	2.32882	66.7612	2.46412e-06	0.000125104	-5.41597e-09	0.00012511	3.88964	120923	5.23494	120928
398103	0.643623	0.131487	0.656917	-11.5462	4.22552	3.88932	0.0236238	3.04048	0.121811	1	9	0.000524574	0.00079854	0	4.25913e-05	-0.000359481	4.53425e-05	157.177	0.0567818	-0.0523363	-0.0220245	-10.4882	0.601334	0.591287	0.109462	1.49146	0.304693	1.52226	11.5462	121.811	596.259	608.575	-78.4538	0.0000000E+000	0.0000000E+000	0.0000000E+000	78.4538	0.0000000E+000	0.0000000E+000	0.0000000E+000	-78.4538	0.0000000E+000	0.0000000E+000	0.0000000E+000	-11.5462	0.0000000E+000	0.0000000E+000	0.0000000E+000	11.5462	4.89496	78.4538	8.55441e-07	9.18807e-05	-8.49232e-09	9.18892e-05	3.88968	164636	15.2169	164651
251206	0.760903	0.331023	0.829789	-23.5109	4.99354	3.88913	0.0101968	1.91396	0.304588	1	9	0.00180646	0.00217701	0	4.12246e-05	-5.37216e-05	5.34836e-05	78.3521	0.0245674	0.00496007	-0.0240615	-21.8411	0.825089	0.765863	0.306961	1.10508	0.480754	1.20513	23.5109	304.588	700.138	763.523	-66.4891	0.0000000E+000	0.0000000E+000	0.0000000E+000	66.4891	0.0000000E+000	0.0000000E+000	0.0000000E+000	-66.4891	0.0000000E+000	0.0000000E+000	0.0000000E+000	-23.5109	0.0000000E+000	0.0000000E+000	0.0000000E+000	23.5109	2.29864	66.4891	-1.22232e-06	3.96568e-05	-5.47791e-10	3.96574e-05	3.88918	381405	5.26845	381410
158486	0.873805	0.499061	1.00628	-29.7322	5.75956	3.88904	0.0127332	2.01222	0.494933	1	9	0.00505815	0.00502659	0	4.44038e-05	-5.37216e-05	5.76576e-05	58.0252	0.0114705	0.00607417	-0.00973023	-29.08	1.00679	0.879879	0.489331	0.862934	0.492853	0.99376	29.7322	494.933	866.576	997.954	-60.2678	0.0000000E+000	0.0000000E+000	0.0000000E+000	60.2678	0.0000000E+000	0.0000000E+000	0.0000000E+000	-60.2678	0.0000000E+000	0.0000000E+000	0.0000000E+000	-29.7322	0.0000000E+000	0.0000000E+000	0.0000000E+000	29.7322	1.7509	60.2678	7.92992e-06	4.95198e-05	-6.84046e-10	4.95205e-05	3.8891	305426	4.21903	305430
100004	1.03141	0.659158	1.22405	-32.5821	6.52552	3.88901	0.0117634	2.41443	0.700159	1	9	0.00546376	0.00446368	0	6.1484e-05	0.000118268	3.33592e-05	61.6335	0.00747347	0.00355071	-0.0065761	-32.233	1.22352	1.03496	0.652582	0.688389	0.439939	0.816962	32.5821	700.159	1095.56	1300.19	-57.4179	0.0000000E+000	0.0000000E+000	0.0000000E+000	57.4179	0.0000000E+000	0.0000000E+000	0.0000000E+000	-57.4179	0.0000000E+000	0.0000000E+000	0.0000000E+000	-32.5821	0.0000000E+000	0.0000000E+000	0.0000000E+000	32.5821	1.56474	57.4179	7.75972e-06	4.57481e-05	1.39124e-09	4.57467e-05	3.88889	330602	10.0539	330592
63093.8	1.23803	0.825266	1.48788	-33.6872	7.29353	3.88901	0.00762337	3.05661	0.940353	1	9	0.00536246	0.00360409	0	6.93525e-05	4.18282e-05	1.63657e-05	45.0511	0.00454086	0.00320801	-0.00321374	-33.5158	1.48877	1.24124	0.822052	0.559237	0.372784	0.672097	33.6872	940.353	1410.68	1695.37	-56.3128	0.0000000E+000	0.0000000E+000	0.0000000E+000	56.3128	0.0000000E+000	0.0000000E+000	0.0000000E+000	-56.3128	0.0000000E+000	0.0000000E+000	0.0000000E+000	-33.6872	0.0000000E+000	0.0000000E+000	0.0000000E+000	33.6872	1.50016	56.3128	5.52575e-06	2.96473e-05	3.18872e-10	2.9647e-05	3.88896	510143	5.48684	510137
39814.1	1.48067	0.99857	1.78592	-33.996	8.05955	3.889	0.00299849	4.00318	1.25152	1	9	0.00530084	0.00296812	0	7.29084e-05	-7.28316e-05	1.41249e-05	15.9857	0.00475886	0.00457484	-0.00131058	-33.8792	1.78899	1.48524	0.99726	0.464229	0.313079	0.559935	33.996	1251.52	1855.74	2238.32	-56.004	0.0000000E+000	0.0000000E+000	0.0000000E+000	56.004	0.0000000E+000	0.0000000E+000	0.0000000E+000	-56.004	0.0000000E+000	0.0000000E+000	0.0000000E+000	-33.996	0.0000000E+000	0.0000000E+000	0.0000000E+000	33.996	1.48279	56.004	5.98039e-06	1.16611e-05	-2.18385e-10	1.16614e-05	3.88908	1.29699e+06	24.2894	1.29701e+06
25116.9	1.77731	1.18417	2.13567	-33.6744	8.82554	3.889	0.00807091	5.35105	1.64513	1	9	0.00528107	0.00247279	0	7.23212e-05	-0.000225711	5.98965e-06	-17.4377	0.00242222	0.00231091	0.000725866	-33.6563	2.138	1.77962	1.1849	0.389667	0.259624	0.468236	33.6744	1645.13	2469.15	2967.01	-56.3256	0.0000000E+000	0.0000000E+000	0.0000000E+000	56.3256	0.0000000E+000	0.0000000E+000	0.0000000E+000	-56.3256	0.0000000E+000	0.0000000E+000	0.0000000E+000	-33.6744	0.0000000E+000	0.0000000E+000	0.0000000E+000	33.6744	1.50089	56.3256	-3.72011e-07	3.13878e-05	-1.82169e-09	3.13896e-05	3.88923	481855	27.966	481883
15847.7	2.11295	1.41004	2.54023	-33.7164	9.59151	3.88901	0.0079963	7.12236	2.19452	1	9	0.00528749	0.0020815	0	7.26006e-05	4.18282e-05	1.17718e-05	-67.5452	0.00565544	0.00216012	0.00522665	-33.7873	2.54493	2.11511	1.41526	0.327449	0.218517	0.393665	33.7164	2194.52	3288.5	3953.5	-56.2836	0.0000000E+000	0.0000000E+000	0.0000000E+000	56.2836	0.0000000E+000	0.0000000E+000	0.0000000E+000	-56.2836	0.0000000E+000	0.0000000E+000	0.0000000E+000	-33.7164	0.0000000E+000	0.0000000E+000	0.0000000E+000	33.7164	1.49851	56.2836	-7.30675e-07	3.10977e-05	3.34471e-10	3.10974e-05	3.88897	486351	5.23094	486346
10002.2	2.48763	1.67067	2.99657	-33.885	10.3576	3.889	0.0107563	9.52427	2.96051	1	9	0.00519078	0.00173224	0	7.17553e-05	2.27182e-05	3.83659e-05	-50.9751	0.0221481	0.0139457	0.0172063	-34.0086	3.01775	2.50157	1.68788	0.277036	0.186055	0.333715	33.885	2960.51	4408.18	5310.05	-56.115	0.0000000E+000	0.0000000E+000	0.0000000E+000	56.115	0.0000000E+000	0.0000000E+000	0.0000000E+000	-56.115	0.0000000E+000	0.0000000E+000	0.0000000E+000	-33.885	0.0000000E+000	0.0000000E+000	0.0000000E+000	33.885	1.489	56.115	-1.06768e-06	4.18312e-05	2.44364e-10	4.18309e-05	3.88897	361556	2.11209	361553
6309.38	2.95263	2.00106	3.56683	-34.1264	11.1235	3.889	0.0063925	12.6059	3.96762	1	9	0.00511383	0.00143372	0	7.28935e-05	-7.28316e-05	1.44667e-05	-36.222	0.0100903	0.00814021	0.00596253	-34.1323	3.57691	2.96077	2.00703	0.232083	0.157288	0.280361	34.1264	3967.62	5854.33	7072.14	-55.8736	0.0000000E+000	0.0000000E+000	0.0000000E+000	55.8736	0.0000000E+000	0.0000000E+000	0.0000000E+000	-55.8736	0.0000000E+000	0.0000000E+000	0.0000000E+000	-34.1264	0.0000000E+000	0.0000000E+000	0.0000000E+000	34.1264	1.47553	55.8736	1.48265e-06	2.48604e-05	-4.65575e-10	2.48609e-05	3.88907	608370	11.3933	608381
3983.6	3.5167	2.41153	4.26411	-34.4399	11.8621	3.88899	0.0165374	16.5673	5.29883	1	10	0.00525718	0.00123289	0	7.48442e-05	-0.000111051	9.35992e-06	32.2666	0.00759186	0.00641947	-0.00405298	-34.3463	4.26712	3.52312	2.40748	0.19341	0.132628	0.234515	34.4399	5298.83	7727.2	9369.48	-55.5601	0.0000000E+000	0.0000000E+000	0.0000000E+000	55.5601	0.0000000E+000	0.0000000E+000	0.0000000E+000	-55.5601	0.0000000E+000	0.0000000E+000	0.0000000E+000	-34.4399	0.0000000E+000	0.0000000E+000	0.0000000E+000	34.4399	1.45828	55.5601	7.6065e-07	6.43137e-05	-1.8365e-09	6.43155e-05	3.8891	235164	6.71518	235170
2510.8	4.19999	2.90081	5.10437	-34.6318	12.6868	3.88896	0.0103751	21.8518	7.05737	1	10	0.00507976	0.000995179	0	7.67287e-05	4.18282e-05	6.31751e-06	-106.852	0.00634812	-0.00184028	0.00607553	-34.6996	5.10632	4.19815	2.90689	0.161199	0.111336	0.19591	34.6318	7057.37	10218.1	12418.4	-55.3682	0.0000000E+000	0.0000000E+000	0.0000000E+000	55.3682	0.0000000E+000	0.0000000E+000	0.0000000E+000	-55.3682	0.0000000E+000	0.0000000E+000	0.0000000E+000	-34.6318	0.0000000E+000	0.0000000E+000	0.0000000E+000	34.6318	1.44786	55.3682	1.56398e-06	4.03484e-05	4.33972e-10	4.0348e-05	3.88892	374835	4.03158	374831
1585.51	5.02328	3.49054	6.11697	-34.7944	13.5888	3.88896	0.0106437	28.758	9.36425	1	10	0.00482731	0.000789168	0	8.00144e-05	-0.000206601	1.04415e-05	24.9094	0.013231	0.0120002	-0.00557272	-34.6875	6.12365	5.03528	3.48497	0.13425	0.093287	0.16348	34.7944	9364.25	13476.2	16410.3	-55.2056	0.0000000E+000	0.0000000E+000	0.0000000E+000	55.2056	0.0000000E+000	0.0000000E+000	0.0000000E+000	-55.2056	0.0000000E+000	0.0000000E+000	0.0000000E+000	-34.7944	0.0000000E+000	0.0000000E+000	0.0000000E+000	34.7944	1.43911	55.2056	1.40823e-06	4.13928e-05	-2.199e-09	4.1395e-05	3.88917	365378	19.4107	365397
1000.32	6.08638	4.20878	7.39986	-34.6642	14.4908	3.88897	0.0108488	37.8028	12.229	1	10	0.00468021	0.000632473	0	8.24152e-05	-5.37216e-05	1.35119e-05	-10.0233	0.0213636	0.0210375	0.0037183	-34.5954	7.41928	6.10742	4.2125	0.111151	0.0768616	0.135138	34.6642	12229	17684.5	21500.9	-55.3358	0.0000000E+000	0.0000000E+000	0.0000000E+000	55.3358	0.0000000E+000	0.0000000E+000	0.0000000E+000	-55.3358	0.0000000E+000	0.0000000E+000	0.0000000E+000	-34.6642	0.0000000E+000	0.0000000E+000	0.0000000E+000	34.6642	1.44611	55.3358	1.66656e-06	4.21908e-05	-5.82817e-10	4.21914e-05	3.88902	358469	4.95183	358474
631.01	7.4569	4.97414	8.96367	-33.7054	15.3906	3.88897	0.0104684	50.7068	15.6146	1	10	0.00459389	0.000512501	0	8.55646e-05	9.9158e-05	1.08617e-05	97.4396	0.0211936	-0.00274418	-0.0210152	-33.6032	8.94974	7.45415	4.95313	0.0928082	0.0619079	0.111561	33.7054	15614.6	23408.3	28138.3	-56.2946	0.0000000E+000	0.0000000E+000	0.0000000E+000	56.2946	0.0000000E+000	0.0000000E+000	0.0000000E+000	-56.2946	0.0000000E+000	0.0000000E+000	0.0000000E+000	-33.7054	0.0000000E+000	0.0000000E+000	0.0000000E+000	33.7054	1.49913	56.2946	1.32715e-06	4.07111e-05	1.03802e-09	4.07101e-05	3.88887	371498	9.47217	371489
398.089	9.22795	5.69031	10.8413	-31.6596	16.2928	3.88897	0.0110316	70.2592	19.3557	1	10	0.00454729	0.00041944	0	8.83713e-05	-7.28316e-05	1.34214e-05	19.2058	0.0319985	0.0302175	-0.0105263	-31.5287	10.8616	9.25817	5.67979	0.0785125	0.0484139	0.0922395	31.6596	19355.7	31389.1	36877.1	-58.3404	0.0000000E+000	0.0000000E+000	0.0000000E+000	58.3404	0.0000000E+000	0.0000000E+000	0.0000000E+000	-58.3404	0.0000000E+000	0.0000000E+000	0.0000000E+000	-31.6596	0.0000000E+000	0.0000000E+000	0.0000000E+000	31.6596	1.62169	58.3404	1.16526e-06	4.29016e-05	-8.03449e-10	4.29024e-05	3.88905	352530	6.60208	352537
251.044	11.4042	6.09729	12.9319	-28.1313	17.19	3.88896	0.0104534	103.976	23.1144	1	10	0.00452092	0.000349595	0	9.08324e-05	0.000175598	8.20106e-06	-97.99	0.0234587	-0.00326076	0.023231	-28.2288	12.94	11.401	6.12052	0.0681935	0.0364598	0.0773283	28.1313	23114.4	43232.7	49023.9	-61.8687	0.0000000E+000	0.0000000E+000	0.0000000E+000	61.8687	0.0000000E+000	0.0000000E+000	0.0000000E+000	-61.8687	0.0000000E+000	0.0000000E+000	0.0000000E+000	-28.1313	0.0000000E+000	0.0000000E+000	0.0000000E+000	28.1313	1.87038	61.8687	1.01137e-06	4.0653e-05	1.8356e-09	4.06511e-05	3.88879	372027	16.7981	372011
158.428	13.6813	5.94268	14.9162	-23.4784	18.0948	3.88896	0.0114606	169.046	26.8319	1	10	0.00451485	0.00030268	0	9.32166e-05	3.60827e-06	5.69792e-06	30.2954	0.0188249	0.0162541	-0.00949635	-23.4202	14.9274	13.6976	5.93319	0.0614908	0.0267094	0.0670411	23.4784	26831.9	61772.8	67348.5	-66.5216	0.0000000E+000	0.0000000E+000	0.0000000E+000	66.5216	0.0000000E+000	0.0000000E+000	0.0000000E+000	-66.5216	0.0000000E+000	0.0000000E+000	0.0000000E+000	-23.4784	0.0000000E+000	0.0000000E+000	0.0000000E+000	23.4784	2.30221	66.5216	1.26866e-06	4.45697e-05	4.13529e-11	4.45697e-05	3.88896	339334	0.314842	339334
100.032	15.7259	5.2594	16.582	-18.4921	18.9928	3.88896	0.00799897	302.514	30.4327	1	10	0.00451088	0.000272034	0	9.5548e-05	-0.000168381	8.25713e-06	123.982	0.0303533	-0.0169653	-0.0251695	-18.4282	16.558	15.7089	5.23423	0.0571924	0.0191276	0.0603062	18.4921	30432.7	90995.4	95949.6	-71.5079	0.0000000E+000	0.0000000E+000	0.0000000E+000	71.5079	0.0000000E+000	0.0000000E+000	0.0000000E+000	-71.5079	0.0000000E+000	0.0000000E+000	0.0000000E+000	-18.4921	0.0000000E+000	0.0000000E+000	0.0000000E+000	18.4921	2.99005	71.5079	1.44403e-06	3.11077e-05	-1.34688e-09	3.1109e-05	3.88913	486183	21.0504	486204
63.0823	17.2573	4.38551	17.8058	-14.2584	20.13	3.88897	0.00926723	575.298	34.8985	1	10	0.00487354	0.000273705	0	9.83044e-05	-7.28316e-05	1.21582e-05	-13.4989	0.044421	0.0431939	0.010369	-14.2565	17.8503	17.3005	4.39587	0.0544313	0.0138323	0.0561613	14.2584	34898.5	137329	141694	-75.7416	0.0000000E+000	0.0000000E+000	0.0000000E+000	75.7416	0.0000000E+000	0.0000000E+000	0.0000000E+000	-75.7416	0.0000000E+000	0.0000000E+000	0.0000000E+000	-14.2584	0.0000000E+000	0.0000000E+000	0.0000000E+000	14.2584	3.93508	75.7416	1.83498e-06	3.60399e-05	-6.74947e-10	3.60406e-05	3.88904	419647	7.85904	419655
39.8089	18.4566	3.32548	18.7538	-10.2139	21.2768	3.88898	0.0161884	1202.22	37.8021	1	11	0.00487288	0.000259834	0	0.000101622	-1.55017e-05	5.27979e-06	38.2979	0.0203199	0.015947	-0.0125932	-10.1674	18.7673	18.4725	3.31289	0.0524775	0.00945532	0.0533225	10.2139	37802.1	209804	213182	-79.7861	0.0000000E+000	0.0000000E+000	0.0000000E+000	79.7861	0.0000000E+000	0.0000000E+000	0.0000000E+000	-79.7861	0.0000000E+000	0.0000000E+000	0.0000000E+000	-10.2139	0.0000000E+000	0.0000000E+000	0.0000000E+000	10.2139	5.55005	79.7861	2.58781e-06	6.29564e-05	-2.50947e-10	6.29566e-05	3.889	240233	0.95758	240234
25.1044	19.1909	2.47212	19.3495	-7.34026	22.1561	3.88898	0.015324	2564.48	41.8601	1	11	0.0048766	0.000252027	0	0.000105512	-0.000302151	9.10475e-06	37.8616	0.036126	0.0285213	-0.0221726	-7.26446	19.375	19.2194	2.44995	0.0512574	0.00660284	0.051681	7.34026	41860.1	324957	327642	-82.6597	0.0000000E+000	0.0000000E+000	0.0000000E+000	82.6597	0.0000000E+000	0.0000000E+000	0.0000000E+000	-82.6597	0.0000000E+000	0.0000000E+000	0.0000000E+000	-7.34026	0.0000000E+000	0.0000000E+000	0.0000000E+000	7.34026	7.76293	82.6597	1.75479e-06	5.95946e-05	-4.63015e-09	5.95992e-05	3.88928	253784	19.7175	253804
15.8576	19.5769	1.84911	19.664	-5.3958	23.034	3.88897	0.0150166	5427.76	47.9957	1	11	0.00487207	0.000247766	0	0.000109083	-0.000149271	1.7908e-05	56.6128	0.0722779	0.0397741	-0.0603499	-5.21015	19.698	19.6166	1.78876	0.050629	0.0047821	0.0508544	5.3958	47995.7	508139	510401	-84.6042	0.0000000E+000	0.0000000E+000	0.0000000E+000	84.6042	0.0000000E+000	0.0000000E+000	0.0000000E+000	-84.6042	0.0000000E+000	0.0000000E+000	0.0000000E+000	-5.3958	0.0000000E+000	0.0000000E+000	0.0000000E+000	5.3958	10.5872	84.6042	1.81992e-06	5.83989e-05	-2.24154e-09	5.84012e-05	3.88912	258979	9.94046	258989
10.0032	19.8505	1.44089	19.9027	-4.15165	24.0158	3.88898	0.0151065	11042.1	57.8743	1	11	0.00487203	0.000244792	0	0.000113528	-0.000225711	9.23513e-06	35.3843	0.0377265	0.0307579	-0.0218458	-4.08261	19.9319	19.8813	1.41904	0.0501125	0.00363751	0.0502443	4.15165	57874.3	797310	799407	-85.8484	0.0000000E+000	0.0000000E+000	0.0000000E+000	85.8484	0.0000000E+000	0.0000000E+000	0.0000000E+000	-85.8484	0.0000000E+000	0.0000000E+000	0.0000000E+000	-4.15165	0.0000000E+000	0.0000000E+000	0.0000000E+000	4.15165	13.7766	85.8484	4.96497e-07	5.87487e-05	-3.4097e-09	5.87521e-05	3.8892	257438	14.9414	257453
6.31058	20.1016	1.05508	20.1293	-3.00454	24.9393	3.88899	0.0161533	23903.7	65.6717	1	11	0.00487623	0.000242245	0	0.000116997	-0.000168381	1.46642e-05	-6.96977	0.0605346	0.0600872	0.00734561	-3.01642	20.1897	20.1617	1.06242	0.0496105	0.00260392	0.0496788	3.00454	65671.7	1.25119e+06	1.25292e+06	-86.9955	0.0000000E+000	0.0000000E+000	0.0000000E+000	86.9955	0.0000000E+000	0.0000000E+000	0.0000000E+000	-86.9955	0.0000000E+000	0.0000000E+000	0.0000000E+000	-3.00454	0.0000000E+000	0.0000000E+000	0.0000000E+000	3.00454	19.0523	86.9955	-8.26704e-07	6.28201e-05	-2.71992e-09	6.28228e-05	3.88916	240755	10.4239	240765
3.97785	20.285	0.955346	20.3075	-2.69641	25.9463	3.88899	0.0163688	41880.4	92.6868	1	11	0.00488086	0.000240347	0	0.000125042	-0.000149271	6.67788e-06	-17.4067	0.0277843	0.0265119	0.00831174	-2.71629	20.3344	20.3116	0.963658	0.0491883	0.00231658	0.0492428	2.69641	92686.8	1.96804e+06	1.97022e+06	-87.3036	0.0000000E+000	0.0000000E+000	0.0000000E+000	87.3036	0.0000000E+000	0.0000000E+000	0.0000000E+000	-87.3036	0.0000000E+000	0.0000000E+000	0.0000000E+000	-2.69641	0.0000000E+000	0.0000000E+000	0.0000000E+000	2.69641	21.2332	87.3036	5.3573e-06	6.36581e-05	-2.44339e-09	6.36605e-05	3.88914	237586	9.11928	237595
2.51367	20.3906	0.918862	20.4113	-2.58017	27.5059	3.889	0.0169245	68906.6	139.643	1	11	0.00487982	0.000239074	0	0.000128455	-0.000378591	3.80755e-06	-61.0451	0.0159262	0.00771022	0.0139354	-2.61826	20.4197	20.3983	0.932797	0.0489427	0.0022055	0.0489924	2.58017	139643	3.09884e+06	3.10199e+06	-87.4198	0.0000000E+000	0.0000000E+000	0.0000000E+000	87.4198	0.0000000E+000	0.0000000E+000	0.0000000E+000	-87.4198	0.0000000E+000	0.0000000E+000	0.0000000E+000	-2.58017	0.0000000E+000	0.0000000E+000	0.0000000E+000	2.58017	22.1912	87.4198	3.23854e-07	6.58192e-05	-6.40745e-09	6.58256e-05	3.88937	229785	22.3694	229808
1.58469	20.5906	0.98751	20.6143	-2.74575	29.9415	3.88899	0.0160596	101703	233.389	1	11	0.00487281	0.00023638	0	0.000137366	-1.55017e-05	1.1972e-06	37.1017	0.00506471	0.00403944	-0.0030552	-2.73673	20.6182	20.5947	0.984455	0.0484543	0.00232383	0.04851	2.74575	233389	4.86642e+06	4.87201e+06	-87.2542	0.0000000E+000	0.0000000E+000	0.0000000E+000	87.2542	0.0000000E+000	0.0000000E+000	0.0000000E+000	-87.2542	0.0000000E+000	0.0000000E+000	0.0000000E+000	-2.74575	0.0000000E+000	0.0000000E+000	0.0000000E+000	2.74575	20.8511	87.2542	7.15776e-06	6.24557e-05	-2.48951e-10	6.2456e-05	3.88901	242160	0.965259	242161
1.00469	20.7575	1.09008	20.7861	-3.00614	240.759	3.88895	0.00799455	145320	399.67	1	11	0.00506324	0.000243588	0	-0.000108564	-5.37216e-05	2.98279e-07	-28.2084	0.00122452	0.00107909	0.000578806	-3.00758	20.7872	20.7585	1.09066	0.048043	0.00252299	0.0481092	3.00614	399670	7.61055e+06	7.62104e+06	-86.9939	0.0000000E+000	0.0000000E+000	0.0000000E+000	86.9939	0.0000000E+000	0.0000000E+000	0.0000000E+000	-86.9939	0.0000000E+000	0.0000000E+000	0.0000000E+000	-3.00614	0.0000000E+000	0.0000000E+000	0.0000000E+000	3.00614	19.0421	86.9939	-0.000259208	3.10904e-05	-4.2948e-10	3.10908e-05	3.889	486450	6.71978	486457
0.632957	21.0441	1.27023	21.0824	-3.45421	240.761	3.88895	0.00799455	197953	718.602	1	11	0.00507635	0.000240786	0	-0.000108564	-5.37216e-05	5.61692e-07	5.88217	0.00233275	0.00232046	-0.000239067	-3.45318	21.0847	21.0464	1.26999	0.0473467	0.00285787	0.0474329	3.45421	718602	1.19052e+07	1.19268e+07	-86.5458	0.0000000E+000	0.0000000E+000	0.0000000E+000	86.5458	0.0000000E+000	0.0000000E+000	0.0000000E+000	-86.5458	0.0000000E+000	0.0000000E+000	0.0000000E+000	-3.45421	0.0000000E+000	0.0000000E+000	0.0000000E+000	3.45421	16.5671	86.5458	0.000000000000000E+000	3.10904e-05	-4.2948e-10	3.10908e-05	3.889	486450	6.71978	486457
0.401878	21.3078	1.54321	21.3636	-4.14239	240.762	3.88895	0.00799455	256627	1339.07	1	11	0.00508923	0.00023822	0	-0.000108564	-5.37216e-05	4.91656e-07	-11.2097	0.00206387	0.0020245	0.000401219	-4.14307	21.3656	21.3098	1.54361	0.0466863	0.00338124	0.0468086	4.14239	1.33907e+06	1.84891e+07	1.85376e+07	-85.8576	0.0000000E+000	0.0000000E+000	0.0000000E+000	85.8576	0.0000000E+000	0.0000000E+000	0.0000000E+000	-85.8576	0.0000000E+000	0.0000000E+000	0.0000000E+000	-4.14239	0.0000000E+000	0.0000000E+000	0.0000000E+000	4.14239	13.8075	85.8576	0.000000000000000E+000	3.10904e-05	-4.2948e-10	3.10908e-05	3.889	486450	6.71978	486457
0.251173	21.7862	1.90165	21.869	-4.98855	240.763	3.88895	0.00799455	333208	2519.54	1	11	0.00509116	0.000232803	0	-0.000108564	-5.37216e-05	6.29097e-07	8.89044	0.00270228	0.00266981	-0.000417625	-4.98685	21.8716	21.7888	1.90124	0.0455536	0.00397625	0.0457269	4.98855	2.51954e+06	2.88649e+07	2.89746e+07	-85.0115	0.0000000E+000	0.0000000E+000	0.0000000E+000	85.0115	0.0000000E+000	0.0000000E+000	0.0000000E+000	-85.0115	0.0000000E+000	0.0000000E+000	0.0000000E+000	-4.98855	0.0000000E+000	0.0000000E+000	0.0000000E+000	4.98855	11.4564	85.0115	0.000000000000000E+000	3.10904e-05	-4.2948e-10	3.10908e-05	3.889	486450	6.71978	486457
0.160751	22.2443	2.1967	22.3525	-5.63987	240.765	3.88895	0.00799455	450708	4352.96	1	11	0.00508476	0.00022748	0	-0.000108564	-5.37216e-05	6.9656e-07	-19.7484	0.00306206	0.00288197	0.00103464	-5.64178	22.3555	22.2472	2.19774	0.0445211	0.00439661	0.0447377	5.63987	4.35296e+06	4.40791e+07	4.42935e+07	-84.3601	0.0000000E+000	0.0000000E+000	0.0000000E+000	84.3601	0.0000000E+000	0.0000000E+000	0.0000000E+000	-84.3601	0.0000000E+000	0.0000000E+000	0.0000000E+000	-5.63987	0.0000000E+000	0.0000000E+000	0.0000000E+000	5.63987	10.1262	84.3601	0.000000000000000E+000	3.10904e-05	-4.2948e-10	3.10908e-05	3.889	486450	6.71978	486457
0.100469	22.8355	2.88655	23.0172	-7.20434	240.766	3.88895	0.00799455	548790	8630.97	1	11	0.00508797	0.00022105	0	-0.000108564	-5.37216e-05	6.83146e-07	-38.7531	0.00309046	0.0024101	0.00193452	-7.20836	23.0199	22.8379	2.88849	0.0431027	0.00544845	0.0434457	7.20434	8.63097e+06	6.82796e+07	6.88229e+07	-82.7957	0.0000000E+000	0.0000000E+000	0.0000000E+000	82.7957	0.0000000E+000	0.0000000E+000	0.0000000E+000	-82.7957	0.0000000E+000	0.0000000E+000	0.0000000E+000	-7.20434	0.0000000E+000	0.0000000E+000	0.0000000E+000	7.20434	7.911	82.7957	0.000000000000000E+000	3.10904e-05	-4.2948e-10	3.10908e-05	3.889	486450	6.71978	486457
0.0602816	23.8041	3.41641	24.048	-8.16743	240.767	3.88895	0.00799455	772797	15597.2	1	11	0.00508399	0.00021141	0	-0.000108564	-5.37216e-05	7.93321e-07	-17.6503	0.00375252	0.00357587	0.00113779	-8.1689	24.0517	23.8076	3.41755	0.0411617	0.00590762	0.0415835	8.16743	1.55972e+07	1.08675e+08	1.09788e+08	-81.8326	0.0000000E+000	0.0000000E+000	0.0000000E+000	81.8326	0.0000000E+000	0.0000000E+000	0.0000000E+000	-81.8326	0.0000000E+000	0.0000000E+000	0.0000000E+000	-8.16743	0.0000000E+000	0.0000000E+000	0.0000000E+000	8.16743	6.96757	81.8326	0.000000000000000E+000	3.10904e-05	-4.2948e-10	3.10908e-05	3.889	486450	6.71978	486457
0.0401878	24.8986	3.86374	25.1966	-8.82073	240.769	3.88895	0.00799455	1.02499e+06	24101.8	1	11	0.00508455	0.000201795	0	-0.000108564	-5.37216e-05	5.4172e-07	57.4488	0.00268451	0.00144441	-0.00226281	-8.81514	25.1977	24.9001	3.86148	0.0392184	0.00608586	0.0396878	8.82073	2.41017e+07	1.55316e+08	1.57175e+08	-81.1793	0.0000000E+000	0.0000000E+000	0.0000000E+000	81.1793	0.0000000E+000	0.0000000E+000	0.0000000E+000	-81.1793	0.0000000E+000	0.0000000E+000	0.0000000E+000	-8.82073	0.0000000E+000	0.0000000E+000	0.0000000E+000	8.82073	6.44419	81.1793	0.000000000000000E+000	3.10904e-05	-4.2948e-10	3.10908e-05	3.889	486450	6.71978	486457
0.0200939	26.9886	4.94904	27.4386	-10.3912	240.77	3.88895	0.00799455	1.60042e+06	52066	1	11	0.00508401	0.000185287	0	-0.000108564	-5.37216e-05	1.79343e-06	-56.9246	0.00967918	0.00528234	0.0081107	-10.4059	27.4452	26.9938	4.95715	0.0358473	0.00657352	0.036445	10.3912	5.20661e+07	2.83931e+08	2.88665e+08	-79.6088	0.0000000E+000	0.0000000E+000	0.0000000E+000	79.6088	0.0000000E+000	0.0000000E+000	0.0000000E+000	-79.6088	0.0000000E+000	0.0000000E+000	0.0000000E+000	-10.3912	0.0000000E+000	0.0000000E+000	0.0000000E+000	10.3912	5.45329	79.6088	0.000000000000000E+000	3.10904e-05	-4.2948e-10	3.10908e-05	3.889	486450	6.71978	486457
0.00796479	29.4595	5.64894	29.9962	-10.8549	20329.7	3.88896	-0.000913294	3.53736e+06	125453	1	11	0.00507505	0.00016919	0	-0.0140615	-0.000283041	4.83602e-07	-13.5688	0.00285834	0.00277856	0.000670603	-10.8551	29.9991	29.4623	5.64961	0.0327411	0.00627819	0.0333376	10.8549	1.25453e+08	6.54243e+08	6.66162e+08	-79.1451	0.0000000E+000	0.0000000E+000	0.0000000E+000	79.1451	0.0000000E+000	0.0000000E+000	0.0000000E+000	-79.1451	0.0000000E+000	0.0000000E+000	0.0000000E+000	-10.8549	0.0000000E+000	0.0000000E+000	0.0000000E+000	10.8549	5.21505	79.1451	-0.0139529	-3.55176e-06	2.585e-10	-3.55202e-06	3.88924	4.25816e+06	309.912	4.25847e+06
0.00497799	31.1482	6.12875	31.7454	-11.1314	20329.7	3.88896	-0.000913294	5.21668e+06	194435	1	11	0.00508296	0.000160116	0	-0.0140615	-0.000283041	4.98548e-07	-5.11998	0.00311367	0.00310124	0.000277869	-11.1308	31.7485	31.1513	6.12903	0.030908	0.00608148	0.0315006	11.1314	1.94435e+08	9.88181e+08	1.00713e+09	-78.8686	0.0000000E+000	0.0000000E+000	0.0000000E+000	78.8686	0.0000000E+000	0.0000000E+000	0.0000000E+000	-78.8686	0.0000000E+000	0.0000000E+000	0.0000000E+000	-11.1314	0.0000000E+000	0.0000000E+000	0.0000000E+000	11.1314	5.08231	78.8686	0.000000000000000E+000	-3.55176e-06	2.585e-10	-3.55202e-06	3.88924	4.25816e+06	309.912	4.25847e+06
0.00318591	32.5444	7.97568	33.5075	-13.7701	20329.7	3.88896	-0.000913294	6.26352e+06	354870	1	11	0.0050864	0.000151799	0	-0.0140615	-0.000283041	3.69254e-07	-58.6399	0.00243252	0.00126592	0.00207716	-13.773	33.5092	32.5457	7.97775	0.0289863	0.00710368	0.0298441	13.7701	3.5487e+08	1.44803e+09	1.49088e+09	-76.2299	0.0000000E+000	0.0000000E+000	0.0000000E+000	76.2299	0.0000000E+000	0.0000000E+000	0.0000000E+000	-76.2299	0.0000000E+000	0.0000000E+000	0.0000000E+000	-13.7701	0.0000000E+000	0.0000000E+000	0.0000000E+000	13.7701	4.08046	76.2299	0.000000000000000E+000	-3.55176e-06	2.585e-10	-3.55202e-06	3.88924	4.25816e+06	309.912	4.25847e+06
0.0019912	33.6544	10.0838	35.1326	-16.6796	20329.7	3.88896	-0.000913294	7.92654e+06	652991	1	11	0.00508976	0.000144873	0	-0.0140615	-0.000283041	3.17392e-07	-56.0038	0.00219083	0.00122498	0.00181636	-16.6819	35.1343	33.6556	10.0856	0.027266	0.00816961	0.0284636	16.6796	6.52991e+08	2.17935e+09	2.27507e+09	-73.3204	0.0000000E+000	0.0000000E+000	0.0000000E+000	73.3204	0.0000000E+000	0.0000000E+000	0.0000000E+000	-73.3204	0.0000000E+000	0.0000000E+000	0.0000000E+000	-16.6796	0.0000000E+000	0.0000000E+000	0.0000000E+000	16.6796	3.33749	73.3204	0.000000000000000E+000	-3.55176e-06	2.585e-10	-3.55202e-06	3.88924	4.25816e+06	309.912	4.25847e+06
0.00129428	33.8687	13.0067	36.2804	-21.0084	20329.7	3.88896	-0.000913294	9.45422e+06	1.21511e+06	1	11	0.00509116	0.000140328	0	-0.0140615	-0.000283041	9.71389e-07	-8.34648	0.00692226	0.00684894	0.00100483	-21.006	36.2871	33.8756	13.0077	0.0257309	0.00988152	0.0275631	21.0084	1.21511e+09	3.16409e+09	3.38939e+09	-68.9916	0.0000000E+000	0.0000000E+000	0.0000000E+000	68.9916	0.0000000E+000	0.0000000E+000	0.0000000E+000	-68.9916	0.0000000E+000	0.0000000E+000	0.0000000E+000	-21.0084	0.0000000E+000	0.0000000E+000	0.0000000E+000	21.0084	2.60394	68.9916	0.000000000000000E+000	-3.55176e-06	2.585e-10	-3.55202e-06	3.88924	4.25816e+06	309.912	4.25847e+06
0.000796479	35.9476	17.9136	40.1638	-26.4882	20329.7	3.88896	-0.000913294	1.11548e+07	2.21901e+06	1	11	0.00508905	0.000126708	0	-0.0140615	-0.000283041	2.0198e-06	-135.931	0.0159407	-0.0114534	0.0110872	-26.5097	40.1585	35.9362	17.9247	0.0222844	0.0111049	0.0248981	26.4882	2.21901e+09	4.45294e+09	4.97521e+09	-63.5118	0.0000000E+000	0.0000000E+000	0.0000000E+000	63.5118	0.0000000E+000	0.0000000E+000	0.0000000E+000	-63.5118	0.0000000E+000	0.0000000E+000	0.0000000E+000	-26.4882	0.0000000E+000	0.0000000E+000	0.0000000E+000	26.4882	2.00672	63.5118	0.000000000000000E+000	-3.55176e-06	2.585e-10	-3.55202e-06	3.88924	4.25816e+06	309.912	4.25847e+06
0.000497799	37.325	24.5456	44.6726	-33.3296	20329.7	3.88896	-0.000913294	1.30254e+07	3.93239e+06	1	11	0.00509053	0.000113952	0	-0.0140615	-0.000283041	1.40285e-06	-37.59	0.0123109	0.0097551	0.00750974	-33.3308	44.6849	37.3347	24.5531	0.0187033	0.0122996	0.0223851	33.3296	3.93239e+09	5.97975e+09	7.1569e+09	-56.6704	0.0000000E+000	0.0000000E+000	0.0000000E+000	56.6704	0.0000000E+000	0.0000000E+000	0.0000000E+000	-56.6704	0.0000000E+000	0.0000000E+000	0.0000000E+000	-33.3296	0.0000000E+000	0.0000000E+000	0.0000000E+000	33.3296	1.52064	56.6704	0.000000000000000E+000	-3.55176e-06	2.585e-10	-3.55202e-06	3.88924	4.25816e+06	309.912	4.25847e+06
0.000298679	37.428	39.9447	54.7397	-46.863	20329.7	3.88896	-0.000913294	1.334e+07	7.10344e+06	1	11	0.00509506	9.30779e-05	0	-0.0140615	-0.000283041	3.30089e-06	-97.4343	0.0354637	-0.00458866	0.0351656	-46.8917	54.7623	37.4234	39.9799	0.0124908	0.0133307	0.0182683	46.863	7.10344e+09	6.65589e+09	9.73446e+09	-43.137	0.0000000E+000	0.0000000E+000	0.0000000E+000	43.137	0.0000000E+000	0.0000000E+000	0.0000000E+000	-43.137	0.0000000E+000	0.0000000E+000	0.0000000E+000	-46.863	0.0000000E+000	0.0000000E+000	0.0000000E+000	46.863	0.936996	43.137	0.000000000000000E+000	-3.55176e-06	2.585e-10	-3.55202e-06	3.88924	4.25816e+06	309.912	4.25847e+06
9.95598e-05	48.9527	133.336	142.038	-69.8399	20329.7	3.88896	-0.000913294	1.19892e+07	1.05651e+07	1	11	0.00509292	3.5856e-05	0	-0.0140615	-0.000283041	2.75008e-06	-63.847	0.076698	0.0338062	0.0688457	-69.8367	142.114	48.9865	133.405	0.00242642	0.00660902	0.00704036	69.8399	1.05651e+10	3.87884e+09	1.12546e+10	-20.1601	0.0000000E+000	0.0000000E+000	0.0000000E+000	20.1601	0.0000000E+000	0.0000000E+000	0.0000000E+000	-20.1601	0.0000000E+000	0.0000000E+000	0.0000000E+000	-69.8399	0.0000000E+000	0.0000000E+000	0.0000000E+000	69.8399	0.367138	20.1601	0.000000000000000E+000	-3.55176e-06	2.585e-10	-3.55202e-06	3.88924	4.25816e+06	309.912	4.25847e+06