File: txt/18571_R297_UC90_SOC50_C02.mpt
EC-Lab ASCII FILE
Nb header lines : 65

Potentio Electrochemical Impedance Spectroscopy

Run on channel : 2 (SN 66139)
User :
CE vs. WE compliance from -10 V to 10 V
Electrode connection : standard
Potential control : Ewe
Ewe ctrl range : min = -10.00 V, max = 10.00 V
Safety Limits :
	Do not start on E overload
Acquisition started on : 10/21/2025 16:34:32.262
Technique started on : 10/21/2025 16:34:34.956
Loaded Setting File :  C:\Users\Celltest\OneDrive - store-dot.com\Documents\EC-Lab\Data\@Biologic Test Protocols\cathode half cell EIS SOC50.mps
Saved on :
	File : 18571_R297_UC90_SOC50_C02.mpr
	Directory : C:\Users\Celltest\OneDrive - store-dot.com\Documents\EC-Lab\Data\Michael\
	Host : 169.254.61.224
Device : VMP-3e (SN .003165)
Address : USB
EC-LAB for windows v11.62 (software)
Internet server v27.00 (firmware)
Command interpretor v12.03 (firmware)
Electrode material :
Initial state :
Electrolyte :
Comments :
Electrode surface area : 0.001 cm²
Characteristic mass : 0.001 g
Equivalent Weight : 0.000 g/eq.
Density : 0.000 g/cm3
Volume (V) : 0.001 cm³
Record Ece
Cycle Definition : Charge/Discharge alternance
Mode                Multi sine
E (V)               0.0000
vs.                 Eoc
tE (h:m:s)          0:00:0.0000
record              0
dI                  0.000
unit dI             mA
dt (s)              0.000
fi                  1.000
unit fi             MHz
ff                  0.100
unit ff             mHz
Nd                  10
Points              per decade
spacing             Logarithmic
Va (mV)             5.0
pw                  0.10
Na                  2
corr                0
E range min (V)     -10.000
E range max (V)     10.000
I Range             Auto
Bandwidth           5
nc cycles           0
goto Ns'            0
nr cycles           0
inc. cycle          0

freq/Hz	Re(Z)/Ohm	-Im(Z)/Ohm	|Z|/Ohm	Phase(Z)/deg	time/s	<Ewe>/V	<I>/mA	Cs/µF	Cp/µF	cycle number	I Range	|Ewe|/V	|I|/A	Ns	(Q-Qo)/mA.h	<Ece>/V	|Ece|/V	Phase(Zce)/deg	|Zce|/Ohm	Re(Zce)/Ohm	-Im(Zce)/Ohm	Phase(Zwe-ce)/deg	|Zwe-ce|/Ohm	Re(Zwe-ce)/Ohm	-Im(Zwe-ce)/Ohm	Re(Y)/Ohm-1	Im(Y)/Ohm-1	|Y|/Ohm-1	Phase(Y)/deg	Re(C)/nF	Im(C)/nF	|C|/nF	Phase(C)/deg	Re(M)	Im(M)	|M|	Phase(M)/deg	Re(Permittivity)	Im(Permittivity)	|Permittivity|	Phase(Permittivity)/deg	Re(Resistivity)/Ohm.cm	Im(Resistivity)/Ohm.cm	|Resistivity|/Ohm.cm	Phase(Resistivity)/deg	Re(Conductivity)/mS/cm	Im(Conductivity)/mS/cm	|Conductivity|/mS/cm	Phase(Conductivity)/deg	Tan(Delta)	Loss Angle(Delta)/deg	dq/mA.h	Pwe/W	Pce/W	Pwe-ce/W	<Ewe-Ece>/V	Rwe/Ohm	Rce/Ohm	Rwe-ce/Ohm		Ewe-Ece/V
1.00002e+06	0.932688	-0.339084	0.992414	19.979	2.69355	3.88424	-0.0056964	-0.469358	-0.0547941	1	9	0.000201103	0.00020264	0	-2.14233e-05	0.000191251	0.000186224	9.99975	0.918992	0.905031	-0.159577	15.1815	1.90417	1.83772	-0.498662	0.947001	-0.344288	1.00764	-19.979	-54.7941	150.717	160.369	-109.979	0.0000000E+000	0.0000000E+000	0.0000000E+000	109.979	0.0000000E+000	0.0000000E+000	0.0000000E+000	-109.979	0.0000000E+000	0.0000000E+000	0.0000000E+000	19.979	0.0000000E+000	0.0000000E+000	0.0000000E+000	-19.979	2.75061	70.021	-2.14233e-05	-2.21262e-05	-1.08944e-09	-2.21251e-05	3.88405	681876	33.574	681843
630957	0.517154	0.126179	0.532325	-13.7116	3.45954	3.88415	-0.00636682	1.99909	0.11232	1	9	0.000151764	0.000285097	0	-2.39934e-05	0.000114888	0.000107305	-100.587	0.376381	-0.0691549	0.369973	-47.9197	0.668484	0.447999	0.496153	1.82502	0.445282	1.87855	13.7116	112.32	460.349	473.853	-76.2884	0.0000000E+000	0.0000000E+000	0.0000000E+000	76.2884	0.0000000E+000	0.0000000E+000	0.0000000E+000	-76.2884	0.0000000E+000	0.0000000E+000	0.0000000E+000	-13.7116	0.0000000E+000	0.0000000E+000	0.0000000E+000	13.7116	4.09856	76.2884	-1.76936e-06	-2.47297e-05	-7.31468e-10	-2.47289e-05	3.88403	610061	18.0447	610043
398103	0.700919	0.0657938	0.704	-5.36252	4.22553	3.8843	0.00275844	6.0763	0.0530717	1	9	0.000604491	0.000858652	0	-2.34847e-05	-0.000228748	3.99708e-05	-5.62247	0.0465507	0.0463267	0.00456072	-5.37864	0.750551	0.747246	0.0703545	1.41424	0.132751	1.42045	5.36252	53.0717	565.388	567.873	-84.6375	0.0000000E+000	0.0000000E+000	0.0000000E+000	84.6375	0.0000000E+000	0.0000000E+000	0.0000000E+000	-84.6375	0.0000000E+000	0.0000000E+000	0.0000000E+000	-5.36252	0.0000000E+000	0.0000000E+000	0.0000000E+000	5.36252	10.6533	84.6375	1.04574e-06	1.07146e-05	-6.30987e-10	1.07152e-05	3.88453	1.40815e+06	82.9264	1.40823e+06
251206	0.80115	0.207758	0.82765	-14.538	4.99354	3.88422	-0.00547286	3.04953	0.192156	1	9	0.00195336	0.00236013	0	-2.41557e-05	-0.000114203	2.54902e-05	74.3531	0.0108004	0.00291294	-0.0104001	-13.7907	0.827929	0.804063	0.197358	1.16955	0.303294	1.20824	14.538	192.156	740.986	765.496	-75.462	0.0000000E+000	0.0000000E+000	0.0000000E+000	75.462	0.0000000E+000	0.0000000E+000	0.0000000E+000	-75.462	0.0000000E+000	0.0000000E+000	0.0000000E+000	-14.538	0.0000000E+000	0.0000000E+000	0.0000000E+000	14.538	3.85617	75.462	-2.04256e-06	-2.12578e-05	6.25015e-10	-2.12584e-05	3.88433	709723	20.8671	709744
158486	0.875538	0.331561	0.936216	-20.7414	5.75956	3.88417	-0.010054	3.02877	0.379875	1	9	0.00507197	0.00541752	0	-2.75369e-05	3.42479e-07	2.26811e-05	68.9386	0.00418663	0.00150454	-0.00390694	-20.4852	0.936249	0.877043	0.327654	0.998903	0.378278	1.06813	20.7414	379.874	1003.12	1072.64	-69.2586	0.0000000E+000	0.0000000E+000	0.0000000E+000	69.2586	0.0000000E+000	0.0000000E+000	0.0000000E+000	-69.2586	0.0000000E+000	0.0000000E+000	0.0000000E+000	-20.7414	0.0000000E+000	0.0000000E+000	0.0000000E+000	20.7414	2.64066	69.2586	-9.64436e-06	-3.90516e-05	-3.4433e-12	-3.90516e-05	3.88417	386330	0.0340639	386330
100004	0.978051	0.442561	1.07352	-24.3464	6.52555	3.88413	-0.0105382	3.59609	0.611164	1	9	0.00533022	0.00496518	0	-4.51546e-05	0.000153069	1.35166e-05	95.8683	0.00272229	-0.000278334	-0.00270802	-24.2207	1.07215	0.977772	0.439853	0.848675	0.38402	0.931516	24.3464	611.164	1350.66	1482.5	-65.6536	0.0000000E+000	0.0000000E+000	0.0000000E+000	65.6536	0.0000000E+000	0.0000000E+000	0.0000000E+000	-65.6536	0.0000000E+000	0.0000000E+000	0.0000000E+000	-24.3464	0.0000000E+000	0.0000000E+000	0.0000000E+000	24.3464	2.20998	65.6536	-3.66723e-06	-4.09318e-05	-1.61308e-09	-4.09302e-05	3.88397	368575	14.5251	368560
63093.8	1.10477	0.567806	1.24214	-27.2012	7.29155	3.8841	-0.00625499	4.44256	0.928301	1	9	0.00529623	0.00426378	0	-7.30194e-05	0.000153069	1.13129e-05	30.4203	0.00265326	0.00228799	-0.00134345	-27.098	1.24357	1.10706	0.566462	0.716025	0.368006	0.805059	27.2012	928.301	1806.18	2030.77	-62.7988	0.0000000E+000	0.0000000E+000	0.0000000E+000	62.7988	0.0000000E+000	0.0000000E+000	0.0000000E+000	-62.7988	0.0000000E+000	0.0000000E+000	0.0000000E+000	-27.2012	0.0000000E+000	0.0000000E+000	0.0000000E+000	27.2012	1.94569	62.7988	-1.31766e-05	-2.4295e-05	-9.57446e-10	-2.42941e-05	3.88395	620961	24.4716	620937
39814.1	1.25911	0.709383	1.4452	-29.3968	8.05755	3.8841	-0.00212071	5.63512	1.35772	1	9	0.00525467	0.00363595	0	-7.60806e-05	3.42479e-07	1.78923e-05	11.1848	0.00492093	0.00482747	-0.000954537	-29.2703	1.44894	1.26394	0.708428	0.602853	0.339646	0.691948	29.3968	1357.72	2409.88	2766.03	-60.6032	0.0000000E+000	0.0000000E+000	0.0000000E+000	60.6032	0.0000000E+000	0.0000000E+000	0.0000000E+000	-60.6032	0.0000000E+000	0.0000000E+000	0.0000000E+000	-29.3968	0.0000000E+000	0.0000000E+000	0.0000000E+000	29.3968	1.77494	60.6032	2.54147e-06	-8.23706e-06	-7.263e-13	-8.23706e-06	3.8841	1.83151e+06	0.161493	1.83151e+06
25116.9	1.45435	0.886572	1.70328	-31.3664	8.82255	3.8841	-0.00960714	7.14727	1.93641	1	9	0.00525226	0.00308362	0	-8.15367e-05	9.57967e-05	1.31661e-05	-40.1876	0.00426971	0.00326179	0.00275521	-31.3884	1.7075	1.45762	0.889327	0.501302	0.305593	0.587103	31.3664	1936.41	3176.53	3720.22	-58.6336	0.0000000E+000	0.0000000E+000	0.0000000E+000	58.6336	0.0000000E+000	0.0000000E+000	0.0000000E+000	-58.6336	0.0000000E+000	0.0000000E+000	0.0000000E+000	-31.3664	0.0000000E+000	0.0000000E+000	0.0000000E+000	31.3664	1.64042	58.6336	-1.14667e-06	-3.73151e-05	-9.20333e-10	-3.73142e-05	3.884	404293	9.9714	404283
15847.7	1.69166	1.09979	2.01773	-33.0289	9.58855	3.8841	-0.00655299	9.13156	2.71292	1	9	0.00520267	0.00257848	0	-8.03148e-05	0.000286705	5.40959e-06	1.23768	0.00209798	0.00209749	-4.53161e-05	-32.9954	2.01946	1.69375	1.09974	0.415514	0.270137	0.495607	33.0289	2712.92	4172.92	4977.27	-56.9711	0.0000000E+000	0.0000000E+000	0.0000000E+000	56.9711	0.0000000E+000	0.0000000E+000	0.0000000E+000	-56.9711	0.0000000E+000	0.0000000E+000	0.0000000E+000	-33.0289	0.0000000E+000	0.0000000E+000	0.0000000E+000	33.0289	1.53816	56.9711	-1.59919e-06	-2.54524e-05	-1.87877e-09	-2.54506e-05	3.88381	592722	43.7518	592678
10002.2	2.00037	1.33783	2.4065	-33.7743	10.3566	3.88409	-0.0103521	11.8939	3.67579	1	9	0.00522378	0.00217069	0	-8.46407e-05	-0.000152384	4.45947e-05	-74.2101	0.020544	0.00559023	0.0197688	-34.0894	2.42218	2.00596	1.3576	0.345412	0.231008	0.415541	33.7743	3675.79	5496.17	6612.06	-56.2257	0.0000000E+000	0.0000000E+000	0.0000000E+000	56.2257	0.0000000E+000	0.0000000E+000	0.0000000E+000	-56.2257	0.0000000E+000	0.0000000E+000	0.0000000E+000	-33.7743	0.0000000E+000	0.0000000E+000	0.0000000E+000	33.7743	1.49524	56.2258	-3.07665e-06	-4.02085e-05	1.5775e-09	-4.02101e-05	3.88425	375199	14.7201	375214
6309.38	2.3528	1.69212	2.89809	-35.7235	10.9985	3.88409	-0.0125869	14.9074	5.08206	1	9	0.00508304	0.00175393	0	-8.72292e-05	1.94333e-05	7.15153e-06	28.042	0.00407744	0.00359876	-0.00191688	-35.6512	2.8999	2.3564	1.6902	0.280131	0.201468	0.345055	35.7235	5082.06	7066.33	8704.04	-54.2765	0.0000000E+000	0.0000000E+000	0.0000000E+000	54.2765	0.0000000E+000	0.0000000E+000	0.0000000E+000	-54.2765	0.0000000E+000	0.0000000E+000	0.0000000E+000	-35.7235	0.0000000E+000	0.0000000E+000	0.0000000E+000	35.7235	1.39045	54.2765	8.23098e-07	-4.88885e-05	-2.44605e-10	-4.88883e-05	3.88407	308583	1.54394	308582
3983.6	2.81642	2.05977	3.48925	-36.1796	11.5611	3.88406	-0.0109108	19.3966	6.75924	1	9	0.00483269	0.00138502	0	-8.88692e-05	1.94333e-05	9.19398e-06	-58.2115	0.00663815	0.00349688	0.00564242	-36.2204	3.49541	2.81992	2.06541	0.231331	0.169182	0.286594	36.1796	6759.24	9242.25	11450.2	-53.8204	0.0000000E+000	0.0000000E+000	0.0000000E+000	53.8204	0.0000000E+000	0.0000000E+000	0.0000000E+000	-53.8204	0.0000000E+000	0.0000000E+000	0.0000000E+000	-36.1796	0.0000000E+000	0.0000000E+000	0.0000000E+000	36.1796	1.36735	53.8204	-4.10718e-07	-4.23782e-05	-2.12033e-10	-4.2378e-05	3.88404	355984	1.78111	355982
2510.8	3.41799	2.56389	4.27273	-36.8742	12.5948	3.88403	-0.0431042	24.7234	8.9022	1	10	0.00481483	0.00112688	0	-0.000100538	-5.69301e-05	6.50144e-06	-0.720131	0.00576944	0.00576898	7.25122e-05	-36.8286	4.27739	3.42376	2.56397	0.187224	0.14044	0.234043	36.8742	8902.2	11867.7	14835.5	-53.1258	0.0000000E+000	0.0000000E+000	0.0000000E+000	53.1258	0.0000000E+000	0.0000000E+000	0.0000000E+000	-53.1258	0.0000000E+000	0.0000000E+000	0.0000000E+000	-36.8742	0.0000000E+000	0.0000000E+000	0.0000000E+000	36.8742	1.33312	53.1258	-4.36695e-06	-0.000167418	2.45393e-09	-0.000167421	3.88409	90107.9	1.32075	90109.2
1585.51	4.19392	3.11695	5.22536	-36.62	13.4969	3.88403	-0.0426833	32.2049	11.4591	1	10	0.00458015	0.000876523	0	-0.000111432	0.000229433	5.6387e-06	50.9859	0.00643303	0.00404967	-0.00499841	-36.5496	5.22563	4.19797	3.11196	0.153599	0.114156	0.191375	36.62	11459.1	15418.4	19210.4	-53.38	0.0000000E+000	0.0000000E+000	0.0000000E+000	53.38	0.0000000E+000	0.0000000E+000	0.0000000E+000	-53.38	0.0000000E+000	0.0000000E+000	0.0000000E+000	-36.62	0.0000000E+000	0.0000000E+000	0.0000000E+000	36.62	1.34552	53.38	-5.56712e-06	-0.000165783	-9.79294e-09	-0.000165773	3.8838	90996.5	5.37523	90991.1
1000.32	5.17578	3.75674	6.39545	-35.9733	14.6128	3.88403	-0.0414838	42.3516	14.6134	1	10	0.004819	0.000753505	0	-0.00012263	3.85242e-05	9.46762e-06	77.8834	0.0125648	0.00263737	-0.0122849	-35.8703	6.39038	5.17841	3.74446	0.126542	0.0918479	0.156361	35.9733	14613.4	20133.3	24877.7	-54.0267	0.0000000E+000	0.0000000E+000	0.0000000E+000	54.0267	0.0000000E+000	0.0000000E+000	0.0000000E+000	-54.0267	0.0000000E+000	0.0000000E+000	0.0000000E+000	-35.9733	0.0000000E+000	0.0000000E+000	0.0000000E+000	35.9733	1.37773	54.0267	-4.60904e-06	-0.000161124	-1.59813e-09	-0.000161123	3.88399	93627.6	0.928656	93626.7
631.01	6.45871	4.3894	7.80909	-34.2004	15.5155	3.88403	-0.0421133	57.4617	18.1547	1	10	0.00473516	0.000606365	0	-0.000133518	7.67059e-05	7.72714e-06	4.9731	0.0127434	0.0126954	-0.0011047	-34.1414	7.81897	6.47141	4.3883	0.105912	0.0719788	0.128056	34.2004	18154.7	26713.4	32298.6	-55.7996	0.0000000E+000	0.0000000E+000	0.0000000E+000	55.7996	0.0000000E+000	0.0000000E+000	0.0000000E+000	-55.7996	0.0000000E+000	0.0000000E+000	0.0000000E+000	-34.2004	0.0000000E+000	0.0000000E+000	0.0000000E+000	34.2004	1.47143	55.7996	-5.40311e-06	-0.000163569	-3.23034e-09	-0.000163566	3.88395	92228	1.82141	92226.1
398.089	8.07606	4.86851	9.43001	-31.0829	16.4168	3.88402	-0.0411709	82.1191	21.8883	1	10	0.00469448	0.000497823	0	-0.00014351	0.00017216	1.60821e-05	48.162	0.0323048	0.0215482	-0.0240682	-30.8902	9.43609	8.09761	4.84444	0.0908187	0.0547484	0.106044	31.0829	21888.3	36309.1	42396.3	-58.9171	0.0000000E+000	0.0000000E+000	0.0000000E+000	58.9171	0.0000000E+000	0.0000000E+000	0.0000000E+000	-58.9171	0.0000000E+000	0.0000000E+000	0.0000000E+000	-31.0829	0.0000000E+000	0.0000000E+000	0.0000000E+000	31.0829	1.65884	58.9171	-4.76119e-06	-0.000159909	-7.08798e-09	-0.000159902	3.88385	94339.1	4.1816	94334.9
251.044	9.97817	5.0648	11.19	-26.9118	17.315	3.88403	-0.0405339	125.172	25.6432	1	10	0.00468021	0.000418249	0	-0.000153783	-5.69301e-05	9.81142e-06	-74.2098	0.0234583	0.00638336	0.0225731	-26.9999	11.2059	9.98456	5.08737	0.0796876	0.0404485	0.0893655	26.9118	25643.2	50519.7	56655.2	-63.0882	0.0000000E+000	0.0000000E+000	0.0000000E+000	63.0882	0.0000000E+000	0.0000000E+000	0.0000000E+000	-63.0882	0.0000000E+000	0.0000000E+000	0.0000000E+000	-26.9118	0.0000000E+000	0.0000000E+000	0.0000000E+000	26.9118	1.9701	63.0882	-4.97004e-06	-0.000157435	2.3076e-09	-0.000157437	3.88409	95822	1.40451	95823.4
158.428	11.8568	4.71539	12.76	-21.6875	18.2199	3.88403	-0.0406046	213.044	29.0939	1	10	0.00466762	0.000365801	0	-0.000164454	0.000382159	1.29639e-05	27.6863	0.0354398	0.0313821	-0.0164664	-21.5669	12.7831	11.8882	4.69892	0.0728223	0.0289611	0.0783698	21.6875	29093.9	73156.2	78729.2	-68.3125	0.0000000E+000	0.0000000E+000	0.0000000E+000	68.3125	0.0000000E+000	0.0000000E+000	0.0000000E+000	-68.3125	0.0000000E+000	0.0000000E+000	0.0000000E+000	-21.6875	0.0000000E+000	0.0000000E+000	0.0000000E+000	21.6875	2.51449	68.3125	-5.22671e-06	-0.00015771	-1.55174e-08	-0.000157694	3.88365	95654.9	9.41172	95645.5
100.032	13.4094	3.97958	13.9874	-16.5296	19.1189	3.88403	-0.0409585	399.801	32.3626	1	10	0.00466387	0.000333433	0	-0.000174428	-1.87484e-05	1.25029e-05	-94.6284	0.0374973	-0.0030258	0.037375	-16.6798	13.9952	13.4063	4.01695	0.0685382	0.0203405	0.0714928	16.5296	32362.6	109047	113748	-73.4704	0.0000000E+000	0.0000000E+000	0.0000000E+000	73.4704	0.0000000E+000	0.0000000E+000	0.0000000E+000	-73.4704	0.0000000E+000	0.0000000E+000	0.0000000E+000	-16.5296	0.0000000E+000	0.0000000E+000	0.0000000E+000	16.5296	3.36954	73.4704	-5.28373e-06	-0.000159084	7.67906e-10	-0.000159085	3.88405	94828.3	0.45774	94828.8
63.0823	14.519	3.08378	14.8429	-11.9912	20.0359	3.88403	-0.0394908	818.142	35.315	1	10	0.00467093	0.000314692	0	-0.00018442	0.000305796	5.30894e-06	-4.57426	0.0168703	0.0168165	0.00134542	-11.9828	14.8596	14.5358	3.08513	0.0659022	0.0139974	0.0673723	11.9912	35315	166270	169979	-78.0088	0.0000000E+000	0.0000000E+000	0.0000000E+000	78.0088	0.0000000E+000	0.0000000E+000	0.0000000E+000	-78.0088	0.0000000E+000	0.0000000E+000	0.0000000E+000	-11.9912	0.0000000E+000	0.0000000E+000	0.0000000E+000	11.9912	4.70818	78.0088	-4.81845e-06	-0.000153384	-1.20761e-08	-0.000153371	3.88373	98352.8	7.74347	98345.1
39.8089	15.1743	2.32352	15.3512	-8.70562	20.9368	3.88403	-0.0397553	1720.65	39.4187	1	10	0.00465811	0.000303436	0	-0.00019343	-9.51117e-05	1.17796e-05	91.848	0.0388206	-0.0012519	-0.0388004	-8.56311	15.3441	15.1731	2.28472	0.064391	0.00985967	0.0651415	8.70562	39418.7	257433	260434	-81.2944	0.0000000E+000	0.0000000E+000	0.0000000E+000	81.2944	0.0000000E+000	0.0000000E+000	0.0000000E+000	-81.2944	0.0000000E+000	0.0000000E+000	0.0000000E+000	-8.70562	0.0000000E+000	0.0000000E+000	0.0000000E+000	8.70562	6.53075	81.2944	-4.56991e-06	-0.000154411	3.7812e-09	-0.000154414	3.88412	97698.4	2.39243	97700.8
25.1044	15.5861	1.71431	15.6801	-6.2767	21.8161	3.88401	-0.0400608	3698.12	44.204	1	10	0.0046645	0.000297479	0	-0.000203059	3.42479e-07	7.72933e-06	69.8833	0.0259828	0.00893635	-0.0243977	-6.18456	15.6863	15.595	1.68991	0.0633928	0.00697255	0.0637751	6.2767	44204	401893	404316	-83.7233	0.0000000E+000	0.0000000E+000	0.0000000E+000	83.7233	0.0000000E+000	0.0000000E+000	0.0000000E+000	-83.7233	0.0000000E+000	0.0000000E+000	0.0000000E+000	-6.2767	0.0000000E+000	0.0000000E+000	0.0000000E+000	6.2767	9.09178	83.7233	-4.90981e-06	-0.000155597	-1.372e-11	-0.000155597	3.88401	96953	0.008549	96953
15.8576	15.8812	1.1606	15.9236	-4.17974	22.9411	3.88405	-0.0315156	8647.71	45.9393	1	11	0.00466852	0.000293183	0	-0.000210783	0.000133978	3.22267e-05	-104.733	0.10992	-0.0279546	0.106306	-4.56905	15.9038	15.8533	1.26691	0.062633	0.00457721	0.0628	4.17974	45939.3	628617	630294	-85.8203	0.0000000E+000	0.0000000E+000	0.0000000E+000	85.8203	0.0000000E+000	0.0000000E+000	0.0000000E+000	-85.8203	0.0000000E+000	0.0000000E+000	0.0000000E+000	-4.17974	0.0000000E+000	0.0000000E+000	0.0000000E+000	4.17974	13.6836	85.8203	-3.20418e-06	-0.000122408	-4.22241e-09	-0.000122404	3.88392	123242	4.25117	123238
10.0032	16.033	0.941085	16.0606	-3.35922	23.9218	3.88406	-0.0306338	16906.4	58.048	1	11	0.00466536	0.000290485	0	-0.000219592	0.000267614	6.05776e-06	-87.3535	0.020854	0.000962901	0.0208317	-3.4332	16.0628	16.034	0.961917	0.0621573	0.00364843	0.0622642	3.35922	58048	988947	990649	-86.6408	0.0000000E+000	0.0000000E+000	0.0000000E+000	86.6408	0.0000000E+000	0.0000000E+000	0.0000000E+000	-86.6408	0.0000000E+000	0.0000000E+000	0.0000000E+000	-3.35922	0.0000000E+000	0.0000000E+000	0.0000000E+000	3.35922	17.0367	86.6408	-2.74642e-06	-0.000118984	-8.19805e-09	-0.000118975	3.88379	126790	8.7359	126781
6.31058	16.1823	0.792656	16.2017	-2.80428	24.8453	3.88405	-0.0308024	31817.5	76.1582	1	11	0.00466804	0.000288121	0	-0.000225756	0.000114888	8.88748e-06	17.4522	0.0308463	0.0294264	-0.00925112	-2.76658	16.2306	16.2117	0.783405	0.0616482	0.00301972	0.0617221	2.80428	76158.3	1.55479e+06	1.55665e+06	-87.1957	0.0000000E+000	0.0000000E+000	0.0000000E+000	87.1957	0.0000000E+000	0.0000000E+000	0.0000000E+000	-87.1957	0.0000000E+000	0.0000000E+000	0.0000000E+000	-2.80428	0.0000000E+000	0.0000000E+000	0.0000000E+000	2.80428	20.4152	87.1957	-3.55492e-07	-0.000119638	-3.53881e-09	-0.000119634	3.88393	126096	3.72983	126092
3.97785	16.2854	0.704557	16.3006	-2.47725	25.8513	3.88407	-0.028997	56787.8	106.091	1	11	0.0046616	0.000285977	0	-0.000238556	0.000114888	1.07115e-06	-57.9851	0.00374558	0.00198568	0.00317592	-2.4881	16.3028	16.2874	0.707733	0.06129	0.00265159	0.0613473	2.47725	106091	2.45223e+06	2.45452e+06	-87.5228	0.0000000E+000	0.0000000E+000	0.0000000E+000	87.5228	0.0000000E+000	0.0000000E+000	0.0000000E+000	-87.5228	0.0000000E+000	0.0000000E+000	0.0000000E+000	-2.47725	0.0000000E+000	0.0000000E+000	0.0000000E+000	2.47725	23.1144	87.5228	-7.30809e-06	-0.000112626	-3.3314e-09	-0.000112623	3.88395	133947	3.96205	133943
2.51367	16.4025	0.713294	16.418	-2.49004	27.4109	3.88406	-0.0288008	88765.2	167.547	1	11	0.00466325	0.000284032	0	-0.00024494	0.000191251	6.66624e-06	45.33	0.02347	0.0165	-0.0166911	-2.4294	16.4338	16.419	0.696603	0.0608511	0.00264622	0.0609086	2.49004	167547	3.85283e+06	3.85647e+06	-87.51	0.0000000E+000	0.0000000E+000	0.0000000E+000	87.51	0.0000000E+000	0.0000000E+000	0.0000000E+000	-87.51	0.0000000E+000	0.0000000E+000	0.0000000E+000	-2.49004	0.0000000E+000	0.0000000E+000	0.0000000E+000	2.49004	22.9955	87.51	-2.24612e-06	-0.000111864	-5.50817e-09	-0.000111859	3.88387	134860	6.64048	134853
1.58469	16.5575	0.773234	16.5756	-2.67376	29.8466	3.88406	-0.0276226	129887	282.65	1	11	0.00466455	0.000281411	0	-0.000264453	0.000343978	2.42569e-06	44.7113	0.00861973	0.0061257	-0.00606429	-2.65184	16.5814	16.5637	0.76717	0.060264	0.00281431	0.0603297	2.67376	282651	6.0525e+06	6.0591e+06	-87.3262	0.0000000E+000	0.0000000E+000	0.0000000E+000	87.3262	0.0000000E+000	0.0000000E+000	0.0000000E+000	-87.3262	0.0000000E+000	0.0000000E+000	0.0000000E+000	-2.67376	0.0000000E+000	0.0000000E+000	0.0000000E+000	2.67376	21.4134	87.3262	-1.34807e-05	-0.000107288	-9.50156e-09	-0.000107278	3.88372	140612	12.4528	140599
1.00469	16.7488	0.87678	16.7718	-2.99663	240.666	3.88403	-0.0215612	180674	493.764	1	11	0.00497821	0.000296821	0	-0.00273829	-0.000190566	1.28306e-07	153.098	0.000432267	-0.000385488	-0.000195585	-2.99603	16.7714	16.7485	0.876585	0.0595425	0.00311697	0.059624	2.99663	493764	9.4322e+06	9.44512e+06	-87.0034	0.0000000E+000	0.0000000E+000	0.0000000E+000	87.0034	0.0000000E+000	0.0000000E+000	0.0000000E+000	-87.0034	0.0000000E+000	0.0000000E+000	0.0000000E+000	-2.99663	0.0000000E+000	0.0000000E+000	0.0000000E+000	2.99663	19.1027	87.0034	-0.00245342	-8.37444e-05	4.10884e-09	-8.37485e-05	3.88422	180139	8.83836	180148
0.632957	16.9728	1.05645	17.0057	-3.5617	240.666	3.88403	-0.0215612	238011	918.558	1	11	0.0049905	0.000293461	0	-0.00273829	-0.000190566	4.01091e-07	-137.464	0.00136676	-0.0010071	0.000923999	-3.56502	17.0047	16.9718	1.05737	0.0586903	0.00365309	0.0588039	3.5617	918558	1.47575e+07	1.4786e+07	-86.4383	0.0000000E+000	0.0000000E+000	0.0000000E+000	86.4383	0.0000000E+000	0.0000000E+000	0.0000000E+000	-86.4383	0.0000000E+000	0.0000000E+000	0.0000000E+000	-3.5617	0.0000000E+000	0.0000000E+000	0.0000000E+000	3.5617	16.0659	86.4383	0.000000000000000E+000	-8.37444e-05	4.10884e-09	-8.37485e-05	3.88422	180139	8.83836	180148
0.401878	17.1816	1.31366	17.2318	-4.37217	240.666	3.88403	-0.0215612	301470	1752.06	1	11	0.00500448	0.000290422	0	-0.00273829	-0.000190566	2.41944e-07	-3.82683	0.000833077	0.000831219	5.56004e-05	-4.37214	17.2326	17.1824	1.31371	0.0578635	0.00442408	0.0580324	4.37217	1.75206e+06	2.29156e+07	2.29825e+07	-85.6278	0.0000000E+000	0.0000000E+000	0.0000000E+000	85.6278	0.0000000E+000	0.0000000E+000	0.0000000E+000	-85.6278	0.0000000E+000	0.0000000E+000	0.0000000E+000	-4.37217	0.0000000E+000	0.0000000E+000	0.0000000E+000	4.37217	13.0792	85.6278	0.000000000000000E+000	-8.37444e-05	4.10884e-09	-8.37485e-05	3.88422	180139	8.83836	180148
0.251173	17.5924	1.6415	17.6688	-5.33066	240.666	3.88403	-0.0215612	386017	3331.73	1	11	0.0050045	0.000283239	0	-0.00273829	-0.000190566	4.53399e-07	137.397	0.00160077	-0.00117826	-0.00108358	-5.32752	17.6676	17.5913	1.64041	0.056352	0.00525803	0.0565968	5.33066	3.33173e+06	3.57072e+07	3.58623e+07	-84.6693	0.0000000E+000	0.0000000E+000	0.0000000E+000	84.6693	0.0000000E+000	0.0000000E+000	0.0000000E+000	-84.6693	0.0000000E+000	0.0000000E+000	0.0000000E+000	-5.33066	0.0000000E+000	0.0000000E+000	0.0000000E+000	5.33066	10.7173	84.6693	0.000000000000000E+000	-8.37444e-05	4.10884e-09	-8.37485e-05	3.88422	180139	8.83836	180148
0.160751	18.0082	1.92417	18.1107	-6.09891	240.666	3.88403	-0.0215612	514544	5808.18	1	11	0.00500112	0.000276142	0	-0.00273829	-0.000190566	4.56362e-07	33.8062	0.00165264	0.00137322	-0.000919502	-6.09555	18.112	18.0096	1.92325	0.0549035	0.00586643	0.055216	6.09891	5.80818e+06	5.43583e+07	5.46678e+07	-83.9011	0.0000000E+000	0.0000000E+000	0.0000000E+000	83.9011	0.0000000E+000	0.0000000E+000	0.0000000E+000	-83.9011	0.0000000E+000	0.0000000E+000	0.0000000E+000	-6.09891	0.0000000E+000	0.0000000E+000	0.0000000E+000	6.09891	9.35893	83.9011	0.000000000000000E+000	-8.37444e-05	4.10884e-09	-8.37485e-05	3.88422	180139	8.83836	180148
0.100469	18.5272	2.58384	18.7065	-7.93936	240.667	3.88403	-0.0215612	613086	11696.7	1	11	0.00500316	0.000267455	0	-0.00273829	-0.000190566	2.57299e-07	44.5988	0.000962027	0.000685003	-0.000675475	-7.93702	18.7071	18.5279	2.58316	0.0529449	0.00738378	0.0534572	7.93936	1.16967e+07	8.38707e+07	8.46824e+07	-82.0606	0.0000000E+000	0.0000000E+000	0.0000000E+000	82.0606	0.0000000E+000	0.0000000E+000	0.0000000E+000	-82.0606	0.0000000E+000	0.0000000E+000	0.0000000E+000	-7.93936	0.0000000E+000	0.0000000E+000	0.0000000E+000	7.93936	7.17043	82.0606	0.000000000000000E+000	-8.37444e-05	4.10884e-09	-8.37485e-05	3.88422	180139	8.83836	180148
0.0602816	19.3944	3.03763	19.6309	-8.90157	240.667	3.88403	-0.0215612	869161	20810.9	1	11	0.00499937	0.000254669	0	-0.00273829	-0.000190566	6.17651e-07	-4.87159	0.00242531	0.00241655	0.000205964	-8.90107	19.6333	19.3968	3.03784	0.0503266	0.00788235	0.0509402	8.90157	2.08109e+07	1.32872e+08	1.34492e+08	-81.0984	0.0000000E+000	0.0000000E+000	0.0000000E+000	81.0984	0.0000000E+000	0.0000000E+000	0.0000000E+000	-81.0984	0.0000000E+000	0.0000000E+000	0.0000000E+000	-8.90157	0.0000000E+000	0.0000000E+000	0.0000000E+000	8.90157	6.38472	81.0984	0.000000000000000E+000	-8.37444e-05	4.10884e-09	-8.37485e-05	3.88422	180139	8.83836	180148
0.0401878	20.4286	3.46344	20.7201	-9.62237	240.667	3.88403	-0.0215612	1.14345e+06	31948.5	1	11	0.0049991	0.000241268	0	-0.00273829	-0.000190566	7.68661e-07	-66.2769	0.00318592	0.00128175	0.00291671	-9.62973	20.7219	20.4299	3.46636	0.0475833	0.00806721	0.0482623	9.62237	3.19485e+07	1.88443e+08	1.91132e+08	-80.3776	0.0000000E+000	0.0000000E+000	0.0000000E+000	80.3776	0.0000000E+000	0.0000000E+000	0.0000000E+000	-80.3776	0.0000000E+000	0.0000000E+000	0.0000000E+000	-9.62237	0.0000000E+000	0.0000000E+000	0.0000000E+000	9.62237	5.89835	80.3776	0.000000000000000E+000	-8.37444e-05	4.10884e-09	-8.37485e-05	3.88422	180139	8.83836	180148
0.0200939	22.2458	4.64394	22.7253	-11.7915	240.667	3.88403	-0.0215612	1.70557e+06	71223.2	1	11	0.0049992	0.000219983	0	-0.00273829	-0.000190566	8.85311e-07	-9.44981	0.00402445	0.00396984	0.000660749	-11.7911	22.7294	22.2498	4.6446	0.0430751	0.00899218	0.0440037	11.7915	7.12232e+07	3.4118e+08	3.48535e+08	-78.2085	0.0000000E+000	0.0000000E+000	0.0000000E+000	78.2085	0.0000000E+000	0.0000000E+000	0.0000000E+000	-78.2085	0.0000000E+000	0.0000000E+000	0.0000000E+000	-11.7915	0.0000000E+000	0.0000000E+000	0.0000000E+000	11.7915	4.79029	78.2085	0.000000000000000E+000	-8.37444e-05	4.10884e-09	-8.37485e-05	3.88422	180139	8.83836	180148
0.00796479	24.7493	5.08325	25.2659	-11.6065	20329.6	3.88407	-0.000635536	3.93101e+06	159117	1	11	0.00499423	0.000197667	0	-0.0232119	-0.000190566	1.49887e-07	-116.468	0.000758283	-0.000337969	0.0006788	-11.6082	25.2658	24.749	5.08393	0.0387697	0.00796289	0.039579	11.6065	1.59117e+08	7.74708e+08	7.9088e+08	-78.3935	0.0000000E+000	0.0000000E+000	0.0000000E+000	78.3935	0.0000000E+000	0.0000000E+000	0.0000000E+000	-78.3935	0.0000000E+000	0.0000000E+000	0.0000000E+000	-11.6065	0.0000000E+000	0.0000000E+000	0.0000000E+000	11.6065	4.8688	78.3935	-0.0204736	-2.46847e-06	1.21112e-10	-2.46859e-06	3.88426	6.11149e+06	299.851	6.11179e+06
0.00497799	26.3247	5.38459	26.8697	-11.5601	20329.6	3.88407	-0.000635536	5.93763e+06	238447	1	11	0.00500192	0.000186154	0	-0.0232119	-0.000190566	4.09945e-07	-141.116	0.00220218	-0.00171421	0.00138241	-11.5637	26.8683	26.323	5.38597	0.0364617	0.00745806	0.0372166	11.5601	2.38447e+08	1.16574e+09	1.18988e+09	-78.4399	0.0000000E+000	0.0000000E+000	0.0000000E+000	78.4399	0.0000000E+000	0.0000000E+000	0.0000000E+000	-78.4399	0.0000000E+000	0.0000000E+000	0.0000000E+000	-11.5601	0.0000000E+000	0.0000000E+000	0.0000000E+000	11.5601	4.88889	78.4399	0.000000000000000E+000	-2.46847e-06	1.21112e-10	-2.46859e-06	3.88426	6.11149e+06	299.851	6.11179e+06
0.00318591	27.3214	6.93549	28.1879	-14.2436	20329.6	3.88407	-0.000635536	7.20293e+06	436051	1	11	0.0050036	0.000177509	0	-0.0232119	-0.000190566	3.11165e-07	-156.374	0.00175295	-0.00160602	0.000702532	-14.2458	28.1865	27.3197	6.93619	0.0343856	0.00872874	0.0354762	14.2436	4.36051e+08	1.71776e+09	1.77224e+09	-75.7564	0.0000000E+000	0.0000000E+000	0.0000000E+000	75.7564	0.0000000E+000	0.0000000E+000	0.0000000E+000	-75.7564	0.0000000E+000	0.0000000E+000	0.0000000E+000	-14.2436	0.0000000E+000	0.0000000E+000	0.0000000E+000	14.2436	3.93936	75.7564	0.000000000000000E+000	-2.46847e-06	1.21112e-10	-2.46859e-06	3.88426	6.11149e+06	299.851	6.11179e+06
0.0019912	28.4021	8.37945	29.6124	-16.4376	20329.6	3.88407	-0.000635536	9.53873e+06	763789	1	11	0.00500539	0.00016903	0	-0.0232119	-0.000190566	6.47315e-07	-31.9153	0.00382958	0.00325067	0.00202457	-16.4396	29.6161	28.4054	8.38147	0.0323894	0.00955581	0.0337696	16.4376	7.63789e+08	2.58886e+09	2.69918e+09	-73.5624	0.0000000E+000	0.0000000E+000	0.0000000E+000	73.5624	0.0000000E+000	0.0000000E+000	0.0000000E+000	-73.5624	0.0000000E+000	0.0000000E+000	0.0000000E+000	-16.4376	0.0000000E+000	0.0000000E+000	0.0000000E+000	16.4376	3.3895	73.5624	0.000000000000000E+000	-2.46847e-06	1.21112e-10	-2.46859e-06	3.88426	6.11149e+06	299.851	6.11179e+06
0.00129428	28.5264	10.478	30.3899	-20.1687	20329.6	3.88407	-0.000635536	1.17358e+07	1.39512e+06	1	11	0.00500855	0.00016481	0	-0.0232119	-0.000190566	3.4471e-07	-103.248	0.00209156	-0.000479319	0.0020359	-20.1726	30.3901	28.5259	10.48	0.030888	0.0113454	0.0329057	20.1687	1.39512e+09	3.79823e+09	4.04635e+09	-69.8313	0.0000000E+000	0.0000000E+000	0.0000000E+000	69.8313	0.0000000E+000	0.0000000E+000	0.0000000E+000	-69.8313	0.0000000E+000	0.0000000E+000	0.0000000E+000	-20.1687	0.0000000E+000	0.0000000E+000	0.0000000E+000	20.1687	2.72251	69.8313	0.000000000000000E+000	-2.46847e-06	1.21112e-10	-2.46859e-06	3.88426	6.11149e+06	299.851	6.11179e+06
0.000796479	30.6445	14.393	33.8562	-25.1583	20329.6	3.88407	-0.000635536	1.38834e+07	2.50911e+06	1	11	0.00500361	0.00014779	0	-0.0232119	-0.000190566	1.42087e-06	-29.5964	0.00961414	0.00835975	0.0047483	-25.1596	33.8658	30.6529	14.3977	0.0267347	0.0125566	0.0295367	25.1583	2.50911e+09	5.34222e+09	5.90211e+09	-64.8417	0.0000000E+000	0.0000000E+000	0.0000000E+000	64.8417	0.0000000E+000	0.0000000E+000	0.0000000E+000	-64.8417	0.0000000E+000	0.0000000E+000	0.0000000E+000	-25.1583	0.0000000E+000	0.0000000E+000	0.0000000E+000	25.1583	2.12913	64.8417	0.000000000000000E+000	-2.46847e-06	1.21112e-10	-2.46859e-06	3.88426	6.11149e+06	299.851	6.11179e+06
0.000497799	30.6372	20.2995	36.752	-33.5276	20329.6	3.88407	-0.000635536	1.575e+07	4.80497e+06	1	11	0.00500578	0.000136204	0	-0.0232119	-0.000190566	1.71647e-06	-26.6598	0.0126022	0.0112624	0.0056545	-33.5253	36.7645	30.6484	20.3052	0.0226823	0.0150288	0.0272094	33.5276	4.80497e+09	7.25193e+09	8.69932e+09	-56.4724	0.0000000E+000	0.0000000E+000	0.0000000E+000	56.4724	0.0000000E+000	0.0000000E+000	0.0000000E+000	-56.4724	0.0000000E+000	0.0000000E+000	0.0000000E+000	-33.5276	0.0000000E+000	0.0000000E+000	0.0000000E+000	33.5276	1.50925	56.4724	0.000000000000000E+000	-2.46847e-06	1.21112e-10	-2.46859e-06	3.88426	6.11149e+06	299.851	6.11179e+06
0.000298679	29.9523	31.8175	43.6977	-46.7296	20329.6	3.88407	-0.000635536	1.67475e+07	8.87898e+06	1	11	0.00500835	0.000114614	0	-0.0232119	-0.000190566	2.84691e-06	81.6926	0.0248392	0.00358888	-0.0245785	-46.704	43.6823	29.9559	31.7929	0.015686	0.0166628	0.0228845	46.7296	8.87897e+09	8.35848e+09	1.21943e+10	-43.2704	0.0000000E+000	0.0000000E+000	0.0000000E+000	43.2704	0.0000000E+000	0.0000000E+000	0.0000000E+000	-43.2704	0.0000000E+000	0.0000000E+000	0.0000000E+000	-46.7296	0.0000000E+000	0.0000000E+000	0.0000000E+000	46.7296	0.941379	43.2704	0.000000000000000E+000	-2.46847e-06	1.21112e-10	-2.46859e-06	3.88426	6.11149e+06	299.851	6.11179e+06
9.95598e-05	37.231	115.091	120.963	-72.074	20329.6	3.88407	-0.000635536	1.38898e+07	1.2574e+07	1	11	0.00501458	4.14556e-05	0	-0.0232119	-0.000190566	3.50727e-06	-6.92029	0.084603	0.0839867	0.0101937	-72.0376	120.998	37.3149	115.101	0.00254449	0.00786569	0.00826701	72.074	1.2574e+10	4.06759e+09	1.32155e+10	-17.926	0.0000000E+000	0.0000000E+000	0.0000000E+000	17.926	0.0000000E+000	0.0000000E+000	0.0000000E+000	-17.926	0.0000000E+000	0.0000000E+000	0.0000000E+000	-72.074	0.0000000E+000	0.0000000E+000	0.0000000E+000	72.074	0.323493	17.926	0.000000000000000E+000	-2.46847e-06	1.21112e-10	-2.46859e-06	3.88426	6.11149e+06	299.851	6.11179e+06