File: txt/18606_R301_UA696_SOC00_C01.mpt
EC-Lab ASCII FILE
Nb header lines : 65

Potentio Electrochemical Impedance Spectroscopy

Run on channel : 1 (SN 66354)
User :
CE vs. WE compliance from -10 V to 10 V
Electrode connection : standard
Potential control : Ewe
Ewe ctrl range : min = -10.00 V, max = 10.00 V
Safety Limits :
	Do not start on E overload
Acquisition started on : 10/27/2025 16:34:52.191
Technique started on : 10/27/2025 16:34:54.103
Loaded Setting File :  C:\Users\Celltest\OneDrive - store-dot.com\Documents\EC-Lab\Data\@Biologic Test Protocols\anode half cell EIS SOC00.mps
Saved on :
	File : 18606_R301_UA696_SOC00_C01.mpr
	Directory : C:\Users\Celltest\OneDrive - store-dot.com\Documents\EC-Lab\Data\Gyutae\
	Host : 169.254.61.224
Device : VMP-3e (SN .003165)
Address : USB
EC-LAB for windows v11.62 (software)
Internet server v27.00 (firmware)
Command interpretor v12.03 (firmware)
Electrode material :
Initial state :
Electrolyte :
Comments :
Electrode surface area : 0.001 cm²
Characteristic mass : 0.001 g
Equivalent Weight : 0.000 g/eq.
Density : 0.000 g/cm3
Volume (V) : 0.001 cm³
Record Ece
Cycle Definition : Charge/Discharge alternance
Mode                Single sine
E (V)               0.0000
vs.                 Eoc
tE (h:m:s)          0:00:0.0000
record              0
dI                  0.000
unit dI             mA
dt (s)              0.000
fi                  100.000
unit fi             kHz
ff                  10.000
unit ff             mHz
Nd                  6
Points              per decade
spacing             Logarithmic
Va (mV)             5.0
pw                  0.10
Na                  2
corr                0
E range min (V)     -10.000
E range max (V)     10.000
I Range             Auto
Bandwidth           5
nc cycles           0
goto Ns'            0
nr cycles           0
inc. cycle          0

freq/Hz	Re(Z)/Ohm	-Im(Z)/Ohm	|Z|/Ohm	Phase(Z)/deg	time/s	<Ewe>/V	<I>/mA	Cs/µF	Cp/µF	cycle number	I Range	|Ewe|/V	|I|/A	Ns	(Q-Qo)/mA.h	<Ece>/V	|Ece|/V	Phase(Zce)/deg	|Zce|/Ohm	Re(Zce)/Ohm	-Im(Zce)/Ohm	Phase(Zwe-ce)/deg	|Zwe-ce|/Ohm	Re(Zwe-ce)/Ohm	-Im(Zwe-ce)/Ohm	Re(Y)/Ohm-1	Im(Y)/Ohm-1	|Y|/Ohm-1	Phase(Y)/deg	Re(C)/nF	Im(C)/nF	|C|/nF	Phase(C)/deg	Re(M)	Im(M)	|M|	Phase(M)/deg	Re(Permittivity)	Im(Permittivity)	|Permittivity|	Phase(Permittivity)/deg	Re(Resistivity)/Ohm.cm	Im(Resistivity)/Ohm.cm	|Resistivity|/Ohm.cm	Phase(Resistivity)/deg	Re(Conductivity)/mS/cm	Im(Conductivity)/mS/cm	|Conductivity|/mS/cm	Phase(Conductivity)/deg	Tan(Delta)	Loss Angle(Delta)/deg	dq/mA.h	Pwe/W	Pce/W	Pwe-ce/W	<Ewe-Ece>/V	Rwe/Ohm	Rce/Ohm	Rwe-ce/Ohm		Ewe-Ece/V
100004	1.18308	0.484595	1.27848	-22.2742	1.91153	0.223165	0.056622	3.28417	0.471839	1	9	0.00481282	0.00376448	0	1.52274e-05	-0.000112124	3.91641e-05	100.205	0.0104036	-0.00184318	-0.010239	-21.8792	1.27293	1.18124	0.474356	0.723812	0.296476	0.782178	22.2742	471.839	1151.94	1244.83	-67.7258	0.0000000E+000	0.0000000E+000	0.0000000E+000	67.7258	0.0000000E+000	0.0000000E+000	0.0000000E+000	-67.7258	0.0000000E+000	0.0000000E+000	0.0000000E+000	-22.2742	0.0000000E+000	0.0000000E+000	0.0000000E+000	22.2742	2.44138	67.7258	1.52274e-05	1.26361e-05	-6.3487e-09	1.26424e-05	0.223277	3941.31	1.98022	3943.29
68132	1.31525	0.545113	1.42374	-22.5118	2.41853	0.223163	0.0605337	4.28531	0.628194	1	9	0.0050456	0.0035439	0	2.85028e-05	2.33964e-06	3.59115e-05	89.7316	0.0101333	4.74659e-05	-0.0101332	-22.1334	1.41994	1.3153	0.53498	0.648855	0.268921	0.702375	22.5118	628.195	1515.71	1640.73	-67.4882	0.0000000E+000	0.0000000E+000	0.0000000E+000	67.4882	0.0000000E+000	0.0000000E+000	0.0000000E+000	-67.4882	0.0000000E+000	0.0000000E+000	0.0000000E+000	-22.5118	0.0000000E+000	0.0000000E+000	0.0000000E+000	22.5118	2.4128	67.4882	1.32754e-05	1.35089e-05	1.41627e-10	1.35088e-05	0.223161	3686.6	0.0386502	3686.56
46420.4	1.46402	0.593425	1.57972	-22.0647	2.92752	0.223153	0.0649297	5.77757	0.815305	1	9	0.00502863	0.00318325	0	5.32854e-05	0.000193113	2.26782e-05	59.261	0.00712421	0.00364139	-0.00612329	-21.8094	1.58081	1.46766	0.587302	0.586663	0.237798	0.633025	22.0647	815.305	2011.41	2170.36	-67.9353	0.0000000E+000	0.0000000E+000	0.0000000E+000	67.9353	0.0000000E+000	0.0000000E+000	0.0000000E+000	-67.9353	0.0000000E+000	0.0000000E+000	0.0000000E+000	-22.0647	0.0000000E+000	0.0000000E+000	0.0000000E+000	22.0647	2.46706	67.9353	2.47825e-05	1.44893e-05	1.25388e-08	1.44767e-05	0.22296	3436.84	2.97418	3433.86
31621.1	1.60291	0.658794	1.73302	-22.3425	3.43453	0.22316	0.0665689	7.63999	1.10405	1	9	0.00514494	0.00296878	0	5.00839e-05	0.000269422	1.42869e-05	47.1012	0.00481237	0.00327581	-0.00352533	-22.1937	1.73471	1.60619	0.655269	0.53371	0.219354	0.577029	22.3425	1104.05	2686.26	2904.29	-67.6574	0.0000000E+000	0.0000000E+000	0.0000000E+000	67.6574	0.0000000E+000	0.0000000E+000	0.0000000E+000	-67.6574	0.0000000E+000	0.0000000E+000	0.0000000E+000	-22.3425	0.0000000E+000	0.0000000E+000	0.0000000E+000	22.3425	2.4331	67.6574	-3.20148e-06	1.48555e-05	1.79351e-08	1.48376e-05	0.222891	3352.32	4.04726	3348.27
21544.7	1.76497	0.721507	1.90675	-22.2344	3.69352	0.223159	0.0613533	10.2386	1.466	1	9	0.00542842	0.00284696	0	5.38874e-05	0.000231267	8.30599e-06	-89.567	0.0029175	2.2048e-05	0.00291742	-22.3153	1.90787	1.76499	0.724424	0.485457	0.198452	0.524454	22.2344	1466	3586.17	3874.25	-67.7656	0.0000000E+000	0.0000000E+000	0.0000000E+000	67.7656	0.0000000E+000	0.0000000E+000	0.0000000E+000	-67.7656	0.0000000E+000	0.0000000E+000	0.0000000E+000	-22.2344	0.0000000E+000	0.0000000E+000	0.0000000E+000	22.2344	2.44622	67.7656	3.8035e-06	1.36916e-05	1.4189e-08	1.36774e-05	0.222928	3637.28	3.76943	3633.51
14678.6	1.9372	0.791598	2.09269	-22.2264	4.07656	0.223154	0.0637003	13.6972	1.95988	1	9	0.00481013	0.00229854	0	6.15866e-05	0.000116803	9.39318e-06	-75.2397	0.00408659	0.00104117	0.00395173	-22.3157	2.09515	1.93824	0.79555	0.442347	0.180757	0.477854	22.2264	1959.88	4796.22	5181.2	-67.7736	0.0000000E+000	0.0000000E+000	0.0000000E+000	67.7736	0.0000000E+000	0.0000000E+000	0.0000000E+000	-67.7736	0.0000000E+000	0.0000000E+000	0.0000000E+000	-22.2264	0.0000000E+000	0.0000000E+000	0.0000000E+000	22.2264	2.4472	67.7736	7.69921e-06	1.4215e-05	7.44042e-09	1.42076e-05	0.223037	3503.19	1.83364	3501.35
10002.2	2.10819	0.877096	2.28336	-22.5894	4.45952	0.223166	0.06072	18.1416	2.67683	1	9	0.00495224	0.00216883	0	6.63757e-05	0.000326654	1.41688e-05	-99.9377	0.00653292	-0.00112743	0.0064349	-22.7493	2.2848	2.10706	0.883531	0.404351	0.168228	0.43795	22.5894	2676.83	6434.02	6968.65	-67.4106	0.0000000E+000	0.0000000E+000	0.0000000E+000	67.4106	0.0000000E+000	0.0000000E+000	0.0000000E+000	-67.4106	0.0000000E+000	0.0000000E+000	0.0000000E+000	-22.5894	0.0000000E+000	0.0000000E+000	0.0000000E+000	22.5894	2.4036	67.4106	4.78913e-06	1.35506e-05	1.98344e-08	1.35308e-05	0.222839	3675.32	5.37967	3669.94
6810.42	2.32137	0.987046	2.5225	-23.0352	4.71853	0.223168	0.0668669	23.676	3.62512	1	9	0.00477345	0.00189235	0	6.94987e-05	0.000288499	0.000178254	-36.5529	0.0941973	0.0756693	0.0561006	-23.5178	2.61418	2.39703	1.04315	0.364823	0.155123	0.396432	23.0352	3625.12	8525.66	9264.36	-66.9648	0.0000000E+000	0.0000000E+000	0.0000000E+000	66.9648	0.0000000E+000	0.0000000E+000	0.0000000E+000	-66.9648	0.0000000E+000	0.0000000E+000	0.0000000E+000	-23.0352	0.0000000E+000	0.0000000E+000	0.0000000E+000	23.0352	2.35183	66.9648	3.12295e-06	1.49225e-05	1.92911e-08	1.49032e-05	0.222879	3337.49	4.31453	3333.17
4646	2.47393	1.10927	2.71124	-24.1507	4.98464	0.223135	0.0398948	30.8818	5.16943	1	9	0.00459537	0.00169493	0	7.40931e-05	-7.39696e-05	1.34319e-05	-15.9799	0.00792474	0.00761851	0.00218169	-24.127	2.71909	2.48155	1.11146	0.336551	0.150904	0.368834	24.1507	5169.43	11529	12634.9	-65.8493	0.0000000E+000	0.0000000E+000	0.0000000E+000	65.8493	0.0000000E+000	0.0000000E+000	0.0000000E+000	-65.8493	0.0000000E+000	0.0000000E+000	0.0000000E+000	-24.1507	0.0000000E+000	0.0000000E+000	0.0000000E+000	24.1507	2.23023	65.8493	4.59448e-06	8.90192e-06	-2.951e-09	8.90487e-06	0.223209	5593.08	1.85412	5594.93
3163.08	2.6932	1.31179	2.99568	-25.9695	5.35763	0.222924	0.0130344	38.3571	7.355	1	9	0.00452242	0.00150964	0	7.46349e-05	-0.000188433	4.06878e-06	36.521	0.00269519	0.00216596	-0.00160395	-25.9238	2.99693	2.69537	1.31019	0.300107	0.146175	0.333814	25.9695	7355	15100.3	16796.3	-64.0305	0.0000000E+000	0.0000000E+000	0.0000000E+000	64.0305	0.0000000E+000	0.0000000E+000	0.0000000E+000	-64.0305	0.0000000E+000	0.0000000E+000	0.0000000E+000	-25.9695	0.0000000E+000	0.0000000E+000	0.0000000E+000	25.9695	2.05307	64.0305	5.4177e-07	2.90568e-06	-2.45612e-09	2.90814e-06	0.223112	17102.7	14.4566	17117.1
2155.69	2.89478	1.55273	3.28492	-28.2087	6.0228	0.223142	0.133813	47.5485	10.6238	1	9	0.00496989	0.00151294	0	0.000100111	4.04943e-05	1.06198e-05	-21.1143	0.00701935	0.0065481	0.00252858	-28.1937	3.29189	2.90132	1.55526	0.268265	0.143895	0.304421	28.2087	10623.8	19806.1	22475.5	-61.7913	0.0000000E+000	0.0000000E+000	0.0000000E+000	61.7913	0.0000000E+000	0.0000000E+000	0.0000000E+000	-61.7913	0.0000000E+000	0.0000000E+000	0.0000000E+000	-28.2087	0.0000000E+000	0.0000000E+000	0.0000000E+000	28.2087	1.86431	61.7913	2.54763e-05	2.98593e-05	5.41866e-09	2.98539e-05	0.223102	1667.57	0.302618	1667.26
1468.59	3.178	1.93267	3.71953	-31.3056	6.7201	0.22308	-0.0147628	56.0739	15.1392	1	10	0.00513764	0.00138126	0	0.000105654	0.000231267	6.43085e-06	-111.052	0.00465579	-0.00167244	0.00434503	-31.3761	3.72036	3.17632	1.93702	0.229709	0.139696	0.268851	31.3056	15139.2	24894.1	29136.1	-58.6944	0.0000000E+000	0.0000000E+000	0.0000000E+000	58.6944	0.0000000E+000	0.0000000E+000	0.0000000E+000	-58.6944	0.0000000E+000	0.0000000E+000	0.0000000E+000	-31.3056	0.0000000E+000	0.0000000E+000	0.0000000E+000	31.3056	1.64435	58.6944	5.54262e-06	-3.29329e-06	-3.41416e-09	-3.28987e-06	0.222848	15110.9	15.6655	15095.2
1000.32	3.4928	2.43548	4.25807	-34.8875	7.17085	0.223079	-0.0160486	65.3277	21.3717	1	10	0.0050637	0.0011892	0	0.0001034	-7.39696e-05	6.88093e-06	48.4106	0.00578619	0.0038408	-0.00432761	-34.8102	4.25875	3.49664	2.43115	0.19264	0.134325	0.234848	34.8875	21371.7	30649.9	37365.3	-55.1125	0.0000000E+000	0.0000000E+000	0.0000000E+000	55.1125	0.0000000E+000	0.0000000E+000	0.0000000E+000	-55.1125	0.0000000E+000	0.0000000E+000	0.0000000E+000	-34.8875	0.0000000E+000	0.0000000E+000	0.0000000E+000	34.8875	1.43413	55.1125	-2.25403e-06	-3.58012e-06	1.18711e-09	-3.58131e-06	0.223153	13900.2	4.60909	13904.8
681.09	3.9174	3.13426	5.01693	-38.6628	7.6196	0.223091	-0.0154896	74.5557	29.0987	1	10	0.00501218	0.000999053	0	0.000102417	5.95716e-05	5.38308e-06	61.4265	0.00538818	0.00257709	-0.00473193	-38.6022	5.01599	3.91998	3.12953	0.15564	0.124526	0.199325	38.6628	29098.7	36369.5	46577.7	-51.3372	0.0000000E+000	0.0000000E+000	0.0000000E+000	51.3372	0.0000000E+000	0.0000000E+000	0.0000000E+000	-51.3372	0.0000000E+000	0.0000000E+000	0.0000000E+000	-38.6628	0.0000000E+000	0.0000000E+000	0.0000000E+000	38.6628	1.24987	51.3372	-9.82873e-07	-3.45558e-06	-9.2274e-10	-3.45466e-06	0.223031	14402.6	3.84591	14398.8
463.961	4.5228	4.04891	6.07037	-41.8356	8.07232	0.223085	-0.0159182	84.7228	37.6918	1	10	0.00497986	0.000820354	0	0.000100886	0.000154958	8.38385e-06	-20.3027	0.0102198	0.00958487	0.00354607	-41.8003	6.07988	4.53239	4.05246	0.122737	0.109877	0.164734	41.8356	37691.8	42103.2	56509.8	-48.1644	0.0000000E+000	0.0000000E+000	0.0000000E+000	48.1644	0.0000000E+000	0.0000000E+000	0.0000000E+000	-48.1644	0.0000000E+000	0.0000000E+000	0.0000000E+000	-41.8356	0.0000000E+000	0.0000000E+000	0.0000000E+000	41.8356	1.11704	48.1644	-1.53074e-06	-3.55112e-06	-2.46665e-09	-3.54865e-06	0.22293	14014.5	9.73465	14004.7
316.316	5.42903	5.19966	7.51737	-43.7638	8.52	0.223081	-0.0164661	96.7663	46.2959	1	10	0.00496279	0.000660177	0	9.869e-05	0.000326654	8.02462e-06	-19.5743	0.0121552	0.0114528	0.00407236	-43.7258	7.52846	5.44048	5.20373	0.0960706	0.0920118	0.133025	43.7638	46295.9	48338.1	66931.9	-46.2362	0.0000000E+000	0.0000000E+000	0.0000000E+000	46.2362	0.0000000E+000	0.0000000E+000	0.0000000E+000	-46.2362	0.0000000E+000	0.0000000E+000	0.0000000E+000	-43.7638	0.0000000E+000	0.0000000E+000	0.0000000E+000	43.7638	1.04411	46.2362	-2.19613e-06	-3.67327e-06	-5.3787e-09	-3.66789e-06	0.222754	13547.9	19.838	13528.1
215.345	6.79143	6.53114	9.42228	-43.8807	8.9706	0.223095	-0.0159704	113.161	54.3705	1	10	0.00495247	0.000525613	0	9.62607e-05	4.04943e-05	6.95256e-06	40.9469	0.0132275	0.00999099	-0.00866878	-43.8006	9.42348	6.80142	6.52247	0.0764979	0.073566	0.106131	43.8807	54370.5	56537.4	78438.7	-46.1193	0.0000000E+000	0.0000000E+000	0.0000000E+000	46.1193	0.0000000E+000	0.0000000E+000	0.0000000E+000	-46.1193	0.0000000E+000	0.0000000E+000	0.0000000E+000	-43.8807	0.0000000E+000	0.0000000E+000	0.0000000E+000	43.8807	1.03985	46.1193	-2.42936e-06	-3.56291e-06	-6.46709e-10	-3.56226e-06	0.223054	13969.3	2.53558	13966.7
146.737	8.73884	7.88065	11.7674	-42.044	9.41647	0.223078	-0.0166748	137.631	61.7276	1	10	0.00494178	0.000419955	0	9.3684e-05	0.000231267	6.9331e-06	-49.457	0.0165092	0.0107313	0.0125456	-42.0544	11.7838	8.74957	7.89319	0.0631091	0.0569115	0.0849805	42.044	61727.6	68449.7	92171.9	-47.956	0.0000000E+000	0.0000000E+000	0.0000000E+000	47.956	0.0000000E+000	0.0000000E+000	0.0000000E+000	-47.956	0.0000000E+000	0.0000000E+000	0.0000000E+000	-42.044	0.0000000E+000	0.0000000E+000	0.0000000E+000	42.044	1.1089	47.956	-2.57666e-06	-3.71978e-06	-3.85633e-09	-3.71592e-06	0.222847	13378.2	13.8693	13364.3
100.032	11.2987	9.01347	14.4535	-38.581	9.86784	0.223089	-0.0159368	176.518	68.6483	1	10	0.00493791	0.000341642	0	9.22583e-05	0.000231267	1.3173e-05	-51.9482	0.0385577	0.023766	0.0303625	-38.6162	14.491	11.3224	9.04383	0.0540858	0.0431468	0.0691876	38.581	68648.3	86052.8	110080	-51.419	0.0000000E+000	0.0000000E+000	0.0000000E+000	51.419	0.0000000E+000	0.0000000E+000	0.0000000E+000	-51.419	0.0000000E+000	0.0000000E+000	0.0000000E+000	-38.581	0.0000000E+000	0.0000000E+000	0.0000000E+000	38.581	1.25353	51.419	-1.42572e-06	-3.55533e-06	-3.68567e-09	-3.55165e-06	0.222858	13998.3	14.5115	13983.8
68.104	14.2899	9.55925	17.1924	-33.7807	10.3304	0.223089	-0.0131752	244.469	75.5783	1	10	0.00492858	0.000286672	0	9.09416e-05	2.1417e-05	7.62838e-06	-25.1501	0.0266102	0.0240874	0.0113091	-33.7674	17.2187	14.314	9.57056	0.0483453	0.0323407	0.0581652	33.7807	75578.3	112980	135928	-56.2193	0.0000000E+000	0.0000000E+000	0.0000000E+000	56.2193	0.0000000E+000	0.0000000E+000	0.0000000E+000	-56.2193	0.0000000E+000	0.0000000E+000	0.0000000E+000	-33.7807	0.0000000E+000	0.0000000E+000	0.0000000E+000	33.7807	1.49487	56.2193	-1.31668e-06	-2.93924e-06	-2.82172e-10	-2.93896e-06	0.223068	16932.5	1.62555	16930.9
46.4415	17.5266	9.36053	19.8696	-28.1056	11.0056	0.223121	-0.00590803	366.111	81.2524	1	11	0.00493459	0.000248349	0	8.93572e-05	-9.30469e-05	3.00291e-06	35.0751	0.0120915	0.00989568	-0.00694838	-28.0745	19.875	17.5365	9.35358	0.0443935	0.0237095	0.0503282	28.1056	81252.4	152136	172474	-61.8944	0.0000000E+000	0.0000000E+000	0.0000000E+000	61.8944	0.0000000E+000	0.0000000E+000	0.0000000E+000	-61.8944	0.0000000E+000	0.0000000E+000	0.0000000E+000	-28.1056	0.0000000E+000	0.0000000E+000	0.0000000E+000	28.1056	1.87239	61.8944	-1.58436e-06	-1.3182e-06	5.49724e-10	-1.31875e-06	0.223214	37765.7	15.7492	37781.4
31.6296	20.3118	8.48439	22.0126	-22.6706	11.4365	0.223116	-0.00573338	593.071	88.1057	1	11	0.00493152	0.000224032	0	8.83914e-05	7.86489e-05	5.31075e-06	59.6213	0.0237054	0.0119881	-0.0204506	-22.6095	22.0158	20.3238	8.46394	0.0419185	0.0175096	0.0454285	22.6706	88105.7	210927	228589	-67.3294	0.0000000E+000	0.0000000E+000	0.0000000E+000	67.3294	0.0000000E+000	0.0000000E+000	0.0000000E+000	-67.3294	0.0000000E+000	0.0000000E+000	0.0000000E+000	-22.6706	0.0000000E+000	0.0000000E+000	0.0000000E+000	22.6706	2.39403	67.3294	-9.65816e-07	-1.27921e-06	-4.50924e-10	-1.27876e-06	0.223037	38915.2	13.7177	38901.5
21.5517	22.4934	7.20757	23.62	-17.767	11.8575	0.223132	-0.0056265	1024.59	95.4042	1	11	0.00492735	0.000208609	0	8.77911e-05	0.000154958	1.28272e-05	-43.2681	0.0614889	0.0447734	0.0421452	-17.8311	23.6755	22.5382	7.24972	0.0403178	0.012919	0.042337	17.767	95404.2	297738	312650	-72.233	0.0000000E+000	0.0000000E+000	0.0000000E+000	72.233	0.0000000E+000	0.0000000E+000	0.0000000E+000	-72.233	0.0000000E+000	0.0000000E+000	0.0000000E+000	-17.767	0.0000000E+000	0.0000000E+000	0.0000000E+000	17.767	3.12081	72.233	-6.00295e-07	-1.25545e-06	-8.71872e-10	-1.25458e-06	0.222977	39657.3	27.5408	39629.8
14.6852	24.1241	6.01566	24.8628	-14.0019	12.3181	0.22314	-0.0050169	1801.6	105.469	1	11	0.00493736	0.000198584	0	8.75486e-05	0.000307577	3.09442e-06	-2.97011	0.0155824	0.0155615	0.000807405	-13.995	24.8781	24.1397	6.01647	0.0390256	0.00973155	0.0402207	14.0019	105469	422952	435904	-75.9981	0.0000000E+000	0.0000000E+000	0.0000000E+000	75.9981	0.0000000E+000	0.0000000E+000	0.0000000E+000	-75.9981	0.0000000E+000	0.0000000E+000	0.0000000E+000	-14.0019	0.0000000E+000	0.0000000E+000	0.0000000E+000	14.0019	4.01022	75.9981	-2.42563e-07	-1.11947e-06	-1.54308e-09	-1.11793e-06	0.222833	44477.7	61.3081	44416.4
10.0032	25.2688	4.93693	25.7466	-11.055	12.7689	0.223135	-0.00528092	3222.73	118.495	1	11	0.00493213	0.000191565	0	8.78415e-05	-0.000207511	6.61848e-06	48.02	0.0345496	0.0231092	-0.0256834	-10.9891	25.7644	25.2919	4.91124	0.0381194	0.00744762	0.0388401	11.055	118495	606494	617962	-78.945	0.0000000E+000	0.0000000E+000	0.0000000E+000	78.945	0.0000000E+000	0.0000000E+000	0.0000000E+000	-78.945	0.0000000E+000	0.0000000E+000	0.0000000E+000	-11.055	0.0000000E+000	0.0000000E+000	0.0000000E+000	11.055	5.11833	78.945	2.929e-07	-1.17836e-06	1.09585e-09	-1.17946e-06	0.223343	42253.1	39.2944	42292.4
6.81719	26.105	4.11014	26.4266	-8.94756	13.1085	0.22316	-0.00362304	5680.13	137.401	1	11	0.00492688	0.000186436	0	8.73126e-05	0.000269422	9.74818e-06	37.9126	0.0522869	0.0412517	-0.0321282	-8.86495	26.4624	26.1463	4.07801	0.0373802	0.00588538	0.0378407	8.94756	137401	872683	883433	-81.0524	0.0000000E+000	0.0000000E+000	0.0000000E+000	81.0524	0.0000000E+000	0.0000000E+000	0.0000000E+000	-81.0524	0.0000000E+000	0.0000000E+000	0.0000000E+000	-8.94756	0.0000000E+000	0.0000000E+000	0.0000000E+000	8.94756	6.35137	81.0524	-5.28849e-07	-8.08516e-07	-9.76125e-10	-8.07539e-07	0.22289	61594.7	74.3636	61520.3
4.63925	26.798	3.46746	27.0214	-7.3727	13.5924	0.223144	-0.00454582	9893.74	162.918	1	11	0.0049364	0.000182685	0	8.48375e-05	2.33964e-06	3.46792e-06	2.95359	0.018983	0.0189578	-0.000978137	-7.36548	27.04	26.8169	3.46648	0.0367018	0.00474895	0.0370078	7.3727	162918	1.2591e+06	1.26959e+06	-82.6273	0.0000000E+000	0.0000000E+000	0.0000000E+000	82.6273	0.0000000E+000	0.0000000E+000	0.0000000E+000	-82.6273	0.0000000E+000	0.0000000E+000	0.0000000E+000	-7.3727	0.0000000E+000	0.0000000E+000	0.0000000E+000	7.3727	7.72841	82.6273	-2.47508e-06	-1.01437e-06	-1.06356e-11	-1.01436e-06	0.223142	49087.8	0.51468	49087.3
3.1604	27.381	3.053	27.5507	-6.36223	14.2855	0.223147	-0.00399245	16495	202.554	1	11	0.00493767	0.000179221	0	8.47359e-05	-1.67377e-05	5.64353e-06	-27.4662	0.0314892	0.0279398	0.0145236	-6.38578	27.5801	27.409	3.06752	0.0360732	0.00402218	0.0362967	6.36223	202554	1.81662e+06	1.82787e+06	-83.6378	0.0000000E+000	0.0000000E+000	0.0000000E+000	83.6378	0.0000000E+000	0.0000000E+000	0.0000000E+000	-83.6378	0.0000000E+000	0.0000000E+000	0.0000000E+000	-6.36223	0.0000000E+000	0.0000000E+000	0.0000000E+000	6.36223	8.96857	83.6378	-1.01575e-07	-8.90901e-07	6.68243e-11	-8.90968e-07	0.223163	55892.2	4.19233	55896.4
2.15577	27.8219	2.73731	27.9563	-5.61906	15.2892	0.223135	-0.00394497	26970.8	258.573	1	11	0.00493271	0.000176444	0	8.67976e-05	0.000193113	7.1405e-06	8.62387	0.040469	0.0400114	-0.00606821	-5.59869	27.9955	27.862	2.73124	0.0355983	0.0035024	0.0357701	5.61906	258573	2.62813e+06	2.64082e+06	-84.3809	0.0000000E+000	0.0000000E+000	0.0000000E+000	84.3809	0.0000000E+000	0.0000000E+000	0.0000000E+000	-84.3809	0.0000000E+000	0.0000000E+000	0.0000000E+000	-5.61906	0.0000000E+000	0.0000000E+000	0.0000000E+000	5.61906	10.164	84.3809	2.06164e-06	-8.80262e-07	-7.61824e-10	-8.795e-07	0.222942	56562	48.9517	56513.1
1.46631	28.316	2.5943	28.4346	-5.2348	16.7493	0.223142	-0.00325765	41838.3	348.273	1	11	0.00493585	0.000173586	0	8.8168e-05	0.000193113	2.88855e-06	20.0638	0.0166404	0.0156306	-0.00570876	-5.22048	28.4497	28.3317	2.58859	0.0350217	0.00320867	0.0351684	5.2348	348273	3.8013e+06	3.81722e+06	-84.7652	0.0000000E+000	0.0000000E+000	0.0000000E+000	84.7652	0.0000000E+000	0.0000000E+000	0.0000000E+000	-84.7652	0.0000000E+000	0.0000000E+000	0.0000000E+000	-5.2348	0.0000000E+000	0.0000000E+000	0.0000000E+000	5.2348	10.9147	84.7652	1.37038e-06	-7.26919e-07	-6.29094e-10	-7.2629e-07	0.222949	68497.7	59.2797	68438.4
1.00006	28.7518	2.61271	28.8703	-5.19227	19.9227	0.223142	-0.00352683	60911.7	498.863	1	12	0.00493482	0.000170931	0	8.40885e-05	0.000193113	5.72325e-06	2.45112	0.0334828	0.0334522	-0.00143196	-5.18345	28.9035	28.7853	2.61128	0.0344955	0.00313465	0.0346377	5.19227	498863	5.48978e+06	5.5124e+06	-84.8077	0.0000000E+000	0.0000000E+000	0.0000000E+000	84.8077	0.0000000E+000	0.0000000E+000	0.0000000E+000	-84.8077	0.0000000E+000	0.0000000E+000	0.0000000E+000	-5.19227	0.0000000E+000	0.0000000E+000	0.0000000E+000	5.19227	11.0046	84.8077	-4.07951e-06	-7.86983e-07	-6.81075e-10	-7.86302e-07	0.222949	63269.9	54.7554	63215.2
0.681362	29.2121	2.74292	29.3406	-5.36415	23.035	0.223137	-0.00312331	85158.8	744.247	1	12	0.00493212	0.000168099	0	7.44835e-05	4.04943e-05	4.42315e-06	-4.7224	0.0263128	0.0262235	0.00216628	-5.36358	29.3669	29.2383	2.74508	0.0339332	0.00318621	0.0340825	5.36415	744247	7.92624e+06	7.9611e+06	-84.6358	0.0000000E+000	0.0000000E+000	0.0000000E+000	84.6358	0.0000000E+000	0.0000000E+000	0.0000000E+000	-84.6358	0.0000000E+000	0.0000000E+000	0.0000000E+000	-5.36415	0.0000000E+000	0.0000000E+000	0.0000000E+000	5.36415	10.65	84.6358	-9.60499e-06	-6.96927e-07	-1.26476e-10	-6.96801e-07	0.223097	71442.6	12.9652	71429.6
0.464091	29.7137	2.95613	29.8603	-5.6815	27.5915	0.22314	-0.00373807	116010	1136.97	1	12	0.00493412	0.00016524	0	6.00147e-05	-1.67377e-05	2.63253e-06	34.2699	0.0159316	0.0131658	-0.00897095	-5.66188	29.8726	29.7268	2.94716	0.0333247	0.00331538	0.0334892	5.6815	1.13697e+06	1.14284e+07	1.14848e+07	-84.3185	0.0000000E+000	0.0000000E+000	0.0000000E+000	84.3185	0.0000000E+000	0.0000000E+000	0.0000000E+000	-84.3185	0.0000000E+000	0.0000000E+000	0.0000000E+000	-5.6815	0.0000000E+000	0.0000000E+000	0.0000000E+000	5.6815	10.0516	84.3185	-1.44688e-05	-8.34111e-07	6.25666e-11	-8.34174e-07	0.223156	59693.8	4.47762	59698.3
0.316193	30.3015	3.36165	30.4874	-6.33052	34.2659	0.223144	-0.00458337	149732	1820.46	1	12	0.00493626	0.000161912	0	4.49745e-05	0.000307577	2.15065e-06	1.18315	0.0132828	0.01328	-0.000274268	-6.32725	30.5005	30.3148	3.36138	0.0326005	0.0036167	0.0328005	6.33052	1.82046e+06	1.64094e+07	1.651e+07	-83.6695	0.0000000E+000	0.0000000E+000	0.0000000E+000	83.6695	0.0000000E+000	0.0000000E+000	0.0000000E+000	-83.6695	0.0000000E+000	0.0000000E+000	0.0000000E+000	-6.33052	0.0000000E+000	0.0000000E+000	0.0000000E+000	6.33052	9.01387	83.6695	-1.50402e-05	-1.02275e-06	-1.40974e-09	-1.02134e-06	0.222837	48685.6	67.107	48618.5
0.215268	30.8966	4.04334	31.16	-7.45576	44.0592	0.223144	-0.00534436	182852	3078.84	1	12	0.00492789	0.000158148	0	3.54906e-05	0.000135881	3.25569e-06	-25.6358	0.0205864	0.0185599	0.00890668	-7.46756	31.1796	30.9151	4.05225	0.0318211	0.00416433	0.0320924	7.45576	3.07883e+06	2.35264e+07	2.3727e+07	-82.5442	0.0000000E+000	0.0000000E+000	0.0000000E+000	82.5442	0.0000000E+000	0.0000000E+000	0.0000000E+000	-82.5442	0.0000000E+000	0.0000000E+000	0.0000000E+000	-7.45576	0.0000000E+000	0.0000000E+000	0.0000000E+000	7.45576	7.64134	82.5442	-9.48383e-06	-1.19256e-06	-7.26195e-10	-1.19183e-06	0.223008	41753.1	25.4251	41727.7
0.146929	31.5086	4.96991	31.8982	-8.96353	58.3977	0.22314	-0.00557942	217954	5290.92	1	12	0.00493326	0.000154657	0	3.73068e-05	0.000135881	3.09948e-06	-9.2544	0.020041	0.0197802	0.00322297	-8.96371	31.9182	31.5284	4.97314	0.0309669	0.00488447	0.0313498	8.96353	5.29092e+06	3.35437e+07	3.39584e+07	-81.0365	0.0000000E+000	0.0000000E+000	0.0000000E+000	81.0365	0.0000000E+000	0.0000000E+000	0.0000000E+000	-81.0365	0.0000000E+000	0.0000000E+000	0.0000000E+000	-8.96353	0.0000000E+000	0.0000000E+000	0.0000000E+000	8.96353	6.33987	81.0365	1.81615e-06	-1.24499e-06	-7.58136e-10	-1.24423e-06	0.223004	39993.4	24.3539	39969.1
0.0999041	32.3516	6.15185	32.9314	-10.7666	79.4739	0.223138	-0.00543987	258959	9036.99	1	12	0.00493732	0.000149928	0	4.87156e-05	0.000174035	1.2385e-06	22.9062	0.00826062	0.00760922	-0.00321523	-10.7586	32.9382	32.3593	6.14864	0.0298316	0.00567266	0.0303662	10.7666	9.03699e+06	4.75241e+07	4.83757e+07	-79.2334	0.0000000E+000	0.0000000E+000	0.0000000E+000	79.2334	0.0000000E+000	0.0000000E+000	0.0000000E+000	-79.2334	0.0000000E+000	0.0000000E+000	0.0000000E+000	-10.7666	0.0000000E+000	0.0000000E+000	0.0000000E+000	10.7666	5.25884	79.2334	1.14088e-05	-1.21384e-06	-9.4673e-10	-1.2129e-06	0.222964	41019	31.9926	40987
0.0680626	33.5327	7.87856	34.4458	-13.2219	110.4	0.223136	-0.00544021	296801	15526.9	1	12	0.0049327	0.000143202	0	5.0233e-05	-5.48923e-05	1.97555e-06	20.7025	0.0137956	0.0129048	-0.00487695	-13.2091	34.4573	33.5456	7.87368	0.0282615	0.00664009	0.0290311	13.2219	1.55269e+07	6.60857e+07	6.78852e+07	-76.7781	0.0000000E+000	0.0000000E+000	0.0000000E+000	76.7781	0.0000000E+000	0.0000000E+000	0.0000000E+000	-76.7781	0.0000000E+000	0.0000000E+000	0.0000000E+000	-13.2219	0.0000000E+000	0.0000000E+000	0.0000000E+000	13.2219	4.2562	76.7781	1.51748e-06	-1.21391e-06	2.98625e-10	-1.21421e-06	0.223191	41016.2	10.0901	41026.2
0.0464052	35.1537	10.3763	36.6531	-16.4449	155.751	0.223135	-0.00534816	330531	26489.4	1	12	0.00493689	0.000134692	0	3.66696e-06	2.1417e-05	2.00685e-06	3.29078	0.0148995	0.014875	-0.000855282	-16.437	36.6672	35.1686	10.3754	0.0261667	0.00772358	0.0272828	16.4449	2.64894e+07	8.97435e+07	9.35712e+07	-73.5551	0.0000000E+000	0.0000000E+000	0.0000000E+000	73.5551	0.0000000E+000	0.0000000E+000	0.0000000E+000	-73.5551	0.0000000E+000	0.0000000E+000	0.0000000E+000	-16.4449	0.0000000E+000	0.0000000E+000	0.0000000E+000	16.4449	3.3879	73.5551	-4.65661e-05	-1.19336e-06	-1.14541e-10	-1.19325e-06	0.223114	41721.9	4.00454	41717.9
0.0315922	36.9615	13.53	39.3601	-20.1056	222.357	0.223137	-0.00584618	372341	43997.5	1	12	0.00493445	0.000125367	0	-0.000159336	-0.000226588	2.95935e-06	-4.42765	0.0236055	0.0235351	0.00182235	-20.0963	39.3828	36.985	13.5319	0.0238582	0.00873349	0.0254065	20.1056	4.39975e+07	1.20193e+08	1.27993e+08	-69.8944	0.0000000E+000	0.0000000E+000	0.0000000E+000	69.8944	0.0000000E+000	0.0000000E+000	0.0000000E+000	-69.8944	0.0000000E+000	0.0000000E+000	0.0000000E+000	-20.1056	0.0000000E+000	0.0000000E+000	0.0000000E+000	20.1056	2.73181	69.8944	-0.000163003	-1.3045e-06	1.32467e-09	-1.30582e-06	0.223364	38168	38.7583	38206.8
0.0215268	39.5318	17.0997	43.0716	-23.3912	320.096	0.223139	-0.00678529	432367	68147.2	1	12	0.00493418	0.000114558	0	-0.000485985	0.000250345	2.87327e-06	38.989	0.0250815	0.019495	-0.0157806	-23.3616	43.0832	39.5513	17.0839	0.0213091	0.00921737	0.0232172	23.3912	6.81472e+07	1.57545e+08	1.71653e+08	-66.6088	0.0000000E+000	0.0000000E+000	0.0000000E+000	66.6088	0.0000000E+000	0.0000000E+000	0.0000000E+000	-66.6088	0.0000000E+000	0.0000000E+000	0.0000000E+000	-23.3912	0.0000000E+000	0.0000000E+000	0.0000000E+000	23.3912	2.31184	66.6088	-0.000326649	-1.51406e-06	-1.69866e-09	-1.51237e-06	0.222889	32885.7	36.8952	32848.8
0.0146812	43.1795	21.5256	48.2475	-26.4969	463.398	0.223137	-0.00774108	503621	100245	1	12	0.0049349	0.000102283	0	-0.000978372	2.1417e-05	2.64272e-06	10.1291	0.0258373	0.0254346	-0.00454392	-26.4786	48.2683	43.205	21.5211	0.0185493	0.0092471	0.0207265	26.4969	1.00245e+08	2.01088e+08	2.2469e+08	-63.5031	0.0000000E+000	0.0000000E+000	0.0000000E+000	63.5031	0.0000000E+000	0.0000000E+000	0.0000000E+000	-63.5031	0.0000000E+000	0.0000000E+000	0.0000000E+000	-26.4969	0.0000000E+000	0.0000000E+000	0.0000000E+000	26.4969	2.00596	63.5031	-0.000492387	-1.72733e-06	-1.6579e-10	-1.72716e-06	0.223116	28825.1	2.76666	28822.3
0.0100092	47.5728	27.5185	54.9585	-30.0473	673.58	0.223139	-0.00845911	577825	144870	1	12	0.00493265	8.97521e-05	0	-0.00158669	0.000269422	2.3158e-06	18.2965	0.0258022	0.0244977	-0.00810019	-30.0272	54.9757	47.5973	27.5104	0.0157503	0.00911077	0.0181955	30.0473	1.4487e+08	2.50444e+08	2.89326e+08	-59.9527	0.0000000E+000	0.0000000E+000	0.0000000E+000	59.9527	0.0000000E+000	0.0000000E+000	0.0000000E+000	-59.9527	0.0000000E+000	0.0000000E+000	0.0000000E+000	-30.0473	0.0000000E+000	0.0000000E+000	0.0000000E+000	30.0473	1.72875	59.9527	-0.000608319	-1.88756e-06	-2.27907e-09	-1.88528e-06	0.22287	26378.6	31.8499	26346.7