File: txt/18609_R301_UA697_SOC00_C07.mpt
EC-Lab ASCII FILE
Nb header lines : 65

Potentio Electrochemical Impedance Spectroscopy

Run on channel : 7 (SN 66126)
User :
CE vs. WE compliance from -10 V to 10 V
Electrode connection : standard
Potential control : Ewe
Ewe ctrl range : min = -10.00 V, max = 10.00 V
Safety Limits :
	Do not start on E overload
Acquisition started on : 10/27/2025 16:24:44.317
Technique started on : 10/27/2025 16:24:46.185
Loaded Setting File :  C:\Users\Celltest\OneDrive - store-dot.com\Documents\EC-Lab\Data\@Biologic Test Protocols\anode half cell EIS SOC00.mps
Saved on :
	File : 18609_R301_UA697_SOC00_C07.mpr
	Directory : C:\Users\Celltest\OneDrive - store-dot.com\Documents\EC-Lab\Data\Gyutae\
	Host : 169.254.61.224
Device : VMP-3e (SN .003165)
Address : USB
EC-LAB for windows v11.62 (software)
Internet server v27.00 (firmware)
Command interpretor v12.03 (firmware)
Electrode material :
Initial state :
Electrolyte :
Comments :
Electrode surface area : 0.001 cm²
Characteristic mass : 0.001 g
Equivalent Weight : 0.000 g/eq.
Density : 0.000 g/cm3
Volume (V) : 0.001 cm³
Record Ece
Cycle Definition : Charge/Discharge alternance
Mode                Single sine
E (V)               0.0000
vs.                 Eoc
tE (h:m:s)          0:00:0.0000
record              0
dI                  0.000
unit dI             mA
dt (s)              0.000
fi                  100.000
unit fi             kHz
ff                  10.000
unit ff             mHz
Nd                  6
Points              per decade
spacing             Logarithmic
Va (mV)             5.0
pw                  0.10
Na                  2
corr                0
E range min (V)     -10.000
E range max (V)     10.000
I Range             Auto
Bandwidth           5
nc cycles           0
goto Ns'            0
nr cycles           0
inc. cycle          0

freq/Hz	Re(Z)/Ohm	-Im(Z)/Ohm	|Z|/Ohm	Phase(Z)/deg	time/s	<Ewe>/V	<I>/mA	Cs/µF	Cp/µF	cycle number	I Range	|Ewe|/V	|I|/A	Ns	(Q-Qo)/mA.h	<Ece>/V	|Ece|/V	Phase(Zce)/deg	|Zce|/Ohm	Re(Zce)/Ohm	-Im(Zce)/Ohm	Phase(Zwe-ce)/deg	|Zwe-ce|/Ohm	Re(Zwe-ce)/Ohm	-Im(Zwe-ce)/Ohm	Re(Y)/Ohm-1	Im(Y)/Ohm-1	|Y|/Ohm-1	Phase(Y)/deg	Re(C)/nF	Im(C)/nF	|C|/nF	Phase(C)/deg	Re(M)	Im(M)	|M|	Phase(M)/deg	Re(Permittivity)	Im(Permittivity)	|Permittivity|	Phase(Permittivity)/deg	Re(Resistivity)/Ohm.cm	Im(Resistivity)/Ohm.cm	|Resistivity|/Ohm.cm	Phase(Resistivity)/deg	Re(Conductivity)/mS/cm	Im(Conductivity)/mS/cm	|Conductivity|/mS/cm	Phase(Conductivity)/deg	Tan(Delta)	Loss Angle(Delta)/deg	dq/mA.h	Pwe/W	Pce/W	Pwe-ce/W	<Ewe-Ece>/V	Rwe/Ohm	Rce/Ohm	Rwe-ce/Ohm		Ewe-Ece/V
100004	0.996651	0.333394	1.05094	-18.4958	1.86756	0.220131	0.0551168	4.7736	0.480408	1	9	0.00497847	0.00473718	0	-7.45564e-06	-0.000173993	4.85164e-05	79.0969	0.0102416	0.00193719	-0.0100567	-17.9417	1.04963	0.998588	0.323338	0.902383	0.30186	0.951533	18.4958	480.408	1436.13	1514.36	-71.5042	0.0000000E+000	0.0000000E+000	0.0000000E+000	71.5042	0.0000000E+000	0.0000000E+000	0.0000000E+000	-71.5042	0.0000000E+000	0.0000000E+000	0.0000000E+000	-18.4958	0.0000000E+000	0.0000000E+000	0.0000000E+000	18.4958	2.98941	71.5042	-7.45564e-06	1.21329e-05	-9.58993e-09	1.21425e-05	0.220305	3993.91	3.1568	3997.06
68132	1.08986	0.391068	1.1579	-19.7392	2.37455	0.220155	0.0546327	5.97333	0.681367	1	9	0.00505828	0.00436851	0	6.29426e-06	-9.76912e-05	3.18956e-05	55.9794	0.00730124	0.00408498	-0.00605154	-19.3896	1.15972	1.09394	0.385016	0.812887	0.291684	0.863635	19.7392	681.367	1898.89	2017.43	-70.2608	0.0000000E+000	0.0000000E+000	0.0000000E+000	70.2608	0.0000000E+000	0.0000000E+000	0.0000000E+000	-70.2608	0.0000000E+000	0.0000000E+000	0.0000000E+000	-19.7392	0.0000000E+000	0.0000000E+000	0.0000000E+000	19.7392	2.78688	70.2608	1.37499e-05	1.20277e-05	-5.33713e-09	1.2033e-05	0.220253	4029.73	1.78814	4031.52
46420.4	1.18838	0.437071	1.2662	-20.193	2.75756	0.220154	0.0589149	7.8444	0.934669	1	9	0.00541568	0.00427711	0	1.71281e-05	-9.76912e-05	2.08618e-05	28.73	0.00487755	0.0042771	-0.00234455	-20.027	1.26941	1.19265	0.434726	0.741221	0.272613	0.789764	20.193	934.669	2541.32	2707.75	-69.807	0.0000000E+000	0.0000000E+000	0.0000000E+000	69.807	0.0000000E+000	0.0000000E+000	0.0000000E+000	-69.807	0.0000000E+000	0.0000000E+000	0.0000000E+000	-20.193	0.0000000E+000	0.0000000E+000	0.0000000E+000	20.193	2.71895	69.807	1.08338e-05	1.29704e-05	-5.75546e-09	1.29761e-05	0.220252	3736.82	1.65818	3738.48
31621.1	1.29665	0.482242	1.38343	-20.4008	3.14053	0.22016	0.0503133	10.437	1.26822	1	9	0.00544156	0.00393339	0	3.21542e-05	0.000112138	1.82545e-05	55.5113	0.0046409	0.00262788	-0.0038252	-20.2145	1.38456	1.29928	0.478417	0.677504	0.251972	0.722843	20.4008	1268.22	3410	3638.2	-69.5992	0.0000000E+000	0.0000000E+000	0.0000000E+000	69.5992	0.0000000E+000	0.0000000E+000	0.0000000E+000	-69.5992	0.0000000E+000	0.0000000E+000	0.0000000E+000	-20.4008	0.0000000E+000	0.0000000E+000	0.0000000E+000	20.4008	2.6888	69.5992	1.50261e-05	1.1077e-05	5.64205e-09	1.10713e-05	0.220048	4375.78	2.2288	4373.55
21544.7	1.41089	0.530987	1.5075	-20.6238	3.52356	0.220157	0.0570158	13.9122	1.72603	1	9	0.00542872	0.00360114	0	4.35149e-05	-0.000173993	2.93517e-06	33.2467	0.000815067	0.000681655	-0.000446856	-20.5988	1.50798	1.41157	0.530541	0.620838	0.233652	0.663349	20.6238	1726.03	4586.25	4900.3	-69.3762	0.0000000E+000	0.0000000E+000	0.0000000E+000	69.3762	0.0000000E+000	0.0000000E+000	0.0000000E+000	-69.3762	0.0000000E+000	0.0000000E+000	0.0000000E+000	-20.6238	0.0000000E+000	0.0000000E+000	0.0000000E+000	20.6238	2.65711	69.3762	1.13607e-05	1.25524e-05	-9.92033e-09	1.25623e-05	0.220331	3861.33	3.05166	3864.38
14678.6	1.53022	0.593971	1.64146	-21.2142	3.90555	0.220161	0.0516165	18.2545	2.39023	1	9	0.00538956	0.00328339	0	5.72356e-05	-0.000193068	1.81711e-06	-20.8196	0.000553426	0.000517289	0.000196703	-21.214	1.64201	1.53074	0.594167	0.56793	0.220447	0.609214	21.2142	2390.23	6157.87	6605.5	-68.7858	0.0000000E+000	0.0000000E+000	0.0000000E+000	68.7858	0.0000000E+000	0.0000000E+000	0.0000000E+000	-68.7858	0.0000000E+000	0.0000000E+000	0.0000000E+000	-21.2142	0.0000000E+000	0.0000000E+000	0.0000000E+000	21.2142	2.57626	68.7858	1.37208e-05	1.13639e-05	-9.96551e-09	1.13739e-05	0.220354	4265.31	3.74043	4269.05
10002.2	1.65904	0.663686	1.78687	-21.8035	4.28853	0.220169	0.0554518	23.9751	3.30751	1	9	0.00527919	0.00295444	0	5.91562e-05	-0.000460124	7.38738e-06	17.5488	0.00250043	0.00238406	-0.000753924	-21.7527	1.7888	1.66142	0.662932	0.519604	0.207863	0.559639	21.8035	3307.51	8267.91	8904.95	-68.1965	0.0000000E+000	0.0000000E+000	0.0000000E+000	68.1965	0.0000000E+000	0.0000000E+000	0.0000000E+000	-68.1965	0.0000000E+000	0.0000000E+000	0.0000000E+000	-21.8035	0.0000000E+000	0.0000000E+000	0.0000000E+000	21.8035	2.49974	68.1965	1.92053e-06	1.22088e-05	-2.55147e-08	1.22343e-05	0.220629	3970.46	8.29773	3978.76
6810.42	1.80658	0.74773	1.95521	-22.4843	4.67055	0.220163	0.0518772	31.2537	4.57095	1	9	0.00522672	0.00267323	0	5.74275e-05	-0.000345672	4.94818e-05	-66.5833	0.0185101	0.00735621	0.0169856	-22.8592	1.96854	1.81394	0.764716	0.472577	0.195596	0.511455	22.4843	4570.95	11043.8	11952.4	-67.5157	0.0000000E+000	0.0000000E+000	0.0000000E+000	67.5157	0.0000000E+000	0.0000000E+000	0.0000000E+000	-67.5157	0.0000000E+000	0.0000000E+000	0.0000000E+000	-22.4843	0.0000000E+000	0.0000000E+000	0.0000000E+000	22.4843	2.41608	67.5157	-1.72866e-06	1.14214e-05	-1.79325e-08	1.14393e-05	0.220508	4243.92	6.66327	4250.58
4646	1.98453	0.855756	2.16117	-23.3264	5.06563	0.220163	0.0457705	40.0305	6.27641	1	9	0.00515565	0.00238558	0	5.93744e-05	-0.000383823	7.96455e-06	-80.3866	0.00333862	0.000557548	0.00329174	-23.4006	2.16299	1.98509	0.859048	0.424891	0.183219	0.462711	23.3264	6276.41	14555.2	15850.8	-66.6736	0.0000000E+000	0.0000000E+000	0.0000000E+000	66.6736	0.0000000E+000	0.0000000E+000	0.0000000E+000	-66.6736	0.0000000E+000	0.0000000E+000	0.0000000E+000	-23.3264	0.0000000E+000	0.0000000E+000	0.0000000E+000	23.3264	2.31903	66.6736	1.94692e-06	1.00769e-05	-1.75677e-08	1.00945e-05	0.220546	4810.15	8.38581	4818.53
3163.08	2.16801	0.980056	2.37924	-24.3255	5.43865	0.220118	0.0249927	51.3404	8.71133	1	9	0.00522575	0.0021964	0	6.35993e-05	-0.000288445	5.13106e-06	-50.0531	0.00233613	0.00149997	0.00179097	-24.3499	2.38134	2.16951	0.981847	0.382988	0.173131	0.420302	24.3255	8711.33	19270.6	21148.1	-65.6745	0.0000000E+000	0.0000000E+000	0.0000000E+000	65.6745	0.0000000E+000	0.0000000E+000	0.0000000E+000	-65.6745	0.0000000E+000	0.0000000E+000	0.0000000E+000	-24.3255	0.0000000E+000	0.0000000E+000	0.0000000E+000	24.3255	2.21213	65.6745	4.22484e-06	5.50135e-06	-7.20903e-09	5.50856e-06	0.220407	8807.29	11.5412	8818.83
2155.69	2.37231	1.12162	2.62409	-25.3047	5.8898	0.220119	0.0226468	65.8245	12.026	1	9	0.0051722	0.00197104	0	6.55935e-05	-5.95403e-05	1.94339e-05	6.27821	0.00985971	0.00980057	-0.00107822	-25.1923	2.6325	2.38211	1.12054	0.344518	0.162887	0.381084	25.3047	12026	25435.8	28135.5	-64.6953	0.0000000E+000	0.0000000E+000	0.0000000E+000	64.6953	0.0000000E+000	0.0000000E+000	0.0000000E+000	-64.6953	0.0000000E+000	0.0000000E+000	0.0000000E+000	-25.3047	0.0000000E+000	0.0000000E+000	0.0000000E+000	25.3047	2.11507	64.6953	1.99421e-06	4.98499e-06	-1.3484e-09	4.98634e-06	0.220178	9719.64	2.62908	9722.27
1468.59	2.60129	1.29837	2.90731	-26.5249	6.34104	0.22011	0.0220138	83.4685	16.6469	1	9	0.00507589	0.00174591	0	7.02232e-05	-0.000326596	1.00994e-05	56.6706	0.00578463	0.00317838	-0.00483321	-26.4117	2.908	2.60447	1.29353	0.307755	0.153608	0.343961	26.5249	16646.9	33352.3	37275.9	-63.4751	0.0000000E+000	0.0000000E+000	0.0000000E+000	63.4751	0.0000000E+000	0.0000000E+000	0.0000000E+000	-63.4751	0.0000000E+000	0.0000000E+000	0.0000000E+000	-26.5249	0.0000000E+000	0.0000000E+000	0.0000000E+000	26.5249	2.00351	63.4751	4.6297e-06	4.84545e-06	-7.18963e-09	4.85264e-06	0.220436	9998.7	14.836	10013.5
1000.32	2.88058	1.55022	3.27122	-28.2875	7.03685	0.22014	-0.0217736	102.633	23.0491	1	10	0.00510621	0.00156095	0	7.05749e-05	-0.000364747	8.14314e-06	-94.497	0.00521679	-0.000409034	0.00520073	-28.371	3.27333	2.88017	1.55542	0.26919	0.144868	0.305696	28.2875	23049.1	42829.3	48637.5	-61.7125	0.0000000E+000	0.0000000E+000	0.0000000E+000	61.7125	0.0000000E+000	0.0000000E+000	0.0000000E+000	-61.7125	0.0000000E+000	0.0000000E+000	0.0000000E+000	-28.2875	0.0000000E+000	0.0000000E+000	0.0000000E+000	28.2875	1.85817	61.7125	3.51783e-07	-4.79326e-06	7.94187e-09	-4.8012e-06	0.220505	10110.4	16.7518	10127.2
681.09	3.20323	1.87432	3.7113	-30.3333	7.48652	0.220133	-0.0215503	124.673	31.7985	1	10	0.00503181	0.00135581	0	6.87102e-05	-0.000250295	5.77946e-06	6.54333	0.00426273	0.00423497	-0.000485758	-30.2939	3.71471	3.20746	1.87383	0.232561	0.136079	0.269447	30.3333	31798.5	54344.1	62963.6	-59.6667	0.0000000E+000	0.0000000E+000	0.0000000E+000	59.6667	0.0000000E+000	0.0000000E+000	0.0000000E+000	-59.6667	0.0000000E+000	0.0000000E+000	0.0000000E+000	-30.3333	0.0000000E+000	0.0000000E+000	0.0000000E+000	30.3333	1.70901	59.6667	-1.86477e-06	-4.74393e-06	5.39392e-09	-4.74932e-06	0.220383	10214.8	11.6144	10226.5
463.961	3.60072	2.28611	4.26515	-32.4116	7.93831	0.220121	-0.0228905	150.052	43.1089	1	10	0.00495173	0.00116097	0	6.58405e-05	-0.000135842	7.07397e-06	106.448	0.00609313	-0.0017252	-0.00584379	-32.3577	4.26056	3.599	2.28027	0.197934	0.125669	0.234458	32.4116	43108.9	67898.5	80427.5	-57.5884	0.0000000E+000	0.0000000E+000	0.0000000E+000	57.5884	0.0000000E+000	0.0000000E+000	0.0000000E+000	-57.5884	0.0000000E+000	0.0000000E+000	0.0000000E+000	-32.4116	0.0000000E+000	0.0000000E+000	0.0000000E+000	32.4116	1.57504	57.5884	-2.86972e-06	-5.03868e-06	3.10949e-09	-5.04179e-06	0.220257	9616.28	5.93443	9622.22
316.316	4.16395	2.78296	5.00833	-33.7567	8.38604	0.220124	-0.0228346	180.797	55.824	1	10	0.00490552	0.000979472	0	6.3155e-05	-0.000326596	1.28865e-05	-51.5338	0.0131566	0.00818411	0.0103013	-33.8025	5.02086	4.17213	2.79327	0.166004	0.110949	0.199667	33.7567	55824	83525.5	100463	-56.2433	0.0000000E+000	0.0000000E+000	0.0000000E+000	56.2433	0.0000000E+000	0.0000000E+000	0.0000000E+000	-56.2433	0.0000000E+000	0.0000000E+000	0.0000000E+000	-33.7567	0.0000000E+000	0.0000000E+000	0.0000000E+000	33.7567	1.49623	56.2433	-2.6855e-06	-5.02646e-06	7.45771e-09	-5.03391e-06	0.220451	9639.92	14.3027	9654.22
215.345	4.9474	3.3467	5.97304	-34.0766	8.83558	0.220127	-0.0229463	220.836	69.3285	1	10	0.00487691	0.000816487	0	5.96625e-05	-0.000460124	8.07947e-06	-39.4336	0.0098954	0.00764282	0.0062854	-34.0854	5.98289	4.95505	3.35298	0.138671	0.093805	0.167419	34.0766	69328.5	102488	123735	-55.9234	0.0000000E+000	0.0000000E+000	0.0000000E+000	55.9234	0.0000000E+000	0.0000000E+000	0.0000000E+000	-55.9234	0.0000000E+000	0.0000000E+000	0.0000000E+000	-34.0766	0.0000000E+000	0.0000000E+000	0.0000000E+000	34.0766	1.47829	55.9234	-3.49248e-06	-5.05111e-06	1.05582e-08	-5.06166e-06	0.220587	9593.12	20.0522	9613.17
146.737	6.01176	3.84349	7.13538	-32.5919	9.28148	0.220127	-0.0226336	282.198	81.8786	1	10	0.00486484	0.000681791	0	5.62169e-05	-7.86157e-05	7.97334e-06	-21.7041	0.0116947	0.0108656	0.00432485	-32.5742	7.14687	6.02263	3.84781	0.118078	0.0754903	0.140147	32.5919	81878.6	128070	152006	-57.4081	0.0000000E+000	0.0000000E+000	0.0000000E+000	57.4081	0.0000000E+000	0.0000000E+000	0.0000000E+000	-57.4081	0.0000000E+000	0.0000000E+000	0.0000000E+000	-32.5919	0.0000000E+000	0.0000000E+000	0.0000000E+000	32.5919	1.56414	57.4081	-3.44558e-06	-4.98226e-06	1.77936e-09	-4.98404e-06	0.220205	9725.65	3.4734	9729.12
100.032	7.28854	4.12569	8.37521	-29.5121	9.73281	0.22012	-0.0216992	385.642	93.5807	1	10	0.00485976	0.000580255	0	5.40095e-05	-0.000383823	1.00048e-05	3.09514	0.0172421	0.017217	-0.000930975	-29.4487	8.38974	7.30575	4.12476	0.103908	0.0588173	0.1194	29.5121	93580.8	165322	189970	-60.4879	0.0000000E+000	0.0000000E+000	0.0000000E+000	60.4879	0.0000000E+000	0.0000000E+000	0.0000000E+000	-60.4879	0.0000000E+000	0.0000000E+000	0.0000000E+000	-29.5121	0.0000000E+000	0.0000000E+000	0.0000000E+000	29.5121	1.76662	60.4879	-2.20744e-06	-4.77644e-06	8.32865e-09	-4.78476e-06	0.220504	10144.2	17.6883	10161.8
68.104	8.63076	4.09193	9.55164	-25.3661	10.1955	0.220129	-0.0211482	571.11	104.814	1	10	0.00484923	0.000507686	0	5.16983e-05	-0.000364747	1.12115e-05	-35.612	0.0220836	0.0179535	0.0128592	-25.3896	9.57337	8.64871	4.10479	0.0946004	0.044851	0.104694	25.3661	104814	221075	244664	-64.6339	0.0000000E+000	0.0000000E+000	0.0000000E+000	64.6339	0.0000000E+000	0.0000000E+000	0.0000000E+000	-64.6339	0.0000000E+000	0.0000000E+000	0.0000000E+000	-25.3661	0.0000000E+000	0.0000000E+000	0.0000000E+000	25.3661	2.10922	64.6339	-2.31115e-06	-4.65534e-06	7.71376e-09	-4.66305e-06	0.220493	10408.8	17.2472	10426.1
46.4415	9.84661	3.73172	10.53	-20.756	10.6306	0.220126	-0.023099	918.341	115.336	1	10	0.00484515	0.000460127	0	4.87554e-05	-0.000212144	5.82303e-06	-119.723	0.0126553	-0.0062745	0.0109903	-20.824	10.5281	9.84033	3.74271	0.088803	0.0336551	0.0949665	20.756	115336	304328	325450	-69.244	0.0000000E+000	0.0000000E+000	0.0000000E+000	69.244	0.0000000E+000	0.0000000E+000	0.0000000E+000	-69.244	0.0000000E+000	0.0000000E+000	0.0000000E+000	-20.756	0.0000000E+000	0.0000000E+000	0.0000000E+000	20.756	2.63862	69.244	-2.94291e-06	-5.08469e-06	4.9003e-09	-5.08959e-06	0.220338	9529.7	9.18412	9538.88
31.6296	10.8391	3.24095	11.3132	-16.647	11.0616	0.220128	-0.0242716	1552.58	127.417	1	10	0.00484995	0.000428698	0	4.68533e-05	-0.000116767	4.27724e-06	33.6363	0.00997729	0.00830679	-0.00552662	-16.6082	11.3196	10.8474	3.23543	0.0846875	0.0253221	0.0883922	16.647	127417	426134	444776	-73.353	0.0000000E+000	0.0000000E+000	0.0000000E+000	73.353	0.0000000E+000	0.0000000E+000	0.0000000E+000	-73.353	0.0000000E+000	0.0000000E+000	0.0000000E+000	-16.647	0.0000000E+000	0.0000000E+000	0.0000000E+000	16.647	3.3444	73.353	-1.9021e-06	-5.34286e-06	2.83412e-09	-5.34569e-06	0.220244	9069.33	4.81082	9074.15
21.5517	11.602	2.71307	11.915	-13.1618	11.4825	0.220124	-0.0229315	2721.93	141.127	1	10	0.00485223	0.000407236	0	4.45025e-05	-0.000173993	2.01655e-05	33.5397	0.049518	0.0412734	-0.0273595	-12.989	11.949	11.6433	2.68571	0.081723	0.0191105	0.0839277	13.1618	141127	603507	619788	-76.8382	0.0000000E+000	0.0000000E+000	0.0000000E+000	76.8382	0.0000000E+000	0.0000000E+000	0.0000000E+000	-76.8382	0.0000000E+000	0.0000000E+000	0.0000000E+000	-13.1618	0.0000000E+000	0.0000000E+000	0.0000000E+000	13.1618	4.27634	76.8382	-2.35081e-06	-5.04776e-06	3.98991e-09	-5.05175e-06	0.220298	9599.22	7.58752	9606.81
14.6852	12.0828	2.24632	12.2898	-10.5317	11.9422	0.220122	-0.0210887	4824.71	161.184	1	10	0.00483307	0.000393259	0	4.35677e-05	-0.000421973	6.23435e-06	-134.134	0.0158531	-0.011039	0.011378	-10.5933	12.281	12.0717	2.25769	0.0799976	0.0148724	0.0813683	10.5317	161184	866999	881854	-79.4683	0.0000000E+000	0.0000000E+000	0.0000000E+000	79.4683	0.0000000E+000	0.0000000E+000	0.0000000E+000	-79.4683	0.0000000E+000	0.0000000E+000	0.0000000E+000	-10.5317	0.0000000E+000	0.0000000E+000	0.0000000E+000	10.5317	5.37893	79.4683	-9.34752e-07	-4.64209e-06	8.89886e-09	-4.65099e-06	0.220544	10437.9	20.0095	10457.9
10.0032	12.5046	1.90048	12.6482	-8.64184	12.6378	0.220136	-0.0193852	8371.76	189.012	1	11	0.00483651	0.000382388	0	3.86692e-05	1.67614e-05	1.16127e-05	-28.852	0.030369	0.0265993	0.0146545	-8.68926	12.6767	12.5312	1.91514	0.0781651	0.0118798	0.0790627	8.64184	189012	1.24364e+06	1.25792e+06	-81.3582	0.0000000E+000	0.0000000E+000	0.0000000E+000	81.3582	0.0000000E+000	0.0000000E+000	0.0000000E+000	-81.3582	0.0000000E+000	0.0000000E+000	0.0000000E+000	-8.64184	0.0000000E+000	0.0000000E+000	0.0000000E+000	8.64184	6.57969	81.3582	-4.89849e-06	-4.26739e-06	-3.24923e-10	-4.26707e-06	0.22012	11355.9	0.864647	11355
6.81719	12.8443	1.61263	12.9451	-7.15619	12.9775	0.220142	-0.0181623	14477	224.667	1	11	0.00484171	0.000374019	0	3.37314e-05	-0.000345672	9.60345e-06	61.9359	0.0256764	0.0120797	-0.0226574	-7.05011	12.9543	12.8563	1.58997	0.0766476	0.00962331	0.0772493	7.15619	224667	1.78942e+06	1.80347e+06	-82.8438	0.0000000E+000	0.0000000E+000	0.0000000E+000	82.8438	0.0000000E+000	0.0000000E+000	0.0000000E+000	-82.8438	0.0000000E+000	0.0000000E+000	0.0000000E+000	-7.15619	0.0000000E+000	0.0000000E+000	0.0000000E+000	7.15619	7.96478	82.8438	-4.93786e-06	-3.99828e-06	6.27818e-09	-4.00455e-06	0.220488	12120.8	19.0324	12139.9
4.63925	13.0869	1.41984	13.1637	-6.19198	13.4614	0.22015	-0.0190196	24162	281.097	1	11	0.0048305	0.000366956	0	3.09407e-05	-0.000212144	6.35627e-06	-21.7757	0.0173216	0.0160856	0.00642584	-6.21221	13.1804	13.103	1.42626	0.0755233	0.00819376	0.0759665	6.19198	281097	2.59092e+06	2.60612e+06	-83.808	0.0000000E+000	0.0000000E+000	0.0000000E+000	83.808	0.0000000E+000	0.0000000E+000	0.0000000E+000	-83.808	0.0000000E+000	0.0000000E+000	0.0000000E+000	-6.19198	0.0000000E+000	0.0000000E+000	0.0000000E+000	6.19198	9.21717	83.808	-2.79066e-06	-4.18716e-06	4.03488e-09	-4.1912e-06	0.220362	11574.9	11.154	11586.1
3.1604	13.3447	1.30976	13.4088	-5.60554	14.1545	0.220147	-0.0186204	38449.2	366.852	1	11	0.00484383	0.000361243	0	3.23266e-05	-0.000212144	5.33107e-06	-32.8723	0.0147576	0.0123946	0.00800996	-5.6344	13.4219	13.3571	1.31777	0.0742213	0.0072847	0.0745779	5.60554	366852	3.73772e+06	3.75568e+06	-84.3945	0.0000000E+000	0.0000000E+000	0.0000000E+000	84.3945	0.0000000E+000	0.0000000E+000	0.0000000E+000	-84.3945	0.0000000E+000	0.0000000E+000	0.0000000E+000	-5.60554	0.0000000E+000	0.0000000E+000	0.0000000E+000	5.60554	10.1887	84.3945	1.38591e-06	-4.09922e-06	3.95019e-09	-4.10317e-06	0.220359	11822.9	11.3931	11834.3
2.15577	13.5721	1.23325	13.628	-5.19202	15.1581	0.220145	-0.0176102	59864.2	490.236	1	11	0.0048407	0.000355203	0	3.11007e-05	-0.000135842	1.30237e-06	-58.5828	0.00366655	0.00191125	0.00312901	-5.20439	13.6302	13.574	1.23638	0.0730773	0.00664029	0.0733783	5.19202	490236	5.39511e+06	5.41734e+06	-84.808	0.0000000E+000	0.0000000E+000	0.0000000E+000	84.808	0.0000000E+000	0.0000000E+000	0.0000000E+000	-84.808	0.0000000E+000	0.0000000E+000	0.0000000E+000	-5.19202	0.0000000E+000	0.0000000E+000	0.0000000E+000	5.19202	11.0051	84.808	-1.22589e-06	-3.87681e-06	2.39221e-09	-3.8792e-06	0.220281	12501	7.71381	12508.7
1.46631	13.806	1.2588	13.8633	-5.20971	16.6185	0.220149	-0.0160865	86225.8	710.92	1	11	0.00484196	0.000349265	0	2.13713e-05	-4.04649e-05	3.36157e-06	-91.8484	0.00962469	-0.000310452	0.00961968	-5.24941	13.8638	13.8057	1.26842	0.0718351	0.00654978	0.0721331	5.20971	710921	7.79707e+06	7.82941e+06	-84.7903	0.0000000E+000	0.0000000E+000	0.0000000E+000	84.7903	0.0000000E+000	0.0000000E+000	0.0000000E+000	-84.7903	0.0000000E+000	0.0000000E+000	0.0000000E+000	-5.20971	0.0000000E+000	0.0000000E+000	0.0000000E+000	5.20971	10.9676	84.7903	-9.72941e-06	-3.54142e-06	6.50938e-10	-3.54207e-06	0.220189	13685.3	2.51546	13687.9
1.00006	14.0298	1.30216	14.0901	-5.30266	18.748	0.220145	-0.0165108	122216	1043.83	1	11	0.0048438	0.000343774	0	1.0031e-06	-0.000441049	2.19974e-06	45.1185	0.00639879	0.00451526	-0.00453398	-5.28261	14.0941	14.0343	1.29762	0.0706683	0.00655901	0.0709721	5.30266	1.04383e+06	1.12465e+07	1.12948e+07	-84.6973	0.0000000E+000	0.0000000E+000	0.0000000E+000	84.6973	0.0000000E+000	0.0000000E+000	0.0000000E+000	-84.6973	0.0000000E+000	0.0000000E+000	0.0000000E+000	-5.30266	0.0000000E+000	0.0000000E+000	0.0000000E+000	5.30266	10.7742	84.6973	-2.03682e-05	-3.63477e-06	7.28206e-09	-3.64205e-06	0.220586	13333.4	26.7128	13360.1
0.681362	14.2769	1.40238	14.3456	-5.61002	21.8601	0.220146	-0.0169086	166562	1591.74	1	11	0.00484338	0.000337621	0	-2.73012e-05	-9.76912e-05	2.21743e-06	78.8163	0.0065678	0.00127386	-0.00644308	-5.58392	14.3463	14.2782	1.39594	0.0693738	0.00681442	0.0697077	5.61002	1.59174e+06	1.62046e+07	1.62826e+07	-84.39	0.0000000E+000	0.0000000E+000	0.0000000E+000	84.39	0.0000000E+000	0.0000000E+000	0.0000000E+000	-84.39	0.0000000E+000	0.0000000E+000	0.0000000E+000	-5.61002	0.0000000E+000	0.0000000E+000	0.0000000E+000	5.61002	10.1804	84.39	-2.83043e-05	-3.72236e-06	1.65182e-09	-3.72402e-06	0.220244	13019.8	5.7776	13025.6
0.464091	14.57	1.56579	14.6539	-6.13383	26.4165	0.220148	-0.0188853	219021	2500.6	1	11	0.00484193	0.000330419	0	-5.8817e-05	-0.000173993	1.58493e-06	102.642	0.00479672	-0.00104981	-0.00468043	-6.11608	14.6523	14.5689	1.56111	0.0678506	0.00729166	0.0682413	6.13383	2.5006e+06	2.32686e+07	2.34026e+07	-83.8662	0.0000000E+000	0.0000000E+000	0.0000000E+000	83.8662	0.0000000E+000	0.0000000E+000	0.0000000E+000	-83.8662	0.0000000E+000	0.0000000E+000	0.0000000E+000	-6.13383	0.0000000E+000	0.0000000E+000	0.0000000E+000	6.13383	9.30523	83.8662	-3.15158e-05	-4.15757e-06	3.28591e-09	-4.16085e-06	0.220322	11657.1	9.21312	11666.3
0.316193	14.856	1.84841	14.9705	-7.09239	33.0908	0.220145	-0.0207652	272314	4151.37	1	11	0.00484446	0.0003236	0	-8.61599e-05	-0.000193068	4.34328e-06	-9.23936	0.0134218	0.0132476	0.00215499	-7.09432	14.9839	14.8692	1.85056	0.0662868	0.00824752	0.0667979	7.09239	4.15137e+06	3.33653e+07	3.36226e+07	-82.9076	0.0000000E+000	0.0000000E+000	0.0000000E+000	82.9076	0.0000000E+000	0.0000000E+000	0.0000000E+000	-82.9076	0.0000000E+000	0.0000000E+000	0.0000000E+000	-7.09239	0.0000000E+000	0.0000000E+000	0.0000000E+000	7.09239	8.03718	82.9076	-2.73429e-05	-4.57134e-06	4.00909e-09	-4.57535e-06	0.220338	10601.6	9.2977	10610.9
0.215268	15.1593	2.20443	15.3187	-8.27384	42.8844	0.220148	-0.021077	335386	6945.32	1	11	0.0048446	0.000316253	0	-0.000106335	-0.000212144	1.39632e-06	111.203	0.00441519	-0.00159689	-0.00411629	-8.25946	15.3166	15.1577	2.20031	0.0646001	0.00939402	0.0652796	8.27384	6.94532e+06	4.77611e+07	4.82634e+07	-81.7262	0.0000000E+000	0.0000000E+000	0.0000000E+000	81.7262	0.0000000E+000	0.0000000E+000	0.0000000E+000	-81.7262	0.0000000E+000	0.0000000E+000	0.0000000E+000	-8.27384	0.0000000E+000	0.0000000E+000	0.0000000E+000	8.27384	6.87673	81.7262	-2.01747e-05	-4.64005e-06	4.47136e-09	-4.64453e-06	0.22036	10444.9	10.0652	10455
0.146929	15.5566	2.67127	15.7843	-9.74338	57.2227	0.220153	-0.0206149	405505	11613.9	1	11	0.00484572	0.000306996	0	-0.000129021	-4.04649e-05	2.44797e-06	-7.72335	0.00797394	0.00790161	0.00107162	-9.74236	15.7923	15.5645	2.67234	0.0624402	0.0107218	0.0633541	9.74338	1.16139e+07	6.76359e+07	6.86258e+07	-80.2566	0.0000000E+000	0.0000000E+000	0.0000000E+000	80.2566	0.0000000E+000	0.0000000E+000	0.0000000E+000	-80.2566	0.0000000E+000	0.0000000E+000	0.0000000E+000	-9.74338	0.0000000E+000	0.0000000E+000	0.0000000E+000	9.74338	5.82369	80.2566	-2.26863e-05	-4.53843e-06	8.3418e-10	-4.53926e-06	0.220193	10679.3	1.9629	10681.3
0.0999041	16.0828	3.40461	16.4392	-11.9527	88.3725	0.220154	-0.0218515	467918	20069.8	1	12	0.00484266	0.00029458	0	-0.000253303	-5.95403e-05	1.78789e-06	-17.212	0.00606929	0.00579748	0.00179595	-11.9546	16.4452	16.0886	3.4064	0.0595114	0.0125982	0.0608303	11.9527	2.00698e+07	9.48063e+07	9.69074e+07	-78.0473	0.0000000E+000	0.0000000E+000	0.0000000E+000	78.0473	0.0000000E+000	0.0000000E+000	0.0000000E+000	-78.0473	0.0000000E+000	0.0000000E+000	0.0000000E+000	-11.9527	0.0000000E+000	0.0000000E+000	0.0000000E+000	11.9527	4.72382	78.0473	-0.000124283	-4.81069e-06	1.30104e-09	-4.81199e-06	0.220213	10075	2.72477	10077.7
0.0680626	16.7757	4.3881	17.3401	-14.6587	119.3	0.220147	-0.0220947	532886	34126.1	1	12	0.00484752	0.000279556	0	-0.000432268	-0.000307521	2.71398e-06	27.6017	0.00970817	0.00860328	-0.00449801	-14.6372	17.3473	16.7843	4.38361	0.0557927	0.014594	0.0576699	14.6587	3.41261e+07	1.30464e+08	1.34853e+08	-75.3413	0.0000000E+000	0.0000000E+000	0.0000000E+000	75.3413	0.0000000E+000	0.0000000E+000	0.0000000E+000	-75.3413	0.0000000E+000	0.0000000E+000	0.0000000E+000	-14.6587	0.0000000E+000	0.0000000E+000	0.0000000E+000	14.6587	3.82299	75.3413	-0.000178964	-4.86408e-06	6.79458e-09	-4.87087e-06	0.220454	9963.78	13.9183	9977.7
0.0464052	17.4653	5.68781	18.3681	-18.0385	164.652	0.220149	-0.0237318	602988	57818.7	1	12	0.00484403	0.000263719	0	-0.000827734	-2.13895e-05	1.09758e-06	1.90577	0.00416192	0.00415961	-0.000138408	-18.0341	18.3721	17.4695	5.68767	0.0517662	0.0168583	0.0544421	18.0385	5.78187e+07	1.77541e+08	1.86719e+08	-71.9615	0.0000000E+000	0.0000000E+000	0.0000000E+000	71.9615	0.0000000E+000	0.0000000E+000	0.0000000E+000	-71.9615	0.0000000E+000	0.0000000E+000	0.0000000E+000	-18.0385	0.0000000E+000	0.0000000E+000	0.0000000E+000	18.0385	3.07066	71.9615	-0.000395466	-5.22455e-06	5.07612e-10	-5.22506e-06	0.220171	9276.54	0.901299	9277.44
0.0315922	18.474	7.23809	19.8413	-21.3952	231.257	0.220154	-0.026063	696012	92623.9	1	12	0.00484273	0.000244073	0	-0.00152712	1.67614e-05	7.56991e-07	77.9405	0.0031015	0.00064799	-0.00303305	-21.3864	19.8408	18.4746	7.23505	0.0469267	0.0183858	0.0503999	21.3952	9.26239e+07	2.36407e+08	2.53904e+08	-68.6048	0.0000000E+000	0.0000000E+000	0.0000000E+000	68.6048	0.0000000E+000	0.0000000E+000	0.0000000E+000	-68.6048	0.0000000E+000	0.0000000E+000	0.0000000E+000	-21.3952	0.0000000E+000	0.0000000E+000	0.0000000E+000	21.3952	2.55233	68.6048	-0.000699384	-5.73787e-06	-4.36851e-10	-5.73743e-06	0.220137	8446.99	0.64311	8446.35
0.0215268	20.0299	9.3263	22.0947	-24.9676	328.996	0.220152	-0.0287739	792742	141245	1	12	0.00484077	0.000219092	0	-0.0025519	-0.000154917	1.88408e-06	49.846	0.0085995	0.00554534	-0.00657272	-24.9461	22.097	20.0354	9.31973	0.04103	0.0191044	0.0452597	24.9676	1.41245e+08	3.03349e+08	3.34621e+08	-65.0324	0.0000000E+000	0.0000000E+000	0.0000000E+000	65.0324	0.0000000E+000	0.0000000E+000	0.0000000E+000	-65.0324	0.0000000E+000	0.0000000E+000	0.0000000E+000	-24.9676	0.0000000E+000	0.0000000E+000	0.0000000E+000	24.9676	2.14768	65.0324	-0.00102478	-6.33464e-06	4.45758e-09	-6.3391e-06	0.220307	7651.12	5.38396	7656.5
0.0146812	22.0373	12.1434	25.1615	-28.8564	472.299	0.220159	-0.0307319	892731	207934	1	12	0.00484399	0.000192516	0	-0.00386206	-0.000364747	1.89167e-06	30.5974	0.00982605	0.00845792	-0.00500149	-28.8372	25.1665	22.0457	12.1384	0.0348084	0.0191807	0.0397432	28.8564	2.07934e+08	3.77349e+08	4.30847e+08	-61.1436	0.0000000E+000	0.0000000E+000	0.0000000E+000	61.1436	0.0000000E+000	0.0000000E+000	0.0000000E+000	-61.1436	0.0000000E+000	0.0000000E+000	0.0000000E+000	-28.8564	0.0000000E+000	0.0000000E+000	0.0000000E+000	28.8564	1.81476	61.1436	-0.00131016	-6.76591e-06	1.12094e-08	-6.77712e-06	0.220524	7163.85	11.8687	7175.72