File: txt/18603_R301_UA696_SOC00_C02.mpt
EC-Lab ASCII FILE
Nb header lines : 65

Potentio Electrochemical Impedance Spectroscopy

Run on channel : 2 (SN 66139)
User :
CE vs. WE compliance from -10 V to 10 V
Electrode connection : standard
Potential control : Ewe
Ewe ctrl range : min = -10.00 V, max = 10.00 V
Safety Limits :
	Do not start on E overload
Acquisition started on : 10/27/2025 16:23:12.710
Technique started on : 10/27/2025 16:23:14.304
Loaded Setting File :  C:\Users\Celltest\OneDrive - store-dot.com\Documents\EC-Lab\Data\@Biologic Test Protocols\anode half cell EIS SOC00.mps
Saved on :
	File : 18603_R301_UA696_SOC00_C02.mpr
	Directory : C:\Users\Celltest\OneDrive - store-dot.com\Documents\EC-Lab\Data\Gyutae\
	Host : 169.254.61.224
Device : VMP-3e (SN .003165)
Address : USB
EC-LAB for windows v11.62 (software)
Internet server v27.00 (firmware)
Command interpretor v12.03 (firmware)
Electrode material :
Initial state :
Electrolyte :
Comments :
Electrode surface area : 0.001 cm²
Characteristic mass : 0.001 g
Equivalent Weight : 0.000 g/eq.
Density : 0.000 g/cm3
Volume (V) : 0.001 cm³
Record Ece
Cycle Definition : Charge/Discharge alternance
Mode                Single sine
E (V)               0.0000
vs.                 Eoc
tE (h:m:s)          0:00:0.0000
record              0
dI                  0.000
unit dI             mA
dt (s)              0.000
fi                  100.000
unit fi             kHz
ff                  10.000
unit ff             mHz
Nd                  6
Points              per decade
spacing             Logarithmic
Va (mV)             5.0
pw                  0.10
Na                  2
corr                0
E range min (V)     -10.000
E range max (V)     10.000
I Range             Auto
Bandwidth           5
nc cycles           0
goto Ns'            0
nr cycles           0
inc. cycle          0

freq/Hz	Re(Z)/Ohm	-Im(Z)/Ohm	|Z|/Ohm	Phase(Z)/deg	time/s	<Ewe>/V	<I>/mA	Cs/µF	Cp/µF	cycle number	I Range	|Ewe|/V	|I|/A	Ns	(Q-Qo)/mA.h	<Ece>/V	|Ece|/V	Phase(Zce)/deg	|Zce|/Ohm	Re(Zce)/Ohm	-Im(Zce)/Ohm	Phase(Zwe-ce)/deg	|Zwe-ce|/Ohm	Re(Zwe-ce)/Ohm	-Im(Zwe-ce)/Ohm	Re(Y)/Ohm-1	Im(Y)/Ohm-1	|Y|/Ohm-1	Phase(Y)/deg	Re(C)/nF	Im(C)/nF	|C|/nF	Phase(C)/deg	Re(M)	Im(M)	|M|	Phase(M)/deg	Re(Permittivity)	Im(Permittivity)	|Permittivity|	Phase(Permittivity)/deg	Re(Resistivity)/Ohm.cm	Im(Resistivity)/Ohm.cm	|Resistivity|/Ohm.cm	Phase(Resistivity)/deg	Re(Conductivity)/mS/cm	Im(Conductivity)/mS/cm	|Conductivity|/mS/cm	Phase(Conductivity)/deg	Tan(Delta)	Loss Angle(Delta)/deg	dq/mA.h	Pwe/W	Pce/W	Pwe-ce/W	<Ewe-Ece>/V	Rwe/Ohm	Rce/Ohm	Rwe-ce/Ohm		Ewe-Ece/V
100004	1.0375	0.351359	1.09538	-18.7092	1.59356	0.215086	0.0142303	4.52953	0.466045	1	9	0.0053804	0.00491192	0	1.65356e-06	0.000229433	2.42812e-05	22.4063	0.00494332	0.00457012	-0.00188426	-18.5397	1.09911	1.04207	0.349474	0.864688	0.292836	0.912928	18.7092	466.045	1376.14	1452.92	-71.2908	0.0000000E+000	0.0000000E+000	0.0000000E+000	71.2908	0.0000000E+000	0.0000000E+000	0.0000000E+000	-71.2908	0.0000000E+000	0.0000000E+000	0.0000000E+000	-18.7092	0.0000000E+000	0.0000000E+000	0.0000000E+000	18.7092	2.95281	71.2908	1.65356e-06	3.06074e-06	3.2649e-09	3.05747e-06	0.214856	15114.6	16.1228	15098.5
68132	1.1256	0.396166	1.19328	-19.39	2.10056	0.21505	0.0171727	5.89646	0.649918	1	9	0.00473838	0.00397087	0	3.03725e-06	0.000153069	1.60477e-05	6.27533	0.00404136	0.00401714	-0.000441746	-19.3062	1.19693	1.12962	0.395725	0.790491	0.278221	0.838023	19.39	649.918	1846.57	1957.6	-70.61	0.0000000E+000	0.0000000E+000	0.0000000E+000	70.61	0.0000000E+000	0.0000000E+000	0.0000000E+000	-70.61	0.0000000E+000	0.0000000E+000	0.0000000E+000	-19.39	0.0000000E+000	0.0000000E+000	0.0000000E+000	19.39	2.84124	70.61	1.38369e-06	3.69298e-06	2.62861e-09	3.69035e-06	0.214897	12522.8	8.91354	12513.9
46420.4	1.22264	0.43179	1.29665	-19.4513	2.48355	0.215055	0.0192585	7.94034	0.880522	1	9	0.00524022	0.00404136	0	1.12741e-06	9.57967e-05	1.2706e-05	-32.2328	0.00314399	0.00265947	0.00167688	-19.4819	1.29971	1.2253	0.433467	0.727202	0.25682	0.771219	19.4513	880.522	2493.26	2644.17	-70.5487	0.0000000E+000	0.0000000E+000	0.0000000E+000	70.5487	0.0000000E+000	0.0000000E+000	0.0000000E+000	-70.5487	0.0000000E+000	0.0000000E+000	0.0000000E+000	-19.4513	0.0000000E+000	0.0000000E+000	0.0000000E+000	19.4513	2.83157	70.5487	-1.90984e-06	4.14162e-06	1.8449e-09	4.13978e-06	0.214959	11166.8	4.97427	11161.8
31621.1	1.32503	0.479233	1.40903	-19.884	2.99056	0.215035	0.00923929	10.5026	1.21493	1	9	0.0049939	0.00354422	0	5.76548e-06	3.85242e-05	6.74357e-06	31.1527	0.0019027	0.00162831	-0.000984305	-19.8238	1.41022	1.32665	0.478249	0.667399	0.241384	0.70971	19.884	1214.93	3359.14	3572.1	-70.116	0.0000000E+000	0.0000000E+000	0.0000000E+000	70.116	0.0000000E+000	0.0000000E+000	0.0000000E+000	-70.116	0.0000000E+000	0.0000000E+000	0.0000000E+000	-19.884	0.0000000E+000	0.0000000E+000	0.0000000E+000	19.884	2.76489	70.116	4.63807e-06	1.98677e-06	3.55936e-10	1.98642e-06	0.214997	23274	4.1696	23269.8
21544.7	1.43289	0.530122	1.52781	-20.3027	3.37352	0.215036	0.0152359	13.9349	1.6777	1	9	0.00544351	0.00356294	0	5.03873e-06	-0.000114203	6.53119e-06	-31.4717	0.00183309	0.00156344	0.000957015	-20.316	1.52961	1.43446	0.531079	0.613866	0.227109	0.65453	20.3027	1677.7	4534.75	4835.15	-69.6973	0.0000000E+000	0.0000000E+000	0.0000000E+000	69.6973	0.0000000E+000	0.0000000E+000	0.0000000E+000	-69.6973	0.0000000E+000	0.0000000E+000	0.0000000E+000	-20.3027	0.0000000E+000	0.0000000E+000	0.0000000E+000	20.3027	2.70295	69.6973	-7.26752e-07	3.27626e-06	-1.73998e-09	3.278e-06	0.21515	14113.8	7.49563	14121.3
14678.6	1.55247	0.585855	1.65933	-20.675	3.75654	0.21503	0.0144165	18.5074	2.30706	1	9	0.00541198	0.00326154	0	6.24258e-06	0.000286705	6.82055e-06	-32.3995	0.0020912	0.00176567	0.00112051	-20.6897	1.66138	1.55423	0.586976	0.56384	0.212777	0.602652	20.675	2307.06	6113.53	6534.35	-69.325	0.0000000E+000	0.0000000E+000	0.0000000E+000	69.325	0.0000000E+000	0.0000000E+000	0.0000000E+000	-69.325	0.0000000E+000	0.0000000E+000	0.0000000E+000	-20.675	0.0000000E+000	0.0000000E+000	0.0000000E+000	20.675	2.64992	69.325	1.20384e-06	3.09997e-06	4.13328e-09	3.09584e-06	0.214743	14915.6	19.8873	14895.7
10002.2	1.6774	0.662376	1.80345	-21.5482	4.26355	0.215037	0.0126659	24.0225	3.24056	1	9	0.00519645	0.0028814	0	1.18798e-05	-1.87484e-05	7.07946e-06	27.5181	0.00245695	0.00217899	-0.00113518	-21.4892	1.80506	1.67958	0.661241	0.515739	0.203656	0.554493	21.5482	3240.56	8206.42	8823.07	-68.4518	0.0000000E+000	0.0000000E+000	0.0000000E+000	68.4518	0.0000000E+000	0.0000000E+000	0.0000000E+000	-68.4518	0.0000000E+000	0.0000000E+000	0.0000000E+000	-21.5482	0.0000000E+000	0.0000000E+000	0.0000000E+000	21.5482	2.5324	68.4518	5.63719e-06	2.72364e-06	-2.37465e-10	2.72388e-06	0.215056	16977.6	1.48022	16979.1
6810.42	1.80723	0.74798	1.9559	-22.4838	4.64654	0.215031	0.0102449	31.2432	4.56921	1	9	0.00549153	0.00280767	0	1.12973e-05	7.67059e-05	2.77031e-05	50.9299	0.00986694	0.00621885	-0.00766044	-22.2072	1.95874	1.81345	0.74032	0.47241	0.195522	0.511273	22.4838	4569.21	11039.9	11948.1	-67.5162	0.0000000E+000	0.0000000E+000	0.0000000E+000	67.5162	0.0000000E+000	0.0000000E+000	0.0000000E+000	-67.5162	0.0000000E+000	0.0000000E+000	0.0000000E+000	-22.4838	0.0000000E+000	0.0000000E+000	0.0000000E+000	22.4838	2.41615	67.5162	-5.82474e-07	2.20298e-06	7.85846e-10	2.20219e-06	0.214954	20989	7.4872	20981.5
4646	1.95855	0.875825	2.14545	-24.0933	5.04063	0.215024	0.00972347	39.1132	6.51808	1	9	0.00535305	0.00249507	0	1.01386e-05	0.000229433	1.11281e-05	-26.2844	0.00446004	0.00399891	0.00197503	-24.0978	2.14991	1.96254	0.8778	0.425496	0.190274	0.466102	24.0933	6518.08	14575.9	15966.9	-65.9067	0.0000000E+000	0.0000000E+000	0.0000000E+000	65.9067	0.0000000E+000	0.0000000E+000	0.0000000E+000	-65.9067	0.0000000E+000	0.0000000E+000	0.0000000E+000	-24.0933	0.0000000E+000	0.0000000E+000	0.0000000E+000	24.0933	2.23623	65.9067	-1.15868e-06	2.09078e-06	2.23088e-09	2.08855e-06	0.214794	22113.9	23.5957	22090.3
3163.08	2.1074	1.02816	2.34484	-26.0067	5.59062	0.215016	0.00257224	48.9385	9.40901	1	9	0.00519521	0.0022156	0	7.07672e-06	1.94333e-05	6.62467e-06	77.5681	0.00299001	0.000643688	-0.0029199	-25.9357	2.34414	2.10805	1.02524	0.383286	0.186997	0.426469	26.0067	9409.01	19285.6	21458.4	-63.9933	0.0000000E+000	0.0000000E+000	0.0000000E+000	63.9933	0.0000000E+000	0.0000000E+000	0.0000000E+000	-63.9933	0.0000000E+000	0.0000000E+000	0.0000000E+000	-26.0067	0.0000000E+000	0.0000000E+000	0.0000000E+000	26.0067	2.04969	63.9933	-3.06189e-06	5.53072e-07	4.99872e-11	5.53022e-07	0.214996	83590.7	7.55501	83583.1
2155.69	2.28679	1.26166	2.61174	-28.8863	6.04178	0.215013	0.00175282	58.5182	13.6558	1	9	0.00532014	0.00203701	0	7.33728e-06	0.000229433	1.13732e-05	-1.29743	0.00558329	0.00558186	0.000126419	-28.8297	2.61669	2.29237	1.26179	0.335247	0.184962	0.382886	28.8863	13655.8	24751.4	28268.5	-61.1137	0.0000000E+000	0.0000000E+000	0.0000000E+000	61.1137	0.0000000E+000	0.0000000E+000	0.0000000E+000	-61.1137	0.0000000E+000	0.0000000E+000	0.0000000E+000	-28.8863	0.0000000E+000	0.0000000E+000	0.0000000E+000	28.8863	1.81252	61.1137	2.60561e-07	3.76879e-07	4.02154e-10	3.76477e-07	0.214783	122667	130.893	122536
1468.59	2.49446	1.58451	2.95516	-32.4243	6.49303	0.215013	0.00652029	68.3948	19.6631	1	9	0.00517869	0.00175242	0	6.20967e-06	0.000133978	1.34171e-05	-114.03	0.00765632	-0.0031178	0.00699275	-32.5711	2.95629	2.49134	1.59151	0.285636	0.18144	0.338391	32.4243	19663.1	30955.1	36672.3	-57.5757	0.0000000E+000	0.0000000E+000	0.0000000E+000	57.5757	0.0000000E+000	0.0000000E+000	0.0000000E+000	-57.5757	0.0000000E+000	0.0000000E+000	0.0000000E+000	-32.4243	0.0000000E+000	0.0000000E+000	0.0000000E+000	32.4243	1.57427	57.5757	-1.12761e-06	1.40195e-06	8.73578e-10	1.40107e-06	0.214879	32975.9	20.5479	32955.4
1000.32	2.77566	2.00567	3.42447	-35.8517	7.18884	0.215014	-0.0182682	79.3269	27.2116	1	10	0.00514576	0.00150264	0	5.10251e-06	-3.78392e-05	1.58091e-05	107.988	0.0105208	-0.00324908	-0.0100066	-35.7475	3.41598	2.77241	1.99567	0.236689	0.17103	0.292016	35.8517	27211.6	37658.2	46460.9	-54.1483	0.0000000E+000	0.0000000E+000	0.0000000E+000	54.1483	0.0000000E+000	0.0000000E+000	0.0000000E+000	-54.1483	0.0000000E+000	0.0000000E+000	0.0000000E+000	-35.8517	0.0000000E+000	0.0000000E+000	0.0000000E+000	35.8517	1.3839	54.1483	-1.10716e-06	-3.92793e-06	6.91255e-10	-3.92862e-06	0.215052	11769.9	2.07131	11771.9
681.09	3.1557	2.57626	4.07376	-39.2276	7.63955	0.215026	-0.0183576	90.7041	36.2755	1	10	0.00499684	0.00122659	0	2.01487e-06	0.000267614	7.32056e-06	40.0758	0.00596822	0.00456684	-0.00384234	-39.1451	4.07487	3.16027	2.57241	0.190154	0.155238	0.245473	39.2276	36275.5	44434.5	57361.5	-50.7724	0.0000000E+000	0.0000000E+000	0.0000000E+000	50.7724	0.0000000E+000	0.0000000E+000	0.0000000E+000	-50.7724	0.0000000E+000	0.0000000E+000	0.0000000E+000	-39.2276	0.0000000E+000	0.0000000E+000	0.0000000E+000	39.2276	1.22492	50.7724	-3.08764e-06	-3.94737e-06	-4.91276e-09	-3.94245e-06	0.214758	11713.2	14.5778	11698.6
463.961	3.72461	3.30763	4.98128	-41.6065	8.09137	0.215025	-0.0195236	103.71	45.7271	1	10	0.00491245	0.000986183	0	2.0165e-07	0.000229433	4.07361e-06	60.0534	0.00413068	0.00206201	-0.0035792	-41.56	4.98045	3.72668	3.30405	0.150106	0.133301	0.200752	41.6065	45727.1	51491.8	68864.9	-48.3935	0.0000000E+000	0.0000000E+000	0.0000000E+000	48.3935	0.0000000E+000	0.0000000E+000	0.0000000E+000	-48.3935	0.0000000E+000	0.0000000E+000	0.0000000E+000	-41.6065	0.0000000E+000	0.0000000E+000	0.0000000E+000	41.6065	1.12607	48.3935	-1.81322e-06	-4.19806e-06	-4.47935e-09	-4.19358e-06	0.214795	11013.6	11.7515	11001.8
316.316	4.55537	4.16466	6.17218	-42.4346	8.53906	0.215016	-0.0190617	120.815	55.005	1	10	0.00485249	0.000786187	0	-2.5793e-06	0.000191251	7.61414e-06	45.093	0.0096849	0.00683713	-0.00685937	-42.3447	6.1726	4.5622	4.1578	0.119577	0.109321	0.162017	42.4346	55005	60165.2	81519.3	-47.5654	0.0000000E+000	0.0000000E+000	0.0000000E+000	47.5654	0.0000000E+000	0.0000000E+000	0.0000000E+000	-47.5654	0.0000000E+000	0.0000000E+000	0.0000000E+000	-42.4346	0.0000000E+000	0.0000000E+000	0.0000000E+000	42.4346	1.09381	47.5654	-2.78095e-06	-4.09857e-06	-3.64557e-09	-4.09493e-06	0.214825	11280	10.0333	11270
215.345	5.75436	5.0851	7.67925	-41.4669	8.98853	0.21502	-0.0195125	145.34	63.7306	1	10	0.00482304	0.00062806	0	-4.79693e-06	0.000458523	5.41794e-06	5.74141	0.00862647	0.00858319	-0.000862982	-41.4197	7.68512	5.76294	5.08424	0.0975796	0.0862307	0.130221	41.4669	63730.6	72118.3	96242.6	-48.5331	0.0000000E+000	0.0000000E+000	0.0000000E+000	48.5331	0.0000000E+000	0.0000000E+000	0.0000000E+000	-48.5331	0.0000000E+000	0.0000000E+000	0.0000000E+000	-41.4669	0.0000000E+000	0.0000000E+000	0.0000000E+000	41.4669	1.13161	48.5331	-2.21763e-06	-4.19558e-06	-8.9469e-09	-4.18663e-06	0.214562	11019.7	23.499	10996.2
146.737	7.42378	5.87836	9.4693	-38.3732	9.4345	0.215016	-0.0204363	184.511	71.1049	1	10	0.00480496	0.000507425	0	-7.17172e-06	0.000382159	3.32154e-06	45.21	0.00654587	0.00461164	-0.00464556	-38.3338	9.47004	7.42839	5.87372	0.0827922	0.0655572	0.105604	38.3732	71104.9	89798.4	114541	-51.6268	0.0000000E+000	0.0000000E+000	0.0000000E+000	51.6268	0.0000000E+000	0.0000000E+000	0.0000000E+000	-51.6268	0.0000000E+000	0.0000000E+000	0.0000000E+000	-38.3732	0.0000000E+000	0.0000000E+000	0.0000000E+000	38.3732	1.2629	51.6268	-2.37479e-06	-4.39413e-06	-7.80993e-09	-4.38632e-06	0.214634	10521.3	18.7	10502.6
100.032	9.40181	6.34489	11.3425	-34.0138	9.88477	0.215018	-0.0197285	250.759	78.4675	1	10	0.00479834	0.000423042	0	-9.19239e-06	0.000363069	4.88013e-06	-28.3066	0.0115358	0.0101564	0.00547016	-34.008	11.3539	9.41197	6.35036	0.0730796	0.0493184	0.0881642	34.0138	78467.5	116273	140273	-55.9862	0.0000000E+000	0.0000000E+000	0.0000000E+000	55.9862	0.0000000E+000	0.0000000E+000	0.0000000E+000	-55.9862	0.0000000E+000	0.0000000E+000	0.0000000E+000	-34.0138	0.0000000E+000	0.0000000E+000	0.0000000E+000	34.0138	1.48179	55.9862	-2.02067e-06	-4.24199e-06	-7.1628e-09	-4.23483e-06	0.214655	10898.9	18.4032	10880.5
68.104	11.4841	6.25318	13.0762	-28.5686	10.3474	0.215024	-0.019505	373.721	85.4643	1	10	0.00478771	0.000366139	0	-1.12964e-05	0.000210342	8.16e-06	129.22	0.0222866	-0.0140917	-0.0172661	-28.5316	13.0556	11.47	6.23591	0.0671636	0.036571	0.0764748	28.5686	85464.3	156957	178717	-61.4314	0.0000000E+000	0.0000000E+000	0.0000000E+000	61.4314	0.0000000E+000	0.0000000E+000	0.0000000E+000	-61.4314	0.0000000E+000	0.0000000E+000	0.0000000E+000	-28.5686	0.0000000E+000	0.0000000E+000	0.0000000E+000	28.5686	1.83653	61.4314	-2.104e-06	-4.19404e-06	-4.10272e-09	-4.18994e-06	0.214813	11024	10.784	11013.2
46.4415	13.3782	5.70874	14.5453	-23.109	10.7836	0.215012	-0.0216619	600.306	92.472	1	10	0.0047917	0.000329433	0	-1.38626e-05	3.85242e-05	4.9988e-06	-10.6816	0.0151739	0.014911	0.0028125	-23.0961	14.5601	13.3931	5.71156	0.0632343	0.0269834	0.0687509	23.109	92472	216704	235609	-66.891	0.0000000E+000	0.0000000E+000	0.0000000E+000	66.891	0.0000000E+000	0.0000000E+000	0.0000000E+000	-66.891	0.0000000E+000	0.0000000E+000	0.0000000E+000	-23.109	0.0000000E+000	0.0000000E+000	0.0000000E+000	23.109	2.34345	66.891	-2.56618e-06	-4.65758e-06	-8.34507e-10	-4.65674e-06	0.214974	9925.82	1.77843	9924.04
31.6296	14.8994	4.88094	15.6785	-18.1384	11.2136	0.215011	-0.0223846	1030.92	99.9124	1	10	0.0047906	0.000305551	0	-1.67748e-05	-9.51117e-05	3.70645e-06	-100.514	0.0121304	-0.00221351	0.0119267	-18.1823	15.6801	14.8972	4.89286	0.060612	0.019856	0.0637815	18.1384	99912.4	304990	320938	-71.8616	0.0000000E+000	0.0000000E+000	0.0000000E+000	71.8616	0.0000000E+000	0.0000000E+000	0.0000000E+000	-71.8616	0.0000000E+000	0.0000000E+000	0.0000000E+000	-18.1384	0.0000000E+000	0.0000000E+000	0.0000000E+000	18.1384	3.05257	71.8616	-2.91228e-06	-4.81293e-06	2.12904e-09	-4.81506e-06	0.215106	9605.3	4.24898	9609.55
21.5517	16.0139	4.08236	16.5261	-14.3015	11.8664	0.215024	-0.0132228	1808.95	110.385	1	11	0.00479755	0.000290301	0	-1.97114e-05	0.000248523	5.73081e-06	115.919	0.0197409	-0.00862878	-0.0177552	-14.2492	16.5134	16.0053	4.06461	0.0586351	0.0149476	0.0605103	14.3015	110385	433008	446856	-75.6985	0.0000000E+000	0.0000000E+000	0.0000000E+000	75.6985	0.0000000E+000	0.0000000E+000	0.0000000E+000	-75.6985	0.0000000E+000	0.0000000E+000	0.0000000E+000	-14.3015	0.0000000E+000	0.0000000E+000	0.0000000E+000	14.3015	3.92272	75.6985	-2.93659e-06	-2.84321e-06	-3.28617e-09	-2.83993e-06	0.214775	16261.6	18.7951	16242.8
14.6852	16.7856	3.3411	17.1149	-11.2573	12.3272	0.215042	-0.0129115	3243.79	123.618	1	11	0.00479189	0.000279983	0	-2.07302e-05	0.000153069	6.10108e-06	47.5175	0.0217909	0.0147168	-0.0160704	-11.195	17.1262	16.8003	3.32502	0.0573045	0.0114062	0.0584286	11.2573	123618	621055	633238	-78.7427	0.0000000E+000	0.0000000E+000	0.0000000E+000	78.7427	0.0000000E+000	0.0000000E+000	0.0000000E+000	-78.7427	0.0000000E+000	0.0000000E+000	0.0000000E+000	-11.2573	0.0000000E+000	0.0000000E+000	0.0000000E+000	11.2573	5.02399	78.7427	-1.01875e-06	-2.7765e-06	-1.97635e-09	-2.77452e-06	0.214888	16655.1	11.8553	16643.2
10.0032	17.3406	2.7598	17.5588	-9.04293	12.7778	0.215029	-0.0134223	5765.06	142.419	1	11	0.00478145	0.000272311	0	-2.1131e-05	-3.78392e-05	7.44198e-06	-119.003	0.027329	-0.0132505	0.0239019	-9.12679	17.5495	17.3273	2.7837	0.0562435	0.0089513	0.0569514	9.04293	142419	894857	906120	-80.9571	0.0000000E+000	0.0000000E+000	0.0000000E+000	80.9571	0.0000000E+000	0.0000000E+000	0.0000000E+000	-80.9571	0.0000000E+000	0.0000000E+000	0.0000000E+000	-9.04293	0.0000000E+000	0.0000000E+000	0.0000000E+000	9.04293	6.28328	80.9571	-4.00815e-07	-2.88618e-06	5.07888e-10	-2.88669e-06	0.215067	16020.3	2.81914	16023.2
6.81719	17.8406	2.34132	17.9936	-7.47652	13.1175	0.215034	-0.0122724	9971.34	168.826	1	11	0.0047908	0.00026625	0	-2.24576e-05	0.000324887	5.16252e-06	-82.4708	0.0193897	0.00254065	0.0192225	-7.53614	17.9986	17.8432	2.36055	0.0551029	0.00723145	0.0555753	7.47652	168826	1.28644e+06	1.29747e+06	-82.5235	0.0000000E+000	0.0000000E+000	0.0000000E+000	82.5235	0.0000000E+000	0.0000000E+000	0.0000000E+000	-82.5235	0.0000000E+000	0.0000000E+000	0.0000000E+000	-7.47652	0.0000000E+000	0.0000000E+000	0.0000000E+000	7.47652	7.61989	82.5235	-1.32655e-06	-2.63898e-06	-3.98714e-09	-2.63499e-06	0.214709	17521.7	26.473	17495.3
4.63925	18.164	2.05091	18.2794	-6.44204	13.6025	0.215037	-0.012621	16727.3	210.57	1	11	0.00478556	0.0002618	0	-2.68572e-05	3.42479e-07	6.21979e-06	130.2	0.0237578	-0.0153347	-0.018146	-6.39087	18.2621	18.1486	2.03277	0.054361	0.00613795	0.0547064	6.44204	210570	1.86492e+06	1.87677e+06	-83.558	0.0000000E+000	0.0000000E+000	0.0000000E+000	83.558	0.0000000E+000	0.0000000E+000	0.0000000E+000	-83.558	0.0000000E+000	0.0000000E+000	0.0000000E+000	-6.44204	0.0000000E+000	0.0000000E+000	0.0000000E+000	6.44204	8.85653	83.558	-4.3996e-06	-2.71399e-06	-4.32243e-12	-2.71398e-06	0.215037	17038.1	0.0271357	17038
3.1604	18.5379	1.85969	18.6309	-5.72866	14.2954	0.215035	-0.0130285	27079.3	269.805	1	11	0.0047909	0.000257147	0	-2.84232e-05	0.000153069	1.56479e-06	31.5126	0.0060852	0.00518778	-0.00318065	-5.71734	18.6358	18.5431	1.85651	0.0534061	0.00535762	0.0536741	5.72866	269805	2.68949e+06	2.70299e+06	-84.2713	0.0000000E+000	0.0000000E+000	0.0000000E+000	84.2713	0.0000000E+000	0.0000000E+000	0.0000000E+000	-84.2713	0.0000000E+000	0.0000000E+000	0.0000000E+000	-5.72866	0.0000000E+000	0.0000000E+000	0.0000000E+000	5.72866	9.96825	84.2713	-1.56607e-06	-2.8016e-06	-1.99427e-09	-2.7996e-06	0.214882	16505	11.7488	16493.2
2.15577	18.8366	1.765	18.9191	-5.35304	15.299	0.215038	-0.0128085	41828.5	364.053	1	11	0.00479265	0.000253324	0	-2.74746e-05	0.000114888	2.5414e-06	-64.0186	0.0100322	0.00439492	0.00901834	-5.37899	18.9243	18.8409	1.77402	0.0526262	0.00493113	0.0528567	5.35304	364053	3.88526e+06	3.90228e+06	-84.647	0.0000000E+000	0.0000000E+000	0.0000000E+000	84.647	0.0000000E+000	0.0000000E+000	0.0000000E+000	-84.647	0.0000000E+000	0.0000000E+000	0.0000000E+000	-5.35304	0.0000000E+000	0.0000000E+000	0.0000000E+000	5.35304	10.6722	84.647	9.48664e-07	-2.75431e-06	-1.47153e-09	-2.75283e-06	0.214923	16788.8	8.96967	16779.8
1.46631	19.1794	1.7526	19.2594	-5.22114	16.7604	0.215041	-0.0119924	61931.4	512.854	1	11	0.00479362	0.000248898	0	-2.84078e-05	-3.78392e-05	4.24698e-06	17.6752	0.0170631	0.0162576	-0.0051807	-5.20141	19.2751	19.1957	1.74742	0.0517074	0.00472498	0.0519228	5.22114	512854	5.61238e+06	5.63576e+06	-84.7789	0.0000000E+000	0.0000000E+000	0.0000000E+000	84.7789	0.0000000E+000	0.0000000E+000	0.0000000E+000	-84.7789	0.0000000E+000	0.0000000E+000	0.0000000E+000	-5.22114	0.0000000E+000	0.0000000E+000	0.0000000E+000	5.22114	10.9434	84.7789	-9.3319e-07	-2.57887e-06	4.53784e-10	-2.57932e-06	0.215079	17931.4	3.15526	17934.6
1.00006	19.4899	1.83767	19.5764	-5.3864	19.9339	0.215041	-0.0116402	86601.3	763.126	1	12	0.00479041	0.000244704	0	-4.01407e-05	0.000286705	2.46423e-06	8.14677	0.0100703	0.00996863	-0.00142705	-5.37951	19.5862	19.4999	1.83625	0.0508564	0.00479517	0.051082	5.3864	763126	8.09354e+06	8.12943e+06	-84.6136	0.0000000E+000	0.0000000E+000	0.0000000E+000	84.6136	0.0000000E+000	0.0000000E+000	0.0000000E+000	-84.6136	0.0000000E+000	0.0000000E+000	0.0000000E+000	-5.3864	0.0000000E+000	0.0000000E+000	0.0000000E+000	5.3864	10.6058	84.6136	-1.17329e-05	-2.50311e-06	-3.3373e-09	-2.49977e-06	0.214754	18474	24.6307	18449.4
0.681362	19.831	1.99832	19.9314	-5.75413	23.0461	0.215043	-0.0111909	116890	1174.98	1	12	0.00478995	0.000240322	0	-5.94011e-05	-3.78392e-05	2.08802e-06	-63.8049	0.00868844	0.00383533	0.0077961	-5.77532	19.936	19.8348	2.00612	0.0499193	0.00503024	0.0501721	5.75413	1.17498e+06	1.16603e+07	1.17194e+07	-84.2459	0.0000000E+000	0.0000000E+000	0.0000000E+000	84.2459	0.0000000E+000	0.0000000E+000	0.0000000E+000	-84.2459	0.0000000E+000	0.0000000E+000	0.0000000E+000	-5.75413	0.0000000E+000	0.0000000E+000	0.0000000E+000	5.75413	9.92383	84.2459	-1.92604e-05	-2.40653e-06	4.23456e-10	-2.40695e-06	0.215081	19215.8	3.38124	19219.2
0.464091	20.2045	2.20413	20.3244	-6.22582	27.6028	0.215042	-0.0127467	155590	1829.87	1	12	0.00479365	0.000235857	0	-8.92589e-05	0.000210342	2.69696e-06	35.8721	0.0114347	0.00926585	-0.00670048	-6.20422	20.3329	20.2138	2.19743	0.0489118	0.00533583	0.049202	6.22582	1.82986e+06	1.67738e+07	1.68733e+07	-83.7742	0.0000000E+000	0.0000000E+000	0.0000000E+000	83.7742	0.0000000E+000	0.0000000E+000	0.0000000E+000	-83.7742	0.0000000E+000	0.0000000E+000	0.0000000E+000	-6.22582	0.0000000E+000	0.0000000E+000	0.0000000E+000	6.22582	9.16667	83.7742	-2.98578e-05	-2.74106e-06	-2.68116e-09	-2.73838e-06	0.214831	16870.4	16.5017	16853.9
0.316193	20.6279	2.59009	20.7898	-7.15675	34.2777	0.21504	-0.0147376	194336	3016.34	1	12	0.00479322	0.000230556	0	-0.000125765	0.000286705	2.29208e-06	4.8497	0.00994153	0.00990594	-0.000840478	-7.15105	20.7996	20.6378	2.58925	0.0477257	0.00599255	0.0481004	7.15675	3.01634e+06	2.40226e+07	2.42112e+07	-82.8433	0.0000000E+000	0.0000000E+000	0.0000000E+000	82.8433	0.0000000E+000	0.0000000E+000	0.0000000E+000	-82.8433	0.0000000E+000	0.0000000E+000	0.0000000E+000	-7.15675	0.0000000E+000	0.0000000E+000	0.0000000E+000	7.15675	7.96416	82.8433	-3.65058e-05	-3.16917e-06	-4.22534e-09	-3.16494e-06	0.214753	14591.2	19.454	14571.8
0.215268	21.0738	3.202	21.3157	-8.63955	44.0701	0.215044	-0.0160112	230898	5210.31	1	12	0.00479149	0.000224787	0	-0.000161948	0.000133978	2.02736e-06	31.1077	0.00901903	0.00772207	-0.00465967	-8.62406	21.3226	21.0815	3.19734	0.0463815	0.0070473	0.0469138	8.63955	5.21031e+06	3.42914e+07	3.4685e+07	-81.3605	0.0000000E+000	0.0000000E+000	0.0000000E+000	81.3605	0.0000000E+000	0.0000000E+000	0.0000000E+000	-81.3605	0.0000000E+000	0.0000000E+000	0.0000000E+000	-8.63955	0.0000000E+000	0.0000000E+000	0.0000000E+000	8.63955	6.58146	81.3605	-3.61834e-05	-3.44311e-06	-2.14515e-09	-3.44097e-06	0.21491	13430.9	8.36781	13422.5
0.146929	21.5617	4.02587	21.9343	-10.5762	58.4086	0.215041	-0.0169241	269063	9064.12	1	12	0.00479236	0.000218487	0	-0.00019434	0.00017216	1.87963e-06	4.56461	0.00860294	0.00857565	-0.00068465	-10.5703	21.9426	21.5703	4.02519	0.0448162	0.00836782	0.0455907	10.5762	9.06412e+06	4.85454e+07	4.93844e+07	-79.4238	0.0000000E+000	0.0000000E+000	0.0000000E+000	79.4238	0.0000000E+000	0.0000000E+000	0.0000000E+000	-79.4238	0.0000000E+000	0.0000000E+000	0.0000000E+000	-10.5762	0.0000000E+000	0.0000000E+000	0.0000000E+000	10.5762	5.35578	79.4238	-3.23917e-05	-3.63938e-06	-2.91366e-09	-3.63646e-06	0.214869	12706.2	10.1725	12696
0.0999041	22.2999	5.09003	22.8734	-12.8577	79.4858	0.21504	-0.0172666	312980	15498.7	1	12	0.00479502	0.000209633	0	-0.000233289	0.000324887	2.87582e-06	-26.1023	0.0137184	0.0123192	0.00603574	-12.8655	22.8868	22.3122	5.09606	0.0426226	0.00972875	0.0437188	12.8577	1.54987e+07	6.79011e+07	6.96475e+07	-77.1423	0.0000000E+000	0.0000000E+000	0.0000000E+000	77.1423	0.0000000E+000	0.0000000E+000	0.0000000E+000	-77.1423	0.0000000E+000	0.0000000E+000	0.0000000E+000	-12.8577	0.0000000E+000	0.0000000E+000	0.0000000E+000	12.8577	4.3811	77.1423	-3.89491e-05	-3.713e-06	-5.60968e-09	-3.70739e-06	0.214715	12454.1	18.8159	12435.3
0.0680626	23.3752	6.60571	24.2906	-15.78	110.412	0.215029	-0.0178035	353991	26179.1	1	12	0.00479133	0.00019725	0	-0.000319964	0.000324887	1.51968e-06	-2.18998	0.00770432	0.0076987	0.000294405	-15.7758	24.2981	23.3829	6.606	0.0396167	0.0111955	0.0411682	15.78	2.61791e+07	9.2638e+07	9.6266e+07	-74.22	0.0000000E+000	0.0000000E+000	0.0000000E+000	74.22	0.0000000E+000	0.0000000E+000	0.0000000E+000	-74.22	0.0000000E+000	0.0000000E+000	0.0000000E+000	-15.78	0.0000000E+000	0.0000000E+000	0.0000000E+000	15.78	3.53863	74.22	-8.6675e-05	-3.82827e-06	-5.78413e-09	-3.82248e-06	0.214704	12077.9	18.2484	12059.6
0.0464052	24.8135	8.68893	26.2908	-19.2987	155.764	0.215025	-0.0182909	394718	43113.4	1	12	0.0047865	0.00018206	0	-0.000524869	9.57967e-05	1.51428e-06	6.32628	0.00831751	0.00826686	-0.000916508	-19.2909	26.2983	24.8217	8.68802	0.0358988	0.0125707	0.0380361	19.2987	4.31134e+07	1.23121e+08	1.30452e+08	-70.7013	0.0000000E+000	0.0000000E+000	0.0000000E+000	70.7013	0.0000000E+000	0.0000000E+000	0.0000000E+000	-70.7013	0.0000000E+000	0.0000000E+000	0.0000000E+000	-19.2987	0.0000000E+000	0.0000000E+000	0.0000000E+000	19.2987	2.85576	70.7013	-0.000204905	-3.933e-06	-1.75221e-09	-3.93125e-06	0.214929	11755.8	5.23739	11750.6
0.0315922	26.4763	11.2206	28.7558	-22.9673	222.368	0.215018	-0.0195661	448975	68360.9	1	12	0.00479186	0.00016664	0	-0.00096445	0.000153069	2.02903e-06	-23.4063	0.0121761	0.0111742	0.00483695	-22.9674	28.768	26.4874	11.2255	0.0320189	0.0135696	0.0347756	22.9673	6.83609e+07	1.61304e+08	1.75192e+08	-67.0327	0.0000000E+000	0.0000000E+000	0.0000000E+000	67.0327	0.0000000E+000	0.0000000E+000	0.0000000E+000	-67.0327	0.0000000E+000	0.0000000E+000	0.0000000E+000	-22.9673	0.0000000E+000	0.0000000E+000	0.0000000E+000	22.9673	2.3596	67.0327	-0.000439581	-4.20707e-06	-2.99497e-09	-4.20408e-06	0.214865	10989.3	7.82318	10981.5
0.0215268	28.7124	14.0505	31.9659	-26.075	320.107	0.215014	-0.0212722	526197	101662	1	12	0.00479228	0.000149919	0	-0.00173203	0.000229433	1.3566e-06	-18.22	0.00904894	0.00859526	0.0028293	-26.0728	31.9749	28.721	14.0534	0.0280993	0.0137505	0.0312833	26.075	1.01662e+08	2.07748e+08	2.31288e+08	-63.925	0.0000000E+000	0.0000000E+000	0.0000000E+000	63.925	0.0000000E+000	0.0000000E+000	0.0000000E+000	-63.925	0.0000000E+000	0.0000000E+000	0.0000000E+000	-26.075	0.0000000E+000	0.0000000E+000	0.0000000E+000	26.075	2.04351	63.925	-0.000767576	-4.57381e-06	-4.88053e-09	-4.56893e-06	0.214785	10107.8	10.7856	10097
0.0146812	31.7413	17.6247	36.3062	-29.0416	463.41	0.215015	-0.022547	615089	144950	1	12	0.00479219	0.000131994	0	-0.00286532	0.000286705	1.15214e-06	10.641	0.00872875	0.00857865	-0.00161181	-29.0328	36.3129	31.7499	17.6231	0.0240804	0.0133709	0.0275435	29.0416	1.4495e+08	2.61049e+08	2.98592e+08	-60.9584	0.0000000E+000	0.0000000E+000	0.0000000E+000	60.9584	0.0000000E+000	0.0000000E+000	0.0000000E+000	-60.9584	0.0000000E+000	0.0000000E+000	0.0000000E+000	-29.0416	0.0000000E+000	0.0000000E+000	0.0000000E+000	29.0416	1.80096	60.9584	-0.00113329	-4.84793e-06	-6.46433e-09	-4.84146e-06	0.214728	9536.29	12.7159	9523.58
0.0100092	35.3062	22.5967	41.9182	-32.6201	673.591	0.215019	-0.0227118	703683	204485	1	12	0.0047932	0.000114347	0	-0.00433423	0.000114888	3.36012e-06	46.6873	0.0293854	0.0201578	-0.0213814	-32.5806	41.9237	35.3263	22.5753	0.020093	0.01286	0.023856	32.6201	2.04485e+08	3.19497e+08	3.79332e+08	-57.3799	0.0000000E+000	0.0000000E+000	0.0000000E+000	57.3799	0.0000000E+000	0.0000000E+000	0.0000000E+000	-57.3799	0.0000000E+000	0.0000000E+000	0.0000000E+000	-32.6201	0.0000000E+000	0.0000000E+000	0.0000000E+000	32.6201	1.56245	57.3799	-0.00146891	-4.88348e-06	-2.60931e-09	-4.88087e-06	0.214904	9467.27	5.05849	9462.22