File: txt/18608_R301_UA697_SOC00_C06.mpt
EC-Lab ASCII FILE
Nb header lines : 65

Potentio Electrochemical Impedance Spectroscopy

Run on channel : 6 (SN 65795)
User :
CE vs. WE compliance from -10 V to 10 V
Electrode connection : standard
Potential control : Ewe
Ewe ctrl range : min = -10.00 V, max = 10.00 V
Safety Limits :
	Do not start on E overload
Acquisition started on : 10/27/2025 16:24:37.187
Technique started on : 10/27/2025 16:24:39.098
Loaded Setting File :  C:\Users\Celltest\OneDrive - store-dot.com\Documents\EC-Lab\Data\@Biologic Test Protocols\anode half cell EIS SOC00.mps
Saved on :
	File : 18608_R301_UA697_SOC00_C06.mpr
	Directory : C:\Users\Celltest\OneDrive - store-dot.com\Documents\EC-Lab\Data\Gyutae\
	Host : 169.254.61.224
Device : VMP-3e (SN .003165)
Address : USB
EC-LAB for windows v11.62 (software)
Internet server v27.00 (firmware)
Command interpretor v12.03 (firmware)
Electrode material :
Initial state :
Electrolyte :
Comments :
Electrode surface area : 0.001 cm²
Characteristic mass : 0.001 g
Equivalent Weight : 0.000 g/eq.
Density : 0.000 g/cm3
Volume (V) : 0.001 cm³
Record Ece
Cycle Definition : Charge/Discharge alternance
Mode                Single sine
E (V)               0.0000
vs.                 Eoc
tE (h:m:s)          0:00:0.0000
record              0
dI                  0.000
unit dI             mA
dt (s)              0.000
fi                  100.000
unit fi             kHz
ff                  10.000
unit ff             mHz
Nd                  6
Points              per decade
spacing             Logarithmic
Va (mV)             5.0
pw                  0.10
Na                  2
corr                0
E range min (V)     -10.000
E range max (V)     10.000
I Range             Auto
Bandwidth           5
nc cycles           0
goto Ns'            0
nr cycles           0
inc. cycle          0

freq/Hz	Re(Z)/Ohm	-Im(Z)/Ohm	|Z|/Ohm	Phase(Z)/deg	time/s	<Ewe>/V	<I>/mA	Cs/µF	Cp/µF	cycle number	I Range	|Ewe|/V	|I|/A	Ns	(Q-Qo)/mA.h	<Ece>/V	|Ece|/V	Phase(Zce)/deg	|Zce|/Ohm	Re(Zce)/Ohm	-Im(Zce)/Ohm	Phase(Zwe-ce)/deg	|Zwe-ce|/Ohm	Re(Zwe-ce)/Ohm	-Im(Zwe-ce)/Ohm	Re(Y)/Ohm-1	Im(Y)/Ohm-1	|Y|/Ohm-1	Phase(Y)/deg	Re(C)/nF	Im(C)/nF	|C|/nF	Phase(C)/deg	Re(M)	Im(M)	|M|	Phase(M)/deg	Re(Permittivity)	Im(Permittivity)	|Permittivity|	Phase(Permittivity)/deg	Re(Resistivity)/Ohm.cm	Im(Resistivity)/Ohm.cm	|Resistivity|/Ohm.cm	Phase(Resistivity)/deg	Re(Conductivity)/mS/cm	Im(Conductivity)/mS/cm	|Conductivity|/mS/cm	Phase(Conductivity)/deg	Tan(Delta)	Loss Angle(Delta)/deg	dq/mA.h	Pwe/W	Pce/W	Pwe-ce/W	<Ewe-Ece>/V	Rwe/Ohm	Rce/Ohm	Rwe-ce/Ohm		Ewe-Ece/V
100004	0.977275	0.317569	1.02758	-18.0018	1.91056	0.213221	0.0508394	5.01147	0.478644	1	9	0.00485224	0.00472202	0	-2.82957e-06	0.00026816	4.68346e-05	88.443	0.00991835	0.000269489	-0.00991468	-17.4699	1.02481	0.977544	0.307655	0.925523	0.300752	0.973162	18.0018	478.644	1472.96	1548.78	-71.9982	0.0000000E+000	0.0000000E+000	0.0000000E+000	71.9982	0.0000000E+000	0.0000000E+000	0.0000000E+000	-71.9982	0.0000000E+000	0.0000000E+000	0.0000000E+000	-18.0018	0.0000000E+000	0.0000000E+000	0.0000000E+000	18.0018	3.07736	71.9982	-2.82957e-06	1.084e-05	1.36331e-08	1.08264e-05	0.212953	4194.01	5.27464	4188.73
68132	1.06305	0.35001	1.11919	-18.2242	2.41754	0.213205	0.0508022	6.67404	0.652744	1	9	0.00503895	0.00450232	0	1.57776e-05	0.000306356	3.29094e-05	89.2961	0.00730942	8.9798e-05	-0.00730887	-17.8666	1.11701	1.06314	0.342701	0.848687	0.279431	0.893505	18.2242	652.744	1982.51	2087.21	-71.7758	0.0000000E+000	0.0000000E+000	0.0000000E+000	71.7758	0.0000000E+000	0.0000000E+000	0.0000000E+000	-71.7758	0.0000000E+000	0.0000000E+000	0.0000000E+000	-18.2242	0.0000000E+000	0.0000000E+000	0.0000000E+000	18.2242	3.0372	71.7758	1.86072e-05	1.08313e-05	1.55635e-08	1.08157e-05	0.212899	4196.78	6.03036	4190.75
46420.4	1.15141	0.382425	1.21326	-18.3732	2.92657	0.213191	0.0504669	8.9653	0.89074	1	9	0.00506934	0.00417828	0	3.06427e-06	5.80813e-05	1.98991e-05	65.7368	0.0047625	0.00195705	-0.00434182	-18.1496	1.21376	1.15337	0.378084	0.78221	0.2598	0.824226	18.3732	890.74	2681.85	2825.91	-71.6268	0.0000000E+000	0.0000000E+000	0.0000000E+000	71.6268	0.0000000E+000	0.0000000E+000	0.0000000E+000	-71.6268	0.0000000E+000	0.0000000E+000	0.0000000E+000	-18.3732	0.0000000E+000	0.0000000E+000	0.0000000E+000	18.3732	3.01082	71.6268	-1.27133e-05	1.07591e-05	2.93119e-09	1.07562e-05	0.213133	4224.37	1.15088	4223.21
31621.1	1.24597	0.422115	1.31553	-18.7155	3.43356	0.213195	0.0410054	11.9237	1.22764	1	9	0.00503786	0.00382951	0	-1.53389e-06	0.000249062	1.92408e-05	44.3223	0.00502433	0.00359451	-0.00351047	-18.5208	1.31782	1.24957	0.418605	0.719954	0.243908	0.760148	18.7155	1227.64	3623.66	3825.96	-71.2845	0.0000000E+000	0.0000000E+000	0.0000000E+000	71.2845	0.0000000E+000	0.0000000E+000	0.0000000E+000	-71.2845	0.0000000E+000	0.0000000E+000	0.0000000E+000	-18.7155	0.0000000E+000	0.0000000E+000	0.0000000E+000	18.7155	2.95174	71.2845	-4.59816e-06	8.74213e-06	1.02129e-08	8.73192e-06	0.212946	5199.18	6.07387	5193.11
21544.7	1.34569	0.462857	1.42307	-18.9809	3.81654	0.213192	0.0407447	15.96	1.68841	1	9	0.00538147	0.0037816	0	7.34542e-06	0.00045914	6.08197e-06	-66.6352	0.00160831	0.000637829	0.00147642	-19.0288	1.42415	1.34633	0.464334	0.664499	0.228558	0.702708	18.9809	1688.41	4908.79	5191.05	-71.0191	0.0000000E+000	0.0000000E+000	0.0000000E+000	71.0191	0.0000000E+000	0.0000000E+000	0.0000000E+000	-71.0191	0.0000000E+000	0.0000000E+000	0.0000000E+000	-18.9809	0.0000000E+000	0.0000000E+000	0.0000000E+000	18.9809	2.90735	71.0191	8.87931e-06	8.68643e-06	1.87075e-08	8.66772e-06	0.212733	5232.39	11.2687	5221.12
14678.6	1.45273	0.511236	1.54006	-19.3877	4.07555	0.21319	0.0388449	21.2087	2.33712	1	9	0.00538734	0.00349813	0	1.09299e-05	-5.65069e-05	7.07595e-06	-29.1251	0.00202278	0.00176702	0.000984521	-19.4004	1.54206	1.4545	0.512221	0.612504	0.215549	0.649324	19.3877	2337.12	6641.17	7040.4	-70.6123	0.0000000E+000	0.0000000E+000	0.0000000E+000	70.6123	0.0000000E+000	0.0000000E+000	0.0000000E+000	-70.6123	0.0000000E+000	0.0000000E+000	0.0000000E+000	-19.3877	0.0000000E+000	0.0000000E+000	0.0000000E+000	19.3877	2.8416	70.6123	3.58452e-06	8.28134e-06	-2.19501e-09	8.28353e-06	0.213246	5488.24	1.45468	5489.69
10002.2	1.56381	0.573751	1.66574	-20.1477	4.33452	0.213196	0.0401859	27.7332	3.29027	1	9	0.00495767	0.00297625	0	1.13016e-05	-0.000113801	6.35085e-06	19.1581	0.00213384	0.00201566	-0.000700277	-20.1013	1.66739	1.56583	0.573051	0.563597	0.20678	0.600333	20.1477	3290.27	8967.93	9552.47	-69.8523	0.0000000E+000	0.0000000E+000	0.0000000E+000	69.8523	0.0000000E+000	0.0000000E+000	0.0000000E+000	-69.8523	0.0000000E+000	0.0000000E+000	0.0000000E+000	-20.1477	0.0000000E+000	0.0000000E+000	0.0000000E+000	20.1477	2.72559	69.8523	3.71644e-07	8.56749e-06	-4.5732e-09	8.57206e-06	0.21331	5305.25	2.83187	5308.09
6810.42	1.69138	0.665433	1.81757	-21.4759	4.59356	0.213203	0.0392174	35.119	4.70723	1	9	0.0046981	0.00258482	0	1.19929e-05	-0.000171095	5.06347e-05	76.6651	0.0195893	0.00451812	-0.0190611	-20.8637	1.8149	1.6959	0.646371	0.511985	0.201428	0.550184	21.4759	4707.23	11964.8	12857.4	-68.5241	0.0000000E+000	0.0000000E+000	0.0000000E+000	68.5241	0.0000000E+000	0.0000000E+000	0.0000000E+000	-68.5241	0.0000000E+000	0.0000000E+000	0.0000000E+000	-21.4759	0.0000000E+000	0.0000000E+000	0.0000000E+000	21.4759	2.54178	68.5241	6.91278e-07	8.36126e-06	-6.7099e-09	8.36798e-06	0.213374	5436.45	4.36274	5440.81
4646	1.84104	0.737941	1.98343	-21.8423	4.85861	0.213176	0.0141109	46.4215	6.42583	1	9	0.00454152	0.00228973	0	1.28139e-05	0.000210866	1.01927e-05	-64.7656	0.00445148	0.00189776	0.00402668	-21.9297	1.98669	1.84294	0.741967	0.467983	0.187581	0.504177	21.8423	6425.83	16031.4	17271.3	-68.1577	0.0000000E+000	0.0000000E+000	0.0000000E+000	68.1577	0.0000000E+000	0.0000000E+000	0.0000000E+000	-68.1577	0.0000000E+000	0.0000000E+000	0.0000000E+000	-21.8423	0.0000000E+000	0.0000000E+000	0.0000000E+000	21.8423	2.49484	68.1577	8.21011e-07	3.0081e-06	2.9755e-09	3.00513e-06	0.212965	15107.2	14.9435	15092.2
3163.08	1.99646	0.84192	2.16672	-22.8654	5.40968	0.212935	-0.0948452	59.764	9.02347	1	9	0.00497044	0.00229399	0	1.77764e-06	7.71793e-05	1.16209e-05	-90.9523	0.00506579	-8.41941e-05	0.00506509	-22.9896	2.16862	1.99638	0.846985	0.42526	0.179334	0.461526	22.8654	9023.47	21397.6	23222.4	-67.1346	0.0000000E+000	0.0000000E+000	0.0000000E+000	67.1346	0.0000000E+000	0.0000000E+000	0.0000000E+000	-67.1346	0.0000000E+000	0.0000000E+000	0.0000000E+000	-22.8654	0.0000000E+000	0.0000000E+000	0.0000000E+000	22.8654	2.37132	67.1346	-1.10362e-05	-2.01959e-05	-7.32009e-09	-2.01886e-05	0.212858	2245.08	0.81374	2244.27
2155.69	2.17478	0.982945	2.3866	-24.3218	5.86078	0.21307	0.0329221	75.1112	12.741	1	9	0.00490738	0.00205623	0	5.83989e-06	0.000153571	9.14842e-06	74.8832	0.00444913	0.00116028	-0.00429518	-24.2163	2.38589	2.17594	0.97865	0.381819	0.172572	0.419007	24.3218	12741	28189.7	30935.3	-65.6782	0.0000000E+000	0.0000000E+000	0.0000000E+000	65.6782	0.0000000E+000	0.0000000E+000	0.0000000E+000	-65.6782	0.0000000E+000	0.0000000E+000	0.0000000E+000	-24.3218	0.0000000E+000	0.0000000E+000	0.0000000E+000	24.3218	2.21251	65.6782	4.06225e-06	7.01472e-06	5.0559e-09	7.00967e-06	0.212917	6471.95	4.66469	6467.29
1468.59	2.37153	1.15102	2.6361	-25.8896	6.31202	0.213074	0.0354179	94.1535	17.9506	1	9	0.00488181	0.00185191	0	1.11155e-05	0.000210866	4.59843e-06	-37.9567	0.00248307	0.00195785	0.00152725	-25.9008	2.63853	2.37349	1.15255	0.341276	0.165638	0.379349	25.8896	17950.6	36985	41111	-64.1104	0.0000000E+000	0.0000000E+000	0.0000000E+000	64.1104	0.0000000E+000	0.0000000E+000	0.0000000E+000	-64.1104	0.0000000E+000	0.0000000E+000	0.0000000E+000	-25.8896	0.0000000E+000	0.0000000E+000	0.0000000E+000	25.8896	2.06037	64.1104	5.27563e-06	7.54664e-06	7.46841e-09	7.53917e-06	0.212864	6016.02	5.95365	6010.06
1000.32	2.59078	1.36586	2.92877	-27.7982	6.76277	0.213068	0.0351944	116.486	25.3347	1	9	0.00484612	0.00165466	0	1.42629e-05	0.000134473	9.19326e-06	-43.0566	0.00555599	0.00405965	0.00379319	-27.8268	2.93413	2.59484	1.36965	0.302036	0.159234	0.34144	27.7982	25334.7	48055.1	54324.4	-62.2018	0.0000000E+000	0.0000000E+000	0.0000000E+000	62.2018	0.0000000E+000	0.0000000E+000	0.0000000E+000	-62.2018	0.0000000E+000	0.0000000E+000	0.0000000E+000	-27.7982	0.0000000E+000	0.0000000E+000	0.0000000E+000	27.7982	1.89681	62.2018	3.1474e-06	7.4988e-06	4.73271e-09	7.49407e-06	0.212934	6054.05	3.82088	6050.23
681.09	2.89886	1.67549	3.34823	-30.0272	7.45856	0.213113	-0.022632	139.468	34.9242	1	10	0.00492054	0.00146959	0	1.39657e-05	7.71793e-05	5.67205e-06	50.0489	0.00385961	0.00247838	-0.00295875	-29.9622	3.3489	2.90134	1.67253	0.25858	0.149455	0.298665	30.0272	34924.2	60424.3	69791.1	-59.9728	0.0000000E+000	0.0000000E+000	0.0000000E+000	59.9728	0.0000000E+000	0.0000000E+000	0.0000000E+000	-59.9728	0.0000000E+000	0.0000000E+000	0.0000000E+000	-30.0272	0.0000000E+000	0.0000000E+000	0.0000000E+000	30.0272	1.73015	59.9728	-2.97202e-07	-4.82318e-06	-1.74673e-09	-4.82143e-06	0.213036	9416.42	3.41018	9413.01
463.961	3.27681	2.05771	3.86932	-32.1272	7.91029	0.213107	-0.0236941	166.707	47.1469	1	10	0.0048782	0.00126074	0	1.07198e-05	-7.5605e-05	3.97802e-06	-65.6622	0.00315531	0.00130035	0.0028749	-32.153	3.87195	3.27811	2.06059	0.218868	0.13744	0.258443	32.1272	47146.9	75079.3	88655.1	-57.8728	0.0000000E+000	0.0000000E+000	0.0000000E+000	57.8728	0.0000000E+000	0.0000000E+000	0.0000000E+000	-57.8728	0.0000000E+000	0.0000000E+000	0.0000000E+000	-32.1272	0.0000000E+000	0.0000000E+000	0.0000000E+000	32.1272	1.59246	57.8728	-3.24587e-06	-5.04937e-06	1.79139e-09	-5.05116e-06	0.213182	8994.07	3.19088	8997.26
316.316	3.81629	2.49459	4.55928	-33.1714	8.35805	0.21311	-0.024704	201.697	60.3818	1	10	0.00485269	0.00106436	0	8.5563e-06	0.000420944	1.03136e-05	83.4775	0.00968996	0.00110071	-0.00962724	-33.0624	4.55494	3.81739	2.48496	0.18359	0.120007	0.219333	33.1714	60381.8	92373.7	110358	-56.8286	0.0000000E+000	0.0000000E+000	0.0000000E+000	56.8286	0.0000000E+000	0.0000000E+000	0.0000000E+000	-56.8286	0.0000000E+000	0.0000000E+000	0.0000000E+000	-33.1714	0.0000000E+000	0.0000000E+000	0.0000000E+000	33.1714	1.52983	56.8286	-2.16354e-06	-5.26466e-06	-1.0399e-08	-5.25426e-06	0.212689	8626.52	17.0395	8609.48
215.345	4.54876	2.95084	5.42205	-32.972	8.80853	0.213099	-0.0245251	250.462	74.1829	1	10	0.00482699	0.000890252	0	6.51497e-06	0.000287258	9.93779e-06	27.7106	0.0111629	0.0098826	-0.00519082	-32.8692	5.42753	4.55864	2.94564	0.154727	0.100373	0.184432	32.972	74182.9	114354	136308	-57.028	0.0000000E+000	0.0000000E+000	0.0000000E+000	57.028	0.0000000E+000	0.0000000E+000	0.0000000E+000	-57.028	0.0000000E+000	0.0000000E+000	0.0000000E+000	-32.972	0.0000000E+000	0.0000000E+000	0.0000000E+000	32.972	1.54152	57.028	-2.04133e-06	-5.22628e-06	-7.04504e-09	-5.21923e-06	0.212811	8688.99	11.7128	8677.28
146.737	5.51171	3.29884	6.42349	-30.9012	9.25449	0.213094	-0.0256729	328.789	86.7159	1	10	0.00482243	0.000750749	0	3.34463e-06	0.000440042	7.86491e-06	-3.86958	0.0104761	0.0104522	0.000706985	-30.8588	6.43283	5.52216	3.29955	0.133581	0.0799501	0.155679	30.9012	86715.9	144885	168853	-59.0988	0.0000000E+000	0.0000000E+000	0.0000000E+000	59.0988	0.0000000E+000	0.0000000E+000	0.0000000E+000	-59.0988	0.0000000E+000	0.0000000E+000	0.0000000E+000	-30.9012	0.0000000E+000	0.0000000E+000	0.0000000E+000	30.9012	1.6708	59.0988	-3.17034e-06	-5.47075e-06	-1.12972e-08	-5.45945e-06	0.212654	8300.35	17.1403	8283.21
100.032	6.61524	3.42297	7.44836	-27.3587	9.70586	0.213089	-0.0248084	464.813	98.1663	1	10	0.00481989	0.000647108	0	2.79177e-07	-0.000113801	8.93399e-06	17.7267	0.013806	0.0131505	-0.00420361	-27.2836	7.45812	6.62839	3.41876	0.119241	0.0616994	0.134258	27.3587	98166.3	189717	213609	-62.6413	0.0000000E+000	0.0000000E+000	0.0000000E+000	62.6413	0.0000000E+000	0.0000000E+000	0.0000000E+000	-62.6413	0.0000000E+000	0.0000000E+000	0.0000000E+000	-27.3587	0.0000000E+000	0.0000000E+000	0.0000000E+000	27.3587	1.9326	62.6413	-3.06545e-06	-5.28639e-06	2.82322e-09	-5.28922e-06	0.213203	8589.4	4.5872	8593.99
68.104	7.70018	3.27542	8.36786	-23.0434	10.1685	0.213095	-0.0234668	713.479	109.316	1	10	0.00481094	0.00057493	0	-2.59237e-06	-3.74089e-05	7.68127e-06	56.7466	0.0133604	0.00732606	-0.0111726	-22.9534	8.37024	7.70751	3.26424	0.109969	0.0467775	0.119505	23.0434	109316	256992	279276	-66.9566	0.0000000E+000	0.0000000E+000	0.0000000E+000	66.9566	0.0000000E+000	0.0000000E+000	0.0000000E+000	-66.9566	0.0000000E+000	0.0000000E+000	0.0000000E+000	-23.0434	0.0000000E+000	0.0000000E+000	0.0000000E+000	23.0434	2.3509	66.9566	-2.87155e-06	-5.00066e-06	8.77868e-10	-5.00154e-06	0.213133	9080.7	1.59412	9082.3
46.4415	8.65074	2.9274	9.13263	-18.6958	10.6057	0.213084	-0.028643	1170.66	120.283	1	10	0.00481352	0.000527068	0	-6.19573e-06	9.62774e-05	5.91239e-06	-11.6372	0.0112175	0.0109869	0.00226272	-18.6871	9.14377	8.66173	2.92966	0.10372	0.0350986	0.109497	18.6958	120283	355447	375247	-71.3042	0.0000000E+000	0.0000000E+000	0.0000000E+000	71.3042	0.0000000E+000	0.0000000E+000	0.0000000E+000	-71.3042	0.0000000E+000	0.0000000E+000	0.0000000E+000	-18.6958	0.0000000E+000	0.0000000E+000	0.0000000E+000	18.6958	2.95509	71.3042	-3.60336e-06	-6.10336e-06	-2.75767e-09	-6.1006e-06	0.212987	7439.3	3.36129	7435.94
31.6296	9.35469	2.49516	9.68174	-14.9347	11.0356	0.21309	-0.0296156	2016.64	133.942	1	10	0.00480389	0.000496181	0	-8.53159e-06	3.89833e-05	9.28575e-06	140.848	0.0187144	-0.0145125	-0.011816	-14.8892	9.66467	9.34018	2.48334	0.0997982	0.026619	0.103287	14.9347	133942	502169	519725	-75.0653	0.0000000E+000	0.0000000E+000	0.0000000E+000	75.0653	0.0000000E+000	0.0000000E+000	0.0000000E+000	-75.0653	0.0000000E+000	0.0000000E+000	0.0000000E+000	-14.9347	0.0000000E+000	0.0000000E+000	0.0000000E+000	14.9347	3.74914	75.0653	-2.33586e-06	-6.3108e-06	-1.15451e-09	-6.30965e-06	0.213051	7195.2	1.31631	7193.88
21.5517	9.86893	2.08574	10.0869	-11.9335	11.4564	0.213089	-0.0314081	3540.61	151.384	1	10	0.00479937	0.000475801	0	-1.17641e-05	0.000115375	7.05867e-06	-88.1218	0.0148353	0.000486238	0.0148274	-12.0153	10.0905	9.86941	2.10057	0.0969957	0.0204995	0.0991382	11.9335	151384	716293	732115	-78.0665	0.0000000E+000	0.0000000E+000	0.0000000E+000	78.0665	0.0000000E+000	0.0000000E+000	0.0000000E+000	-78.0665	0.0000000E+000	0.0000000E+000	0.0000000E+000	-11.9335	0.0000000E+000	0.0000000E+000	0.0000000E+000	11.9335	4.73162	78.0665	-3.23247e-06	-6.69271e-06	-3.62372e-09	-6.68908e-06	0.212973	6784.51	3.67343	6780.83
14.6852	10.273	1.74038	10.4194	-9.61536	11.9172	0.21311	-0.0222147	6227.26	173.741	1	10	0.0048092	0.000461562	0	-1.31449e-05	0.000191768	7.20007e-06	-103.738	0.0155994	-0.00370468	0.0151531	-9.70092	10.4183	10.2693	1.75553	0.0946266	0.016031	0.0959749	9.61536	173741	1.02555e+06	1.04016e+06	-80.3846	0.0000000E+000	0.0000000E+000	0.0000000E+000	80.3846	0.0000000E+000	0.0000000E+000	0.0000000E+000	-80.3846	0.0000000E+000	0.0000000E+000	0.0000000E+000	-9.61536	0.0000000E+000	0.0000000E+000	0.0000000E+000	9.61536	5.90273	80.3846	-1.38088e-06	-4.73416e-06	-4.26006e-09	-4.7299e-06	0.212918	9593.18	8.63247	9584.55
10.0032	10.5658	1.45091	10.6649	-7.81904	12.3678	0.21311	-0.0241413	10965.8	202.958	1	10	0.00480644	0.000450677	0	-1.96247e-05	0.000344552	6.43866e-06	-57.2882	0.0142866	0.00772068	0.0120208	-7.87733	10.6742	10.5735	1.46293	0.0928936	0.0127563	0.0937654	7.81904	202958	1.47797e+06	1.49184e+06	-82.181	0.0000000E+000	0.0000000E+000	0.0000000E+000	82.181	0.0000000E+000	0.0000000E+000	0.0000000E+000	-82.181	0.0000000E+000	0.0000000E+000	0.0000000E+000	-7.81904	0.0000000E+000	0.0000000E+000	0.0000000E+000	7.81904	7.28218	82.181	-6.47973e-06	-5.14477e-06	-8.31793e-09	-5.13645e-06	0.212766	8827.62	14.2723	8813.35
6.81719	10.8364	1.25896	10.9093	-6.62687	12.8995	0.213126	-0.013976	18543.9	246.965	1	11	0.00480131	0.000440112	0	-2.05456e-05	0.000191768	6.88203e-06	-33.8711	0.015637	0.0129833	0.0087149	-6.66442	10.9232	10.8494	1.26768	0.0910525	0.0105784	0.091665	6.62687	246965	2.12572e+06	2.14002e+06	-83.3731	0.0000000E+000	0.0000000E+000	0.0000000E+000	83.3731	0.0000000E+000	0.0000000E+000	0.0000000E+000	-83.3731	0.0000000E+000	0.0000000E+000	0.0000000E+000	-6.62687	0.0000000E+000	0.0000000E+000	0.0000000E+000	6.62687	8.60739	83.3731	-9.20954e-07	-2.97865e-06	-2.68015e-09	-2.97597e-06	0.212934	15249.4	13.7212	15235.7
4.63925	11.0591	1.13134	11.1168	-5.84098	13.3834	0.213138	-0.0134067	30323.5	314.052	1	11	0.00480548	0.000432271	0	-2.69629e-05	0.00036365	9.07036e-06	-52.6655	0.0209831	0.0127255	0.0166838	-5.91975	11.1312	11.0719	1.14802	0.0894865	0.00915438	0.0899536	5.84098	314052	3.06994e+06	3.08596e+06	-84.159	0.0000000E+000	0.0000000E+000	0.0000000E+000	84.159	0.0000000E+000	0.0000000E+000	0.0000000E+000	-84.159	0.0000000E+000	0.0000000E+000	0.0000000E+000	-5.84098	0.0000000E+000	0.0000000E+000	0.0000000E+000	5.84098	9.77527	84.159	-6.4173e-06	-2.85748e-06	-4.87536e-09	-2.85261e-06	0.212774	15897.8	27.1244	15870.7
3.1604	11.2752	1.0538	11.3244	-5.33942	14.0764	0.21313	-0.0142506	47788.4	413.815	1	11	0.00480883	0.000424644	0	-2.85977e-05	-0.000113801	4.3446e-06	8.9609	0.0102311	0.0101063	-0.00159361	-5.32664	11.3343	11.2853	1.0522	0.0879219	0.00821728	0.0883051	5.33942	413816	4.42768e+06	4.44697e+06	-84.6606	0.0000000E+000	0.0000000E+000	0.0000000E+000	84.6606	0.0000000E+000	0.0000000E+000	0.0000000E+000	-84.6606	0.0000000E+000	0.0000000E+000	0.0000000E+000	-5.33942	0.0000000E+000	0.0000000E+000	0.0000000E+000	5.33942	10.6996	84.6606	-1.63478e-06	-3.03723e-06	1.62173e-09	-3.03885e-06	0.213244	14955.9	7.9857	14963.8
2.15577	11.4704	1.00214	11.5141	-4.9931	15.08	0.213136	-0.0144821	73670.1	558.068	1	11	0.00481366	0.000418067	0	-2.51942e-05	0.00026816	3.55896e-06	-9.97982	0.00851288	0.00838407	0.00147529	-4.99678	11.5226	11.4788	1.00361	0.0865206	0.00755907	0.0868502	4.9931	558068	6.3876e+06	6.41193e+06	-85.0069	0.0000000E+000	0.0000000E+000	0.0000000E+000	85.0069	0.0000000E+000	0.0000000E+000	0.0000000E+000	-85.0069	0.0000000E+000	0.0000000E+000	0.0000000E+000	-4.9931	0.0000000E+000	0.0000000E+000	0.0000000E+000	4.9931	11.4459	85.0069	3.40354e-06	-3.08666e-06	-3.88351e-09	-3.08278e-06	0.212868	14717.2	18.5166	14698.7
1.46631	11.6589	0.990168	11.7008	-4.85439	16.5415	0.213143	-0.0128605	109619	785	1	11	0.0048126	0.000411305	0	-2.34861e-05	0.000210866	3.2267e-06	126.044	0.00784504	-0.00461607	-0.00634323	-4.82534	11.6957	11.6542	0.983824	0.0851575	0.00723228	0.085464	4.85439	785000	9.24309e+06	9.27636e+06	-85.1456	0.0000000E+000	0.0000000E+000	0.0000000E+000	85.1456	0.0000000E+000	0.0000000E+000	0.0000000E+000	-85.1456	0.0000000E+000	0.0000000E+000	0.0000000E+000	-4.85439	0.0000000E+000	0.0000000E+000	0.0000000E+000	4.85439	11.7746	85.1456	1.70806e-06	-2.74112e-06	-2.71184e-09	-2.73841e-06	0.212932	16573.4	16.3964	16557
1.00006	11.847	1.04408	11.893	-5.03646	18.672	0.213136	-0.0121019	152426	1174.75	1	11	0.00481156	0.000404572	0	-3.18948e-05	5.80813e-05	2.85269e-06	44.3578	0.00705111	0.00504146	-0.00492969	-5.01068	11.8976	11.8521	1.03915	0.0837587	0.00738165	0.0840834	5.03646	1.17475e+06	1.33298e+07	1.33814e+07	-84.9635	0.0000000E+000	0.0000000E+000	0.0000000E+000	84.9635	0.0000000E+000	0.0000000E+000	0.0000000E+000	-84.9635	0.0000000E+000	0.0000000E+000	0.0000000E+000	-5.03646	0.0000000E+000	0.0000000E+000	0.0000000E+000	5.03646	11.3469	84.9635	-8.40866e-06	-2.57935e-06	-7.02893e-10	-2.57865e-06	0.213078	17611.8	4.79936	17607
0.681362	12.0185	1.14318	12.0727	-5.43354	21.7842	0.213131	-0.0120254	204328	1832.09	1	11	0.00481224	0.000398605	0	-5.48862e-05	0.000478238	2.6598e-06	17.3795	0.00667276	0.00636813	-0.00199315	-5.42127	12.0789	12.0248	1.14119	0.0824592	0.00784339	0.0828314	5.43354	1.83209e+06	1.92611e+07	1.9348e+07	-84.5665	0.0000000E+000	0.0000000E+000	0.0000000E+000	84.5665	0.0000000E+000	0.0000000E+000	0.0000000E+000	-84.5665	0.0000000E+000	0.0000000E+000	0.0000000E+000	-5.43354	0.0000000E+000	0.0000000E+000	0.0000000E+000	5.43354	10.5132	84.5665	-2.29914e-05	-2.56298e-06	-5.75101e-09	-2.55723e-06	0.212653	17723.4	39.769	17683.6
0.464091	12.1932	1.29495	12.2618	-6.06223	26.3407	0.213121	-0.0147466	264828	2953.67	1	11	0.00481285	0.000392507	0	-9.76431e-05	0.000115375	2.50276e-06	39.3317	0.00637634	0.00493203	-0.00404138	-6.04102	12.2663	12.1982	1.29091	0.081098	0.00861281	0.081554	6.06223	2.95367e+06	2.78117e+07	2.79681e+07	-83.9378	0.0000000E+000	0.0000000E+000	0.0000000E+000	83.9378	0.0000000E+000	0.0000000E+000	0.0000000E+000	-83.9378	0.0000000E+000	0.0000000E+000	0.0000000E+000	-6.06223	0.0000000E+000	0.0000000E+000	0.0000000E+000	6.06223	9.41598	83.9378	-4.27569e-05	-3.14282e-06	-1.7014e-09	-3.14112e-06	0.213006	14452.2	7.82384	14444.3
0.316193	12.4212	1.52748	12.5148	-7.01066	33.0157	0.213121	-0.0178529	329527	4909.03	1	11	0.00481142	0.000384458	0	-0.000155744	-5.65069e-05	2.60037e-06	-74.5511	0.00676372	0.00180172	0.00651934	-7.03927	12.5174	12.423	1.534	0.0793079	0.00975277	0.0799053	7.01066	4.90903e+06	3.99194e+07	4.02201e+07	-82.9893	0.0000000E+000	0.0000000E+000	0.0000000E+000	82.9893	0.0000000E+000	0.0000000E+000	0.0000000E+000	-82.9893	0.0000000E+000	0.0000000E+000	0.0000000E+000	-7.01066	0.0000000E+000	0.0000000E+000	0.0000000E+000	7.01066	8.13183	82.9893	-5.81008e-05	-3.80483e-06	1.00881e-09	-3.80584e-06	0.213178	11937.6	3.16514	11940.8
0.215268	12.7028	1.91779	12.8468	-8.58532	42.8081	0.213135	-0.0207307	385514	8591.22	1	11	0.00481517	0.000374816	0	-0.000216213	0.000306356	2.26449e-06	16.336	0.00604161	0.0057977	-0.00169932	-8.57397	12.8522	12.7086	1.91609	0.0769684	0.0116202	0.0778406	8.58532	8.59122e+06	5.69054e+07	5.75503e+07	-81.4147	0.0000000E+000	0.0000000E+000	0.0000000E+000	81.4147	0.0000000E+000	0.0000000E+000	0.0000000E+000	-81.4147	0.0000000E+000	0.0000000E+000	0.0000000E+000	-8.58532	0.0000000E+000	0.0000000E+000	0.0000000E+000	8.58532	6.62367	81.4147	-6.04696e-05	-4.41843e-06	-6.35096e-09	-4.41208e-06	0.212828	10281.1	14.7779	10266.3
0.146929	13.0068	2.44481	13.2346	-10.6453	57.1464	0.213136	-0.0230321	443065	15119.5	1	11	0.00480924	0.000363384	0	-0.000267498	0.000153571	1.69835e-06	14.3455	0.0046737	0.00452797	-0.001158	-10.6368	13.2388	13.0114	2.44365	0.0742591	0.013958	0.0755595	10.6453	1.51195e+07	8.04383e+07	8.18469e+07	-79.3547	0.0000000E+000	0.0000000E+000	0.0000000E+000	79.3547	0.0000000E+000	0.0000000E+000	0.0000000E+000	-79.3547	0.0000000E+000	0.0000000E+000	0.0000000E+000	-10.6453	0.0000000E+000	0.0000000E+000	0.0000000E+000	10.6453	5.32017	79.3547	-5.12845e-05	-4.90897e-06	-3.53708e-09	-4.90543e-06	0.212982	9253.84	6.66771	9247.18
0.0999041	13.403	3.09855	13.7565	-13.0171	78.2235	0.213122	-0.0245294	514137	26084.2	1	11	0.00481057	0.000349694	0	-0.000312657	1.98852e-05	8.00465e-07	-1.65361	0.00228904	0.00228809	6.60549e-05	-13.0152	13.7588	13.4053	3.09861	0.0708248	0.0163735	0.0726928	13.0171	2.60842e+07	1.12829e+08	1.15805e+08	-76.9829	0.0000000E+000	0.0000000E+000	0.0000000E+000	76.9829	0.0000000E+000	0.0000000E+000	0.0000000E+000	-76.9829	0.0000000E+000	0.0000000E+000	0.0000000E+000	-13.0171	0.0000000E+000	0.0000000E+000	0.0000000E+000	13.0171	4.32558	76.9829	-4.51595e-05	-5.22776e-06	-4.87773e-10	-5.22728e-06	0.213102	8688.44	0.810668	8687.63
0.0680626	13.9822	3.97445	14.5361	-15.8679	109.151	0.213128	-0.0254882	588348	43983.9	1	11	0.00480968	0.000330879	0	-0.000399442	0.000115375	2.26995e-06	18.475	0.00686038	0.00650681	-0.00217399	-15.8526	14.5417	13.9887	3.97228	0.0661729	0.0188097	0.0687943	15.8679	4.39839e+07	1.54736e+08	1.60866e+08	-74.1321	0.0000000E+000	0.0000000E+000	0.0000000E+000	74.1321	0.0000000E+000	0.0000000E+000	0.0000000E+000	-74.1321	0.0000000E+000	0.0000000E+000	0.0000000E+000	-15.8679	0.0000000E+000	0.0000000E+000	0.0000000E+000	15.8679	3.51802	74.1321	-8.67846e-05	-5.43226e-06	-2.94071e-09	-5.42932e-06	0.213013	8361.84	4.52662	8357.31
0.0464052	14.821	5.21192	15.7107	-19.3746	154.501	0.213121	-0.0263166	658045	72420	1	11	0.00480879	0.000306083	0	-0.000624264	0.000210866	1.02213e-06	-37.0974	0.00333937	0.00266352	0.00201421	-19.3783	15.7139	14.8237	5.21394	0.0600462	0.0211157	0.0636507	19.3746	7.242e+07	2.05939e+08	2.18302e+08	-70.6254	0.0000000E+000	0.0000000E+000	0.0000000E+000	70.6254	0.0000000E+000	0.0000000E+000	0.0000000E+000	-70.6254	0.0000000E+000	0.0000000E+000	0.0000000E+000	-19.3746	0.0000000E+000	0.0000000E+000	0.0000000E+000	19.3746	2.84368	70.6254	-0.000224822	-5.60862e-06	-5.54927e-09	-5.60307e-06	0.21291	8098.33	8.01263	8090.31
0.0315922	15.7084	6.8515	17.1375	-23.5653	252.877	0.213126	-0.0301041	735283	117525	1	12	0.00481095	0.000280726	0	-0.00146528	0.000153571	1.35882e-06	-88.8513	0.00484039	9.70324e-05	0.00483942	-23.58	17.1396	15.7085	6.85634	0.0534852	0.0233286	0.0583514	23.5653	1.17525e+08	2.69447e+08	2.93962e+08	-66.4347	0.0000000E+000	0.0000000E+000	0.0000000E+000	66.4347	0.0000000E+000	0.0000000E+000	0.0000000E+000	-66.4347	0.0000000E+000	0.0000000E+000	0.0000000E+000	-23.5653	0.0000000E+000	0.0000000E+000	0.0000000E+000	23.5653	2.29269	66.4347	-0.000841015	-6.41598e-06	-4.62314e-09	-6.41136e-06	0.212973	7079.63	5.10134	7074.53
0.0215268	16.9942	8.88995	19.179	-27.6147	350.614	0.213128	-0.0318005	831652	178684	1	12	0.00482263	0.000251453	0	-0.00261682	0.00017267	1.93431e-06	46.7371	0.00769252	0.00527204	-0.00560182	-27.5926	19.1811	16.9995	8.88434	0.0462007	0.0241683	0.0521403	27.6147	1.78684e+08	3.41577e+08	3.85491e+08	-62.3853	0.0000000E+000	0.0000000E+000	0.0000000E+000	62.3853	0.0000000E+000	0.0000000E+000	0.0000000E+000	-62.3853	0.0000000E+000	0.0000000E+000	0.0000000E+000	-27.6147	0.0000000E+000	0.0000000E+000	0.0000000E+000	27.6147	1.91163	62.3853	-0.00115154	-6.77758e-06	-5.49098e-09	-6.77209e-06	0.212955	6702.03	5.42977	6696.6
0.0146812	18.7954	11.3255	21.9439	-31.0719	493.917	0.213121	-0.033803	957197	254971	1	12	0.00481517	0.000219431	0	-0.00440157	0.00017267	9.76529e-07	49.1033	0.00445027	0.00291358	-0.00336392	-31.0604	21.9446	18.7983	11.3222	0.0390323	0.0235197	0.0455708	31.0719	2.54971e+08	4.2314e+08	4.94022e+08	-58.9281	0.0000000E+000	0.0000000E+000	0.0000000E+000	58.9281	0.0000000E+000	0.0000000E+000	0.0000000E+000	-58.9281	0.0000000E+000	0.0000000E+000	0.0000000E+000	-31.0719	0.0000000E+000	0.0000000E+000	0.0000000E+000	31.0719	1.65956	58.9281	-0.00178476	-7.20412e-06	-5.83675e-09	-7.19828e-06	0.212948	6304.78	5.10811	6299.67