File: txt/18602_R301_UA696_SOC00_C01.mpt
EC-Lab ASCII FILE
Nb header lines : 65

Potentio Electrochemical Impedance Spectroscopy

Run on channel : 1 (SN 66354)
User :
CE vs. WE compliance from -10 V to 10 V
Electrode connection : standard
Potential control : Ewe
Ewe ctrl range : min = -10.00 V, max = 10.00 V
Safety Limits :
	Do not start on E overload
Acquisition started on : 10/27/2025 16:23:04.679
Technique started on : 10/27/2025 16:23:06.591
Loaded Setting File :  C:\Users\Celltest\OneDrive - store-dot.com\Documents\EC-Lab\Data\@Biologic Test Protocols\anode half cell EIS SOC00.mps
Saved on :
	File : 18602_R301_UA696_SOC00_C01.mpr
	Directory : C:\Users\Celltest\OneDrive - store-dot.com\Documents\EC-Lab\Data\Gyutae\
	Host : 169.254.61.224
Device : VMP-3e (SN .003165)
Address : USB
EC-LAB for windows v11.62 (software)
Internet server v27.00 (firmware)
Command interpretor v12.03 (firmware)
Electrode material :
Initial state :
Electrolyte :
Comments :
Electrode surface area : 0.001 cm²
Characteristic mass : 0.001 g
Equivalent Weight : 0.000 g/eq.
Density : 0.000 g/cm3
Volume (V) : 0.001 cm³
Record Ece
Cycle Definition : Charge/Discharge alternance
Mode                Single sine
E (V)               0.0000
vs.                 Eoc
tE (h:m:s)          0:00:0.0000
record              0
dI                  0.000
unit dI             mA
dt (s)              0.000
fi                  100.000
unit fi             kHz
ff                  10.000
unit ff             mHz
Nd                  6
Points              per decade
spacing             Logarithmic
Va (mV)             5.0
pw                  0.10
Na                  2
corr                0
E range min (V)     -10.000
E range max (V)     10.000
I Range             Auto
Bandwidth           5
nc cycles           0
goto Ns'            0
nr cycles           0
inc. cycle          0

freq/Hz	Re(Z)/Ohm	-Im(Z)/Ohm	|Z|/Ohm	Phase(Z)/deg	time/s	<Ewe>/V	<I>/mA	Cs/µF	Cp/µF	cycle number	I Range	|Ewe|/V	|I|/A	Ns	(Q-Qo)/mA.h	<Ece>/V	|Ece|/V	Phase(Zce)/deg	|Zce|/Ohm	Re(Zce)/Ohm	-Im(Zce)/Ohm	Phase(Zwe-ce)/deg	|Zwe-ce|/Ohm	Re(Zwe-ce)/Ohm	-Im(Zwe-ce)/Ohm	Re(Y)/Ohm-1	Im(Y)/Ohm-1	|Y|/Ohm-1	Phase(Y)/deg	Re(C)/nF	Im(C)/nF	|C|/nF	Phase(C)/deg	Re(M)	Im(M)	|M|	Phase(M)/deg	Re(Permittivity)	Im(Permittivity)	|Permittivity|	Phase(Permittivity)/deg	Re(Resistivity)/Ohm.cm	Im(Resistivity)/Ohm.cm	|Resistivity|/Ohm.cm	Phase(Resistivity)/deg	Re(Conductivity)/mS/cm	Im(Conductivity)/mS/cm	|Conductivity|/mS/cm	Phase(Conductivity)/deg	Tan(Delta)	Loss Angle(Delta)/deg	dq/mA.h	Pwe/W	Pce/W	Pwe-ce/W	<Ewe-Ece>/V	Rwe/Ohm	Rce/Ohm	Rwe-ce/Ohm		Ewe-Ece/V
100004	0.923938	0.332923	0.982089	-19.8156	1.91152	0.211	0.079161	4.78036	0.549346	1	9	0.00483229	0.00492042	0	1.22486e-05	0.000231267	4.26405e-05	99.9398	0.00866602	-0.00149586	-0.00853594	-19.3748	0.977817	0.922442	0.324387	0.957946	0.345177	1.01824	19.8156	549.346	1524.56	1620.51	-70.1844	0.0000000E+000	0.0000000E+000	0.0000000E+000	70.1844	0.0000000E+000	0.0000000E+000	0.0000000E+000	-70.1844	0.0000000E+000	0.0000000E+000	0.0000000E+000	-19.8156	0.0000000E+000	0.0000000E+000	0.0000000E+000	19.8156	2.77523	70.1844	1.22486e-05	1.6703e-05	1.83073e-08	1.66847e-05	0.210769	2665.46	2.92148	2662.54
68132	1.00882	0.379972	1.07801	-20.6388	2.29453	0.211005	0.0769257	6.14776	0.763794	1	9	0.00550119	0.00510311	0	1.99303e-05	-7.39696e-05	3.81873e-05	83.0943	0.00748315	0.000899737	-0.00742886	-20.2519	1.07626	1.00972	0.372543	0.868102	0.32697	0.927637	20.6388	763.794	2027.87	2166.94	-69.3612	0.0000000E+000	0.0000000E+000	0.0000000E+000	69.3612	0.0000000E+000	0.0000000E+000	0.0000000E+000	-69.3612	0.0000000E+000	0.0000000E+000	0.0000000E+000	-20.6388	0.0000000E+000	0.0000000E+000	0.0000000E+000	20.6388	2.65499	69.3612	7.68179e-06	1.62317e-05	-5.69016e-09	1.62374e-05	0.211079	2742.97	0.961572	2743.93
46420.4	1.10579	0.411559	1.1799	-20.4145	2.80153	0.211	0.0771492	8.33066	1.01357	1	9	0.00507725	0.00430313	0	2.41976e-05	0.000326654	2.04471e-05	63.8197	0.00475169	0.00209643	-0.00426421	-20.185	1.18038	1.10789	0.407295	0.794301	0.295627	0.847531	20.4145	1013.57	2723.31	2905.81	-69.5855	0.0000000E+000	0.0000000E+000	0.0000000E+000	69.5855	0.0000000E+000	0.0000000E+000	0.0000000E+000	-69.5855	0.0000000E+000	0.0000000E+000	0.0000000E+000	-20.4145	0.0000000E+000	0.0000000E+000	0.0000000E+000	20.4145	2.68684	69.5855	4.2673e-06	1.62785e-05	2.52011e-08	1.62533e-05	0.210674	2734.96	4.23405	2730.73
31621.1	1.19834	0.458821	1.28318	-20.9508	3.30851	0.211015	0.0825883	10.9698	1.40253	1	9	0.00507884	0.00395802	0	5.89185e-05	-9.30469e-05	1.21579e-05	67.2412	0.00307171	0.0011883	-0.00283255	-20.8138	1.28328	1.19953	0.455989	0.727793	0.278657	0.779315	20.9508	1402.53	3663.11	3922.44	-69.0492	0.0000000E+000	0.0000000E+000	0.0000000E+000	69.0492	0.0000000E+000	0.0000000E+000	0.0000000E+000	-69.0492	0.0000000E+000	0.0000000E+000	0.0000000E+000	-20.9508	0.0000000E+000	0.0000000E+000	0.0000000E+000	20.9508	2.61179	69.0492	3.47209e-05	1.74274e-05	-7.68459e-09	1.74351e-05	0.211108	2555.03	1.12664	2556.15
21544.7	1.30926	0.504832	1.40321	-21.086	3.69155	0.211004	0.0801295	14.633	1.894	1	9	0.00542888	0.00386889	0	6.59046e-05	2.33964e-06	1.53686e-05	-48.3914	0.00397236	0.0026378	0.00297013	-21.1602	1.40674	1.31189	0.507802	0.664932	0.256389	0.71265	21.086	1894	4911.99	5264.49	-68.914	0.0000000E+000	0.0000000E+000	0.0000000E+000	68.914	0.0000000E+000	0.0000000E+000	0.0000000E+000	-68.914	0.0000000E+000	0.0000000E+000	0.0000000E+000	-21.086	0.0000000E+000	0.0000000E+000	0.0000000E+000	21.086	2.59345	68.914	6.98607e-06	1.69077e-05	1.87475e-10	1.69075e-05	0.211002	2633.29	0.0291983	2633.26
14678.6	1.41821	0.551234	1.52158	-21.2402	4.07652	0.211001	0.0740943	19.6698	2.58157	1	9	0.00505754	0.00332388	0	7.48255e-05	0.000231267	7.31341e-06	-22.7915	0.00220026	0.00202847	0.000852336	-21.2424	1.52377	1.42024	0.552086	0.612569	0.238094	0.657214	21.2402	2581.57	6641.87	7125.94	-68.7598	0.0000000E+000	0.0000000E+000	0.0000000E+000	68.7598	0.0000000E+000	0.0000000E+000	0.0000000E+000	-68.7598	0.0000000E+000	0.0000000E+000	0.0000000E+000	-21.2402	0.0000000E+000	0.0000000E+000	0.0000000E+000	21.2402	2.5728	68.7598	8.92085e-06	1.5634e-05	1.71356e-08	1.56169e-05	0.21077	2847.74	3.12126	2844.62
10002.2	1.53559	0.620687	1.65629	-22.0086	4.45953	0.211003	0.0723806	25.636	3.60019	1	9	0.00490683	0.00296255	0	8.11671e-05	5.95716e-05	7.9342e-06	151.018	0.00267817	-0.00234278	-0.00129768	-21.9974	1.65363	1.53325	0.61939	0.559763	0.226257	0.60376	22.0086	3600.19	8906.92	9607	-67.9914	0.0000000E+000	0.0000000E+000	0.0000000E+000	67.9914	0.0000000E+000	0.0000000E+000	0.0000000E+000	-67.9914	0.0000000E+000	0.0000000E+000	0.0000000E+000	-22.0086	0.0000000E+000	0.0000000E+000	0.0000000E+000	22.0086	2.47401	67.9914	6.34168e-06	1.52725e-05	4.31183e-09	1.52682e-05	0.210943	2915.18	0.823032	2914.36
6810.42	1.66706	0.699166	1.80774	-22.7532	4.71854	0.211003	0.0767394	33.4246	4.99981	1	9	0.00454696	0.00251527	0	8.47804e-05	0.000364808	2.70358e-05	51.1092	0.0107487	0.00674842	-0.00836616	-22.4265	1.81076	1.67381	0.6908	0.510128	0.213948	0.553176	22.7532	4999.81	11921.3	12927.4	-67.2468	0.0000000E+000	0.0000000E+000	0.0000000E+000	67.2468	0.0000000E+000	0.0000000E+000	0.0000000E+000	-67.2468	0.0000000E+000	0.0000000E+000	0.0000000E+000	-22.7532	0.0000000E+000	0.0000000E+000	0.0000000E+000	22.7532	2.38436	67.2468	3.61323e-06	1.61922e-05	2.79952e-08	1.61642e-05	0.210638	2749.6	4.75386	2744.85
4646	1.80124	0.817356	1.97801	-24.4073	5.10962	0.210975	0.0443281	41.9112	7.15638	1	9	0.00491318	0.0024839	0	9.10936e-05	0.000364808	1.61326e-05	-136.46	0.00649485	-0.00470809	0.00447404	-24.5819	1.97558	1.79653	0.82183	0.460377	0.208907	0.505558	24.4073	7156.38	15770.8	17318.5	-65.5927	0.0000000E+000	0.0000000E+000	0.0000000E+000	65.5927	0.0000000E+000	0.0000000E+000	0.0000000E+000	-65.5927	0.0000000E+000	0.0000000E+000	0.0000000E+000	-24.4073	0.0000000E+000	0.0000000E+000	0.0000000E+000	24.4073	2.20374	65.5927	6.31323e-06	9.35211e-06	1.61713e-08	9.33594e-06	0.21061	4759.39	8.22973	4751.16
3163.08	1.95054	0.97884	2.18237	-26.6489	5.48363	0.210736	-0.0517881	51.4042	10.3411	1	9	0.00483077	0.00221355	0	8.52367e-05	0.000116803	5.81658e-06	11.6531	0.00262772	0.00257356	-0.000530763	-26.6062	2.18443	1.95311	0.978309	0.409543	0.205521	0.458218	26.6489	10341.1	20606.7	23055.9	-63.3511	0.0000000E+000	0.0000000E+000	0.0000000E+000	63.3511	0.0000000E+000	0.0000000E+000	0.0000000E+000	-63.3511	0.0000000E+000	0.0000000E+000	0.0000000E+000	-26.6489	0.0000000E+000	0.0000000E+000	0.0000000E+000	26.6489	1.9927	63.3511	-5.85686e-06	-1.09136e-05	-6.04903e-09	-1.09076e-05	0.210619	4069.19	2.25541	4066.94
2155.69	2.11556	1.19596	2.43021	-29.4802	5.93478	0.210862	0.0774472	61.7328	14.9508	1	9	0.00476084	0.00195902	0	9.38382e-05	-1.67377e-05	6.45707e-06	-63.6879	0.00329607	0.00146102	0.00295457	-29.5239	2.43294	2.11702	1.19892	0.35821	0.202502	0.411487	29.4802	14950.8	26446.7	30380.2	-60.5198	0.0000000E+000	0.0000000E+000	0.0000000E+000	60.5198	0.0000000E+000	0.0000000E+000	0.0000000E+000	-60.5198	0.0000000E+000	0.0000000E+000	0.0000000E+000	-29.4802	0.0000000E+000	0.0000000E+000	0.0000000E+000	29.4802	1.76892	60.5198	8.6015e-06	1.63306e-05	-1.29628e-09	1.63319e-05	0.210878	2722.65	0.216117	2722.87
1468.59	2.30745	1.4831	2.74297	-32.7306	6.38604	0.210857	0.0735727	73.0719	21.3622	1	9	0.00472334	0.00172198	0	0.000101809	0.000231267	6.60717e-06	65.3208	0.00383696	0.00160208	-0.00348649	-32.6512	2.74244	2.30905	1.47961	0.306683	0.197118	0.364568	32.7306	21362.2	33236	39509.2	-57.2694	0.0000000E+000	0.0000000E+000	0.0000000E+000	57.2694	0.0000000E+000	0.0000000E+000	0.0000000E+000	-57.2694	0.0000000E+000	0.0000000E+000	0.0000000E+000	-32.7306	0.0000000E+000	0.0000000E+000	0.0000000E+000	32.7306	1.55583	57.2694	7.97051e-06	1.55133e-05	1.7015e-08	1.54963e-05	0.210626	2865.97	3.14338	2862.82
1000.32	2.59753	1.88294	3.20821	-35.9381	6.83684	0.210853	0.071412	84.4978	29.1065	1	9	0.00471421	0.00146942	0	0.000111877	0.000154958	9.49315e-06	24.994	0.00646047	0.00585546	-0.0027297	-35.8374	3.21136	2.60339	1.88021	0.252368	0.18294	0.3117	35.9381	29106.5	40152.8	49592.7	-54.0619	0.0000000E+000	0.0000000E+000	0.0000000E+000	54.0619	0.0000000E+000	0.0000000E+000	0.0000000E+000	-54.0619	0.0000000E+000	0.0000000E+000	0.0000000E+000	-35.9381	0.0000000E+000	0.0000000E+000	0.0000000E+000	35.9381	1.37951	54.0619	1.00682e-05	1.50574e-05	1.10659e-08	1.50464e-05	0.210698	2952.63	2.16992	2950.46
681.09	2.9728	2.40756	3.82543	-39.0027	7.53253	0.210917	-0.0231559	97.0596	38.4444	1	10	0.00479409	0.00125322	0	0.00011394	0.000116803	1.3438e-05	46.5707	0.0107228	0.0073715	-0.00778716	-38.8426	3.82627	2.98017	2.39977	0.203145	0.16452	0.261409	39.0027	38444.4	47470.3	61085.2	-50.9973	0.0000000E+000	0.0000000E+000	0.0000000E+000	50.9973	0.0000000E+000	0.0000000E+000	0.0000000E+000	-50.9973	0.0000000E+000	0.0000000E+000	0.0000000E+000	-39.0027	0.0000000E+000	0.0000000E+000	0.0000000E+000	39.0027	1.23478	50.9973	2.06265e-06	-4.88397e-06	-2.70469e-09	-4.88126e-06	0.2108	9108.55	5.04422	9103.5
463.961	3.51736	3.05926	4.66164	-41.0154	7.98436	0.210912	-0.0224664	112.13	48.2923	1	10	0.00474662	0.00101823	0	0.000111832	0.000193113	1.05523e-05	-34.6452	0.0103634	0.00852583	0.0058915	-41.0013	4.67194	3.52589	3.06515	0.16186	0.140779	0.214517	41.0154	48292.3	55523.7	73586.9	-48.9846	0.0000000E+000	0.0000000E+000	0.0000000E+000	48.9846	0.0000000E+000	0.0000000E+000	0.0000000E+000	-48.9846	0.0000000E+000	0.0000000E+000	0.0000000E+000	-41.0154	0.0000000E+000	0.0000000E+000	0.0000000E+000	41.0154	1.14974	48.9846	-2.10794e-06	-4.73843e-06	-4.33855e-09	-4.73409e-06	0.210718	9387.85	8.59561	9379.26
316.316	4.31753	3.79614	5.74907	-41.3232	8.43206	0.210903	-0.0234131	132.543	57.7892	1	10	0.00471016	0.000819291	0	0.000108387	0.000174035	4.82163e-06	-52.5828	0.00588512	0.00357588	0.00467416	-41.3346	5.75484	4.32111	3.80081	0.130629	0.114854	0.173941	41.3232	57789.2	65726.4	87518.9	-48.6768	0.0000000E+000	0.0000000E+000	0.0000000E+000	48.6768	0.0000000E+000	0.0000000E+000	0.0000000E+000	-48.6768	0.0000000E+000	0.0000000E+000	0.0000000E+000	-41.3232	0.0000000E+000	0.0000000E+000	0.0000000E+000	41.3232	1.13735	48.6768	-3.44491e-06	-4.9379e-06	-4.0747e-09	-4.93382e-06	0.210729	9007.93	7.43326	9000.5
215.345	5.44715	4.56444	7.10673	-39.9613	8.88152	0.210917	-0.0223882	161.919	66.7935	1	10	0.0046983	0.000661106	0	0.000105161	0.000269422	3.33841e-06	78.1125	0.00504974	0.0010402	-0.00494144	-39.9254	7.10436	5.44819	4.5595	0.107852	0.090375	0.140712	39.9613	66793.5	79710.6	103996	-50.0387	0.0000000E+000	0.0000000E+000	0.0000000E+000	50.0387	0.0000000E+000	0.0000000E+000	0.0000000E+000	-50.0387	0.0000000E+000	0.0000000E+000	0.0000000E+000	-39.9613	0.0000000E+000	0.0000000E+000	0.0000000E+000	39.9613	1.19339	50.0387	-3.22592e-06	-4.72205e-06	-6.03186e-09	-4.71601e-06	0.210648	9420.91	12.0341	9408.88
146.737	6.96499	5.16237	8.66955	-36.5454	9.32747	0.21092	-0.0241398	210.102	74.4963	1	10	0.00469495	0.000541544	0	0.00010176	2.1417e-05	8.57662e-06	39.448	0.0158373	0.0122296	-0.0100627	-36.4439	8.6734	6.97722	5.1523	0.0926675	0.068684	0.115346	36.5454	74496.3	100509	125107	-53.4546	0.0000000E+000	0.0000000E+000	0.0000000E+000	53.4546	0.0000000E+000	0.0000000E+000	0.0000000E+000	-53.4546	0.0000000E+000	0.0000000E+000	0.0000000E+000	-36.5454	0.0000000E+000	0.0000000E+000	0.0000000E+000	36.5454	1.34919	53.4546	-3.40068e-06	-5.09158e-06	-5.17002e-10	-5.09107e-06	0.210899	8737.44	0.887204	8736.55
100.032	8.71214	5.42361	10.2624	-31.9037	9.77884	0.210911	-0.0232976	293.354	81.9354	1	10	0.0047002	0.000458002	0	9.95872e-05	0.000193113	1.65131e-05	-37.7434	0.0360546	0.0285105	0.02207	-31.9241	10.2983	8.74065	5.44568	0.0827231	0.051498	0.0974431	31.9037	81935.4	131616	155036	-58.0963	0.0000000E+000	0.0000000E+000	0.0000000E+000	58.0963	0.0000000E+000	0.0000000E+000	0.0000000E+000	-58.0963	0.0000000E+000	0.0000000E+000	0.0000000E+000	-31.9037	0.0000000E+000	0.0000000E+000	0.0000000E+000	31.9037	1.60634	58.0963	-2.17296e-06	-4.91371e-06	-4.49905e-09	-4.90921e-06	0.210718	9052.93	8.28897	9044.64
68.104	10.4563	5.22603	11.6895	-26.5558	10.2414	0.210905	-0.021367	447.173	89.3767	1	10	0.00468847	0.000401083	0	9.7389e-05	0.000231267	1.1152e-05	-29.1805	0.0278048	0.0242761	0.0135566	-26.562	11.7173	10.4806	5.23958	0.0765214	0.0382452	0.0855466	26.5558	89376.7	178826	199917	-63.4442	0.0000000E+000	0.0000000E+000	0.0000000E+000	63.4442	0.0000000E+000	0.0000000E+000	0.0000000E+000	-63.4442	0.0000000E+000	0.0000000E+000	0.0000000E+000	-26.5558	0.0000000E+000	0.0000000E+000	0.0000000E+000	26.5558	2.00081	63.4442	-2.19815e-06	-4.50641e-06	-4.94149e-09	-4.50147e-06	0.210674	9870.61	10.8236	9859.79
46.4415	11.9918	4.68459	12.8744	-21.338	10.6777	0.210907	-0.0255635	731.547	96.8574	1	10	0.00469112	0.000364377	0	9.43774e-05	-3.5815e-05	5.92721e-06	-28.023	0.0162667	0.0143596	0.00764251	-21.3464	12.8905	12.0062	4.69223	0.0723492	0.0282631	0.0776737	21.338	96857.4	247940	266187	-68.662	0.0000000E+000	0.0000000E+000	0.0000000E+000	68.662	0.0000000E+000	0.0000000E+000	0.0000000E+000	-68.662	0.0000000E+000	0.0000000E+000	0.0000000E+000	-21.338	0.0000000E+000	0.0000000E+000	0.0000000E+000	21.338	2.55985	68.662	-3.01158e-06	-5.39154e-06	9.15557e-10	-5.39245e-06	0.210943	8250.32	1.40102	8251.72
31.6296	13.1489	4.01452	13.7481	-16.9781	11.1075	0.210915	-0.0265325	1253.41	106.876	1	10	0.00468567	0.000340824	0	9.11343e-05	0.000250345	4.41803e-06	54.7503	0.0129628	0.00748136	-0.010586	-16.9268	13.7521	13.1563	4.00393	0.0695674	0.0212398	0.0727376	16.9781	106875	350052	366004	-73.0219	0.0000000E+000	0.0000000E+000	0.0000000E+000	73.0219	0.0000000E+000	0.0000000E+000	0.0000000E+000	-73.0219	0.0000000E+000	0.0000000E+000	0.0000000E+000	-16.9781	0.0000000E+000	0.0000000E+000	0.0000000E+000	16.9781	3.27533	73.0219	-3.24313e-06	-5.5961e-06	-6.64228e-09	-5.58945e-06	0.210664	7949.28	9.43538	7939.84
21.5517	13.9993	3.26294	14.3745	-13.1202	11.5285	0.210913	-0.027755	2263.23	116.617	1	10	0.0046809	0.00032564	0	8.82011e-05	0.00042204	2.29418e-05	55.7028	0.0704515	0.0396984	-0.0582018	-12.8588	14.4001	14.039	3.20474	0.0677517	0.0157915	0.0695677	13.1202	116617	500332	513743	-76.8798	0.0000000E+000	0.0000000E+000	0.0000000E+000	76.8798	0.0000000E+000	0.0000000E+000	0.0000000E+000	-76.8798	0.0000000E+000	0.0000000E+000	0.0000000E+000	-13.1202	0.0000000E+000	0.0000000E+000	0.0000000E+000	13.1202	4.29038	76.8798	-2.93323e-06	-5.85389e-06	-1.17137e-08	-5.84217e-06	0.210491	7599.11	15.2059	7583.9
14.6852	14.6866	2.72339	14.937	-10.5052	12.2392	0.210948	-0.0104929	3979.53	132.289	1	11	0.0046846	0.000313624	0	8.88423e-05	-0.000131202	8.37543e-06	-116.603	0.0267053	-0.0119589	0.023878	-10.6037	14.9296	14.6747	2.74726	0.0658257	0.0122063	0.0669479	10.5052	132289	713407	725568	-79.4948	0.0000000E+000	0.0000000E+000	0.0000000E+000	79.4948	0.0000000E+000	0.0000000E+000	0.0000000E+000	-79.4948	0.0000000E+000	0.0000000E+000	0.0000000E+000	-10.5052	0.0000000E+000	0.0000000E+000	0.0000000E+000	10.5052	5.39278	79.4948	6.41244e-07	-2.21346e-06	1.37669e-09	-2.21484e-06	0.211079	20103.9	12.5038	20116.4
10.0032	15.1436	2.26643	15.3123	-8.51185	12.6898	0.210945	-0.0105544	7020.03	153.796	1	11	0.00468327	0.000305851	0	8.5056e-05	0.000326654	6.43407e-06	-48.7784	0.0210366	0.0138626	0.0158231	-8.56267	15.3283	15.1575	2.28225	0.0645878	0.00966636	0.0653071	8.51185	153796	1.02762e+06	1.03906e+06	-81.4882	0.0000000E+000	0.0000000E+000	0.0000000E+000	81.4882	0.0000000E+000	0.0000000E+000	0.0000000E+000	-81.4882	0.0000000E+000	0.0000000E+000	0.0000000E+000	-8.51185	0.0000000E+000	0.0000000E+000	0.0000000E+000	8.51185	6.68171	81.4882	-3.78636e-06	-2.22639e-06	-3.44762e-09	-2.22294e-06	0.210618	19986.5	30.9497	19955.6
6.81719	15.5389	1.93841	15.6593	-7.11068	13.0295	0.210958	-0.00990863	12043.9	184.55	1	11	0.00468625	0.000299263	0	8.6477e-05	-7.39696e-05	4.39279e-06	37.6915	0.0146787	0.0116155	-0.00897471	-7.07286	15.6697	15.5505	1.92944	0.0633686	0.00790497	0.0638597	7.11068	184550	1.47941e+06	1.49088e+06	-82.8893	0.0000000E+000	0.0000000E+000	0.0000000E+000	82.8893	0.0000000E+000	0.0000000E+000	0.0000000E+000	-82.8893	0.0000000E+000	0.0000000E+000	0.0000000E+000	-7.11068	0.0000000E+000	0.0000000E+000	0.0000000E+000	7.11068	8.01629	82.8893	1.421e-06	-2.0903e-06	7.32937e-10	-2.09104e-06	0.211032	21290.3	7.46517	21297.8
4.63925	15.8538	1.70584	15.9453	-6.14128	13.5134	0.210939	-0.0103436	20111	230.167	1	11	0.00468725	0.000293957	0	8.60563e-05	9.77262e-05	8.04951e-06	-27.2958	0.0273832	0.0243341	0.0125575	-6.17673	15.9709	15.8782	1.7184	0.0623543	0.00670919	0.0627143	6.14128	230167	2.13914e+06	2.15149e+06	-83.8587	0.0000000E+000	0.0000000E+000	0.0000000E+000	83.8587	0.0000000E+000	0.0000000E+000	0.0000000E+000	-83.8587	0.0000000E+000	0.0000000E+000	0.0000000E+000	-6.14128	0.0000000E+000	0.0000000E+000	0.0000000E+000	6.14128	9.29387	83.8587	-4.20658e-07	-2.18187e-06	-1.01084e-09	-2.18086e-06	0.210841	20393.2	9.448	20383.8
3.1604	16.1112	1.59606	16.19	-5.65758	14.2065	0.21095	-0.00876576	31552.1	306.643	1	11	0.0046811	0.000289135	0	8.0704e-05	0.000231267	5.76308e-06	-12.6124	0.0199322	0.0194512	0.00435227	-5.66611	16.2098	16.1306	1.60041	0.0614655	0.00608912	0.0617664	5.65758	306643	3.09535e+06	3.1105e+06	-84.3424	0.0000000E+000	0.0000000E+000	0.0000000E+000	84.3424	0.0000000E+000	0.0000000E+000	0.0000000E+000	-84.3424	0.0000000E+000	0.0000000E+000	0.0000000E+000	-5.65758	0.0000000E+000	0.0000000E+000	0.0000000E+000	5.65758	10.0943	84.3424	-5.35226e-06	-1.84914e-06	-2.02723e-09	-1.84711e-06	0.210719	24065.3	26.383	24038.9
2.15577	16.4136	1.52284	16.4841	-5.30069	15.2101	0.210952	-0.00908667	48480	413.755	1	11	0.0046879	0.000284389	0	7.44927e-05	4.04943e-05	4.26571e-06	62.8134	0.0149995	0.00685313	-0.0133424	-5.25233	16.4897	16.4205	1.5095	0.0604051	0.00560435	0.0606645	5.30069	413755	4.45956e+06	4.47871e+06	-84.6993	0.0000000E+000	0.0000000E+000	0.0000000E+000	84.6993	0.0000000E+000	0.0000000E+000	0.0000000E+000	-84.6993	0.0000000E+000	0.0000000E+000	0.0000000E+000	-5.30069	0.0000000E+000	0.0000000E+000	0.0000000E+000	5.30069	10.7783	84.6993	-6.21132e-06	-1.91685e-06	-3.67958e-10	-1.91648e-06	0.210912	23215.6	4.45645	23211.1
1.46631	16.7107	1.55434	16.7828	-5.31405	16.6715	0.210951	-0.0106721	69831	598.976	1	11	0.00468792	0.000279328	0	7.1427e-05	0.000364808	3.71534e-06	-37.404	0.013301	0.0105659	0.00807946	-5.33816	16.7941	16.7213	1.56242	0.0593285	0.00551842	0.0595846	5.31405	598976	6.43959e+06	6.46738e+06	-84.6859	0.0000000E+000	0.0000000E+000	0.0000000E+000	84.6859	0.0000000E+000	0.0000000E+000	0.0000000E+000	-84.6859	0.0000000E+000	0.0000000E+000	0.0000000E+000	-5.31405	0.0000000E+000	0.0000000E+000	0.0000000E+000	5.31405	10.751	84.6859	-3.06577e-06	-2.25128e-06	-3.89327e-09	-2.24739e-06	0.210586	19766.6	34.1834	19732.4
1.00006	16.9927	1.63029	17.0707	-5.48022	19.8459	0.21095	-0.0119943	97617.5	890.334	1	12	0.00468854	0.000274654	0	6.99695e-05	-0.000245665	1.67579e-06	-63.3098	0.00610145	0.00274056	0.00545133	-5.49755	17.074	16.9954	1.63574	0.058312	0.00559449	0.0585798	5.48022	890334	9.28006e+06	9.32267e+06	-84.5198	0.0000000E+000	0.0000000E+000	0.0000000E+000	84.5198	0.0000000E+000	0.0000000E+000	0.0000000E+000	-84.5198	0.0000000E+000	0.0000000E+000	0.0000000E+000	-5.48022	0.0000000E+000	0.0000000E+000	0.0000000E+000	5.48022	10.4231	84.5198	-1.45747e-06	-2.53021e-06	2.94659e-09	-2.53315e-06	0.211196	17587.5	20.4818	17608
0.681362	17.2939	1.75882	17.3831	-5.80714	22.9579	0.210959	-0.0117797	132807	1359.6	1	12	0.00468683	0.000269621	0	7.04769e-05	0.000174035	3.3641e-06	4.60259	0.0124772	0.0124369	-0.00100122	-5.79972	17.3953	17.3063	1.75782	0.057232	0.00582063	0.0575273	5.80714	1.3596e+06	1.33685e+07	1.34374e+07	-84.1929	0.0000000E+000	0.0000000E+000	0.0000000E+000	84.1929	0.0000000E+000	0.0000000E+000	0.0000000E+000	-84.1929	0.0000000E+000	0.0000000E+000	0.0000000E+000	-5.80714	0.0000000E+000	0.0000000E+000	0.0000000E+000	5.80714	9.83262	84.1929	5.07376e-07	-2.48503e-06	-2.05008e-09	-2.48298e-06	0.210785	17908.7	14.7742	17894
0.464091	17.6467	2.00982	17.7608	-6.49752	27.5144	0.21096	-0.0106825	170632	2184.98	1	12	0.00468928	0.000264024	0	6.23183e-05	0.000364808	2.94409e-06	0.519009	0.0111509	0.0111504	-0.000101008	-6.49313	17.7719	17.6579	2.00972	0.055942	0.00637134	0.0563037	6.49752	2.18498e+06	1.91847e+07	1.93088e+07	-83.5025	0.0000000E+000	0.0000000E+000	0.0000000E+000	83.5025	0.0000000E+000	0.0000000E+000	0.0000000E+000	-83.5025	0.0000000E+000	0.0000000E+000	0.0000000E+000	-6.49752	0.0000000E+000	0.0000000E+000	0.0000000E+000	6.49752	8.78026	83.5025	-8.15852e-06	-2.25358e-06	-3.89707e-09	-2.24968e-06	0.210595	19748.1	34.1501	19714
0.316193	17.9927	2.44008	18.1574	-7.72304	34.1888	0.210947	-0.0111878	206283	3725.32	1	12	0.00468735	0.000258151	0	3.27709e-05	0.000307577	2.27207e-06	-3.18325	0.00880132	0.00878774	0.000488734	-7.72084	18.1662	18.0015	2.44057	0.0545743	0.00740109	0.0550739	7.72304	3.72532e+06	2.74698e+07	2.77213e+07	-82.277	0.0000000E+000	0.0000000E+000	0.0000000E+000	82.277	0.0000000E+000	0.0000000E+000	0.0000000E+000	-82.277	0.0000000E+000	0.0000000E+000	0.0000000E+000	-7.72304	0.0000000E+000	0.0000000E+000	0.0000000E+000	7.72304	7.37382	82.277	-2.95475e-05	-2.36003e-06	-3.4411e-09	-2.35659e-06	0.21064	18855.1	27.4921	18827.6
0.215268	18.3528	2.99281	18.5952	-9.26174	43.9813	0.210952	-0.0125119	247037	6399.07	1	12	0.00469299	0.000252376	0	-3.07488e-05	0.000364808	1.61313e-06	-16.4491	0.00639177	0.00613017	0.00180992	-9.26421	18.6016	18.3589	2.99462	0.0530762	0.00865517	0.0537772	9.26174	6.39906e+06	3.9241e+07	3.97594e+07	-80.7383	0.0000000E+000	0.0000000E+000	0.0000000E+000	80.7383	0.0000000E+000	0.0000000E+000	0.0000000E+000	-80.7383	0.0000000E+000	0.0000000E+000	0.0000000E+000	-9.26174	0.0000000E+000	0.0000000E+000	0.0000000E+000	9.26174	6.13231	80.7383	-6.35197e-05	-2.63942e-06	-4.56446e-09	-2.63486e-06	0.210587	16860.1	29.1568	16830.9
0.146929	18.88	3.71477	19.242	-11.1311	58.3196	0.21095	-0.0150596	291596	10867.9	1	12	0.00468741	0.000243603	0	-0.00013493	0.000288499	3.91273e-06	21.4574	0.0160619	0.0149487	-0.00587559	-11.1054	19.2555	18.895	3.70889	0.050992	0.010033	0.0519697	11.1311	1.08679e+07	5.52351e+07	5.62941e+07	-78.8689	0.0000000E+000	0.0000000E+000	0.0000000E+000	78.8689	0.0000000E+000	0.0000000E+000	0.0000000E+000	-78.8689	0.0000000E+000	0.0000000E+000	0.0000000E+000	-11.1311	0.0000000E+000	0.0000000E+000	0.0000000E+000	11.1311	5.08242	78.8689	-0.000104181	-3.17682e-06	-4.34469e-09	-3.17248e-06	0.210661	14007.7	19.1572	13988.5
0.0999041	19.6671	4.79594	20.2434	-13.7044	79.3968	0.21095	-0.0176015	332172	18644.2	1	12	0.00468625	0.000231495	0	-0.000274769	-0.000264743	2.51609e-06	-13.2221	0.0108689	0.0105808	0.00248599	-13.7042	20.2543	19.6777	4.79843	0.0479924	0.0117032	0.0493988	13.7044	1.86442e+07	7.64556e+07	7.86961e+07	-76.2956	0.0000000E+000	0.0000000E+000	0.0000000E+000	76.2956	0.0000000E+000	0.0000000E+000	0.0000000E+000	-76.2956	0.0000000E+000	0.0000000E+000	0.0000000E+000	-13.7044	0.0000000E+000	0.0000000E+000	0.0000000E+000	13.7044	4.10078	76.2956	-0.000139839	-3.71303e-06	4.65986e-09	-3.71769e-06	0.211214	11984.8	15.0409	11999.8
0.0680626	20.6443	6.29628	21.5831	-16.9611	110.323	0.21095	-0.0196675	371388	31605.9	1	12	0.00468702	0.000217162	0	-0.000440024	0.000193113	2.4902e-06	29.2849	0.011467	0.0100015	-0.00560913	-16.9391	21.591	20.6543	6.29067	0.0443172	0.0135163	0.0463326	16.9611	3.16059e+07	1.0363e+08	1.08342e+08	-73.0389	0.0000000E+000	0.0000000E+000	0.0000000E+000	73.0389	0.0000000E+000	0.0000000E+000	0.0000000E+000	-73.0389	0.0000000E+000	0.0000000E+000	0.0000000E+000	-16.9611	0.0000000E+000	0.0000000E+000	0.0000000E+000	16.9611	3.27881	73.0389	-0.000165255	-4.14887e-06	-3.79805e-09	-4.14507e-06	0.210757	10725.8	9.81885	10716
0.0464052	21.8238	8.12277	23.2864	-20.4152	155.674	0.210948	-0.0209504	422230	51375.2	1	12	0.00469106	0.000201451	0	-0.00061292	0.000193113	2.05042e-06	-17.9586	0.0101783	0.00968241	0.00313827	-20.4141	23.2966	21.8334	8.12591	0.0402462	0.0149796	0.0429435	20.4152	5.13752e+07	1.38032e+08	1.47283e+08	-69.5848	0.0000000E+000	0.0000000E+000	0.0000000E+000	69.5848	0.0000000E+000	0.0000000E+000	0.0000000E+000	-69.5848	0.0000000E+000	0.0000000E+000	0.0000000E+000	-20.4152	0.0000000E+000	0.0000000E+000	0.0000000E+000	20.4152	2.68674	69.5848	-0.000172896	-4.41944e-06	-4.04578e-09	-4.41539e-06	0.210755	10068.9	9.21763	10059.7
0.0315922	23.5422	10.2485	25.6762	-23.5246	222.28	0.210949	-0.0219143	491565	78313.8	1	12	0.00468798	0.000182581	0	-0.000840252	-5.48923e-05	2.80376e-06	-54.5075	0.0153563	0.0089158	0.0125029	-23.5423	25.6894	23.5511	10.261	0.0357097	0.0155453	0.0389466	23.5246	7.83138e+07	1.79898e+08	1.96205e+08	-66.4754	0.0000000E+000	0.0000000E+000	0.0000000E+000	66.4754	0.0000000E+000	0.0000000E+000	0.0000000E+000	-66.4754	0.0000000E+000	0.0000000E+000	0.0000000E+000	-23.5246	0.0000000E+000	0.0000000E+000	0.0000000E+000	23.5246	2.29714	66.4754	-0.000227332	-4.62279e-06	1.20292e-09	-4.62399e-06	0.211004	9626.11	2.50487	9628.61
0.0215268	25.9078	12.9804	28.9776	-26.612	320.017	0.210948	-0.0227979	569577	114289	1	12	0.0046897	0.000161839	0	-0.0012686	0.000116803	2.77043e-06	-2.90619	0.0171185	0.0170964	0.000867921	-26.5984	28.9933	25.9249	12.9813	0.0308535	0.0154583	0.0345094	26.612	1.14289e+08	2.2811e+08	2.5514e+08	-63.388	0.0000000E+000	0.0000000E+000	0.0000000E+000	63.388	0.0000000E+000	0.0000000E+000	0.0000000E+000	-63.388	0.0000000E+000	0.0000000E+000	0.0000000E+000	-26.612	0.0000000E+000	0.0000000E+000	0.0000000E+000	26.612	1.99591	63.388	-0.000428345	-4.80918e-06	-2.66287e-09	-4.80651e-06	0.210832	9252.98	5.12344	9247.86
0.0146812	28.5523	16.6465	33.0506	-30.2429	463.32	0.21095	-0.0232855	651234	165205	1	12	0.00468918	0.000141879	0	-0.00212751	-0.000131202	2.40369e-06	-12.9041	0.0169418	0.016514	0.00378346	-30.2341	33.0667	28.5688	16.6502	0.0261387	0.0152393	0.0302567	30.2429	1.65205e+08	2.83363e+08	3.28005e+08	-59.7571	0.0000000E+000	0.0000000E+000	0.0000000E+000	59.7571	0.0000000E+000	0.0000000E+000	0.0000000E+000	-59.7571	0.0000000E+000	0.0000000E+000	0.0000000E+000	-30.2429	0.0000000E+000	0.0000000E+000	0.0000000E+000	30.2429	1.71522	59.7571	-0.000858913	-4.91207e-06	3.0551e-09	-4.91513e-06	0.211081	9059.27	5.63447	9064.9
0.0100092	31.3366	21.261	37.8683	-34.1558	673.501	0.210949	-0.023009	747892	235751	1	12	0.00468716	0.000123775	0	-0.00366552	5.95716e-05	3.06908e-06	8.26536	0.0247956	0.0245381	-0.00356457	-34.1305	37.8866	31.3611	21.2574	0.0218524	0.0148262	0.0264073	34.1558	2.35751e+08	3.47473e+08	4.199e+08	-55.8442	0.0000000E+000	0.0000000E+000	0.0000000E+000	55.8442	0.0000000E+000	0.0000000E+000	0.0000000E+000	-55.8442	0.0000000E+000	0.0000000E+000	0.0000000E+000	-34.1558	0.0000000E+000	0.0000000E+000	0.0000000E+000	34.1558	1.4739	55.8442	-0.00153801	-4.85373e-06	-1.37068e-09	-4.85235e-06	0.210889	9168.09	2.58905	9165.5