File: txt/18607_R301_UA697_SOC00_C05.mpt
EC-Lab ASCII FILE
Nb header lines : 65

Potentio Electrochemical Impedance Spectroscopy

Run on channel : 5 (SN 65912)
User :
CE vs. WE compliance from -10 V to 10 V
Electrode connection : standard
Potential control : Ewe
Ewe ctrl range : min = -10.00 V, max = 10.00 V
Safety Limits :
	Do not start on E overload
Acquisition started on : 10/27/2025 16:24:30.053
Technique started on : 10/27/2025 16:24:31.833
Loaded Setting File :  C:\Users\Celltest\OneDrive - store-dot.com\Documents\EC-Lab\Data\@Biologic Test Protocols\anode half cell EIS SOC00.mps
Saved on :
	File : 18607_R301_UA697_SOC00_C05.mpr
	Directory : C:\Users\Celltest\OneDrive - store-dot.com\Documents\EC-Lab\Data\Gyutae\
	Host : 169.254.61.224
Device : VMP-3e (SN .003165)
Address : USB
EC-LAB for windows v11.62 (software)
Internet server v27.00 (firmware)
Command interpretor v12.03 (firmware)
Electrode material :
Initial state :
Electrolyte :
Comments :
Electrode surface area : 0.001 cm²
Characteristic mass : 0.001 g
Equivalent Weight : 0.000 g/eq.
Density : 0.000 g/cm3
Volume (V) : 0.001 cm³
Record Ece
Cycle Definition : Charge/Discharge alternance
Mode                Single sine
E (V)               0.0000
vs.                 Eoc
tE (h:m:s)          0:00:0.0000
record              0
dI                  0.000
unit dI             mA
dt (s)              0.000
fi                  100.000
unit fi             kHz
ff                  10.000
unit ff             mHz
Nd                  6
Points              per decade
spacing             Logarithmic
Va (mV)             5.0
pw                  0.10
Na                  2
corr                0
E range min (V)     -10.000
E range max (V)     10.000
I Range             Auto
Bandwidth           5
nc cycles           0
goto Ns'            0
nr cycles           0
inc. cycle          0

freq/Hz	Re(Z)/Ohm	-Im(Z)/Ohm	|Z|/Ohm	Phase(Z)/deg	time/s	<Ewe>/V	<I>/mA	Cs/µF	Cp/µF	cycle number	I Range	|Ewe|/V	|I|/A	Ns	(Q-Qo)/mA.h	<Ece>/V	|Ece|/V	Phase(Zce)/deg	|Zce|/Ohm	Re(Zce)/Ohm	-Im(Zce)/Ohm	Phase(Zwe-ce)/deg	|Zwe-ce|/Ohm	Re(Zwe-ce)/Ohm	-Im(Zwe-ce)/Ohm	Re(Y)/Ohm-1	Im(Y)/Ohm-1	|Y|/Ohm-1	Phase(Y)/deg	Re(C)/nF	Im(C)/nF	|C|/nF	Phase(C)/deg	Re(M)	Im(M)	|M|	Phase(M)/deg	Re(Permittivity)	Im(Permittivity)	|Permittivity|	Phase(Permittivity)/deg	Re(Resistivity)/Ohm.cm	Im(Resistivity)/Ohm.cm	|Resistivity|/Ohm.cm	Phase(Resistivity)/deg	Re(Conductivity)/mS/cm	Im(Conductivity)/mS/cm	|Conductivity|/mS/cm	Phase(Conductivity)/deg	Tan(Delta)	Loss Angle(Delta)/deg	dq/mA.h	Pwe/W	Pce/W	Pwe-ce/W	<Ewe-Ece>/V	Rwe/Ohm	Rce/Ohm	Rwe-ce/Ohm		Ewe-Ece/V
100004	0.919278	0.282558	0.961723	-17.0858	1.77957	0.212002	0.00418666	5.63244	0.486196	1	9	0.00564831	0.00587311	0	1.40029e-06	-4.14579e-05	3.42319e-05	58.4905	0.00582857	0.00304624	-0.00496917	-16.75	0.963192	0.922325	0.277589	0.993909	0.305497	1.0398	17.0858	486.196	1581.8	1654.83	-72.9142	0.0000000E+000	0.0000000E+000	0.0000000E+000	72.9142	0.0000000E+000	0.0000000E+000	0.0000000E+000	-72.9142	0.0000000E+000	0.0000000E+000	0.0000000E+000	-17.0858	0.0000000E+000	0.0000000E+000	0.0000000E+000	17.0858	3.25341	72.9142	1.40029e-06	8.87579e-07	-1.7357e-10	8.87753e-07	0.212043	50637.4	9.90237	50647.3
68132	0.987668	0.326171	1.04013	-18.2755	2.28654	0.211919	0.000201984	7.16182	0.704266	1	9	0.00526875	0.00506547	0	-1.60021e-05	7.30894e-05	2.35982e-05	67.4949	0.00465864	0.00178317	-0.00430387	-18.0196	1.04049	0.989451	0.321867	0.912922	0.301487	0.961416	18.2755	704.266	2132.57	2245.85	-71.7245	0.0000000E+000	0.0000000E+000	0.0000000E+000	71.7245	0.0000000E+000	0.0000000E+000	0.0000000E+000	-71.7245	0.0000000E+000	0.0000000E+000	0.0000000E+000	-18.2755	0.0000000E+000	0.0000000E+000	0.0000000E+000	18.2755	3.02807	71.7245	-1.74024e-05	4.28042e-08	1.47629e-11	4.27894e-08	0.211846	1.04919e+06	361.858	1.04883e+06
46420.4	1.06878	0.359055	1.12748	-18.5697	2.79355	0.211901	-0.00393166	9.54885	0.968401	1	9	0.00509252	0.00451673	0	-1.67819e-05	-4.14579e-05	1.70163e-05	29.9387	0.0037674	0.00326468	-0.00188021	-18.4266	1.12998	1.07204	0.357174	0.840758	0.282451	0.886935	18.5697	968.401	2882.59	3040.91	-71.4303	0.0000000E+000	0.0000000E+000	0.0000000E+000	71.4303	0.0000000E+000	0.0000000E+000	0.0000000E+000	-71.4303	0.0000000E+000	0.0000000E+000	0.0000000E+000	-18.5697	0.0000000E+000	0.0000000E+000	0.0000000E+000	18.5697	2.97665	71.4303	-7.79836e-07	-8.33121e-07	1.62998e-10	-8.33284e-07	0.211942	53895.9	10.5446	53906.5
31621.1	1.15559	0.395118	1.22127	-18.8766	3.17655	0.211886	-0.0124596	12.7384	1.33335	1	9	0.00550016	0.00450364	0	-1.40806e-05	-6.05491e-05	5.48979e-06	37.0939	0.00121897	0.000972308	-0.000735188	-18.8292	1.22195	1.15656	0.394383	0.774781	0.264913	0.818819	18.8766	1333.35	3899.61	4121.26	-71.1235	0.0000000E+000	0.0000000E+000	0.0000000E+000	71.1235	0.0000000E+000	0.0000000E+000	0.0000000E+000	-71.1235	0.0000000E+000	0.0000000E+000	0.0000000E+000	-18.8766	0.0000000E+000	0.0000000E+000	0.0000000E+000	18.8766	2.92467	71.1235	2.70132e-06	-2.64001e-06	7.54416e-10	-2.64077e-06	0.211947	17005.9	4.85964	17010.7
21544.7	1.2481	0.439851	1.32333	-19.4133	3.68352	0.211861	-0.0117148	16.7948	1.85544	1	9	0.00508342	0.00384137	0	-3.35116e-06	0.000206728	1.40909e-05	11.7348	0.00366821	0.00359154	-0.000746045	-19.3314	1.32648	1.25169	0.439105	0.712704	0.251169	0.755667	19.4133	1855.43	5264.89	5582.26	-70.5867	0.0000000E+000	0.0000000E+000	0.0000000E+000	70.5867	0.0000000E+000	0.0000000E+000	0.0000000E+000	-70.5867	0.0000000E+000	0.0000000E+000	0.0000000E+000	-19.4133	0.0000000E+000	0.0000000E+000	0.0000000E+000	19.4133	2.83755	70.5867	1.07294e-05	-2.48191e-06	-2.42178e-09	-2.47949e-06	0.211654	18084.9	17.6467	18067.3
14678.6	1.34632	0.488962	1.43236	-19.9602	4.06656	0.211862	-0.0103369	22.1749	2.58408	1	9	0.00546496	0.00381535	0	1.0004e-06	1.58158e-05	4.56299e-06	15.6667	0.00119595	0.00115152	-0.000322956	-19.9324	1.43333	1.34747	0.488639	0.65621	0.238325	0.698148	19.9602	2584.08	7115.06	7569.78	-70.0398	0.0000000E+000	0.0000000E+000	0.0000000E+000	70.0398	0.0000000E+000	0.0000000E+000	0.0000000E+000	-70.0398	0.0000000E+000	0.0000000E+000	0.0000000E+000	-19.9602	0.0000000E+000	0.0000000E+000	0.0000000E+000	19.9602	2.75342	70.0398	4.35156e-06	-2.19e-06	-1.63487e-10	-2.18984e-06	0.211846	20495.7	1.53003	20494.1
10002.2	1.45665	0.551962	1.55772	-20.753	4.44952	0.211863	-0.0125713	28.828	3.61955	1	9	0.00545743	0.00350348	0	4.49284e-06	0.000302184	6.92026e-06	-112.459	0.00197526	-0.000754597	0.00182544	-20.8256	1.55766	1.45589	0.553788	0.600311	0.227474	0.641964	20.753	3619.55	9552.13	10214.9	-69.247	0.0000000E+000	0.0000000E+000	0.0000000E+000	69.247	0.0000000E+000	0.0000000E+000	0.0000000E+000	-69.247	0.0000000E+000	0.0000000E+000	0.0000000E+000	-20.753	0.0000000E+000	0.0000000E+000	0.0000000E+000	20.753	2.63904	69.247	3.49244e-06	-2.6634e-06	-3.79885e-09	-2.6596e-06	0.211561	16852.9	24.0376	16828.9
6810.42	1.57872	0.636357	1.70215	-21.9535	4.83253	0.211852	-0.0129437	36.7236	5.13275	1	9	0.00550531	0.00323433	0	1.08871e-05	9.21806e-05	4.18959e-05	32.8869	0.0129535	0.0108776	-0.00703354	-21.5986	1.70964	1.5896	0.629323	0.544891	0.219636	0.587492	21.9535	5132.75	12733.7	13729.3	-68.0465	0.0000000E+000	0.0000000E+000	0.0000000E+000	68.0465	0.0000000E+000	0.0000000E+000	0.0000000E+000	-68.0465	0.0000000E+000	0.0000000E+000	0.0000000E+000	-21.9535	0.0000000E+000	0.0000000E+000	0.0000000E+000	21.9535	2.48088	68.0465	6.39425e-06	-2.74215e-06	-1.19316e-09	-2.74096e-06	0.21176	16367.2	7.12165	16360
4646	1.72496	0.719596	1.86904	-22.6443	5.22564	0.211861	-0.0124969	47.6049	7.05655	1	9	0.00538083	0.00287893	0	1.35302e-05	-2.23667e-05	1.76096e-05	-39.1744	0.00611674	0.00474186	0.00386384	-22.6975	1.8749	1.7297	0.72346	0.49379	0.205993	0.535034	22.6443	7056.55	16915.4	18328.3	-67.3557	0.0000000E+000	0.0000000E+000	0.0000000E+000	67.3557	0.0000000E+000	0.0000000E+000	0.0000000E+000	-67.3557	0.0000000E+000	0.0000000E+000	0.0000000E+000	-22.6443	0.0000000E+000	0.0000000E+000	0.0000000E+000	22.6443	2.39712	67.3557	2.64307e-06	-2.6476e-06	2.79513e-10	-2.64788e-06	0.211884	16953.2	1.78978	16955
3163.08	1.88356	0.821374	2.05486	-23.5609	5.77662	0.211837	-0.0357717	61.2589	9.78786	1	9	0.0052475	0.0025537	0	3.67493e-06	0.000187637	8.68626e-06	6.30519	0.00340144	0.00338086	-0.000373561	-23.5137	2.05781	1.88694	0.821001	0.446083	0.194526	0.486652	23.5609	9787.86	22445.3	24486.6	-66.4391	0.0000000E+000	0.0000000E+000	0.0000000E+000	66.4391	0.0000000E+000	0.0000000E+000	0.0000000E+000	-66.4391	0.0000000E+000	0.0000000E+000	0.0000000E+000	-23.5609	0.0000000E+000	0.0000000E+000	0.0000000E+000	23.5609	2.29318	66.4391	-9.85523e-06	-7.57778e-06	-6.71209e-09	-7.57107e-06	0.211649	5921.91	5.24539	5916.67
2155.69	2.05593	0.948034	2.26399	-24.7554	6.44278	0.211859	-0.00884737	77.8771	13.6556	1	9	0.00509367	0.00224987	0	9.01588e-07	0.000111272	1.6696e-05	-114.753	0.00742087	-0.00310719	0.00673905	-24.9432	2.264	2.05283	0.954773	0.401108	0.184959	0.441699	24.7554	13655.6	29613.9	32610.7	-65.2446	0.0000000E+000	0.0000000E+000	0.0000000E+000	65.2446	0.0000000E+000	0.0000000E+000	0.0000000E+000	-65.2446	0.0000000E+000	0.0000000E+000	0.0000000E+000	-24.7554	0.0000000E+000	0.0000000E+000	0.0000000E+000	24.7554	2.16863	65.2446	-2.77334e-06	-1.87439e-06	-9.84464e-10	-1.87341e-06	0.211747	23945.9	12.5768	23933.3
1468.59	2.25286	1.11594	2.5141	-26.3511	6.89405	0.211861	-0.010337	97.1137	19.1335	1	9	0.0053807	0.00214021	0	2.9253e-07	3.4907e-05	2.82022e-06	-90.4525	0.00131773	-1.04073e-05	0.00131769	-26.3782	2.51467	2.25285	1.11725	0.356426	0.176553	0.397757	26.3511	19133.5	38626.9	43106	-63.6489	0.0000000E+000	0.0000000E+000	0.0000000E+000	63.6489	0.0000000E+000	0.0000000E+000	0.0000000E+000	-63.6489	0.0000000E+000	0.0000000E+000	0.0000000E+000	-26.3511	0.0000000E+000	0.0000000E+000	0.0000000E+000	26.3511	2.01881	63.6489	-6.09058e-07	-2.19e-06	-3.60833e-10	-2.18964e-06	0.211826	20495.4	3.37691	20492.1
1000.32	2.48545	1.33192	2.81984	-28.1863	7.34578	0.211864	-0.0163326	119.455	26.6509	1	9	0.00535438	0.00189883	0	-7.20769e-09	-3.27544e-06	8.63446e-06	-24.7103	0.00454726	0.00413088	0.00190089	-28.1807	2.82438	2.48958	1.33382	0.312577	0.167506	0.35463	28.1863	26650.9	49732.3	56423.1	-61.8137	0.0000000E+000	0.0000000E+000	0.0000000E+000	61.8137	0.0000000E+000	0.0000000E+000	0.0000000E+000	-61.8137	0.0000000E+000	0.0000000E+000	0.0000000E+000	-28.1863	0.0000000E+000	0.0000000E+000	0.0000000E+000	28.1863	1.86607	61.8137	-2.99738e-07	-3.46028e-06	5.34964e-11	-3.46033e-06	0.211867	12971.8	0.200546	12972
681.09	2.75421	1.6087	3.18961	-30.2887	8.04151	0.21186	-0.0131904	145.258	36.9501	1	10	0.00532282	0.0016688	0	-2.7029e-06	0.000168545	9.86822e-06	-76.9112	0.00591337	0.00133915	0.00575974	-30.3658	3.19367	2.75555	1.61446	0.270721	0.158125	0.313518	30.2887	36950.1	63261.3	73261.9	-59.7113	0.0000000E+000	0.0000000E+000	0.0000000E+000	59.7113	0.0000000E+000	0.0000000E+000	0.0000000E+000	-59.7113	0.0000000E+000	0.0000000E+000	0.0000000E+000	-30.2887	0.0000000E+000	0.0000000E+000	0.0000000E+000	30.2887	1.71207	59.7113	-2.69569e-06	-2.79452e-06	-2.22319e-09	-2.7923e-06	0.211691	16061.6	12.7779	16048.8
463.961	3.13619	1.97144	3.70436	-32.1538	8.49331	0.211873	-0.0130899	174.003	49.2828	1	10	0.00518347	0.00139929	0	-3.73535e-06	3.4907e-05	7.73395e-06	-0.306175	0.00552706	0.00552698	2.95351e-05	-32.1088	3.70906	3.14172	1.97147	0.228548	0.143667	0.269952	32.1538	49282.8	78399.9	92603.1	-57.8462	0.0000000E+000	0.0000000E+000	0.0000000E+000	57.8462	0.0000000E+000	0.0000000E+000	0.0000000E+000	-57.8462	0.0000000E+000	0.0000000E+000	0.0000000E+000	-32.1538	0.0000000E+000	0.0000000E+000	0.0000000E+000	32.1538	1.59082	57.8462	-1.03245e-06	-2.7734e-06	-4.5693e-10	-2.77294e-06	0.211838	16186	2.66671	16183.3
316.316	3.65476	2.37773	4.36015	-33.0475	8.94104	0.211866	-0.0128702	211.61	62.9303	1	10	0.00505605	0.00115961	0	-5.92877e-06	9.21806e-05	6.67146e-06	29.9559	0.00575321	0.00498464	-0.00287277	-32.9801	4.36276	3.65974	2.37486	0.192246	0.125072	0.22935	33.0475	62930.3	96728.7	115398	-56.9525	0.0000000E+000	0.0000000E+000	0.0000000E+000	56.9525	0.0000000E+000	0.0000000E+000	0.0000000E+000	-56.9525	0.0000000E+000	0.0000000E+000	0.0000000E+000	-33.0475	0.0000000E+000	0.0000000E+000	0.0000000E+000	33.0475	1.53708	56.9525	-2.19342e-06	-2.72676e-06	-1.18639e-09	-2.72558e-06	0.211774	16461.7	7.16232	16454.6
215.345	4.39395	2.77304	5.19582	-32.2562	9.39153	0.211875	-0.0144266	266.52	75.916	1	10	0.0049841	0.000959252	0	-6.9947e-06	0.000149454	6.85667e-06	24.2728	0.00714793	0.00651604	-0.00293838	-32.1905	5.19977	4.40047	2.7701	0.16276	0.102718	0.192462	32.2562	75916	120291	142243	-57.7438	0.0000000E+000	0.0000000E+000	0.0000000E+000	57.7438	0.0000000E+000	0.0000000E+000	0.0000000E+000	-57.7438	0.0000000E+000	0.0000000E+000	0.0000000E+000	-32.2562	0.0000000E+000	0.0000000E+000	0.0000000E+000	32.2562	1.58453	57.7438	-1.06593e-06	-3.05664e-06	-2.15612e-09	-3.05448e-06	0.211725	14686.4	10.3596	14676
146.737	5.30111	3.03358	6.10773	-29.7805	9.83754	0.21187	-0.015082	357.54	88.2013	1	10	0.00492853	0.000806933	0	-7.52683e-06	-0.000175096	7.21414e-06	-28.6627	0.0089402	0.00784465	0.00428819	-29.7789	6.11666	5.30895	3.03786	0.142104	0.0813197	0.163727	29.7805	88201.3	154130	177582	-60.2195	0.0000000E+000	0.0000000E+000	0.0000000E+000	60.2195	0.0000000E+000	0.0000000E+000	0.0000000E+000	-60.2195	0.0000000E+000	0.0000000E+000	0.0000000E+000	-29.7805	0.0000000E+000	0.0000000E+000	0.0000000E+000	29.7805	1.74748	60.2195	-5.32136e-07	-3.19541e-06	2.64079e-09	-3.19805e-06	0.212045	14047.9	11.6097	14059.5
100.032	6.31887	3.09832	7.03759	-26.12	10.2888	0.211865	-0.0142107	513.517	99.5312	1	10	0.00490427	0.000696868	0	-1.01504e-05	0.000187637	6.04769e-06	-113.894	0.00867839	-0.00351521	0.00793459	-26.1906	7.03794	6.31536	3.10626	0.127583	0.0625573	0.142094	26.12	99531.2	202989	226077	-63.88	0.0000000E+000	0.0000000E+000	0.0000000E+000	63.88	0.0000000E+000	0.0000000E+000	0.0000000E+000	-63.88	0.0000000E+000	0.0000000E+000	0.0000000E+000	-26.12	0.0000000E+000	0.0000000E+000	0.0000000E+000	26.12	2.03945	63.88	-2.62352e-06	-3.01075e-06	-2.66645e-09	-3.00809e-06	0.211678	14908.9	13.2039	14895.7
68.104	7.29051	2.88003	7.83876	-21.5559	10.7514	0.211862	-0.0142665	811.429	109.534	1	10	0.00489383	0.000624312	0	-1.25212e-05	-0.000213279	4.7461e-06	119.291	0.00760214	-0.00371937	-0.00663014	-21.5208	7.83286	7.28679	2.8734	0.118649	0.0468709	0.127571	21.5559	109534	277275	298126	-68.4441	0.0000000E+000	0.0000000E+000	0.0000000E+000	68.4441	0.0000000E+000	0.0000000E+000	0.0000000E+000	-68.4441	0.0000000E+000	0.0000000E+000	0.0000000E+000	-21.5559	0.0000000E+000	0.0000000E+000	0.0000000E+000	21.5559	2.5314	68.4441	-2.37086e-06	-3.02254e-06	3.04275e-09	-3.02558e-06	0.212076	14850.3	14.9496	14865.3
46.4415	8.08444	2.54447	8.47541	-17.4707	11.1866	0.211866	-0.0150224	1346.84	121.392	1	10	0.00488074	0.000575871	0	-1.40555e-05	0.00024491	7.24049e-06	140.227	0.0125731	-0.00966356	-0.00804354	-17.4384	8.46377	8.07478	2.53643	0.112546	0.0354222	0.117988	17.4707	121392	385694	404346	-72.5293	0.0000000E+000	0.0000000E+000	0.0000000E+000	72.5293	0.0000000E+000	0.0000000E+000	0.0000000E+000	-72.5293	0.0000000E+000	0.0000000E+000	0.0000000E+000	-17.4707	0.0000000E+000	0.0000000E+000	0.0000000E+000	17.4707	3.17726	72.5293	-1.53428e-06	-3.18274e-06	-3.67914e-09	-3.17906e-06	0.211621	14103.4	16.303	14087.1
31.6296	8.6768	2.13165	8.93481	-13.8027	11.6176	0.211871	-0.0157149	2360.53	134.361	1	10	0.00487491	0.000545609	0	-1.60484e-05	7.30894e-05	9.29737e-06	-56.6379	0.0170404	0.00937099	0.0142323	-13.8769	8.94731	8.68617	2.14589	0.10869	0.0267021	0.111922	13.8027	134361	546910	563173	-76.1973	0.0000000E+000	0.0000000E+000	0.0000000E+000	76.1973	0.0000000E+000	0.0000000E+000	0.0000000E+000	-76.1973	0.0000000E+000	0.0000000E+000	0.0000000E+000	-13.8027	0.0000000E+000	0.0000000E+000	0.0000000E+000	13.8027	4.07045	76.1973	-1.99286e-06	-3.32954e-06	-1.1486e-09	-3.32839e-06	0.211798	13482.1	4.65095	13477.5
21.5517	9.09467	1.78282	9.26777	-11.091	12.0385	0.211862	-0.0161878	4142.2	153.284	1	10	0.00487468	0.000525982	0	-1.82379e-05	-2.23667e-05	3.87109e-06	61.4613	0.00735973	0.00351613	-0.00646549	-11.0476	9.26998	9.09819	1.77635	0.105886	0.0207567	0.107901	11.091	153284	781943	796825	-78.909	0.0000000E+000	0.0000000E+000	0.0000000E+000	78.909	0.0000000E+000	0.0000000E+000	0.0000000E+000	-78.909	0.0000000E+000	0.0000000E+000	0.0000000E+000	-11.091	0.0000000E+000	0.0000000E+000	0.0000000E+000	11.091	5.10128	78.909	-2.18958e-06	-3.42959e-06	3.62067e-10	-3.42995e-06	0.211885	13087.8	1.3817	13089.1
14.6852	9.41993	1.45514	9.53166	-8.78131	12.4992	0.211865	-0.013682	7447.97	173.584	1	10	0.00487061	0.000510993	0	-2.21797e-05	0.000130363	2.19514e-06	10.2777	0.00429582	0.0042269	-0.000766455	-8.77289	9.53572	9.42416	1.45437	0.103684	0.0160165	0.104914	8.78131	173583	1.12371e+06	1.13703e+06	-81.2187	0.0000000E+000	0.0000000E+000	0.0000000E+000	81.2187	0.0000000E+000	0.0000000E+000	0.0000000E+000	-81.2187	0.0000000E+000	0.0000000E+000	0.0000000E+000	-8.78131	0.0000000E+000	0.0000000E+000	0.0000000E+000	8.78131	6.47357	81.2187	-3.94181e-06	-2.89874e-06	-1.78362e-09	-2.89695e-06	0.211735	15485	9.5281	15475.5
10.0032	9.68127	1.21948	9.75778	-7.17934	12.9508	0.211879	-0.0137713	13046.8	203.777	1	10	0.00487526	0.000499629	0	-2.35127e-05	-0.000117823	7.85321e-06	-140.316	0.0157181	-0.0120964	0.0100367	-7.24676	9.74704	9.66918	1.22952	0.101679	0.0128078	0.102482	7.17934	203777	1.61775e+06	1.63054e+06	-82.8207	0.0000000E+000	0.0000000E+000	0.0000000E+000	82.8207	0.0000000E+000	0.0000000E+000	0.0000000E+000	-82.8207	0.0000000E+000	0.0000000E+000	0.0000000E+000	-7.17934	0.0000000E+000	0.0000000E+000	0.0000000E+000	7.17934	7.93884	82.8207	-1.33294e-06	-2.91785e-06	1.62257e-09	-2.91947e-06	0.211996	15385.5	8.55566	15394
6.81719	9.89644	1.02838	9.94973	-5.93255	13.2905	0.211873	-0.0149963	22701.8	242.519	1	10	0.00487284	0.000489746	0	-2.74357e-05	0.000206728	6.56242e-06	13.1758	0.0133997	0.0130469	-0.00305431	-5.90732	9.96239	9.90949	1.02533	0.0999669	0.010388	0.100505	5.93255	242519	2.33384e+06	2.34641e+06	-84.0675	0.0000000E+000	0.0000000E+000	0.0000000E+000	84.0675	0.0000000E+000	0.0000000E+000	0.0000000E+000	-84.0675	0.0000000E+000	0.0000000E+000	0.0000000E+000	-5.93255	0.0000000E+000	0.0000000E+000	0.0000000E+000	5.93255	9.62333	84.0675	-3.92305e-06	-3.17731e-06	-3.10016e-09	-3.17421e-06	0.211666	14128.3	13.7852	14114.5
4.63925	10.0822	0.951219	10.127	-5.3897	14.0354	0.21188	-0.014205	36065.5	318.196	1	11	0.00487745	0.00048163	0	-2.57369e-05	-7.96403e-05	1.049e-05	-41.094	0.0217803	0.0164143	0.0143161	-5.46149	10.1447	10.0986	0.965535	0.0983097	0.00927518	0.0987463	5.3897	318196	3.37263e+06	3.38761e+06	-84.6103	0.0000000E+000	0.0000000E+000	0.0000000E+000	84.6103	0.0000000E+000	0.0000000E+000	0.0000000E+000	-84.6103	0.0000000E+000	0.0000000E+000	0.0000000E+000	-5.3897	0.0000000E+000	0.0000000E+000	0.0000000E+000	5.3897	10.5992	84.6103	1.69888e-06	-3.00975e-06	1.13129e-09	-3.01088e-06	0.21196	14915.9	5.60651	14921.5
3.1604	10.2362	0.880749	10.274	-4.91776	14.7284	0.21187	-0.013618	57177.7	420.193	1	11	0.00486933	0.000473946	0	-3.35425e-05	9.21806e-05	4.39091e-06	61.0656	0.00926458	0.00448227	-0.00810813	-4.87058	10.2778	10.2407	0.872641	0.0969745	0.00834393	0.0973328	4.91776	420193	4.88355e+06	4.9016e+06	-85.0822	0.0000000E+000	0.0000000E+000	0.0000000E+000	85.0822	0.0000000E+000	0.0000000E+000	0.0000000E+000	-85.0822	0.0000000E+000	0.0000000E+000	0.0000000E+000	-4.91776	0.0000000E+000	0.0000000E+000	0.0000000E+000	4.91776	11.6222	85.0822	-7.80569e-06	-2.88525e-06	-1.25532e-09	-2.884e-06	0.211778	15558.1	6.76903	15551.4
2.15577	10.3999	0.841033	10.4339	-4.6234	15.7321	0.211871	-0.0146117	87782	570.348	1	11	0.0048711	0.000466854	0	-4.48388e-05	0.000111272	3.46643e-06	72.0159	0.00742508	0.00229252	-0.00706231	-4.58373	10.4356	10.4022	0.83397	0.0955298	0.00772541	0.0958417	4.6234	570348	7.05273e+06	7.07575e+06	-85.3766	0.0000000E+000	0.0000000E+000	0.0000000E+000	85.3766	0.0000000E+000	0.0000000E+000	0.0000000E+000	-85.3766	0.0000000E+000	0.0000000E+000	0.0000000E+000	-4.6234	0.0000000E+000	0.0000000E+000	0.0000000E+000	4.6234	12.3657	85.3766	-1.12962e-05	-3.0958e-06	-1.62587e-09	-3.09417e-06	0.211759	14500.1	7.61525	14492.4
1.46631	10.5761	0.842987	10.6096	-4.55724	17.1925	0.211861	-0.0173736	128758	812.86	1	11	0.00487542	0.000459528	0	-5.22781e-05	-3.27544e-06	4.916e-06	14.2733	0.0106979	0.0103677	-0.00263754	-4.53861	10.6197	10.5864	0.84035	0.0939561	0.00748895	0.0942541	4.55724	812859	1.01981e+07	1.02304e+07	-85.4428	0.0000000E+000	0.0000000E+000	0.0000000E+000	85.4428	0.0000000E+000	0.0000000E+000	0.0000000E+000	-85.4428	0.0000000E+000	0.0000000E+000	0.0000000E+000	-4.55724	0.0000000E+000	0.0000000E+000	0.0000000E+000	4.55724	12.546	85.4428	-7.43939e-06	-3.68079e-06	5.69063e-11	-3.68085e-06	0.211864	12194.4	0.188529	12194.6
1.00006	10.7256	0.88414	10.762	-4.71238	19.3216	0.211865	-0.0185455	179999	1214.86	1	11	0.00487737	0.000453203	0	-5.23928e-05	0.000225819	2.40587e-06	-11.832	0.0053086	0.00519581	0.00108849	-4.71588	10.7673	10.7308	0.885229	0.0926054	0.0076337	0.0929195	4.71238	1.21486e+06	1.47377e+07	1.47877e+07	-85.2876	0.0000000E+000	0.0000000E+000	0.0000000E+000	85.2876	0.0000000E+000	0.0000000E+000	0.0000000E+000	-85.2876	0.0000000E+000	0.0000000E+000	0.0000000E+000	-4.71238	0.0000000E+000	0.0000000E+000	0.0000000E+000	4.71238	12.1311	85.2876	-1.14651e-07	-3.92915e-06	-4.18793e-09	-3.92496e-06	0.21164	11424.1	12.1765	11411.9
0.681362	10.8712	0.953175	10.9129	-5.0108	22.4319	0.211872	-0.0186333	245058	1869.52	1	11	0.00487543	0.000446757	0	-4.87555e-05	0.000130363	2.03217e-06	-38.2315	0.00454871	0.00357309	0.00281493	-5.02388	10.9167	10.8748	0.95599	0.0912841	0.00800367	0.0916343	5.0108	1.86952e+06	2.13225e+07	2.14043e+07	-84.9892	0.0000000E+000	0.0000000E+000	0.0000000E+000	84.9892	0.0000000E+000	0.0000000E+000	0.0000000E+000	-84.9892	0.0000000E+000	0.0000000E+000	0.0000000E+000	-5.0108	0.0000000E+000	0.0000000E+000	0.0000000E+000	5.0108	11.4053	84.9892	3.63729e-06	-3.94788e-06	-2.42909e-09	-3.94545e-06	0.211742	11370.6	6.99624	11363.6
0.464091	11.0519	1.0861	11.1051	-5.61257	26.9886	0.21186	-0.017789	315754	3020.21	1	11	0.00487496	0.000438983	0	-5.00732e-05	0.00024491	3.38748e-06	10.4596	0.00771666	0.00758843	-0.0014009	-5.60155	11.1125	11.0595	1.08469	0.0896168	0.00880685	0.0900485	5.61257	3.02021e+06	3.07331e+07	3.08812e+07	-84.3874	0.0000000E+000	0.0000000E+000	0.0000000E+000	84.3874	0.0000000E+000	0.0000000E+000	0.0000000E+000	-84.3874	0.0000000E+000	0.0000000E+000	0.0000000E+000	-5.61257	0.0000000E+000	0.0000000E+000	0.0000000E+000	5.61257	10.1758	84.3874	-1.31771e-06	-3.76877e-06	-4.35671e-09	-3.76441e-06	0.211615	11909.6	13.7675	11895.8
0.316193	11.2504	1.32451	11.3281	-6.71452	33.6621	0.211862	-0.0161293	380026	5195.27	1	11	0.00487718	0.000430538	0	-7.59585e-05	0.000302184	2.50636e-06	9.51267	0.00582145	0.0057414	-0.000962087	-6.70629	11.3337	11.2562	1.32355	0.0876705	0.0103214	0.088276	6.71452	5.19527e+06	4.41287e+07	4.44335e+07	-83.2855	0.0000000E+000	0.0000000E+000	0.0000000E+000	83.2855	0.0000000E+000	0.0000000E+000	0.0000000E+000	-83.2855	0.0000000E+000	0.0000000E+000	0.0000000E+000	-6.71452	0.0000000E+000	0.0000000E+000	0.0000000E+000	6.71452	8.49402	83.2855	-2.58853e-05	-3.41719e-06	-4.87403e-09	-3.41232e-06	0.21156	13135.2	18.7351	13116.5
0.215268	11.4526	1.69256	11.577	-8.4068	43.4555	0.211868	-0.0167064	436816	9336.74	1	11	0.00487563	0.00042115	0	-0.00015235	1.58158e-05	2.1025e-06	-30.6137	0.00499229	0.00429646	0.00254231	-8.41613	11.5816	11.4569	1.6951	0.0854504	0.0126286	0.0863785	8.4068	9.33674e+06	6.31764e+07	6.38626e+07	-81.5932	0.0000000E+000	0.0000000E+000	0.0000000E+000	81.5932	0.0000000E+000	0.0000000E+000	0.0000000E+000	-81.5932	0.0000000E+000	0.0000000E+000	0.0000000E+000	-8.4068	0.0000000E+000	0.0000000E+000	0.0000000E+000	8.4068	6.76643	81.5932	-7.6392e-05	-3.53954e-06	-2.64224e-10	-3.53927e-06	0.211852	12681.9	0.946692	12680.9
0.146929	11.7081	2.13634	11.9014	-10.3408	57.7939	0.211867	-0.0202112	507042	16337.7	1	11	0.00487927	0.000409976	0	-0.000305873	-4.14579e-05	2.9329e-06	-15.0199	0.00715383	0.00690942	0.00185395	-10.3437	11.9085	11.715	2.13819	0.0826592	0.0150826	0.084024	10.3408	1.63377e+07	8.95374e+07	9.10158e+07	-79.6592	0.0000000E+000	0.0000000E+000	0.0000000E+000	79.6592	0.0000000E+000	0.0000000E+000	0.0000000E+000	-79.6592	0.0000000E+000	0.0000000E+000	0.0000000E+000	-10.3408	0.0000000E+000	0.0000000E+000	0.0000000E+000	10.3408	5.48043	79.6592	-0.000153522	-4.28208e-06	8.37912e-10	-4.28291e-06	0.211908	10482.7	2.05124	10484.7
0.0999041	12.1174	2.72991	12.4211	-12.6961	78.8712	0.211866	-0.0244682	583564	28188	1	11	0.0048779	0.000392711	0	-0.000547921	0.00024491	2.19365e-06	11.6458	0.00558591	0.00547092	-0.00112758	-12.6855	12.4262	12.1229	2.72878	0.0785396	0.0176941	0.0805081	12.6961	2.8188e+07	1.2512e+08	1.28256e+08	-77.3039	0.0000000E+000	0.0000000E+000	0.0000000E+000	77.3039	0.0000000E+000	0.0000000E+000	0.0000000E+000	-77.3039	0.0000000E+000	0.0000000E+000	0.0000000E+000	-12.6961	0.0000000E+000	0.0000000E+000	0.0000000E+000	12.6961	4.43875	77.3039	-0.000242048	-5.18398e-06	-5.99251e-09	-5.17799e-06	0.211621	8658.83	10.0093	8648.82
0.0680626	12.6595	3.59598	13.1603	-15.8574	109.799	0.211868	-0.0277672	650270	48550.8	1	11	0.00487587	0.000370498	0	-0.000857071	5.39982e-05	1.66988e-06	-22.9444	0.00450713	0.00415054	0.00175705	-15.8598	13.1648	12.6637	3.59774	0.0730943	0.0207627	0.075986	15.8574	4.85508e+07	1.70921e+08	1.77683e+08	-74.1426	0.0000000E+000	0.0000000E+000	0.0000000E+000	74.1426	0.0000000E+000	0.0000000E+000	0.0000000E+000	-74.1426	0.0000000E+000	0.0000000E+000	0.0000000E+000	-15.8574	0.0000000E+000	0.0000000E+000	0.0000000E+000	15.8574	3.52046	74.1426	-0.000309151	-5.88297e-06	-1.49938e-09	-5.88147e-06	0.211814	7630.15	1.94468	7628.21
0.0464052	13.3237	4.81201	14.166	-19.8578	155.149	0.211866	-0.0305733	712734	82240.5	1	11	0.00487517	0.000344146	0	-0.00119084	0.000321275	1.78122e-06	-21.0326	0.00517577	0.00483094	0.00185758	-19.8583	14.1712	13.3285	4.81387	0.0663941	0.0239791	0.0705916	19.8578	8.22405e+07	2.27711e+08	2.42107e+08	-70.1422	0.0000000E+000	0.0000000E+000	0.0000000E+000	70.1422	0.0000000E+000	0.0000000E+000	0.0000000E+000	-70.1422	0.0000000E+000	0.0000000E+000	0.0000000E+000	-19.8578	0.0000000E+000	0.0000000E+000	0.0000000E+000	19.8578	2.76884	70.1422	-0.000333764	-6.47746e-06	-9.82246e-09	-6.46764e-06	0.211545	6929.77	10.5083	6919.27
0.0315922	14.1683	6.27817	15.497	-23.8988	221.755	0.211863	-0.0323834	802430	131698	1	11	0.00487529	0.000314596	0	-0.00153562	-0.000156005	1.51517e-06	-30.3306	0.00481624	0.00415702	0.00243215	-23.9008	15.5018	14.1725	6.2806	0.0589962	0.026142	0.0645287	23.8988	1.31698e+08	2.9721e+08	3.25082e+08	-66.1012	0.0000000E+000	0.0000000E+000	0.0000000E+000	66.1012	0.0000000E+000	0.0000000E+000	0.0000000E+000	-66.1012	0.0000000E+000	0.0000000E+000	0.0000000E+000	-23.8988	0.0000000E+000	0.0000000E+000	0.0000000E+000	23.8988	2.25676	66.1012	-0.00034479	-6.86085e-06	5.05198e-09	-6.8659e-06	0.212019	6542.32	4.81744	6547.14
0.0215268	15.4923	8.23182	17.5435	-27.9838	366.1	0.211864	-0.0335903	898143	197744	1	12	0.00487168	0.000277691	0	-0.00247889	0.000168545	1.7885e-06	12.967	0.0064406	0.00627636	-0.0014452	-27.97	17.5484	15.4986	8.23037	0.0503365	0.0267462	0.0570011	27.9838	1.97744e+08	3.72155e+08	4.21429e+08	-62.0162	0.0000000E+000	0.0000000E+000	0.0000000E+000	62.0162	0.0000000E+000	0.0000000E+000	0.0000000E+000	-62.0162	0.0000000E+000	0.0000000E+000	0.0000000E+000	-27.9838	0.0000000E+000	0.0000000E+000	0.0000000E+000	27.9838	1.88201	62.0162	-0.000943261	-7.11658e-06	-5.6615e-09	-7.11092e-06	0.211695	6307.29	5.01768	6302.27
0.0146812	17.2891	10.6324	20.2969	-31.5905	509.402	0.211863	-0.0339646	1.0196e+06	279790	1	12	0.00487478	0.000240174	0	-0.00352283	0.000149454	3.18327e-06	10.0015	0.013254	0.0130526	-0.00230187	-31.5657	20.3068	17.3022	10.6301	0.0419678	0.0258091	0.0492687	31.5905	2.7979e+08	4.54962e+08	5.3411e+08	-58.4095	0.0000000E+000	0.0000000E+000	0.0000000E+000	58.4095	0.0000000E+000	0.0000000E+000	0.0000000E+000	-58.4095	0.0000000E+000	0.0000000E+000	0.0000000E+000	-31.5905	0.0000000E+000	0.0000000E+000	0.0000000E+000	31.5905	1.62608	58.4095	-0.00104395	-7.19584e-06	-5.07616e-09	-7.19076e-06	0.211713	6237.74	4.40029	6233.34