File: txt/18605_R301_UA696_SOC00_C04.mpt
EC-Lab ASCII FILE
Nb header lines : 65

Potentio Electrochemical Impedance Spectroscopy

Run on channel : 4 (SN 66756)
User :
CE vs. WE compliance from -10 V to 10 V
Electrode connection : standard
Potential control : Ewe
Ewe ctrl range : min = -10.00 V, max = 10.00 V
Safety Limits :
	Do not start on E overload
Acquisition started on : 10/27/2025 16:23:30.033
Technique started on : 10/27/2025 16:23:31.902
Loaded Setting File :  C:\Users\Celltest\OneDrive - store-dot.com\Documents\EC-Lab\Data\@Biologic Test Protocols\anode half cell EIS SOC00.mps
Saved on :
	File : 18605_R301_UA696_SOC00_C04.mpr
	Directory : C:\Users\Celltest\OneDrive - store-dot.com\Documents\EC-Lab\Data\Gyutae\
	Host : 169.254.61.224
Device : VMP-3e (SN .003165)
Address : USB
EC-LAB for windows v11.62 (software)
Internet server v27.00 (firmware)
Command interpretor v12.03 (firmware)
Electrode material :
Initial state :
Electrolyte :
Comments :
Electrode surface area : 0.001 cm²
Characteristic mass : 0.001 g
Equivalent Weight : 0.000 g/eq.
Density : 0.000 g/cm3
Volume (V) : 0.001 cm³
Record Ece
Cycle Definition : Charge/Discharge alternance
Mode                Single sine
E (V)               0.0000
vs.                 Eoc
tE (h:m:s)          0:00:0.0000
record              0
dI                  0.000
unit dI             mA
dt (s)              0.000
fi                  100.000
unit fi             kHz
ff                  10.000
unit ff             mHz
Nd                  6
Points              per decade
spacing             Logarithmic
Va (mV)             5.0
pw                  0.10
Na                  2
corr                0
E range min (V)     -10.000
E range max (V)     10.000
I Range             Auto
Bandwidth           5
nc cycles           0
goto Ns'            0
nr cycles           0
inc. cycle          0

freq/Hz	Re(Z)/Ohm	-Im(Z)/Ohm	|Z|/Ohm	Phase(Z)/deg	time/s	<Ewe>/V	<I>/mA	Cs/µF	Cp/µF	cycle number	I Range	|Ewe|/V	|I|/A	Ns	(Q-Qo)/mA.h	<Ece>/V	|Ece|/V	Phase(Zce)/deg	|Zce|/Ohm	Re(Zce)/Ohm	-Im(Zce)/Ohm	Phase(Zwe-ce)/deg	|Zwe-ce|/Ohm	Re(Zwe-ce)/Ohm	-Im(Zwe-ce)/Ohm	Re(Y)/Ohm-1	Im(Y)/Ohm-1	|Y|/Ohm-1	Phase(Y)/deg	Re(C)/nF	Im(C)/nF	|C|/nF	Phase(C)/deg	Re(M)	Im(M)	|M|	Phase(M)/deg	Re(Permittivity)	Im(Permittivity)	|Permittivity|	Phase(Permittivity)/deg	Re(Resistivity)/Ohm.cm	Im(Resistivity)/Ohm.cm	|Resistivity|/Ohm.cm	Phase(Resistivity)/deg	Re(Conductivity)/mS/cm	Im(Conductivity)/mS/cm	|Conductivity|/mS/cm	Phase(Conductivity)/deg	Tan(Delta)	Loss Angle(Delta)/deg	dq/mA.h	Pwe/W	Pce/W	Pwe-ce/W	<Ewe-Ece>/V	Rwe/Ohm	Rce/Ohm	Rwe-ce/Ohm		Ewe-Ece/V
100004	1.03484	0.411566	1.11368	-21.6882	1.86857	0.21299	0.00751153	3.86691	0.528107	1	9	0.00493344	0.00442985	0	1.04723e-05	-0.000455031	2.79266e-05	72.1359	0.00630418	0.00193388	-0.00600023	-21.3644	1.11328	1.03678	0.405566	0.834359	0.331832	0.897924	21.6882	528.107	1327.87	1429.04	-68.3118	0.0000000E+000	0.0000000E+000	0.0000000E+000	68.3118	0.0000000E+000	0.0000000E+000	0.0000000E+000	-68.3118	0.0000000E+000	0.0000000E+000	0.0000000E+000	-21.6882	0.0000000E+000	0.0000000E+000	0.0000000E+000	21.6882	2.5144	68.3118	1.04723e-05	1.59988e-06	-3.41798e-09	1.6033e-06	0.213445	28355.1	60.5776	28415.7
68132	1.14644	0.477553	1.24193	-22.6143	2.25353	0.212979	0.00687747	4.89155	0.723263	1	9	0.0054326	0.00437432	0	-1.85111e-06	-1.55017e-05	2.79168e-05	52.0229	0.00638198	0.00392713	-0.00503063	-22.3307	1.24364	1.15037	0.472523	0.74329	0.309619	0.805198	22.6143	723.263	1736.31	1880.93	-67.3857	0.0000000E+000	0.0000000E+000	0.0000000E+000	67.3857	0.0000000E+000	0.0000000E+000	0.0000000E+000	-67.3857	0.0000000E+000	0.0000000E+000	0.0000000E+000	-22.6143	0.0000000E+000	0.0000000E+000	0.0000000E+000	22.6143	2.40066	67.3857	-1.23234e-05	1.46475e-06	-1.06612e-10	1.46486e-06	0.212994	30967.6	2.25398	30969.8
46420.4	1.27085	0.525332	1.37515	-22.4587	2.63854	0.212979	0.00143203	6.52647	0.952455	1	9	0.00545542	0.00396714	0	-1.1055e-06	-5.37216e-05	2.23087e-05	12.5342	0.00562338	0.00548935	-0.00122039	-22.3248	1.37976	1.27634	0.524111	0.672039	0.2778	0.727193	22.4587	952.455	2304.13	2493.22	-67.5413	0.0000000E+000	0.0000000E+000	0.0000000E+000	67.5413	0.0000000E+000	0.0000000E+000	0.0000000E+000	-67.5413	0.0000000E+000	0.0000000E+000	0.0000000E+000	-22.4587	0.0000000E+000	0.0000000E+000	0.0000000E+000	22.4587	2.41914	67.5413	7.45612e-07	3.04991e-07	-7.69308e-11	3.05068e-07	0.213032	148725	37.5144	148763
31621.1	1.40279	0.58333	1.51924	-22.5792	3.02152	0.212976	0.0057958	8.62836	1.27204	1	9	0.00542121	0.00356836	0	4.52038e-06	-0.000225711	1.11132e-05	53.5175	0.00311438	0.00185174	-0.00250408	-22.4653	1.51999	1.40464	0.580826	0.607769	0.252731	0.658222	22.5792	1272.04	3059.01	3312.95	-67.4208	0.0000000E+000	0.0000000E+000	0.0000000E+000	67.4208	0.0000000E+000	0.0000000E+000	0.0000000E+000	-67.4208	0.0000000E+000	0.0000000E+000	0.0000000E+000	-22.5792	0.0000000E+000	0.0000000E+000	0.0000000E+000	22.5792	2.4048	67.4208	5.62588e-06	1.23437e-06	-1.30818e-09	1.23567e-06	0.213202	36746.6	38.944	36785.6
21544.7	1.53688	0.637988	1.66404	-22.5442	3.40651	0.212973	-0.000320964	11.5789	1.70202	1	9	0.00538716	0.0032374	0	1.05741e-05	-0.000321261	3.57352e-06	96.6425	0.00110383	-0.000127685	-0.00109642	-22.5111	1.6635	1.53675	0.636891	0.555025	0.230401	0.600947	22.5442	1702.02	4100.08	4439.32	-67.4557	0.0000000E+000	0.0000000E+000	0.0000000E+000	67.4557	0.0000000E+000	0.0000000E+000	0.0000000E+000	-67.4557	0.0000000E+000	0.0000000E+000	0.0000000E+000	-22.5442	0.0000000E+000	0.0000000E+000	0.0000000E+000	22.5442	2.40895	67.4557	6.05369e-06	-6.83567e-08	1.03113e-10	-6.84598e-08	0.213294	663540	1000.92	664541
14678.6	1.67993	0.704322	1.82161	-22.7461	3.78956	0.212977	-0.00528151	15.3945	2.30143	1	9	0.00540938	0.00296957	0	4.55696e-06	-1.55017e-05	1.00279e-05	26.1435	0.0033769	0.00303142	-0.00148793	-22.6662	1.82383	1.68297	0.702834	0.506271	0.212257	0.548966	22.7461	2301.43	5489.33	5952.25	-67.2539	0.0000000E+000	0.0000000E+000	0.0000000E+000	67.2539	0.0000000E+000	0.0000000E+000	0.0000000E+000	-67.2539	0.0000000E+000	0.0000000E+000	0.0000000E+000	-22.7461	0.0000000E+000	0.0000000E+000	0.0000000E+000	22.7461	2.38518	67.2539	-6.01711e-06	-1.12484e-06	8.18723e-11	-1.12492e-06	0.212993	40325.1	2.93508	40328
10002.2	1.83483	0.787823	1.99682	-23.2373	4.17254	0.212991	-0.00464746	20.1974	3.14395	1	9	0.00533596	0.00267224	0	1.23991e-06	-0.000149271	9.70934e-06	-77.4536	0.00363341	0.000789288	0.00354665	-23.3218	1.99894	1.83562	0.79137	0.460172	0.197584	0.500797	23.2373	3143.95	7322.24	7968.66	-66.7627	0.0000000E+000	0.0000000E+000	0.0000000E+000	66.7627	0.0000000E+000	0.0000000E+000	0.0000000E+000	-66.7627	0.0000000E+000	0.0000000E+000	0.0000000E+000	-23.2373	0.0000000E+000	0.0000000E+000	0.0000000E+000	23.2373	2.32899	66.7627	-3.31705e-06	-9.89866e-07	6.93733e-10	-9.9056e-07	0.21314	45829.4	32.1189	45861.6
6810.42	1.9979	0.889834	2.1871	-24.0074	4.55555	0.212994	-0.00654963	26.2626	4.34727	1	9	0.00510369	0.00233354	0	-4.13727e-06	-1.55017e-05	2.94078e-05	78.8444	0.0126022	0.00243819	-0.0123641	-23.6851	2.18433	2.00034	0.87747	0.417672	0.186025	0.457226	24.0074	4347.27	9760.72	10685.1	-65.9926	0.0000000E+000	0.0000000E+000	0.0000000E+000	65.9926	0.0000000E+000	0.0000000E+000	0.0000000E+000	-65.9926	0.0000000E+000	0.0000000E+000	0.0000000E+000	-24.0074	0.0000000E+000	0.0000000E+000	0.0000000E+000	24.0074	2.24525	65.9926	-5.37718e-06	-1.39503e-06	1.0153e-10	-1.39513e-06	0.21301	32520	2.3668	32522.4
4646	2.15899	1.01758	2.38678	-25.2357	4.94662	0.212977	-0.00692261	33.6643	6.1191	1	9	0.00510567	0.00213915	0	-5.89126e-06	-0.000283041	9.45137e-06	-32.7402	0.00441829	0.00371636	0.00238954	-25.2495	2.39116	2.1627	1.01997	0.378989	0.178627	0.418975	25.2357	6119.1	12982.8	14352.5	-64.7643	0.0000000E+000	0.0000000E+000	0.0000000E+000	64.7643	0.0000000E+000	0.0000000E+000	0.0000000E+000	-64.7643	0.0000000E+000	0.0000000E+000	0.0000000E+000	-25.2357	0.0000000E+000	0.0000000E+000	0.0000000E+000	25.2357	2.12168	64.7643	-1.75399e-06	-1.47436e-06	1.95938e-09	-1.47632e-06	0.21326	30765.4	40.8865	30806.3
3163.08	2.3346	1.20422	2.62688	-27.2854	5.32067	0.212929	-0.0288161	41.7833	8.78084	1	9	0.00519057	0.00197594	0	-9.83068e-06	-0.000225711	7.25708e-06	-60.7968	0.00367272	0.00179195	0.0032059	-27.3296	2.62994	2.33639	1.20743	0.338323	0.174512	0.380679	27.2854	8780.84	17023.2	19154.4	-62.7146	0.0000000E+000	0.0000000E+000	0.0000000E+000	62.7146	0.0000000E+000	0.0000000E+000	0.0000000E+000	-62.7146	0.0000000E+000	0.0000000E+000	0.0000000E+000	-27.2854	0.0000000E+000	0.0000000E+000	0.0000000E+000	27.2854	1.93867	62.7146	-3.93942e-06	-6.1358e-06	6.50412e-09	-6.1423e-06	0.213155	7389.23	7.83281	7397.07
2155.69	2.52913	1.46195	2.92126	-30.0299	5.77177	0.212916	-0.0134124	50.5012	12.6481	1	9	0.00510829	0.00174866	0	-1.07021e-05	0.000118268	5.98912e-06	84.8258	0.00342499	0.000308879	-0.00341103	-29.9689	2.91983	2.52944	1.45854	0.296366	0.171313	0.342318	30.0299	12648.1	21880.8	25273.4	-59.9701	0.0000000E+000	0.0000000E+000	0.0000000E+000	59.9701	0.0000000E+000	0.0000000E+000	0.0000000E+000	-59.9701	0.0000000E+000	0.0000000E+000	0.0000000E+000	-30.0299	0.0000000E+000	0.0000000E+000	0.0000000E+000	30.0299	1.72997	59.9701	-8.71414e-07	-2.85571e-06	-1.58625e-09	-2.85412e-06	0.212798	15874.6	8.81784	15865.8
1468.59	2.78322	1.84455	3.33897	-33.534	6.22311	0.212933	-0.0211329	58.7528	17.9303	1	9	0.00500926	0.00150024	0	-1.42612e-05	-0.000149271	8.96481e-06	8.54813	0.00597557	0.00590919	-0.00088821	-33.4654	3.34341	2.78913	1.84367	0.249645	0.16545	0.299494	33.534	17930.3	27054.7	32456.9	-56.466	0.0000000E+000	0.0000000E+000	0.0000000E+000	56.466	0.0000000E+000	0.0000000E+000	0.0000000E+000	-56.466	0.0000000E+000	0.0000000E+000	0.0000000E+000	-33.534	0.0000000E+000	0.0000000E+000	0.0000000E+000	33.534	1.50889	56.466	-3.55906e-06	-4.49988e-06	3.15454e-09	-4.50304e-06	0.213082	10075.9	7.06346	10082.9
1000.32	3.09344	2.35357	3.88699	-37.2649	6.91977	0.212951	0.00103849	67.6011	24.7846	1	10	0.00504438	0.00129776	0	-1.42568e-05	-5.37216e-05	8.31186e-06	-54.3362	0.00640477	0.00373416	0.00520357	-37.2925	3.89311	3.09717	2.35878	0.204746	0.155776	0.257269	37.2649	24784.6	32575.9	40932.5	-52.7351	0.0000000E+000	0.0000000E+000	0.0000000E+000	52.7351	0.0000000E+000	0.0000000E+000	0.0000000E+000	-52.7351	0.0000000E+000	0.0000000E+000	0.0000000E+000	-37.2649	0.0000000E+000	0.0000000E+000	0.0000000E+000	37.2649	1.31436	52.7351	4.37297e-09	2.21148e-07	-5.57895e-11	2.21204e-07	0.213005	205058	51.7304	205110
681.09	3.51849	3.0447	4.65295	-40.8711	7.36956	0.212946	0.0004715	76.7487	32.8627	1	10	0.00493655	0.00106095	0	-1.49946e-05	-0.000168381	8.12215e-06	-63.5454	0.00765554	0.00341046	0.00685391	-40.9074	4.66002	3.5219	3.05156	0.162517	0.140633	0.214917	40.8711	32862.7	37976.5	50221.2	-49.1289	0.0000000E+000	0.0000000E+000	0.0000000E+000	49.1289	0.0000000E+000	0.0000000E+000	0.0000000E+000	-49.1289	0.0000000E+000	0.0000000E+000	0.0000000E+000	-40.8711	0.0000000E+000	0.0000000E+000	0.0000000E+000	40.8711	1.15561	49.1289	-7.37833e-07	1.00404e-07	-7.93918e-11	1.00484e-07	0.213115	451635	357.118	451993
463.961	4.1264	3.94	5.70533	-43.6762	7.82129	0.212954	0.000740069	87.0649	41.5215	1	10	0.00485373	0.000850736	0	-1.51814e-05	-0.000225711	8.20132e-06	15.9474	0.00964026	0.00926925	-0.00264871	-43.5927	5.71021	4.13567	3.93735	0.126768	0.121042	0.175275	43.6762	41521.5	43486	60125.5	-46.3238	0.0000000E+000	0.0000000E+000	0.0000000E+000	46.3238	0.0000000E+000	0.0000000E+000	0.0000000E+000	-46.3238	0.0000000E+000	0.0000000E+000	0.0000000E+000	-43.6762	0.0000000E+000	0.0000000E+000	0.0000000E+000	43.6762	1.04731	46.3238	-1.86778e-07	1.57601e-07	-1.67042e-10	1.57768e-07	0.21318	287749	304.987	288054
316.316	5.0169	5.06238	7.1272	-45.2585	8.26907	0.212956	0.000143228	99.3905	50.1436	1	10	0.00480099	0.000673615	0	-1.47386e-05	-0.000263931	4.26992e-06	-58.816	0.00633881	0.00328217	0.00542291	-45.2704	7.13336	5.02018	5.0678	0.0987638	0.099659	0.140308	45.2585	50143.6	49693.2	70596	-44.7415	0.0000000E+000	0.0000000E+000	0.0000000E+000	44.7415	0.0000000E+000	0.0000000E+000	0.0000000E+000	-44.7415	0.0000000E+000	0.0000000E+000	0.0000000E+000	-45.2585	0.0000000E+000	0.0000000E+000	0.0000000E+000	45.2585	0.991017	44.7415	4.42806e-07	3.05013e-08	-3.78024e-11	3.05391e-08	0.21322	1.48683e+06	1842.73	1.48867e+06
215.345	6.3959	6.33337	9.00106	-44.7186	8.71957	0.212961	-0.0005767	116.695	57.7742	1	10	0.00477265	0.000530232	0	-1.42218e-05	-0.000130161	7.5596e-06	-19.9594	0.0142572	0.0134008	0.00486675	-44.6806	9.01401	6.4093	6.33824	0.0789431	0.0781714	0.111098	44.7186	57774.2	58344.5	82109.3	-45.2814	0.0000000E+000	0.0000000E+000	0.0000000E+000	45.2814	0.0000000E+000	0.0000000E+000	0.0000000E+000	-45.2814	0.0000000E+000	0.0000000E+000	0.0000000E+000	-44.7186	0.0000000E+000	0.0000000E+000	0.0000000E+000	44.7186	1.00987	45.2814	5.16822e-07	-1.22815e-07	7.50641e-11	-1.2289e-07	0.213091	369276	225.7	369502
146.737	8.30563	7.58464	11.2477	-42.4021	9.16552	0.212952	-0.00117726	143.003	65.0262	1	10	0.00475283	0.000422561	0	-1.43562e-05	-0.000263931	1.05166e-05	40.6922	0.0248877	0.0188704	-0.0162267	-42.2763	11.2507	8.3245	7.56841	0.0656518	0.0599528	0.0889072	42.4021	65026.2	71207.6	96430.9	-47.5979	0.0000000E+000	0.0000000E+000	0.0000000E+000	47.5979	0.0000000E+000	0.0000000E+000	0.0000000E+000	-47.5979	0.0000000E+000	0.0000000E+000	0.0000000E+000	-42.4021	0.0000000E+000	0.0000000E+000	0.0000000E+000	42.4021	1.09506	47.5979	-1.34476e-07	-2.507e-07	3.10716e-10	-2.51011e-07	0.213216	180888	224.191	181112
100.032	10.8489	8.49565	13.7795	-38.0641	9.6168	0.212942	-0.00197925	187.277	71.1887	1	10	0.00474503	0.000344354	0	-1.45605e-05	-0.000225711	7.3677e-06	81.1314	0.0213957	0.00329854	-0.0211399	-37.9864	13.7691	10.8522	8.47451	0.0571371	0.0447435	0.0725716	38.0641	71188.7	90907.5	115464	-51.9359	0.0000000E+000	0.0000000E+000	0.0000000E+000	51.9359	0.0000000E+000	0.0000000E+000	0.0000000E+000	-51.9359	0.0000000E+000	0.0000000E+000	0.0000000E+000	-38.0641	0.0000000E+000	0.0000000E+000	0.0000000E+000	38.0641	1.27699	51.9359	-2.04215e-07	-4.21466e-07	4.4674e-10	-4.21912e-07	0.213168	107587	114.039	107701
68.104	13.7159	8.83531	16.3153	-32.7883	10.0795	0.212945	-0.00126679	264.5	77.5677	1	10	0.00473809	0.000290408	0	-1.46605e-05	-5.37216e-05	3.47031e-06	-145.407	0.0119498	-0.00983708	0.00678443	-32.827	16.3107	13.706	8.8421	0.051527	0.033192	0.0612923	32.7883	77567.7	120416	143236	-57.2117	0.0000000E+000	0.0000000E+000	0.0000000E+000	57.2117	0.0000000E+000	0.0000000E+000	0.0000000E+000	-57.2117	0.0000000E+000	0.0000000E+000	0.0000000E+000	-32.7883	0.0000000E+000	0.0000000E+000	0.0000000E+000	32.7883	1.55239	57.2117	-1.00013e-07	-2.69757e-07	6.80539e-11	-2.69825e-07	0.212999	168099	42.4077	168141
46.4415	16.5722	8.48848	18.6196	-27.1221	10.5167	0.21294	-0.00352355	403.723	83.9075	1	10	0.00473932	0.000254533	0	-1.51464e-05	-0.000321261	7.42068e-06	-87.89	0.0291541	0.00107342	0.0291343	-27.2004	18.6339	16.5732	8.51762	0.047801	0.0244843	0.0537067	27.1221	83907.5	163814	184053	-62.8779	0.0000000E+000	0.0000000E+000	0.0000000E+000	62.8779	0.0000000E+000	0.0000000E+000	0.0000000E+000	-62.8779	0.0000000E+000	0.0000000E+000	0.0000000E+000	-27.1221	0.0000000E+000	0.0000000E+000	0.0000000E+000	27.1221	1.95231	62.8779	-4.85888e-07	-7.50305e-07	1.13198e-09	-7.51437e-07	0.213261	60433.5	91.1754	60524.6
31.6296	19.0695	7.56905	20.5167	-21.6491	11.1806	0.212961	0.00541314	664.792	90.4802	1	11	0.00474087	0.000231074	0	-1.47304e-05	-0.000206601	1.12911e-05	74.573	0.0488637	0.0129983	-0.0471031	-21.5134	20.5115	19.0825	7.52195	0.0453026	0.0179815	0.0487408	21.6491	90480.2	227956	245256	-68.3509	0.0000000E+000	0.0000000E+000	0.0000000E+000	68.3509	0.0000000E+000	0.0000000E+000	0.0000000E+000	-68.3509	0.0000000E+000	0.0000000E+000	0.0000000E+000	-21.6491	0.0000000E+000	0.0000000E+000	0.0000000E+000	21.6491	2.5194	68.3509	4.15931e-07	1.15279e-06	-1.11836e-09	1.1539e-06	0.213167	39341.4	38.1666	39379.6
21.5517	20.9203	6.42665	21.8852	-17.0768	11.6024	0.212948	0.00477817	1149.09	99.0883	1	11	0.00473618	0.00021641	0	-1.42176e-05	-1.55017e-05	1.11776e-05	-33.9059	0.0516501	0.0428673	0.028812	-17.1158	21.9346	20.9632	6.45546	0.0436785	0.0134179	0.045693	17.0768	99088.3	322557	337433	-72.9232	0.0000000E+000	0.0000000E+000	0.0000000E+000	72.9232	0.0000000E+000	0.0000000E+000	0.0000000E+000	-72.9232	0.0000000E+000	0.0000000E+000	0.0000000E+000	-17.0768	0.0000000E+000	0.0000000E+000	0.0000000E+000	17.0768	3.25524	72.9232	5.12815e-07	1.0175e-06	-7.40696e-11	1.01758e-06	0.212964	44566.9	3.24428	44570.2
14.6852	22.2849	5.31361	22.9096	-13.4112	12.0632	0.21296	0.00496135	2039.63	109.722	1	11	0.00473935	0.000206872	0	-1.36909e-05	-0.000149271	7.24549e-06	-10.1607	0.0350241	0.0344748	0.0061786	-13.4062	22.9446	22.3194	5.31979	0.0424595	0.010124	0.0436498	13.4112	109722	460168	473068	-76.5888	0.0000000E+000	0.0000000E+000	0.0000000E+000	76.5888	0.0000000E+000	0.0000000E+000	0.0000000E+000	-76.5888	0.0000000E+000	0.0000000E+000	0.0000000E+000	-13.4112	0.0000000E+000	0.0000000E+000	0.0000000E+000	13.4112	4.19393	76.5888	5.26744e-07	1.05657e-06	-7.40587e-10	1.05731e-06	0.21311	42923.9	30.0869	42954
10.0032	23.2292	4.45322	23.6522	-10.8524	12.5138	0.21296	0.00453007	3572.78	126.652	1	11	0.00473274	0.000200097	0	-1.16238e-05	-0.000225711	4.37552e-06	-25.8944	0.021867	0.0196716	0.00954962	-10.8661	23.6734	23.2489	4.46277	0.0415231	0.0079603	0.0422793	10.8524	126652	660650	672680	-79.1476	0.0000000E+000	0.0000000E+000	0.0000000E+000	79.1476	0.0000000E+000	0.0000000E+000	0.0000000E+000	-79.1476	0.0000000E+000	0.0000000E+000	0.0000000E+000	-10.8524	0.0000000E+000	0.0000000E+000	0.0000000E+000	10.8524	5.21628	79.1476	2.0671e-06	9.64722e-07	-1.02249e-09	9.65745e-07	0.213185	47010.3	49.8251	47060.1
6.81719	24.0359	3.80849	24.3357	-9.00368	12.8535	0.212972	0.00543553	6130.02	150.134	1	11	0.00473678	0.000194643	0	-1.21773e-05	-9.19415e-05	9.02618e-06	-33.5619	0.046373	0.0386421	0.0256367	-9.04898	24.3779	24.0745	3.83413	0.0405855	0.00643079	0.0410919	9.00368	150134	947515	959335	-80.9963	0.0000000E+000	0.0000000E+000	0.0000000E+000	80.9963	0.0000000E+000	0.0000000E+000	0.0000000E+000	-80.9963	0.0000000E+000	0.0000000E+000	0.0000000E+000	-9.00368	0.0000000E+000	0.0000000E+000	0.0000000E+000	9.00368	6.31113	80.9963	-5.53513e-07	1.15761e-06	-4.99751e-10	1.15811e-06	0.213064	39181.4	16.9149	39198.3
4.63925	24.6472	3.26298	24.8623	-7.54139	13.3385	0.212955	0.00462184	10513.7	181.095	1	11	0.00473765	0.000190556	0	-1.28407e-05	-5.37216e-05	1.04509e-05	28.3336	0.0548442	0.0482738	-0.0260293	-7.46746	24.9067	24.6955	3.23695	0.0398737	0.00527878	0.0402216	7.54139	181095	1.36791e+06	1.37985e+06	-82.4586	0.0000000E+000	0.0000000E+000	0.0000000E+000	82.4586	0.0000000E+000	0.0000000E+000	0.0000000E+000	-82.4586	0.0000000E+000	0.0000000E+000	0.0000000E+000	-7.54139	0.0000000E+000	0.0000000E+000	0.0000000E+000	7.54139	7.55358	82.4586	-6.63435e-07	9.84246e-07	-2.48293e-10	9.84494e-07	0.213009	46075.8	11.6234	46087.4
3.1604	25.239	3.0174	25.4188	-6.81751	14.0315	0.212962	0.00419392	16689.6	235.181	1	11	0.00474207	0.000186558	0	-1.0167e-05	-1.55017e-05	4.86129e-06	-34.3217	0.0260578	0.0215208	0.0146924	-6.84461	25.4419	25.2606	3.03209	0.0390628	0.00467007	0.039341	6.81751	235181	1.96717e+06	1.98118e+06	-83.1825	0.0000000E+000	0.0000000E+000	0.0000000E+000	83.1825	0.0000000E+000	0.0000000E+000	0.0000000E+000	-83.1825	0.0000000E+000	0.0000000E+000	0.0000000E+000	-6.81751	0.0000000E+000	0.0000000E+000	0.0000000E+000	6.81751	8.36451	83.1825	2.67377e-06	8.93146e-07	-6.50129e-11	8.93211e-07	0.212977	50778.7	3.69622	50782.4
2.15577	25.781	2.81659	25.9344	-6.23488	15.035	0.212955	0.00419644	26211.7	309.165	1	11	0.00473552	0.000182596	0	-5.92796e-06	-0.000340371	2.81216e-06	56.0351	0.015401	0.00860429	-0.0127733	-6.20477	25.9415	25.7896	2.80382	0.0383308	0.00418767	0.0385589	6.23488	309165	2.82987e+06	2.84671e+06	-83.7651	0.0000000E+000	0.0000000E+000	0.0000000E+000	83.7651	0.0000000E+000	0.0000000E+000	0.0000000E+000	-83.7651	0.0000000E+000	0.0000000E+000	0.0000000E+000	-6.23488	0.0000000E+000	0.0000000E+000	0.0000000E+000	6.23488	9.15325	83.7651	4.23899e-06	8.93653e-07	-1.42835e-09	8.95082e-07	0.213295	50746.6	81.1094	50827.7
1.46631	26.4033	2.77684	26.5489	-6.00375	16.4965	0.212956	0.00414356	39088	427.614	1	11	0.00473907	0.000178504	0	-3.4296e-06	-0.000130161	3.34804e-06	51.9859	0.0187561	0.0115511	-0.0147772	-5.96944	26.5589	26.4148	2.76207	0.0374597	0.00393965	0.0376663	6.00375	427614	4.06592e+06	4.08835e+06	-83.9963	0.0000000E+000	0.0000000E+000	0.0000000E+000	83.9963	0.0000000E+000	0.0000000E+000	0.0000000E+000	-83.9963	0.0000000E+000	0.0000000E+000	0.0000000E+000	-6.00375	0.0000000E+000	0.0000000E+000	0.0000000E+000	6.00375	9.50838	83.9963	2.49835e-06	8.82398e-07	-5.39332e-10	8.82937e-07	0.213087	51394.5	31.4129	51425.9
1.00006	26.9293	2.78217	27.0726	-5.89853	19.6698	0.21296	0.00338062	57201.6	604.111	1	12	0.00474146	0.000175139	0	-4.2765e-06	-0.0005888	2.53803e-06	-65.3234	0.0144915	0.00605015	0.0131681	-5.92493	27.08	26.9353	2.79534	0.0367422	0.00379598	0.0369377	5.89853	604111	5.84732e+06	5.87845e+06	-84.1015	0.0000000E+000	0.0000000E+000	0.0000000E+000	84.1015	0.0000000E+000	0.0000000E+000	0.0000000E+000	-84.1015	0.0000000E+000	0.0000000E+000	0.0000000E+000	-5.89853	0.0000000E+000	0.0000000E+000	0.0000000E+000	5.89853	9.67922	84.1015	-8.46896e-07	7.19936e-07	-1.99051e-09	7.21927e-07	0.213548	62994.2	174.169	63168.4
0.681362	27.4411	2.82809	27.5864	-5.88415	22.782	0.212967	0.00236621	82594.1	868.048	1	12	0.00473842	0.000171766	0	-9.59937e-06	3.60827e-06	3.46228e-06	-91.4821	0.0201569	-0.000521336	0.0201502	-5.92589	27.588	27.4406	2.84824	0.0360587	0.00371622	0.0362497	5.88415	868048	8.42272e+06	8.46733e+06	-84.1159	0.0000000E+000	0.0000000E+000	0.0000000E+000	84.1159	0.0000000E+000	0.0000000E+000	0.0000000E+000	-84.1159	0.0000000E+000	0.0000000E+000	0.0000000E+000	-5.88415	0.0000000E+000	0.0000000E+000	0.0000000E+000	5.88415	9.70306	84.1159	-5.32286e-06	5.03924e-07	8.53793e-12	5.03915e-07	0.212963	90003.2	1.52492	90001.7
0.464091	27.9934	2.95398	28.1488	-6.02379	27.3386	0.212965	6.42216e-06	116094	1278.51	1	12	0.00473865	0.000168343	0	-1.56968e-05	-7.28316e-05	2.1144e-06	43.7762	0.0125601	0.00906897	-0.0086896	-6.00427	28.1569	28.0025	2.94529	0.0353293	0.00372809	0.0355254	6.02379	1.27851e+06	1.21158e+07	1.21831e+07	-83.9762	0.0000000E+000	0.0000000E+000	0.0000000E+000	83.9762	0.0000000E+000	0.0000000E+000	0.0000000E+000	-83.9762	0.0000000E+000	0.0000000E+000	0.0000000E+000	-6.02379	0.0000000E+000	0.0000000E+000	0.0000000E+000	6.02379	9.47651	83.9762	-6.09739e-06	1.36769e-09	-4.67736e-13	1.36816e-09	0.213038	3.31609e+07	11340.7	3.31722e+07
0.316193	28.5427	3.28983	28.7316	-6.57491	34.012	0.212965	-0.0025183	153001	2005.96	1	12	0.00474392	0.000165111	0	-1.86297e-05	2.27182e-05	2.86713e-06	-1.66327	0.0173648	0.0173575	0.000504022	-6.57195	28.7489	28.56	3.29034	0.0345759	0.00398523	0.0348049	6.57491	2.00596e+06	1.74037e+07	1.75189e+07	-83.4251	0.0000000E+000	0.0000000E+000	0.0000000E+000	83.4251	0.0000000E+000	0.0000000E+000	0.0000000E+000	-83.4251	0.0000000E+000	0.0000000E+000	0.0000000E+000	-6.57491	0.0000000E+000	0.0000000E+000	0.0000000E+000	6.57491	8.67601	83.4251	-2.93293e-06	-5.36311e-07	-5.72114e-11	-5.36253e-07	0.212942	84566.8	9.02124	84557.8
0.215268	29.0728	3.83678	29.3249	-7.51795	43.8054	0.212962	-0.00492154	192697	3298.64	1	12	0.00473918	0.000161609	0	-1.54854e-05	2.27182e-05	2.19591e-06	-18.2431	0.0135877	0.0129048	0.00425364	-7.52289	29.3382	29.0857	3.84103	0.0338076	0.00446163	0.0341007	7.51795	3.29864e+06	2.49951e+07	2.52118e+07	-82.482	0.0000000E+000	0.0000000E+000	0.0000000E+000	82.482	0.0000000E+000	0.0000000E+000	0.0000000E+000	-82.482	0.0000000E+000	0.0000000E+000	0.0000000E+000	-7.51795	0.0000000E+000	0.0000000E+000	0.0000000E+000	7.51795	7.57741	82.482	3.14432e-06	-1.0481e-06	-1.11809e-10	-1.04799e-06	0.212939	43271.4	4.61609	43266.8
0.146929	29.6999	4.60892	30.0554	-8.82098	58.1437	0.212966	-0.00662119	235025	5526.73	1	12	0.00473634	0.000157587	0	-9.56176e-06	6.09381e-05	2.91365e-06	-11.5795	0.0184892	0.0181129	0.00371129	-8.82267	30.0739	29.718	4.61264	0.0328784	0.00510217	0.0332719	8.82098	5.52672e+06	3.56142e+07	3.60405e+07	-81.179	0.0000000E+000	0.0000000E+000	0.0000000E+000	81.179	0.0000000E+000	0.0000000E+000	0.0000000E+000	-81.179	0.0000000E+000	0.0000000E+000	0.0000000E+000	-8.82098	0.0000000E+000	0.0000000E+000	0.0000000E+000	8.82098	6.444	81.179	5.9236e-06	-1.41009e-06	-4.03483e-10	-1.40969e-06	0.212905	32164.3	9.2035	32155.1
0.0999041	30.6305	5.78787	31.1725	-10.7003	79.2199	0.212959	-0.00842582	275244	9488.83	1	12	0.00473833	0.000152003	0	-1.81132e-05	-0.000149271	2.77763e-06	10.6046	0.0182735	0.0179614	-0.00336287	-10.6881	31.1895	30.6484	5.78451	0.0315218	0.00595629	0.0320796	10.7003	9.48883e+06	5.02166e+07	5.11052e+07	-79.2997	0.0000000E+000	0.0000000E+000	0.0000000E+000	79.2997	0.0000000E+000	0.0000000E+000	0.0000000E+000	-79.2997	0.0000000E+000	0.0000000E+000	0.0000000E+000	-10.7003	0.0000000E+000	0.0000000E+000	0.0000000E+000	10.7003	5.29218	79.2997	-8.55143e-06	-1.79435e-06	1.25773e-09	-1.79561e-06	0.213108	25274.5	17.716	25292.2
0.0680626	31.8353	7.59796	32.7294	-13.4234	110.147	0.212958	-0.0103108	307762	16585.7	1	12	0.00474383	0.000144941	0	-7.77145e-05	-3.46116e-05	3.09059e-06	-2.24303	0.0213231	0.0213067	0.000834547	-13.4161	32.7503	31.8566	7.59879	0.0297189	0.00709286	0.0305536	13.4234	1.65857e+07	6.94935e+07	7.14453e+07	-76.5766	0.0000000E+000	0.0000000E+000	0.0000000E+000	76.5766	0.0000000E+000	0.0000000E+000	0.0000000E+000	-76.5766	0.0000000E+000	0.0000000E+000	0.0000000E+000	-13.4234	0.0000000E+000	0.0000000E+000	0.0000000E+000	13.4234	4.18998	76.5766	-5.96013e-05	-2.19577e-06	3.56874e-10	-2.19613e-06	0.212993	20653.9	3.35683	20657.2
0.0464052	33.2163	10.0089	34.6915	-16.7689	155.499	0.212959	-0.0123207	342663	28523	1	12	0.00473714	0.00013655	0	-0.000252877	0.000137378	2.49732e-06	26.9048	0.0182886	0.016309	-0.00827576	-16.7481	34.7047	33.2326	10.0006	0.0275998	0.00831651	0.0288255	16.7689	2.8523e+07	9.46583e+07	9.88623e+07	-73.2311	0.0000000E+000	0.0000000E+000	0.0000000E+000	73.2311	0.0000000E+000	0.0000000E+000	0.0000000E+000	-73.2311	0.0000000E+000	0.0000000E+000	0.0000000E+000	-16.7689	0.0000000E+000	0.0000000E+000	0.0000000E+000	16.7689	3.31867	73.2311	-0.000175162	-2.6238e-06	-1.69259e-09	-2.62211e-06	0.212822	17284.7	11.1502	17273.6
0.0315922	35.0466	12.7405	37.2905	-19.9777	222.103	0.21296	-0.0144554	395417	46155.9	1	12	0.00474046	0.000127122	0	-0.000613824	-0.000149271	3.61177e-06	-27.7749	0.0284118	0.0251383	0.0132399	-19.9836	37.3187	35.0718	12.7537	0.0252028	0.00916194	0.0268165	19.9777	4.6156e+07	1.26966e+08	1.35096e+08	-70.0223	0.0000000E+000	0.0000000E+000	0.0000000E+000	70.0223	0.0000000E+000	0.0000000E+000	0.0000000E+000	-70.0223	0.0000000E+000	0.0000000E+000	0.0000000E+000	-19.9777	0.0000000E+000	0.0000000E+000	0.0000000E+000	19.9777	2.75081	70.0223	-0.000360947	-3.07842e-06	2.15777e-09	-3.08058e-06	0.213109	14732.2	10.3264	14742.6
0.0215268	37.8021	15.9476	41.0283	-22.8735	319.842	0.212958	-0.0166351	463602	70043.6	1	12	0.00474159	0.000115569	0	-0.00120852	2.27182e-05	3.00795e-06	-22.2832	0.0260274	0.0240837	0.00986916	-22.8731	41.0544	37.8262	15.9575	0.0224568	0.00947388	0.0243734	22.8735	7.00436e+07	1.66031e+08	1.80201e+08	-67.1265	0.0000000E+000	0.0000000E+000	0.0000000E+000	67.1265	0.0000000E+000	0.0000000E+000	0.0000000E+000	-67.1265	0.0000000E+000	0.0000000E+000	0.0000000E+000	-22.8735	0.0000000E+000	0.0000000E+000	0.0000000E+000	22.8735	2.37039	67.1265	-0.000594699	-3.54258e-06	-3.7792e-10	-3.5422e-06	0.212935	12801.7	1.36568	12800.3
0.0146812	41.3752	20.1834	46.0356	-26.0038	463.143	0.212957	-0.0182978	537112	103244	1	12	0.00473947	0.000102952	0	-0.00205144	-9.19415e-05	1.91753e-06	13.5763	0.0186255	0.0181051	-0.00437215	-25.989	46.05	41.3933	20.179	0.0195232	0.00952372	0.0217223	26.0038	1.03244e+08	2.11647e+08	2.35486e+08	-63.9962	0.0000000E+000	0.0000000E+000	0.0000000E+000	63.9962	0.0000000E+000	0.0000000E+000	0.0000000E+000	-63.9962	0.0000000E+000	0.0000000E+000	0.0000000E+000	-26.0038	0.0000000E+000	0.0000000E+000	0.0000000E+000	26.0038	2.04996	63.9962	-0.000842922	-3.89664e-06	1.68232e-09	-3.89832e-06	0.213049	11638.4	5.02474	11643.5
0.0100092	45.3981	25.8247	52.2293	-29.6333	673.325	0.212959	-0.0191365	615726	150532	1	12	0.00474095	9.07719e-05	0	-0.00314594	4.18282e-05	2.60089e-06	-27.5982	0.028653	0.0253928	0.013274	-29.6322	52.258	45.4235	25.8379	0.0166421	0.00946685	0.0191463	29.6333	1.50532e+08	2.64625e+08	3.04444e+08	-60.3667	0.0000000E+000	0.0000000E+000	0.0000000E+000	60.3667	0.0000000E+000	0.0000000E+000	0.0000000E+000	-60.3667	0.0000000E+000	0.0000000E+000	0.0000000E+000	-29.6333	0.0000000E+000	0.0000000E+000	0.0000000E+000	29.6333	1.75794	60.3667	-0.0010945	-4.0753e-06	-8.00446e-10	-4.0745e-06	0.212918	11128.4	2.18578	11126.2