File: txt/18604_R301_UA696_SOC00_C03.mpt
EC-Lab ASCII FILE
Nb header lines : 65

Potentio Electrochemical Impedance Spectroscopy

Run on channel : 3 (SN 65921)
User :
CE vs. WE compliance from -10 V to 10 V
Electrode connection : standard
Potential control : Ewe
Ewe ctrl range : min = -10.00 V, max = 10.00 V
Safety Limits :
	Do not start on E overload
Acquisition started on : 10/27/2025 16:23:22.015
Technique started on : 10/27/2025 16:23:23.927
Loaded Setting File :  C:\Users\Celltest\OneDrive - store-dot.com\Documents\EC-Lab\Data\@Biologic Test Protocols\anode half cell EIS SOC00.mps
Saved on :
	File : 18604_R301_UA696_SOC00_C03.mpr
	Directory : C:\Users\Celltest\OneDrive - store-dot.com\Documents\EC-Lab\Data\Gyutae\
	Host : 169.254.61.224
Device : VMP-3e (SN .003165)
Address : USB
EC-LAB for windows v11.62 (software)
Internet server v27.00 (firmware)
Command interpretor v12.03 (firmware)
Electrode material :
Initial state :
Electrolyte :
Comments :
Electrode surface area : 0.001 cm²
Characteristic mass : 0.001 g
Equivalent Weight : 0.000 g/eq.
Density : 0.000 g/cm3
Volume (V) : 0.001 cm³
Record Ece
Cycle Definition : Charge/Discharge alternance
Mode                Single sine
E (V)               0.0000
vs.                 Eoc
tE (h:m:s)          0:00:0.0000
record              0
dI                  0.000
unit dI             mA
dt (s)              0.000
fi                  100.000
unit fi             kHz
ff                  10.000
unit ff             mHz
Nd                  6
Points              per decade
spacing             Logarithmic
Va (mV)             5.0
pw                  0.10
Na                  2
corr                0
E range min (V)     -10.000
E range max (V)     10.000
I Range             Auto
Bandwidth           5
nc cycles           0
goto Ns'            0
nr cycles           0
inc. cycle          0

freq/Hz	Re(Z)/Ohm	-Im(Z)/Ohm	|Z|/Ohm	Phase(Z)/deg	time/s	<Ewe>/V	<I>/mA	Cs/µF	Cp/µF	cycle number	I Range	|Ewe|/V	|I|/A	Ns	(Q-Qo)/mA.h	<Ece>/V	|Ece|/V	Phase(Zce)/deg	|Zce|/Ohm	Re(Zce)/Ohm	-Im(Zce)/Ohm	Phase(Zwe-ce)/deg	|Zwe-ce|/Ohm	Re(Zwe-ce)/Ohm	-Im(Zwe-ce)/Ohm	Re(Y)/Ohm-1	Im(Y)/Ohm-1	|Y|/Ohm-1	Phase(Y)/deg	Re(C)/nF	Im(C)/nF	|C|/nF	Phase(C)/deg	Re(M)	Im(M)	|M|	Phase(M)/deg	Re(Permittivity)	Im(Permittivity)	|Permittivity|	Phase(Permittivity)/deg	Re(Resistivity)/Ohm.cm	Im(Resistivity)/Ohm.cm	|Resistivity|/Ohm.cm	Phase(Resistivity)/deg	Re(Conductivity)/mS/cm	Im(Conductivity)/mS/cm	|Conductivity|/mS/cm	Phase(Conductivity)/deg	Tan(Delta)	Loss Angle(Delta)/deg	dq/mA.h	Pwe/W	Pce/W	Pwe-ce/W	<Ewe-Ece>/V	Rwe/Ohm	Rce/Ohm	Rwe-ce/Ohm		Ewe-Ece/V
100004	1.41028	0.411524	1.46909	-16.2675	1.91154	0.217397	0.0328865	3.8673	0.30346	1	9	0.00456455	0.00310706	0	-1.95617e-06	-8.05151e-05	3.0826e-05	96.9948	0.0099213	-0.0012082	-0.00984746	-15.911	1.4652	1.40907	0.401677	0.65344	0.190677	0.680692	16.2675	303.46	1039.94	1083.32	-73.7325	0.0000000E+000	0.0000000E+000	0.0000000E+000	73.7325	0.0000000E+000	0.0000000E+000	0.0000000E+000	-73.7325	0.0000000E+000	0.0000000E+000	0.0000000E+000	-16.2675	0.0000000E+000	0.0000000E+000	0.0000000E+000	16.2675	3.42696	73.7325	-1.95617e-06	7.14945e-06	-2.64786e-09	7.1521e-06	0.217478	6610.53	2.44827	6612.98
68132	1.51806	0.444335	1.58175	-16.3147	2.41854	0.217389	0.0241971	5.25725	0.414863	1	9	0.00506964	0.00320509	0	1.8709e-05	-8.05151e-05	2.99791e-05	69.3463	0.00935361	0.00329919	-0.00875245	-15.9771	1.58248	1.52136	0.435582	0.606755	0.177597	0.632212	16.3147	414.863	1417.37	1476.83	-73.6852	0.0000000E+000	0.0000000E+000	0.0000000E+000	73.6852	0.0000000E+000	0.0000000E+000	0.0000000E+000	-73.6852	0.0000000E+000	0.0000000E+000	0.0000000E+000	-16.3147	0.0000000E+000	0.0000000E+000	0.0000000E+000	16.3147	3.41647	73.6852	2.06651e-05	5.26019e-06	-1.94823e-09	5.26214e-06	0.217469	8984.08	3.32746	8987.4
46420.4	1.62858	0.477821	1.69723	-16.3516	2.92552	0.21739	0.0229292	7.1754	0.568719	1	9	0.0050558	0.00297886	0	2.59761e-05	-4.13882e-06	1.46158e-05	24.574	0.00490652	0.00446211	-0.00204046	-16.2433	1.70094	1.63304	0.475781	0.565365	0.165877	0.589197	16.3516	568.719	1938.39	2020.1	-73.6484	0.0000000E+000	0.0000000E+000	0.0000000E+000	73.6484	0.0000000E+000	0.0000000E+000	0.0000000E+000	-73.6484	0.0000000E+000	0.0000000E+000	0.0000000E+000	-16.3516	0.0000000E+000	0.0000000E+000	0.0000000E+000	16.3516	3.40834	73.6484	7.26713e-06	4.98457e-06	-9.48996e-11	4.98466e-06	0.217394	9480.93	0.180504	9481.11
31621.1	1.74282	0.526218	1.82053	-16.8009	3.43253	0.217391	0.0286351	9.56482	0.799119	1	9	0.00511257	0.00280828	0	2.12946e-05	3.40493e-05	1.00311e-05	70.7799	0.00357196	0.00117588	-0.00337286	-16.6886	1.82069	1.744	0.522846	0.525843	0.15877	0.54929	16.8009	799.119	2646.67	2764.68	-73.1991	0.0000000E+000	0.0000000E+000	0.0000000E+000	73.1991	0.0000000E+000	0.0000000E+000	0.0000000E+000	-73.1991	0.0000000E+000	0.0000000E+000	0.0000000E+000	-16.8009	0.0000000E+000	0.0000000E+000	0.0000000E+000	16.8009	3.31198	73.1991	-4.68154e-06	6.22501e-06	9.75005e-10	6.22403e-06	0.217357	7591.77	1.18908	7590.59
21544.7	1.85827	0.575252	1.94527	-17.2006	3.81557	0.217398	0.024682	12.8417	1.123	1	9	0.00526609	0.00270713	0	3.05766e-05	-0.000137797	1.22067e-05	-8.3073	0.00450909	0.00446178	0.000651483	-17.1801	1.94972	1.86273	0.575904	0.491076	0.152019	0.514068	17.2006	1123	3627.68	3797.52	-72.7994	0.0000000E+000	0.0000000E+000	0.0000000E+000	72.7994	0.0000000E+000	0.0000000E+000	0.0000000E+000	-72.7994	0.0000000E+000	0.0000000E+000	0.0000000E+000	-17.2006	0.0000000E+000	0.0000000E+000	0.0000000E+000	17.2006	3.23035	72.7994	9.28205e-06	5.36581e-06	-3.40111e-09	5.36921e-06	0.217536	8807.98	5.58292	8813.56
14678.6	1.99173	0.632238	2.08967	-17.6111	4.07452	0.217401	0.0220714	17.1497	1.56986	1	9	0.00549098	0.00262768	0	3.04231e-05	-0.000309644	6.77661e-06	32.6156	0.00257893	0.00217225	-0.00139004	-17.5568	2.09132	1.9939	0.630848	0.456117	0.144786	0.478545	17.6111	1569.86	4945.52	5188.7	-72.3889	0.0000000E+000	0.0000000E+000	0.0000000E+000	72.3889	0.0000000E+000	0.0000000E+000	0.0000000E+000	-72.3889	0.0000000E+000	0.0000000E+000	0.0000000E+000	-17.6111	0.0000000E+000	0.0000000E+000	0.0000000E+000	17.6111	3.15028	72.3889	-1.53467e-07	4.79835e-06	-6.83427e-09	4.80519e-06	0.217711	9849.92	14.0292	9863.95
10002.2	2.12432	0.703023	2.23763	-18.3114	4.33354	0.217392	0.0351241	22.6336	2.23417	1	9	0.00533068	0.00238229	0	3.30267e-05	0.000167708	5.61049e-06	2.10084	0.00235508	0.0023535	-8.63335e-05	-18.2904	2.23984	2.12668	0.702936	0.424272	0.140408	0.446902	18.3114	2234.17	6750.99	7111.08	-71.6886	0.0000000E+000	0.0000000E+000	0.0000000E+000	71.6886	0.0000000E+000	0.0000000E+000	0.0000000E+000	-71.6886	0.0000000E+000	0.0000000E+000	0.0000000E+000	-18.3114	0.0000000E+000	0.0000000E+000	0.0000000E+000	18.3114	3.0217	71.6886	2.60358e-06	7.6357e-06	5.89059e-09	7.62981e-06	0.217224	6189.24	4.77471	6184.47
6810.42	2.28621	0.788993	2.41852	-19.0401	4.59256	0.217391	0.0231156	29.6192	3.15223	1	9	0.00519321	0.00214726	0	3.56526e-05	-0.000118703	4.11124e-05	7.87019	0.0191464	0.0189661	-0.0026217	-18.8362	2.43561	2.30517	0.786371	0.390854	0.134888	0.413475	19.0401	3152.23	9134	9662.64	-70.9599	0.0000000E+000	0.0000000E+000	0.0000000E+000	70.9599	0.0000000E+000	0.0000000E+000	0.0000000E+000	-70.9599	0.0000000E+000	0.0000000E+000	0.0000000E+000	-19.0401	0.0000000E+000	0.0000000E+000	0.0000000E+000	19.0401	2.89763	70.9599	2.62591e-06	5.02512e-06	-2.7439e-09	5.02786e-06	0.21751	9404.51	5.1352	9409.64
4646	2.42641	0.915577	2.59341	-20.6734	4.85864	0.217353	0.00547573	37.415	4.66331	1	9	0.00507045	0.00195513	0	3.52209e-05	5.31434e-05	8.51958e-06	-14.2279	0.00435755	0.00422388	0.00107099	-20.6626	2.59774	2.43064	0.916648	0.360764	0.13613	0.385593	20.6734	4663.31	12358.5	13209	-69.3266	0.0000000E+000	0.0000000E+000	0.0000000E+000	69.3266	0.0000000E+000	0.0000000E+000	0.0000000E+000	-69.3266	0.0000000E+000	0.0000000E+000	0.0000000E+000	-20.6734	0.0000000E+000	0.0000000E+000	0.0000000E+000	20.6734	2.65014	69.3266	-4.31747e-07	1.19017e-06	2.90999e-10	1.18988e-06	0.2173	39693.9	9.70526	39684.2
3163.08	2.58631	1.09351	2.80798	-22.919	5.23168	0.217213	-0.0260746	46.0137	6.9782	1	9	0.00499749	0.00177974	0	3.32873e-05	-6.1421e-05	8.13094e-06	2.07189	0.0045686	0.00456562	-0.000165171	-22.8796	2.81213	2.59088	1.09335	0.328013	0.138686	0.356127	22.919	6978.2	16504.5	17919.1	-67.081	0.0000000E+000	0.0000000E+000	0.0000000E+000	67.081	0.0000000E+000	0.0000000E+000	0.0000000E+000	-67.081	0.0000000E+000	0.0000000E+000	0.0000000E+000	-22.919	0.0000000E+000	0.0000000E+000	0.0000000E+000	22.919	2.36515	67.081	-1.93361e-06	-5.66374e-06	1.60153e-09	-5.66534e-06	0.217274	8330.42	2.35558	8332.77
2155.69	2.77588	1.32867	3.07748	-25.578	5.68278	0.217345	0.054293	55.567	10.3576	1	9	0.00495898	0.00161138	0	3.84846e-05	1.49552e-05	6.16884e-06	18.509	0.0038283	0.00363028	-0.00121531	-25.5284	3.08023	2.77951	1.32745	0.293096	0.14029	0.324941	25.578	10357.6	21639.3	23990.5	-64.422	0.0000000E+000	0.0000000E+000	0.0000000E+000	64.422	0.0000000E+000	0.0000000E+000	0.0000000E+000	-64.422	0.0000000E+000	0.0000000E+000	0.0000000E+000	-25.578	0.0000000E+000	0.0000000E+000	0.0000000E+000	25.578	2.08922	64.422	5.19735e-06	1.18003e-05	8.11965e-10	1.17995e-05	0.21733	4003.19	0.275454	4002.91
1468.59	2.97198	1.65002	3.3993	-29.0388	6.38011	0.217334	-0.0135365	65.6795	15.475	1	10	0.00507621	0.00149331	0	4.03761e-05	1.49552e-05	7.65861e-06	158.431	0.00512861	-0.00476947	-0.0018854	-29.05	3.39421	2.96721	1.64814	0.257198	0.142795	0.294179	29.0388	15475	27873.2	31880.9	-60.9612	0.0000000E+000	0.0000000E+000	0.0000000E+000	60.9612	0.0000000E+000	0.0000000E+000	0.0000000E+000	-60.9612	0.0000000E+000	0.0000000E+000	0.0000000E+000	-29.0388	0.0000000E+000	0.0000000E+000	0.0000000E+000	29.0388	1.80117	60.9612	1.89144e-06	-2.94193e-06	-2.02441e-10	-2.94173e-06	0.217319	16055.5	1.10481	16054.4
1000.32	3.25296	2.10733	3.8759	-32.9359	6.83081	0.217328	-0.0133985	75.5004	22.3187	1	10	0.00501054	0.00129274	0	3.77231e-05	-0.000424208	4.48647e-06	38.9019	0.00347051	0.00270083	-0.00217944	-32.8872	3.87698	3.25566	2.10515	0.216538	0.140277	0.258005	32.9359	22318.7	34452.1	41049.6	-57.0641	0.0000000E+000	0.0000000E+000	0.0000000E+000	57.0641	0.0000000E+000	0.0000000E+000	0.0000000E+000	-57.0641	0.0000000E+000	0.0000000E+000	0.0000000E+000	-32.9359	0.0000000E+000	0.0000000E+000	0.0000000E+000	32.9359	1.54364	57.0641	-2.65291e-06	-2.91186e-06	5.68375e-09	-2.91754e-06	0.217752	16220.3	31.6609	16252
681.09	3.64306	2.71597	4.54405	-36.7052	7.28151	0.217332	-0.0130927	86.0381	30.7365	1	10	0.00495657	0.00109078	0	3.65e-05	-0.000214174	1.17259e-05	42.7546	0.01075	0.00789336	-0.00729773	-36.572	4.54603	3.65096	2.70867	0.176433	0.131534	0.220068	36.7052	30736.5	41228.4	51424.8	-53.2948	0.0000000E+000	0.0000000E+000	0.0000000E+000	53.2948	0.0000000E+000	0.0000000E+000	0.0000000E+000	-53.2948	0.0000000E+000	0.0000000E+000	0.0000000E+000	-36.7052	0.0000000E+000	0.0000000E+000	0.0000000E+000	36.7052	1.34135	53.2948	-1.22316e-06	-2.84547e-06	2.80411e-09	-2.84827e-06	0.217546	16599.5	16.3582	16615.8
463.961	4.2033	3.5196	5.48228	-39.9408	7.73331	0.217334	-0.0136558	97.4643	40.1708	1	10	0.00491944	0.000897335	0	3.47946e-05	-0.000195079	3.91814e-06	54.1087	0.00436642	0.00255981	-0.00353738	-39.8953	5.48197	4.20586	3.51606	0.139852	0.117104	0.182406	39.9408	40170.8	47974.2	62571.7	-50.0592	0.0000000E+000	0.0000000E+000	0.0000000E+000	50.0592	0.0000000E+000	0.0000000E+000	0.0000000E+000	-50.0592	0.0000000E+000	0.0000000E+000	0.0000000E+000	-39.9408	0.0000000E+000	0.0000000E+000	0.0000000E+000	39.9408	1.19426	50.0592	-1.70534e-06	-2.96786e-06	2.66396e-09	-2.97052e-06	0.217529	15915.1	14.2855	15929.4
316.316	5.0602	4.48855	6.76408	-41.574	8.18104	0.217335	-0.0148975	112.097	49.3615	1	10	0.00489719	0.000723999	0	3.32612e-05	7.22374e-05	6.16667e-06	-93.5357	0.00851751	-0.000525274	0.0085013	-41.6308	6.76933	5.05967	4.49705	0.110599	0.0981046	0.14784	41.574	49361.5	55648	74385.9	-48.426	0.0000000E+000	0.0000000E+000	0.0000000E+000	48.426	0.0000000E+000	0.0000000E+000	0.0000000E+000	-48.426	0.0000000E+000	0.0000000E+000	0.0000000E+000	-41.574	0.0000000E+000	0.0000000E+000	0.0000000E+000	41.574	1.12736	48.426	-1.53347e-06	-3.23775e-06	-1.07616e-09	-3.23667e-06	0.217263	14588.7	4.84896	14583.8
215.345	6.30228	5.56803	8.40962	-41.4604	8.63152	0.217331	-0.0141331	132.735	58.1882	1	10	0.00488363	0.00058072	0	3.10118e-05	-0.000366926	1.45816e-05	51.4118	0.0251094	0.0156612	-0.0196268	-41.2896	8.4084	6.31794	5.5484	0.0891138	0.0787316	0.118911	41.4604	58188.2	65861.4	87884	-48.5396	0.0000000E+000	0.0000000E+000	0.0000000E+000	48.5396	0.0000000E+000	0.0000000E+000	0.0000000E+000	-48.5396	0.0000000E+000	0.0000000E+000	0.0000000E+000	-41.4604	0.0000000E+000	0.0000000E+000	0.0000000E+000	41.4604	1.13187	48.5396	-2.24936e-06	-3.07157e-06	5.1858e-09	-3.07675e-06	0.217698	15377.5	25.9622	15403.4
146.737	8.07295	6.55653	10.4	-39.0822	9.07753	0.217323	-0.0145955	165.427	65.7483	1	10	0.00487054	0.00046832	0	2.86555e-05	-6.1421e-05	7.68945e-06	49.9196	0.0164192	0.0105717	-0.0125631	-38.9917	10.4003	8.08352	6.54397	0.0746385	0.0606185	0.0961536	39.0822	65748.3	80954.8	104291	-50.9178	0.0000000E+000	0.0000000E+000	0.0000000E+000	50.9178	0.0000000E+000	0.0000000E+000	0.0000000E+000	-50.9178	0.0000000E+000	0.0000000E+000	0.0000000E+000	-39.0822	0.0000000E+000	0.0000000E+000	0.0000000E+000	39.0822	1.23128	50.9178	-2.35631e-06	-3.17193e-06	8.96469e-10	-3.17283e-06	0.217384	14889.7	4.20822	14893.9
100.032	10.2104	7.20551	12.4969	-35.2107	9.5288	0.217334	-0.0139019	220.809	73.408	1	10	0.00485901	0.000388818	0	2.74885e-05	-8.05151e-05	7.41272e-06	-19.7149	0.0190648	0.0179472	0.0064313	-35.1874	12.5152	10.2284	7.21195	0.0653793	0.0461384	0.08002	35.2107	73408	104021	127315	-54.7893	0.0000000E+000	0.0000000E+000	0.0000000E+000	54.7893	0.0000000E+000	0.0000000E+000	0.0000000E+000	-54.7893	0.0000000E+000	0.0000000E+000	0.0000000E+000	-35.2107	0.0000000E+000	0.0000000E+000	0.0000000E+000	35.2107	1.41703	54.7893	-1.167e-06	-3.02135e-06	1.11931e-09	-3.02247e-06	0.217414	15633.4	5.79166	15639.2
68.104	12.6796	7.33531	14.6485	-30.0498	9.99144	0.217337	-0.0112097	318.588	79.8872	1	10	0.00485218	0.00033124	0	2.63989e-05	-0.000328738	1.10725e-05	35.7342	0.0334275	0.0271343	-0.0195225	-29.9307	14.6623	12.7068	7.31578	0.0590905	0.0341845	0.0682662	30.0498	79887.1	138091	159534	-59.9502	0.0000000E+000	0.0000000E+000	0.0000000E+000	59.9502	0.0000000E+000	0.0000000E+000	0.0000000E+000	-59.9502	0.0000000E+000	0.0000000E+000	0.0000000E+000	-30.0498	0.0000000E+000	0.0000000E+000	0.0000000E+000	30.0498	1.72858	59.9502	-1.08964e-06	-2.43628e-06	3.68504e-09	-2.43996e-06	0.217666	19388.4	29.3263	19417.7
46.4415	14.9218	6.83501	16.4127	-24.6105	10.4277	0.21733	-0.0167433	501.388	86.9548	1	10	0.00485175	0.00029561	0	2.43006e-05	7.22374e-05	6.95841e-06	114.284	0.0235392	-0.00968061	-0.0214564	-24.5564	16.395	14.9121	6.81356	0.0553938	0.0253735	0.0609285	24.6105	86954.8	189834	208802	-65.3895	0.0000000E+000	0.0000000E+000	0.0000000E+000	65.3895	0.0000000E+000	0.0000000E+000	0.0000000E+000	-65.3895	0.0000000E+000	0.0000000E+000	0.0000000E+000	-24.6105	0.0000000E+000	0.0000000E+000	0.0000000E+000	24.6105	2.18313	65.3895	-2.09823e-06	-3.63883e-06	-1.20949e-09	-3.63762e-06	0.217258	12980.1	4.3144	12975.8
31.6296	16.9028	6.01267	17.9404	-19.5815	11.0926	0.217368	-0.00795741	836.873	94.0006	1	11	0.00485702	0.000270731	0	2.20037e-05	-0.000195079	9.7775e-06	7.84772	0.0361151	0.0357769	-0.00493119	-19.5284	17.9725	16.9386	6.00774	0.0525165	0.0186811	0.0557401	19.5815	94000.6	264255	280476	-70.4185	0.0000000E+000	0.0000000E+000	0.0000000E+000	70.4185	0.0000000E+000	0.0000000E+000	0.0000000E+000	-70.4185	0.0000000E+000	0.0000000E+000	0.0000000E+000	-19.5815	0.0000000E+000	0.0000000E+000	0.0000000E+000	19.5815	2.8112	70.4185	-2.29695e-06	-1.72969e-06	1.55233e-09	-1.73124e-06	0.217563	27316.5	24.5154	27341
21.5517	18.2332	5.05176	18.9201	-15.4861	11.5134	0.217363	-0.0080581	1461.83	104.216	1	11	0.00483632	0.000255618	0	2.08918e-05	-0.000366926	1.47648e-05	-14.8638	0.0577611	0.0558283	0.014817	-15.4842	18.9779	18.289	5.06657	0.050935	0.0141122	0.0528539	15.4861	104216	376144	390315	-74.5139	0.0000000E+000	0.0000000E+000	0.0000000E+000	74.5139	0.0000000E+000	0.0000000E+000	0.0000000E+000	-74.5139	0.0000000E+000	0.0000000E+000	0.0000000E+000	-15.4861	0.0000000E+000	0.0000000E+000	0.0000000E+000	15.4861	3.60928	74.5139	-1.11192e-06	-1.75153e-06	2.95673e-09	-1.75449e-06	0.21773	26974.5	45.5351	27020
14.6852	19.3159	4.22014	19.7716	-12.3243	11.9741	0.217376	-0.00727202	2568.12	117	1	11	0.00485271	0.000245439	0	1.88204e-05	3.40493e-05	5.94631e-06	9.08509	0.0242272	0.0239233	-0.00382551	-12.2987	19.7941	19.3398	4.21632	0.0494122	0.0107956	0.0505777	12.3243	117000	535520	548152	-77.6757	0.0000000E+000	0.0000000E+000	0.0000000E+000	77.6757	0.0000000E+000	0.0000000E+000	0.0000000E+000	-77.6757	0.0000000E+000	0.0000000E+000	0.0000000E+000	-12.3243	0.0000000E+000	0.0000000E+000	0.0000000E+000	12.3243	4.57708	77.6757	-2.07132e-06	-1.58076e-06	-2.47607e-10	-1.58052e-06	0.217342	29892.1	4.68224	29887.5
10.0032	20.0846	3.54087	20.3944	-9.99835	12.4249	0.21737	-0.00765313	4493.36	135.447	1	11	0.00485283	0.000237949	0	1.84537e-05	9.13315e-05	8.28175e-06	77.4015	0.0348047	0.00759151	-0.0339667	-9.90068	20.396	20.0922	3.5069	0.0482884	0.00851312	0.0490331	9.99835	135447	768288	780137	-80.0016	0.0000000E+000	0.0000000E+000	0.0000000E+000	80.0016	0.0000000E+000	0.0000000E+000	0.0000000E+000	-80.0016	0.0000000E+000	0.0000000E+000	0.0000000E+000	-9.99835	0.0000000E+000	0.0000000E+000	0.0000000E+000	9.99835	5.67224	80.0016	-3.66729e-07	-1.66356e-06	-6.98971e-10	-1.66286e-06	0.217279	28402.8	11.9339	28390.8
6.81719	20.6721	3.00827	20.8898	-8.27976	12.7645	0.217372	-0.00816065	7760.64	160.94	1	11	0.00484813	0.000232081	0	1.61704e-05	-0.000156891	9.09607e-06	50.4095	0.0391936	0.0249779	-0.0302033	-8.18801	20.9102	20.6971	2.97807	0.0473712	0.00689363	0.0478702	8.27976	160939	1.10593e+06	1.11758e+06	-81.7202	0.0000000E+000	0.0000000E+000	0.0000000E+000	81.7202	0.0000000E+000	0.0000000E+000	0.0000000E+000	-81.7202	0.0000000E+000	0.0000000E+000	0.0000000E+000	-8.27976	0.0000000E+000	0.0000000E+000	0.0000000E+000	8.27976	6.87174	81.7202	-2.28336e-06	-1.77389e-06	1.28033e-09	-1.77517e-06	0.217529	26636.6	19.2254	26655.8
4.63925	21.2136	2.7232	21.3877	-7.31506	13.2485	0.217369	-0.00809725	12597.8	204.232	1	11	0.00485585	0.000227039	0	1.73978e-05	7.22374e-05	4.85767e-06	-51.3532	0.0213958	0.013362	0.0167103	-7.35488	21.4031	21.227	2.73991	0.0463753	0.00595321	0.0467558	7.31506	204232	1.59096e+06	1.60401e+06	-82.6849	0.0000000E+000	0.0000000E+000	0.0000000E+000	82.6849	0.0000000E+000	0.0000000E+000	0.0000000E+000	-82.6849	0.0000000E+000	0.0000000E+000	0.0000000E+000	-7.31506	0.0000000E+000	0.0000000E+000	0.0000000E+000	7.31506	7.78997	82.6849	1.22747e-06	-1.76009e-06	-5.84925e-10	-1.75951e-06	0.217297	26844.8	8.92123	26835.9
3.1604	21.7121	2.48487	21.8538	-6.52888	13.9415	0.217359	-0.00775064	20266.3	262.015	1	11	0.00485476	0.000222147	0	1.7737e-05	-0.000156891	5.07982e-06	-43.488	0.022867	0.0165904	0.0157371	-6.56489	21.8721	21.7287	2.5006	0.0454618	0.00520293	0.0457586	6.52888	262015	2.28942e+06	2.30436e+06	-83.4711	0.0000000E+000	0.0000000E+000	0.0000000E+000	83.4711	0.0000000E+000	0.0000000E+000	0.0000000E+000	-83.4711	0.0000000E+000	0.0000000E+000	0.0000000E+000	-6.52888	0.0000000E+000	0.0000000E+000	0.0000000E+000	6.52888	8.73773	83.4711	3.39165e-07	-1.68467e-06	1.21601e-09	-1.68589e-06	0.217516	28044	20.2424	28064.3
2.15577	22.1698	2.36453	22.2956	-6.08788	14.9452	0.217374	-0.00665953	31222.9	351.176	1	11	0.00485284	0.000217659	0	1.38591e-05	-2.32329e-05	3.5932e-06	4.14116	0.0165084	0.0164653	-0.00119213	-6.08035	22.3118	22.1863	2.36334	0.044599	0.00475671	0.0448519	6.08788	351176	3.29263e+06	3.31131e+06	-83.9121	0.0000000E+000	0.0000000E+000	0.0000000E+000	83.9121	0.0000000E+000	0.0000000E+000	0.0000000E+000	-83.9121	0.0000000E+000	0.0000000E+000	0.0000000E+000	-6.08788	0.0000000E+000	0.0000000E+000	0.0000000E+000	6.08788	9.37601	83.9121	-3.87786e-06	-1.44761e-06	1.5472e-10	-1.44776e-06	0.217397	32641	3.48867	32644.5
1.46631	22.6518	2.31085	22.7694	-5.82496	16.4055	0.217375	-0.00674628	46970.1	483.799	1	11	0.00485947	0.000213422	0	6.05727e-06	-0.000214174	1.96262e-06	-54.7167	0.00919595	0.00531177	0.00750671	-5.84239	22.7754	22.6571	2.31836	0.0436919	0.00445729	0.0439187	5.82496	483800	4.74237e+06	4.76698e+06	-84.175	0.0000000E+000	0.0000000E+000	0.0000000E+000	84.175	0.0000000E+000	0.0000000E+000	0.0000000E+000	-84.175	0.0000000E+000	0.0000000E+000	0.0000000E+000	-5.82496	0.0000000E+000	0.0000000E+000	0.0000000E+000	5.82496	9.80234	84.175	-7.80186e-06	-1.46647e-06	1.44488e-09	-1.46792e-06	0.217589	32221.4	31.7469	32253.2
1.00006	23.1106	2.32112	23.2268	-5.73529	19.5806	0.217365	-0.00854253	68563.9	684.715	1	12	0.0048585	0.000209176	0	-5.53543e-06	-0.000118703	1.77103e-06	-66.9477	0.00846671	0.00331533	0.00779062	-5.75359	23.2309	23.1139	2.32891	0.0428381	0.00430246	0.0430537	5.73529	684715	6.81747e+06	6.85176e+06	-84.2647	0.0000000E+000	0.0000000E+000	0.0000000E+000	84.2647	0.0000000E+000	0.0000000E+000	0.0000000E+000	-84.2647	0.0000000E+000	0.0000000E+000	0.0000000E+000	-5.73529	0.0000000E+000	0.0000000E+000	0.0000000E+000	5.73529	9.95665	84.2647	-1.15927e-05	-1.85685e-06	1.01403e-09	-1.85786e-06	0.217484	25445.1	13.8956	25459
0.681362	23.5915	2.41115	23.7144	-5.83561	22.691	0.21737	-0.00983198	96876.3	1001.48	1	12	0.0048602	0.000204947	0	-1.15278e-05	-0.000252362	2.82204e-06	-18.8375	0.0137696	0.0130321	0.00444599	-5.84309	23.7278	23.6045	2.4156	0.04195	0.00428747	0.0421685	5.83561	1.00148e+06	9.79882e+06	9.84986e+06	-84.1644	0.0000000E+000	0.0000000E+000	0.0000000E+000	84.1644	0.0000000E+000	0.0000000E+000	0.0000000E+000	-84.1644	0.0000000E+000	0.0000000E+000	0.0000000E+000	-5.83561	0.0000000E+000	0.0000000E+000	0.0000000E+000	5.83561	9.78432	84.1644	-5.99237e-06	-2.13718e-06	2.48121e-09	-2.13966e-06	0.217622	22108.5	25.6674	22134.2
0.464091	24.0023	2.59229	24.1418	-6.16417	27.2475	0.217363	-0.0108042	132292	1525.32	1	12	0.00485781	0.00020122	0	-1.37665e-05	1.49552e-05	3.08719e-06	-8.53288	0.0153424	0.0151726	0.00227646	-6.16567	24.1572	24.0174	2.59457	0.0411824	0.00444778	0.0414219	6.16417	1.52532e+06	1.41231e+07	1.42052e+07	-83.8358	0.0000000E+000	0.0000000E+000	0.0000000E+000	83.8358	0.0000000E+000	0.0000000E+000	0.0000000E+000	-83.8358	0.0000000E+000	0.0000000E+000	0.0000000E+000	-6.16417	0.0000000E+000	0.0000000E+000	0.0000000E+000	6.16417	9.25908	83.8358	-2.2387e-06	-2.34843e-06	-1.61579e-10	-2.34827e-06	0.217348	20118.5	1.38421	20117.1
0.316193	24.4534	2.88774	24.6233	-6.73497	33.9219	0.21737	-0.0107891	174305	2397.37	1	12	0.00485799	0.000197293	0	-1.57713e-05	-0.000233268	4.01112e-06	3.2721	0.0203308	0.0202977	-0.00116044	-6.72675	24.6433	24.4736	2.88658	0.0403317	0.00476285	0.040612	6.73497	2.39737e+06	2.03009e+07	2.04419e+07	-83.265	0.0000000E+000	0.0000000E+000	0.0000000E+000	83.265	0.0000000E+000	0.0000000E+000	0.0000000E+000	-83.265	0.0000000E+000	0.0000000E+000	0.0000000E+000	-6.73497	0.0000000E+000	0.0000000E+000	0.0000000E+000	6.73497	8.46799	83.265	-2.00485e-06	-2.34523e-06	2.51675e-09	-2.34775e-06	0.217604	20147.2	21.6207	20168.8
0.215268	25.0024	3.43226	25.2368	-7.81657	43.7154	0.21737	-0.0108446	215407	3984.3	1	12	0.00485756	0.000192479	0	-2.88109e-05	-8.05151e-05	3.47745e-06	-4.85726	0.0180667	0.0180018	0.00152977	-7.81445	25.2549	25.0204	3.43379	0.0392564	0.00538903	0.0396246	7.81657	3.9843e+06	2.90236e+07	2.92958e+07	-82.1834	0.0000000E+000	0.0000000E+000	0.0000000E+000	82.1834	0.0000000E+000	0.0000000E+000	0.0000000E+000	-82.1834	0.0000000E+000	0.0000000E+000	0.0000000E+000	-7.81657	0.0000000E+000	0.0000000E+000	0.0000000E+000	7.81657	7.28451	82.1834	-1.30396e-05	-2.35729e-06	8.73155e-10	-2.35817e-06	0.217451	20044.1	7.42443	20051.5
0.146929	25.6101	4.34127	25.9754	-9.62099	58.0538	0.21737	-0.0114406	249515	6969.55	1	12	0.0048564	0.000186961	0	-7.39309e-05	-0.000252362	3.17635e-06	-14.8314	0.0169894	0.0164233	0.00434887	-9.62439	25.9923	25.6265	4.34562	0.0379565	0.00643416	0.0384979	9.62099	6.96955e+06	4.11149e+07	4.17014e+07	-80.379	0.0000000E+000	0.0000000E+000	0.0000000E+000	80.379	0.0000000E+000	0.0000000E+000	0.0000000E+000	-80.379	0.0000000E+000	0.0000000E+000	0.0000000E+000	-9.62099	0.0000000E+000	0.0000000E+000	0.0000000E+000	9.62099	5.89921	80.379	-4.51199e-05	-2.48684e-06	2.88717e-09	-2.48973e-06	0.217622	18999.8	22.0584	19021.9
0.0999041	26.2637	5.57624	26.8492	-11.9869	79.13	0.217366	-0.0128749	285690	12323	1	12	0.0048563	0.000180873	0	-0.000180447	-0.000309644	3.07504e-06	17.4253	0.0170011	0.0162209	-0.00509117	-11.9691	26.864	26.28	5.57115	0.036433	0.00773534	0.0372451	11.9869	1.2323e+07	5.80405e+07	5.93343e+07	-78.0131	0.0000000E+000	0.0000000E+000	0.0000000E+000	78.0131	0.0000000E+000	0.0000000E+000	0.0000000E+000	-78.0131	0.0000000E+000	0.0000000E+000	0.0000000E+000	-11.9869	0.0000000E+000	0.0000000E+000	0.0000000E+000	11.9869	4.70994	78.0131	-0.000106516	-2.79855e-06	3.98662e-09	-2.80254e-06	0.217675	16883	24.0503	16907
0.0680626	27.2137	7.12465	28.1309	-14.671	110.057	0.217368	-0.0145495	328207	21052.7	1	12	0.00485881	0.000172722	0	-0.000368608	-0.000175985	2.90081e-06	-0.391651	0.0167947	0.0167943	0.000114801	-14.6625	28.1471	27.2305	7.12476	0.0343891	0.00900321	0.0355481	14.671	2.10527e+07	8.04142e+07	8.31244e+07	-75.329	0.0000000E+000	0.0000000E+000	0.0000000E+000	75.329	0.0000000E+000	0.0000000E+000	0.0000000E+000	-75.329	0.0000000E+000	0.0000000E+000	0.0000000E+000	-14.671	0.0000000E+000	0.0000000E+000	0.0000000E+000	14.671	3.81965	75.329	-0.000188161	-3.1626e-06	2.5605e-09	-3.16516e-06	0.217544	14939.9	12.0956	14952
0.0464052	28.7267	9.00697	30.1056	-17.4083	155.408	0.21737	-0.0170903	380781	34083	1	12	0.00485542	0.000161279	0	-0.000669128	-0.000252362	1.55346e-06	-58.011	0.00963213	0.00510269	0.00816948	-17.4202	30.1129	28.7318	9.01514	0.031695	0.00993766	0.0332164	17.4083	3.4083e+07	1.08704e+08	1.13922e+08	-72.5917	0.0000000E+000	0.0000000E+000	0.0000000E+000	72.5917	0.0000000E+000	0.0000000E+000	0.0000000E+000	-72.5917	0.0000000E+000	0.0000000E+000	0.0000000E+000	-17.4083	0.0000000E+000	0.0000000E+000	0.0000000E+000	17.4083	3.18938	72.5917	-0.00030052	-3.71492e-06	4.31293e-09	-3.71924e-06	0.217623	12718.9	14.7664	12733.7
0.0315922	30.7691	11.6915	32.9155	-20.8055	222.013	0.217368	-0.0192725	430893	54363.7	1	12	0.0048602	0.000147657	0	-0.0010665	0.000244084	1.85074e-06	30.0477	0.0125341	0.0108496	-0.00627606	-20.7886	32.9234	30.78	11.6852	0.0283997	0.0107912	0.0303808	20.8055	5.43637e+07	1.43072e+08	1.53052e+08	-69.1945	0.0000000E+000	0.0000000E+000	0.0000000E+000	69.1945	0.0000000E+000	0.0000000E+000	0.0000000E+000	-69.1945	0.0000000E+000	0.0000000E+000	0.0000000E+000	-20.8055	0.0000000E+000	0.0000000E+000	0.0000000E+000	20.8055	2.63175	69.1945	-0.000397371	-4.18924e-06	-4.70412e-09	-4.18453e-06	0.217124	11278.7	12.6649	11266
0.0215268	33.1247	14.9538	36.3437	-24.2962	319.752	0.217365	-0.0208796	494414	83701.6	1	12	0.00485681	0.000133636	0	-0.00155836	0.000205896	1.02058e-06	-6.83967	0.00763705	0.0075827	0.000909507	-24.2926	36.351	33.1323	14.9547	0.0250781	0.0113212	0.0275151	24.2962	8.37016e+07	1.85411e+08	2.03429e+08	-65.7038	0.0000000E+000	0.0000000E+000	0.0000000E+000	65.7038	0.0000000E+000	0.0000000E+000	0.0000000E+000	-65.7038	0.0000000E+000	0.0000000E+000	0.0000000E+000	-24.2962	0.0000000E+000	0.0000000E+000	0.0000000E+000	24.2962	2.21514	65.7038	-0.000491858	-4.53851e-06	-4.29903e-09	-4.53421e-06	0.21716	10410.4	9.86109	10400.6
0.0146812	36.0188	18.7087	40.5878	-27.448	463.053	0.217363	-0.0218456	579451	123115	1	12	0.00485807	0.000119693	0	-0.00220788	-6.1421e-05	1.69871e-06	-31.8351	0.0141922	0.0120573	0.00748605	-27.4495	40.6019	36.0309	18.7161	0.0218645	0.0113567	0.024638	27.448	1.23115e+08	2.37027e+08	2.67094e+08	-62.552	0.0000000E+000	0.0000000E+000	0.0000000E+000	62.552	0.0000000E+000	0.0000000E+000	0.0000000E+000	-62.552	0.0000000E+000	0.0000000E+000	0.0000000E+000	-27.448	0.0000000E+000	0.0000000E+000	0.0000000E+000	27.448	1.92525	62.552	-0.000649527	-4.74842e-06	1.34178e-09	-4.74977e-06	0.217425	9949.99	2.8116	9952.8
0.0100092	39.7157	23.5253	46.1603	-30.6401	673.233	0.217363	-0.0217269	675906	175558	1	12	0.00485818	0.000105246	0	-0.00317586	-9.96091e-05	1.43276e-06	60.6697	0.0136134	0.00666846	-0.0118683	-30.6233	46.16	39.7223	23.5135	0.0186391	0.0110407	0.0216636	30.6401	1.75558e+08	2.96378e+08	3.44472e+08	-59.3599	0.0000000E+000	0.0000000E+000	0.0000000E+000	59.3599	0.0000000E+000	0.0000000E+000	0.0000000E+000	-59.3599	0.0000000E+000	0.0000000E+000	0.0000000E+000	-30.6401	0.0000000E+000	0.0000000E+000	0.0000000E+000	30.6401	1.68821	59.3599	-0.000967977	-4.72263e-06	2.1642e-09	-4.72479e-06	0.217463	10004.4	4.5846	10008.9