File: txt/18611_R301_UA697_SOC00_C02.mpt
EC-Lab ASCII FILE
Nb header lines : 65

Potentio Electrochemical Impedance Spectroscopy

Run on channel : 2 (SN 66139)
User :
CE vs. WE compliance from -10 V to 10 V
Electrode connection : standard
Potential control : Ewe
Ewe ctrl range : min = -10.00 V, max = 10.00 V
Safety Limits :
	Do not start on E overload
Acquisition started on : 10/27/2025 16:35:03.060
Technique started on : 10/27/2025 16:35:04.929
Loaded Setting File :  C:\Users\Celltest\OneDrive - store-dot.com\Documents\EC-Lab\Data\@Biologic Test Protocols\anode half cell EIS SOC00.mps
Saved on :
	File : 18611_R301_UA697_SOC00_C02.mpr
	Directory : C:\Users\Celltest\OneDrive - store-dot.com\Documents\EC-Lab\Data\Gyutae\
	Host : 169.254.61.224
Device : VMP-3e (SN .003165)
Address : USB
EC-LAB for windows v11.62 (software)
Internet server v27.00 (firmware)
Command interpretor v12.03 (firmware)
Electrode material :
Initial state :
Electrolyte :
Comments :
Electrode surface area : 0.001 cm²
Characteristic mass : 0.001 g
Equivalent Weight : 0.000 g/eq.
Density : 0.000 g/cm3
Volume (V) : 0.001 cm³
Record Ece
Cycle Definition : Charge/Discharge alternance
Mode                Single sine
E (V)               0.0000
vs.                 Eoc
tE (h:m:s)          0:00:0.0000
record              0
dI                  0.000
unit dI             mA
dt (s)              0.000
fi                  100.000
unit fi             kHz
ff                  10.000
unit ff             mHz
Nd                  6
Points              per decade
spacing             Logarithmic
Va (mV)             5.0
pw                  0.10
Na                  2
corr                0
E range min (V)     -10.000
E range max (V)     10.000
I Range             Auto
Bandwidth           5
nc cycles           0
goto Ns'            0
nr cycles           0
inc. cycle          0

freq/Hz	Re(Z)/Ohm	-Im(Z)/Ohm	|Z|/Ohm	Phase(Z)/deg	time/s	<Ewe>/V	<I>/mA	Cs/µF	Cp/µF	cycle number	I Range	|Ewe|/V	|I|/A	Ns	(Q-Qo)/mA.h	<Ece>/V	|Ece|/V	Phase(Zce)/deg	|Zce|/Ohm	Re(Zce)/Ohm	-Im(Zce)/Ohm	Phase(Zwe-ce)/deg	|Zwe-ce|/Ohm	Re(Zwe-ce)/Ohm	-Im(Zwe-ce)/Ohm	Re(Y)/Ohm-1	Im(Y)/Ohm-1	|Y|/Ohm-1	Phase(Y)/deg	Re(C)/nF	Im(C)/nF	|C|/nF	Phase(C)/deg	Re(M)	Im(M)	|M|	Phase(M)/deg	Re(Permittivity)	Im(Permittivity)	|Permittivity|	Phase(Permittivity)/deg	Re(Resistivity)/Ohm.cm	Im(Resistivity)/Ohm.cm	|Resistivity|/Ohm.cm	Phase(Resistivity)/deg	Re(Conductivity)/mS/cm	Im(Conductivity)/mS/cm	|Conductivity|/mS/cm	Phase(Conductivity)/deg	Tan(Delta)	Loss Angle(Delta)/deg	dq/mA.h	Pwe/W	Pce/W	Pwe-ce/W	<Ewe-Ece>/V	Rwe/Ohm	Rce/Ohm	Rwe-ce/Ohm		Ewe-Ece/V
100004	1.18798	0.425572	1.2619	-19.7092	1.86852	0.224025	-0.0121026	3.73965	0.425329	1	9	0.00495256	0.00392468	0	9.77762e-07	0.000382159	2.09072e-05	92.069	0.00532711	-0.000192323	-0.00532363	-19.4842	1.25994	1.18778	0.420248	0.74603	0.267252	0.792454	19.7092	425.329	1187.3	1261.18	-70.2908	0.0000000E+000	0.0000000E+000	0.0000000E+000	70.2908	0.0000000E+000	0.0000000E+000	0.0000000E+000	-70.2908	0.0000000E+000	0.0000000E+000	0.0000000E+000	-19.7092	0.0000000E+000	0.0000000E+000	0.0000000E+000	19.7092	2.79148	70.2908	9.77762e-07	-2.71129e-06	-4.62513e-09	-2.70666e-06	0.223643	18510.5	31.5766	18478.9
68132	1.30298	0.473418	1.38632	-19.9678	2.37555	0.224015	-0.0240586	4.93428	0.575421	1	9	0.00505087	0.00364336	0	1.40051e-05	0.000229433	1.79895e-05	83.0662	0.00493762	0.000596086	-0.00490151	-19.7689	1.38522	1.30358	0.468517	0.67797	0.24633	0.721333	19.9678	575.421	1583.72	1685.02	-70.0322	0.0000000E+000	0.0000000E+000	0.0000000E+000	70.0322	0.0000000E+000	0.0000000E+000	0.0000000E+000	-70.0322	0.0000000E+000	0.0000000E+000	0.0000000E+000	-19.9678	0.0000000E+000	0.0000000E+000	0.0000000E+000	19.9678	2.75229	70.0322	1.30274e-05	-5.38948e-06	-5.51982e-09	-5.38396e-06	0.223786	9311.25	9.53643	9301.72
46420.4	1.43129	0.513545	1.52063	-19.7379	2.88256	0.224007	-0.0117674	6.67626	0.761453	1	9	0.00510818	0.00335925	0	1.32851e-05	0.000363069	5.31009e-06	70.9287	0.00158073	0.000516496	-0.00149397	-19.6784	1.52061	1.4318	0.512051	0.618985	0.222091	0.657622	19.7379	761.453	2122.23	2254.7	-70.2621	0.0000000E+000	0.0000000E+000	0.0000000E+000	70.2621	0.0000000E+000	0.0000000E+000	0.0000000E+000	-70.2621	0.0000000E+000	0.0000000E+000	0.0000000E+000	-19.7379	0.0000000E+000	0.0000000E+000	0.0000000E+000	19.7379	2.78708	70.2621	-7.20015e-07	-2.63598e-06	-4.27237e-09	-2.63171e-06	0.223644	19036.2	30.8538	19005.4
31621.1	1.55625	0.566004	1.65598	-19.9862	3.38956	0.224008	-0.0128848	8.89249	1.03884	1	9	0.00508469	0.00307049	0	2.66455e-05	0.000248523	1.10915e-05	-7.19854	0.00361227	0.0035838	0.000452646	-19.9586	1.65951	1.55984	0.566457	0.567503	0.206399	0.603871	19.9862	1038.84	2856.34	3039.39	-70.0138	0.0000000E+000	0.0000000E+000	0.0000000E+000	70.0138	0.0000000E+000	0.0000000E+000	0.0000000E+000	-70.0138	0.0000000E+000	0.0000000E+000	0.0000000E+000	-19.9862	0.0000000E+000	0.0000000E+000	0.0000000E+000	19.9862	2.74954	70.0138	1.33604e-05	-2.88629e-06	-3.20217e-09	-2.88309e-06	0.223759	17385.4	19.2881	17366.2
21544.7	1.68987	0.616589	1.79884	-20.0457	3.77452	0.224008	-0.00897397	11.9807	1.40763	1	9	0.00509855	0.00283435	0	3.00317e-05	0.000210342	9.99104e-06	19.626	0.00352499	0.0033202	-0.00118397	-19.9742	1.80156	1.69319	0.615405	0.522236	0.19055	0.555913	20.0457	1407.63	3857.86	4106.64	-69.9543	0.0000000E+000	0.0000000E+000	0.0000000E+000	69.9543	0.0000000E+000	0.0000000E+000	0.0000000E+000	-69.9543	0.0000000E+000	0.0000000E+000	0.0000000E+000	-20.0457	0.0000000E+000	0.0000000E+000	0.0000000E+000	20.0457	2.74067	69.9543	3.38624e-06	-2.01024e-06	-1.8876e-09	-2.00835e-06	0.223797	24962	23.4391	24938.5
14678.6	1.8285	0.681777	1.95147	-20.4485	4.15756	0.224011	-0.00834079	15.9035	1.94113	1	9	0.00498635	0.00255518	0	3.19753e-05	0.000191251	9.31952e-06	-33.2149	0.00364731	0.00305142	0.00199793	-20.4722	1.95503	1.83155	0.683775	0.480144	0.179027	0.512434	20.4485	1941.13	5206.04	5556.15	-69.5515	0.0000000E+000	0.0000000E+000	0.0000000E+000	69.5515	0.0000000E+000	0.0000000E+000	0.0000000E+000	-69.5515	0.0000000E+000	0.0000000E+000	0.0000000E+000	-20.4485	0.0000000E+000	0.0000000E+000	0.0000000E+000	20.4485	2.68196	69.5515	1.94361e-06	-1.86843e-06	-1.59518e-09	-1.86683e-06	0.22382	26857.3	22.9296	26834.3
10002.2	1.98769	0.751058	2.12485	-20.6993	4.54056	0.224006	-0.0156782	21.1861	2.64691	1	9	0.00497975	0.00234358	0	3.1346e-05	3.85242e-05	1.03069e-05	-130.548	0.00439796	-0.00285907	0.00334182	-20.8109	2.12336	1.98483	0.754399	0.440242	0.166347	0.470621	20.6993	2646.91	7005.1	7488.5	-69.3007	0.0000000E+000	0.0000000E+000	0.0000000E+000	69.3007	0.0000000E+000	0.0000000E+000	0.0000000E+000	-69.3007	0.0000000E+000	0.0000000E+000	0.0000000E+000	-20.6993	0.0000000E+000	0.0000000E+000	0.0000000E+000	20.6993	2.64652	69.3007	-6.29304e-07	-3.51202e-06	-6.03991e-10	-3.51142e-06	0.223968	14287.7	2.45717	14285.2
6810.42	2.192	0.865111	2.35654	-21.5376	4.79952	0.22401	-0.0178385	27.0131	3.64057	1	9	0.00481653	0.0020439	0	2.85769e-05	5.7615e-05	0.000113323	142.553	0.0554444	-0.0440182	-0.0337117	-21.1595	2.30327	2.14798	0.831399	0.394722	0.155784	0.424351	21.5376	3640.57	9224.38	9916.8	-68.4624	0.0000000E+000	0.0000000E+000	0.0000000E+000	68.4624	0.0000000E+000	0.0000000E+000	0.0000000E+000	-68.4624	0.0000000E+000	0.0000000E+000	0.0000000E+000	-21.5376	0.0000000E+000	0.0000000E+000	0.0000000E+000	21.5376	2.53378	68.4624	-2.76917e-06	-3.996e-06	-1.02777e-09	-3.99498e-06	0.223952	12557.6	3.22981	12554.4
4646	2.33306	0.945951	2.51754	-22.0703	5.06559	0.223987	-0.0237234	36.2136	5.11277	1	9	0.00457883	0.00181877	0	2.65677e-05	0.000191251	6.52869e-06	-11.1611	0.00358962	0.00352173	0.000694835	-22.0549	2.52107	2.33659	0.946646	0.368107	0.14925	0.397213	22.0703	5112.77	12610	13607.1	-67.9297	0.0000000E+000	0.0000000E+000	0.0000000E+000	67.9297	0.0000000E+000	0.0000000E+000	0.0000000E+000	-67.9297	0.0000000E+000	0.0000000E+000	0.0000000E+000	-22.0703	0.0000000E+000	0.0000000E+000	0.0000000E+000	22.0703	2.46637	67.9297	-2.00913e-06	-5.31372e-06	-4.53712e-09	-5.30919e-06	0.223795	9441.6	8.0617	9433.54
3163.08	2.56363	1.09418	2.78737	-23.1132	5.43861	0.223802	-0.0693496	45.9857	7.08613	1	9	0.00451215	0.00161879	0	2.05484e-05	3.42479e-07	4.75337e-06	48.2608	0.00293638	0.00195487	-0.00219108	-23.056	2.7883	2.56558	1.09198	0.329964	0.140831	0.358762	23.1132	7086.13	16602.6	18051.6	-66.8868	0.0000000E+000	0.0000000E+000	0.0000000E+000	66.8868	0.0000000E+000	0.0000000E+000	0.0000000E+000	-66.8868	0.0000000E+000	0.0000000E+000	0.0000000E+000	-23.1132	0.0000000E+000	0.0000000E+000	0.0000000E+000	23.1132	2.34298	66.8868	-6.0193e-06	-1.55206e-05	-2.37508e-11	-1.55206e-05	0.223802	3227.16	0.00493844	3227.15
2155.69	2.78567	1.26913	3.06115	-24.4937	6.10485	0.223979	0.0392594	58.1737	9.99934	1	9	0.0048286	0.00157738	0	2.78667e-05	-0.000152384	1.02383e-05	7.4737	0.0064907	0.00643556	-0.000844252	-24.4295	3.06666	2.7921	1.26829	0.297276	0.135437	0.326675	24.4937	9999.34	21947.9	24118.4	-65.5063	0.0000000E+000	0.0000000E+000	0.0000000E+000	65.5063	0.0000000E+000	0.0000000E+000	0.0000000E+000	-65.5063	0.0000000E+000	0.0000000E+000	0.0000000E+000	-24.4937	0.0000000E+000	0.0000000E+000	0.0000000E+000	24.4937	2.19494	65.5063	7.31833e-06	8.79331e-06	-5.98252e-09	8.79929e-06	0.224132	5705.11	3.88147	5708.99
1468.59	3.03918	1.47571	3.37851	-25.8995	6.55602	0.223976	0.0381421	73.4374	14.0111	1	9	0.00480632	0.00142262	0	3.23819e-05	-0.000133293	7.68481e-06	97.6329	0.00540188	-0.000717504	-0.00535402	-25.8231	3.37553	3.03846	1.47036	0.26626	0.129286	0.295988	25.8995	14011.1	28855.3	32077	-64.1005	0.0000000E+000	0.0000000E+000	0.0000000E+000	64.1005	0.0000000E+000	0.0000000E+000	0.0000000E+000	-64.1005	0.0000000E+000	0.0000000E+000	0.0000000E+000	-25.8995	0.0000000E+000	0.0000000E+000	0.0000000E+000	25.8995	2.05946	64.1005	4.51517e-06	8.54292e-06	-5.08409e-09	8.548e-06	0.224109	5872.16	3.49466	5875.65
1000.32	3.34558	1.73841	3.77028	-27.4569	7.25182	0.223952	-0.0285833	91.5229	19.4574	1	10	0.0049085	0.00130189	0	2.96376e-05	-1.87484e-05	5.46378e-06	-131.119	0.00419679	-0.00275993	0.00316162	-27.5189	3.76929	3.34282	1.74157	0.235356	0.122294	0.265232	27.4569	19457.4	37446.1	42199.5	-62.5431	0.0000000E+000	0.0000000E+000	0.0000000E+000	62.5431	0.0000000E+000	0.0000000E+000	0.0000000E+000	-62.5431	0.0000000E+000	0.0000000E+000	0.0000000E+000	-27.4569	0.0000000E+000	0.0000000E+000	0.0000000E+000	27.4569	1.92451	62.5431	-2.74427e-06	-6.40128e-06	5.35891e-10	-6.40182e-06	0.22397	7835.04	0.655919	7835.7
681.09	3.68122	2.10453	4.24033	-29.7563	7.70252	0.223952	-0.0299356	111.035	27.3508	1	10	0.0048649	0.00114729	0	2.5787e-05	5.7615e-05	9.10596e-06	-29.4395	0.00793692	0.00691207	0.00390103	-29.7557	4.24827	3.68813	2.10843	0.204735	0.117046	0.23583	29.7563	27350.8	47841.8	55108.1	-60.2437	0.0000000E+000	0.0000000E+000	0.0000000E+000	60.2437	0.0000000E+000	0.0000000E+000	0.0000000E+000	-60.2437	0.0000000E+000	0.0000000E+000	0.0000000E+000	-29.7563	0.0000000E+000	0.0000000E+000	0.0000000E+000	29.7563	1.74919	60.2437	-3.8506e-06	-6.70412e-06	-1.72474e-09	-6.7024e-06	0.223894	7481.11	1.92463	7479.19
463.961	4.1245	2.5683	4.85877	-31.9103	8.15435	0.223953	-0.0287137	133.565	37.3192	1	10	0.00483757	0.000995637	0	2.25802e-05	0.000229433	8.04541e-06	60.1173	0.00808067	0.004026	-0.00700632	-31.815	4.85849	4.12852	2.56129	0.17471	0.108791	0.205813	31.9103	37319.2	59931.8	70601.3	-58.0897	0.0000000E+000	0.0000000E+000	0.0000000E+000	58.0897	0.0000000E+000	0.0000000E+000	0.0000000E+000	-58.0897	0.0000000E+000	0.0000000E+000	0.0000000E+000	-31.9103	0.0000000E+000	0.0000000E+000	0.0000000E+000	31.9103	1.60593	58.0897	-3.20683e-06	-6.43054e-06	-6.58787e-09	-6.42395e-06	0.223724	7799.52	7.99035	7791.53
316.316	4.71569	3.168	5.68101	-33.8932	8.60203	0.223947	-0.0285722	158.823	49.3892	1	10	0.00481506	0.00084757	0	1.88772e-05	5.7615e-05	8.98181e-06	75.0521	0.0105971	0.00273343	-0.0102385	-33.792	5.67758	4.71842	3.15776	0.146115	0.0981597	0.176025	33.8932	49389.2	73517.8	88567.3	-56.1068	0.0000000E+000	0.0000000E+000	0.0000000E+000	56.1068	0.0000000E+000	0.0000000E+000	0.0000000E+000	-56.1068	0.0000000E+000	0.0000000E+000	0.0000000E+000	-33.8932	0.0000000E+000	0.0000000E+000	0.0000000E+000	33.8932	1.48854	56.1068	-3.70303e-06	-6.39866e-06	-1.64619e-09	-6.39702e-06	0.22389	7837.95	2.01647	7835.94
215.345	5.55938	3.85946	6.76773	-34.7693	9.05252	0.223959	-0.0286504	191.496	62.2769	1	10	0.00480214	0.000709565	0	1.45904e-05	9.57967e-05	6.54046e-06	63.0471	0.00921756	0.00417793	-0.00821634	-34.692	6.76648	5.56356	3.85124	0.121378	0.0842637	0.14776	34.7693	62276.9	89707.1	109205	-55.2307	0.0000000E+000	0.0000000E+000	0.0000000E+000	55.2307	0.0000000E+000	0.0000000E+000	0.0000000E+000	-55.2307	0.0000000E+000	0.0000000E+000	0.0000000E+000	-34.7693	0.0000000E+000	0.0000000E+000	0.0000000E+000	34.7693	1.44046	55.2307	-4.2868e-06	-6.4165e-06	-2.74462e-09	-6.41376e-06	0.223863	7816.94	3.34364	7813.6
146.737	6.73982	4.51904	8.11461	-33.8418	9.49848	0.223944	-0.0300436	240.012	74.4372	1	10	0.00479434	0.000590828	0	1.07577e-05	1.94333e-05	1.40499e-05	-1.26548	0.0237801	0.0237743	0.000525184	-33.7516	8.13466	6.76359	4.51956	0.102356	0.0686295	0.123235	33.8418	74437.2	111018	133663	-56.1582	0.0000000E+000	0.0000000E+000	0.0000000E+000	56.1582	0.0000000E+000	0.0000000E+000	0.0000000E+000	-56.1582	0.0000000E+000	0.0000000E+000	0.0000000E+000	-33.8418	0.0000000E+000	0.0000000E+000	0.0000000E+000	33.8418	1.49143	56.1582	-3.83272e-06	-6.72809e-06	-5.83848e-10	-6.7275e-06	0.223924	7453.95	0.646836	7453.3
100.032	8.2277	5.01941	9.63792	-31.3858	9.94981	0.223945	-0.0282034	316.978	85.974	1	10	0.00480159	0.000498198	0	7.77805e-06	9.57967e-05	6.96946e-06	-5.75395	0.0139893	0.0139189	0.00140252	-31.3498	9.65053	8.24162	5.02081	0.0885752	0.0540363	0.103757	31.3858	85974	140927	165081	-58.6142	0.0000000E+000	0.0000000E+000	0.0000000E+000	58.6142	0.0000000E+000	0.0000000E+000	0.0000000E+000	-58.6142	0.0000000E+000	0.0000000E+000	0.0000000E+000	-31.3858	0.0000000E+000	0.0000000E+000	0.0000000E+000	31.3858	1.63918	58.6142	-2.97962e-06	-6.31601e-06	-2.70179e-09	-6.31331e-06	0.223849	7940.36	3.39664	7936.96
68.104	9.89267	5.13313	11.1451	-27.424	10.4125	0.223958	-0.0247911	455.266	96.5738	1	10	0.00479192	0.000429956	0	4.9553e-06	3.85242e-05	9.00301e-06	-30.3114	0.0209394	0.0180769	0.0105681	-27.4294	11.166	9.91075	5.1437	0.0796422	0.0413249	0.0897253	27.424	96573.8	186119	209683	-62.576	0.0000000E+000	0.0000000E+000	0.0000000E+000	62.576	0.0000000E+000	0.0000000E+000	0.0000000E+000	-62.576	0.0000000E+000	0.0000000E+000	0.0000000E+000	-27.424	0.0000000E+000	0.0000000E+000	0.0000000E+000	27.424	1.92722	62.576	-2.82276e-06	-5.55216e-06	-9.55056e-10	-5.5512e-06	0.223919	9033.8	1.55395	9032.24
46.4415	11.5047	4.84867	12.4847	-22.8531	10.8487	0.223947	-0.0306509	706.791	106.606	1	10	0.00479128	0.000383773	0	1.43115e-06	7.67059e-05	6.11237e-06	-94.7143	0.015927	-0.001309	0.0158731	-22.9225	12.4896	11.5034	4.86454	0.0738108	0.0311077	0.0800982	22.8531	106606	252949	274496	-67.1469	0.0000000E+000	0.0000000E+000	0.0000000E+000	67.1469	0.0000000E+000	0.0000000E+000	0.0000000E+000	-67.1469	0.0000000E+000	0.0000000E+000	0.0000000E+000	-22.8531	0.0000000E+000	0.0000000E+000	0.0000000E+000	22.8531	2.37275	67.1469	-3.52414e-06	-6.86416e-06	-2.3511e-09	-6.86181e-06	0.22387	7306.37	2.50257	7303.87
31.6296	12.853	4.31317	13.5574	-18.5506	11.2786	0.223941	-0.0324352	1166.62	118.079	1	10	0.00478486	0.000352933	0	-2.86057e-06	0.000191251	1.03563e-05	-22.9058	0.0293436	0.0270298	0.0114211	-18.56	13.5867	12.88	4.32459	0.0699281	0.0234663	0.0737605	18.5506	118078	351867	371151	-71.4494	0.0000000E+000	0.0000000E+000	0.0000000E+000	71.4494	0.0000000E+000	0.0000000E+000	0.0000000E+000	-71.4494	0.0000000E+000	0.0000000E+000	0.0000000E+000	-18.5506	0.0000000E+000	0.0000000E+000	0.0000000E+000	18.5506	2.97994	71.4494	-4.29172e-06	-7.26359e-06	-6.20327e-09	-7.25739e-06	0.22375	6904.26	5.89639	6898.37
21.5517	13.8778	3.67845	14.357	-14.8454	11.6995	0.223941	-0.033564	2007.58	131.787	1	10	0.00478076	0.00033299	0	-6.57067e-06	0.000114888	9.64978e-06	30.633	0.0289792	0.0249351	-0.014766	-14.7631	14.3774	13.9027	3.66368	0.0673273	0.0178457	0.0696522	14.8454	131787	497198	514367	-75.1546	0.0000000E+000	0.0000000E+000	0.0000000E+000	75.1546	0.0000000E+000	0.0000000E+000	0.0000000E+000	-75.1546	0.0000000E+000	0.0000000E+000	0.0000000E+000	-14.8454	0.0000000E+000	0.0000000E+000	0.0000000E+000	14.8454	3.77274	75.1546	-3.7101e-06	-7.51636e-06	-3.85608e-09	-7.5125e-06	0.223826	6672.07	3.42294	6668.64
14.6852	14.6991	3.04251	15.0107	-11.6943	12.4092	0.224	-0.0128041	3562.13	146.343	1	11	0.00478764	0.000318948	0	-7.20171e-06	0.000363069	4.65867e-06	90.7642	0.0146063	-0.000194822	-0.014605	-11.6398	15.0075	14.6989	3.02791	0.0652364	0.013503	0.0666192	11.6943	146343	707019	722006	-78.3057	0.0000000E+000	0.0000000E+000	0.0000000E+000	78.3057	0.0000000E+000	0.0000000E+000	0.0000000E+000	-78.3057	0.0000000E+000	0.0000000E+000	0.0000000E+000	-11.6943	0.0000000E+000	0.0000000E+000	0.0000000E+000	11.6943	4.83124	78.3057	-6.31046e-07	-2.86811e-06	-4.64875e-09	-2.86346e-06	0.223637	17494.4	28.3557	17466.1
10.0032	15.264	2.58321	15.4811	-9.60544	12.8598	0.223988	-0.0126624	6159.15	171.49	1	11	0.00478812	0.000309288	0	-1.11584e-05	0.000286705	1.05964e-05	-71.5271	0.0342605	0.0108557	0.0324952	-9.7172	15.4972	15.2749	2.61571	0.0636893	0.0107785	0.0645949	9.60544	171490	1.01332e+06	1.02773e+06	-80.3946	0.0000000E+000	0.0000000E+000	0.0000000E+000	80.3946	0.0000000E+000	0.0000000E+000	0.0000000E+000	-80.3946	0.0000000E+000	0.0000000E+000	0.0000000E+000	-9.60544	0.0000000E+000	0.0000000E+000	0.0000000E+000	9.60544	5.90894	80.3946	-3.95666e-06	-2.83622e-06	-3.63037e-09	-2.83259e-06	0.223701	17689.2	22.6423	17666.6
6.81719	15.7036	2.19047	15.8556	-7.94087	13.1995	0.223995	-0.0121881	10658	203.416	1	11	0.00478734	0.000301933	0	-9.48789e-06	3.85242e-05	7.87873e-06	87.7383	0.0260943	0.00102977	-0.026074	-7.84702	15.8531	15.7046	2.1644	0.0624643	0.00871306	0.0630691	7.94087	203416	1.4583e+06	1.47242e+06	-82.0591	0.0000000E+000	0.0000000E+000	0.0000000E+000	82.0591	0.0000000E+000	0.0000000E+000	0.0000000E+000	-82.0591	0.0000000E+000	0.0000000E+000	0.0000000E+000	-7.94087	0.0000000E+000	0.0000000E+000	0.0000000E+000	7.94087	7.16905	82.0591	1.67049e-06	-2.73008e-06	-4.69537e-10	-2.72961e-06	0.223957	18378.2	3.1608	18375
4.63925	16.0975	1.88138	16.2071	-6.66615	13.6834	0.223998	-0.0115908	18234.5	245.719	1	11	0.00479227	0.000295689	0	-1.15534e-05	9.57967e-05	7.41637e-06	49.2079	0.0250816	0.0163862	-0.0189889	-6.59281	16.2212	16.1139	1.86239	0.0612842	0.00716254	0.0617014	6.66615	245719	2.10243e+06	2.11674e+06	-83.3339	0.0000000E+000	0.0000000E+000	0.0000000E+000	83.3339	0.0000000E+000	0.0000000E+000	0.0000000E+000	-83.3339	0.0000000E+000	0.0000000E+000	0.0000000E+000	-6.66615	0.0000000E+000	0.0000000E+000	0.0000000E+000	6.66615	8.55622	83.3339	-2.06554e-06	-2.59632e-06	-1.11036e-09	-2.59521e-06	0.223902	19325.5	8.26488	19317.2
3.1604	16.3692	1.66722	16.4539	-5.81559	14.3764	0.224	-0.0109624	30205.4	310.124	1	11	0.00478628	0.000290891	0	-1.76688e-05	0.000229433	6.81837e-06	-34.4124	0.0234396	0.0193375	0.0132468	-5.85461	16.4745	16.3885	1.68047	0.0604631	0.00615825	0.0607759	5.81559	310124	3.04487e+06	3.06063e+06	-84.1844	0.0000000E+000	0.0000000E+000	0.0000000E+000	84.1844	0.0000000E+000	0.0000000E+000	0.0000000E+000	-84.1844	0.0000000E+000	0.0000000E+000	0.0000000E+000	-5.81559	0.0000000E+000	0.0000000E+000	0.0000000E+000	5.81559	9.81824	84.1844	-6.1154e-06	-2.45557e-06	-2.51513e-09	-2.45305e-06	0.22377	20433.5	20.9291	20412.6
2.15577	16.686	1.58434	16.761	-5.42399	15.3791	0.224	-0.0112568	46598.4	416.356	1	11	0.00478907	0.000285727	0	-2.27288e-05	0.000153069	5.41838e-06	-2.82342	0.0189635	0.0189405	0.000934104	-5.42105	16.78	16.7049	1.58527	0.0593951	0.00563958	0.0596622	5.42399	416356	4.38499e+06	4.40472e+06	-84.576	0.0000000E+000	0.0000000E+000	0.0000000E+000	84.576	0.0000000E+000	0.0000000E+000	0.0000000E+000	-84.576	0.0000000E+000	0.0000000E+000	0.0000000E+000	-5.42399	0.0000000E+000	0.0000000E+000	0.0000000E+000	5.42399	10.5318	84.576	-5.05998e-06	-2.52153e-06	-1.72307e-09	-2.51981e-06	0.223847	19899.1	13.5979	19885.5
1.46631	16.9577	1.59253	17.0323	-5.36503	16.8396	0.224004	-0.0114749	68156.3	595.848	1	11	0.00478663	0.000281032	0	-2.35768e-05	9.57967e-05	2.28543e-06	-79.4935	0.00813227	0.0014829	0.00799592	-5.39134	17.0345	16.9592	1.60053	0.0584548	0.00548961	0.058712	5.36503	595848	6.34475e+06	6.37266e+06	-84.635	0.0000000E+000	0.0000000E+000	0.0000000E+000	84.635	0.0000000E+000	0.0000000E+000	0.0000000E+000	-84.635	0.0000000E+000	0.0000000E+000	0.0000000E+000	-5.36503	0.0000000E+000	0.0000000E+000	0.0000000E+000	5.36503	10.6483	84.635	-8.47996e-07	-2.57041e-06	-1.09925e-09	-2.56931e-06	0.223908	19521.3	8.3484	19513
1.00006	17.2387	1.63383	17.316	-5.41412	20.0146	0.223998	-0.0114984	97406.1	867.17	1	12	0.00478972	0.000276607	0	-2.39059e-05	0.000267614	3.69666e-06	-3.22022	0.0133643	0.0133432	0.000750722	-5.41243	17.3293	17.2521	1.63458	0.0574925	0.00544894	0.0577501	5.41412	867170	9.14963e+06	9.19063e+06	-84.5859	0.0000000E+000	0.0000000E+000	0.0000000E+000	84.5859	0.0000000E+000	0.0000000E+000	0.0000000E+000	-84.5859	0.0000000E+000	0.0000000E+000	0.0000000E+000	-5.41412	0.0000000E+000	0.0000000E+000	0.0000000E+000	5.41412	10.5511	84.5859	-3.29048e-07	-2.57563e-06	-3.07715e-09	-2.57255e-06	0.22373	19480.7	23.274	19457.4
0.681362	17.5742	1.72857	17.659	-5.61746	23.1265	0.223994	-0.0104943	135131	1294.78	1	12	0.00478703	0.000271081	0	-2.5666e-05	0.00017216	2.2902e-06	-56.8623	0.00844838	0.00461833	0.00707432	-5.63883	17.6643	17.5788	1.73565	0.0563563	0.00554312	0.0566282	5.61746	1.29478e+06	1.31639e+07	1.32274e+07	-84.3825	0.0000000E+000	0.0000000E+000	0.0000000E+000	84.3825	0.0000000E+000	0.0000000E+000	0.0000000E+000	-84.3825	0.0000000E+000	0.0000000E+000	0.0000000E+000	-5.61746	0.0000000E+000	0.0000000E+000	0.0000000E+000	5.61746	10.1669	84.3825	-1.76012e-06	-2.35066e-06	-1.8067e-09	-2.34885e-06	0.223822	21344.3	16.4051	21327.9
0.464091	17.9289	1.93798	18.0333	-6.16929	27.6821	0.224001	-0.0087115	176957	2043.69	1	12	0.00479114	0.000265683	0	-3.92687e-05	0.000267614	2.19132e-06	15.5728	0.00824788	0.0079451	-0.00221425	-6.15959	18.041	17.9368	1.93576	0.0551318	0.00595933	0.0554529	6.16929	2.04369e+06	1.89069e+07	1.9017e+07	-83.8307	0.0000000E+000	0.0000000E+000	0.0000000E+000	83.8307	0.0000000E+000	0.0000000E+000	0.0000000E+000	-83.8307	0.0000000E+000	0.0000000E+000	0.0000000E+000	-6.16929	0.0000000E+000	0.0000000E+000	0.0000000E+000	6.16929	9.25133	83.8307	-1.36027e-05	-1.95139e-06	-2.33132e-09	-1.94906e-06	0.223734	25713.3	30.7197	25682.6
0.316193	18.267	2.22195	18.4017	-6.93524	34.3582	0.223998	-0.00835836	226534	3302.84	1	12	0.00478834	0.000260212	0	-7.30788e-05	7.67059e-05	3.20239e-06	5.64638	0.0123068	0.0122471	-0.00121085	-6.9269	18.4137	18.2793	2.22074	0.0539453	0.00656176	0.0543429	6.93524	3.30285e+06	2.71532e+07	2.73533e+07	-83.0648	0.0000000E+000	0.0000000E+000	0.0000000E+000	83.0648	0.0000000E+000	0.0000000E+000	0.0000000E+000	-83.0648	0.0000000E+000	0.0000000E+000	0.0000000E+000	-6.93524	0.0000000E+000	0.0000000E+000	0.0000000E+000	6.93524	8.22116	83.0648	-3.38101e-05	-1.87225e-06	-6.41135e-10	-1.87161e-06	0.223921	26799.2	9.17714	26790.1
0.215268	18.6654	2.57951	18.8428	-7.86831	44.1517	0.223995	-0.00931884	286618	5371.42	1	12	0.00478908	0.00025416	0	-0.000131664	-5.69301e-05	2.23884e-06	-1.8567	0.00880878	0.00880415	0.000285404	-7.86551	18.8515	18.6742	2.5798	0.0525711	0.00726521	0.0530708	7.86831	5.37142e+06	3.88677e+07	3.92371e+07	-82.1317	0.0000000E+000	0.0000000E+000	0.0000000E+000	82.1317	0.0000000E+000	0.0000000E+000	0.0000000E+000	-82.1317	0.0000000E+000	0.0000000E+000	0.0000000E+000	-7.86831	0.0000000E+000	0.0000000E+000	0.0000000E+000	7.86831	7.23601	82.1317	-5.85855e-05	-2.08737e-06	5.30522e-10	-2.0879e-06	0.224052	24036.8	6.10914	24042.9
0.146929	19.1701	3.09453	19.4183	-9.16986	58.4891	0.223999	-0.010764	350040	8889.69	1	12	0.00478796	0.00024657	0	-0.000210154	9.57967e-05	1.76597e-06	-13.6543	0.00716214	0.00695972	0.00169071	-9.17151	19.4254	19.1771	3.09622	0.0508397	0.0082068	0.0514979	9.16986	8.8897e+06	5.50702e+07	5.57831e+07	-80.8301	0.0000000E+000	0.0000000E+000	0.0000000E+000	80.8301	0.0000000E+000	0.0000000E+000	0.0000000E+000	-80.8301	0.0000000E+000	0.0000000E+000	0.0000000E+000	-9.16986	0.0000000E+000	0.0000000E+000	0.0000000E+000	9.16986	6.19483	80.8301	-7.849e-05	-2.41113e-06	-1.03116e-09	-2.4101e-06	0.223903	20809.9	8.89971	20801.1
0.0999041	19.7833	3.88321	20.1608	-11.1052	79.5664	0.223996	-0.0123817	410247	15219.9	1	12	0.00479015	0.000237597	0	-0.000293832	0.00017216	3.02233e-06	-1.65851	0.0127204	0.0127151	0.000368159	-11.0993	20.1734	19.796	3.88358	0.0486723	0.00955375	0.0496011	11.1052	1.52199e+07	7.75388e+07	7.90184e+07	-78.8948	0.0000000E+000	0.0000000E+000	0.0000000E+000	78.8948	0.0000000E+000	0.0000000E+000	0.0000000E+000	-78.8948	0.0000000E+000	0.0000000E+000	0.0000000E+000	-11.1052	0.0000000E+000	0.0000000E+000	0.0000000E+000	11.1052	5.09458	78.8948	-8.36777e-05	-2.77345e-06	-2.13163e-09	-2.77132e-06	0.223824	18090.9	13.9044	18077
0.0680626	20.4191	4.97088	21.0154	-13.6821	110.494	0.223996	-0.0130685	470412	26318.9	1	12	0.00479042	0.000227948	0	-0.000369402	0.000267614	2.50579e-06	25.4391	0.0109928	0.00992698	-0.00472198	-13.6632	21.024	20.429	4.96616	0.0462338	0.0112553	0.0475841	13.6821	2.63189e+07	1.08111e+08	1.11269e+08	-76.3179	0.0000000E+000	0.0000000E+000	0.0000000E+000	76.3179	0.0000000E+000	0.0000000E+000	0.0000000E+000	-76.3179	0.0000000E+000	0.0000000E+000	0.0000000E+000	-13.6821	0.0000000E+000	0.0000000E+000	0.0000000E+000	13.6821	4.10774	76.3179	-7.55696e-05	-2.9273e-06	-3.49733e-09	-2.92381e-06	0.223729	17140.1	20.4778	17119.7
0.0464052	21.1612	6.27488	22.0719	-16.5166	155.845	0.223996	-0.0127496	546573	44175.2	1	12	0.00478978	0.000217008	0	-0.000407173	0.000305796	1.67228e-06	-17.8943	0.00770606	0.00733328	0.00236778	-16.517	22.0796	21.1685	6.27724	0.043437	0.0128803	0.0453065	16.5166	4.41752e+07	1.48975e+08	1.55387e+08	-73.4834	0.0000000E+000	0.0000000E+000	0.0000000E+000	73.4834	0.0000000E+000	0.0000000E+000	0.0000000E+000	-73.4834	0.0000000E+000	0.0000000E+000	0.0000000E+000	-16.5166	0.0000000E+000	0.0000000E+000	0.0000000E+000	16.5166	3.37236	73.4834	-3.77716e-05	-2.85585e-06	-3.89877e-09	-2.85195e-06	0.22369	17568.8	23.9848	17544.8
0.0315922	22.3595	8.01013	23.751	-19.7097	222.451	0.223996	-0.0127912	628927	71534.7	1	12	0.00478899	0.000201633	0	-0.000459652	0.000153069	2.43823e-06	22.3866	0.0120924	0.0111811	-0.00460544	-19.6902	23.76	22.3707	8.00553	0.0396368	0.0141996	0.0421035	19.7097	7.15347e+07	1.99682e+08	2.12109e+08	-70.2903	0.0000000E+000	0.0000000E+000	0.0000000E+000	70.2903	0.0000000E+000	0.0000000E+000	0.0000000E+000	-70.2903	0.0000000E+000	0.0000000E+000	0.0000000E+000	-19.7097	0.0000000E+000	0.0000000E+000	0.0000000E+000	19.7097	2.7914	70.2903	-5.24784e-05	-2.86517e-06	-1.95793e-09	-2.86322e-06	0.223843	17511.8	11.9668	17499.8
0.0215268	24.0318	10.5421	26.2424	-23.6858	320.19	0.223995	-0.0130263	701316	113178	1	12	0.00478771	0.000182442	0	-0.000674797	0.000133978	2.00838e-06	-61.2772	0.0110083	0.00529029	0.00965381	-23.7004	26.2511	24.037	10.5517	0.0348963	0.0153081	0.0381063	23.6858	1.13178e+08	2.58001e+08	2.81733e+08	-66.3142	0.0000000E+000	0.0000000E+000	0.0000000E+000	66.3142	0.0000000E+000	0.0000000E+000	0.0000000E+000	-66.3142	0.0000000E+000	0.0000000E+000	0.0000000E+000	-23.6858	0.0000000E+000	0.0000000E+000	0.0000000E+000	23.6858	2.2796	66.3142	-0.000215145	-2.91783e-06	-1.74525e-09	-2.91609e-06	0.223861	17195.5	10.2852	17185.3
0.0146812	25.9859	13.8312	29.4375	-28.0245	463.492	0.223998	-0.0136065	783790	173028	1	12	0.00478873	0.000162674	0	-0.00127257	1.94333e-05	1.62741e-06	-1.12313	0.0100041	0.0100021	0.00019609	-28.0157	29.4465	25.9959	13.8314	0.0299871	0.0159609	0.0339702	28.0245	1.73028e+08	3.25083e+08	3.68263e+08	-61.9755	0.0000000E+000	0.0000000E+000	0.0000000E+000	61.9755	0.0000000E+000	0.0000000E+000	0.0000000E+000	-61.9755	0.0000000E+000	0.0000000E+000	0.0000000E+000	-28.0245	0.0000000E+000	0.0000000E+000	0.0000000E+000	28.0245	1.87879	61.9755	-0.000597769	-3.04783e-06	-2.64419e-10	-3.04756e-06	0.223979	16462.6	1.42824	16461.2
0.0100092	28.4708	17.6256	33.485	-31.7606	673.674	0.223998	-0.0144917	902150	249956	1	12	0.00479013	0.000143053	0	-0.00245306	9.57967e-05	2.18701e-06	-2.55904	0.0152881	0.0152729	0.000682595	-31.7479	33.4984	28.4861	17.6262	0.0253921	0.0157196	0.0298641	31.7606	2.49956e+08	4.03757e+08	4.74866e+08	-58.2394	0.0000000E+000	0.0000000E+000	0.0000000E+000	58.2394	0.0000000E+000	0.0000000E+000	0.0000000E+000	-58.2394	0.0000000E+000	0.0000000E+000	0.0000000E+000	-31.7606	0.0000000E+000	0.0000000E+000	0.0000000E+000	31.7606	1.61531	58.2394	-0.00118049	-3.2461e-06	-1.38825e-09	-3.24471e-06	0.223902	15457	6.61047	15450.4