File: txt/18610_R301_UA697_SOC00_C08.mpt
EC-Lab ASCII FILE
Nb header lines : 65

Potentio Electrochemical Impedance Spectroscopy

Run on channel : 8 (SN 65398)
User :
CE vs. WE compliance from -10 V to 10 V
Electrode connection : standard
Potential control : Ewe
Ewe ctrl range : min = -10.00 V, max = 10.00 V
Safety Limits :
	Do not start on E overload
Acquisition started on : 10/27/2025 16:24:52.507
Technique started on : 10/27/2025 16:24:54.418
Loaded Setting File :  C:\Users\Celltest\OneDrive - store-dot.com\Documents\EC-Lab\Data\@Biologic Test Protocols\anode half cell EIS SOC00.mps
Saved on :
	File : 18610_R301_UA697_SOC00_C08.mpr
	Directory : C:\Users\Celltest\OneDrive - store-dot.com\Documents\EC-Lab\Data\Gyutae\
	Host : 169.254.61.224
Device : VMP-3e (SN .003165)
Address : USB
EC-LAB for windows v11.62 (software)
Internet server v27.00 (firmware)
Command interpretor v12.03 (firmware)
Electrode material :
Initial state :
Electrolyte :
Comments :
Electrode surface area : 0.001 cm²
Characteristic mass : 0.001 g
Equivalent Weight : 0.000 g/eq.
Density : 0.000 g/cm3
Volume (V) : 0.001 cm³
Record Ece
Cycle Definition : Charge/Discharge alternance
Mode                Single sine
E (V)               0.0000
vs.                 Eoc
tE (h:m:s)          0:00:0.0000
record              0
dI                  0.000
unit dI             mA
dt (s)              0.000
fi                  100.000
unit fi             kHz
ff                  10.000
unit ff             mHz
Nd                  6
Points              per decade
spacing             Logarithmic
Va (mV)             5.0
pw                  0.10
Na                  2
corr                0
E range min (V)     -10.000
E range max (V)     10.000
I Range             Auto
Bandwidth           5
nc cycles           0
goto Ns'            0
nr cycles           0
inc. cycle          0

freq/Hz	Re(Z)/Ohm	-Im(Z)/Ohm	|Z|/Ohm	Phase(Z)/deg	time/s	<Ewe>/V	<I>/mA	Cs/µF	Cp/µF	cycle number	I Range	|Ewe|/V	|I|/A	Ns	(Q-Qo)/mA.h	<Ece>/V	|Ece|/V	Phase(Zce)/deg	|Zce|/Ohm	Re(Zce)/Ohm	-Im(Zce)/Ohm	Phase(Zwe-ce)/deg	|Zwe-ce|/Ohm	Re(Zwe-ce)/Ohm	-Im(Zwe-ce)/Ohm	Re(Y)/Ohm-1	Im(Y)/Ohm-1	|Y|/Ohm-1	Phase(Y)/deg	Re(C)/nF	Im(C)/nF	|C|/nF	Phase(C)/deg	Re(M)	Im(M)	|M|	Phase(M)/deg	Re(Permittivity)	Im(Permittivity)	|Permittivity|	Phase(Permittivity)/deg	Re(Resistivity)/Ohm.cm	Im(Resistivity)/Ohm.cm	|Resistivity|/Ohm.cm	Phase(Resistivity)/deg	Re(Conductivity)/mS/cm	Im(Conductivity)/mS/cm	|Conductivity|/mS/cm	Phase(Conductivity)/deg	Tan(Delta)	Loss Angle(Delta)/deg	dq/mA.h	Pwe/W	Pce/W	Pwe-ce/W	<Ewe-Ece>/V	Rwe/Ohm	Rce/Ohm	Rwe-ce/Ohm		Ewe-Ece/V
100004	1.11581	0.366102	1.17433	-18.1649	1.91056	0.217271	-0.00226691	4.34713	0.422497	1	9	0.00463779	0.0039493	0	-1.6587e-06	6.3091e-06	5.61125e-05	97.5185	0.0142082	-0.00185909	-0.014086	-17.5369	1.16824	1.11395	0.352015	0.80911	0.265473	0.851548	18.1649	422.497	1287.69	1355.23	-71.8351	0.0000000E+000	0.0000000E+000	0.0000000E+000	71.8351	0.0000000E+000	0.0000000E+000	0.0000000E+000	-71.8351	0.0000000E+000	0.0000000E+000	0.0000000E+000	-18.1649	0.0000000E+000	0.0000000E+000	0.0000000E+000	18.1649	3.04781	71.8351	-1.6587e-06	-4.92534e-07	-1.43022e-11	-4.9252e-07	0.217265	95844.4	2.78313	95841.7
68132	1.21387	0.424257	1.28588	-19.2648	2.41752	0.217263	-0.00241572	5.50605	0.599372	1	9	0.00505113	0.00392815	0	-1.29074e-05	4.44852e-05	3.52505e-05	92.0788	0.0089738	-0.00032552	-0.00896789	-18.8915	1.28264	1.21355	0.415289	0.734131	0.256583	0.777678	19.2648	599.373	1714.91	1816.64	-70.7352	0.0000000E+000	0.0000000E+000	0.0000000E+000	70.7352	0.0000000E+000	0.0000000E+000	0.0000000E+000	-70.7352	0.0000000E+000	0.0000000E+000	0.0000000E+000	-19.2648	0.0000000E+000	0.0000000E+000	0.0000000E+000	19.2648	2.86118	70.7352	-1.12487e-05	-5.24848e-07	-1.07464e-10	-5.2474e-07	0.217219	89937.3	18.4149	89918.9
46420.4	1.32764	0.468203	1.40778	-19.4256	2.92452	0.217262	-0.00468506	7.3228	0.809981	1	9	0.00505417	0.00359016	0	5.01204e-06	-0.0002991	1.93089e-05	71.9216	0.00537829	0.00166898	-0.00511278	-19.2067	1.40767	1.32931	0.463091	0.6699	0.236245	0.710337	19.4256	809.981	2296.79	2435.43	-70.5744	0.0000000E+000	0.0000000E+000	0.0000000E+000	70.5744	0.0000000E+000	0.0000000E+000	0.0000000E+000	-70.5744	0.0000000E+000	0.0000000E+000	0.0000000E+000	-19.4256	0.0000000E+000	0.0000000E+000	0.0000000E+000	19.4256	2.83561	70.5744	1.79194e-05	-1.01788e-06	1.4013e-09	-1.01929e-06	0.217561	46373.3	63.8412	46437.2
31621.1	1.4451	0.528875	1.53884	-20.1016	3.43352	0.217257	-0.00401543	9.51676	1.12412	1	9	0.00511927	0.00332672	0	5.92841e-06	0.000178102	2.31873e-05	43.3565	0.00697003	0.00506788	-0.00478517	-19.8699	1.54196	1.45017	0.52409	0.610257	0.223341	0.649842	20.1016	1124.12	3071.53	3270.77	-69.8984	0.0000000E+000	0.0000000E+000	0.0000000E+000	69.8984	0.0000000E+000	0.0000000E+000	0.0000000E+000	-69.8984	0.0000000E+000	0.0000000E+000	0.0000000E+000	-20.1016	0.0000000E+000	0.0000000E+000	0.0000000E+000	20.1016	2.7324	69.8984	9.16368e-07	-8.72378e-07	-7.15154e-10	-8.71663e-07	0.217078	54105.5	44.3543	54061.1
21544.7	1.57501	0.583919	1.67977	-20.3417	3.81655	0.217257	-0.00490828	12.6511	1.52874	1	9	0.00516098	0.00307243	0	1.33751e-05	0.00038807	5.46915e-06	-26.5685	0.00178007	0.0015921	0.000796168	-20.3483	1.68154	1.57661	0.584715	0.558193	0.206944	0.595319	20.3417	1528.74	4123.48	4397.74	-69.6583	0.0000000E+000	0.0000000E+000	0.0000000E+000	69.6583	0.0000000E+000	0.0000000E+000	0.0000000E+000	-69.6583	0.0000000E+000	0.0000000E+000	0.0000000E+000	-20.3417	0.0000000E+000	0.0000000E+000	0.0000000E+000	20.3417	2.69731	69.6583	7.44666e-06	-1.06636e-06	-1.90476e-09	-1.06445e-06	0.216869	44263.4	79.0644	44184.3
14678.6	1.713	0.648263	1.83156	-20.7285	4.07557	0.217257	-0.000778835	16.7257	2.09529	1	9	0.004865	0.00265621	0	1.45327e-05	-0.000165483	1.07734e-05	-6.4079	0.00405595	0.00403061	0.000452668	-20.6972	1.83549	1.71703	0.648716	0.51064	0.193245	0.545982	20.7285	2095.29	5536.69	5919.9	-69.2715	0.0000000E+000	0.0000000E+000	0.0000000E+000	69.2715	0.0000000E+000	0.0000000E+000	0.0000000E+000	-69.2715	0.0000000E+000	0.0000000E+000	0.0000000E+000	-20.7285	0.0000000E+000	0.0000000E+000	0.0000000E+000	20.7285	2.64244	69.2715	1.15762e-06	-1.69207e-07	1.28884e-10	-1.69336e-07	0.217422	278951	212.476	279163
10002.2	1.85888	0.719366	1.99322	-21.1559	4.45855	0.217261	-0.00449906	22.1194	2.88114	1	9	0.00505634	0.00253677	0	1.44481e-05	0.00019719	6.78147e-06	-99.8423	0.00267326	-0.000456958	0.00263392	-21.2312	1.99374	1.85842	0.722	0.467888	0.181067	0.501701	21.1559	2881.14	7445.01	7983.05	-68.8441	0.0000000E+000	0.0000000E+000	0.0000000E+000	68.8441	0.0000000E+000	0.0000000E+000	0.0000000E+000	-68.8441	0.0000000E+000	0.0000000E+000	0.0000000E+000	-21.1559	0.0000000E+000	0.0000000E+000	0.0000000E+000	21.1559	2.58405	68.8441	-8.45659e-08	-9.77472e-07	-8.87168e-10	-9.76585e-07	0.217064	48290.4	43.8291	48246.6
6810.42	2.04251	0.785888	2.18849	-21.045	4.71955	0.217251	-0.00691722	29.7362	3.83458	1	9	0.00486245	0.00222183	0	1.48542e-05	0.000464422	0.000171351	27.5475	0.0771215	0.0683781	-0.0356674	-19.5654	2.24025	2.11089	0.75022	0.426458	0.164086	0.456936	21.045	3834.58	9966.04	10678.3	-68.955	0.0000000E+000	0.0000000E+000	0.0000000E+000	68.955	0.0000000E+000	0.0000000E+000	0.0000000E+000	-68.955	0.0000000E+000	0.0000000E+000	0.0000000E+000	-21.045	0.0000000E+000	0.0000000E+000	0.0000000E+000	21.045	2.59899	68.955	4.06052e-07	-1.50277e-06	-3.21251e-09	-1.49956e-06	0.216787	31407.3	67.1401	31340.2
4646	2.19312	0.920537	2.37848	-22.7697	4.98759	0.217223	-0.03999	37.2134	5.57422	1	9	0.00467495	0.00196552	0	1.16948e-05	-0.000356364	9.66228e-06	42.1127	0.00491589	0.00364674	-0.00329655	-22.6626	2.38057	2.19676	0.917241	0.387672	0.162721	0.420437	22.7697	5574.22	13280.2	14402.6	-67.2303	0.0000000E+000	0.0000000E+000	0.0000000E+000	67.2303	0.0000000E+000	0.0000000E+000	0.0000000E+000	-67.2303	0.0000000E+000	0.0000000E+000	0.0000000E+000	-22.7697	0.0000000E+000	0.0000000E+000	0.0000000E+000	22.7697	2.38243	67.2303	-3.15939e-06	-8.68675e-06	1.4251e-08	-8.701e-06	0.217579	5431.93	8.91132	5440.84
3163.08	2.40113	1.05097	2.62106	-23.6389	5.36166	0.217	-0.0876833	47.8762	7.69744	1	9	0.00459932	0.00175476	0	2.00123e-06	6.35733e-05	4.93613e-06	-25.072	0.002813	0.00254795	0.00119203	-23.6405	2.62387	2.40368	1.05216	0.349512	0.152981	0.381525	23.6389	7697.44	17586.2	19197	-66.3611	0.0000000E+000	0.0000000E+000	0.0000000E+000	66.3611	0.0000000E+000	0.0000000E+000	0.0000000E+000	-66.3611	0.0000000E+000	0.0000000E+000	0.0000000E+000	-23.6389	0.0000000E+000	0.0000000E+000	0.0000000E+000	23.6389	2.28468	66.3611	-9.69355e-06	-1.90273e-05	-5.57431e-09	-1.90217e-05	0.216936	2474.81	0.725033	2474.09
2155.69	2.63724	1.2137	2.90312	-24.7126	5.81281	0.21718	0.0344516	60.8307	10.632	1	9	0.00454955	0.00156712	0	6.69519e-06	-0.000146395	7.67326e-06	4.60277	0.0048964	0.00488061	-0.000392922	-24.6653	2.90739	2.64213	1.21331	0.31291	0.144006	0.344457	24.7126	10632	23102.2	25431.3	-65.2874	0.0000000E+000	0.0000000E+000	0.0000000E+000	65.2874	0.0000000E+000	0.0000000E+000	0.0000000E+000	-65.2874	0.0000000E+000	0.0000000E+000	0.0000000E+000	-24.7126	0.0000000E+000	0.0000000E+000	0.0000000E+000	24.7126	2.1729	65.2874	4.69397e-06	7.48221e-06	-5.04356e-09	7.48726e-06	0.217327	6303.91	4.2493	6308.16
1468.59	2.90538	1.40628	3.22782	-25.8281	6.26405	0.217184	0.0412969	77.0636	14.6275	1	9	0.00452782	0.00140275	0	1.06512e-05	0.000254454	1.01514e-05	7.41686	0.00723676	0.00717622	-0.000934175	-25.7578	3.23388	2.91256	1.40534	0.278858	0.134974	0.309806	25.8281	14627.5	30220.6	33574.5	-64.1719	0.0000000E+000	0.0000000E+000	0.0000000E+000	64.1719	0.0000000E+000	0.0000000E+000	0.0000000E+000	-64.1719	0.0000000E+000	0.0000000E+000	0.0000000E+000	-25.8281	0.0000000E+000	0.0000000E+000	0.0000000E+000	25.8281	2.06601	64.1719	3.95596e-06	8.96901e-06	1.05081e-08	8.95851e-06	0.216929	5259.09	6.16158	5252.93
1000.32	3.18224	1.65014	3.58463	-27.4088	6.95979	0.217182	-0.0254257	96.4188	20.432	1	10	0.00460473	0.00128457	0	1.18151e-05	0.000159014	9.15723e-06	33.9079	0.00712862	0.0059163	-0.00397676	-27.3089	3.58806	3.18816	1.64616	0.247653	0.128419	0.278969	27.4088	20432	39402.6	44385	-62.5912	0.0000000E+000	0.0000000E+000	0.0000000E+000	62.5912	0.0000000E+000	0.0000000E+000	0.0000000E+000	-62.5912	0.0000000E+000	0.0000000E+000	0.0000000E+000	-27.4088	0.0000000E+000	0.0000000E+000	0.0000000E+000	27.4088	1.92847	62.5912	1.16397e-06	-5.522e-06	-4.04303e-09	-5.51796e-06	0.217023	8541.83	6.25405	8535.57
681.09	3.51801	1.97622	4.03507	-29.3248	7.41057	0.217183	-0.0247375	118.245	28.3627	1	10	0.0045602	0.00113014	0	8.01433e-06	-0.000127307	5.51784e-06	-102.69	0.00488244	-0.00107256	0.00476318	-29.3912	4.03647	3.51694	1.98098	0.21607	0.121376	0.247827	29.3248	28362.7	50490.5	57911.4	-60.6752	0.0000000E+000	0.0000000E+000	0.0000000E+000	60.6752	0.0000000E+000	0.0000000E+000	0.0000000E+000	-60.6752	0.0000000E+000	0.0000000E+000	0.0000000E+000	-29.3248	0.0000000E+000	0.0000000E+000	0.0000000E+000	29.3248	1.78017	60.6752	-3.8008e-06	-5.37256e-06	3.14926e-09	-5.37571e-06	0.21731	8779.5	5.14633	8784.65
463.961	3.94662	2.41198	4.62531	-31.4312	7.86231	0.217189	-0.0243283	142.222	38.6751	1	10	0.00453248	0.000979929	0	5.58241e-06	0.000139925	1.00374e-05	-65.4866	0.010243	0.00424989	0.00931975	-31.5021	4.6338	3.95087	2.4213	0.184478	0.112744	0.216202	31.4312	38675.1	63282.4	74164.9	-58.5688	0.0000000E+000	0.0000000E+000	0.0000000E+000	58.5688	0.0000000E+000	0.0000000E+000	0.0000000E+000	-58.5688	0.0000000E+000	0.0000000E+000	0.0000000E+000	-31.4312	0.0000000E+000	0.0000000E+000	0.0000000E+000	31.4312	1.63626	58.5688	-2.43192e-06	-5.28383e-06	-3.40415e-09	-5.28043e-06	0.217049	8927.4	5.75155	8921.65
316.316	4.5036	2.94058	5.37861	-33.1421	8.31009	0.217185	-0.0259093	171.107	51.1437	1	10	0.00450512	0.000837601	0	1.98873e-06	0.000120837	9.07306e-06	92.1201	0.0108322	-0.000400739	-0.0108248	-33.0478	5.37236	4.5032	2.92975	0.155676	0.101647	0.185922	33.1421	51143.7	78328.4	93546.9	-56.8579	0.0000000E+000	0.0000000E+000	0.0000000E+000	56.8579	0.0000000E+000	0.0000000E+000	0.0000000E+000	-56.8579	0.0000000E+000	0.0000000E+000	0.0000000E+000	-33.1421	0.0000000E+000	0.0000000E+000	0.0000000E+000	33.1421	1.53154	56.8579	-3.59368e-06	-5.62711e-06	-3.13081e-09	-5.62398e-06	0.217064	8382.51	4.66386	8377.84
215.345	5.31587	3.54803	6.39116	-33.7208	8.97455	0.217175	-0.0256266	208.305	64.1969	1	10	0.00488607	0.000764504	0	-2.30243e-06	0.000139925	7.86747e-06	-47.8679	0.010291	0.0069036	0.00763177	-33.7433	6.40114	5.32277	3.55566	0.130141	0.0868616	0.156466	33.7208	64196.9	96183.5	115640	-56.2792	0.0000000E+000	0.0000000E+000	0.0000000E+000	56.2792	0.0000000E+000	0.0000000E+000	0.0000000E+000	-56.2792	0.0000000E+000	0.0000000E+000	0.0000000E+000	-33.7208	0.0000000E+000	0.0000000E+000	0.0000000E+000	33.7208	1.49826	56.2792	-4.29116e-06	-5.56545e-06	-3.58581e-09	-5.56187e-06	0.217035	8474.6	5.46017	8469.14
146.737	6.40639	4.13098	7.62279	-32.8148	9.42051	0.217174	-0.0271406	262.558	77.109	1	10	0.00487809	0.000639935	0	-4.71906e-06	0.000120837	4.91179e-06	-69.8372	0.00767546	0.00264564	0.00720508	-32.8495	7.62892	6.40904	4.13819	0.110252	0.0710928	0.131186	32.8148	77109	119582	142287	-57.1852	0.0000000E+000	0.0000000E+000	0.0000000E+000	57.1852	0.0000000E+000	0.0000000E+000	0.0000000E+000	-57.1852	0.0000000E+000	0.0000000E+000	0.0000000E+000	-32.8148	0.0000000E+000	0.0000000E+000	0.0000000E+000	32.8148	1.55082	57.1852	-2.41663e-06	-5.89423e-06	-3.2796e-09	-5.89095e-06	0.217053	8001.8	4.45227	7997.35
100.032	7.73706	4.51273	8.95694	-30.2534	9.87179	0.217174	-0.0260655	352.567	89.4954	1	10	0.00487076	0.000543797	0	-8.43802e-06	0.000101749	6.46296e-06	-12.2837	0.0118849	0.0116128	0.00252854	-30.2299	8.96825	7.74867	4.51526	0.0964398	0.0562496	0.111645	30.2534	89495.4	153440	177632	-59.7466	0.0000000E+000	0.0000000E+000	0.0000000E+000	59.7466	0.0000000E+000	0.0000000E+000	0.0000000E+000	-59.7466	0.0000000E+000	0.0000000E+000	0.0000000E+000	-30.2534	0.0000000E+000	0.0000000E+000	0.0000000E+000	30.2534	1.7145	59.7466	-3.71895e-06	-5.66076e-06	-2.65215e-09	-5.6581e-06	0.217072	8331.84	3.9036	8327.93
68.104	9.24269	4.58007	10.3152	-26.36	10.3344	0.21718	-0.023495	510.241	100.591	1	10	0.00486398	0.000471533	0	-1.16787e-05	-3.1867e-05	1.21231e-05	18.2264	0.02571	0.0244201	-0.00804142	-26.2599	10.3336	9.26711	4.57203	0.0868638	0.0430441	0.0969439	26.36	100591	202996	226552	-63.64	0.0000000E+000	0.0000000E+000	0.0000000E+000	63.64	0.0000000E+000	0.0000000E+000	0.0000000E+000	-63.64	0.0000000E+000	0.0000000E+000	0.0000000E+000	-26.36	0.0000000E+000	0.0000000E+000	0.0000000E+000	26.36	2.01802	63.64	-3.24073e-06	-5.10264e-06	7.48717e-10	-5.10339e-06	0.217211	9243.63	1.35633	9244.98
46.4415	10.6704	4.29387	11.5019	-21.9204	10.7707	0.21716	-0.0295623	798.113	111.23	1	10	0.00486953	0.000423366	0	-1.49591e-05	0.000216278	1.27448e-05	-31.5671	0.0301034	0.0256489	0.015759	-21.9454	11.5316	10.696	4.30963	0.0806563	0.0324569	0.0869419	21.9204	111230	276409	297949	-68.0796	0.0000000E+000	0.0000000E+000	0.0000000E+000	68.0796	0.0000000E+000	0.0000000E+000	0.0000000E+000	-68.0796	0.0000000E+000	0.0000000E+000	0.0000000E+000	-21.9204	0.0000000E+000	0.0000000E+000	0.0000000E+000	21.9204	2.48503	68.0796	-3.2804e-06	-6.41977e-06	-6.39367e-09	-6.41337e-06	0.216944	7345.86	7.31599	7338.54
31.6296	11.8333	3.77986	12.4223	-17.7148	11.2005	0.217157	-0.031772	1331.23	123.253	1	10	0.00486485	0.000391622	0	-1.82462e-05	0.000368982	7.41141e-06	19.2682	0.0189249	0.0178648	-0.00624504	-17.6624	12.4375	11.8512	3.77361	0.0766831	0.0244945	0.0805002	17.7148	123253	385857	405064	-72.2852	0.0000000E+000	0.0000000E+000	0.0000000E+000	72.2852	0.0000000E+000	0.0000000E+000	0.0000000E+000	-72.2852	0.0000000E+000	0.0000000E+000	0.0000000E+000	-17.7148	0.0000000E+000	0.0000000E+000	0.0000000E+000	17.7148	3.13062	72.2852	-3.2871e-06	-6.8995e-06	-1.17233e-08	-6.88778e-06	0.216788	6834.85	11.6134	6823.24
21.5517	12.7478	3.17835	13.1381	-13.9998	11.6214	0.217159	-0.0342532	2323.47	135.98	1	10	0.00486642	0.000370406	0	-2.21762e-05	0.000139925	2.19819e-05	-82.7226	0.0593454	0.00751751	0.0588673	-14.2406	13.1597	12.7553	3.23721	0.0738538	0.0184136	0.0761146	13.9998	135980	545395	562091	-76.0002	0.0000000E+000	0.0000000E+000	0.0000000E+000	76.0002	0.0000000E+000	0.0000000E+000	0.0000000E+000	-76.0002	0.0000000E+000	0.0000000E+000	0.0000000E+000	-13.9998	0.0000000E+000	0.0000000E+000	0.0000000E+000	13.9998	4.01084	76.0002	-3.92998e-06	-7.43837e-06	-4.79289e-09	-7.43358e-06	0.217019	6339.8	4.08503	6335.72
14.6852	13.435	2.66058	13.6959	-11.2015	12.3312	0.217211	-0.0128324	4073.48	153.722	1	11	0.00487083	0.000355641	0	-2.89082e-05	0.000273542	8.0005e-06	-50.412	0.022496	0.0143359	0.0173365	-11.2609	13.7134	13.4494	2.67791	0.0716235	0.0141838	0.0730144	11.2015	153722	776242	791317	-78.7985	0.0000000E+000	0.0000000E+000	0.0000000E+000	78.7985	0.0000000E+000	0.0000000E+000	0.0000000E+000	-78.7985	0.0000000E+000	0.0000000E+000	0.0000000E+000	-11.2015	0.0000000E+000	0.0000000E+000	0.0000000E+000	11.2015	5.04966	78.7985	-6.73194e-06	-2.78735e-06	-3.51021e-09	-2.78384e-06	0.216937	16926.7	21.3164	16905.4
10.0032	13.9111	2.19357	14.083	-8.9609	12.7818	0.217208	-0.0135981	7253.19	175.972	1	11	0.00486612	0.000345531	0	-2.77561e-05	0.000159014	6.88259e-06	-6.26327	0.0199189	0.0198	0.00217309	-8.95709	14.1029	13.9309	2.19575	0.0701409	0.0110602	0.0710076	8.9609	175972	1.11597e+06	1.12976e+06	-81.0391	0.0000000E+000	0.0000000E+000	0.0000000E+000	81.0391	0.0000000E+000	0.0000000E+000	0.0000000E+000	-81.0391	0.0000000E+000	0.0000000E+000	0.0000000E+000	-8.9609	0.0000000E+000	0.0000000E+000	0.0000000E+000	8.9609	6.34176	81.0391	1.15202e-06	-2.95362e-06	-2.16229e-09	-2.95146e-06	0.217049	15973.3	11.6938	15961.6
6.81719	14.2832	1.88193	14.4067	-7.50593	13.1215	0.217206	-0.0129147	12405.4	211.685	1	11	0.00486064	0.000337388	0	-3.13817e-05	-0.000260924	4.60294e-06	-54.4947	0.0136429	0.00792348	0.0111062	-7.54558	14.416	14.2912	1.89303	0.0688174	0.00906723	0.0694122	7.50593	211685	1.60662e+06	1.62051e+06	-82.4941	0.0000000E+000	0.0000000E+000	0.0000000E+000	82.4941	0.0000000E+000	0.0000000E+000	0.0000000E+000	-82.4941	0.0000000E+000	0.0000000E+000	0.0000000E+000	-7.50593	0.0000000E+000	0.0000000E+000	0.0000000E+000	7.50593	7.58968	82.4941	-3.62556e-06	-2.80516e-06	3.36975e-09	-2.80853e-06	0.217467	16818.5	20.2036	16838.7
4.63925	14.587	1.61819	14.6765	-6.33013	13.6054	0.217212	-0.013399	21200.4	257.724	1	11	0.00486072	0.00033119	0	-3.44917e-05	0.000216278	1.3463e-05	131.4	0.0406504	-0.0268827	-0.0304922	-6.22317	14.6464	14.5601	1.58769	0.0677207	0.00751248	0.0681362	6.33013	257724	2.32324e+06	2.33749e+06	-83.6699	0.0000000E+000	0.0000000E+000	0.0000000E+000	83.6699	0.0000000E+000	0.0000000E+000	0.0000000E+000	-83.6699	0.0000000E+000	0.0000000E+000	0.0000000E+000	-6.33013	0.0000000E+000	0.0000000E+000	0.0000000E+000	6.33013	9.01443	83.6699	-3.10998e-06	-2.91042e-06	-2.8979e-09	-2.90752e-06	0.216995	16211	16.1413	16194.9
3.1604	14.8435	1.50678	14.9198	-5.7963	14.2984	0.217203	-0.0139631	33421.6	340.88	1	11	0.0048612	0.000325822	0	-3.32031e-05	-0.000108219	3.66122e-06	110.525	0.0112369	-0.00393983	-0.0105236	-5.75761	14.9148	14.8396	1.49626	0.0666822	0.00676898	0.0670249	5.7963	340880	3.35806e+06	3.37532e+06	-84.2037	0.0000000E+000	0.0000000E+000	0.0000000E+000	84.2037	0.0000000E+000	0.0000000E+000	0.0000000E+000	-84.2037	0.0000000E+000	0.0000000E+000	0.0000000E+000	-5.7963	0.0000000E+000	0.0000000E+000	0.0000000E+000	5.7963	9.85115	84.2037	1.28856e-06	-3.03283e-06	1.51108e-09	-3.03434e-06	0.217311	15555.5	7.75036	15563.2
2.15577	15.1078	1.42404	15.1748	-5.38471	15.3021	0.217214	-0.0126833	51843.7	456.559	1	11	0.00486411	0.000320539	0	-3.21459e-05	-3.1867e-05	4.97893e-06	-71.3497	0.015533	0.0049673	0.0147173	-5.43826	15.1811	15.1128	1.43876	0.0656081	0.00618413	0.0658989	5.38471	456559	4.84368e+06	4.86515e+06	-84.6153	0.0000000E+000	0.0000000E+000	0.0000000E+000	84.6153	0.0000000E+000	0.0000000E+000	0.0000000E+000	-84.6153	0.0000000E+000	0.0000000E+000	0.0000000E+000	-5.38471	0.0000000E+000	0.0000000E+000	0.0000000E+000	5.38471	10.6091	84.6153	1.05723e-06	-2.75499e-06	4.04178e-10	-2.75539e-06	0.217246	17126	2.51252	17128.5
1.46631	15.3865	1.46157	15.4557	-5.42627	16.7623	0.217224	-0.0113562	74263.4	664.101	1	11	0.00486653	0.000314869	0	-3.73945e-05	0.000178102	1.89063e-06	-59.9214	0.0060045	0.00300938	0.00519593	-5.44439	15.4592	15.3895	1.46676	0.0644109	0.00611842	0.0647009	5.42627	664100	6.99123e+06	7.02271e+06	-84.5737	0.0000000E+000	0.0000000E+000	0.0000000E+000	84.5737	0.0000000E+000	0.0000000E+000	0.0000000E+000	-84.5737	0.0000000E+000	0.0000000E+000	0.0000000E+000	-5.42627	0.0000000E+000	0.0000000E+000	0.0000000E+000	5.42627	10.5274	84.5737	-5.24864e-06	-2.46684e-06	-2.02256e-09	-2.46482e-06	0.217046	19128.2	15.6832	19112.5
1.00006	15.6386	1.56265	15.7165	-5.7062	18.8898	0.217225	-0.0110581	101843	1006.8	1	11	0.00486573	0.000309595	0	-5.20397e-05	0.000178102	3.93065e-06	-8.55787	0.0126961	0.0125548	0.00188929	-5.7085	15.7291	15.6511	1.56454	0.0633123	0.00632632	0.0636275	5.7062	1.0068e+06	1.00758e+07	1.0126e+07	-84.2938	0.0000000E+000	0.0000000E+000	0.0000000E+000	84.2938	0.0000000E+000	0.0000000E+000	0.0000000E+000	-84.2938	0.0000000E+000	0.0000000E+000	0.0000000E+000	-5.7062	0.0000000E+000	0.0000000E+000	0.0000000E+000	5.7062	10.0078	84.2938	-1.46452e-05	-2.40209e-06	-1.96946e-09	-2.40012e-06	0.217047	19644	16.106	19627.9
0.681362	15.9274	1.69819	16.0177	-6.08593	23.5156	0.217218	-0.0128937	137548	1546.07	1	12	0.00486279	0.000303589	0	-8.14402e-05	0.00029263	1.64678e-06	35.0954	0.00542437	0.0044382	-0.00311869	-6.07315	16.0218	15.9318	1.69507	0.0620792	0.00661893	0.062431	6.08593	1.54607e+06	1.45007e+07	1.45828e+07	-83.9141	0.0000000E+000	0.0000000E+000	0.0000000E+000	83.9141	0.0000000E+000	0.0000000E+000	0.0000000E+000	-83.9141	0.0000000E+000	0.0000000E+000	0.0000000E+000	-6.08593	0.0000000E+000	0.0000000E+000	0.0000000E+000	6.08593	9.37904	83.9141	-2.94004e-05	-2.80075e-06	-3.77309e-09	-2.79698e-06	0.216926	16846.8	22.6955	16824.1
0.464091	16.3004	1.88491	16.409	-6.59614	28.0702	0.217231	-0.0145094	181940	2400.72	1	12	0.0048675	0.000296636	0	-0.000108535	-8.91312e-05	4.20443e-06	-28.3073	0.0141737	0.0124788	0.00672117	-6.61443	16.4222	16.3129	1.89163	0.0605387	0.00700043	0.0609421	6.59614	2.40072e+06	2.07611e+07	2.08994e+07	-83.4039	0.0000000E+000	0.0000000E+000	0.0000000E+000	83.4039	0.0000000E+000	0.0000000E+000	0.0000000E+000	-83.4039	0.0000000E+000	0.0000000E+000	0.0000000E+000	-6.59614	0.0000000E+000	0.0000000E+000	0.0000000E+000	6.59614	8.64785	83.4039	-2.7095e-05	-3.15188e-06	1.29324e-09	-3.15317e-06	0.21732	14971.8	6.14301	14977.9
0.316193	16.6675	2.20414	16.8126	-7.53318	34.7447	0.217224	-0.0174343	228365	3924.97	1	12	0.00486625	0.000289441	0	-0.000133154	0.000101749	3.98964e-06	12.0679	0.013784	0.0134793	-0.00288183	-7.51744	16.8256	16.681	2.20126	0.0589658	0.00779775	0.0594792	7.53318	3.92497e+06	2.96803e+07	2.99387e+07	-82.4668	0.0000000E+000	0.0000000E+000	0.0000000E+000	82.4668	0.0000000E+000	0.0000000E+000	0.0000000E+000	-82.4668	0.0000000E+000	0.0000000E+000	0.0000000E+000	-7.53318	0.0000000E+000	0.0000000E+000	0.0000000E+000	7.53318	7.56191	82.4668	-2.46184e-05	-3.78715e-06	-1.77393e-09	-3.78538e-06	0.217123	12459.6	5.83617	12453.8
0.215268	17.0471	2.60384	17.2448	-8.68445	44.5371	0.217221	-0.019055	283940	6473.47	1	12	0.00486403	0.000282057	0	-0.000152364	0.000273542	2.06799e-06	18.0539	0.00733181	0.00697083	-0.00227221	-8.67349	17.2514	17.0541	2.60157	0.0573235	0.00875581	0.0579884	8.68445	6.47347e+06	4.23813e+07	4.28728e+07	-81.3156	0.0000000E+000	0.0000000E+000	0.0000000E+000	81.3156	0.0000000E+000	0.0000000E+000	0.0000000E+000	-81.3156	0.0000000E+000	0.0000000E+000	0.0000000E+000	-8.68445	0.0000000E+000	0.0000000E+000	0.0000000E+000	8.68445	6.54691	81.3156	-1.92108e-05	-4.13914e-06	-5.21235e-09	-4.13393e-06	0.216947	11399.6	14.3554	11385.3
0.146929	17.5393	3.09825	17.8108	-10.0177	58.8755	0.217217	-0.0196987	349621	10579.4	1	12	0.00486485	0.00027314	0	-0.000175987	-7.00431e-05	3.83507e-06	-0.192818	0.0140407	0.0140406	4.72511e-05	-10.01	17.8247	17.5533	3.09829	0.0552896	0.00976668	0.0561456	10.0177	1.05794e+07	5.98903e+07	6.08175e+07	-79.9823	0.0000000E+000	0.0000000E+000	0.0000000E+000	79.9823	0.0000000E+000	0.0000000E+000	0.0000000E+000	-79.9823	0.0000000E+000	0.0000000E+000	0.0000000E+000	-10.0177	0.0000000E+000	0.0000000E+000	0.0000000E+000	10.0177	5.66104	79.9823	-2.36223e-05	-4.27889e-06	1.37976e-09	-4.28027e-06	0.217287	11026.9	3.55572	11030.5
0.0999041	18.1895	3.81636	18.5856	-11.8494	79.9526	0.217222	-0.0200979	417434	17600.9	1	12	0.0048666	0.000261848	0	-0.000236572	0.00019719	2.9682e-06	4.49371	0.0113356	0.0113007	-0.000888139	-11.8396	18.5964	18.2008	3.81547	0.0526586	0.0110484	0.0538052	11.8494	1.76009e+07	8.38893e+07	8.57158e+07	-78.1506	0.0000000E+000	0.0000000E+000	0.0000000E+000	78.1506	0.0000000E+000	0.0000000E+000	0.0000000E+000	-78.1506	0.0000000E+000	0.0000000E+000	0.0000000E+000	-11.8494	0.0000000E+000	0.0000000E+000	0.0000000E+000	11.8494	4.7662	78.1506	-6.05848e-05	-4.3657e-06	-3.9631e-09	-4.36174e-06	0.217024	10808.2	9.81144	10798.3
0.0680626	18.9248	4.87147	19.5417	-14.4353	110.88	0.217219	-0.0217577	480011	29829.6	1	12	0.00486884	0.000249152	0	-0.000396667	0.000464422	2.33113e-06	-11.2344	0.00935627	0.00917699	0.00182282	-14.4337	19.551	18.9339	4.87329	0.0495571	0.0127566	0.0511727	14.4353	2.98296e+07	1.15882e+08	1.1966e+08	-75.5647	0.0000000E+000	0.0000000E+000	0.0000000E+000	75.5647	0.0000000E+000	0.0000000E+000	0.0000000E+000	-75.5647	0.0000000E+000	0.0000000E+000	0.0000000E+000	-14.4353	0.0000000E+000	0.0000000E+000	0.0000000E+000	14.4353	3.88481	75.5647	-0.000160095	-4.7262e-06	-1.01048e-08	-4.7161e-06	0.216755	9983.54	21.3452	9962.19
0.0464052	19.6889	6.25069	20.6573	-17.6132	156.231	0.217221	-0.0243617	548688	50238.3	1	12	0.00486152	0.000235342	0	-0.000766593	0.00019719	3.0735e-06	-0.312458	0.0130597	0.0130596	7.122e-05	-17.6025	20.6697	19.7019	6.25076	0.0461397	0.0146481	0.0484091	17.6132	5.02383e+07	1.58244e+08	1.66028e+08	-72.3868	0.0000000E+000	0.0000000E+000	0.0000000E+000	72.3868	0.0000000E+000	0.0000000E+000	0.0000000E+000	-72.3868	0.0000000E+000	0.0000000E+000	0.0000000E+000	-17.6132	0.0000000E+000	0.0000000E+000	0.0000000E+000	17.6132	3.14987	72.3868	-0.000369926	-5.29187e-06	-4.80388e-09	-5.28707e-06	0.217024	8916.49	8.09425	8908.4
0.0315922	20.7331	7.89881	22.1867	-20.8557	222.837	0.217213	-0.0275954	637792	80837.9	1	12	0.00486661	0.000219348	0	-0.0014568	0.000120837	2.57565e-06	-27.9371	0.0117423	0.0103739	0.00550129	-20.8594	22.1984	20.7434	7.90431	0.0421189	0.0160463	0.045072	20.8557	8.08379e+07	2.12186e+08	2.27063e+08	-69.1443	0.0000000E+000	0.0000000E+000	0.0000000E+000	69.1443	0.0000000E+000	0.0000000E+000	0.0000000E+000	-69.1443	0.0000000E+000	0.0000000E+000	0.0000000E+000	-20.8557	0.0000000E+000	0.0000000E+000	0.0000000E+000	20.8557	2.62484	69.1443	-0.000690204	-5.9941e-06	-3.33456e-09	-5.99076e-06	0.217092	7871.35	4.37889	7866.97
0.0215268	22.3308	10.0173	24.4747	-24.1604	320.576	0.217222	-0.0310146	738057	123639	1	12	0.00486369	0.000198723	0	-0.0025324	0.000426246	2.09452e-06	-3.69467	0.0105399	0.010518	0.000679186	-24.1518	24.4846	22.3413	10.018	0.0372794	0.0167231	0.0408585	24.1604	1.23639e+08	2.7562e+08	3.02081e+08	-65.8396	0.0000000E+000	0.0000000E+000	0.0000000E+000	65.8396	0.0000000E+000	0.0000000E+000	0.0000000E+000	-65.8396	0.0000000E+000	0.0000000E+000	0.0000000E+000	-24.1604	0.0000000E+000	0.0000000E+000	0.0000000E+000	24.1604	2.22922	65.8396	-0.0010756	-6.73706e-06	-1.32199e-08	-6.72384e-06	0.216796	7003.87	13.7434	6990.13
0.0146812	24.5345	12.9511	27.743	-27.8284	463.877	0.217219	-0.0334513	837050	182415	1	12	0.00486579	0.000175388	0	-0.003997	0.000178102	2.79442e-06	-21.7684	0.0159328	0.0147966	0.00590876	-27.825	27.7588	24.5493	12.957	0.0318765	0.0168268	0.0360451	27.8284	1.82415e+08	3.45565e+08	3.90756e+08	-62.1716	0.0000000E+000	0.0000000E+000	0.0000000E+000	62.1716	0.0000000E+000	0.0000000E+000	0.0000000E+000	-62.1716	0.0000000E+000	0.0000000E+000	0.0000000E+000	-27.8284	0.0000000E+000	0.0000000E+000	0.0000000E+000	27.8284	1.89439	62.1716	-0.0014646	-7.26625e-06	-5.95773e-09	-7.26029e-06	0.21704	6493.57	5.3242	6488.25