File: txt/18689_R307_UC91_23p8_SOC50_C01.mpt
EC-Lab ASCII FILE
Nb header lines : 65

Potentio Electrochemical Impedance Spectroscopy

Run on channel : 1 (SN 66354)
User :
CE vs. WE compliance from -10 V to 10 V
Electrode connection : standard
Potential control : Ewe
Ewe ctrl range : min = -10.00 V, max = 10.00 V
Safety Limits :
	Do not start on E overload
Acquisition started on : 10/28/2025 15:55:22.292
Technique started on : 10/28/2025 15:55:24.987
Loaded Setting File :  C:\Users\Celltest\OneDrive - store-dot.com\Documents\EC-Lab\Data\@Biologic Test Protocols\cathode half cell EIS SOC50.mps
Saved on :
	File : 18689_R307_UC91_23p8_SOC50_C01.mpr
	Directory : C:\Users\Celltest\OneDrive - store-dot.com\Documents\EC-Lab\Data\Anna\
	Host : 169.254.61.224
Device : VMP-3e (SN .003165)
Address : USB
EC-LAB for windows v11.62 (software)
Internet server v27.00 (firmware)
Command interpretor v12.03 (firmware)
Electrode material :
Initial state :
Electrolyte :
Comments :
Electrode surface area : 0.001 cm²
Characteristic mass : 0.001 g
Equivalent Weight : 0.000 g/eq.
Density : 0.000 g/cm3
Volume (V) : 0.001 cm³
Record Ece
Cycle Definition : Charge/Discharge alternance
Mode                Multi sine
E (V)               0.0000
vs.                 Eoc
tE (h:m:s)          0:00:0.0000
record              0
dI                  0.000
unit dI             mA
dt (s)              0.000
fi                  1.000
unit fi             MHz
ff                  0.100
unit ff             mHz
Nd                  10
Points              per decade
spacing             Logarithmic
Va (mV)             5.0
pw                  0.10
Na                  2
corr                0
E range min (V)     -10.000
E range max (V)     10.000
I Range             Auto
Bandwidth           5
nc cycles           0
goto Ns'            0
nr cycles           0
inc. cycle          0

freq/Hz	Re(Z)/Ohm	-Im(Z)/Ohm	|Z|/Ohm	Phase(Z)/deg	time/s	<Ewe>/V	<I>/mA	Cs/µF	Cp/µF	cycle number	I Range	|Ewe|/V	|I|/A	Ns	(Q-Qo)/mA.h	<Ece>/V	|Ece|/V	Phase(Zce)/deg	|Zce|/Ohm	Re(Zce)/Ohm	-Im(Zce)/Ohm	Phase(Zwe-ce)/deg	|Zwe-ce|/Ohm	Re(Zwe-ce)/Ohm	-Im(Zwe-ce)/Ohm	Re(Y)/Ohm-1	Im(Y)/Ohm-1	|Y|/Ohm-1	Phase(Y)/deg	Re(C)/nF	Im(C)/nF	|C|/nF	Phase(C)/deg	Re(M)	Im(M)	|M|	Phase(M)/deg	Re(Permittivity)	Im(Permittivity)	|Permittivity|	Phase(Permittivity)/deg	Re(Resistivity)/Ohm.cm	Im(Resistivity)/Ohm.cm	|Resistivity|/Ohm.cm	Phase(Resistivity)/deg	Re(Conductivity)/mS/cm	Im(Conductivity)/mS/cm	|Conductivity|/mS/cm	Phase(Conductivity)/deg	Tan(Delta)	Loss Angle(Delta)/deg	dq/mA.h	Pwe/W	Pce/W	Pwe-ce/W	<Ewe-Ece>/V	Rwe/Ohm	Rce/Ohm	Rwe-ce/Ohm		Ewe-Ece/V
1.00002e+06	1.92176	2.65599	3.27833	-54.1121	2.69455	3.96717	0.00275747	0.0599218	0.0393308	1	10	0.000217287	6.62796e-05	0	4.88739e-06	0.000154958	0.000189273	-69.6729	2.85567	0.992003	2.67783	-61.3531	6.07781	2.91377	5.33383	0.178811	0.247127	0.305033	54.1121	39.3308	28.4581	48.5466	-35.8879	0.0000000E+000	0.0000000E+000	0.0000000E+000	35.8879	0.0000000E+000	0.0000000E+000	0.0000000E+000	-35.8879	0.0000000E+000	0.0000000E+000	0.0000000E+000	-54.1121	0.0000000E+000	0.0000000E+000	0.0000000E+000	54.1121	0.723558	35.8879	4.88739e-06	1.09394e-05	4.27293e-10	1.09389e-05	3.96702	1.4387e+06	56.1957	1.43864e+06
630957	0.687842	0.137346	0.701421	-11.2921	3.86553	3.96694	0.0347909	1.83656	0.0704172	1	9	0.000240757	0.000343242	0	1.68602e-05	0.000345731	0.000119283	-110.184	0.347519	-0.119909	0.326177	-39.2198	0.733076	0.567933	0.463522	1.39808	0.279163	1.42568	11.2921	70.4172	352.657	359.618	-78.7079	0.0000000E+000	0.0000000E+000	0.0000000E+000	78.7079	0.0000000E+000	0.0000000E+000	0.0000000E+000	-78.7079	0.0000000E+000	0.0000000E+000	0.0000000E+000	-11.2921	0.0000000E+000	0.0000000E+000	0.0000000E+000	11.2921	5.00811	78.7079	5.40143e-06	0.000138013	1.20283e-08	0.000138001	3.96659	114022	9.9374	114012
398103	0.896012	0.17036	0.912063	-10.7652	4.63153	3.96699	0.0495064	2.34669	0.0818733	1	9	0.00087134	0.00095535	0	2.63352e-05	2.33964e-06	6.06022e-05	165.368	0.0634346	-0.0613774	-0.0160238	-10.4765	0.848784	0.834634	0.154336	1.07712	0.204794	1.09641	10.7652	81.8733	430.614	438.328	-79.2348	0.0000000E+000	0.0000000E+000	0.0000000E+000	79.2348	0.0000000E+000	0.0000000E+000	0.0000000E+000	-79.2348	0.0000000E+000	0.0000000E+000	0.0000000E+000	-10.7652	0.0000000E+000	0.0000000E+000	0.0000000E+000	10.7652	5.25951	79.2348	5.39608e-06	0.000196391	1.15827e-10	0.000196391	3.96699	80130.8	0.0472594	80130.8
251206	1.0237	0.40326	1.10027	-21.5006	5.39854	3.96693	0.0418321	1.5711	0.211047	1	9	0.00285376	0.0025937	0	3.77209e-05	0.00021219	9.31967e-05	116.008	0.0359319	-0.0157559	-0.0322933	-20.2057	1.07404	1.00795	0.370966	0.845626	0.333111	0.908871	21.5006	211.047	535.758	575.827	-68.4994	0.0000000E+000	0.0000000E+000	0.0000000E+000	68.4994	0.0000000E+000	0.0000000E+000	0.0000000E+000	-68.4994	0.0000000E+000	0.0000000E+000	0.0000000E+000	-21.5006	0.0000000E+000	0.0000000E+000	0.0000000E+000	21.5006	2.53857	68.4994	5.3842e-06	0.000165945	8.87635e-09	0.000165936	3.96672	94829.9	5.07243	94824.8
158486	1.15019	0.625378	1.30921	-28.5337	6.04055	3.96688	0.0468242	1.60578	0.366398	1	9	0.00532404	0.00406661	0	3.08149e-05	0.00021219	4.67801e-05	98.5642	0.0115035	-0.00171308	-0.0113752	-28.1301	1.3023	1.14847	0.614003	0.671043	0.364858	0.76382	28.5337	366.398	673.875	767.043	-61.4663	0.0000000E+000	0.0000000E+000	0.0000000E+000	61.4663	0.0000000E+000	0.0000000E+000	0.0000000E+000	-61.4663	0.0000000E+000	0.0000000E+000	0.0000000E+000	-28.5337	0.0000000E+000	0.0000000E+000	0.0000000E+000	28.5337	1.83919	61.4663	-7.15897e-06	0.000185746	9.93562e-09	0.000185736	3.96667	84718.7	4.53163	84714.2
100004	1.31466	0.879771	1.58187	-33.7905	6.80656	3.96688	0.0599749	1.80898	0.55954	1	9	0.00543239	0.00343415	0	4.26901e-05	5.95716e-05	3.52468e-05	99.4097	0.0102636	-0.00167803	-0.0101255	-33.5183	1.57486	1.31298	0.869645	0.525375	0.351582	0.632162	33.7905	559.54	836.13	1006.08	-56.2095	0.0000000E+000	0.0000000E+000	0.0000000E+000	56.2095	0.0000000E+000	0.0000000E+000	0.0000000E+000	-56.2095	0.0000000E+000	0.0000000E+000	0.0000000E+000	-33.7905	0.0000000E+000	0.0000000E+000	0.0000000E+000	33.7905	1.49432	56.2095	9.27628e-06	0.000237913	3.5728e-09	0.00023791	3.96682	66142.3	0.993274	66141.3
63093.8	1.56067	1.18143	1.95741	-37.1258	7.69656	3.96686	0.0682081	2.13514	0.777817	1	9	0.00503222	0.00257086	0	7.25091e-05	7.86489e-05	2.22802e-05	77.6098	0.00866647	0.00185955	-0.00846462	-36.895	1.9538	1.56252	1.17296	0.407331	0.30835	0.51088	37.1258	777.817	1027.5	1288.7	-52.8742	0.0000000E+000	0.0000000E+000	0.0000000E+000	52.8742	0.0000000E+000	0.0000000E+000	0.0000000E+000	-52.8742	0.0000000E+000	0.0000000E+000	0.0000000E+000	-37.1258	0.0000000E+000	0.0000000E+000	0.0000000E+000	37.1258	1.321	52.8742	1.11869e-05	0.000270572	5.36449e-09	0.000270567	3.96678	58158.1	1.15307	58157
39814.1	1.9345	1.50403	2.45039	-37.8641	8.71054	3.96685	0.0624337	2.65784	1.00131	1	9	0.00496087	0.00202453	0	9.24686e-05	-0.000131202	1.99298e-05	46.6842	0.00984419	0.0067533	-0.00716247	-37.6351	2.45134	1.94126	1.49686	0.322181	0.250488	0.408099	37.8641	1001.31	1287.9	1631.36	-52.1359	0.0000000E+000	0.0000000E+000	0.0000000E+000	52.1359	0.0000000E+000	0.0000000E+000	0.0000000E+000	-52.1359	0.0000000E+000	0.0000000E+000	0.0000000E+000	-37.8641	0.0000000E+000	0.0000000E+000	0.0000000E+000	37.8641	1.28622	52.1359	8.75643e-06	0.000247665	-8.1914e-09	0.000247673	3.96698	63536.9	2.10145	63539
25116.9	2.35902	1.90228	3.03046	-38.8823	9.47656	3.96686	0.0525613	3.33103	1.31254	1	9	0.00484396	0.00159843	0	0.000101075	4.04943e-05	2.7964e-05	-100.157	0.0174947	-0.00308522	0.0172205	-39.1715	3.0389	2.35594	1.9195	0.256871	0.207138	0.329983	38.8823	1312.54	1627.68	2090.96	-51.1177	0.0000000E+000	0.0000000E+000	0.0000000E+000	51.1177	0.0000000E+000	0.0000000E+000	0.0000000E+000	-51.1177	0.0000000E+000	0.0000000E+000	0.0000000E+000	-38.8823	0.0000000E+000	0.0000000E+000	0.0000000E+000	38.8823	1.2401	51.1177	5.84334e-06	0.000208503	2.12843e-09	0.000208501	3.96682	75471.2	0.77042	75470.5
15847.7	3.08697	2.22163	3.80329	-35.7418	10.2446	3.96684	0.0584847	4.52047	1.54243	1	9	0.00494504	0.0013002	0	0.000115079	0.000269422	1.32067e-05	-104.106	0.0101574	-0.00247547	0.00985114	-35.8839	3.80704	3.08449	2.23148	0.21341	0.153586	0.26293	35.7418	1542.43	2143.23	2640.55	-54.2582	0.0000000E+000	0.0000000E+000	0.0000000E+000	54.2582	0.0000000E+000	0.0000000E+000	0.0000000E+000	-54.2582	0.0000000E+000	0.0000000E+000	0.0000000E+000	-35.7418	0.0000000E+000	0.0000000E+000	0.0000000E+000	35.7418	1.38951	54.2582	7.00435e-06	0.000232	1.57571e-08	0.000231984	3.96657	67827	4.60671	67822.4
10002.2	3.75758	2.52347	4.52629	-33.884	11.0415	3.96679	-0.00571383	6.30559	1.95991	1	10	0.00524974	0.00115983	0	0.000121931	0.000193113	2.19617e-05	-4.11318	0.0189353	0.0188865	0.00135817	-33.7654	4.54274	3.77647	2.52483	0.18341	0.123172	0.220931	33.884	1959.91	2918.41	3515.45	-56.116	0.0000000E+000	0.0000000E+000	0.0000000E+000	56.116	0.0000000E+000	0.0000000E+000	0.0000000E+000	-56.116	0.0000000E+000	0.0000000E+000	0.0000000E+000	-33.884	0.0000000E+000	0.0000000E+000	0.0000000E+000	33.884	1.48905	56.116	3.03958e-06	-2.26656e-05	-1.10341e-09	-2.26645e-05	3.9666	694244	33.7974	694210
6309.38	4.48245	2.84427	5.30869	-32.3965	11.5615	3.96678	-0.00800963	8.86875	2.54583	1	10	0.00503965	0.000949321	0	0.000120034	-0.000169356	6.01893e-06	-68.7366	0.00634024	0.00229933	0.00590862	-32.4371	5.3138	4.48475	2.85018	0.159052	0.100924	0.18837	32.3965	2545.83	4012.12	4751.66	-57.6035	0.0000000E+000	0.0000000E+000	0.0000000E+000	57.6035	0.0000000E+000	0.0000000E+000	0.0000000E+000	-57.6035	0.0000000E+000	0.0000000E+000	0.0000000E+000	-32.3965	0.0000000E+000	0.0000000E+000	0.0000000E+000	32.3965	1.57596	57.6035	-7.76613e-07	-3.17724e-05	1.35648e-09	-3.17738e-05	3.96695	495251	21.1441	495272
3983.6	5.27112	3.24239	6.18852	-31.5967	12.1241	3.96667	-0.0273413	12.3219	3.38249	1	10	0.00483978	0.000782058	0	0.000117503	0.000154958	7.48014e-06	22.1246	0.00956469	0.00886041	-0.00360227	-31.5253	6.19418	5.27998	3.23879	0.137635	0.0846626	0.16159	31.5967	3382.49	5498.87	6455.91	-58.4033	0.0000000E+000	0.0000000E+000	0.0000000E+000	58.4033	0.0000000E+000	0.0000000E+000	0.0000000E+000	-58.4033	0.0000000E+000	0.0000000E+000	0.0000000E+000	-31.5967	0.0000000E+000	0.0000000E+000	0.0000000E+000	31.5967	1.62569	58.4034	-2.63687e-06	-0.000108454	-4.23675e-09	-0.00010845	3.96652	145080	5.66755	145074
2510.8	6.21528	3.77089	7.26975	-31.2457	12.9488	3.96664	0.000942469	16.8099	4.52285	1	10	0.00472229	0.00064958	0	0.000115674	0.000135881	8.05724e-06	-151.377	0.0124038	-0.010888	0.00594186	-31.3303	7.26353	6.20439	3.77683	0.117604	0.0713517	0.137556	31.2457	4522.85	7454.68	8719.43	-58.7543	0.0000000E+000	0.0000000E+000	0.0000000E+000	58.7543	0.0000000E+000	0.0000000E+000	0.0000000E+000	-58.7543	0.0000000E+000	0.0000000E+000	0.0000000E+000	-31.2457	0.0000000E+000	0.0000000E+000	0.0000000E+000	31.2457	1.64823	58.7543	1.59398e-08	3.73843e-06	1.28063e-10	3.7383e-06	3.9665	4.20877e+06	144.175	4.20863e+06
1585.51	7.37665	4.3918	8.58504	-30.7681	13.8508	3.96665	0.00229535	22.8565	5.9815	1	10	0.00465943	0.000542738	0	0.000116347	-1.67377e-05	2.17173e-05	-7.0127	0.0400144	0.039715	0.00488533	-30.661	8.62167	7.41636	4.39668	0.100086	0.0595879	0.116482	30.7681	5981.5	10046.8	11692.6	-59.2319	0.0000000E+000	0.0000000E+000	0.0000000E+000	59.2319	0.0000000E+000	0.0000000E+000	0.0000000E+000	-59.2319	0.0000000E+000	0.0000000E+000	0.0000000E+000	-30.7681	0.0000000E+000	0.0000000E+000	0.0000000E+000	30.7681	1.67964	59.2319	7.35004e-08	9.10482e-06	-3.84187e-11	9.10486e-06	3.96666	1.72813e+06	7.292	1.72813e+06
1000.32	8.84065	5.10616	10.2093	-30.0098	14.7518	3.96665	0.00201209	31.1592	7.79441	1	10	0.00461429	0.000451969	0	0.000116881	0.000250345	8.76831e-06	6.57918	0.0194003	0.0192725	-0.0022228	-29.945	10.2249	8.85992	5.10394	0.0848187	0.0489894	0.0979498	30.0098	7794.41	13495	15584.2	-59.9902	0.0000000E+000	0.0000000E+000	0.0000000E+000	59.9902	0.0000000E+000	0.0000000E+000	0.0000000E+000	-59.9902	0.0000000E+000	0.0000000E+000	0.0000000E+000	-30.0098	0.0000000E+000	0.0000000E+000	0.0000000E+000	30.0098	1.73137	59.9902	7.13552e-07	7.98128e-06	5.03717e-10	7.98077e-06	3.9664	1.9714e+06	124.42	1.97128e+06
631.01	10.7125	5.56563	12.072	-27.454	15.6526	3.96665	0.00118844	45.3179	9.6325	1	10	0.00458898	0.000380133	0	0.000117446	0.00021219	5.24227e-06	-63.4964	0.0137906	0.00615411	0.0123413	-27.4924	12.0832	10.7186	5.57797	0.0735073	0.0381904	0.0828362	27.454	9632.5	18540.2	20893.2	-62.546	0.0000000E+000	0.0000000E+000	0.0000000E+000	62.546	0.0000000E+000	0.0000000E+000	0.0000000E+000	-62.546	0.0000000E+000	0.0000000E+000	0.0000000E+000	-27.454	0.0000000E+000	0.0000000E+000	0.0000000E+000	27.454	1.92476	62.546	5.12753e-08	4.71412e-06	2.52175e-10	4.71387e-06	3.96644	3.3377e+06	178.545	3.33752e+06
398.089	12.7925	5.75744	14.0284	-24.2307	16.5538	3.96665	0.00186674	69.4401	11.6964	1	10	0.0045829	0.000326686	0	0.000117967	0.000269422	2.34608e-05	-15.1661	0.0718144	0.0693132	0.018788	-24.1848	14.0994	12.8618	5.77623	0.0650037	0.0292557	0.0712838	24.2307	11696.4	25988.3	28499.1	-65.7693	0.0000000E+000	0.0000000E+000	0.0000000E+000	65.7693	0.0000000E+000	0.0000000E+000	0.0000000E+000	-65.7693	0.0000000E+000	0.0000000E+000	0.0000000E+000	-24.2307	0.0000000E+000	0.0000000E+000	0.0000000E+000	24.2307	2.22191	65.7693	3.36233e-08	7.40471e-06	5.02941e-10	7.4042e-06	3.96638	2.12491e+06	144.328	2.12476e+06
251.044	14.8856	5.3803	15.8281	-19.8721	17.452	3.96664	0.00118844	117.832	13.615	1	10	0.00457474	0.000289026	0	0.000118342	0.000154958	3.67685e-06	64.2445	0.0127215	0.00552789	-0.0114577	-19.8263	15.8294	14.8911	5.36885	0.0594167	0.0214758	0.0631788	19.8721	13615.1	37668.5	40053.6	-70.1279	0.0000000E+000	0.0000000E+000	0.0000000E+000	70.1279	0.0000000E+000	0.0000000E+000	0.0000000E+000	-70.1279	0.0000000E+000	0.0000000E+000	0.0000000E+000	-19.8721	0.0000000E+000	0.0000000E+000	0.0000000E+000	19.8721	2.76668	70.1279	1.14026e-08	4.7141e-06	1.84158e-10	4.71391e-06	3.96648	3.33769e+06	130.388	3.33756e+06
158.428	16.6089	4.65318	17.2485	-15.6508	18.3569	3.96665	0.00312272	215.892	15.7122	1	10	0.00457359	0.000265159	0	0.000118783	0.000345731	1.01704e-05	-8.76106	0.0383557	0.0379082	0.00584212	-15.6355	17.2865	16.6469	4.65902	0.0558267	0.0156405	0.0579762	15.6508	15712.2	56082.7	58242.1	-74.3492	0.0000000E+000	0.0000000E+000	0.0000000E+000	74.3492	0.0000000E+000	0.0000000E+000	0.0000000E+000	-74.3492	0.0000000E+000	0.0000000E+000	0.0000000E+000	-15.6508	0.0000000E+000	0.0000000E+000	0.0000000E+000	15.6508	3.56938	74.3492	2.53881e-07	1.23867e-05	1.07962e-09	1.23856e-05	3.9663	1.27025e+06	110.715	1.27014e+06
100.032	17.9292	3.73119	18.3134	-11.7558	19.2558	3.96664	0.00051386	426.417	17.7008	1	10	0.0045659	0.000249321	0	0.000119119	2.1417e-05	6.57197e-06	57.3408	0.0263595	0.0142247	-0.0221919	-11.6788	18.3228	17.9435	3.70899	0.0534596	0.0111253	0.0546049	11.7558	17700.8	85056.4	86878.6	-78.2442	0.0000000E+000	0.0000000E+000	0.0000000E+000	78.2442	0.0000000E+000	0.0000000E+000	0.0000000E+000	-78.2442	0.0000000E+000	0.0000000E+000	0.0000000E+000	-11.7558	0.0000000E+000	0.0000000E+000	0.0000000E+000	11.7558	4.80524	78.2442	5.08861e-07	2.0383e-06	1.10053e-11	2.03828e-06	3.96662	7.7193e+06	41.6786	7.71926e+06
63.0823	18.8737	2.86375	19.0897	-8.62781	20.172	3.96665	0.00541851	881.004	19.8266	1	10	0.0045683	0.000239307	0	0.000119916	0.000154958	4.07541e-06	97.379	0.0170301	-0.0021872	-0.016889	-8.57866	19.085	18.8715	2.84686	0.0517914	0.00785843	0.0523842	8.62781	19826.6	130668	132164	-81.3722	0.0000000E+000	0.0000000E+000	0.0000000E+000	81.3722	0.0000000E+000	0.0000000E+000	0.0000000E+000	-81.3722	0.0000000E+000	0.0000000E+000	0.0000000E+000	-8.62781	0.0000000E+000	0.0000000E+000	0.0000000E+000	8.62781	6.59056	81.3722	7.16592e-07	2.14934e-05	8.39642e-10	2.14925e-05	3.9665	732056	28.5979	732027
39.8089	19.4585	2.21472	19.5841	-6.49333	21.3178	3.96671	-0.000431641	1805.18	23.0861	1	11	0.00455126	0.000232396	0	0.000120511	0.000479272	9.76611e-06	98.8633	0.0420236	-0.00647489	-0.0415218	-6.37471	19.573	19.452	2.1732	0.0507343	0.00577445	0.0510618	6.49333	23086.1	202834	204144	-83.5067	0.0000000E+000	0.0000000E+000	0.0000000E+000	83.5067	0.0000000E+000	0.0000000E+000	0.0000000E+000	-83.5067	0.0000000E+000	0.0000000E+000	0.0000000E+000	-6.49333	0.0000000E+000	0.0000000E+000	0.0000000E+000	6.49333	8.78598	83.5067	7.81334e-08	-1.7122e-06	-2.06874e-10	-1.71199e-06	3.96623	9.18983e+06	1110.35	9.18872e+06
25.1044	19.9071	1.70966	19.9804	-4.90863	22.1971	3.96672	-0.000156444	3708.17	27.1501	1	11	0.00456041	0.000228244	0	0.000120331	0.000174035	1.09172e-05	57.8063	0.0478311	0.0254836	-0.0404771	-4.78686	20.0024	19.9326	1.66918	0.0498655	0.00428254	0.0500491	4.90863	27150.1	316133	317297	-85.0914	0.0000000E+000	0.0000000E+000	0.0000000E+000	85.0914	0.0000000E+000	0.0000000E+000	0.0000000E+000	-85.0914	0.0000000E+000	0.0000000E+000	0.0000000E+000	-4.90863	0.0000000E+000	0.0000000E+000	0.0000000E+000	4.90863	11.6439	85.0914	9.35604e-08	-6.20571e-07	-2.72269e-11	-6.20543e-07	3.96654	2.53555e+07	1112.44	2.53543e+07
15.8576	20.2142	1.38992	20.2619	-3.93346	23.075	3.96671	-0.0011187	7220.91	33.9792	1	11	0.00456963	0.000225528	0	0.000120544	-1.67377e-05	8.6543e-06	1.08568	0.0383735	0.0383666	-0.000727081	-3.92398	20.3002	20.2526	1.3892	0.0492374	0.00338555	0.0493536	3.93346	33979.2	494172	495339	-86.0665	0.0000000E+000	0.0000000E+000	0.0000000E+000	86.0665	0.0000000E+000	0.0000000E+000	0.0000000E+000	-86.0665	0.0000000E+000	0.0000000E+000	0.0000000E+000	-3.93346	0.0000000E+000	0.0000000E+000	0.0000000E+000	3.93346	14.5434	86.0665	4.00332e-08	-4.43757e-06	1.87245e-11	-4.43759e-06	3.96673	3.54581e+06	14.9617	3.54583e+06
10.0032	20.4258	1.14614	20.4579	-3.21162	24.0559	3.96671	-0.000900855	13881.8	43.5706	1	11	0.00455887	0.000222841	0	0.000120327	0.000326654	8.33639e-06	-21.7606	0.0374096	0.0347438	0.0138688	-3.24489	20.4934	20.4606	1.16	0.048804	0.0027385	0.0488808	3.21162	43570.5	776491	777712	-86.7884	0.0000000E+000	0.0000000E+000	0.0000000E+000	86.7884	0.0000000E+000	0.0000000E+000	0.0000000E+000	-86.7884	0.0000000E+000	0.0000000E+000	0.0000000E+000	-3.21162	0.0000000E+000	0.0000000E+000	0.0000000E+000	3.21162	17.8215	86.7884	1.01839e-06	-3.57342e-06	-2.94268e-10	-3.57313e-06	3.96638	4.40327e+06	362.604	4.40291e+06
6.31058	20.642	0.98155	20.6653	-2.72243	24.9793	3.96673	-0.00035046	25694.4	57.967	1	11	0.00456125	0.00022072	0	0.000121294	-3.5815e-05	4.55785e-06	56.5761	0.0206499	0.0113746	-0.0172348	-2.67323	20.6758	20.6533	0.964315	0.0483357	0.00229842	0.0483904	2.72243	57967	1.21904e+06	1.22042e+06	-87.2776	0.0000000E+000	0.0000000E+000	0.0000000E+000	87.2776	0.0000000E+000	0.0000000E+000	0.0000000E+000	-87.2776	0.0000000E+000	0.0000000E+000	0.0000000E+000	-2.72243	0.0000000E+000	0.0000000E+000	0.0000000E+000	2.72243	21.03	87.2776	2.13266e-06	-1.39018e-06	1.25517e-11	-1.39019e-06	3.96676	1.13186e+07	102.194	1.13187e+07
3.97785	20.8919	0.980925	20.9149	-2.68821	25.9863	3.96673	0.00142138	40788.3	89.7216	1	11	0.00456536	0.000218283	0	0.000118022	0.000231267	1.98049e-06	-43.5609	0.00907302	0.00657469	0.00625245	-2.70446	20.9217	20.8984	0.987177	0.0477603	0.00224246	0.0478129	2.68821	89721.5	1.9109e+06	1.91301e+06	-87.3118	0.0000000E+000	0.0000000E+000	0.0000000E+000	87.3118	0.0000000E+000	0.0000000E+000	0.0000000E+000	-87.3118	0.0000000E+000	0.0000000E+000	0.0000000E+000	-2.68821	0.0000000E+000	0.0000000E+000	0.0000000E+000	2.68821	21.2981	87.3118	-2.22809e-06	5.63822e-06	3.28718e-10	5.63789e-06	3.9665	2.79076e+06	162.706	2.7906e+06
2.51367	21.0676	0.956561	21.0893	-2.59969	27.546	3.96673	0.00152342	66190.9	136.175	1	11	0.00455753	0.000216106	0	0.00012262	2.1417e-05	5.24399e-06	-74.5803	0.0242658	0.006452	0.0233924	-2.66236	21.0969	21.0741	0.979953	0.0473685	0.00215073	0.0474173	2.59969	136175	2.99917e+06	3.00226e+06	-87.4003	0.0000000E+000	0.0000000E+000	0.0000000E+000	87.4003	0.0000000E+000	0.0000000E+000	0.0000000E+000	-87.4003	0.0000000E+000	0.0000000E+000	0.0000000E+000	-2.59969	0.0000000E+000	0.0000000E+000	0.0000000E+000	2.59969	22.0244	87.4003	3.82969e-06	6.04299e-06	3.2627e-11	6.04296e-06	3.96671	2.60383e+06	14.0585	2.60382e+06
1.58469	21.3596	1.04421	21.3851	-2.79879	29.9814	3.96672	0.00198422	96181.2	229.32	1	11	0.00456404	0.000213422	0	0.000124912	-9.30469e-05	6.31996e-06	81.5678	0.0296126	0.00434238	-0.0292925	-2.71985	21.388	21.3639	1.01491	0.0467058	0.00228331	0.0467616	2.79879	229320	4.69081e+06	4.69641e+06	-87.2012	0.0000000E+000	0.0000000E+000	0.0000000E+000	87.2012	0.0000000E+000	0.0000000E+000	0.0000000E+000	-87.2012	0.0000000E+000	0.0000000E+000	0.0000000E+000	-2.79879	0.0000000E+000	0.0000000E+000	0.0000000E+000	2.79879	20.4553	87.2012	-7.56354e-07	7.87083e-06	-1.84625e-10	7.87102e-06	3.96682	1.99914e+06	46.8935	1.99919e+06
1.00469	21.9415	1.0951	21.9688	-2.85726	240.799	3.9667	-0.000534676	144655	359.44	1	11	0.0050062	0.000227878	0	-0.000749688	0.00021219	3.9956e-07	-1.34091	0.00175339	0.00175291	4.10315e-05	-2.85713	21.9705	21.9432	1.09514	0.0454626	0.00226903	0.0455191	2.85726	359440	7.20179e+06	7.21075e+06	-87.1427	0.0000000E+000	0.0000000E+000	0.0000000E+000	87.1427	0.0000000E+000	0.0000000E+000	0.0000000E+000	-87.1427	0.0000000E+000	0.0000000E+000	0.0000000E+000	-2.85726	0.0000000E+000	0.0000000E+000	0.0000000E+000	2.85726	20.0361	87.1427	-0.000870246	-2.1209e-06	-1.13453e-10	-2.12079e-06	3.96649	7.41888e+06	396.857	7.41848e+06
0.632957	22.2294	1.26339	22.2653	-3.25286	240.799	3.9667	-0.000534676	199025	640.807	1	11	0.00501855	0.000225398	0	-0.000749688	0.00021219	2.6919e-07	1.3751	0.00119429	0.00119394	-2.86602e-05	-3.25261	22.2665	22.2306	1.26336	0.0448406	0.00254848	0.044913	3.25286	640807	1.1275e+07	1.12932e+07	-86.7471	0.0000000E+000	0.0000000E+000	0.0000000E+000	86.7471	0.0000000E+000	0.0000000E+000	0.0000000E+000	-86.7471	0.0000000E+000	0.0000000E+000	0.0000000E+000	-3.25286	0.0000000E+000	0.0000000E+000	0.0000000E+000	3.25286	17.595	86.7471	0.000000000000000E+000	-2.1209e-06	-1.13453e-10	-2.12079e-06	3.96649	7.41888e+06	396.857	7.41848e+06
0.401878	22.4802	1.48171	22.529	-3.771	240.799	3.9667	-0.000534676	267279	1156.12	1	11	0.00503301	0.000223401	0	-0.000749688	0.00021219	1.65959e-07	13.1082	0.000742873	0.000723517	-0.000168477	-3.77045	22.5297	22.4809	1.48154	0.0442911	0.0029193	0.0443872	3.771	1.15612e+06	1.75406e+07	1.75786e+07	-86.229	0.0000000E+000	0.0000000E+000	0.0000000E+000	86.229	0.0000000E+000	0.0000000E+000	0.0000000E+000	-86.229	0.0000000E+000	0.0000000E+000	0.0000000E+000	-3.771	0.0000000E+000	0.0000000E+000	0.0000000E+000	3.771	15.1718	86.229	0.000000000000000E+000	-2.1209e-06	-1.13453e-10	-2.12079e-06	3.96649	7.41888e+06	396.857	7.41848e+06
0.251173	22.9493	1.81352	23.0209	-4.51828	240.799	3.9667	-0.000534676	349402	2168.33	1	11	0.00503291	0.000218624	0	-0.000749688	0.00021219	7.68242e-08	52.0442	0.000351399	0.000216129	-0.000277073	-4.51755	23.021	22.9495	1.81324	0.0433039	0.00342199	0.0434389	4.51828	2.16833e+06	2.74393e+07	2.75248e+07	-85.4817	0.0000000E+000	0.0000000E+000	0.0000000E+000	85.4817	0.0000000E+000	0.0000000E+000	0.0000000E+000	-85.4817	0.0000000E+000	0.0000000E+000	0.0000000E+000	-4.51828	0.0000000E+000	0.0000000E+000	0.0000000E+000	4.51828	12.6546	85.4817	0.000000000000000E+000	-2.1209e-06	-1.13453e-10	-2.12079e-06	3.96649	7.41888e+06	396.857	7.41848e+06
0.160751	23.3513	1.99352	23.4362	-4.87956	240.799	3.9667	-0.000534676	496645	3593.46	1	11	0.00502874	0.000214571	0	-0.000749688	0.00021219	4.82037e-07	-15.7104	0.00224651	0.00216259	0.0006083	-4.88059	23.4384	23.3534	1.99413	0.0425144	0.00362949	0.042669	4.87956	3.59346e+06	4.20923e+07	4.22454e+07	-85.1204	0.0000000E+000	0.0000000E+000	0.0000000E+000	85.1204	0.0000000E+000	0.0000000E+000	0.0000000E+000	-85.1204	0.0000000E+000	0.0000000E+000	0.0000000E+000	-4.87956	0.0000000E+000	0.0000000E+000	0.0000000E+000	4.87956	11.7136	85.1204	0.000000000000000E+000	-2.1209e-06	-1.13453e-10	-2.12079e-06	3.96649	7.41888e+06	396.857	7.41848e+06
0.100469	23.8487	2.67138	23.9979	-6.39126	240.8	3.9667	-0.000534676	592994	7348.13	1	11	0.00503134	0.000209658	0	-0.000749688	0.00021219	2.65475e-07	-36.6909	0.00126623	0.00101535	0.000756569	-6.39279	23.999	23.8497	2.67214	0.0414114	0.00463864	0.0416704	6.39126	7.34813e+06	6.56003e+07	6.60106e+07	-83.6087	0.0000000E+000	0.0000000E+000	0.0000000E+000	83.6087	0.0000000E+000	0.0000000E+000	0.0000000E+000	-83.6087	0.0000000E+000	0.0000000E+000	0.0000000E+000	-6.39126	0.0000000E+000	0.0000000E+000	0.0000000E+000	6.39126	8.92749	83.6087	0.000000000000000E+000	-2.1209e-06	-1.13453e-10	-2.12079e-06	3.96649	7.41888e+06	396.857	7.41848e+06
0.0602816	24.6256	3.18409	24.8306	-7.36746	240.8	3.9667	-0.000534676	829183	13634.7	1	11	0.00502645	0.00020243	0	-0.000749688	0.00021219	3.80225e-07	-44.4135	0.00187831	0.00134169	0.0013145	-7.37007	24.8321	24.6269	3.1854	0.0399404	0.00516428	0.0402729	7.36746	1.36347e+07	1.0545e+08	1.06328e+08	-82.6325	0.0000000E+000	0.0000000E+000	0.0000000E+000	82.6325	0.0000000E+000	0.0000000E+000	0.0000000E+000	-82.6325	0.0000000E+000	0.0000000E+000	0.0000000E+000	-7.36746	0.0000000E+000	0.0000000E+000	0.0000000E+000	7.36746	7.73396	82.6325	0.000000000000000E+000	-2.1209e-06	-1.13453e-10	-2.12079e-06	3.96649	7.41888e+06	396.857	7.41848e+06
0.0401878	25.6058	3.63464	25.8625	-8.07893	240.8	3.9667	-0.000534676	1.08959e+06	21520.2	1	11	0.0050269	0.00019437	0	-0.000749688	0.00021219	6.54258e-07	67.9027	0.00336604	0.00126624	-0.00311879	-8.07169	25.8633	25.6071	3.63152	0.0382822	0.00543401	0.038666	8.07893	2.15202e+07	1.51609e+08	1.53128e+08	-81.9211	0.0000000E+000	0.0000000E+000	0.0000000E+000	81.9211	0.0000000E+000	0.0000000E+000	0.0000000E+000	-81.9211	0.0000000E+000	0.0000000E+000	0.0000000E+000	-8.07893	0.0000000E+000	0.0000000E+000	0.0000000E+000	8.07893	7.04494	81.9211	0.000000000000000E+000	-2.1209e-06	-1.13453e-10	-2.12079e-06	3.96649	7.41888e+06	396.857	7.41848e+06
0.0200939	27.4269	5.29711	27.9337	-10.9313	240.8	3.9667	-0.000534676	1.49526e+06	53769.7	1	11	0.00502563	0.000179913	0	-0.000749688	0.00021219	9.8689e-07	34.7738	0.00548538	0.00450574	-0.00312853	-10.9232	27.9376	27.4314	5.29398	0.0351495	0.00678862	0.035799	10.9313	5.37697e+07	2.78404e+08	2.83549e+08	-79.0687	0.0000000E+000	0.0000000E+000	0.0000000E+000	79.0687	0.0000000E+000	0.0000000E+000	0.0000000E+000	-79.0687	0.0000000E+000	0.0000000E+000	0.0000000E+000	-10.9313	0.0000000E+000	0.0000000E+000	0.0000000E+000	10.9313	5.1777	79.0687	0.000000000000000E+000	-2.1209e-06	-1.13453e-10	-2.12079e-06	3.96649	7.41888e+06	396.857	7.41848e+06
0.00796479	33.8538	6.97943	34.5657	-11.6491	20329.7	3.96671	0.000679038	2.86303e+06	116728	1	11	0.00502026	0.000145238	0	-0.00367009	0.00021219	3.5388e-07	-8.42409	0.00243655	0.00241026	0.000356952	-11.6489	34.5682	33.8562	6.97979	0.0283345	0.00584155	0.0289304	11.6491	1.16728e+08	5.66189e+08	5.78096e+08	-78.3509	0.0000000E+000	0.0000000E+000	0.0000000E+000	78.3509	0.0000000E+000	0.0000000E+000	0.0000000E+000	-78.3509	0.0000000E+000	0.0000000E+000	0.0000000E+000	-11.6491	0.0000000E+000	0.0000000E+000	0.0000000E+000	11.6491	4.8505	78.3509	-0.0029204	2.69355e-06	1.44085e-10	2.6934e-06	3.96649	5.84165e+06	312.486	5.84134e+06
0.00497799	36.4179	7.52297	37.1868	-11.6716	20329.7	3.96671	0.000679038	4.24988e+06	173931	1	11	0.00502807	0.000135211	0	-0.00367009	0.00021219	4.59112e-07	-14.1597	0.00339552	0.00329236	0.000830633	-11.6718	37.1902	36.4212	7.5238	0.0263352	0.00544015	0.0268912	11.6716	1.73931e+08	8.41982e+08	8.59759e+08	-78.3284	0.0000000E+000	0.0000000E+000	0.0000000E+000	78.3284	0.0000000E+000	0.0000000E+000	0.0000000E+000	-78.3284	0.0000000E+000	0.0000000E+000	0.0000000E+000	-11.6716	0.0000000E+000	0.0000000E+000	0.0000000E+000	11.6716	4.8409	78.3284	0.000000000000000E+000	2.69355e-06	1.44085e-10	2.6934e-06	3.96649	5.84165e+06	312.486	5.84134e+06
0.00318591	38.301	9.18989	39.3881	-13.4924	20329.7	3.96671	0.000679038	5.43595e+06	295914	1	11	0.00503088	0.000127726	0	-0.00367009	0.00021219	3.29933e-07	-49.6865	0.00258313	0.00167121	0.00196968	-13.4946	39.3902	38.3027	9.19186	0.0246877	0.00592352	0.0253884	13.4924	2.95914e+08	1.23329e+09	1.2683e+09	-76.5076	0.0000000E+000	0.0000000E+000	0.0000000E+000	76.5076	0.0000000E+000	0.0000000E+000	0.0000000E+000	-76.5076	0.0000000E+000	0.0000000E+000	0.0000000E+000	-13.4924	0.0000000E+000	0.0000000E+000	0.0000000E+000	13.4924	4.16773	76.5076	0.000000000000000E+000	2.69355e-06	1.44085e-10	2.6934e-06	3.96649	5.84165e+06	312.486	5.84134e+06
0.0019912	40.2498	10.1499	41.5099	-14.1533	20329.7	3.96671	0.000679038	7.87489e+06	470831	1	11	0.00503299	0.000121248	0	-0.00367009	0.00021219	4.90172e-07	-16.8194	0.00404272	0.00386978	0.00116978	-14.1536	41.5139	40.2537	10.1511	0.0233594	0.00589059	0.0240907	14.1533	4.70831e+08	1.8671e+09	1.92555e+09	-75.8467	0.0000000E+000	0.0000000E+000	0.0000000E+000	75.8467	0.0000000E+000	0.0000000E+000	0.0000000E+000	-75.8467	0.0000000E+000	0.0000000E+000	0.0000000E+000	-14.1533	0.0000000E+000	0.0000000E+000	0.0000000E+000	14.1533	3.96554	75.8467	0.000000000000000E+000	2.69355e-06	1.44085e-10	2.6934e-06	3.96649	5.84165e+06	312.486	5.84134e+06
0.00129428	41.0251	11.3028	42.5536	-15.4033	20329.7	3.96671	0.000679038	1.08795e+07	767545	1	11	0.00503388	0.000118295	0	-0.00367009	0.00021219	1.01864e-06	-16.284	0.00861102	0.00826558	0.00241452	-15.4035	42.5623	41.0334	11.3052	0.0226556	0.00624182	0.0234997	15.4033	7.67545e+08	2.78592e+09	2.88972e+09	-74.5967	0.0000000E+000	0.0000000E+000	0.0000000E+000	74.5967	0.0000000E+000	0.0000000E+000	0.0000000E+000	-74.5967	0.0000000E+000	0.0000000E+000	0.0000000E+000	-15.4033	0.0000000E+000	0.0000000E+000	0.0000000E+000	15.4033	3.62965	74.5967	0.000000000000000E+000	2.69355e-06	1.44085e-10	2.6934e-06	3.96649	5.84165e+06	312.486	5.84134e+06
0.000796479	43.21	13.9516	45.4065	-17.8942	20329.7	3.96671	0.000679038	1.43226e+07	1.35218e+06	1	11	0.00503177	0.000110816	0	-0.00367009	0.00021219	6.1248e-07	-30.5898	0.00552699	0.00475781	0.00281262	-17.8957	45.4119	43.2147	13.9544	0.0209579	0.00676689	0.0220233	17.8942	1.35218e+09	4.18788e+09	4.40076e+09	-72.1058	0.0000000E+000	0.0000000E+000	0.0000000E+000	72.1058	0.0000000E+000	0.0000000E+000	0.0000000E+000	-72.1058	0.0000000E+000	0.0000000E+000	0.0000000E+000	-17.8942	0.0000000E+000	0.0000000E+000	0.0000000E+000	17.8942	3.09713	72.1058	0.000000000000000E+000	2.69355e-06	1.44085e-10	2.6934e-06	3.96649	5.84165e+06	312.486	5.84134e+06
0.000497799	44.3759	18.2823	47.9944	-22.391	20329.7	3.96671	0.000679038	1.74878e+07	2.53755e+06	1	11	0.00503724	0.000104955	0	-0.00367009	0.00021219	4.37776e-07	-16.9272	0.0041711	0.00399039	0.00121445	-22.3906	47.9986	44.3799	18.2835	0.0192649	0.00793687	0.0208358	22.391	2.53755e+09	6.15931e+09	6.66155e+09	-67.609	0.0000000E+000	0.0000000E+000	0.0000000E+000	67.609	0.0000000E+000	0.0000000E+000	0.0000000E+000	-67.609	0.0000000E+000	0.0000000E+000	0.0000000E+000	-22.391	0.0000000E+000	0.0000000E+000	0.0000000E+000	22.391	2.42726	67.609	0.000000000000000E+000	2.69355e-06	1.44085e-10	2.6934e-06	3.96649	5.84165e+06	312.486	5.84134e+06
0.000298679	44.9707	29.2661	53.6551	-33.0554	20329.7	3.96671	0.000679038	1.82075e+07	5.417e+06	1	11	0.0050321	9.37862e-05	0	-0.00367009	0.00021219	3.26757e-07	-59.627	0.00348406	0.00176164	0.00300588	-33.057	53.6582	44.9724	29.2691	0.015621	0.0101659	0.0186376	33.0554	5.417e+09	8.32382e+09	9.93125e+09	-56.9446	0.0000000E+000	0.0000000E+000	0.0000000E+000	56.9446	0.0000000E+000	0.0000000E+000	0.0000000E+000	-56.9446	0.0000000E+000	0.0000000E+000	0.0000000E+000	-33.0554	0.0000000E+000	0.0000000E+000	0.0000000E+000	33.0554	1.53661	56.9446	0.000000000000000E+000	2.69355e-06	1.44085e-10	2.6934e-06	3.96649	5.84165e+06	312.486	5.84134e+06
9.95598e-05	50.0027	89.9397	102.905	-60.9278	20329.7	3.96671	0.000679038	1.7774e+07	1.35774e+07	1	11	0.00503621	4.89404e-05	0	-0.00367009	0.00021219	1.36445e-06	-57.4349	0.0278798	0.0150065	0.0234966	-60.9269	102.933	50.0177	89.9632	0.00472194	0.00849335	0.00971771	60.9278	1.35774e+10	7.54843e+09	1.55346e+10	-29.0722	0.0000000E+000	0.0000000E+000	0.0000000E+000	29.0722	0.0000000E+000	0.0000000E+000	0.0000000E+000	-29.0722	0.0000000E+000	0.0000000E+000	0.0000000E+000	-60.9278	0.0000000E+000	0.0000000E+000	0.0000000E+000	60.9278	0.555957	29.0722	0.000000000000000E+000	2.69355e-06	1.44085e-10	2.6934e-06	3.96649	5.84165e+06	312.486	5.84134e+06