File: txt/18694_R307_UC91_25_SOC50_C01.mpt
EC-Lab ASCII FILE
Nb header lines : 65

Potentio Electrochemical Impedance Spectroscopy

Run on channel : 1 (SN 66354)
User :
CE vs. WE compliance from -10 V to 10 V
Electrode connection : standard
Potential control : Ewe
Ewe ctrl range : min = -10.00 V, max = 10.00 V
Safety Limits :
	Do not start on E overload
Acquisition started on : 10/29/2025 14:38:06.248
Technique started on : 10/29/2025 14:38:08.943
Loaded Setting File :  C:\Users\Celltest\OneDrive - store-dot.com\Documents\EC-Lab\Data\@Biologic Test Protocols\cathode half cell EIS SOC50.mps
Saved on :
	File : 18694_R307_UC91_25_SOC50_C01.mpr
	Directory : C:\Users\Celltest\OneDrive - store-dot.com\Documents\EC-Lab\Data\Anna\
	Host : 169.254.61.224
Device : VMP-3e (SN .003165)
Address : USB
EC-LAB for windows v11.62 (software)
Internet server v27.00 (firmware)
Command interpretor v12.03 (firmware)
Electrode material :
Initial state :
Electrolyte :
Comments :
Electrode surface area : 0.001 cm²
Characteristic mass : 0.001 g
Equivalent Weight : 0.000 g/eq.
Density : 0.000 g/cm3
Volume (V) : 0.001 cm³
Record Ece
Cycle Definition : Charge/Discharge alternance
Mode                Multi sine
E (V)               0.0000
vs.                 Eoc
tE (h:m:s)          0:00:0.0000
record              0
dI                  0.000
unit dI             mA
dt (s)              0.000
fi                  1.000
unit fi             MHz
ff                  0.100
unit ff             mHz
Nd                  10
Points              per decade
spacing             Logarithmic
Va (mV)             5.0
pw                  0.10
Na                  2
corr                0
E range min (V)     -10.000
E range max (V)     10.000
I Range             Auto
Bandwidth           5
nc cycles           0
goto Ns'            0
nr cycles           0
inc. cycle          0

freq/Hz	Re(Z)/Ohm	-Im(Z)/Ohm	|Z|/Ohm	Phase(Z)/deg	time/s	<Ewe>/V	<I>/mA	Cs/µF	Cp/µF	cycle number	I Range	|Ewe|/V	|I|/A	Ns	(Q-Qo)/mA.h	<Ece>/V	|Ece|/V	Phase(Zce)/deg	|Zce|/Ohm	Re(Zce)/Ohm	-Im(Zce)/Ohm	Phase(Zwe-ce)/deg	|Zwe-ce|/Ohm	Re(Zwe-ce)/Ohm	-Im(Zwe-ce)/Ohm	Re(Y)/Ohm-1	Im(Y)/Ohm-1	|Y|/Ohm-1	Phase(Y)/deg	Re(C)/nF	Im(C)/nF	|C|/nF	Phase(C)/deg	Re(M)	Im(M)	|M|	Phase(M)/deg	Re(Permittivity)	Im(Permittivity)	|Permittivity|	Phase(Permittivity)/deg	Re(Resistivity)/Ohm.cm	Im(Resistivity)/Ohm.cm	|Resistivity|/Ohm.cm	Phase(Resistivity)/deg	Re(Conductivity)/mS/cm	Im(Conductivity)/mS/cm	|Conductivity|/mS/cm	Phase(Conductivity)/deg	Tan(Delta)	Loss Angle(Delta)/deg	dq/mA.h	Pwe/W	Pce/W	Pwe-ce/W	<Ewe-Ece>/V	Rwe/Ohm	Rce/Ohm	Rwe-ce/Ohm		Ewe-Ece/V
1.00002e+06	2.92414	2.0624	3.57827	-35.1954	2.69456	3.97026	-0.00562441	0.0771685	0.0256352	1	10	0.0002384	6.66242e-05	0	1.10588e-06	5.95716e-05	0.000197068	-70.8005	2.9579	0.972733	2.79338	-51.2522	6.22609	3.89687	4.85578	0.228376	0.161074	0.279464	35.1954	25.6352	36.3465	44.4773	-54.8046	0.0000000E+000	0.0000000E+000	0.0000000E+000	54.8046	0.0000000E+000	0.0000000E+000	0.0000000E+000	-54.8046	0.0000000E+000	0.0000000E+000	0.0000000E+000	-35.1954	0.0000000E+000	0.0000000E+000	0.0000000E+000	35.1954	1.41783	54.8046	1.10588e-06	-2.23304e-05	-3.35055e-10	-2.23301e-05	3.9702	705898	10.5916	705887
630957	0.989505	-0.0879774	0.993409	5.08084	3.86553	3.96986	-0.0297708	-2.86714	-0.0224872	1	9	0.000344654	0.000346941	0	-4.45125e-06	-1.67377e-05	0.000120966	-113.037	0.348665	-0.136443	0.320859	-15.2694	0.884279	0.853062	0.232882	1.00268	-0.0891487	1.00664	-5.08084	-22.4872	252.92	253.917	-95.0808	0.0000000E+000	0.0000000E+000	0.0000000E+000	95.0808	0.0000000E+000	0.0000000E+000	0.0000000E+000	-95.0808	0.0000000E+000	0.0000000E+000	0.0000000E+000	5.08084	0.0000000E+000	0.0000000E+000	0.0000000E+000	-5.08084	11.2473	84.9192	-3.44572e-06	-0.000118186	4.98294e-10	-0.000118187	3.96988	133347	0.562217	133348
398103	1.21016	0.150126	1.21944	-7.07167	4.63152	3.96993	-0.0216866	2.66299	0.040361	1	9	0.00118618	0.000972732	0	-6.69441e-06	-0.000112124	6.34297e-05	170.871	0.0652077	-0.0643818	-0.010346	-6.95546	1.15427	1.14578	0.13978	0.813813	0.100957	0.820051	7.07167	40.361	325.349	327.842	-82.9283	0.0000000E+000	0.0000000E+000	0.0000000E+000	82.9283	0.0000000E+000	0.0000000E+000	0.0000000E+000	-82.9283	0.0000000E+000	0.0000000E+000	0.0000000E+000	-7.07167	0.0000000E+000	0.0000000E+000	0.0000000E+000	7.07167	8.06097	82.9283	-1.18448e-06	-8.60944e-05	2.4316e-09	-8.60968e-05	3.97004	183059	5.1702	183064
251206	1.33641	0.449741	1.41005	-18.5996	5.40056	3.96989	-0.0127828	1.40873	0.143311	1	9	0.00367348	0.0026052	0	-5.46185e-06	-0.000207511	5.63229e-05	104.406	0.0216194	-0.00537879	-0.0209396	-17.8568	1.39839	1.33103	0.428801	0.672152	0.226199	0.709193	18.5996	143.311	425.851	449.318	-71.4004	0.0000000E+000	0.0000000E+000	0.0000000E+000	71.4004	0.0000000E+000	0.0000000E+000	0.0000000E+000	-71.4004	0.0000000E+000	0.0000000E+000	0.0000000E+000	-18.5996	0.0000000E+000	0.0000000E+000	0.0000000E+000	18.5996	2.97151	71.4004	-6.44033e-07	-5.07463e-05	2.65257e-09	-5.0749e-05	3.9701	310565	16.2336	310581
158486	1.50206	0.697161	1.65597	-24.8977	6.16652	3.96984	-0.000786905	1.44044	0.255304	1	9	0.0053852	0.003252	0	-1.86815e-06	7.86489e-05	5.07838e-05	106.866	0.0156162	-0.00453087	-0.0149445	-24.4921	1.64561	1.49753	0.682217	0.547753	0.254231	0.603876	24.8977	255.304	550.064	606.425	-65.1023	0.0000000E+000	0.0000000E+000	0.0000000E+000	65.1023	0.0000000E+000	0.0000000E+000	0.0000000E+000	-65.1023	0.0000000E+000	0.0000000E+000	0.0000000E+000	-24.8977	0.0000000E+000	0.0000000E+000	0.0000000E+000	24.8977	2.15454	65.1023	9.36418e-07	-3.12389e-06	-6.18892e-11	-3.12383e-06	3.96976	5.04488e+06	99.9471	5.04478e+06
100004	1.69747	0.929226	1.93516	-28.6971	6.93256	3.96988	0.0132207	1.71271	0.394902	1	9	0.00545697	0.0028199	0	-1.25977e-05	0.000269422	4.99226e-05	96.1631	0.0177037	-0.00190066	-0.0176014	-28.2648	1.9251	1.69557	0.911625	0.45328	0.248134	0.516752	28.6971	394.902	721.39	822.406	-61.3029	0.0000000E+000	0.0000000E+000	0.0000000E+000	61.3029	0.0000000E+000	0.0000000E+000	0.0000000E+000	-61.3029	0.0000000E+000	0.0000000E+000	0.0000000E+000	-28.6971	0.0000000E+000	0.0000000E+000	0.0000000E+000	28.6971	1.82675	61.3029	-6.79606e-06	5.24847e-05	3.56195e-09	5.24811e-05	3.96961	300277	20.3788	300257
63093.8	1.94558	1.20991	2.29111	-31.8766	7.82453	3.96988	0.00908548	2.08487	0.58143	1	9	0.00541677	0.00236426	0	-2.58134e-05	-9.30469e-05	1.21958e-05	25.1344	0.00515839	0.00466997	-0.00219099	-31.7686	2.29392	1.95025	1.20772	0.370645	0.230497	0.436471	31.8766	581.43	934.957	1101	-58.1234	0.0000000E+000	0.0000000E+000	0.0000000E+000	58.1234	0.0000000E+000	0.0000000E+000	0.0000000E+000	-58.1234	0.0000000E+000	0.0000000E+000	0.0000000E+000	-31.8766	0.0000000E+000	0.0000000E+000	0.0000000E+000	31.8766	1.60803	58.1234	-4.29418e-06	3.60683e-05	-8.45376e-10	3.60691e-05	3.96997	436948	10.2413	436958
39814.1	2.36465	1.49056	2.79524	-32.2254	8.83851	3.96986	0.0171697	2.68184	0.7626	1	9	0.00500513	0.00179059	0	-2.60197e-05	0.000307577	2.12798e-05	52.5272	0.0118842	0.00723019	-0.00943185	-31.9829	2.79635	2.37188	1.48113	0.302642	0.190771	0.357751	32.2254	762.6	1209.8	1430.1	-57.7746	0.0000000E+000	0.0000000E+000	0.0000000E+000	57.7746	0.0000000E+000	0.0000000E+000	0.0000000E+000	-57.7746	0.0000000E+000	0.0000000E+000	0.0000000E+000	-32.2254	0.0000000E+000	0.0000000E+000	0.0000000E+000	32.2254	1.58642	57.7746	4.29208e-06	6.81611e-05	5.28098e-09	6.81558e-05	3.96955	231214	17.914	231196
25116.9	2.8327	1.84794	3.38217	-33.1188	9.60453	3.96986	0.0101658	3.42899	1.02365	1	9	0.00473617	0.00140033	0	-2.07722e-05	0.000116803	9.60822e-06	-97.0794	0.00686138	-0.000845633	0.00680907	-33.2231	3.38519	2.83186	1.85475	0.247634	0.161546	0.295668	33.1188	1023.65	1569.15	1873.52	-56.8812	0.0000000E+000	0.0000000E+000	0.0000000E+000	56.8812	0.0000000E+000	0.0000000E+000	0.0000000E+000	-56.8812	0.0000000E+000	0.0000000E+000	0.0000000E+000	-33.1188	0.0000000E+000	0.0000000E+000	0.0000000E+000	33.1188	1.5329	56.8812	1.03454e-06	4.03569e-05	1.1874e-09	4.03557e-05	3.96974	390510	11.4898	390498
15847.7	3.45423	2.15782	4.07282	-31.9926	10.2486	3.96986	0.00778155	4.65413	1.30641	1	9	0.00454189	0.00111517	0	-1.88353e-05	-7.39696e-05	2.5618e-06	-147.279	0.00229722	-0.00193268	0.00124177	-32.0218	4.07184	3.4523	2.15906	0.208238	0.130084	0.24553	31.9926	1306.41	2091.29	2465.81	-58.0074	0.0000000E+000	0.0000000E+000	0.0000000E+000	58.0074	0.0000000E+000	0.0000000E+000	0.0000000E+000	-58.0074	0.0000000E+000	0.0000000E+000	0.0000000E+000	-31.9926	0.0000000E+000	0.0000000E+000	0.0000000E+000	31.9926	1.60079	58.0074	7.58485e-07	3.08916e-05	-5.75598e-10	3.08922e-05	3.96993	510163	9.50577	510172
10002.2	4.1126	2.44278	4.78338	-30.7092	11.0465	3.96988	-0.013559	6.51386	1.69879	1	10	0.00507999	0.00106201	0	-1.89013e-05	-3.5815e-05	1.68371e-05	-131.389	0.015854	-0.0104822	0.0118943	-30.896	4.78047	4.10212	2.45468	0.179741	0.106762	0.209057	30.7092	1698.79	2860.03	3326.51	-59.2908	0.0000000E+000	0.0000000E+000	0.0000000E+000	59.2908	0.0000000E+000	0.0000000E+000	0.0000000E+000	-59.2908	0.0000000E+000	0.0000000E+000	0.0000000E+000	-30.7092	0.0000000E+000	0.0000000E+000	0.0000000E+000	30.7092	1.68357	59.2908	-8.11214e-07	-5.38278e-05	4.85617e-10	-5.38283e-05	3.96992	292785	2.64141	292787
6309.38	4.83737	2.75089	5.56485	-29.6258	11.5646	3.96988	-0.0137118	9.16981	2.24078	1	10	0.00495038	0.00088958	0	-2.07498e-05	0.000364808	6.91443e-06	-94.4155	0.0077727	-0.000598409	0.00774963	-29.6981	5.56817	4.83678	2.75864	0.156208	0.0888312	0.179699	29.6258	2240.78	3940.36	4532.94	-60.3742	0.0000000E+000	0.0000000E+000	0.0000000E+000	60.3742	0.0000000E+000	0.0000000E+000	0.0000000E+000	-60.3742	0.0000000E+000	0.0000000E+000	0.0000000E+000	-29.6258	0.0000000E+000	0.0000000E+000	0.0000000E+000	29.6258	1.75848	60.3742	-1.71644e-06	-5.44343e-05	-5.0022e-09	-5.44293e-05	3.96951	289522	26.6054	289495
3983.6	5.65638	3.09818	6.44929	-28.711	12.1271	3.96975	-0.030416	12.8955	2.97596	1	10	0.00480186	0.000744556	0	-2.44676e-05	0.000402963	7.99727e-06	-11.6959	0.010741	0.010518	0.00217739	-28.6831	6.45956	5.6669	3.10036	0.135992	0.0744875	0.155056	28.711	2975.96	5433.24	6194.87	-61.289	0.0000000E+000	0.0000000E+000	0.0000000E+000	61.289	0.0000000E+000	0.0000000E+000	0.0000000E+000	-61.289	0.0000000E+000	0.0000000E+000	0.0000000E+000	-28.711	0.0000000E+000	0.0000000E+000	0.0000000E+000	28.711	1.82571	61.289	-2.90441e-06	-0.000120744	-1.22565e-08	-0.000120732	3.96935	130515	13.2484	130502
2510.8	6.56377	3.50604	7.44147	-28.1089	12.9518	3.96976	-0.00165521	18.0797	4.01335	1	10	0.00470397	0.000632129	0	-2.70074e-05	-0.00049367	1.23799e-05	-52.9551	0.0195844	0.0117984	0.0156316	-28.1721	7.45925	6.57557	3.52167	0.118532	0.063314	0.134382	28.1089	4013.35	7513.52	8518.22	-61.8911	0.0000000E+000	0.0000000E+000	0.0000000E+000	61.8911	0.0000000E+000	0.0000000E+000	0.0000000E+000	-61.8911	0.0000000E+000	0.0000000E+000	0.0000000E+000	-28.1089	0.0000000E+000	0.0000000E+000	0.0000000E+000	28.1089	1.87213	61.8911	-4.67736e-07	-6.57078e-06	8.17127e-10	-6.57159e-06	3.97025	2.39835e+06	298.253	2.39864e+06
1585.51	7.64614	4.00898	8.63338	-27.6687	13.8538	3.96976	-0.00148377	25.0391	5.39913	1	10	0.00467445	0.000541439	0	-2.7109e-05	0.000135881	1.74499e-05	-65.5902	0.0322288	0.0133189	0.029348	-27.7997	8.65883	7.65945	4.03833	0.102584	0.0537863	0.115829	27.6687	5399.13	10297.5	11627.1	-62.3313	0.0000000E+000	0.0000000E+000	0.0000000E+000	62.3313	0.0000000E+000	0.0000000E+000	0.0000000E+000	-62.3313	0.0000000E+000	0.0000000E+000	0.0000000E+000	-27.6687	0.0000000E+000	0.0000000E+000	0.0000000E+000	27.6687	1.90725	62.3313	2.94504e-07	-5.89021e-06	-2.01616e-10	-5.89001e-06	3.96962	2.67545e+06	91.578	2.67536e+06
1000.32	8.92369	4.51386	10.0004	-26.8316	14.7558	3.96976	-0.000268791	35.2479	7.18121	1	10	0.00460996	0.000460979	0	-2.70601e-05	5.95716e-05	1.00733e-05	-16.699	0.0218521	0.0209305	0.00627905	-26.8096	10.0219	8.94462	4.52014	0.0892305	0.0451353	0.0999964	26.8316	7181.21	14196.9	15909.8	-63.1684	0.0000000E+000	0.0000000E+000	0.0000000E+000	63.1684	0.0000000E+000	0.0000000E+000	0.0000000E+000	-63.1684	0.0000000E+000	0.0000000E+000	0.0000000E+000	-26.8316	0.0000000E+000	0.0000000E+000	0.0000000E+000	26.8316	1.97696	63.1684	3.64309e-07	-1.06704e-06	-1.60123e-11	-1.06702e-06	3.9697	1.4769e+07	221.628	1.47687e+07
631.01	10.4557	4.9092	11.5508	-25.1512	15.6576	3.96975	-0.00136079	51.3776	9.28042	1	10	0.00458687	0.000397103	0	-2.75103e-05	4.04943e-05	8.16652e-06	1.09813	0.0205652	0.0205615	-0.000394129	-25.1061	11.5693	10.4763	4.9088	0.0783657	0.0367946	0.0865738	25.1512	9280.42	19765.6	21835.9	-64.8488	0.0000000E+000	0.0000000E+000	0.0000000E+000	64.8488	0.0000000E+000	0.0000000E+000	0.0000000E+000	-64.8488	0.0000000E+000	0.0000000E+000	0.0000000E+000	-25.1512	0.0000000E+000	0.0000000E+000	0.0000000E+000	25.1512	2.12982	64.8488	-5.40913e-07	-5.40198e-06	-5.51041e-11	-5.40193e-06	3.96971	2.91725e+06	29.758	2.91722e+06
398.089	12.3028	5.12278	13.3268	-22.6064	16.5588	3.96976	-0.000492412	78.043	11.5318	1	10	0.00458772	0.000344249	0	-2.78371e-05	-1.67377e-05	2.29325e-05	35.0584	0.0666162	0.0545298	-0.0382651	-22.365	13.3625	12.3574	5.08452	0.0692717	0.0288441	0.075037	22.6064	11531.8	27694.6	29999.6	-67.3936	0.0000000E+000	0.0000000E+000	0.0000000E+000	67.3936	0.0000000E+000	0.0000000E+000	0.0000000E+000	-67.3936	0.0000000E+000	0.0000000E+000	0.0000000E+000	-22.6064	0.0000000E+000	0.0000000E+000	0.0000000E+000	22.6064	2.40159	67.3936	1.59788e-07	-1.95476e-06	8.24183e-12	-1.95476e-06	3.96977	8.06186e+06	33.9912	8.06189e+06
251.044	14.1222	4.91596	14.9533	-19.1931	17.457	3.96975	-0.00192356	128.962	13.938	1	10	0.00457167	0.000305729	0	-2.81309e-05	0.00042204	1.04946e-05	38.2584	0.0343264	0.0269539	-0.0212552	-19.0824	14.9718	14.1491	4.8947	0.0631575	0.0219853	0.0668747	19.1931	13938	40040	42396.6	-70.8069	0.0000000E+000	0.0000000E+000	0.0000000E+000	70.8069	0.0000000E+000	0.0000000E+000	0.0000000E+000	-70.8069	0.0000000E+000	0.0000000E+000	0.0000000E+000	-19.1931	0.0000000E+000	0.0000000E+000	0.0000000E+000	19.1931	2.87272	70.8069	7.23129e-09	-7.63605e-06	-8.11819e-10	-7.63524e-06	3.96933	2.06376e+06	219.406	2.06354e+06
158.428	15.825	4.35883	16.4144	-15.3996	18.3618	3.96976	-0.000201712	230.471	16.2521	1	10	0.00457257	0.000278571	0	-2.80311e-05	2.1417e-05	1.91602e-05	25.9998	0.0687803	0.0618194	-0.0301511	-15.2414	16.466	15.8869	4.32868	0.058735	0.0161779	0.0609223	15.3996	16252.1	59004.3	61201.6	-74.6004	0.0000000E+000	0.0000000E+000	0.0000000E+000	74.6004	0.0000000E+000	0.0000000E+000	0.0000000E+000	-74.6004	0.0000000E+000	0.0000000E+000	0.0000000E+000	-15.3996	0.0000000E+000	0.0000000E+000	0.0000000E+000	15.3996	3.63057	74.6004	8.0369e-08	-8.00748e-07	-4.32005e-12	-8.00743e-07	3.96974	1.96804e+07	106.176	1.96803e+07
100.032	17.0791	3.52052	17.4382	-11.6472	19.2618	3.96975	-0.00176703	451.934	18.4198	1	10	0.00457077	0.000262113	0	-2.86661e-05	0.000135881	5.16426e-06	-7.69515	0.0197024	0.019525	0.0026382	-11.6428	17.4578	17.0986	3.52316	0.0561647	0.0115772	0.0573455	11.6472	18419.8	89360.2	91238.9	-78.3528	0.0000000E+000	0.0000000E+000	0.0000000E+000	78.3528	0.0000000E+000	0.0000000E+000	0.0000000E+000	-78.3528	0.0000000E+000	0.0000000E+000	0.0000000E+000	-11.6472	0.0000000E+000	0.0000000E+000	0.0000000E+000	11.6472	4.85131	78.3528	-5.99122e-07	-7.01465e-06	-2.40105e-10	-7.01441e-06	3.96961	2.24657e+06	76.898	2.24649e+06
63.0823	17.8797	2.64746	18.0747	-8.42262	20.1789	3.96976	0.0027053	952.979	20.4457	1	10	0.00456354	0.000252483	0	-2.8348e-05	-0.000398284	5.78877e-06	-33.064	0.0229274	0.0192146	0.0125086	-8.45289	18.0955	17.8989	2.65997	0.0547294	0.00810381	0.0553261	8.42262	20445.7	138081	139586	-81.5774	0.0000000E+000	0.0000000E+000	0.0000000E+000	81.5774	0.0000000E+000	0.0000000E+000	0.0000000E+000	-81.5774	0.0000000E+000	0.0000000E+000	0.0000000E+000	-8.42262	0.0000000E+000	0.0000000E+000	0.0000000E+000	8.42262	6.75353	81.5774	2.14773e-07	1.07394e-05	-1.07748e-09	1.07405e-05	3.97016	1.4674e+06	147.224	1.46755e+06
39.8089	18.6283	2.05978	18.7418	-6.30973	21.3259	3.96982	-0.0040025	1940.97	23.4444	1	11	0.00456249	0.000243439	0	-2.88562e-05	-0.000112124	1.03572e-05	-6.38414	0.0425455	0.0422816	0.0047308	-6.3099	18.7843	18.6706	2.06451	0.0530334	0.00586407	0.0533567	6.30973	23444.4	212026	213318	-83.6903	0.0000000E+000	0.0000000E+000	0.0000000E+000	83.6903	0.0000000E+000	0.0000000E+000	0.0000000E+000	-83.6903	0.0000000E+000	0.0000000E+000	0.0000000E+000	-6.30973	0.0000000E+000	0.0000000E+000	0.0000000E+000	6.30973	9.0438	83.6903	-2.08816e-07	-1.58892e-05	4.48777e-10	-1.58897e-05	3.96993	991835	28.0135	991863
25.1044	18.9897	1.5619	19.0538	-4.70199	22.205	3.96982	-0.0039783	4058.98	27.2747	1	11	0.00455782	0.000239208	0	-2.97682e-05	-3.5815e-05	7.41356e-06	30.5274	0.0309921	0.0266962	-0.0157425	-4.6483	19.0791	19.0164	1.54615	0.0523064	0.00430219	0.052483	4.70199	27274.7	331607	332727	-85.298	0.0000000E+000	0.0000000E+000	0.0000000E+000	85.298	0.0000000E+000	0.0000000E+000	0.0000000E+000	-85.298	0.0000000E+000	0.0000000E+000	0.0000000E+000	-4.70199	0.0000000E+000	0.0000000E+000	0.0000000E+000	4.70199	12.1581	85.298	-5.71543e-07	-1.57931e-05	1.42483e-10	-1.57933e-05	3.96986	997870	9.00259	997879
15.8576	19.2072	1.30328	19.2514	-3.88179	23.0831	3.9698	-0.00474766	7700.95	35.2937	1	11	0.00455093	0.000236395	0	-2.95774e-05	-1.67377e-05	1.35561e-05	42.4036	0.0573453	0.0423445	-0.0386707	-3.75868	19.2911	19.2496	1.26461	0.0518251	0.00351653	0.0519442	3.88179	35293.7	520144	521340	-86.1182	0.0000000E+000	0.0000000E+000	0.0000000E+000	86.1182	0.0000000E+000	0.0000000E+000	0.0000000E+000	-86.1182	0.0000000E+000	0.0000000E+000	0.0000000E+000	-3.88179	0.0000000E+000	0.0000000E+000	0.0000000E+000	3.88179	14.7376	86.1182	3.06812e-07	-1.88473e-05	7.94647e-11	-1.88473e-05	3.96982	836161	3.52546	836164
10.0032	19.4748	1.01123	19.501	-2.97241	24.0638	3.96982	-0.00403267	15733.8	42.3072	1	11	0.00456116	0.000233893	0	-3.15333e-05	-0.000169356	1.0355e-05	-73.6027	0.0442726	0.0124979	0.0424719	-3.09503	19.5158	19.4873	1.0537	0.0512103	0.00265909	0.0512793	2.97241	42307.2	814777	815875	-87.0276	0.0000000E+000	0.0000000E+000	0.0000000E+000	87.0276	0.0000000E+000	0.0000000E+000	0.0000000E+000	-87.0276	0.0000000E+000	0.0000000E+000	0.0000000E+000	-2.97241	0.0000000E+000	0.0000000E+000	0.0000000E+000	2.97241	19.2586	87.0276	-7.33117e-07	-1.6009e-05	6.82957e-10	-1.60096e-05	3.96999	984416	41.9961	984458
6.31058	19.6644	0.917829	19.6858	-2.67232	24.9883	3.96983	-0.00385355	27478.2	59.7318	1	11	0.00456297	0.00023179	0	-3.05908e-05	0.000193113	3.65698e-06	-110.062	0.0157771	-0.00541203	0.0148198	-2.71615	19.6811	19.659	0.932649	0.0507428	0.0023684	0.050798	2.67232	59731.8	1.27975e+06	1.28114e+06	-87.3277	0.0000000E+000	0.0000000E+000	0.0000000E+000	87.3277	0.0000000E+000	0.0000000E+000	0.0000000E+000	-87.3277	0.0000000E+000	0.0000000E+000	0.0000000E+000	-2.67232	0.0000000E+000	0.0000000E+000	0.0000000E+000	2.67232	21.4249	87.3277	1.04671e-06	-1.52979e-05	-7.44169e-10	-1.52972e-05	3.96964	1.03018e+06	50.113	1.03013e+06
3.97785	19.8758	0.861475	19.8945	-2.48181	25.9944	3.96984	-0.00226381	46443.9	87.0859	1	11	0.00456579	0.0002295	0	-3.47811e-05	0.000135881	2.67331e-06	79.2506	0.0116484	0.00217258	-0.011444	-2.44861	19.8962	19.878	0.850031	0.050218	0.00217659	0.0502651	2.48181	87085.8	2.00924e+06	2.01112e+06	-87.5182	0.0000000E+000	0.0000000E+000	0.0000000E+000	87.5182	0.0000000E+000	0.0000000E+000	0.0000000E+000	-87.5182	0.0000000E+000	0.0000000E+000	0.0000000E+000	-2.48181	0.0000000E+000	0.0000000E+000	0.0000000E+000	2.48181	23.0719	87.5182	-1.38984e-06	-8.98694e-06	-3.07608e-10	-8.98663e-06	3.9697	1.75361e+06	60.0232	1.75355e+06
2.51367	20.0334	0.853579	20.0516	-2.43977	27.5539	3.96983	-0.0018111	74176.7	134.418	1	11	0.0045569	0.000227259	0	-3.00476e-05	-9.30469e-05	5.85157e-06	10.8483	0.0257484	0.0252883	-0.0048461	-2.42288	20.0766	20.0587	0.848733	0.0498262	0.00212299	0.0498714	2.43977	134418	3.15478e+06	3.15764e+06	-87.5602	0.0000000E+000	0.0000000E+000	0.0000000E+000	87.5602	0.0000000E+000	0.0000000E+000	0.0000000E+000	-87.5602	0.0000000E+000	0.0000000E+000	0.0000000E+000	-2.43977	0.0000000E+000	0.0000000E+000	0.0000000E+000	2.43977	23.4699	87.5602	2.63362e-06	-7.18975e-06	1.68517e-10	-7.18992e-06	3.96993	2.19195e+06	51.376	2.192e+06
1.58469	20.2809	0.945438	20.3029	-2.66904	29.9894	3.96984	-0.00108176	106229	230.353	1	11	0.00456619	0.000224903	0	-3.59499e-05	-0.000131202	2.47759e-06	-38.8213	0.0110162	0.0085828	0.00690601	-2.68737	20.3118	20.2895	0.952344	0.0492006	0.0022936	0.0492541	2.66904	230353	4.94137e+06	4.94674e+06	-87.331	0.0000000E+000	0.0000000E+000	0.0000000E+000	87.331	0.0000000E+000	0.0000000E+000	0.0000000E+000	-87.331	0.0000000E+000	0.0000000E+000	0.0000000E+000	-2.66904	0.0000000E+000	0.0000000E+000	0.0000000E+000	2.66904	21.4513	87.331	-4.93205e-06	-4.29439e-06	1.41928e-10	-4.29454e-06	3.96997	3.66981e+06	121.286	3.66993e+06
1.00469	20.9098	1.02367	20.9348	-2.80276	240.806	3.9698	-0.00269985	154749	370.005	1	11	0.00500646	0.000239145	0	-0.00111896	-0.00028382	1.2949e-07	38.6251	0.000541471	0.000423023	-0.000337998	-2.80178	20.9352	20.9102	1.02333	0.0477102	0.00233572	0.0477673	2.80276	370005	7.55784e+06	7.56689e+06	-87.1972	0.0000000E+000	0.0000000E+000	0.0000000E+000	87.1972	0.0000000E+000	0.0000000E+000	0.0000000E+000	-87.1972	0.0000000E+000	0.0000000E+000	0.0000000E+000	-2.80276	0.0000000E+000	0.0000000E+000	0.0000000E+000	2.80276	20.4263	87.1972	-0.00107718	-1.07179e-05	7.66271e-10	-1.07186e-05	3.97008	1.47038e+06	105.124	1.47049e+06
0.632957	21.1659	1.18304	21.1989	-3.19915	240.807	3.9698	-0.00269985	212542	661.94	1	11	0.00501852	0.000236734	0	-0.00111896	-0.00028382	4.61539e-07	-46.9444	0.00194961	0.00133101	0.00142456	-3.2028	21.2003	21.1672	1.18447	0.0470987	0.00263253	0.0471722	3.19915	661939	1.18428e+07	1.18613e+07	-86.8008	0.0000000E+000	0.0000000E+000	0.0000000E+000	86.8008	0.0000000E+000	0.0000000E+000	0.0000000E+000	-86.8008	0.0000000E+000	0.0000000E+000	0.0000000E+000	-3.19915	0.0000000E+000	0.0000000E+000	0.0000000E+000	3.19915	17.8911	86.8008	0.000000000000000E+000	-1.07179e-05	7.66271e-10	-1.07186e-05	3.97008	1.47038e+06	105.124	1.47049e+06
0.401878	21.3828	1.41094	21.4293	-3.77517	240.808	3.9698	-0.00269985	280685	1216.79	1	11	0.00503281	0.000234856	0	-0.00111896	-0.00028382	3.71878e-07	-3.37376	0.00158343	0.00158068	9.31835e-05	-3.77514	21.4309	21.3844	1.41103	0.0465638	0.00307249	0.046665	3.77517	1.21679e+06	1.84406e+07	1.84807e+07	-86.2248	0.0000000E+000	0.0000000E+000	0.0000000E+000	86.2248	0.0000000E+000	0.0000000E+000	0.0000000E+000	-86.2248	0.0000000E+000	0.0000000E+000	0.0000000E+000	-3.77517	0.0000000E+000	0.0000000E+000	0.0000000E+000	3.77517	15.1551	86.2248	0.000000000000000E+000	-1.07179e-05	7.66271e-10	-1.07186e-05	3.97008	1.47038e+06	105.124	1.47049e+06
0.251173	21.8048	1.73282	21.8735	-4.54374	240.809	3.9698	-0.00269985	365672	2294.9	1	11	0.00503354	0.00023012	0	-0.00111896	-0.00028382	1.65736e-07	7.96848	0.000720217	0.000713263	-9.98424e-05	-4.54333	21.8742	21.8055	1.73272	0.0455737	0.00362173	0.0457174	4.54374	2.2949e+06	2.88776e+07	2.89686e+07	-85.4563	0.0000000E+000	0.0000000E+000	0.0000000E+000	85.4563	0.0000000E+000	0.0000000E+000	0.0000000E+000	-85.4563	0.0000000E+000	0.0000000E+000	0.0000000E+000	-4.54374	0.0000000E+000	0.0000000E+000	0.0000000E+000	4.54374	12.5834	85.4563	0.000000000000000E+000	-1.07179e-05	7.66271e-10	-1.07186e-05	3.97008	1.47038e+06	105.124	1.47049e+06
0.160751	22.1954	1.98869	22.2843	-5.12	240.81	3.9698	-0.00269985	497850	3964.95	1	11	0.00502926	0.000225686	0	-0.00111896	-0.00028382	4.46204e-07	-51.3659	0.0019771	0.00123439	0.00154441	-5.12367	22.2856	22.1966	1.99024	0.0446956	0.00400471	0.0448747	5.12	3.96495e+06	4.42519e+07	4.44291e+07	-84.88	0.0000000E+000	0.0000000E+000	0.0000000E+000	84.88	0.0000000E+000	0.0000000E+000	0.0000000E+000	-84.88	0.0000000E+000	0.0000000E+000	0.0000000E+000	-5.12	0.0000000E+000	0.0000000E+000	0.0000000E+000	5.12	11.1608	84.88	0.000000000000000E+000	-1.07179e-05	7.66271e-10	-1.07186e-05	3.97008	1.47038e+06	105.124	1.47049e+06
0.100469	22.6841	2.71585	22.8461	-6.82724	240.811	3.9698	-0.00269985	583284	8242.68	1	11	0.00503094	0.00022021	0	-0.00111896	-0.00028382	4.77151e-07	-53.2509	0.0021668	0.00129642	0.00173618	-6.83118	22.8476	22.6854	2.71759	0.0434608	0.00520334	0.0437711	6.82724	8.24268e+06	6.88468e+07	6.93385e+07	-83.1728	0.0000000E+000	0.0000000E+000	0.0000000E+000	83.1728	0.0000000E+000	0.0000000E+000	0.0000000E+000	-83.1728	0.0000000E+000	0.0000000E+000	0.0000000E+000	-6.82724	0.0000000E+000	0.0000000E+000	0.0000000E+000	6.82724	8.35248	83.1728	0.000000000000000E+000	-1.07179e-05	7.66271e-10	-1.07186e-05	3.97008	1.47038e+06	105.124	1.47049e+06
0.0602816	23.4558	3.29243	23.6857	-7.99027	240.812	3.9698	-0.00269985	801897	15494.5	1	11	0.00502592	0.000212192	0	-0.00111896	-0.00028382	3.26197e-07	-36.1272	0.00153727	0.00124167	0.000906345	-7.99202	23.6871	23.457	3.29333	0.0418097	0.00586872	0.0422195	7.99027	1.54945e+07	1.10385e+08	1.11468e+08	-82.0097	0.0000000E+000	0.0000000E+000	0.0000000E+000	82.0097	0.0000000E+000	0.0000000E+000	0.0000000E+000	-82.0097	0.0000000E+000	0.0000000E+000	0.0000000E+000	-7.99027	0.0000000E+000	0.0000000E+000	0.0000000E+000	7.99027	7.12415	82.0097	0.000000000000000E+000	-1.07179e-05	7.66271e-10	-1.07186e-05	3.97008	1.47038e+06	105.124	1.47049e+06
0.0401878	24.4816	3.80509	24.7755	-8.83462	240.813	3.9698	-0.00269985	1.04079e+06	24549.7	1	11	0.00502675	0.000202892	0	-0.00111896	-0.00028382	3.35732e-07	11.9591	0.00165473	0.00161882	-0.000342883	-8.83326	24.777	24.4832	3.80475	0.0398836	0.00619898	0.0403625	8.83462	2.45497e+07	1.5795e+08	1.59847e+08	-81.1654	0.0000000E+000	0.0000000E+000	0.0000000E+000	81.1654	0.0000000E+000	0.0000000E+000	0.0000000E+000	-81.1654	0.0000000E+000	0.0000000E+000	0.0000000E+000	-8.83462	0.0000000E+000	0.0000000E+000	0.0000000E+000	8.83462	6.43389	81.1654	0.000000000000000E+000	-1.07179e-05	7.66271e-10	-1.07186e-05	3.97008	1.47038e+06	105.124	1.47049e+06
0.0200939	26.3579	5.68882	26.9648	-12.1793	240.813	3.9698	-0.00269985	1.3923e+06	61970.4	1	11	0.00502718	0.000186435	0	-0.00111896	-0.00028382	6.80839e-07	-25.3721	0.00365189	0.00329964	0.00156481	-12.1811	26.9684	26.3612	5.69039	0.0362507	0.00782399	0.0370854	12.1793	6.19704e+07	2.87126e+08	2.93737e+08	-77.8207	0.0000000E+000	0.0000000E+000	0.0000000E+000	77.8207	0.0000000E+000	0.0000000E+000	0.0000000E+000	-77.8207	0.0000000E+000	0.0000000E+000	0.0000000E+000	-12.1793	0.0000000E+000	0.0000000E+000	0.0000000E+000	12.1793	4.63327	77.8207	0.000000000000000E+000	-1.07179e-05	7.66271e-10	-1.07186e-05	3.97008	1.47038e+06	105.124	1.47049e+06
0.00796479	33.6552	7.93097	34.577	-13.2601	20329.7	3.9698	0.00052161	2.51953e+06	132555	1	11	0.00502038	0.000145194	0	-0.00169017	0.000345731	4.7816e-07	-18.7181	0.00329325	0.00311906	0.00105684	-13.2606	34.5803	33.6583	7.93203	0.0281499	0.00663363	0.028921	13.2601	1.32555e+08	5.625e+08	5.77908e+08	-76.7399	0.0000000E+000	0.0000000E+000	0.0000000E+000	76.7399	0.0000000E+000	0.0000000E+000	0.0000000E+000	-76.7399	0.0000000E+000	0.0000000E+000	0.0000000E+000	-13.2601	0.0000000E+000	0.0000000E+000	0.0000000E+000	13.2601	4.24351	76.7399	-0.000571209	2.07069e-06	1.80337e-10	2.07051e-06	3.96945	7.61067e+06	662.815	7.61e+06
0.00497799	36.6825	8.75993	37.7139	-13.4309	20329.7	3.9698	0.00052161	3.64977e+06	196908	1	11	0.00502837	0.000133329	0	-0.00169017	0.000345731	5.12555e-07	-12.388	0.00384428	0.00375477	0.000824717	-13.4308	37.7178	36.6862	8.76076	0.0257902	0.00615882	0.0265154	13.4309	1.96908e+08	8.24558e+08	8.47743e+08	-76.5691	0.0000000E+000	0.0000000E+000	0.0000000E+000	76.5691	0.0000000E+000	0.0000000E+000	0.0000000E+000	-76.5691	0.0000000E+000	0.0000000E+000	0.0000000E+000	-13.4309	0.0000000E+000	0.0000000E+000	0.0000000E+000	13.4309	4.18753	76.5691	0.000000000000000E+000	2.07069e-06	1.80337e-10	2.07051e-06	3.96945	7.61067e+06	662.815	7.61e+06
0.00318591	39.1049	10.6401	40.5266	-15.2212	20329.7	3.9698	0.00052161	4.69504e+06	323633	1	11	0.00503031	0.000124124	0	-0.00169017	0.000345731	5.07085e-07	-34.4019	0.00408532	0.00337077	0.00230818	-15.2231	40.5304	39.1082	10.6424	0.0238096	0.00647839	0.0246752	15.2212	3.23633e+08	1.18943e+09	1.23267e+09	-74.7788	0.0000000E+000	0.0000000E+000	0.0000000E+000	74.7788	0.0000000E+000	0.0000000E+000	0.0000000E+000	-74.7788	0.0000000E+000	0.0000000E+000	0.0000000E+000	-15.2212	0.0000000E+000	0.0000000E+000	0.0000000E+000	15.2212	3.67523	74.7788	0.000000000000000E+000	2.07069e-06	1.80337e-10	2.07051e-06	3.96945	7.61067e+06	662.815	7.61e+06
0.0019912	41.7638	11.4153	43.2958	-15.2873	20329.7	3.9698	0.00052161	7.00192e+06	486747	1	11	0.00503402	0.00011627	0	-0.00169017	0.000345731	5.24398e-07	-30.2227	0.00451016	0.00389712	0.00227024	-15.2888	43.3002	41.7677	11.4176	0.0222797	0.00608971	0.0230969	15.2873	4.86746e+08	1.7808e+09	1.84612e+09	-74.7127	0.0000000E+000	0.0000000E+000	0.0000000E+000	74.7127	0.0000000E+000	0.0000000E+000	0.0000000E+000	-74.7127	0.0000000E+000	0.0000000E+000	0.0000000E+000	-15.2873	0.0000000E+000	0.0000000E+000	0.0000000E+000	15.2873	3.65857	74.7127	0.000000000000000E+000	2.07069e-06	1.80337e-10	2.07051e-06	3.96945	7.61067e+06	662.815	7.61e+06
0.00129428	42.9771	12.3812	44.725	-16.0711	20329.7	3.9698	0.00052161	9.93182e+06	761126	1	11	0.00503393	0.000112553	0	-0.00169017	0.000345731	5.04951e-07	9.73619	0.00448634	0.00442173	-0.000758695	-16.0686	44.729	42.9815	12.3805	0.0214851	0.00618962	0.0223589	16.0711	7.61126e+08	2.64198e+09	2.74943e+09	-73.9289	0.0000000E+000	0.0000000E+000	0.0000000E+000	73.9289	0.0000000E+000	0.0000000E+000	0.0000000E+000	-73.9289	0.0000000E+000	0.0000000E+000	0.0000000E+000	-16.0711	0.0000000E+000	0.0000000E+000	0.0000000E+000	16.0711	3.47115	73.9289	0.000000000000000E+000	2.07069e-06	1.80337e-10	2.07051e-06	3.96945	7.61067e+06	662.815	7.61e+06
0.000796479	45.8275	14.3004	48.0069	-17.3304	20329.7	3.9698	0.00052161	1.39733e+07	1.2399e+06	1	11	0.00503282	0.000104835	0	-0.00169017	0.000345731	9.61388e-07	-44.2395	0.00917046	0.00656999	0.00639786	-17.3354	48.0151	45.8341	14.3068	0.0198847	0.00620498	0.0208303	17.3304	1.2399e+09	3.97342e+09	4.16238e+09	-72.6696	0.0000000E+000	0.0000000E+000	0.0000000E+000	72.6696	0.0000000E+000	0.0000000E+000	0.0000000E+000	-72.6696	0.0000000E+000	0.0000000E+000	0.0000000E+000	-17.3304	0.0000000E+000	0.0000000E+000	0.0000000E+000	17.3304	3.20463	72.6696	0.000000000000000E+000	2.07069e-06	1.80337e-10	2.07051e-06	3.96945	7.61067e+06	662.815	7.61e+06
0.000497799	46.6723	19.0109	50.3956	-22.1624	20329.7	3.9698	0.00052161	1.68176e+07	2.39322e+06	1	11	0.00503622	9.99337e-05	0	-0.00169017	0.000345731	7.73667e-07	-16.0361	0.00774181	0.00744056	0.00213862	-22.1615	50.4033	46.6797	19.013	0.018377	0.00748544	0.019843	22.1624	2.39322e+09	5.87544e+09	6.34415e+09	-67.8376	0.0000000E+000	0.0000000E+000	0.0000000E+000	67.8376	0.0000000E+000	0.0000000E+000	0.0000000E+000	-67.8376	0.0000000E+000	0.0000000E+000	0.0000000E+000	-22.1624	0.0000000E+000	0.0000000E+000	0.0000000E+000	22.1624	2.45503	67.8376	0.000000000000000E+000	2.07069e-06	1.80337e-10	2.07051e-06	3.96945	7.61067e+06	662.815	7.61e+06
0.000298679	47.3655	29.094	55.5873	-31.5601	20329.7	3.9698	0.00052161	1.83152e+07	5.01726e+06	1	11	0.00503483	9.05751e-05	0	-0.00169017	0.000345731	5.93661e-07	52.4428	0.00655435	0.00399523	-0.00519593	-31.5534	55.588	47.3695	29.0888	0.0153289	0.00941569	0.0179897	31.5601	5.01726e+09	8.16818e+09	9.58603e+09	-58.4399	0.0000000E+000	0.0000000E+000	0.0000000E+000	58.4399	0.0000000E+000	0.0000000E+000	0.0000000E+000	-58.4399	0.0000000E+000	0.0000000E+000	0.0000000E+000	-31.5601	0.0000000E+000	0.0000000E+000	0.0000000E+000	31.5601	1.62801	58.4399	0.000000000000000E+000	2.07069e-06	1.80337e-10	2.07051e-06	3.96945	7.61067e+06	662.815	7.61e+06
9.95598e-05	54.2832	85.5976	101.359	-57.6185	20329.7	3.9698	0.00052161	1.86756e+07	1.33191e+07	1	11	0.00503131	4.96386e-05	0	-0.00169017	0.000345731	1.07401e-06	-75.9317	0.0216366	0.00525938	0.0209876	-57.6223	101.379	54.2884	85.6186	0.00528375	0.0083318	0.00986594	57.6185	1.33191e+10	8.44653e+09	1.57716e+10	-32.3815	0.0000000E+000	0.0000000E+000	0.0000000E+000	32.3815	0.0000000E+000	0.0000000E+000	0.0000000E+000	-32.3815	0.0000000E+000	0.0000000E+000	0.0000000E+000	-57.6185	0.0000000E+000	0.0000000E+000	0.0000000E+000	57.6185	0.634167	32.3815	0.000000000000000E+000	2.07069e-06	1.80337e-10	2.07051e-06	3.96945	7.61067e+06	662.815	7.61e+06