File: txt/18691_R307_UC91_23p8_SOC50_C03.mpt
EC-Lab ASCII FILE
Nb header lines : 65

Potentio Electrochemical Impedance Spectroscopy

Run on channel : 3 (SN 65921)
User :
CE vs. WE compliance from -10 V to 10 V
Electrode connection : standard
Potential control : Ewe
Ewe ctrl range : min = -10.00 V, max = 10.00 V
Safety Limits :
	Do not start on E overload
Acquisition started on : 10/28/2025 15:55:34.988
Technique started on : 10/28/2025 15:55:37.223
Loaded Setting File :  C:\Users\Celltest\OneDrive - store-dot.com\Documents\EC-Lab\Data\@Biologic Test Protocols\cathode half cell EIS SOC50.mps
Saved on :
	File : 18691_R307_UC91_23p8_SOC50_C03.mpr
	Directory : C:\Users\Celltest\OneDrive - store-dot.com\Documents\EC-Lab\Data\Anna\
	Host : 169.254.61.224
Device : VMP-3e (SN .003165)
Address : USB
EC-LAB for windows v11.62 (software)
Internet server v27.00 (firmware)
Command interpretor v12.03 (firmware)
Electrode material :
Initial state :
Electrolyte :
Comments :
Electrode surface area : 0.001 cm²
Characteristic mass : 0.001 g
Equivalent Weight : 0.000 g/eq.
Density : 0.000 g/cm3
Volume (V) : 0.001 cm³
Record Ece
Cycle Definition : Charge/Discharge alternance
Mode                Multi sine
E (V)               0.0000
vs.                 Eoc
tE (h:m:s)          0:00:0.0000
record              0
dI                  0.000
unit dI             mA
dt (s)              0.000
fi                  1.000
unit fi             MHz
ff                  0.100
unit ff             mHz
Nd                  10
Points              per decade
spacing             Logarithmic
Va (mV)             5.0
pw                  0.10
Na                  2
corr                0
E range min (V)     -10.000
E range max (V)     10.000
I Range             Auto
Bandwidth           5
nc cycles           0
goto Ns'            0
nr cycles           0
inc. cycle          0

freq/Hz	Re(Z)/Ohm	-Im(Z)/Ohm	|Z|/Ohm	Phase(Z)/deg	time/s	<Ewe>/V	<I>/mA	Cs/µF	Cp/µF	cycle number	I Range	|Ewe|/V	|I|/A	Ns	(Q-Qo)/mA.h	<Ece>/V	|Ece|/V	Phase(Zce)/deg	|Zce|/Ohm	Re(Zce)/Ohm	-Im(Zce)/Ohm	Phase(Zwe-ce)/deg	|Zwe-ce|/Ohm	Re(Zwe-ce)/Ohm	-Im(Zwe-ce)/Ohm	Re(Y)/Ohm-1	Im(Y)/Ohm-1	|Y|/Ohm-1	Phase(Y)/deg	Re(C)/nF	Im(C)/nF	|C|/nF	Phase(C)/deg	Re(M)	Im(M)	|M|	Phase(M)/deg	Re(Permittivity)	Im(Permittivity)	|Permittivity|	Phase(Permittivity)/deg	Re(Resistivity)/Ohm.cm	Im(Resistivity)/Ohm.cm	|Resistivity|/Ohm.cm	Phase(Resistivity)/deg	Re(Conductivity)/mS/cm	Im(Conductivity)/mS/cm	|Conductivity|/mS/cm	Phase(Conductivity)/deg	Tan(Delta)	Loss Angle(Delta)/deg	dq/mA.h	Pwe/W	Pce/W	Pwe-ce/W	<Ewe-Ece>/V	Rwe/Ohm	Rce/Ohm	Rwe-ce/Ohm		Ewe-Ece/V
1.00002e+06	2.41202	3.51996	4.26708	-55.5794	2.23453	3.96797	-0.0332063	0.0452141	0.0307672	1	10	0.000225911	5.29428e-05	0	-2.47885e-05	-0.000118703	0.000198607	-67.791	3.75134	1.41796	3.47304	-61.291	7.97313	3.82998	6.993	0.132471	0.19332	0.234352	55.5794	30.7672	21.083	37.2976	-34.4206	0.0000000E+000	0.0000000E+000	0.0000000E+000	34.4206	0.0000000E+000	0.0000000E+000	0.0000000E+000	-34.4206	0.0000000E+000	0.0000000E+000	0.0000000E+000	-55.5794	0.0000000E+000	0.0000000E+000	0.0000000E+000	55.5794	0.685242	34.4206	-2.47885e-05	-0.000131762	3.9417e-09	-0.000131766	3.96809	119494	3.57471	119498
630957	0.859942	-0.185901	0.879807	12.1984	3.40356	3.96758	-0.00772624	-1.35687	-0.0605798	1	9	0.000192665	0.000218985	0	-3.018e-05	1.49552e-05	0.000110649	-92.9522	0.505282	-0.026023	0.504611	-20.916	0.892747	0.833919	0.31871	1.11095	-0.240164	1.13661	-12.1984	-60.5798	280.23	286.704	-102.198	0.0000000E+000	0.0000000E+000	0.0000000E+000	102.198	0.0000000E+000	0.0000000E+000	0.0000000E+000	-102.198	0.0000000E+000	0.0000000E+000	0.0000000E+000	12.1984	0.0000000E+000	0.0000000E+000	0.0000000E+000	-12.1984	4.62581	77.8016	-4.7181e-07	-3.06545e-05	-1.15548e-10	-3.06544e-05	3.96757	513521	1.93564	513519
398103	1.18128	0.0293118	1.18165	-1.42142	4.17154	3.96767	-0.00925526	13.639	0.00839251	1	9	0.000783797	0.000663309	0	-3.08565e-05	-0.000137797	5.89007e-05	151.088	0.0887984	-0.077731	-0.0429308	0.70705	1.10364	1.10355	-0.0136189	0.846016	0.0209927	0.846276	1.42142	8.39249	338.223	338.327	-88.5786	0.0000000E+000	0.0000000E+000	0.0000000E+000	88.5786	0.0000000E+000	0.0000000E+000	0.0000000E+000	-88.5786	0.0000000E+000	0.0000000E+000	0.0000000E+000	-1.42142	0.0000000E+000	0.0000000E+000	0.0000000E+000	1.42142	40.3006	88.5786	-1.07226e-06	-3.67218e-05	1.27535e-09	-3.67231e-05	3.96781	428693	14.8885	428708
251206	1.26025	0.366832	1.31256	-16.2291	4.93956	3.96755	-0.00750244	1.72712	0.134903	1	9	0.00234419	0.00178597	0	-3.13344e-05	7.22374e-05	6.35405e-05	95.7902	0.0355775	-0.00358925	-0.035396	-14.7749	1.29964	1.25666	0.331436	0.731513	0.212927	0.761872	16.2291	134.903	463.459	482.694	-73.7709	0.0000000E+000	0.0000000E+000	0.0000000E+000	73.7709	0.0000000E+000	0.0000000E+000	0.0000000E+000	-73.7709	0.0000000E+000	0.0000000E+000	0.0000000E+000	-16.2291	0.0000000E+000	0.0000000E+000	0.0000000E+000	16.2291	3.4355	73.7709	-1.20334e-06	-2.97663e-05	-5.41957e-10	-2.97658e-05	3.96748	528835	9.62853	528826
158486	1.3567	0.612036	1.48836	-24.2812	5.70752	3.96752	-0.00563771	1.64079	0.277453	1	9	0.00513907	0.00345284	0	-3.38548e-05	-0.000195079	4.99705e-05	66.0244	0.0144723	0.00588077	-0.0132236	-23.724	1.48835	1.36258	0.598812	0.612445	0.276287	0.67188	24.2812	277.453	615.029	674.716	-65.7188	0.0000000E+000	0.0000000E+000	0.0000000E+000	65.7188	0.0000000E+000	0.0000000E+000	0.0000000E+000	-65.7188	0.0000000E+000	0.0000000E+000	0.0000000E+000	-24.2812	0.0000000E+000	0.0000000E+000	0.0000000E+000	24.2812	2.2167	65.7188	3.44993e-06	-2.23677e-05	1.0998e-09	-2.23688e-05	3.96771	703747	34.6026	703781
100004	1.53161	0.853882	1.75355	-29.1399	6.47354	3.96748	6.82026e-05	1.86383	0.441941	1	9	0.0054226	0.00309235	0	-3.78015e-05	-0.00029055	4.02711e-05	45.7129	0.0130228	0.00909322	-0.00932237	-28.73	1.757	1.5407	0.84456	0.498094	0.27769	0.570271	29.1399	441.941	792.711	907.581	-60.8601	0.0000000E+000	0.0000000E+000	0.0000000E+000	60.8601	0.0000000E+000	0.0000000E+000	0.0000000E+000	-60.8601	0.0000000E+000	0.0000000E+000	0.0000000E+000	-29.1399	0.0000000E+000	0.0000000E+000	0.0000000E+000	29.1399	1.7937	60.8601	-1.38508e-06	2.70593e-07	-1.98163e-11	2.70613e-07	3.96777	5.8172e+07	4260.1	5.81762e+07
63093.8	1.79302	1.1179	2.11296	-31.9425	7.24154	3.96747	0.00327543	2.25647	0.631616	1	9	0.00537132	0.00254208	0	-3.81996e-05	-0.000252362	1.52807e-05	41.7032	0.0060111	0.00448789	-0.00399902	-31.7862	2.11466	1.7975	1.1139	0.401607	0.250392	0.47327	31.9425	631.616	1013.06	1193.83	-58.0575	0.0000000E+000	0.0000000E+000	0.0000000E+000	58.0575	0.0000000E+000	0.0000000E+000	0.0000000E+000	-58.0575	0.0000000E+000	0.0000000E+000	0.0000000E+000	-31.9425	0.0000000E+000	0.0000000E+000	0.0000000E+000	31.9425	1.60391	58.0575	2.25664e-06	1.29952e-05	-8.26594e-10	1.2996e-05	3.96773	1.21128e+06	77.0468	1.21136e+06
39814.1	2.15104	1.40974	2.57184	-33.2399	8.00753	3.96747	-0.0082483	2.83559	0.851992	1	9	0.00531722	0.00206748	0	-3.86679e-05	-0.000462396	1.26253e-05	-8.84367	0.00610662	0.00603402	0.000938826	-33.1838	2.5774	2.15708	1.41068	0.325208	0.213134	0.388827	33.2399	851.992	1300	1554.32	-56.7601	0.0000000E+000	0.0000000E+000	0.0000000E+000	56.7601	0.0000000E+000	0.0000000E+000	0.0000000E+000	-56.7601	0.0000000E+000	0.0000000E+000	0.0000000E+000	-33.2399	0.0000000E+000	0.0000000E+000	0.0000000E+000	33.2399	1.52584	56.7601	-1.18704e-06	-3.27249e-05	3.81398e-09	-3.27287e-05	3.96793	481004	56.0596	481060
25116.9	2.61762	1.68157	3.11121	-32.7169	8.77556	3.96746	-0.00563776	3.76824	1.10081	1	9	0.00530832	0.00170619	0	-3.51489e-05	5.31434e-05	6.86182e-06	-31.8313	0.00402171	0.00341686	0.00212113	-32.7157	3.11523	2.62104	1.68369	0.270426	0.173723	0.321419	32.7169	1100.81	1713.57	2036.69	-57.2831	0.0000000E+000	0.0000000E+000	0.0000000E+000	57.2831	0.0000000E+000	0.0000000E+000	0.0000000E+000	-57.2831	0.0000000E+000	0.0000000E+000	0.0000000E+000	-32.7169	0.0000000E+000	0.0000000E+000	0.0000000E+000	32.7169	1.55665	57.2831	9.95981e-08	-2.23676e-05	-2.9961e-10	-2.23673e-05	3.96741	703729	9.42632	703720
15847.7	3.15671	1.94195	3.70621	-31.5991	9.54153	3.96747	-0.00340016	5.17149	1.41982	1	9	0.00528973	0.00142726	0	-3.43243e-05	-0.000271456	7.34843e-06	-51.3204	0.00514863	0.00321771	0.00401929	-31.6259	3.71106	3.15993	1.94597	0.229813	0.141377	0.269817	31.5991	1419.82	2307.96	2709.72	-58.4009	0.0000000E+000	0.0000000E+000	0.0000000E+000	58.4009	0.0000000E+000	0.0000000E+000	0.0000000E+000	-58.4009	0.0000000E+000	0.0000000E+000	0.0000000E+000	-31.5991	0.0000000E+000	0.0000000E+000	0.0000000E+000	31.5991	1.62553	58.4009	-6.43079e-07	-1.349e-05	9.22994e-10	-1.3491e-05	3.96774	1.16685e+06	79.8361	1.16693e+06
10002.2	3.69478	2.16818	4.28398	-30.4054	10.5866	3.96746	-0.0454706	7.33884	1.87986	1	10	0.00492747	0.00115021	0	-4.02276e-05	0.00022499	2.79178e-05	29.6609	0.024272	0.0210916	-0.0120114	-30.1249	4.29614	3.71588	2.15617	0.201324	0.118141	0.233428	30.4054	1879.86	3203.45	3714.29	-59.5946	0.0000000E+000	0.0000000E+000	0.0000000E+000	59.5946	0.0000000E+000	0.0000000E+000	0.0000000E+000	-59.5946	0.0000000E+000	0.0000000E+000	0.0000000E+000	-30.4054	0.0000000E+000	0.0000000E+000	0.0000000E+000	30.4054	1.70409	59.5946	-4.41063e-06	-0.000180403	-1.02304e-08	-0.000180392	3.96723	87253.3	4.94803	87248.3
6309.38	4.3043	2.46129	4.95832	-29.7619	11.3525	3.96746	-0.0455191	10.2487	2.52539	1	10	0.00514594	0.00103784	0	-5.17276e-05	-0.000328738	1.47755e-05	-72.6884	0.0142367	0.00423641	0.0135918	-29.8737	4.96875	4.30853	2.47489	0.175079	0.100114	0.201681	29.7619	2525.39	4416.38	5087.43	-60.2381	0.0000000E+000	0.0000000E+000	0.0000000E+000	60.2381	0.0000000E+000	0.0000000E+000	0.0000000E+000	-60.2381	0.0000000E+000	0.0000000E+000	0.0000000E+000	-29.7619	0.0000000E+000	0.0000000E+000	0.0000000E+000	29.7619	1.74879	60.2381	-5.45169e-06	-0.000180595	1.49638e-08	-0.00018061	3.96779	87160.3	7.22198	87167.5
3983.6	4.96939	2.83614	5.72175	-29.7144	12.0411	3.96745	-0.0419244	14.0869	3.46109	1	10	0.00536543	0.000937725	0	-5.86737e-05	-0.000252362	5.0416e-06	-5.17685	0.00537642	0.00535449	0.000485115	-29.692	5.72665	4.97474	2.83662	0.15179	0.0866301	0.174772	29.7144	3461.09	6064.41	6982.57	-60.2856	0.0000000E+000	0.0000000E+000	0.0000000E+000	60.2856	0.0000000E+000	0.0000000E+000	0.0000000E+000	-60.2856	0.0000000E+000	0.0000000E+000	0.0000000E+000	-29.7144	0.0000000E+000	0.0000000E+000	0.0000000E+000	29.7144	1.75217	60.2856	-3.3441e-06	-0.000166333	1.05801e-08	-0.000166344	3.96771	94633.4	6.01944	94639.4
2510.8	5.80103	3.34389	6.69578	-29.9605	12.8658	3.96744	-0.0439567	18.9564	4.72777	1	10	0.00538108	0.000803652	0	-6.94118e-05	-0.000271456	7.0157e-06	-2.55021	0.00872977	0.00872112	0.00038843	-29.9261	6.70354	5.80975	3.34428	0.12939	0.0745846	0.149348	29.9605	4727.77	8201.81	9466.86	-60.0395	0.0000000E+000	0.0000000E+000	0.0000000E+000	60.0395	0.0000000E+000	0.0000000E+000	0.0000000E+000	-60.0395	0.0000000E+000	0.0000000E+000	0.0000000E+000	-29.9605	0.0000000E+000	0.0000000E+000	0.0000000E+000	29.9605	1.73481	60.0395	-5.89858e-06	-0.000174395	1.19323e-08	-0.000174407	3.96771	90257.8	6.17553	90264
1585.51	6.86826	3.94461	7.92041	-29.8698	13.7678	3.96742	-0.0434384	25.4476	6.3119	1	10	0.00520575	0.000657257	0	-8.01288e-05	-0.00029055	2.75305e-05	-65.3883	0.041887	0.0174445	0.0380816	-30.0451	7.95455	6.88571	3.98269	0.109484	0.0628794	0.126256	29.8698	6311.9	10990.1	12673.7	-60.1302	0.0000000E+000	0.0000000E+000	0.0000000E+000	60.1302	0.0000000E+000	0.0000000E+000	0.0000000E+000	-60.1302	0.0000000E+000	0.0000000E+000	0.0000000E+000	-29.8698	0.0000000E+000	0.0000000E+000	0.0000000E+000	29.8698	1.74118	60.1302	-4.84356e-06	-0.000172338	1.2621e-08	-0.000172351	3.96772	91334.5	6.68878	91341.2
1000.32	8.19238	4.52456	9.35878	-28.9114	14.6699	3.96743	-0.0432408	35.1645	8.21899	1	10	0.00503147	0.00053762	0	-9.0288e-05	7.22374e-05	8.54541e-06	-89.42	0.0158949	0.000160897	0.0158941	-28.996	9.36662	8.19255	4.54045	0.0935345	0.051658	0.106852	28.9114	8218.99	14881.7	17000.5	-61.0886	0.0000000E+000	0.0000000E+000	0.0000000E+000	61.0886	0.0000000E+000	0.0000000E+000	0.0000000E+000	-61.0886	0.0000000E+000	0.0000000E+000	0.0000000E+000	-28.9114	0.0000000E+000	0.0000000E+000	0.0000000E+000	28.9114	1.81065	61.0886	-5.17071e-06	-0.000171555	-3.1236e-09	-0.000171551	3.96736	91752.1	1.67059	91750.4
631.01	9.83003	4.96879	11.0145	-26.8153	15.5705	3.96743	-0.0427709	50.7614	10.3302	1	10	0.00493048	0.000447637	0	-0.000101216	5.31434e-05	8.53111e-06	-13.5926	0.0190581	0.0185243	0.00447899	-26.7926	11.033	9.84855	4.97327	0.0810267	0.0409566	0.0907898	26.8153	10330.2	20436.8	22899.2	-63.1847	0.0000000E+000	0.0000000E+000	0.0000000E+000	63.1847	0.0000000E+000	0.0000000E+000	0.0000000E+000	-63.1847	0.0000000E+000	0.0000000E+000	0.0000000E+000	-26.8153	0.0000000E+000	0.0000000E+000	0.0000000E+000	26.8153	1.97835	63.1847	-5.43375e-06	-0.000169691	-2.27299e-09	-0.000169688	3.96738	92760	1.24251	92758.8
398.089	11.7239	5.00204	12.7463	-23.1058	16.4718	3.96743	-0.0413167	79.9268	12.3088	1	10	0.00488809	0.000383489	0	-0.000111486	9.13315e-05	9.21085e-06	82.7001	0.0240185	0.00305185	-0.0238239	-23.0018	12.7398	11.7269	4.97822	0.0721604	0.0307876	0.0784539	23.1058	12308.8	28849.5	31365.6	-66.8942	0.0000000E+000	0.0000000E+000	0.0000000E+000	66.8942	0.0000000E+000	0.0000000E+000	0.0000000E+000	-66.8942	0.0000000E+000	0.0000000E+000	0.0000000E+000	-23.1058	0.0000000E+000	0.0000000E+000	0.0000000E+000	23.1058	2.34381	66.8942	-4.98867e-06	-0.000163921	-3.77351e-09	-0.000163917	3.96734	96025	2.21053	96022.8
251.044	13.5315	4.65488	14.3098	-18.9834	17.37	3.96743	-0.0423943	136.195	14.4116	1	10	0.0048718	0.000340453	0	-0.000121394	-6.1421e-05	1.50983e-05	-34.6221	0.0443477	0.0364945	0.0251966	-19.0311	14.3525	13.568	4.68007	0.0660816	0.0227323	0.0698823	18.9834	14411.6	41893.9	44303.4	-71.0166	0.0000000E+000	0.0000000E+000	0.0000000E+000	71.0166	0.0000000E+000	0.0000000E+000	0.0000000E+000	-71.0166	0.0000000E+000	0.0000000E+000	0.0000000E+000	-18.9834	0.0000000E+000	0.0000000E+000	0.0000000E+000	18.9834	2.90695	71.0166	-4.91521e-06	-0.000168196	2.6039e-09	-0.000168199	3.96749	93584.1	1.4488	93585.5
158.428	15.0216	4.0046	15.5462	-14.9273	18.2749	3.96743	-0.0416746	250.858	16.6455	1	10	0.00486228	0.000312762	0	-0.000130975	-6.1421e-05	8.04746e-06	34.1102	0.0257303	0.0213036	-0.0144292	-14.8558	15.5631	15.0429	3.99017	0.0621535	0.0165695	0.0643243	14.9273	16645.5	62438.6	64619.2	-75.0727	0.0000000E+000	0.0000000E+000	0.0000000E+000	75.0727	0.0000000E+000	0.0000000E+000	0.0000000E+000	-75.0727	0.0000000E+000	0.0000000E+000	0.0000000E+000	-14.9273	0.0000000E+000	0.0000000E+000	0.0000000E+000	14.9273	3.75108	75.0727	-4.93853e-06	-0.000165341	2.5597e-09	-0.000165344	3.96749	95200.2	1.47382	95201.7
100.032	16.1161	3.17704	16.4263	-11.1519	19.1728	3.96743	-0.0415889	500.794	18.7337	1	10	0.00485194	0.000295376	0	-0.00014136	-0.000175985	1.03264e-05	35.671	0.0349602	0.0284009	-0.0203863	-11.0631	16.4502	16.1445	3.15665	0.0597285	0.0117745	0.060878	11.1519	18733.7	95030.4	96859.3	-78.8481	0.0000000E+000	0.0000000E+000	0.0000000E+000	78.8481	0.0000000E+000	0.0000000E+000	0.0000000E+000	-78.8481	0.0000000E+000	0.0000000E+000	0.0000000E+000	-11.1519	0.0000000E+000	0.0000000E+000	0.0000000E+000	11.1519	5.07269	78.8481	-5.31033e-06	-0.000165001	7.31903e-09	-0.000165008	3.96761	95396.5	4.23155	95400.8
63.0823	16.8285	2.43815	17.0042	-8.24376	20.089	3.96743	-0.0401532	1034.79	21.2745	1	10	0.00484266	0.000284791	0	-0.000151304	-8.05151e-05	8.59811e-06	-23.2575	0.0301909	0.0277376	0.0119213	-8.27007	17.0334	16.8563	2.45007	0.0582012	0.0084323	0.0588089	8.24376	21274.5	146840	148373	-81.7562	0.0000000E+000	0.0000000E+000	0.0000000E+000	81.7562	0.0000000E+000	0.0000000E+000	0.0000000E+000	-81.7562	0.0000000E+000	0.0000000E+000	0.0000000E+000	-8.24376	0.0000000E+000	0.0000000E+000	0.0000000E+000	8.24376	6.90217	81.7562	-5.24457e-06	-0.000159305	3.23294e-09	-0.000159308	3.96751	98807.2	2.00519	98809.2
39.8089	17.3389	1.86052	17.4384	-6.1246	20.9899	3.96743	-0.0399668	2148.85	24.4603	1	10	0.00483569	0.000277301	0	-0.000161187	-0.000195079	6.40088e-06	84.7972	0.0230828	0.00209318	-0.0229877	-6.04877	17.438	17.341	1.83753	0.0570174	0.00611817	0.0573447	6.1246	24460.3	227954	229263	-83.8754	0.0000000E+000	0.0000000E+000	0.0000000E+000	83.8754	0.0000000E+000	0.0000000E+000	0.0000000E+000	-83.8754	0.0000000E+000	0.0000000E+000	0.0000000E+000	-6.1246	0.0000000E+000	0.0000000E+000	0.0000000E+000	6.1246	9.31936	83.8754	-4.84489e-06	-0.000158565	7.7967e-09	-0.000158573	3.96762	99268	4.88104	99272.9
25.1044	17.6496	1.43991	17.7083	-4.66402	22.1041	3.96744	-0.0417464	4402.87	29.1106	1	11	0.0048331	0.000272929	0	-0.000173377	-0.000214174	9.98721e-06	67.6602	0.0365927	0.0139089	-0.0338463	-4.55128	17.7194	17.6635	1.40606	0.0562838	0.00459179	0.0564708	4.66402	29110.6	356823	358009	-85.336	0.0000000E+000	0.0000000E+000	0.0000000E+000	85.336	0.0000000E+000	0.0000000E+000	0.0000000E+000	-85.336	0.0000000E+000	0.0000000E+000	0.0000000E+000	-4.66402	0.0000000E+000	0.0000000E+000	0.0000000E+000	4.66402	12.2575	85.336	-4.81034e-06	-0.000165627	8.94098e-09	-0.000165635	3.96766	95036.6	5.13034	95041.8
15.8576	17.9156	1.12992	17.9512	-3.60882	22.982	3.96744	-0.0413187	8882.49	35.1922	1	11	0.00483878	0.000269552	0	-0.000184668	-0.000175985	2.05346e-05	-37.1333	0.0761804	0.0607335	0.0459879	-3.74264	18.0147	17.9763	1.17591	0.0555962	0.00350641	0.0557067	3.60882	35192.1	557992	559101	-86.3912	0.0000000E+000	0.0000000E+000	0.0000000E+000	86.3912	0.0000000E+000	0.0000000E+000	0.0000000E+000	-86.3912	0.0000000E+000	0.0000000E+000	0.0000000E+000	-3.60882	0.0000000E+000	0.0000000E+000	0.0000000E+000	3.60882	15.8556	86.3912	-5.89834e-06	-0.00016393	7.27149e-09	-0.000163937	3.96762	96020.4	4.25922	96024.6
10.0032	18.1203	0.954746	18.1455	-3.01608	23.9638	3.96745	-0.0407411	16664.5	46.1352	1	11	0.00483995	0.00026673	0	-0.000194235	-4.13882e-06	1.04595e-05	-74.6922	0.0392139	0.0103527	0.0378227	-3.13354	18.1578	18.1307	0.992568	0.0550338	0.00289969	0.0551102	3.01608	46135.3	875611	876825	-86.9839	0.0000000E+000	0.0000000E+000	0.0000000E+000	86.9839	0.0000000E+000	0.0000000E+000	0.0000000E+000	-86.9839	0.0000000E+000	0.0000000E+000	0.0000000E+000	-3.01608	0.0000000E+000	0.0000000E+000	0.0000000E+000	3.01608	18.9792	86.9839	-2.86379e-06	-0.000161638	1.6862e-10	-0.000161638	3.96745	97381.9	0.101588	97382
6.31058	18.3349	0.891091	18.3566	-2.78243	24.8883	3.96743	-0.0412568	28302.8	66.6944	1	11	0.00484612	0.000263999	0	-0.000205649	-0.00048149	1.04568e-05	48.9733	0.0396091	0.0259998	-0.0298813	-2.68546	18.3811	18.3609	0.86121	0.0544122	0.00264447	0.0544764	2.78243	66694.4	1.37229e+06	1.37391e+06	-87.2176	0.0000000E+000	0.0000000E+000	0.0000000E+000	87.2176	0.0000000E+000	0.0000000E+000	0.0000000E+000	-87.2176	0.0000000E+000	0.0000000E+000	0.0000000E+000	-2.78243	0.0000000E+000	0.0000000E+000	0.0000000E+000	2.78243	20.5758	87.2176	-2.78719e-06	-0.000163684	1.98648e-08	-0.000163703	3.96791	96164.2	11.6706	96175.9
3.97785	18.4989	0.838981	18.5179	-2.59676	25.8953	3.96746	-0.0391268	47689.1	97.8902	1	11	0.00484057	0.000261399	0	-0.000216827	-0.000156891	7.13624e-06	34.6158	0.0273002	0.0224675	-0.0155084	-2.54573	18.5397	18.5214	0.823473	0.0539463	0.00244663	0.0540017	2.59676	97890.2	2.15841e+06	2.16062e+06	-87.4032	0.0000000E+000	0.0000000E+000	0.0000000E+000	87.4032	0.0000000E+000	0.0000000E+000	0.0000000E+000	-87.4032	0.0000000E+000	0.0000000E+000	0.0000000E+000	-2.59676	0.0000000E+000	0.0000000E+000	0.0000000E+000	2.59676	22.0493	87.4032	-8.23168e-06	-0.000155234	6.13866e-09	-0.00015524	3.96761	101400	4.00982	101404
2.51367	18.7026	0.847651	18.7218	-2.59502	27.4549	3.96746	-0.0388891	74695.4	153.121	1	11	0.00484264	0.000258664	0	-0.000235757	-0.000175985	4.86605e-06	-43.7966	0.0188122	0.0135787	0.01302	-2.63292	18.7359	18.7161	0.860671	0.053359	0.00241838	0.0534138	2.59502	153121	3.37846e+06	3.38193e+06	-87.405	0.0000000E+000	0.0000000E+000	0.0000000E+000	87.405	0.0000000E+000	0.0000000E+000	0.0000000E+000	-87.405	0.0000000E+000	0.0000000E+000	0.0000000E+000	-2.59502	0.0000000E+000	0.0000000E+000	0.0000000E+000	2.59502	22.064	87.405	-8.37328e-06	-0.000154291	6.84392e-09	-0.000154298	3.96764	102020	4.52531	102024
1.58469	18.9185	0.902671	18.94	-2.73173	29.8905	3.96746	-0.0379859	111262	252.725	1	11	0.00484511	0.000255814	0	-0.00025244	1.49552e-05	2.41229e-06	-16.2318	0.00942987	0.00905398	0.00263587	-2.73838	18.9491	18.9275	0.905307	0.0527384	0.00251635	0.0527984	2.73173	252725	5.29668e+06	5.30271e+06	-87.2683	0.0000000E+000	0.0000000E+000	0.0000000E+000	87.2683	0.0000000E+000	0.0000000E+000	0.0000000E+000	-87.2683	0.0000000E+000	0.0000000E+000	0.0000000E+000	-2.73173	0.0000000E+000	0.0000000E+000	0.0000000E+000	2.73173	20.9583	87.2683	-9.89599e-06	-0.000150708	-5.68089e-10	-0.000150707	3.96745	104446	0.393705	104445
1.00469	19.2746	0.947122	19.2979	-2.81316	240.708	3.96742	-0.0291276	167256	402.879	1	11	0.00503858	0.000261095	0	-0.0031422	-0.000214174	4.52682e-07	-1.29211	0.00173378	0.00173334	3.90962e-05	-2.81302	19.2996	19.2763	0.947161	0.0517568	0.00254324	0.0518192	2.81316	402879	8.19886e+06	8.20876e+06	-87.1868	0.0000000E+000	0.0000000E+000	0.0000000E+000	87.1868	0.0000000E+000	0.0000000E+000	0.0000000E+000	-87.1868	0.0000000E+000	0.0000000E+000	0.0000000E+000	-2.81316	0.0000000E+000	0.0000000E+000	0.0000000E+000	2.81316	20.3507	87.1868	-0.00287175	-0.000115561	6.23836e-09	-0.000115568	3.96764	136208	7.35294	136216
0.632957	19.5235	1.09461	19.5542	-3.20899	240.71	3.96742	-0.0291276	229714	719.821	1	11	0.00504981	0.000258247	0	-0.0031422	-0.000214174	3.6817e-07	-15.1022	0.00142565	0.00137642	0.000371442	-3.20985	19.5556	19.5249	1.09498	0.0510597	0.00286272	0.0511399	3.20899	719821	1.28388e+07	1.2859e+07	-86.791	0.0000000E+000	0.0000000E+000	0.0000000E+000	86.791	0.0000000E+000	0.0000000E+000	0.0000000E+000	-86.791	0.0000000E+000	0.0000000E+000	0.0000000E+000	-3.20899	0.0000000E+000	0.0000000E+000	0.0000000E+000	3.20899	17.8361	86.791	0.000000000000000E+000	-0.000115561	6.23836e-09	-0.000115568	3.96764	136208	7.35294	136216
0.401878	19.738	1.28885	19.78	-3.736	240.711	3.96742	-0.0291276	307272	1304.59	1	11	0.00506302	0.000255966	0	-0.0031422	-0.000214174	4.33748e-07	-10.4148	0.00169455	0.00166663	0.000306331	-3.73657	19.7817	19.7397	1.28916	0.0504486	0.00329419	0.050556	3.736	1.30459e+06	1.99791e+07	2.00216e+07	-86.264	0.0000000E+000	0.0000000E+000	0.0000000E+000	86.264	0.0000000E+000	0.0000000E+000	0.0000000E+000	-86.264	0.0000000E+000	0.0000000E+000	0.0000000E+000	-3.736	0.0000000E+000	0.0000000E+000	0.0000000E+000	3.736	15.3144	86.264	0.000000000000000E+000	-0.000115561	6.23836e-09	-0.000115568	3.96764	136208	7.35294	136216
0.251173	20.1523	1.59161	20.2151	-4.51579	240.713	3.96742	-0.0291276	398117	2467.93	1	11	0.00506589	0.0002506	0	-0.0031422	-0.000214174	3.85792e-07	8.62793	0.00153948	0.00152205	-0.000230948	-4.51479	20.2166	20.1538	1.59138	0.0493145	0.00389481	0.0494681	4.51579	2.46793e+06	3.12479e+07	3.13452e+07	-85.4842	0.0000000E+000	0.0000000E+000	0.0000000E+000	85.4842	0.0000000E+000	0.0000000E+000	0.0000000E+000	-85.4842	0.0000000E+000	0.0000000E+000	0.0000000E+000	-4.51579	0.0000000E+000	0.0000000E+000	0.0000000E+000	4.51579	12.6616	85.4842	0.000000000000000E+000	-0.000115561	6.23836e-09	-0.000115568	3.96764	136208	7.35294	136216
0.160751	20.5243	1.75561	20.5992	-4.88907	240.714	3.96742	-0.0291276	563948	4096.31	1	11	0.00505893	0.000245589	0	-0.0031422	-0.000214174	5.29979e-07	14.4699	0.002158	0.00208954	-0.000539221	-4.88708	20.6013	20.5264	1.75507	0.0483689	0.00413739	0.0485455	4.88907	4.0963e+06	4.78887e+07	4.80635e+07	-85.1109	0.0000000E+000	0.0000000E+000	0.0000000E+000	85.1109	0.0000000E+000	0.0000000E+000	0.0000000E+000	-85.1109	0.0000000E+000	0.0000000E+000	0.0000000E+000	-4.88907	0.0000000E+000	0.0000000E+000	0.0000000E+000	4.88907	11.6907	85.1109	0.000000000000000E+000	-0.000115561	6.23836e-09	-0.000115568	3.96764	136208	7.35294	136216
0.100469	20.9541	2.35794	21.0863	-6.42043	240.716	3.96742	-0.0291276	671821	8400.75	1	11	0.00506101	0.000240014	0	-0.0031422	-0.000214174	8.37096e-07	-1.51556	0.0034877	0.00348648	9.22441e-05	-6.41962	21.0898	20.9575	2.35803	0.0471267	0.00530312	0.0474241	6.42043	8.40076e+06	7.46541e+07	7.51253e+07	-83.5796	0.0000000E+000	0.0000000E+000	0.0000000E+000	83.5796	0.0000000E+000	0.0000000E+000	0.0000000E+000	-83.5796	0.0000000E+000	0.0000000E+000	0.0000000E+000	-6.42043	0.0000000E+000	0.0000000E+000	0.0000000E+000	6.42043	8.88659	83.5796	0.000000000000000E+000	-0.000115561	6.23836e-09	-0.000115568	3.96764	136208	7.35294	136216
0.0602816	21.6643	2.75604	21.8389	-7.24997	240.717	3.96742	-0.0291276	957966	15256.6	1	11	0.00505627	0.000231526	0	-0.0031422	-0.000214174	7.70473e-07	-12.7167	0.00332781	0.00324618	0.00073255	-7.2508	21.8422	21.6676	2.75677	0.0454237	0.00577861	0.0457898	7.24997	1.52566e+07	1.19927e+08	1.20894e+08	-82.75	0.0000000E+000	0.0000000E+000	0.0000000E+000	82.75	0.0000000E+000	0.0000000E+000	0.0000000E+000	-82.75	0.0000000E+000	0.0000000E+000	0.0000000E+000	-7.24997	0.0000000E+000	0.0000000E+000	0.0000000E+000	7.24997	7.86067	82.75	0.000000000000000E+000	-0.000115561	6.23836e-09	-0.000115568	3.96764	136208	7.35294	136216
0.0401878	22.5398	3.19292	22.7648	-8.06269	240.719	3.96742	-0.0291276	1.24033e+06	24399.7	1	11	0.00505506	0.000222056	0	-0.0031422	-0.000214174	3.95271e-07	-65.436	0.00178006	0.000739987	0.00161896	-8.06647	22.7658	22.5406	3.19454	0.0434932	0.00616111	0.0439274	8.06269	2.43997e+07	1.72245e+08	1.73965e+08	-81.9373	0.0000000E+000	0.0000000E+000	0.0000000E+000	81.9373	0.0000000E+000	0.0000000E+000	0.0000000E+000	-81.9373	0.0000000E+000	0.0000000E+000	0.0000000E+000	-8.06269	0.0000000E+000	0.0000000E+000	0.0000000E+000	8.06269	7.05931	81.9373	0.000000000000000E+000	-0.000115561	6.23836e-09	-0.000115568	3.96764	136208	7.35294	136216
0.0200939	24.1471	4.73087	24.6062	-11.0849	240.721	3.96742	-0.0291276	1.67423e+06	61888.4	1	11	0.00505859	0.000205582	0	-0.0031422	-0.000214174	1.53198e-06	7.86212	0.00745191	0.00738186	-0.00101934	-11.0793	24.6132	24.1545	4.72985	0.039882	0.00781362	0.0406402	11.0849	6.18884e+07	3.15888e+08	3.21893e+08	-78.9151	0.0000000E+000	0.0000000E+000	0.0000000E+000	78.9151	0.0000000E+000	0.0000000E+000	0.0000000E+000	-78.9151	0.0000000E+000	0.0000000E+000	0.0000000E+000	-11.0849	0.0000000E+000	0.0000000E+000	0.0000000E+000	11.0849	5.10416	78.9151	0.000000000000000E+000	-0.000115561	6.23836e-09	-0.000115568	3.96764	136208	7.35294	136216
0.00796479	29.2602	6.03751	29.8766	-11.6587	20329.5	3.96745	0.00019566	3.3097e+06	135158	1	11	0.00505287	0.000169124	0	-0.0157012	-4.23269e-05	8.44895e-07	167.295	0.0049957	-0.00487339	-0.0010987	-11.6585	29.8716	29.2554	6.03641	0.0327804	0.00676385	0.033471	11.6587	1.35158e+08	6.55029e+08	6.68828e+08	-78.3413	0.0000000E+000	0.0000000E+000	0.0000000E+000	78.3413	0.0000000E+000	0.0000000E+000	0.0000000E+000	-78.3413	0.0000000E+000	0.0000000E+000	0.0000000E+000	-11.6587	0.0000000E+000	0.0000000E+000	0.0000000E+000	11.6587	4.84641	78.3413	-0.0125589	7.76271e-07	-8.28169e-12	7.76279e-07	3.96749	2.02772e+07	216.329	2.02775e+07
0.00497799	31.4444	6.46688	32.1025	-11.6215	20329.5	3.96745	0.00019566	4.94392e+06	200624	1	11	0.00506095	0.00015765	0	-0.0157012	-4.23269e-05	1.2056e-06	-145.925	0.00764735	-0.00633433	0.00428465	-11.6312	32.0971	31.438	6.47116	0.0305117	0.00627506	0.0311502	11.6215	2.00624e+08	9.7551e+08	9.95927e+08	-78.3785	0.0000000E+000	0.0000000E+000	0.0000000E+000	78.3785	0.0000000E+000	0.0000000E+000	0.0000000E+000	-78.3785	0.0000000E+000	0.0000000E+000	0.0000000E+000	-11.6215	0.0000000E+000	0.0000000E+000	0.0000000E+000	11.6215	4.86237	78.3785	0.000000000000000E+000	7.76271e-07	-8.28169e-12	7.76279e-07	3.96749	2.02772e+07	216.329	2.02775e+07
0.00318591	33.027	7.95922	33.9725	-13.5494	20329.5	3.96745	0.00019566	6.27647e+06	344510	1	11	0.00506281	0.000149027	0	-0.0157012	-4.23269e-05	1.07197e-06	2.01446	0.00719315	0.00718871	-0.000252852	-13.5462	33.9794	33.0342	7.95897	0.0286163	0.00689629	0.0294356	13.5494	3.4451e+08	1.42955e+09	1.47048e+09	-76.4506	0.0000000E+000	0.0000000E+000	0.0000000E+000	76.4506	0.0000000E+000	0.0000000E+000	0.0000000E+000	-76.4506	0.0000000E+000	0.0000000E+000	0.0000000E+000	-13.5494	0.0000000E+000	0.0000000E+000	0.0000000E+000	13.5494	4.14953	76.4506	0.000000000000000E+000	7.76271e-07	-8.28169e-12	7.76279e-07	3.96749	2.02772e+07	216.329	2.02775e+07
0.0019912	34.6149	8.90496	35.742	-14.427	20329.5	3.96745	0.00019566	8.97582e+06	557161	1	11	0.00506651	0.000141752	0	-0.0157012	-4.23269e-05	8.25619e-07	-135.176	0.00582437	-0.00413107	0.0041058	-14.435	35.739	34.6108	8.90906	0.027096	0.00697067	0.0279783	14.427	5.57161e+08	2.16577e+09	2.23629e+09	-75.573	0.0000000E+000	0.0000000E+000	0.0000000E+000	75.573	0.0000000E+000	0.0000000E+000	0.0000000E+000	-75.573	0.0000000E+000	0.0000000E+000	0.0000000E+000	-14.427	0.0000000E+000	0.0000000E+000	0.0000000E+000	14.427	3.88715	75.573	0.000000000000000E+000	7.76271e-07	-8.28169e-12	7.76279e-07	3.96749	2.02772e+07	216.329	2.02775e+07
0.00129428	35.0443	10.0298	36.4513	-15.9712	20329.6	3.96745	0.00019566	1.22603e+07	928231	1	11	0.0050652	0.000138958	0	-0.0157012	-4.23269e-05	4.23214e-07	52.6425	0.00304563	0.00184804	-0.00242086	-15.9668	36.4524	35.0461	10.0273	0.0263749	0.00754855	0.0274338	15.9712	9.28231e+08	3.24327e+09	3.37349e+09	-74.0288	0.0000000E+000	0.0000000E+000	0.0000000E+000	74.0288	0.0000000E+000	0.0000000E+000	0.0000000E+000	-74.0288	0.0000000E+000	0.0000000E+000	0.0000000E+000	-15.9712	0.0000000E+000	0.0000000E+000	0.0000000E+000	15.9712	3.49403	74.0288	0.000000000000000E+000	7.76271e-07	-8.28169e-12	7.76279e-07	3.96749	2.02772e+07	216.329	2.02775e+07
0.000796479	37.0681	12.7269	39.1921	-18.9492	20329.6	3.96745	0.00019566	1.57009e+07	1.65566e+06	1	11	0.00506519	0.00012924	0	-0.0157012	-4.23269e-05	1.45054e-06	-171.506	0.0112236	-0.0111005	0.00165776	-18.9568	39.1821	37.057	12.7285	0.0241326	0.00828561	0.0255154	18.9492	1.65566e+09	4.82226e+09	5.09856e+09	-71.0508	0.0000000E+000	0.0000000E+000	0.0000000E+000	71.0508	0.0000000E+000	0.0000000E+000	0.0000000E+000	-71.0508	0.0000000E+000	0.0000000E+000	0.0000000E+000	-18.9492	0.0000000E+000	0.0000000E+000	0.0000000E+000	18.9492	2.91259	71.0508	0.000000000000000E+000	7.76271e-07	-8.28169e-12	7.76279e-07	3.96749	2.02772e+07	216.329	2.02775e+07
0.000497799	37.8653	16.6932	41.3817	-23.7907	20329.6	3.96745	0.00019566	1.91525e+07	3.11666e+06	1	11	0.0050664	0.000122431	0	-0.0157012	-4.23269e-05	9.24338e-07	-69.9662	0.00754988	0.0025864	0.00709304	-23.7982	41.3869	37.8679	16.7003	0.0221118	0.00974819	0.0241653	23.7907	3.11666e+09	7.06953e+09	7.72605e+09	-66.2093	0.0000000E+000	0.0000000E+000	0.0000000E+000	66.2093	0.0000000E+000	0.0000000E+000	0.0000000E+000	-66.2093	0.0000000E+000	0.0000000E+000	0.0000000E+000	-23.7907	0.0000000E+000	0.0000000E+000	0.0000000E+000	23.7907	2.2683	66.2093	0.000000000000000E+000	7.76271e-07	-8.28169e-12	7.76279e-07	3.96749	2.02772e+07	216.329	2.02775e+07
0.000298679	37.8518	27.1054	46.556	-35.6062	20329.6	3.96745	0.00019566	1.96589e+07	6.66376e+06	1	11	0.00506547	0.000108804	0	-0.0157012	-4.23269e-05	9.12156e-07	-94.6725	0.00838349	-0.000682919	0.00835563	-35.615	46.5603	37.8511	27.1138	0.0174637	0.0125056	0.0214795	35.6062	6.66376e+09	9.30572e+09	1.14456e+10	-54.3938	0.0000000E+000	0.0000000E+000	0.0000000E+000	54.3938	0.0000000E+000	0.0000000E+000	0.0000000E+000	-54.3938	0.0000000E+000	0.0000000E+000	0.0000000E+000	-35.6062	0.0000000E+000	0.0000000E+000	0.0000000E+000	35.6062	1.39647	54.3938	0.000000000000000E+000	7.76271e-07	-8.28169e-12	7.76279e-07	3.96749	2.02772e+07	216.329	2.02775e+07
9.95598e-05	42.909	89.6588	99.3976	-64.4251	20329.6	3.96745	0.00019566	1.78297e+07	1.4507e+07	1	11	0.00506766	5.09837e-05	0	-0.0157012	-4.23269e-05	3.22774e-06	-5.39881	0.0633092	0.0630284	0.00595661	-64.3939	99.4302	42.972	89.6648	0.00434306	0.00907489	0.0100606	64.4251	1.4507e+10	6.94276e+09	1.60827e+10	-25.5749	0.0000000E+000	0.0000000E+000	0.0000000E+000	25.5749	0.0000000E+000	0.0000000E+000	0.0000000E+000	-25.5749	0.0000000E+000	0.0000000E+000	0.0000000E+000	-64.4251	0.0000000E+000	0.0000000E+000	0.0000000E+000	64.4251	0.478581	25.5749	0.000000000000000E+000	7.76271e-07	-8.28169e-12	7.76279e-07	3.96749	2.02772e+07	216.329	2.02775e+07