File: txt/18699_R307_UC91_26p5_SOC50_C01.mpt
EC-Lab ASCII FILE
Nb header lines : 65

Potentio Electrochemical Impedance Spectroscopy

Run on channel : 1 (SN 66354)
User :
CE vs. WE compliance from -10 V to 10 V
Electrode connection : standard
Potential control : Ewe
Ewe ctrl range : min = -10.00 V, max = 10.00 V
Safety Limits :
	Do not start on E overload
Acquisition started on : 10/30/2025 15:42:55.319
Technique started on : 10/30/2025 15:42:58.014
Loaded Setting File :  C:\Users\Celltest\OneDrive - store-dot.com\Documents\EC-Lab\Data\@Biologic Test Protocols\cathode half cell EIS SOC50.mps
Saved on :
	File : 18699_R307_UC91_26p5_SOC50_C01.mpr
	Directory : C:\Users\Celltest\OneDrive - store-dot.com\Documents\EC-Lab\Data\Anna\
	Host : 169.254.61.224
Device : VMP-3e (SN .003165)
Address : USB
EC-LAB for windows v11.62 (software)
Internet server v27.00 (firmware)
Command interpretor v12.03 (firmware)
Electrode material :
Initial state :
Electrolyte :
Comments :
Electrode surface area : 0.001 cm²
Characteristic mass : 0.001 g
Equivalent Weight : 0.000 g/eq.
Density : 0.000 g/cm3
Volume (V) : 0.001 cm³
Record Ece
Cycle Definition : Charge/Discharge alternance
Mode                Multi sine
E (V)               0.0000
vs.                 Eoc
tE (h:m:s)          0:00:0.0000
record              0
dI                  0.000
unit dI             mA
dt (s)              0.000
fi                  1.000
unit fi             MHz
ff                  0.100
unit ff             mHz
Nd                  10
Points              per decade
spacing             Logarithmic
Va (mV)             5.0
pw                  0.10
Na                  2
corr                0
E range min (V)     -10.000
E range max (V)     10.000
I Range             Auto
Bandwidth           5
nc cycles           0
goto Ns'            0
nr cycles           0
inc. cycle          0

freq/Hz	Re(Z)/Ohm	-Im(Z)/Ohm	|Z|/Ohm	Phase(Z)/deg	time/s	<Ewe>/V	<I>/mA	Cs/µF	Cp/µF	cycle number	I Range	|Ewe|/V	|I|/A	Ns	(Q-Qo)/mA.h	<Ece>/V	|Ece|/V	Phase(Zce)/deg	|Zce|/Ohm	Re(Zce)/Ohm	-Im(Zce)/Ohm	Phase(Zwe-ce)/deg	|Zwe-ce|/Ohm	Re(Zwe-ce)/Ohm	-Im(Zwe-ce)/Ohm	Re(Y)/Ohm-1	Im(Y)/Ohm-1	|Y|/Ohm-1	Phase(Y)/deg	Re(C)/nF	Im(C)/nF	|C|/nF	Phase(C)/deg	Re(M)	Im(M)	|M|	Phase(M)/deg	Re(Permittivity)	Im(Permittivity)	|Permittivity|	Phase(Permittivity)/deg	Re(Resistivity)/Ohm.cm	Im(Resistivity)/Ohm.cm	|Resistivity|/Ohm.cm	Phase(Resistivity)/deg	Re(Conductivity)/mS/cm	Im(Conductivity)/mS/cm	|Conductivity|/mS/cm	Phase(Conductivity)/deg	Tan(Delta)	Loss Angle(Delta)/deg	dq/mA.h	Pwe/W	Pce/W	Pwe-ce/W	<Ewe-Ece>/V	Rwe/Ohm	Rce/Ohm	Rwe-ce/Ohm		Ewe-Ece/V
1.00002e+06	2.69995	2.38261	3.60091	-41.4273	2.69451	3.97149	-0.00158069	0.0667973	0.0292442	1	10	0.000237662	6.60006e-05	0	4.74604e-06	2.1417e-05	0.000191202	-71.0865	2.89697	0.939022	2.74056	-54.6139	6.28403	3.63897	5.12317	0.208224	0.18375	0.277708	41.4273	29.2442	33.1393	44.1977	-48.5727	0.0000000E+000	0.0000000E+000	0.0000000E+000	48.5727	0.0000000E+000	0.0000000E+000	0.0000000E+000	-48.5727	0.0000000E+000	0.0000000E+000	0.0000000E+000	-41.4273	0.0000000E+000	0.0000000E+000	0.0000000E+000	41.4273	1.13319	48.5727	4.74604e-06	-6.27767e-06	-3.38535e-11	-6.27764e-06	3.97147	2.51251e+06	13.5492	2.5125e+06
630957	0.97997	-0.0555074	0.981541	3.24188	3.86356	3.97107	-0.014124	-4.54433	-0.014533	1	9	0.000335778	0.000342093	0	4.42177e-06	0.00021219	0.000129008	-116.348	0.377113	-0.16737	0.337937	-19.1655	0.860282	0.8126	0.282429	1.01718	-0.0576148	1.01881	-3.24188	-14.533	256.576	256.988	-93.2419	0.0000000E+000	0.0000000E+000	0.0000000E+000	93.2419	0.0000000E+000	0.0000000E+000	0.0000000E+000	-93.2419	0.0000000E+000	0.0000000E+000	0.0000000E+000	3.24188	0.0000000E+000	0.0000000E+000	0.0000000E+000	-3.24188	17.6548	86.7581	-2.24408e-07	-5.60875e-05	-2.99698e-09	-5.60845e-05	3.97086	281157	15.0233	281142
398103	1.26109	0.183695	1.2744	-8.2876	4.62956	3.97112	-0.0103986	2.17635	0.0452178	1	9	0.00122634	0.000962289	0	3.47057e-06	-7.39696e-05	6.45145e-05	172.05	0.0670427	-0.0663983	-0.00927269	-8.30635	1.20736	1.19469	0.174422	0.776489	0.113106	0.784684	8.2876	45.2178	310.427	313.703	-81.7124	0.0000000E+000	0.0000000E+000	0.0000000E+000	81.7124	0.0000000E+000	0.0000000E+000	0.0000000E+000	-81.7124	0.0000000E+000	0.0000000E+000	0.0000000E+000	-8.2876	0.0000000E+000	0.0000000E+000	0.0000000E+000	8.2876	6.86515	81.7124	-1.09569e-06	-4.1294e-05	7.69179e-10	-4.12948e-05	3.9712	381891	7.11343	381898
251206	1.39561	0.460529	1.46963	-18.2621	5.39554	3.97107	0.000703263	1.37573	0.135093	1	9	0.00381324	0.00259469	0	3.1428e-06	0.000402963	5.44594e-05	115.059	0.0209887	-0.0088897	-0.0190132	-17.6609	1.45531	1.38672	0.441516	0.646172	0.213227	0.680444	18.2621	135.093	409.391	431.104	-71.7379	0.0000000E+000	0.0000000E+000	0.0000000E+000	71.7379	0.0000000E+000	0.0000000E+000	0.0000000E+000	-71.7379	0.0000000E+000	0.0000000E+000	0.0000000E+000	-18.2621	0.0000000E+000	0.0000000E+000	0.0000000E+000	18.2621	3.03045	71.7379	-2.375e-06	2.79271e-06	2.83389e-10	2.79243e-06	3.97067	5.64664e+06	572.99	5.64607e+06
158486	1.56523	0.714084	1.72042	-24.5233	6.16152	3.97105	0.00830316	1.4063	0.242275	1	9	0.00537257	0.00312282	0	-1.38397e-05	-5.48923e-05	5.14986e-05	101.069	0.0164911	-0.00316615	-0.0161843	-24.0742	1.71088	1.56206	0.6979	0.528819	0.241257	0.581253	24.5233	242.275	531.051	583.705	-65.4767	0.0000000E+000	0.0000000E+000	0.0000000E+000	65.4767	0.0000000E+000	0.0000000E+000	0.0000000E+000	-65.4767	0.0000000E+000	0.0000000E+000	0.0000000E+000	-24.5233	0.0000000E+000	0.0000000E+000	0.0000000E+000	24.5233	2.19194	65.4767	-8.44717e-06	3.29722e-05	-4.55779e-10	3.29727e-05	3.9711	478258	6.61101	478264
100004	1.75966	0.958609	2.00383	-28.5802	6.92752	3.97107	0.0187344	1.66021	0.379947	1	9	0.00543542	0.00271251	0	-2.76025e-05	0.000135881	3.24257e-05	99.355	0.0119541	-0.00194315	-0.0117951	-28.3096	1.99651	1.75772	0.946814	0.438235	0.238736	0.499044	28.5802	379.947	697.446	794.223	-61.4198	0.0000000E+000	0.0000000E+000	0.0000000E+000	61.4198	0.0000000E+000	0.0000000E+000	0.0000000E+000	-61.4198	0.0000000E+000	0.0000000E+000	0.0000000E+000	-28.5802	0.0000000E+000	0.0000000E+000	0.0000000E+000	28.5802	1.83564	61.4198	-9.15518e-06	7.43954e-05	2.54564e-09	7.43928e-05	3.97093	211967	7.25303	211960
63093.8	2.05943	1.24102	2.40445	-31.0732	7.81957	3.97106	0.0194794	2.03262	0.541476	1	9	0.00546402	0.00227246	0	-2.07165e-05	2.1417e-05	2.8836e-05	89.9964	0.0126893	8.01169e-07	-0.0126893	-30.8135	2.39793	2.05943	1.22833	0.356218	0.214658	0.415895	31.0732	541.476	898.564	1049.1	-58.9268	0.0000000E+000	0.0000000E+000	0.0000000E+000	58.9268	0.0000000E+000	0.0000000E+000	0.0000000E+000	-58.9268	0.0000000E+000	0.0000000E+000	0.0000000E+000	-31.0732	0.0000000E+000	0.0000000E+000	0.0000000E+000	31.0732	1.65947	58.9268	4.18709e-06	7.73542e-05	4.1719e-10	7.73537e-05	3.97104	203859	1.09946	203858
39814.1	2.47805	1.52727	2.91089	-31.6464	8.83356	3.97107	0.0256636	2.61738	0.720525	1	9	0.00503985	0.00173138	0	-9.78859e-06	0.000288499	9.76099e-06	30.6575	0.0056377	0.00484972	-0.0028747	-31.5482	2.91351	2.4829	1.5244	0.292455	0.180246	0.343538	31.6464	720.525	1169.07	1373.28	-58.3536	0.0000000E+000	0.0000000E+000	0.0000000E+000	58.3536	0.0000000E+000	0.0000000E+000	0.0000000E+000	-58.3536	0.0000000E+000	0.0000000E+000	0.0000000E+000	-31.6464	0.0000000E+000	0.0000000E+000	0.0000000E+000	31.6464	1.62253	58.3536	8.17854e-06	0.000101912	7.40394e-09	0.000101905	3.97078	154735	11.2416	154724
25116.9	2.96017	1.86109	3.49661	-32.158	9.59955	3.97104	0.0142638	3.40476	0.964555	1	9	0.00480626	0.00137455	0	-1.24354e-06	7.86489e-05	1.50537e-05	-86.0067	0.0109517	0.00076268	0.0109251	-32.3026	3.50308	2.96094	1.87201	0.242116	0.15222	0.285991	32.158	964.555	1534.18	1812.2	-57.842	0.0000000E+000	0.0000000E+000	0.0000000E+000	57.842	0.0000000E+000	0.0000000E+000	0.0000000E+000	-57.842	0.0000000E+000	0.0000000E+000	0.0000000E+000	-32.158	0.0000000E+000	0.0000000E+000	0.0000000E+000	32.158	1.59056	57.842	2.80902e-06	5.66422e-05	1.12183e-09	5.66411e-05	3.97097	278400	5.51388	278394
15847.7	3.57942	2.15877	4.18002	-31.0943	10.2436	3.97104	0.01825	4.6521	1.2408	1	9	0.00451691	0.0010806	0	2.97795e-06	-0.000112124	8.87076e-06	-111.634	0.00820914	-0.00302653	0.00763086	-31.2053	4.18138	3.5764	2.1664	0.20486	0.123552	0.239233	31.0943	1240.8	2057.36	2402.57	-58.9057	0.0000000E+000	0.0000000E+000	0.0000000E+000	58.9057	0.0000000E+000	0.0000000E+000	0.0000000E+000	-58.9057	0.0000000E+000	0.0000000E+000	0.0000000E+000	-31.0943	0.0000000E+000	0.0000000E+000	0.0000000E+000	31.0943	1.65809	58.9057	9.13934e-07	7.24715e-05	-2.04627e-09	7.24736e-05	3.97115	217591	6.14379	217597
10002.2	4.22562	2.41712	4.8681	-29.7703	11.0406	3.9711	-0.00804317	6.58301	1.62295	1	10	0.00490657	0.0010079	0	2.68415e-06	0.000383886	8.08435e-06	-67.7932	0.00802096	0.00303153	0.007426	-29.8283	4.87442	4.22865	2.42455	0.178309	0.101995	0.205419	29.7703	1622.95	2837.24	3268.62	-60.2297	0.0000000E+000	0.0000000E+000	0.0000000E+000	60.2297	0.0000000E+000	0.0000000E+000	0.0000000E+000	-60.2297	0.0000000E+000	0.0000000E+000	0.0000000E+000	-29.7703	0.0000000E+000	0.0000000E+000	0.0000000E+000	29.7703	1.7482	60.2297	2.08423e-07	-3.19402e-05	-3.08766e-09	-3.19371e-05	3.97071	493723	47.7282	493675
6309.38	4.91426	2.7254	5.61941	-29.0123	11.5625	3.9711	-0.00669402	9.25557	2.17712	1	10	0.0048012	0.000854396	0	1.20661e-06	-0.000264743	8.62761e-06	-113.156	0.0100979	-0.00397094	0.00928436	-29.1147	5.62044	4.91029	2.73468	0.155624	0.0863077	0.177955	29.0123	2177.12	3925.64	4488.93	-60.9877	0.0000000E+000	0.0000000E+000	0.0000000E+000	60.9877	0.0000000E+000	0.0000000E+000	0.0000000E+000	-60.9877	0.0000000E+000	0.0000000E+000	0.0000000E+000	-29.0123	0.0000000E+000	0.0000000E+000	0.0000000E+000	29.0123	1.80313	60.9877	-2.84332e-07	-2.65826e-05	1.77219e-09	-2.65844e-05	3.97137	593231	39.5491	593271
3983.6	5.69683	3.0757	6.47408	-28.3645	12.1251	3.97098	-0.0220714	12.9897	2.93178	1	10	0.00467006	0.000721347	0	-6.69589e-07	0.000154958	1.04345e-05	-1.15349	0.0144653	0.0144624	0.000291199	-28.3061	6.48695	5.71129	3.07599	0.135918	0.0733816	0.154462	28.3645	2931.78	5430.26	6171.15	-61.6355	0.0000000E+000	0.0000000E+000	0.0000000E+000	61.6355	0.0000000E+000	0.0000000E+000	0.0000000E+000	-61.6355	0.0000000E+000	0.0000000E+000	0.0000000E+000	-28.3645	0.0000000E+000	0.0000000E+000	0.0000000E+000	28.3645	1.8522	61.6355	-9.95356e-07	-8.7645e-05	-3.42014e-09	-8.76416e-05	3.97083	179915	7.02077	179908
2510.8	6.56755	3.54878	7.46502	-28.3846	12.9498	3.971	0.00518745	17.8619	4.03669	1	10	0.00457463	0.000612809	0	3.66103e-07	-1.67377e-05	6.96772e-06	-28.6433	0.0113701	0.00997867	0.00545033	-28.385	7.47639	6.57752	3.55423	0.117853	0.0636821	0.133958	28.3846	4036.69	7470.48	8491.35	-61.6154	0.0000000E+000	0.0000000E+000	0.0000000E+000	61.6154	0.0000000E+000	0.0000000E+000	0.0000000E+000	-61.6154	0.0000000E+000	0.0000000E+000	0.0000000E+000	-28.3846	0.0000000E+000	0.0000000E+000	0.0000000E+000	28.3846	1.85065	61.6154	1.18379e-06	2.05994e-05	-8.68258e-11	2.05995e-05	3.97102	765501	3.22657	765505
1585.51	7.58619	4.10534	8.62578	-28.4205	13.8518	3.971	0.00517254	24.4514	5.53866	1	10	0.00451315	0.000523217	0	1.43931e-06	-0.000169356	8.27076e-06	-36.3005	0.0158075	0.0127396	0.00935836	-28.4348	8.64143	7.59893	4.1147	0.101959	0.0551763	0.115932	28.4205	5538.66	10234.8	11637.3	-61.5795	0.0000000E+000	0.0000000E+000	0.0000000E+000	61.5795	0.0000000E+000	0.0000000E+000	0.0000000E+000	-61.5795	0.0000000E+000	0.0000000E+000	0.0000000E+000	-28.4205	0.0000000E+000	0.0000000E+000	0.0000000E+000	28.4205	1.84788	61.5795	2.92852e-07	2.05402e-05	-8.76002e-10	2.05411e-05	3.97117	767708	32.7414	767741
1000.32	8.85914	4.77132	10.0623	-28.3058	14.9678	3.97099	0.00472158	33.3459	7.49765	1	10	0.00498156	0.000495072	0	3.72212e-06	2.1417e-05	1.40521e-05	-82.0553	0.0283839	0.00392316	0.0281115	-28.436	10.0791	8.86306	4.79943	0.0874978	0.0471242	0.0993809	28.3058	7497.66	13921.3	15811.9	-61.6942	0.0000000E+000	0.0000000E+000	0.0000000E+000	61.6942	0.0000000E+000	0.0000000E+000	0.0000000E+000	-61.6942	0.0000000E+000	0.0000000E+000	0.0000000E+000	-28.3058	0.0000000E+000	0.0000000E+000	0.0000000E+000	28.3058	1.85675	61.6942	8.11605e-07	1.87494e-05	1.01122e-10	1.87493e-05	3.97097	841030	4.53597	841026
631.01	10.4395	5.45403	11.7783	-27.5845	15.8686	3.97099	0.00417372	46.2452	9.91593	1	10	0.00495242	0.000420468	0	4.41057e-06	-9.30469e-05	2.04085e-05	62.5795	0.0485376	0.0223524	-0.0430844	-27.3484	11.7783	10.4618	5.41094	0.0752508	0.0393142	0.0849016	27.5845	9915.94	18980	21414.1	-62.4155	0.0000000E+000	0.0000000E+000	0.0000000E+000	62.4155	0.0000000E+000	0.0000000E+000	0.0000000E+000	-62.4155	0.0000000E+000	0.0000000E+000	0.0000000E+000	-27.5845	0.0000000E+000	0.0000000E+000	0.0000000E+000	27.5845	1.91409	62.4155	2.12793e-07	1.65738e-05	-3.88352e-10	1.65742e-05	3.97108	951427	22.2935	951449
398.089	12.4326	6.07894	13.8392	-26.0564	16.7698	3.97099	0.00507564	65.7676	12.6896	1	10	0.0049588	0.000358316	0	5.47398e-06	0.000154958	1.0234e-05	-27.9046	0.0285613	0.0252404	0.0133667	-26.0602	13.8677	12.4578	6.09231	0.0649144	0.03174	0.0722586	26.0564	12689.6	25952.6	28888.8	-63.9436	0.0000000E+000	0.0000000E+000	0.0000000E+000	63.9436	0.0000000E+000	0.0000000E+000	0.0000000E+000	-63.9436	0.0000000E+000	0.0000000E+000	0.0000000E+000	-26.0564	0.0000000E+000	0.0000000E+000	0.0000000E+000	26.0564	2.04519	63.9436	4.8774e-07	2.01553e-05	7.86511e-10	2.01545e-05	3.97084	782364	30.5298	782333
251.044	14.6763	6.26726	15.9585	-23.124	17.6681	3.971	0.00475512	101.156	15.6014	1	10	0.00493871	0.000309473	0	6.87017e-06	0.000307577	4.36184e-06	-75.9059	0.0140944	0.00343222	0.0136702	-23.1643	15.967	14.6797	6.28093	0.0576281	0.0246091	0.0626627	23.124	15601.4	36534.6	39726.3	-66.876	0.0000000E+000	0.0000000E+000	0.0000000E+000	66.876	0.0000000E+000	0.0000000E+000	0.0000000E+000	-66.876	0.0000000E+000	0.0000000E+000	0.0000000E+000	-23.124	0.0000000E+000	0.0000000E+000	0.0000000E+000	23.124	2.34174	66.876	6.68862e-07	1.88826e-05	1.46256e-09	1.88811e-05	3.97069	835100	64.6833	835035
158.428	17.0215	5.91358	18.0195	-19.1581	18.5728	3.97099	0.00466567	169.878	18.2958	1	10	0.00494214	0.000274266	0	8.73259e-06	-0.000169356	6.35543e-06	61.4355	0.0231725	0.0110799	-0.0203519	-19.0854	18.0233	17.0326	5.89322	0.0524219	0.0182123	0.0554954	19.1581	18295.8	52662.3	55749.9	-70.8419	0.0000000E+000	0.0000000E+000	0.0000000E+000	70.8419	0.0000000E+000	0.0000000E+000	0.0000000E+000	-70.8419	0.0000000E+000	0.0000000E+000	0.0000000E+000	-19.1581	0.0000000E+000	0.0000000E+000	0.0000000E+000	19.1581	2.87838	70.8419	8.17652e-07	1.85274e-05	-7.9016e-10	1.85281e-05	3.97116	851109	36.2983	851145
100.032	19.0122	5.09512	19.6831	-15.0023	19.4708	3.97099	0.00424825	312.267	20.9242	1	10	0.00493599	0.000250773	0	9.681e-06	-0.00028382	9.83385e-06	-46.1719	0.0392141	0.0271557	0.0282899	-15.0613	19.7167	19.0394	5.12341	0.0490733	0.0131513	0.050805	15.0023	20924.2	78077.6	80832.7	-74.9977	0.0000000E+000	0.0000000E+000	0.0000000E+000	74.9977	0.0000000E+000	0.0000000E+000	0.0000000E+000	-74.9977	0.0000000E+000	0.0000000E+000	0.0000000E+000	-15.0023	0.0000000E+000	0.0000000E+000	0.0000000E+000	15.0023	3.73145	74.9977	6.05071e-07	1.68698e-05	-1.20574e-09	1.6871e-05	3.97128	934735	66.8086	934802
63.0823	20.517	3.98829	20.901	-11.0005	20.639	3.97105	0.000695587	632.596	23.0337	1	11	0.0049361	0.000236165	0	1.09291e-05	-1.67377e-05	3.9658e-06	64.3378	0.0167925	0.00727223	-0.0151361	-10.956	20.9053	20.5243	3.97315	0.0469654	0.00912957	0.0478445	11.0005	23033.7	118492	120710	-78.9995	0.0000000E+000	0.0000000E+000	0.0000000E+000	78.9995	0.0000000E+000	0.0000000E+000	0.0000000E+000	-78.9995	0.0000000E+000	0.0000000E+000	0.0000000E+000	-11.0005	0.0000000E+000	0.0000000E+000	0.0000000E+000	11.0005	5.14431	78.9995	4.05779e-07	2.76221e-06	-1.16425e-11	2.76222e-06	3.97107	5.70892e+06	24.0626	5.70894e+06
39.8089	21.4061	3.06739	21.6247	-8.15469	21.5399	3.97104	0.000331016	1303.38	26.2245	1	11	0.00492938	0.000227951	0	1.09945e-05	0.00021219	5.5482e-06	43.9946	0.0243395	0.0175099	-0.0169059	-8.10381	21.6397	21.4236	3.05048	0.0457758	0.00655944	0.0462433	8.15469	26224.5	183010	184880	-81.8453	0.0000000E+000	0.0000000E+000	0.0000000E+000	81.8453	0.0000000E+000	0.0000000E+000	0.0000000E+000	-81.8453	0.0000000E+000	0.0000000E+000	0.0000000E+000	-8.15469	0.0000000E+000	0.0000000E+000	0.0000000E+000	8.15469	6.9786	81.8453	9.67513e-08	1.31448e-06	7.02383e-11	1.31441e-06	3.97083	1.19965e+07	641.027	1.19959e+07
25.1044	21.9935	2.29866	22.1133	-5.96661	22.4191	3.97104	0.00023978	2758.01	29.8013	1	11	0.00492598	0.00022276	0	1.12806e-05	0.00021219	6.86582e-06	-108.312	0.0308215	-0.0096841	0.0292606	-6.04464	22.1068	21.9839	2.32792	0.0449766	0.00470073	0.0452216	5.96661	29801.3	285139	286692	-84.0334	0.0000000E+000	0.0000000E+000	0.0000000E+000	84.0334	0.0000000E+000	0.0000000E+000	0.0000000E+000	-84.0334	0.0000000E+000	0.0000000E+000	0.0000000E+000	-5.96661	0.0000000E+000	0.0000000E+000	0.0000000E+000	5.96661	9.568	84.0334	-1.80271e-07	9.52176e-07	5.08789e-11	9.52125e-07	3.97083	1.65612e+07	884.937	1.65603e+07
15.8576	22.4119	1.75088	22.4802	-4.46703	23.297	3.97104	-4.88127e-06	5732.28	34.7728	1	11	0.00493144	0.000219369	0	1.18582e-05	0.000135881	2.03671e-05	-51.6843	0.0928444	0.057563	0.0728462	-4.64022	22.5433	22.4695	1.82373	0.0443485	0.00346463	0.0444836	4.46703	34772.8	445105	446461	-85.533	0.0000000E+000	0.0000000E+000	0.0000000E+000	85.533	0.0000000E+000	0.0000000E+000	0.0000000E+000	-85.533	0.0000000E+000	0.0000000E+000	0.0000000E+000	-4.46703	0.0000000E+000	0.0000000E+000	0.0000000E+000	4.46703	12.8004	85.533	5.00074e-07	-1.93837e-08	-6.63271e-13	-1.93831e-08	3.9709	8.13526e+08	27837.2	8.13498e+08
10.0032	22.6782	1.39788	22.7212	-3.52725	24.2798	3.97105	0.000167536	11381.8	43.0813	1	11	0.00493154	0.000217045	0	1.17106e-05	9.77262e-05	7.58645e-06	0.97098	0.0349533	0.0349483	-0.000592317	-3.52035	22.7561	22.7131	1.39729	0.0439283	0.00270774	0.0440117	3.52725	43081.3	698917	700244	-86.4727	0.0000000E+000	0.0000000E+000	0.0000000E+000	86.4727	0.0000000E+000	0.0000000E+000	0.0000000E+000	-86.4727	0.0000000E+000	0.0000000E+000	0.0000000E+000	-3.52725	0.0000000E+000	0.0000000E+000	0.0000000E+000	3.52725	16.2232	86.4727	-1.68719e-06	6.65295e-07	1.63727e-11	6.65278e-07	3.97095	2.37026e+07	583.314	2.37021e+07
6.31058	22.9425	1.2104	22.9744	-3.02001	25.2033	3.97106	0.00064308	20836.4	57.835	1	11	0.00493169	0.00021466	0	1.23192e-05	0.000269422	8.33899e-06	-31.6985	0.0388473	0.0330523	0.0204123	-3.06643	23.0085	22.9755	1.23081	0.0434663	0.00229319	0.0435268	3.02001	57835	1.09623e+06	1.09776e+06	-86.98	0.0000000E+000	0.0000000E+000	0.0000000E+000	86.98	0.0000000E+000	0.0000000E+000	0.0000000E+000	-86.98	0.0000000E+000	0.0000000E+000	0.0000000E+000	-3.02001	0.0000000E+000	0.0000000E+000	0.0000000E+000	3.02001	18.9545	86.98	-1.79844e-06	2.55371e-06	1.7326e-10	2.55353e-06	3.97079	6.17507e+06	418.956	6.17465e+06
3.97785	23.1745	1.07532	23.1994	-2.65668	26.2103	3.97106	0.00197587	37207.6	79.9384	1	11	0.00493499	0.00021272	0	1.47119e-05	-7.39696e-05	3.75374e-06	-59.4987	0.0176464	0.00895656	0.0152044	-2.69315	23.2091	23.1835	1.09053	0.0430581	0.00199795	0.0431045	2.65668	79938.4	1.72277e+06	1.72462e+06	-87.3433	0.0000000E+000	0.0000000E+000	0.0000000E+000	87.3433	0.0000000E+000	0.0000000E+000	0.0000000E+000	-87.3433	0.0000000E+000	0.0000000E+000	0.0000000E+000	-2.65668	0.0000000E+000	0.0000000E+000	0.0000000E+000	2.65668	21.5512	87.3433	2.83745e-06	7.8463e-06	-1.46154e-10	7.84644e-06	3.97114	2.00978e+06	37.4365	2.00982e+06
2.51367	23.3967	1.02123	23.419	-2.49928	27.7699	3.97107	0.00286701	61999.5	117.896	1	11	0.00493631	0.000210783	0	1.46229e-05	7.86489e-05	6.82646e-06	-4.32738	0.0323862	0.0322939	0.00244371	-2.50181	23.4513	23.429	1.02367	0.0426598	0.00186203	0.0427004	2.49928	117896	2.70103e+06	2.70361e+06	-87.5007	0.0000000E+000	0.0000000E+000	0.0000000E+000	87.5007	0.0000000E+000	0.0000000E+000	0.0000000E+000	-87.5007	0.0000000E+000	0.0000000E+000	0.0000000E+000	-2.49928	0.0000000E+000	0.0000000E+000	0.0000000E+000	2.49928	22.9103	87.5007	-1.70759e-06	1.13851e-05	2.25487e-10	1.13849e-05	3.97099	1.38509e+06	27.4324	1.38507e+06
1.58469	23.6512	1.04655	23.6743	-2.53364	30.2053	3.97107	0.00240517	95966.3	187.534	1	11	0.00493983	0.000208658	0	1.12267e-05	0.000307577	8.48105e-07	51.8068	0.00406458	0.00251319	-0.00319447	-2.52565	23.6767	23.6537	1.04335	0.0421986	0.00186725	0.0422398	2.53364	187534	4.23813e+06	4.24228e+06	-87.4664	0.0000000E+000	0.0000000E+000	0.0000000E+000	87.4664	0.0000000E+000	0.0000000E+000	0.0000000E+000	-87.4664	0.0000000E+000	0.0000000E+000	0.0000000E+000	-2.53364	0.0000000E+000	0.0000000E+000	0.0000000E+000	2.53364	22.5993	87.4664	-4.2848e-07	9.55108e-06	7.39773e-10	9.55034e-06	3.97076	1.65106e+06	127.882	1.65093e+06
1.00469	24.3366	1.12333	24.3625	-2.64278	241.022	3.97103	-0.000507831	141020	299.813	1	11	0.00500604	0.000205482	0	-0.000772406	0.000135881	2.41761e-07	-14.4682	0.00117656	0.00113925	0.000293955	-2.64335	24.3636	24.3377	1.12362	0.0410031	0.00189262	0.0410467	2.64278	299813	6.49536e+06	6.50227e+06	-87.3572	0.0000000E+000	0.0000000E+000	0.0000000E+000	87.3572	0.0000000E+000	0.0000000E+000	0.0000000E+000	-87.3572	0.0000000E+000	0.0000000E+000	0.0000000E+000	-2.64278	0.0000000E+000	0.0000000E+000	0.0000000E+000	2.64278	21.6647	87.3572	-0.000787816	-2.01661e-06	-6.90045e-11	-2.01654e-06	3.9709	7.8196e+06	267.571	7.81933e+06
0.632957	24.609	1.27477	24.642	-2.96532	241.023	3.97103	-0.000507831	197249	527.869	1	11	0.0050183	0.000203648	0	-0.000772406	0.000135881	3.18285e-07	-18.0756	0.00156291	0.00148578	0.000484928	-2.96627	24.6435	24.6105	1.27525	0.0405268	0.00209933	0.0405812	2.96532	527869	1.01903e+07	1.0204e+07	-87.0347	0.0000000E+000	0.0000000E+000	0.0000000E+000	87.0347	0.0000000E+000	0.0000000E+000	0.0000000E+000	-87.0347	0.0000000E+000	0.0000000E+000	0.0000000E+000	-2.96532	0.0000000E+000	0.0000000E+000	0.0000000E+000	2.96532	19.3047	87.0347	0.000000000000000E+000	-2.01661e-06	-6.90045e-11	-2.01654e-06	3.9709	7.8196e+06	267.571	7.81933e+06
0.401878	24.821	1.52998	24.8681	-3.52728	241.024	3.97103	-0.000507831	258846	979.778	1	11	0.00503178	0.000202339	0	-0.000772406	0.000135881	2.82449e-07	1.15149	0.00139592	0.00139564	-2.80524e-05	-3.52702	24.8695	24.8224	1.52995	0.040136	0.00247401	0.0402122	3.52728	979778	1.5895e+07	1.59252e+07	-86.4727	0.0000000E+000	0.0000000E+000	0.0000000E+000	86.4727	0.0000000E+000	0.0000000E+000	0.0000000E+000	-86.4727	0.0000000E+000	0.0000000E+000	0.0000000E+000	-3.52728	0.0000000E+000	0.0000000E+000	0.0000000E+000	3.52728	16.2231	86.4727	0.000000000000000E+000	-2.01661e-06	-6.90045e-11	-2.01654e-06	3.9709	7.8196e+06	267.571	7.81933e+06
0.251173	25.2893	1.87154	25.3585	-4.23246	241.024	3.97103	-0.000507831	338570	1844.16	1	11	0.00503291	0.000198471	0	-0.000772406	0.000135881	2.04994e-07	117.336	0.00103287	-0.000474308	-0.000917525	-4.23047	25.3579	25.2888	1.87062	0.039327	0.0029104	0.0394345	4.23246	1.84416e+06	2.49194e+07	2.49875e+07	-85.7675	0.0000000E+000	0.0000000E+000	0.0000000E+000	85.7675	0.0000000E+000	0.0000000E+000	0.0000000E+000	-85.7675	0.0000000E+000	0.0000000E+000	0.0000000E+000	-4.23246	0.0000000E+000	0.0000000E+000	0.0000000E+000	4.23246	13.5126	85.7675	0.000000000000000E+000	-2.01661e-06	-6.90045e-11	-2.01654e-06	3.9709	7.8196e+06	267.571	7.81933e+06
0.160751	25.6908	2.15977	25.7814	-4.80543	241.025	3.97103	-0.000507831	458415	3217.07	1	11	0.00502867	0.00019505	0	-0.000772406	0.000135881	2.22025e-07	-65.9489	0.0011383	0.000463916	0.00103947	-4.80765	25.782	25.6913	2.16081	0.0386513	0.00324933	0.0387876	4.80543	3.21706e+06	3.82675e+07	3.84025e+07	-85.1946	0.0000000E+000	0.0000000E+000	0.0000000E+000	85.1946	0.0000000E+000	0.0000000E+000	0.0000000E+000	-85.1946	0.0000000E+000	0.0000000E+000	0.0000000E+000	-4.80543	0.0000000E+000	0.0000000E+000	0.0000000E+000	4.80543	11.8952	85.1946	0.000000000000000E+000	-2.01661e-06	-6.90045e-11	-2.01654e-06	3.9709	7.8196e+06	267.571	7.81933e+06
0.100469	26.2339	2.97662	26.4023	-6.47336	241.026	3.97103	-0.000507831	532185	6764.39	1	11	0.00503119	0.000190559	0	-0.000772406	0.000135881	3.60573e-07	-17.1383	0.00189219	0.00180817	0.000557588	-6.47412	26.4041	26.2357	2.97718	0.0376341	0.00427014	0.0378756	6.47336	6.76439e+06	5.96167e+07	5.99992e+07	-83.5266	0.0000000E+000	0.0000000E+000	0.0000000E+000	83.5266	0.0000000E+000	0.0000000E+000	0.0000000E+000	-83.5266	0.0000000E+000	0.0000000E+000	0.0000000E+000	-6.47336	0.0000000E+000	0.0000000E+000	0.0000000E+000	6.47336	8.81331	83.5266	0.000000000000000E+000	-2.01661e-06	-6.90045e-11	-2.01654e-06	3.9709	7.8196e+06	267.571	7.81933e+06
0.0602816	27.0914	3.62478	27.3328	-7.62079	241.027	3.97103	-0.000507831	728373	12809.9	1	11	0.00502778	0.000183946	0	-0.000772406	0.000135881	6.30768e-07	-33.2634	0.00342909	0.00286726	0.00188082	-7.6239	27.3359	27.0943	3.62666	0.0362629	0.0048519	0.036586	7.62079	1.28099e+07	9.57409e+07	9.6594e+07	-82.3792	0.0000000E+000	0.0000000E+000	0.0000000E+000	82.3792	0.0000000E+000	0.0000000E+000	0.0000000E+000	-82.3792	0.0000000E+000	0.0000000E+000	0.0000000E+000	-7.62079	0.0000000E+000	0.0000000E+000	0.0000000E+000	7.62079	7.47396	82.3792	0.000000000000000E+000	-2.01661e-06	-6.90045e-11	-2.01654e-06	3.9709	7.8196e+06	267.571	7.81933e+06
0.0401878	28.2554	4.17164	28.5617	-8.3985	241.027	3.97103	-0.000507831	949336	20251.9	1	11	0.00502589	0.000175966	0	-0.000772406	0.000135881	6.76411e-07	-43.0575	0.00384398	0.00280868	0.00262441	-8.40288	28.5648	28.2582	4.17426	0.0346365	0.00511374	0.0350119	8.3985	2.02519e+07	1.3717e+08	1.38657e+08	-81.6015	0.0000000E+000	0.0000000E+000	0.0000000E+000	81.6015	0.0000000E+000	0.0000000E+000	0.0000000E+000	-81.6015	0.0000000E+000	0.0000000E+000	0.0000000E+000	-8.3985	0.0000000E+000	0.0000000E+000	0.0000000E+000	8.3985	6.77321	81.6015	0.000000000000000E+000	-2.01661e-06	-6.90045e-11	-2.01654e-06	3.9709	7.8196e+06	267.571	7.81933e+06
0.0200939	30.3458	6.05758	30.9445	-11.2889	241.028	3.97103	-0.000507831	1.30755e+06	50105.8	1	11	0.0050266	0.000162439	0	-0.000772406	0.000135881	7.80411e-07	-38.4311	0.00480433	0.0037635	0.00298624	-11.293	30.9488	30.3496	6.06057	0.0316907	0.00632604	0.0323159	11.2889	5.01058e+07	2.51008e+08	2.5596e+08	-78.7111	0.0000000E+000	0.0000000E+000	0.0000000E+000	78.7111	0.0000000E+000	0.0000000E+000	0.0000000E+000	-78.7111	0.0000000E+000	0.0000000E+000	0.0000000E+000	-11.2889	0.0000000E+000	0.0000000E+000	0.0000000E+000	11.2889	5.00956	78.7111	0.000000000000000E+000	-2.01661e-06	-6.90045e-11	-2.01654e-06	3.9709	7.8196e+06	267.571	7.81933e+06
0.00796479	36.6322	7.9635	37.4878	-12.2647	20329.9	3.97105	0.000393495	2.50924e+06	113232	1	11	0.00502072	0.000133929	0	-0.0030335	-3.5815e-05	3.97047e-07	-6.45454	0.0029646	0.00294581	0.000333265	-12.2643	37.4907	36.6351	7.96383	0.0260665	0.00566663	0.0266754	12.2647	1.13232e+08	5.2087e+08	5.33036e+08	-77.7353	0.0000000E+000	0.0000000E+000	0.0000000E+000	77.7353	0.0000000E+000	0.0000000E+000	0.0000000E+000	-77.7353	0.0000000E+000	0.0000000E+000	0.0000000E+000	-12.2647	0.0000000E+000	0.0000000E+000	0.0000000E+000	12.2647	4.60001	77.7353	-0.00226109	1.56259e-06	-1.4093e-11	1.5626e-06	3.97108	1.00917e+07	91.0176	1.00918e+07
0.00497799	39.7233	8.71613	40.6683	-12.3758	20329.9	3.97105	0.000393495	3.66811e+06	168491	1	11	0.00502809	0.000123636	0	-0.0030335	-3.5815e-05	5.01899e-07	-16.0123	0.00405948	0.00390198	0.00111978	-12.3761	40.6724	39.7272	8.71725	0.0240178	0.00527001	0.0245892	12.3758	1.68491e+08	7.6789e+08	7.86158e+08	-77.6242	0.0000000E+000	0.0000000E+000	0.0000000E+000	77.6242	0.0000000E+000	0.0000000E+000	0.0000000E+000	-77.6242	0.0000000E+000	0.0000000E+000	0.0000000E+000	-12.3758	0.0000000E+000	0.0000000E+000	0.0000000E+000	12.3758	4.55745	77.6242	0.000000000000000E+000	1.56259e-06	-1.4093e-11	1.5626e-06	3.97108	1.00917e+07	91.0176	1.00918e+07
0.00318591	42.0104	10.5548	43.316	-14.1032	20329.9	3.97105	0.000393495	4.73301e+06	281020	1	11	0.00503031	0.000116131	0	-0.0030335	-3.5815e-05	5.01432e-07	-35.8294	0.00431783	0.00350074	0.00252755	-14.1053	43.32	42.0139	10.5573	0.0223903	0.00562537	0.0230861	14.1032	2.8102e+08	1.11853e+09	1.15329e+09	-75.8968	0.0000000E+000	0.0000000E+000	0.0000000E+000	75.8968	0.0000000E+000	0.0000000E+000	0.0000000E+000	-75.8968	0.0000000E+000	0.0000000E+000	0.0000000E+000	-14.1032	0.0000000E+000	0.0000000E+000	0.0000000E+000	14.1032	3.98023	75.8968	0.000000000000000E+000	1.56259e-06	-1.4093e-11	1.5626e-06	3.97108	1.00917e+07	91.0176	1.00918e+07
0.0019912	44.6135	11.4503	46.0594	-14.3945	20329.9	3.97105	0.000393495	6.98057e+06	431404	1	11	0.00503337	0.00010928	0	-0.0030335	-3.5815e-05	4.6366e-07	-24.6148	0.00424287	0.00385731	0.00176722	-14.3955	46.0636	44.6173	11.452	0.0210295	0.00539732	0.0217111	14.3945	4.31404e+08	1.68087e+09	1.73535e+09	-75.6055	0.0000000E+000	0.0000000E+000	0.0000000E+000	75.6055	0.0000000E+000	0.0000000E+000	0.0000000E+000	-75.6055	0.0000000E+000	0.0000000E+000	0.0000000E+000	-14.3945	0.0000000E+000	0.0000000E+000	0.0000000E+000	14.3945	3.89629	75.6055	0.000000000000000E+000	1.56259e-06	-1.4093e-11	1.5626e-06	3.97108	1.00917e+07	91.0176	1.00918e+07
0.00129428	46.0631	12.3215	47.6826	-14.9756	20329.9	3.97105	0.000393495	9.97996e+06	666403	1	11	0.0050336	0.000105565	0	-0.0030335	-3.5815e-05	4.61586e-07	30.1198	0.00437255	0.00378216	-0.00219418	-14.9718	47.6857	46.0669	12.3193	0.0202597	0.00541931	0.020972	14.9756	6.66403e+08	2.4913e+09	2.57889e+09	-75.0244	0.0000000E+000	0.0000000E+000	0.0000000E+000	75.0244	0.0000000E+000	0.0000000E+000	0.0000000E+000	-75.0244	0.0000000E+000	0.0000000E+000	0.0000000E+000	-14.9756	0.0000000E+000	0.0000000E+000	0.0000000E+000	14.9756	3.73843	75.0244	0.000000000000000E+000	1.56259e-06	-1.4093e-11	1.5626e-06	3.97108	1.00917e+07	91.0176	1.00918e+07
0.000796479	48.7062	14.0307	50.6868	-16.07	20329.9	3.97105	0.000393495	1.42418e+07	1.09128e+06	1	11	0.00503115	9.92595e-05	0	-0.0030335	-3.5815e-05	3.64715e-07	-91.1569	0.00367436	-7.41879e-05	0.00367361	-16.074	50.6878	48.7061	14.0344	0.0189581	0.00546122	0.019729	16.07	1.09128e+09	3.78826e+09	3.94231e+09	-73.93	0.0000000E+000	0.0000000E+000	0.0000000E+000	73.93	0.0000000E+000	0.0000000E+000	0.0000000E+000	-73.93	0.0000000E+000	0.0000000E+000	0.0000000E+000	-16.07	0.0000000E+000	0.0000000E+000	0.0000000E+000	16.07	3.4714	73.93	0.000000000000000E+000	1.56259e-06	-1.4093e-11	1.5626e-06	3.97108	1.00917e+07	91.0176	1.00918e+07
0.000497799	49.9555	17.6486	52.9814	-19.4576	20329.9	3.97105	0.000393495	1.81158e+07	2.01015e+06	1	11	0.00503808	9.50915e-05	0	-0.0030335	-3.5815e-05	1.37415e-06	-24.3179	0.0144508	0.0131686	0.00595082	-19.4589	52.9958	49.9687	17.6545	0.0177966	0.00628728	0.0188746	19.4576	2.01015e+09	5.68988e+09	6.03452e+09	-70.5424	0.0000000E+000	0.0000000E+000	0.0000000E+000	70.5424	0.0000000E+000	0.0000000E+000	0.0000000E+000	-70.5424	0.0000000E+000	0.0000000E+000	0.0000000E+000	-19.4576	0.0000000E+000	0.0000000E+000	0.0000000E+000	19.4576	2.83057	70.5424	0.000000000000000E+000	1.56259e-06	-1.4093e-11	1.5626e-06	3.97108	1.00917e+07	91.0176	1.00918e+07
0.000298679	50.7304	28.0267	57.9574	-28.9191	20329.9	3.97105	0.000393495	1.90127e+07	4.44599e+06	1	11	0.00503643	8.68988e-05	0	-0.0030335	-3.5815e-05	7.51271e-07	-121.725	0.00864536	-0.00454607	0.0073536	-28.9276	57.957	50.7258	28.034	0.0151025	0.0083436	0.017254	28.9191	4.44599e+09	8.04756e+09	9.19402e+09	-61.0809	0.0000000E+000	0.0000000E+000	0.0000000E+000	61.0809	0.0000000E+000	0.0000000E+000	0.0000000E+000	-61.0809	0.0000000E+000	0.0000000E+000	0.0000000E+000	-28.9191	0.0000000E+000	0.0000000E+000	0.0000000E+000	28.9191	1.81007	61.0809	0.000000000000000E+000	1.56259e-06	-1.4093e-11	1.5626e-06	3.97108	1.00917e+07	91.0176	1.00918e+07
9.95598e-05	57.8858	80.4022	99.0721	-54.2479	20329.9	3.97105	0.000393495	1.98824e+07	1.30949e+07	1	11	0.0050319	5.07903e-05	0	-0.0030335	-3.5815e-05	2.02935e-06	-42.492	0.0399554	0.029462	0.0269893	-54.2432	99.1112	57.9153	80.4292	0.00589752	0.00819154	0.0100937	54.2479	1.30949e+10	9.4277e+09	1.61356e+10	-35.7521	0.0000000E+000	0.0000000E+000	0.0000000E+000	35.7521	0.0000000E+000	0.0000000E+000	0.0000000E+000	-35.7521	0.0000000E+000	0.0000000E+000	0.0000000E+000	-54.2479	0.0000000E+000	0.0000000E+000	0.0000000E+000	54.2479	0.719953	35.7521	0.000000000000000E+000	1.56259e-06	-1.4093e-11	1.5626e-06	3.97108	1.00917e+07	91.0176	1.00918e+07