File: txt/18693_R307_UC91_23p8_SOC50_C05.mpt
EC-Lab ASCII FILE
Nb header lines : 65

Potentio Electrochemical Impedance Spectroscopy

Run on channel : 5 (SN 65912)
User :
CE vs. WE compliance from -10 V to 10 V
Electrode connection : standard
Potential control : Ewe
Ewe ctrl range : min = -10.00 V, max = 10.00 V
Safety Limits :
	Do not start on E overload
Acquisition started on : 10/28/2025 15:55:49.601
Technique started on : 10/28/2025 15:55:52.295
Loaded Setting File :  C:\Users\Celltest\OneDrive - store-dot.com\Documents\EC-Lab\Data\@Biologic Test Protocols\cathode half cell EIS SOC50.mps
Saved on :
	File : 18693_R307_UC91_23p8_SOC50_C05.mpr
	Directory : C:\Users\Celltest\OneDrive - store-dot.com\Documents\EC-Lab\Data\Anna\
	Host : 169.254.61.224
Device : VMP-3e (SN .003165)
Address : USB
EC-LAB for windows v11.62 (software)
Internet server v27.00 (firmware)
Command interpretor v12.03 (firmware)
Electrode material :
Initial state :
Electrolyte :
Comments :
Electrode surface area : 0.001 cm²
Characteristic mass : 0.001 g
Equivalent Weight : 0.000 g/eq.
Density : 0.000 g/cm3
Volume (V) : 0.001 cm³
Record Ece
Cycle Definition : Charge/Discharge alternance
Mode                Multi sine
E (V)               0.0000
vs.                 Eoc
tE (h:m:s)          0:00:0.0000
record              0
dI                  0.000
unit dI             mA
dt (s)              0.000
fi                  1.000
unit fi             MHz
ff                  0.100
unit ff             mHz
Nd                  10
Points              per decade
spacing             Logarithmic
Va (mV)             5.0
pw                  0.10
Na                  2
corr                0
E range min (V)     -10.000
E range max (V)     10.000
I Range             Auto
Bandwidth           5
nc cycles           0
goto Ns'            0
nr cycles           0
inc. cycle          0

freq/Hz	Re(Z)/Ohm	-Im(Z)/Ohm	|Z|/Ohm	Phase(Z)/deg	time/s	<Ewe>/V	<I>/mA	Cs/µF	Cp/µF	cycle number	I Range	|Ewe|/V	|I|/A	Ns	(Q-Qo)/mA.h	<Ece>/V	|Ece|/V	Phase(Zce)/deg	|Zce|/Ohm	Re(Zce)/Ohm	-Im(Zce)/Ohm	Phase(Zwe-ce)/deg	|Zwe-ce|/Ohm	Re(Zwe-ce)/Ohm	-Im(Zwe-ce)/Ohm	Re(Y)/Ohm-1	Im(Y)/Ohm-1	|Y|/Ohm-1	Phase(Y)/deg	Re(C)/nF	Im(C)/nF	|C|/nF	Phase(C)/deg	Re(M)	Im(M)	|M|	Phase(M)/deg	Re(Permittivity)	Im(Permittivity)	|Permittivity|	Phase(Permittivity)/deg	Re(Resistivity)/Ohm.cm	Im(Resistivity)/Ohm.cm	|Resistivity|/Ohm.cm	Phase(Resistivity)/deg	Re(Conductivity)/mS/cm	Im(Conductivity)/mS/cm	|Conductivity|/mS/cm	Phase(Conductivity)/deg	Tan(Delta)	Loss Angle(Delta)/deg	dq/mA.h	Pwe/W	Pce/W	Pwe-ce/W	<Ewe-Ece>/V	Rwe/Ohm	Rce/Ohm	Rwe-ce/Ohm		Ewe-Ece/V
1.00002e+06	0.973703	-0.227944	1.00003	13.1757	2.69354	3.96964	0.0254132	-0.698207	-0.0362757	1	9	0.000219734	0.000219728	0	1.34724e-05	0.000416731	0.000182885	-2.72418	0.832323	0.831382	0.0395587	5.95802	1.81489	1.80509	-0.188385	0.973648	-0.227931	0.999972	-13.1757	-36.2757	154.958	159.147	-103.176	0.0000000E+000	0.0000000E+000	0.0000000E+000	103.176	0.0000000E+000	0.0000000E+000	0.0000000E+000	-103.176	0.0000000E+000	0.0000000E+000	0.0000000E+000	13.1757	0.0000000E+000	0.0000000E+000	0.0000000E+000	-13.1757	4.27168	76.8243	1.34724e-05	0.000100881	1.05905e-08	0.000100871	3.96922	156204	16.3982	156187
630957	0.765711	0.0644316	0.768417	-4.80989	3.46156	3.96849	-0.0391234	3.91491	0.0275249	1	9	0.000283581	0.000369046	0	8.47511e-06	0.000149454	0.00011631	-103.902	0.315163	-0.0757216	0.305932	-28.2254	0.783105	0.689989	0.370363	1.29679	0.10912	1.30138	4.80989	27.5249	327.108	328.264	-85.1901	0.0000000E+000	0.0000000E+000	0.0000000E+000	85.1901	0.0000000E+000	0.0000000E+000	0.0000000E+000	-85.1901	0.0000000E+000	0.0000000E+000	0.0000000E+000	-4.80989	0.0000000E+000	0.0000000E+000	0.0000000E+000	4.80989	11.8841	85.1901	-3.0006e-06	-0.000155261	-5.84716e-09	-0.000155255	3.96834	101435	3.82008	101431
398103	0.998458	0.219955	1.0224	-12.4235	4.22756	3.96827	-0.0503698	1.81757	0.0841235	1	9	0.00106411	0.00104079	0	-2.37454e-07	-0.000194188	3.81682e-05	162.158	0.0366722	-0.0349084	-0.011236	-12.2223	0.985896	0.963549	0.208719	0.95519	0.210423	0.978093	12.4235	84.1235	381.868	391.025	-77.5765	0.0000000E+000	0.0000000E+000	0.0000000E+000	77.5765	0.0000000E+000	0.0000000E+000	0.0000000E+000	-77.5765	0.0000000E+000	0.0000000E+000	0.0000000E+000	-12.4235	0.0000000E+000	0.0000000E+000	0.0000000E+000	12.4235	4.53938	77.5765	-5.38834e-06	-0.000199881	9.78119e-09	-0.000199891	3.96846	78782.8	3.85524	78786.6
251206	1.14901	0.460978	1.23803	-21.8604	4.99356	3.96801	-0.0712985	1.37439	0.190548	1	9	0.00342036	0.00276273	0	-1.63298e-05	-3.27544e-06	5.03867e-05	82.3647	0.018238	0.00242323	-0.0180763	-21.0393	1.23368	1.15144	0.442902	0.749651	0.300756	0.807732	21.8604	190.548	474.951	511.749	-68.1396	0.0000000E+000	0.0000000E+000	0.0000000E+000	68.1396	0.0000000E+000	0.0000000E+000	0.0000000E+000	-68.1396	0.0000000E+000	0.0000000E+000	0.0000000E+000	-21.8604	0.0000000E+000	0.0000000E+000	0.0000000E+000	21.8604	2.49255	68.1396	-7.76536e-06	-0.000282913	2.33534e-10	-0.000282913	3.96801	55653.4	0.0459398	55653.5
158486	1.31838	0.70061	1.49298	-27.9869	5.76154	3.96782	-0.0644464	1.43335	0.315644	1	9	0.00537297	0.00359883	0	-2.51213e-05	-6.05491e-05	4.85447e-05	97.8158	0.013489	-0.00183435	-0.0133637	-27.5648	1.48513	1.31655	0.687246	0.591472	0.314318	0.669802	27.9869	315.645	593.968	672.629	-62.0131	0.0000000E+000	0.0000000E+000	0.0000000E+000	62.0131	0.0000000E+000	0.0000000E+000	0.0000000E+000	-62.0131	0.0000000E+000	0.0000000E+000	0.0000000E+000	-27.9869	0.0000000E+000	0.0000000E+000	0.0000000E+000	27.9869	1.88176	62.0131	-4.829e-06	-0.000255712	3.90217e-09	-0.000255715	3.96788	61567.8	0.939527	61568.7
100004	1.54176	0.942895	1.80723	-31.4487	6.52755	3.96778	-0.0436293	1.68788	0.459454	1	9	0.005477	0.00303061	0	-4.9346e-05	0.000168545	4.29628e-05	90.7744	0.0141763	-0.000191598	-0.014175	-31.0669	1.79971	1.54157	0.92872	0.472053	0.288694	0.553334	31.4487	459.454	751.268	880.625	-58.5513	0.0000000E+000	0.0000000E+000	0.0000000E+000	58.5513	0.0000000E+000	0.0000000E+000	0.0000000E+000	-58.5513	0.0000000E+000	0.0000000E+000	0.0000000E+000	-31.4487	0.0000000E+000	0.0000000E+000	0.0000000E+000	31.4487	1.63513	58.5513	-8.13525e-06	-0.000173112	-7.35353e-09	-0.000173104	3.96761	90942.9	3.86312	90939
63093.8	1.84688	1.19356	2.19899	-32.8729	7.54155	3.96777	-0.028361	2.11343	0.622632	1	9	0.00502917	0.00228703	0	-5.24881e-05	-0.000194188	2.29602e-05	89.7587	0.0100393	4.22756e-05	-0.0100392	-32.6521	2.1936	1.84692	1.18352	0.381937	0.24683	0.454754	32.8729	622.632	963.441	1147.12	-57.1271	0.0000000E+000	0.0000000E+000	0.0000000E+000	57.1271	0.0000000E+000	0.0000000E+000	0.0000000E+000	-57.1271	0.0000000E+000	0.0000000E+000	0.0000000E+000	-32.8729	0.0000000E+000	0.0000000E+000	0.0000000E+000	32.8729	1.54737	57.1271	-2.58861e-06	-0.00011253	5.50736e-09	-0.000112536	3.96797	139902	6.84699	139909
39814.1	2.26726	1.45004	2.6913	-32.6012	8.55552	3.96777	-0.034729	2.75678	0.800276	1	9	0.00487309	0.00181068	0	-6.81962e-05	9.21806e-05	2.27114e-05	-0.535593	0.012543	0.0125425	0.000117249	-32.46	2.70194	2.27981	1.45016	0.313023	0.200196	0.371567	32.6012	800.276	1251.3	1485.32	-57.3988	0.0000000E+000	0.0000000E+000	0.0000000E+000	57.3988	0.0000000E+000	0.0000000E+000	0.0000000E+000	-57.3988	0.0000000E+000	0.0000000E+000	0.0000000E+000	-32.6012	0.0000000E+000	0.0000000E+000	0.0000000E+000	32.6012	1.56358	57.3988	-8.83013e-06	-0.000137797	-3.20135e-09	-0.000137794	3.96768	114249	2.65428	114247
25116.9	2.72674	1.70436	3.21558	-32.0076	9.32354	3.96775	-0.0399054	3.71785	1.04447	1	9	0.00474796	0.00147655	0	-7.4887e-05	7.30894e-05	1.16112e-05	31.1389	0.00786379	0.00673075	-0.00406648	-31.8827	3.21914	2.73347	1.7003	0.263709	0.164832	0.310986	32.0076	1044.47	1671.01	1970.58	-57.9924	0.0000000E+000	0.0000000E+000	0.0000000E+000	57.9924	0.0000000E+000	0.0000000E+000	0.0000000E+000	-57.9924	0.0000000E+000	0.0000000E+000	0.0000000E+000	-32.0076	0.0000000E+000	0.0000000E+000	0.0000000E+000	32.0076	1.59986	57.9924	-2.71963e-06	-0.000158334	-2.91666e-09	-0.000158331	3.96767	99428.8	1.83157	99427
15847.7	3.30358	1.90657	3.81427	-29.9903	10.0935	3.96774	-0.0424004	5.26745	1.31609	1	9	0.00504427	0.00132247	0	-8.08133e-05	0.000187637	9.38895e-06	-102.176	0.00709953	-0.00149735	0.00693984	-30.0918	3.81645	3.30208	1.91351	0.227071	0.131048	0.262173	29.9903	1316.09	2280.43	2632.95	-60.0097	0.0000000E+000	0.0000000E+000	0.0000000E+000	60.0097	0.0000000E+000	0.0000000E+000	0.0000000E+000	-60.0097	0.0000000E+000	0.0000000E+000	0.0000000E+000	-29.9903	0.0000000E+000	0.0000000E+000	0.0000000E+000	29.9903	1.73273	60.0097	-3.69904e-06	-0.000168234	-7.95588e-09	-0.000168226	3.96756	93577.9	4.42535	93573.4
10002.2	3.82205	2.07458	4.34879	-28.4928	10.7696	3.96768	-0.0327346	7.66997	1.74549	1	10	0.00475917	0.00109437	0	-8.69648e-05	9.21806e-05	1.77935e-05	61.6189	0.0162592	0.00772853	-0.0143049	-28.2785	4.34878	3.82978	2.06027	0.202097	0.109697	0.229949	28.4928	1745.49	3215.76	3658.94	-61.5072	0.0000000E+000	0.0000000E+000	0.0000000E+000	61.5072	0.0000000E+000	0.0000000E+000	0.0000000E+000	-61.5072	0.0000000E+000	0.0000000E+000	0.0000000E+000	-28.4928	0.0000000E+000	0.0000000E+000	0.0000000E+000	28.4928	1.84233	61.5072	-4.46998e-06	-0.000129881	-3.0175e-09	-0.000129878	3.96759	121208	2.816	121205
6309.38	4.38414	2.30797	4.95454	-27.764	11.2875	3.96768	-0.031383	10.9295	2.37169	1	10	0.0047395	0.000956596	0	-9.13686e-05	0.000149454	3.60099e-06	42.9368	0.00376438	0.00275592	-0.00256426	-27.7229	4.95579	4.3869	2.30541	0.178599	0.0940209	0.201835	27.764	2371.69	4505.17	5091.31	-62.236	0.0000000E+000	0.0000000E+000	0.0000000E+000	62.236	0.0000000E+000	0.0000000E+000	0.0000000E+000	-62.236	0.0000000E+000	0.0000000E+000	0.0000000E+000	-27.764	0.0000000E+000	0.0000000E+000	0.0000000E+000	27.764	1.89956	62.236	-2.22618e-06	-0.000124518	-4.69033e-09	-0.000124513	3.96753	126428	4.76226	126423
3983.6	5.01472	2.63151	5.66324	-27.6885	11.8521	3.96758	-0.0439198	15.1824	3.27808	1	10	0.00463373	0.000818212	0	-9.73557e-05	1.58158e-05	1.4247e-05	-64.1831	0.0174123	0.00758303	0.0156744	-27.7931	5.67724	5.0223	2.64718	0.156357	0.0820494	0.176577	27.6885	3278.08	6246.86	7054.72	-62.3115	0.0000000E+000	0.0000000E+000	0.0000000E+000	62.3115	0.0000000E+000	0.0000000E+000	0.0000000E+000	-62.3115	0.0000000E+000	0.0000000E+000	0.0000000E+000	-27.6885	0.0000000E+000	0.0000000E+000	0.0000000E+000	27.6885	1.90564	62.3115	-3.74726e-06	-0.000174255	-6.94625e-10	-0.000174254	3.96756	90336.9	0.360106	90336.5
2510.8	5.76414	3.09178	6.54098	-28.2083	12.6768	3.96761	-0.00880801	20.5021	4.58068	1	10	0.00453623	0.00069351	0	-0.000102871	5.39982e-05	1.26654e-05	-10.6505	0.0182627	0.0179481	0.00337529	-28.1602	6.5584	5.78209	3.09516	0.134725	0.0722641	0.152882	28.2083	4580.68	8539.97	9690.91	-61.7917	0.0000000E+000	0.0000000E+000	0.0000000E+000	61.7917	0.0000000E+000	0.0000000E+000	0.0000000E+000	-61.7917	0.0000000E+000	0.0000000E+000	0.0000000E+000	-28.2083	0.0000000E+000	0.0000000E+000	0.0000000E+000	28.2083	1.86434	61.7917	-1.6287e-06	-3.49468e-05	-4.75617e-10	-3.49463e-05	3.96756	450455	6.13058	450449
1585.51	6.7019	3.62111	7.6176	-28.3829	13.7918	3.96761	-0.00814524	27.7211	6.26408	1	10	0.00484879	0.000636524	0	-0.000106112	-3.27544e-06	1.38713e-05	24.0055	0.0217922	0.0199073	-0.00886559	-28.2533	7.63092	6.7218	3.61225	0.115494	0.062403	0.131275	28.3829	6264.08	11593.5	13177.5	-61.6171	0.0000000E+000	0.0000000E+000	0.0000000E+000	61.6171	0.0000000E+000	0.0000000E+000	0.0000000E+000	-61.6171	0.0000000E+000	0.0000000E+000	0.0000000E+000	-28.3829	0.0000000E+000	0.0000000E+000	0.0000000E+000	28.3829	1.85078	61.6171	-1.30843e-06	-3.23171e-05	2.66793e-11	-3.23171e-05	3.96761	487107	0.402129	487107
1000.32	7.91727	4.18628	8.9559	-27.8678	14.6938	3.9676	-0.0094894	38.006	8.30408	1	10	0.00480493	0.00053651	0	-0.000108377	-4.14579e-05	7.92414e-06	-76.8308	0.0147698	0.00336495	0.0143814	-27.939	8.9656	7.92063	4.20066	0.0987091	0.0521928	0.111658	27.8678	8304.08	15705	17765.3	-62.1322	0.0000000E+000	0.0000000E+000	0.0000000E+000	62.1322	0.0000000E+000	0.0000000E+000	0.0000000E+000	-62.1322	0.0000000E+000	0.0000000E+000	0.0000000E+000	-27.8678	0.0000000E+000	0.0000000E+000	0.0000000E+000	27.8678	1.89124	62.1322	-7.13792e-07	-3.76501e-05	3.9341e-10	-3.76505e-05	3.96764	418108	4.36886	418113
631.01	9.42195	4.59712	10.4836	-26.0085	15.5945	3.9676	-0.00893089	54.8653	10.5498	1	10	0.00477606	0.000455573	0	-0.000110138	-3.27544e-06	3.47807e-06	-24.2864	0.0076345	0.00695886	0.00314006	-26.0072	10.4913	9.42891	4.60026	0.0857268	0.0418275	0.0953867	26.0085	10549.8	21622.2	24058.7	-63.9915	0.0000000E+000	0.0000000E+000	0.0000000E+000	63.9915	0.0000000E+000	0.0000000E+000	0.0000000E+000	-63.9915	0.0000000E+000	0.0000000E+000	0.0000000E+000	-26.0085	0.0000000E+000	0.0000000E+000	0.0000000E+000	26.0085	2.04953	63.9915	-1.11313e-06	-3.54342e-05	2.92526e-11	-3.54342e-05	3.9676	444256	0.366754	444256
398.089	11.1591	4.73708	12.1229	-23.0014	16.4958	3.9676	-0.00870748	84.3973	12.8865	1	10	0.00477267	0.000393689	0	-0.00011219	3.4907e-05	1.41772e-05	-104.407	0.0360113	-0.00895971	0.0348788	-23.1696	12.1284	11.1502	4.77196	0.07593	0.0322325	0.0824882	23.0014	12886.5	30356.6	32978.5	-66.9986	0.0000000E+000	0.0000000E+000	0.0000000E+000	66.9986	0.0000000E+000	0.0000000E+000	0.0000000E+000	-66.9986	0.0000000E+000	0.0000000E+000	0.0000000E+000	-23.0014	0.0000000E+000	0.0000000E+000	0.0000000E+000	23.0014	2.35569	66.9986	-1.27596e-06	-3.45478e-05	-3.03952e-10	-3.45475e-05	3.96756	455654	4.00885	455650
251.044	12.8673	4.49851	13.631	-19.2701	17.394	3.96759	-0.00985802	140.929	15.3492	1	10	0.00474888	0.000348389	0	-0.000114618	5.39982e-05	3.96862e-05	-129.676	0.113913	-0.0727269	0.0876756	-19.7201	13.5917	12.7945	4.58619	0.0692522	0.0242112	0.0733624	19.2701	15349.2	43903.9	46509.7	-70.7299	0.0000000E+000	0.0000000E+000	0.0000000E+000	70.7299	0.0000000E+000	0.0000000E+000	0.0000000E+000	-70.7299	0.0000000E+000	0.0000000E+000	0.0000000E+000	-19.2701	0.0000000E+000	0.0000000E+000	0.0000000E+000	19.2701	2.86034	70.7299	-1.4054e-06	-3.91126e-05	-5.32315e-10	-3.9112e-05	3.96753	402473	5.47759	402468
158.428	14.3469	3.87606	14.8612	-15.1185	18.2989	3.96759	-0.00847663	259.177	17.6306	1	10	0.00476075	0.000320347	0	-0.000117068	-4.14579e-05	6.77691e-06	-23.3394	0.0211549	0.0194239	0.00838109	-15.1302	14.8822	14.3663	3.88444	0.0649602	0.0175502	0.0672892	15.1185	17630.6	65258.1	67597.7	-74.8815	0.0000000E+000	0.0000000E+000	0.0000000E+000	74.8815	0.0000000E+000	0.0000000E+000	0.0000000E+000	-74.8815	0.0000000E+000	0.0000000E+000	0.0000000E+000	-15.1185	0.0000000E+000	0.0000000E+000	0.0000000E+000	15.1185	3.7014	74.8815	-1.1386e-06	-3.36318e-05	3.51423e-10	-3.36321e-05	3.96763	468061	4.89084	468066
100.032	15.4616	3.15053	15.7793	-11.5172	19.1988	3.96759	-0.00909844	505.008	20.1321	1	10	0.00475824	0.000301549	0	-0.000119264	-0.000117823	1.35884e-05	-85.893	0.045062	0.00322732	0.0449463	-11.6747	15.7915	15.4648	3.19547	0.0620981	0.0126534	0.0633742	11.5172	20132.1	98800.6	100831	-78.4828	0.0000000E+000	0.0000000E+000	0.0000000E+000	78.4828	0.0000000E+000	0.0000000E+000	0.0000000E+000	-78.4828	0.0000000E+000	0.0000000E+000	0.0000000E+000	-11.5172	0.0000000E+000	0.0000000E+000	0.0000000E+000	11.5172	4.90762	78.4828	-8.72659e-07	-3.60989e-05	1.072e-09	-3.60999e-05	3.9677	436073	12.9498	436086
63.0823	16.21	2.4073	16.3878	-8.44709	20.116	3.96761	-0.00527078	1048.05	22.6153	1	10	0.00475686	0.000290268	0	-0.000121187	0.000225819	9.29779e-06	-44.3704	0.0320317	0.0228974	0.0223996	-8.51269	16.4138	16.2329	2.4297	0.060359	0.00896374	0.061021	8.44709	22615.3	152284	153954	-81.5529	0.0000000E+000	0.0000000E+000	0.0000000E+000	81.5529	0.0000000E+000	0.0000000E+000	0.0000000E+000	-81.5529	0.0000000E+000	0.0000000E+000	0.0000000E+000	-8.44709	0.0000000E+000	0.0000000E+000	0.0000000E+000	8.44709	6.73369	81.5529	-5.15949e-07	-2.09124e-05	-1.19024e-09	-2.09112e-05	3.96738	752756	42.8436	752713
39.8089	16.7381	1.85624	16.8407	-6.3282	21.0168	3.9676	-0.00751972	2153.8	26.167	1	10	0.00475684	0.000282461	0	-0.000122782	0.000187637	1.23124e-05	-107.595	0.0435899	-0.0131768	0.0415506	-6.47372	16.8323	16.7249	1.89779	0.0590181	0.00654506	0.0593799	6.3282	26167	235953	237399	-83.6718	0.0000000E+000	0.0000000E+000	0.0000000E+000	83.6718	0.0000000E+000	0.0000000E+000	0.0000000E+000	-83.6718	0.0000000E+000	0.0000000E+000	0.0000000E+000	-6.3282	0.0000000E+000	0.0000000E+000	0.0000000E+000	6.3282	9.0172	83.6718	-8.54266e-07	-2.98352e-05	-1.41098e-09	-2.98338e-05	3.96741	527626	24.9526	527601
25.1044	17.0841	1.414	17.1425	-4.73142	22.131	3.96764	-0.0115946	4483.54	30.505	1	11	0.0047641	0.000277912	0	-0.000126493	-7.96403e-05	5.0265e-06	-85.9103	0.0180866	0.0012899	0.0180406	-4.79115	17.1453	17.0853	1.43204	0.0581359	0.00481174	0.0583347	4.73142	30505	368565	369825	-85.2686	0.0000000E+000	0.0000000E+000	0.0000000E+000	85.2686	0.0000000E+000	0.0000000E+000	0.0000000E+000	-85.2686	0.0000000E+000	0.0000000E+000	0.0000000E+000	-4.73142	0.0000000E+000	0.0000000E+000	0.0000000E+000	4.73142	12.0821	85.2686	-1.69939e-06	-4.60033e-05	9.234e-10	-4.60042e-05	3.96772	342196	6.86872	342203
15.8576	17.2652	1.08925	17.2995	-3.60998	23.009	3.96762	-0.0120403	9214.14	36.5296	1	11	0.00474925	0.000274531	0	-0.000128407	7.30894e-05	5.46602e-06	-15.4503	0.0199104	0.0191909	0.00530418	-3.6235	17.319	17.2844	1.09456	0.0576904	0.00363966	0.0578051	3.60998	36529.5	579011	580162	-86.39	0.0000000E+000	0.0000000E+000	0.0000000E+000	86.39	0.0000000E+000	0.0000000E+000	0.0000000E+000	-86.39	0.0000000E+000	0.0000000E+000	0.0000000E+000	-3.60998	0.0000000E+000	0.0000000E+000	0.0000000E+000	3.60998	15.8505	86.39	-6.25714e-07	-4.77713e-05	-8.80018e-10	-4.77704e-05	3.96754	329528	6.0704	329522
10.0032	17.4917	0.927395	17.5163	-3.03492	23.9908	3.96763	-0.0119234	17156	48.0907	1	11	0.00476104	0.000271806	0	-0.000132165	0.000206728	9.08382e-06	-49.8041	0.0334202	0.0215695	0.0255278	-3.11447	17.5392	17.5133	0.952922	0.0570096	0.00302259	0.0570897	3.03492	48090.7	907046	908320	-86.9651	0.0000000E+000	0.0000000E+000	0.0000000E+000	86.9651	0.0000000E+000	0.0000000E+000	0.0000000E+000	-86.9651	0.0000000E+000	0.0000000E+000	0.0000000E+000	-3.03492	0.0000000E+000	0.0000000E+000	0.0000000E+000	3.03492	18.8612	86.9651	-3.65558e-06	-4.73076e-05	-2.4649e-09	-4.73052e-05	3.96743	332761	17.338	332743
6.31058	17.6553	0.811355	17.6739	-2.6312	24.9133	3.96762	-0.0133468	31084.2	65.5082	1	11	0.00475718	0.000269163	0	-0.000134697	0.000187637	8.50733e-06	-31.3782	0.0316065	0.0269841	0.016457	-2.6804	17.7016	17.6823	0.827812	0.0565209	0.00259744	0.0565805	2.6312	65508.2	1.42547e+06	1.42698e+06	-87.3688	0.0000000E+000	0.0000000E+000	0.0000000E+000	87.3688	0.0000000E+000	0.0000000E+000	0.0000000E+000	-87.3688	0.0000000E+000	0.0000000E+000	0.0000000E+000	-2.6312	0.0000000E+000	0.0000000E+000	0.0000000E+000	2.6312	21.7603	87.3688	-3.50617e-06	-5.29549e-05	-2.50434e-09	-5.29524e-05	3.96743	297272	14.0586	297258
3.97785	17.8003	0.79173	17.8179	-2.54676	25.9203	3.96764	-0.0114991	50535.2	99.7788	1	11	0.00475298	0.000266754	0	-0.000135787	0.000340366	3.79068e-06	-25.908	0.0142104	0.0127822	0.00620893	-2.56486	17.8309	17.813	0.797939	0.0560681	0.00249383	0.0561235	2.54676	99778.9	2.2433e+06	2.24552e+06	-87.4532	0.0000000E+000	0.0000000E+000	0.0000000E+000	87.4532	0.0000000E+000	0.0000000E+000	0.0000000E+000	-87.4532	0.0000000E+000	0.0000000E+000	0.0000000E+000	-2.54676	0.0000000E+000	0.0000000E+000	0.0000000E+000	2.54676	22.4827	87.4532	1.3207e-06	-4.56244e-05	-3.91392e-09	-4.56205e-05	3.9673	345038	29.5993	345009
2.51367	17.9944	0.807882	18.0125	-2.57065	27.4799	3.96764	-0.0103763	78372.4	157.656	1	11	0.00475787	0.000264143	0	-0.000141206	0.000454914	2.86866e-06	-16.2212	0.0108603	0.0104279	0.00303377	-2.5788	18.023	18.0048	0.810916	0.0554612	0.00249001	0.055517	2.57065	157656	3.51156e+06	3.5151e+06	-87.4294	0.0000000E+000	0.0000000E+000	0.0000000E+000	87.4294	0.0000000E+000	0.0000000E+000	0.0000000E+000	-87.4294	0.0000000E+000	0.0000000E+000	0.0000000E+000	-2.57065	0.0000000E+000	0.0000000E+000	0.0000000E+000	2.57065	22.2735	87.4294	-5.11833e-06	-4.11693e-05	-4.72031e-09	-4.11646e-05	3.96719	382377	43.8417	382333
1.58469	18.1897	0.855648	18.2098	-2.69323	29.9156	3.96765	-0.0102406	117377	259.157	1	11	0.00475495	0.000261121	0	-0.000155245	0.000149454	4.26601e-06	-8.98372	0.0163373	0.0161369	0.00255113	-2.69885	18.226	18.2058	0.858199	0.0548549	0.00258039	0.0549155	2.69323	259156	5.50925e+06	5.51534e+06	-87.3068	0.0000000E+000	0.0000000E+000	0.0000000E+000	87.3068	0.0000000E+000	0.0000000E+000	0.0000000E+000	-87.3068	0.0000000E+000	0.0000000E+000	0.0000000E+000	-2.69323	0.0000000E+000	0.0000000E+000	0.0000000E+000	2.69323	21.2584	87.3068	-6.12285e-06	-4.06313e-05	-1.53051e-09	-4.06297e-05	3.9675	387441	14.5942	387427
1.00469	18.4031	0.913184	18.4257	-2.84076	240.734	3.96762	-0.010316	173471	426.084	1	11	0.00507471	0.000275414	0	-0.00182871	-0.000251461	5.48772e-07	-4.49179	0.00199253	0.00198641	0.000156048	-2.84094	18.4277	18.4051	0.91334	0.0542052	0.00268973	0.0542719	2.84076	426084	8.58673e+06	8.59729e+06	-87.1592	0.0000000E+000	0.0000000E+000	0.0000000E+000	87.1592	0.0000000E+000	0.0000000E+000	0.0000000E+000	-87.1592	0.0000000E+000	0.0000000E+000	0.0000000E+000	-2.84076	0.0000000E+000	0.0000000E+000	0.0000000E+000	2.84076	20.1527	87.1592	-0.0016719	-4.09299e-05	2.59407e-09	-4.09325e-05	3.96787	384609	24.3759	384633
0.632957	18.6509	1.05023	18.6804	-3.22291	240.735	3.96762	-0.010316	239421	756.756	1	11	0.00508905	0.000272427	0	-0.00182871	-0.000251461	6.25136e-07	10.4577	0.00229469	0.00225658	-0.000416509	-3.22125	18.6827	18.6531	1.04981	0.0534473	0.00300961	0.053532	3.22291	756755	1.34391e+07	1.34604e+07	-86.7771	0.0000000E+000	0.0000000E+000	0.0000000E+000	86.7771	0.0000000E+000	0.0000000E+000	0.0000000E+000	-86.7771	0.0000000E+000	0.0000000E+000	0.0000000E+000	-3.22291	0.0000000E+000	0.0000000E+000	0.0000000E+000	3.22291	17.7589	86.7771	0.000000000000000E+000	-4.09299e-05	2.59407e-09	-4.09325e-05	3.96787	384609	24.3759	384633
0.401878	18.8671	1.24861	18.9084	-3.78628	240.737	3.96762	-0.010316	317175	1383.08	1	11	0.00510213	0.000269835	0	-0.00182871	-0.000251461	7.35029e-07	5.29816	0.002724	0.00271236	-0.00025153	-3.78498	18.9111	18.8698	1.24836	0.0527712	0.00349237	0.0528867	3.78628	1.38308e+06	2.08989e+07	2.09446e+07	-86.2137	0.0000000E+000	0.0000000E+000	0.0000000E+000	86.2137	0.0000000E+000	0.0000000E+000	0.0000000E+000	-86.2137	0.0000000E+000	0.0000000E+000	0.0000000E+000	-3.78628	0.0000000E+000	0.0000000E+000	0.0000000E+000	3.78628	15.1104	86.2137	0.000000000000000E+000	-4.09299e-05	2.59407e-09	-4.09325e-05	3.96787	384609	24.3759	384633
0.251173	19.2616	1.54828	19.3238	-4.59565	240.738	3.96762	-0.010316	409257	2627.32	1	11	0.00510522	0.000264194	0	-0.00182871	-0.000251461	6.12021e-07	13.9778	0.00231656	0.00224797	-0.000559555	-4.59346	19.326	19.2639	1.54772	0.0515834	0.00414636	0.0517498	4.59565	2.62732e+06	3.26856e+07	3.2791e+07	-85.4043	0.0000000E+000	0.0000000E+000	0.0000000E+000	85.4043	0.0000000E+000	0.0000000E+000	0.0000000E+000	-85.4043	0.0000000E+000	0.0000000E+000	0.0000000E+000	-4.59565	0.0000000E+000	0.0000000E+000	0.0000000E+000	4.59565	12.4406	85.4043	0.000000000000000E+000	-4.09299e-05	2.59407e-09	-4.09325e-05	3.96787	384609	24.3759	384633
0.160751	19.617	1.7113	19.6915	-4.9856	240.739	3.96762	-0.010316	578550	4369.52	1	11	0.00509421	0.000258701	0	-0.00182871	-0.000251461	5.18207e-07	3.82026	0.00200311	0.00199866	-0.000133461	-4.9847	19.6935	19.619	1.71116	0.0505912	0.00441334	0.0507833	4.9856	4.36952e+06	5.00888e+07	5.02791e+07	-85.0144	0.0000000E+000	0.0000000E+000	0.0000000E+000	85.0144	0.0000000E+000	0.0000000E+000	0.0000000E+000	-85.0144	0.0000000E+000	0.0000000E+000	0.0000000E+000	-4.9856	0.0000000E+000	0.0000000E+000	0.0000000E+000	4.9856	11.4632	85.0144	0.000000000000000E+000	-4.09299e-05	2.59407e-09	-4.09325e-05	3.96787	384609	24.3759	384633
0.100469	20.0431	2.27309	20.1716	-6.47028	240.74	3.96762	-0.010316	696899	8849.59	1	11	0.00510084	0.000252873	0	-0.00182871	-0.000251461	4.98755e-07	5.07885	0.00197235	0.00196461	-0.000174606	-6.46915	20.1735	20.0451	2.27291	0.0492589	0.00558646	0.0495747	6.47028	8.84959e+06	7.80318e+07	7.8532e+07	-83.5297	0.0000000E+000	0.0000000E+000	0.0000000E+000	83.5297	0.0000000E+000	0.0000000E+000	0.0000000E+000	-83.5297	0.0000000E+000	0.0000000E+000	0.0000000E+000	-6.47028	0.0000000E+000	0.0000000E+000	0.0000000E+000	6.47028	8.81756	83.5297	0.000000000000000E+000	-4.09299e-05	2.59407e-09	-4.09325e-05	3.96787	384609	24.3759	384633
0.0602816	20.7492	2.68007	20.9216	-7.35987	240.741	3.96762	-0.010316	985118	16165.7	1	11	0.0050949	0.000243524	0	-0.00182871	-0.000251461	4.19693e-07	17.1711	0.00172341	0.0016466	-0.000508798	-7.35791	20.9231	20.7508	2.67956	0.0474038	0.00612291	0.0477976	7.35987	1.61657e+07	1.25155e+08	1.26195e+08	-82.6401	0.0000000E+000	0.0000000E+000	0.0000000E+000	82.6401	0.0000000E+000	0.0000000E+000	0.0000000E+000	-82.6401	0.0000000E+000	0.0000000E+000	0.0000000E+000	-7.35987	0.0000000E+000	0.0000000E+000	0.0000000E+000	7.35987	7.74203	82.6401	0.000000000000000E+000	-4.09299e-05	2.59407e-09	-4.09325e-05	3.96787	384609	24.3759	384633
0.0401878	21.5784	3.09944	21.7998	-8.17385	240.742	3.96762	-0.010316	1.27774e+06	25828.7	1	11	0.00509624	0.000233774	0	-0.00182871	-0.000251461	8.61341e-07	-7.74462	0.0036845	0.00365089	0.000496515	-8.17378	21.8035	21.582	3.09994	0.0454059	0.00652193	0.0458719	8.17385	2.58287e+07	1.7982e+08	1.81666e+08	-81.8261	0.0000000E+000	0.0000000E+000	0.0000000E+000	81.8261	0.0000000E+000	0.0000000E+000	0.0000000E+000	-81.8261	0.0000000E+000	0.0000000E+000	0.0000000E+000	-8.17385	0.0000000E+000	0.0000000E+000	0.0000000E+000	8.17385	6.96203	81.8261	0.000000000000000E+000	-4.09299e-05	2.59407e-09	-4.09325e-05	3.96787	384609	24.3759	384633
0.0200939	23.1548	4.47457	23.5832	-10.9374	240.744	3.96762	-0.010316	1.77013e+06	63724.2	1	11	0.0050948	0.000216036	0	-0.00182871	-0.000251461	1.19856e-06	-5.60205	0.005548	0.0055215	0.000541587	-10.9361	23.5887	23.1603	4.47511	0.0416329	0.0080454	0.0424031	10.9374	6.37242e+07	3.29756e+08	3.35857e+08	-79.0626	0.0000000E+000	0.0000000E+000	0.0000000E+000	79.0626	0.0000000E+000	0.0000000E+000	0.0000000E+000	-79.0626	0.0000000E+000	0.0000000E+000	0.0000000E+000	-10.9374	0.0000000E+000	0.0000000E+000	0.0000000E+000	10.9374	5.17475	79.0626	0.000000000000000E+000	-4.09299e-05	2.59407e-09	-4.09325e-05	3.96787	384609	24.3759	384633
0.00796479	27.5487	5.74193	28.1408	-11.7735	20329.6	3.96763	-0.000741986	3.48007e+06	144888	1	11	0.00508942	0.000180856	0	-0.0165041	-0.000175096	1.79775e-07	161.701	0.000994027	-0.000943763	-0.000312093	-11.7733	28.1398	27.5478	5.74162	0.034788	0.0072508	0.0355356	11.7735	1.44888e+08	6.95146e+08	7.10084e+08	-78.2265	0.0000000E+000	0.0000000E+000	0.0000000E+000	78.2265	0.0000000E+000	0.0000000E+000	0.0000000E+000	-78.2265	0.0000000E+000	0.0000000E+000	0.0000000E+000	-11.7735	0.0000000E+000	0.0000000E+000	0.0000000E+000	11.7735	4.79782	78.2265	-0.0146754	-2.94392e-06	1.29919e-10	-2.94405e-06	3.9678	5.34731e+06	235.984	5.34755e+06
0.00497799	29.5845	6.14337	30.2156	-11.7311	20329.6	3.96763	-0.000741986	5.20426e+06	215135	1	11	0.00509659	0.000168674	0	-0.0165041	-0.000175096	8.66142e-07	-137.013	0.00513501	-0.00375628	0.00350124	-11.739	30.2126	29.5807	6.14687	0.0324042	0.00672891	0.0330955	11.7311	2.15135e+08	1.03602e+09	1.05812e+09	-78.269	0.0000000E+000	0.0000000E+000	0.0000000E+000	78.269	0.0000000E+000	0.0000000E+000	0.0000000E+000	-78.269	0.0000000E+000	0.0000000E+000	0.0000000E+000	-11.7311	0.0000000E+000	0.0000000E+000	0.0000000E+000	11.7311	4.81567	78.269	0.000000000000000E+000	-2.94392e-06	1.29919e-10	-2.94405e-06	3.9678	5.34731e+06	235.984	5.34755e+06
0.00318591	31.0784	7.56344	31.9855	-13.678	20329.6	3.96763	-0.000741986	6.6049e+06	369316	1	11	0.00509911	0.000159419	0	-0.0165041	-0.000175096	6.08225e-07	-154.672	0.00381525	-0.0034485	0.00163218	-13.6823	31.9826	31.075	7.56507	0.0303775	0.00739285	0.0312641	13.678	3.69316e+08	1.51753e+09	1.56182e+09	-76.322	0.0000000E+000	0.0000000E+000	0.0000000E+000	76.322	0.0000000E+000	0.0000000E+000	0.0000000E+000	-76.322	0.0000000E+000	0.0000000E+000	0.0000000E+000	-13.678	0.0000000E+000	0.0000000E+000	0.0000000E+000	13.678	4.10903	76.322	0.000000000000000E+000	-2.94392e-06	1.29919e-10	-2.94405e-06	3.9678	5.34731e+06	235.984	5.34755e+06
0.0019912	32.5343	8.53738	33.6358	-14.7036	20329.6	3.96763	-0.000741986	9.36227e+06	603152	1	11	0.00510024	0.000151631	0	-0.0165041	-0.000175096	2.90705e-07	57.9264	0.00191718	0.00101804	-0.00162456	-14.7004	33.6364	32.5353	8.53576	0.0287566	0.00754606	0.0297302	14.7036	6.03152e+08	2.29849e+09	2.37631e+09	-75.2964	0.0000000E+000	0.0000000E+000	0.0000000E+000	75.2964	0.0000000E+000	0.0000000E+000	0.0000000E+000	-75.2964	0.0000000E+000	0.0000000E+000	0.0000000E+000	-14.7036	0.0000000E+000	0.0000000E+000	0.0000000E+000	14.7036	3.81081	75.2964	0.000000000000000E+000	-2.94392e-06	1.29919e-10	-2.94405e-06	3.9678	5.34731e+06	235.984	5.34755e+06
0.00129428	33.0555	9.76065	34.4665	-16.4508	20329.6	3.96763	-0.000741986	1.25984e+07	1.01036e+06	1	11	0.00510133	0.000148008	0	-0.0165041	-0.000175096	4.13668e-07	63.2479	0.0027949	0.00125807	-0.00249574	-16.4463	34.467	33.0568	9.75815	0.027826	0.00821646	0.0290137	16.4508	1.01036e+09	3.42171e+09	3.56776e+09	-73.5492	0.0000000E+000	0.0000000E+000	0.0000000E+000	73.5492	0.0000000E+000	0.0000000E+000	0.0000000E+000	-73.5492	0.0000000E+000	0.0000000E+000	0.0000000E+000	-16.4508	0.0000000E+000	0.0000000E+000	0.0000000E+000	16.4508	3.38661	73.5492	0.000000000000000E+000	-2.94392e-06	1.29919e-10	-2.94405e-06	3.9678	5.34731e+06	235.984	5.34755e+06
0.000796479	34.8824	12.3818	37.0148	-19.5428	20329.6	3.96763	-0.000741986	1.61384e+07	1.80585e+06	1	11	0.00510075	0.000137803	0	-0.0165041	-0.000175096	8.18257e-07	-99.0799	0.00593787	-0.000937064	0.00586347	-19.5518	37.0158	34.8815	12.3877	0.0254599	0.00903723	0.0270163	19.5428	1.80585e+09	5.08748e+09	5.39848e+09	-70.4572	0.0000000E+000	0.0000000E+000	0.0000000E+000	70.4572	0.0000000E+000	0.0000000E+000	0.0000000E+000	-70.4572	0.0000000E+000	0.0000000E+000	0.0000000E+000	-19.5428	0.0000000E+000	0.0000000E+000	0.0000000E+000	19.5428	2.81722	70.4572	0.000000000000000E+000	-2.94392e-06	1.29919e-10	-2.94405e-06	3.9678	5.34731e+06	235.984	5.34755e+06
0.000497799	35.5555	16.6167	39.2467	-25.0488	20329.6	3.96763	-0.000741986	1.92407e+07	3.44908e+06	1	11	0.005101	0.000129973	0	-0.0165041	-0.000175096	1.07258e-06	-123.924	0.00825232	-0.0046056	0.00684756	-25.0607	39.2454	35.5509	16.6235	0.0230834	0.0107879	0.0254798	25.0488	3.44908e+09	7.38016e+09	8.14634e+09	-64.9512	0.0000000E+000	0.0000000E+000	0.0000000E+000	64.9512	0.0000000E+000	0.0000000E+000	0.0000000E+000	-64.9512	0.0000000E+000	0.0000000E+000	0.0000000E+000	-25.0488	0.0000000E+000	0.0000000E+000	0.0000000E+000	25.0488	2.13975	64.9512	0.000000000000000E+000	-2.94392e-06	1.29919e-10	-2.94405e-06	3.9678	5.34731e+06	235.984	5.34755e+06
0.000298679	35.6641	26.9334	44.6916	-37.06	20329.6	3.96763	-0.000741986	1.97844e+07	7.18546e+06	1	11	0.00510227	0.000114166	0	-0.0165041	-0.000175096	1.30262e-06	-57.2799	0.0114099	0.00616745	0.00959937	-37.065	44.7023	35.6703	26.943	0.0178558	0.0134847	0.0223756	37.06	7.18546e+09	9.51469e+09	1.19231e+10	-52.94	0.0000000E+000	0.0000000E+000	0.0000000E+000	52.94	0.0000000E+000	0.0000000E+000	0.0000000E+000	-52.94	0.0000000E+000	0.0000000E+000	0.0000000E+000	-37.06	0.0000000E+000	0.0000000E+000	0.0000000E+000	37.06	1.32416	52.94	0.000000000000000E+000	-2.94392e-06	1.29919e-10	-2.94405e-06	3.9678	5.34731e+06	235.984	5.34755e+06
9.95598e-05	40.2795	86.6604	95.5639	-65.0711	20329.6	3.96763	-0.000741986	1.84466e+07	1.51694e+07	1	11	0.00510038	5.33714e-05	0	-0.0165041	-0.000175096	2.12601e-06	103.327	0.0398341	-0.00918209	-0.0387614	-65.0663	95.5249	40.2703	86.6216	0.00441059	0.00948927	0.0104642	65.0711	1.51694e+10	7.0507e+09	1.67279e+10	-24.9289	0.0000000E+000	0.0000000E+000	0.0000000E+000	24.9289	0.0000000E+000	0.0000000E+000	0.0000000E+000	-24.9289	0.0000000E+000	0.0000000E+000	0.0000000E+000	-65.0711	0.0000000E+000	0.0000000E+000	0.0000000E+000	65.0711	0.464797	24.9289	0.000000000000000E+000	-2.94392e-06	1.29919e-10	-2.94405e-06	3.9678	5.34731e+06	235.984	5.34755e+06