File: txt/18697_R307_UC91_25_SOC50_C04.mpt
EC-Lab ASCII FILE
Nb header lines : 65

Potentio Electrochemical Impedance Spectroscopy

Run on channel : 4 (SN 66756)
User :
CE vs. WE compliance from -10 V to 10 V
Electrode connection : standard
Potential control : Ewe
Ewe ctrl range : min = -10.00 V, max = 10.00 V
Safety Limits :
	Do not start on E overload
Acquisition started on : 10/29/2025 14:38:24.614
Technique started on : 10/29/2025 14:38:26.848
Loaded Setting File :  C:\Users\Celltest\OneDrive - store-dot.com\Documents\EC-Lab\Data\@Biologic Test Protocols\cathode half cell EIS SOC50.mps
Saved on :
	File : 18697_R307_UC91_25_SOC50_C04.mpr
	Directory : C:\Users\Celltest\OneDrive - store-dot.com\Documents\EC-Lab\Data\Anna\
	Host : 169.254.61.224
Device : VMP-3e (SN .003165)
Address : USB
EC-LAB for windows v11.62 (software)
Internet server v27.00 (firmware)
Command interpretor v12.03 (firmware)
Electrode material :
Initial state :
Electrolyte :
Comments :
Electrode surface area : 0.001 cm²
Characteristic mass : 0.001 g
Equivalent Weight : 0.000 g/eq.
Density : 0.000 g/cm3
Volume (V) : 0.001 cm³
Record Ece
Cycle Definition : Charge/Discharge alternance
Mode                Multi sine
E (V)               0.0000
vs.                 Eoc
tE (h:m:s)          0:00:0.0000
record              0
dI                  0.000
unit dI             mA
dt (s)              0.000
fi                  1.000
unit fi             MHz
ff                  0.100
unit ff             mHz
Nd                  10
Points              per decade
spacing             Logarithmic
Va (mV)             5.0
pw                  0.10
Na                  2
corr                0
E range min (V)     -10.000
E range max (V)     10.000
I Range             Auto
Bandwidth           5
nc cycles           0
goto Ns'            0
nr cycles           0
inc. cycle          0

freq/Hz	Re(Z)/Ohm	-Im(Z)/Ohm	|Z|/Ohm	Phase(Z)/deg	time/s	<Ewe>/V	<I>/mA	Cs/µF	Cp/µF	cycle number	I Range	|Ewe|/V	|I|/A	Ns	(Q-Qo)/mA.h	<Ece>/V	|Ece|/V	Phase(Zce)/deg	|Zce|/Ohm	Re(Zce)/Ohm	-Im(Zce)/Ohm	Phase(Zwe-ce)/deg	|Zwe-ce|/Ohm	Re(Zwe-ce)/Ohm	-Im(Zwe-ce)/Ohm	Re(Y)/Ohm-1	Im(Y)/Ohm-1	|Y|/Ohm-1	Phase(Y)/deg	Re(C)/nF	Im(C)/nF	|C|/nF	Phase(C)/deg	Re(M)	Im(M)	|M|	Phase(M)/deg	Re(Permittivity)	Im(Permittivity)	|Permittivity|	Phase(Permittivity)/deg	Re(Resistivity)/Ohm.cm	Im(Resistivity)/Ohm.cm	|Resistivity|/Ohm.cm	Phase(Resistivity)/deg	Re(Conductivity)/mS/cm	Im(Conductivity)/mS/cm	|Conductivity|/mS/cm	Phase(Conductivity)/deg	Tan(Delta)	Loss Angle(Delta)/deg	dq/mA.h	Pwe/W	Pce/W	Pwe-ce/W	<Ewe-Ece>/V	Rwe/Ohm	Rce/Ohm	Rwe-ce/Ohm		Ewe-Ece/V
1.00002e+06	2.86667	2.72049	3.95207	-43.5013	2.23352	3.97115	0.0335096	0.0585012	0.0277211	1	10	0.000199233	5.04123e-05	0	1.94323e-06	-0.000206601	0.000187267	-70.2613	3.7147	1.25457	3.49643	-56.4594	7.45887	4.12123	6.21693	0.183539	0.17418	0.253032	43.5013	27.7211	29.2106	40.2706	-46.4987	0.0000000E+000	0.0000000E+000	0.0000000E+000	46.4987	0.0000000E+000	0.0000000E+000	0.0000000E+000	-46.4987	0.0000000E+000	0.0000000E+000	0.0000000E+000	-43.5013	0.0000000E+000	0.0000000E+000	0.0000000E+000	43.5013	1.05373	46.4987	1.94323e-06	0.000133072	-6.92313e-09	0.000133079	3.97136	118508	6.16543	118514
630957	0.852961	-0.501097	0.989262	30.4333	3.40452	3.97009	-0.0235946	-0.503384	-0.129157	1	9	0.000223645	0.000226073	0	-4.61738e-06	-0.000111051	0.000115917	-86.0828	0.512742	0.0350281	0.511544	-0.674066	0.88805	0.887989	0.0104474	0.871578	-0.512034	1.01085	-30.4333	-129.157	219.85	254.982	-120.433	0.0000000E+000	0.0000000E+000	0.0000000E+000	120.433	0.0000000E+000	0.0000000E+000	0.0000000E+000	-120.433	0.0000000E+000	0.0000000E+000	0.0000000E+000	30.4333	0.0000000E+000	0.0000000E+000	0.0000000E+000	-30.4333	1.70219	59.5667	-2.77261e-06	-9.36725e-05	2.62021e-09	-9.36751e-05	3.9702	168263	4.70666	168268
398103	1.29519	0.0224695	1.29539	-0.993893	4.17055	3.96996	-0.0310167	17.7922	0.00535329	1	9	0.000881192	0.000680255	0	-9.81924e-06	-7.28316e-05	4.37606e-05	153.09	0.0643297	-0.0573639	-0.029115	0.307599	1.23784	1.23783	-0.00664547	0.771855	0.0133905	0.771971	0.993893	5.35331	308.574	308.621	-89.0061	0.0000000E+000	0.0000000E+000	0.0000000E+000	89.0061	0.0000000E+000	0.0000000E+000	0.0000000E+000	-89.0061	0.0000000E+000	0.0000000E+000	0.0000000E+000	-0.993893	0.0000000E+000	0.0000000E+000	0.0000000E+000	0.993893	57.642	89.0061	-2.6443e-06	-0.000123135	2.259e-09	-0.000123137	3.97003	127994	2.34814	127996
251206	1.35357	0.413945	1.41546	-17.0045	4.93952	3.96975	-0.0345226	1.53055	0.1309	1	9	0.00260297	0.00183896	0	-1.92905e-05	-0.000206601	5.76925e-05	77.563	0.0313724	0.00675655	-0.0306362	-15.7366	1.4133	1.36033	0.383309	0.6756	0.20661	0.706487	17.0045	130.9	428.035	447.604	-72.9955	0.0000000E+000	0.0000000E+000	0.0000000E+000	72.9955	0.0000000E+000	0.0000000E+000	0.0000000E+000	-72.9955	0.0000000E+000	0.0000000E+000	0.0000000E+000	-17.0045	0.0000000E+000	0.0000000E+000	0.0000000E+000	17.0045	3.26994	72.9955	-5.42607e-06	-0.000137046	7.13242e-09	-0.000137053	3.96995	114990	5.98452	114996
158486	1.45897	0.697631	1.61718	-25.5556	5.70557	3.96965	-0.0363875	1.43947	0.267878	1	9	0.00523862	0.00323935	0	-2.59925e-05	0.000290258	5.22465e-05	63.7121	0.0161287	0.00714311	-0.0144607	-24.9843	1.61747	1.46611	0.68317	0.557864	0.266752	0.61836	25.5556	267.878	560.218	620.969	-64.4444	0.0000000E+000	0.0000000E+000	0.0000000E+000	64.4444	0.0000000E+000	0.0000000E+000	0.0000000E+000	-64.4444	0.0000000E+000	0.0000000E+000	0.0000000E+000	-25.5556	0.0000000E+000	0.0000000E+000	0.0000000E+000	25.5556	2.09132	64.4444	3.15645e-06	-0.000144446	-1.05617e-08	-0.000144435	3.96936	109094	7.97686	109086
100004	1.65861	0.966476	1.91965	-30.2295	6.47156	3.96963	-0.0383269	1.64669	0.417398	1	9	0.00538625	0.00280585	0	-3.08765e-05	-0.000244821	3.35048e-05	41.6504	0.011941	0.00892252	-0.00793582	-29.8914	1.9234	1.66753	0.95854	0.45009	0.262269	0.520928	30.2295	417.398	716.314	829.052	-59.7705	0.0000000E+000	0.0000000E+000	0.0000000E+000	59.7705	0.0000000E+000	0.0000000E+000	0.0000000E+000	-59.7705	0.0000000E+000	0.0000000E+000	0.0000000E+000	-30.2295	0.0000000E+000	0.0000000E+000	0.0000000E+000	30.2295	1.71614	59.7705	-4.48179e-06	-0.000152144	9.38324e-09	-0.000152153	3.96987	103573	6.38771	103579
63093.8	1.95017	1.25992	2.32176	-32.8647	7.23952	3.96962	-0.0439215	2.00213	0.589578	1	9	0.0053047	0.00228478	0	-3.31988e-05	4.18282e-05	2.10322e-05	22.0971	0.00920535	0.00852919	-0.00346285	-32.6791	2.32706	1.9587	1.25645	0.361775	0.233726	0.430708	32.8647	589.578	912.583	1086.47	-57.1353	0.0000000E+000	0.0000000E+000	0.0000000E+000	57.1353	0.0000000E+000	0.0000000E+000	0.0000000E+000	-57.1353	0.0000000E+000	0.0000000E+000	0.0000000E+000	-32.8647	0.0000000E+000	0.0000000E+000	0.0000000E+000	32.8647	1.54786	57.1353	-2.03164e-06	-0.000174352	-1.83716e-09	-0.00017435	3.96958	90379.9	0.952339	90378.9
39814.1	2.34291	1.57865	2.82513	-33.9721	8.00552	3.96962	-0.0414226	2.53219	0.790665	1	9	0.00527085	0.0018657	0	-3.79672e-05	-3.46116e-05	1.7771e-05	-23.2627	0.00952512	0.00875076	0.00376193	-33.9363	2.83449	2.35166	1.58242	0.293547	0.197792	0.353966	33.9721	790.665	1173.44	1414.96	-56.0279	0.0000000E+000	0.0000000E+000	0.0000000E+000	56.0279	0.0000000E+000	0.0000000E+000	0.0000000E+000	-56.0279	0.0000000E+000	0.0000000E+000	0.0000000E+000	-33.9721	0.0000000E+000	0.0000000E+000	0.0000000E+000	33.9721	1.48412	56.0279	-6.513e-07	-0.000164432	1.4337e-09	-0.000164434	3.96966	95832.2	0.835573	95833.1
25116.9	2.85135	1.91699	3.43585	-33.9132	8.77555	3.96962	-0.0425416	3.30548	1.02897	1	9	0.00528254	0.00153748	0	-4.83495e-05	-0.000493251	8.04416e-06	-27.1356	0.00523205	0.00465616	0.00238633	-33.9029	3.44104	2.85601	1.91937	0.241537	0.162387	0.291049	33.9132	1028.97	1530.51	1844.25	-56.0868	0.0000000E+000	0.0000000E+000	0.0000000E+000	56.0868	0.0000000E+000	0.0000000E+000	0.0000000E+000	-56.0868	0.0000000E+000	0.0000000E+000	0.0000000E+000	-33.9132	0.0000000E+000	0.0000000E+000	0.0000000E+000	33.9132	1.48741	56.0868	-3.96311e-06	-0.000168874	2.09836e-08	-0.000168895	3.97012	93311.7	11.5946	93323.3
15847.7	3.45579	2.20806	4.10097	-32.5763	9.54152	3.96963	-0.0428772	4.54825	1.31853	1	9	0.00523559	0.00127667	0	-5.88214e-05	-0.000263931	8.60494e-06	-62.8046	0.00674014	0.00308042	0.00599504	-32.6237	4.1068	3.45887	2.21405	0.205482	0.131291	0.243845	32.5763	1318.53	2063.61	2448.88	-57.4237	0.0000000E+000	0.0000000E+000	0.0000000E+000	57.4237	0.0000000E+000	0.0000000E+000	0.0000000E+000	-57.4237	0.0000000E+000	0.0000000E+000	0.0000000E+000	-32.5763	0.0000000E+000	0.0000000E+000	0.0000000E+000	32.5763	1.56508	57.4237	-4.83899e-06	-0.000170207	1.13166e-08	-0.000170218	3.96989	92581.2	6.15551	92587.4
10002.2	4.14922	2.50777	4.84819	-31.1485	10.5865	3.96963	-0.0236478	6.34507	1.69766	1	10	0.00522222	0.00107715	0	-6.50605e-05	4.18282e-05	5.88631e-06	16.3596	0.00546471	0.00524346	-0.00153922	-31.101	4.85188	4.15446	2.50623	0.176526	0.106691	0.206263	31.1485	1697.66	2808.87	3282.04	-58.8515	0.0000000E+000	0.0000000E+000	0.0000000E+000	58.8515	0.0000000E+000	0.0000000E+000	0.0000000E+000	-58.8515	0.0000000E+000	0.0000000E+000	0.0000000E+000	-31.1485	0.0000000E+000	0.0000000E+000	0.0000000E+000	31.1485	1.65455	58.8515	-2.32189e-06	-9.3873e-05	-9.89145e-10	-9.3872e-05	3.96958	167864	1.7688	167863
6309.38	4.86819	2.83447	5.63325	-30.2097	11.3545	3.9696	-0.02395	8.89943	2.25313	1	10	0.00512205	0.000909253	0	-6.99767e-05	8.00481e-05	8.05122e-06	-30.7989	0.00885477	0.00760598	0.00453387	-30.2107	5.6421	4.8758	2.839	0.153409	0.0893209	0.177517	30.2097	2253.13	3869.75	4477.9	-59.7903	0.0000000E+000	0.0000000E+000	0.0000000E+000	59.7903	0.0000000E+000	0.0000000E+000	0.0000000E+000	-59.7903	0.0000000E+000	0.0000000E+000	0.0000000E+000	-30.2097	0.0000000E+000	0.0000000E+000	0.0000000E+000	30.2097	1.7175	59.7903	-1.98283e-06	-9.50718e-05	-1.91715e-09	-9.50699e-05	3.96952	165746	3.34231	165742
3983.6	5.65106	3.23688	6.51244	-29.8037	12.0411	3.96961	-0.0210143	12.3429	3.04918	1	10	0.00516054	0.000792412	0	-7.38944e-05	-0.000206601	7.73507e-06	-24.4521	0.00976142	0.00888589	0.00404057	-29.7957	6.52216	5.65994	3.24092	0.133242	0.0763202	0.153552	29.8037	3049.19	5323.37	6134.8	-60.1963	0.0000000E+000	0.0000000E+000	0.0000000E+000	60.1963	0.0000000E+000	0.0000000E+000	0.0000000E+000	-60.1963	0.0000000E+000	0.0000000E+000	0.0000000E+000	-29.8037	0.0000000E+000	0.0000000E+000	0.0000000E+000	29.8037	1.74583	60.1963	-1.42703e-06	-8.34186e-05	4.34159e-09	-8.34229e-05	3.96981	188900	9.83144	188910
2510.8	6.54821	3.76547	7.55366	-29.9006	12.8658	3.96958	-0.0241439	16.834	4.18323	1	10	0.00507519	0.000671885	0	-7.83318e-05	-0.000435921	5.78642e-06	-84.0002	0.00861222	0.000900189	0.00856505	-29.9535	7.55871	6.54911	3.77404	0.114764	0.065994	0.132386	29.9006	4183.23	7274.7	8391.7	-60.0994	0.0000000E+000	0.0000000E+000	0.0000000E+000	60.0994	0.0000000E+000	0.0000000E+000	0.0000000E+000	-60.0994	0.0000000E+000	0.0000000E+000	0.0000000E+000	-29.9006	0.0000000E+000	0.0000000E+000	0.0000000E+000	29.9006	1.73901	60.0994	-2.38459e-06	-9.58414e-05	1.05248e-08	-9.5852e-05	3.97002	164413	18.0551	164431
1585.51	7.6524	4.4122	8.83327	-29.9667	13.7678	3.96957	-0.0238306	22.7508	5.67627	1	10	0.00489112	0.000553715	0	-8.42548e-05	-0.000149271	9.62941e-06	-138.258	0.0173905	-0.0129759	0.0115783	-30.0739	8.82783	7.63943	4.42377	0.0980741	0.0565472	0.113208	29.9667	5676.27	9844.78	11364	-60.0333	0.0000000E+000	0.0000000E+000	0.0000000E+000	60.0333	0.0000000E+000	0.0000000E+000	0.0000000E+000	-60.0333	0.0000000E+000	0.0000000E+000	0.0000000E+000	-29.9667	0.0000000E+000	0.0000000E+000	0.0000000E+000	29.9667	1.73437	60.0333	-3.38831e-06	-9.45973e-05	3.55723e-09	-9.46009e-05	3.96972	166574	6.26385	166581
1000.32	9.06883	5.13667	10.4225	-29.5276	14.6708	3.96958	-0.024047	30.9741	7.52345	1	10	0.00478282	0.000458892	0	-9.06474e-05	-0.000111051	1.00469e-05	-8.46613	0.0218939	0.0216553	0.00322333	-29.4845	10.443	9.09049	5.1399	0.0834844	0.0472863	0.095946	29.5276	7523.45	13282.7	15265.4	-60.4724	0.0000000E+000	0.0000000E+000	0.0000000E+000	60.4724	0.0000000E+000	0.0000000E+000	0.0000000E+000	-60.4724	0.0000000E+000	0.0000000E+000	0.0000000E+000	-29.5276	0.0000000E+000	0.0000000E+000	0.0000000E+000	29.5276	1.76551	60.4724	-3.15747e-06	-9.54564e-05	2.67045e-09	-9.54591e-05	3.96969	165076	4.61811	165081
631.01	10.8699	5.76629	12.3047	-27.9451	15.5726	3.96958	-0.0236292	43.7409	9.6059	1	10	0.00470233	0.000382157	0	-9.61046e-05	3.60827e-06	1.16151e-05	-0.774888	0.0303936	0.0303908	0.000411041	-27.8806	12.3317	10.9003	5.7667	0.0717935	0.038085	0.0812698	27.9451	9605.9	18107.9	20498.1	-62.0549	0.0000000E+000	0.0000000E+000	0.0000000E+000	62.0549	0.0000000E+000	0.0000000E+000	0.0000000E+000	-62.0549	0.0000000E+000	0.0000000E+000	0.0000000E+000	-27.9451	0.0000000E+000	0.0000000E+000	0.0000000E+000	27.9451	1.88509	62.0549	-2.59182e-06	-9.37979e-05	-8.52605e-11	-9.37978e-05	3.96957	167995	0.152704	167994
398.089	13.0116	6.17724	14.4035	-25.396	16.4738	3.96959	-0.0235098	64.7211	11.9042	1	10	0.00466526	0.000323899	0	-0.000101929	-0.0005888	2.0641e-05	-104.109	0.0637267	-0.0155344	0.0618044	-25.6443	14.4161	12.9961	6.23904	0.0627186	0.0297756	0.0694278	25.396	11904.2	25074.7	27757	-64.604	0.0000000E+000	0.0000000E+000	0.0000000E+000	64.604	0.0000000E+000	0.0000000E+000	0.0000000E+000	-64.604	0.0000000E+000	0.0000000E+000	0.0000000E+000	-25.396	0.0000000E+000	0.0000000E+000	0.0000000E+000	25.396	2.10638	64.604	-3.1414e-06	-9.33243e-05	1.38426e-08	-9.33382e-05	3.97018	168848	25.0449	168873
251.044	15.2742	6.06918	16.4358	-21.6703	17.3721	3.96957	-0.0256845	104.458	14.2435	1	10	0.00463698	0.000282126	0	-0.000107748	-0.00055058	1.40973e-05	48.1888	0.0499679	0.0333125	-0.0372434	-21.5069	16.4531	15.3075	6.03194	0.0565426	0.0224671	0.0608427	21.6703	14243.5	35846.4	38572.5	-68.3297	0.0000000E+000	0.0000000E+000	0.0000000E+000	68.3297	0.0000000E+000	0.0000000E+000	0.0000000E+000	-68.3297	0.0000000E+000	0.0000000E+000	0.0000000E+000	-21.6703	0.0000000E+000	0.0000000E+000	0.0000000E+000	21.6703	2.51668	68.3297	-3.12361e-06	-0.000101957	1.41414e-08	-0.000101971	3.97012	154551	21.4363	154573
158.428	17.4382	5.5433	18.2981	-17.6345	18.2768	3.96958	-0.0239425	181.225	16.632	1	10	0.00462953	0.000253006	0	-0.000113504	-0.000263931	5.33743e-06	127.904	0.021096	-0.01296	-0.0166457	-17.5971	18.2807	17.4252	5.52665	0.0520825	0.0165561	0.0546506	17.6345	16632	52321.3	54901.2	-72.3655	0.0000000E+000	0.0000000E+000	0.0000000E+000	72.3655	0.0000000E+000	0.0000000E+000	0.0000000E+000	-72.3655	0.0000000E+000	0.0000000E+000	0.0000000E+000	-17.6345	0.0000000E+000	0.0000000E+000	0.0000000E+000	17.6345	3.14582	72.3655	-2.97883e-06	-9.50418e-05	6.31918e-09	-9.50482e-05	3.96985	165796	11.0235	165807
100.032	19.0913	4.54563	19.625	-13.3927	19.1758	3.96957	-0.0241663	350.016	18.7783	1	10	0.00462621	0.000235731	0	-0.000119465	-0.000378591	8.78077e-06	-38.925	0.0372491	0.0289787	0.0234037	-13.4395	19.6586	19.1202	4.56903	0.0495698	0.0118026	0.0509555	13.3927	18778.3	78867.5	81072.3	-76.6073	0.0000000E+000	0.0000000E+000	0.0000000E+000	76.6073	0.0000000E+000	0.0000000E+000	0.0000000E+000	-76.6073	0.0000000E+000	0.0000000E+000	0.0000000E+000	-13.3927	0.0000000E+000	0.0000000E+000	0.0000000E+000	13.3927	4.19992	76.6073	-2.70334e-06	-9.59301e-05	9.14916e-09	-9.59392e-05	3.96995	164260	15.666	164276
63.0823	20.3879	3.5769	20.6993	-9.95085	20.344	3.9696	-0.0178363	705.352	21.0625	1	11	0.00462836	0.0002236	0	-0.000126182	9.9158e-05	7.16628e-06	69.4042	0.0320495	0.0112742	-0.0300011	-9.86369	20.7052	20.3991	3.5469	0.0475841	0.00834829	0.0483109	9.95085	21062.5	120054	121887	-80.0491	0.0000000E+000	0.0000000E+000	0.0000000E+000	80.0491	0.0000000E+000	0.0000000E+000	0.0000000E+000	-80.0491	0.0000000E+000	0.0000000E+000	0.0000000E+000	-9.95085	0.0000000E+000	0.0000000E+000	0.0000000E+000	9.95085	5.69987	80.0491	-3.78932e-06	-7.08032e-05	-1.76862e-09	-7.08014e-05	3.9695	222557	5.55933	222551
39.8089	21.1486	2.72594	21.3236	-7.34461	21.2448	3.9696	-0.0180897	1466.64	23.9682	1	11	0.00462555	0.000216922	0	-0.000130979	-0.000187491	1.05756e-05	-10.0405	0.0487527	0.0480061	0.00849974	-7.35076	21.3723	21.1966	2.73444	0.0465117	0.0059951	0.0468965	7.34461	23968.2	185953	187491	-82.6554	0.0000000E+000	0.0000000E+000	0.0000000E+000	82.6554	0.0000000E+000	0.0000000E+000	0.0000000E+000	-82.6554	0.0000000E+000	0.0000000E+000	0.0000000E+000	-7.34461	0.0000000E+000	0.0000000E+000	0.0000000E+000	7.34461	7.75829	82.6554	-2.36203e-06	-7.18087e-05	3.39165e-09	-7.18121e-05	3.96979	219440	10.3646	219451
25.1044	21.6646	2.04213	21.7607	-5.38484	22.1241	3.9696	-0.0177949	3104.47	27.3406	1	11	0.00462167	0.000212386	0	-0.000135225	-0.000359481	5.32461e-06	-55.9132	0.0250704	0.0140506	0.020763	-5.43576	21.7766	21.6787	2.06289	0.0457517	0.0043126	0.0459545	5.38484	27340.6	290053	291338	-84.6152	0.0000000E+000	0.0000000E+000	0.0000000E+000	84.6152	0.0000000E+000	0.0000000E+000	0.0000000E+000	-84.6152	0.0000000E+000	0.0000000E+000	0.0000000E+000	-5.38484	0.0000000E+000	0.0000000E+000	0.0000000E+000	5.38484	10.6089	84.6152	-2.11994e-06	-7.06388e-05	6.39694e-09	-7.06452e-05	3.96996	223075	20.2013	223095
15.8576	21.968	1.54556	22.0223	-4.02443	23.004	3.96961	-0.017961	6493.76	31.985	1	11	0.00461722	0.000209662	0	-0.00014012	-9.19415e-05	6.86451e-06	-24.7403	0.0327409	0.0297358	0.0137023	-4.05452	22.0529	21.9977	1.55927	0.0452966	0.00318686	0.0454086	4.02443	31985	454620	455744	-85.9756	0.0000000E+000	0.0000000E+000	0.0000000E+000	85.9756	0.0000000E+000	0.0000000E+000	0.0000000E+000	-85.9756	0.0000000E+000	0.0000000E+000	0.0000000E+000	-4.02443	0.0000000E+000	0.0000000E+000	0.0000000E+000	4.02443	14.2136	85.9756	-2.53889e-06	-7.12979e-05	1.65136e-09	-7.12996e-05	3.9697	221013	5.11897	221018
10.0032	22.2823	1.28015	22.319	-3.28811	23.9848	3.96961	-0.0163418	12428.6	40.8875	1	11	0.00461999	0.000206998	0	-0.000143749	-0.000111051	4.6341e-06	-44.5107	0.0223872	0.0159647	0.0156944	-3.32595	22.3359	22.2982	1.29584	0.0447311	0.00256986	0.0448048	3.28811	40887.6	711689	712863	-86.7119	0.0000000E+000	0.0000000E+000	0.0000000E+000	86.7119	0.0000000E+000	0.0000000E+000	0.0000000E+000	-86.7119	0.0000000E+000	0.0000000E+000	0.0000000E+000	-3.28811	0.0000000E+000	0.0000000E+000	0.0000000E+000	3.28811	17.406	86.7119	-2.4263e-06	-6.48706e-05	1.81478e-09	-6.48724e-05	3.96972	242912	6.79555	242918
6.31058	22.5873	1.12699	22.6154	-2.85638	24.9083	3.96962	-0.0174282	22378.5	55.5725	1	11	0.00462678	0.000204585	0	-0.000149089	-7.28316e-05	5.80283e-06	38.8213	0.0283639	0.0220984	-0.0177811	-2.80865	22.6366	22.6094	1.10921	0.0441627	0.00220348	0.0442176	2.85638	55572.5	1.1138e+06	1.11518e+06	-87.1436	0.0000000E+000	0.0000000E+000	0.0000000E+000	87.1436	0.0000000E+000	0.0000000E+000	0.0000000E+000	-87.1436	0.0000000E+000	0.0000000E+000	0.0000000E+000	-2.85638	0.0000000E+000	0.0000000E+000	0.0000000E+000	2.85638	20.0422	87.1436	-3.46173e-06	-6.91833e-05	1.26932e-09	-6.91845e-05	3.96969	227770	4.17895	227774
3.97785	22.8247	1.09749	22.851	-2.75287	25.9153	3.96962	-0.0156693	36456.1	84.0932	1	11	0.00462452	0.000202377	0	-0.000150261	-0.000244821	6.72337e-06	-15.1086	0.0332221	0.0320737	0.0086593	-2.77067	22.8835	22.8568	1.10615	0.0437112	0.00210179	0.0437617	2.75287	84093.2	1.7489e+06	1.75092e+06	-87.2471	0.0000000E+000	0.0000000E+000	0.0000000E+000	87.2471	0.0000000E+000	0.0000000E+000	0.0000000E+000	-87.2471	0.0000000E+000	0.0000000E+000	0.0000000E+000	-2.75287	0.0000000E+000	0.0000000E+000	0.0000000E+000	2.75287	20.7971	87.2471	-6.71725e-07	-6.22013e-05	3.83618e-09	-6.22051e-05	3.96987	253337	15.6242	253353
2.51367	23	1.03961	23.0234	-2.58804	27.4749	3.96962	-0.0152489	60903.1	124.177	1	11	0.00462139	0.000200726	0	-0.000161563	-0.000168381	7.2109e-06	-0.649636	0.0359242	0.0359218	0.00040731	-2.58502	23.0593	23.0359	1.04002	0.0433897	0.00196124	0.043434	2.58804	124177	2.74725e+06	2.75005e+06	-87.412	0.0000000E+000	0.0000000E+000	0.0000000E+000	87.412	0.0000000E+000	0.0000000E+000	0.0000000E+000	-87.412	0.0000000E+000	0.0000000E+000	0.0000000E+000	-2.58804	0.0000000E+000	0.0000000E+000	0.0000000E+000	2.58804	22.1236	87.412	-6.78837e-06	-6.05324e-05	2.56763e-09	-6.0535e-05	3.96979	260322	11.0422	260333
1.58469	23.1814	1.14551	23.2097	-2.82897	29.9105	3.96962	-0.0144867	87675.3	213.568	1	11	0.00462299	0.000199183	0	-0.000169791	-0.000149271	3.89654e-06	9.63096	0.0195626	0.0192869	-0.00327286	-2.81856	23.2288	23.2007	1.14224	0.0430329	0.00212647	0.0430854	2.82897	213568	4.32193e+06	4.3272e+06	-87.171	0.0000000E+000	0.0000000E+000	0.0000000E+000	87.171	0.0000000E+000	0.0000000E+000	0.0000000E+000	-87.171	0.0000000E+000	0.0000000E+000	0.0000000E+000	-2.82897	0.0000000E+000	0.0000000E+000	0.0000000E+000	2.82897	20.2368	87.171	-2.66982e-06	-5.75066e-05	2.16245e-09	-5.75088e-05	3.96977	274018	10.304	274029
1.00469	23.6376	1.13455	23.6648	-2.74795	240.729	3.96958	-0.0126129	139625	320.924	1	11	0.00506296	0.000213944	0	-0.00179618	-7.28316e-05	7.08634e-07	-14.485	0.00331224	0.00320695	0.000828478	-2.74958	23.6681	23.6408	1.13538	0.0422082	0.00202589	0.0422568	2.74795	320924	6.68626e+06	6.69396e+06	-87.2521	0.0000000E+000	0.0000000E+000	0.0000000E+000	87.2521	0.0000000E+000	0.0000000E+000	0.0000000E+000	-87.2521	0.0000000E+000	0.0000000E+000	0.0000000E+000	-2.74795	0.0000000E+000	0.0000000E+000	0.0000000E+000	2.74795	20.8344	87.2521	-0.00162472	-5.0068e-05	9.1862e-10	-5.0069e-05	3.96965	314723	5.77435	314728
0.632957	23.9274	1.29472	23.9624	-3.09729	240.73	3.96958	-0.0126129	194209	566.973	1	11	0.00507539	0.000211806	0	-0.00179618	-7.28316e-05	4.09175e-07	-0.315497	0.00193183	0.00193181	1.06375e-05	-3.09706	23.9643	23.9293	1.29474	0.0416711	0.00225485	0.041732	3.09729	566973	1.04781e+07	1.04934e+07	-86.9027	0.0000000E+000	0.0000000E+000	0.0000000E+000	86.9027	0.0000000E+000	0.0000000E+000	0.0000000E+000	-86.9027	0.0000000E+000	0.0000000E+000	0.0000000E+000	-3.09729	0.0000000E+000	0.0000000E+000	0.0000000E+000	3.09729	18.4807	86.9027	0.000000000000000E+000	-5.0068e-05	9.1862e-10	-5.0069e-05	3.96965	314723	5.77435	314728
0.401878	24.1696	1.53748	24.2185	-3.6398	240.732	3.96958	-0.0126129	257583	1038.11	1	11	0.00508979	0.000210161	0	-0.00179618	-7.28316e-05	3.06362e-07	-2.27117	0.00145775	0.0014566	5.77689e-05	-3.63972	24.2199	24.1711	1.53754	0.0412075	0.0026213	0.0412908	3.6398	1.03811e+06	1.63194e+07	1.63523e+07	-86.3602	0.0000000E+000	0.0000000E+000	0.0000000E+000	86.3602	0.0000000E+000	0.0000000E+000	0.0000000E+000	-86.3602	0.0000000E+000	0.0000000E+000	0.0000000E+000	-3.6398	0.0000000E+000	0.0000000E+000	0.0000000E+000	3.6398	15.7203	86.3602	0.000000000000000E+000	-5.0068e-05	9.1862e-10	-5.0069e-05	3.96965	314723	5.77435	314728
0.251173	24.6486	1.8837	24.7205	-4.37017	240.733	3.96958	-0.0126129	336384	1953.19	1	11	0.00509086	0.000205937	0	-0.00179618	-7.28316e-05	6.53125e-07	-7.07559	0.00317148	0.00314733	0.000390659	-4.37051	24.7237	24.6518	1.88409	0.0403347	0.00308246	0.0404523	4.37017	1.95319e+06	2.55579e+07	2.56324e+07	-85.6298	0.0000000E+000	0.0000000E+000	0.0000000E+000	85.6298	0.0000000E+000	0.0000000E+000	0.0000000E+000	-85.6298	0.0000000E+000	0.0000000E+000	0.0000000E+000	-4.37017	0.0000000E+000	0.0000000E+000	0.0000000E+000	4.37017	13.0852	85.6298	0.000000000000000E+000	-5.0068e-05	9.1862e-10	-5.0069e-05	3.96965	314723	5.77435	314728
0.160751	25.0861	2.13377	25.1767	-4.86175	240.734	3.96958	-0.0126129	464001	3332.86	1	11	0.00508565	0.000201999	0	-0.00179618	-7.28316e-05	4.51101e-07	13.0692	0.00223319	0.00217535	-0.000504986	-4.86019	25.1788	25.0883	2.13326	0.0395764	0.00336629	0.0397193	4.86175	3.33286e+06	3.91835e+07	3.9325e+07	-85.1382	0.0000000E+000	0.0000000E+000	0.0000000E+000	85.1382	0.0000000E+000	0.0000000E+000	0.0000000E+000	-85.1382	0.0000000E+000	0.0000000E+000	0.0000000E+000	-4.86175	0.0000000E+000	0.0000000E+000	0.0000000E+000	4.86175	11.7567	85.1382	0.000000000000000E+000	-5.0068e-05	9.1862e-10	-5.0069e-05	3.96965	314723	5.77435	314728
0.100469	25.6348	2.88151	25.7962	-6.41348	240.735	3.96958	-0.0126129	549751	6859.53	1	11	0.00508898	0.000197276	0	-0.00179618	-7.28316e-05	5.68092e-07	42.0458	0.00287968	0.00213848	-0.00192859	-6.4087	25.7981	25.6369	2.87958	0.0385228	0.0043302	0.0387654	6.41348	6.85953e+06	6.10244e+07	6.14087e+07	-83.5865	0.0000000E+000	0.0000000E+000	0.0000000E+000	83.5865	0.0000000E+000	0.0000000E+000	0.0000000E+000	-83.5865	0.0000000E+000	0.0000000E+000	0.0000000E+000	-6.41348	0.0000000E+000	0.0000000E+000	0.0000000E+000	6.41348	8.8963	83.5865	0.000000000000000E+000	-5.0068e-05	9.1862e-10	-5.0069e-05	3.96965	314723	5.77435	314728
0.0602816	26.5139	3.40358	26.7315	-7.31503	240.737	3.96958	-0.0126129	775710	12575.5	1	11	0.00508404	0.000190189	0	-0.00179618	-7.28316e-05	5.60583e-07	24.7588	0.0029475	0.00267656	-0.00123441	-7.31168	26.734	26.5166	3.40234	0.0371046	0.00476311	0.0374091	7.31503	1.25755e+07	9.79633e+07	9.87671e+07	-82.685	0.0000000E+000	0.0000000E+000	0.0000000E+000	82.685	0.0000000E+000	0.0000000E+000	0.0000000E+000	-82.685	0.0000000E+000	0.0000000E+000	0.0000000E+000	-7.31503	0.0000000E+000	0.0000000E+000	0.0000000E+000	7.31503	7.79	82.685	0.000000000000000E+000	-5.0068e-05	9.1862e-10	-5.0069e-05	3.96965	314723	5.77435	314728
0.0401878	27.6233	3.90897	27.8985	-8.05446	240.738	3.96958	-0.0126129	1.01313e+06	19889.7	1	11	0.0050843	0.000182243	0	-0.00179618	-7.28316e-05	7.17553e-07	-44.7379	0.00393734	0.00279683	0.00277136	-8.05929	27.9016	27.626	3.91174	0.0354907	0.00502229	0.0358443	8.05446	1.98897e+07	1.40553e+08	1.41954e+08	-81.9455	0.0000000E+000	0.0000000E+000	0.0000000E+000	81.9455	0.0000000E+000	0.0000000E+000	0.0000000E+000	-81.9455	0.0000000E+000	0.0000000E+000	0.0000000E+000	-8.05446	0.0000000E+000	0.0000000E+000	0.0000000E+000	8.05446	7.06663	81.9455	0.000000000000000E+000	-5.0068e-05	9.1862e-10	-5.0069e-05	3.96965	314723	5.77435	314728
0.0200939	29.6002	5.64388	30.1334	-10.795	240.739	3.96958	-0.0126129	1.40339e+06	49230.8	1	11	0.00508392	0.000168714	0	-0.00179618	-7.28316e-05	1.06011e-06	-2.71038	0.00628348	0.00627645	0.00029713	-10.7934	30.1396	29.6064	5.64417	0.0325985	0.00621556	0.0331857	10.795	4.92308e+07	2.58198e+08	2.6285e+08	-79.205	0.0000000E+000	0.0000000E+000	0.0000000E+000	79.205	0.0000000E+000	0.0000000E+000	0.0000000E+000	-79.205	0.0000000E+000	0.0000000E+000	0.0000000E+000	-10.795	0.0000000E+000	0.0000000E+000	0.0000000E+000	10.795	5.24465	79.205	0.000000000000000E+000	-5.0068e-05	9.1862e-10	-5.0069e-05	3.96965	314723	5.77435	314728
0.00796479	36.9787	7.13528	37.6608	-10.9214	20329.6	3.96958	-0.000543578	2.8005e+06	100526	1	11	0.00507624	0.000134789	0	-0.00951465	-9.19415e-05	3.89664e-07	14.1908	0.00289093	0.00280271	-0.000708714	-10.9195	37.6634	36.9815	7.13457	0.0260719	0.00503075	0.0265528	10.9214	1.00526e+08	5.20977e+08	5.30587e+08	-79.0786	0.0000000E+000	0.0000000E+000	0.0000000E+000	79.0786	0.0000000E+000	0.0000000E+000	0.0000000E+000	-79.0786	0.0000000E+000	0.0000000E+000	0.0000000E+000	-10.9214	0.0000000E+000	0.0000000E+000	0.0000000E+000	10.9214	5.18251	79.0786	-0.00771847	-2.15778e-06	4.99774e-11	-2.15783e-06	3.96968	7.30269e+06	169.141	7.30286e+06
0.00497799	39.6453	7.63458	40.3737	-10.9001	20329.6	3.96958	-0.000543578	4.18775e+06	149745	1	11	0.00508351	0.000125911	0	-0.00951465	-9.19415e-05	3.24771e-07	8.29836	0.00257936	0.00255236	-0.000372274	-10.8989	40.3762	39.6479	7.63421	0.0243217	0.00468368	0.0247686	10.9001	1.49745e+08	7.77607e+08	7.91894e+08	-79.0999	0.0000000E+000	0.0000000E+000	0.0000000E+000	79.0999	0.0000000E+000	0.0000000E+000	0.0000000E+000	-79.0999	0.0000000E+000	0.0000000E+000	0.0000000E+000	-10.9001	0.0000000E+000	0.0000000E+000	0.0000000E+000	10.9001	5.19286	79.0999	0.000000000000000E+000	-2.15778e-06	4.99774e-11	-2.15783e-06	3.96968	7.30269e+06	169.141	7.30286e+06
0.00318591	41.4581	9.06501	42.4376	-12.3339	20329.6	3.96958	-0.000543578	5.51084e+06	251451	1	11	0.00508571	0.00011984	0	-0.00951465	-9.19415e-05	4.19874e-07	4.41563	0.00350363	0.00349323	-0.000269748	-12.3325	42.4409	41.4616	9.06474	0.0230201	0.00503346	0.023564	12.3339	2.51451e+08	1.14999e+09	1.17716e+09	-77.6661	0.0000000E+000	0.0000000E+000	0.0000000E+000	77.6661	0.0000000E+000	0.0000000E+000	0.0000000E+000	-77.6661	0.0000000E+000	0.0000000E+000	0.0000000E+000	-12.3339	0.0000000E+000	0.0000000E+000	0.0000000E+000	12.3339	4.57342	77.6661	0.000000000000000E+000	-2.15778e-06	4.99774e-11	-2.15783e-06	3.96968	7.30269e+06	169.141	7.30286e+06
0.0019912	43.9664	10.5552	45.2157	-13.4997	20329.6	3.96958	-0.000543578	7.57251e+06	412662	1	11	0.00508908	0.000112551	0	-0.00951465	-9.19415e-05	2.46714e-07	-47.0161	0.00219202	0.0014945	0.00160356	-13.5013	45.2175	43.9679	10.5568	0.0215052	0.00516283	0.0221162	13.4997	4.12662e+08	1.71889e+09	1.76773e+09	-76.5003	0.0000000E+000	0.0000000E+000	0.0000000E+000	76.5003	0.0000000E+000	0.0000000E+000	0.0000000E+000	-76.5003	0.0000000E+000	0.0000000E+000	0.0000000E+000	-13.4997	0.0000000E+000	0.0000000E+000	0.0000000E+000	13.4997	4.16538	76.5003	0.000000000000000E+000	-2.15778e-06	4.99774e-11	-2.15783e-06	3.96968	7.30269e+06	169.141	7.30286e+06
0.00129428	44.6386	11.3596	46.0614	-14.2775	20329.6	3.96958	-0.000543578	1.0825e+07	658388	1	11	0.00509042	0.000110514	0	-0.00951465	-9.19415e-05	6.55472e-07	13.2832	0.00593113	0.00577245	-0.00136276	-14.2741	46.0666	44.6444	11.3582	0.0210396	0.00535414	0.0217102	14.2775	6.58389e+08	2.5872e+09	2.66966e+09	-75.7225	0.0000000E+000	0.0000000E+000	0.0000000E+000	75.7225	0.0000000E+000	0.0000000E+000	0.0000000E+000	-75.7225	0.0000000E+000	0.0000000E+000	0.0000000E+000	-14.2775	0.0000000E+000	0.0000000E+000	0.0000000E+000	14.2775	3.9296	75.7225	0.000000000000000E+000	-2.15778e-06	4.99774e-11	-2.15783e-06	3.96968	7.30269e+06	169.141	7.30286e+06
0.000796479	46.2043	13.584	48.1597	-16.3832	20329.6	3.96958	-0.000543578	1.47102e+07	1.17032e+06	1	11	0.00508794	0.000105647	0	-0.00951465	-9.19415e-05	1.11111e-06	157.628	0.0105172	-0.00972559	-0.00400305	-16.3819	48.1493	46.1946	13.58	0.0199211	0.00585677	0.0207642	16.3832	1.17032e+09	3.9807e+09	4.14918e+09	-73.6168	0.0000000E+000	0.0000000E+000	0.0000000E+000	73.6168	0.0000000E+000	0.0000000E+000	0.0000000E+000	-73.6168	0.0000000E+000	0.0000000E+000	0.0000000E+000	-16.3832	0.0000000E+000	0.0000000E+000	0.0000000E+000	16.3832	3.40138	73.6168	0.000000000000000E+000	-2.15778e-06	4.99774e-11	-2.15783e-06	3.96968	7.30269e+06	169.141	7.30286e+06
0.000497799	47.9206	19.1329	51.599	-21.765	20329.6	3.96958	-0.000543578	1.67103e+07	2.29755e+06	1	11	0.00509159	9.86763e-05	0	-0.00951465	-9.19415e-05	7.08734e-07	-29.6108	0.00718242	0.0062444	0.00354888	-21.7661	51.6061	47.9268	19.1365	0.0179987	0.00718621	0.0193802	21.765	2.29755e+09	5.75448e+09	6.1962e+09	-68.235	0.0000000E+000	0.0000000E+000	0.0000000E+000	68.235	0.0000000E+000	0.0000000E+000	0.0000000E+000	-68.235	0.0000000E+000	0.0000000E+000	0.0000000E+000	-21.765	0.0000000E+000	0.0000000E+000	0.0000000E+000	21.765	2.50461	68.235	0.000000000000000E+000	-2.15778e-06	4.99774e-11	-2.15783e-06	3.96968	7.30269e+06	169.141	7.30286e+06
0.000298679	48.4741	28.9873	56.4802	-30.8792	20329.6	3.96958	-0.000543578	1.83826e+07	4.84207e+06	1	11	0.00509129	9.01431e-05	0	-0.00951465	-9.19415e-05	1.50493e-06	53.3016	0.0166949	0.00997689	-0.0133858	-30.8624	56.4819	48.4841	28.974	0.0151956	0.00908692	0.0177053	30.8792	4.84207e+09	8.09717e+09	9.4345e+09	-59.1208	0.0000000E+000	0.0000000E+000	0.0000000E+000	59.1208	0.0000000E+000	0.0000000E+000	0.0000000E+000	-59.1208	0.0000000E+000	0.0000000E+000	0.0000000E+000	-30.8792	0.0000000E+000	0.0000000E+000	0.0000000E+000	30.8792	1.67225	59.1208	0.000000000000000E+000	-2.15778e-06	4.99774e-11	-2.15783e-06	3.96968	7.30269e+06	169.141	7.30286e+06
9.95598e-05	54.7364	88.4994	104.059	-58.2635	20329.6	3.96958	-0.000543578	1.80632e+07	1.30653e+07	1	11	0.00508716	4.88874e-05	0	-0.00951465	-9.19415e-05	4.38715e-06	-2.51389	0.0897399	0.0896535	0.00393613	-58.2226	104.109	54.826	88.5033	0.00505498	0.00817304	0.00960996	58.2635	1.30653e+10	8.08081e+09	1.53623e+10	-31.7365	0.0000000E+000	0.0000000E+000	0.0000000E+000	31.7365	0.0000000E+000	0.0000000E+000	0.0000000E+000	-31.7365	0.0000000E+000	0.0000000E+000	0.0000000E+000	-58.2635	0.0000000E+000	0.0000000E+000	0.0000000E+000	58.2635	0.618494	31.7365	0.000000000000000E+000	-2.15778e-06	4.99774e-11	-2.15783e-06	3.96968	7.30269e+06	169.141	7.30286e+06