File: txt/18696_R307_UC91_25_SOC50_C03.mpt
EC-Lab ASCII FILE
Nb header lines : 65

Potentio Electrochemical Impedance Spectroscopy

Run on channel : 3 (SN 65921)
User :
CE vs. WE compliance from -10 V to 10 V
Electrode connection : standard
Potential control : Ewe
Ewe ctrl range : min = -10.00 V, max = 10.00 V
Safety Limits :
	Do not start on E overload
Acquisition started on : 10/29/2025 14:38:18.091
Technique started on : 10/29/2025 14:38:20.326
Loaded Setting File :  C:\Users\Celltest\OneDrive - store-dot.com\Documents\EC-Lab\Data\@Biologic Test Protocols\cathode half cell EIS SOC50.mps
Saved on :
	File : 18696_R307_UC91_25_SOC50_C03.mpr
	Directory : C:\Users\Celltest\OneDrive - store-dot.com\Documents\EC-Lab\Data\Anna\
	Host : 169.254.61.224
Device : VMP-3e (SN .003165)
Address : USB
EC-LAB for windows v11.62 (software)
Internet server v27.00 (firmware)
Command interpretor v12.03 (firmware)
Electrode material :
Initial state :
Electrolyte :
Comments :
Electrode surface area : 0.001 cm²
Characteristic mass : 0.001 g
Equivalent Weight : 0.000 g/eq.
Density : 0.000 g/cm3
Volume (V) : 0.001 cm³
Record Ece
Cycle Definition : Charge/Discharge alternance
Mode                Multi sine
E (V)               0.0000
vs.                 Eoc
tE (h:m:s)          0:00:0.0000
record              0
dI                  0.000
unit dI             mA
dt (s)              0.000
fi                  1.000
unit fi             MHz
ff                  0.100
unit ff             mHz
Nd                  10
Points              per decade
spacing             Logarithmic
Va (mV)             5.0
pw                  0.10
Na                  2
corr                0
E range min (V)     -10.000
E range max (V)     10.000
I Range             Auto
Bandwidth           5
nc cycles           0
goto Ns'            0
nr cycles           0
inc. cycle          0

freq/Hz	Re(Z)/Ohm	-Im(Z)/Ohm	|Z|/Ohm	Phase(Z)/deg	time/s	<Ewe>/V	<I>/mA	Cs/µF	Cp/µF	cycle number	I Range	|Ewe|/V	|I|/A	Ns	(Q-Qo)/mA.h	<Ece>/V	|Ece|/V	Phase(Zce)/deg	|Zce|/Ohm	Re(Zce)/Ohm	-Im(Zce)/Ohm	Phase(Zwe-ce)/deg	|Zwe-ce|/Ohm	Re(Zwe-ce)/Ohm	-Im(Zwe-ce)/Ohm	Re(Y)/Ohm-1	Im(Y)/Ohm-1	|Y|/Ohm-1	Phase(Y)/deg	Re(C)/nF	Im(C)/nF	|C|/nF	Phase(C)/deg	Re(M)	Im(M)	|M|	Phase(M)/deg	Re(Permittivity)	Im(Permittivity)	|Permittivity|	Phase(Permittivity)/deg	Re(Resistivity)/Ohm.cm	Im(Resistivity)/Ohm.cm	|Resistivity|/Ohm.cm	Phase(Resistivity)/deg	Re(Conductivity)/mS/cm	Im(Conductivity)/mS/cm	|Conductivity|/mS/cm	Phase(Conductivity)/deg	Tan(Delta)	Loss Angle(Delta)/deg	dq/mA.h	Pwe/W	Pce/W	Pwe-ce/W	<Ewe-Ece>/V	Rwe/Ohm	Rce/Ohm	Rwe-ce/Ohm		Ewe-Ece/V
1.00002e+06	2.35088	3.3437	4.08741	-54.8898	2.23452	4.00959	-0.0136148	0.0475976	0.0318524	1	10	0.000222197	5.43613e-05	0	-1.23071e-05	-8.05151e-05	0.000199827	-66.7356	3.67591	1.45189	3.37703	-60.4976	7.72199	3.80277	6.72072	0.140713	0.200138	0.244654	54.8898	31.8524	22.3947	38.9371	-35.1102	0.0000000E+000	0.0000000E+000	0.0000000E+000	35.1102	0.0000000E+000	0.0000000E+000	0.0000000E+000	-35.1102	0.0000000E+000	0.0000000E+000	0.0000000E+000	-54.8898	0.0000000E+000	0.0000000E+000	0.0000000E+000	54.8898	0.703077	35.1102	-1.23071e-05	-5.45898e-05	1.0962e-09	-5.45909e-05	4.00967	294503	5.91379	294509
630957	0.735643	-0.101535	0.742617	7.8584	3.40355	4.00921	0.0233393	-2.48432	-0.0464414	1	9	0.000172542	0.000232343	0	-1.06303e-05	0.00012952	0.000120064	-94.2252	0.516753	-0.0380726	0.515348	-30.6773	0.811077	0.69757	0.413814	1.33394	-0.184113	1.34659	-7.8584	-46.4413	336.479	339.669	-97.8584	0.0000000E+000	0.0000000E+000	0.0000000E+000	97.8584	0.0000000E+000	0.0000000E+000	0.0000000E+000	-97.8584	0.0000000E+000	0.0000000E+000	0.0000000E+000	7.8584	0.0000000E+000	0.0000000E+000	0.0000000E+000	-7.8584	7.24525	82.1416	1.51331e-06	9.35722e-05	3.0229e-09	9.35692e-05	4.00908	171779	5.54942	171774
398103	1.05259	0.0716886	1.05503	-3.89622	4.16953	4.0093	0.0192743	5.57666	0.0257481	1	9	0.000703816	0.000667106	0	-7.4836e-06	-8.05151e-05	5.98058e-05	154.657	0.0896496	-0.0810218	-0.0383734	-1.96391	0.97214	0.971569	0.0333152	0.945651	0.0644053	0.947841	3.89622	25.7481	378.055	378.931	-86.1038	0.0000000E+000	0.0000000E+000	0.0000000E+000	86.1038	0.0000000E+000	0.0000000E+000	0.0000000E+000	-86.1038	0.0000000E+000	0.0000000E+000	0.0000000E+000	-3.89622	0.0000000E+000	0.0000000E+000	0.0000000E+000	3.89622	14.6828	86.1038	8.3244e-07	7.72764e-05	-1.55187e-09	7.7278e-05	4.00938	208012	4.17733	208017
251206	1.10906	0.412855	1.18342	-20.418	4.93851	4.00919	0.0149483	1.53459	0.186772	1	9	0.0021972	0.00185666	0	-3.64105e-06	-0.000175985	5.63913e-05	91.2594	0.0303724	-0.000667528	-0.0303651	-19.0387	1.17254	1.1084	0.38249	0.791921	0.294797	0.845012	20.418	186.772	501.732	535.368	-69.582	0.0000000E+000	0.0000000E+000	0.0000000E+000	69.582	0.0000000E+000	0.0000000E+000	0.0000000E+000	-69.582	0.0000000E+000	0.0000000E+000	0.0000000E+000	-20.418	0.0000000E+000	0.0000000E+000	0.0000000E+000	20.418	2.68633	69.582	2.03942e-06	5.99306e-05	-2.63068e-09	5.99332e-05	4.00937	268204	11.7729	268216
158486	1.18062	0.678486	1.36169	-29.8853	5.70452	4.00914	0.0125988	1.48009	0.36746	1	9	0.00505855	0.00371489	0	8.82325e-07	1.49552e-05	5.53897e-05	59.9253	0.0149102	0.00747191	-0.0129029	-29.258	1.36183	1.18809	0.665583	0.636725	0.365916	0.734379	29.8853	367.46	639.412	737.478	-60.1147	0.0000000E+000	0.0000000E+000	0.0000000E+000	60.1147	0.0000000E+000	0.0000000E+000	0.0000000E+000	-60.1147	0.0000000E+000	0.0000000E+000	0.0000000E+000	-29.8853	0.0000000E+000	0.0000000E+000	0.0000000E+000	29.8853	1.74008	60.1147	-1.88394e-06	5.05104e-05	1.88419e-10	5.05102e-05	4.00912	318215	1.18704	318214
100004	1.32045	0.977837	1.64309	-36.5211	6.47256	4.00911	0.0164028	1.62756	0.576429	1	9	0.00522215	0.00317824	0	1.82973e-05	1.49552e-05	3.11475e-05	49.3528	0.00980023	0.00638386	-0.00743578	-36.1804	1.64383	1.32684	0.970401	0.4891	0.362194	0.608608	36.5211	576.429	778.398	968.594	-53.4789	0.0000000E+000	0.0000000E+000	0.0000000E+000	53.4789	0.0000000E+000	0.0000000E+000	0.0000000E+000	-53.4789	0.0000000E+000	0.0000000E+000	0.0000000E+000	-36.5211	0.0000000E+000	0.0000000E+000	0.0000000E+000	36.5211	1.35038	53.4789	7.3233e-06	6.57606e-05	2.45308e-10	6.57604e-05	4.0091	244416	0.911751	244416
63093.8	1.53227	1.38968	2.06859	-42.2062	7.24053	4.0091	0.0246819	1.81517	0.819217	1	9	0.00520365	0.00251555	0	3.01524e-05	-8.05151e-05	3.09827e-05	67.5574	0.0123165	0.00470191	-0.0113837	-41.8845	2.06446	1.53697	1.3783	0.358085	0.324762	0.483421	42.2062	819.217	903.274	1219.43	-47.7938	0.0000000E+000	0.0000000E+000	0.0000000E+000	47.7938	0.0000000E+000	0.0000000E+000	0.0000000E+000	-47.7938	0.0000000E+000	0.0000000E+000	0.0000000E+000	-42.2062	0.0000000E+000	0.0000000E+000	0.0000000E+000	42.2062	1.10261	47.7938	6.11546e-06	9.89524e-05	-1.98727e-09	9.89544e-05	4.00918	162431	3.2621	162434
39814.1	1.85188	1.93745	2.68014	-46.2936	8.00856	4.00908	0.0149483	2.06326	1.0782	1	9	0.00519969	0.00194008	0	2.61396e-05	-0.000424208	1.45381e-05	-19.6518	0.00749356	0.00705709	0.00252011	-46.2219	2.68684	1.85894	1.93997	0.257808	0.269721	0.373114	46.2936	1078.2	1030.58	1491.51	-43.7064	0.0000000E+000	0.0000000E+000	0.0000000E+000	43.7064	0.0000000E+000	0.0000000E+000	0.0000000E+000	-43.7064	0.0000000E+000	0.0000000E+000	0.0000000E+000	-46.2936	0.0000000E+000	0.0000000E+000	0.0000000E+000	46.2936	0.955835	43.7064	-2.09558e-06	5.9929e-05	-6.34119e-09	5.99353e-05	4.00951	268197	28.3784	268225
25116.9	2.39311	2.66898	3.58475	-48.1193	8.77453	4.00908	0.021139	2.37416	1.31608	1	9	0.00523063	0.00145914	0	3.21526e-05	-0.000252362	7.89445e-06	58.0658	0.00541036	0.00286178	-0.00459154	-48.0362	3.58324	2.39597	2.66438	0.186228	0.207696	0.27896	48.1193	1316.08	1180.05	1767.65	-41.8807	0.0000000E+000	0.0000000E+000	0.0000000E+000	41.8807	0.0000000E+000	0.0000000E+000	0.0000000E+000	-41.8807	0.0000000E+000	0.0000000E+000	0.0000000E+000	-48.1193	0.0000000E+000	0.0000000E+000	0.0000000E+000	48.1193	0.896641	41.8807	2.93548e-06	8.4748e-05	-5.33467e-09	8.47533e-05	4.00933	189653	11.9382	189665
15847.7	3.20218	3.51337	4.75371	-47.6532	9.82153	4.00907	-0.0246001	2.85845	1.5614	1	10	0.00492994	0.00103707	0	3.38315e-05	-2.32329e-05	7.41761e-06	-43.5304	0.00715245	0.00518559	0.00492617	-47.647	4.76084	3.20736	3.5183	0.141703	0.155474	0.210362	47.6532	1561.4	1423.1	2112.62	-42.3468	0.0000000E+000	0.0000000E+000	0.0000000E+000	42.3468	0.0000000E+000	0.0000000E+000	0.0000000E+000	-42.3468	0.0000000E+000	0.0000000E+000	0.0000000E+000	-47.6532	0.0000000E+000	0.0000000E+000	0.0000000E+000	47.6532	0.911426	42.3468	-2.81206e-07	-9.86234e-05	5.7153e-10	-9.8624e-05	4.0091	162970	0.944424	162971
10002.2	4.43998	4.37086	6.2304	-44.5505	10.5875	4.00907	-0.0248909	3.64046	1.79167	1	10	0.00530835	0.000852008	0	2.94261e-05	-0.00029055	1.127e-05	23.2521	0.0132276	0.0121532	-0.00522197	-44.438	6.23541	4.45213	4.36564	0.11438	0.112599	0.160503	44.5505	1791.67	1820.01	2553.92	-45.4495	0.0000000E+000	0.0000000E+000	0.0000000E+000	45.4495	0.0000000E+000	0.0000000E+000	0.0000000E+000	-45.4495	0.0000000E+000	0.0000000E+000	0.0000000E+000	-44.5505	0.0000000E+000	0.0000000E+000	0.0000000E+000	44.5505	1.01581	45.4495	-3.6761e-06	-9.97895e-05	7.23205e-09	-9.97967e-05	4.00936	161066	11.6729	161077
6309.38	6.09971	5.09467	7.94746	-39.8697	11.2315	4.00906	-0.0237462	4.95128	2.03466	1	10	0.00540934	0.000680637	0	2.57697e-05	9.13315e-05	1.12472e-05	55.2786	0.0165246	0.00941217	-0.0135821	-39.751	7.946	6.10913	5.08109	0.0965723	0.0806601	0.125826	39.8697	2034.66	2436.05	3173.98	-50.1303	0.0000000E+000	0.0000000E+000	0.0000000E+000	50.1303	0.0000000E+000	0.0000000E+000	0.0000000E+000	-50.1303	0.0000000E+000	0.0000000E+000	0.0000000E+000	-39.8697	0.0000000E+000	0.0000000E+000	0.0000000E+000	39.8697	1.19727	50.1303	-2.16748e-06	-9.51999e-05	-2.16877e-09	-9.51977e-05	4.00897	168830	3.84616	168826
3983.6	7.97501	5.43135	9.64885	-34.2566	11.7941	4.00907	-0.0206288	7.35592	2.33077	1	10	0.00512473	0.000531123	0	2.21069e-05	-9.96091e-05	6.81315e-06	-140.038	0.0128278	-0.00983213	0.00823907	-34.33	9.64537	7.96518	5.43958	0.0856604	0.0583386	0.103639	34.2566	2330.77	3422.35	4140.65	-55.7434	0.0000000E+000	0.0000000E+000	0.0000000E+000	55.7434	0.0000000E+000	0.0000000E+000	0.0000000E+000	-55.7434	0.0000000E+000	0.0000000E+000	0.0000000E+000	-34.2566	0.0000000E+000	0.0000000E+000	0.0000000E+000	34.2566	1.46833	55.7434	-2.12877e-06	-8.27023e-05	2.05482e-09	-8.27044e-05	4.00917	194343	4.82864	194348
2510.8	9.84195	5.44769	11.2491	-28.9653	12.6188	4.00904	-0.0223292	11.6358	2.7289	1	10	0.004848	0.000430969	0	1.60207e-05	-2.32329e-05	4.84692e-06	-53.1614	0.0112466	0.00674302	0.00900093	-28.9888	11.2593	9.84869	5.4567	0.0777766	0.0430507	0.0888963	28.9653	2728.9	4930.11	5634.97	-61.0347	0.0000000E+000	0.0000000E+000	0.0000000E+000	61.0347	0.0000000E+000	0.0000000E+000	0.0000000E+000	-61.0347	0.0000000E+000	0.0000000E+000	0.0000000E+000	-28.9653	0.0000000E+000	0.0000000E+000	0.0000000E+000	28.9653	1.80663	61.0347	-3.04988e-06	-8.95186e-05	5.18771e-10	-8.95191e-05	4.00906	179543	1.04047	179544
1585.51	11.6176	5.20509	12.7303	-24.1341	13.5198	4.00904	-0.0214268	19.2852	3.22406	1	10	0.00469289	0.00036864	0	1.0776e-05	-4.13882e-06	1.20427e-05	-141.795	0.032668	-0.0256706	0.0202044	-24.2645	12.7152	11.5919	5.22529	0.0716865	0.0321182	0.0785528	24.1341	3224.06	7195.97	7885.21	-65.8659	0.0000000E+000	0.0000000E+000	0.0000000E+000	65.8659	0.0000000E+000	0.0000000E+000	0.0000000E+000	-65.8659	0.0000000E+000	0.0000000E+000	0.0000000E+000	-24.1341	0.0000000E+000	0.0000000E+000	0.0000000E+000	24.1341	2.23196	65.8659	-2.40954e-06	-8.5901e-05	8.86816e-11	-8.5901e-05	4.00905	187104	0.193161	187104
1000.32	13.1804	4.91908	14.0684	-20.4661	14.4218	4.00903	-0.0223366	32.3442	3.95433	1	10	0.00456377	0.000324398	0	5.54534e-06	1.49552e-05	1.14114e-05	-100.338	0.0351772	-0.0063128	0.0346061	-20.6071	14.0747	13.1741	4.95369	0.0665944	0.0248538	0.0710811	20.4661	3954.33	10595.4	11309.3	-69.5339	0.0000000E+000	0.0000000E+000	0.0000000E+000	69.5339	0.0000000E+000	0.0000000E+000	0.0000000E+000	-69.5339	0.0000000E+000	0.0000000E+000	0.0000000E+000	-20.4661	0.0000000E+000	0.0000000E+000	0.0000000E+000	20.4661	2.67945	69.5339	-2.53721e-06	-8.95484e-05	-3.3405e-10	-8.9548e-05	4.00902	179482	0.669539	179482
631.01	14.6201	4.53479	15.3072	-17.2326	15.3235	4.00903	-0.0215349	55.6195	4.88146	1	10	0.00452655	0.000295714	0	-6.01827e-08	-0.000214174	7.46936e-06	55.6023	0.0252588	0.0142695	-0.0208419	-17.1423	15.3147	14.6343	4.51394	0.0623961	0.0193538	0.0653287	17.2326	4881.46	15737.7	16477.4	-72.7674	0.0000000E+000	0.0000000E+000	0.0000000E+000	72.7674	0.0000000E+000	0.0000000E+000	0.0000000E+000	-72.7674	0.0000000E+000	0.0000000E+000	0.0000000E+000	-17.2326	0.0000000E+000	0.0000000E+000	0.0000000E+000	17.2326	3.22398	72.7674	-2.83012e-06	-8.63343e-05	4.61221e-09	-8.63389e-05	4.00925	186164	9.9454	186174
398.089	15.9565	4.13617	16.4839	-14.5321	16.4398	4.00904	-0.0205953	96.6589	6.08583	1	10	0.00487138	0.000295524	0	-6.47099e-06	-2.32329e-05	9.637e-06	29.5486	0.0326099	0.0283686	-0.016082	-14.4533	16.5073	15.9849	4.12009	0.0587245	0.0152223	0.0606654	14.5321	6085.83	23477.9	24253.9	-75.4679	0.0000000E+000	0.0000000E+000	0.0000000E+000	75.4679	0.0000000E+000	0.0000000E+000	0.0000000E+000	-75.4679	0.0000000E+000	0.0000000E+000	0.0000000E+000	-14.5321	0.0000000E+000	0.0000000E+000	0.0000000E+000	14.5321	3.8578	75.4679	-3.72312e-06	-8.25673e-05	4.78487e-10	-8.25678e-05	4.00907	194659	1.12807	194660
251.044	17.1971	3.75012	17.6013	-12.3017	17.337	4.00904	-0.0202075	169.054	7.67408	1	10	0.00486431	0.000276361	0	-1.15596e-05	0.000205896	8.08478e-06	-55.336	0.0292544	0.0166388	0.0240618	-12.3666	17.6227	17.2138	3.77418	0.0555096	0.0121048	0.0568141	12.3017	7674.09	35191.5	36018.5	-77.6983	0.0000000E+000	0.0000000E+000	0.0000000E+000	77.6983	0.0000000E+000	0.0000000E+000	0.0000000E+000	-77.6983	0.0000000E+000	0.0000000E+000	0.0000000E+000	-12.3017	0.0000000E+000	0.0000000E+000	0.0000000E+000	12.3017	4.58576	77.6983	-2.68078e-06	-8.10125e-05	-4.16063e-09	-8.10083e-05	4.00883	198394	10.1891	198384
158.428	18.2341	3.24716	18.521	-10.0975	18.2419	4.00905	-0.0209942	309.374	9.50961	1	10	0.00485364	0.000262062	0	-1.67776e-05	-4.13882e-06	9.74067e-06	-84.3028	0.0371694	0.00368984	0.0369858	-10.2081	18.5311	18.2378	3.28415	0.0531565	0.0094662	0.0539928	10.0975	9509.61	53400.3	54240.4	-79.9025	0.0000000E+000	0.0000000E+000	0.0000000E+000	79.9025	0.0000000E+000	0.0000000E+000	0.0000000E+000	-79.9025	0.0000000E+000	0.0000000E+000	0.0000000E+000	-10.0975	0.0000000E+000	0.0000000E+000	0.0000000E+000	10.0975	5.6154	79.9025	-2.63282e-06	-8.41669e-05	8.68913e-11	-8.4167e-05	4.00905	190959	0.19714	190959
100.032	19.0583	2.79721	19.2625	-8.34974	19.1408	4.00903	-0.020502	568.795	11.9945	1	10	0.00484227	0.000251383	0	-2.18686e-05	0.000148614	4.8109e-06	120.895	0.0191377	-0.00982658	-0.0164223	-8.30563	19.2504	19.0485	2.78079	0.051364	0.00753875	0.0519143	8.34974	11994.5	81722.2	82597.8	-81.6503	0.0000000E+000	0.0000000E+000	0.0000000E+000	81.6503	0.0000000E+000	0.0000000E+000	0.0000000E+000	-81.6503	0.0000000E+000	0.0000000E+000	0.0000000E+000	-8.34974	0.0000000E+000	0.0000000E+000	0.0000000E+000	8.34974	6.81333	81.6503	-2.27367e-06	-8.21933e-05	-3.04688e-09	-8.21902e-05	4.00888	195543	7.24873	195536
63.0823	19.7766	2.33538	19.914	-6.73477	20.0569	4.00903	-0.0204685	1080.33	14.8578	1	10	0.00484976	0.000243535	0	-2.71214e-05	-8.05151e-05	9.56868e-06	-93.6821	0.0392907	-0.00252328	0.0392096	-6.84764	19.9161	19.774	2.37459	0.0498695	0.005889	0.050216	6.73477	14857.8	125819	126694	-83.2652	0.0000000E+000	0.0000000E+000	0.0000000E+000	83.2652	0.0000000E+000	0.0000000E+000	0.0000000E+000	-83.2652	0.0000000E+000	0.0000000E+000	0.0000000E+000	-6.73477	0.0000000E+000	0.0000000E+000	0.0000000E+000	6.73477	8.46825	83.2652	-2.53442e-06	-8.20588e-05	1.64802e-09	-8.20604e-05	4.00911	195864	3.93361	195868
39.8089	20.3374	2.089	20.4444	-5.8647	21.2048	4.00905	-0.0226203	1913.82	19.9816	1	11	0.00485251	0.000237352	0	-3.32264e-05	-0.000156891	1.05761e-05	37.2241	0.0445587	0.035481	-0.0269551	-5.77952	20.477	20.3729	2.06204	0.0486572	0.00499793	0.0489132	5.8647	19981.6	194530	195554	-84.1353	0.0000000E+000	0.0000000E+000	0.0000000E+000	84.1353	0.0000000E+000	0.0000000E+000	0.0000000E+000	-84.1353	0.0000000E+000	0.0000000E+000	0.0000000E+000	-5.8647	0.0000000E+000	0.0000000E+000	0.0000000E+000	5.8647	9.73547	84.1353	-2.60865e-06	-9.0686e-05	3.54893e-09	-9.06895e-05	4.00921	177233	6.93587	177240
25.1044	20.8307	1.82677	20.9107	-5.01179	22.084	4.00904	-0.022649	3470.45	26.4861	1	11	0.00485177	0.000232024	0	-3.87147e-05	5.31434e-05	7.05593e-06	135.585	0.0304104	-0.0217217	-0.0212829	-4.95884	20.8872	20.809	1.80549	0.0476397	0.00417781	0.0478225	5.01179	26486.1	302022	303181	-84.9882	0.0000000E+000	0.0000000E+000	0.0000000E+000	84.9882	0.0000000E+000	0.0000000E+000	0.0000000E+000	-84.9882	0.0000000E+000	0.0000000E+000	0.0000000E+000	-5.01179	0.0000000E+000	0.0000000E+000	0.0000000E+000	5.01179	11.403	84.9882	-2.74199e-06	-9.08009e-05	-1.20364e-09	-9.07997e-05	4.00899	177008	2.34639	177005
15.8576	21.2751	1.74381	21.3464	-4.68577	22.962	4.00904	-0.0225942	5755.52	38.4089	1	11	0.00485437	0.000227409	0	-4.33482e-05	0.000110426	2.9279e-05	-21.076	0.128751	0.120138	0.0462994	-4.78272	21.47	21.3952	1.79011	0.0466897	0.00382691	0.0468463	4.68577	38408.9	468602	470174	-85.3142	0.0000000E+000	0.0000000E+000	0.0000000E+000	85.3142	0.0000000E+000	0.0000000E+000	0.0000000E+000	-85.3142	0.0000000E+000	0.0000000E+000	0.0000000E+000	-4.68577	0.0000000E+000	0.0000000E+000	0.0000000E+000	4.68577	12.2004	85.3142	-2.14924e-06	-9.05811e-05	-2.49498e-09	-9.05786e-05	4.00893	177437	4.88734	177432
10.0032	21.661	1.6556	21.7242	-4.37074	23.9439	4.00904	-0.0219509	9610.05	55.8147	1	11	0.00484433	0.000222992	0	-4.99326e-05	-8.05151e-05	1.37966e-05	-93.3963	0.0618703	-0.0036653	0.0617616	-4.53389	21.7253	21.6574	1.71736	0.0458977	0.00350806	0.0460316	4.37074	55814.7	730251	732381	-85.6293	0.0000000E+000	0.0000000E+000	0.0000000E+000	85.6293	0.0000000E+000	0.0000000E+000	0.0000000E+000	-85.6293	0.0000000E+000	0.0000000E+000	0.0000000E+000	-4.37074	0.0000000E+000	0.0000000E+000	0.0000000E+000	4.37074	13.0835	85.6293	-2.29862e-06	-8.80022e-05	1.76738e-09	-8.80039e-05	4.00912	182636	3.66796	182640
6.31058	22.0933	1.58938	22.1504	-4.11474	24.8683	4.00904	-0.0222981	15868	81.6989	1	11	0.00484923	0.000218923	0	-5.40389e-05	0.000167708	4.67702e-06	-141.055	0.0213638	-0.0166156	0.0134288	-4.1525	22.1348	22.0767	1.60281	0.0450296	0.00323941	0.0451459	4.11474	81699	1.13566e+06	1.1386e+06	-85.8853	0.0000000E+000	0.0000000E+000	0.0000000E+000	85.8853	0.0000000E+000	0.0000000E+000	0.0000000E+000	-85.8853	0.0000000E+000	0.0000000E+000	0.0000000E+000	-4.11474	0.0000000E+000	0.0000000E+000	0.0000000E+000	4.11474	13.9006	85.8853	-3.89494e-07	-8.9394e-05	-3.73957e-09	-8.93903e-05	4.00887	179793	7.52116	179785
3.97785	22.5091	1.65481	22.5698	-4.20468	25.8754	4.00906	-0.0207306	24178.1	129.976	1	11	0.00484458	0.000214648	0	-6.33338e-05	5.31434e-05	3.18815e-06	46.3967	0.0148529	0.0102435	-0.0107555	-4.17555	22.5793	22.5193	1.64406	0.0441877	0.00324857	0.0443069	4.20468	129976	1.76796e+06	1.77273e+06	-85.7953	0.0000000E+000	0.0000000E+000	0.0000000E+000	85.7953	0.0000000E+000	0.0000000E+000	0.0000000E+000	-85.7953	0.0000000E+000	0.0000000E+000	0.0000000E+000	-4.20468	0.0000000E+000	0.0000000E+000	0.0000000E+000	4.20468	13.6022	85.7953	-4.90759e-06	-8.31103e-05	-1.10169e-09	-8.31092e-05	4.00901	193389	2.56352	193386
2.51367	22.9542	1.7413	23.0201	-4.33815	27.435	4.00906	-0.0202767	36361.1	208.051	1	11	0.00484722	0.000210564	0	-6.71166e-05	-4.13882e-06	4.47766e-06	-28.3564	0.0212651	0.0187135	0.0100999	-4.35967	23.0395	22.9729	1.7514	0.0433158	0.00328594	0.0434403	4.33815	208051	2.74257e+06	2.75045e+06	-85.6619	0.0000000E+000	0.0000000E+000	0.0000000E+000	85.6619	0.0000000E+000	0.0000000E+000	0.0000000E+000	-85.6619	0.0000000E+000	0.0000000E+000	0.0000000E+000	-4.33815	0.0000000E+000	0.0000000E+000	0.0000000E+000	4.33815	13.1822	85.6619	-1.50639e-06	-8.12906e-05	8.39216e-11	-8.12906e-05	4.00906	197717	0.204117	197717
1.58469	23.4898	1.8838	23.5652	-4.5851	29.8706	4.00907	-0.0190281	53314.2	340.697	1	11	0.00485331	0.000205952	0	-8.25615e-05	3.40493e-05	2.07661e-06	34.6458	0.010083	0.00829507	-0.00573217	-4.5696	23.573	23.4981	1.87807	0.0422996	0.00339227	0.0424354	4.5851	340696	4.24828e+06	4.26192e+06	-85.4149	0.0000000E+000	0.0000000E+000	0.0000000E+000	85.4149	0.0000000E+000	0.0000000E+000	0.0000000E+000	-85.4149	0.0000000E+000	0.0000000E+000	0.0000000E+000	-4.5851	0.0000000E+000	0.0000000E+000	0.0000000E+000	4.5851	12.4694	85.4149	-1.03936e-05	-7.62847e-05	-6.47892e-10	-7.62841e-05	4.00903	210692	1.78943	210691
1.00469	24.1111	2.00375	24.1942	-4.75064	240.689	4.00903	-0.0117646	79057.6	542.26	1	11	0.00503965	0.0002083	0	-0.00170586	-4.13882e-06	8.32581e-07	0.554458	0.00399702	0.00399684	-3.8679e-05	-4.74977	24.1982	24.1151	2.00371	0.0411903	0.00342311	0.0413323	4.75064	542260	6.52501e+06	6.5475e+06	-85.2494	0.0000000E+000	0.0000000E+000	0.0000000E+000	85.2494	0.0000000E+000	0.0000000E+000	0.0000000E+000	-85.2494	0.0000000E+000	0.0000000E+000	0.0000000E+000	-4.75064	0.0000000E+000	0.0000000E+000	0.0000000E+000	4.75064	12.033	85.2494	-0.00160888	-4.71644e-05	4.86913e-11	-4.71645e-05	4.00903	340772	0.351804	340772
0.632957	24.7024	2.17583	24.798	-5.03373	240.69	4.00903	-0.0117646	115563	889.687	1	11	0.00505191	0.000203722	0	-0.00170586	-4.13882e-06	1.19466e-06	3.05682	0.00586414	0.00585579	-0.000312713	-5.03183	24.8038	24.7082	2.17552	0.0401703	0.00353827	0.0403258	5.03373	889688	1.01007e+07	1.01398e+07	-84.9663	0.0000000E+000	0.0000000E+000	0.0000000E+000	84.9663	0.0000000E+000	0.0000000E+000	0.0000000E+000	-84.9663	0.0000000E+000	0.0000000E+000	0.0000000E+000	-5.03373	0.0000000E+000	0.0000000E+000	0.0000000E+000	5.03373	11.3531	84.9663	0.000000000000000E+000	-4.71644e-05	4.86913e-11	-4.71645e-05	4.00903	340772	0.351804	340772
0.401878	25.2845	2.32015	25.3908	-5.24287	240.691	4.00903	-0.0117646	170691	1425.25	1	11	0.00506401	0.000199443	0	-0.00170586	-4.13882e-06	1.05034e-06	4.60773	0.00526637	0.00524934	-0.000423065	-5.24083	25.396	25.2898	2.31973	0.0392196	0.00359885	0.0393844	5.24287	1.42525e+06	1.55321e+07	1.55973e+07	-84.7571	0.0000000E+000	0.0000000E+000	0.0000000E+000	84.7571	0.0000000E+000	0.0000000E+000	0.0000000E+000	-84.7571	0.0000000E+000	0.0000000E+000	0.0000000E+000	-5.24287	0.0000000E+000	0.0000000E+000	0.0000000E+000	5.24287	10.8978	84.7571	0.000000000000000E+000	-4.71644e-05	4.86913e-11	-4.71645e-05	4.00903	340772	0.351804	340772
0.251173	25.9451	2.55073	26.0702	-5.61484	240.692	4.00903	-0.0117646	248418	2378.06	1	11	0.00506689	0.000194356	0	-0.00170586	-4.13882e-06	1.15134e-06	-7.55572	0.00592388	0.00587245	0.000778933	-5.61528	26.0761	25.951	2.55151	0.038174	0.00375297	0.038358	5.61484	2.37806e+06	2.41888e+07	2.43054e+07	-84.3852	0.0000000E+000	0.0000000E+000	0.0000000E+000	84.3852	0.0000000E+000	0.0000000E+000	0.0000000E+000	-84.3852	0.0000000E+000	0.0000000E+000	0.0000000E+000	-5.61484	0.0000000E+000	0.0000000E+000	0.0000000E+000	5.61484	10.1717	84.3852	0.000000000000000E+000	-4.71644e-05	4.86913e-11	-4.71645e-05	4.00903	340772	0.351804	340772
0.160751	26.6477	2.70349	26.7845	-5.79301	240.693	4.00903	-0.0117646	366220	3730.99	1	11	0.00506012	0.00018892	0	-0.00170586	-4.13882e-06	6.18891e-07	-2.31531	0.00327595	0.00327327	0.000132344	-5.79258	26.7878	26.651	2.70362	0.0371443	0.00376841	0.037335	5.79301	3.73099e+06	3.67755e+07	3.69643e+07	-84.207	0.0000000E+000	0.0000000E+000	0.0000000E+000	84.207	0.0000000E+000	0.0000000E+000	0.0000000E+000	-84.207	0.0000000E+000	0.0000000E+000	0.0000000E+000	-5.79301	0.0000000E+000	0.0000000E+000	0.0000000E+000	5.79301	9.85678	84.207	0.000000000000000E+000	-4.71644e-05	4.86913e-11	-4.71645e-05	4.00903	340772	0.351804	340772
0.100469	27.2799	3.21875	27.4691	-6.72921	240.694	4.00903	-0.0117646	492152	6757.47	1	11	0.00506233	0.000184292	0	-0.00170586	-4.13882e-06	8.5477e-07	-6.62364	0.00463814	0.00460718	0.000534996	-6.72919	27.4738	27.2845	3.21928	0.0361537	0.00426577	0.0364045	6.72921	6.75747e+06	5.72716e+07	5.76689e+07	-83.2708	0.0000000E+000	0.0000000E+000	0.0000000E+000	83.2708	0.0000000E+000	0.0000000E+000	0.0000000E+000	-83.2708	0.0000000E+000	0.0000000E+000	0.0000000E+000	-6.72921	0.0000000E+000	0.0000000E+000	0.0000000E+000	6.72921	8.47531	83.2708	0.000000000000000E+000	-4.71644e-05	4.86913e-11	-4.71645e-05	4.00903	340772	0.351804	340772
0.0602816	28.1995	3.60106	28.4285	-7.27725	240.695	4.00903	-0.0117646	733170	11764.1	1	11	0.00505778	0.000177912	0	-0.00170586	-4.13882e-06	8.44793e-07	-14.9881	0.00474837	0.00458682	0.00122802	-7.27853	28.4332	28.2041	3.60229	0.0348926	0.00445577	0.035176	7.27725	1.17641e+07	9.21231e+07	9.28712e+07	-82.7227	0.0000000E+000	0.0000000E+000	0.0000000E+000	82.7227	0.0000000E+000	0.0000000E+000	0.0000000E+000	-82.7227	0.0000000E+000	0.0000000E+000	0.0000000E+000	-7.27725	0.0000000E+000	0.0000000E+000	0.0000000E+000	7.27725	7.83089	82.7227	0.000000000000000E+000	-4.71644e-05	4.86913e-11	-4.71645e-05	4.00903	340772	0.351804	340772
0.0401878	29.1469	4.17736	29.4447	-8.15613	240.696	4.00903	-0.0117646	948036	19081.5	1	11	0.00505773	0.00017177	0	-0.00170586	-4.13882e-06	1.72597e-06	-0.870718	0.0100481	0.010047	0.000152694	-8.15365	29.4547	29.157	4.17751	0.0336184	0.00481821	0.0339619	8.15613	1.90815e+07	1.33138e+08	1.34499e+08	-81.8439	0.0000000E+000	0.0000000E+000	0.0000000E+000	81.8439	0.0000000E+000	0.0000000E+000	0.0000000E+000	-81.8439	0.0000000E+000	0.0000000E+000	0.0000000E+000	-8.15613	0.0000000E+000	0.0000000E+000	0.0000000E+000	8.15613	6.97736	81.8439	0.000000000000000E+000	-4.71644e-05	4.86913e-11	-4.71645e-05	4.00903	340772	0.351804	340772
0.0200939	31.0794	6.37596	31.7267	-11.5934	240.697	4.00903	-0.0117646	1.24226e+06	50170.8	1	11	0.00505858	0.000159442	0	-0.00170586	-4.13882e-06	5.35131e-07	12.8054	0.00335627	0.0032728	-0.000743885	-11.5909	31.7298	31.0827	6.37521	0.0308761	0.00633425	0.0315192	11.5934	5.01708e+07	2.44557e+08	2.4965e+08	-78.4066	0.0000000E+000	0.0000000E+000	0.0000000E+000	78.4066	0.0000000E+000	0.0000000E+000	0.0000000E+000	-78.4066	0.0000000E+000	0.0000000E+000	0.0000000E+000	-11.5934	0.0000000E+000	0.0000000E+000	0.0000000E+000	11.5934	4.87448	78.4066	0.000000000000000E+000	-4.71644e-05	4.86913e-11	-4.71645e-05	4.00903	340772	0.351804	340772
0.00796479	36.5888	9.05868	37.6935	-13.9057	20329.5	4.00903	0.00246897	2.20588e+06	127402	1	11	0.00505282	0.00013405	0	0.0119215	-9.96091e-05	1.39872e-06	-13.0936	0.0104343	0.010163	0.00236382	-13.9055	37.704	36.599	9.06105	0.0257522	0.00637575	0.0265298	13.9057	1.27402e+08	5.14589e+08	5.30126e+08	-76.0943	0.0000000E+000	0.0000000E+000	0.0000000E+000	76.0943	0.0000000E+000	0.0000000E+000	0.0000000E+000	-76.0943	0.0000000E+000	0.0000000E+000	0.0000000E+000	-13.9057	0.0000000E+000	0.0000000E+000	0.0000000E+000	13.9057	4.03909	76.0943	0.0136274	9.89816e-06	-2.45932e-10	9.89841e-06	4.00913	1.62377e+06	40.3444	1.62381e+06
0.00497799	39.7918	10.135	41.0622	-14.2895	20329.5	4.00903	0.00246897	3.15457e+06	192179	1	11	0.00506038	0.000123237	0	0.0119215	-9.96091e-05	1.54139e-06	12.9972	0.0125076	0.0121871	-0.002813	-14.2815	41.0733	39.804	10.1322	0.0235998	0.00601091	0.0243533	14.2895	1.92179e+08	7.54527e+08	7.78616e+08	-75.7105	0.0000000E+000	0.0000000E+000	0.0000000E+000	75.7105	0.0000000E+000	0.0000000E+000	0.0000000E+000	-75.7105	0.0000000E+000	0.0000000E+000	0.0000000E+000	-14.2895	0.0000000E+000	0.0000000E+000	0.0000000E+000	14.2895	3.92616	75.7105	0.000000000000000E+000	9.89816e-06	-2.45932e-10	9.89841e-06	4.00913	1.62377e+06	40.3444	1.62381e+06
0.00318591	42.5099	11.8889	44.1411	-15.625	20329.5	4.00903	0.00246897	4.20187e+06	304819	1	11	0.00506255	0.00011469	0	0.0119215	-9.96091e-05	2.00462e-06	1.75641	0.0174786	0.0174704	-0.000535724	-15.6182	44.1578	42.5274	11.8884	0.0218174	0.00610178	0.0226546	15.625	3.04819e+08	1.08991e+09	1.13173e+09	-74.375	0.0000000E+000	0.0000000E+000	0.0000000E+000	74.375	0.0000000E+000	0.0000000E+000	0.0000000E+000	-74.375	0.0000000E+000	0.0000000E+000	0.0000000E+000	-15.625	0.0000000E+000	0.0000000E+000	0.0000000E+000	15.625	3.57558	74.375	0.000000000000000E+000	9.89816e-06	-2.45932e-10	9.89841e-06	4.00913	1.62377e+06	40.3444	1.62381e+06
0.0019912	45.1813	12.6352	46.9148	-15.624	20329.5	4.00903	0.00246897	6.3259e+06	458850	1	11	0.00506589	0.000107981	0	0.0119215	-9.96091e-05	5.67401e-07	15.6201	0.00525465	0.00506058	-0.00141486	-15.6207	46.9193	45.1863	12.6338	0.0205276	0.00574069	0.0213153	15.624	4.5885e+08	1.64076e+09	1.70371e+09	-74.376	0.0000000E+000	0.0000000E+000	0.0000000E+000	74.376	0.0000000E+000	0.0000000E+000	0.0000000E+000	-74.376	0.0000000E+000	0.0000000E+000	0.0000000E+000	-15.624	0.0000000E+000	0.0000000E+000	0.0000000E+000	15.624	3.57581	74.376	0.000000000000000E+000	9.89816e-06	-2.45932e-10	9.89841e-06	4.00913	1.62377e+06	40.3444	1.62381e+06
0.00129428	45.9577	15.6443	48.5475	-18.7989	20329.5	4.00903	0.00246897	7.86024e+06	816238	1	11	0.00506493	0.00010433	0	0.0119215	-9.96091e-05	1.61428e-06	-20.6878	0.0154729	0.0144752	0.00546619	-18.7995	48.5629	45.9722	15.6498	0.0194996	0.0066378	0.0205984	18.7989	8.16237e+08	2.39783e+09	2.53295e+09	-71.2011	0.0000000E+000	0.0000000E+000	0.0000000E+000	71.2011	0.0000000E+000	0.0000000E+000	0.0000000E+000	-71.2011	0.0000000E+000	0.0000000E+000	0.0000000E+000	-18.7989	0.0000000E+000	0.0000000E+000	0.0000000E+000	18.7989	2.93766	71.2011	0.000000000000000E+000	9.89816e-06	-2.45932e-10	9.89841e-06	4.00913	1.62377e+06	40.3444	1.62381e+06
0.000796479	50.4162	19.6479	54.1095	-21.2916	20329.5	4.00903	0.00246897	1.01702e+07	1.34096e+06	1	11	0.00506884	9.36774e-05	0	0.0119215	-9.96091e-05	1.56997e-06	32.5459	0.0167594	0.0141275	-0.00901612	-21.2772	54.1194	50.4304	19.6389	0.0172196	0.00671073	0.018481	21.2916	1.34096e+09	3.44088e+09	3.69294e+09	-68.7084	0.0000000E+000	0.0000000E+000	0.0000000E+000	68.7084	0.0000000E+000	0.0000000E+000	0.0000000E+000	-68.7084	0.0000000E+000	0.0000000E+000	0.0000000E+000	-21.2916	0.0000000E+000	0.0000000E+000	0.0000000E+000	21.2916	2.56598	68.7084	0.000000000000000E+000	9.89816e-06	-2.45932e-10	9.89841e-06	4.00913	1.62377e+06	40.3444	1.62381e+06
0.000497799	50.7643	26.9435	57.4714	-27.9575	20329.5	4.00903	0.00246897	1.18662e+07	2.60805e+06	1	11	0.0050662	8.81517e-05	0	0.0119215	-9.96091e-05	1.01652e-06	-24.5835	0.0115315	0.0104863	0.00479733	-27.9568	57.483	50.7748	26.9483	0.0153693	0.00815737	0.0173999	27.9575	2.60805e+09	4.91383e+09	5.56306e+09	-62.0425	0.0000000E+000	0.0000000E+000	0.0000000E+000	62.0425	0.0000000E+000	0.0000000E+000	0.0000000E+000	-62.0425	0.0000000E+000	0.0000000E+000	0.0000000E+000	-27.9575	0.0000000E+000	0.0000000E+000	0.0000000E+000	27.9575	1.8841	62.0425	0.000000000000000E+000	9.89816e-06	-2.45932e-10	9.89841e-06	4.00913	1.62377e+06	40.3444	1.62381e+06
0.000298679	50.1012	41.0807	64.7901	-39.3502	20329.5	4.00903	0.00246897	1.29711e+07	5.21477e+06	1	11	0.00506617	7.81936e-05	0	0.0119215	-9.96091e-05	1.24749e-06	-7.84613	0.0159539	0.0158046	0.00217792	-39.3428	64.8037	50.117	41.0829	0.0119352	0.00978634	0.0154345	39.3502	5.21477e+09	6.35983e+09	8.22443e+09	-50.6498	0.0000000E+000	0.0000000E+000	0.0000000E+000	50.6498	0.0000000E+000	0.0000000E+000	0.0000000E+000	-50.6498	0.0000000E+000	0.0000000E+000	0.0000000E+000	-39.3502	0.0000000E+000	0.0000000E+000	0.0000000E+000	39.3502	1.21958	50.6498	0.000000000000000E+000	9.89816e-06	-2.45932e-10	9.89841e-06	4.00913	1.62377e+06	40.3444	1.62381e+06
9.95598e-05	65.9707	126.507	142.675	-62.4589	20329.5	4.00903	0.00246897	1.26363e+07	9.9347e+06	1	11	0.00506675	3.55125e-05	0	0.0119215	-9.96091e-05	2.52243e-06	9.50291	0.0710292	0.0700545	-0.0117268	-62.4318	142.697	66.0407	126.495	0.00324082	0.00621468	0.00700894	62.4589	9.93471e+09	5.18073e+09	1.12044e+10	-27.5411	0.0000000E+000	0.0000000E+000	0.0000000E+000	27.5411	0.0000000E+000	0.0000000E+000	0.0000000E+000	-27.5411	0.0000000E+000	0.0000000E+000	0.0000000E+000	-62.4589	0.0000000E+000	0.0000000E+000	0.0000000E+000	62.4589	0.521478	27.5411	0.000000000000000E+000	9.89816e-06	-2.45932e-10	9.89841e-06	4.00913	1.62377e+06	40.3444	1.62381e+06