File: txt/18698_R307_UC91_25_SOC50_C05.mpt
EC-Lab ASCII FILE
Nb header lines : 65

Potentio Electrochemical Impedance Spectroscopy

Run on channel : 5 (SN 65912)
User :
CE vs. WE compliance from -10 V to 10 V
Electrode connection : standard
Potential control : Ewe
Ewe ctrl range : min = -10.00 V, max = 10.00 V
Safety Limits :
	Do not start on E overload
Acquisition started on : 10/29/2025 14:38:31.353
Technique started on : 10/29/2025 14:38:34.048
Loaded Setting File :  C:\Users\Celltest\OneDrive - store-dot.com\Documents\EC-Lab\Data\@Biologic Test Protocols\cathode half cell EIS SOC50.mps
Saved on :
	File : 18698_R307_UC91_25_SOC50_C05.mpr
	Directory : C:\Users\Celltest\OneDrive - store-dot.com\Documents\EC-Lab\Data\Anna\
	Host : 169.254.61.224
Device : VMP-3e (SN .003165)
Address : USB
EC-LAB for windows v11.62 (software)
Internet server v27.00 (firmware)
Command interpretor v12.03 (firmware)
Electrode material :
Initial state :
Electrolyte :
Comments :
Electrode surface area : 0.001 cm²
Characteristic mass : 0.001 g
Equivalent Weight : 0.000 g/eq.
Density : 0.000 g/cm3
Volume (V) : 0.001 cm³
Record Ece
Cycle Definition : Charge/Discharge alternance
Mode                Multi sine
E (V)               0.0000
vs.                 Eoc
tE (h:m:s)          0:00:0.0000
record              0
dI                  0.000
unit dI             mA
dt (s)              0.000
fi                  1.000
unit fi             MHz
ff                  0.100
unit ff             mHz
Nd                  10
Points              per decade
spacing             Logarithmic
Va (mV)             5.0
pw                  0.10
Na                  2
corr                0
E range min (V)     -10.000
E range max (V)     10.000
I Range             Auto
Bandwidth           5
nc cycles           0
goto Ns'            0
nr cycles           0
inc. cycle          0

freq/Hz	Re(Z)/Ohm	-Im(Z)/Ohm	|Z|/Ohm	Phase(Z)/deg	time/s	<Ewe>/V	<I>/mA	Cs/µF	Cp/µF	cycle number	I Range	|Ewe|/V	|I|/A	Ns	(Q-Qo)/mA.h	<Ece>/V	|Ece|/V	Phase(Zce)/deg	|Zce|/Ohm	Re(Zce)/Ohm	-Im(Zce)/Ohm	Phase(Zwe-ce)/deg	|Zwe-ce|/Ohm	Re(Zwe-ce)/Ohm	-Im(Zwe-ce)/Ohm	Re(Y)/Ohm-1	Im(Y)/Ohm-1	|Y|/Ohm-1	Phase(Y)/deg	Re(C)/nF	Im(C)/nF	|C|/nF	Phase(C)/deg	Re(M)	Im(M)	|M|	Phase(M)/deg	Re(Permittivity)	Im(Permittivity)	|Permittivity|	Phase(Permittivity)/deg	Re(Resistivity)/Ohm.cm	Im(Resistivity)/Ohm.cm	|Resistivity|/Ohm.cm	Phase(Resistivity)/deg	Re(Conductivity)/mS/cm	Im(Conductivity)/mS/cm	|Conductivity|/mS/cm	Phase(Conductivity)/deg	Tan(Delta)	Loss Angle(Delta)/deg	dq/mA.h	Pwe/W	Pce/W	Pwe-ce/W	<Ewe-Ece>/V	Rwe/Ohm	Rce/Ohm	Rwe-ce/Ohm		Ewe-Ece/V
1.00002e+06	0.957098	-0.403546	1.03869	22.862	2.69453	3.97394	0.0409422	-0.394384	-0.0595291	1	9	0.000223525	0.000215198	0	1.16547e-05	-0.000117823	0.000189999	3.82775	0.8829	0.88093	-0.0589399	14.1236	1.89532	1.83803	-0.462486	0.887117	-0.374039	0.962747	-22.862	-59.5291	141.186	153.223	-112.862	0.0000000E+000	0.0000000E+000	0.0000000E+000	112.862	0.0000000E+000	0.0000000E+000	0.0000000E+000	-112.862	0.0000000E+000	0.0000000E+000	0.0000000E+000	22.862	0.0000000E+000	0.0000000E+000	0.0000000E+000	-22.862	2.37172	67.138	1.16547e-05	0.000162702	-4.82392e-09	0.000162706	3.97405	97062.1	2.87778	97065
630957	0.86159	-0.0526576	0.863197	3.49738	3.46253	3.97279	-0.013912	-4.79027	-0.0178263	1	9	0.000287934	0.000333567	0	1.19191e-05	9.21806e-05	0.000100957	-102.419	0.30266	-0.0650919	0.295577	-16.9609	0.832718	0.796498	0.24292	1.15633	-0.0706709	1.15848	-3.49738	-17.8263	291.676	292.22	-93.4974	0.0000000E+000	0.0000000E+000	0.0000000E+000	93.4974	0.0000000E+000	0.0000000E+000	0.0000000E+000	-93.4974	0.0000000E+000	0.0000000E+000	0.0000000E+000	3.49738	0.0000000E+000	0.0000000E+000	0.0000000E+000	-3.49738	16.3621	86.5026	-8.11419e-07	-5.52696e-05	-1.28242e-09	-5.52683e-05	3.9727	285565	6.62596	285558
398103	1.17005	0.152196	1.17991	-7.41119	4.22852	3.97253	-0.0269832	2.62677	0.0437048	1	9	0.00111692	0.000946613	0	7.90118e-06	-3.27544e-06	4.63027e-05	159.528	0.0489141	-0.0458249	-0.0171076	-6.85185	1.13231	1.12423	0.135088	0.840443	0.109321	0.847523	7.41119	43.7048	335.995	338.825	-82.5888	0.0000000E+000	0.0000000E+000	0.0000000E+000	82.5888	0.0000000E+000	0.0000000E+000	0.0000000E+000	-82.5888	0.0000000E+000	0.0000000E+000	0.0000000E+000	-7.41119	0.0000000E+000	0.0000000E+000	0.0000000E+000	7.41119	7.68782	82.5888	-2.79399e-06	-0.000107192	8.83818e-11	-0.000107192	3.97254	147223	0.121388	147223
251206	1.27762	0.425876	1.34673	-18.4351	4.99656	3.97231	-0.0321967	1.48767	0.148769	1	9	0.00345107	0.00256256	0	1.26688e-06	-0.000366009	5.12979e-05	92.4753	0.0200182	-0.000864556	-0.0199996	-17.6353	1.33971	1.27675	0.405877	0.704435	0.234814	0.74254	18.4351	148.769	446.304	470.446	-71.5649	0.0000000E+000	0.0000000E+000	0.0000000E+000	71.5649	0.0000000E+000	0.0000000E+000	0.0000000E+000	-71.5649	0.0000000E+000	0.0000000E+000	0.0000000E+000	-18.4351	0.0000000E+000	0.0000000E+000	0.0000000E+000	18.4351	2.99997	71.5649	-2.57689e-06	-0.000127895	1.17843e-08	-0.000127907	3.97268	123376	11.3679	123388
158486	1.4064	0.669795	1.55775	-25.4661	5.76455	3.97209	-0.0380806	1.49929	0.27719	1	9	0.00536496	0.00344405	0	-5.19751e-06	0.000168545	5.32709e-05	83.0342	0.0154675	0.00187585	-0.0153534	-24.9249	1.55291	1.40827	0.654442	0.57958	0.276025	0.641952	25.4661	277.19	582.026	644.662	-64.5339	0.0000000E+000	0.0000000E+000	0.0000000E+000	64.5339	0.0000000E+000	0.0000000E+000	0.0000000E+000	-64.5339	0.0000000E+000	0.0000000E+000	0.0000000E+000	-25.4661	0.0000000E+000	0.0000000E+000	0.0000000E+000	25.4661	2.09974	64.5339	-8.23657e-07	-0.00015126	-6.41831e-09	-0.000151253	3.97192	104307	4.42602	104303
100004	1.60148	0.934686	1.85428	-30.2695	6.53054	3.97202	-0.025568	1.7027	0.432631	1	9	0.00540799	0.00291648	0	-1.01364e-05	0.000111272	3.5801e-05	77.7878	0.0122754	0.00259665	-0.0119976	-29.9082	1.85052	1.60407	0.922688	0.465767	0.27184	0.539292	30.2695	432.631	741.263	858.278	-59.7305	0.0000000E+000	0.0000000E+000	0.0000000E+000	59.7305	0.0000000E+000	0.0000000E+000	0.0000000E+000	-59.7305	0.0000000E+000	0.0000000E+000	0.0000000E+000	-30.2695	0.0000000E+000	0.0000000E+000	0.0000000E+000	30.2695	1.71339	59.7305	-1.77473e-07	-0.000101557	-2.845e-09	-0.000101554	3.97191	155351	4.35199	155347
63093.8	1.87211	1.24401	2.24775	-33.6038	7.29555	3.97203	-0.0291058	2.02773	0.6211	1	9	0.0053362	0.00237402	0	-2.07626e-05	0.000130363	1.32612e-05	40.7545	0.00558595	0.00423143	-0.00364662	-33.4668	2.24926	1.87635	1.24036	0.370542	0.246223	0.44489	33.6038	621.1	934.697	1122.24	-56.3962	0.0000000E+000	0.0000000E+000	0.0000000E+000	56.3962	0.0000000E+000	0.0000000E+000	0.0000000E+000	-56.3962	0.0000000E+000	0.0000000E+000	0.0000000E+000	-33.6038	0.0000000E+000	0.0000000E+000	0.0000000E+000	33.6038	1.5049	56.3962	-2.42456e-06	-0.000115609	-3.79432e-09	-0.000115605	3.9719	136468	4.47894	136464
39814.1	2.27458	1.6049	2.78378	-35.206	8.06156	3.97201	-0.0311168	2.49078	0.82787	1	9	0.00527631	0.00189538	0	-2.56144e-05	-6.05491e-05	1.65881e-05	3.17161	0.00875189	0.00873849	-0.000484214	-35.0945	2.79065	2.28332	1.60441	0.293516	0.207099	0.359224	35.206	827.87	1173.32	1435.98	-54.794	0.0000000E+000	0.0000000E+000	0.0000000E+000	54.794	0.0000000E+000	0.0000000E+000	0.0000000E+000	-54.794	0.0000000E+000	0.0000000E+000	0.0000000E+000	-35.206	0.0000000E+000	0.0000000E+000	0.0000000E+000	35.206	1.41727	54.794	-2.95778e-06	-0.000123596	1.88409e-09	-0.000123598	3.97207	127649	1.94587	127650
25116.9	2.79665	1.9691	3.42032	-35.1491	8.82753	3.972	-0.0278397	3.218	1.06657	1	9	0.00522384	0.0015273	0	-3.05961e-05	9.21806e-05	9.74082e-06	-44.0089	0.00637782	0.00458713	0.00443112	-35.1656	3.42662	2.80123	1.97353	0.239058	0.16832	0.29237	35.1491	1066.57	1514.81	1852.62	-54.8509	0.0000000E+000	0.0000000E+000	0.0000000E+000	54.8509	0.0000000E+000	0.0000000E+000	0.0000000E+000	-54.8509	0.0000000E+000	0.0000000E+000	0.0000000E+000	-35.1491	0.0000000E+000	0.0000000E+000	0.0000000E+000	35.1491	1.42027	54.8509	-3.56127e-06	-0.000110579	-2.56628e-09	-0.000110577	3.97191	142674	3.31112	142671
15847.7	3.45771	2.30494	4.15554	-33.6878	9.59352	3.972	-0.0286217	4.35707	1.34048	1	9	0.00509427	0.0012259	0	-3.77073e-05	-4.14579e-05	8.23255e-06	-99.4609	0.00671553	-0.00110387	0.00662419	-33.7722	4.1583	3.45661	2.31157	0.200232	0.133476	0.240642	33.6878	1340.47	2010.89	2416.72	-56.3122	0.0000000E+000	0.0000000E+000	0.0000000E+000	56.3122	0.0000000E+000	0.0000000E+000	0.0000000E+000	-56.3122	0.0000000E+000	0.0000000E+000	0.0000000E+000	-33.6878	0.0000000E+000	0.0000000E+000	0.0000000E+000	33.6878	1.50013	56.3122	-3.17482e-06	-0.000113686	1.1866e-09	-0.000113687	3.97204	138776	1.44848	138777
10002.2	4.15924	2.5827	4.89588	-31.8385	10.5155	3.97201	-0.0214639	6.16097	1.7145	1	10	0.00500885	0.00102307	0	-4.2055e-05	7.30894e-05	7.01055e-06	-38.9911	0.00685243	0.00532601	0.00431155	-31.8484	4.90268	4.16456	2.58702	0.173521	0.107749	0.204253	31.8385	1714.5	2761.06	3250.07	-58.1615	0.0000000E+000	0.0000000E+000	0.0000000E+000	58.1615	0.0000000E+000	0.0000000E+000	0.0000000E+000	-58.1615	0.0000000E+000	0.0000000E+000	0.0000000E+000	-31.8385	0.0000000E+000	0.0000000E+000	0.0000000E+000	31.8385	1.61042	58.1615	-1.01257e-06	-8.52547e-05	-1.56878e-09	-8.52531e-05	3.97194	185056	3.40523	185052
6309.38	4.92377	2.88867	5.70858	-30.3993	11.0335	3.97201	-0.0216761	8.73243	2.23602	1	10	0.0052835	0.000925536	0	-4.6203e-05	-3.27544e-06	1.05345e-05	-164.72	0.011382	-0.0109797	0.00299952	-30.4811	5.70064	4.91279	2.89167	0.151092	0.0886424	0.175175	30.3993	2236.02	3811.31	4418.81	-59.6007	0.0000000E+000	0.0000000E+000	0.0000000E+000	59.6007	0.0000000E+000	0.0000000E+000	0.0000000E+000	-59.6007	0.0000000E+000	0.0000000E+000	0.0000000E+000	-30.3993	0.0000000E+000	0.0000000E+000	0.0000000E+000	30.3993	1.70451	59.6007	-2.24186e-06	-8.60976e-05	7.09988e-11	-8.60977e-05	3.97201	183244	0.151108	183244
3983.6	5.73213	3.28126	6.60485	-29.7882	11.5961	3.97196	-0.0249527	12.176	3.0051	1	10	0.00513603	0.000777615	0	-4.85484e-05	-7.96403e-05	9.6083e-06	-30.3979	0.0123561	0.0106575	0.00625223	-29.7894	6.6172	5.74279	3.28751	0.131399	0.0752168	0.151404	29.7882	3005.1	5249.71	6048.97	-60.2118	0.0000000E+000	0.0000000E+000	0.0000000E+000	60.2118	0.0000000E+000	0.0000000E+000	0.0000000E+000	-60.2118	0.0000000E+000	0.0000000E+000	0.0000000E+000	-29.7882	0.0000000E+000	0.0000000E+000	0.0000000E+000	29.7882	1.74693	60.2118	-1.38484e-06	-9.91111e-05	1.98724e-09	-9.91131e-05	3.97204	159179	3.19165	159183
2510.8	6.67608	3.74849	7.65645	-29.3133	12.4208	3.97194	-0.0111724	16.9103	4.0533	1	10	0.00498506	0.000651093	0	-5.17374e-05	-6.05491e-05	9.71311e-06	-145.499	0.0149182	-0.0122944	0.00844987	-29.4136	7.64988	6.66379	3.75694	0.113885	0.0639442	0.130609	29.3133	4053.3	7218.96	8279.04	-60.6867	0.0000000E+000	0.0000000E+000	0.0000000E+000	60.6867	0.0000000E+000	0.0000000E+000	0.0000000E+000	-60.6867	0.0000000E+000	0.0000000E+000	0.0000000E+000	-29.3133	0.0000000E+000	0.0000000E+000	0.0000000E+000	29.3133	1.78101	60.6867	-8.76283e-07	-4.43761e-05	6.76477e-10	-4.43767e-05	3.972	355515	5.41953	355520
1585.51	7.75983	4.31516	8.87894	-29.078	13.3228	3.97195	-0.0114814	23.2624	5.49448	1	10	0.004875	0.000549052	0	-5.45601e-05	0.000149454	1.47182e-05	83.024	0.0268065	0.00325575	-0.0266081	-28.9175	8.86889	7.76309	4.28855	0.0984305	0.0547362	0.112626	29.078	5494.48	9880.56	11305.5	-60.922	0.0000000E+000	0.0000000E+000	0.0000000E+000	60.922	0.0000000E+000	0.0000000E+000	0.0000000E+000	-60.922	0.0000000E+000	0.0000000E+000	0.0000000E+000	-29.078	0.0000000E+000	0.0000000E+000	0.0000000E+000	29.078	1.79827	60.922	-1.82633e-06	-4.56036e-05	-1.71595e-09	-4.56019e-05	3.9718	345945	13.0171	345932
1000.32	9.15881	4.98107	10.4257	-28.5398	14.2248	3.97195	-0.0108708	31.9417	7.29112	1	10	0.00482351	0.000462656	0	-5.77461e-05	3.4907e-05	3.35677e-06	-4.82931	0.00725543	0.00722967	0.000610817	-28.5238	10.4323	9.16604	4.98168	0.0842616	0.0458262	0.095917	28.5398	7291.12	13406.4	15260.8	-61.4602	0.0000000E+000	0.0000000E+000	0.0000000E+000	61.4602	0.0000000E+000	0.0000000E+000	0.0000000E+000	-61.4602	0.0000000E+000	0.0000000E+000	0.0000000E+000	-28.5398	0.0000000E+000	0.0000000E+000	0.0000000E+000	28.5398	1.83872	61.4602	-1.42877e-06	-4.31782e-05	-3.79466e-10	-4.31778e-05	3.97192	365378	3.21108	365375
631.01	10.8791	5.57696	12.2253	-27.141	15.1255	3.97194	-0.0108745	45.2258	9.41161	1	10	0.00478676	0.000391546	0	-5.99852e-05	-0.000117823	5.44791e-06	-55.3125	0.0139139	0.00791837	0.0114409	-27.1718	12.2376	10.887	5.5884	0.0727906	0.0373147	0.0817977	27.141	9411.61	18359.4	20631.2	-62.859	0.0000000E+000	0.0000000E+000	0.0000000E+000	62.859	0.0000000E+000	0.0000000E+000	0.0000000E+000	-62.859	0.0000000E+000	0.0000000E+000	0.0000000E+000	-27.141	0.0000000E+000	0.0000000E+000	0.0000000E+000	27.141	1.95072	62.8589	-1.21088e-06	-4.31929e-05	1.28126e-09	-4.31942e-05	3.97206	365253	10.8348	365263
398.089	12.9644	5.92944	14.256	-24.5776	16.0269	3.97194	-0.011057	67.4259	11.6642	1	10	0.00477577	0.000335	0	-6.26068e-05	-0.000194188	8.9978e-06	38.9195	0.0268591	0.0208972	-0.0168736	-24.481	14.268	12.9853	5.91256	0.0637905	0.0291754	0.0701458	24.5776	11664.2	25503.3	28044.1	-65.4224	0.0000000E+000	0.0000000E+000	0.0000000E+000	65.4224	0.0000000E+000	0.0000000E+000	0.0000000E+000	-65.4224	0.0000000E+000	0.0000000E+000	0.0000000E+000	-24.5776	0.0000000E+000	0.0000000E+000	0.0000000E+000	24.5776	2.18645	65.4224	-1.4026e-06	-4.39176e-05	2.14712e-09	-4.39198e-05	3.97214	359226	17.5625	359243
251.044	15.1412	5.84041	16.2285	-21.0932	16.925	3.97195	-0.0113102	108.549	14.059	1	10	0.0047521	0.000292824	0	-6.55535e-05	-0.000117823	1.12443e-05	51.161	0.0383994	0.0240816	-0.0299097	-20.9641	16.2403	15.1652	5.8105	0.0574911	0.0221761	0.0616199	21.0932	14059	36447.7	39065.2	-68.9068	0.0000000E+000	0.0000000E+000	0.0000000E+000	68.9068	0.0000000E+000	0.0000000E+000	0.0000000E+000	-68.9068	0.0000000E+000	0.0000000E+000	0.0000000E+000	-21.0932	0.0000000E+000	0.0000000E+000	0.0000000E+000	21.0932	2.59248	68.9068	-1.49245e-06	-4.49234e-05	1.33259e-09	-4.49247e-05	3.97207	351185	10.4174	351195
158.428	17.2221	5.2691	18.0101	-17.0115	17.8298	3.97195	-0.0102639	190.656	16.3189	1	10	0.00475301	0.000263908	0	-6.86741e-05	0.000225819	8.69862e-06	-33.951	0.0329608	0.0273415	0.0184081	-17.042	18.0416	17.2494	5.28751	0.0530949	0.0162444	0.0555244	17.0115	16318.9	53338.4	55779	-72.9885	0.0000000E+000	0.0000000E+000	0.0000000E+000	72.9885	0.0000000E+000	0.0000000E+000	0.0000000E+000	-72.9885	0.0000000E+000	0.0000000E+000	0.0000000E+000	-17.0115	0.0000000E+000	0.0000000E+000	0.0000000E+000	17.0115	3.26851	72.9885	-1.448e-06	-4.07676e-05	-2.31778e-09	-4.07653e-05	3.97172	386984	22.0014	386962
100.032	18.8391	4.34739	19.3342	-12.9943	18.7278	3.97195	-0.0102899	365.976	18.5036	1	10	0.00474424	0.00024538	0	-7.11506e-05	-2.23667e-05	8.38671e-06	3.3335	0.0341784	0.0341206	-0.0019874	-12.9659	19.367	18.8733	4.34541	0.0503972	0.0116299	0.0517217	12.9943	18503.6	80184	82291.3	-77.0057	0.0000000E+000	0.0000000E+000	0.0000000E+000	77.0057	0.0000000E+000	0.0000000E+000	0.0000000E+000	-77.0057	0.0000000E+000	0.0000000E+000	0.0000000E+000	-12.9943	0.0000000E+000	0.0000000E+000	0.0000000E+000	12.9943	4.33343	77.0057	-1.16929e-06	-4.08711e-05	2.30151e-10	-4.08713e-05	3.97197	386003	2.17364	386005
63.0823	19.9577	3.41879	20.2484	-9.7205	19.896	3.97199	-0.00921811	737.973	21.0379	1	11	0.00474811	0.000234493	0	-7.43002e-05	-9.87315e-05	9.19352e-06	4.47522	0.039206	0.0390865	-0.00305916	-9.69335	20.2864	19.9968	3.41573	0.0486775	0.00833853	0.0493866	9.7205	21037.9	122812	124601	-80.2795	0.0000000E+000	0.0000000E+000	0.0000000E+000	80.2795	0.0000000E+000	0.0000000E+000	0.0000000E+000	-80.2795	0.0000000E+000	0.0000000E+000	0.0000000E+000	-9.7205	0.0000000E+000	0.0000000E+000	0.0000000E+000	9.7205	5.83766	80.2795	-1.64644e-06	-3.66143e-05	9.10118e-10	-3.66152e-05	3.97209	430890	10.7106	430901
39.8089	20.7025	2.5815	20.8629	-7.1078	20.7968	3.972	-0.00902748	1548.7	23.7117	1	11	0.0047486	0.00022761	0	-7.67824e-05	5.39982e-05	1.09776e-05	-118.821	0.04823	-0.0232507	0.0422556	-7.23096	20.8451	20.6793	2.62376	0.0475637	0.00593094	0.047932	7.1078	23711.7	190158	191631	-82.8922	0.0000000E+000	0.0000000E+000	0.0000000E+000	82.8922	0.0000000E+000	0.0000000E+000	0.0000000E+000	-82.8922	0.0000000E+000	0.0000000E+000	0.0000000E+000	-7.1078	0.0000000E+000	0.0000000E+000	0.0000000E+000	7.1078	8.01958	82.8922	-1.26923e-06	-3.58571e-05	-4.87468e-10	-3.58567e-05	3.97194	439990	5.98154	439984
25.1044	21.1353	1.94974	21.2251	-5.27063	21.676	3.97199	-0.00906062	3251.57	27.4377	1	11	0.00474169	0.000223401	0	-7.92204e-05	-0.000136914	7.1851e-06	90.2081	0.0321624	-0.00011684	-0.0321622	-5.18419	21.222	21.1352	1.91758	0.0469149	0.00432791	0.0471141	5.27063	27437.7	297427	298690	-84.7294	0.0000000E+000	0.0000000E+000	0.0000000E+000	84.7294	0.0000000E+000	0.0000000E+000	0.0000000E+000	-84.7294	0.0000000E+000	0.0000000E+000	0.0000000E+000	-5.27063	0.0000000E+000	0.0000000E+000	0.0000000E+000	5.27063	10.8401	84.7294	-8.61681e-07	-3.59887e-05	1.24053e-09	-3.599e-05	3.97213	438380	15.1109	438395
15.8576	21.4723	1.52936	21.5267	-4.074	22.554	3.972	-0.00906546	6562.56	33.1236	1	11	0.00474649	0.000220493	0	-8.25368e-05	0.000187637	1.24208e-05	7.91441	0.0563319	0.0557953	-0.00775655	-4.04294	21.5818	21.5281	1.52161	0.0463365	0.00330031	0.0464539	4.074	33123.7	465058	466236	-85.926	0.0000000E+000	0.0000000E+000	0.0000000E+000	85.926	0.0000000E+000	0.0000000E+000	0.0000000E+000	-85.926	0.0000000E+000	0.0000000E+000	0.0000000E+000	-4.074	0.0000000E+000	0.0000000E+000	0.0000000E+000	4.074	14.0401	85.926	-1.96394e-06	-3.6008e-05	-1.70101e-09	-3.60063e-05	3.97182	438147	20.698	438126
10.0032	21.6909	1.19651	21.7239	-3.15734	23.5368	3.97201	-0.00883872	13297.4	40.3388	1	11	0.0047433	0.000218345	0	-8.3657e-05	0.000149454	9.6283e-06	102.219	0.0440966	-0.00933287	-0.0430977	-3.04514	21.7122	21.6815	1.15341	0.0459625	0.00253537	0.0460323	3.15734	40338.7	731281	732393	-86.8427	0.0000000E+000	0.0000000E+000	0.0000000E+000	86.8427	0.0000000E+000	0.0000000E+000	0.0000000E+000	-86.8427	0.0000000E+000	0.0000000E+000	0.0000000E+000	-3.15734	0.0000000E+000	0.0000000E+000	0.0000000E+000	3.15734	18.1285	86.8427	6.54713e-07	-3.51074e-05	-1.32098e-09	-3.51061e-05	3.97186	449387	16.909	449370
6.31058	21.8983	1.01306	21.9217	-2.64874	24.4603	3.97198	-0.00989313	24895.1	53.1664	1	11	0.00473939	0.000216196	0	-8.69385e-05	-0.000136914	1.27441e-05	17.1201	0.0589468	0.0563348	-0.0173525	-2.59676	21.9772	21.9547	0.995711	0.0455681	0.00210808	0.0456168	2.64874	53166.4	1.14924e+06	1.15047e+06	-87.3513	0.0000000E+000	0.0000000E+000	0.0000000E+000	87.3513	0.0000000E+000	0.0000000E+000	0.0000000E+000	-87.3513	0.0000000E+000	0.0000000E+000	0.0000000E+000	-2.64874	0.0000000E+000	0.0000000E+000	0.0000000E+000	2.64874	21.6159	87.3513	-4.60603e-08	-3.92953e-05	1.35451e-09	-3.92967e-05	3.97212	401489	13.8393	401503
3.97785	22.123	0.944081	22.1432	-2.44357	25.4673	3.97201	-0.00761956	42380.1	77.0374	1	11	0.00475006	0.000214516	0	-8.92023e-05	-0.000270552	4.39998e-06	9.98117	0.0205112	0.0202008	-0.0035551	-2.43216	22.1632	22.1432	0.940526	0.0451196	0.00192544	0.0451607	2.44357	77037.4	1.80525e+06	1.80689e+06	-87.5564	0.0000000E+000	0.0000000E+000	0.0000000E+000	87.5564	0.0000000E+000	0.0000000E+000	0.0000000E+000	-87.5564	0.0000000E+000	0.0000000E+000	0.0000000E+000	-2.44357	0.0000000E+000	0.0000000E+000	0.0000000E+000	2.44357	23.4334	87.5564	-2.91864e-06	-3.0265e-05	2.06149e-09	-3.0267e-05	3.97228	521292	35.5076	521327
2.51367	22.2868	0.916502	22.3056	-2.35485	27.0269	3.97201	-0.00755805	69084	116.632	1	11	0.00474625	0.000212783	0	-9.45695e-05	5.39982e-05	3.66397e-06	48.6817	0.0172193	0.0113689	-0.0129326	-2.32048	22.3164	22.2981	0.903569	0.0447939	0.00184207	0.0448318	2.35485	116632	2.83616e+06	2.83855e+06	-87.6451	0.0000000E+000	0.0000000E+000	0.0000000E+000	87.6451	0.0000000E+000	0.0000000E+000	0.0000000E+000	-87.6451	0.0000000E+000	0.0000000E+000	0.0000000E+000	-2.35485	0.0000000E+000	0.0000000E+000	0.0000000E+000	2.35485	24.3172	87.6451	-1.24471e-06	-3.00207e-05	-4.08121e-10	-3.00203e-05	3.97196	525534	7.14446	525527
1.58469	22.5026	0.931527	22.5219	-2.37049	29.4625	3.97201	-0.00724794	107816	184.444	1	11	0.00474922	0.000210871	0	-9.2112e-05	1.58158e-05	4.93187e-06	11.7246	0.0233881	0.0229001	-0.00475264	-2.35601	22.5446	22.5255	0.926775	0.0443633	0.00183648	0.0444013	2.37049	184443	4.45554e+06	4.45936e+06	-87.6295	0.0000000E+000	0.0000000E+000	0.0000000E+000	87.6295	0.0000000E+000	0.0000000E+000	0.0000000E+000	-87.6295	0.0000000E+000	0.0000000E+000	0.0000000E+000	-2.37049	0.0000000E+000	0.0000000E+000	0.0000000E+000	2.37049	24.1567	87.6295	9.77663e-07	-2.87889e-05	-1.14632e-10	-2.87887e-05	3.97199	548019	2.18211	548017
1.00469	22.8699	1.04736	22.8939	-2.6221	240.281	3.97196	-0.00772046	151249	316.55	1	11	0.00507623	0.000221729	0	-0.0014176	1.58158e-05	6.50291e-07	-20.3687	0.00293282	0.00274944	0.0010208	-2.62434	22.8967	22.8727	1.04838	0.0436341	0.00199828	0.0436798	2.6221	316550	6.91214e+06	6.91938e+06	-87.3779	0.0000000E+000	0.0000000E+000	0.0000000E+000	87.3779	0.0000000E+000	0.0000000E+000	0.0000000E+000	-87.3779	0.0000000E+000	0.0000000E+000	0.0000000E+000	-2.6221	0.0000000E+000	0.0000000E+000	0.0000000E+000	2.6221	21.8359	87.3779	-0.00132218	-3.06654e-05	-1.22105e-10	-3.06652e-05	3.97194	514472	2.04855	514470
0.632957	23.1335	1.20328	23.1648	-2.97754	240.281	3.97196	-0.00772046	208967	563.84	1	11	0.00508899	0.000219686	0	-0.0014176	1.58158e-05	6.27457e-07	1.76507	0.00285615	0.0028548	-8.79736e-05	-2.97695	23.1676	23.1364	1.20319	0.0431107	0.00224239	0.043169	2.97754	563841	1.084e+07	1.08547e+07	-87.0225	0.0000000E+000	0.0000000E+000	0.0000000E+000	87.0225	0.0000000E+000	0.0000000E+000	0.0000000E+000	-87.0225	0.0000000E+000	0.0000000E+000	0.0000000E+000	-2.97754	0.0000000E+000	0.0000000E+000	0.0000000E+000	2.97754	19.2254	87.0225	0.000000000000000E+000	-3.06654e-05	-1.22105e-10	-3.06652e-05	3.97194	514472	2.04855	514470
0.401878	23.3554	1.46684	23.4014	-3.59377	240.281	3.97196	-0.00772046	269987	1060.78	1	11	0.00510273	0.000218053	0	-0.0014176	1.58158e-05	5.13086e-07	4.51906	0.00235304	0.00234572	-0.000185397	-3.59295	23.4037	23.3577	1.46666	0.0426485	0.00267856	0.0427325	3.59377	1.06078e+06	1.689e+07	1.69233e+07	-86.4062	0.0000000E+000	0.0000000E+000	0.0000000E+000	86.4062	0.0000000E+000	0.0000000E+000	0.0000000E+000	-86.4062	0.0000000E+000	0.0000000E+000	0.0000000E+000	-3.59377	0.0000000E+000	0.0000000E+000	0.0000000E+000	3.59377	15.9222	86.4062	0.000000000000000E+000	-3.06654e-05	-1.22105e-10	-3.06652e-05	3.97194	514472	2.04855	514470
0.251173	23.817	1.82081	23.8865	-4.37177	240.282	3.97196	-0.00772046	348002	2022.12	1	11	0.00510666	0.000213789	0	-0.0014176	1.58158e-05	4.96343e-07	12.074	0.00232165	0.00227029	-0.000485629	-4.37019	23.8887	23.8193	1.82033	0.0417429	0.00319125	0.0418647	4.37177	2.02212e+06	2.64502e+07	2.65274e+07	-85.6282	0.0000000E+000	0.0000000E+000	0.0000000E+000	85.6282	0.0000000E+000	0.0000000E+000	0.0000000E+000	-85.6282	0.0000000E+000	0.0000000E+000	0.0000000E+000	-4.37177	0.0000000E+000	0.0000000E+000	0.0000000E+000	4.37177	13.0804	85.6282	0.000000000000000E+000	-3.06654e-05	-1.22105e-10	-3.06652e-05	3.97194	514472	2.04855	514470
0.160751	24.214	2.08763	24.3038	-4.92761	240.282	3.97196	-0.00772046	474256	3499.21	1	11	0.00509616	0.000209686	0	-0.0014176	1.58158e-05	7.77762e-07	-5.60116	0.00370918	0.00369147	0.000362027	-4.92772	24.3075	24.2177	2.08799	0.0409937	0.0035343	0.0411458	4.92761	3.49921e+06	4.05867e+07	4.07372e+07	-85.0724	0.0000000E+000	0.0000000E+000	0.0000000E+000	85.0724	0.0000000E+000	0.0000000E+000	0.0000000E+000	-85.0724	0.0000000E+000	0.0000000E+000	0.0000000E+000	-4.92761	0.0000000E+000	0.0000000E+000	0.0000000E+000	4.92761	11.5988	85.0724	0.000000000000000E+000	-3.06654e-05	-1.22105e-10	-3.06652e-05	3.97194	514472	2.04855	514470
0.100469	24.7385	2.84646	24.9018	-6.56369	240.283	3.97196	-0.00772046	556521	7271.62	1	11	0.00510011	0.000204809	0	-0.0014176	1.58158e-05	6.93241e-07	13.8406	0.00338481	0.00328653	-0.00080972	-6.56097	24.9049	24.7418	2.84565	0.0398946	0.00459034	0.0401578	6.56369	7.27163e+06	6.31976e+07	6.36145e+07	-83.4363	0.0000000E+000	0.0000000E+000	0.0000000E+000	83.4363	0.0000000E+000	0.0000000E+000	0.0000000E+000	-83.4363	0.0000000E+000	0.0000000E+000	0.0000000E+000	-6.56369	0.0000000E+000	0.0000000E+000	0.0000000E+000	6.56369	8.69098	83.4363	0.000000000000000E+000	-3.06654e-05	-1.22105e-10	-3.06652e-05	3.97194	514472	2.04855	514470
0.0602816	25.5984	3.37348	25.8197	-7.50744	240.283	3.97196	-0.00772046	782632	13360.1	1	11	0.00509534	0.000197343	0	-0.0014176	1.58158e-05	6.41298e-07	28.1375	0.00324967	0.00286562	-0.00153251	-7.50324	25.8224	25.6013	3.37194	0.0383981	0.00506027	0.0387301	7.50744	1.33601e+07	1.01378e+08	1.02255e+08	-82.4926	0.0000000E+000	0.0000000E+000	0.0000000E+000	82.4926	0.0000000E+000	0.0000000E+000	0.0000000E+000	-82.4926	0.0000000E+000	0.0000000E+000	0.0000000E+000	-7.50744	0.0000000E+000	0.0000000E+000	0.0000000E+000	7.50744	7.58814	82.4926	0.000000000000000E+000	-3.06654e-05	-1.22105e-10	-3.06652e-05	3.97194	514472	2.04855	514470
0.0401878	26.6919	3.90798	26.9765	-8.32953	240.283	3.97196	-0.00772046	1.01338e+06	21267.1	1	11	0.00509569	0.000188894	0	-0.0014176	1.58158e-05	9.33618e-07	-8.99009	0.00494256	0.00488184	0.000772342	-8.32965	26.9814	26.6968	3.90875	0.0366783	0.00537009	0.0370693	8.32953	2.12671e+07	1.45256e+08	1.46805e+08	-81.6705	0.0000000E+000	0.0000000E+000	0.0000000E+000	81.6705	0.0000000E+000	0.0000000E+000	0.0000000E+000	-81.6705	0.0000000E+000	0.0000000E+000	0.0000000E+000	-8.32953	0.0000000E+000	0.0000000E+000	0.0000000E+000	8.32953	6.8301	81.6705	0.000000000000000E+000	-3.06654e-05	-1.22105e-10	-3.06652e-05	3.97194	514472	2.04855	514470
0.0200939	28.676	5.68174	29.2335	-11.2072	240.284	3.97196	-0.00772046	1.39404e+06	52659.4	1	11	0.00509589	0.000174317	0	-0.0014176	1.58158e-05	8.62787e-07	-47.556	0.00494953	0.00334029	0.00365244	-11.2129	29.2375	28.6794	5.6854	0.033555	0.00664844	0.0342073	11.2072	5.26594e+07	2.65775e+08	2.70942e+08	-78.7928	0.0000000E+000	0.0000000E+000	0.0000000E+000	78.7928	0.0000000E+000	0.0000000E+000	0.0000000E+000	-78.7928	0.0000000E+000	0.0000000E+000	0.0000000E+000	-11.2072	0.0000000E+000	0.0000000E+000	0.0000000E+000	11.2072	5.04705	78.7928	0.000000000000000E+000	-3.06654e-05	-1.22105e-10	-3.06652e-05	3.97194	514472	2.04855	514470
0.00796479	35.6562	7.49787	36.436	-11.8753	20329.2	3.97196	-0.000811602	2.66507e+06	112856	1	11	0.00508918	0.000139675	0	-0.0099523	-4.14579e-05	2.18623e-07	-129.962	0.00156523	-0.00100532	0.0011997	-11.8775	36.4352	35.6552	7.49907	0.026858	0.00564777	0.0274454	11.8753	1.12855e+08	5.36685e+08	5.48423e+08	-78.1247	0.0000000E+000	0.0000000E+000	0.0000000E+000	78.1247	0.0000000E+000	0.0000000E+000	0.0000000E+000	-78.1247	0.0000000E+000	0.0000000E+000	0.0000000E+000	-11.8753	0.0000000E+000	0.0000000E+000	0.0000000E+000	11.8753	4.75551	78.1247	-0.0085347	-3.22365e-06	3.36473e-11	-3.22369e-06	3.972	4.89398e+06	51.0815	4.89403e+06
0.00497799	38.5026	8.06835	39.3389	-11.8353	20329.2	3.97196	-0.000811602	3.96261e+06	166689	1	11	0.00509652	0.000129554	0	-0.0099523	-4.14579e-05	7.53288e-07	-138.188	0.00581445	-0.00433375	0.0038764	-11.8421	39.3354	38.4982	8.07223	0.0248798	0.00521364	0.0254202	11.8353	1.66689e+08	7.95449e+08	8.12726e+08	-78.1647	0.0000000E+000	0.0000000E+000	0.0000000E+000	78.1647	0.0000000E+000	0.0000000E+000	0.0000000E+000	-78.1647	0.0000000E+000	0.0000000E+000	0.0000000E+000	-11.8353	0.0000000E+000	0.0000000E+000	0.0000000E+000	11.8353	4.77205	78.1647	0.000000000000000E+000	-3.22365e-06	3.36473e-11	-3.22369e-06	3.972	4.89398e+06	51.0815	4.89403e+06
0.00318591	40.6071	9.80663	41.7745	-13.577	20329.2	3.97196	-0.000811602	5.09408e+06	280726	1	11	0.00509942	0.00012207	0	-0.0099523	-4.14579e-05	6.80394e-07	-119.142	0.0055738	-0.00271427	0.00486826	-13.5843	41.773	40.6044	9.8115	0.0232691	0.00561949	0.023938	13.577	2.80726e+08	1.16243e+09	1.19584e+09	-76.423	0.0000000E+000	0.0000000E+000	0.0000000E+000	76.423	0.0000000E+000	0.0000000E+000	0.0000000E+000	-76.423	0.0000000E+000	0.0000000E+000	0.0000000E+000	-13.577	0.0000000E+000	0.0000000E+000	0.0000000E+000	13.577	4.14078	76.423	0.000000000000000E+000	-3.22365e-06	3.36473e-11	-3.22369e-06	3.972	4.89398e+06	51.0815	4.89403e+06
0.0019912	42.9031	10.584	44.1894	-13.8579	20329.2	3.97196	-0.000811602	7.5519e+06	433232	1	11	0.00510062	0.000115426	0	-0.0099523	-4.14579e-05	3.12074e-07	-96.046	0.00270366	-0.000284768	0.00268862	-13.8614	44.1897	42.9029	10.5867	0.0219712	0.00542018	0.0226299	13.8579	4.33231e+08	1.75614e+09	1.80879e+09	-76.1421	0.0000000E+000	0.0000000E+000	0.0000000E+000	76.1421	0.0000000E+000	0.0000000E+000	0.0000000E+000	-76.1421	0.0000000E+000	0.0000000E+000	0.0000000E+000	-13.8579	0.0000000E+000	0.0000000E+000	0.0000000E+000	13.8579	4.05359	76.1421	0.000000000000000E+000	-3.22365e-06	3.36473e-11	-3.22369e-06	3.972	4.89398e+06	51.0815	4.89403e+06
0.00129428	43.8111	11.5212	45.3007	-14.7338	20329.2	3.97196	-0.000811602	1.06732e+07	690370	1	11	0.00510168	0.000112618	0	-0.0099523	-4.14579e-05	3.58609e-07	-72.7122	0.00318429	0.000946279	0.00304044	-14.7372	45.3024	43.8121	11.5243	0.0213489	0.00561422	0.0220747	14.7338	6.9037e+08	2.62523e+09	2.71449e+09	-75.2662	0.0000000E+000	0.0000000E+000	0.0000000E+000	75.2662	0.0000000E+000	0.0000000E+000	0.0000000E+000	-75.2662	0.0000000E+000	0.0000000E+000	0.0000000E+000	-14.7338	0.0000000E+000	0.0000000E+000	0.0000000E+000	14.7338	3.80264	75.2662	0.000000000000000E+000	-3.22365e-06	3.36473e-11	-3.22369e-06	3.972	4.89398e+06	51.0815	4.89403e+06
0.000796479	46.3664	13.6838	48.3435	-16.4425	20329.2	3.97196	-0.000811602	1.46029e+07	1.16997e+06	1	11	0.00510227	0.000105542	0	-0.0099523	-4.14579e-05	6.35995e-07	-105.925	0.00602599	-0.00165339	0.00579472	-16.4497	48.3435	46.3648	13.6896	0.0198394	0.00585505	0.0206853	16.4425	1.16997e+09	3.96437e+09	4.13341e+09	-73.5575	0.0000000E+000	0.0000000E+000	0.0000000E+000	73.5575	0.0000000E+000	0.0000000E+000	0.0000000E+000	-73.5575	0.0000000E+000	0.0000000E+000	0.0000000E+000	-16.4425	0.0000000E+000	0.0000000E+000	0.0000000E+000	16.4425	3.38842	73.5575	0.000000000000000E+000	-3.22365e-06	3.36473e-11	-3.22369e-06	3.972	4.89398e+06	51.0815	4.89403e+06
0.000497799	47.1612	18.4258	50.6329	-21.3404	20329.2	3.97196	-0.000811602	1.73516e+07	2.29787e+06	1	11	0.00510189	0.000100762	0	-0.0099523	-4.14579e-05	5.31846e-07	-27.1121	0.00527821	0.00469823	0.00240546	-21.341	50.6382	47.1659	18.4282	0.0183958	0.0071872	0.01975	21.3404	2.29787e+09	5.88147e+09	6.31442e+09	-68.6596	0.0000000E+000	0.0000000E+000	0.0000000E+000	68.6596	0.0000000E+000	0.0000000E+000	0.0000000E+000	-68.6596	0.0000000E+000	0.0000000E+000	0.0000000E+000	-21.3404	0.0000000E+000	0.0000000E+000	0.0000000E+000	21.3404	2.55953	68.6596	0.000000000000000E+000	-3.22365e-06	3.36473e-11	-3.22369e-06	3.972	4.89398e+06	51.0815	4.89403e+06
0.000298679	47.7184	28.5912	55.6283	-30.9286	20329.2	3.97196	-0.000811602	1.86372e+07	4.9233e+06	1	11	0.00510268	9.17282e-05	0	-0.0099523	-4.14579e-05	4.97873e-07	-99.1986	0.0054277	-0.000867655	0.0053579	-30.9338	55.6303	47.7175	28.5966	0.0154204	0.00923936	0.0179765	30.9286	4.9233e+09	8.21693e+09	9.57898e+09	-59.0714	0.0000000E+000	0.0000000E+000	0.0000000E+000	59.0714	0.0000000E+000	0.0000000E+000	0.0000000E+000	-59.0714	0.0000000E+000	0.0000000E+000	0.0000000E+000	-30.9286	0.0000000E+000	0.0000000E+000	0.0000000E+000	30.9286	1.66899	59.0714	0.000000000000000E+000	-3.22365e-06	3.36473e-11	-3.22369e-06	3.972	4.89398e+06	51.0815	4.89403e+06
9.95598e-05	54.6239	85.3683	101.348	-57.3864	20329.2	3.97196	-0.000811602	1.87258e+07	1.32861e+07	1	11	0.00509947	5.03162e-05	0	-0.0099523	-4.14579e-05	3.04279e-06	-85.3108	0.0604734	0.00494375	0.060271	-57.4024	101.402	54.6288	85.4286	0.005318	0.00831117	0.00986695	57.3864	1.32861e+10	8.50128e+09	1.57732e+10	-32.6136	0.0000000E+000	0.0000000E+000	0.0000000E+000	32.6136	0.0000000E+000	0.0000000E+000	0.0000000E+000	-32.6136	0.0000000E+000	0.0000000E+000	0.0000000E+000	-57.3864	0.0000000E+000	0.0000000E+000	0.0000000E+000	57.3864	0.639862	32.6136	0.000000000000000E+000	-3.22365e-06	3.36473e-11	-3.22369e-06	3.972	4.89398e+06	51.0815	4.89403e+06