File: txt/18692_R307_UC91_23p8_SOC50_C04.mpt
EC-Lab ASCII FILE
Nb header lines : 65

Potentio Electrochemical Impedance Spectroscopy

Run on channel : 4 (SN 66756)
User :
CE vs. WE compliance from -10 V to 10 V
Electrode connection : standard
Potential control : Ewe
Ewe ctrl range : min = -10.00 V, max = 10.00 V
Safety Limits :
	Do not start on E overload
Acquisition started on : 10/28/2025 15:55:43.028
Technique started on : 10/28/2025 15:55:45.263
Loaded Setting File :  C:\Users\Celltest\OneDrive - store-dot.com\Documents\EC-Lab\Data\@Biologic Test Protocols\cathode half cell EIS SOC50.mps
Saved on :
	File : 18692_R307_UC91_23p8_SOC50_C04.mpr
	Directory : C:\Users\Celltest\OneDrive - store-dot.com\Documents\EC-Lab\Data\Anna\
	Host : 169.254.61.224
Device : VMP-3e (SN .003165)
Address : USB
EC-LAB for windows v11.62 (software)
Internet server v27.00 (firmware)
Command interpretor v12.03 (firmware)
Electrode material :
Initial state :
Electrolyte :
Comments :
Electrode surface area : 0.001 cm²
Characteristic mass : 0.001 g
Equivalent Weight : 0.000 g/eq.
Density : 0.000 g/cm3
Volume (V) : 0.001 cm³
Record Ece
Cycle Definition : Charge/Discharge alternance
Mode                Multi sine
E (V)               0.0000
vs.                 Eoc
tE (h:m:s)          0:00:0.0000
record              0
dI                  0.000
unit dI             mA
dt (s)              0.000
fi                  1.000
unit fi             MHz
ff                  0.100
unit ff             mHz
Nd                  10
Points              per decade
spacing             Logarithmic
Va (mV)             5.0
pw                  0.10
Na                  2
corr                0
E range min (V)     -10.000
E range max (V)     10.000
I Range             Auto
Bandwidth           5
nc cycles           0
goto Ns'            0
nr cycles           0
inc. cycle          0

freq/Hz	Re(Z)/Ohm	-Im(Z)/Ohm	|Z|/Ohm	Phase(Z)/deg	time/s	<Ewe>/V	<I>/mA	Cs/µF	Cp/µF	cycle number	I Range	|Ewe|/V	|I|/A	Ns	(Q-Qo)/mA.h	<Ece>/V	|Ece|/V	Phase(Zce)/deg	|Zce|/Ohm	Re(Zce)/Ohm	-Im(Zce)/Ohm	Phase(Zwe-ce)/deg	|Zwe-ce|/Ohm	Re(Zwe-ce)/Ohm	-Im(Zwe-ce)/Ohm	Re(Y)/Ohm-1	Im(Y)/Ohm-1	|Y|/Ohm-1	Phase(Y)/deg	Re(C)/nF	Im(C)/nF	|C|/nF	Phase(C)/deg	Re(M)	Im(M)	|M|	Phase(M)/deg	Re(Permittivity)	Im(Permittivity)	|Permittivity|	Phase(Permittivity)/deg	Re(Resistivity)/Ohm.cm	Im(Resistivity)/Ohm.cm	|Resistivity|/Ohm.cm	Phase(Resistivity)/deg	Re(Conductivity)/mS/cm	Im(Conductivity)/mS/cm	|Conductivity|/mS/cm	Phase(Conductivity)/deg	Tan(Delta)	Loss Angle(Delta)/deg	dq/mA.h	Pwe/W	Pce/W	Pwe-ce/W	<Ewe-Ece>/V	Rwe/Ohm	Rce/Ohm	Rwe-ce/Ohm		Ewe-Ece/V
1.00002e+06	2.15789	2.9281	3.63735	-53.6113	2.23452	3.969	0.0300219	0.0543533	0.0352232	1	10	0.000204158	5.61283e-05	0	2.31933e-06	-0.000359481	0.000184509	-66.5222	3.28727	1.30963	3.01513	-59.739	6.88082	3.46752	5.94323	0.163103	0.221318	0.274926	53.6113	35.2232	25.9581	43.755	-36.3887	0.0000000E+000	0.0000000E+000	0.0000000E+000	36.3887	0.0000000E+000	0.0000000E+000	0.0000000E+000	-36.3887	0.0000000E+000	0.0000000E+000	0.0000000E+000	-53.6113	0.0000000E+000	0.0000000E+000	0.0000000E+000	53.6113	0.73696	36.3887	2.31933e-06	0.000119157	-1.07923e-08	0.000119168	3.96936	132203	11.9739	132215
630957	0.784892	-0.0706361	0.788064	5.14246	3.40355	3.96797	-0.0269886	-3.57103	-0.0286896	1	9	0.000214222	0.000271834	0	-5.15251e-06	-0.000130161	0.000113006	-94.333	0.415716	-0.0314087	0.414528	-24.5321	0.82825	0.753483	0.343892	1.26382	-0.113737	1.26893	-5.14246	-28.6896	318.792	320.08	-95.1425	0.0000000E+000	0.0000000E+000	0.0000000E+000	95.1425	0.0000000E+000	0.0000000E+000	0.0000000E+000	-95.1425	0.0000000E+000	0.0000000E+000	0.0000000E+000	5.14246	0.0000000E+000	0.0000000E+000	0.0000000E+000	-5.14246	11.1118	84.8575	-3.3586e-06	-0.00010709	3.51288e-09	-0.000107093	3.9681	147024	4.82283	147029
398103	1.1169	0.0829749	1.11997	-4.24873	4.16954	3.96782	-0.0356789	4.81812	0.0264457	1	9	0.000895334	0.000799424	0	-1.15912e-05	-0.000111051	4.1419e-05	160.277	0.0518111	-0.0487715	-0.0174851	-3.50858	1.07013	1.06812	0.0654898	0.890424	0.0661502	0.892878	4.24873	26.4457	355.976	356.957	-85.7513	0.0000000E+000	0.0000000E+000	0.0000000E+000	85.7513	0.0000000E+000	0.0000000E+000	0.0000000E+000	-85.7513	0.0000000E+000	0.0000000E+000	0.0000000E+000	-4.24873	0.0000000E+000	0.0000000E+000	0.0000000E+000	4.24873	13.4606	85.7513	-3.16855e-06	-0.000141567	3.96219e-09	-0.000141571	3.96793	111209	3.11253	111212
251206	1.21413	0.361798	1.26689	-16.5935	4.93557	3.96762	-0.0451523	1.75115	0.142816	1	9	0.00274034	0.00216304	0	-2.26465e-05	9.9158e-05	9.55294e-05	76.0674	0.0441644	0.0106339	-0.042865	-14.5958	1.26561	1.22477	0.318933	0.756461	0.225417	0.789333	16.5935	142.816	479.266	500.092	-73.4065	0.0000000E+000	0.0000000E+000	0.0000000E+000	73.4065	0.0000000E+000	0.0000000E+000	0.0000000E+000	-73.4065	0.0000000E+000	0.0000000E+000	0.0000000E+000	-16.5935	0.0000000E+000	0.0000000E+000	0.0000000E+000	16.5935	3.35583	73.4065	-3.74349e-06	-0.000179147	-4.47722e-09	-0.000179143	3.96752	87871.8	2.19608	87869.6
158486	1.30326	0.583744	1.42802	-24.1281	5.57756	3.96751	-0.0422431	1.72031	0.287462	1	9	0.00529947	0.00371106	0	-2.33844e-05	0.000175598	4.70309e-05	64.4628	0.0126732	0.00546337	-0.0114351	-23.6199	1.42839	1.30873	0.572309	0.639089	0.286254	0.700269	24.1281	287.462	641.786	703.224	-65.8719	0.0000000E+000	0.0000000E+000	0.0000000E+000	65.8719	0.0000000E+000	0.0000000E+000	0.0000000E+000	-65.8719	0.0000000E+000	0.0000000E+000	0.0000000E+000	-24.1281	0.0000000E+000	0.0000000E+000	0.0000000E+000	24.1281	2.23259	65.8719	4.1991e-06	-0.0001676	-7.4178e-09	-0.000167592	3.96733	93920.8	4.15684	93916.6
100004	1.45581	0.823332	1.6725	-29.4903	6.34353	3.96749	-0.039968	1.93299	0.468432	1	9	0.00540889	0.00323401	0	-3.78858e-05	-0.000130161	3.76616e-05	56.0854	0.0116455	0.00649767	-0.00966424	-29.0928	1.67344	1.46231	0.813668	0.520442	0.294335	0.597907	29.4903	468.432	828.278	951.563	-60.5097	0.0000000E+000	0.0000000E+000	0.0000000E+000	60.5097	0.0000000E+000	0.0000000E+000	0.0000000E+000	-60.5097	0.0000000E+000	0.0000000E+000	0.0000000E+000	-29.4903	0.0000000E+000	0.0000000E+000	0.0000000E+000	29.4903	1.76819	60.5097	-6.12695e-06	-0.000158572	5.20229e-09	-0.000158578	3.96762	99266.6	3.25664	99269.8
63093.8	1.67996	1.11407	2.01579	-33.5505	7.10956	3.96747	-0.051008	2.26423	0.691599	1	9	0.00532312	0.0026407	0	-4.66163e-05	0.000252038	1.29784e-05	55.9162	0.00491476	0.00275426	-0.0040705	-33.4108	2.01585	1.68272	1.11	0.413434	0.274171	0.496082	33.5505	691.599	1042.89	1251.37	-56.4495	0.0000000E+000	0.0000000E+000	0.0000000E+000	56.4495	0.0000000E+000	0.0000000E+000	0.0000000E+000	-56.4495	0.0000000E+000	0.0000000E+000	0.0000000E+000	-33.5505	0.0000000E+000	0.0000000E+000	0.0000000E+000	33.5505	1.50795	56.4495	-4.31183e-06	-0.000202373	-1.28559e-08	-0.00020236	3.96722	77781.3	4.94114	77776.3
39814.1	2.00536	1.45312	2.47649	-35.9276	7.87556	3.96747	-0.0479123	2.75096	0.94713	1	9	0.00528041	0.00213221	0	-5.72817e-05	-0.000206601	1.95493e-05	18.1577	0.00916855	0.00871198	-0.00285722	-35.7562	2.48188	2.01407	1.45026	0.326978	0.236933	0.403797	35.9276	947.13	1307.08	1614.16	-54.0724	0.0000000E+000	0.0000000E+000	0.0000000E+000	54.0724	0.0000000E+000	0.0000000E+000	0.0000000E+000	-54.0724	0.0000000E+000	0.0000000E+000	0.0000000E+000	-35.9276	0.0000000E+000	0.0000000E+000	0.0000000E+000	35.9276	1.38004	54.0724	-1.91272e-06	-0.000190091	9.89875e-09	-0.000190101	3.96768	82806.9	4.31207	82811.2
25116.9	2.51015	1.8318	3.10747	-36.1203	8.64156	3.96747	-0.0406394	3.4592	1.20204	1	9	0.00530699	0.00170782	0	-6.9384e-05	-3.46116e-05	2.53517e-05	58.2997	0.0148445	0.00780044	-0.0126298	-35.8474	3.10636	2.51795	1.81917	0.259948	0.189699	0.321805	36.1203	1202.04	1647.18	2039.14	-53.8797	0.0000000E+000	0.0000000E+000	0.0000000E+000	53.8797	0.0000000E+000	0.0000000E+000	0.0000000E+000	-53.8797	0.0000000E+000	0.0000000E+000	0.0000000E+000	-36.1203	0.0000000E+000	0.0000000E+000	0.0000000E+000	36.1203	1.37032	53.8797	-5.89584e-06	-0.000161236	1.4066e-09	-0.000161237	3.96751	97626.3	0.851677	97627.2
15847.7	3.06966	2.17317	3.76105	-35.2966	9.40753	3.96748	-0.0485837	4.62127	1.54287	1	9	0.00527788	0.0014033	0	-7.77169e-05	-3.46116e-05	5.32032e-06	-69.7927	0.00379129	0.00130958	0.00355793	-35.3293	3.76417	3.07097	2.17673	0.217007	0.15363	0.265883	35.2966	1542.87	2179.35	2670.21	-54.7034	0.0000000E+000	0.0000000E+000	0.0000000E+000	54.7034	0.0000000E+000	0.0000000E+000	0.0000000E+000	-54.7034	0.0000000E+000	0.0000000E+000	0.0000000E+000	-35.2966	0.0000000E+000	0.0000000E+000	0.0000000E+000	35.2966	1.41253	54.7034	-4.28715e-06	-0.000192755	1.68156e-09	-0.000192756	3.96751	81662.7	0.712412	81663.4
10002.2	3.77099	2.53789	4.54546	-33.9407	10.4535	3.96746	-0.0267551	6.26977	1.95452	1	10	0.00484928	0.00106684	0	-8.9012e-05	0.000118268	8.08328e-06	-119.054	0.00757684	-0.0036796	0.00662337	-34.0358	4.54611	3.76731	2.54451	0.182515	0.122833	0.22	33.9407	1954.52	2904.17	3500.62	-56.0593	0.0000000E+000	0.0000000E+000	0.0000000E+000	56.0593	0.0000000E+000	0.0000000E+000	0.0000000E+000	-56.0593	0.0000000E+000	0.0000000E+000	0.0000000E+000	-33.9407	0.0000000E+000	0.0000000E+000	0.0000000E+000	33.9407	1.48588	56.0593	-5.52982e-06	-0.00010615	-3.16427e-09	-0.000106146	3.96734	148288	4.4204	148284
6309.38	4.50537	2.88211	5.34836	-32.6073	11.2215	3.96746	-0.0257591	8.75231	2.54158	1	10	0.00512543	0.000958318	0	-9.39757e-05	-0.000187491	7.44458e-06	-90.8392	0.00776838	-0.000113776	0.00776755	-32.678	5.35245	4.50526	2.88988	0.157503	0.100756	0.186973	32.6073	2541.58	3973.04	4716.43	-57.3927	0.0000000E+000	0.0000000E+000	0.0000000E+000	57.3927	0.0000000E+000	0.0000000E+000	0.0000000E+000	-57.3927	0.0000000E+000	0.0000000E+000	0.0000000E+000	-32.6073	0.0000000E+000	0.0000000E+000	0.0000000E+000	32.6073	1.56322	57.3927	-2.36841e-06	-0.000102198	4.82961e-09	-0.000102203	3.96765	154022	7.27864	154029
3983.6	5.31384	3.30019	6.25525	-31.8426	11.7841	3.96744	-0.0247781	12.1061	3.36972	1	10	0.00520881	0.000832709	0	-9.76382e-05	-0.000111051	5.32543e-06	32.1836	0.00639531	0.00541264	-0.00340636	-31.79	6.25806	5.31926	3.29679	0.135806	0.0843431	0.159866	31.8426	3369.72	5425.79	6387.03	-58.1574	0.0000000E+000	0.0000000E+000	0.0000000E+000	58.1574	0.0000000E+000	0.0000000E+000	0.0000000E+000	-58.1574	0.0000000E+000	0.0000000E+000	0.0000000E+000	-31.8426	0.0000000E+000	0.0000000E+000	0.0000000E+000	31.8426	1.61016	58.1574	-2.58975e-06	-9.83056e-05	2.75164e-09	-9.83083e-05	3.96755	160119	4.48184	160124
2510.8	6.22994	3.87467	7.33657	-31.8793	12.6088	3.9674	-0.0269901	16.3596	4.56307	1	10	0.00501356	0.000683366	0	-0.000103858	-0.000435921	4.20421e-06	28.0248	0.0061522	0.00543082	-0.00289063	-31.8378	7.33965	6.23537	3.87178	0.115744	0.0719862	0.136304	31.8793	4563.07	7336.78	8640.02	-58.1207	0.0000000E+000	0.0000000E+000	0.0000000E+000	58.1207	0.0000000E+000	0.0000000E+000	0.0000000E+000	-58.1207	0.0000000E+000	0.0000000E+000	0.0000000E+000	-31.8793	0.0000000E+000	0.0000000E+000	0.0000000E+000	31.8793	1.60786	58.1207	-2.97055e-06	-0.00010708	1.17655e-08	-0.000107092	3.96784	146995	16.1512	147011
1585.51	7.33616	4.5469	8.63096	-31.7903	13.5108	3.9674	-0.0261508	22.0768	6.12701	1	10	0.00482077	0.000558544	0	-0.000110062	-1.55017e-05	2.7559e-05	117.974	0.0493408	-0.0231444	-0.0435758	-31.6246	8.58837	7.31301	4.50332	0.0984805	0.0610375	0.115862	31.7903	6127.01	9885.58	11630.3	-58.2097	0.0000000E+000	0.0000000E+000	0.0000000E+000	58.2097	0.0000000E+000	0.0000000E+000	0.0000000E+000	-58.2097	0.0000000E+000	0.0000000E+000	0.0000000E+000	-31.7903	0.0000000E+000	0.0000000E+000	0.0000000E+000	31.7903	1.61344	58.2097	-3.26307e-06	-0.000103751	4.05381e-10	-0.000103751	3.96742	151713	0.592781	151713
1000.32	8.87302	5.37448	10.3738	-31.2037	14.4128	3.96741	-0.0259382	29.6036	7.94589	1	10	0.00475413	0.000458282	0	-0.000116716	-0.000321261	8.24746e-06	-79.7157	0.0179965	0.00321296	0.0177073	-31.2781	10.3857	8.87623	5.39219	0.0824511	0.0499415	0.0963968	31.2037	7945.89	13118.3	15337.1	-58.7963	0.0000000E+000	0.0000000E+000	0.0000000E+000	58.7963	0.0000000E+000	0.0000000E+000	0.0000000E+000	-58.7963	0.0000000E+000	0.0000000E+000	0.0000000E+000	-31.2037	0.0000000E+000	0.0000000E+000	0.0000000E+000	31.2037	1.65095	58.7963	-3.05268e-06	-0.000102907	8.33292e-09	-0.000102916	3.96773	152956	12.3856	152969
631.01	10.7614	6.03063	12.336	-29.266	15.3136	3.96741	-0.0267066	41.8236	9.99534	1	10	0.00468222	0.000379557	0	-0.00012283	0.000118268	6.00208e-06	-122.543	0.0158134	-0.00850658	0.0133304	-29.3393	12.3351	10.7529	6.04396	0.0707165	0.039629	0.0810635	29.266	9995.34	17836.3	20446.1	-60.734	0.0000000E+000	0.0000000E+000	0.0000000E+000	60.734	0.0000000E+000	0.0000000E+000	0.0000000E+000	-60.734	0.0000000E+000	0.0000000E+000	0.0000000E+000	-29.266	0.0000000E+000	0.0000000E+000	0.0000000E+000	29.266	1.78446	60.734	-3.22533e-06	-0.000105956	-3.15854e-09	-0.000105953	3.96729	148555	4.42842	148551
398.089	13.087	6.42278	14.5781	-26.1407	16.2148	3.96742	-0.0261396	62.2467	12.0826	1	10	0.00466766	0.000320182	0	-0.000128965	-0.000111051	1.66272e-05	-44.1809	0.0519304	0.0372415	0.0361916	-26.2037	14.6275	13.1242	6.45898	0.0615796	0.0302218	0.0685959	26.1407	12082.6	24619.3	27424.5	-63.8593	0.0000000E+000	0.0000000E+000	0.0000000E+000	63.8593	0.0000000E+000	0.0000000E+000	0.0000000E+000	-63.8593	0.0000000E+000	0.0000000E+000	0.0000000E+000	-26.1407	0.0000000E+000	0.0000000E+000	0.0000000E+000	26.1407	2.03759	63.8593	-3.28185e-06	-0.000103707	2.90284e-09	-0.00010371	3.96753	151778	4.2484	151782
251.044	15.3739	6.12949	16.5508	-21.7369	17.113	3.96742	-0.0263634	103.43	14.1859	1	10	0.00463742	0.000280193	0	-0.000135395	2.27182e-05	8.02396e-06	79.1819	0.0286372	0.00537498	-0.0281283	-21.6395	16.5454	15.3793	6.10136	0.0561239	0.0223763	0.0604201	21.7369	14185.9	35581	38304.6	-68.2631	0.0000000E+000	0.0000000E+000	0.0000000E+000	68.2631	0.0000000E+000	0.0000000E+000	0.0000000E+000	-68.2631	0.0000000E+000	0.0000000E+000	0.0000000E+000	-21.7369	0.0000000E+000	0.0000000E+000	0.0000000E+000	21.7369	2.50819	68.2631	-3.3878e-06	-0.000104595	-5.9893e-10	-0.000104594	3.96739	150489	0.861733	150489
158.428	17.5511	5.41645	18.3679	-17.1507	18.0178	3.96742	-0.0244349	185.47	16.1281	1	10	0.0046292	0.000252027	0	-0.000141804	0.000118268	1.28952e-05	58.4616	0.0511662	0.0267635	-0.0436084	-16.9962	18.3807	17.5779	5.37284	0.0520218	0.0160544	0.0544428	17.1507	16128.1	52260.4	54692.4	-72.8493	0.0000000E+000	0.0000000E+000	0.0000000E+000	72.8493	0.0000000E+000	0.0000000E+000	0.0000000E+000	-72.8493	0.0000000E+000	0.0000000E+000	0.0000000E+000	-17.1507	0.0000000E+000	0.0000000E+000	0.0000000E+000	17.1507	3.24034	72.8493	-3.1809e-06	-9.69436e-05	-2.88987e-09	-9.69407e-05	3.9673	162367	4.84012	162362
100.032	19.1145	4.37666	19.6092	-12.8967	18.9169	3.96742	-0.0250317	363.528	18.1094	1	10	0.00462429	0.000235822	0	-0.000147893	-0.000168381	8.24123e-06	3.03743	0.0349468	0.0348977	-0.00185177	-12.8687	19.6428	19.1494	4.37481	0.04971	0.0113821	0.0509965	12.8967	18109.4	79090.6	81137.4	-77.1033	0.0000000E+000	0.0000000E+000	0.0000000E+000	77.1033	0.0000000E+000	0.0000000E+000	0.0000000E+000	-77.1033	0.0000000E+000	0.0000000E+000	0.0000000E+000	-12.8967	0.0000000E+000	0.0000000E+000	0.0000000E+000	12.8967	4.36738	77.1033	-2.77191e-06	-9.93113e-05	4.21488e-09	-9.93155e-05	3.96758	158495	6.72671	158502
63.0823	20.3507	3.47393	20.6451	-9.6872	20.085	3.96746	-0.017555	726.258	20.5637	1	11	0.00464142	0.00022482	0	-0.000154864	4.18282e-05	8.90026e-06	30.4744	0.0395885	0.0341195	-0.0200774	-9.61645	20.6754	20.3848	3.45386	0.047747	0.00815057	0.0484376	9.6872	20563.7	120464	122207	-80.3128	0.0000000E+000	0.0000000E+000	0.0000000E+000	80.3128	0.0000000E+000	0.0000000E+000	0.0000000E+000	-80.3128	0.0000000E+000	0.0000000E+000	0.0000000E+000	-9.6872	0.0000000E+000	0.0000000E+000	0.0000000E+000	9.6872	5.85812	80.3128	-3.70822e-06	-6.96489e-05	-7.34296e-10	-6.96482e-05	3.96742	226001	2.38269	225999
39.8089	20.9583	2.61216	21.1205	-7.10448	20.9859	3.96745	-0.017645	1530.52	23.4116	1	11	0.00461605	0.000218558	0	-0.000159713	-0.000263931	9.84958e-06	9.54439	0.0450663	0.0444424	-0.00747251	-7.06952	21.1637	21.0028	2.60469	0.0469838	0.00585587	0.0473474	7.10448	23411.6	187840	189293	-82.8955	0.0000000E+000	0.0000000E+000	0.0000000E+000	82.8955	0.0000000E+000	0.0000000E+000	0.0000000E+000	-82.8955	0.0000000E+000	0.0000000E+000	0.0000000E+000	-7.10448	0.0000000E+000	0.0000000E+000	0.0000000E+000	7.10448	8.02337	82.8955	-2.4402e-06	-7.00055e-05	4.65705e-09	-7.00102e-05	3.96772	224849	14.9579	224864
25.1044	21.5237	1.98801	21.6153	-5.27709	21.865	3.96745	-0.0170167	3188.97	26.9753	1	11	0.00462768	0.000214093	0	-0.000164072	-0.000225711	4.65295e-06	-80.5027	0.0217333	0.00358602	0.0214354	-5.33278	21.6208	21.5273	2.00945	0.0460675	0.00425497	0.0462636	5.27709	26975.3	292055	293298	-84.7229	0.0000000E+000	0.0000000E+000	0.0000000E+000	84.7229	0.0000000E+000	0.0000000E+000	0.0000000E+000	-84.7229	0.0000000E+000	0.0000000E+000	0.0000000E+000	-5.27709	0.0000000E+000	0.0000000E+000	0.0000000E+000	5.27709	10.8267	84.7229	-1.99316e-06	-6.75128e-05	3.84086e-09	-6.75167e-05	3.96767	233150	13.2641	233164
15.8576	21.7954	1.5463	21.8502	-4.05811	22.743	3.96744	-0.0182456	6490.68	32.5062	1	11	0.00462227	0.000211544	0	-0.000169586	-0.000435921	2.28696e-05	24.9929	0.108108	0.0979848	-0.0456762	-3.92105	21.9447	21.8934	1.50062	0.0456515	0.0032388	0.0457662	4.05811	32506.3	458182	459334	-85.9419	0.0000000E+000	0.0000000E+000	0.0000000E+000	85.9419	0.0000000E+000	0.0000000E+000	0.0000000E+000	-85.9419	0.0000000E+000	0.0000000E+000	0.0000000E+000	-4.05811	0.0000000E+000	0.0000000E+000	0.0000000E+000	4.05811	14.0952	85.9419	-3.00394e-06	-7.23883e-05	7.95364e-09	-7.23963e-05	3.96787	217446	23.8918	217470
10.0032	22.1038	1.31314	22.1428	-3.39982	23.7238	3.96744	-0.0175368	12116.3	42.6115	1	11	0.0046232	0.00020879	0	-0.000173012	-0.000111051	9.82802e-06	-5.96222	0.0470713	0.0468167	0.00488942	-3.40525	22.1898	22.1506	1.31803	0.0450819	0.00267822	0.0451614	3.39982	42611.5	717271	718536	-86.6002	0.0000000E+000	0.0000000E+000	0.0000000E+000	86.6002	0.0000000E+000	0.0000000E+000	0.0000000E+000	-86.6002	0.0000000E+000	0.0000000E+000	0.0000000E+000	-3.39982	0.0000000E+000	0.0000000E+000	0.0000000E+000	3.39982	16.8328	86.6002	-1.47506e-06	-6.95761e-05	1.94748e-09	-6.9578e-05	3.96755	226236	6.3325	226242
6.31058	22.3258	1.18437	22.3572	-3.03666	24.6483	3.96745	-0.0179468	21294.3	59.7592	1	11	0.00462586	0.000206907	0	-0.000178805	0.000232928	8.42827e-06	-56.0493	0.0407345	0.0227494	0.03379	-3.11996	22.3817	22.3485	1.21816	0.0446656	0.00236948	0.0447284	3.03666	59759.2	1.12648e+06	1.12806e+06	-86.9633	0.0000000E+000	0.0000000E+000	0.0000000E+000	86.9633	0.0000000E+000	0.0000000E+000	0.0000000E+000	-86.9633	0.0000000E+000	0.0000000E+000	0.0000000E+000	-3.03666	0.0000000E+000	0.0000000E+000	0.0000000E+000	3.03666	18.8503	86.9633	-2.54372e-06	-7.12029e-05	-4.1803e-09	-7.11987e-05	3.96722	221068	12.9788	221055
3.97785	22.589	1.04344	22.6131	-2.64475	25.6554	3.96746	-0.0158721	38344.5	81.6431	1	11	0.00462701	0.000204616	0	-0.000180907	-5.37216e-05	6.35925e-06	-67.9508	0.0310789	0.0116671	0.0288058	-2.71626	22.6261	22.6007	1.07225	0.044175	0.00204055	0.0442221	2.64475	81643.1	1.76746e+06	1.76934e+06	-87.3552	0.0000000E+000	0.0000000E+000	0.0000000E+000	87.3552	0.0000000E+000	0.0000000E+000	0.0000000E+000	-87.3552	0.0000000E+000	0.0000000E+000	0.0000000E+000	-2.64475	0.0000000E+000	0.0000000E+000	0.0000000E+000	2.64475	21.6486	87.3552	-2.12497e-06	-6.29718e-05	8.52674e-10	-6.29727e-05	3.96751	249964	3.38466	249968
2.51367	22.8191	1.03288	22.8424	-2.59166	27.2149	3.96747	-0.0150871	61300.1	125.336	1	11	0.00462699	0.000202561	0	-0.000192507	-0.000283041	4.17852e-06	-7.28698	0.0206285	0.0204619	0.0026165	-2.59589	22.863	22.8395	1.0355	0.0437334	0.00197954	0.0437782	2.59166	125336	2.76901e+06	2.77184e+06	-87.4083	0.0000000E+000	0.0000000E+000	0.0000000E+000	87.4083	0.0000000E+000	0.0000000E+000	0.0000000E+000	-87.4083	0.0000000E+000	0.0000000E+000	0.0000000E+000	-2.59166	0.0000000E+000	0.0000000E+000	0.0000000E+000	2.59166	22.0927	87.4083	-5.82848e-06	-5.98577e-05	4.27028e-09	-5.9862e-05	3.96776	262971	18.7604	262989
1.58469	23.0621	1.06718	23.0867	-2.64943	29.6505	3.96747	-0.014958	94110.9	201.089	1	11	0.00462949	0.000200526	0	-0.000196992	-7.28316e-05	3.16771e-06	-41.0166	0.015797	0.0119192	0.0103672	-2.67375	23.0991	23.074	1.07755	0.0432686	0.00200222	0.0433149	2.64943	201089	4.3456e+06	4.35025e+06	-87.3506	0.0000000E+000	0.0000000E+000	0.0000000E+000	87.3506	0.0000000E+000	0.0000000E+000	0.0000000E+000	-87.3506	0.0000000E+000	0.0000000E+000	0.0000000E+000	-2.64943	0.0000000E+000	0.0000000E+000	0.0000000E+000	2.64943	21.6103	87.3506	-1.26323e-06	-5.93456e-05	1.08942e-09	-5.93467e-05	3.96754	265240	4.86906	265245
1.00469	23.3958	1.15926	23.4245	-2.8367	240.47	3.96742	-0.0146162	136648	334.68	1	11	0.00506291	0.000216138	0	-0.00193373	-0.000225711	4.95184e-07	10.8834	0.00229106	0.00224985	-0.000432576	-2.83537	23.4267	23.398	1.15883	0.0426381	0.00211273	0.0426904	2.8367	334680	6.75436e+06	6.76265e+06	-87.1633	0.0000000E+000	0.0000000E+000	0.0000000E+000	87.1633	0.0000000E+000	0.0000000E+000	0.0000000E+000	-87.1633	0.0000000E+000	0.0000000E+000	0.0000000E+000	-2.8367	0.0000000E+000	0.0000000E+000	0.0000000E+000	2.8367	20.1816	87.1633	-0.00173393	-5.79887e-05	3.29905e-09	-5.7992e-05	3.96765	271439	15.4425	271455
0.632957	23.7084	1.31882	23.745	-3.18389	240.471	3.96742	-0.0146162	190661	588.146	1	11	0.00507546	0.000213748	0	-0.00193373	-0.000225711	4.30408e-07	-11.9482	0.00201362	0.00197	0.000416874	-3.18463	23.747	23.7103	1.31923	0.0420491	0.00233905	0.0421141	3.18389	588146	1.05731e+07	1.05894e+07	-86.8161	0.0000000E+000	0.0000000E+000	0.0000000E+000	86.8161	0.0000000E+000	0.0000000E+000	0.0000000E+000	-86.8161	0.0000000E+000	0.0000000E+000	0.0000000E+000	-3.18389	0.0000000E+000	0.0000000E+000	0.0000000E+000	3.18389	17.977	86.8161	0.000000000000000E+000	-5.79887e-05	3.29905e-09	-5.7992e-05	3.96765	271439	15.4425	271455
0.401878	23.9877	1.54146	24.0371	-3.67679	240.472	3.96742	-0.0146162	256918	1056.56	1	11	0.00508926	0.000211725	0	-0.00193373	-0.000225711	3.86625e-07	-15.1869	0.00182607	0.0017623	0.000478373	-3.67766	24.0389	23.9894	1.54193	0.0415167	0.00266788	0.0416023	3.67679	1.05656e+06	1.64418e+07	1.64757e+07	-86.3232	0.0000000E+000	0.0000000E+000	0.0000000E+000	86.3232	0.0000000E+000	0.0000000E+000	0.0000000E+000	-86.3232	0.0000000E+000	0.0000000E+000	0.0000000E+000	-3.67679	0.0000000E+000	0.0000000E+000	0.0000000E+000	3.67679	15.5617	86.3232	0.000000000000000E+000	-5.79887e-05	3.29905e-09	-5.7992e-05	3.96765	271439	15.4425	271455
0.251173	24.4834	1.86755	24.5545	-4.36198	240.473	3.96742	-0.0146162	339292	1962.71	1	11	0.00509075	0.000207324	0	-0.00193373	-0.000225711	3.93842e-07	-5.66498	0.00189965	0.00189037	0.000187517	-4.36208	24.5564	24.4853	1.86774	0.0406077	0.00309749	0.0407257	4.36198	1.96271e+06	2.57309e+07	2.58056e+07	-85.638	0.0000000E+000	0.0000000E+000	0.0000000E+000	85.638	0.0000000E+000	0.0000000E+000	0.0000000E+000	-85.638	0.0000000E+000	0.0000000E+000	0.0000000E+000	-4.36198	0.0000000E+000	0.0000000E+000	0.0000000E+000	4.36198	13.1099	85.638	0.000000000000000E+000	-5.79887e-05	3.29905e-09	-5.7992e-05	3.96765	271439	15.4425	271455
0.160751	24.9336	2.0117	25.0146	-4.61277	240.474	3.96742	-0.0146162	492156	3183.04	1	11	0.005086	0.000203321	0	-0.00193373	-0.000225711	4.80287e-07	22.7527	0.00236221	0.00217839	-0.000913595	-4.61028	25.0167	24.9358	2.01079	0.0398471	0.00321496	0.0399766	4.61277	3.18304e+06	3.94515e+07	3.95797e+07	-85.3872	0.0000000E+000	0.0000000E+000	0.0000000E+000	85.3872	0.0000000E+000	0.0000000E+000	0.0000000E+000	-85.3872	0.0000000E+000	0.0000000E+000	0.0000000E+000	-4.61277	0.0000000E+000	0.0000000E+000	0.0000000E+000	4.61277	12.3943	85.3872	0.000000000000000E+000	-5.79887e-05	3.29905e-09	-5.7992e-05	3.96765	271439	15.4425	271455
0.100469	25.4364	2.64899	25.574	-5.94544	240.474	3.96742	-0.0146162	598007	6416.07	1	11	0.00508766	0.000198939	0	-0.00193373	-0.000225711	6.54116e-07	-16.3041	0.00328803	0.0031558	0.000923066	-5.94676	25.5772	25.4396	2.64991	0.0388919	0.00405026	0.0391022	5.94544	6.41608e+06	6.16092e+07	6.19424e+07	-84.0546	0.0000000E+000	0.0000000E+000	0.0000000E+000	84.0546	0.0000000E+000	0.0000000E+000	0.0000000E+000	-84.0546	0.0000000E+000	0.0000000E+000	0.0000000E+000	-5.94544	0.0000000E+000	0.0000000E+000	0.0000000E+000	5.94544	9.60231	84.0546	0.000000000000000E+000	-5.79887e-05	3.29905e-09	-5.7992e-05	3.96765	271439	15.4425	271455
0.0602816	26.264	3.06804	26.4426	-6.66285	240.475	3.96742	-0.0146162	860545	11584.8	1	11	0.00508391	0.000192262	0	-0.00193373	-0.000225711	9.02386e-07	-17.5603	0.00469352	0.0044748	0.00141608	-6.66477	26.4472	26.2685	3.06946	0.0375624	0.00438787	0.0378178	6.66285	1.15848e+07	9.91718e+07	9.98461e+07	-83.3372	0.0000000E+000	0.0000000E+000	0.0000000E+000	83.3372	0.0000000E+000	0.0000000E+000	0.0000000E+000	-83.3372	0.0000000E+000	0.0000000E+000	0.0000000E+000	-6.66285	0.0000000E+000	0.0000000E+000	0.0000000E+000	6.66285	8.5605	83.3372	0.000000000000000E+000	-5.79887e-05	3.29905e-09	-5.7992e-05	3.96765	271439	15.4425	271455
0.0401878	27.238	3.485	27.46	-7.29116	240.476	3.96742	-0.0146162	1.13638e+06	18303.2	1	11	0.00508373	0.000185132	0	-0.00193373	-0.000225711	9.89895e-07	6.08849	0.00534697	0.00531681	-0.000567122	-7.28858	27.4652	27.2433	3.48443	0.0361221	0.00462168	0.0364166	7.29116	1.83032e+07	1.43054e+08	1.4422e+08	-82.7088	0.0000000E+000	0.0000000E+000	0.0000000E+000	82.7088	0.0000000E+000	0.0000000E+000	0.0000000E+000	-82.7088	0.0000000E+000	0.0000000E+000	0.0000000E+000	-7.29116	0.0000000E+000	0.0000000E+000	0.0000000E+000	7.29116	7.81579	82.7088	0.000000000000000E+000	-5.79887e-05	3.29905e-09	-5.7992e-05	3.96765	271439	15.4425	271455
0.0200939	29.0632	4.9374	29.4797	-9.64161	240.477	3.96742	-0.0146162	1.6042e+06	44999.7	1	11	0.00508481	0.000172485	0	-0.00193373	-0.000225711	1.34107e-06	-31.9398	0.00777498	0.00659788	0.00411319	-9.64735	29.4868	29.0698	4.94151	0.0334425	0.00568137	0.0339217	9.64161	4.49997e+07	2.64884e+08	2.68679e+08	-80.3584	0.0000000E+000	0.0000000E+000	0.0000000E+000	80.3584	0.0000000E+000	0.0000000E+000	0.0000000E+000	-80.3584	0.0000000E+000	0.0000000E+000	0.0000000E+000	-9.64161	0.0000000E+000	0.0000000E+000	0.0000000E+000	9.64161	5.88635	80.3584	0.000000000000000E+000	-5.79887e-05	3.29905e-09	-5.7992e-05	3.96765	271439	15.4425	271455
0.00796479	34.4806	6.06371	35.0097	-9.97397	20329.4	3.96743	-0.000227124	3.29539e+06	98856.9	1	11	0.00507608	0.000144991	0	-0.0126238	-9.19415e-05	3.88195e-07	-37.1766	0.00267738	0.00213327	0.00161787	-9.97597	35.0121	34.4828	6.06533	0.0281318	0.00494722	0.0285635	9.97397	9.88569e+07	5.62138e+08	5.70765e+08	-80.026	0.0000000E+000	0.0000000E+000	0.0000000E+000	80.026	0.0000000E+000	0.0000000E+000	0.0000000E+000	-80.026	0.0000000E+000	0.0000000E+000	0.0000000E+000	-9.97397	0.0000000E+000	0.0000000E+000	0.0000000E+000	9.97397	5.68639	80.026	-0.0106901	-9.01097e-07	2.08821e-11	-9.01118e-07	3.96752	1.74682e+07	404.808	1.74686e+07
0.00497799	36.767	6.54485	37.3449	-10.0934	20329.4	3.96743	-0.000227124	4.88502e+06	150038	1	11	0.00508264	0.0001361	0	-0.0126238	-9.19415e-05	3.95035e-07	-20.9631	0.00290254	0.00271042	0.00103843	-10.0943	37.3478	36.7697	6.54589	0.026363	0.00469285	0.0267774	10.0934	1.50038e+08	8.42869e+08	8.56119e+08	-79.9066	0.0000000E+000	0.0000000E+000	0.0000000E+000	79.9066	0.0000000E+000	0.0000000E+000	0.0000000E+000	-79.9066	0.0000000E+000	0.0000000E+000	0.0000000E+000	-10.0934	0.0000000E+000	0.0000000E+000	0.0000000E+000	10.0934	5.61769	79.9066	0.000000000000000E+000	-9.01097e-07	2.08821e-11	-9.01118e-07	3.96752	1.74682e+07	404.808	1.74686e+07
0.00318591	38.1363	8.10227	38.9875	-11.9945	20329.4	3.96743	-0.000227124	6.16565e+06	266282	1	11	0.00508498	0.000130426	0	-0.0126238	-9.19415e-05	3.98465e-07	-53.0314	0.0030551	0.00183727	0.00244092	-11.9974	38.9898	38.1382	8.10472	0.0250893	0.00533035	0.0256492	11.9945	2.66282e+08	1.25335e+09	1.28133e+09	-78.0055	0.0000000E+000	0.0000000E+000	0.0000000E+000	78.0055	0.0000000E+000	0.0000000E+000	0.0000000E+000	-78.0055	0.0000000E+000	0.0000000E+000	0.0000000E+000	-11.9945	0.0000000E+000	0.0000000E+000	0.0000000E+000	11.9945	4.70687	78.0055	0.000000000000000E+000	-9.01097e-07	2.08821e-11	-9.01118e-07	3.96752	1.74682e+07	404.808	1.74686e+07
0.0019912	39.5354	9.43217	40.645	-13.4185	20329.4	3.96743	-0.000227124	8.47411e+06	456357	1	11	0.00508868	0.000125198	0	-0.0126238	-9.19415e-05	9.20442e-07	28.3201	0.00735187	0.00647193	-0.0034877	-13.4116	40.6504	39.5419	9.42869	0.0239316	0.0057095	0.0246033	13.4185	4.56357e+08	1.91284e+09	1.96652e+09	-76.5815	0.0000000E+000	0.0000000E+000	0.0000000E+000	76.5815	0.0000000E+000	0.0000000E+000	0.0000000E+000	-76.5815	0.0000000E+000	0.0000000E+000	0.0000000E+000	-13.4185	0.0000000E+000	0.0000000E+000	0.0000000E+000	13.4185	4.19155	76.5815	0.000000000000000E+000	-9.01097e-07	2.08821e-11	-9.01118e-07	3.96752	1.74682e+07	404.808	1.74686e+07
0.00129428	39.9056	10.3237	41.2193	-14.5046	20329.4	3.96743	-0.000227124	1.19112e+07	747183	1	11	0.00508965	0.000123477	0	-0.0126238	-9.19415e-05	9.94163e-07	4.69677	0.00805139	0.00802435	-0.000659266	-14.501	41.2269	39.9136	10.3231	0.0234872	0.00607623	0.0242605	14.5046	7.47183e+08	2.88818e+09	2.98326e+09	-75.4954	0.0000000E+000	0.0000000E+000	0.0000000E+000	75.4954	0.0000000E+000	0.0000000E+000	0.0000000E+000	-75.4954	0.0000000E+000	0.0000000E+000	0.0000000E+000	-14.5046	0.0000000E+000	0.0000000E+000	0.0000000E+000	14.5046	3.86542	75.4954	0.000000000000000E+000	-9.01097e-07	2.08821e-11	-9.01118e-07	3.96752	1.74682e+07	404.808	1.74686e+07
0.000796479	41.4901	13.205	43.5408	-17.6547	20329.4	3.96743	-0.000227124	1.51324e+07	1.39185e+06	1	11	0.005088	0.000116856	0	-0.0126238	-9.19415e-05	1.08739e-06	74.8671	0.00930536	0.00242924	-0.00898268	-17.6424	43.5404	41.4925	13.196	0.0218853	0.00696541	0.022967	17.6547	1.39185e+09	4.37319e+09	4.58934e+09	-72.3453	0.0000000E+000	0.0000000E+000	0.0000000E+000	72.3453	0.0000000E+000	0.0000000E+000	0.0000000E+000	-72.3453	0.0000000E+000	0.0000000E+000	0.0000000E+000	-17.6547	0.0000000E+000	0.0000000E+000	0.0000000E+000	17.6547	3.142	72.3453	0.000000000000000E+000	-9.01097e-07	2.08821e-11	-9.01118e-07	3.96752	1.74682e+07	404.808	1.74686e+07
0.000497799	42.7666	17.5323	46.2208	-22.2914	20329.4	3.96743	-0.000227124	1.82359e+07	2.6238e+06	1	11	0.00509058	0.000110136	0	-0.0126238	-9.19415e-05	2.58091e-06	42.5965	0.0234339	0.0172506	-0.0158608	-22.2651	46.2307	42.7838	17.5165	0.0200184	0.00820663	0.0216353	22.2914	2.6238e+09	6.40023e+09	6.91717e+09	-67.7086	0.0000000E+000	0.0000000E+000	0.0000000E+000	67.7086	0.0000000E+000	0.0000000E+000	0.0000000E+000	-67.7086	0.0000000E+000	0.0000000E+000	0.0000000E+000	-22.2914	0.0000000E+000	0.0000000E+000	0.0000000E+000	22.2914	2.4393	67.7086	0.000000000000000E+000	-9.01097e-07	2.08821e-11	-9.01118e-07	3.96752	1.74682e+07	404.808	1.74686e+07
0.000298679	42.7342	28.8207	51.5446	-33.9964	20329.4	3.96743	-0.000227124	1.84888e+07	5.78034e+06	1	11	0.00509016	9.87525e-05	0	-0.0126238	-9.19415e-05	6.08492e-07	19.5085	0.00616179	0.00580805	-0.00205771	-33.9909	51.5483	42.74	28.8187	0.0160846	0.0108477	0.0194007	33.9964	5.78034e+09	8.57085e+09	1.03379e+10	-56.0036	0.0000000E+000	0.0000000E+000	0.0000000E+000	56.0036	0.0000000E+000	0.0000000E+000	0.0000000E+000	-56.0036	0.0000000E+000	0.0000000E+000	0.0000000E+000	-33.9964	0.0000000E+000	0.0000000E+000	0.0000000E+000	33.9964	1.48276	56.0036	0.000000000000000E+000	-9.01097e-07	2.08821e-11	-9.01118e-07	3.96752	1.74682e+07	404.808	1.74686e+07
9.95598e-05	46.7789	92.242	103.426	-63.109	20329.4	3.96743	-0.000227124	1.73304e+07	1.37851e+07	1	11	0.00509108	4.92246e-05	0	-0.0126238	-9.19415e-05	3.89529e-06	-113.688	0.0791331	-0.0317917	0.0724661	-63.1428	103.476	46.7471	92.3144	0.00437315	0.00862329	0.00966879	63.109	1.37851e+10	6.99085e+09	1.54564e+10	-26.891	0.0000000E+000	0.0000000E+000	0.0000000E+000	26.891	0.0000000E+000	0.0000000E+000	0.0000000E+000	-26.891	0.0000000E+000	0.0000000E+000	0.0000000E+000	-63.109	0.0000000E+000	0.0000000E+000	0.0000000E+000	63.109	0.507132	26.891	0.000000000000000E+000	-9.01097e-07	2.08821e-11	-9.01118e-07	3.96752	1.74682e+07	404.808	1.74686e+07