File: txt/18695_R307_UC91_25_SOC50_C02.mpt
EC-Lab ASCII FILE
Nb header lines : 65

Potentio Electrochemical Impedance Spectroscopy

Run on channel : 2 (SN 66139)
User :
CE vs. WE compliance from -10 V to 10 V
Electrode connection : standard
Potential control : Ewe
Ewe ctrl range : min = -10.00 V, max = 10.00 V
Safety Limits :
	Do not start on E overload
Acquisition started on : 10/29/2025 14:38:12.278
Technique started on : 10/29/2025 14:38:14.513
Loaded Setting File :  C:\Users\Celltest\OneDrive - store-dot.com\Documents\EC-Lab\Data\@Biologic Test Protocols\cathode half cell EIS SOC50.mps
Saved on :
	File : 18695_R307_UC91_25_SOC50_C02.mpr
	Directory : C:\Users\Celltest\OneDrive - store-dot.com\Documents\EC-Lab\Data\Anna\
	Host : 169.254.61.224
Device : VMP-3e (SN .003165)
Address : USB
EC-LAB for windows v11.62 (software)
Internet server v27.00 (firmware)
Command interpretor v12.03 (firmware)
Electrode material :
Initial state :
Electrolyte :
Comments :
Electrode surface area : 0.001 cm²
Characteristic mass : 0.001 g
Equivalent Weight : 0.000 g/eq.
Density : 0.000 g/cm3
Volume (V) : 0.001 cm³
Record Ece
Cycle Definition : Charge/Discharge alternance
Mode                Multi sine
E (V)               0.0000
vs.                 Eoc
tE (h:m:s)          0:00:0.0000
record              0
dI                  0.000
unit dI             mA
dt (s)              0.000
fi                  1.000
unit fi             MHz
ff                  0.100
unit ff             mHz
Nd                  10
Points              per decade
spacing             Logarithmic
Va (mV)             5.0
pw                  0.10
Na                  2
corr                0
E range min (V)     -10.000
E range max (V)     10.000
I Range             Auto
Bandwidth           5
nc cycles           0
goto Ns'            0
nr cycles           0
inc. cycle          0

freq/Hz	Re(Z)/Ohm	-Im(Z)/Ohm	|Z|/Ohm	Phase(Z)/deg	time/s	<Ewe>/V	<I>/mA	Cs/µF	Cp/µF	cycle number	I Range	|Ewe|/V	|I|/A	Ns	(Q-Qo)/mA.h	<Ece>/V	|Ece|/V	Phase(Zce)/deg	|Zce|/Ohm	Re(Zce)/Ohm	-Im(Zce)/Ohm	Phase(Zwe-ce)/deg	|Zwe-ce|/Ohm	Re(Zwe-ce)/Ohm	-Im(Zwe-ce)/Ohm	Re(Y)/Ohm-1	Im(Y)/Ohm-1	|Y|/Ohm-1	Phase(Y)/deg	Re(C)/nF	Im(C)/nF	|C|/nF	Phase(C)/deg	Re(M)	Im(M)	|M|	Phase(M)/deg	Re(Permittivity)	Im(Permittivity)	|Permittivity|	Phase(Permittivity)/deg	Re(Resistivity)/Ohm.cm	Im(Resistivity)/Ohm.cm	|Resistivity|/Ohm.cm	Phase(Resistivity)/deg	Re(Conductivity)/mS/cm	Im(Conductivity)/mS/cm	|Conductivity|/mS/cm	Phase(Conductivity)/deg	Tan(Delta)	Loss Angle(Delta)/deg	dq/mA.h	Pwe/W	Pce/W	Pwe-ce/W	<Ewe-Ece>/V	Rwe/Ohm	Rce/Ohm	Rwe-ce/Ohm		Ewe-Ece/V
1.00002e+06	2.30371	2.86609	3.67717	-51.2083	2.23452	3.96916	-0.00274526	0.0555293	0.0337345	1	10	0.000208931	5.68185e-05	0	-7.1725e-07	-7.60209e-05	0.000177184	-67.426	3.11842	1.19709	2.8795	-58.646	6.72811	3.5008	5.7456	0.170373	0.211964	0.271948	51.2083	33.7345	27.1152	43.2811	-38.7917	0.0000000E+000	0.0000000E+000	0.0000000E+000	38.7917	0.0000000E+000	0.0000000E+000	0.0000000E+000	-38.7917	0.0000000E+000	0.0000000E+000	0.0000000E+000	-51.2083	0.0000000E+000	0.0000000E+000	0.0000000E+000	51.2083	0.803782	38.7917	-7.1725e-07	-1.08964e-05	2.08697e-10	-1.08966e-05	3.96923	1.44582e+06	27.6917	1.44585e+06
630957	0.964871	-0.194376	0.984255	11.39	3.40352	3.96909	0.0130383	-1.29771	-0.0506114	1	9	0.000253477	0.000257532	0	1.67411e-06	9.57967e-05	0.000106657	-100.633	0.41415	-0.0764162	0.407039	-13.4612	0.913552	0.888455	0.212663	0.995987	-0.200645	1.016	-11.39	-50.6114	251.232	256.279	-101.39	0.0000000E+000	0.0000000E+000	0.0000000E+000	101.39	0.0000000E+000	0.0000000E+000	0.0000000E+000	-101.39	0.0000000E+000	0.0000000E+000	0.0000000E+000	11.39	0.0000000E+000	0.0000000E+000	0.0000000E+000	-11.39	4.96393	78.61	8.06893e-07	5.17502e-05	1.24903e-09	5.1749e-05	3.969	304418	7.34733	304411
398103	1.27099	0.0886226	1.27407	-3.98863	4.17156	3.96924	0.0230202	4.51107	0.0218263	1	9	0.000997361	0.000782812	0	5.60143e-06	5.7615e-05	3.95597e-05	168.39	0.0505354	-0.0495013	-0.0101706	-3.67487	1.224	1.22149	0.078452	0.782983	0.0545953	0.784884	3.98863	21.8263	313.023	313.783	-86.0114	0.0000000E+000	0.0000000E+000	0.0000000E+000	86.0114	0.0000000E+000	0.0000000E+000	0.0000000E+000	-86.0114	0.0000000E+000	0.0000000E+000	0.0000000E+000	-3.98863	0.0000000E+000	0.0000000E+000	0.0000000E+000	3.98863	14.3416	86.0114	2.60683e-06	9.13727e-05	1.32631e-09	9.13714e-05	3.96918	172424	2.5028	172422
251206	1.37351	0.360472	1.42002	-14.7054	4.93753	3.96916	0.0235789	1.75759	0.113259	1	9	0.00305812	0.00215358	0	5.94469e-06	-0.000266929	3.75677e-05	69.2713	0.0174444	0.0061743	-0.0163151	-14.0064	1.42196	1.37968	0.344157	0.681147	0.178765	0.704215	14.7054	113.259	431.55	446.164	-75.2946	0.0000000E+000	0.0000000E+000	0.0000000E+000	75.2946	0.0000000E+000	0.0000000E+000	0.0000000E+000	-75.2946	0.0000000E+000	0.0000000E+000	0.0000000E+000	-14.7054	0.0000000E+000	0.0000000E+000	0.0000000E+000	14.7054	3.8103	75.2946	1.56156e-06	9.35885e-05	-6.29391e-09	9.35948e-05	3.96943	168335	11.3207	168346
158486	1.47208	0.576514	1.58094	-21.3869	5.57952	3.96909	0.014193	1.74188	0.231635	1	9	0.00534847	0.00338309	0	2.54754e-06	-7.60209e-05	3.02934e-05	77.8951	0.00895436	0.00187775	-0.00875526	-21.0663	1.57953	1.47396	0.567758	0.588976	0.230662	0.632533	21.3869	231.635	591.462	635.202	-68.6131	0.0000000E+000	0.0000000E+000	0.0000000E+000	68.6131	0.0000000E+000	0.0000000E+000	0.0000000E+000	-68.6131	0.0000000E+000	0.0000000E+000	0.0000000E+000	-21.3869	0.0000000E+000	0.0000000E+000	0.0000000E+000	21.3869	2.55342	68.6131	-6.34422e-06	5.63333e-05	-1.07896e-09	5.63343e-05	3.96916	279651	5.35623	279656
100004	1.63783	0.806804	1.82576	-26.2252	6.34555	3.96904	0.0154221	1.97259	0.385198	1	9	0.00533634	0.0029228	0	-3.96504e-07	0.000343978	2.62165e-05	59.4478	0.00896966	0.00455948	-0.00772437	-25.9446	1.82646	1.64239	0.79908	0.491337	0.242036	0.547717	26.2252	385.198	781.958	871.686	-63.7748	0.0000000E+000	0.0000000E+000	0.0000000E+000	63.7748	0.0000000E+000	0.0000000E+000	0.0000000E+000	-63.7748	0.0000000E+000	0.0000000E+000	0.0000000E+000	-26.2252	0.0000000E+000	0.0000000E+000	0.0000000E+000	26.2252	2.03002	63.7748	-8.01474e-06	6.1211e-05	5.30486e-09	6.12057e-05	3.9687	257361	22.3042	257338
63093.8	1.85687	1.06276	2.13949	-29.7842	7.11354	3.96904	0.0131128	2.37356	0.585663	1	9	0.00527471	0.00246541	0	1.6042e-06	0.000133978	2.40487e-05	22.1194	0.00975446	0.00903654	-0.00367293	-29.5792	2.14552	1.8659	1.05908	0.40566	0.232174	0.467402	29.7842	585.663	1023.28	1179.03	-60.2158	0.0000000E+000	0.0000000E+000	0.0000000E+000	60.2158	0.0000000E+000	0.0000000E+000	0.0000000E+000	-60.2158	0.0000000E+000	0.0000000E+000	0.0000000E+000	-29.7842	0.0000000E+000	0.0000000E+000	0.0000000E+000	29.7842	1.74722	60.2158	1.14231e-06	5.20454e-05	1.75684e-09	5.20436e-05	3.9689	302683	10.2173	302673
39814.1	2.18314	1.38194	2.58377	-32.3341	7.87952	3.96903	0.00961171	2.89263	0.827497	1	9	0.00524538	0.00203013	0	-3.69203e-06	0.000343978	4.17458e-06	-19.1123	0.00205632	0.00194297	0.000673282	-32.3237	2.58577	2.18508	1.38262	0.32702	0.207006	0.387031	32.3341	827.497	1307.25	1547.14	-57.6659	0.0000000E+000	0.0000000E+000	0.0000000E+000	57.6659	0.0000000E+000	0.0000000E+000	0.0000000E+000	-57.6659	0.0000000E+000	0.0000000E+000	0.0000000E+000	-32.3341	0.0000000E+000	0.0000000E+000	0.0000000E+000	32.3341	1.57976	57.6659	-3.30969e-06	3.81491e-05	3.30621e-09	3.81458e-05	3.96869	412937	35.7874	412901
25116.9	2.62845	1.68405	3.12167	-32.6478	8.64553	3.96904	0.00942548	3.76269	1.09506	1	9	0.0052104	0.00166911	0	-5.73111e-06	5.7615e-05	6.83073e-06	54.9986	0.00409244	0.00234741	-0.00335227	-32.5727	3.12184	2.6308	1.6807	0.269729	0.172816	0.320342	32.6478	1095.06	1709.15	2029.87	-57.3522	0.0000000E+000	0.0000000E+000	0.0000000E+000	57.3522	0.0000000E+000	0.0000000E+000	0.0000000E+000	-57.3522	0.0000000E+000	0.0000000E+000	0.0000000E+000	-32.6478	0.0000000E+000	0.0000000E+000	0.0000000E+000	32.6478	1.56079	57.3522	8.91408e-07	3.74101e-05	5.43049e-10	3.74095e-05	3.96898	421097	6.11269	421091
15847.7	3.17552	1.98842	3.7467	-32.0536	9.41152	3.96902	0.0112505	5.05064	1.42254	1	9	0.00519212	0.00138579	0	-4.79995e-06	0.000248523	8.57946e-06	-75.2679	0.00619104	0.00157438	0.00598752	-32.1183	3.75121	3.1771	1.99441	0.226213	0.141648	0.266902	32.0536	1422.54	2271.81	2680.44	-57.9464	0.0000000E+000	0.0000000E+000	0.0000000E+000	57.9464	0.0000000E+000	0.0000000E+000	0.0000000E+000	-57.9464	0.0000000E+000	0.0000000E+000	0.0000000E+000	-32.0536	0.0000000E+000	0.0000000E+000	0.0000000E+000	32.0536	1.59701	57.9464	1.94943e-07	4.46536e-05	2.79602e-09	4.46508e-05	3.96877	352785	22.0899	352763
10002.2	3.78977	2.25692	4.4109	-30.7751	10.4585	3.96902	-0.00575148	7.05029	1.8458	1	10	0.00489001	0.00110862	0	-2.60635e-06	9.57967e-05	8.78276e-06	-46.7998	0.00792226	0.00542318	0.00577505	-30.8034	4.41852	3.79519	2.2627	0.194786	0.116001	0.226711	30.7751	1845.8	3099.43	3607.42	-59.2249	0.0000000E+000	0.0000000E+000	0.0000000E+000	59.2249	0.0000000E+000	0.0000000E+000	0.0000000E+000	-59.2249	0.0000000E+000	0.0000000E+000	0.0000000E+000	-30.7751	0.0000000E+000	0.0000000E+000	0.0000000E+000	30.7751	1.67918	59.2249	6.17325e-07	-2.28278e-05	-5.50973e-10	-2.28272e-05	3.96893	690087	16.656	690070
6309.38	4.45327	2.56556	5.13943	-29.9466	11.2246	3.96902	-0.0064779	9.83221	2.45011	1	10	0.00514636	0.00100135	0	-7.29893e-06	0.000324887	3.5329e-06	6.41745	0.00352814	0.00350603	-0.000394346	-29.9232	5.14227	4.45677	2.56517	0.168597	0.0971299	0.194574	29.9466	2450.11	4252.88	4908.16	-60.0534	0.0000000E+000	0.0000000E+000	0.0000000E+000	60.0534	0.0000000E+000	0.0000000E+000	0.0000000E+000	-60.0534	0.0000000E+000	0.0000000E+000	0.0000000E+000	-29.9466	0.0000000E+000	0.0000000E+000	0.0000000E+000	29.9466	1.73579	60.0534	-2.70294e-06	-2.57109e-05	-2.10458e-09	-2.57088e-05	3.96869	612702	50.1531	612651
3983.6	5.17003	2.9195	5.9374	-29.4533	11.7911	3.969	-0.00569561	13.6847	3.30872	1	10	0.00530842	0.000894065	0	-9.15979e-06	1.94333e-05	5.03344e-06	-11.6968	0.00562984	0.00551293	0.00114135	-29.4367	5.94276	5.17555	2.92064	0.146656	0.0828163	0.168424	29.4533	3308.72	5859.29	6728.96	-60.5467	0.0000000E+000	0.0000000E+000	0.0000000E+000	60.5467	0.0000000E+000	0.0000000E+000	0.0000000E+000	-60.5467	0.0000000E+000	0.0000000E+000	0.0000000E+000	-29.4533	0.0000000E+000	0.0000000E+000	0.0000000E+000	29.4533	1.77086	60.5467	-6.15521e-07	-2.26059e-05	-1.10685e-10	-2.26058e-05	3.96898	696852	3.41198	696848
2510.8	6.00538	3.40365	6.90286	-29.5431	12.6158	3.96896	-0.00811701	18.6236	4.52788	1	10	0.00516217	0.00074783	0	-1.04866e-05	3.85242e-05	5.88415e-06	-63.1197	0.0078683	0.00355748	0.00701815	-29.5792	6.90942	6.00894	3.41067	0.126033	0.0714311	0.144868	29.5431	4527.88	7988.96	9182.87	-60.4569	0.0000000E+000	0.0000000E+000	0.0000000E+000	60.4569	0.0000000E+000	0.0000000E+000	0.0000000E+000	-60.4569	0.0000000E+000	0.0000000E+000	0.0000000E+000	-29.5431	0.0000000E+000	0.0000000E+000	0.0000000E+000	29.5431	1.76439	60.4569	-9.32279e-07	-3.22161e-05	-3.12701e-10	-3.22158e-05	3.96892	488968	4.7461	488963
1585.51	7.03661	3.94477	8.06691	-29.2753	13.5179	3.96896	-0.00893283	25.4466	6.08498	1	10	0.00500567	0.000620519	0	-1.30616e-05	0.000267614	1.89503e-05	-10.339	0.0305394	0.0300435	0.00548096	-29.2052	8.0958	7.06665	3.95025	0.108131	0.0606188	0.123963	29.2753	6084.98	10854.3	12443.6	-60.7247	0.0000000E+000	0.0000000E+000	0.0000000E+000	60.7247	0.0000000E+000	0.0000000E+000	0.0000000E+000	-60.7247	0.0000000E+000	0.0000000E+000	0.0000000E+000	-29.2753	0.0000000E+000	0.0000000E+000	0.0000000E+000	29.2753	1.78378	60.7247	-1.11357e-06	-3.5454e-05	-2.39055e-09	-3.54516e-05	3.96869	444311	29.9585	444281
1000.32	8.30508	4.56514	9.47707	-28.7967	14.4198	3.96895	-0.00848209	34.8519	8.08699	1	10	0.00490365	0.000517423	0	-1.48717e-05	0.000133978	2.332e-06	-99.2084	0.00450695	-0.000721233	0.00444887	-28.8224	9.47858	8.30436	4.56959	0.0924689	0.0508283	0.105518	28.7967	8086.99	14712.2	16788.3	-61.2033	0.0000000E+000	0.0000000E+000	0.0000000E+000	61.2033	0.0000000E+000	0.0000000E+000	0.0000000E+000	-61.2033	0.0000000E+000	0.0000000E+000	0.0000000E+000	-28.7967	0.0000000E+000	0.0000000E+000	0.0000000E+000	28.7967	1.81924	61.2033	-1.30432e-06	-3.3665e-05	-1.13642e-09	-3.36639e-05	3.96882	467922	15.7955	467906
631.01	9.93097	5.10201	11.1649	-27.1917	15.3206	3.96896	-0.00825485	49.436	10.3233	1	10	0.00485094	0.000434482	0	-1.69545e-05	-0.000171475	7.3606e-06	-91.0852	0.0169411	-0.000320862	0.0169381	-27.2697	11.1723	9.93065	5.11895	0.0796679	0.0409291	0.0895665	27.1917	10323.3	20094	22590.7	-62.8083	0.0000000E+000	0.0000000E+000	0.0000000E+000	62.8083	0.0000000E+000	0.0000000E+000	0.0000000E+000	-62.8083	0.0000000E+000	0.0000000E+000	0.0000000E+000	-27.1917	0.0000000E+000	0.0000000E+000	0.0000000E+000	27.1917	1.94648	62.8083	-7.70674e-07	-3.27632e-05	1.4155e-09	-3.27646e-05	3.96913	480804	20.7727	480825
398.089	11.8459	5.34696	12.9968	-24.2932	16.2218	3.96896	-0.00786371	74.7709	12.6554	1	10	0.00482224	0.000371034	0	-1.86184e-05	0.000133978	9.2105e-06	47.4638	0.0248239	0.0167824	-0.0182915	-24.1894	13.0046	11.8627	5.32867	0.070129	0.0316545	0.0769421	24.2932	12655.4	28037.4	30761.2	-65.7068	0.0000000E+000	0.0000000E+000	0.0000000E+000	65.7068	0.0000000E+000	0.0000000E+000	0.0000000E+000	-65.7068	0.0000000E+000	0.0000000E+000	0.0000000E+000	-24.2932	0.0000000E+000	0.0000000E+000	0.0000000E+000	24.2932	2.21545	65.7068	-8.93108e-07	-3.12107e-05	-1.05357e-09	-3.12097e-05	3.96883	504719	17.0376	504702
251.044	13.8292	5.18707	14.77	-20.5602	17.12	3.96897	-0.00785998	122.221	15.0742	1	10	0.00480314	0.000325197	0	-2.09067e-05	0.000114888	5.89659e-06	-60.285	0.0181324	0.00898797	0.015748	-20.6051	14.7839	13.8382	5.20282	0.0633925	0.0237774	0.067705	20.5602	15074.2	40189	42923.1	-69.4398	0.0000000E+000	0.0000000E+000	0.0000000E+000	69.4398	0.0000000E+000	0.0000000E+000	0.0000000E+000	-69.4398	0.0000000E+000	0.0000000E+000	0.0000000E+000	-20.5602	0.0000000E+000	0.0000000E+000	0.0000000E+000	20.5602	2.66608	69.4398	-1.18315e-06	-3.1196e-05	-9.03014e-10	-3.11951e-05	3.96885	504959	14.6168	504944
158.428	15.6091	4.65523	16.2885	-16.6065	18.0248	3.96896	-0.00774077	215.797	17.6264	1	10	0.0047985	0.000294594	0	-2.33359e-05	3.85242e-05	1.61789e-05	-116.464	0.0549195	-0.0244745	0.0491646	-16.797	16.2792	15.5847	4.70439	0.0588322	0.0175459	0.0613929	16.6065	17626.4	59102	61674.4	-73.3935	0.0000000E+000	0.0000000E+000	0.0000000E+000	73.3935	0.0000000E+000	0.0000000E+000	0.0000000E+000	-73.3935	0.0000000E+000	0.0000000E+000	0.0000000E+000	-16.6065	0.0000000E+000	0.0000000E+000	0.0000000E+000	16.6065	3.35303	73.3935	-1.12545e-06	-3.07228e-05	-2.98207e-10	-3.07225e-05	3.96892	512735	4.97679	512730
100.032	17.0235	3.81748	17.4463	-12.6394	18.9238	3.96896	-0.00786371	416.777	19.955	1	10	0.00479574	0.000274886	0	-2.51756e-05	-0.000114203	1.16141e-05	115.93	0.0422507	-0.0184751	-0.0379972	-12.5307	17.42	17.005	3.77949	0.0559298	0.0125421	0.0573188	12.6394	19955.1	88986.5	91196.5	-77.3606	0.0000000E+000	0.0000000E+000	0.0000000E+000	77.3606	0.0000000E+000	0.0000000E+000	0.0000000E+000	-77.3606	0.0000000E+000	0.0000000E+000	0.0000000E+000	-12.6394	0.0000000E+000	0.0000000E+000	0.0000000E+000	12.6394	4.45935	77.3606	-9.03436e-07	-3.12108e-05	8.98056e-10	-3.12117e-05	3.96908	504719	14.5227	504734
63.0823	17.9429	2.9161	18.1783	-9.23108	19.8399	3.96896	-0.00733845	865.187	22.2643	1	10	0.00478689	0.00026333	0	-2.72089e-05	0.000210342	7.97817e-06	70.1821	0.0302972	0.0102717	-0.0285029	-9.13724	18.1839	17.9531	2.8876	0.0542982	0.00882463	0.0550107	9.23108	22264.3	136993	138790	-80.7689	0.0000000E+000	0.0000000E+000	0.0000000E+000	80.7689	0.0000000E+000	0.0000000E+000	0.0000000E+000	-80.7689	0.0000000E+000	0.0000000E+000	0.0000000E+000	-9.23108	0.0000000E+000	0.0000000E+000	0.0000000E+000	9.23108	6.15304	80.7689	-6.81625e-07	-2.9126e-05	-1.54358e-09	-2.91245e-05	3.96875	540844	28.663	540815
39.8089	18.5747	2.21194	18.7059	-6.79102	20.9868	3.96898	-0.00429932	1807.45	25.273	1	11	0.00479204	0.000256178	0	-2.94912e-05	0.000153069	1.20797e-05	102.462	0.0471535	-0.0101755	-0.0460425	-6.65455	18.6904	18.5645	2.1659	0.053084	0.00632145	0.0534591	6.79102	25273	212228	213728	-83.209	0.0000000E+000	0.0000000E+000	0.0000000E+000	83.209	0.0000000E+000	0.0000000E+000	0.0000000E+000	-83.209	0.0000000E+000	0.0000000E+000	0.0000000E+000	-6.79102	0.0000000E+000	0.0000000E+000	0.0000000E+000	6.79102	8.39745	83.209	-1.39809e-06	-1.7064e-05	-6.58094e-10	-1.70633e-05	3.96883	923165	35.6031	923129
25.1044	18.9723	1.6333	19.0425	-4.92039	21.8651	3.96898	-0.00434295	3881.53	28.5554	1	11	0.00479214	0.000251655	0	-3.07218e-05	0.000133978	8.21484e-06	94.1849	0.0326433	-0.00238213	-0.0325562	-4.82338	19.0374	18.97	1.60075	0.0523205	0.00450421	0.0525141	4.92039	28555.4	331697	332924	-85.0796	0.0000000E+000	0.0000000E+000	0.0000000E+000	85.0796	0.0000000E+000	0.0000000E+000	0.0000000E+000	-85.0796	0.0000000E+000	0.0000000E+000	0.0000000E+000	-4.92039	0.0000000E+000	0.0000000E+000	0.0000000E+000	4.92039	11.6159	85.0796	-3.37291e-07	-1.72371e-05	-5.81861e-10	-1.72365e-05	3.96885	913891	30.8496	913860
15.8576	19.2562	1.27185	19.2982	-3.77882	22.743	3.969	-0.00437725	7891.29	34.2757	1	11	0.00479875	0.000248664	0	-3.3222e-05	9.57967e-05	8.88456e-06	-138.523	0.0357293	-0.026769	0.0236643	-3.85427	19.273	19.2294	1.29551	0.0517057	0.0034151	0.0518184	3.77882	34275.7	518946	520076	-86.2212	0.0000000E+000	0.0000000E+000	0.0000000E+000	86.2212	0.0000000E+000	0.0000000E+000	0.0000000E+000	-86.2212	0.0000000E+000	0.0000000E+000	0.0000000E+000	-3.77882	0.0000000E+000	0.0000000E+000	0.0000000E+000	3.77882	15.1403	86.2212	-1.56835e-06	-1.73733e-05	-4.19326e-10	-1.73729e-05	3.9689	906733	21.8851	906711
10.0032	19.456	1.05864	19.4848	-3.11451	23.7248	3.96899	-0.00423967	15029.1	44.3649	1	11	0.00479566	0.000246124	0	-3.27381e-05	-0.000190566	4.97591e-06	8.74564	0.0202171	0.019982	-0.00307397	-3.1023	19.5045	19.476	1.05556	0.0512464	0.00278842	0.0513222	3.11451	44364.9	815350	816557	-86.8855	0.0000000E+000	0.0000000E+000	0.0000000E+000	86.8855	0.0000000E+000	0.0000000E+000	0.0000000E+000	-86.8855	0.0000000E+000	0.0000000E+000	0.0000000E+000	-3.11451	0.0000000E+000	0.0000000E+000	0.0000000E+000	3.11451	18.3783	86.8855	5.66017e-07	-1.68272e-05	8.07937e-10	-1.6828e-05	3.96918	936157	44.9483	936202
6.31058	19.6101	0.900178	19.6308	-2.62824	24.6473	3.96899	-0.00435898	28017	58.9119	1	11	0.00478867	0.000243937	0	-3.54419e-05	0.000153069	5.52078e-06	-82.5286	0.022632	0.00294289	0.0224399	-2.69326	19.6348	19.6131	0.922618	0.0508868	0.00233589	0.0509404	2.62824	58911.9	1.28338e+06	1.28473e+06	-87.3718	0.0000000E+000	0.0000000E+000	0.0000000E+000	87.3718	0.0000000E+000	0.0000000E+000	0.0000000E+000	-87.3718	0.0000000E+000	0.0000000E+000	0.0000000E+000	-2.62824	0.0000000E+000	0.0000000E+000	0.0000000E+000	2.62824	21.7847	87.3718	-1.06793e-06	-1.73007e-05	-6.67226e-10	-1.73001e-05	3.96883	910531	35.1158	910496
3.97785	19.7998	0.833847	19.8174	-2.41152	25.6543	3.96901	-0.00265337	47982.8	84.9502	1	11	0.00478809	0.00024161	0	-3.36732e-05	1.94333e-05	3.24343e-06	21.9774	0.0134242	0.0124487	-0.0050239	-2.3955	19.8296	19.8123	0.828823	0.050416	0.00212321	0.0504607	2.41152	84950.1	2.01716e+06	2.01895e+06	-87.5885	0.0000000E+000	0.0000000E+000	0.0000000E+000	87.5885	0.0000000E+000	0.0000000E+000	0.0000000E+000	-87.5885	0.0000000E+000	0.0000000E+000	0.0000000E+000	-2.41152	0.0000000E+000	0.0000000E+000	0.0000000E+000	2.41152	23.7452	87.5885	-3.23158e-07	-1.05312e-05	-5.15638e-11	-1.05312e-05	3.96899	1.49584e+06	7.32401	1.49583e+06
2.51367	19.9839	0.843336	20.0017	-2.41649	27.214	3.969	-0.0026318	75077.6	133.468	1	11	0.00478914	0.000239436	0	-4.03358e-05	0.000153069	5.63829e-06	101.94	0.0235482	-0.00487185	-0.0230387	-2.35112	19.9959	19.9791	0.820297	0.0499512	0.00210798	0.0499957	2.41649	133468	3.16269e+06	3.16551e+06	-87.5835	0.0000000E+000	0.0000000E+000	0.0000000E+000	87.5835	0.0000000E+000	0.0000000E+000	0.0000000E+000	-87.5835	0.0000000E+000	0.0000000E+000	0.0000000E+000	-2.41649	0.0000000E+000	0.0000000E+000	0.0000000E+000	2.41649	23.6963	87.5835	-2.85873e-06	-1.04456e-05	-4.02848e-10	-1.04452e-05	3.96885	1.50809e+06	58.1614	1.50804e+06
1.58469	20.179	0.919656	20.2	-2.60944	29.6493	3.969	-0.0024619	109207	226.361	1	11	0.00478784	0.000237022	0	-3.48531e-05	-9.51117e-05	4.96614e-06	1.55523	0.0209522	0.0209445	-0.000568657	-2.60513	20.2209	20.2	0.919087	0.0494537	0.00225385	0.0495051	2.60944	226361	4.96679e+06	4.97195e+06	-87.3906	0.0000000E+000	0.0000000E+000	0.0000000E+000	87.3906	0.0000000E+000	0.0000000E+000	0.0000000E+000	-87.3906	0.0000000E+000	0.0000000E+000	0.0000000E+000	-2.60944	0.0000000E+000	0.0000000E+000	0.0000000E+000	2.60944	21.9419	87.3906	4.31225e-06	-9.77131e-06	2.34156e-10	-9.77154e-06	3.9691	1.61217e+06	38.6334	1.61221e+06
1.00469	20.7579	0.990322	20.7815	-2.73141	240.467	3.96897	-0.00383181	159959	363.252	1	11	0.00497853	0.000239565	0	-0.00117654	0.00017216	2.15065e-07	99.3396	0.000897731	-0.000145689	-0.00088583	-2.72899	20.7813	20.7578	0.989436	0.048065	0.00229309	0.0481197	2.73141	363252	7.61405e+06	7.62271e+06	-87.2686	0.0000000E+000	0.0000000E+000	0.0000000E+000	87.2686	0.0000000E+000	0.0000000E+000	0.0000000E+000	-87.2686	0.0000000E+000	0.0000000E+000	0.0000000E+000	-2.73141	0.0000000E+000	0.0000000E+000	0.0000000E+000	2.73141	20.9608	87.2686	-0.00114497	-1.52083e-05	-6.59685e-10	-1.52077e-05	3.96879	1.03579e+06	44.9292	1.03575e+06
0.632957	21.0054	1.14848	21.0368	-3.12957	240.469	3.96897	-0.00383181	218938	652.549	1	11	0.00499035	0.000237221	0	-0.00117654	0.00017216	3.36887e-07	24.7074	0.00142014	0.00129014	-0.000593598	-3.12776	21.038	21.0067	1.14789	0.0474649	0.00259518	0.0475358	3.12957	652549	1.19349e+07	1.19527e+07	-86.8704	0.0000000E+000	0.0000000E+000	0.0000000E+000	86.8704	0.0000000E+000	0.0000000E+000	0.0000000E+000	-86.8704	0.0000000E+000	0.0000000E+000	0.0000000E+000	-3.12957	0.0000000E+000	0.0000000E+000	0.0000000E+000	3.12957	18.2897	86.8704	0.000000000000000E+000	-1.52083e-05	-6.59685e-10	-1.52077e-05	3.96879	1.03579e+06	44.9292	1.03575e+06
0.401878	21.2094	1.38525	21.2546	-3.73686	240.471	3.96897	-0.00383181	285889	1214.37	1	11	0.00500301	0.000235385	0	-0.00117654	0.00017216	1.42872e-07	-121.742	0.000606972	-0.000319325	0.000516184	-3.73831	21.2543	21.2091	1.38577	0.0469487	0.00306637	0.0470487	3.73686	1.21437e+06	1.8593e+07	1.86326e+07	-86.2631	0.0000000E+000	0.0000000E+000	0.0000000E+000	86.2631	0.0000000E+000	0.0000000E+000	0.0000000E+000	-86.2631	0.0000000E+000	0.0000000E+000	0.0000000E+000	-3.73686	0.0000000E+000	0.0000000E+000	0.0000000E+000	3.73686	15.3108	86.2631	0.000000000000000E+000	-1.52083e-05	-6.59685e-10	-1.52077e-05	3.96879	1.03579e+06	44.9292	1.03575e+06
0.251173	21.6373	1.71963	21.7055	-4.54405	240.473	3.96897	-0.00383181	368478	2312.82	1	11	0.00500404	0.000230542	0	-0.00117654	0.00017216	5.80783e-07	161.377	0.0025192	-0.00238729	-0.000804488	-4.54243	21.7031	21.6349	1.71883	0.0459264	0.00365001	0.0460712	4.54405	2.31281e+06	2.91011e+07	2.91928e+07	-85.456	0.0000000E+000	0.0000000E+000	0.0000000E+000	85.456	0.0000000E+000	0.0000000E+000	0.0000000E+000	-85.456	0.0000000E+000	0.0000000E+000	0.0000000E+000	-4.54405	0.0000000E+000	0.0000000E+000	0.0000000E+000	4.54405	12.5825	85.456	0.000000000000000E+000	-1.52083e-05	-6.59685e-10	-1.52077e-05	3.96879	1.03579e+06	44.9292	1.03575e+06
0.160751	22.0225	1.97054	22.1105	-5.1131	240.475	3.96897	-0.00383181	502437	3990.73	1	11	0.00499987	0.000226131	0	-0.00117654	0.00017216	6.75999e-07	51.5266	0.00298942	0.00185987	-0.00234041	-5.10663	22.1122	22.0244	1.9682	0.0450474	0.00403075	0.0452273	5.1131	3.99074e+06	4.46001e+07	4.47783e+07	-84.8869	0.0000000E+000	0.0000000E+000	0.0000000E+000	84.8869	0.0000000E+000	0.0000000E+000	0.0000000E+000	-84.8869	0.0000000E+000	0.0000000E+000	0.0000000E+000	-5.1131	0.0000000E+000	0.0000000E+000	0.0000000E+000	5.1131	11.1759	84.8869	0.000000000000000E+000	-1.52083e-05	-6.59685e-10	-1.52077e-05	3.96879	1.03579e+06	44.9292	1.03575e+06
0.100469	22.5243	2.67939	22.6831	-6.78377	240.476	3.96897	-0.00383181	591222	8249.32	1	11	0.00500373	0.000220593	0	-0.00117654	0.00017216	4.10984e-07	-26.484	0.00186309	0.00166757	0.000830839	-6.78536	22.6848	22.5259	2.68022	0.0437771	0.00520753	0.0440857	6.78377	8.24932e+06	6.93479e+07	6.98368e+07	-83.2162	0.0000000E+000	0.0000000E+000	0.0000000E+000	83.2162	0.0000000E+000	0.0000000E+000	0.0000000E+000	-83.2162	0.0000000E+000	0.0000000E+000	0.0000000E+000	-6.78377	0.0000000E+000	0.0000000E+000	0.0000000E+000	6.78377	8.4065	83.2162	0.000000000000000E+000	-1.52083e-05	-6.59685e-10	-1.52077e-05	3.96879	1.03579e+06	44.9292	1.03575e+06
0.0602816	23.315	3.23534	23.5384	-7.90028	240.478	3.96897	-0.00383181	816046	15417	1	11	0.00499852	0.000212356	0	-0.00117654	0.00017216	2.42011e-07	-2.84306	0.00113965	0.00113824	5.6527e-05	-7.90003	23.5396	23.3162	3.2354	0.0420805	0.00583936	0.0424837	7.90028	1.5417e+07	1.111e+08	1.12165e+08	-82.0997	0.0000000E+000	0.0000000E+000	0.0000000E+000	82.0997	0.0000000E+000	0.0000000E+000	0.0000000E+000	-82.0997	0.0000000E+000	0.0000000E+000	0.0000000E+000	-7.90028	0.0000000E+000	0.0000000E+000	0.0000000E+000	7.90028	7.20636	82.0997	0.000000000000000E+000	-1.52083e-05	-6.59685e-10	-1.52077e-05	3.96879	1.03579e+06	44.9292	1.03575e+06
0.0401878	24.3444	3.72047	24.627	-8.68909	240.48	3.96897	-0.00383181	1.06446e+06	24294.1	1	11	0.00499791	0.000202944	0	-0.00117654	0.00017216	4.98264e-07	-12.0785	0.00245518	0.00240083	0.000513749	-8.68943	24.6295	24.3468	3.72099	0.0401397	0.00613442	0.0406058	8.68909	2.42941e+07	1.58965e+08	1.6081e+08	-81.3109	0.0000000E+000	0.0000000E+000	0.0000000E+000	81.3109	0.0000000E+000	0.0000000E+000	0.0000000E+000	-81.3109	0.0000000E+000	0.0000000E+000	0.0000000E+000	-8.68909	0.0000000E+000	0.0000000E+000	0.0000000E+000	8.68909	6.54336	81.3109	0.000000000000000E+000	-1.52083e-05	-6.59685e-10	-1.52077e-05	3.96879	1.03579e+06	44.9292	1.03575e+06
0.0200939	26.1933	5.41806	26.7478	-11.6868	240.482	3.96897	-0.00383181	1.46188e+06	59982.5	1	11	0.00499842	0.000186872	0	-0.00117654	0.00017216	7.71964e-07	-176.239	0.00413097	-0.00412207	0.000270992	-11.6891	26.7438	26.1892	5.41833	0.0366113	0.00757301	0.0373863	11.6868	5.99826e+07	2.89982e+08	2.96121e+08	-78.3132	0.0000000E+000	0.0000000E+000	0.0000000E+000	78.3132	0.0000000E+000	0.0000000E+000	0.0000000E+000	-78.3132	0.0000000E+000	0.0000000E+000	0.0000000E+000	-11.6868	0.0000000E+000	0.0000000E+000	0.0000000E+000	11.6868	4.83444	78.3132	0.000000000000000E+000	-1.52083e-05	-6.59685e-10	-1.52077e-05	3.96879	1.03579e+06	44.9292	1.03575e+06
0.00796479	33.1582	7.29624	33.9514	-12.4098	20329.4	3.96898	-0.000325686	2.73871e+06	126482	1	11	0.00499405	0.000147094	0	-0.00693538	0.000229433	2.03663e-07	-3.14085	0.00138458	0.0013825	7.5862e-05	-12.4094	33.9528	33.1595	7.29632	0.0287657	0.00632971	0.0294539	12.4098	1.26482e+08	5.74805e+08	5.88556e+08	-77.5902	0.0000000E+000	0.0000000E+000	0.0000000E+000	77.5902	0.0000000E+000	0.0000000E+000	0.0000000E+000	-77.5902	0.0000000E+000	0.0000000E+000	0.0000000E+000	-12.4098	0.0000000E+000	0.0000000E+000	0.0000000E+000	12.4098	4.54455	77.5902	-0.00575884	-1.29264e-06	-7.47229e-11	-1.29256e-06	3.96875	1.21865e+07	704.46	1.21858e+07
0.00497799	35.8563	7.96874	36.7311	-12.5298	20329.4	3.96898	-0.000325686	4.01214e+06	188837	1	11	0.00500157	0.000136167	0	-0.00693538	0.000229433	6.38038e-07	-134.379	0.0046857	-0.0032772	0.003349	-12.536	36.7287	35.853	7.97209	0.0265765	0.00590637	0.0272249	12.5298	1.88837e+08	8.49695e+08	8.70426e+08	-77.4702	0.0000000E+000	0.0000000E+000	0.0000000E+000	77.4702	0.0000000E+000	0.0000000E+000	0.0000000E+000	-77.4702	0.0000000E+000	0.0000000E+000	0.0000000E+000	-12.5298	0.0000000E+000	0.0000000E+000	0.0000000E+000	12.5298	4.49962	77.4702	0.000000000000000E+000	-1.29264e-06	-7.47229e-11	-1.29256e-06	3.96875	1.21865e+07	704.46	1.21858e+07
0.00318591	37.992	9.73578	39.2196	-14.3732	20329.4	3.96898	-0.000325686	5.13116e+06	316192	1	11	0.00500377	0.000127583	0	-0.00693538	0.000229433	6.37563e-07	-166.093	0.00499723	-0.00485075	0.00120103	-14.3767	39.2152	37.9871	9.73698	0.0246994	0.00632942	0.0254975	14.3732	3.16191e+08	1.23388e+09	1.27375e+09	-75.6268	0.0000000E+000	0.0000000E+000	0.0000000E+000	75.6268	0.0000000E+000	0.0000000E+000	0.0000000E+000	-75.6268	0.0000000E+000	0.0000000E+000	0.0000000E+000	-14.3732	0.0000000E+000	0.0000000E+000	0.0000000E+000	14.3732	3.90231	75.6268	0.000000000000000E+000	-1.29264e-06	-7.47229e-11	-1.29256e-06	3.96875	1.21865e+07	704.46	1.21858e+07
0.0019912	40.3572	10.5935	41.7244	-14.708	20329.4	3.96898	-0.000325686	7.5451e+06	486370	1	11	0.0050064	0.000119987	0	-0.00693538	0.000229433	9.46505e-08	-23.6123	0.000788837	0.000722793	0.000315966	-14.7082	41.7252	40.3579	10.5939	0.0231814	0.006085	0.0239668	14.708	4.8637e+08	1.85288e+09	1.91565e+09	-75.292	0.0000000E+000	0.0000000E+000	0.0000000E+000	75.292	0.0000000E+000	0.0000000E+000	0.0000000E+000	-75.292	0.0000000E+000	0.0000000E+000	0.0000000E+000	-14.708	0.0000000E+000	0.0000000E+000	0.0000000E+000	14.708	3.80961	75.292	0.000000000000000E+000	-1.29264e-06	-7.47229e-11	-1.29256e-06	3.96875	1.21865e+07	704.46	1.21858e+07
0.00129428	41.459	11.6456	43.0636	-15.6898	20329.4	3.96898	-0.000325686	1.05592e+07	772212	1	11	0.00500794	0.000116292	0	-0.00693538	0.000229433	6.10512e-07	-93.8909	0.00524982	-0.000356234	0.00523772	-15.6967	43.0646	41.4587	11.6509	0.0223563	0.00627977	0.0232215	15.6898	7.72212e+08	2.74911e+09	2.8555e+09	-74.3102	0.0000000E+000	0.0000000E+000	0.0000000E+000	74.3102	0.0000000E+000	0.0000000E+000	0.0000000E+000	-74.3102	0.0000000E+000	0.0000000E+000	0.0000000E+000	-15.6898	0.0000000E+000	0.0000000E+000	0.0000000E+000	15.6898	3.56004	74.3102	0.000000000000000E+000	-1.29264e-06	-7.47229e-11	-1.29256e-06	3.96875	1.21865e+07	704.46	1.21858e+07
0.000796479	44.1283	13.5803	46.1707	-17.1055	20329.4	3.96898	-0.000325686	1.47142e+07	1.27298e+06	1	11	0.00500521	0.000108407	0	-0.00693538	0.000229433	6.23081e-07	-21.1795	0.00574763	0.00535939	0.00207656	-17.106	46.1764	44.1336	13.5823	0.0207007	0.00637054	0.0216588	17.1055	1.27298e+09	4.13648e+09	4.32793e+09	-72.8945	0.0000000E+000	0.0000000E+000	0.0000000E+000	72.8945	0.0000000E+000	0.0000000E+000	0.0000000E+000	-72.8945	0.0000000E+000	0.0000000E+000	0.0000000E+000	-17.1055	0.0000000E+000	0.0000000E+000	0.0000000E+000	17.1055	3.24944	72.8945	0.000000000000000E+000	-1.29264e-06	-7.47229e-11	-1.29256e-06	3.96875	1.21865e+07	704.46	1.21858e+07
0.000497799	44.8952	18.1453	48.4234	-22.0071	20329.4	3.96898	-0.000325686	1.76198e+07	2.47411e+06	1	11	0.00500862	0.000103434	0	-0.00693538	0.000229433	4.87878e-07	7.97412	0.00471681	0.0046712	-0.000654343	-22.0043	48.4275	44.8998	18.1446	0.0191465	0.00773844	0.0206512	22.0071	2.47411e+09	6.12146e+09	6.60253e+09	-67.9929	0.0000000E+000	0.0000000E+000	0.0000000E+000	67.9929	0.0000000E+000	0.0000000E+000	0.0000000E+000	-67.9929	0.0000000E+000	0.0000000E+000	0.0000000E+000	-22.0071	0.0000000E+000	0.0000000E+000	0.0000000E+000	22.0071	2.4742	67.9929	0.000000000000000E+000	-1.29264e-06	-7.47229e-11	-1.29256e-06	3.96875	1.21865e+07	704.46	1.21858e+07
0.000298679	45.5471	27.859	53.3916	-31.4521	20329.4	3.96898	-0.000325686	1.91271e+07	5.20756e+06	1	11	0.0050066	9.37713e-05	0	-0.00693538	0.000229433	1.67251e-06	30.9436	0.0178361	0.0152976	-0.00917121	-31.4352	53.3999	45.5624	27.8498	0.0159777	0.00977281	0.0187295	31.4521	5.20756e+09	8.51392e+09	9.98026e+09	-58.5479	0.0000000E+000	0.0000000E+000	0.0000000E+000	58.5479	0.0000000E+000	0.0000000E+000	0.0000000E+000	-58.5479	0.0000000E+000	0.0000000E+000	0.0000000E+000	-31.4521	0.0000000E+000	0.0000000E+000	0.0000000E+000	31.4521	1.63492	58.5479	0.000000000000000E+000	-1.29264e-06	-7.47229e-11	-1.29256e-06	3.96875	1.21865e+07	704.46	1.21858e+07
9.95598e-05	51.8079	82.3618	97.3012	-57.829	20329.4	3.96898	-0.000325686	1.94093e+07	1.39067e+07	1	11	0.00500232	5.14106e-05	0	-0.00693538	0.000229433	4.1758e-06	-3.42278	0.0812245	0.0810796	0.00484936	-57.7901	97.3485	51.889	82.3667	0.00547216	0.0086994	0.0102774	57.829	1.39067e+10	8.74772e+09	1.64292e+10	-32.171	0.0000000E+000	0.0000000E+000	0.0000000E+000	32.171	0.0000000E+000	0.0000000E+000	0.0000000E+000	-32.171	0.0000000E+000	0.0000000E+000	0.0000000E+000	-57.829	0.0000000E+000	0.0000000E+000	0.0000000E+000	57.829	0.629028	32.171	0.000000000000000E+000	-1.29264e-06	-7.47229e-11	-1.29256e-06	3.96875	1.21865e+07	704.46	1.21858e+07