File: txt/18690_R307_UC91_23p8_SOC50_C02.mpt
EC-Lab ASCII FILE
Nb header lines : 65

Potentio Electrochemical Impedance Spectroscopy

Run on channel : 2 (SN 66139)
User :
CE vs. WE compliance from -10 V to 10 V
Electrode connection : standard
Potential control : Ewe
Ewe ctrl range : min = -10.00 V, max = 10.00 V
Safety Limits :
	Do not start on E overload
Acquisition started on : 10/28/2025 15:55:28.556
Technique started on : 10/28/2025 15:55:31.250
Loaded Setting File :  C:\Users\Celltest\OneDrive - store-dot.com\Documents\EC-Lab\Data\@Biologic Test Protocols\cathode half cell EIS SOC50.mps
Saved on :
	File : 18690_R307_UC91_23p8_SOC50_C02.mpr
	Directory : C:\Users\Celltest\OneDrive - store-dot.com\Documents\EC-Lab\Data\Anna\
	Host : 169.254.61.224
Device : VMP-3e (SN .003165)
Address : USB
EC-LAB for windows v11.62 (software)
Internet server v27.00 (firmware)
Command interpretor v12.03 (firmware)
Electrode material :
Initial state :
Electrolyte :
Comments :
Electrode surface area : 0.001 cm²
Characteristic mass : 0.001 g
Equivalent Weight : 0.000 g/eq.
Density : 0.000 g/cm3
Volume (V) : 0.001 cm³
Record Ece
Cycle Definition : Charge/Discharge alternance
Mode                Multi sine
E (V)               0.0000
vs.                 Eoc
tE (h:m:s)          0:00:0.0000
record              0
dI                  0.000
unit dI             mA
dt (s)              0.000
fi                  1.000
unit fi             MHz
ff                  0.100
unit ff             mHz
Nd                  10
Points              per decade
spacing             Logarithmic
Va (mV)             5.0
pw                  0.10
Na                  2
corr                0
E range min (V)     -10.000
E range max (V)     10.000
I Range             Auto
Bandwidth           5
nc cycles           0
goto Ns'            0
nr cycles           0
inc. cycle          0

freq/Hz	Re(Z)/Ohm	-Im(Z)/Ohm	|Z|/Ohm	Phase(Z)/deg	time/s	<Ewe>/V	<I>/mA	Cs/µF	Cp/µF	cycle number	I Range	|Ewe|/V	|I|/A	Ns	(Q-Qo)/mA.h	<Ece>/V	|Ece|/V	Phase(Zce)/deg	|Zce|/Ohm	Re(Zce)/Ohm	-Im(Zce)/Ohm	Phase(Zwe-ce)/deg	|Zwe-ce|/Ohm	Re(Zwe-ce)/Ohm	-Im(Zwe-ce)/Ohm	Re(Y)/Ohm-1	Im(Y)/Ohm-1	|Y|/Ohm-1	Phase(Y)/deg	Re(C)/nF	Im(C)/nF	|C|/nF	Phase(C)/deg	Re(M)	Im(M)	|M|	Phase(M)/deg	Re(Permittivity)	Im(Permittivity)	|Permittivity|	Phase(Permittivity)/deg	Re(Resistivity)/Ohm.cm	Im(Resistivity)/Ohm.cm	|Resistivity|/Ohm.cm	Phase(Resistivity)/deg	Re(Conductivity)/mS/cm	Im(Conductivity)/mS/cm	|Conductivity|/mS/cm	Phase(Conductivity)/deg	Tan(Delta)	Loss Angle(Delta)/deg	dq/mA.h	Pwe/W	Pce/W	Pwe-ce/W	<Ewe-Ece>/V	Rwe/Ohm	Rce/Ohm	Rwe-ce/Ohm		Ewe-Ece/V
1.00002e+06	1.01135	-0.355429	1.07199	19.3635	2.69353	3.9667	-0.0597402	-0.447774	-0.0492247	1	9	0.000217504	0.000202898	0	-2.29314e-05	-0.000305111	0.000177945	1.65773	0.877019	0.876652	-0.0253711	11.4033	1.92602	1.888	-0.3808	0.880077	-0.309293	0.932844	-19.3635	-49.2247	140.066	148.464	-109.363	0.0000000E+000	0.0000000E+000	0.0000000E+000	109.363	0.0000000E+000	0.0000000E+000	0.0000000E+000	-109.363	0.0000000E+000	0.0000000E+000	0.0000000E+000	19.3635	0.0000000E+000	0.0000000E+000	0.0000000E+000	-19.3635	2.84544	70.6365	-2.29314e-05	-0.000236972	1.82274e-08	-0.00023699	3.96701	66399.2	5.1073	66404.3
630957	0.81299	0.0531768	0.814728	-3.74233	3.45954	3.96659	-0.0638745	4.74349	0.0202078	1	9	0.00027049	0.000332	0	-3.54276e-05	-0.000133293	0.000106931	-99.2313	0.322081	-0.0516682	0.31791	-25.9857	0.846946	0.761322	0.371087	1.22479	0.080112	1.2274	3.74233	20.2078	308.945	309.605	-86.2577	0.0000000E+000	0.0000000E+000	0.0000000E+000	86.2577	0.0000000E+000	0.0000000E+000	0.0000000E+000	-86.2577	0.0000000E+000	0.0000000E+000	0.0000000E+000	-3.74233	0.0000000E+000	0.0000000E+000	0.0000000E+000	3.74233	15.2884	86.2577	-6.03958e-06	-0.000253364	8.51405e-09	-0.000253373	3.96673	62099.8	2.0868	62101.9
398103	1.03859	0.235741	1.065	-12.7885	4.22556	3.96677	-0.0577662	1.69586	0.0830915	1	9	0.0010155	0.000953516	0	-4.64807e-05	-9.51117e-05	3.98633e-05	-171.906	0.0418066	-0.0413902	0.005886	-13.6206	1.02605	0.997196	0.241627	0.915671	0.207841	0.938963	12.7885	83.0915	366.07	375.381	-77.2115	0.0000000E+000	0.0000000E+000	0.0000000E+000	77.2115	0.0000000E+000	0.0000000E+000	0.0000000E+000	-77.2115	0.0000000E+000	0.0000000E+000	0.0000000E+000	-12.7885	0.0000000E+000	0.0000000E+000	0.0000000E+000	12.7885	4.40562	77.2115	-4.68833e-06	-0.000229145	5.49424e-09	-0.00022915	3.96686	68669.4	1.6465	68671
251206	1.16666	0.517376	1.27623	-23.9158	4.99352	3.9667	-0.049423	1.22457	0.20125	1	9	0.00328964	0.00257762	0	-5.81227e-05	-0.000209657	2.62997e-05	-21.5893	0.0102031	0.00948729	0.00375424	-23.8973	1.28643	1.17614	0.52113	0.716282	0.317649	0.783557	23.9158	201.25	453.81	496.433	-66.0842	0.0000000E+000	0.0000000E+000	0.0000000E+000	66.0842	0.0000000E+000	0.0000000E+000	0.0000000E+000	-66.0842	0.0000000E+000	0.0000000E+000	0.0000000E+000	-23.9158	0.0000000E+000	0.0000000E+000	0.0000000E+000	23.9158	2.25495	66.0842	-4.25593e-06	-0.000196046	1.03619e-08	-0.000196057	3.96691	80260.2	4.24209	80264.5
158486	1.33512	0.78611	1.54936	-30.4893	5.76154	3.96665	-0.035642	1.27746	0.328857	1	9	0.0054085	0.0034908	0	-5.33125e-05	0.000439432	2.37032e-05	94.9097	0.00679019	-0.000581137	-0.00676527	-30.2841	1.54544	1.33454	0.779344	0.556181	0.327475	0.645428	30.4893	328.857	558.528	648.151	-59.5107	0.0000000E+000	0.0000000E+000	0.0000000E+000	59.5107	0.0000000E+000	0.0000000E+000	0.0000000E+000	-59.5107	0.0000000E+000	0.0000000E+000	0.0000000E+000	-30.4893	0.0000000E+000	0.0000000E+000	0.0000000E+000	30.4893	1.69839	59.5107	9.27106e-07	-0.000141379	-1.56622e-08	-0.000141364	3.96621	111291	12.329	111279
100004	1.57615	1.06852	1.90421	-34.1346	6.65354	3.96662	-0.0289005	1.48943	0.468986	1	9	0.00504641	0.00265014	0	-7.05081e-05	0.000133978	2.14174e-05	85.0338	0.0080816	0.000699616	-0.00805126	-33.9218	1.90028	1.57685	1.06047	0.43468	0.294683	0.525153	34.1346	468.986	691.79	835.775	-55.8654	0.0000000E+000	0.0000000E+000	0.0000000E+000	55.8654	0.0000000E+000	0.0000000E+000	0.0000000E+000	-55.8654	0.0000000E+000	0.0000000E+000	0.0000000E+000	-34.1346	0.0000000E+000	0.0000000E+000	0.0000000E+000	34.1346	1.47508	55.8654	-6.45296e-06	-0.000114637	-3.87205e-09	-0.000114634	3.96649	137251	4.63585	137246
63093.8	1.91672	1.38238	2.36322	-35.7999	7.54353	3.9666	-0.0328859	1.82476	0.624385	1	9	0.00505427	0.00213872	0	-7.35516e-05	0.000114888	1.77497e-05	79.3336	0.00829923	0.00153611	-0.00815583	-35.6175	2.35971	1.91826	1.37422	0.343203	0.247525	0.423151	35.7999	624.385	865.734	1067.4	-54.2001	0.0000000E+000	0.0000000E+000	0.0000000E+000	54.2001	0.0000000E+000	0.0000000E+000	0.0000000E+000	-54.2001	0.0000000E+000	0.0000000E+000	0.0000000E+000	-35.7999	0.0000000E+000	0.0000000E+000	0.0000000E+000	35.7999	1.38654	54.2001	-7.37893e-06	-0.000130445	-3.77818e-09	-0.000130441	3.96649	120617	3.49352	120614
39814.1	2.40402	1.67886	2.93221	-34.9287	8.55955	3.96658	-0.033817	2.38106	0.780562	1	9	0.00504029	0.00171894	0	-7.59973e-05	-0.000171475	1.03403e-05	2.3419	0.00601553	0.0060105	-0.00024581	-34.8576	2.937	2.41003	1.67861	0.279607	0.195265	0.34104	34.9287	780.562	1117.72	1363.29	-55.0713	0.0000000E+000	0.0000000E+000	0.0000000E+000	55.0713	0.0000000E+000	0.0000000E+000	0.0000000E+000	-55.0713	0.0000000E+000	0.0000000E+000	0.0000000E+000	-34.9287	0.0000000E+000	0.0000000E+000	0.0000000E+000	34.9287	1.43194	55.0713	-3.50183e-06	-0.000134138	5.79878e-09	-0.000134144	3.96675	117295	5.07067	117300
25116.9	2.97036	1.91814	3.53586	-32.8527	9.32553	3.9666	-0.0411172	3.30349	0.972173	1	9	0.00489215	0.00138358	0	-8.45402e-05	0.000229433	2.8736e-05	-57.0472	0.0207693	0.0112974	0.0174279	-32.9899	3.55482	2.98166	1.93557	0.237585	0.153423	0.282816	32.8527	972.173	1505.47	1792.08	-57.1473	0.0000000E+000	0.0000000E+000	0.0000000E+000	57.1473	0.0000000E+000	0.0000000E+000	0.0000000E+000	-57.1473	0.0000000E+000	0.0000000E+000	0.0000000E+000	-32.8527	0.0000000E+000	0.0000000E+000	0.0000000E+000	32.8527	1.54856	57.1472	-4.82304e-06	-0.000163095	-9.43363e-09	-0.000163086	3.96637	96470.4	5.57996	96464.8
15847.7	3.58376	2.12542	4.16663	-30.6709	9.96951	3.96661	-0.0364615	4.72507	1.22951	1	9	0.00457686	0.00109846	0	-9.25586e-05	0.000267614	1.46222e-05	-104.701	0.0133116	-0.00337823	0.0128758	-30.8468	4.17031	3.58038	2.1383	0.206429	0.122427	0.240002	30.6709	1229.51	2073.12	2410.29	-59.3291	0.0000000E+000	0.0000000E+000	0.0000000E+000	59.3291	0.0000000E+000	0.0000000E+000	0.0000000E+000	-59.3291	0.0000000E+000	0.0000000E+000	0.0000000E+000	-30.6709	0.0000000E+000	0.0000000E+000	0.0000000E+000	30.6709	1.68614	59.3291	-3.59187e-06	-0.000144629	-9.75762e-09	-0.000144619	3.96634	108789	7.33964	108782
10002.2	4.20929	2.30622	4.79966	-28.7179	10.7666	3.96661	-0.0415061	6.89957	1.59295	1	10	0.00480806	0.00100175	0	-0.000100608	3.42479e-07	4.60922e-06	-18.0084	0.00460117	0.00437576	0.00142248	-28.7077	4.80419	4.21366	2.30765	0.18272	0.100111	0.208348	28.7179	1592.95	2907.44	3315.22	-61.2821	0.0000000E+000	0.0000000E+000	0.0000000E+000	61.2821	0.0000000E+000	0.0000000E+000	0.0000000E+000	-61.2821	0.0000000E+000	0.0000000E+000	0.0000000E+000	-28.7179	0.0000000E+000	0.0000000E+000	0.0000000E+000	28.7179	1.82519	61.2821	-2.01297e-06	-0.000164638	-1.4215e-11	-0.000164638	3.96661	95566.8	0.0082513	95566.8
6309.38	4.82701	2.55265	5.4604	-27.871	11.2846	3.96659	-0.0408393	9.88195	2.15961	1	10	0.00478807	0.000876871	0	-0.000106575	-1.87484e-05	9.68111e-06	-79.9307	0.0110405	0.00193032	0.0108705	-27.9623	5.4672	4.82894	2.56352	0.161893	0.0856133	0.183137	27.871	2159.61	4083.78	4619.65	-62.129	0.0000000E+000	0.0000000E+000	0.0000000E+000	62.129	0.0000000E+000	0.0000000E+000	0.0000000E+000	-62.129	0.0000000E+000	0.0000000E+000	0.0000000E+000	-27.871	0.0000000E+000	0.0000000E+000	0.0000000E+000	27.871	1.89098	62.129	-3.55508e-06	-0.000161993	7.6567e-10	-0.000161994	3.96661	97126.8	0.459076	97127.2
3983.6	5.50844	2.90787	6.22886	-27.8293	11.8491	3.96651	-0.0522832	13.7395	2.99435	1	10	0.0046691	0.000749592	0	-0.000113437	-3.78392e-05	4.9668e-06	-50.4707	0.00662601	0.00421727	0.00511064	-27.8527	6.23497	5.51266	2.91298	0.141975	0.0749477	0.160543	27.8293	2994.35	5672.27	6414.1	-62.1707	0.0000000E+000	0.0000000E+000	0.0000000E+000	62.1707	0.0000000E+000	0.0000000E+000	0.0000000E+000	-62.1707	0.0000000E+000	0.0000000E+000	0.0000000E+000	-27.8293	0.0000000E+000	0.0000000E+000	0.0000000E+000	27.8293	1.89432	62.1707	-4.38806e-06	-0.000207382	1.97835e-09	-0.000207384	3.96654	75865.8	0.723736	75866.5
2510.8	6.33202	3.45235	7.21201	-28.6002	12.6739	3.96652	-0.0281103	18.3608	4.20736	1	10	0.00458229	0.00063537	0	-0.000121534	7.67059e-05	8.73428e-06	-21.9922	0.0137468	0.0127465	0.00514789	-28.5876	7.22567	6.34476	3.4575	0.121739	0.0663746	0.138658	28.6002	4207.36	7716.78	8789.23	-61.3998	0.0000000E+000	0.0000000E+000	0.0000000E+000	61.3998	0.0000000E+000	0.0000000E+000	0.0000000E+000	-61.3998	0.0000000E+000	0.0000000E+000	0.0000000E+000	-28.6002	0.0000000E+000	0.0000000E+000	0.0000000E+000	28.6002	1.83412	61.3998	-3.42148e-06	-0.0001115	-2.15622e-09	-0.000111498	3.96644	141106	2.72875	141103
1585.51	7.35667	4.01362	8.38032	-28.6158	13.5749	3.96652	-0.0282481	25.0101	5.73676	1	10	0.00450428	0.000537483	0	-0.000128565	0.000420341	2.82199e-05	61.62	0.0525038	0.0249559	-0.0461936	-28.2568	8.38027	7.38163	3.96743	0.104751	0.0571498	0.119327	28.6158	5736.76	10515.1	11978.2	-61.3842	0.0000000E+000	0.0000000E+000	0.0000000E+000	61.3842	0.0000000E+000	0.0000000E+000	0.0000000E+000	-61.3842	0.0000000E+000	0.0000000E+000	0.0000000E+000	-28.6158	0.0000000E+000	0.0000000E+000	0.0000000E+000	28.6158	1.83293	61.3842	-3.44415e-06	-0.000112047	-1.18738e-08	-0.000112035	3.9661	140417	14.8803	140402
1000.32	8.73744	4.7607	9.95023	-28.5843	14.6908	3.96652	-0.0273131	33.4203	7.65043	1	10	0.00496717	0.000499202	0	-0.000138102	3.42479e-07	7.93043e-06	-24.2286	0.0158862	0.0144869	0.00651937	-28.5774	9.96607	8.75192	4.76722	0.0882506	0.0480845	0.1005	28.5843	7650.43	14041	15990	-61.4157	0.0000000E+000	0.0000000E+000	0.0000000E+000	61.4157	0.0000000E+000	0.0000000E+000	0.0000000E+000	-61.4157	0.0000000E+000	0.0000000E+000	0.0000000E+000	-28.5843	0.0000000E+000	0.0000000E+000	0.0000000E+000	28.5843	1.83532	61.4157	-3.69165e-06	-0.000108338	-9.35416e-12	-0.000108338	3.96652	145224	0.012539	145224
631.01	10.4581	5.27967	11.7153	-26.7864	15.5915	3.96652	-0.0275962	47.7724	9.70257	1	10	0.00493946	0.000421626	0	-0.000144583	1.94333e-05	7.66176e-06	8.99902	0.0181719	0.0179482	-0.00284241	-26.7345	11.73	10.4761	5.27683	0.0761991	0.0384683	0.0853587	26.7864	9702.57	19219.1	21529.4	-63.2136	0.0000000E+000	0.0000000E+000	0.0000000E+000	63.2136	0.0000000E+000	0.0000000E+000	0.0000000E+000	-63.2136	0.0000000E+000	0.0000000E+000	0.0000000E+000	-26.7864	0.0000000E+000	0.0000000E+000	0.0000000E+000	26.7864	1.98083	63.2136	-3.08529e-06	-0.000109461	-5.36286e-10	-0.00010946	3.9665	143734	0.704203	143734
398.089	12.4909	5.44221	13.6249	-23.5425	16.4918	3.96653	-0.0266053	73.4623	11.7205	1	10	0.00492389	0.000361388	0	-0.000151243	0.000343978	1.60959e-05	79.9317	0.0445391	0.00778638	-0.0438532	-23.3603	13.6146	12.4986	5.39836	0.0672857	0.0293161	0.0733948	23.5425	11720.5	26900.6	29343	-66.4575	0.0000000E+000	0.0000000E+000	0.0000000E+000	66.4575	0.0000000E+000	0.0000000E+000	0.0000000E+000	-66.4575	0.0000000E+000	0.0000000E+000	0.0000000E+000	-23.5425	0.0000000E+000	0.0000000E+000	0.0000000E+000	23.5425	2.29518	66.4575	-3.01083e-06	-0.000105531	-9.15162e-09	-0.000105521	3.96618	149088	12.9289	149075
251.044	14.4302	5.20447	15.3401	-19.8326	17.3901	3.96652	-0.0278271	121.813	14.0214	1	10	0.00492081	0.000320781	0	-0.000158007	-1.87484e-05	8.1198e-06	34.0679	0.0253125	0.0209683	-0.0141795	-19.7563	15.355	14.4512	5.19029	0.0613223	0.0221168	0.0651888	19.8326	14021.4	38876.6	41327.8	-70.1674	0.0000000E+000	0.0000000E+000	0.0000000E+000	70.1674	0.0000000E+000	0.0000000E+000	0.0000000E+000	-70.1674	0.0000000E+000	0.0000000E+000	0.0000000E+000	-19.8326	0.0000000E+000	0.0000000E+000	0.0000000E+000	19.8326	2.77266	70.1674	-3.18022e-06	-0.000110377	5.21714e-10	-0.000110377	3.96653	142541	0.673744	142542
158.428	16.1992	4.50905	16.8151	-15.5545	18.2949	3.96652	-0.026501	222.793	16.0204	1	10	0.00492526	0.000292907	0	-0.000164661	-0.000171475	3.03643e-05	-54.8204	0.103665	0.0597258	0.0847307	-15.777	16.8955	16.259	4.59378	0.0572924	0.0159473	0.0594704	15.5545	16020.4	57555.1	59743.2	-74.4455	0.0000000E+000	0.0000000E+000	0.0000000E+000	74.4455	0.0000000E+000	0.0000000E+000	0.0000000E+000	-74.4455	0.0000000E+000	0.0000000E+000	0.0000000E+000	-15.5545	0.0000000E+000	0.0000000E+000	0.0000000E+000	15.5545	3.59261	74.4455	-3.26765e-06	-0.000105117	4.54426e-09	-0.000105121	3.96669	149674	6.47052	149681
100.032	17.451	3.60023	17.8185	-11.6568	19.1939	3.96652	-0.0256591	441.927	18.0413	1	10	0.00491242	0.000275691	0	-0.000171341	-9.51117e-05	4.01209e-06	-92.9017	0.0145529	-0.000736713	0.0145342	-11.7031	17.8208	17.4503	3.61477	0.0549638	0.0113393	0.0561213	11.6568	18041.3	87449.6	89291.2	-78.3432	0.0000000E+000	0.0000000E+000	0.0000000E+000	78.3432	0.0000000E+000	0.0000000E+000	0.0000000E+000	-78.3432	0.0000000E+000	0.0000000E+000	0.0000000E+000	-11.6568	0.0000000E+000	0.0000000E+000	0.0000000E+000	11.6568	4.8472	78.3432	-3.61159e-06	-0.000101777	2.44048e-09	-0.00010178	3.96662	154585	3.70675	154589
63.0823	18.3206	2.78439	18.531	-8.64175	20.11	3.96653	-0.0232042	906.115	20.4572	1	10	0.00491272	0.000265108	0	-0.000177444	-9.51117e-05	7.58456e-06	97.9748	0.0286093	-0.0039692	-0.0283326	-8.55695	18.5228	18.3166	2.75605	0.0533511	0.00810836	0.0539637	8.64175	20457.2	134603	136149	-81.3582	0.0000000E+000	0.0000000E+000	0.0000000E+000	81.3582	0.0000000E+000	0.0000000E+000	0.0000000E+000	-81.3582	0.0000000E+000	0.0000000E+000	0.0000000E+000	-8.64175	0.0000000E+000	0.0000000E+000	0.0000000E+000	8.64175	6.57976	81.3582	-2.91919e-06	-9.20399e-05	2.20699e-09	-9.20421e-05	3.96662	170940	4.09891	170944
39.8089	18.9181	2.14661	19.0395	-6.47356	21.2568	3.96657	-0.0267905	1862.46	23.6744	1	11	0.00491127	0.000257951	0	-0.000185253	-5.69301e-05	7.82287e-06	-43.3106	0.030327	0.0220673	0.0208029	-6.5282	19.0638	18.9402	2.16741	0.0521874	0.00592161	0.0525223	6.47356	23674.4	208644	209983	-83.5264	0.0000000E+000	0.0000000E+000	0.0000000E+000	83.5264	0.0000000E+000	0.0000000E+000	0.0000000E+000	-83.5264	0.0000000E+000	0.0000000E+000	0.0000000E+000	-6.47356	0.0000000E+000	0.0000000E+000	0.0000000E+000	6.47356	8.81305	83.5264	-4.89229e-06	-0.000106266	1.52518e-09	-0.000106268	3.96662	148059	2.12501	148061
25.1044	19.2902	1.61169	19.3574	-4.77596	22.136	3.96656	-0.0266026	3933.57	27.2682	1	11	0.00490933	0.000253615	0	-0.000191902	7.67059e-05	5.82286e-06	52.2623	0.0229595	0.0140523	-0.0181568	-4.71898	19.3699	19.3043	1.59354	0.0514804	0.00430118	0.0516597	4.77596	27268.2	326371	327508	-85.224	0.0000000E+000	0.0000000E+000	0.0000000E+000	85.224	0.0000000E+000	0.0000000E+000	0.0000000E+000	-85.224	0.0000000E+000	0.0000000E+000	0.0000000E+000	-4.77596	0.0000000E+000	0.0000000E+000	0.0000000E+000	4.77596	11.9689	85.224	-3.08413e-06	-0.000105521	-2.04057e-09	-0.000105519	3.96648	149104	2.8834	149101
15.8576	19.5358	1.252	19.5759	-3.66694	23.0141	3.96656	-0.0269102	8016.37	32.7904	1	11	0.00490076	0.000250347	0	-0.000198404	0.000267614	2.7423e-05	-6.83685	0.10954	0.108761	0.0130399	-3.68457	19.6852	19.6445	1.26504	0.0509787	0.00326711	0.0510833	3.66694	32790.4	511649	512699	-86.3331	0.0000000E+000	0.0000000E+000	0.0000000E+000	86.3331	0.0000000E+000	0.0000000E+000	0.0000000E+000	-86.3331	0.0000000E+000	0.0000000E+000	0.0000000E+000	-3.66694	0.0000000E+000	0.0000000E+000	0.0000000E+000	3.66694	15.6036	86.3331	-3.32208e-06	-0.000106741	-7.20155e-09	-0.000106734	3.96629	147400	9.94473	147390
10.0032	19.8229	1.06027	19.8513	-3.06168	23.9948	3.96656	-0.0263315	15005.9	42.8078	1	11	0.00491908	0.000247797	0	-0.000205198	0.000248523	1.02874e-05	6.48979	0.0415155	0.0412495	-0.00469233	-3.04183	19.8922	19.8642	1.05558	0.0503027	0.00269055	0.0503747	3.06168	42807.8	800337	801481	-86.9383	0.0000000E+000	0.0000000E+000	0.0000000E+000	86.9383	0.0000000E+000	0.0000000E+000	0.0000000E+000	-86.9383	0.0000000E+000	0.0000000E+000	0.0000000E+000	-3.06168	0.0000000E+000	0.0000000E+000	0.0000000E+000	3.06168	18.6961	86.9383	-1.55075e-06	-0.000104446	-6.544e-09	-0.000104439	3.96631	150639	9.43825	150630
6.31058	19.9881	0.930828	20.0097	-2.66629	24.9183	3.96657	-0.0263483	27094.5	58.6325	1	11	0.00490682	0.000245222	0	-0.000211263	0.000420341	1.04312e-05	-17.7332	0.0425379	0.0405167	0.0129564	-2.69789	20.0508	20.0286	0.943785	0.0499216	0.00232481	0.0499757	2.66629	58632.4	1.25904e+06	1.2604e+06	-87.3337	0.0000000E+000	0.0000000E+000	0.0000000E+000	87.3337	0.0000000E+000	0.0000000E+000	0.0000000E+000	-87.3337	0.0000000E+000	0.0000000E+000	0.0000000E+000	-2.66629	0.0000000E+000	0.0000000E+000	0.0000000E+000	2.66629	21.4734	87.3337	-2.16568e-07	-0.000104512	-1.10753e-08	-0.000104501	3.96615	150544	15.9533	150528
3.97785	20.2078	0.872761	20.2266	-2.47303	25.9253	3.96657	-0.0245606	45843.3	85.3533	1	11	0.00491329	0.000242912	0	-0.000221401	0.000553977	9.11331e-06	14.6411	0.0375169	0.0362987	-0.0094829	-2.44181	20.2625	20.2441	0.863279	0.0493937	0.00213328	0.0494398	2.47303	85353.2	1.97626e+06	1.9781e+06	-87.527	0.0000000E+000	0.0000000E+000	0.0000000E+000	87.527	0.0000000E+000	0.0000000E+000	0.0000000E+000	-87.527	0.0000000E+000	0.0000000E+000	0.0000000E+000	-2.47303	0.0000000E+000	0.0000000E+000	0.0000000E+000	2.47303	23.1539	87.527	-6.687e-06	-9.74215e-05	-1.3606e-08	-9.74079e-05	3.96602	161501	22.5555	161478
2.51367	20.3982	0.867666	20.4166	-2.43569	27.4849	3.96657	-0.0241951	72972.3	131.794	1	11	0.00491087	0.000240533	0	-0.000228871	-0.000133293	4.5995e-06	68.8178	0.0191221	0.00690949	-0.0178302	-2.38489	20.4228	20.4051	0.849836	0.0489355	0.00208154	0.0489797	2.43569	131794	3.09838e+06	3.10118e+06	-87.5643	0.0000000E+000	0.0000000E+000	0.0000000E+000	87.5643	0.0000000E+000	0.0000000E+000	0.0000000E+000	-87.5643	0.0000000E+000	0.0000000E+000	0.0000000E+000	-2.43569	0.0000000E+000	0.0000000E+000	0.0000000E+000	2.43569	23.5092	87.5643	-2.32259e-06	-9.59715e-05	3.22504e-09	-9.59747e-05	3.96671	163941	5.50912	163947
1.58469	20.6082	0.934206	20.6294	-2.59554	29.9204	3.96658	-0.0231589	107506	220.469	1	11	0.00490907	0.000237965	0	-0.000241059	0.00017216	3.15867e-06	25.609	0.0132737	0.0119697	-0.00573724	-2.57813	20.6411	20.6202	0.928469	0.0484248	0.00219518	0.0484745	2.59554	220469	4.86346e+06	4.86845e+06	-87.4045	0.0000000E+000	0.0000000E+000	0.0000000E+000	87.4045	0.0000000E+000	0.0000000E+000	0.0000000E+000	-87.4045	0.0000000E+000	0.0000000E+000	0.0000000E+000	-2.59554	0.0000000E+000	0.0000000E+000	0.0000000E+000	2.59554	22.0596	87.4045	-8.80388e-06	-9.18617e-05	-3.98704e-09	-9.18577e-05	3.96641	171277	7.43386	171269
1.00469	21.1603	0.995308	21.1837	-2.69301	240.737	3.96653	-0.0197602	159158	351.35	1	11	0.0049781	0.000234997	0	-0.00241077	0.00017216	2.06275e-07	100.088	0.000877778	-0.000153749	-0.000864208	-2.6907	21.1835	21.1602	0.994444	0.0471539	0.00221796	0.0472061	2.69301	351350	7.46972e+06	7.47798e+06	-87.307	0.0000000E+000	0.0000000E+000	0.0000000E+000	87.307	0.0000000E+000	0.0000000E+000	0.0000000E+000	-87.307	0.0000000E+000	0.0000000E+000	0.0000000E+000	-2.69301	0.0000000E+000	0.0000000E+000	0.0000000E+000	2.69301	21.2601	87.307	-0.00215385	-7.83795e-05	-3.40191e-09	-7.8376e-05	3.96636	200734	8.71247	200725
0.632957	21.4226	1.14388	21.4531	-3.05645	240.738	3.96653	-0.0197602	219820	624.948	1	11	0.00498948	0.000232576	0	-0.00241077	0.00017216	3.64219e-07	-161.378	0.00156602	-0.00148403	0.000500067	-3.05799	21.4517	21.4211	1.14438	0.0465469	0.00248541	0.0466132	3.05645	624948	1.17041e+07	1.17207e+07	-86.9436	0.0000000E+000	0.0000000E+000	0.0000000E+000	86.9436	0.0000000E+000	0.0000000E+000	0.0000000E+000	-86.9436	0.0000000E+000	0.0000000E+000	0.0000000E+000	-3.05645	0.0000000E+000	0.0000000E+000	0.0000000E+000	3.05645	18.7281	86.9436	0.000000000000000E+000	-7.83795e-05	-3.40191e-09	-7.8376e-05	3.96636	200734	8.71247	200725
0.401878	21.6394	1.35007	21.6815	-3.57002	240.74	3.96653	-0.0197602	293339	1137.38	1	11	0.00500382	0.000230787	0	-0.00241077	0.00017216	1.74852e-07	-112.067	0.000757631	-0.000284638	0.00070213	-3.57192	21.6813	21.6392	1.35078	0.0460327	0.00287196	0.0461222	3.57002	1.13738e+06	1.82303e+07	1.82657e+07	-86.43	0.0000000E+000	0.0000000E+000	0.0000000E+000	86.43	0.0000000E+000	0.0000000E+000	0.0000000E+000	-86.43	0.0000000E+000	0.0000000E+000	0.0000000E+000	-3.57002	0.0000000E+000	0.0000000E+000	0.0000000E+000	3.57002	16.0284	86.43	0.000000000000000E+000	-7.83795e-05	-3.40191e-09	-7.8376e-05	3.96636	200734	8.71247	200725
0.251173	22.0808	1.65023	22.1424	-4.27411	240.741	3.96653	-0.0197602	383973	2132.76	1	11	0.00500383	0.000225984	0	-0.00241077	0.00017216	4.6191e-07	142.784	0.002044	-0.00162776	-0.00123625	-4.27123	22.1407	22.0792	1.649	0.0450366	0.00336586	0.0451622	4.27411	2.13276e+06	2.85372e+07	2.86168e+07	-85.7259	0.0000000E+000	0.0000000E+000	0.0000000E+000	85.7259	0.0000000E+000	0.0000000E+000	0.0000000E+000	-85.7259	0.0000000E+000	0.0000000E+000	0.0000000E+000	-4.27411	0.0000000E+000	0.0000000E+000	0.0000000E+000	4.27411	13.3804	85.7259	0.000000000000000E+000	-7.83795e-05	-3.40191e-09	-7.8376e-05	3.96636	200734	8.71247	200725
0.160751	22.4538	1.81564	22.5271	-4.62295	240.742	3.96653	-0.0197602	545301	3542.31	1	11	0.0050001	0.000221959	0	-0.00241077	0.00017216	4.1411e-07	-30.1936	0.0018657	0.00161258	0.000938306	-4.625	22.5288	22.4554	1.81658	0.0442466	0.00357783	0.044391	4.62295	3.54231e+06	4.38072e+07	4.39502e+07	-85.3771	0.0000000E+000	0.0000000E+000	0.0000000E+000	85.3771	0.0000000E+000	0.0000000E+000	0.0000000E+000	-85.3771	0.0000000E+000	0.0000000E+000	0.0000000E+000	-4.62295	0.0000000E+000	0.0000000E+000	0.0000000E+000	4.62295	12.3669	85.3771	0.000000000000000E+000	-7.83795e-05	-3.40191e-09	-7.8376e-05	3.96636	200734	8.71247	200725
0.100469	22.9173	2.4437	23.0472	-6.08652	240.743	3.96653	-0.0197602	648244	7287.8	1	11	0.00500288	0.000217071	0	-0.00241077	0.00017216	3.74888e-07	-72.0191	0.00172703	0.000533134	0.00164268	-6.09044	23.0479	22.9179	2.44534	0.0431446	0.00460056	0.0433891	6.08652	7.2878e+06	6.83459e+07	6.87334e+07	-83.9135	0.0000000E+000	0.0000000E+000	0.0000000E+000	83.9135	0.0000000E+000	0.0000000E+000	0.0000000E+000	-83.9135	0.0000000E+000	0.0000000E+000	0.0000000E+000	-6.08652	0.0000000E+000	0.0000000E+000	0.0000000E+000	6.08652	9.37812	83.9135	0.000000000000000E+000	-7.83795e-05	-3.40191e-09	-7.8376e-05	3.96636	200734	8.71247	200725
0.0602816	23.632	2.87214	23.8059	-6.92954	240.745	3.96653	-0.0197602	919240	13380.5	1	11	0.00499821	0.000209957	0	-0.00241077	0.00017216	3.42271e-07	0.816354	0.0016302	0.00163003	-2.32264e-05	-6.92901	23.8075	23.6336	2.87212	0.0416996	0.00506802	0.0420065	6.92954	1.33805e+07	1.10095e+08	1.10905e+08	-83.0705	0.0000000E+000	0.0000000E+000	0.0000000E+000	83.0705	0.0000000E+000	0.0000000E+000	0.0000000E+000	-83.0705	0.0000000E+000	0.0000000E+000	0.0000000E+000	-6.92954	0.0000000E+000	0.0000000E+000	0.0000000E+000	6.92954	8.22799	83.0705	0.000000000000000E+000	-7.83795e-05	-3.40191e-09	-7.8376e-05	3.96636	200734	8.71247	200725
0.0401878	24.565	3.26663	24.7813	-7.57469	240.746	3.96653	-0.0197602	1.21235e+06	21065.9	1	11	0.0049971	0.000201648	0	-0.00241077	0.00017216	6.10335e-07	21.1493	0.00302673	0.00282286	-0.00109205	-7.57133	24.7839	24.5678	3.26554	0.0400009	0.00531928	0.0403531	7.57469	2.10659e+07	1.58415e+08	1.5981e+08	-82.4253	0.0000000E+000	0.0000000E+000	0.0000000E+000	82.4253	0.0000000E+000	0.0000000E+000	0.0000000E+000	-82.4253	0.0000000E+000	0.0000000E+000	0.0000000E+000	-7.57469	0.0000000E+000	0.0000000E+000	0.0000000E+000	7.57469	7.51999	82.4253	0.000000000000000E+000	-7.83795e-05	-3.40191e-09	-7.8376e-05	3.96636	200734	8.71247	200725
0.0200939	26.2167	4.81052	26.6543	-10.3976	240.747	3.96653	-0.0197602	1.64651e+06	53630.6	1	11	0.00499984	0.000187581	0	-0.00241077	0.00017216	5.77339e-07	-93.9764	0.00307781	-0.000213434	0.0030704	-10.4042	26.6547	26.2164	4.81359	0.0369013	0.00677105	0.0375173	10.3976	5.36306e+07	2.92279e+08	2.97159e+08	-79.6024	0.0000000E+000	0.0000000E+000	0.0000000E+000	79.6024	0.0000000E+000	0.0000000E+000	0.0000000E+000	-79.6024	0.0000000E+000	0.0000000E+000	0.0000000E+000	-10.3976	0.0000000E+000	0.0000000E+000	0.0000000E+000	10.3976	5.44986	79.6024	0.000000000000000E+000	-7.83795e-05	-3.40191e-09	-7.8376e-05	3.96636	200734	8.71247	200725
0.00796479	31.8715	5.98774	32.4291	-10.6402	20329.7	3.96655	-0.000294179	3.33721e+06	113773	1	11	0.00499434	0.000154008	0	-0.0152485	0.000114888	3.28993e-07	163.591	0.0021362	-0.0020492	-0.000603452	-10.6398	32.4269	31.8694	5.98713	0.0303063	0.00569369	0.0308365	10.6402	1.13773e+08	6.05591e+08	6.16185e+08	-79.3598	0.0000000E+000	0.0000000E+000	0.0000000E+000	79.3598	0.0000000E+000	0.0000000E+000	0.0000000E+000	-79.3598	0.0000000E+000	0.0000000E+000	0.0000000E+000	-10.6402	0.0000000E+000	0.0000000E+000	0.0000000E+000	10.6402	5.32279	79.3598	-0.0128377	-1.16688e-06	-3.37975e-11	-1.16684e-06	3.96644	1.34835e+07	390.536	1.34831e+07
0.00497799	34.0688	6.30037	34.6465	-10.4774	20329.7	3.96655	-0.000294179	5.07458e+06	167809	1	11	0.00500151	0.000144359	0	-0.0152485	0.000114888	4.57128e-07	-137.899	0.00316662	-0.00234951	0.00212303	-10.4815	34.6445	34.0664	6.30249	0.0283817	0.00524866	0.028863	10.4774	1.67809e+08	9.07413e+08	9.22799e+08	-79.5226	0.0000000E+000	0.0000000E+000	0.0000000E+000	79.5226	0.0000000E+000	0.0000000E+000	0.0000000E+000	-79.5226	0.0000000E+000	0.0000000E+000	0.0000000E+000	-10.4774	0.0000000E+000	0.0000000E+000	0.0000000E+000	10.4774	5.40743	79.5226	0.000000000000000E+000	-1.16688e-06	-3.37975e-11	-1.16684e-06	3.96644	1.34835e+07	390.536	1.34831e+07
0.00318591	35.516	7.75048	36.3518	-12.3104	20329.7	3.96655	-0.000294179	6.44551e+06	292996	1	11	0.00500401	0.000137655	0	-0.0152485	0.000114888	7.5169e-07	-7.25719	0.00546068	0.00541694	0.000689812	-12.3096	36.3573	35.5214	7.75117	0.0268764	0.00586511	0.0275089	12.3104	2.92996e+08	1.34263e+09	1.37423e+09	-77.6896	0.0000000E+000	0.0000000E+000	0.0000000E+000	77.6896	0.0000000E+000	0.0000000E+000	0.0000000E+000	-77.6896	0.0000000E+000	0.0000000E+000	0.0000000E+000	-12.3104	0.0000000E+000	0.0000000E+000	0.0000000E+000	12.3104	4.58242	77.6896	0.000000000000000E+000	-1.16688e-06	-3.37975e-11	-1.16684e-06	3.96644	1.34835e+07	390.536	1.34831e+07
0.0019912	36.8886	8.70834	37.9025	-13.2827	20329.7	3.96655	-0.000294179	9.17847e+06	484513	1	11	0.00500711	0.000132105	0	-0.0152485	0.000114888	6.13019e-07	-63.1404	0.00464039	0.00209656	0.00413977	-13.2881	37.9055	36.8907	8.71248	0.0256777	0.00606177	0.0263835	13.2827	4.84513e+08	2.0524e+09	2.10881e+09	-76.7173	0.0000000E+000	0.0000000E+000	0.0000000E+000	76.7173	0.0000000E+000	0.0000000E+000	0.0000000E+000	-76.7173	0.0000000E+000	0.0000000E+000	0.0000000E+000	-13.2827	0.0000000E+000	0.0000000E+000	0.0000000E+000	13.2827	4.236	76.7173	0.000000000000000E+000	-1.16688e-06	-3.37975e-11	-1.16684e-06	3.96644	1.34835e+07	390.536	1.34831e+07
0.00129428	37.1537	9.92575	38.4567	-14.9575	20329.7	3.96655	-0.000294179	1.23888e+07	825301	1	11	0.00500735	0.000130208	0	-0.0152485	0.000114888	3.50628e-07	19.615	0.00269284	0.00253657	-0.000903981	-14.9552	38.4589	37.1562	9.92485	0.0251222	0.0067115	0.0260033	14.9575	8.25301e+08	3.08923e+09	3.19758e+09	-75.0425	0.0000000E+000	0.0000000E+000	0.0000000E+000	75.0425	0.0000000E+000	0.0000000E+000	0.0000000E+000	-75.0425	0.0000000E+000	0.0000000E+000	0.0000000E+000	-14.9575	0.0000000E+000	0.0000000E+000	0.0000000E+000	14.9575	3.74316	75.0425	0.000000000000000E+000	-1.16688e-06	-3.37975e-11	-1.16684e-06	3.96644	1.34835e+07	390.536	1.34831e+07
0.000796479	38.9609	12.9219	41.0479	-18.3488	20329.7	3.96655	-0.000294179	1.54639e+07	1.53247e+06	1	11	0.00500437	0.000121915	0	-0.0152485	0.000114888	6.48083e-07	-111.065	0.00531585	-0.0019107	0.00496059	-18.3563	41.0476	38.959	12.9269	0.0231232	0.00766914	0.0243618	18.3488	1.53247e+09	4.62055e+09	4.86805e+09	-71.6512	0.0000000E+000	0.0000000E+000	0.0000000E+000	71.6512	0.0000000E+000	0.0000000E+000	0.0000000E+000	-71.6512	0.0000000E+000	0.0000000E+000	0.0000000E+000	-18.3488	0.0000000E+000	0.0000000E+000	0.0000000E+000	18.3488	3.0151	71.6512	0.000000000000000E+000	-1.16688e-06	-3.37975e-11	-1.16684e-06	3.96644	1.34835e+07	390.536	1.34831e+07
0.000497799	39.731	17.3439	43.3516	-23.5829	20329.7	3.96655	-0.000294179	1.8434e+07	2.95054e+06	1	11	0.00501229	0.000115619	0	-0.0152485	0.000114888	2.09024e-06	-86.6701	0.0180786	0.00105009	0.0180481	-23.6042	43.3598	39.732	17.3619	0.0211407	0.00922861	0.0230672	23.5829	2.95055e+09	6.75904e+09	7.37498e+09	-66.4171	0.0000000E+000	0.0000000E+000	0.0000000E+000	66.4171	0.0000000E+000	0.0000000E+000	0.0000000E+000	-66.4171	0.0000000E+000	0.0000000E+000	0.0000000E+000	-23.5829	0.0000000E+000	0.0000000E+000	0.0000000E+000	23.5829	2.29078	66.4171	0.000000000000000E+000	-1.16688e-06	-3.37975e-11	-1.16684e-06	3.96644	1.34835e+07	390.536	1.34831e+07
0.000298679	39.7324	28.4352	48.8592	-35.59	20329.7	3.96655	-0.000294179	1.87395e+07	6.34713e+06	1	11	0.00500438	0.000102425	0	-0.0152485	0.000114888	1.29894e-06	-71.6201	0.0126819	0.00399882	0.012035	-35.5988	48.8695	39.7364	28.4472	0.0166438	0.0119114	0.020467	35.59	6.34713e+09	8.86884e+09	1.09061e+10	-54.41	0.0000000E+000	0.0000000E+000	0.0000000E+000	54.41	0.0000000E+000	0.0000000E+000	0.0000000E+000	-54.41	0.0000000E+000	0.0000000E+000	0.0000000E+000	-35.59	0.0000000E+000	0.0000000E+000	0.0000000E+000	35.59	1.3973	54.41	0.000000000000000E+000	-1.16688e-06	-3.37975e-11	-1.16684e-06	3.96644	1.34835e+07	390.536	1.34831e+07
9.95598e-05	44.6406	93.1765	103.318	-64.4011	20329.7	3.96655	-0.000294179	1.71565e+07	1.39537e+07	1	11	0.00500886	4.848e-05	0	-0.0152485	0.000114888	3.01815e-06	85.5277	0.0622557	0.00485447	-0.0620662	-64.3838	103.264	44.6454	93.1144	0.00418193	0.00872877	0.00967884	64.4011	1.39537e+10	6.68517e+09	1.54725e+10	-25.5989	0.0000000E+000	0.0000000E+000	0.0000000E+000	25.5989	0.0000000E+000	0.0000000E+000	0.0000000E+000	-25.5989	0.0000000E+000	0.0000000E+000	0.0000000E+000	-64.4011	0.0000000E+000	0.0000000E+000	0.0000000E+000	64.4011	0.479097	25.5989	0.000000000000000E+000	-1.16688e-06	-3.37975e-11	-1.16684e-06	3.96644	1.34835e+07	390.536	1.34831e+07