File: txt/18704_R307_UA701_SOC00_C01.mpt
EC-Lab ASCII FILE
Nb header lines : 65

Potentio Electrochemical Impedance Spectroscopy

Run on channel : 1 (SN 66354)
User :
CE vs. WE compliance from -10 V to 10 V
Electrode connection : standard
Potential control : Ewe
Ewe ctrl range : min = -10.00 V, max = 10.00 V
Safety Limits :
	Do not start on E overload
Acquisition started on : 10/28/2025 15:29:54.782
Technique started on : 10/28/2025 15:29:56.508
Loaded Setting File :  C:\Users\Celltest\OneDrive - store-dot.com\Documents\EC-Lab\Data\@Biologic Test Protocols\anode half cell EIS SOC00.mps
Saved on :
	File : 18704_R307_UA701_SOC00_C01.mpr
	Directory : C:\Users\Celltest\OneDrive - store-dot.com\Documents\EC-Lab\Data\Anna\
	Host : 169.254.61.224
Device : VMP-3e (SN .003165)
Address : USB
EC-LAB for windows v11.62 (software)
Internet server v27.00 (firmware)
Command interpretor v12.03 (firmware)
Electrode material :
Initial state :
Electrolyte :
Comments :
Electrode surface area : 0.001 cm²
Characteristic mass : 0.001 g
Equivalent Weight : 0.000 g/eq.
Density : 0.000 g/cm3
Volume (V) : 0.001 cm³
Record Ece
Cycle Definition : Charge/Discharge alternance
Mode                Single sine
E (V)               0.0000
vs.                 Eoc
tE (h:m:s)          0:00:0.0000
record              0
dI                  0.000
unit dI             mA
dt (s)              0.000
fi                  100.000
unit fi             kHz
ff                  10.000
unit ff             mHz
Nd                  6
Points              per decade
spacing             Logarithmic
Va (mV)             5.0
pw                  0.10
Na                  2
corr                0
E range min (V)     -10.000
E range max (V)     10.000
I Range             Auto
Bandwidth           5
nc cycles           0
goto Ns'            0
nr cycles           0
inc. cycle          0

freq/Hz	Re(Z)/Ohm	-Im(Z)/Ohm	|Z|/Ohm	Phase(Z)/deg	time/s	<Ewe>/V	<I>/mA	Cs/µF	Cp/µF	cycle number	I Range	|Ewe|/V	|I|/A	Ns	(Q-Qo)/mA.h	<Ece>/V	|Ece|/V	Phase(Zce)/deg	|Zce|/Ohm	Re(Zce)/Ohm	-Im(Zce)/Ohm	Phase(Zwe-ce)/deg	|Zwe-ce|/Ohm	Re(Zwe-ce)/Ohm	-Im(Zwe-ce)/Ohm	Re(Y)/Ohm-1	Im(Y)/Ohm-1	|Y|/Ohm-1	Phase(Y)/deg	Re(C)/nF	Im(C)/nF	|C|/nF	Phase(C)/deg	Re(M)	Im(M)	|M|	Phase(M)/deg	Re(Permittivity)	Im(Permittivity)	|Permittivity|	Phase(Permittivity)/deg	Re(Resistivity)/Ohm.cm	Im(Resistivity)/Ohm.cm	|Resistivity|/Ohm.cm	Phase(Resistivity)/deg	Re(Conductivity)/mS/cm	Im(Conductivity)/mS/cm	|Conductivity|/mS/cm	Phase(Conductivity)/deg	Tan(Delta)	Loss Angle(Delta)/deg	dq/mA.h	Pwe/W	Pce/W	Pwe-ce/W	<Ewe-Ece>/V	Rwe/Ohm	Rce/Ohm	Rwe-ce/Ohm		Ewe-Ece/V
100004	1.35615	0.44133	1.42615	-18.0263	1.72556	0.244971	0.0524495	3.60612	0.34533	1	9	0.0045424	0.00318507	0	2.38747e-06	0.000135881	4.33285e-05	93.4212	0.0136036	-0.000811816	-0.0135794	-17.5159	1.42124	1.35534	0.42775	0.666768	0.216985	0.701186	18.0263	345.33	1061.15	1115.93	-71.9736	0.0000000E+000	0.0000000E+000	0.0000000E+000	71.9736	0.0000000E+000	0.0000000E+000	0.0000000E+000	-71.9736	0.0000000E+000	0.0000000E+000	0.0000000E+000	-18.0263	0.0000000E+000	0.0000000E+000	0.0000000E+000	18.0263	3.07287	71.9736	2.38747e-06	1.28486e-05	7.12689e-09	1.28415e-05	0.244835	4670.6	2.5907	4668.01
68132	1.47074	0.492288	1.55094	-18.5065	2.23254	0.244961	0.0593416	4.74515	0.478075	1	9	0.00504225	0.00325109	0	-5.82268e-06	0.000364808	3.30543e-05	80.974	0.0101672	0.00159505	-0.0100413	-18.1356	1.5493	1.47234	0.482246	0.611427	0.204657	0.644769	18.5065	478.075	1428.28	1506.17	-71.4935	0.0000000E+000	0.0000000E+000	0.0000000E+000	71.4935	0.0000000E+000	0.0000000E+000	0.0000000E+000	-71.4935	0.0000000E+000	0.0000000E+000	0.0000000E+000	-18.5065	0.0000000E+000	0.0000000E+000	0.0000000E+000	18.5065	2.98756	71.4935	-8.21015e-06	1.45364e-05	2.16483e-08	1.45147e-05	0.244596	4127.99	6.1476	4121.84
46420.4	1.60367	0.529679	1.68888	-18.278	2.73954	0.244962	0.0613906	6.4729	0.63669	1	9	0.0050604	0.00299631	0	9.69008e-06	0.000269422	1.84064e-05	69.2427	0.00614301	0.00217715	-0.00574427	-18.0698	1.68915	1.60584	0.523934	0.562235	0.185702	0.592109	18.278	636.69	1927.66	2030.08	-71.722	0.0000000E+000	0.0000000E+000	0.0000000E+000	71.722	0.0000000E+000	0.0000000E+000	0.0000000E+000	-71.722	0.0000000E+000	0.0000000E+000	0.0000000E+000	-18.278	0.0000000E+000	0.0000000E+000	0.0000000E+000	18.278	3.02762	71.722	1.55128e-05	1.50383e-05	1.654e-08	1.50218e-05	0.244692	3990.22	4.38865	3985.83
31621.1	1.72382	0.571939	1.81622	-18.3551	3.24653	0.244966	0.0567338	8.80022	0.872678	1	9	0.00519465	0.00286014	0	1.5424e-05	0.00021219	1.37966e-05	14.527	0.00482375	0.00466953	-0.00120997	-18.2727	1.82028	1.72849	0.570729	0.522581	0.173385	0.550593	18.3551	872.678	2630.24	2771.24	-71.6449	0.0000000E+000	0.0000000E+000	0.0000000E+000	71.6449	0.0000000E+000	0.0000000E+000	0.0000000E+000	-71.6449	0.0000000E+000	0.0000000E+000	0.0000000E+000	-18.3551	0.0000000E+000	0.0000000E+000	0.0000000E+000	18.3551	3.01399	71.6449	5.73393e-06	1.38979e-05	1.20383e-08	1.38858e-05	0.244754	4317.82	3.7401	4314.08
21544.7	1.86869	0.621909	1.96946	-18.4077	3.62956	0.244958	0.0569946	11.8783	1.18444	1	9	0.00503321	0.00255563	0	2.6976e-05	0.000345731	1.0294e-05	-36.7899	0.00402796	0.00322574	0.00241228	-18.4446	1.97328	1.87192	0.624321	0.481773	0.160336	0.507753	18.4077	1184.44	3558.96	3750.88	-71.5923	0.0000000E+000	0.0000000E+000	0.0000000E+000	71.5923	0.0000000E+000	0.0000000E+000	0.0000000E+000	-71.5923	0.0000000E+000	0.0000000E+000	0.0000000E+000	-18.4077	0.0000000E+000	0.0000000E+000	0.0000000E+000	18.4077	3.00477	71.5923	1.15519e-05	1.39613e-05	1.97048e-08	1.39416e-05	0.244612	4297.92	6.06604	4291.85
14678.6	2.01595	0.672821	2.12527	-18.4563	4.01453	0.244949	0.0560632	16.1152	1.61513	1	9	0.00484032	0.00227752	0	3.3055e-05	-0.000112124	1.36491e-05	-22.8895	0.00599298	0.00552107	0.002331	-18.4688	2.13124	2.02147	0.675152	0.446328	0.148961	0.470529	18.4563	1615.13	4839.38	5101.79	-71.5437	0.0000000E+000	0.0000000E+000	0.0000000E+000	71.5437	0.0000000E+000	0.0000000E+000	0.0000000E+000	-71.5437	0.0000000E+000	0.0000000E+000	0.0000000E+000	-18.4563	0.0000000E+000	0.0000000E+000	0.0000000E+000	18.4563	2.99627	71.5437	6.07904e-06	1.37326e-05	-6.28604e-09	1.37389e-05	0.245061	4369.15	1.99996	4371.15
10002.2	2.16035	0.734195	2.2817	-18.7703	4.39752	0.244953	0.0569573	21.6727	2.24397	1	9	0.00490619	0.00215023	0	4.27169e-05	7.86489e-05	1.33787e-05	-66.0492	0.00622199	0.00252583	0.00568625	-18.8849	2.28593	2.16288	0.739881	0.41496	0.141024	0.438269	18.7703	2243.97	6602.83	6973.72	-71.2297	0.0000000E+000	0.0000000E+000	0.0000000E+000	71.2297	0.0000000E+000	0.0000000E+000	0.0000000E+000	-71.2297	0.0000000E+000	0.0000000E+000	0.0000000E+000	-18.7703	0.0000000E+000	0.0000000E+000	0.0000000E+000	18.7703	2.94248	71.2297	9.66193e-06	1.39519e-05	4.47963e-09	1.39474e-05	0.244874	4300.64	1.38084	4299.26
6810.42	2.29172	0.796614	2.42623	-19.1677	4.65653	0.244959	0.0559514	29.3358	3.16251	1	9	0.00460691	0.0018988	0	4.70845e-05	9.77262e-05	0.000127978	-101.36	0.0673996	-0.0132759	0.0660792	-20.7383	2.4363	2.27844	0.862693	0.389313	0.135327	0.412163	19.1677	3162.51	9097.98	9631.97	-70.8323	0.0000000E+000	0.0000000E+000	0.0000000E+000	70.8323	0.0000000E+000	0.0000000E+000	0.0000000E+000	-70.8323	0.0000000E+000	0.0000000E+000	0.0000000E+000	-19.1677	0.0000000E+000	0.0000000E+000	0.0000000E+000	19.1677	2.87683	70.8323	4.36763e-06	1.37058e-05	5.46792e-09	1.37004e-05	0.244862	4378.07	1.74663	4376.32
4646	2.50255	0.918173	2.66567	-20.1478	4.92263	0.244928	0.0347164	37.3092	4.42641	1	9	0.00458972	0.00172179	0	4.87179e-05	4.04943e-05	6.50012e-06	8.60608	0.00377521	0.00373271	-0.000564924	-20.1088	2.66898	2.50629	0.917608	0.352184	0.129214	0.37514	20.1478	4426.41	12064.5	12850.9	-69.8522	0.0000000E+000	0.0000000E+000	0.0000000E+000	69.8522	0.0000000E+000	0.0000000E+000	0.0000000E+000	-69.8522	0.0000000E+000	0.0000000E+000	0.0000000E+000	-20.1478	0.0000000E+000	0.0000000E+000	0.0000000E+000	20.1478	2.72558	69.8522	1.63335e-06	8.50305e-06	1.40582e-09	8.50164e-06	0.244888	7055.11	1.16643	7053.95
3163.08	2.71718	1.05512	2.91485	-21.222	5.29564	0.244752	0.00726	47.6877	6.24858	1	9	0.00451816	0.00155005	0	5.12992e-05	7.86489e-05	3.39823e-06	51.4965	0.00219233	0.00136486	-0.00171566	-21.1809	2.9155	2.71854	1.05341	0.319806	0.124186	0.343071	21.222	6248.58	16091.5	17262.1	-68.778	0.0000000E+000	0.0000000E+000	0.0000000E+000	68.778	0.0000000E+000	0.0000000E+000	0.0000000E+000	-68.778	0.0000000E+000	0.0000000E+000	0.0000000E+000	-21.222	0.0000000E+000	0.0000000E+000	0.0000000E+000	21.222	2.57522	68.778	2.58128e-06	1.7769e-06	5.70991e-10	1.77633e-06	0.244674	33712.4	10.8332	33701.6
2155.69	2.95284	1.19427	3.18521	-22.0209	5.96076	0.244941	0.107251	61.8201	8.69087	1	9	0.00498832	0.00156609	0	6.82576e-05	-5.48923e-05	9.3021e-06	-90.6205	0.00593969	-6.43254e-05	0.00593935	-22.1203	3.18738	2.95277	1.20021	0.291048	0.117714	0.313951	22.0209	8690.87	21488.1	23179.1	-67.9791	0.0000000E+000	0.0000000E+000	0.0000000E+000	67.9791	0.0000000E+000	0.0000000E+000	0.0000000E+000	-67.9791	0.0000000E+000	0.0000000E+000	0.0000000E+000	-22.0209	0.0000000E+000	0.0000000E+000	0.0000000E+000	22.0209	2.47249	67.9791	1.69584e-05	2.62701e-05	-5.88723e-09	2.6276e-05	0.244996	2283.82	0.511813	2284.33
1468.59	3.24476	1.38538	3.52813	-23.1205	6.65807	0.244885	-0.0245796	78.2259	12.0614	1	10	0.0050906	0.00144286	0	7.28984e-05	-0.000417361	6.81845e-06	-1.40691	0.00472565	0.00472423	0.000116028	-23.0922	3.53252	3.24948	1.3855	0.260671	0.111296	0.283436	23.1205	12061.4	28249.6	30716.7	-66.8795	0.0000000E+000	0.0000000E+000	0.0000000E+000	66.8795	0.0000000E+000	0.0000000E+000	0.0000000E+000	-66.8795	0.0000000E+000	0.0000000E+000	0.0000000E+000	-23.1205	0.0000000E+000	0.0000000E+000	0.0000000E+000	23.1205	2.34214	66.8795	4.64079e-06	-6.01918e-06	1.02586e-08	-6.02944e-06	0.245303	9962.94	16.98	9979.92
1000.32	3.55456	1.59817	3.89731	-24.2092	7.10882	0.244894	-0.0228764	99.5539	16.7407	1	10	0.00503855	0.00129283	0	7.06103e-05	0.000307577	9.31182e-06	-139.981	0.00720267	-0.00551603	0.00463161	-24.3047	3.89418	3.54904	1.6028	0.234021	0.105219	0.256587	24.2092	16740.7	37233.8	40824.1	-65.7908	0.0000000E+000	0.0000000E+000	0.0000000E+000	65.7908	0.0000000E+000	0.0000000E+000	0.0000000E+000	-65.7908	0.0000000E+000	0.0000000E+000	0.0000000E+000	-24.2092	0.0000000E+000	0.0000000E+000	0.0000000E+000	24.2092	2.22414	65.7908	-2.28807e-06	-5.60229e-06	-7.03624e-09	-5.59526e-06	0.244587	10705.1	13.4452	10691.7
681.09	3.92059	1.84976	4.33505	-25.2582	7.55859	0.244901	-0.0228838	126.328	23.0008	1	10	0.00500616	0.00115481	0	6.69792e-05	0.000231267	1.65469e-05	78.499	0.0143286	0.00285691	-0.0140409	-25.0741	4.33166	3.92345	1.83572	0.208624	0.0984298	0.230678	25.2582	23000.8	48750.6	53904.1	-64.7418	0.0000000E+000	0.0000000E+000	0.0000000E+000	64.7418	0.0000000E+000	0.0000000E+000	0.0000000E+000	-64.7418	0.0000000E+000	0.0000000E+000	0.0000000E+000	-25.2582	0.0000000E+000	0.0000000E+000	0.0000000E+000	25.2582	2.11952	64.7418	-3.6311e-06	-5.60427e-06	-5.29228e-09	-5.59898e-06	0.24467	10701.9	10.1061	10691.8
463.961	4.34592	2.15917	4.85274	-26.4194	8.01031	0.244894	-0.0234392	158.873	31.4523	1	10	0.00498231	0.0010267	0	6.37809e-05	0.00021219	6.13902e-06	31.0543	0.00597937	0.0051224	-0.00308445	-26.36	4.85596	4.35105	2.15609	0.184548	0.0916883	0.206069	26.4194	31452.3	63306.3	70689	-63.5806	0.0000000E+000	0.0000000E+000	0.0000000E+000	63.5806	0.0000000E+000	0.0000000E+000	0.0000000E+000	-63.5806	0.0000000E+000	0.0000000E+000	0.0000000E+000	-26.4194	0.0000000E+000	0.0000000E+000	0.0000000E+000	26.4194	2.01277	63.5806	-3.19829e-06	-5.74012e-06	-4.97356e-09	-5.73514e-06	0.244682	10448.1	9.0528	10439
316.316	4.8527	2.52385	5.46978	-27.4786	8.45809	0.244889	-0.0236292	199.359	42.4447	1	10	0.00494614	0.000904267	0	6.14576e-05	2.1417e-05	3.06274e-05	-7.83378	0.0338699	0.0335538	0.00461645	-27.36	5.50169	4.88625	2.52847	0.162197	0.0843576	0.182823	27.4786	42444.7	81609.8	91987.6	-62.5214	0.0000000E+000	0.0000000E+000	0.0000000E+000	62.5214	0.0000000E+000	0.0000000E+000	0.0000000E+000	-62.5214	0.0000000E+000	0.0000000E+000	0.0000000E+000	-27.4786	0.0000000E+000	0.0000000E+000	0.0000000E+000	27.4786	1.92273	62.5214	-2.32333e-06	-5.78654e-06	-5.06066e-10	-5.78604e-06	0.244868	10363.8	0.906375	10362.9
215.345	5.53039	2.90934	6.24896	-27.7472	8.90858	0.244881	-0.0242293	254.034	55.0637	1	10	0.00495176	0.000792413	0	5.94256e-05	0.000307577	9.97792e-06	-85.5183	0.0125918	0.000983932	0.0125533	-27.8448	6.25568	5.53138	2.92189	0.141625	0.0745039	0.160027	27.7472	55063.7	104671	118271	-62.2528	0.0000000E+000	0.0000000E+000	0.0000000E+000	62.2528	0.0000000E+000	0.0000000E+000	0.0000000E+000	-62.2528	0.0000000E+000	0.0000000E+000	0.0000000E+000	-27.7472	0.0000000E+000	0.0000000E+000	0.0000000E+000	27.7472	1.90091	62.2528	-2.03194e-06	-5.93329e-06	-7.45236e-09	-5.92584e-06	0.244573	10106.8	12.6944	10094.1
146.737	6.34279	3.30373	7.15162	-27.5133	9.35455	0.244886	-0.0250492	328.303	70.0608	1	10	0.00494769	0.000691828	0	5.64567e-05	5.95716e-05	6.50341e-06	51.5785	0.00940033	0.00584176	-0.00736478	-27.4394	7.1534	6.34863	3.29636	0.124014	0.0645945	0.139829	27.5133	70060.8	134509	151661	-62.4867	0.0000000E+000	0.0000000E+000	0.0000000E+000	62.4867	0.0000000E+000	0.0000000E+000	0.0000000E+000	-62.4867	0.0000000E+000	0.0000000E+000	0.0000000E+000	-27.5133	0.0000000E+000	0.0000000E+000	0.0000000E+000	27.5133	1.91989	62.4867	-2.9689e-06	-6.13419e-06	-1.49222e-09	-6.1327e-06	0.244826	9776.18	2.37818	9773.81
100.032	7.32934	3.62407	8.17637	-26.3106	9.80578	0.244879	-0.0229621	439.021	86.2494	1	10	0.00495033	0.000605443	0	5.36313e-05	0.000135881	1.52044e-05	-38.6352	0.0251128	0.0196165	0.0156794	-26.348	8.20091	7.34896	3.63975	0.109634	0.0542094	0.122304	26.3106	86249.4	174431	194590	-63.6894	0.0000000E+000	0.0000000E+000	0.0000000E+000	63.6894	0.0000000E+000	0.0000000E+000	0.0000000E+000	-63.6894	0.0000000E+000	0.0000000E+000	0.0000000E+000	-26.3106	0.0000000E+000	0.0000000E+000	0.0000000E+000	26.3106	2.02241	63.6894	-2.82538e-06	-5.62294e-06	-3.12011e-09	-5.61982e-06	0.244743	10664.5	5.91761	10658.6
68.104	8.3835	3.79844	9.20387	-24.3745	10.2685	0.244892	-0.0194849	615.238	104.788	1	10	0.00493187	0.000535847	0	5.1202e-05	-9.30469e-05	1.09032e-05	-46.4715	0.0203476	0.0140137	0.0147527	-24.4221	9.22273	8.39752	3.81319	0.0989657	0.0448398	0.10865	24.3745	104788	231277	253908	-65.6255	0.0000000E+000	0.0000000E+000	0.0000000E+000	65.6255	0.0000000E+000	0.0000000E+000	0.0000000E+000	-65.6255	0.0000000E+000	0.0000000E+000	0.0000000E+000	-24.3745	0.0000000E+000	0.0000000E+000	0.0000000E+000	24.3745	2.20709	65.6255	-2.42937e-06	-4.7717e-06	1.81301e-09	-4.77351e-06	0.244985	12568.3	4.77534	12573.1
46.4415	9.53693	3.80873	10.2693	-21.7701	10.7036	0.244878	-0.0256083	899.774	123.768	1	10	0.00493484	0.000480541	0	4.809e-05	9.77262e-05	7.09514e-06	105.368	0.0147649	-0.00391301	-0.014237	-21.7044	10.2604	9.53302	3.79449	0.0904322	0.0361155	0.0973772	21.7701	123768	309911	333711	-68.2299	0.0000000E+000	0.0000000E+000	0.0000000E+000	68.2299	0.0000000E+000	0.0000000E+000	0.0000000E+000	-68.2299	0.0000000E+000	0.0000000E+000	0.0000000E+000	-21.7701	0.0000000E+000	0.0000000E+000	0.0000000E+000	21.7701	2.50397	68.2299	-3.11197e-06	-6.27091e-06	-2.5026e-09	-6.26841e-06	0.244781	9562.48	3.8162	9558.67
31.6296	10.5983	3.63992	11.2059	-18.9547	11.1346	0.244883	-0.0265959	1382.41	145.856	1	10	0.00493337	0.000440247	0	4.60697e-05	9.77262e-05	2.93619e-06	23.7311	0.00666942	0.00610548	-0.00268407	-18.9316	11.2108	10.6044	3.63723	0.0843996	0.0289865	0.0892385	18.9547	145856	424685	449034	-71.0453	0.0000000E+000	0.0000000E+000	0.0000000E+000	71.0453	0.0000000E+000	0.0000000E+000	0.0000000E+000	-71.0453	0.0000000E+000	0.0000000E+000	0.0000000E+000	-18.9547	0.0000000E+000	0.0000000E+000	0.0000000E+000	18.9547	2.91169	71.0453	-2.02035e-06	-6.51288e-06	-2.59912e-09	-6.51028e-06	0.244785	9207.54	3.67448	9203.87
21.5517	11.5782	3.3622	12.0565	-16.1929	11.5555	0.244883	-0.0270767	2196.41	170.814	1	10	0.00493419	0.000409257	0	4.32311e-05	0.000135881	2.01367e-05	-33.6474	0.0492032	0.0409598	0.0272625	-16.2627	12.1034	11.6191	3.38947	0.0796527	0.0231305	0.0829431	16.1929	170814	588218	612518	-73.8071	0.0000000E+000	0.0000000E+000	0.0000000E+000	73.8071	0.0000000E+000	0.0000000E+000	0.0000000E+000	-73.8071	0.0000000E+000	0.0000000E+000	0.0000000E+000	-16.1929	0.0000000E+000	0.0000000E+000	0.0000000E+000	16.1929	3.44362	73.8071	-2.83859e-06	-6.6306e-06	-3.6792e-09	-6.62692e-06	0.244747	9044.04	5.01837	9039.02
14.6852	12.4009	3.1245	12.7885	-14.1418	12.0162	0.244891	-0.0203235	3468.66	207.055	1	10	0.00493799	0.000386129	0	4.16593e-05	7.86489e-05	5.18178e-06	-83.633	0.0134198	0.00148822	0.013337	-14.1981	12.7932	12.4024	3.13783	0.0758258	0.0191049	0.0781956	14.1418	207055	821786	847469	-75.8582	0.0000000E+000	0.0000000E+000	0.0000000E+000	75.8582	0.0000000E+000	0.0000000E+000	0.0000000E+000	-75.8582	0.0000000E+000	0.0000000E+000	0.0000000E+000	-14.1418	0.0000000E+000	0.0000000E+000	0.0000000E+000	14.1418	3.96892	75.8582	-1.57182e-06	-4.97704e-06	-1.59842e-09	-4.97544e-06	0.244813	12049.7	3.86986	12045.8
10.0032	13.19	2.78648	13.4811	-11.9288	12.7118	0.244931	-0.0128814	5709.85	243.942	1	11	0.00494292	0.000366656	0	3.82875e-05	9.77262e-05	1.76086e-05	-13.2305	0.0480249	0.0467502	0.0109914	-11.9334	13.5291	13.2367	2.79747	0.0725761	0.0153323	0.074178	11.9288	243942	1.15472e+06	1.1802e+06	-78.0712	0.0000000E+000	0.0000000E+000	0.0000000E+000	78.0712	0.0000000E+000	0.0000000E+000	0.0000000E+000	-78.0712	0.0000000E+000	0.0000000E+000	0.0000000E+000	-11.9288	0.0000000E+000	0.0000000E+000	0.0000000E+000	11.9288	4.73356	78.0712	-3.37173e-06	-3.15506e-06	-1.25885e-09	-3.1538e-06	0.244834	19014.3	7.5866	19006.7
6.81719	13.8259	2.50528	14.051	-10.2707	13.0515	0.244941	-0.0110768	9318.75	296.248	1	11	0.00493495	0.000351216	0	3.51774e-05	0.00021219	6.04618e-06	-75.6304	0.017215	0.00427235	0.0166764	-10.3345	14.0582	13.8301	2.52196	0.0700288	0.0126894	0.0711692	10.2707	296248	1.6349e+06	1.66152e+06	-79.7293	0.0000000E+000	0.0000000E+000	0.0000000E+000	79.7293	0.0000000E+000	0.0000000E+000	0.0000000E+000	-79.7293	0.0000000E+000	0.0000000E+000	0.0000000E+000	-10.2707	0.0000000E+000	0.0000000E+000	0.0000000E+000	10.2707	5.51869	79.7293	-3.11014e-06	-2.71317e-06	-2.35039e-09	-2.71082e-06	0.244729	22113	19.1562	22093.8
4.63925	14.3688	2.20959	14.5377	-8.74228	13.5365	0.244942	-0.0120975	15526	358.667	1	11	0.00493181	0.000339242	0	3.14526e-05	0.000135881	1.21775e-05	-12.9991	0.0358962	0.0349763	0.00807432	-8.75275	14.5735	14.4038	2.21767	0.0679874	0.0104549	0.0687865	8.74228	358667	2.33239e+06	2.3598e+06	-81.2577	0.0000000E+000	0.0000000E+000	0.0000000E+000	81.2577	0.0000000E+000	0.0000000E+000	0.0000000E+000	-81.2577	0.0000000E+000	0.0000000E+000	0.0000000E+000	-8.74228	0.0000000E+000	0.0000000E+000	0.0000000E+000	8.74228	6.50293	81.2577	-3.72483e-06	-2.96319e-06	-1.64382e-09	-2.96155e-06	0.244806	20247.2	11.2321	20236
3.1604	14.8642	1.99383	14.9973	-7.63983	14.2295	0.244937	-0.0117399	25257.5	446.414	1	11	0.00493777	0.000329243	0	3.2707e-05	0.000250345	8.55077e-06	25.7376	0.025971	0.0233945	-0.0112779	-7.58533	15.019	14.8876	1.98255	0.0660866	0.00886461	0.0666785	7.63983	446414	3.32807e+06	3.35788e+06	-82.3602	0.0000000E+000	0.0000000E+000	0.0000000E+000	82.3602	0.0000000E+000	0.0000000E+000	0.0000000E+000	-82.3602	0.0000000E+000	0.0000000E+000	0.0000000E+000	-7.63983	0.0000000E+000	0.0000000E+000	0.0000000E+000	7.63983	7.45511	82.3602	1.25441e-06	-2.87552e-06	-2.93901e-09	-2.87258e-06	0.244686	20863.7	21.3243	20842.4
2.15577	15.2514	1.73768	15.3501	-6.50002	15.233	0.244934	-0.0112142	42486.2	544.461	1	11	0.00493248	0.000321332	0	3.48932e-05	0.000441118	3.94652e-06	-51.718	0.0122817	0.00760893	0.00964082	-6.53254	15.3587	15.259	1.74732	0.0647274	0.00737478	0.0651462	6.50002	544461	4.77866e+06	4.80958e+06	-83.5	0.0000000E+000	0.0000000E+000	0.0000000E+000	83.5	0.0000000E+000	0.0000000E+000	0.0000000E+000	-83.5	0.0000000E+000	0.0000000E+000	0.0000000E+000	-6.50002	0.0000000E+000	0.0000000E+000	0.0000000E+000	6.50002	8.77687	83.5	2.18625e-06	-2.74674e-06	-4.9468e-09	-2.7418e-06	0.244493	21841.3	39.3355	21802
1.46631	15.626	1.53685	15.7013	-5.61712	16.6946	0.244938	-0.00967612	70625.6	676.632	1	11	0.00494052	0.000314656	0	3.20423e-05	-0.000169356	3.78772e-06	-25.7769	0.0120376	0.0108398	0.00523478	-5.63225	15.7127	15.6368	1.54209	0.063383	0.00623388	0.0636888	5.61712	676633	6.87966e+06	6.91285e+06	-84.3829	0.0000000E+000	0.0000000E+000	0.0000000E+000	84.3829	0.0000000E+000	0.0000000E+000	0.0000000E+000	-84.3829	0.0000000E+000	0.0000000E+000	0.0000000E+000	-5.61712	0.0000000E+000	0.0000000E+000	0.0000000E+000	5.61712	10.1675	84.3829	-2.85088e-06	-2.37005e-06	1.63871e-09	-2.37169e-06	0.245107	25313.7	17.5025	25331.2
1.00006	15.8961	1.38406	15.9562	-4.97615	18.8246	0.244945	-0.00825979	114984	865.142	1	11	0.00493821	0.000309485	0	2.04322e-05	5.95716e-05	1.92159e-06	-42.5743	0.00620899	0.0045723	0.00420067	-4.98975	15.9611	15.9007	1.38826	0.0624353	0.00543619	0.0626715	4.97615	865142	9.93625e+06	9.97384e+06	-85.0238	0.0000000E+000	0.0000000E+000	0.0000000E+000	85.0238	0.0000000E+000	0.0000000E+000	0.0000000E+000	-85.0238	0.0000000E+000	0.0000000E+000	0.0000000E+000	-4.97615	0.0000000E+000	0.0000000E+000	0.0000000E+000	4.97615	11.4851	85.0238	-1.16102e-05	-2.02319e-06	-4.92049e-10	-2.0227e-06	0.244885	29655.1	7.21223	29647.9
0.681362	16.1134	1.30632	16.1663	-4.63483	23.4485	0.244949	-0.00842239	178811	1167.53	1	12	0.00493647	0.000305355	0	-4.2928e-06	0.000116803	3.46413e-06	-33.3414	0.0113446	0.00947738	0.00623528	-4.65413	16.1763	16.1229	1.31255	0.0616548	0.00499835	0.0618571	4.63483	1.16753e+06	1.44015e+07	1.44488e+07	-85.3652	0.0000000E+000	0.0000000E+000	0.0000000E+000	85.3652	0.0000000E+000	0.0000000E+000	0.0000000E+000	-85.3652	0.0000000E+000	0.0000000E+000	0.0000000E+000	-4.63483	0.0000000E+000	0.0000000E+000	0.0000000E+000	4.63483	12.335	85.3652	-2.4725e-05	-2.06306e-06	-9.83764e-10	-2.06207e-06	0.244832	29083.1	13.8682	29069.2
0.464091	16.3253	1.30391	16.3773	-4.56657	28.0031	0.24494	-0.00969013	263008	1667.18	1	12	0.00493973	0.000301621	0	-2.92153e-05	0.000193113	3.19748e-06	-5.79548	0.010601	0.0105468	0.00107046	-4.56736	16.3879	16.3358	1.30498	0.0608665	0.00486146	0.0610603	4.56657	1.66718e+06	2.08735e+07	2.094e+07	-85.4334	0.0000000E+000	0.0000000E+000	0.0000000E+000	85.4334	0.0000000E+000	0.0000000E+000	0.0000000E+000	-85.4334	0.0000000E+000	0.0000000E+000	0.0000000E+000	-4.56657	0.0000000E+000	0.0000000E+000	0.0000000E+000	4.56657	12.5202	85.4334	-2.49225e-05	-2.3735e-06	-1.87129e-09	-2.37163e-06	0.244747	25277.3	19.9288	25257.3
0.316193	16.5216	1.41985	16.5825	-4.91186	34.6791	0.244941	-0.0105758	354508	2599.02	1	12	0.00493833	0.000297804	0	-4.90777e-05	0.00021219	2.90842e-06	-23.8799	0.00976623	0.0089302	0.00395358	-4.92282	16.5917	16.5305	1.4238	0.060083	0.00516347	0.0603045	4.91186	2.59902e+06	3.02426e+07	3.03541e+07	-85.0881	0.0000000E+000	0.0000000E+000	0.0000000E+000	85.0881	0.0000000E+000	0.0000000E+000	0.0000000E+000	-85.0881	0.0000000E+000	0.0000000E+000	0.0000000E+000	-4.91186	0.0000000E+000	0.0000000E+000	0.0000000E+000	4.91186	11.6362	85.0881	-1.98624e-05	-2.59044e-06	-2.24408e-09	-2.5882e-06	0.244728	23160.5	20.0637	23140.4
0.215268	16.703	1.66836	16.7862	-5.70398	44.4716	0.244941	-0.0107291	443151	4377.51	1	12	0.00493694	0.000294108	0	-5.37188e-05	-3.5815e-05	3.26753e-06	5.45549	0.01111	0.0110596	-0.00105625	-5.69665	16.7971	16.7141	1.6673	0.0592779	0.00592088	0.0595729	5.70398	4.37751e+06	4.38262e+07	4.40443e+07	-84.296	0.0000000E+000	0.0000000E+000	0.0000000E+000	84.296	0.0000000E+000	0.0000000E+000	0.0000000E+000	-84.296	0.0000000E+000	0.0000000E+000	0.0000000E+000	-5.70398	0.0000000E+000	0.0000000E+000	0.0000000E+000	5.70398	10.0117	84.296	-4.64104e-06	-2.62799e-06	3.84261e-10	-2.62837e-06	0.244977	22829.7	3.33813	22833
0.146929	16.9206	2.02453	17.0413	-6.82293	58.8109	0.244939	-0.00968171	535044	7551.47	1	12	0.00493686	0.0002897	0	-3.81946e-05	-0.000169356	2.63469e-06	-11.3947	0.00909454	0.00891529	0.00179677	-6.82536	17.0504	16.9295	2.02632	0.0582654	0.00697137	0.058681	6.82293	7.55147e+06	6.31137e+07	6.35639e+07	-83.1771	0.0000000E+000	0.0000000E+000	0.0000000E+000	83.1771	0.0000000E+000	0.0000000E+000	0.0000000E+000	-83.1771	0.0000000E+000	0.0000000E+000	0.0000000E+000	-6.82293	0.0000000E+000	0.0000000E+000	0.0000000E+000	6.82293	8.35781	83.1771	1.55242e-05	-2.37142e-06	1.63966e-09	-2.37306e-06	0.245108	25299.1	17.4924	25316.6
0.0999041	17.2559	2.5332	17.4408	-8.35148	79.888	0.244936	-0.00774511	628880	13267	1	12	0.00493685	0.000283063	0	-1.41924e-05	-1.67377e-05	2.11348e-06	-8.42932	0.00746647	0.00738582	0.0010945	-8.35151	17.4483	17.2633	2.53429	0.0567287	0.00832788	0.0573367	8.35148	1.3267e+07	9.03732e+07	9.13418e+07	-81.6485	0.0000000E+000	0.0000000E+000	0.0000000E+000	81.6485	0.0000000E+000	0.0000000E+000	0.0000000E+000	-81.6485	0.0000000E+000	0.0000000E+000	0.0000000E+000	-8.35148	0.0000000E+000	0.0000000E+000	0.0000000E+000	8.35148	6.8119	81.6485	2.40021e-05	-1.89706e-06	1.29635e-10	-1.89719e-06	0.244953	31624.6	2.16106	31626.8
0.0680626	17.7183	3.27894	18.0192	-10.4845	110.815	0.24493	-0.00633836	713145	23614.3	1	12	0.0049403	0.000274169	0	-1.72689e-05	0.000250345	3.12097e-06	-5.60088	0.0113834	0.0113291	0.001111	-10.4814	18.0305	17.7297	3.28005	0.0545699	0.0100987	0.0554964	10.4845	2.36143e+07	1.27604e+08	1.29771e+08	-79.5155	0.0000000E+000	0.0000000E+000	0.0000000E+000	79.5155	0.0000000E+000	0.0000000E+000	0.0000000E+000	-79.5155	0.0000000E+000	0.0000000E+000	0.0000000E+000	-10.4845	0.0000000E+000	0.0000000E+000	0.0000000E+000	10.4845	5.40367	79.5155	-3.07645e-06	-1.55245e-06	-1.58677e-09	-1.55087e-06	0.24468	38642.5	39.4968	38603
0.0464052	18.248	4.33962	18.7569	-13.3772	156.167	0.244934	-0.00552772	790318	42304.2	1	12	0.00494097	0.000263422	0	-0.000121104	-0.000150279	3.16066e-06	8.52609	0.0119985	0.0118659	-0.00177889	-13.3636	18.768	18.2598	4.33784	0.0518672	0.0123347	0.0533137	13.3772	4.23042e+07	1.77888e+08	1.82849e+08	-76.6228	0.0000000E+000	0.0000000E+000	0.0000000E+000	76.6228	0.0000000E+000	0.0000000E+000	0.0000000E+000	-76.6228	0.0000000E+000	0.0000000E+000	0.0000000E+000	-13.3772	0.0000000E+000	0.0000000E+000	0.0000000E+000	13.3772	4.20497	76.6228	-0.000103835	-1.35393e-06	8.307e-10	-1.35476e-06	0.245084	44310.1	27.1864	44337.2
0.0315922	18.817	5.63732	19.6433	-16.6776	222.772	0.244936	-0.00618059	893650	73601.4	1	12	0.00493816	0.000251392	0	-0.000417003	-1.67377e-05	2.525e-06	-7.79094	0.0100441	0.00995136	0.00136156	-16.673	19.6532	18.8269	5.63868	0.0487666	0.0146099	0.0509081	16.6776	7.36014e+07	2.45676e+08	2.56464e+08	-73.3224	0.0000000E+000	0.0000000E+000	0.0000000E+000	73.3224	0.0000000E+000	0.0000000E+000	0.0000000E+000	-73.3224	0.0000000E+000	0.0000000E+000	0.0000000E+000	-16.6776	0.0000000E+000	0.0000000E+000	0.0000000E+000	16.6776	3.33792	73.3224	-0.000295899	-1.51385e-06	1.03449e-10	-1.51396e-06	0.244953	39629.9	2.7081	39632.7
0.0215268	19.6994	7.27574	21	-20.2711	320.51	0.244933	-0.00769155	1.01616e+06	121977	1	12	0.00494098	0.000235285	0	-0.000940519	5.95716e-05	2.17068e-06	-17.8898	0.00922576	0.00877969	0.00283403	-20.2701	21.0092	19.7081	7.27857	0.0446696	0.0164982	0.047619	20.2711	1.21977e+08	3.30258e+08	3.52064e+08	-69.7289	0.0000000E+000	0.0000000E+000	0.0000000E+000	69.7289	0.0000000E+000	0.0000000E+000	0.0000000E+000	-69.7289	0.0000000E+000	0.0000000E+000	0.0000000E+000	-20.2711	0.0000000E+000	0.0000000E+000	0.0000000E+000	20.2711	2.70754	69.7289	-0.000523516	-1.88392e-06	-4.58198e-10	-1.88346e-06	0.244874	31844.4	7.74507	31836.7
0.0146812	21.0204	9.67655	23.1407	-24.7186	463.813	0.244934	-0.00875928	1.12031e+06	195897	1	12	0.00493853	0.000213413	0	-0.00158685	0.000250345	2.40041e-06	-26.9805	0.0112477	0.0100235	0.00510293	-24.7197	23.1519	21.0304	9.68165	0.0392543	0.0180704	0.0432139	24.7186	1.95897e+08	4.25546e+08	4.68471e+08	-65.2814	0.0000000E+000	0.0000000E+000	0.0000000E+000	65.2814	0.0000000E+000	0.0000000E+000	0.0000000E+000	-65.2814	0.0000000E+000	0.0000000E+000	0.0000000E+000	-24.7186	0.0000000E+000	0.0000000E+000	0.0000000E+000	24.7186	2.1723	65.2814	-0.000646335	-2.14545e-06	-2.19284e-09	-2.14325e-06	0.244684	27962.8	28.5805	27934.2
0.0100092	22.6064	12.9931	26.0743	-29.8882	673.993	0.244935	-0.00969595	1.2238e+06	303884	1	12	0.00493733	0.000189356	0	-0.00215096	4.04943e-05	2.55296e-06	-24.221	0.0134823	0.0122955	0.00553123	-29.8853	26.0877	22.6187	12.9986	0.0332511	0.0191111	0.0383519	29.8882	3.03884e+08	5.28723e+08	6.09831e+08	-60.1118	0.0000000E+000	0.0000000E+000	0.0000000E+000	60.1118	0.0000000E+000	0.0000000E+000	0.0000000E+000	-60.1118	0.0000000E+000	0.0000000E+000	0.0000000E+000	-29.8882	0.0000000E+000	0.0000000E+000	0.0000000E+000	29.8882	1.73988	60.1118	-0.000564107	-2.37487e-06	-3.9263e-10	-2.37448e-06	0.244894	25261.5	4.17641	25257.4