File: txt/18708_R307_UA701_SOC00_C05.mpt
EC-Lab ASCII FILE
Nb header lines : 65

Potentio Electrochemical Impedance Spectroscopy

Run on channel : 5 (SN 65912)
User :
CE vs. WE compliance from -10 V to 10 V
Electrode connection : standard
Potential control : Ewe
Ewe ctrl range : min = -10.00 V, max = 10.00 V
Safety Limits :
	Do not start on E overload
Acquisition started on : 10/28/2025 15:30:40.851
Technique started on : 10/28/2025 15:30:42.721
Loaded Setting File :  C:\Users\Celltest\OneDrive - store-dot.com\Documents\EC-Lab\Data\@Biologic Test Protocols\anode half cell EIS SOC00.mps
Saved on :
	File : 18708_R307_UA701_SOC00_C05.mpr
	Directory : C:\Users\Celltest\OneDrive - store-dot.com\Documents\EC-Lab\Data\Anna\
	Host : 169.254.61.224
Device : VMP-3e (SN .003165)
Address : USB
EC-LAB for windows v11.62 (software)
Internet server v27.00 (firmware)
Command interpretor v12.03 (firmware)
Electrode material :
Initial state :
Electrolyte :
Comments :
Electrode surface area : 0.001 cm²
Characteristic mass : 0.001 g
Equivalent Weight : 0.000 g/eq.
Density : 0.000 g/cm3
Volume (V) : 0.001 cm³
Record Ece
Cycle Definition : Charge/Discharge alternance
Mode                Single sine
E (V)               0.0000
vs.                 Eoc
tE (h:m:s)          0:00:0.0000
record              0
dI                  0.000
unit dI             mA
dt (s)              0.000
fi                  100.000
unit fi             kHz
ff                  10.000
unit ff             mHz
Nd                  6
Points              per decade
spacing             Logarithmic
Va (mV)             5.0
pw                  0.10
Na                  2
corr                0
E range min (V)     -10.000
E range max (V)     10.000
I Range             Auto
Bandwidth           5
nc cycles           0
goto Ns'            0
nr cycles           0
inc. cycle          0

freq/Hz	Re(Z)/Ohm	-Im(Z)/Ohm	|Z|/Ohm	Phase(Z)/deg	time/s	<Ewe>/V	<I>/mA	Cs/µF	Cp/µF	cycle number	I Range	|Ewe|/V	|I|/A	Ns	(Q-Qo)/mA.h	<Ece>/V	|Ece|/V	Phase(Zce)/deg	|Zce|/Ohm	Re(Zce)/Ohm	-Im(Zce)/Ohm	Phase(Zwe-ce)/deg	|Zwe-ce|/Ohm	Re(Zwe-ce)/Ohm	-Im(Zwe-ce)/Ohm	Re(Y)/Ohm-1	Im(Y)/Ohm-1	|Y|/Ohm-1	Phase(Y)/deg	Re(C)/nF	Im(C)/nF	|C|/nF	Phase(C)/deg	Re(M)	Im(M)	|M|	Phase(M)/deg	Re(Permittivity)	Im(Permittivity)	|Permittivity|	Phase(Permittivity)/deg	Re(Resistivity)/Ohm.cm	Im(Resistivity)/Ohm.cm	|Resistivity|/Ohm.cm	Phase(Resistivity)/deg	Re(Conductivity)/mS/cm	Im(Conductivity)/mS/cm	|Conductivity|/mS/cm	Phase(Conductivity)/deg	Tan(Delta)	Loss Angle(Delta)/deg	dq/mA.h	Pwe/W	Pce/W	Pwe-ce/W	<Ewe-Ece>/V	Rwe/Ohm	Rce/Ohm	Rwe-ce/Ohm		Ewe-Ece/V
100004	1.21892	0.420945	1.28956	-19.0519	1.86953	0.247021	-0.00631503	3.78076	0.402851	1	9	0.00487794	0.00378263	0	-3.24308e-06	0.00024491	3.99107e-05	58.3221	0.010551	0.00554081	-0.00897908	-18.5953	1.29191	1.22446	0.411966	0.73298	0.253128	0.775457	19.0519	402.851	1166.53	1234.13	-70.9481	0.0000000E+000	0.0000000E+000	0.0000000E+000	70.9481	0.0000000E+000	0.0000000E+000	0.0000000E+000	-70.9481	0.0000000E+000	0.0000000E+000	0.0000000E+000	-19.0519	0.0000000E+000	0.0000000E+000	0.0000000E+000	19.0519	2.89569	70.9481	-3.24308e-06	-1.55995e-06	-1.54662e-09	-1.5584e-06	0.246776	39116.4	38.7821	39077.6
68132	1.3339	0.474074	1.41564	-19.5654	2.25251	0.247002	-0.00918249	4.92745	0.552597	1	9	0.00548347	0.00387349	0	-7.04283e-06	0.000111272	2.30683e-05	45.022	0.00595543	0.00420951	-0.00421274	-19.3481	1.41821	1.33811	0.469862	0.665606	0.236559	0.706393	19.5654	552.597	1554.84	1650.12	-70.4346	0.0000000E+000	0.0000000E+000	0.0000000E+000	70.4346	0.0000000E+000	0.0000000E+000	0.0000000E+000	-70.4346	0.0000000E+000	0.0000000E+000	0.0000000E+000	-19.5654	0.0000000E+000	0.0000000E+000	0.0000000E+000	19.5654	2.8137	70.4346	-3.79975e-06	-2.26809e-06	-1.02175e-09	-2.26707e-06	0.24689	26899.2	12.1178	26887.1
46420.4	1.45936	0.51946	1.54906	-19.5932	2.75956	0.246983	-0.021993	6.60024	0.742212	1	9	0.00506691	0.00327096	0	-1.73837e-05	0.00024491	2.22176e-05	38.4759	0.00679237	0.00531754	-0.00422612	-19.3804	1.55266	1.46468	0.515234	0.608174	0.216479	0.645554	19.5932	742.212	2085.16	2213.32	-70.4068	0.0000000E+000	0.0000000E+000	0.0000000E+000	70.4068	0.0000000E+000	0.0000000E+000	0.0000000E+000	-70.4068	0.0000000E+000	0.0000000E+000	0.0000000E+000	-19.5932	0.0000000E+000	0.0000000E+000	0.0000000E+000	19.5932	2.80939	70.4068	-1.03409e-05	-5.43189e-06	-5.38631e-09	-5.42651e-06	0.246738	11230.1	11.1358	11218.9
31621.1	1.59046	0.566073	1.68819	-19.5916	3.14255	0.246971	-0.0133906	8.89139	0.999705	1	9	0.00542784	0.00321518	0	-1.92646e-05	0.000130363	1.24416e-05	19.7288	0.00386965	0.0036425	-0.00130627	-19.5085	1.69119	1.5941	0.564767	0.558057	0.198623	0.59235	19.5916	999.705	2808.8	2981.4	-70.4084	0.0000000E+000	0.0000000E+000	0.0000000E+000	70.4084	0.0000000E+000	0.0000000E+000	0.0000000E+000	-70.4084	0.0000000E+000	0.0000000E+000	0.0000000E+000	-19.5916	0.0000000E+000	0.0000000E+000	0.0000000E+000	19.5916	2.80963	70.4084	-1.88082e-06	-3.3071e-06	-1.74564e-09	-3.30535e-06	0.246841	18443.6	9.73541	18433.9
21544.7	1.73422	0.611422	1.83885	-19.4207	3.52556	0.246969	-0.0121617	12.082	1.33576	1	9	0.00549537	0.00298848	0	-1.72157e-05	-0.00023237	3.78975e-06	46.1997	0.00126812	0.000877723	-0.000915273	-19.3848	1.83937	1.7351	0.610507	0.512876	0.180821	0.543818	19.4207	1335.76	3788.72	4017.3	-70.5793	0.0000000E+000	0.0000000E+000	0.0000000E+000	70.5793	0.0000000E+000	0.0000000E+000	0.0000000E+000	-70.5793	0.0000000E+000	0.0000000E+000	0.0000000E+000	-19.4207	0.0000000E+000	0.0000000E+000	0.0000000E+000	19.4207	2.83638	70.5793	2.04881e-06	-3.00356e-06	2.82601e-09	-3.00639e-06	0.247202	20307.1	19.1067	20326.2
14678.6	1.87232	0.665532	1.98709	-19.5682	3.90855	0.246962	-0.00836324	16.2917	1.82756	1	9	0.0054795	0.00275755	0	-2.3076e-05	-9.87315e-05	3.26196e-06	89.4195	0.00118292	1.19844e-05	-0.00118286	-19.5359	1.9867	1.87233	0.664349	0.474183	0.168553	0.503249	19.5682	1827.56	5141.41	5456.56	-70.4318	0.0000000E+000	0.0000000E+000	0.0000000E+000	70.4318	0.0000000E+000	0.0000000E+000	0.0000000E+000	-70.4318	0.0000000E+000	0.0000000E+000	0.0000000E+000	-19.5682	0.0000000E+000	0.0000000E+000	0.0000000E+000	19.5682	2.81327	70.4318	-5.86024e-06	-2.0654e-06	8.25715e-10	-2.06622e-06	0.24706	29529.4	11.8054	29541.2
10002.2	2.02938	0.729555	2.15654	-19.7733	4.29354	0.246956	-0.00925699	21.8105	2.49613	1	9	0.00542673	0.00251641	0	-2.56339e-05	3.4907e-05	1.00324e-05	-71.2732	0.00398678	0.00127998	0.00377572	-19.8561	2.15902	2.03066	0.73333	0.436366	0.156871	0.463706	19.7733	2496.13	6943.43	7378.48	-70.2267	0.0000000E+000	0.0000000E+000	0.0000000E+000	70.2267	0.0000000E+000	0.0000000E+000	0.0000000E+000	-70.2267	0.0000000E+000	0.0000000E+000	0.0000000E+000	-19.7733	0.0000000E+000	0.0000000E+000	0.0000000E+000	19.7733	2.78168	70.2267	-2.55787e-06	-2.28607e-06	-3.23134e-10	-2.28575e-06	0.246922	26677.8	3.77088	26674.1
6810.42	2.18111	0.811815	2.32729	-20.4154	4.67652	0.24696	-0.0177849	28.7865	3.50269	1	9	0.0052724	0.00226547	0	-2.06783e-05	-3.27544e-06	3.26867e-05	-58.6035	0.0144282	0.0075165	0.0123157	-20.634	2.33865	2.18863	0.824131	0.402695	0.149884	0.429684	20.4154	3502.69	9410.71	10041.4	-69.5846	0.0000000E+000	0.0000000E+000	0.0000000E+000	69.5846	0.0000000E+000	0.0000000E+000	0.0000000E+000	-69.5846	0.0000000E+000	0.0000000E+000	0.0000000E+000	-20.4154	0.0000000E+000	0.0000000E+000	0.0000000E+000	20.4154	2.68671	69.5846	4.95561e-06	-4.39216e-06	5.82535e-11	-4.39222e-06	0.246963	13885.9	0.184169	13886.1
4646	2.38217	0.902185	2.54728	-20.7429	5.07064	0.246964	-0.0185297	37.9704	4.76301	1	9	0.00518289	0.00203467	0	-2.05208e-05	-9.87315e-05	7.34949e-06	-138.478	0.00361213	-0.00270442	0.00239449	-20.8149	2.54561	2.37946	0.90458	0.367128	0.13904	0.392575	20.7429	4763.01	12576.4	13448.2	-69.2571	0.0000000E+000	0.0000000E+000	0.0000000E+000	69.2571	0.0000000E+000	0.0000000E+000	0.0000000E+000	-69.2571	0.0000000E+000	0.0000000E+000	0.0000000E+000	-20.7429	0.0000000E+000	0.0000000E+000	0.0000000E+000	20.7429	2.64044	69.2571	1.57456e-07	-4.57618e-06	1.82947e-09	-4.57801e-06	0.247063	13328	5.32828	13333.3
3163.08	2.58003	1.01016	2.77073	-21.3818	5.62162	0.24693	-0.0380434	49.8106	6.62079	1	9	0.00499772	0.00180375	0	-2.54729e-05	5.39982e-05	1.25706e-05	-59.3943	0.00696913	0.00354817	0.00599827	-21.4704	2.77623	2.58358	1.01615	0.336074	0.131583	0.360915	21.3818	6620.78	16910.1	18160	-68.6182	0.0000000E+000	0.0000000E+000	0.0000000E+000	68.6182	0.0000000E+000	0.0000000E+000	0.0000000E+000	-68.6182	0.0000000E+000	0.0000000E+000	0.0000000E+000	-21.3818	0.0000000E+000	0.0000000E+000	0.0000000E+000	21.3818	2.55409	68.6182	-4.95209e-06	-9.39405e-06	-2.05428e-09	-9.392e-06	0.246876	6490.74	1.41938	6489.32
2155.69	2.80918	1.15462	3.03721	-22.3435	6.07379	0.24694	-0.0178594	63.9431	9.2411	1	9	0.00506093	0.00166631	0	-2.89155e-05	0.000168545	6.43952e-06	-52.5735	0.00386455	0.00234865	0.00306897	-22.3802	3.04055	2.81153	1.15769	0.30453	0.125167	0.329249	22.3435	9241.11	22483.5	24308.5	-67.6565	0.0000000E+000	0.0000000E+000	0.0000000E+000	67.6565	0.0000000E+000	0.0000000E+000	0.0000000E+000	-67.6565	0.0000000E+000	0.0000000E+000	0.0000000E+000	-22.3435	0.0000000E+000	0.0000000E+000	0.0000000E+000	22.3435	2.43299	67.6565	-3.44264e-06	-4.4102e-06	-3.01012e-09	-4.40719e-06	0.246771	13826.9	9.43735	13817.4
1468.59	3.08254	1.32454	3.35507	-23.2527	6.52505	0.246944	-0.0151037	81.8192	12.7521	1	9	0.00501273	0.00149408	0	-3.08011e-05	1.58158e-05	8.59485e-06	-14.4099	0.00575261	0.00557163	0.00143158	-23.2376	3.36075	3.08812	1.32597	0.273846	0.117669	0.298057	23.2527	12752.1	29677.4	32301.2	-66.7473	0.0000000E+000	0.0000000E+000	0.0000000E+000	66.7473	0.0000000E+000	0.0000000E+000	0.0000000E+000	-66.7473	0.0000000E+000	0.0000000E+000	0.0000000E+000	-23.2527	0.0000000E+000	0.0000000E+000	0.0000000E+000	23.2527	2.32726	66.7473	-1.88557e-06	-3.72976e-06	-2.38876e-10	-3.72952e-06	0.246928	16349.9	1.04715	16348.9
1000.32	3.35787	1.50652	3.68033	-24.1635	7.22079	0.246947	-0.0166458	105.611	17.6962	1	10	0.00500944	0.00136114	0	-3.1711e-05	0.000168545	7.60177e-06	-38.3342	0.00558486	0.0043808	0.003464	-24.1848	3.68575	3.36225	1.50998	0.247907	0.111224	0.271715	24.1635	17696.2	39443	43230.9	-65.8365	0.0000000E+000	0.0000000E+000	0.0000000E+000	65.8365	0.0000000E+000	0.0000000E+000	0.0000000E+000	-65.8365	0.0000000E+000	0.0000000E+000	0.0000000E+000	-24.1635	0.0000000E+000	0.0000000E+000	0.0000000E+000	24.1635	2.2289	65.8365	-9.0986e-07	-4.11063e-06	-2.80557e-09	-4.10783e-06	0.246779	14835.4	10.1254	14825.3
681.09	3.69838	1.74737	4.09039	-25.2894	7.67055	0.246958	-0.016467	133.73	24.4046	1	10	0.00493136	0.0012056	0	-3.34451e-05	-7.96403e-05	1.15552e-05	-24.4458	0.00958466	0.00872542	0.00396644	-25.2874	4.09997	3.7071	1.75134	0.221045	0.104437	0.244475	25.2894	24404.6	51653.2	57128.2	-64.7106	0.0000000E+000	0.0000000E+000	0.0000000E+000	64.7106	0.0000000E+000	0.0000000E+000	0.0000000E+000	-64.7106	0.0000000E+000	0.0000000E+000	0.0000000E+000	-25.2894	0.0000000E+000	0.0000000E+000	0.0000000E+000	25.2894	2.11653	64.7106	-1.73416e-06	-4.06667e-06	1.31144e-09	-4.06798e-06	0.247038	14997.1	4.83635	15002
463.961	4.1017	2.04036	4.58116	-26.4478	8.12228	0.246949	-0.0166644	168.125	33.35	1	10	0.00486391	0.00106172	0	-3.60473e-05	-3.27544e-06	7.91444e-06	-115.984	0.00745435	-0.00326595	0.00670082	-26.541	4.58122	4.09843	2.04707	0.19544	0.0972204	0.218285	26.4478	33350	67042.8	74879.6	-63.5522	0.0000000E+000	0.0000000E+000	0.0000000E+000	63.5522	0.0000000E+000	0.0000000E+000	0.0000000E+000	-63.5522	0.0000000E+000	0.0000000E+000	0.0000000E+000	-26.4478	0.0000000E+000	0.0000000E+000	0.0000000E+000	26.4478	2.01028	63.5522	-2.60215e-06	-4.11525e-06	5.45832e-11	-4.1153e-06	0.246952	14818.9	0.196553	14819.1
316.316	4.60136	2.39458	5.18715	-27.4928	8.57001	0.246955	-0.0172117	210.121	44.7787	1	10	0.00482718	0.000930603	0	-3.75557e-05	3.4907e-05	1.06408e-05	-84.0565	0.0114343	0.00118401	0.0113729	-27.5981	5.19346	4.60254	2.40596	0.171013	0.0889963	0.192784	27.4928	44778.7	86045.3	96999.6	-62.5072	0.0000000E+000	0.0000000E+000	0.0000000E+000	62.5072	0.0000000E+000	0.0000000E+000	0.0000000E+000	-62.5072	0.0000000E+000	0.0000000E+000	0.0000000E+000	-27.4928	0.0000000E+000	0.0000000E+000	0.0000000E+000	27.4928	1.92157	62.5072	-1.50841e-06	-4.25052e-06	-6.0081e-10	-4.24992e-06	0.24692	14348	2.02809	14346
215.345	5.25171	2.76274	5.93407	-27.7473	9.01955	0.246953	-0.0167389	267.513	57.9857	1	10	0.00480247	0.000809304	0	-3.97498e-05	9.21806e-05	6.0774e-06	10.5001	0.00750942	0.00738367	-0.00136849	-27.7025	5.93997	5.25909	2.76138	0.14914	0.0784576	0.168518	27.7473	57985.7	110225	124547	-62.2527	0.0000000E+000	0.0000000E+000	0.0000000E+000	62.2527	0.0000000E+000	0.0000000E+000	0.0000000E+000	-62.2527	0.0000000E+000	0.0000000E+000	0.0000000E+000	-27.7473	0.0000000E+000	0.0000000E+000	0.0000000E+000	27.7473	1.9009	62.2527	-2.19411e-06	-4.13372e-06	-1.543e-09	-4.13218e-06	0.246861	14753.3	5.50698	14747.8
146.737	6.04467	3.0981	6.79237	-27.1367	9.46551	0.246948	-0.0166793	350.093	72.8338	1	10	0.00477933	0.000703632	0	-4.19398e-05	0.000225819	1.5079e-05	21.2742	0.0214303	0.0199699	-0.00777558	-27.0018	6.80661	6.06464	3.09033	0.131018	0.0671512	0.147224	27.1367	72833.8	142105	159683	-62.8633	0.0000000E+000	0.0000000E+000	0.0000000E+000	62.8633	0.0000000E+000	0.0000000E+000	0.0000000E+000	-62.8633	0.0000000E+000	0.0000000E+000	0.0000000E+000	-27.1367	0.0000000E+000	0.0000000E+000	0.0000000E+000	27.1367	1.95109	62.8633	-2.19004e-06	-4.11893e-06	-3.76651e-09	-4.11516e-06	0.246723	14805.7	13.5389	14792.1
100.032	6.9791	3.36958	7.74997	-25.7717	9.91679	0.246945	-0.0154915	472.178	89.2601	1	10	0.00477541	0.000616184	0	-4.38624e-05	0.000168545	6.12564e-06	-62.8495	0.00994124	0.00453649	0.00884582	-25.816	7.7579	6.98364	3.37843	0.116198	0.0561017	0.129033	25.7717	89260.1	184876	205296	-64.2283	0.0000000E+000	0.0000000E+000	0.0000000E+000	64.2283	0.0000000E+000	0.0000000E+000	0.0000000E+000	-64.2283	0.0000000E+000	0.0000000E+000	0.0000000E+000	-25.7717	0.0000000E+000	0.0000000E+000	0.0000000E+000	25.7717	2.07121	64.2283	-1.92261e-06	-3.82556e-06	-2.61103e-09	-3.82295e-06	0.246776	15940.6	10.8798	15929.8
68.104	8.00504	3.49353	8.73416	-23.5773	10.3795	0.246945	-0.0154543	668.933	107.021	1	10	0.00477208	0.000546369	0	-4.5744e-05	-6.05491e-05	8.14193e-06	5.91948	0.0149019	0.0148224	-0.00153684	-23.5292	8.74713	8.01987	3.492	0.104935	0.0457955	0.114493	23.5773	107021	245228	267563	-66.4227	0.0000000E+000	0.0000000E+000	0.0000000E+000	66.4227	0.0000000E+000	0.0000000E+000	0.0000000E+000	-66.4227	0.0000000E+000	0.0000000E+000	0.0000000E+000	-23.5773	0.0000000E+000	0.0000000E+000	0.0000000E+000	23.5773	2.29139	66.4227	-1.88154e-06	-3.81636e-06	9.35744e-10	-3.8173e-06	0.247006	15979	3.91794	15983
46.4415	8.99667	3.44058	9.63211	-20.9283	10.8166	0.246955	-0.0162213	996.052	127.087	1	10	0.00476173	0.00049436	0	-4.80789e-05	7.30894e-05	6.33725e-06	94.6702	0.0128191	-0.00104374	-0.0127765	-20.8595	9.62658	8.99562	3.4278	0.0969703	0.0370842	0.103819	20.9283	127087	332317	355788	-69.0717	0.0000000E+000	0.0000000E+000	0.0000000E+000	69.0717	0.0000000E+000	0.0000000E+000	0.0000000E+000	-69.0717	0.0000000E+000	0.0000000E+000	0.0000000E+000	-20.9283	0.0000000E+000	0.0000000E+000	0.0000000E+000	20.9283	2.61487	69.0717	-2.33496e-06	-4.00593e-06	-1.18561e-09	-4.00474e-06	0.246881	15224.1	4.50576	15219.6
31.6296	9.95727	3.268	10.4798	-18.17	11.2465	0.246946	-0.0173979	1539.73	149.727	1	10	0.00475625	0.000453847	0	-4.91317e-05	9.21806e-05	3.92618e-06	-58.7293	0.00865089	0.00449052	0.00739413	-18.2007	10.4864	9.96176	3.2754	0.0906632	0.0297559	0.0954213	18.17	149727	456203	480145	-71.83	0.0000000E+000	0.0000000E+000	0.0000000E+000	71.83	0.0000000E+000	0.0000000E+000	0.0000000E+000	-71.83	0.0000000E+000	0.0000000E+000	0.0000000E+000	-18.17	0.0000000E+000	0.0000000E+000	0.0000000E+000	18.17	3.0469	71.83	-1.05279e-06	-4.29634e-06	-1.60375e-09	-4.29474e-06	0.246853	14194	5.29837	14188.7
21.5517	10.7957	2.99236	11.2028	-15.4923	11.6674	0.246941	-0.0183772	2467.88	176.077	1	10	0.00475424	0.000424381	0	-5.09227e-05	0.00024491	1.10879e-05	63.9522	0.0261273	0.011473	-0.0234735	-15.361	11.2076	10.8072	2.96889	0.0860205	0.0238432	0.0892638	15.4923	176077	635243	659194	-74.5077	0.0000000E+000	0.0000000E+000	0.0000000E+000	74.5077	0.0000000E+000	0.0000000E+000	0.0000000E+000	-74.5077	0.0000000E+000	0.0000000E+000	0.0000000E+000	-15.4923	0.0000000E+000	0.0000000E+000	0.0000000E+000	15.4923	3.60776	74.5077	-1.79098e-06	-4.53809e-06	-4.50076e-09	-4.53359e-06	0.246696	13437.4	13.3269	13424.1
14.6852	11.521	2.71265	11.836	-13.2491	12.1282	0.246945	-0.0151602	3995.28	209.857	1	10	0.0047584	0.000402027	0	-5.13318e-05	3.4907e-05	4.8015e-06	-21.4296	0.0119432	0.0111176	0.00436355	-13.2574	11.8479	11.5321	2.71701	0.0822389	0.0193634	0.0844877	13.2491	209857	891290	915662	-76.7509	0.0000000E+000	0.0000000E+000	0.0000000E+000	76.7509	0.0000000E+000	0.0000000E+000	0.0000000E+000	-76.7509	0.0000000E+000	0.0000000E+000	0.0000000E+000	-13.2491	0.0000000E+000	0.0000000E+000	0.0000000E+000	13.2491	4.24714	76.7509	-4.09071e-07	-3.74372e-06	-5.29195e-10	-3.74319e-06	0.24691	16289.1	2.30255	16286.8
10.0032	12.1545	2.44627	12.3982	-11.3796	12.8238	0.246957	-0.0118653	6503.94	253.201	1	11	0.00475906	0.00038385	0	-5.48263e-05	9.21806e-05	7.9373e-06	-12.168	0.0206781	0.0202136	0.00435852	-11.3809	12.4189	12.1747	2.45063	0.079071	0.0159142	0.0806566	11.3796	253202	1.25805e+06	1.28328e+06	-78.6204	0.0000000E+000	0.0000000E+000	0.0000000E+000	78.6204	0.0000000E+000	0.0000000E+000	0.0000000E+000	-78.6204	0.0000000E+000	0.0000000E+000	0.0000000E+000	-11.3796	0.0000000E+000	0.0000000E+000	0.0000000E+000	11.3796	4.96858	78.6204	-3.49449e-06	-2.93022e-06	-1.09375e-09	-2.92912e-06	0.246864	20813.3	7.76892	20805.6
6.81719	12.6873	2.18457	12.874	-9.76967	13.1635	0.246948	-0.0117942	10686.8	307.716	1	11	0.00474878	0.000368864	0	-5.89643e-05	0.000225819	8.71729e-06	17.3507	0.0236328	0.0225574	-0.00704776	-9.7218	12.8951	12.7099	2.17752	0.0765492	0.0131806	0.0776757	9.76967	307716	1.78713e+06	1.81343e+06	-80.2303	0.0000000E+000	0.0000000E+000	0.0000000E+000	80.2303	0.0000000E+000	0.0000000E+000	0.0000000E+000	-80.2303	0.0000000E+000	0.0000000E+000	0.0000000E+000	-9.76967	0.0000000E+000	0.0000000E+000	0.0000000E+000	9.76967	5.80771	80.2303	-4.13803e-06	-2.91255e-06	-2.66335e-09	-2.90989e-06	0.246722	20938.1	19.1466	20918.9
4.63925	13.1855	1.93158	13.3263	-8.3341	13.6475	0.246953	-0.0116639	17760.7	373.136	1	11	0.00475216	0.000356601	0	-6.12146e-05	0.000130363	9.72841e-06	-15.0402	0.0272809	0.0263464	0.00707931	-8.34777	13.3534	13.2119	1.93866	0.0742473	0.0108766	0.0750397	8.3341	373136	2.54714e+06	2.57432e+06	-81.6659	0.0000000E+000	0.0000000E+000	0.0000000E+000	81.6659	0.0000000E+000	0.0000000E+000	0.0000000E+000	-81.6659	0.0000000E+000	0.0000000E+000	0.0000000E+000	-8.3341	0.0000000E+000	0.0000000E+000	0.0000000E+000	8.3341	6.82631	81.6659	-2.25029e-06	-2.88044e-06	-1.52054e-09	-2.87891e-06	0.246823	21172.5	11.1766	21161.3
3.1604	13.5849	1.72073	13.6934	-7.21894	14.3404	0.24695	-0.0118917	29266.2	462.133	1	11	0.00475444	0.000347206	0	-5.88655e-05	-2.23667e-05	4.9545e-06	70.9596	0.0142696	0.00465526	-0.0134889	-7.16051	13.6964	13.5895	1.70724	0.0724489	0.00917675	0.0730277	7.21894	462133	3.64847e+06	3.67762e+06	-82.7811	0.0000000E+000	0.0000000E+000	0.0000000E+000	82.7811	0.0000000E+000	0.0000000E+000	0.0000000E+000	-82.7811	0.0000000E+000	0.0000000E+000	0.0000000E+000	-7.21894	0.0000000E+000	0.0000000E+000	0.0000000E+000	7.21894	7.89483	82.7811	2.34905e-06	-2.93666e-06	2.65978e-10	-2.93693e-06	0.246972	20766.5	1.88086	20768.4
2.15577	13.9591	1.50218	14.0397	-6.14215	15.3441	0.24696	-0.0105425	49146.8	562.634	1	11	0.00475975	0.000339021	0	-5.77326e-05	0.000302184	6.10014e-06	-42.5088	0.0179934	0.0132642	0.0121582	-6.18564	14.0542	13.9724	1.51434	0.0708178	0.00762093	0.0712266	6.14215	562634	5.2283e+06	5.25849e+06	-83.8579	0.0000000E+000	0.0000000E+000	0.0000000E+000	83.8579	0.0000000E+000	0.0000000E+000	0.0000000E+000	-83.8579	0.0000000E+000	0.0000000E+000	0.0000000E+000	-6.14215	0.0000000E+000	0.0000000E+000	0.0000000E+000	6.14215	9.29254	83.8579	1.13296e-06	-2.60359e-06	-3.18579e-09	-2.6004e-06	0.246658	23425.1	28.6633	23396.4
1.46631	14.2509	1.35228	14.3149	-5.42064	16.8046	0.246961	-0.00944888	80265	716.284	1	11	0.00475855	0.000332419	0	-6.36323e-05	7.30894e-05	2.82881e-06	-96.0091	0.00850978	-0.000890852	0.00846302	-5.4547	14.3148	14.25	1.36075	0.0695449	0.0065992	0.0698573	5.42064	716285	7.54848e+06	7.58239e+06	-84.5794	0.0000000E+000	0.0000000E+000	0.0000000E+000	84.5794	0.0000000E+000	0.0000000E+000	0.0000000E+000	-84.5794	0.0000000E+000	0.0000000E+000	0.0000000E+000	-5.42064	0.0000000E+000	0.0000000E+000	0.0000000E+000	5.42064	10.5384	84.5794	-5.89974e-06	-2.3335e-06	-6.90613e-10	-2.33281e-06	0.246888	26136.5	7.73525	26128.8
1.00006	14.4862	1.23803	14.539	-4.8848	18.9347	0.246961	-0.00854358	128546	932.086	1	11	0.0047603	0.000327416	0	-7.83952e-05	0.000130363	2.28342e-06	-28.1303	0.00697406	0.00615026	0.00328812	-4.89564	14.5454	14.4923	1.24132	0.0685307	0.00585684	0.0687805	4.8848	932087	1.09063e+07	1.09461e+07	-85.1152	0.0000000E+000	0.0000000E+000	0.0000000E+000	85.1152	0.0000000E+000	0.0000000E+000	0.0000000E+000	-85.1152	0.0000000E+000	0.0000000E+000	0.0000000E+000	-4.8848	0.0000000E+000	0.0000000E+000	0.0000000E+000	4.8848	11.701	85.1152	-1.47629e-05	-2.10993e-06	-1.11377e-09	-2.10882e-06	0.246831	28906	15.2586	28890.8
0.681362	14.679	1.17332	14.7258	-4.57004	22.0468	0.246958	-0.00841415	199079	1263.86	1	11	0.00475664	0.000323014	0	-9.95291e-05	0.000168545	3.59751e-06	34.3438	0.0111373	0.00919573	-0.00628322	-4.54283	14.7345	14.6882	1.16703	0.0676921	0.00541075	0.067908	4.57004	1.26386e+06	1.58118e+07	1.58622e+07	-85.43	0.0000000E+000	0.0000000E+000	0.0000000E+000	85.43	0.0000000E+000	0.0000000E+000	0.0000000E+000	-85.43	0.0000000E+000	0.0000000E+000	0.0000000E+000	-4.57004	0.0000000E+000	0.0000000E+000	0.0000000E+000	4.57004	12.5107	85.43	-2.11339e-05	-2.07794e-06	-1.41817e-09	-2.07652e-06	0.246789	29350.3	20.0312	29330.3
0.464091	14.8754	1.19156	14.923	-4.57979	26.6033	0.246958	-0.00938596	287807	1834.94	1	11	0.0047573	0.00031879	0	-0.000121714	-6.05491e-05	2.4476e-06	-57.3302	0.00767777	0.00414443	0.00646311	-4.60325	14.9276	14.8795	1.19803	0.0667967	0.00535062	0.0670107	4.57979	1.83494e+06	2.29072e+07	2.29806e+07	-85.4202	0.0000000E+000	0.0000000E+000	0.0000000E+000	85.4202	0.0000000E+000	0.0000000E+000	0.0000000E+000	-85.4202	0.0000000E+000	0.0000000E+000	0.0000000E+000	-4.57979	0.0000000E+000	0.0000000E+000	0.0000000E+000	4.57979	12.4839	85.4202	-2.21852e-05	-2.31793e-06	5.68311e-10	-2.3185e-06	0.247018	26311.4	6.45103	26317.8
0.316193	15.0469	1.33228	15.1057	-5.05989	33.2777	0.246961	-0.0102257	377809	2938.86	1	11	0.00476242	0.000315272	0	-0.00013453	5.39982e-05	1.87232e-06	-49.5065	0.00593876	0.00385641	0.00451631	-5.07566	15.11	15.0507	1.3368	0.065942	0.00583863	0.0662	5.05989	2.93886e+06	3.31917e+07	3.33216e+07	-84.9401	0.0000000E+000	0.0000000E+000	0.0000000E+000	84.9401	0.0000000E+000	0.0000000E+000	0.0000000E+000	-84.9401	0.0000000E+000	0.0000000E+000	0.0000000E+000	-5.05989	0.0000000E+000	0.0000000E+000	0.0000000E+000	5.05989	11.2941	84.9401	-1.2816e-05	-2.52535e-06	-5.5217e-10	-2.5248e-06	0.246907	24151	5.28064	24145.8
0.215268	15.2046	1.56143	15.2846	-5.86341	43.0701	0.246954	-0.0104053	473497	4941.47	1	11	0.00475772	0.000311275	0	-0.000130867	0.000168545	2.91042e-06	65.7531	0.00934999	0.00383976	-0.00852517	-5.83016	15.2876	15.2085	1.55291	0.065083	0.00668367	0.0654253	5.86341	4.94147e+06	4.81181e+07	4.83712e+07	-84.1366	0.0000000E+000	0.0000000E+000	0.0000000E+000	84.1366	0.0000000E+000	0.0000000E+000	0.0000000E+000	-84.1366	0.0000000E+000	0.0000000E+000	0.0000000E+000	-5.86341	0.0000000E+000	0.0000000E+000	0.0000000E+000	5.86341	9.73761	84.1366	3.66332e-06	-2.56964e-06	-1.75377e-09	-2.56788e-06	0.246785	23733.4	16.198	23717.2
0.146929	15.4095	1.89373	15.5254	-7.00616	57.4084	0.246958	-0.00893767	572000	8510.3	1	11	0.00475516	0.000306283	0	-0.000108214	0.000264002	2.84177e-06	13.0881	0.00927826	0.00903724	-0.00210106	-6.9944	15.5341	15.4185	1.89163	0.0639296	0.00785654	0.0644106	7.00616	8.5103e+06	6.92493e+07	6.97703e+07	-82.9938	0.0000000E+000	0.0000000E+000	0.0000000E+000	82.9938	0.0000000E+000	0.0000000E+000	0.0000000E+000	-82.9938	0.0000000E+000	0.0000000E+000	0.0000000E+000	-7.00616	0.0000000E+000	0.0000000E+000	0.0000000E+000	7.00616	8.13712	82.9938	2.2653e-05	-2.20723e-06	-2.35956e-09	-2.20487e-06	0.246694	27631.1	29.5381	27601.6
0.0999041	15.7357	2.37971	15.9147	-8.59967	78.4857	0.246965	-0.00634817	669441	14968.1	1	11	0.00475852	0.000299003	0	-8.26066e-05	-0.000175096	2.21447e-06	11.8645	0.00740619	0.00724797	-0.0015227	-8.59035	15.9216	15.743	2.37819	0.0621287	0.00939572	0.0628352	8.59967	1.49681e+07	9.89759e+07	1.00101e+08	-81.4003	0.0000000E+000	0.0000000E+000	0.0000000E+000	81.4003	0.0000000E+000	0.0000000E+000	0.0000000E+000	-81.4003	0.0000000E+000	0.0000000E+000	0.0000000E+000	-8.59967	0.0000000E+000	0.0000000E+000	0.0000000E+000	8.59967	6.61245	81.4003	2.56074e-05	-1.56778e-06	1.11154e-09	-1.56889e-06	0.24714	38903.4	27.5822	38930.9
0.0680626	16.0846	3.11921	16.3843	-10.9749	124.18	0.246956	-0.00619467	749664	27170.8	1	12	0.00475456	0.000290191	0	-0.000122309	5.39982e-05	2.39021e-06	4.08908	0.00823669	0.00821572	-0.000587336	-10.9674	16.3922	16.0928	3.11863	0.0599179	0.0116196	0.0610342	10.9749	2.71708e+07	1.4011e+08	1.4272e+08	-79.0251	0.0000000E+000	0.0000000E+000	0.0000000E+000	79.0251	0.0000000E+000	0.0000000E+000	0.0000000E+000	-79.0251	0.0000000E+000	0.0000000E+000	0.0000000E+000	-10.9749	0.0000000E+000	0.0000000E+000	0.0000000E+000	10.9749	5.15662	79.0251	-3.97023e-05	-1.52981e-06	-3.34501e-10	-1.52947e-06	0.246902	39865.8	8.71688	39857.1
0.0464052	16.582	4.12193	17.0867	-13.9596	169.53	0.246963	-0.00496163	832056	48421.7	1	12	0.00475819	0.000278474	0	-0.000261961	0.000321275	1.99264e-06	2.95649	0.00715557	0.00714604	-0.000369067	-13.9526	17.0935	16.5892	4.12156	0.0567967	0.0141184	0.0585252	13.9596	4.84217e+07	1.94795e+08	2.00723e+08	-76.0404	0.0000000E+000	0.0000000E+000	0.0000000E+000	76.0404	0.0000000E+000	0.0000000E+000	0.0000000E+000	-76.0404	0.0000000E+000	0.0000000E+000	0.0000000E+000	-13.9596	0.0000000E+000	0.0000000E+000	0.0000000E+000	13.9596	4.02288	76.0404	-0.000139652	-1.22534e-06	-1.59405e-09	-1.22375e-06	0.246642	49774.6	64.7519	49709.8
0.0315922	17.112	5.33268	17.9237	-17.3088	236.136	0.246968	-0.00621212	944702	83624	1	12	0.00475867	0.000265496	0	-0.000598	7.30894e-05	1.52765e-06	-38.5594	0.00575393	0.00449936	0.00358657	-17.3155	17.929	17.1165	5.33627	0.0532656	0.0165993	0.0557921	17.3088	8.3624e+07	2.68341e+08	2.81069e+08	-72.6912	0.0000000E+000	0.0000000E+000	0.0000000E+000	72.6912	0.0000000E+000	0.0000000E+000	0.0000000E+000	-72.6912	0.0000000E+000	0.0000000E+000	0.0000000E+000	-17.3088	0.0000000E+000	0.0000000E+000	0.0000000E+000	17.3088	3.2089	72.6912	-0.00033604	-1.53419e-06	-4.5404e-10	-1.53374e-06	0.246895	39755.9	11.7656	39744.1
0.0215268	18.0005	6.93244	19.2893	-21.0629	333.874	0.246964	-0.00775607	1.06649e+06	137751	1	12	0.00475865	0.000246699	0	-0.00112525	0.000149454	2.14909e-06	21.3528	0.0087114	0.00811341	-0.00317191	-21.0455	19.2957	18.0086	6.92927	0.0483785	0.0186318	0.0518423	21.0629	1.37751e+08	3.57679e+08	3.83288e+08	-68.9371	0.0000000E+000	0.0000000E+000	0.0000000E+000	68.9371	0.0000000E+000	0.0000000E+000	0.0000000E+000	-68.9371	0.0000000E+000	0.0000000E+000	0.0000000E+000	-21.0629	0.0000000E+000	0.0000000E+000	0.0000000E+000	21.0629	2.59656	68.9371	-0.00052725	-1.91547e-06	-1.15918e-09	-1.91431e-06	0.246814	31841.4	19.2693	31822.1
0.0146812	19.2178	9.3109	21.3545	-25.8499	477.176	0.246961	-0.00889333	1.16431e+06	221346	1	12	0.00475723	0.000222774	0	-0.0016932	0.000321275	1.30247e-06	17.5288	0.0058466	0.00557512	-0.00176091	-25.8392	21.3588	19.2233	9.30914	0.0421428	0.020418	0.0468285	25.8499	2.21346e+08	4.5686e+08	5.07656e+08	-64.1501	0.0000000E+000	0.0000000E+000	0.0000000E+000	64.1501	0.0000000E+000	0.0000000E+000	0.0000000E+000	-64.1501	0.0000000E+000	0.0000000E+000	0.0000000E+000	-25.8499	0.0000000E+000	0.0000000E+000	0.0000000E+000	25.8499	2.06401	64.1501	-0.000567951	-2.19631e-06	-2.8572e-09	-2.19345e-06	0.24664	27769.3	36.1254	27733.1
0.0100092	20.5804	12.4512	24.0538	-31.174	687.358	0.246964	-0.00954551	1.27706e+06	342188	1	12	0.00475844	0.000197825	0	-0.00209257	0.000149454	2.22076e-06	70.7228	0.0112259	0.0037061	-0.0105965	-31.1478	24.0515	20.5841	12.4406	0.0355702	0.02152	0.0415734	31.174	3.42188e+08	5.65599e+08	6.61056e+08	-58.826	0.0000000E+000	0.0000000E+000	0.0000000E+000	58.826	0.0000000E+000	0.0000000E+000	0.0000000E+000	-58.826	0.0000000E+000	0.0000000E+000	0.0000000E+000	-31.174	0.0000000E+000	0.0000000E+000	0.0000000E+000	31.174	1.65289	58.826	-0.000399372	-2.3574e-06	-1.42662e-09	-2.35597e-06	0.246815	25872.3	15.657	25856.6