File: txt/18703_R307_UC91_26p5_SOC50_C04.mpt
EC-Lab ASCII FILE
Nb header lines : 65

Potentio Electrochemical Impedance Spectroscopy

Run on channel : 4 (SN 66756)
User :
CE vs. WE compliance from -10 V to 10 V
Electrode connection : standard
Potential control : Ewe
Ewe ctrl range : min = -10.00 V, max = 10.00 V
Safety Limits :
	Do not start on E overload
Acquisition started on : 10/30/2025 15:43:20.131
Technique started on : 10/30/2025 15:43:22.366
Loaded Setting File :  C:\Users\Celltest\OneDrive - store-dot.com\Documents\EC-Lab\Data\@Biologic Test Protocols\cathode half cell EIS SOC50.mps
Saved on :
	File : 18703_R307_UC91_26p5_SOC50_C04.mpr
	Directory : C:\Users\Celltest\OneDrive - store-dot.com\Documents\EC-Lab\Data\Anna\
	Host : 169.254.61.224
Device : VMP-3e (SN .003165)
Address : USB
EC-LAB for windows v11.62 (software)
Internet server v27.00 (firmware)
Command interpretor v12.03 (firmware)
Electrode material :
Initial state :
Electrolyte :
Comments :
Electrode surface area : 0.001 cm²
Characteristic mass : 0.001 g
Equivalent Weight : 0.000 g/eq.
Density : 0.000 g/cm3
Volume (V) : 0.001 cm³
Record Ece
Cycle Definition : Charge/Discharge alternance
Mode                Multi sine
E (V)               0.0000
vs.                 Eoc
tE (h:m:s)          0:00:0.0000
record              0
dI                  0.000
unit dI             mA
dt (s)              0.000
fi                  1.000
unit fi             MHz
ff                  0.100
unit ff             mHz
Nd                  10
Points              per decade
spacing             Logarithmic
Va (mV)             5.0
pw                  0.10
Na                  2
corr                0
E range min (V)     -10.000
E range max (V)     10.000
I Range             Auto
Bandwidth           5
nc cycles           0
goto Ns'            0
nr cycles           0
inc. cycle          0

freq/Hz	Re(Z)/Ohm	-Im(Z)/Ohm	|Z|/Ohm	Phase(Z)/deg	time/s	<Ewe>/V	<I>/mA	Cs/µF	Cp/µF	cycle number	I Range	|Ewe|/V	|I|/A	Ns	(Q-Qo)/mA.h	<Ece>/V	|Ece|/V	Phase(Zce)/deg	|Zce|/Ohm	Re(Zce)/Ohm	-Im(Zce)/Ohm	Phase(Zwe-ce)/deg	|Zwe-ce|/Ohm	Re(Zwe-ce)/Ohm	-Im(Zwe-ce)/Ohm	Re(Y)/Ohm-1	Im(Y)/Ohm-1	|Y|/Ohm-1	Phase(Y)/deg	Re(C)/nF	Im(C)/nF	|C|/nF	Phase(C)/deg	Re(M)	Im(M)	|M|	Phase(M)/deg	Re(Permittivity)	Im(Permittivity)	|Permittivity|	Phase(Permittivity)/deg	Re(Resistivity)/Ohm.cm	Im(Resistivity)/Ohm.cm	|Resistivity|/Ohm.cm	Phase(Resistivity)/deg	Re(Conductivity)/mS/cm	Im(Conductivity)/mS/cm	|Conductivity|/mS/cm	Phase(Conductivity)/deg	Tan(Delta)	Loss Angle(Delta)/deg	dq/mA.h	Pwe/W	Pce/W	Pwe-ce/W	<Ewe-Ece>/V	Rwe/Ohm	Rce/Ohm	Rwe-ce/Ohm		Ewe-Ece/V
1.00002e+06	2.59701	2.6188	3.68816	-45.2394	2.23457	3.97915	0.015948	0.060773	0.0306404	1	10	0.00022233	6.02822e-05	0	-2.50627e-06	-3.46116e-05	0.000184766	-67.4445	3.06501	1.17567	2.83057	-55.3046	6.62787	3.77268	5.44936	0.190921	0.192523	0.271138	45.2394	30.6404	30.3854	43.1521	-44.7606	0.0000000E+000	0.0000000E+000	0.0000000E+000	44.7606	0.0000000E+000	0.0000000E+000	0.0000000E+000	-44.7606	0.0000000E+000	0.0000000E+000	0.0000000E+000	-45.2394	0.0000000E+000	0.0000000E+000	0.0000000E+000	45.2394	0.99168	44.7607	-2.50627e-06	6.34593e-05	-5.51985e-10	6.34598e-05	3.97918	249508	2.17029	249510
630957	1.20156	-0.197352	1.21766	9.3274	3.40553	3.97808	-0.0506351	-1.27814	-0.0335748	1	9	0.000369082	0.000303108	0	-1.60954e-05	-0.000187491	0.000101864	-94.0731	0.336065	-0.0238705	0.335216	-6.67682	1.18573	1.17769	0.137863	0.810392	-0.133105	0.82125	-9.3274	-33.5748	204.416	207.155	-99.3274	0.0000000E+000	0.0000000E+000	0.0000000E+000	99.3274	0.0000000E+000	0.0000000E+000	0.0000000E+000	-99.3274	0.0000000E+000	0.0000000E+000	0.0000000E+000	9.3274	0.0000000E+000	0.0000000E+000	0.0000000E+000	-9.3274	6.08838	80.6726	-5.44943e-06	-0.000201431	9.49364e-09	-0.00020144	3.97827	78563.8	3.70279	78567.5
398103	1.60672	0.215508	1.62111	-7.63943	4.17155	3.97794	-0.0544021	1.85507	0.032784	1	9	0.0014241	0.000878472	0	-2.82131e-05	2.27182e-05	3.90106e-05	0.346584	0.0444073	0.0444065	-0.00026862	-7.42714	1.6651	1.65113	0.21524	0.611385	0.0820044	0.61686	7.63943	32.784	244.421	246.61	-82.3606	0.0000000E+000	0.0000000E+000	0.0000000E+000	82.3606	0.0000000E+000	0.0000000E+000	0.0000000E+000	-82.3606	0.0000000E+000	0.0000000E+000	0.0000000E+000	-7.63943	0.0000000E+000	0.0000000E+000	0.0000000E+000	7.63943	7.45551	82.3606	-4.97643e-06	-0.000216408	-1.23592e-09	-0.000216407	3.97792	73121	0.417598	73120.6
251206	1.75248	0.565252	1.84139	-17.8768	4.93752	3.97773	-0.0612275	1.12085	0.105619	1	9	0.00443785	0.00241006	0	-4.27524e-05	-0.000149271	5.8002e-05	77.0567	0.0240666	0.00539062	-0.0234551	-17.1299	1.83947	1.75787	0.541797	0.516849	0.166706	0.543069	17.8768	105.619	327.456	344.068	-72.1232	0.0000000E+000	0.0000000E+000	0.0000000E+000	72.1232	0.0000000E+000	0.0000000E+000	0.0000000E+000	-72.1232	0.0000000E+000	0.0000000E+000	0.0000000E+000	-17.8768	0.0000000E+000	0.0000000E+000	0.0000000E+000	17.8768	3.10036	72.1232	-9.04611e-06	-0.000243547	9.13951e-09	-0.000243556	3.97788	64966.5	2.43798	64968.9
158486	1.9518	0.83284	2.12206	-23.1081	5.70552	3.97765	-0.0546632	1.20578	0.185727	1	9	0.00542965	0.00255867	0	-6.33714e-05	-0.000378591	3.82243e-05	86.1842	0.0149391	0.000994181	-0.014906	-22.7265	2.11717	1.95279	0.817934	0.43343	0.184946	0.47124	23.1081	185.727	435.26	473.229	-66.8919	0.0000000E+000	0.0000000E+000	0.0000000E+000	66.8919	0.0000000E+000	0.0000000E+000	0.0000000E+000	-66.8919	0.0000000E+000	0.0000000E+000	0.0000000E+000	-23.1081	0.0000000E+000	0.0000000E+000	0.0000000E+000	23.1081	2.34355	66.8919	-1.08322e-05	-0.000217431	2.0695e-08	-0.000217452	3.97803	72766.6	6.92589	72773.5
100004	2.2353	1.08959	2.48672	-25.9868	6.47153	3.97765	-0.0558194	1.46063	0.280423	1	9	0.00541778	0.00217868	0	-7.554e-05	-0.000111051	3.09696e-05	73.8639	0.0142148	0.00395058	-0.0136548	-25.6638	2.48433	2.23925	1.07594	0.361478	0.176201	0.402136	25.9868	280.423	575.289	639.995	-64.0132	0.0000000E+000	0.0000000E+000	0.0000000E+000	64.0132	0.0000000E+000	0.0000000E+000	0.0000000E+000	-64.0132	0.0000000E+000	0.0000000E+000	0.0000000E+000	-25.9868	0.0000000E+000	0.0000000E+000	0.0000000E+000	25.9868	2.0515	64.0132	-9.38286e-06	-0.00022203	6.19882e-09	-0.000222036	3.97776	71259.3	1.98948	71261.3
63093.8	2.57023	1.32344	2.89095	-27.2444	7.23755	3.97763	-0.0495161	1.90603	0.399444	1	9	0.00529965	0.00183318	0	-8.90997e-05	6.09381e-05	1.28189e-05	55.5554	0.0069927	0.00395514	-0.00576669	-27.1069	2.89183	2.57419	1.31767	0.307533	0.158352	0.345907	27.2444	399.444	775.755	872.555	-62.7556	0.0000000E+000	0.0000000E+000	0.0000000E+000	62.7556	0.0000000E+000	0.0000000E+000	0.0000000E+000	-62.7556	0.0000000E+000	0.0000000E+000	0.0000000E+000	-27.2444	0.0000000E+000	0.0000000E+000	0.0000000E+000	27.2444	1.94209	62.7556	-7.86675e-06	-0.000196957	-3.01742e-09	-0.000196954	3.97757	80330.1	1.23067	80328.8
39814.1	2.98945	1.56034	3.37216	-27.5623	8.00352	3.97763	-0.0494789	2.56191	0.548512	1	9	0.00524174	0.00155441	0	-0.000103243	-0.000302151	2.17048e-05	18.4055	0.0139633	0.013249	-0.00440879	-27.3922	3.38188	3.0027	1.55593	0.26289	0.137215	0.296546	27.5623	548.512	1050.89	1185.43	-62.4377	0.0000000E+000	0.0000000E+000	0.0000000E+000	62.4377	0.0000000E+000	0.0000000E+000	0.0000000E+000	-62.4377	0.0000000E+000	0.0000000E+000	0.0000000E+000	-27.5623	0.0000000E+000	0.0000000E+000	0.0000000E+000	27.5623	1.9159	62.4377	-7.86943e-06	-0.000196808	1.49501e-08	-0.000196823	3.97793	80390.5	6.10667	80396.6
25116.9	3.47827	1.81031	3.92117	-27.4954	8.76952	3.97763	-0.0484718	3.50026	0.746065	1	9	0.00517539	0.00131986	0	-0.000115359	-0.000111051	6.41122e-06	-52.6563	0.00485751	0.00294654	0.00386177	-27.5255	3.92557	3.48121	1.81417	0.22622	0.11774	0.255026	27.4954	746.065	1433.46	1615.99	-62.5046	0.0000000E+000	0.0000000E+000	0.0000000E+000	62.5046	0.0000000E+000	0.0000000E+000	0.0000000E+000	-62.5046	0.0000000E+000	0.0000000E+000	0.0000000E+000	-27.4954	0.0000000E+000	0.0000000E+000	0.0000000E+000	27.4954	1.92136	62.5046	-5.8582e-06	-0.000192803	5.38287e-09	-0.000192808	3.97774	82060.7	2.29105	82063
15847.7	4.03284	2.04029	4.51958	-26.8357	9.81453	3.97766	-0.0301943	4.92222	1.00311	1	10	0.00479374	0.00106066	0	-0.000125839	-5.37216e-05	1.32596e-05	-64.5622	0.0125013	0.00536968	0.0112893	-26.9325	4.52948	4.03821	2.05158	0.197431	0.099884	0.221259	26.8357	1003.11	1982.75	2222.06	-63.1643	0.0000000E+000	0.0000000E+000	0.0000000E+000	63.1643	0.0000000E+000	0.0000000E+000	0.0000000E+000	-63.1643	0.0000000E+000	0.0000000E+000	0.0000000E+000	-26.8357	0.0000000E+000	0.0000000E+000	0.0000000E+000	26.8357	1.9766	63.1643	-4.23219e-06	-0.000120102	1.62208e-09	-0.000120104	3.97771	131735	1.7792	131737
10002.2	4.61283	2.30856	5.15826	-26.5864	10.5805	3.97765	-0.0308284	6.89258	1.38057	1	10	0.00511327	0.000991278	0	-0.000133114	-0.000302151	2.70397e-06	70.5823	0.00272776	0.000906852	-0.00257261	-26.5563	5.15792	4.61374	2.30599	0.173365	0.0867631	0.193864	26.5864	1380.57	2758.57	3084.75	-63.4136	0.0000000E+000	0.0000000E+000	0.0000000E+000	63.4136	0.0000000E+000	0.0000000E+000	0.0000000E+000	-63.4136	0.0000000E+000	0.0000000E+000	0.0000000E+000	-26.5864	0.0000000E+000	0.0000000E+000	0.0000000E+000	26.5864	1.99814	63.4136	-4.16349e-06	-0.000122625	9.31483e-09	-0.000122634	3.97795	129025	9.80106	129035
6309.38	5.23692	2.67421	5.8802	-27.0509	11.2225	3.97764	-0.0317087	9.43275	1.95094	1	10	0.00498726	0.000848144	0	-0.000138114	-0.000187491	6.04535e-06	-90.1381	0.00712774	-1.71802e-05	0.00712772	-27.1128	5.88343	5.23691	2.68134	0.151458	0.0773412	0.170062	27.0509	1950.94	3820.54	4289.84	-62.9491	0.0000000E+000	0.0000000E+000	0.0000000E+000	62.9491	0.0000000E+000	0.0000000E+000	0.0000000E+000	-62.9491	0.0000000E+000	0.0000000E+000	0.0000000E+000	-27.0509	0.0000000E+000	0.0000000E+000	0.0000000E+000	27.0509	1.95831	62.9491	-2.88332e-06	-0.000126126	5.94511e-09	-0.000126132	3.97783	125443	5.91292	125449
3983.6	5.94628	3.10786	6.70948	-27.5941	11.7851	3.9776	-0.0362036	12.8553	2.75822	1	10	0.00495876	0.000739068	0	-0.000143002	3.60827e-06	1.13227e-05	-22.9196	0.0153202	0.0141107	0.00596629	-27.5834	6.72475	5.96039	3.11383	0.13209	0.0690373	0.149043	27.5941	2758.22	5277.31	5954.64	-62.4059	0.0000000E+000	0.0000000E+000	0.0000000E+000	62.4059	0.0000000E+000	0.0000000E+000	0.0000000E+000	-62.4059	0.0000000E+000	0.0000000E+000	0.0000000E+000	-27.5941	0.0000000E+000	0.0000000E+000	0.0000000E+000	27.5941	1.91331	62.4059	-3.14777e-06	-0.000144004	-1.30632e-10	-0.000144004	3.9776	109868	0.099666	109867
2510.8	6.82105	3.70696	7.76327	-28.5222	12.6098	3.97757	-0.025125	17.0998	3.89885	1	10	0.00485226	0.000625028	0	-0.000150061	4.18282e-05	3.75187e-06	-15.2734	0.00600273	0.00579071	0.00158127	-28.5121	7.76911	6.82684	3.70854	0.113178	0.0615076	0.128812	28.5222	3898.85	7174.14	8165.13	-61.4778	0.0000000E+000	0.0000000E+000	0.0000000E+000	61.4778	0.0000000E+000	0.0000000E+000	0.0000000E+000	-61.4778	0.0000000E+000	0.0000000E+000	0.0000000E+000	-28.5222	0.0000000E+000	0.0000000E+000	0.0000000E+000	28.5222	1.84007	61.4778	-3.11449e-06	-9.99365e-05	-1.05093e-09	-9.99354e-05	3.97753	158311	1.6648	158310
1585.51	7.88187	4.40245	9.02804	-29.1858	13.5118	3.97757	-0.0246065	22.8012	5.42201	1	10	0.00475551	0.000526749	0	-0.000156432	0.000213818	6.5876e-06	-72.1165	0.0125061	0.00384042	0.0119019	-29.2398	9.0372	7.88571	4.41436	0.0967036	0.0540142	0.110766	29.1858	5422.01	9707.21	11118.8	-60.8142	0.0000000E+000	0.0000000E+000	0.0000000E+000	60.8142	0.0000000E+000	0.0000000E+000	0.0000000E+000	-60.8142	0.0000000E+000	0.0000000E+000	0.0000000E+000	-29.1858	0.0000000E+000	0.0000000E+000	0.0000000E+000	29.1858	1.79033	60.8142	-3.10885e-06	-9.7874e-05	-5.26131e-09	-9.78687e-05	3.97735	161647	8.68948	161638
1000.32	9.23676	5.23349	10.6164	-29.5356	14.4138	3.97758	-0.0246065	30.4011	7.3879	1	10	0.0046882	0.000441601	0	-0.000162905	-0.000340371	1.00701e-05	-47.5295	0.0228037	0.0153973	0.0168205	-29.5736	10.638	9.25215	5.25031	0.0819537	0.0464344	0.0941943	29.5356	7387.9	13039.2	14986.7	-60.4644	0.0000000E+000	0.0000000E+000	0.0000000E+000	60.4644	0.0000000E+000	0.0000000E+000	0.0000000E+000	-60.4644	0.0000000E+000	0.0000000E+000	0.0000000E+000	-29.5356	0.0000000E+000	0.0000000E+000	0.0000000E+000	29.5356	1.76493	60.4644	-2.65704e-06	-9.78742e-05	8.37534e-09	-9.78826e-05	3.97792	161647	13.8326	161661
631.01	10.9822	6.13077	12.5776	-29.1723	15.3146	3.97757	-0.0252406	41.1405	9.77476	1	10	0.00465737	0.000370292	0	-0.00016919	-0.000493251	9.12096e-06	-65.0694	0.0246318	0.0103828	0.0223366	-29.2379	12.5975	10.9926	6.1531	0.0694219	0.0387545	0.0795067	29.1723	9774.76	17509.8	20053.4	-60.8278	0.0000000E+000	0.0000000E+000	0.0000000E+000	60.8278	0.0000000E+000	0.0000000E+000	0.0000000E+000	-60.8278	0.0000000E+000	0.0000000E+000	0.0000000E+000	-29.1723	0.0000000E+000	0.0000000E+000	0.0000000E+000	29.1723	1.79133	60.8278	-3.18302e-06	-0.000100396	1.245e-08	-0.000100409	3.97806	157586	19.5419	157606
398.089	13.1607	6.87002	14.8459	-27.565	16.2158	3.97757	-0.0276764	58.1945	12.4619	1	10	0.00463335	0.000312095	0	-0.000176023	-9.19415e-05	1.73413e-05	126.103	0.0555642	-0.0327404	-0.0448938	-27.4695	14.7962	13.128	6.82512	0.0597124	0.0311704	0.0673585	27.565	12461.9	23872.9	26929.8	-62.435	0.0000000E+000	0.0000000E+000	0.0000000E+000	62.435	0.0000000E+000	0.0000000E+000	0.0000000E+000	-62.435	0.0000000E+000	0.0000000E+000	0.0000000E+000	-27.565	0.0000000E+000	0.0000000E+000	0.0000000E+000	27.565	1.91568	62.435	-3.33662e-06	-0.000110085	2.54461e-09	-0.000110087	3.97766	143717	3.32201	143720
251.044	15.7983	7.29668	17.402	-24.7905	17.1141	3.97757	-0.0246475	86.8849	15.2756	1	10	0.00461611	0.000265264	0	-0.000182111	-0.000531471	2.9506e-05	-114.901	0.111233	-0.0468341	0.100892	-25.1568	17.4021	15.7515	7.39758	0.0521692	0.0240951	0.0574648	24.7905	15275.6	33073.8	36431	-65.2095	0.0000000E+000	0.0000000E+000	0.0000000E+000	65.2095	0.0000000E+000	0.0000000E+000	0.0000000E+000	-65.2095	0.0000000E+000	0.0000000E+000	0.0000000E+000	-24.7905	0.0000000E+000	0.0000000E+000	0.0000000E+000	24.7905	2.16514	65.2095	-3.18449e-06	-9.80373e-05	1.30994e-08	-9.80503e-05	3.9781	161378	21.5628	161399
158.428	18.4403	6.88915	19.6852	-20.4853	18.0188	3.97758	-0.0273706	145.821	17.8597	1	10	0.00461393	0.000234386	0	-0.000188266	-0.000168381	7.3824e-06	-80.3534	0.0314967	0.00527791	0.0310514	-20.5645	19.701	18.4456	6.9202	0.0475872	0.0177782	0.0507997	20.4853	17859.7	47805.5	51032.7	-69.5147	0.0000000E+000	0.0000000E+000	0.0000000E+000	69.5147	0.0000000E+000	0.0000000E+000	0.0000000E+000	-69.5147	0.0000000E+000	0.0000000E+000	0.0000000E+000	-20.4853	0.0000000E+000	0.0000000E+000	0.0000000E+000	20.4853	2.67672	69.5147	-3.15619e-06	-0.000108868	4.60869e-09	-0.000108873	3.97774	145323	6.15191	145329
100.032	20.8513	5.93656	21.6799	-15.8922	18.9178	3.97757	-0.0238157	268.007	20.0956	1	10	0.00461262	0.00021276	0	-0.000194312	-0.000283041	9.53242e-06	31.1939	0.0448036	0.0383258	-0.0232054	-15.8056	21.7104	20.8896	5.91335	0.0443627	0.0126305	0.0461257	15.8922	20095.6	70582.8	73387.8	-74.1078	0.0000000E+000	0.0000000E+000	0.0000000E+000	74.1078	0.0000000E+000	0.0000000E+000	0.0000000E+000	-74.1078	0.0000000E+000	0.0000000E+000	0.0000000E+000	-15.8922	0.0000000E+000	0.0000000E+000	0.0000000E+000	15.8922	3.51235	74.1078	-2.80435e-06	-9.47287e-05	6.74082e-09	-9.47355e-05	3.97786	167015	11.8846	167027
63.0823	22.4403	4.92547	22.9745	-12.3797	20.081	3.97761	-0.0181952	512.23	23.5433	1	11	0.0046062	0.000200492	0	-0.000200701	-3.46116e-05	8.8926e-06	-24.916	0.0443539	0.0402257	0.0186858	-12.4036	23.0178	22.4805	4.94416	0.0425144	0.00933158	0.0435265	12.3797	23543.3	107263	109816	-77.6203	0.0000000E+000	0.0000000E+000	0.0000000E+000	77.6203	0.0000000E+000	0.0000000E+000	0.0000000E+000	-77.6203	0.0000000E+000	0.0000000E+000	0.0000000E+000	-12.3797	0.0000000E+000	0.0000000E+000	0.0000000E+000	12.3797	4.55597	77.6203	-2.53479e-06	-7.23737e-05	6.29767e-10	-7.23743e-05	3.97765	218607	1.90224	218609
39.8089	23.7084	3.70586	23.9963	-8.88402	20.9818	3.97762	-0.018174	1078.82	25.7301	1	11	0.00462017	0.000192537	0	-0.000205323	-3.46116e-05	6.06857e-05	-93.7945	0.31519	-0.0208589	0.314499	-9.63272	24.0263	23.6875	4.02036	0.0411732	0.00643578	0.0416731	8.88402	25730.1	164609	166608	-81.116	0.0000000E+000	0.0000000E+000	0.0000000E+000	81.116	0.0000000E+000	0.0000000E+000	0.0000000E+000	-81.116	0.0000000E+000	0.0000000E+000	0.0000000E+000	-8.88402	0.0000000E+000	0.0000000E+000	0.0000000E+000	8.88402	6.39754	81.116	-2.24855e-06	-7.22892e-05	6.29031e-10	-7.22898e-05	3.97765	218863	1.90446	218865
25.1044	24.6988	2.9161	24.8703	-6.73355	21.86	3.97761	-0.0182232	2174.04	29.8889	1	11	0.00461042	0.000185378	0	-0.00020987	0.000213818	1.02768e-05	51.4979	0.0554369	0.0345119	-0.0433841	-6.62509	24.8996	24.7333	2.87272	0.0399312	0.00471454	0.0402086	6.73355	29888.9	253152	254911	-83.2664	0.0000000E+000	0.0000000E+000	0.0000000E+000	83.2664	0.0000000E+000	0.0000000E+000	0.0000000E+000	-83.2664	0.0000000E+000	0.0000000E+000	0.0000000E+000	-6.73355	0.0000000E+000	0.0000000E+000	0.0000000E+000	6.73355	8.46979	83.2664	-2.74594e-06	-7.24849e-05	-3.89645e-09	-7.2481e-05	3.9774	218272	11.7333	218260
15.8576	25.0952	2.17763	25.1895	-4.95941	22.7381	3.97762	-0.0192249	4608.92	34.4453	1	11	0.00462071	0.000183438	0	-0.000213523	-5.37216e-05	7.60542e-06	-3.14321	0.0414604	0.0413981	0.00227335	-4.95643	25.2309	25.1366	2.1799	0.0395505	0.00343199	0.0396991	4.95941	34445.2	396950	398441	-85.0406	0.0000000E+000	0.0000000E+000	0.0000000E+000	85.0406	0.0000000E+000	0.0000000E+000	0.0000000E+000	-85.0406	0.0000000E+000	0.0000000E+000	0.0000000E+000	-4.95941	0.0000000E+000	0.0000000E+000	0.0000000E+000	4.95941	11.5241	85.0406	-1.61526e-06	-7.64694e-05	1.03279e-09	-7.64705e-05	3.97767	206899	2.79437	206902
10.0032	25.0094	1.3861	25.0478	-3.17227	23.7189	3.97761	-0.0172383	11478.5	35.151	1	11	0.00461426	0.000184218	0	-0.000219174	-0.000225711	9.18638e-06	-47.7897	0.0498669	0.0335032	0.0369356	-3.25228	25.0833	25.0429	1.42304	0.0398625	0.00220931	0.0399237	3.17227	35151	634229	635202	-86.8277	0.0000000E+000	0.0000000E+000	0.0000000E+000	86.8277	0.0000000E+000	0.0000000E+000	0.0000000E+000	-86.8277	0.0000000E+000	0.0000000E+000	0.0000000E+000	-3.17227	0.0000000E+000	0.0000000E+000	0.0000000E+000	3.17227	18.043	86.8277	-3.85443e-06	-6.85673e-05	3.89088e-09	-6.85712e-05	3.97784	230743	13.0936	230756
6.31058	25.6663	1.38243	25.7035	-3.08306	24.6433	3.97762	-0.0183684	18243.5	52.7725	1	11	0.00460581	0.00017919	0	-0.000222947	-3.46116e-05	5.00162e-06	-2.64056	0.0279125	0.0278828	0.00128593	-3.08258	25.7314	25.6942	1.38371	0.0388489	0.00209246	0.0389052	3.08306	52772.4	979781	981201	-86.9169	0.0000000E+000	0.0000000E+000	0.0000000E+000	86.9169	0.0000000E+000	0.0000000E+000	0.0000000E+000	-86.9169	0.0000000E+000	0.0000000E+000	0.0000000E+000	-3.08306	0.0000000E+000	0.0000000E+000	0.0000000E+000	3.08306	18.5661	86.9169	-3.02472e-06	-7.30623e-05	6.35759e-10	-7.30629e-05	3.97765	216547	1.88431	216549
3.97785	26.0112	1.18911	26.0383	-2.61748	25.6503	3.97763	-0.0159139	33647.2	70.1726	1	11	0.00461805	0.000177356	0	-0.000226884	-0.000340371	5.43096e-06	-10.6946	0.0306218	0.0300899	0.00568261	-2.62693	26.0687	26.0413	1.19479	0.0383648	0.00175386	0.0384049	2.61748	70172.6	1.53499e+06	1.53659e+06	-87.3825	0.0000000E+000	0.0000000E+000	0.0000000E+000	87.3825	0.0000000E+000	0.0000000E+000	0.0000000E+000	-87.3825	0.0000000E+000	0.0000000E+000	0.0000000E+000	-2.61748	0.0000000E+000	0.0000000E+000	0.0000000E+000	2.61748	21.8745	87.3825	-6.56824e-07	-6.32995e-05	5.41662e-09	-6.3305e-05	3.97797	249947	21.3883	249969
2.51367	26.0447	1.01541	26.0645	-2.23266	27.2099	3.97763	-0.019959	62355	94.635	1	11	0.00461549	0.000177079	0	-0.000234141	9.9158e-05	5.6348e-06	-20.5939	0.0318207	0.0297873	0.0111927	-2.25467	26.0947	26.0745	1.0266	0.0383372	0.00149465	0.0383664	2.23266	94634.9	2.42735e+06	2.42919e+06	-87.7673	0.0000000E+000	0.0000000E+000	0.0000000E+000	87.7673	0.0000000E+000	0.0000000E+000	0.0000000E+000	-87.7673	0.0000000E+000	0.0000000E+000	0.0000000E+000	-2.23266	0.0000000E+000	0.0000000E+000	0.0000000E+000	2.23266	25.6496	87.7673	-5.5185e-06	-7.93897e-05	-1.9791e-09	-7.93877e-05	3.97753	199290	4.96808	199285
1.58469	26.6117	1.08306	26.6337	-2.33058	29.6454	3.97763	-0.0157706	92730.8	153.344	1	11	0.00461416	0.000173245	0	-0.000250895	-0.000378591	5.00555e-06	15.4671	0.0288929	0.0278465	-0.00770527	-2.3116	26.6612	26.6395	1.07536	0.0375154	0.00152683	0.0375464	2.33058	153344	3.76779e+06	3.77091e+06	-87.6694	0.0000000E+000	0.0000000E+000	0.0000000E+000	87.6694	0.0000000E+000	0.0000000E+000	0.0000000E+000	-87.6694	0.0000000E+000	0.0000000E+000	0.0000000E+000	-2.33058	0.0000000E+000	0.0000000E+000	0.0000000E+000	2.33058	24.5708	87.6694	-8.3893e-06	-6.27297e-05	5.97061e-09	-6.27357e-05	3.97801	252218	24.0061	252242
1.00469	27.0061	1.19133	27.0323	-2.52587	241.374	3.97759	-0.0144393	132971	258.256	1	11	0.0050644	0.000187346	0	-0.00188933	-7.28316e-05	4.54029e-07	4.19917	0.00242348	0.00241698	-0.000177457	-2.52526	27.0347	27.0085	1.19115	0.0369568	0.00163028	0.0369927	2.52587	258255	5.85438e+06	5.86007e+06	-87.4741	0.0000000E+000	0.0000000E+000	0.0000000E+000	87.4741	0.0000000E+000	0.0000000E+000	0.0000000E+000	-87.4741	0.0000000E+000	0.0000000E+000	0.0000000E+000	-2.52587	0.0000000E+000	0.0000000E+000	0.0000000E+000	2.52587	22.6689	87.4741	-0.00162917	-5.74335e-05	1.05163e-09	-5.74345e-05	3.97766	275470	5.04399	275475
0.632957	27.2867	1.39717	27.3224	-2.93119	241.376	3.97759	-0.0144393	179968	470.607	1	11	0.00507711	0.000185822	0	-0.00188933	-7.28316e-05	6.55704e-07	-2.42065	0.00352866	0.00352551	0.000149036	-2.93112	27.3259	27.2902	1.39732	0.0365521	0.0018716	0.0366	2.93119	470606	9.19091e+06	9.20295e+06	-87.0688	0.0000000E+000	0.0000000E+000	0.0000000E+000	87.0688	0.0000000E+000	0.0000000E+000	0.0000000E+000	-87.0688	0.0000000E+000	0.0000000E+000	0.0000000E+000	-2.93119	0.0000000E+000	0.0000000E+000	0.0000000E+000	2.93119	19.5299	87.0688	0.000000000000000E+000	-5.74335e-05	1.05163e-09	-5.74345e-05	3.97766	275470	5.04399	275475
0.401878	27.5426	1.6638	27.5928	-3.45694	241.377	3.97759	-0.0144393	238026	865.439	1	11	0.00509117	0.000184511	0	-0.00188933	-7.28316e-05	2.77998e-07	5.27139	0.00150668	0.00150031	-0.000138424	-3.45647	27.5943	27.5441	1.66366	0.0361754	0.00218529	0.0362413	3.45694	865438	1.43265e+07	1.43526e+07	-86.5431	0.0000000E+000	0.0000000E+000	0.0000000E+000	86.5431	0.0000000E+000	0.0000000E+000	0.0000000E+000	-86.5431	0.0000000E+000	0.0000000E+000	0.0000000E+000	-3.45694	0.0000000E+000	0.0000000E+000	0.0000000E+000	3.45694	16.554	86.5431	0.000000000000000E+000	-5.74335e-05	1.05163e-09	-5.74345e-05	3.97766	275470	5.04399	275475
0.251173	28.0888	1.97277	28.158	-4.01747	241.379	3.97759	-0.0144393	321197	1576.59	1	11	0.00509107	0.000180804	0	-0.00188933	-7.28316e-05	4.20082e-07	8.27823	0.00232342	0.00229921	-0.000334526	-4.01646	28.1603	28.0911	1.97243	0.0354266	0.00248812	0.0355139	4.01747	1.57659e+06	2.24479e+07	2.25032e+07	-85.9825	0.0000000E+000	0.0000000E+000	0.0000000E+000	85.9825	0.0000000E+000	0.0000000E+000	0.0000000E+000	-85.9825	0.0000000E+000	0.0000000E+000	0.0000000E+000	-4.01747	0.0000000E+000	0.0000000E+000	0.0000000E+000	4.01747	14.2383	85.9825	0.000000000000000E+000	-5.74335e-05	1.05163e-09	-5.74345e-05	3.97766	275470	5.04399	275475
0.160751	28.5003	2.31872	28.5944	-4.65121	241.38	3.97759	-0.0144393	426991	2807.71	1	11	0.0050881	0.00017794	0	-0.00188933	-7.28316e-05	3.29133e-07	13.4956	0.00184968	0.00179861	-0.00043166	-4.65006	28.5962	28.5021	2.31829	0.0348567	0.00283586	0.0349719	4.65121	2.80771e+06	3.45106e+07	3.46246e+07	-85.3488	0.0000000E+000	0.0000000E+000	0.0000000E+000	85.3488	0.0000000E+000	0.0000000E+000	0.0000000E+000	-85.3488	0.0000000E+000	0.0000000E+000	0.0000000E+000	-4.65121	0.0000000E+000	0.0000000E+000	0.0000000E+000	4.65121	12.2914	85.3488	0.000000000000000E+000	-5.74335e-05	1.05163e-09	-5.74345e-05	3.97766	275470	5.04399	275475
0.100469	29.0463	3.22288	29.2245	-6.33145	241.381	3.97759	-0.0144393	491522	5977.72	1	11	0.00508931	0.000174145	0	-0.00188933	-7.28316e-05	8.68287e-07	-12.4647	0.004986	0.00486847	0.00107617	-6.3325	29.2295	29.0511	3.22395	0.0340091	0.00377354	0.0342179	6.33145	5.97772e+06	5.38744e+07	5.4205e+07	-83.6685	0.0000000E+000	0.0000000E+000	0.0000000E+000	83.6685	0.0000000E+000	0.0000000E+000	0.0000000E+000	-83.6685	0.0000000E+000	0.0000000E+000	0.0000000E+000	-6.33145	0.0000000E+000	0.0000000E+000	0.0000000E+000	6.33145	9.01252	83.6685	0.000000000000000E+000	-5.74335e-05	1.05163e-09	-5.74345e-05	3.97766	275470	5.04399	275475
0.0602816	30.0032	3.84945	30.2492	-7.31117	241.383	3.97759	-0.0144393	685862	11107.3	1	11	0.00508473	0.000168095	0	-0.00188933	-7.28316e-05	1.03503e-06	-9.41974	0.00615743	0.0060744	0.00100776	-7.3116	30.2553	30.0093	3.85046	0.03279	0.00420699	0.0330588	7.31117	1.11073e+07	8.65718e+07	8.72814e+07	-82.6888	0.0000000E+000	0.0000000E+000	0.0000000E+000	82.6888	0.0000000E+000	0.0000000E+000	0.0000000E+000	-82.6888	0.0000000E+000	0.0000000E+000	0.0000000E+000	-7.31117	0.0000000E+000	0.0000000E+000	0.0000000E+000	7.31117	7.79416	82.6888	0.000000000000000E+000	-5.74335e-05	1.05163e-09	-5.74345e-05	3.97766	275470	5.04399	275475
0.0401878	31.2752	4.41707	31.5856	-8.03886	241.384	3.97759	-0.0144393	896586	17534.1	1	11	0.00508391	0.000160957	0	-0.00188933	-7.28316e-05	9.31493e-07	-29.0571	0.00578723	0.00505883	0.00281075	-8.04262	31.591	31.2802	4.41988	0.0313489	0.00442749	0.03166	8.03886	1.75341e+07	1.24151e+08	1.25383e+08	-81.9611	0.0000000E+000	0.0000000E+000	0.0000000E+000	81.9611	0.0000000E+000	0.0000000E+000	0.0000000E+000	-81.9611	0.0000000E+000	0.0000000E+000	0.0000000E+000	-8.03886	0.0000000E+000	0.0000000E+000	0.0000000E+000	8.03886	7.08053	81.9611	0.000000000000000E+000	-5.74335e-05	1.05163e-09	-5.74345e-05	3.97766	275470	5.04399	275475
0.0200939	33.555	6.48562	34.176	-10.9394	241.386	3.97759	-0.0144393	1.22125e+06	43980.9	1	11	0.00508585	0.000148813	0	-0.00188933	-7.28316e-05	1.16539e-06	-44.4628	0.00783125	0.00558921	0.00548537	-10.9467	34.1826	33.5606	6.4911	0.0287286	0.00555275	0.0292603	10.9394	4.39809e+07	2.27547e+08	2.31758e+08	-79.0606	0.0000000E+000	0.0000000E+000	0.0000000E+000	79.0606	0.0000000E+000	0.0000000E+000	0.0000000E+000	-79.0606	0.0000000E+000	0.0000000E+000	0.0000000E+000	-10.9394	0.0000000E+000	0.0000000E+000	0.0000000E+000	10.9394	5.17376	79.0606	0.000000000000000E+000	-5.74335e-05	1.05163e-09	-5.74345e-05	3.97766	275470	5.04399	275475
0.00796479	39.833	8.23149	40.6747	-11.6758	20330.3	3.97759	-0.000559324	2.42755e+06	99420.6	1	11	0.00507582	0.000124791	0	-0.0122245	0.000252038	3.99757e-07	-13.3902	0.00320342	0.00311633	0.000741852	-11.6759	40.6779	39.8362	8.23223	0.0240766	0.00497543	0.0245853	11.6758	9.94206e+07	4.81107e+08	4.91272e+08	-78.3242	0.0000000E+000	0.0000000E+000	0.0000000E+000	78.3242	0.0000000E+000	0.0000000E+000	0.0000000E+000	-78.3242	0.0000000E+000	0.0000000E+000	0.0000000E+000	-11.6758	0.0000000E+000	0.0000000E+000	0.0000000E+000	11.6758	4.83911	78.3242	-0.0103352	-2.22476e-06	-1.40971e-10	-2.22462e-06	3.97734	7.11142e+06	450.611	7.11097e+06
0.00497799	43.0428	9.00589	43.9749	-11.8176	20330.3	3.97759	-0.000559324	3.55009e+06	148896	1	11	0.00508363	0.000115603	0	-0.0122245	0.000252038	2.50445e-07	-11.3537	0.00216642	0.00212402	0.000426492	-11.8176	43.977	43.0449	9.00632	0.0222583	0.00465712	0.0227403	11.8176	1.48896e+08	7.11635e+08	7.27045e+08	-78.1824	0.0000000E+000	0.0000000E+000	0.0000000E+000	78.1824	0.0000000E+000	0.0000000E+000	0.0000000E+000	-78.1824	0.0000000E+000	0.0000000E+000	0.0000000E+000	-11.8176	0.0000000E+000	0.0000000E+000	0.0000000E+000	11.8176	4.7794	78.1824	0.000000000000000E+000	-2.22476e-06	-1.40971e-10	-2.22462e-06	3.97734	7.11142e+06	450.611	7.11097e+06
0.00318591	45.3621	10.9471	46.6643	-13.5676	20330.3	3.97759	-0.000559324	4.5634e+06	251139	1	11	0.00508689	0.00010901	0	-0.0122245	0.000252038	2.88316e-07	-27.7572	0.00264485	0.0023405	0.00123178	-13.5683	46.6669	45.3644	10.9483	0.0208316	0.00502722	0.0214297	13.5676	2.51139e+08	1.04066e+09	1.07054e+09	-76.4324	0.0000000E+000	0.0000000E+000	0.0000000E+000	76.4324	0.0000000E+000	0.0000000E+000	0.0000000E+000	-76.4324	0.0000000E+000	0.0000000E+000	0.0000000E+000	-13.5676	0.0000000E+000	0.0000000E+000	0.0000000E+000	13.5676	4.14377	76.4324	0.000000000000000E+000	-2.22476e-06	-1.40971e-10	-2.22462e-06	3.97734	7.11142e+06	450.611	7.11097e+06
0.0019912	48.0312	11.9462	49.4945	-13.967	20330.3	3.97759	-0.000559324	6.69079e+06	389782	1	11	0.00509044	0.000102849	0	-0.0122245	0.000252038	5.3667e-07	43.4721	0.00521806	0.00378679	-0.00359003	-13.962	49.4973	48.035	11.9426	0.0196069	0.00487658	0.0202043	13.967	3.89781e+08	1.56717e+09	1.61491e+09	-76.033	0.0000000E+000	0.0000000E+000	0.0000000E+000	76.033	0.0000000E+000	0.0000000E+000	0.0000000E+000	-76.033	0.0000000E+000	0.0000000E+000	0.0000000E+000	-13.967	0.0000000E+000	0.0000000E+000	0.0000000E+000	13.967	4.02063	76.033	0.000000000000000E+000	-2.22476e-06	-1.40971e-10	-2.22462e-06	3.97734	7.11142e+06	450.611	7.11097e+06
0.00129428	49.4094	12.831	51.0483	-14.5574	20330.3	3.97759	-0.000559324	9.58368e+06	605467	1	11	0.00509025	9.97143e-05	0	-0.0122245	0.000252038	7.82407e-07	-7.63634	0.00784649	0.0077769	0.00104268	-14.5564	51.0561	49.4172	12.832	0.0189604	0.00492377	0.0195893	14.5574	6.05467e+08	2.33153e+09	2.40886e+09	-75.4426	0.0000000E+000	0.0000000E+000	0.0000000E+000	75.4426	0.0000000E+000	0.0000000E+000	0.0000000E+000	-75.4426	0.0000000E+000	0.0000000E+000	0.0000000E+000	-14.5574	0.0000000E+000	0.0000000E+000	0.0000000E+000	14.5574	3.85079	75.4426	0.000000000000000E+000	-2.22476e-06	-1.40971e-10	-2.22462e-06	3.97734	7.11142e+06	450.611	7.11097e+06
0.000796479	52.3918	14.7748	54.4353	-15.7488	20330.3	3.97759	-0.000559324	1.35246e+07	996340	1	11	0.00508924	9.34915e-05	0	-0.0122245	0.000252038	1.03572e-06	-104.276	0.0110782	-0.00273186	0.0107361	-15.7604	54.4355	52.3891	14.7856	0.0176808	0.00498611	0.0183704	15.7488	9.9634e+08	3.53304e+09	3.67084e+09	-74.2512	0.0000000E+000	0.0000000E+000	0.0000000E+000	74.2512	0.0000000E+000	0.0000000E+000	0.0000000E+000	-74.2512	0.0000000E+000	0.0000000E+000	0.0000000E+000	-15.7488	0.0000000E+000	0.0000000E+000	0.0000000E+000	15.7488	3.54602	74.2512	0.000000000000000E+000	-2.22476e-06	-1.40971e-10	-2.22462e-06	3.97734	7.11142e+06	450.611	7.11097e+06
0.000497799	53.5724	18.1737	56.571	-18.7388	20330.3	3.97759	-0.000559324	1.75923e+07	1.8156e+06	1	11	0.00509358	9.00387e-05	0	-0.0122245	0.000252038	1.96197e-06	19.6674	0.0217903	0.0205191	-0.00733374	-18.7251	56.5881	53.5929	18.1663	0.0167399	0.00567878	0.0176769	18.7388	1.8156e+09	5.35203e+09	5.65161e+09	-71.2612	0.0000000E+000	0.0000000E+000	0.0000000E+000	71.2612	0.0000000E+000	0.0000000E+000	0.0000000E+000	-71.2612	0.0000000E+000	0.0000000E+000	0.0000000E+000	-18.7388	0.0000000E+000	0.0000000E+000	0.0000000E+000	18.7388	2.9478	71.2612	0.000000000000000E+000	-2.22476e-06	-1.40971e-10	-2.22462e-06	3.97734	7.11142e+06	450.611	7.11097e+06
0.000298679	53.9709	29.0534	61.2941	-28.2943	20330.3	3.97759	-0.000559324	1.83408e+07	4.12074e+06	1	11	0.00509153	8.30673e-05	0	-0.0122245	0.000252038	2.94264e-06	-101.628	0.0354248	-0.00714028	0.0346977	-28.326	61.3042	53.9638	29.0881	0.0143656	0.00773322	0.0163148	28.2943	4.12074e+09	7.65487e+09	8.69353e+09	-61.7057	0.0000000E+000	0.0000000E+000	0.0000000E+000	61.7057	0.0000000E+000	0.0000000E+000	0.0000000E+000	-61.7057	0.0000000E+000	0.0000000E+000	0.0000000E+000	-28.2943	0.0000000E+000	0.0000000E+000	0.0000000E+000	28.2943	1.85765	61.7057	0.000000000000000E+000	-2.22476e-06	-1.40971e-10	-2.22462e-06	3.97734	7.11142e+06	450.611	7.11097e+06
9.95598e-05	62.8666	86.5801	106.997	-54.0163	20330.3	3.97759	-0.000559324	1.84637e+07	1.20896e+07	1	11	0.00508869	4.75593e-05	0	-0.0122245	0.000252038	4.66252e-06	49.4909	0.0980358	0.0636811	-0.0745368	-53.9652	106.974	62.9303	86.5055	0.00549134	0.00756269	0.00934607	54.0163	1.20896e+10	8.77838e+09	1.49405e+10	-35.9837	0.0000000E+000	0.0000000E+000	0.0000000E+000	35.9837	0.0000000E+000	0.0000000E+000	0.0000000E+000	-35.9837	0.0000000E+000	0.0000000E+000	0.0000000E+000	-54.0163	0.0000000E+000	0.0000000E+000	0.0000000E+000	54.0163	0.726109	35.9837	0.000000000000000E+000	-2.22476e-06	-1.40971e-10	-2.22462e-06	3.97734	7.11142e+06	450.611	7.11097e+06