File: txt/18705_R307_UA701_SOC00_C02.mpt
EC-Lab ASCII FILE
Nb header lines : 65

Potentio Electrochemical Impedance Spectroscopy

Run on channel : 2 (SN 66139)
User :
CE vs. WE compliance from -10 V to 10 V
Electrode connection : standard
Potential control : Ewe
Ewe ctrl range : min = -10.00 V, max = 10.00 V
Safety Limits :
	Do not start on E overload
Acquisition started on : 10/28/2025 15:30:07.932
Technique started on : 10/28/2025 15:30:09.516
Loaded Setting File :  C:\Users\Celltest\OneDrive - store-dot.com\Documents\EC-Lab\Data\@Biologic Test Protocols\anode half cell EIS SOC00.mps
Saved on :
	File : 18705_R307_UA701_SOC00_C02.mpr
	Directory : C:\Users\Celltest\OneDrive - store-dot.com\Documents\EC-Lab\Data\Anna\
	Host : 169.254.61.224
Device : VMP-3e (SN .003165)
Address : USB
EC-LAB for windows v11.62 (software)
Internet server v27.00 (firmware)
Command interpretor v12.03 (firmware)
Electrode material :
Initial state :
Electrolyte :
Comments :
Electrode surface area : 0.001 cm²
Characteristic mass : 0.001 g
Equivalent Weight : 0.000 g/eq.
Density : 0.000 g/cm3
Volume (V) : 0.001 cm³
Record Ece
Cycle Definition : Charge/Discharge alternance
Mode                Single sine
E (V)               0.0000
vs.                 Eoc
tE (h:m:s)          0:00:0.0000
record              0
dI                  0.000
unit dI             mA
dt (s)              0.000
fi                  100.000
unit fi             kHz
ff                  10.000
unit ff             mHz
Nd                  6
Points              per decade
spacing             Logarithmic
Va (mV)             5.0
pw                  0.10
Na                  2
corr                0
E range min (V)     -10.000
E range max (V)     10.000
I Range             Auto
Bandwidth           5
nc cycles           0
goto Ns'            0
nr cycles           0
inc. cycle          0

freq/Hz	Re(Z)/Ohm	-Im(Z)/Ohm	|Z|/Ohm	Phase(Z)/deg	time/s	<Ewe>/V	<I>/mA	Cs/µF	Cp/µF	cycle number	I Range	|Ewe|/V	|I|/A	Ns	(Q-Qo)/mA.h	<Ece>/V	|Ece|/V	Phase(Zce)/deg	|Zce|/Ohm	Re(Zce)/Ohm	-Im(Zce)/Ohm	Phase(Zwe-ce)/deg	|Zwe-ce|/Ohm	Re(Zwe-ce)/Ohm	-Im(Zwe-ce)/Ohm	Re(Y)/Ohm-1	Im(Y)/Ohm-1	|Y|/Ohm-1	Phase(Y)/deg	Re(C)/nF	Im(C)/nF	|C|/nF	Phase(C)/deg	Re(M)	Im(M)	|M|	Phase(M)/deg	Re(Permittivity)	Im(Permittivity)	|Permittivity|	Phase(Permittivity)/deg	Re(Resistivity)/Ohm.cm	Im(Resistivity)/Ohm.cm	|Resistivity|/Ohm.cm	Phase(Resistivity)/deg	Re(Conductivity)/mS/cm	Im(Conductivity)/mS/cm	|Conductivity|/mS/cm	Phase(Conductivity)/deg	Tan(Delta)	Loss Angle(Delta)/deg	dq/mA.h	Pwe/W	Pce/W	Pwe-ce/W	<Ewe-Ece>/V	Rwe/Ohm	Rce/Ohm	Rwe-ce/Ohm		Ewe-Ece/V
100004	1.29115	0.494607	1.38264	-20.9606	1.58354	0.244339	-0.0126986	3.21769	0.41176	1	9	0.00461935	0.00334095	0	-9.33292e-06	0.000191251	2.25064e-05	64.7523	0.00673651	0.00287334	-0.00609298	-20.6823	1.38316	1.29402	0.488514	0.675393	0.258726	0.723253	20.9606	411.76	1074.88	1151.05	-69.0394	0.0000000E+000	0.0000000E+000	0.0000000E+000	69.0394	0.0000000E+000	0.0000000E+000	0.0000000E+000	-69.0394	0.0000000E+000	0.0000000E+000	0.0000000E+000	-20.9606	0.0000000E+000	0.0000000E+000	0.0000000E+000	20.9606	2.61045	69.0394	-9.33292e-06	-3.10275e-06	-2.42861e-09	-3.10032e-06	0.244147	19241.5	15.0608	19226.4
68132	1.42413	0.552043	1.52738	-21.1882	2.09055	0.244338	-0.00580806	4.23151	0.552775	1	9	0.00505078	0.00330683	0	-5.75635e-06	5.7615e-05	1.59485e-05	68.9816	0.0048229	0.00172982	-0.00450201	-21.0072	1.52737	1.42586	0.547541	0.610457	0.236635	0.654716	21.1882	552.775	1426.01	1529.4	-68.8118	0.0000000E+000	0.0000000E+000	0.0000000E+000	68.8118	0.0000000E+000	0.0000000E+000	0.0000000E+000	-68.8118	0.0000000E+000	0.0000000E+000	0.0000000E+000	-21.1882	0.0000000E+000	0.0000000E+000	0.0000000E+000	21.1882	2.57974	68.8118	3.57657e-06	-1.41913e-06	-3.34631e-10	-1.4188e-06	0.244281	42068.9	9.91984	42058.9
46420.4	1.5753	0.58601	1.68077	-20.4051	2.59755	0.244328	-0.00260491	5.85069	0.711215	1	9	0.00503453	0.00299537	0	-9.37399e-07	0.000153069	1.43471e-05	-10.8099	0.00478975	0.00470476	0.000898324	-20.378	1.68549	1.58001	0.586908	0.557632	0.207438	0.594966	20.4051	711.215	1911.88	2039.88	-69.5949	0.0000000E+000	0.0000000E+000	0.0000000E+000	69.5949	0.0000000E+000	0.0000000E+000	0.0000000E+000	-69.5949	0.0000000E+000	0.0000000E+000	0.0000000E+000	-20.4051	0.0000000E+000	0.0000000E+000	0.0000000E+000	20.4051	2.68818	69.5949	4.81895e-06	-6.36455e-07	-3.98732e-10	-6.36056e-07	0.244175	93795.2	58.7617	93736.4
31621.1	1.7219	0.640511	1.83717	-20.4041	2.98055	0.244325	-0.00942091	7.85808	0.955143	1	9	0.00546991	0.00297735	0	-1.10325e-05	5.7615e-05	1.37949e-05	10.2518	0.00463329	0.00455932	-0.000824608	-20.3306	1.84116	1.72646	0.639686	0.510162	0.189769	0.544314	20.4041	955.143	2567.74	2739.63	-69.5959	0.0000000E+000	0.0000000E+000	0.0000000E+000	69.5959	0.0000000E+000	0.0000000E+000	0.0000000E+000	-69.5959	0.0000000E+000	0.0000000E+000	0.0000000E+000	-20.4041	0.0000000E+000	0.0000000E+000	0.0000000E+000	20.4041	2.68833	69.5959	-1.00951e-05	-2.30176e-06	-5.42786e-10	-2.30122e-06	0.244267	25934.3	6.11565	25928.2
21544.7	1.87242	0.690887	1.99581	-20.2531	3.36356	0.24433	-0.0115067	10.6924	1.28129	1	9	0.0053137	0.00266243	0	-8.17516e-06	3.42479e-07	3.48921e-06	-25.9839	0.00131054	0.00117807	0.000574173	-20.2569	1.99712	1.87359	0.691461	0.47007	0.173447	0.501049	20.2531	1281.29	3472.51	3701.35	-69.7469	0.0000000E+000	0.0000000E+000	0.0000000E+000	69.7469	0.0000000E+000	0.0000000E+000	0.0000000E+000	-69.7469	0.0000000E+000	0.0000000E+000	0.0000000E+000	-20.2531	0.0000000E+000	0.0000000E+000	0.0000000E+000	20.2531	2.71016	69.7469	2.8573e-06	-2.81143e-06	-3.9408e-12	-2.81143e-06	0.24433	21233.7	0.0297635	21233.7
14678.6	2.03782	0.756323	2.17365	-20.362	3.74654	0.244324	-0.00852703	14.336	1.73566	1	9	0.00519104	0.00238817	0	-1.47148e-05	0.000229433	9.88245e-06	-80.301	0.00413808	0.000697153	0.00407894	-20.4563	2.17573	2.03852	0.760402	0.431308	0.160077	0.460056	20.362	1735.66	4676.53	4988.23	-69.638	0.0000000E+000	0.0000000E+000	0.0000000E+000	69.638	0.0000000E+000	0.0000000E+000	0.0000000E+000	-69.638	0.0000000E+000	0.0000000E+000	0.0000000E+000	-20.362	0.0000000E+000	0.0000000E+000	0.0000000E+000	20.362	2.69438	69.638	-6.5396e-06	-2.08335e-06	-1.95638e-09	-2.0814e-06	0.244094	28652.8	26.9065	28625.9
10002.2	2.20388	0.820134	2.35153	-20.4118	4.00555	0.244325	-0.00889949	19.4017	2.35997	1	9	0.00542943	0.00230889	0	-1.55745e-05	0.000286705	6.21151e-06	-105.131	0.00269026	-0.000702222	0.00259699	-20.4771	2.35178	2.20318	0.822731	0.398553	0.148314	0.425254	20.4118	2359.97	6341.75	6766.63	-69.5882	0.0000000E+000	0.0000000E+000	0.0000000E+000	69.5882	0.0000000E+000	0.0000000E+000	0.0000000E+000	-69.5882	0.0000000E+000	0.0000000E+000	0.0000000E+000	-20.4118	0.0000000E+000	0.0000000E+000	0.0000000E+000	20.4118	2.68722	69.5882	-8.59706e-07	-2.17436e-06	-2.55153e-09	-2.17181e-06	0.244038	27453.8	32.2159	27421.6
6810.42	2.38047	0.916158	2.55069	-21.0499	4.26453	0.244329	-0.00830357	25.508	3.29081	1	9	0.00537048	0.0021055	0	-1.78818e-05	-1.87484e-05	0.000137776	-23.9439	0.0654359	0.0598047	0.0265566	-21.1223	2.61604	2.44028	0.942714	0.365889	0.140817	0.392051	21.0499	3290.81	8550.58	9161.97	-68.9501	0.0000000E+000	0.0000000E+000	0.0000000E+000	68.9501	0.0000000E+000	0.0000000E+000	0.0000000E+000	-68.9501	0.0000000E+000	0.0000000E+000	0.0000000E+000	-21.0499	0.0000000E+000	0.0000000E+000	0.0000000E+000	21.0499	2.59832	68.9501	-2.30733e-06	-2.02881e-06	1.55678e-10	-2.02896e-06	0.244348	29424.6	2.25787	29426.9
4646	2.60915	1.01078	2.7981	-21.1762	4.5296	0.244304	-0.0256602	33.891	4.42253	1	9	0.0053013	0.00189461	0	-1.99703e-05	0.000248523	7.37082e-06	77.0677	0.00389042	0.000870676	-0.00379174	-21.0974	2.79754	2.61002	1.00699	0.333252	0.129101	0.357385	21.1762	4422.53	11416	12242.7	-68.8238	0.0000000E+000	0.0000000E+000	0.0000000E+000	68.8238	0.0000000E+000	0.0000000E+000	0.0000000E+000	-68.8238	0.0000000E+000	0.0000000E+000	0.0000000E+000	-21.1762	0.0000000E+000	0.0000000E+000	0.0000000E+000	21.1762	2.58133	68.8238	-2.08849e-06	-6.26889e-06	-6.37715e-09	-6.26252e-06	0.244056	9520.76	9.68518	9511.08
3163.08	2.83953	1.14962	3.06343	-22.0412	4.90365	0.244189	-0.0440596	43.7679	6.16381	1	9	0.00521336	0.00170181	0	-2.37334e-05	0.000191251	9.31278e-06	-73.5186	0.00547229	0.00155251	0.00524744	-22.1211	3.06684	2.84109	1.15487	0.302575	0.122501	0.326432	22.0412	6163.81	15224.5	16424.9	-67.9588	0.0000000E+000	0.0000000E+000	0.0000000E+000	67.9588	0.0000000E+000	0.0000000E+000	0.0000000E+000	-67.9588	0.0000000E+000	0.0000000E+000	0.0000000E+000	-22.0412	0.0000000E+000	0.0000000E+000	0.0000000E+000	22.0412	2.46998	67.9588	-3.76312e-06	-1.07589e-05	-8.42645e-09	-1.07505e-05	0.243998	5542.25	4.34073	5537.91
2155.69	3.11734	1.3024	3.37847	-22.6749	5.35481	0.24423	-0.0124006	56.6876	8.42442	1	9	0.00516252	0.00152806	0	-2.51395e-05	-5.69301e-05	7.9671e-06	-53.6282	0.00521385	0.00309193	0.00419811	-22.7203	3.38294	3.12043	1.3066	0.273114	0.114105	0.295992	22.6749	8424.42	20164.1	21853.1	-67.3251	0.0000000E+000	0.0000000E+000	0.0000000E+000	67.3251	0.0000000E+000	0.0000000E+000	0.0000000E+000	-67.3251	0.0000000E+000	0.0000000E+000	0.0000000E+000	-22.6749	0.0000000E+000	0.0000000E+000	0.0000000E+000	22.6749	2.39352	67.3251	-1.40614e-06	-3.02861e-06	7.05968e-10	-3.02931e-06	0.244287	19695	4.5909	19699.6
1468.59	3.40584	1.46148	3.70616	-23.2247	6.05103	0.244248	-0.0346182	74.1526	11.5309	1	10	0.00523253	0.00141184	0	-3.17824e-05	0.000153069	1.23444e-05	-133.691	0.00874345	-0.00603973	0.00632215	-23.3514	3.70312	3.3998	1.4678	0.247956	0.106401	0.269821	23.2247	11530.9	26871.6	29241.2	-66.7753	0.0000000E+000	0.0000000E+000	0.0000000E+000	66.7753	0.0000000E+000	0.0000000E+000	0.0000000E+000	-66.7753	0.0000000E+000	0.0000000E+000	0.0000000E+000	-23.2247	0.0000000E+000	0.0000000E+000	0.0000000E+000	23.2247	2.3304	66.7753	-6.64289e-06	-8.45541e-06	-5.29898e-09	-8.45011e-06	0.244094	7055.47	4.42164	7051.04
1000.32	3.7403	1.65721	4.09099	-23.8966	6.50179	0.244251	-0.0348976	96.0074	15.7544	1	10	0.00516255	0.00126193	0	-3.66149e-05	0.00017216	7.4401e-06	0.276691	0.0058958	0.00589573	-2.84717e-05	-23.8628	4.09637	3.7462	1.65718	0.223486	0.0990194	0.24444	23.8966	15754.4	35557.5	38891.3	-66.1034	0.0000000E+000	0.0000000E+000	0.0000000E+000	66.1034	0.0000000E+000	0.0000000E+000	0.0000000E+000	-66.1034	0.0000000E+000	0.0000000E+000	0.0000000E+000	-23.8966	0.0000000E+000	0.0000000E+000	0.0000000E+000	23.8966	2.25699	66.1034	-4.83252e-06	-8.52377e-06	-6.00797e-09	-8.51776e-06	0.244079	6999.08	4.93329	6994.15
681.09	4.12497	1.88881	4.53685	-24.6028	6.95259	0.244246	-0.0348045	123.717	21.4435	1	10	0.00511232	0.00112684	0	-3.98644e-05	-7.60209e-05	9.95899e-06	-82.0961	0.00883795	0.00121532	0.00875399	-24.6969	4.5416	4.12619	1.89756	0.200407	0.0917654	0.220417	24.6028	21443.5	46830.5	51506.4	-65.3972	0.0000000E+000	0.0000000E+000	0.0000000E+000	65.3972	0.0000000E+000	0.0000000E+000	0.0000000E+000	-65.3972	0.0000000E+000	0.0000000E+000	0.0000000E+000	-24.6028	0.0000000E+000	0.0000000E+000	0.0000000E+000	24.6028	2.1839	65.3972	-3.24943e-06	-8.50085e-06	2.64587e-09	-8.50349e-06	0.244322	7017.66	2.18423	7019.84
463.961	4.56746	2.17519	5.05897	-25.4655	7.40432	0.24425	-0.0333442	157.704	29.155	1	10	0.00508226	0.0010046	0	-4.44156e-05	0.000343978	8.36924e-06	38.2696	0.00833087	0.00654061	-0.00515983	-25.3809	5.06266	4.574	2.17003	0.178464	0.0849911	0.197669	25.4655	29155	61219.6	67807.4	-64.5345	0.0000000E+000	0.0000000E+000	0.0000000E+000	64.5345	0.0000000E+000	0.0000000E+000	0.0000000E+000	-64.5345	0.0000000E+000	0.0000000E+000	0.0000000E+000	-25.4655	0.0000000E+000	0.0000000E+000	0.0000000E+000	25.4655	2.0998	64.5345	-4.55124e-06	-8.1443e-06	-1.14697e-08	-8.13283e-06	0.243906	7325.1	10.316	7314.79
316.316	5.12073	2.48052	5.68989	-25.8459	7.852	0.244244	-0.0328599	202.841	38.5508	1	10	0.00506619	0.000890385	0	-4.76296e-05	0.000458523	3.66891e-05	-17.5734	0.0412059	0.0392828	0.0124412	-25.7866	5.73067	5.16002	2.49296	0.15817	0.0766187	0.17575	25.8459	38550.8	79583.5	88429	-64.1541	0.0000000E+000	0.0000000E+000	0.0000000E+000	64.1541	0.0000000E+000	0.0000000E+000	0.0000000E+000	-64.1541	0.0000000E+000	0.0000000E+000	0.0000000E+000	-25.8459	0.0000000E+000	0.0000000E+000	0.0000000E+000	25.8459	2.06438	64.1541	-3.21393e-06	-8.02582e-06	-1.5067e-08	-8.01075e-06	0.243785	7432.88	13.9539	7418.92
215.345	5.76229	2.82308	6.41667	-26.1013	8.30259	0.244243	-0.0326923	261.796	50.6744	1	10	0.00504421	0.00078611	0	-5.12182e-05	0.000210342	8.60111e-06	147.884	0.0109414	-0.00926708	-0.00581676	-26.091	6.40579	5.75302	2.81726	0.139951	0.068565	0.155844	26.1013	50674.4	103433	115180	-63.8987	0.0000000E+000	0.0000000E+000	0.0000000E+000	63.8987	0.0000000E+000	0.0000000E+000	0.0000000E+000	-63.8987	0.0000000E+000	0.0000000E+000	0.0000000E+000	-26.1013	0.0000000E+000	0.0000000E+000	0.0000000E+000	26.1013	2.04114	63.8987	-3.58867e-06	-7.98487e-06	-6.87655e-09	-7.97799e-06	0.244033	7470.98	6.43399	7464.55
146.737	6.58783	3.17129	7.31141	-25.7055	8.74846	0.24425	-0.0333107	342.013	64.3449	1	10	0.00506004	0.000692075	0	-5.59493e-05	-0.000133293	7.47526e-06	79.9075	0.0108012	0.00189279	-0.0106341	-25.624	7.30851	6.58973	3.16066	0.123237	0.0593246	0.136773	25.7055	64344.8	133666	148347	-64.2945	0.0000000E+000	0.0000000E+000	0.0000000E+000	64.2945	0.0000000E+000	0.0000000E+000	0.0000000E+000	-64.2945	0.0000000E+000	0.0000000E+000	0.0000000E+000	-25.7055	0.0000000E+000	0.0000000E+000	0.0000000E+000	25.7055	2.07733	64.2945	-4.73104e-06	-8.13612e-06	4.44009e-09	-8.14056e-06	0.244383	7332.48	4.00152	7336.48
100.032	7.49328	3.411	8.23311	-24.4754	9.19877	0.244262	-0.0311612	466.444	80.0634	1	10	0.00504219	0.000612428	0	-5.93946e-05	0.000153069	6.71634e-06	-39.2314	0.0109667	0.00849482	0.00693596	-24.4948	8.24372	7.50178	3.41793	0.110546	0.0503214	0.121461	24.4754	80063.4	175883	193249	-65.5246	0.0000000E+000	0.0000000E+000	0.0000000E+000	65.5246	0.0000000E+000	0.0000000E+000	0.0000000E+000	-65.5246	0.0000000E+000	0.0000000E+000	0.0000000E+000	-24.4754	0.0000000E+000	0.0000000E+000	0.0000000E+000	24.4754	2.1968	65.5246	-3.44532e-06	-7.61151e-06	-4.76982e-09	-7.60674e-06	0.244109	7838.67	4.91217	7833.75
68.104	8.53495	3.54513	9.24193	-22.5563	9.66142	0.244259	-0.029321	659.198	96.9959	1	10	0.00504201	0.000545558	0	-6.27335e-05	3.42479e-07	4.97952e-06	53.3476	0.00912739	0.00544868	-0.00732264	-22.5014	9.24416	8.5404	3.5378	0.0999253	0.0415055	0.108202	22.5563	96995.9	233519	252863	-67.4437	0.0000000E+000	0.0000000E+000	0.0000000E+000	67.4437	0.0000000E+000	0.0000000E+000	0.0000000E+000	-67.4437	0.0000000E+000	0.0000000E+000	0.0000000E+000	-22.5563	0.0000000E+000	0.0000000E+000	0.0000000E+000	22.5563	2.40752	67.4437	-3.33894e-06	-7.1619e-06	-1.00418e-11	-7.16189e-06	0.244258	8330.52	0.0116804	8330.51
46.4415	9.55006	3.49467	10.1694	-20.0992	10.0977	0.244247	-0.0334559	980.635	115.806	1	10	0.00503312	0.000494928	0	-6.6921e-05	3.85242e-05	7.616e-06	151.048	0.0153881	-0.013465	-0.00744902	-20.0858	10.1542	9.5366	3.48722	0.0923457	0.0337922	0.0983343	20.0992	115806	316468	336991	-69.9008	0.0000000E+000	0.0000000E+000	0.0000000E+000	69.9008	0.0000000E+000	0.0000000E+000	0.0000000E+000	-69.9008	0.0000000E+000	0.0000000E+000	0.0000000E+000	-20.0992	0.0000000E+000	0.0000000E+000	0.0000000E+000	20.0992	2.73275	69.9008	-4.18744e-06	-8.17151e-06	-1.28886e-09	-8.17022e-06	0.244208	7300.55	1.15149	7299.4
31.6296	10.542	3.32216	11.0531	-17.4915	10.5276	0.244248	-0.0338881	1514.63	136.83	1	10	0.0050369	0.000455701	0	-6.99215e-05	0.000305796	5.32883e-06	-131.492	0.0116937	-0.00774725	0.00875916	-17.5469	11.0483	10.5343	3.33092	0.0862892	0.0271928	0.0904725	17.4915	136830	434194	455243	-72.5085	0.0000000E+000	0.0000000E+000	0.0000000E+000	72.5085	0.0000000E+000	0.0000000E+000	0.0000000E+000	-72.5085	0.0000000E+000	0.0000000E+000	0.0000000E+000	-17.4915	0.0000000E+000	0.0000000E+000	0.0000000E+000	17.4915	3.17324	72.5085	-3.00055e-06	-8.2771e-06	-1.03628e-08	-8.26674e-06	0.243942	7207.5	9.0237	7198.47
21.5517	11.4205	3.05134	11.8211	-14.959	10.9485	0.244246	-0.0347598	2420.18	161.256	1	10	0.00504045	0.000426395	0	-7.34812e-05	-1.87484e-05	9.51409e-06	113.695	0.0223128	-0.0089667	-0.0204319	-14.8744	11.8072	11.4115	3.03091	0.0817278	0.0218362	0.0845947	14.959	161256	603543	624714	-75.041	0.0000000E+000	0.0000000E+000	0.0000000E+000	75.041	0.0000000E+000	0.0000000E+000	0.0000000E+000	-75.041	0.0000000E+000	0.0000000E+000	0.0000000E+000	-14.959	0.0000000E+000	0.0000000E+000	0.0000000E+000	14.959	3.74277	75.041	-3.55967e-06	-8.48994e-06	6.51689e-10	-8.4906e-06	0.244265	7026.69	0.53937	7027.23
14.6852	12.1321	2.74459	12.4387	-12.7472	11.4082	0.244253	-0.0290565	3948.79	192.253	1	10	0.00503552	0.000404829	0	-7.52745e-05	0.000114888	2.96189e-06	44.6747	0.00731641	0.00520278	-0.00514403	-12.7188	12.4426	12.1373	2.73945	0.078413	0.0177391	0.0803945	12.7472	192253	849826	871301	-77.2528	0.0000000E+000	0.0000000E+000	0.0000000E+000	77.2528	0.0000000E+000	0.0000000E+000	0.0000000E+000	-77.2528	0.0000000E+000	0.0000000E+000	0.0000000E+000	-12.7472	0.0000000E+000	0.0000000E+000	0.0000000E+000	12.7472	4.42036	77.2528	-1.79332e-06	-7.09714e-06	-3.33823e-09	-7.0938e-06	0.244138	8406.16	3.95394	8402.2
10.0032	12.7891	2.45774	13.0231	-10.8782	12.1038	0.244279	-0.019955	6473.58	230.564	1	11	0.00504055	0.000387048	0	-8.09106e-05	-3.78392e-05	8.91397e-06	-56.8404	0.0230307	0.0125972	0.0192801	-10.951	13.0391	12.8017	2.47702	0.075407	0.0144914	0.0767868	10.8782	230564	1.19976e+06	1.22171e+06	-79.1218	0.0000000E+000	0.0000000E+000	0.0000000E+000	79.1218	0.0000000E+000	0.0000000E+000	0.0000000E+000	-79.1218	0.0000000E+000	0.0000000E+000	0.0000000E+000	-10.8782	0.0000000E+000	0.0000000E+000	0.0000000E+000	10.8782	5.20357	79.1218	-5.63607e-06	-4.87459e-06	7.55081e-10	-4.87534e-06	0.244317	12241.5	1.89623	12243.4
6.81719	13.3367	2.20888	13.5184	-9.4042	12.4435	0.244289	-0.0190542	10569.2	282.188	1	11	0.00503602	0.000372531	0	-8.59862e-05	0.000229433	6.52418e-06	95.9521	0.0175131	-0.00181605	-0.0174187	-9.3326	13.5137	13.3349	2.19146	0.0729792	0.0120871	0.0739734	9.4042	282188	1.70378e+06	1.72699e+06	-80.5958	0.0000000E+000	0.0000000E+000	0.0000000E+000	80.5958	0.0000000E+000	0.0000000E+000	0.0000000E+000	-80.5958	0.0000000E+000	0.0000000E+000	0.0000000E+000	-9.4042	0.0000000E+000	0.0000000E+000	0.0000000E+000	9.4042	6.03776	80.5958	-5.07559e-06	-4.65473e-06	-4.37165e-09	-4.65036e-06	0.24406	12820.8	12.0411	12808.7
4.63925	13.823	1.9386	13.9583	-7.98332	12.9275	0.24429	-0.0194009	17696.4	341.345	1	11	0.0050355	0.000360753	0	-8.85456e-05	0.000363069	6.86549e-06	-63.5139	0.019031	0.00848745	0.0170336	-8.04767	13.9691	13.8315	1.95563	0.0709476	0.00994997	0.0716419	7.98332	341345	2.43394e+06	2.45776e+06	-82.0167	0.0000000E+000	0.0000000E+000	0.0000000E+000	82.0167	0.0000000E+000	0.0000000E+000	0.0000000E+000	-82.0167	0.0000000E+000	0.0000000E+000	0.0000000E+000	-7.98332	0.0000000E+000	0.0000000E+000	0.0000000E+000	7.98332	7.13043	82.0167	-2.55943e-06	-4.73946e-06	-7.04387e-09	-4.73241e-06	0.243927	12591.7	18.714	12573
3.1604	14.2323	1.71106	14.3348	-6.8554	13.6204	0.244283	-0.0190814	29431.6	419.334	1	11	0.0050401	0.000351599	0	-8.73268e-05	0.000210342	6.12407e-06	60.0927	0.0174178	0.00868446	-0.0150983	-6.79137	14.3416	14.241	1.69596	0.0692615	0.00832686	0.0697603	6.8554	419334	3.48795e+06	3.51307e+06	-83.1446	0.0000000E+000	0.0000000E+000	0.0000000E+000	83.1446	0.0000000E+000	0.0000000E+000	0.0000000E+000	-83.1446	0.0000000E+000	0.0000000E+000	0.0000000E+000	-6.8554	0.0000000E+000	0.0000000E+000	0.0000000E+000	6.8554	8.31784	83.1446	1.21883e-06	-4.66127e-06	-4.01362e-09	-4.65726e-06	0.244073	12802.2	11.0234	12791.2
2.15577	14.5818	1.50203	14.6589	-5.88116	14.624	0.244292	-0.0175523	49151.7	516.052	1	11	0.00503698	0.000343611	0	-8.89909e-05	0.000305796	5.90876e-06	41.6894	0.017196	0.0128413	-0.0114369	-5.83159	14.6705	14.5946	1.4906	0.0678587	0.00698997	0.0682178	5.88116	516052	5.00984e+06	5.03635e+06	-84.1188	0.0000000E+000	0.0000000E+000	0.0000000E+000	84.1188	0.0000000E+000	0.0000000E+000	0.0000000E+000	-84.1188	0.0000000E+000	0.0000000E+000	0.0000000E+000	-5.88116	0.0000000E+000	0.0000000E+000	0.0000000E+000	5.88116	9.70802	84.1188	-1.66416e-06	-4.28789e-06	-5.36743e-09	-4.28253e-06	0.243986	13917.9	17.422	13900.5
1.46631	14.8607	1.33687	14.9207	-5.14049	16.0855	0.244294	-0.0158706	81190.6	651.785	1	11	0.00503486	0.000337441	0	-9.89407e-05	-0.000228748	4.01689e-06	28.9581	0.011904	0.0104157	-0.00576355	-5.11488	14.9306	14.8711	1.33111	0.0667514	0.00600496	0.0670209	5.14049	651785	7.24527e+06	7.27453e+06	-84.8595	0.0000000E+000	0.0000000E+000	0.0000000E+000	84.8595	0.0000000E+000	0.0000000E+000	0.0000000E+000	-84.8595	0.0000000E+000	0.0000000E+000	0.0000000E+000	-5.14049	0.0000000E+000	0.0000000E+000	0.0000000E+000	5.14049	11.116	84.8595	-9.94982e-06	-3.87709e-06	3.63036e-09	-3.88072e-06	0.244523	15392.9	14.4133	15407.3
1.00006	15.0873	1.22543	15.137	-4.64352	18.214	0.244291	-0.0147069	129869	851.143	1	11	0.00503598	0.000332694	0	-0.000118156	0.000305796	3.02313e-06	-31.8342	0.00908681	0.00771996	0.00479295	-4.65923	15.1451	15.095	1.23022	0.0658466	0.00534823	0.0660634	4.64352	851144	1.04791e+07	1.05136e+07	-85.3565	0.0000000E+000	0.0000000E+000	0.0000000E+000	85.3565	0.0000000E+000	0.0000000E+000	0.0000000E+000	-85.3565	0.0000000E+000	0.0000000E+000	0.0000000E+000	-4.64352	0.0000000E+000	0.0000000E+000	0.0000000E+000	4.64352	12.3118	85.3565	-1.92148e-05	-3.59278e-06	-4.49732e-09	-3.58828e-06	0.243986	16610.6	20.7926	16589.8
0.681362	15.2893	1.1646	15.3336	-4.35586	21.3261	0.244293	-0.013991	200570	1156.99	1	11	0.00503694	0.00032849	0	-0.000143563	0.000133978	3.57726e-06	-57.1888	0.01089	0.00590099	0.00915263	-4.38827	15.3402	15.2952	1.17375	0.0650278	0.00495323	0.0652162	4.35586	1.15699e+06	1.51894e+07	1.52334e+07	-85.6441	0.0000000E+000	0.0000000E+000	0.0000000E+000	85.6441	0.0000000E+000	0.0000000E+000	0.0000000E+000	-85.6441	0.0000000E+000	0.0000000E+000	0.0000000E+000	-4.35586	0.0000000E+000	0.0000000E+000	0.0000000E+000	4.35586	13.1284	85.6441	-2.54073e-05	-3.41791e-06	-1.87449e-09	-3.41604e-06	0.244159	17460.7	9.57603	17451.1
0.464091	15.476	1.19526	15.5221	-4.41637	25.8828	0.244287	-0.0148171	286916	1701.3	1	11	0.00503716	0.000324515	0	-0.000169385	0.000114888	2.3046e-06	-11.6714	0.00710165	0.00695482	0.00143666	-4.41968	15.5291	15.483	1.1967	0.064233	0.00496093	0.0644243	4.41637	1.7013e+06	2.2028e+07	2.20936e+07	-85.5836	0.0000000E+000	0.0000000E+000	0.0000000E+000	85.5836	0.0000000E+000	0.0000000E+000	0.0000000E+000	-85.5836	0.0000000E+000	0.0000000E+000	0.0000000E+000	-4.41637	0.0000000E+000	0.0000000E+000	0.0000000E+000	4.41637	12.9478	85.5836	-2.58223e-05	-3.61963e-06	-1.7023e-09	-3.61793e-06	0.244172	16486.8	7.75371	16479.1
0.316193	15.6424	1.35	15.7006	-4.93262	32.5578	0.244289	-0.0149398	372850	2756.58	1	11	0.00503917	0.000320955	0	-0.000186233	0.000191251	2.44374e-06	-1.69571	0.00761398	0.00761065	0.000225309	-4.93105	15.7082	15.65	1.35022	0.0634561	0.0054765	0.063692	4.93262	2.75658e+06	3.19405e+07	3.20592e+07	-85.0674	0.0000000E+000	0.0000000E+000	0.0000000E+000	85.0674	0.0000000E+000	0.0000000E+000	0.0000000E+000	-85.0674	0.0000000E+000	0.0000000E+000	0.0000000E+000	-4.93262	0.0000000E+000	0.0000000E+000	0.0000000E+000	4.93262	11.587	85.0674	-1.68474e-05	-3.64963e-06	-2.85725e-09	-3.64677e-06	0.244098	16351.6	12.8015	16338.8
0.215268	15.7987	1.59798	15.8793	-5.77561	42.3512	0.244285	-0.0137719	462668	4685.42	1	11	0.00503936	0.000317353	0	-0.00018729	3.42479e-07	2.94104e-06	22.4614	0.0092674	0.00856435	-0.00354072	-5.7598	15.8875	15.8073	1.59444	0.0626553	0.00633735	0.062975	5.77561	4.68542e+06	4.63232e+07	4.65596e+07	-84.2244	0.0000000E+000	0.0000000E+000	0.0000000E+000	84.2244	0.0000000E+000	0.0000000E+000	0.0000000E+000	-84.2244	0.0000000E+000	0.0000000E+000	0.0000000E+000	-5.77561	0.0000000E+000	0.0000000E+000	0.0000000E+000	5.77561	9.88667	84.2244	-1.05723e-06	-3.36428e-06	-4.7166e-12	-3.36428e-06	0.244285	17737.9	0.0248679	17737.9
0.146929	16.0196	1.95829	16.1388	-6.96947	63.5517	0.244284	-0.0108473	553140	8144.15	1	12	0.00503806	0.00031217	0	-0.000195312	-5.69301e-05	1.65016e-06	-62.2092	0.0052861	0.00246462	0.00467638	-6.98488	16.1419	16.0221	1.96297	0.0615044	0.00751853	0.0619623	6.96947	8.14416e+06	6.66223e+07	6.71182e+07	-83.0305	0.0000000E+000	0.0000000E+000	0.0000000E+000	83.0305	0.0000000E+000	0.0000000E+000	0.0000000E+000	-83.0305	0.0000000E+000	0.0000000E+000	0.0000000E+000	-6.96947	0.0000000E+000	0.0000000E+000	0.0000000E+000	6.96947	8.18038	83.0305	-8.0219e-06	-2.64982e-06	6.17538e-10	-2.65044e-06	0.24434	22520.2	5.24831	22525.4
0.0999041	16.3759	2.47122	16.5613	-8.5815	84.6278	0.244285	-0.00818333	644653	14353.5	1	12	0.00503719	0.000304154	0	-0.00019424	0.000114888	1.58365e-06	87.5158	0.00520674	0.00022568	-0.00520185	-8.56359	16.5608	16.3761	2.46601	0.0597057	0.00900992	0.0603817	8.5815	1.43535e+07	9.51158e+07	9.61927e+07	-81.4185	0.0000000E+000	0.0000000E+000	0.0000000E+000	81.4185	0.0000000E+000	0.0000000E+000	0.0000000E+000	-81.4185	0.0000000E+000	0.0000000E+000	0.0000000E+000	-8.5815	0.0000000E+000	0.0000000E+000	0.0000000E+000	8.5815	6.62666	81.4185	1.07162e-06	-1.99906e-06	-9.40163e-10	-1.99812e-06	0.24417	29851.5	14.0392	29837.4
0.0680626	16.7962	3.25492	17.1086	-10.9674	115.554	0.244272	-0.0068267	718409	26002.8	1	12	0.00504038	0.00029461	0	-0.000248526	0.000210342	3.44297e-06	-39.8162	0.0116865	0.00897645	0.0074832	-10.9862	17.1189	16.8051	3.2624	0.0573825	0.0111201	0.05845	10.9674	2.60028e+07	1.34181e+08	1.36677e+08	-79.0326	0.0000000E+000	0.0000000E+000	0.0000000E+000	79.0326	0.0000000E+000	0.0000000E+000	0.0000000E+000	-79.0326	0.0000000E+000	0.0000000E+000	0.0000000E+000	-10.9674	0.0000000E+000	0.0000000E+000	0.0000000E+000	10.9674	5.16024	79.0326	-5.4286e-05	-1.66757e-06	-1.43594e-09	-1.66614e-06	0.244062	35781.9	30.8116	35751.1
0.0464052	17.2416	4.24841	17.7573	-13.8422	160.906	0.244277	-0.00665024	807286	46209.1	1	12	0.00504014	0.000283836	0	-0.000439803	7.67059e-05	3.53179e-06	-15.7581	0.0124431	0.0119754	0.00337924	-13.8436	17.7697	17.2535	4.25179	0.0546795	0.0134733	0.056315	13.8422	4.62091e+07	1.87533e+08	1.93142e+08	-76.1578	0.0000000E+000	0.0000000E+000	0.0000000E+000	76.1578	0.0000000E+000	0.0000000E+000	0.0000000E+000	-76.1578	0.0000000E+000	0.0000000E+000	0.0000000E+000	-13.8422	0.0000000E+000	0.0000000E+000	0.0000000E+000	13.8422	4.05836	76.1578	-0.000191277	-1.6245e-06	-5.10112e-10	-1.62399e-06	0.244201	36732.1	11.5343	36720.6
0.0315922	17.8405	5.45749	18.6565	-17.0092	227.511	0.24428	-0.00758287	923097	78989.9	1	12	0.00503942	0.000270116	0	-0.000822304	0.000153069	3.48761e-06	20.2294	0.0129115	0.0121151	-0.00446454	-16.9852	18.6668	17.8526	5.45302	0.051256	0.0156795	0.0536006	17.0092	7.89899e+07	2.58217e+08	2.70028e+08	-72.9909	0.0000000E+000	0.0000000E+000	0.0000000E+000	72.9909	0.0000000E+000	0.0000000E+000	0.0000000E+000	-72.9909	0.0000000E+000	0.0000000E+000	0.0000000E+000	-17.0092	0.0000000E+000	0.0000000E+000	0.0000000E+000	17.0092	3.26899	72.9909	-0.000382501	-1.85235e-06	-1.1607e-09	-1.85119e-06	0.244127	32214.8	20.1862	32194.6
0.0215268	18.7964	7.14305	20.1079	-20.8079	325.25	0.244271	-0.00888104	1.03504e+06	130615	1	12	0.00503869	0.000250583	0	-0.00135922	-5.69301e-05	2.1753e-06	-7.88965	0.00868093	0.00859876	0.00119159	-20.8024	20.1163	18.805	7.14424	0.0464881	0.0176666	0.0497318	20.8079	1.30615e+08	3.43703e+08	3.67684e+08	-69.1921	0.0000000E+000	0.0000000E+000	0.0000000E+000	69.1921	0.0000000E+000	0.0000000E+000	0.0000000E+000	-69.1921	0.0000000E+000	0.0000000E+000	0.0000000E+000	-20.8079	0.0000000E+000	0.0000000E+000	0.0000000E+000	20.8079	2.63142	69.1921	-0.000536914	-2.16938e-06	5.05598e-10	-2.16988e-06	0.244328	27504.8	6.41029	27511.2
0.0146812	20.0223	9.63129	22.2184	-25.6888	468.552	0.244268	-0.00978656	1.12558e+06	211504	1	12	0.00504048	0.000226861	0	-0.00188186	0.000114888	1.99628e-06	-3.85783	0.0087996	0.00877966	0.000592046	-25.6804	22.2265	20.0311	9.63188	0.0405593	0.0195101	0.0450078	25.6888	2.11504e+08	4.39693e+08	4.87918e+08	-64.3112	0.0000000E+000	0.0000000E+000	0.0000000E+000	64.3112	0.0000000E+000	0.0000000E+000	0.0000000E+000	-64.3112	0.0000000E+000	0.0000000E+000	0.0000000E+000	-25.6888	0.0000000E+000	0.0000000E+000	0.0000000E+000	25.6888	2.07889	64.3112	-0.000522643	-2.39054e-06	-1.12435e-09	-2.38942e-06	0.244153	24959.5	11.7393	24947.8
0.0100092	21.4305	12.8188	24.9717	-30.886	678.734	0.244266	-0.010196	1.24044e+06	326867	1	12	0.00503782	0.000201741	0	-0.00220067	0.000210342	1.49922e-06	10.5079	0.00743141	0.00730678	-0.00135528	-30.8747	24.9773	21.4378	12.8174	0.0343665	0.0205565	0.0400453	30.886	3.26867e+08	5.46459e+08	6.36757e+08	-59.114	0.0000000E+000	0.0000000E+000	0.0000000E+000	59.114	0.0000000E+000	0.0000000E+000	0.0000000E+000	-59.114	0.0000000E+000	0.0000000E+000	0.0000000E+000	-30.886	0.0000000E+000	0.0000000E+000	0.0000000E+000	30.886	1.67181	59.114	-0.000318806	-2.49054e-06	-2.14465e-09	-2.4884e-06	0.244056	23957	20.6298	23936.4