File: txt/18706_R307_UA701_SOC00_C03.mpt
EC-Lab ASCII FILE
Nb header lines : 65

Potentio Electrochemical Impedance Spectroscopy

Run on channel : 3 (SN 65921)
User :
CE vs. WE compliance from -10 V to 10 V
Electrode connection : standard
Potential control : Ewe
Ewe ctrl range : min = -10.00 V, max = 10.00 V
Safety Limits :
	Do not start on E overload
Acquisition started on : 10/28/2025 15:30:18.375
Technique started on : 10/28/2025 15:30:20.244
Loaded Setting File :  C:\Users\Celltest\OneDrive - store-dot.com\Documents\EC-Lab\Data\@Biologic Test Protocols\anode half cell EIS SOC00.mps
Saved on :
	File : 18706_R307_UA701_SOC00_C03.mpr
	Directory : C:\Users\Celltest\OneDrive - store-dot.com\Documents\EC-Lab\Data\Anna\
	Host : 169.254.61.224
Device : VMP-3e (SN .003165)
Address : USB
EC-LAB for windows v11.62 (software)
Internet server v27.00 (firmware)
Command interpretor v12.03 (firmware)
Electrode material :
Initial state :
Electrolyte :
Comments :
Electrode surface area : 0.001 cm²
Characteristic mass : 0.001 g
Equivalent Weight : 0.000 g/eq.
Density : 0.000 g/cm3
Volume (V) : 0.001 cm³
Record Ece
Cycle Definition : Charge/Discharge alternance
Mode                Single sine
E (V)               0.0000
vs.                 Eoc
tE (h:m:s)          0:00:0.0000
record              0
dI                  0.000
unit dI             mA
dt (s)              0.000
fi                  100.000
unit fi             kHz
ff                  10.000
unit ff             mHz
Nd                  6
Points              per decade
spacing             Logarithmic
Va (mV)             5.0
pw                  0.10
Na                  2
corr                0
E range min (V)     -10.000
E range max (V)     10.000
I Range             Auto
Bandwidth           5
nc cycles           0
goto Ns'            0
nr cycles           0
inc. cycle          0

freq/Hz	Re(Z)/Ohm	-Im(Z)/Ohm	|Z|/Ohm	Phase(Z)/deg	time/s	<Ewe>/V	<I>/mA	Cs/µF	Cp/µF	cycle number	I Range	|Ewe|/V	|I|/A	Ns	(Q-Qo)/mA.h	<Ece>/V	|Ece|/V	Phase(Zce)/deg	|Zce|/Ohm	Re(Zce)/Ohm	-Im(Zce)/Ohm	Phase(Zwe-ce)/deg	|Zwe-ce|/Ohm	Re(Zwe-ce)/Ohm	-Im(Zwe-ce)/Ohm	Re(Y)/Ohm-1	Im(Y)/Ohm-1	|Y|/Ohm-1	Phase(Y)/deg	Re(C)/nF	Im(C)/nF	|C|/nF	Phase(C)/deg	Re(M)	Im(M)	|M|	Phase(M)/deg	Re(Permittivity)	Im(Permittivity)	|Permittivity|	Phase(Permittivity)/deg	Re(Resistivity)/Ohm.cm	Im(Resistivity)/Ohm.cm	|Resistivity|/Ohm.cm	Phase(Resistivity)/deg	Re(Conductivity)/mS/cm	Im(Conductivity)/mS/cm	|Conductivity|/mS/cm	Phase(Conductivity)/deg	Tan(Delta)	Loss Angle(Delta)/deg	dq/mA.h	Pwe/W	Pce/W	Pwe-ce/W	<Ewe-Ece>/V	Rwe/Ohm	Rce/Ohm	Rwe-ce/Ohm		Ewe-Ece/V
100004	1.25211	0.491858	1.34525	-21.4461	1.86854	0.243877	0.00372296	3.23567	0.432551	1	9	0.00493341	0.00366728	0	-1.9022e-05	0.000110426	3.59868e-05	75.0383	0.00981294	0.00253345	-0.00948026	-21.0305	1.34418	1.25464	0.482378	0.691887	0.27179	0.743356	21.4461	432.551	1101.13	1183.04	-68.5539	0.0000000E+000	0.0000000E+000	0.0000000E+000	68.5539	0.0000000E+000	0.0000000E+000	0.0000000E+000	-68.5539	0.0000000E+000	0.0000000E+000	0.0000000E+000	-21.4461	0.0000000E+000	0.0000000E+000	0.0000000E+000	21.4461	2.54567	68.5539	-1.9022e-05	9.07946e-07	4.1111e-10	9.07534e-07	0.243767	65506.3	29.6607	65476.7
68132	1.39045	0.528419	1.48747	-20.8085	2.37556	0.243866	0.00390944	4.42069	0.557891	1	9	0.00505864	0.00340083	0	-5.09457e-06	1.49552e-05	3.32846e-05	63.5398	0.00978721	0.00436094	-0.00876194	-20.4336	1.48847	1.39481	0.519657	0.62843	0.238825	0.672281	20.8085	557.891	1468	1570.43	-69.1915	0.0000000E+000	0.0000000E+000	0.0000000E+000	69.1915	0.0000000E+000	0.0000000E+000	0.0000000E+000	-69.1915	0.0000000E+000	0.0000000E+000	0.0000000E+000	-20.8085	0.0000000E+000	0.0000000E+000	0.0000000E+000	20.8085	2.63134	69.1915	1.39274e-05	9.5338e-07	5.84667e-11	9.53322e-07	0.243851	62378.8	3.82542	62374.9
46420.4	1.52205	0.554754	1.61999	-20.0258	2.88454	0.243866	0.0142025	6.18032	0.724747	1	9	0.00503584	0.00310856	0	-8.05846e-07	-9.96091e-05	1.99591e-05	49.7878	0.0064207	0.00414534	-0.00490322	-19.8129	1.62222	1.52619	0.549851	0.579965	0.211385	0.617287	20.0258	724.747	1988.44	2116.41	-69.9742	0.0000000E+000	0.0000000E+000	0.0000000E+000	69.9742	0.0000000E+000	0.0000000E+000	0.0000000E+000	-69.9742	0.0000000E+000	0.0000000E+000	0.0000000E+000	-20.0258	0.0000000E+000	0.0000000E+000	0.0000000E+000	20.0258	2.74364	69.9742	4.28873e-06	3.46351e-06	-1.4147e-09	3.46492e-06	0.243966	17170.7	7.01351	17177.7
31621.1	1.65635	0.592804	1.75923	-19.6922	3.26754	0.243866	-0.000976015	8.49047	0.964067	1	9	0.00537159	0.00305337	0	-8.05677e-06	-0.000156891	1.88847e-05	54.189	0.00618487	0.00361885	-0.00501563	-19.4989	1.76096	1.65996	0.587788	0.535186	0.191542	0.56843	19.6922	964.067	2693.69	2861.01	-70.3078	0.0000000E+000	0.0000000E+000	0.0000000E+000	70.3078	0.0000000E+000	0.0000000E+000	0.0000000E+000	-70.3078	0.0000000E+000	0.0000000E+000	0.0000000E+000	-19.6922	0.0000000E+000	0.0000000E+000	0.0000000E+000	19.6922	2.79409	70.3078	-7.25093e-06	-2.38017e-07	1.53128e-10	-2.3817e-07	0.244023	249859	160.747	250020
21544.7	1.79673	0.630291	1.90407	-19.3308	3.65254	0.243862	0.00514013	11.7203	1.28426	1	9	0.0053887	0.00283009	0	-1.58891e-05	-0.000347832	5.81914e-06	-105.743	0.00205617	-0.000557875	0.00197904	-19.3926	1.9042	1.79617	0.63227	0.495581	0.173849	0.52519	19.3308	1284.26	3660.96	3879.68	-70.6692	0.0000000E+000	0.0000000E+000	0.0000000E+000	70.6692	0.0000000E+000	0.0000000E+000	0.0000000E+000	-70.6692	0.0000000E+000	0.0000000E+000	0.0000000E+000	-19.3308	0.0000000E+000	0.0000000E+000	0.0000000E+000	19.3308	2.85063	70.6692	-7.83231e-06	1.25348e-06	-1.7879e-09	1.25527e-06	0.24421	47442.9	67.6699	47510.5
14678.6	1.93881	0.68174	2.05517	-19.3731	4.03756	0.243865	0.00655727	15.9044	1.75008	1	9	0.0051918	0.00252621	0	-1.65159e-05	-0.00048149	9.4375e-06	-11.4996	0.00373583	0.00366084	0.00074478	-19.3589	2.05887	1.94247	0.682485	0.459026	0.161407	0.486577	19.3731	1750.08	4977.06	5275.79	-70.6269	0.0000000E+000	0.0000000E+000	0.0000000E+000	70.6269	0.0000000E+000	0.0000000E+000	0.0000000E+000	-70.6269	0.0000000E+000	0.0000000E+000	0.0000000E+000	-19.3731	0.0000000E+000	0.0000000E+000	0.0000000E+000	19.3731	2.84391	70.6269	-6.26799e-07	1.59909e-06	-3.15726e-09	1.60224e-06	0.244346	37190	73.4285	37263.4
10002.2	2.08771	0.744242	2.2164	-19.6205	4.42056	0.243865	0.0122632	21.3801	2.4107	1	9	0.00508299	0.00229336	0	-1.68167e-05	-0.000175985	2.56244e-05	38.0168	0.0111733	0.00880267	-0.00688155	-19.3772	2.2224	2.09651	0.73736	0.424986	0.151502	0.451183	19.6205	2410.7	6762.36	7179.2	-70.3795	0.0000000E+000	0.0000000E+000	0.0000000E+000	70.3795	0.0000000E+000	0.0000000E+000	0.0000000E+000	-70.3795	0.0000000E+000	0.0000000E+000	0.0000000E+000	-19.6205	0.0000000E+000	0.0000000E+000	0.0000000E+000	19.6205	2.80514	70.3795	-3.00778e-07	2.99055e-06	-2.15814e-09	2.99271e-06	0.244041	19885.9	14.3507	19900.3
6810.42	2.28173	0.844269	2.43292	-20.3051	4.67952	0.243862	0.0068556	27.6799	3.33328	1	9	0.0052283	0.00214898	0	-1.58916e-05	-4.23269e-05	0.000124821	-34.077	0.0580836	0.0481098	0.0325447	-20.6234	2.48937	2.32984	0.876814	0.385487	0.142635	0.411029	20.3051	3333.28	9008.57	9605.47	-69.6949	0.0000000E+000	0.0000000E+000	0.0000000E+000	69.6949	0.0000000E+000	0.0000000E+000	0.0000000E+000	-69.6949	0.0000000E+000	0.0000000E+000	0.0000000E+000	-20.3051	0.0000000E+000	0.0000000E+000	0.0000000E+000	20.3051	2.70261	69.6949	9.25024e-07	1.67182e-06	-2.90177e-10	1.67211e-06	0.243904	35571.2	6.17407	35577.4
4646	2.44156	0.923825	2.61049	-20.7254	4.9446	0.243839	-0.00116253	37.081	4.64393	1	9	0.00512104	0.00196171	0	-1.50685e-05	0.000110426	3.51971e-06	-51.72	0.0017942	0.00111152	0.00140843	-20.7457	2.61203	2.44267	0.925234	0.35828	0.135564	0.38307	20.7254	4643.93	12273.4	13122.6	-69.2746	0.0000000E+000	0.0000000E+000	0.0000000E+000	69.2746	0.0000000E+000	0.0000000E+000	0.0000000E+000	-69.2746	0.0000000E+000	0.0000000E+000	0.0000000E+000	-20.7254	0.0000000E+000	0.0000000E+000	0.0000000E+000	20.7254	2.64288	69.2746	8.23091e-07	-2.83469e-07	-1.28373e-10	-2.8334e-07	0.243728	209749	94.9877	209654
3163.08	2.67097	1.04909	2.86961	-21.4436	5.31967	0.243718	-0.0436026	47.962	6.41026	1	9	0.00504933	0.00175958	0	-1.90388e-05	-0.000309644	5.53629e-06	45.9259	0.00314637	0.00218857	-0.00226048	-21.3857	2.87083	2.67316	1.04683	0.324356	0.127399	0.348479	21.4436	6410.26	16320.5	17534.2	-68.5564	0.0000000E+000	0.0000000E+000	0.0000000E+000	68.5564	0.0000000E+000	0.0000000E+000	0.0000000E+000	-68.5564	0.0000000E+000	0.0000000E+000	0.0000000E+000	-21.4436	0.0000000E+000	0.0000000E+000	0.0000000E+000	21.4436	2.54599	68.5564	-3.97021e-06	-1.06267e-05	1.35013e-08	-1.06402e-05	0.244027	5589.52	7.1015	5596.62
2155.69	2.90656	1.18746	3.13977	-22.2223	5.77077	0.243778	0.0055876	62.1746	8.89322	1	9	0.00497626	0.00158491	0	-1.67721e-05	0.000148614	6.60806e-06	-77.8259	0.00416935	0.000879248	0.00407559	-22.285	3.14213	2.90744	1.19154	0.294838	0.120455	0.318495	22.2223	8893.22	21767.9	23514.5	-67.7777	0.0000000E+000	0.0000000E+000	0.0000000E+000	67.7777	0.0000000E+000	0.0000000E+000	0.0000000E+000	-67.7777	0.0000000E+000	0.0000000E+000	0.0000000E+000	-22.2223	0.0000000E+000	0.0000000E+000	0.0000000E+000	22.2223	2.4477	67.7777	2.26661e-06	1.36213e-06	8.30393e-10	1.3613e-06	0.243629	43628.4	26.5971	43601.8
1468.59	3.16001	1.34454	3.43416	-23.049	6.46811	0.2438	-0.035507	80.6021	12.3552	1	10	0.00505184	0.00147105	0	-1.98746e-05	-9.96091e-05	1.40317e-05	2.51508	0.00953853	0.00952934	-0.000418573	-22.9805	3.44277	3.16954	1.34412	0.267946	0.114007	0.291192	23.049	12355.2	29038	31557.2	-66.951	0.0000000E+000	0.0000000E+000	0.0000000E+000	66.951	0.0000000E+000	0.0000000E+000	0.0000000E+000	-66.951	0.0000000E+000	0.0000000E+000	0.0000000E+000	-23.049	0.0000000E+000	0.0000000E+000	0.0000000E+000	23.049	2.35026	66.951	-3.10245e-06	-8.65661e-06	3.53682e-09	-8.66014e-06	0.243899	6866.24	2.80534	6869.04
1000.32	3.4591	1.54557	3.78869	-24.0757	6.91881	0.243797	-0.0368345	102.942	17.1314	1	10	0.00498354	0.00131537	0	-2.34142e-05	0.000282272	9.39874e-06	1.84356	0.0071453	0.0071416	-0.000229869	-24.0285	3.79512	3.46624	1.54534	0.240982	0.107674	0.263943	24.0757	17131.4	38341.3	41994.5	-65.9243	0.0000000E+000	0.0000000E+000	0.0000000E+000	65.9243	0.0000000E+000	0.0000000E+000	0.0000000E+000	-65.9243	0.0000000E+000	0.0000000E+000	0.0000000E+000	-24.0757	0.0000000E+000	0.0000000E+000	0.0000000E+000	24.0757	2.23807	65.9243	-3.53959e-06	-8.98014e-06	-1.03974e-08	-8.96975e-06	0.243515	6618.71	7.66325	6611.05
681.09	3.80741	1.77923	4.20262	-25.047	7.36857	0.24381	-0.0355704	131.336	23.54	1	10	0.00492958	0.00117298	0	-2.86252e-05	-0.000271456	4.78889e-06	-11.4063	0.00408268	0.00400204	0.00080741	-25.0339	4.20658	3.81141	1.78003	0.215571	0.100738	0.237947	25.047	23540	50373.9	55602.7	-64.953	0.0000000E+000	0.0000000E+000	0.0000000E+000	64.953	0.0000000E+000	0.0000000E+000	0.0000000E+000	-64.953	0.0000000E+000	0.0000000E+000	0.0000000E+000	-25.047	0.0000000E+000	0.0000000E+000	0.0000000E+000	25.047	2.13992	64.953	-5.211e-06	-8.67244e-06	9.6558e-09	-8.6821e-06	0.244082	6854.3	7.6315	6861.93
463.961	4.2261	2.0661	4.70411	-26.0536	7.82036	0.243797	-0.0347016	166.03	32.0284	1	10	0.00489835	0.00104129	0	-3.32826e-05	9.13315e-05	1.30318e-05	-83.6572	0.0125151	0.00138263	0.0124384	-26.1821	4.71083	4.22748	2.07854	0.190978	0.0933676	0.21258	26.0536	32028.4	65512.3	72922.4	-63.9464	0.0000000E+000	0.0000000E+000	0.0000000E+000	63.9464	0.0000000E+000	0.0000000E+000	0.0000000E+000	-63.9464	0.0000000E+000	0.0000000E+000	0.0000000E+000	-26.0536	0.0000000E+000	0.0000000E+000	0.0000000E+000	26.0536	2.04545	63.9464	-4.65743e-06	-8.46016e-06	-3.16935e-09	-8.45699e-06	0.243706	7025.54	2.63191	7022.9
316.316	4.73687	2.40561	5.31272	-26.9237	8.26804	0.243807	-0.0341199	209.157	42.8837	1	10	0.00487066	0.000916793	0	-3.672e-05	9.13315e-05	1.2041e-05	79.3395	0.0131339	0.00242963	-0.0129072	-26.7876	5.30905	4.7393	2.39271	0.167826	0.08523	0.188228	26.9237	42883.7	84441.9	94707.1	-63.0763	0.0000000E+000	0.0000000E+000	0.0000000E+000	63.0763	0.0000000E+000	0.0000000E+000	0.0000000E+000	-63.0763	0.0000000E+000	0.0000000E+000	0.0000000E+000	-26.9237	0.0000000E+000	0.0000000E+000	0.0000000E+000	26.9237	1.96909	63.0763	-3.43734e-06	-8.31868e-06	-3.11622e-09	-8.31557e-06	0.243716	7145.61	2.67678	7142.93
215.345	5.37898	2.75842	6.04502	-27.1494	8.71853	0.243802	-0.0339596	267.933	55.7893	1	10	0.00485865	0.000803743	0	-4.00256e-05	0.000110426	7.76691e-06	-4.33651	0.00966342	0.00963576	0.000730691	-27.114	6.05393	5.38861	2.75915	0.147199	0.0754857	0.165425	27.1494	55789.3	108790	122261	-62.8506	0.0000000E+000	0.0000000E+000	0.0000000E+000	62.8506	0.0000000E+000	0.0000000E+000	0.0000000E+000	-62.8506	0.0000000E+000	0.0000000E+000	0.0000000E+000	-27.1494	0.0000000E+000	0.0000000E+000	0.0000000E+000	27.1494	1.95002	62.8506	-3.3056e-06	-8.27941e-06	-3.75e-09	-8.27566e-06	0.243692	7179.19	3.25168	7175.94
146.737	6.1665	3.10527	6.90424	-26.7285	9.16454	0.243798	-0.0345711	349.285	70.6557	1	10	0.00484973	0.000702428	0	-4.44622e-05	-0.000252362	7.53511e-06	-90.9894	0.0107272	-0.000185229	0.0107256	-26.8086	6.9089	6.16632	3.11599	0.129362	0.065143	0.144839	26.7285	70655.7	140310	157095	-63.2715	0.0000000E+000	0.0000000E+000	0.0000000E+000	63.2715	0.0000000E+000	0.0000000E+000	0.0000000E+000	-63.2715	0.0000000E+000	0.0000000E+000	0.0000000E+000	-26.7285	0.0000000E+000	0.0000000E+000	0.0000000E+000	26.7285	1.98582	63.2715	-4.43661e-06	-8.42836e-06	8.72442e-09	-8.43708e-06	0.24405	7052.07	7.29979	7059.37
100.032	7.09948	3.36552	7.8568	-25.3634	9.6158	0.243801	-0.0327216	472.747	86.7445	1	10	0.00484519	0.000616687	0	-4.8383e-05	-6.1421e-05	8.6503e-06	-69.1388	0.0140271	0.00499512	0.0131075	-25.4341	7.86694	7.10448	3.37863	0.11501	0.0545206	0.127278	25.3634	86744.5	182985	202505	-64.6366	0.0000000E+000	0.0000000E+000	0.0000000E+000	64.6366	0.0000000E+000	0.0000000E+000	0.0000000E+000	-64.6366	0.0000000E+000	0.0000000E+000	0.0000000E+000	-25.3634	0.0000000E+000	0.0000000E+000	0.0000000E+000	25.3634	2.10947	64.6366	-3.92086e-06	-7.97755e-06	2.00979e-09	-7.97956e-06	0.243862	7450.77	1.87708	7452.65
68.104	8.13514	3.49779	8.85522	-23.2658	10.0785	0.243817	-0.0304842	668.119	104.242	1	10	0.00485558	0.000548329	0	-5.20896e-05	-4.13882e-06	7.13688e-06	-4.11632	0.0130157	0.0129821	0.000934285	-23.2382	8.86752	8.14812	3.49873	0.103745	0.0446061	0.112928	23.2658	104242	242445	263905	-66.7342	0.0000000E+000	0.0000000E+000	0.0000000E+000	66.7342	0.0000000E+000	0.0000000E+000	0.0000000E+000	-66.7342	0.0000000E+000	0.0000000E+000	0.0000000E+000	-23.2658	0.0000000E+000	0.0000000E+000	0.0000000E+000	23.2658	2.32579	66.7342	-3.70657e-06	-7.43258e-06	1.26169e-10	-7.4327e-06	0.243821	7998.13	0.135769	7998.27
46.4415	9.14167	3.4543	9.77253	-20.6997	10.5156	0.24379	-0.0336128	992.096	123.954	1	10	0.0048438	0.000495654	0	-5.64875e-05	-8.05151e-05	8.33178e-06	1.82666	0.0168097	0.0168011	-0.00053582	-20.662	9.78806	9.15847	3.45376	0.095722	0.0361698	0.102328	20.6997	123954	328039	350676	-69.3003	0.0000000E+000	0.0000000E+000	0.0000000E+000	69.3003	0.0000000E+000	0.0000000E+000	0.0000000E+000	-69.3003	0.0000000E+000	0.0000000E+000	0.0000000E+000	-20.6997	0.0000000E+000	0.0000000E+000	0.0000000E+000	20.6997	2.64646	69.3003	-4.39792e-06	-8.19446e-06	2.70634e-09	-8.19717e-06	0.243871	7252.9	2.39537	7255.29
31.6296	10.0953	3.27207	10.6124	-17.9584	10.9456	0.243789	-0.0346718	1537.81	146.193	1	10	0.00483931	0.000456007	0	-5.95298e-05	7.22374e-05	6.21188e-06	-60.3762	0.0136224	0.00673357	0.0118418	-18.008	10.6224	10.1021	3.28392	0.0896389	0.0290535	0.0942297	17.9584	146193	451049	474149	-72.0416	0.0000000E+000	0.0000000E+000	0.0000000E+000	72.0416	0.0000000E+000	0.0000000E+000	0.0000000E+000	-72.0416	0.0000000E+000	0.0000000E+000	0.0000000E+000	-17.9584	0.0000000E+000	0.0000000E+000	0.0000000E+000	17.9584	3.0853	72.0416	-3.04222e-06	-8.4526e-06	-2.5046e-09	-8.4501e-06	0.243717	7031.34	2.08346	7029.26
21.5517	10.9337	3.00294	11.3385	-15.3577	11.3664	0.243784	-0.0363088	2459.19	172.493	1	10	0.0048435	0.000427171	0	-6.34081e-05	-0.000309644	8.32819e-06	44.2475	0.0194961	0.0139657	-0.0136036	-15.2728	11.3484	10.9476	2.98934	0.0850454	0.0233578	0.0881948	15.3577	172493	628043	651300	-74.6423	0.0000000E+000	0.0000000E+000	0.0000000E+000	74.6423	0.0000000E+000	0.0000000E+000	0.0000000E+000	-74.6423	0.0000000E+000	0.0000000E+000	0.0000000E+000	-15.3577	0.0000000E+000	0.0000000E+000	0.0000000E+000	15.3577	3.64098	74.6423	-3.8784e-06	-8.85151e-06	1.12428e-08	-8.86275e-06	0.244094	6714.2	8.52807	6722.73
14.6852	11.6852	2.7078	11.9949	-13.0468	11.8262	0.243804	-0.0297907	4002.45	203.97	1	10	0.00484669	0.000404063	0	-6.55457e-05	-4.13882e-06	5.24031e-06	81.9558	0.012969	0.00181486	-0.0128414	-12.985	11.9937	11.6871	2.69495	0.0812169	0.0188202	0.083369	13.0468	203970	880214	903537	-76.9532	0.0000000E+000	0.0000000E+000	0.0000000E+000	76.9532	0.0000000E+000	0.0000000E+000	0.0000000E+000	-76.9532	0.0000000E+000	0.0000000E+000	0.0000000E+000	-13.0468	0.0000000E+000	0.0000000E+000	0.0000000E+000	13.0468	4.31541	76.9532	-2.13756e-06	-7.26309e-06	1.23298e-10	-7.26321e-06	0.243808	8183.9	0.13893	8184.04
10.0032	12.2913	2.43397	12.53	-11.201	12.5218	0.243837	-0.024311	6536.82	246.656	1	11	0.00483994	0.000386268	0	-7.14414e-05	-9.96091e-05	5.95843e-06	56.7687	0.0154256	0.00845356	-0.012903	-11.1356	12.5358	12.2998	2.42106	0.0782882	0.0155028	0.0798084	11.201	246656	1.2456e+06	1.26978e+06	-78.799	0.0000000E+000	0.0000000E+000	0.0000000E+000	78.799	0.0000000E+000	0.0000000E+000	0.0000000E+000	-78.799	0.0000000E+000	0.0000000E+000	0.0000000E+000	-11.201	0.0000000E+000	0.0000000E+000	0.0000000E+000	11.201	5.04992	78.799	-5.89571e-06	-5.92792e-06	2.4216e-09	-5.93034e-06	0.243936	10029.9	4.09728	10034
6.81719	12.8664	2.17615	13.0492	-9.59982	12.8615	0.243823	-0.0241921	10728.2	298.359	1	11	0.00484646	0.0003714	0	-7.67184e-05	-8.05151e-05	9.38961e-06	-64.4444	0.0252817	0.0109062	0.0228083	-9.69048	13.0637	12.8773	2.19896	0.0755601	0.0127798	0.0766333	9.59982	298359	1.76404e+06	1.78909e+06	-80.4002	0.0000000E+000	0.0000000E+000	0.0000000E+000	80.4002	0.0000000E+000	0.0000000E+000	0.0000000E+000	-80.4002	0.0000000E+000	0.0000000E+000	0.0000000E+000	-9.59982	0.0000000E+000	0.0000000E+000	0.0000000E+000	9.59982	5.91247	80.4002	-5.27697e-06	-5.89859e-06	1.94783e-09	-5.90054e-06	0.243904	10078.6	3.32816	10082
4.63925	13.3527	1.9163	13.4895	-8.16703	13.3454	0.243828	-0.0235436	17902.2	361.283	1	11	0.00484784	0.00035938	0	-8.06388e-05	-4.23269e-05	6.85373e-06	61.3276	0.019071	0.00915028	-0.0167325	-8.0912	13.4962	13.3618	1.89957	0.0733801	0.0105311	0.0741319	8.16703	361283	2.51739e+06	2.54318e+06	-81.833	0.0000000E+000	0.0000000E+000	0.0000000E+000	81.833	0.0000000E+000	0.0000000E+000	0.0000000E+000	-81.833	0.0000000E+000	0.0000000E+000	0.0000000E+000	-8.16703	0.0000000E+000	0.0000000E+000	0.0000000E+000	8.16703	6.96792	81.833	-3.9204e-06	-5.74058e-06	9.96529e-10	-5.74157e-06	0.24387	10356.4	1.79781	10358.2
3.1604	13.7346	1.71556	13.8413	-7.11981	14.0385	0.243831	-0.023557	29354.4	450.951	1	11	0.00484302	0.000349896	0	-8.05128e-05	5.31434e-05	5.26795e-06	60.1916	0.0150558	0.00748424	-0.0130638	-7.06234	13.8471	13.7421	1.70249	0.0716904	0.0089547	0.0722475	7.11981	450951	3.61027e+06	3.63833e+06	-82.8802	0.0000000E+000	0.0000000E+000	0.0000000E+000	82.8802	0.0000000E+000	0.0000000E+000	0.0000000E+000	-82.8802	0.0000000E+000	0.0000000E+000	0.0000000E+000	-7.11981	0.0000000E+000	0.0000000E+000	0.0000000E+000	7.11981	8.00591	82.8802	1.2598e-07	-5.74393e-06	-1.2519e-09	-5.74268e-06	0.243778	10350.7	2.25595	10348.4
2.15577	14.0876	1.49792	14.167	-6.06942	15.0422	0.243831	-0.022172	49286.6	551.003	1	11	0.00484409	0.000341929	0	-8.24516e-05	-0.000309644	1.83589e-06	-50.7699	0.00536923	0.0033957	0.00415908	-6.08469	14.1708	14.0909	1.50208	0.0701911	0.00746338	0.0705868	6.06942	551003	5.18203e+06	5.21124e+06	-83.9306	0.0000000E+000	0.0000000E+000	0.0000000E+000	83.9306	0.0000000E+000	0.0000000E+000	0.0000000E+000	-83.9306	0.0000000E+000	0.0000000E+000	0.0000000E+000	-6.06942	0.0000000E+000	0.0000000E+000	0.0000000E+000	6.06942	9.40473	83.9306	-1.93879e-06	-5.40622e-06	6.86541e-09	-5.41308e-06	0.244141	10997.3	13.9656	11011.2
1.46631	14.3687	1.3213	14.4293	-5.25396	16.5023	0.243827	-0.020391	82147.4	688.817	1	11	0.00484302	0.000335638	0	-9.26679e-05	3.40493e-05	3.38709e-06	-0.26908	0.0100915	0.0100914	4.7393e-05	-5.25048	14.4394	14.3788	1.32134	0.0690122	0.00634614	0.0693034	5.25396	688816	7.49067e+06	7.52227e+06	-84.746	0.0000000E+000	0.0000000E+000	0.0000000E+000	84.746	0.0000000E+000	0.0000000E+000	0.0000000E+000	-84.746	0.0000000E+000	0.0000000E+000	0.0000000E+000	-5.25396	0.0000000E+000	0.0000000E+000	0.0000000E+000	5.25396	10.8747	84.746	-1.02163e-05	-4.97188e-06	-6.943e-10	-4.97119e-06	0.243793	11957.6	1.66982	11955.9
1.00006	14.5968	1.20575	14.6465	-4.72213	18.6298	0.24383	-0.0185668	131988	894.505	1	11	0.00484327	0.000330678	0	-0.00011333	9.13315e-05	3.71235e-06	-29.8989	0.0112265	0.00973232	0.00559607	-4.7408	14.6566	14.6065	1.21134	0.0680441	0.0056207	0.0682758	4.72213	894505	1.08289e+07	1.08657e+07	-85.2779	0.0000000E+000	0.0000000E+000	0.0000000E+000	85.2779	0.0000000E+000	0.0000000E+000	0.0000000E+000	-85.2779	0.0000000E+000	0.0000000E+000	0.0000000E+000	-4.72213	0.0000000E+000	0.0000000E+000	0.0000000E+000	4.72213	12.106	85.2779	-2.0662e-05	-4.52715e-06	-1.69573e-09	-4.52545e-06	0.243739	13132.6	4.91908	13127.7
0.681362	14.7941	1.13764	14.8377	-4.3973	21.742	0.243839	-0.0170633	205323	1207.01	1	11	0.00484371	0.000326445	0	-0.000142593	-0.000252362	2.53118e-06	19.0808	0.00775377	0.00732777	-0.00253471	-4.38538	14.8449	14.8014	1.13511	0.0671973	0.00516737	0.0673957	4.3973	1.20701e+06	1.56962e+07	1.57425e+07	-85.6027	0.0000000E+000	0.0000000E+000	0.0000000E+000	85.6027	0.0000000E+000	0.0000000E+000	0.0000000E+000	-85.6027	0.0000000E+000	0.0000000E+000	0.0000000E+000	-4.3973	0.0000000E+000	0.0000000E+000	0.0000000E+000	4.3973	13.0042	85.6027	-2.92629e-05	-4.16069e-06	4.30612e-09	-4.165e-06	0.244092	14290.3	14.7898	14305.1
0.464091	14.9786	1.16962	15.0242	-4.46494	26.2985	0.243834	-0.0174311	293205	1776.96	1	11	0.00484565	0.000322522	0	-0.000175814	-0.000271456	3.3901e-06	15.552	0.0105112	0.0101264	-0.00281819	-4.45123	15.0341	14.9888	1.1668	0.0663572	0.00518157	0.0665592	4.46494	1.77696e+06	2.27565e+07	2.28258e+07	-85.5351	0.0000000E+000	0.0000000E+000	0.0000000E+000	85.5351	0.0000000E+000	0.0000000E+000	0.0000000E+000	-85.5351	0.0000000E+000	0.0000000E+000	0.0000000E+000	-4.46494	0.0000000E+000	0.0000000E+000	0.0000000E+000	4.46494	12.8064	85.5351	-3.32212e-05	-4.2503e-06	4.73178e-09	-4.25503e-06	0.244106	13988.4	15.5731	14004
0.316193	15.1479	1.31522	15.2049	-4.96229	32.973	0.243831	-0.0173791	382708	2863.52	1	11	0.00484533	0.000318669	0	-0.000203612	-0.000137797	2.42078e-06	19.1965	0.00759654	0.00717415	-0.00249781	-4.95058	15.2118	15.1551	1.31273	0.0655218	0.00568896	0.0657683	4.96229	2.86352e+06	3.29802e+07	3.31043e+07	-85.0377	0.0000000E+000	0.0000000E+000	0.0000000E+000	85.0377	0.0000000E+000	0.0000000E+000	0.0000000E+000	-85.0377	0.0000000E+000	0.0000000E+000	0.0000000E+000	-4.96229	0.0000000E+000	0.0000000E+000	0.0000000E+000	4.96229	11.5174	85.0377	-2.77977e-05	-4.23757e-06	2.3948e-09	-4.23996e-06	0.243969	14030.1	7.92889	14038
0.215268	15.2978	1.56136	15.3773	-5.82769	42.7665	0.243828	-0.0162385	473519	4881.87	1	11	0.00484324	0.000314961	0	-0.00021687	-0.000405114	2.46614e-06	-28.4474	0.00782997	0.00688454	0.00372981	-5.8389	15.3845	15.3047	1.56509	0.064695	0.00660306	0.0650311	5.82769	4.88187e+06	4.78313e+07	4.80797e+07	-84.1723	0.0000000E+000	0.0000000E+000	0.0000000E+000	84.1723	0.0000000E+000	0.0000000E+000	0.0000000E+000	-84.1723	0.0000000E+000	0.0000000E+000	0.0000000E+000	-5.82769	0.0000000E+000	0.0000000E+000	0.0000000E+000	5.82769	9.79772	84.1723	-1.32589e-05	-3.95939e-06	6.57843e-09	-3.96596e-06	0.244233	15015.4	24.9478	15040.4
0.146929	15.4902	1.90757	15.6073	-7.02043	57.1048	0.24383	-0.0134548	567849	8482.83	1	11	0.00484456	0.000310404	0	-0.000212957	-0.000424208	2.49305e-06	-7.91424	0.00803162	0.00795512	0.00110588	-7.02089	15.6153	15.4982	1.90868	0.0635924	0.00783118	0.0640728	7.02043	8.48282e+06	6.8884e+07	6.94043e+07	-82.9796	0.0000000E+000	0.0000000E+000	0.0000000E+000	82.9796	0.0000000E+000	0.0000000E+000	0.0000000E+000	-82.9796	0.0000000E+000	0.0000000E+000	0.0000000E+000	-7.02043	0.0000000E+000	0.0000000E+000	0.0000000E+000	7.02043	8.12041	82.9796	3.91315e-06	-3.28068e-06	5.70763e-09	-3.28639e-06	0.244254	18122.2	31.5284	18153.7
0.0999041	15.8025	2.39926	15.9836	-8.6332	78.1807	0.243831	-0.0102134	663986	14961.3	1	11	0.00484468	0.000303104	0	-0.000208031	-0.000271456	2.16205e-06	26.8737	0.00713304	0.0063627	-0.00322432	-8.61836	15.9894	15.8088	2.39604	0.0618554	0.00939142	0.0625643	8.6332	1.49613e+07	9.85405e+07	9.96698e+07	-81.3668	0.0000000E+000	0.0000000E+000	0.0000000E+000	81.3668	0.0000000E+000	0.0000000E+000	0.0000000E+000	-81.3668	0.0000000E+000	0.0000000E+000	0.0000000E+000	-8.6332	0.0000000E+000	0.0000000E+000	0.0000000E+000	8.6332	6.58637	81.3668	4.92657e-06	-2.49035e-06	2.77249e-09	-2.49312e-06	0.244103	23873.7	26.5784	23900.3
0.0680626	16.1703	3.14109	16.4726	-10.9928	123.875	0.24383	-0.00878416	744442	27068.8	1	12	0.00484405	0.000294068	0	-0.000278051	5.31434e-05	1.50128e-06	12.425	0.00510523	0.00498566	-0.00109844	-10.9858	16.4772	16.1753	3.13999	0.0595931	0.011576	0.060707	10.9928	2.70688e+07	1.3935e+08	1.41955e+08	-79.0072	0.0000000E+000	0.0000000E+000	0.0000000E+000	79.0072	0.0000000E+000	0.0000000E+000	0.0000000E+000	-79.0072	0.0000000E+000	0.0000000E+000	0.0000000E+000	-10.9928	0.0000000E+000	0.0000000E+000	0.0000000E+000	10.9928	5.14799	79.0072	-7.00198e-05	-2.14185e-06	-4.6682e-10	-2.14138e-06	0.243777	27757.9	6.04991	27751.9
0.0464052	16.6782	4.16117	17.1895	-14.0092	169.225	0.243835	-0.00715728	824210	48299.7	1	12	0.00484524	0.000281873	0	-0.000441807	-0.000424208	1.84224e-06	-11.531	0.00653573	0.00640382	0.00130648	-14.0082	17.196	16.6846	4.16248	0.0564449	0.0140829	0.0581752	14.0092	4.82997e+07	1.93588e+08	1.99522e+08	-75.9908	0.0000000E+000	0.0000000E+000	0.0000000E+000	75.9908	0.0000000E+000	0.0000000E+000	0.0000000E+000	-75.9908	0.0000000E+000	0.0000000E+000	0.0000000E+000	-14.0092	0.0000000E+000	0.0000000E+000	0.0000000E+000	14.0092	4.00805	75.9908	-0.000163756	-1.7452e-06	3.03618e-09	-1.74823e-06	0.244259	34068.1	59.2695	34127.4
0.0315922	17.2161	5.38533	18.0387	-17.3701	235.829	0.24383	-0.0078358	935465	83376.3	1	12	0.00484411	0.00026854	0	-0.00080915	0.000110426	2.02368e-06	28.4148	0.00753585	0.00662797	-0.00358595	-17.353	18.0439	17.2227	5.38175	0.0529083	0.0165502	0.0554364	17.3701	8.33763e+07	2.66541e+08	2.79277e+08	-72.6299	0.0000000E+000	0.0000000E+000	0.0000000E+000	72.6299	0.0000000E+000	0.0000000E+000	0.0000000E+000	-72.6299	0.0000000E+000	0.0000000E+000	0.0000000E+000	-17.3701	0.0000000E+000	0.0000000E+000	0.0000000E+000	17.3701	3.19684	72.6299	-0.000367343	-1.91061e-06	-8.65273e-10	-1.90974e-06	0.24372	31117.5	14.0924	31103.4
0.0215268	18.106	7.01481	19.4173	-21.1779	333.567	0.243829	-0.00892392	1.05396e+06	137555	1	12	0.00484613	0.000249577	0	-0.00137794	-0.000214174	1.56255e-06	-27.5198	0.00626079	0.00555239	0.00289283	-21.18	19.4236	18.1115	7.01771	0.0480222	0.0186053	0.0515004	21.1779	1.37555e+08	3.55045e+08	3.8076e+08	-68.8221	0.0000000E+000	0.0000000E+000	0.0000000E+000	68.8221	0.0000000E+000	0.0000000E+000	0.0000000E+000	-68.8221	0.0000000E+000	0.0000000E+000	0.0000000E+000	-21.1779	0.0000000E+000	0.0000000E+000	0.0000000E+000	21.1779	2.5811	68.8221	-0.000568795	-2.17591e-06	1.91127e-09	-2.17782e-06	0.244043	27323.1	23.9999	27347.1
0.0146812	19.3473	9.41715	21.5175	-25.9541	476.869	0.243833	-0.00982528	1.15117e+06	220494	1	12	0.00484549	0.000225189	0	-0.00200174	-0.000156891	2.88653e-06	12.9811	0.0128183	0.0124907	-0.00287937	-25.9327	21.5274	19.3598	9.41427	0.0417867	0.0203394	0.0464739	25.9541	2.20494e+08	4.53e+08	5.03812e+08	-64.0459	0.0000000E+000	0.0000000E+000	0.0000000E+000	64.0459	0.0000000E+000	0.0000000E+000	0.0000000E+000	-64.0459	0.0000000E+000	0.0000000E+000	0.0000000E+000	-25.9541	0.0000000E+000	0.0000000E+000	0.0000000E+000	25.9541	2.05448	64.0459	-0.000623796	-2.39573e-06	1.5415e-09	-2.39727e-06	0.24399	24816.9	15.9681	24832.9
0.0100092	20.7639	12.6201	24.2983	-31.2908	687.05	0.243828	-0.0105788	1.25997e+06	339886	1	12	0.00484786	0.000199515	0	-0.00247586	-4.13882e-06	3.40338e-06	-3.88668	0.0170583	0.0170191	0.00115627	-31.2723	24.3134	20.7809	12.6212	0.0351689	0.0213753	0.0411552	31.2908	3.39886e+08	5.59217e+08	6.54406e+08	-58.7092	0.0000000E+000	0.0000000E+000	0.0000000E+000	58.7092	0.0000000E+000	0.0000000E+000	0.0000000E+000	-58.7092	0.0000000E+000	0.0000000E+000	0.0000000E+000	-31.2908	0.0000000E+000	0.0000000E+000	0.0000000E+000	31.2908	1.64531	58.7092	-0.000474115	-2.57942e-06	4.37839e-11	-2.57946e-06	0.243832	23048.7	0.391235	23049.1