File: txt/18700_R307_UC91_26p5_SOC50_C02.mpt
EC-Lab ASCII FILE
Nb header lines : 65

Potentio Electrochemical Impedance Spectroscopy

Run on channel : 2 (SN 66139)
User :
CE vs. WE compliance from -10 V to 10 V
Electrode connection : standard
Potential control : Ewe
Ewe ctrl range : min = -10.00 V, max = 10.00 V
Safety Limits :
	Do not start on E overload
Acquisition started on : 10/30/2025 15:43:03.841
Technique started on : 10/30/2025 15:43:06.076
Loaded Setting File :  C:\Users\Celltest\OneDrive - store-dot.com\Documents\EC-Lab\Data\@Biologic Test Protocols\cathode half cell EIS SOC50.mps
Saved on :
	File : 18700_R307_UC91_26p5_SOC50_C02.mpr
	Directory : C:\Users\Celltest\OneDrive - store-dot.com\Documents\EC-Lab\Data\Anna\
	Host : 169.254.61.224
Device : VMP-3e (SN .003165)
Address : USB
EC-LAB for windows v11.62 (software)
Internet server v27.00 (firmware)
Command interpretor v12.03 (firmware)
Electrode material :
Initial state :
Electrolyte :
Comments :
Electrode surface area : 0.001 cm²
Characteristic mass : 0.001 g
Equivalent Weight : 0.000 g/eq.
Density : 0.000 g/cm3
Volume (V) : 0.001 cm³
Record Ece
Cycle Definition : Charge/Discharge alternance
Mode                Multi sine
E (V)               0.0000
vs.                 Eoc
tE (h:m:s)          0:00:0.0000
record              0
dI                  0.000
unit dI             mA
dt (s)              0.000
fi                  1.000
unit fi             MHz
ff                  0.100
unit ff             mHz
Nd                  10
Points              per decade
spacing             Logarithmic
Va (mV)             5.0
pw                  0.10
Na                  2
corr                0
E range min (V)     -10.000
E range max (V)     10.000
I Range             Auto
Bandwidth           5
nc cycles           0
goto Ns'            0
nr cycles           0
inc. cycle          0

freq/Hz	Re(Z)/Ohm	-Im(Z)/Ohm	|Z|/Ohm	Phase(Z)/deg	time/s	<Ewe>/V	<I>/mA	Cs/µF	Cp/µF	cycle number	I Range	|Ewe|/V	|I|/A	Ns	(Q-Qo)/mA.h	<Ece>/V	|Ece|/V	Phase(Zce)/deg	|Zce|/Ohm	Re(Zce)/Ohm	-Im(Zce)/Ohm	Phase(Zwe-ce)/deg	|Zwe-ce|/Ohm	Re(Zwe-ce)/Ohm	-Im(Zwe-ce)/Ohm	Re(Y)/Ohm-1	Im(Y)/Ohm-1	|Y|/Ohm-1	Phase(Y)/deg	Re(C)/nF	Im(C)/nF	|C|/nF	Phase(C)/deg	Re(M)	Im(M)	|M|	Phase(M)/deg	Re(Permittivity)	Im(Permittivity)	|Permittivity|	Phase(Permittivity)/deg	Re(Resistivity)/Ohm.cm	Im(Resistivity)/Ohm.cm	|Resistivity|/Ohm.cm	Phase(Resistivity)/deg	Re(Conductivity)/mS/cm	Im(Conductivity)/mS/cm	|Conductivity|/mS/cm	Phase(Conductivity)/deg	Tan(Delta)	Loss Angle(Delta)/deg	dq/mA.h	Pwe/W	Pce/W	Pwe-ce/W	<Ewe-Ece>/V	Rwe/Ohm	Rce/Ohm	Rwe-ce/Ohm		Ewe-Ece/V
1.00002e+06	2.37349	2.87032	3.72454	-50.4123	2.23455	3.97197	-0.030893	0.0554475	0.0329304	1	10	0.000227336	6.10375e-05	0	-1.33162e-05	-0.000152384	0.000180363	-68.1508	2.95495	1.09973	2.74269	-58.2515	6.60069	3.47322	5.613	0.171097	0.206912	0.26849	50.4123	32.9304	27.2305	42.7306	-39.5877	0.0000000E+000	0.0000000E+000	0.0000000E+000	39.5877	0.0000000E+000	0.0000000E+000	0.0000000E+000	-39.5877	0.0000000E+000	0.0000000E+000	0.0000000E+000	-50.4123	0.0000000E+000	0.0000000E+000	0.0000000E+000	50.4123	0.82691	39.5877	-1.33162e-05	-0.000122706	4.70761e-09	-0.000122711	3.97212	128572	4.93265	128577
630957	1.12252	-0.123369	1.12928	6.2718	3.40552	3.9719	-0.0238352	-2.04463	-0.0244017	1	9	0.000318198	0.00028177	0	-1.93378e-05	1.94333e-05	0.00010788	-99.6398	0.382865	-0.064112	0.377459	-13.4994	1.08848	1.05841	0.254091	0.880217	-0.0967385	0.885517	-6.2718	-24.4017	222.029	223.366	-96.2718	0.0000000E+000	0.0000000E+000	0.0000000E+000	96.2718	0.0000000E+000	0.0000000E+000	0.0000000E+000	-96.2718	0.0000000E+000	0.0000000E+000	0.0000000E+000	6.2718	0.0000000E+000	0.0000000E+000	0.0000000E+000	-6.2718	9.09894	83.7282	-2.25709e-06	-9.46707e-05	-4.63196e-10	-9.46703e-05	3.97188	166640	0.815322	166639
398103	1.39961	0.221476	1.41703	-8.99199	4.17157	3.97203	-0.0135925	1.80508	0.0440957	1	9	0.00120717	0.000851902	0	-2.18605e-05	-5.69301e-05	4.51517e-05	169.539	0.0530011	-0.0521202	-0.00962278	-8.93494	1.36404	1.34749	0.211853	0.697031	0.110299	0.705704	8.99199	44.0957	278.661	282.128	-81.008	0.0000000E+000	0.0000000E+000	0.0000000E+000	81.008	0.0000000E+000	0.0000000E+000	0.0000000E+000	-81.008	0.0000000E+000	0.0000000E+000	0.0000000E+000	-8.99199	0.0000000E+000	0.0000000E+000	0.0000000E+000	8.99199	6.31947	81.008	-1.61279e-06	-5.39899e-05	7.73823e-10	-5.39907e-05	3.97209	292222	4.18834	292226
251206	1.53825	0.524339	1.62516	-18.8225	4.93756	3.97197	-0.013518	1.20831	0.125779	1	9	0.00380507	0.00234134	0	-2.33997e-05	3.42479e-07	3.01948e-05	79.8691	0.0128964	0.00226843	-0.0126953	-18.3725	1.62327	1.54052	0.511644	0.582416	0.198526	0.615322	18.8225	125.779	368.997	389.845	-71.1775	0.0000000E+000	0.0000000E+000	0.0000000E+000	71.1775	0.0000000E+000	0.0000000E+000	0.0000000E+000	-71.1775	0.0000000E+000	0.0000000E+000	0.0000000E+000	-18.8225	0.0000000E+000	0.0000000E+000	0.0000000E+000	18.8225	2.9337	71.1775	-1.07757e-06	-5.3693e-05	-4.62963e-12	-5.3693e-05	3.97197	293829	0.0253351	293829
158486	1.6976	0.782006	1.86906	-24.7334	5.70552	3.97187	-0.0120654	1.28416	0.224799	1	9	0.00537875	0.00287779	0	-3.77884e-05	0.00017216	2.93189e-05	91.5013	0.010188	-0.000266919	-0.0101845	-24.4526	1.86458	1.69733	0.771822	0.485948	0.223854	0.535029	24.7334	224.799	487.999	537.287	-65.2666	0.0000000E+000	0.0000000E+000	0.0000000E+000	65.2666	0.0000000E+000	0.0000000E+000	0.0000000E+000	-65.2666	0.0000000E+000	0.0000000E+000	0.0000000E+000	-24.7334	0.0000000E+000	0.0000000E+000	0.0000000E+000	24.7334	2.17082	65.2666	-9.2077e-06	-4.79222e-05	-2.07718e-09	-4.79201e-05	3.9717	329196	14.2689	329182
100004	1.94748	1.05444	2.21461	-28.4328	6.47153	3.97185	-0.0130338	1.50932	0.342161	1	9	0.00541652	0.00244581	0	-2.80612e-05	-0.000133293	2.30046e-05	49.4227	0.00940573	0.00611818	-0.00714392	-28.1951	2.21661	1.9536	1.0473	0.397079	0.214994	0.451546	28.4328	342.161	631.947	718.631	-61.5672	0.0000000E+000	0.0000000E+000	0.0000000E+000	61.5672	0.0000000E+000	0.0000000E+000	0.0000000E+000	-61.5672	0.0000000E+000	0.0000000E+000	0.0000000E+000	-28.4328	0.0000000E+000	0.0000000E+000	0.0000000E+000	28.4328	1.84693	61.5672	6.10075e-06	-5.17682e-05	1.73732e-09	-5.17699e-05	3.97198	304735	10.2268	304745
63093.8	2.28878	1.33408	2.64921	-30.2369	7.23753	3.97183	-0.0125869	1.89083	0.479494	1	9	0.00531805	0.00200741	0	-3.04589e-05	-0.000114203	1.67516e-05	36.4345	0.00834484	0.00671373	-0.00495603	-30.0714	2.65252	2.2955	1.32912	0.326117	0.190086	0.377472	30.2369	479.494	822.633	952.176	-59.7631	0.0000000E+000	0.0000000E+000	0.0000000E+000	59.7631	0.0000000E+000	0.0000000E+000	0.0000000E+000	-59.7631	0.0000000E+000	0.0000000E+000	0.0000000E+000	-30.2369	0.0000000E+000	0.0000000E+000	0.0000000E+000	30.2369	1.71563	59.7631	-1.44705e-06	-4.99929e-05	1.43745e-09	-4.99943e-05	3.97195	315554	9.07316	315563
39814.1	2.71647	1.62168	3.16371	-30.8364	8.00356	3.97184	-0.00640403	2.46501	0.647672	1	9	0.00524359	0.00165742	0	-3.14264e-05	7.67059e-05	1.54557e-05	1.49649	0.00932519	0.00932201	-0.000243534	-30.7463	3.1716	2.7258	1.62144	0.271401	0.162021	0.316084	30.8364	647.672	1084.91	1263.53	-59.1636	0.0000000E+000	0.0000000E+000	0.0000000E+000	59.1636	0.0000000E+000	0.0000000E+000	0.0000000E+000	-59.1636	0.0000000E+000	0.0000000E+000	0.0000000E+000	-30.8364	0.0000000E+000	0.0000000E+000	0.0000000E+000	30.8364	1.6751	59.1636	2.84819e-06	-2.54358e-05	-4.91227e-10	-2.54353e-05	3.97176	620209	11.9777	620197
25116.9	3.24127	1.90262	3.75843	-30.4128	8.76951	3.97184	-0.00882502	3.33045	0.853479	1	9	0.00519642	0.00138261	0	-3.30048e-05	0.00017216	9.17287e-06	-32.3648	0.00663448	0.00560386	0.00355149	-30.4163	3.76506	3.24687	1.90617	0.229458	0.134691	0.266069	30.4128	853.479	1453.97	1685.96	-59.5872	0.0000000E+000	0.0000000E+000	0.0000000E+000	59.5872	0.0000000E+000	0.0000000E+000	0.0000000E+000	-59.5872	0.0000000E+000	0.0000000E+000	0.0000000E+000	-30.4128	0.0000000E+000	0.0000000E+000	0.0000000E+000	30.4128	1.70359	59.5872	-1.74824e-07	-3.50516e-05	-1.51932e-09	-3.505e-05	3.97167	450065	19.5082	450046
15847.7	3.84694	2.12966	4.39709	-28.9689	9.53552	3.97185	-0.0122889	4.71567	1.1062	1	9	0.00511416	0.00116308	0	-3.5628e-05	0.000305796	1.02918e-05	-95.9946	0.00884873	-0.00092412	0.00880034	-29.0749	4.40055	3.84602	2.13846	0.198969	0.110149	0.227423	28.9689	1106.2	1998.2	2283.96	-61.0311	0.0000000E+000	0.0000000E+000	0.0000000E+000	61.0311	0.0000000E+000	0.0000000E+000	0.0000000E+000	-61.0311	0.0000000E+000	0.0000000E+000	0.0000000E+000	-28.9689	0.0000000E+000	0.0000000E+000	0.0000000E+000	28.9689	1.80636	61.0311	-1.989e-06	-4.88097e-05	-3.7579e-09	-4.88059e-05	3.97154	323206	24.8839	323181
10002.2	4.46464	2.36504	5.05237	-27.9114	10.5805	3.97184	-0.0276632	6.72798	1.47425	1	10	0.00499704	0.000989049	0	-4.1812e-05	0.000324887	4.49129e-06	-120.799	0.00454102	-0.00232514	0.00390058	-27.9628	5.05214	4.46232	2.36894	0.174903	0.0926507	0.197927	27.9114	1474.25	2783.04	3149.4	-62.0886	0.0000000E+000	0.0000000E+000	0.0000000E+000	62.0886	0.0000000E+000	0.0000000E+000	0.0000000E+000	-62.0886	0.0000000E+000	0.0000000E+000	0.0000000E+000	-27.9114	0.0000000E+000	0.0000000E+000	0.0000000E+000	27.9114	1.88776	62.0886	-1.82522e-06	-0.000109874	-8.98741e-09	-0.000109865	3.97152	143578	11.7444	143567
6309.38	5.13065	2.66353	5.78082	-27.4357	11.2225	3.97183	-0.0273168	9.47057	2.01053	1	10	0.00504938	0.00087347	0	-4.67905e-05	0.000114888	4.14984e-06	31.0055	0.00475098	0.00407215	-0.00244732	-27.3956	5.78331	5.13472	2.66108	0.15353	0.0797036	0.172986	27.4357	2010.53	3872.81	4363.59	-62.5643	0.0000000E+000	0.0000000E+000	0.0000000E+000	62.5643	0.0000000E+000	0.0000000E+000	0.0000000E+000	-62.5643	0.0000000E+000	0.0000000E+000	0.0000000E+000	-27.4357	0.0000000E+000	0.0000000E+000	0.0000000E+000	27.4357	1.92626	62.5643	-2.63336e-06	-0.000108498	-3.13836e-09	-0.000108495	3.97172	145399	4.20575	145395
3983.6	5.85754	3.04314	6.60087	-27.4531	11.7851	3.97181	-0.0266388	13.1287	2.79039	1	10	0.00502878	0.000761837	0	-5.13726e-05	-3.78392e-05	5.80108e-06	-54.8862	0.0076146	0.00437994	0.00622882	-27.4835	6.60763	5.86192	3.04937	0.134435	0.0698426	0.151495	27.4531	2790.39	5371.02	6052.62	-62.547	0.0000000E+000	0.0000000E+000	0.0000000E+000	62.547	0.0000000E+000	0.0000000E+000	0.0000000E+000	-62.547	0.0000000E+000	0.0000000E+000	0.0000000E+000	-27.4531	0.0000000E+000	0.0000000E+000	0.0000000E+000	27.4531	1.92483	62.547	-2.14775e-06	-0.000105804	1.00799e-09	-0.000105805	3.97184	149099	1.42046	149100
2510.8	6.73207	3.53178	7.60225	-27.6824	12.6098	3.97177	-0.0230924	17.9479	3.87362	1	10	0.00491782	0.000646889	0	-5.66714e-05	1.94333e-05	2.49961e-05	-4.91167	0.0386405	0.0384986	0.0033084	-27.5702	7.6379	6.77057	3.53509	0.116483	0.0611096	0.13154	27.6824	3873.62	7383.65	8338.06	-62.3176	0.0000000E+000	0.0000000E+000	0.0000000E+000	62.3176	0.0000000E+000	0.0000000E+000	0.0000000E+000	-62.3176	0.0000000E+000	0.0000000E+000	0.0000000E+000	-27.6824	0.0000000E+000	0.0000000E+000	0.0000000E+000	27.6824	1.90614	62.3176	-2.98926e-06	-9.17176e-05	-4.48762e-10	-9.17171e-05	3.97175	171995	0.841547	171994
1585.51	7.73292	4.13741	8.77019	-28.1485	13.5118	3.97178	-0.0232041	24.2618	5.39961	1	10	0.00481281	0.000548769	0	-6.25781e-05	0.000286705	7.33766e-06	82.129	0.0133711	0.0018311	-0.0132452	-28.0665	8.76556	7.73475	4.12417	0.100537	0.0537911	0.114023	28.1485	5399.61	10092	11445.7	-61.8515	0.0000000E+000	0.0000000E+000	0.0000000E+000	61.8515	0.0000000E+000	0.0000000E+000	0.0000000E+000	-61.8515	0.0000000E+000	0.0000000E+000	0.0000000E+000	-28.1485	0.0000000E+000	0.0000000E+000	0.0000000E+000	28.1485	1.86902	61.8515	-2.6143e-06	-9.21618e-05	-6.65275e-09	-9.21552e-05	3.9715	171167	12.3558	171155
1000.32	8.98508	4.85646	10.2136	-28.3913	14.4138	3.97177	-0.0227199	32.7613	7.40707	1	10	0.0047441	0.00046449	0	-6.799e-05	0.000153069	1.19061e-05	56.42	0.0256325	0.0141774	-0.0213548	-28.2482	10.2159	8.99926	4.8351	0.0861326	0.0465549	0.097909	28.3913	7407.07	13704	15577.7	-61.6087	0.0000000E+000	0.0000000E+000	0.0000000E+000	61.6087	0.0000000E+000	0.0000000E+000	0.0000000E+000	-61.6087	0.0000000E+000	0.0000000E+000	0.0000000E+000	-28.3913	0.0000000E+000	0.0000000E+000	0.0000000E+000	28.3913	1.85013	61.6087	-3.05755e-06	-9.02382e-05	-3.47771e-09	-9.02347e-05	3.97162	174815	6.73724	174808
631.01	10.5986	5.61559	11.9944	-27.9165	15.3146	3.97177	-0.0231371	44.9147	9.84518	1	10	0.00470816	0.00039253	0	-7.40447e-05	-7.60209e-05	4.04751e-06	14.4172	0.0103113	0.00998663	-0.00256732	-27.8834	12.002	10.6086	5.61302	0.0736704	0.0390337	0.0833724	27.9165	9845.18	18581.3	21028.4	-62.0835	0.0000000E+000	0.0000000E+000	0.0000000E+000	62.0835	0.0000000E+000	0.0000000E+000	0.0000000E+000	-62.0835	0.0000000E+000	0.0000000E+000	0.0000000E+000	-27.9165	0.0000000E+000	0.0000000E+000	0.0000000E+000	27.9165	1.88735	62.0835	-2.87389e-06	-9.18952e-05	1.7589e-09	-9.18969e-05	3.97184	171662	3.28567	171666
398.089	12.5759	6.23598	14.0371	-26.3754	16.2159	3.97178	-0.0229173	64.1114	12.6529	1	10	0.00467943	0.000333362	0	-7.97009e-05	0.000133978	1.33823e-05	124.549	0.0401435	-0.0227656	-0.033064	-26.2955	14.002	12.5531	6.20291	0.063824	0.0316483	0.0712399	26.3754	12652.9	25516.7	28481.5	-63.6246	0.0000000E+000	0.0000000E+000	0.0000000E+000	63.6246	0.0000000E+000	0.0000000E+000	0.0000000E+000	-63.6246	0.0000000E+000	0.0000000E+000	0.0000000E+000	-26.3754	0.0000000E+000	0.0000000E+000	0.0000000E+000	26.3754	2.01666	63.6246	-2.6142e-06	-9.10225e-05	-3.07042e-09	-9.10194e-05	3.97165	173309	5.84617	173303
251.044	14.9245	6.55806	16.3018	-23.7215	17.1141	3.97176	-0.0230998	96.6705	15.645	1	10	0.00468144	0.000287173	0	-8.5131e-05	-0.000209657	6.24118e-06	21.109	0.0217332	0.0202748	-0.00782706	-23.6677	16.3172	14.9448	6.55024	0.0561602	0.0246777	0.0613429	23.7215	15645	35604	38889.7	-66.2785	0.0000000E+000	0.0000000E+000	0.0000000E+000	66.2785	0.0000000E+000	0.0000000E+000	0.0000000E+000	-66.2785	0.0000000E+000	0.0000000E+000	0.0000000E+000	-23.7215	0.0000000E+000	0.0000000E+000	0.0000000E+000	23.7215	2.27575	66.2785	-2.60298e-06	-9.17471e-05	4.84304e-09	-9.1752e-05	3.97197	171939	9.07611	171948
158.428	17.3735	6.26043	18.467	-19.8163	18.0189	3.97177	-0.0223585	160.466	18.4415	1	10	0.00466834	0.000252793	0	-9.02281e-05	3.85242e-05	1.03899e-05	-58.4188	0.0411005	0.0215246	0.0350135	-19.8957	18.4992	17.395	6.29544	0.050944	0.0183573	0.0541506	19.8163	18441.5	51177.6	54398.9	-70.1837	0.0000000E+000	0.0000000E+000	0.0000000E+000	70.1837	0.0000000E+000	0.0000000E+000	0.0000000E+000	-70.1837	0.0000000E+000	0.0000000E+000	0.0000000E+000	-19.8163	0.0000000E+000	0.0000000E+000	0.0000000E+000	19.8163	2.77513	70.1837	-2.58644e-06	-8.8803e-05	-8.61344e-10	-8.88022e-05	3.97173	177640	1.72302	177638
100.032	19.4655	5.4104	20.2034	-15.5332	18.9188	3.97176	-0.0221313	294.07	21.0893	1	10	0.00466162	0.000230735	0	-9.58221e-05	0.000382159	5.25492e-06	16.1762	0.0227747	0.021873	-0.00634486	-15.4993	20.2228	19.4873	5.40406	0.0476888	0.0132551	0.0494967	15.5332	21089.3	75874.8	78751.2	-74.4668	0.0000000E+000	0.0000000E+000	0.0000000E+000	74.4668	0.0000000E+000	0.0000000E+000	0.0000000E+000	-74.4668	0.0000000E+000	0.0000000E+000	0.0000000E+000	-15.5332	0.0000000E+000	0.0000000E+000	0.0000000E+000	15.5332	3.59778	74.4668	-2.82018e-06	-8.79003e-05	-8.45768e-09	-8.78918e-05	3.97138	179464	17.2678	179446
63.0823	21.156	4.42629	21.6141	-11.817	20.086	3.97182	-0.0193551	569.998	23.9044	1	11	0.00467778	0.000216423	0	-0.000101845	0.000210342	1.21439e-05	-74.0578	0.0561119	0.0154121	0.0539538	-11.9485	21.6403	21.1714	4.48024	0.0452856	0.0094747	0.0462661	11.817	23904.4	114254	116728	-78.183	0.0000000E+000	0.0000000E+000	0.0000000E+000	78.183	0.0000000E+000	0.0000000E+000	0.0000000E+000	-78.183	0.0000000E+000	0.0000000E+000	0.0000000E+000	-11.817	0.0000000E+000	0.0000000E+000	0.0000000E+000	11.817	4.77963	78.183	-3.70029e-06	-7.68748e-05	-4.07118e-09	-7.68708e-05	3.97161	205208	10.8675	205197
39.8089	22.1456	3.34758	22.3972	-8.59589	20.9869	3.97182	-0.0195173	1194.29	26.6799	1	11	0.00466097	0.000208105	0	-0.000106226	0.000248523	8.96667e-06	-17.3191	0.0430872	0.0411337	0.0128268	-8.61257	22.4398	22.1867	3.36041	0.0441469	0.00667336	0.0446485	8.59589	26679.9	176498	178503	-81.4041	0.0000000E+000	0.0000000E+000	0.0000000E+000	81.4041	0.0000000E+000	0.0000000E+000	0.0000000E+000	-81.4041	0.0000000E+000	0.0000000E+000	0.0000000E+000	-8.59589	0.0000000E+000	0.0000000E+000	0.0000000E+000	8.59589	6.6154	81.4041	-2.19355e-06	-7.7519e-05	-4.8505e-09	-7.75141e-05	3.97157	203503	12.7335	203490
25.1044	22.8372	2.50838	22.9745	-6.26811	21.866	3.97182	-0.0190661	2527.41	30.1281	1	11	0.00466664	0.000203123	0	-0.000110676	7.67059e-05	7.01264e-06	89.4937	0.0345242	0.00030508	-0.0345228	-6.18244	22.9711	22.8375	2.47386	0.0432663	0.00475228	0.0435265	6.26811	30128.1	274296	275946	-83.7319	0.0000000E+000	0.0000000E+000	0.0000000E+000	83.7319	0.0000000E+000	0.0000000E+000	0.0000000E+000	-83.7319	0.0000000E+000	0.0000000E+000	0.0000000E+000	-6.26811	0.0000000E+000	0.0000000E+000	0.0000000E+000	6.26811	9.10434	83.7319	-2.5123e-06	-7.57272e-05	-1.46248e-09	-7.57258e-05	3.97174	208318	4.02315	208314
15.8576	23.2812	2.00486	23.3673	-4.92188	22.744	3.97181	-0.0194028	5006.11	36.8509	1	11	0.00466891	0.000199805	0	-0.000114054	3.42479e-07	1.5378e-05	62.6484	0.0769651	0.0353616	-0.0683607	-4.74766	23.3968	23.3165	1.93649	0.042637	0.00367168	0.0427948	4.92188	36851	427927	429511	-85.0781	0.0000000E+000	0.0000000E+000	0.0000000E+000	85.0781	0.0000000E+000	0.0000000E+000	0.0000000E+000	-85.0781	0.0000000E+000	0.0000000E+000	0.0000000E+000	-4.92188	0.0000000E+000	0.0000000E+000	0.0000000E+000	4.92188	11.6124	85.0781	-1.37318e-06	-7.70642e-05	-6.64506e-12	-7.70642e-05	3.97181	204703	0.017651	204703
10.0032	23.5494	1.49601	23.5969	-3.63491	23.7249	3.97182	-0.0186862	10635.2	42.7471	1	11	0.00466215	0.000197575	0	-0.000120024	-0.000133293	7.29868e-06	-80.581	0.0369413	0.00604557	0.0364432	-3.72226	23.6052	23.5554	1.53245	0.0422933	0.00268674	0.0423785	3.63491	42747.1	672903	674259	-86.3651	0.0000000E+000	0.0000000E+000	0.0000000E+000	86.3651	0.0000000E+000	0.0000000E+000	0.0000000E+000	-86.3651	0.0000000E+000	0.0000000E+000	0.0000000E+000	-3.63491	0.0000000E+000	0.0000000E+000	0.0000000E+000	3.63491	15.7415	86.3651	-3.31693e-06	-7.42181e-05	2.49075e-09	-7.42206e-05	3.97195	212554	7.13326	212561
6.31058	23.7991	1.20786	23.8297	-2.90539	24.6493	3.97182	-0.018754	20880.2	53.6449	1	11	0.00466351	0.000195701	0	-0.000123099	1.94333e-05	7.78452e-06	51.3981	0.0397775	0.0248174	-0.0310861	-2.8278	23.853	23.8239	1.17677	0.0419104	0.00212705	0.0419644	2.90539	53644.9	1.057e+06	1.05836e+06	-87.0946	0.0000000E+000	0.0000000E+000	0.0000000E+000	87.0946	0.0000000E+000	0.0000000E+000	0.0000000E+000	-87.0946	0.0000000E+000	0.0000000E+000	0.0000000E+000	-2.90539	0.0000000E+000	0.0000000E+000	0.0000000E+000	2.90539	19.7036	87.0946	-1.59079e-06	-7.44877e-05	-3.64453e-10	-7.44873e-05	3.9718	211785	1.03622	211784
3.97785	24.064	1.11685	24.0899	-2.65728	25.6564	3.97183	-0.0172947	35824.3	77.0009	1	11	0.00466852	0.000193796	0	-0.000129797	0.000458523	6.4908e-06	113.162	0.033493	-0.013174	-0.0307933	-2.58553	24.0753	24.0508	1.08606	0.0414665	0.00192453	0.0415112	2.65728	77000.8	1.65909e+06	1.66087e+06	-87.3427	0.0000000E+000	0.0000000E+000	0.0000000E+000	87.3427	0.0000000E+000	0.0000000E+000	0.0000000E+000	-87.3427	0.0000000E+000	0.0000000E+000	0.0000000E+000	-2.65728	0.0000000E+000	0.0000000E+000	0.0000000E+000	2.65728	21.5463	87.3427	-2.3167e-06	-6.86917e-05	-7.93001e-09	-6.86838e-05	3.97138	229656	26.5123	229630
2.51367	24.2422	1.05793	24.2653	-2.4988	27.2159	3.97183	-0.0167297	59848.6	113.762	1	11	0.00466403	0.00019221	0	-0.000133105	0.000191251	5.1581e-06	-3.90241	0.0268358	0.0267736	0.00182637	-2.50035	24.2921	24.269	1.05976	0.0411719	0.00179674	0.0412111	2.4988	113762	2.60683e+06	2.60931e+06	-87.5012	0.0000000E+000	0.0000000E+000	0.0000000E+000	87.5012	0.0000000E+000	0.0000000E+000	0.0000000E+000	-87.5012	0.0000000E+000	0.0000000E+000	0.0000000E+000	-2.4988	0.0000000E+000	0.0000000E+000	0.0000000E+000	2.4988	22.9148	87.5012	-2.62597e-06	-6.64475e-05	-3.19957e-09	-6.64443e-05	3.97164	237412	11.4318	237400
1.58469	24.4992	1.10274	24.524	-2.57721	29.6514	3.97183	-0.0160985	91076.2	184.148	1	11	0.00466689	0.000190299	0	-0.000150392	0.000133978	4.0166e-06	47.7499	0.0211068	0.0141915	-0.0156236	-2.53928	24.5374	24.5134	1.08711	0.0407352	0.00183354	0.0407764	2.57721	184148	4.09116e+06	4.09531e+06	-87.4228	0.0000000E+000	0.0000000E+000	0.0000000E+000	87.4228	0.0000000E+000	0.0000000E+000	0.0000000E+000	-87.4228	0.0000000E+000	0.0000000E+000	0.0000000E+000	-2.57721	0.0000000E+000	0.0000000E+000	0.0000000E+000	2.57721	22.2167	87.4228	-1.02617e-05	-6.39406e-05	-2.15685e-09	-6.39384e-05	3.9717	246720	8.32241	246712
1.00469	25.0617	1.16948	25.089	-2.67172	240.469	3.97177	-0.0150207	135454	294.317	1	11	0.0049782	0.000198422	0	-0.00186612	7.67059e-05	2.45868e-07	28.8911	0.00123912	0.0010849	-0.000598676	-2.67024	25.09	25.0628	1.16889	0.0398148	0.00185793	0.0398581	2.67172	294317	6.30712e+06	6.31398e+06	-87.3283	0.0000000E+000	0.0000000E+000	0.0000000E+000	87.3283	0.0000000E+000	0.0000000E+000	0.0000000E+000	-87.3283	0.0000000E+000	0.0000000E+000	0.0000000E+000	-2.67172	0.0000000E+000	0.0000000E+000	0.0000000E+000	2.67172	21.4297	87.3283	-0.00170518	-5.9659e-05	-1.15218e-09	-5.96579e-05	3.9717	264419	5.10666	264414
0.632957	25.3569	1.31841	25.3912	-2.97636	240.471	3.97177	-0.0150207	190719	514.199	1	11	0.00498972	0.000196514	0	-0.00186612	7.67059e-05	4.35467e-07	-151.137	0.00221596	-0.00194069	0.00106967	-2.979	25.3893	25.355	1.31948	0.0393306	0.00204496	0.0393837	2.97636	514199	9.88955e+06	9.90291e+06	-87.0236	0.0000000E+000	0.0000000E+000	0.0000000E+000	87.0236	0.0000000E+000	0.0000000E+000	0.0000000E+000	-87.0236	0.0000000E+000	0.0000000E+000	0.0000000E+000	-2.97636	0.0000000E+000	0.0000000E+000	0.0000000E+000	2.97636	19.2329	87.0236	0.000000000000000E+000	-5.9659e-05	-1.15218e-09	-5.96579e-05	3.9717	264419	5.10666	264414
0.401878	25.5803	1.56791	25.6283	-3.50747	240.473	3.97177	-0.0150207	252584	945.381	1	11	0.00500349	0.000195233	0	-0.00186612	7.67059e-05	4.01015e-07	-133.378	0.00205403	-0.00141074	0.00149294	-3.511	25.627	25.5789	1.5694	0.0389463	0.00238715	0.0390194	3.50747	945382	1.54238e+07	1.54528e+07	-86.4925	0.0000000E+000	0.0000000E+000	0.0000000E+000	86.4925	0.0000000E+000	0.0000000E+000	0.0000000E+000	-86.4925	0.0000000E+000	0.0000000E+000	0.0000000E+000	-3.50747	0.0000000E+000	0.0000000E+000	0.0000000E+000	3.50747	16.3149	86.4925	0.000000000000000E+000	-5.9659e-05	-1.15218e-09	-5.96579e-05	3.9717	264419	5.10666	264414
0.251173	26.0578	1.90226	26.1271	-4.17529	240.475	3.97177	-0.0150207	333101	1765.77	1	11	0.00500352	0.000191507	0	-0.00186612	7.67059e-05	4.0652e-07	169.484	0.00212274	-0.00208709	-0.000387437	-4.17478	26.125	26.0557	1.90188	0.0381729	0.00278669	0.0382744	4.17529	1.76577e+06	2.41881e+07	2.42524e+07	-85.8247	0.0000000E+000	0.0000000E+000	0.0000000E+000	85.8247	0.0000000E+000	0.0000000E+000	0.0000000E+000	-85.8247	0.0000000E+000	0.0000000E+000	0.0000000E+000	-4.17529	0.0000000E+000	0.0000000E+000	0.0000000E+000	4.17529	13.6983	85.8247	0.000000000000000E+000	-5.9659e-05	-1.15218e-09	-5.96579e-05	3.9717	264419	5.10666	264414
0.160751	26.469	2.1862	26.5592	-4.72159	240.476	3.97177	-0.0150207	452874	3068.5	1	11	0.00500096	0.000188295	0	-0.00186612	7.67059e-05	4.7274e-07	-10.2716	0.00251063	0.0024704	0.000447681	-4.72212	26.5617	26.4715	2.18664	0.037524	0.00309927	0.0376518	4.72159	3.0685e+06	3.71514e+07	3.72779e+07	-85.2784	0.0000000E+000	0.0000000E+000	0.0000000E+000	85.2784	0.0000000E+000	0.0000000E+000	0.0000000E+000	-85.2784	0.0000000E+000	0.0000000E+000	0.0000000E+000	-4.72159	0.0000000E+000	0.0000000E+000	0.0000000E+000	4.72159	12.1074	85.2784	0.000000000000000E+000	-5.9659e-05	-1.15218e-09	-5.96579e-05	3.9717	264419	5.10666	264414
0.100469	26.9889	3.04533	27.1601	-6.43783	240.478	3.97177	-0.0150207	520177	6539.69	1	11	0.00500303	0.000184205	0	-0.00186612	7.67059e-05	3.70746e-07	-23.0766	0.00201268	0.00185163	0.000788896	-6.43905	27.1621	26.9907	3.04612	0.0365865	0.00412829	0.0368187	6.43783	6.53968e+06	5.79571e+07	5.83249e+07	-83.5622	0.0000000E+000	0.0000000E+000	0.0000000E+000	83.5622	0.0000000E+000	0.0000000E+000	0.0000000E+000	-83.5622	0.0000000E+000	0.0000000E+000	0.0000000E+000	-6.43783	0.0000000E+000	0.0000000E+000	0.0000000E+000	6.43783	8.86237	83.5622	0.000000000000000E+000	-5.9659e-05	-1.15218e-09	-5.96579e-05	3.9717	264419	5.10666	264414
0.0602816	27.8567	3.67913	28.0986	-7.52371	240.48	3.97177	-0.0150207	717612	12303	1	11	0.00499763	0.00017786	0	-0.00186612	7.67059e-05	7.45608e-07	27.4094	0.0041921	0.0037215	-0.00192982	-7.51881	28.1021	27.8604	3.6772	0.0352825	0.00465989	0.0355889	7.52371	1.2303e+07	9.31526e+07	9.39615e+07	-82.4763	0.0000000E+000	0.0000000E+000	0.0000000E+000	82.4763	0.0000000E+000	0.0000000E+000	0.0000000E+000	-82.4763	0.0000000E+000	0.0000000E+000	0.0000000E+000	-7.52371	0.0000000E+000	0.0000000E+000	0.0000000E+000	7.52371	7.57155	82.4763	0.000000000000000E+000	-5.9659e-05	-1.15218e-09	-5.96579e-05	3.9717	264419	5.10666	264414
0.0401878	29.0499	4.29972	29.3664	-8.41931	240.482	3.97177	-0.0150207	921057	19745.4	1	11	0.00499932	0.00017024	0	-0.00186612	7.67059e-05	5.67952e-07	-135.373	0.00333619	-0.00237437	0.00234362	-8.42451	29.3644	29.0475	4.30206	0.0336856	0.00498586	0.0340526	8.41931	1.97454e+07	1.33405e+08	1.34858e+08	-81.5807	0.0000000E+000	0.0000000E+000	0.0000000E+000	81.5807	0.0000000E+000	0.0000000E+000	0.0000000E+000	-81.5807	0.0000000E+000	0.0000000E+000	0.0000000E+000	-8.41931	0.0000000E+000	0.0000000E+000	0.0000000E+000	8.41931	6.75623	81.5807	0.000000000000000E+000	-5.9659e-05	-1.15218e-09	-5.96579e-05	3.9717	264419	5.10666	264414
0.0200939	31.2167	6.46894	31.88	-11.7075	240.484	3.97177	-0.0150207	1.2244e+06	50414.3	1	11	0.0049999	0.000156835	0	-0.00186612	7.67059e-05	5.26654e-07	81.4826	0.00335801	0.000497355	-0.00332097	-11.7015	31.8798	31.2172	6.46562	0.0307151	0.00636498	0.0313677	11.7075	5.04143e+07	2.43281e+08	2.4845e+08	-78.2925	0.0000000E+000	0.0000000E+000	0.0000000E+000	78.2925	0.0000000E+000	0.0000000E+000	0.0000000E+000	-78.2925	0.0000000E+000	0.0000000E+000	0.0000000E+000	-11.7075	0.0000000E+000	0.0000000E+000	0.0000000E+000	11.7075	4.82564	78.2925	0.000000000000000E+000	-5.9659e-05	-1.15218e-09	-5.96579e-05	3.9717	264419	5.10666	264414
0.00796479	37.19	8.53289	38.1563	-12.9223	20329.4	3.97181	-0.000542934	2.3418e+06	117114	1	11	0.00499413	0.000130886	0	-0.0138965	7.67059e-05	3.3355e-07	-115.986	0.0025484	-0.0011166	0.00229076	-12.926	38.1557	37.1889	8.53518	0.0255442	0.00586088	0.026208	12.9223	1.17114e+08	5.10433e+08	5.23696e+08	-77.0777	0.0000000E+000	0.0000000E+000	0.0000000E+000	77.0777	0.0000000E+000	0.0000000E+000	0.0000000E+000	-77.0777	0.0000000E+000	0.0000000E+000	0.0000000E+000	-12.9223	0.0000000E+000	0.0000000E+000	0.0000000E+000	12.9223	4.35843	77.0777	-0.0120304	-2.15643e-06	-4.16462e-11	-2.15639e-06	3.97173	7.31545e+06	141.28	7.31531e+06
0.00497799	40.5477	9.44735	41.6337	-13.1156	20329.4	3.97181	-0.000542934	3.3842e+06	174255	1	11	0.00500186	0.00012014	0	-0.0138965	7.67059e-05	5.87186e-07	-136.789	0.00488753	-0.00356221	0.00334643	-13.1212	41.631	40.5441	9.4507	0.0233924	0.00545029	0.024019	13.1156	1.74255e+08	7.47897e+08	7.67929e+08	-76.8844	0.0000000E+000	0.0000000E+000	0.0000000E+000	76.8844	0.0000000E+000	0.0000000E+000	0.0000000E+000	-76.8844	0.0000000E+000	0.0000000E+000	0.0000000E+000	-13.1156	0.0000000E+000	0.0000000E+000	0.0000000E+000	13.1156	4.29196	76.8844	0.000000000000000E+000	-2.15643e-06	-4.16462e-11	-2.15639e-06	3.97173	7.31545e+06	141.28	7.31531e+06
0.00318591	43.117	11.5853	44.6463	-15.0399	20329.4	3.97181	-0.000542934	4.31198e+06	290351	1	11	0.0050037	0.000112074	0	-0.0138965	7.67059e-05	4.05266e-07	-151.778	0.00361605	-0.00318617	0.00171002	-15.0431	44.6437	43.1138	11.5871	0.021631	0.00581216	0.0223983	15.0399	2.90351e+08	1.0806e+09	1.11892e+09	-74.9601	0.0000000E+000	0.0000000E+000	0.0000000E+000	74.9601	0.0000000E+000	0.0000000E+000	0.0000000E+000	-74.9601	0.0000000E+000	0.0000000E+000	0.0000000E+000	-15.0399	0.0000000E+000	0.0000000E+000	0.0000000E+000	15.0399	3.72168	74.9601	0.000000000000000E+000	-2.15643e-06	-4.16462e-11	-2.15639e-06	3.97173	7.31545e+06	141.28	7.31531e+06
0.0019912	46.0835	12.5677	47.7665	-15.2544	20329.4	3.97181	-0.000542934	6.35992e+06	440264	1	11	0.0050066	0.000104814	0	-0.0138965	7.67059e-05	6.53662e-07	48.3976	0.00623639	0.0041407	-0.00466339	-15.2477	47.7693	46.0877	12.563	0.0201976	0.00550817	0.0209352	15.2544	4.40264e+08	1.61438e+09	1.67333e+09	-74.7456	0.0000000E+000	0.0000000E+000	0.0000000E+000	74.7456	0.0000000E+000	0.0000000E+000	0.0000000E+000	-74.7456	0.0000000E+000	0.0000000E+000	0.0000000E+000	-15.2544	0.0000000E+000	0.0000000E+000	0.0000000E+000	15.2544	3.66684	74.7456	0.000000000000000E+000	-2.15643e-06	-4.16462e-11	-2.15639e-06	3.97173	7.31545e+06	141.28	7.31531e+06
0.00129428	47.7438	13.4117	49.5918	-15.6906	20329.4	3.97181	-0.000542934	9.1687e+06	670592	1	11	0.00500676	0.00010096	0	-0.0138965	7.67059e-05	4.41296e-07	-71.4463	0.00437102	0.00139083	0.00414384	-15.6948	49.5942	47.7452	13.4159	0.0194132	0.00545338	0.0201646	15.6906	6.70592e+08	2.38721e+09	2.47961e+09	-74.3094	0.0000000E+000	0.0000000E+000	0.0000000E+000	74.3094	0.0000000E+000	0.0000000E+000	0.0000000E+000	-74.3094	0.0000000E+000	0.0000000E+000	0.0000000E+000	-15.6906	0.0000000E+000	0.0000000E+000	0.0000000E+000	15.6906	3.55985	74.3094	0.000000000000000E+000	-2.15643e-06	-4.16462e-11	-2.15639e-06	3.97173	7.31545e+06	141.28	7.31531e+06
0.000796479	51.2272	14.9116	53.3534	-16.2296	20329.4	3.97181	-0.000542934	1.34005e+07	1.04676e+06	1	11	0.00500356	9.37815e-05	0	-0.0138965	7.67059e-05	1.36979e-06	-3.34199	0.0146062	0.0145814	0.00085148	-16.2261	53.3676	51.2418	14.9125	0.017996	0.00523842	0.018743	16.2296	1.04676e+09	3.59603e+09	3.74528e+09	-73.7704	0.0000000E+000	0.0000000E+000	0.0000000E+000	73.7704	0.0000000E+000	0.0000000E+000	0.0000000E+000	-73.7704	0.0000000E+000	0.0000000E+000	0.0000000E+000	-16.2296	0.0000000E+000	0.0000000E+000	0.0000000E+000	16.2296	3.43539	73.7704	0.000000000000000E+000	-2.15643e-06	-4.16462e-11	-2.15639e-06	3.97173	7.31545e+06	141.28	7.31531e+06
0.000497799	52.3548	18.0408	55.3759	-19.0133	20329.4	3.97181	-0.000542934	1.77219e+07	1.88096e+06	1	11	0.00501168	9.05029e-05	0	-0.0138965	7.67059e-05	1.23914e-06	67.3899	0.0136917	0.00526389	-0.0126394	-18.9992	55.3768	52.36	18.0281	0.0170732	0.0058832	0.0180584	19.0133	1.88096e+09	5.45859e+09	5.77358e+09	-70.9867	0.0000000E+000	0.0000000E+000	0.0000000E+000	70.9867	0.0000000E+000	0.0000000E+000	0.0000000E+000	-70.9867	0.0000000E+000	0.0000000E+000	0.0000000E+000	-19.0133	0.0000000E+000	0.0000000E+000	0.0000000E+000	19.0133	2.90202	70.9867	0.000000000000000E+000	-2.15643e-06	-4.16462e-11	-2.15639e-06	3.97173	7.31545e+06	141.28	7.31531e+06
0.000298679	52.878	28.3573	60.0018	-28.2036	20329.4	3.97181	-0.000542934	1.8791e+07	4.19711e+06	1	11	0.00500987	8.34953e-05	0	-0.0138965	7.67059e-05	1.85954e-06	0.301348	0.0222711	0.0222708	-0.000117135	-28.1935	60.0214	52.9003	28.3571	0.0146874	0.00787654	0.0166662	28.2036	4.19711e+09	7.82638e+09	8.88076e+09	-61.7964	0.0000000E+000	0.0000000E+000	0.0000000E+000	61.7964	0.0000000E+000	0.0000000E+000	0.0000000E+000	-61.7964	0.0000000E+000	0.0000000E+000	0.0000000E+000	-28.2036	0.0000000E+000	0.0000000E+000	0.0000000E+000	28.2036	1.86471	61.7964	0.000000000000000E+000	-2.15643e-06	-4.16462e-11	-2.15639e-06	3.97173	7.31545e+06	141.28	7.31531e+06
9.95598e-05	61.8037	83.2705	103.7	-53.417	20329.4	3.97181	-0.000542934	1.91975e+07	1.23786e+07	1	11	0.00500487	4.8263e-05	0	-0.0138965	7.67059e-05	2.62845e-06	55.2397	0.0544609	0.0310506	-0.044742	-53.3885	103.683	61.8348	83.2257	0.00574722	0.00774344	0.00964321	53.417	1.23786e+10	9.18743e+09	1.54155e+10	-36.583	0.0000000E+000	0.0000000E+000	0.0000000E+000	36.583	0.0000000E+000	0.0000000E+000	0.0000000E+000	-36.583	0.0000000E+000	0.0000000E+000	0.0000000E+000	-53.417	0.0000000E+000	0.0000000E+000	0.0000000E+000	53.417	0.742205	36.583	0.000000000000000E+000	-2.15643e-06	-4.16462e-11	-2.15639e-06	3.97173	7.31545e+06	141.28	7.31531e+06