File: txt/18709_R307_UA701_SOC00_C06.mpt
EC-Lab ASCII FILE
Nb header lines : 65

Potentio Electrochemical Impedance Spectroscopy

Run on channel : 6 (SN 65795)
User :
CE vs. WE compliance from -10 V to 10 V
Electrode connection : standard
Potential control : Ewe
Ewe ctrl range : min = -10.00 V, max = 10.00 V
Safety Limits :
	Do not start on E overload
Acquisition started on : 10/28/2025 15:30:49.284
Technique started on : 10/28/2025 15:30:51.011
Loaded Setting File :  C:\Users\Celltest\OneDrive - store-dot.com\Documents\EC-Lab\Data\@Biologic Test Protocols\anode half cell EIS SOC00.mps
Saved on :
	File : 18709_R307_UA701_SOC00_C06.mpr
	Directory : C:\Users\Celltest\OneDrive - store-dot.com\Documents\EC-Lab\Data\Anna\
	Host : 169.254.61.224
Device : VMP-3e (SN .003165)
Address : USB
EC-LAB for windows v11.62 (software)
Internet server v27.00 (firmware)
Command interpretor v12.03 (firmware)
Electrode material :
Initial state :
Electrolyte :
Comments :
Electrode surface area : 0.001 cm²
Characteristic mass : 0.001 g
Equivalent Weight : 0.000 g/eq.
Density : 0.000 g/cm3
Volume (V) : 0.001 cm³
Record Ece
Cycle Definition : Charge/Discharge alternance
Mode                Single sine
E (V)               0.0000
vs.                 Eoc
tE (h:m:s)          0:00:0.0000
record              0
dI                  0.000
unit dI             mA
dt (s)              0.000
fi                  100.000
unit fi             kHz
ff                  10.000
unit ff             mHz
Nd                  6
Points              per decade
spacing             Logarithmic
Va (mV)             5.0
pw                  0.10
Na                  2
corr                0
E range min (V)     -10.000
E range max (V)     10.000
I Range             Auto
Bandwidth           5
nc cycles           0
goto Ns'            0
nr cycles           0
inc. cycle          0

freq/Hz	Re(Z)/Ohm	-Im(Z)/Ohm	|Z|/Ohm	Phase(Z)/deg	time/s	<Ewe>/V	<I>/mA	Cs/µF	Cp/µF	cycle number	I Range	|Ewe|/V	|I|/A	Ns	(Q-Qo)/mA.h	<Ece>/V	|Ece|/V	Phase(Zce)/deg	|Zce|/Ohm	Re(Zce)/Ohm	-Im(Zce)/Ohm	Phase(Zwe-ce)/deg	|Zwe-ce|/Ohm	Re(Zwe-ce)/Ohm	-Im(Zwe-ce)/Ohm	Re(Y)/Ohm-1	Im(Y)/Ohm-1	|Y|/Ohm-1	Phase(Y)/deg	Re(C)/nF	Im(C)/nF	|C|/nF	Phase(C)/deg	Re(M)	Im(M)	|M|	Phase(M)/deg	Re(Permittivity)	Im(Permittivity)	|Permittivity|	Phase(Permittivity)/deg	Re(Resistivity)/Ohm.cm	Im(Resistivity)/Ohm.cm	|Resistivity|/Ohm.cm	Phase(Resistivity)/deg	Re(Conductivity)/mS/cm	Im(Conductivity)/mS/cm	|Conductivity|/mS/cm	Phase(Conductivity)/deg	Tan(Delta)	Loss Angle(Delta)/deg	dq/mA.h	Pwe/W	Pce/W	Pwe-ce/W	<Ewe-Ece>/V	Rwe/Ohm	Rce/Ohm	Rwe-ce/Ohm		Ewe-Ece/V
100004	1.25472	0.483581	1.34468	-21.0772	1.72655	0.244723	0.0202572	3.29105	0.425633	1	9	0.0047921	0.00356375	0	2.63776e-07	-0.000113801	4.36866e-05	80.2913	0.0122586	0.00206729	-0.0120831	-20.5642	1.34232	1.25678	0.471498	0.693917	0.267443	0.743671	21.0772	425.633	1104.36	1183.55	-68.9228	0.0000000E+000	0.0000000E+000	0.0000000E+000	68.9228	0.0000000E+000	0.0000000E+000	0.0000000E+000	-68.9228	0.0000000E+000	0.0000000E+000	0.0000000E+000	-21.0772	0.0000000E+000	0.0000000E+000	0.0000000E+000	21.0772	2.59464	68.9228	2.63776e-07	4.95739e-06	-2.30529e-09	4.95969e-06	0.244836	12080.8	5.61782	12086.4
68132	1.39477	0.539486	1.49547	-21.146	2.23552	0.244688	0.0214492	4.33001	0.563497	1	9	0.00507521	0.00339372	0	-1.72899e-05	0.000382748	3.18991e-05	81.402	0.00939945	0.00140522	-0.00929381	-20.794	1.49346	1.39618	0.530192	0.623658	0.241225	0.668685	21.146	563.497	1456.85	1562.03	-68.854	0.0000000E+000	0.0000000E+000	0.0000000E+000	68.854	0.0000000E+000	0.0000000E+000	0.0000000E+000	-68.854	0.0000000E+000	0.0000000E+000	0.0000000E+000	-21.146	0.0000000E+000	0.0000000E+000	0.0000000E+000	21.146	2.58538	68.854	-1.75537e-05	5.24835e-06	8.20962e-09	5.24015e-06	0.244305	11407.8	17.8444	11390
46420.4	1.53443	0.57841	1.63983	-20.6541	2.74455	0.244697	0.0209277	5.92756	0.73748	1	9	0.00506594	0.00308931	0	2.95574e-06	0.00045914	1.96471e-05	46.0581	0.00635972	0.00441319	-0.00457927	-20.4503	1.64235	1.53885	0.573831	0.570624	0.215099	0.609819	20.6541	737.48	1956.42	2090.8	-69.3459	0.0000000E+000	0.0000000E+000	0.0000000E+000	69.3459	0.0000000E+000	0.0000000E+000	0.0000000E+000	-69.3459	0.0000000E+000	0.0000000E+000	0.0000000E+000	-20.6541	0.0000000E+000	0.0000000E+000	0.0000000E+000	20.6541	2.65285	69.3459	2.02456e-05	5.12094e-06	9.60873e-09	5.11133e-06	0.244238	11692.5	21.9394	11670.6
31621.1	1.67601	0.626107	1.78914	-20.4841	3.25154	0.244695	0.0239822	8.03885	0.984467	1	9	0.00505795	0.00282703	0	8.69173e-06	0.000306356	7.22165e-06	47.7191	0.0025545	0.00171858	-0.00188996	-20.4082	1.79009	1.67773	0.624217	0.523585	0.195595	0.558927	20.4841	984.467	2635.3	2813.18	-69.5159	0.0000000E+000	0.0000000E+000	0.0000000E+000	69.5159	0.0000000E+000	0.0000000E+000	0.0000000E+000	-69.5159	0.0000000E+000	0.0000000E+000	0.0000000E+000	-20.4841	0.0000000E+000	0.0000000E+000	0.0000000E+000	20.4841	2.67688	69.5159	5.73599e-06	5.86831e-06	7.34707e-09	5.86096e-06	0.244388	10203.2	12.7743	10190.4
21544.7	1.8309	0.66893	1.94927	-20.0701	3.63452	0.244704	0.0209649	11.0433	1.30052	1	9	0.00513066	0.00263209	0	4.84772e-06	9.62774e-05	1.1692e-05	13.5148	0.0044421	0.0043191	-0.0010381	-19.998	1.95297	1.83522	0.667892	0.481859	0.17605	0.513013	20.0701	1300.52	3559.59	3789.73	-69.9299	0.0000000E+000	0.0000000E+000	0.0000000E+000	69.9299	0.0000000E+000	0.0000000E+000	0.0000000E+000	-69.9299	0.0000000E+000	0.0000000E+000	0.0000000E+000	-20.0701	0.0000000E+000	0.0000000E+000	0.0000000E+000	20.0701	2.73705	69.9299	-3.84401e-06	5.13019e-06	2.01845e-09	5.12818e-06	0.244608	11672.1	4.59231	11667.5
14678.6	1.99288	0.72672	2.12125	-20.0348	3.89352	0.244712	0.0158616	14.92	1.75114	1	9	0.00460586	0.0021713	0	7.31126e-06	-5.65069e-05	1.36006e-05	-62.9803	0.00626382	0.00284563	0.00558012	-20.1498	2.12583	1.99572	0.7323	0.442893	0.161505	0.471421	20.0348	1751.14	4802.14	5111.46	-69.9652	0.0000000E+000	0.0000000E+000	0.0000000E+000	69.9652	0.0000000E+000	0.0000000E+000	0.0000000E+000	-69.9652	0.0000000E+000	0.0000000E+000	0.0000000E+000	-20.0348	0.0000000E+000	0.0000000E+000	0.0000000E+000	20.0348	2.74229	69.9652	2.46354e-06	3.88153e-06	-8.96292e-10	3.88243e-06	0.244768	15427.9	3.56249	15431.5
10002.2	2.15129	0.782111	2.28905	-19.9789	4.27856	0.244718	0.0212629	20.3449	2.37509	1	9	0.00491494	0.00214715	0	1.15744e-05	-9.4703e-05	2.61262e-05	11.0904	0.0121678	0.0119406	-0.00234057	-19.8225	2.29948	2.16323	0.77977	0.410571	0.149265	0.436862	19.9789	2375.09	6532.99	6951.33	-70.0211	0.0000000E+000	0.0000000E+000	0.0000000E+000	70.0211	0.0000000E+000	0.0000000E+000	0.0000000E+000	-70.0211	0.0000000E+000	0.0000000E+000	0.0000000E+000	-19.9789	0.0000000E+000	0.0000000E+000	0.0000000E+000	19.9789	2.75062	70.0211	4.26314e-06	5.2034e-06	-2.01366e-09	5.20542e-06	0.244812	11509.2	4.45391	11513.6
6810.42	2.34373	0.862326	2.49734	-20.2	4.53752	0.244717	0.0191769	27.1003	3.2312	1	9	0.00474933	0.00190176	0	1.19144e-05	-5.65069e-05	2.51245e-05	149.318	0.0132112	-0.0113618	-0.00674128	-20.1446	2.48435	2.33237	0.855584	0.375798	0.138267	0.400427	20.2	3231.2	8782.14	9357.7	-69.8	0.0000000E+000	0.0000000E+000	0.0000000E+000	69.8	0.0000000E+000	0.0000000E+000	0.0000000E+000	-69.8	0.0000000E+000	0.0000000E+000	0.0000000E+000	-20.2	0.0000000E+000	0.0000000E+000	0.0000000E+000	20.2	2.71792	69.8	3.40003e-07	4.69291e-06	-1.08363e-09	4.69399e-06	0.244774	12761	2.94662	12764
4646	2.51386	0.959963	2.69091	-20.9003	4.80562	0.244687	0.00431414	35.6851	4.54147	1	9	0.00461276	0.0017142	0	1.10281e-05	-0.000190193	9.88051e-06	-83.6126	0.00576392	0.000641234	0.00572814	-21.0092	2.69356	2.5145	0.965691	0.34717	0.132573	0.371621	20.9003	4541.47	11892.8	12730.4	-69.0997	0.0000000E+000	0.0000000E+000	0.0000000E+000	69.0997	0.0000000E+000	0.0000000E+000	0.0000000E+000	-69.0997	0.0000000E+000	0.0000000E+000	0.0000000E+000	-20.9003	0.0000000E+000	0.0000000E+000	0.0000000E+000	20.9003	2.6187	69.0997	-8.86266e-07	1.05561e-06	-8.2052e-10	1.05643e-06	0.244877	56717.4	44.086	56761.5
3163.08	2.74316	1.08636	2.95044	-21.6047	5.17868	0.24448	-0.0349473	46.3167	6.27926	1	9	0.00453506	0.00153708	0	8.40958e-06	0.000306356	1.49353e-06	45.3509	0.000971665	0.00068285	-0.000691266	-21.5874	2.95082	2.74384	1.08566	0.315121	0.124795	0.338932	21.6047	6279.26	15855.8	17053.9	-68.3953	0.0000000E+000	0.0000000E+000	0.0000000E+000	68.3953	0.0000000E+000	0.0000000E+000	0.0000000E+000	-68.3953	0.0000000E+000	0.0000000E+000	0.0000000E+000	-21.6047	0.0000000E+000	0.0000000E+000	0.0000000E+000	21.6047	2.5251	68.3953	-2.61856e-06	-8.54392e-06	-1.07063e-08	-8.53321e-06	0.244174	6995.67	8.76622	6986.91
2155.69	2.99245	1.23157	3.23597	-22.3701	5.62983	0.244676	0.0751635	59.948	8.68328	1	9	0.0045084	0.00139321	0	1.63093e-05	0.000115375	6.79915e-06	126.536	0.00488019	-0.00290531	-0.00392115	-22.3254	3.23179	2.98954	1.22765	0.28577	0.117612	0.309026	22.3701	8683.28	21098.5	22815.5	-67.6299	0.0000000E+000	0.0000000E+000	0.0000000E+000	67.6299	0.0000000E+000	0.0000000E+000	0.0000000E+000	-67.6299	0.0000000E+000	0.0000000E+000	0.0000000E+000	-22.3701	0.0000000E+000	0.0000000E+000	0.0000000E+000	22.3701	2.42978	67.6299	7.89974e-06	1.83907e-05	8.67202e-09	1.83821e-05	0.244561	3255.25	1.53499	3253.72
1468.59	3.27942	1.39574	3.56408	-23.0549	6.54109	0.244631	-0.0228482	77.6452	11.9077	1	10	0.00509679	0.00143004	0	2.31203e-05	1.98852e-05	9.25939e-06	-55.7419	0.00647491	0.00364487	0.00535158	-23.111	3.56954	3.28307	1.40109	0.258167	0.109878	0.280577	23.0549	11907.7	27978.3	30406.9	-66.9451	0.0000000E+000	0.0000000E+000	0.0000000E+000	66.9451	0.0000000E+000	0.0000000E+000	0.0000000E+000	-66.9451	0.0000000E+000	0.0000000E+000	0.0000000E+000	-23.0549	0.0000000E+000	0.0000000E+000	0.0000000E+000	23.0549	2.34959	66.9451	6.81095e-06	-5.58937e-06	-4.54341e-10	-5.58892e-06	0.244611	10706.8	0.870319	10705.9
1000.32	3.59543	1.59339	3.93269	-23.9016	6.99179	0.244629	-0.0225612	99.8524	16.3917	1	10	0.00503951	0.00128144	0	2.09495e-05	0.000115375	8.01116e-06	56.0057	0.00625167	0.00349538	-0.00518322	-23.8119	3.93379	3.59893	1.58821	0.232473	0.103025	0.254279	23.9016	16391.8	36987.4	40456.8	-66.0984	0.0000000E+000	0.0000000E+000	0.0000000E+000	66.0984	0.0000000E+000	0.0000000E+000	0.0000000E+000	-66.0984	0.0000000E+000	0.0000000E+000	0.0000000E+000	-23.9016	0.0000000E+000	0.0000000E+000	0.0000000E+000	23.9016	2.25646	66.0984	-2.17081e-06	-5.51914e-06	-2.60301e-09	-5.51654e-06	0.244514	10842.9	5.11388	10837.8
681.09	3.95999	1.82954	4.36219	-24.7972	7.44155	0.244625	-0.0231575	127.724	22.4672	1	10	0.00500351	0.00114702	0	1.72707e-05	-1.83109e-05	1.59049e-05	-14.9263	0.0138663	0.0133984	0.00357163	-24.7661	4.37585	3.97339	1.83311	0.208106	0.0961462	0.229243	24.7972	22467.2	48629.5	53568.7	-65.2028	0.0000000E+000	0.0000000E+000	0.0000000E+000	65.2028	0.0000000E+000	0.0000000E+000	0.0000000E+000	-65.2028	0.0000000E+000	0.0000000E+000	0.0000000E+000	-24.7972	0.0000000E+000	0.0000000E+000	0.0000000E+000	24.7972	2.16447	65.2028	-3.67876e-06	-5.66489e-06	4.24034e-10	-5.66532e-06	0.244643	10563.5	0.79071	10564.3
463.961	4.39209	2.11645	4.87543	-25.7283	7.89328	0.244617	-0.022196	162.081	30.5436	1	10	0.0049826	0.00102198	0	1.44506e-05	-3.74089e-05	5.24572e-06	37.6241	0.00513289	0.00406541	-0.00313352	-25.6744	4.87773	4.39616	2.11331	0.184776	0.0890392	0.20511	25.7283	30543.6	63384.7	70360	-64.2717	0.0000000E+000	0.0000000E+000	0.0000000E+000	64.2717	0.0000000E+000	0.0000000E+000	0.0000000E+000	-64.2717	0.0000000E+000	0.0000000E+000	0.0000000E+000	-25.7283	0.0000000E+000	0.0000000E+000	0.0000000E+000	25.7283	2.07522	64.2717	-2.82005e-06	-5.42954e-06	8.30329e-10	-5.43037e-06	0.244655	11020.8	1.68539	11022.5
316.316	4.92118	2.45105	5.49779	-26.4762	8.34106	0.244615	-0.022237	205.28	40.8014	1	10	0.0049796	0.000905745	0	1.2168e-05	0.000287258	3.49056e-05	-44.3761	0.0385379	0.0275456	0.0269521	-26.5988	5.53448	4.94873	2.47801	0.162815	0.0810917	0.181891	26.4762	40801.4	81920.4	91518.9	-63.5238	0.0000000E+000	0.0000000E+000	0.0000000E+000	63.5238	0.0000000E+000	0.0000000E+000	0.0000000E+000	-63.5238	0.0000000E+000	0.0000000E+000	0.0000000E+000	-26.4762	0.0000000E+000	0.0000000E+000	0.0000000E+000	26.4762	2.00778	63.5238	-2.28267e-06	-5.43951e-06	-6.38776e-09	-5.43312e-06	0.244328	11000.3	12.918	10987.4
215.345	5.55369	2.80468	6.22172	-26.7943	8.79051	0.244623	-0.0230867	263.513	53.5487	1	10	0.00494751	0.0007952	0	1.03236e-05	-7.5605e-05	9.16779e-06	40.5193	0.0115289	0.00876413	-0.00749038	-26.6964	6.22617	5.56246	2.79719	0.14347	0.0724541	0.160727	26.7943	53548.7	106035	118789	-63.2057	0.0000000E+000	0.0000000E+000	0.0000000E+000	63.2057	0.0000000E+000	0.0000000E+000	0.0000000E+000	-63.2057	0.0000000E+000	0.0000000E+000	0.0000000E+000	-26.7943	0.0000000E+000	0.0000000E+000	0.0000000E+000	26.7943	1.98015	63.2057	-1.84434e-06	-5.64753e-06	1.74547e-09	-5.64928e-06	0.244698	10595.8	3.27483	10599.1
146.737	6.3608	3.14061	7.09388	-26.2776	9.23651	0.244623	-0.0235227	345.355	67.6901	1	10	0.00494819	0.000697529	0	8.7014e-06	-7.5605e-05	5.84311e-06	-58.7377	0.00837687	0.00434723	0.00716055	-26.3139	7.10095	6.36514	3.14777	0.126399	0.0624088	0.140967	26.2776	67690.1	137095	152896	-63.7224	0.0000000E+000	0.0000000E+000	0.0000000E+000	63.7224	0.0000000E+000	0.0000000E+000	0.0000000E+000	-63.7224	0.0000000E+000	0.0000000E+000	0.0000000E+000	-26.2776	0.0000000E+000	0.0000000E+000	0.0000000E+000	26.2776	2.02534	63.7224	-1.62223e-06	-5.75419e-06	1.77843e-09	-5.75597e-06	0.244698	10399.4	3.21413	10402.6
100.032	7.29342	3.41308	8.05252	-25.0781	9.68784	0.244618	-0.0207837	466.159	83.7461	1	10	0.00494192	0.000613711	0	5.44264e-06	0.000306356	9.37971e-06	-37.2008	0.0152836	0.0121737	0.00924062	-25.1009	8.06746	7.30559	3.42232	0.112478	0.052636	0.124185	25.0781	83746.1	178957	197583	-64.9219	0.0000000E+000	0.0000000E+000	0.0000000E+000	64.9219	0.0000000E+000	0.0000000E+000	0.0000000E+000	-64.9219	0.0000000E+000	0.0000000E+000	0.0000000E+000	-25.0781	0.0000000E+000	0.0000000E+000	0.0000000E+000	25.0781	2.1369	64.9219	-3.25876e-06	-5.08407e-06	-6.3672e-09	-5.07771e-06	0.244312	11769.7	14.7402	11755
68.104	8.31313	3.54815	9.03866	-23.1134	10.1504	0.244629	-0.0187937	658.637	101.494	1	10	0.00493845	0.000546369	0	2.61466e-06	-9.4703e-05	8.12901e-06	-33.6599	0.0148782	0.0123838	0.00824643	-23.1306	9.05329	8.32551	3.55639	0.101755	0.0434303	0.110636	23.1134	101494	237796	258549	-66.8866	0.0000000E+000	0.0000000E+000	0.0000000E+000	66.8866	0.0000000E+000	0.0000000E+000	0.0000000E+000	-66.8866	0.0000000E+000	0.0000000E+000	0.0000000E+000	-23.1134	0.0000000E+000	0.0000000E+000	0.0000000E+000	23.1134	2.34295	66.8866	-2.82798e-06	-4.59749e-06	1.77982e-09	-4.59927e-06	0.244724	13016.5	5.03908	13021.6
46.4415	9.35509	3.50434	9.9899	-20.5355	10.5866	0.244615	-0.0243612	977.929	120.336	1	10	0.00493558	0.000494057	0	6.83228e-08	0.000115375	6.44379e-06	-98.5839	0.0130426	-0.00194671	0.0128965	-20.6087	9.99261	9.35315	3.51724	0.0937401	0.0351143	0.100101	20.5355	120336	321247	343046	-69.4645	0.0000000E+000	0.0000000E+000	0.0000000E+000	69.4645	0.0000000E+000	0.0000000E+000	0.0000000E+000	-69.4645	0.0000000E+000	0.0000000E+000	0.0000000E+000	-20.5355	0.0000000E+000	0.0000000E+000	0.0000000E+000	20.5355	2.66957	69.4645	-2.54634e-06	-5.95912e-06	-2.81068e-09	-5.95631e-06	0.2445	10041.2	4.73603	10036.5
31.6296	10.3214	3.29638	10.835	-17.7121	11.0166	0.244608	-0.0264108	1526.48	141.288	1	10	0.004931	0.000455098	0	-3.03375e-06	0.000229964	1.05063e-05	19.4337	0.0230858	0.0217705	-0.00768101	-17.6385	10.8534	10.3432	3.2887	0.0879185	0.0280788	0.0922934	17.7121	141288	442392	464406	-72.2879	0.0000000E+000	0.0000000E+000	0.0000000E+000	72.2879	0.0000000E+000	0.0000000E+000	0.0000000E+000	-72.2879	0.0000000E+000	0.0000000E+000	0.0000000E+000	-17.7121	0.0000000E+000	0.0000000E+000	0.0000000E+000	17.7121	3.13114	72.2879	-3.10207e-06	-6.46029e-06	-6.07352e-09	-6.45422e-06	0.244378	9261.67	8.70718	9252.96
21.5517	11.1845	3.0516	11.5933	-15.2613	11.4374	0.244596	-0.0285014	2419.98	167.669	1	10	0.00493646	0.000425803	0	-6.45726e-06	0.00026816	8.74407e-06	33.9649	0.0205355	0.0170317	-0.0114729	-15.1845	11.6067	11.2015	3.04012	0.083215	0.0227046	0.0862568	15.2613	167669	614525	636988	-74.7387	0.0000000E+000	0.0000000E+000	0.0000000E+000	74.7387	0.0000000E+000	0.0000000E+000	0.0000000E+000	-74.7387	0.0000000E+000	0.0000000E+000	0.0000000E+000	-15.2613	0.0000000E+000	0.0000000E+000	0.0000000E+000	15.2613	3.66512	74.7387	-3.42351e-06	-6.97132e-06	-7.64292e-09	-6.96368e-06	0.244328	8581.89	9.40865	8572.48
14.6852	11.9226	2.76226	12.2384	-13.0443	11.8982	0.244619	-0.0182981	3923.53	199.873	1	10	0.00494026	0.000403668	0	-1.04963e-05	0.000401846	8.0085e-06	-99.6927	0.0198393	-0.00334022	0.0195561	-13.137	12.2396	11.9193	2.78181	0.0796014	0.0184422	0.0817098	13.0443	199873	862705	885556	-76.9557	0.0000000E+000	0.0000000E+000	0.0000000E+000	76.9557	0.0000000E+000	0.0000000E+000	0.0000000E+000	-76.9557	0.0000000E+000	0.0000000E+000	0.0000000E+000	-13.0443	0.0000000E+000	0.0000000E+000	0.0000000E+000	13.0443	4.31626	76.9557	-4.03904e-06	-4.47606e-06	-7.35301e-09	-4.46871e-06	0.244217	13368.6	21.9611	13346.6
10.0032	12.5949	2.47653	12.8361	-11.1241	12.5938	0.244665	-0.0137164	6424.48	239.144	1	11	0.00493447	0.000384422	0	-1.16576e-05	0.000153571	1.11133e-05	-21.4575	0.028909	0.0269053	0.0105752	-11.1472	12.8645	12.6218	2.4871	0.0764417	0.0150307	0.0779054	11.1241	239144	1.21622e+06	1.23951e+06	-78.8759	0.0000000E+000	0.0000000E+000	0.0000000E+000	78.8759	0.0000000E+000	0.0000000E+000	0.0000000E+000	-78.8759	0.0000000E+000	0.0000000E+000	0.0000000E+000	-11.1241	0.0000000E+000	0.0000000E+000	0.0000000E+000	11.1241	5.08572	78.8759	-1.16128e-06	-3.35592e-06	-2.10644e-09	-3.35381e-06	0.244511	17837.4	11.1962	17826.2
6.81719	13.1606	2.21361	13.3455	-9.54778	12.9335	0.24466	-0.0139495	10546.6	290.167	1	11	0.00493698	0.000369936	0	-1.02005e-05	9.62774e-05	1.08726e-05	-35.6629	0.0293906	0.0238787	0.0171352	-9.60321	13.3719	13.1845	2.23075	0.0738937	0.0124289	0.0749317	9.54778	290167	1.72513e+06	1.74936e+06	-80.4522	0.0000000E+000	0.0000000E+000	0.0000000E+000	80.4522	0.0000000E+000	0.0000000E+000	0.0000000E+000	-80.4522	0.0000000E+000	0.0000000E+000	0.0000000E+000	-9.54778	0.0000000E+000	0.0000000E+000	0.0000000E+000	9.54778	5.9453	80.4522	1.45708e-06	-3.41289e-06	-1.34303e-09	-3.41155e-06	0.244564	17538.9	6.90183	17532
4.63925	13.6314	1.98562	13.7753	-8.28767	13.4174	0.24466	-0.0126789	17277.3	358.976	1	11	0.00493253	0.000358071	0	-1.52839e-05	0.000401846	8.7138e-06	41.7071	0.0243354	0.0181677	-0.0161909	-8.21023	13.791	13.6496	1.96943	0.0718356	0.0104639	0.0725937	8.28767	358976	2.4644e+06	2.49041e+06	-81.7123	0.0000000E+000	0.0000000E+000	0.0000000E+000	81.7123	0.0000000E+000	0.0000000E+000	0.0000000E+000	-81.7123	0.0000000E+000	0.0000000E+000	0.0000000E+000	-8.28767	0.0000000E+000	0.0000000E+000	0.0000000E+000	8.28767	6.86509	81.7123	-5.08341e-06	-3.10203e-06	-5.09497e-09	-3.09693e-06	0.244259	19296.7	31.6941	19265
3.1604	14.0759	1.73422	14.1823	-7.02373	14.1104	0.244652	-0.0128895	29038.5	434.198	1	11	0.00493808	0.000348185	0	-2.09877e-05	7.71793e-05	7.14084e-06	-25.7528	0.0205087	0.0184717	0.00891084	-7.0503	14.2018	14.0944	1.74313	0.0699812	0.00862203	0.0705103	7.02373	434198	3.52419e+06	3.55084e+06	-82.9763	0.0000000E+000	0.0000000E+000	0.0000000E+000	82.9763	0.0000000E+000	0.0000000E+000	0.0000000E+000	-82.9763	0.0000000E+000	0.0000000E+000	0.0000000E+000	-7.02373	0.0000000E+000	0.0000000E+000	0.0000000E+000	7.02373	8.11656	82.9763	-5.70384e-06	-3.15344e-06	-9.94803e-10	-3.15245e-06	0.244575	18980.7	5.98777	18974.7
2.15577	14.4345	1.53503	14.5159	-6.07029	15.114	0.244655	-0.0128874	48095.2	537.836	1	11	0.0049377	0.000340159	0	-2.19904e-05	0.00017267	5.28491e-06	7.90636	0.0155366	0.0153889	-0.00213713	-6.0555	14.5309	14.4499	1.53289	0.0685039	0.00728503	0.0688902	6.07029	537836	5.05747e+06	5.08599e+06	-83.9297	0.0000000E+000	0.0000000E+000	0.0000000E+000	83.9297	0.0000000E+000	0.0000000E+000	0.0000000E+000	-83.9297	0.0000000E+000	0.0000000E+000	0.0000000E+000	-6.07029	0.0000000E+000	0.0000000E+000	0.0000000E+000	6.07029	9.40338	83.9297	-1.00263e-06	-3.15297e-06	-2.22527e-09	-3.15075e-06	0.244482	18984	13.3983	18970.6
1.46631	14.71	1.36576	14.7732	-5.30448	16.5756	0.244657	-0.0125027	79472.9	679.232	1	11	0.00493508	0.000334055	0	-1.91528e-05	0.000134473	4.04064e-06	-59.2638	0.0120957	0.00618196	0.0103966	-5.3424	14.7804	14.7162	1.37616	0.0674001	0.00625783	0.06769	5.30448	679232	7.31568e+06	7.34714e+06	-84.6955	0.0000000E+000	0.0000000E+000	0.0000000E+000	84.6955	0.0000000E+000	0.0000000E+000	0.0000000E+000	-84.6955	0.0000000E+000	0.0000000E+000	0.0000000E+000	-5.30448	0.0000000E+000	0.0000000E+000	0.0000000E+000	5.30448	10.7705	84.6955	2.83758e-06	-3.05887e-06	-1.68128e-09	-3.05719e-06	0.244523	19568.4	10.7556	19557.6
1.00006	14.9494	1.23797	15.0005	-4.73389	18.7046	0.244673	-0.010413	128553	875.562	1	11	0.00493692	0.000329116	0	-1.7443e-05	-1.83109e-05	2.68391e-06	80.0446	0.00815491	0.00140983	-0.00803212	-4.70288	15.0013	14.9508	1.22993	0.0664368	0.00550167	0.0666642	4.73389	875562	1.05731e+07	1.06093e+07	-85.2661	0.0000000E+000	0.0000000E+000	0.0000000E+000	85.2661	0.0000000E+000	0.0000000E+000	0.0000000E+000	-85.2661	0.0000000E+000	0.0000000E+000	0.0000000E+000	-4.73389	0.0000000E+000	0.0000000E+000	0.0000000E+000	4.73389	12.0758	85.2661	1.70983e-06	-2.5478e-06	1.90672e-10	-2.54799e-06	0.244692	23496.8	1.75845	23498.6
0.681362	15.1613	1.1851	15.2075	-4.46951	21.8175	0.244674	-0.00848701	197100	1196.96	1	11	0.00493648	0.000324608	0	-2.29186e-05	0.000401846	3.04488e-06	25.4635	0.00938018	0.00846898	-0.00403287	-4.45188	15.2156	15.1697	1.18107	0.065557	0.00512434	0.065757	4.46951	1.19696e+06	1.5313e+07	1.53597e+07	-85.5305	0.0000000E+000	0.0000000E+000	0.0000000E+000	85.5305	0.0000000E+000	0.0000000E+000	0.0000000E+000	-85.5305	0.0000000E+000	0.0000000E+000	0.0000000E+000	-4.46951	0.0000000E+000	0.0000000E+000	0.0000000E+000	4.46951	12.7932	85.5305	-5.47567e-06	-2.07655e-06	-3.41047e-09	-2.07314e-06	0.244272	28829.3	47.3483	28781.9
0.464091	15.3251	1.21966	15.3735	-4.55036	26.3729	0.244665	-0.00779771	281175	1769.74	1	11	0.00493739	0.000321161	0	-4.48869e-05	0.00026816	2.35731e-06	-10.889	0.00733996	0.0072078	0.00138657	-4.55338	15.3808	15.3323	1.22105	0.0648418	0.00516051	0.0650468	4.55036	1.76974e+06	2.22368e+07	2.23071e+07	-85.4496	0.0000000E+000	0.0000000E+000	0.0000000E+000	85.4496	0.0000000E+000	0.0000000E+000	0.0000000E+000	-85.4496	0.0000000E+000	0.0000000E+000	0.0000000E+000	-4.55036	0.0000000E+000	0.0000000E+000	0.0000000E+000	4.55036	12.565	85.4496	-2.19683e-05	-1.90783e-06	-2.09103e-09	-1.90574e-06	0.244397	31376.5	34.3895	31342.1
0.316193	15.474	1.33005	15.5311	-4.91273	33.049	0.244671	-0.00677006	378442	2775.46	1	11	0.00493806	0.000317948	0	-8.6505e-05	0.000210866	1.83424e-06	58.0717	0.00576899	0.00305097	-0.0048962	-4.89377	15.5337	15.4771	1.32516	0.0641506	0.005514	0.0643871	4.91273	2.77546e+06	3.229e+07	3.24091e+07	-85.0873	0.0000000E+000	0.0000000E+000	0.0000000E+000	85.0873	0.0000000E+000	0.0000000E+000	0.0000000E+000	-85.0873	0.0000000E+000	0.0000000E+000	0.0000000E+000	-4.91273	0.0000000E+000	0.0000000E+000	0.0000000E+000	4.91273	11.6341	85.0873	-4.16181e-05	-1.65644e-06	-1.42757e-09	-1.65501e-06	0.24446	36140.2	31.1468	36109
0.215268	15.6763	1.54753	15.7525	-5.63786	42.8424	0.244663	-0.00814531	477751	4610.87	1	11	0.00493789	0.000313468	0	-0.000144455	9.62774e-05	2.5786e-06	-59.0778	0.00822603	0.00422714	0.00705684	-5.66189	15.7574	15.6805	1.55459	0.063175	0.00623652	0.0634821	5.63786	4.61087e+06	4.67075e+07	4.69345e+07	-84.3621	0.0000000E+000	0.0000000E+000	0.0000000E+000	84.3621	0.0000000E+000	0.0000000E+000	0.0000000E+000	-84.3621	0.0000000E+000	0.0000000E+000	0.0000000E+000	-5.63786	0.0000000E+000	0.0000000E+000	0.0000000E+000	5.63786	10.1299	84.3621	-5.79501e-05	-1.99285e-06	-7.84209e-10	-1.99207e-06	0.244567	30037.3	11.82	30025.5
0.146929	15.9064	1.9352	16.0237	-6.9366	64.0428	0.244656	-0.00917911	559742	8164.18	1	12	0.00494245	0.000308446	0	-0.000220785	0.000229964	1.12693e-06	-119.448	0.00365359	-0.0017962	0.00318157	-6.94867	16.0223	15.9046	1.93838	0.0619507	0.00753701	0.0624075	6.9366	8.16418e+06	6.71057e+07	6.76005e+07	-83.0634	0.0000000E+000	0.0000000E+000	0.0000000E+000	83.0634	0.0000000E+000	0.0000000E+000	0.0000000E+000	-83.0634	0.0000000E+000	0.0000000E+000	0.0000000E+000	-6.9366	0.0000000E+000	0.0000000E+000	0.0000000E+000	6.9366	8.21953	83.0634	-7.633e-05	-2.24572e-06	-2.11086e-09	-2.24361e-06	0.244426	26653.5	25.0529	26628.5
0.0999041	16.2236	2.50402	16.4157	-8.77406	85.119	0.244658	-0.0105346	636208	14803.3	1	12	0.00493328	0.000300523	0	-0.000251946	-1.83109e-05	2.09556e-06	10.9281	0.00697304	0.00684659	-0.00132192	-8.76586	16.4222	16.2304	2.5027	0.0602046	0.00929225	0.0609175	8.77406	1.48033e+07	9.59105e+07	9.70462e+07	-81.2259	0.0000000E+000	0.0000000E+000	0.0000000E+000	81.2259	0.0000000E+000	0.0000000E+000	0.0000000E+000	-81.2259	0.0000000E+000	0.0000000E+000	0.0000000E+000	-8.77406	0.0000000E+000	0.0000000E+000	0.0000000E+000	8.77406	6.47901	81.2259	-3.1161e-05	-2.57738e-06	1.92898e-10	-2.57758e-06	0.244677	23224.2	1.73816	23225.9
0.0680626	16.5736	3.23638	16.8866	-11.0493	116.046	0.244664	-0.0101082	722524	26539.1	1	12	0.00493992	0.000292535	0	-0.000246843	0.00036365	1.32702e-06	52.9445	0.00453628	0.00273351	-0.00362019	-11.0355	16.8886	16.5763	3.23276	0.0581208	0.0113495	0.0592186	11.0493	2.65391e+07	1.35907e+08	1.38474e+08	-78.9507	0.0000000E+000	0.0000000E+000	0.0000000E+000	78.9507	0.0000000E+000	0.0000000E+000	0.0000000E+000	-78.9507	0.0000000E+000	0.0000000E+000	0.0000000E+000	-11.0493	0.0000000E+000	0.0000000E+000	0.0000000E+000	11.0493	5.12102	78.9507	5.10307e-06	-2.47312e-06	-3.67586e-09	-2.46944e-06	0.2443	24204.4	35.9756	24168.5
0.0464052	17.0534	4.08552	17.536	-13.4725	161.398	0.244665	-0.00788153	839473	45566.1	1	12	0.00494306	0.000281882	0	-0.000175818	5.80813e-05	1.78043e-06	25.1416	0.00631624	0.00571784	-0.0026835	-13.4597	17.5409	17.0591	4.08283	0.0554564	0.0132858	0.0570257	13.4725	4.55661e+07	1.90198e+08	1.9558e+08	-76.5275	0.0000000E+000	0.0000000E+000	0.0000000E+000	76.5275	0.0000000E+000	0.0000000E+000	0.0000000E+000	-76.5275	0.0000000E+000	0.0000000E+000	0.0000000E+000	-13.4725	0.0000000E+000	0.0000000E+000	0.0000000E+000	13.4725	4.17411	76.5275	7.10248e-05	-1.92834e-06	-4.57769e-10	-1.92788e-06	0.244607	31042.9	7.36929	31035.5
0.0315922	17.782	5.35562	18.571	-16.7613	228.002	0.244659	-0.00688858	940655	78230.9	1	12	0.00493449	0.000265709	0	-0.000129162	0.000306356	2.20755e-06	41.3319	0.00830816	0.00623857	-0.00548687	-16.7396	18.5754	17.7883	5.35013	0.0515596	0.0155288	0.0538473	16.7613	7.82309e+07	2.59746e+08	2.71272e+08	-73.2387	0.0000000E+000	0.0000000E+000	0.0000000E+000	73.2387	0.0000000E+000	0.0000000E+000	0.0000000E+000	-73.2387	0.0000000E+000	0.0000000E+000	0.0000000E+000	-16.7613	0.0000000E+000	0.0000000E+000	0.0000000E+000	16.7613	3.32025	73.2387	4.66563e-05	-1.68536e-06	-2.11036e-09	-1.68325e-06	0.244353	35516.7	44.473	35472.2
0.0215268	18.6397	7.21282	19.9866	-21.1544	325.741	0.244659	-0.0066279	1.02503e+06	133496	1	12	0.00493831	0.000247081	0	-0.000286132	7.71793e-05	1.598e-06	34.9109	0.00646753	0.00530365	-0.00370138	-21.1391	19.9902	18.645	7.20912	0.0466618	0.0180563	0.0500335	21.1544	1.33496e+08	3.44987e+08	3.69915e+08	-68.8456	0.0000000E+000	0.0000000E+000	0.0000000E+000	68.8456	0.0000000E+000	0.0000000E+000	0.0000000E+000	-68.8456	0.0000000E+000	0.0000000E+000	0.0000000E+000	-21.1544	0.0000000E+000	0.0000000E+000	0.0000000E+000	21.1544	2.58425	68.8456	-0.00015697	-1.62158e-06	-5.11537e-10	-1.62107e-06	0.244582	36913.5	11.6446	36901.9
0.0146812	19.5997	9.56558	21.8094	-26.0146	469.042	0.244659	-0.0073885	1.13331e+06	218014	1	12	0.00493662	0.000226353	0	-0.000866415	0.00017267	2.39654e-06	-21.8982	0.0105876	0.00982369	0.00394874	-26.0126	21.8199	19.6095	9.56953	0.0412063	0.0201106	0.0458519	26.0146	2.18014e+08	4.46707e+08	4.97069e+08	-63.9854	0.0000000E+000	0.0000000E+000	0.0000000E+000	63.9854	0.0000000E+000	0.0000000E+000	0.0000000E+000	-63.9854	0.0000000E+000	0.0000000E+000	0.0000000E+000	-26.0146	0.0000000E+000	0.0000000E+000	0.0000000E+000	26.0146	2.04898	63.9854	-0.000580284	-1.80766e-06	-1.27577e-09	-1.80639e-06	0.244486	33113.4	23.37	33090.1
0.0100092	21.0804	12.4473	24.481	-30.5604	679.224	0.24465	-0.00857454	1.27746e+06	330247	1	12	0.00493467	0.000201571	0	-0.00196024	0.000153571	1.03557e-06	19.0579	0.0051375	0.00485591	-0.00167751	-30.5513	24.4843	21.0853	12.4456	0.035174	0.020769	0.040848	30.5604	3.30247e+08	5.59298e+08	6.49521e+08	-59.4396	0.0000000E+000	0.0000000E+000	0.0000000E+000	59.4396	0.0000000E+000	0.0000000E+000	0.0000000E+000	-59.4396	0.0000000E+000	0.0000000E+000	0.0000000E+000	-30.5604	0.0000000E+000	0.0000000E+000	0.0000000E+000	30.5604	1.69358	59.4396	-0.00109383	-2.09776e-06	-1.31681e-09	-2.09645e-06	0.244496	28532.1	17.9102	28514.2