File: txt/18707_R307_UA701_SOC00_C04.mpt
EC-Lab ASCII FILE
Nb header lines : 65

Potentio Electrochemical Impedance Spectroscopy

Run on channel : 4 (SN 66756)
User :
CE vs. WE compliance from -10 V to 10 V
Electrode connection : standard
Potential control : Ewe
Ewe ctrl range : min = -10.00 V, max = 10.00 V
Safety Limits :
	Do not start on E overload
Acquisition started on : 10/28/2025 15:30:28.753
Technique started on : 10/28/2025 15:30:30.347
Loaded Setting File :  C:\Users\Celltest\OneDrive - store-dot.com\Documents\EC-Lab\Data\@Biologic Test Protocols\anode half cell EIS SOC00.mps
Saved on :
	File : 18707_R307_UA701_SOC00_C04.mpr
	Directory : C:\Users\Celltest\OneDrive - store-dot.com\Documents\EC-Lab\Data\Anna\
	Host : 169.254.61.224
Device : VMP-3e (SN .003165)
Address : USB
EC-LAB for windows v11.62 (software)
Internet server v27.00 (firmware)
Command interpretor v12.03 (firmware)
Electrode material :
Initial state :
Electrolyte :
Comments :
Electrode surface area : 0.001 cm²
Characteristic mass : 0.001 g
Equivalent Weight : 0.000 g/eq.
Density : 0.000 g/cm3
Volume (V) : 0.001 cm³
Record Ece
Cycle Definition : Charge/Discharge alternance
Mode                Single sine
E (V)               0.0000
vs.                 Eoc
tE (h:m:s)          0:00:0.0000
record              0
dI                  0.000
unit dI             mA
dt (s)              0.000
fi                  100.000
unit fi             kHz
ff                  10.000
unit ff             mHz
Nd                  6
Points              per decade
spacing             Logarithmic
Va (mV)             5.0
pw                  0.10
Na                  2
corr                0
E range min (V)     -10.000
E range max (V)     10.000
I Range             Auto
Bandwidth           5
nc cycles           0
goto Ns'            0
nr cycles           0
inc. cycle          0

freq/Hz	Re(Z)/Ohm	-Im(Z)/Ohm	|Z|/Ohm	Phase(Z)/deg	time/s	<Ewe>/V	<I>/mA	Cs/µF	Cp/µF	cycle number	I Range	|Ewe|/V	|I|/A	Ns	(Q-Qo)/mA.h	<Ece>/V	|Ece|/V	Phase(Zce)/deg	|Zce|/Ohm	Re(Zce)/Ohm	-Im(Zce)/Ohm	Phase(Zwe-ce)/deg	|Zwe-ce|/Ohm	Re(Zwe-ce)/Ohm	-Im(Zwe-ce)/Ohm	Re(Y)/Ohm-1	Im(Y)/Ohm-1	|Y|/Ohm-1	Phase(Y)/deg	Re(C)/nF	Im(C)/nF	|C|/nF	Phase(C)/deg	Re(M)	Im(M)	|M|	Phase(M)/deg	Re(Permittivity)	Im(Permittivity)	|Permittivity|	Phase(Permittivity)/deg	Re(Resistivity)/Ohm.cm	Im(Resistivity)/Ohm.cm	|Resistivity|/Ohm.cm	Phase(Resistivity)/deg	Re(Conductivity)/mS/cm	Im(Conductivity)/mS/cm	|Conductivity|/mS/cm	Phase(Conductivity)/deg	Tan(Delta)	Loss Angle(Delta)/deg	dq/mA.h	Pwe/W	Pce/W	Pwe-ce/W	<Ewe-Ece>/V	Rwe/Ohm	Rce/Ohm	Rwe-ce/Ohm		Ewe-Ece/V
100004	1.28068	0.37237	1.33372	-16.2123	1.59356	0.244056	0.038692	4.27394	0.333157	1	9	0.0047757	0.00358074	0	1.08998e-05	2.27182e-05	2.45922e-05	48.0662	0.00686791	0.00458963	-0.00510916	-15.9471	1.33672	1.28527	0.367261	0.719966	0.209337	0.749782	16.2123	333.157	1145.82	1193.27	-73.7877	0.0000000E+000	0.0000000E+000	0.0000000E+000	73.7877	0.0000000E+000	0.0000000E+000	0.0000000E+000	-73.7877	0.0000000E+000	0.0000000E+000	0.0000000E+000	-16.2123	0.0000000E+000	0.0000000E+000	0.0000000E+000	16.2123	3.43927	73.7877	1.08998e-05	9.44301e-06	8.79014e-10	9.44213e-06	0.244033	6307.65	0.587155	6307.07
68132	1.37941	0.427224	1.44405	-17.2086	1.97654	0.244045	0.0410044	5.46781	0.478585	1	9	0.00547975	0.0037947	0	1.23614e-05	-0.000111051	2.61896e-05	43.5725	0.00690163	0.00500025	-0.00475709	-16.9701	1.44743	1.38441	0.422467	0.661496	0.204876	0.692496	17.2086	478.585	1545.24	1617.66	-72.7914	0.0000000E+000	0.0000000E+000	0.0000000E+000	72.7914	0.0000000E+000	0.0000000E+000	0.0000000E+000	-72.7914	0.0000000E+000	0.0000000E+000	0.0000000E+000	-17.2086	0.0000000E+000	0.0000000E+000	0.0000000E+000	17.2086	3.22877	72.7914	1.46156e-06	1.00069e-05	-4.5536e-09	1.00115e-05	0.244156	5951.67	2.70828	5954.38
46420.4	1.4841	0.474871	1.55823	-17.7432	2.48354	0.244048	0.0282861	7.21999	0.670542	1	9	0.00509	0.00326654	0	1.69835e-05	-0.000493251	1.52681e-05	14.0059	0.0046741	0.00453514	-0.00113123	-17.653	1.5622	1.48864	0.473739	0.611229	0.195576	0.641756	17.7432	670.542	2095.63	2200.3	-72.2568	0.0000000E+000	0.0000000E+000	0.0000000E+000	72.2568	0.0000000E+000	0.0000000E+000	0.0000000E+000	-72.2568	0.0000000E+000	0.0000000E+000	0.0000000E+000	-17.7432	0.0000000E+000	0.0000000E+000	0.0000000E+000	17.7432	3.12528	72.2568	4.62209e-06	6.90317e-06	-1.39521e-08	6.91712e-06	0.244542	8627.86	17.4379	8645.3
31621.1	1.60283	0.522091	1.68571	-18.0421	2.86652	0.244044	0.0262347	9.64043	0.924744	1	9	0.00548622	0.00325454	0	2.81624e-05	-0.000283041	1.09171e-05	61.4799	0.00335443	0.00160163	-0.00294737	-17.93	1.68633	1.60443	0.519144	0.564052	0.183729	0.593221	18.0421	924.744	2838.97	2985.79	-71.9579	0.0000000E+000	0.0000000E+000	0.0000000E+000	71.9579	0.0000000E+000	0.0000000E+000	0.0000000E+000	-71.9579	0.0000000E+000	0.0000000E+000	0.0000000E+000	-18.0421	0.0000000E+000	0.0000000E+000	0.0000000E+000	18.0421	3.07001	71.9579	1.11789e-05	6.40242e-06	-7.4255e-09	6.40985e-06	0.244327	9302.33	10.7888	9313.12
21544.7	1.72724	0.573321	1.81991	-18.3625	3.37555	0.244048	0.0305239	12.8849	1.27873	1	9	0.00509993	0.0028023	0	2.168e-05	-0.000130161	3.99423e-06	27.676	0.00142534	0.00126227	-0.000662029	-18.3302	1.8209	1.72851	0.572659	0.5215	0.1731	0.549478	18.3625	1278.73	3852.43	4059.1	-71.6375	0.0000000E+000	0.0000000E+000	0.0000000E+000	71.6375	0.0000000E+000	0.0000000E+000	0.0000000E+000	-71.6375	0.0000000E+000	0.0000000E+000	0.0000000E+000	-18.3625	0.0000000E+000	0.0000000E+000	0.0000000E+000	18.3625	3.0127	71.6375	-6.48237e-06	7.44928e-06	-3.97303e-09	7.45326e-06	0.244178	7995.3	4.26425	7999.56
14678.6	1.8601	0.63281	1.9648	-18.7884	3.75856	0.244041	0.0250412	17.1341	1.77735	1	9	0.00547738	0.00278776	0	2.45983e-05	-0.000244821	5.99351e-06	57.5356	0.00214994	0.00115403	-0.00181396	-18.7275	1.96531	1.86126	0.630996	0.481838	0.163922	0.508958	18.7884	1777.35	5224.41	5518.46	-71.2116	0.0000000E+000	0.0000000E+000	0.0000000E+000	71.2116	0.0000000E+000	0.0000000E+000	0.0000000E+000	-71.2116	0.0000000E+000	0.0000000E+000	0.0000000E+000	-18.7884	0.0000000E+000	0.0000000E+000	0.0000000E+000	18.7884	2.93943	71.2116	2.91827e-06	6.11107e-06	-6.13061e-09	6.1172e-06	0.244286	9745.57	9.77674	9755.35
10002.2	2.00192	0.702626	2.12165	-19.3398	4.26552	0.244034	0.0188498	22.6464	2.48372	1	9	0.00506888	0.00238913	0	2.2938e-05	0.000271148	6.04219e-06	52.759	0.00252903	0.00153049	-0.00201336	-19.2748	2.12242	2.00345	0.700612	0.444736	0.156091	0.471332	19.3398	2483.72	7076.61	7499.82	-70.6602	0.0000000E+000	0.0000000E+000	0.0000000E+000	70.6602	0.0000000E+000	0.0000000E+000	0.0000000E+000	-70.6602	0.0000000E+000	0.0000000E+000	0.0000000E+000	-19.3398	0.0000000E+000	0.0000000E+000	0.0000000E+000	19.3398	2.8492	70.6602	-1.66025e-06	4.60001e-06	5.11109e-09	4.5949e-06	0.243763	12946.2	14.3846	12931.9
6810.42	2.15547	0.803101	2.30022	-20.4348	4.65052	0.244031	0.0191109	29.0989	3.54714	1	9	0.0053762	0.00233725	0	3.16746e-05	-0.000130161	0.000105323	18.5921	0.0450625	0.0427108	-0.0143672	-19.7386	2.3354	2.19818	0.788734	0.407383	0.151786	0.434741	20.4348	3547.14	9520.27	10159.6	-69.5652	0.0000000E+000	0.0000000E+000	0.0000000E+000	69.5652	0.0000000E+000	0.0000000E+000	0.0000000E+000	-69.5652	0.0000000E+000	0.0000000E+000	0.0000000E+000	-20.4348	0.0000000E+000	0.0000000E+000	0.0000000E+000	20.4348	2.68393	69.5652	8.73661e-06	4.66366e-06	-2.4875e-09	4.66614e-06	0.244161	12769.2	6.81084	12776
4646	2.33795	0.878883	2.49769	-20.6022	5.04559	0.244038	0.0198568	38.9771	4.82607	1	9	0.00543504	0.00217603	0	3.60418e-05	-1.55017e-05	1.01294e-05	-47.2871	0.00465501	0.00315761	0.00342033	-20.6501	2.50185	2.34111	0.882303	0.374764	0.140881	0.40037	20.6022	4826.07	12838	13715.2	-69.3978	0.0000000E+000	0.0000000E+000	0.0000000E+000	69.3978	0.0000000E+000	0.0000000E+000	0.0000000E+000	-69.3978	0.0000000E+000	0.0000000E+000	0.0000000E+000	-20.6022	0.0000000E+000	0.0000000E+000	0.0000000E+000	20.6022	2.66014	69.3978	4.36721e-06	4.84583e-06	-3.07815e-10	4.84614e-06	0.244054	12289.9	0.780672	12290.7
3163.08	2.54296	0.997573	2.73163	-21.4195	5.59663	0.244035	0.013106	50.4389	6.72683	1	9	0.00519986	0.00190357	0	3.44116e-05	0.000156488	1.14207e-05	-65.4071	0.00599963	0.00249685	0.00545539	-21.5067	2.73595	2.54546	1.00303	0.340797	0.13369	0.366082	21.4195	6726.83	17147.7	18419.9	-68.5805	0.0000000E+000	0.0000000E+000	0.0000000E+000	68.5805	0.0000000E+000	0.0000000E+000	0.0000000E+000	-68.5805	0.0000000E+000	0.0000000E+000	0.0000000E+000	-21.4195	0.0000000E+000	0.0000000E+000	0.0000000E+000	21.4195	2.54915	68.5805	-1.63024e-06	3.19832e-06	2.05093e-09	3.19627e-06	0.243878	18620	11.9401	18608.1
2155.69	2.76623	1.11948	2.98417	-22.0329	6.26177	0.244034	0.0140012	65.9503	9.28117	1	9	0.00508587	0.00170428	0	3.77264e-05	-0.000340371	4.93475e-06	-80.3782	0.00289551	0.000483966	0.00285477	-22.0802	2.98569	2.76672	1.12234	0.310628	0.12571	0.335101	22.0329	9281.17	22933.7	24740.6	-67.9671	0.0000000E+000	0.0000000E+000	0.0000000E+000	67.9671	0.0000000E+000	0.0000000E+000	0.0000000E+000	-67.9671	0.0000000E+000	0.0000000E+000	0.0000000E+000	-22.0329	0.0000000E+000	0.0000000E+000	0.0000000E+000	22.0329	2.471	67.9671	3.31483e-06	3.41676e-06	-4.76559e-09	3.42152e-06	0.244374	17429.6	24.3102	17453.9
1468.59	3.02043	1.30218	3.28918	-23.3221	6.71304	0.244038	0.011726	83.2239	13.0442	1	9	0.00525016	0.00159619	0	3.84848e-05	-1.55017e-05	3.99606e-06	-70.0588	0.00250349	0.000853829	0.00235339	-23.3538	3.29089	3.02129	1.30454	0.279187	0.120364	0.304027	23.3221	13044.2	30256.2	32948.2	-66.6779	0.0000000E+000	0.0000000E+000	0.0000000E+000	66.6779	0.0000000E+000	0.0000000E+000	0.0000000E+000	-66.6779	0.0000000E+000	0.0000000E+000	0.0000000E+000	-23.3221	0.0000000E+000	0.0000000E+000	0.0000000E+000	23.3221	2.31952	66.6779	7.58351e-07	2.86159e-06	-1.81773e-10	2.86178e-06	0.244054	20811.7	1.32199	20813
1000.32	3.32511	1.50417	3.64951	-24.3404	7.40878	0.244044	0.0297012	105.775	17.9684	1	10	0.00524306	0.00143665	0	4.48288e-05	0.000271148	7.00013e-06	35.9719	0.00487254	0.00394337	-0.00286208	-24.274	3.65192	3.32906	1.50131	0.249654	0.112935	0.27401	24.3404	17968.4	39720.9	43596	-65.6596	0.0000000E+000	0.0000000E+000	0.0000000E+000	65.6596	0.0000000E+000	0.0000000E+000	0.0000000E+000	-65.6596	0.0000000E+000	0.0000000E+000	0.0000000E+000	-24.3404	0.0000000E+000	0.0000000E+000	0.0000000E+000	24.3404	2.21059	65.6596	6.34405e-06	7.2484e-06	8.0534e-09	7.24035e-06	0.243773	8216.66	9.12919	8207.53
681.09	3.67537	1.75278	4.07193	-25.4964	7.85854	0.244044	0.0287313	133.318	24.7026	1	10	0.00516852	0.0012693	0	4.79975e-05	4.18282e-05	1.12298e-05	-10.1519	0.00884723	0.00870872	0.0015594	-25.4635	4.08046	3.68408	1.75434	0.221667	0.105713	0.245584	25.4964	24702.6	51798.5	57387.3	-64.5036	0.0000000E+000	0.0000000E+000	0.0000000E+000	64.5036	0.0000000E+000	0.0000000E+000	0.0000000E+000	-64.5036	0.0000000E+000	0.0000000E+000	0.0000000E+000	-25.4964	0.0000000E+000	0.0000000E+000	0.0000000E+000	25.4964	2.09689	64.5036	3.16872e-06	7.01171e-06	1.20178e-09	7.0105e-06	0.244002	8494.01	1.45584	8492.55
463.961	4.07797	2.04485	4.56193	-26.6309	8.31037	0.244047	0.0284739	167.756	33.7056	1	10	0.00506969	0.0011113	0	5.09226e-05	-0.000206601	3.5069e-06	82.4417	0.00315566	0.000415078	-0.00312824	-26.5935	4.5609	4.07838	2.04172	0.19595	0.0982569	0.219205	26.6309	33705.6	67217.9	75195.1	-63.3691	0.0000000E+000	0.0000000E+000	0.0000000E+000	63.3691	0.0000000E+000	0.0000000E+000	0.0000000E+000	-63.3691	0.0000000E+000	0.0000000E+000	0.0000000E+000	-26.6309	0.0000000E+000	0.0000000E+000	0.0000000E+000	26.6309	1.99426	63.3691	2.92504e-06	6.94897e-06	-5.88275e-09	6.95485e-06	0.244253	8570.88	7.2558	8578.13
316.316	4.56924	2.41685	5.16905	-27.8762	8.75801	0.244033	0.0276085	208.185	45.5121	1	10	0.00499458	0.000966247	0	5.50292e-05	-0.000149271	4.01341e-05	-106.618	0.0415361	-0.0118792	0.0398011	-28.327	5.17732	4.55736	2.45665	0.17101	0.0904541	0.193459	27.8762	45512.1	86044.1	97339.3	-62.1238	0.0000000E+000	0.0000000E+000	0.0000000E+000	62.1238	0.0000000E+000	0.0000000E+000	0.0000000E+000	-62.1238	0.0000000E+000	0.0000000E+000	0.0000000E+000	-27.8762	0.0000000E+000	0.0000000E+000	0.0000000E+000	27.8762	1.89057	62.1238	4.1066e-06	6.7374e-06	-4.12116e-09	6.74152e-06	0.244183	8839.05	5.40671	8844.46
215.345	5.22035	2.7605	5.90528	-27.8697	9.20859	0.244038	0.0265156	267.731	58.5049	1	10	0.0049482	0.000837928	0	5.83405e-05	-0.000244821	8.1224e-06	58.0923	0.00969344	0.00512349	-0.00822876	-27.7759	5.90597	5.22547	2.75227	0.149699	0.0791601	0.16934	27.8697	58504.9	110638	125154	-62.1303	0.0000000E+000	0.0000000E+000	0.0000000E+000	62.1303	0.0000000E+000	0.0000000E+000	0.0000000E+000	-62.1303	0.0000000E+000	0.0000000E+000	0.0000000E+000	-27.8697	0.0000000E+000	0.0000000E+000	0.0000000E+000	27.8697	1.89109	62.1303	3.31132e-06	6.47082e-06	-6.49158e-09	6.47731e-06	0.244283	9203.58	9.2331	9212.82
146.737	6.01233	3.12499	6.77596	-27.4637	9.65447	0.244052	0.0258777	347.081	73.8219	1	10	0.00491832	0.000725848	0	6.04608e-05	-0.000111051	5.12676e-06	16.8997	0.00706313	0.00675811	-0.00205324	-27.422	6.78102	6.01909	3.12293	0.130949	0.0680622	0.14758	27.4637	73821.9	142030	160069	-62.5363	0.0000000E+000	0.0000000E+000	0.0000000E+000	62.5363	0.0000000E+000	0.0000000E+000	0.0000000E+000	-62.5363	0.0000000E+000	0.0000000E+000	0.0000000E+000	-27.4637	0.0000000E+000	0.0000000E+000	0.0000000E+000	27.4637	1.92395	62.5363	2.12034e-06	6.3155e-06	-2.87376e-09	6.31837e-06	0.244163	9430.96	4.29139	9435.25
100.032	6.94927	3.39449	7.73401	-26.034	10.1038	0.244043	0.025169	468.712	90.2914	1	10	0.00490518	0.000634235	0	6.43177e-05	-0.000149271	1.07972e-05	59.5075	0.017024	0.0086384	-0.0146695	-25.9083	7.73535	6.95791	3.37982	0.11618	0.0567499	0.129299	26.034	90291.4	184846	205720	-63.966	0.0000000E+000	0.0000000E+000	0.0000000E+000	63.966	0.0000000E+000	0.0000000E+000	0.0000000E+000	-63.966	0.0000000E+000	0.0000000E+000	0.0000000E+000	-26.034	0.0000000E+000	0.0000000E+000	0.0000000E+000	26.034	2.04722	63.966	3.8569e-06	6.14231e-06	-3.75701e-09	6.14607e-06	0.244192	9696.18	5.93077	9702.11
68.104	7.98082	3.50628	8.71708	-23.7177	10.5654	0.244041	0.0250795	666.501	107.833	1	10	0.00489141	0.00056113	0	6.79717e-05	-0.000225711	8.46936e-06	78.1264	0.0150934	0.00310552	-0.0147705	-23.6206	8.714	7.98392	3.49151	0.105028	0.0461429	0.114717	23.7177	107833	245444	268088	-66.2823	0.0000000E+000	0.0000000E+000	0.0000000E+000	66.2823	0.0000000E+000	0.0000000E+000	0.0000000E+000	-66.2823	0.0000000E+000	0.0000000E+000	0.0000000E+000	-23.7177	0.0000000E+000	0.0000000E+000	0.0000000E+000	23.7177	2.27615	66.2823	3.65391e-06	6.12042e-06	-5.66071e-09	6.12608e-06	0.244267	9730.71	8.99984	9739.71
46.4415	8.97588	3.45294	9.61713	-21.0413	11.0017	0.244034	0.023095	992.487	127.941	1	10	0.00486918	0.000506303	0	7.04653e-05	-0.000225711	8.24187e-06	-69.3422	0.0162785	0.00574284	0.0152319	-21.1136	9.62797	8.98162	3.46817	0.0970479	0.0373334	0.103981	21.0413	127941	332583	356343	-68.9587	0.0000000E+000	0.0000000E+000	0.0000000E+000	68.9587	0.0000000E+000	0.0000000E+000	0.0000000E+000	-68.9587	0.0000000E+000	0.0000000E+000	0.0000000E+000	-21.0413	0.0000000E+000	0.0000000E+000	0.0000000E+000	21.0413	2.59949	68.9587	2.49362e-06	5.63597e-06	-5.2128e-09	5.64119e-06	0.24426	10566.5	9.77316	10576.3
31.6296	9.96915	3.26921	10.4915	-18.156	11.4316	0.244031	0.022584	1539.16	149.45	1	10	0.00487763	0.000464912	0	7.376e-05	3.60827e-06	7.49991e-06	-44.0886	0.0161319	0.011587	0.0112241	-18.1945	10.506	9.98074	3.28044	0.0905696	0.0297008	0.0953152	18.156	149450	455732	479611	-71.844	0.0000000E+000	0.0000000E+000	0.0000000E+000	71.844	0.0000000E+000	0.0000000E+000	0.0000000E+000	-71.844	0.0000000E+000	0.0000000E+000	0.0000000E+000	-18.156	0.0000000E+000	0.0000000E+000	0.0000000E+000	18.156	3.0494	71.844	3.29475e-06	5.51119e-06	8.14891e-11	5.51111e-06	0.244028	10805.5	0.159771	10805.4
21.5517	10.7928	3.0319	11.2106	-15.691	11.8525	0.244036	0.0218379	2435.7	178.154	1	10	0.00486699	0.000434141	0	7.66326e-05	-0.000244821	1.2074e-05	-66.3239	0.0278112	0.011168	0.0254704	-15.8007	11.2283	10.804	3.05737	0.0858771	0.0241244	0.0892012	15.691	178154	634184	658732	-74.309	0.0000000E+000	0.0000000E+000	0.0000000E+000	74.309	0.0000000E+000	0.0000000E+000	0.0000000E+000	-74.309	0.0000000E+000	0.0000000E+000	0.0000000E+000	-15.691	0.0000000E+000	0.0000000E+000	0.0000000E+000	15.691	3.55976	74.309	2.87254e-06	5.32924e-06	-5.34639e-09	5.33459e-06	0.244281	11174.9	11.2108	11186.1
14.6852	11.5096	2.72237	11.8271	-13.3077	12.3132	0.24404	0.0230987	3981.02	210.926	1	10	0.00487114	0.000411861	0	8.15867e-05	0.000194708	7.9571e-06	-86.6919	0.0193199	0.00111484	0.0192877	-13.3973	11.8327	11.5107	2.74166	0.0822809	0.019462	0.0845513	13.3077	210926	891745	916351	-76.6923	0.0000000E+000	0.0000000E+000	0.0000000E+000	76.6923	0.0000000E+000	0.0000000E+000	0.0000000E+000	-76.6923	0.0000000E+000	0.0000000E+000	0.0000000E+000	-13.3077	0.0000000E+000	0.0000000E+000	0.0000000E+000	13.3077	4.22777	76.6923	4.95414e-06	5.63702e-06	4.4975e-09	5.63252e-06	0.243846	10565.1	8.42937	10556.7
10.0032	12.1849	2.44367	12.4275	-11.3402	13.0088	0.244049	0.0255691	6510.88	251.742	1	11	0.00487293	0.000392109	0	8.4225e-05	-0.000168381	1.25717e-05	-8.08002	0.0320617	0.0317434	0.00450646	-11.3318	12.4595	12.2166	2.44817	0.0788958	0.0158225	0.0804668	11.3402	251742	1.25526e+06	1.28026e+06	-78.6598	0.0000000E+000	0.0000000E+000	0.0000000E+000	78.6598	0.0000000E+000	0.0000000E+000	0.0000000E+000	-78.6598	0.0000000E+000	0.0000000E+000	0.0000000E+000	-11.3402	0.0000000E+000	0.0000000E+000	0.0000000E+000	11.3402	4.98631	78.6598	2.63829e-06	6.24011e-06	-4.30535e-09	6.24442e-06	0.244218	9544.71	6.58535	9551.29
6.81719	12.7382	2.18709	12.9246	-9.74246	13.3485	0.244064	0.0258828	10674.5	305.668	1	11	0.00487582	0.000377252	0	8.31568e-05	2.27182e-05	5.90214e-06	-99.4823	0.0156451	-0.00257743	0.0154313	-9.81182	12.9247	12.7356	2.20253	0.0762562	0.0130929	0.077372	9.74246	305668	1.78029e+06	1.80634e+06	-80.2575	0.0000000E+000	0.0000000E+000	0.0000000E+000	80.2575	0.0000000E+000	0.0000000E+000	0.0000000E+000	-80.2575	0.0000000E+000	0.0000000E+000	0.0000000E+000	-9.74246	0.0000000E+000	0.0000000E+000	0.0000000E+000	9.74246	5.82425	80.2575	-1.06816e-06	6.31708e-06	5.88012e-10	6.31649e-06	0.244042	9429.58	0.877733	9428.71
4.63925	13.2248	1.91569	13.3628	-8.24229	13.8325	0.244054	0.0248087	17908	368.045	1	11	0.00487359	0.000364712	0	8.85395e-05	-1.55017e-05	5.14371e-06	-36.2556	0.0141035	0.0113728	0.00834064	-8.27067	13.3753	13.2362	1.92403	0.0740615	0.0107282	0.0748345	8.24229	368045	2.54077e+06	2.56729e+06	-81.7577	0.0000000E+000	0.0000000E+000	0.0000000E+000	81.7577	0.0000000E+000	0.0000000E+000	0.0000000E+000	-81.7577	0.0000000E+000	0.0000000E+000	0.0000000E+000	-8.24229	0.0000000E+000	0.0000000E+000	0.0000000E+000	8.24229	6.90342	81.7577	5.38269e-06	6.05466e-06	-3.84577e-10	6.05505e-06	0.244069	9837.41	0.624848	9838.03
3.1604	13.6333	1.66111	13.7341	-6.94679	14.5255	0.244053	0.0244884	30316.6	443.48	1	11	0.0048743	0.000354904	0	9.78473e-05	-0.000397701	4.74991e-06	57.3144	0.0133836	0.00722755	-0.0112643	-6.89652	13.74	13.6405	1.64985	0.0722768	0.00880634	0.0728113	6.94679	443480	3.6398e+06	3.66672e+06	-83.0532	0.0000000E+000	0.0000000E+000	0.0000000E+000	83.0532	0.0000000E+000	0.0000000E+000	0.0000000E+000	-83.0532	0.0000000E+000	0.0000000E+000	0.0000000E+000	-6.94679	0.0000000E+000	0.0000000E+000	0.0000000E+000	6.94679	8.20735	83.0532	9.30778e-06	5.97648e-06	-9.73908e-09	5.98622e-06	0.244451	9966.05	16.2403	9982.29
2.15577	13.9923	1.47817	14.0702	-6.03044	15.5292	0.244055	0.0244138	49945.3	551.242	1	11	0.00487563	0.000346522	0	0.000104858	-0.000187491	4.01437e-06	-36.1222	0.0115847	0.0093577	0.00682931	-6.05407	14.0802	14.0017	1.485	0.070679	0.00746662	0.0710723	6.03044	551242	5.21805e+06	5.24709e+06	-83.9696	0.0000000E+000	0.0000000E+000	0.0000000E+000	83.9696	0.0000000E+000	0.0000000E+000	0.0000000E+000	-83.9696	0.0000000E+000	0.0000000E+000	0.0000000E+000	-6.03044	0.0000000E+000	0.0000000E+000	0.0000000E+000	6.03044	9.46599	83.9696	7.01096e-06	5.95833e-06	-4.57738e-09	5.96291e-06	0.244243	9996.6	7.67971	10004.3
1.46631	14.2588	1.30696	14.3186	-5.23711	16.9895	0.244051	0.0236949	83048.3	691.925	1	11	0.00487591	0.000340531	0	0.000107882	0.000137378	3.55914e-06	8.20014	0.0104517	0.0103449	-0.00149074	-5.2274	14.3287	14.2691	1.30547	0.0695479	0.00637477	0.0698394	5.23711	691925	7.54881e+06	7.58045e+06	-84.7629	0.0000000E+000	0.0000000E+000	0.0000000E+000	84.7629	0.0000000E+000	0.0000000E+000	0.0000000E+000	-84.7629	0.0000000E+000	0.0000000E+000	0.0000000E+000	-5.23711	0.0000000E+000	0.0000000E+000	0.0000000E+000	5.23711	10.9099	84.7629	3.02403e-06	5.78276e-06	3.25516e-09	5.7795e-06	0.243913	10299.7	5.79778	10293.9
1.00006	14.4752	1.16739	14.5222	-4.6108	19.12	0.244049	0.0218751	136325	880.936	1	11	0.0048777	0.000335879	0	0.000110395	3.60827e-06	2.14107e-06	-81.7304	0.00637452	0.000916858	0.00630823	-4.63531	14.5236	14.4761	1.1737	0.0686373	0.00553544	0.0688601	4.6108	880936	1.09233e+07	1.09587e+07	-85.3892	0.0000000E+000	0.0000000E+000	0.0000000E+000	85.3892	0.0000000E+000	0.0000000E+000	0.0000000E+000	-85.3892	0.0000000E+000	0.0000000E+000	0.0000000E+000	-4.6108	0.0000000E+000	0.0000000E+000	0.0000000E+000	4.6108	12.3996	85.3892	2.51319e-06	5.3386e-06	7.89313e-11	5.33852e-06	0.244045	11156.5	0.164949	11156.3
0.681362	14.6456	1.10749	14.6874	-4.32443	22.2321	0.24406	0.0192947	210912	1199.19	1	11	0.00487559	0.000331957	0	0.000118975	9.9158e-05	4.46528e-06	-33.5834	0.0134514	0.0112061	0.00744064	-4.35006	14.6992	14.6568	1.11493	0.0678915	0.0051339	0.0680854	4.32443	1.1992e+06	1.58583e+07	1.59036e+07	-85.6756	0.0000000E+000	0.0000000E+000	0.0000000E+000	85.6756	0.0000000E+000	0.0000000E+000	0.0000000E+000	-85.6756	0.0000000E+000	0.0000000E+000	0.0000000E+000	-4.32443	0.0000000E+000	0.0000000E+000	0.0000000E+000	4.32443	13.2242	85.6756	8.57938e-06	4.70906e-06	1.91323e-09	4.70714e-06	0.24396	12649	5.13913	12643.9
0.464091	14.8004	1.11647	14.8424	-4.31396	26.7885	0.244051	0.0147288	307163	1738.03	1	11	0.00487446	0.000328414	0	0.000142205	-0.000187491	1.97891e-06	13.6147	0.00602564	0.00585632	-0.00141839	-4.30681	14.8482	14.8062	1.11505	0.0671836	0.00506803	0.0673745	4.31396	1.73803e+06	2.30399e+07	2.31054e+07	-85.686	0.0000000E+000	0.0000000E+000	0.0000000E+000	85.686	0.0000000E+000	0.0000000E+000	0.0000000E+000	-85.686	0.0000000E+000	0.0000000E+000	0.0000000E+000	-4.31396	0.0000000E+000	0.0000000E+000	0.0000000E+000	4.31396	13.2564	85.686	2.32297e-05	3.59457e-06	-2.76151e-09	3.59733e-06	0.244238	16569.7	12.7296	16582.4
0.316193	14.9543	1.23719	15.0054	-4.72938	33.4629	0.244048	0.0111255	406847	2765.73	1	11	0.0048767	0.000324996	0	0.000187707	2.27182e-05	3.57428e-06	-20.2801	0.0109979	0.0103161	0.00381198	-4.74063	15.016	14.9646	1.241	0.0664158	0.00549467	0.0666427	4.72938	2.76573e+06	3.34302e+07	3.35444e+07	-85.2706	0.0000000E+000	0.0000000E+000	0.0000000E+000	85.2706	0.0000000E+000	0.0000000E+000	0.0000000E+000	-85.2706	0.0000000E+000	0.0000000E+000	0.0000000E+000	-4.72938	0.0000000E+000	0.0000000E+000	0.0000000E+000	4.72938	12.0873	85.2706	4.55025e-05	2.71516e-06	2.52751e-10	2.7149e-06	0.244026	21936	2.042	21933.9
0.215268	15.1148	1.45749	15.1849	-5.50791	43.2562	0.244049	0.00911681	507264	4673.31	1	11	0.00488011	0.000321379	0	0.000256741	-0.000416811	2.10183e-06	24.1514	0.00654005	0.00596758	-0.00267585	-5.4957	15.1906	15.1207	1.45482	0.0655509	0.00632096	0.0658549	5.50791	4.6733e+06	4.8464e+07	4.86888e+07	-84.4921	0.0000000E+000	0.0000000E+000	0.0000000E+000	84.4921	0.0000000E+000	0.0000000E+000	0.0000000E+000	-84.4921	0.0000000E+000	0.0000000E+000	0.0000000E+000	-5.50791	0.0000000E+000	0.0000000E+000	0.0000000E+000	5.50791	10.3704	84.4921	6.90341e-05	2.22495e-06	-3.79999e-09	2.22875e-06	0.244466	26769.1	45.7189	26814.8
0.146929	15.3567	1.80513	15.4625	-6.70414	57.5946	0.244051	0.00800489	600075	8178.3	1	11	0.0048787	0.000315519	0	0.000336983	-0.00055058	2.38707e-06	-16.6641	0.00756554	0.0072478	0.0021695	-6.70898	15.4699	15.364	1.8073	0.0642305	0.00755005	0.0646727	6.70414	8.1783e+06	6.95752e+07	7.00542e+07	-83.2959	0.0000000E+000	0.0000000E+000	0.0000000E+000	83.2959	0.0000000E+000	0.0000000E+000	0.0000000E+000	-83.2959	0.0000000E+000	0.0000000E+000	0.0000000E+000	-6.70414	0.0000000E+000	0.0000000E+000	0.0000000E+000	6.70414	8.50729	83.2959	8.02416e-05	1.9536e-06	-4.40734e-09	1.95801e-06	0.244602	30487.7	68.7805	30556.5
0.0999041	15.6638	2.37219	15.8424	-8.61168	78.6717	0.244051	0.00666234	671565	15057.3	1	11	0.00487431	0.000307676	0	0.000395362	-7.28316e-05	1.97135e-06	2.78896	0.00640725	0.00639966	-0.000311759	-8.6071	15.8486	15.6702	2.37188	0.0624102	0.00945168	0.0631219	8.61168	1.50573e+07	9.94243e+07	1.00558e+08	-81.3883	0.0000000E+000	0.0000000E+000	0.0000000E+000	81.3883	0.0000000E+000	0.0000000E+000	0.0000000E+000	-81.3883	0.0000000E+000	0.0000000E+000	0.0000000E+000	-8.61168	0.0000000E+000	0.0000000E+000	0.0000000E+000	8.61168	6.60308	81.3883	5.83791e-05	1.62595e-06	-4.85229e-10	1.62643e-06	0.244124	36631.4	10.9318	36642.3
0.0680626	15.9839	3.10859	16.2834	-11.0056	124.366	0.244169	0.00434002	752226	27414.8	1	12	0.00488117	0.000299764	0	0.00044134	-0.000168381	1.07583e-06	-24.5496	0.00358893	0.00326449	0.00149113	-11.0086	16.2869	15.9872	3.11008	0.0602828	0.0117239	0.0614123	11.0056	2.74148e+07	1.40963e+08	1.43604e+08	-78.9944	0.0000000E+000	0.0000000E+000	0.0000000E+000	78.9944	0.0000000E+000	0.0000000E+000	0.0000000E+000	-78.9944	0.0000000E+000	0.0000000E+000	0.0000000E+000	-11.0056	0.0000000E+000	0.0000000E+000	0.0000000E+000	11.0056	5.14185	78.9944	4.59781e-05	1.0597e-06	-7.30778e-10	1.06043e-06	0.244338	56260	38.7974	56298.8
0.0464052	16.4002	4.01635	16.8848	-13.7607	169.716	0.244169	0.00125863	853929	48316.1	1	12	0.00487567	0.000288761	0	0.000304477	3.60827e-06	2.40729e-06	31.905	0.00833663	0.00707718	-0.00440601	-13.7405	16.8907	16.4073	4.01194	0.0575249	0.0140876	0.0592247	13.7607	4.8316e+07	1.97292e+08	2.03122e+08	-76.2393	0.0000000E+000	0.0000000E+000	0.0000000E+000	76.2393	0.0000000E+000	0.0000000E+000	0.0000000E+000	-76.2393	0.0000000E+000	0.0000000E+000	0.0000000E+000	-13.7607	0.0000000E+000	0.0000000E+000	0.0000000E+000	13.7607	4.08336	76.2393	-0.000136863	3.0732e-07	4.5415e-12	3.07316e-07	0.244166	193995	2.86681	193993
0.0315922	17.0387	5.16693	17.8049	-16.8698	236.322	0.24417	-0.00217846	975006	82109.6	1	12	0.00487505	0.000273804	0	3.55642e-05	3.60827e-06	3.68511e-06	38.738	0.0134589	0.0104982	-0.00842206	-16.834	17.8125	17.0492	5.15851	0.0537474	0.0162987	0.0561643	16.8698	8.21096e+07	2.70768e+08	2.82944e+08	-73.1302	0.0000000E+000	0.0000000E+000	0.0000000E+000	73.1302	0.0000000E+000	0.0000000E+000	0.0000000E+000	-73.1302	0.0000000E+000	0.0000000E+000	0.0000000E+000	-16.8698	0.0000000E+000	0.0000000E+000	0.0000000E+000	16.8698	3.29764	73.1302	-0.000268913	-5.31913e-07	-7.86046e-12	-5.31905e-07	0.244166	112084	1.65634	112082
0.0215268	18.0169	6.89672	19.2918	-20.9464	334.059	0.244044	-0.00683217	1.07201e+06	137005	1	12	0.00491342	0.00025469	0	-0.000318557	0.000156488	3.45649e-06	15.1394	0.0135714	0.0131003	-0.00354442	-20.9227	19.3028	18.03	6.89318	0.0484099	0.0185309	0.0518355	20.9464	1.37005e+08	3.57911e+08	3.83237e+08	-69.0536	0.0000000E+000	0.0000000E+000	0.0000000E+000	69.0536	0.0000000E+000	0.0000000E+000	0.0000000E+000	-69.0536	0.0000000E+000	0.0000000E+000	0.0000000E+000	-20.9464	0.0000000E+000	0.0000000E+000	0.0000000E+000	20.9464	2.61239	69.0536	-0.000354121	-1.66735e-06	-1.06915e-09	-1.66628e-06	0.243887	35719.8	22.9046	35696.9
0.0146812	18.9619	9.31667	21.1271	-26.1666	477.362	0.244035	-0.00681154	1.16359e+06	226277	1	12	0.00487555	0.000230772	0	-0.000496387	-7.28316e-05	2.4254e-06	-12.8493	0.0105099	0.0102467	0.00233727	-26.16	21.1373	18.9722	9.31901	0.0424817	0.0208728	0.0473326	26.1666	2.26277e+08	4.60534e+08	5.13121e+08	-63.8334	0.0000000E+000	0.0000000E+000	0.0000000E+000	63.8334	0.0000000E+000	0.0000000E+000	0.0000000E+000	-63.8334	0.0000000E+000	0.0000000E+000	0.0000000E+000	-26.1666	0.0000000E+000	0.0000000E+000	0.0000000E+000	26.1666	2.03527	63.8334	-0.000177831	-1.66226e-06	4.96095e-10	-1.66275e-06	0.244108	35826.8	10.6924	35837.5
0.0100092	20.2561	12.2382	23.6661	-31.1392	687.543	0.244035	-0.00728005	1.29929e+06	347444	1	12	0.00487928	0.000206172	0	-0.000401722	0.000137378	4.35548e-06	-18.2557	0.0211255	0.0200622	0.00661775	-31.1278	23.6867	20.2762	12.2448	0.0361662	0.0218506	0.0422545	31.1392	3.47444e+08	5.75076e+08	6.71885e+08	-58.8608	0.0000000E+000	0.0000000E+000	0.0000000E+000	58.8608	0.0000000E+000	0.0000000E+000	0.0000000E+000	-58.8608	0.0000000E+000	0.0000000E+000	0.0000000E+000	-31.1392	0.0000000E+000	0.0000000E+000	0.0000000E+000	31.1392	1.65516	58.8608	9.46649e-05	-1.77659e-06	-1.00012e-09	-1.77559e-06	0.243897	33521	18.8705	33502.2