File: txt/18702_R307_UC91_26p5_SOC50_C03.mpt
EC-Lab ASCII FILE
Nb header lines : 65

Potentio Electrochemical Impedance Spectroscopy

Run on channel : 3 (SN 65921)
User :
CE vs. WE compliance from -10 V to 10 V
Electrode connection : standard
Potential control : Ewe
Ewe ctrl range : min = -10.00 V, max = 10.00 V
Safety Limits :
	Do not start on E overload
Acquisition started on : 10/30/2025 15:43:11.205
Technique started on : 10/30/2025 15:43:13.439
Loaded Setting File :  C:\Users\Celltest\OneDrive - store-dot.com\Documents\EC-Lab\Data\@Biologic Test Protocols\cathode half cell EIS SOC50.mps
Saved on :
	File : 18702_R307_UC91_26p5_SOC50_C03.mpr
	Directory : C:\Users\Celltest\OneDrive - store-dot.com\Documents\EC-Lab\Data\Anna\
	Host : 169.254.61.224
Device : VMP-3e (SN .003165)
Address : USB
EC-LAB for windows v11.62 (software)
Internet server v27.00 (firmware)
Command interpretor v12.03 (firmware)
Electrode material :
Initial state :
Electrolyte :
Comments :
Electrode surface area : 0.001 cm²
Characteristic mass : 0.001 g
Equivalent Weight : 0.000 g/eq.
Density : 0.000 g/cm3
Volume (V) : 0.001 cm³
Record Ece
Cycle Definition : Charge/Discharge alternance
Mode                Multi sine
E (V)               0.0000
vs.                 Eoc
tE (h:m:s)          0:00:0.0000
record              0
dI                  0.000
unit dI             mA
dt (s)              0.000
fi                  1.000
unit fi             MHz
ff                  0.100
unit ff             mHz
Nd                  10
Points              per decade
spacing             Logarithmic
Va (mV)             5.0
pw                  0.10
Na                  2
corr                0
E range min (V)     -10.000
E range max (V)     10.000
I Range             Auto
Bandwidth           5
nc cycles           0
goto Ns'            0
nr cycles           0
inc. cycle          0

freq/Hz	Re(Z)/Ohm	-Im(Z)/Ohm	|Z|/Ohm	Phase(Z)/deg	time/s	<Ewe>/V	<I>/mA	Cs/µF	Cp/µF	cycle number	I Range	|Ewe|/V	|I|/A	Ns	(Q-Qo)/mA.h	<Ece>/V	|Ece|/V	Phase(Zce)/deg	|Zce|/Ohm	Re(Zce)/Ohm	-Im(Zce)/Ohm	Phase(Zwe-ce)/deg	|Zwe-ce|/Ohm	Re(Zwe-ce)/Ohm	-Im(Zwe-ce)/Ohm	Re(Y)/Ohm-1	Im(Y)/Ohm-1	|Y|/Ohm-1	Phase(Y)/deg	Re(C)/nF	Im(C)/nF	|C|/nF	Phase(C)/deg	Re(M)	Im(M)	|M|	Phase(M)/deg	Re(Permittivity)	Im(Permittivity)	|Permittivity|	Phase(Permittivity)/deg	Re(Resistivity)/Ohm.cm	Im(Resistivity)/Ohm.cm	|Resistivity|/Ohm.cm	Phase(Resistivity)/deg	Re(Conductivity)/mS/cm	Im(Conductivity)/mS/cm	|Conductivity|/mS/cm	Phase(Conductivity)/deg	Tan(Delta)	Loss Angle(Delta)/deg	dq/mA.h	Pwe/W	Pce/W	Pwe-ce/W	<Ewe-Ece>/V	Rwe/Ohm	Rce/Ohm	Rwe-ce/Ohm		Ewe-Ece/V
1.00002e+06	2.97111	2.73046	4.03521	-42.5831	2.23354	3.96925	-0.0275645	0.0582875	0.026688	1	10	0.000222822	5.52194e-05	0	-2.03513e-05	7.22374e-05	0.000188819	-66.2065	3.41943	1.37954	3.1288	-53.4052	7.29788	4.35065	5.85926	0.182468	0.167689	0.247818	42.5831	26.688	29.0401	39.4408	-47.4169	0.0000000E+000	0.0000000E+000	0.0000000E+000	47.4169	0.0000000E+000	0.0000000E+000	0.0000000E+000	-47.4169	0.0000000E+000	0.0000000E+000	0.0000000E+000	-42.5831	0.0000000E+000	0.0000000E+000	0.0000000E+000	42.5831	1.08813	47.4169	-2.03513e-05	-0.00010941	-1.99119e-09	-0.000109408	3.96917	143998	2.62067	143996
630957	0.795846	-0.49647	0.938005	31.957	3.40251	3.96884	0.00961527	-0.508075	-0.142332	1	9	0.000199488	0.000212672	0	-2.21455e-05	0.00012952	0.000113293	-91.2314	0.532713	-0.0114483	0.53259	-2.63651	0.785229	0.784398	0.0361202	0.904521	-0.564264	1.06609	-31.957	-142.332	228.16	268.915	-121.957	0.0000000E+000	0.0000000E+000	0.0000000E+000	121.957	0.0000000E+000	0.0000000E+000	0.0000000E+000	-121.957	0.0000000E+000	0.0000000E+000	0.0000000E+000	31.957	0.0000000E+000	0.0000000E+000	0.0000000E+000	-31.957	1.60301	58.043	6.55413e-07	3.81615e-05	1.24537e-09	3.81603e-05	3.96871	412765	13.4702	412751
398103	1.31963	-0.0818761	1.32217	3.55034	4.16856	3.96893	0.00495358	-4.88278	-0.0187243	1	9	0.000786958	0.000595202	0	-2.16967e-05	5.31434e-05	6.49958e-05	152.348	0.1092	-0.0967271	-0.0506796	6.18637	1.23007	1.22291	-0.132556	0.75488	-0.0468363	0.756332	-3.55034	-18.7244	301.788	302.369	-93.5503	0.0000000E+000	0.0000000E+000	0.0000000E+000	93.5503	0.0000000E+000	0.0000000E+000	0.0000000E+000	-93.5503	0.0000000E+000	0.0000000E+000	0.0000000E+000	3.55034	0.0000000E+000	0.0000000E+000	0.0000000E+000	-3.55034	16.1174	86.4497	4.22751e-07	1.96604e-05	2.6325e-10	1.96602e-05	3.96888	801225	10.7283	801214
251206	1.34959	0.33905	1.39153	-14.1023	4.93555	3.96881	0.00308893	1.86864	0.110936	1	9	0.00215894	0.00155149	0	-2.1484e-05	-8.05151e-05	6.00261e-05	90.6513	0.0386893	-0.000439777	-0.0386868	-12.5512	1.38218	1.34915	0.300363	0.696978	0.175098	0.718636	14.1023	110.936	441.579	455.301	-75.8977	0.0000000E+000	0.0000000E+000	0.0000000E+000	75.8977	0.0000000E+000	0.0000000E+000	0.0000000E+000	-75.8977	0.0000000E+000	0.0000000E+000	0.0000000E+000	-14.1023	0.0000000E+000	0.0000000E+000	0.0000000E+000	14.1023	3.9805	75.8977	-3.73536e-07	1.22594e-05	-2.48705e-10	1.22596e-05	3.96889	1.28485e+06	26.0657	1.28488e+06
158486	1.4204	0.624881	1.55178	-23.7462	5.57753	3.96879	0.0081982	1.60706	0.260595	1	9	0.00514508	0.0033156	0	-1.32015e-05	0.000110426	5.08478e-05	66.6713	0.0153359	0.00607312	-0.0140822	-23.18	1.55174	1.42648	0.610799	0.589863	0.2595	0.644421	23.7462	260.595	592.352	647.141	-66.2538	0.0000000E+000	0.0000000E+000	0.0000000E+000	66.2538	0.0000000E+000	0.0000000E+000	0.0000000E+000	-66.2538	0.0000000E+000	0.0000000E+000	0.0000000E+000	-23.7462	0.0000000E+000	0.0000000E+000	0.0000000E+000	23.7462	2.27308	66.2538	3.6946e-06	3.25369e-05	9.05291e-10	3.2536e-05	3.96868	484105	13.4695	484091
100004	1.5814	0.899702	1.81942	-29.6367	6.46755	3.96875	0.00424508	1.76891	0.43255	1	9	0.00492726	0.00270815	0	-1.42145e-05	0.000263178	3.58564e-05	46.363	0.0132402	0.00913688	-0.00958227	-29.2329	1.82267	1.59054	0.890119	0.477723	0.271789	0.549626	29.6367	432.55	760.291	874.724	-60.3633	0.0000000E+000	0.0000000E+000	0.0000000E+000	60.3633	0.0000000E+000	0.0000000E+000	0.0000000E+000	-60.3633	0.0000000E+000	0.0000000E+000	0.0000000E+000	-29.6367	0.0000000E+000	0.0000000E+000	0.0000000E+000	29.6367	1.75769	60.3633	-6.57606e-06	1.68477e-05	1.11721e-09	1.68465e-05	3.96849	934908	61.9961	934846
63093.8	1.80292	1.25336	2.19578	-34.8063	7.60556	3.96876	0.00290251	2.01261	0.655741	1	9	0.00571355	0.00260206	0	-1.04025e-05	-0.000118703	1.95979e-05	41.6658	0.00753167	0.00562642	-0.00500693	-34.6154	2.19755	1.80855	1.24835	0.373939	0.259955	0.45542	34.8063	655.741	943.266	1148.8	-55.1937	0.0000000E+000	0.0000000E+000	0.0000000E+000	55.1937	0.0000000E+000	0.0000000E+000	0.0000000E+000	-55.1937	0.0000000E+000	0.0000000E+000	0.0000000E+000	-34.8063	0.0000000E+000	0.0000000E+000	0.0000000E+000	34.8063	1.43847	55.1937	3.56416e-06	1.15194e-05	-3.44537e-10	1.15197e-05	3.96888	1.36736e+06	40.8967	1.3674e+06
39814.1	2.16217	1.65755	2.72442	-37.4743	8.61955	3.96876	-0.000230181	2.41167	0.892695	1	9	0.00524532	0.0019253	0	-7.56397e-06	0.000263178	1.71443e-05	-7.9492	0.00890475	0.00881918	0.00123148	-37.3823	2.73217	2.17099	1.65878	0.291301	0.223316	0.367051	37.4743	892.695	1164.46	1467.27	-52.5257	0.0000000E+000	0.0000000E+000	0.0000000E+000	52.5257	0.0000000E+000	0.0000000E+000	0.0000000E+000	-52.5257	0.0000000E+000	0.0000000E+000	0.0000000E+000	-37.4743	0.0000000E+000	0.0000000E+000	0.0000000E+000	37.4743	1.30444	52.5257	-3.98689e-06	-9.13535e-07	-6.05787e-11	-9.13475e-07	3.9685	1.72419e+07	1143.35	1.72407e+07
25116.9	2.69676	2.07079	3.4001	-37.52	9.50955	3.96877	-0.00250511	3.05997	1.13503	1	9	0.00520872	0.00153193	0	-1.18599e-05	-0.000252362	1.68257e-05	13.1394	0.0109833	0.0106958	-0.00249675	-37.3771	3.40708	2.70746	2.06829	0.23327	0.179123	0.294109	37.52	1135.03	1478.13	1863.64	-52.48	0.0000000E+000	0.0000000E+000	0.0000000E+000	52.48	0.0000000E+000	0.0000000E+000	0.0000000E+000	-52.48	0.0000000E+000	0.0000000E+000	0.0000000E+000	-37.52	0.0000000E+000	0.0000000E+000	0.0000000E+000	37.52	1.30229	52.48	-3.55901e-06	-9.94221e-06	6.32194e-10	-9.94284e-06	3.96902	1.58427e+06	100.739	1.58437e+06
15847.7	3.41041	2.51503	4.23749	-36.4072	10.2775	3.96877	-0.00381039	3.9931	1.40663	1	9	0.00542354	0.00127989	0	-1.51206e-05	-4.23269e-05	3.68568e-06	-94.709	0.00287968	-0.000236406	0.00286996	-36.4403	4.239	3.41018	2.5179	0.189928	0.140064	0.235989	36.4072	1406.63	1907.41	2369.99	-53.5928	0.0000000E+000	0.0000000E+000	0.0000000E+000	53.5928	0.0000000E+000	0.0000000E+000	0.0000000E+000	-53.5928	0.0000000E+000	0.0000000E+000	0.0000000E+000	-36.4072	0.0000000E+000	0.0000000E+000	0.0000000E+000	36.4072	1.35601	53.5928	2.34921e-07	-1.51226e-05	1.61282e-10	-1.51227e-05	3.96881	1.04156e+06	11.1083	1.04158e+06
10002.2	4.20167	2.85585	5.08034	-34.2037	11.3226	3.96876	-0.0410966	5.57171	1.76065	1	10	0.00507296	0.000998546	0	-2.19767e-05	0.000167708	9.97065e-06	-117.801	0.00998516	-0.00465717	0.00883256	-34.3156	5.08147	4.19701	2.86468	0.162793	0.110649	0.196837	34.2037	1760.65	2590.36	3132.06	-55.7963	0.0000000E+000	0.0000000E+000	0.0000000E+000	55.7963	0.0000000E+000	0.0000000E+000	0.0000000E+000	-55.7963	0.0000000E+000	0.0000000E+000	0.0000000E+000	-34.2037	0.0000000E+000	0.0000000E+000	0.0000000E+000	34.2037	1.47125	55.7963	-2.2659e-06	-0.000163103	-6.89222e-09	-0.000163096	3.96859	96571.4	4.08081	96567.3
6309.38	5.10142	3.16942	6.00581	-31.8519	11.9645	3.96875	-0.0403173	7.95891	2.21651	1	10	0.00501736	0.000835418	0	-3.07168e-05	-0.000156891	3.65919e-06	-127.965	0.00438007	-0.0026945	0.00345321	-31.8935	6.00534	5.09873	3.17287	0.141432	0.0878692	0.166505	31.8519	2216.51	3567.64	4200.12	-58.1481	0.0000000E+000	0.0000000E+000	0.0000000E+000	58.1481	0.0000000E+000	0.0000000E+000	0.0000000E+000	-58.1481	0.0000000E+000	0.0000000E+000	0.0000000E+000	-31.8519	0.0000000E+000	0.0000000E+000	0.0000000E+000	31.8519	1.60958	58.1481	-5.09319e-06	-0.000160009	6.32543e-09	-0.000160015	3.9689	98437.8	3.89142	98441.7
3983.6	6.06873	3.47564	6.99353	-29.8003	12.5271	3.96872	-0.0410183	11.495	2.83913	1	10	0.00489364	0.000699739	0	-3.67494e-05	-0.000347832	8.0495e-06	-32.5368	0.0115036	0.00969805	0.0061871	-29.8048	7.00502	6.07842	3.48182	0.124081	0.0710626	0.142989	29.8003	2839.13	4957.34	5712.78	-60.1997	0.0000000E+000	0.0000000E+000	0.0000000E+000	60.1997	0.0000000E+000	0.0000000E+000	0.0000000E+000	-60.1997	0.0000000E+000	0.0000000E+000	0.0000000E+000	-29.8003	0.0000000E+000	0.0000000E+000	0.0000000E+000	29.8003	1.74608	60.1997	-2.7043e-06	-0.00016279	1.42675e-08	-0.000162805	3.96907	96754.8	8.47991	96763.3
2510.8	7.08198	3.82187	8.04743	-28.354	13.3518	3.96868	-0.0359657	16.5856	3.74083	1	10	0.0047402	0.000589033	0	-4.51041e-05	-2.32329e-05	6.61745e-06	-41.4488	0.0112344	0.00842075	0.00743664	-28.3721	8.05837	7.0904	3.8293	0.109355	0.0590148	0.124263	28.354	3740.83	6931.83	7876.81	-61.646	0.0000000E+000	0.0000000E+000	0.0000000E+000	61.646	0.0000000E+000	0.0000000E+000	0.0000000E+000	-61.646	0.0000000E+000	0.0000000E+000	0.0000000E+000	-28.354	0.0000000E+000	0.0000000E+000	0.0000000E+000	28.354	1.85302	61.646	-4.29547e-06	-0.000142736	8.35587e-10	-0.000142737	3.96871	110346	0.645973	110347
1585.51	8.16217	4.24773	9.20131	-27.4932	14.2538	3.96869	-0.0351938	23.6317	5.03627	1	10	0.00462435	0.000502575	0	-5.37916e-05	1.49552e-05	7.22517e-06	-97.2384	0.0143763	-0.00181138	0.0142617	-27.5772	9.2063	8.16035	4.26199	0.0964064	0.0501715	0.10868	27.4932	5036.27	9677.38	10909.4	-62.5068	0.0000000E+000	0.0000000E+000	0.0000000E+000	62.5068	0.0000000E+000	0.0000000E+000	0.0000000E+000	-62.5068	0.0000000E+000	0.0000000E+000	0.0000000E+000	-27.4932	0.0000000E+000	0.0000000E+000	0.0000000E+000	27.4932	1.92154	62.5068	-4.09998e-06	-0.000139673	-5.26332e-10	-0.000139673	3.96867	112767	0.42494	112766
1000.32	9.43778	4.77172	10.5755	-26.8211	15.1558	3.96868	-0.0345786	33.3431	6.78821	1	10	0.00454662	0.000429921	0	-6.20324e-05	-9.96091e-05	9.09867e-06	80.1062	0.0211636	0.00363637	-0.0208488	-26.7113	10.5693	9.44141	4.75087	0.0843857	0.0426652	0.0945583	26.8211	6788.21	13426.1	15044.6	-63.1789	0.0000000E+000	0.0000000E+000	0.0000000E+000	63.1789	0.0000000E+000	0.0000000E+000	0.0000000E+000	-63.1789	0.0000000E+000	0.0000000E+000	0.0000000E+000	-26.8211	0.0000000E+000	0.0000000E+000	0.0000000E+000	26.8211	1.97786	63.1789	-4.40564e-06	-0.000137231	3.44434e-09	-0.000137235	3.96878	114773	2.88066	114776
631.01	10.9885	5.35342	12.2232	-25.9745	16.0565	3.96867	-0.0348396	47.1143	9.03741	1	10	0.00451966	0.00036976	0	-7.08455e-05	0.000110426	1.01069e-05	-25.2918	0.0273338	0.0247137	0.0116778	-25.973	12.2506	11.0133	5.3651	0.0735476	0.0358311	0.0818114	25.9745	9037.41	18550.4	20634.7	-64.0255	0.0000000E+000	0.0000000E+000	0.0000000E+000	64.0255	0.0000000E+000	0.0000000E+000	0.0000000E+000	-64.0255	0.0000000E+000	0.0000000E+000	0.0000000E+000	-25.9745	0.0000000E+000	0.0000000E+000	0.0000000E+000	25.9745	2.05262	64.0255	-4.25306e-06	-0.000138267	-3.84718e-09	-0.000138263	3.96856	113913	3.16954	113909
398.089	12.9045	5.81817	14.1555	-24.2688	17.1729	3.96868	-0.0340864	68.7153	11.6085	1	10	0.00499902	0.000353151	0	-8.15084e-05	1.49552e-05	2.43575e-05	15.2829	0.0689719	0.0665328	-0.01818	-24.0917	14.2087	12.9711	5.79999	0.064401	0.029036	0.070644	24.2688	11608.5	25747.3	28243.3	-65.7312	0.0000000E+000	0.0000000E+000	0.0000000E+000	65.7312	0.0000000E+000	0.0000000E+000	0.0000000E+000	-65.7312	0.0000000E+000	0.0000000E+000	0.0000000E+000	-24.2688	0.0000000E+000	0.0000000E+000	0.0000000E+000	24.2688	2.21797	65.7312	-6.27338e-06	-0.000135278	-5.0977e-10	-0.000135277	3.96867	116430	0.438746	116430
251.044	14.9675	5.86761	16.0766	-21.4063	18.071	3.96867	-0.0345748	108.046	14.3928	1	10	0.00499699	0.000310824	0	-9.01626e-05	-0.000252362	3.47166e-05	18.1308	0.111692	0.106146	-0.0347571	-21.1542	16.1629	15.0737	5.83285	0.0579114	0.0227025	0.0622023	21.4063	14392.8	36714.1	39434.5	-68.5937	0.0000000E+000	0.0000000E+000	0.0000000E+000	68.5937	0.0000000E+000	0.0000000E+000	0.0000000E+000	-68.5937	0.0000000E+000	0.0000000E+000	0.0000000E+000	-21.4063	0.0000000E+000	0.0000000E+000	0.0000000E+000	21.4063	2.55088	68.5937	-4.38279e-06	-0.000137216	8.72536e-09	-0.000137225	3.96892	114785	7.299	114792
158.428	17.2228	5.54308	18.0928	-17.8405	18.9759	3.96867	-0.033404	181.232	17.0108	1	10	0.00496972	0.000274679	0	-9.90823e-05	-0.000118703	5.672e-06	25.0042	0.0206495	0.0187142	-0.00872824	-17.7961	18.108	17.2415	5.53435	0.0526127	0.0169332	0.0552705	17.8405	17010.8	52854	55524	-72.1595	0.0000000E+000	0.0000000E+000	0.0000000E+000	72.1595	0.0000000E+000	0.0000000E+000	0.0000000E+000	-72.1595	0.0000000E+000	0.0000000E+000	0.0000000E+000	-17.8405	0.0000000E+000	0.0000000E+000	0.0000000E+000	17.8405	3.10708	72.1595	-4.30138e-06	-0.000132569	3.96516e-09	-0.000132573	3.96879	118808	3.55357	118812
100.032	19.103	4.77688	19.6912	-14.0394	19.8748	3.96868	-0.0339409	333.071	19.6011	1	10	0.00496998	0.000252395	0	-0.000107181	3.40493e-05	6.41021e-06	-61.0921	0.0253975	0.0122772	0.0222329	-14.0935	19.7086	19.1153	4.79912	0.049267	0.0123197	0.050784	14.0394	19601.1	78385.8	80799.4	-75.9606	0.0000000E+000	0.0000000E+000	0.0000000E+000	75.9606	0.0000000E+000	0.0000000E+000	0.0000000E+000	-75.9606	0.0000000E+000	0.0000000E+000	0.0000000E+000	-14.0394	0.0000000E+000	0.0000000E+000	0.0000000E+000	14.0394	3.99906	75.9606	-4.02127e-06	-0.000134701	-1.15567e-09	-0.0001347	3.96865	116929	1.00319	116928
63.0823	20.3869	3.76284	20.7313	-10.4575	21.0429	3.96872	-0.0336589	670.497	22.0891	1	11	0.00496928	0.0002397	0	-0.000117535	-4.13882e-06	1.04907e-05	168.069	0.0437661	-0.0428207	-0.00904776	-10.4544	20.6875	20.3441	3.75379	0.0474351	0.00875517	0.0482363	10.4575	22089.1	119678	121699	-79.5425	0.0000000E+000	0.0000000E+000	0.0000000E+000	79.5425	0.0000000E+000	0.0000000E+000	0.0000000E+000	-79.5425	0.0000000E+000	0.0000000E+000	0.0000000E+000	-10.4575	0.0000000E+000	0.0000000E+000	0.0000000E+000	10.4575	5.41796	79.5425	-6.03667e-06	-0.000133583	1.39308e-10	-0.000133583	3.96873	117910	0.122963	117910
39.8089	21.2633	2.83967	21.4521	-7.60674	21.9438	3.96872	-0.0336011	1407.9	24.67	1	11	0.00497152	0.00023175	0	-0.000126033	-0.000233268	8.42995e-06	108.569	0.0363751	-0.0115836	-0.0344814	-7.51948	21.4361	21.2517	2.80519	0.0462053	0.00617064	0.0466155	7.60674	24670	184728	186368	-82.3933	0.0000000E+000	0.0000000E+000	0.0000000E+000	82.3933	0.0000000E+000	0.0000000E+000	0.0000000E+000	-82.3933	0.0000000E+000	0.0000000E+000	0.0000000E+000	-7.60674	0.0000000E+000	0.0000000E+000	0.0000000E+000	7.60674	7.48794	82.3933	-4.29551e-06	-0.000133353	7.83806e-09	-0.000133361	3.96895	118113	6.94225	118119
25.1044	21.8089	2.08929	21.9087	-5.47224	22.8231	3.96871	-0.0332786	3034.38	27.5953	1	11	0.00497274	0.000226976	0	-0.000134325	-0.000233268	7.4276e-06	-114.916	0.0327242	-0.0137863	0.0296785	-5.55298	21.8979	21.7951	2.11897	0.0454359	0.00435276	0.0456439	5.47224	27595.3	288051	289369	-84.5278	0.0000000E+000	0.0000000E+000	0.0000000E+000	84.5278	0.0000000E+000	0.0000000E+000	0.0000000E+000	-84.5278	0.0000000E+000	0.0000000E+000	0.0000000E+000	-5.47224	0.0000000E+000	0.0000000E+000	0.0000000E+000	5.47224	10.4384	84.5278	-3.82508e-06	-0.000132073	7.76281e-09	-0.000132081	3.96895	119257	7.00954	119264
15.8576	22.1495	1.52919	22.2022	-3.94941	23.701	3.96872	-0.0329598	6563.3	31.1353	1	11	0.00497351	0.00022401	0	-0.000143341	0.000167708	1.22377e-05	-106.073	0.0546304	-0.0151254	0.0524948	-4.08732	22.1908	22.1343	1.58168	0.0449336	0.0031022	0.0450406	3.94941	31135.3	450977	452051	-86.0506	0.0000000E+000	0.0000000E+000	0.0000000E+000	86.0506	0.0000000E+000	0.0000000E+000	0.0000000E+000	-86.0506	0.0000000E+000	0.0000000E+000	0.0000000E+000	-3.94941	0.0000000E+000	0.0000000E+000	0.0000000E+000	3.94941	14.4844	86.0506	-4.71952e-06	-0.000130808	-5.52761e-09	-0.000130802	3.96855	120411	5.08826	120406
10.0032	22.3437	1.21281	22.3766	-3.10696	24.6818	3.96872	-0.0324981	13118.6	38.5378	1	11	0.00496522	0.000221894	0	-0.000150877	-0.000137797	8.27322e-06	-70.3384	0.0372846	0.012545	0.0351108	-3.19493	22.391	22.3562	1.24792	0.0446239	0.00242218	0.0446896	3.10696	38537.8	709984	711029	-86.893	0.0000000E+000	0.0000000E+000	0.0000000E+000	86.893	0.0000000E+000	0.0000000E+000	0.0000000E+000	-86.893	0.0000000E+000	0.0000000E+000	0.0000000E+000	-3.10696	0.0000000E+000	0.0000000E+000	0.0000000E+000	3.10696	18.4231	86.893	-2.21746e-06	-0.000128976	4.47815e-09	-0.00012898	3.96886	122122	4.24016	122126
6.31058	22.5437	0.983012	22.5652	-2.49678	25.6053	3.96871	-0.0332834	25656.2	48.6892	1	11	0.0049637	0.000219972	0	-0.000160067	3.40493e-05	9.22007e-06	-33.3399	0.0419148	0.0350166	0.0230366	-2.55126	22.6012	22.5788	1.00605	0.044274	0.00193055	0.0443161	2.49678	48689.2	1.11661e+06	1.11767e+06	-87.5032	0.0000000E+000	0.0000000E+000	0.0000000E+000	87.5032	0.0000000E+000	0.0000000E+000	0.0000000E+000	-87.5032	0.0000000E+000	0.0000000E+000	0.0000000E+000	-2.49678	0.0000000E+000	0.0000000E+000	0.0000000E+000	2.49678	22.9333	87.5032	-2.28519e-06	-0.000132092	-1.13328e-09	-0.000132091	3.96868	119240	1.02301	119239
3.97785	22.7495	0.926088	22.7683	-2.33111	26.6124	3.96873	-0.0310456	43203.5	71.4762	1	11	0.00497061	0.000218313	0	-0.000168881	0.000244084	2.69102e-06	-45.3808	0.0123265	0.00865801	0.00877387	-2.35228	22.7773	22.7582	0.934862	0.0438843	0.00178645	0.0439206	2.33111	71476.2	1.75582e+06	1.75728e+06	-87.6689	0.0000000E+000	0.0000000E+000	0.0000000E+000	87.6689	0.0000000E+000	0.0000000E+000	0.0000000E+000	-87.6689	0.0000000E+000	0.0000000E+000	0.0000000E+000	-2.33111	0.0000000E+000	0.0000000E+000	0.0000000E+000	2.33111	24.5652	87.6689	-6.57158e-06	-0.000123212	-7.57774e-09	-0.000123204	3.96849	127835	7.8621	127828
2.51367	22.8989	0.907091	22.9169	-2.26846	28.1719	3.96872	-0.0306573	69800.8	109.358	1	11	0.00496481	0.000216644	0	-0.000184146	-0.000252362	3.46858e-06	-157.911	0.0160105	-0.0148353	0.00602079	-2.28498	22.9023	22.8841	0.913112	0.0436017	0.00172719	0.0436359	2.26846	109358	2.76067e+06	2.76284e+06	-87.7315	0.0000000E+000	0.0000000E+000	0.0000000E+000	87.7315	0.0000000E+000	0.0000000E+000	0.0000000E+000	-87.7315	0.0000000E+000	0.0000000E+000	0.0000000E+000	-2.26846	0.0000000E+000	0.0000000E+000	0.0000000E+000	2.26846	25.2444	87.7315	-6.71049e-06	-0.00012167	7.73673e-09	-0.000121678	3.96898	129454	8.23169	129463
1.58469	23.1338	0.938126	23.1528	-2.3222	30.6075	3.96873	-0.0297912	107057	175.765	1	11	0.00497343	0.000214809	0	-0.000196704	-0.000137797	3.97242e-06	-78.1616	0.0184928	0.00379383	0.0180994	-2.36657	23.1573	23.1376	0.956226	0.0431559	0.00175007	0.0431914	2.3222	175765	4.33428e+06	4.33784e+06	-87.6778	0.0000000E+000	0.0000000E+000	0.0000000E+000	87.6778	0.0000000E+000	0.0000000E+000	0.0000000E+000	-87.6778	0.0000000E+000	0.0000000E+000	0.0000000E+000	-2.3222	0.0000000E+000	0.0000000E+000	0.0000000E+000	2.3222	24.6595	87.6778	-7.39282e-06	-0.000118233	4.10515e-09	-0.000118237	3.96887	133218	4.62544	133223
1.00469	23.579	1.00886	23.6006	-2.44999	241.425	3.9687	-0.0237615	157020	286.928	1	11	0.00503869	0.000213499	0	-0.00254507	0.000110426	4.21103e-07	-5.20291	0.00197239	0.00196426	0.000178862	-2.45022	23.6025	23.581	1.00904	0.0423331	0.00181128	0.0423719	2.44999	286928	6.70605e+06	6.71219e+06	-87.55	0.0000000E+000	0.0000000E+000	0.0000000E+000	87.55	0.0000000E+000	0.0000000E+000	0.0000000E+000	-87.55	0.0000000E+000	0.0000000E+000	0.0000000E+000	-2.44999	0.0000000E+000	0.0000000E+000	0.0000000E+000	2.44999	23.3719	87.55	-0.00233453	-9.43023e-05	-2.62388e-09	-9.42997e-05	3.96859	167022	4.64724	167018
0.632957	23.8237	1.16648	23.8523	-2.80314	241.427	3.9687	-0.0237615	215560	515.543	1	11	0.00504981	0.000211712	0	-0.00254507	0.000110426	5.39003e-07	-14.7845	0.00254592	0.00246163	0.00064968	-2.8044	23.8547	23.8262	1.16713	0.0418746	0.00205031	0.0419248	2.80314	515543	1.05292e+07	1.05418e+07	-87.1969	0.0000000E+000	0.0000000E+000	0.0000000E+000	87.1969	0.0000000E+000	0.0000000E+000	0.0000000E+000	-87.1969	0.0000000E+000	0.0000000E+000	0.0000000E+000	-2.80314	0.0000000E+000	0.0000000E+000	0.0000000E+000	2.80314	20.4236	87.1969	0.000000000000000E+000	-9.43023e-05	-2.62388e-09	-9.42997e-05	3.96859	167022	4.64724	167018
0.401878	24.0184	1.41984	24.0604	-3.38309	241.429	3.9687	-0.0237615	278924	971.32	1	11	0.00506302	0.00021043	0	-0.00254507	0.000110426	4.80802e-07	10.4798	0.00228486	0.00224674	-0.000415591	-3.38178	24.0626	24.0207	1.41943	0.0414897	0.00245265	0.0415621	3.38309	971320	1.64311e+07	1.64598e+07	-86.6169	0.0000000E+000	0.0000000E+000	0.0000000E+000	86.6169	0.0000000E+000	0.0000000E+000	0.0000000E+000	-86.6169	0.0000000E+000	0.0000000E+000	0.0000000E+000	-3.38309	0.0000000E+000	0.0000000E+000	0.0000000E+000	3.38309	16.9163	86.6169	0.000000000000000E+000	-9.43023e-05	-2.62388e-09	-9.42997e-05	3.96859	167022	4.64724	167018
0.251173	24.4546	1.76112	24.518	-4.11909	241.431	3.9687	-0.0237615	359797	1856.38	1	11	0.00506531	0.000206596	0	-0.00254507	0.000110426	1.63051e-07	92.9714	0.000789229	-4.09115e-05	-0.000788168	-4.11726	24.5179	24.4546	1.76033	0.0406811	0.00292968	0.0407864	4.11909	1.85638e+06	2.57774e+07	2.58441e+07	-85.8809	0.0000000E+000	0.0000000E+000	0.0000000E+000	85.8809	0.0000000E+000	0.0000000E+000	0.0000000E+000	-85.8809	0.0000000E+000	0.0000000E+000	0.0000000E+000	-4.11909	0.0000000E+000	0.0000000E+000	0.0000000E+000	4.11909	13.8858	85.8809	0.000000000000000E+000	-9.43023e-05	-2.62388e-09	-9.42997e-05	3.96859	167022	4.64724	167018
0.160751	24.8623	2.04946	24.9466	-4.71238	241.432	3.9687	-0.0237615	483090	3260.49	1	11	0.00505828	0.000202765	0	-0.00254507	0.000110426	5.77778e-07	11.6678	0.0028495	0.00279062	-0.000576277	-4.71053	24.9493	24.8651	2.04888	0.0399501	0.00329319	0.0400856	4.71238	3.26049e+06	3.95535e+07	3.96876e+07	-85.2876	0.0000000E+000	0.0000000E+000	0.0000000E+000	85.2876	0.0000000E+000	0.0000000E+000	0.0000000E+000	-85.2876	0.0000000E+000	0.0000000E+000	0.0000000E+000	-4.71238	0.0000000E+000	0.0000000E+000	0.0000000E+000	4.71238	12.1311	85.2876	0.000000000000000E+000	-9.43023e-05	-2.62388e-09	-9.42997e-05	3.96859	167022	4.64724	167018
0.100469	25.3584	2.83196	25.516	-6.37225	241.434	3.9687	-0.0237615	559370	6890.46	1	11	0.0050605	0.000198327	0	-0.00254507	0.000110426	7.44609e-07	26.9509	0.00375446	0.00334671	-0.00170162	-6.36762	25.5192	25.3617	2.83026	0.0389489	0.00434973	0.0391911	6.37225	6.89046e+06	6.16996e+07	6.20831e+07	-83.6277	0.0000000E+000	0.0000000E+000	0.0000000E+000	83.6277	0.0000000E+000	0.0000000E+000	0.0000000E+000	-83.6277	0.0000000E+000	0.0000000E+000	0.0000000E+000	-6.37225	0.0000000E+000	0.0000000E+000	0.0000000E+000	6.37225	8.95434	83.6277	0.000000000000000E+000	-9.43023e-05	-2.62388e-09	-9.42997e-05	3.96859	167022	4.64724	167018
0.0602816	26.182	3.38281	26.3997	-7.36202	241.436	3.9687	-0.0237615	780473	12814.9	1	11	0.00505567	0.000191505	0	-0.00254507	0.000110426	2.88513e-07	-42.988	0.00150655	0.00110204	0.00102724	-7.36393	26.4009	26.1831	3.38384	0.037567	0.00485378	0.0378793	7.36202	1.28149e+07	9.9184e+07	1.00008e+08	-82.638	0.0000000E+000	0.0000000E+000	0.0000000E+000	82.638	0.0000000E+000	0.0000000E+000	0.0000000E+000	-82.638	0.0000000E+000	0.0000000E+000	0.0000000E+000	-7.36202	0.0000000E+000	0.0000000E+000	0.0000000E+000	7.36202	7.73974	82.638	0.000000000000000E+000	-9.43023e-05	-2.62388e-09	-9.42997e-05	3.96859	167022	4.64724	167018
0.0401878	27.2762	3.9532	27.5612	-8.2466	241.437	3.9687	-0.0237615	1.00179e+06	20610.1	1	11	0.00505477	0.000183402	0	-0.00254507	0.000110426	7.59074e-07	3.30499	0.00413886	0.00413197	-0.000238609	-8.24487	27.5652	27.2803	3.95297	0.0359078	0.0052042	0.0362829	8.2466	2.06101e+07	1.42205e+08	1.43691e+08	-81.7534	0.0000000E+000	0.0000000E+000	0.0000000E+000	81.7534	0.0000000E+000	0.0000000E+000	0.0000000E+000	-81.7534	0.0000000E+000	0.0000000E+000	0.0000000E+000	-8.2466	0.0000000E+000	0.0000000E+000	0.0000000E+000	8.2466	6.89977	81.7534	0.000000000000000E+000	-9.43023e-05	-2.62388e-09	-9.42997e-05	3.96859	167022	4.64724	167018
0.0200939	29.2848	5.9804	29.8892	-11.542	241.439	3.9687	-0.0237615	1.32442e+06	53022.3	1	11	0.00505721	0.000169199	0	-0.00254507	0.000110426	3.03415e-07	45.4176	0.00179324	0.00125874	-0.00127722	-11.5391	29.8901	29.286	5.97912	0.0327804	0.00669426	0.0334569	11.542	5.30223e+07	2.59639e+08	2.64998e+08	-78.458	0.0000000E+000	0.0000000E+000	0.0000000E+000	78.458	0.0000000E+000	0.0000000E+000	0.0000000E+000	-78.458	0.0000000E+000	0.0000000E+000	0.0000000E+000	-11.542	0.0000000E+000	0.0000000E+000	0.0000000E+000	11.542	4.89679	78.458	0.000000000000000E+000	-9.43023e-05	-2.62388e-09	-9.42997e-05	3.96859	167022	4.64724	167018
0.00796479	34.6696	7.69167	35.5126	-12.5088	20330.3	3.9687	-0.00038706	2.59792e+06	121871	1	11	0.00505314	0.000142291	0	-0.0152021	7.22374e-05	8.52436e-07	-0.422133	0.00599077	0.00599061	4.41373e-05	-12.5068	35.5185	34.6756	7.69171	0.0274906	0.00609896	0.028159	12.5088	1.21871e+08	5.49326e+08	5.62683e+08	-77.4912	0.0000000E+000	0.0000000E+000	0.0000000E+000	77.4912	0.0000000E+000	0.0000000E+000	0.0000000E+000	-77.4912	0.0000000E+000	0.0000000E+000	0.0000000E+000	-12.5088	0.0000000E+000	0.0000000E+000	0.0000000E+000	12.5088	4.50743	77.4912	-0.012657	-1.53612e-06	-2.79602e-11	-1.5361e-06	3.96862	1.02534e+07	186.631	1.02532e+07
0.00497799	37.6809	8.41578	38.6092	-12.59	20330.3	3.9687	-0.00038706	3.79902e+06	180500	1	11	0.00506102	0.000131083	0	-0.0152021	7.22374e-05	9.19819e-07	-158.281	0.00701706	-0.00651891	0.00259672	-12.5959	38.6034	37.6743	8.41837	0.0252778	0.00564563	0.0259005	12.59	1.805e+08	8.08174e+08	8.28085e+08	-77.41	0.0000000E+000	0.0000000E+000	0.0000000E+000	77.41	0.0000000E+000	0.0000000E+000	0.0000000E+000	-77.41	0.0000000E+000	0.0000000E+000	0.0000000E+000	-12.59	0.0000000E+000	0.0000000E+000	0.0000000E+000	12.59	4.47741	77.41	0.000000000000000E+000	-1.53612e-06	-2.79602e-11	-1.5361e-06	3.96862	1.02534e+07	186.631	1.02532e+07
0.00318591	39.9045	10.1509	41.1754	-14.2722	20330.3	3.9687	-0.00038706	4.92132e+06	299099	1	11	0.00506292	0.00012296	0	-0.0152021	7.22374e-05	1.2443e-06	1.72436	0.0101196	0.010115	-0.000304509	-14.2683	41.1851	39.9146	10.1506	0.0235368	0.00598727	0.0242864	14.2722	2.99099e+08	1.1758e+09	1.21324e+09	-75.7278	0.0000000E+000	0.0000000E+000	0.0000000E+000	75.7278	0.0000000E+000	0.0000000E+000	0.0000000E+000	-75.7278	0.0000000E+000	0.0000000E+000	0.0000000E+000	-14.2722	0.0000000E+000	0.0000000E+000	0.0000000E+000	14.2722	3.93113	75.7278	0.000000000000000E+000	-1.53612e-06	-2.79602e-11	-1.5361e-06	3.96862	1.02534e+07	186.631	1.02532e+07
0.0019912	42.3528	10.9764	43.7521	-14.5294	20330.3	3.9687	-0.00038706	7.28193e+06	458320	1	11	0.005067	0.000115812	0	-0.0152021	7.22374e-05	6.62945e-07	-153.988	0.00572434	-0.00514447	0.00251047	-14.5343	43.7477	42.3477	10.9789	0.0221251	0.00573406	0.0228561	14.5294	4.5832e+08	1.76844e+09	1.82687e+09	-75.4706	0.0000000E+000	0.0000000E+000	0.0000000E+000	75.4706	0.0000000E+000	0.0000000E+000	0.0000000E+000	-75.4706	0.0000000E+000	0.0000000E+000	0.0000000E+000	-14.5294	0.0000000E+000	0.0000000E+000	0.0000000E+000	14.5294	3.85854	75.4706	0.000000000000000E+000	-1.53612e-06	-2.79602e-11	-1.5361e-06	3.96862	1.02534e+07	186.631	1.02532e+07
0.00129428	43.5252	11.8865	45.1191	-15.2747	20330.3	3.9687	-0.00038706	1.03452e+07	718001	1	11	0.00506524	0.000112264	0	-0.0152021	7.22374e-05	5.51597e-07	52.218	0.0049134	0.00301024	-0.0038833	-15.2689	45.121	43.5282	11.8826	0.0213806	0.00583892	0.0221636	15.2747	7.18001e+08	2.62914e+09	2.72541e+09	-74.7253	0.0000000E+000	0.0000000E+000	0.0000000E+000	74.7253	0.0000000E+000	0.0000000E+000	0.0000000E+000	-74.7253	0.0000000E+000	0.0000000E+000	0.0000000E+000	-15.2747	0.0000000E+000	0.0000000E+000	0.0000000E+000	15.2747	3.66174	74.7253	0.000000000000000E+000	-1.53612e-06	-2.79602e-11	-1.5361e-06	3.96862	1.02534e+07	186.631	1.02532e+07
0.000796479	46.317	13.8041	48.3303	-16.5959	20330.3	3.9687	-0.00038706	1.44757e+07	1.1809e+06	1	11	0.00506783	0.000104858	0	-0.0152021	7.22374e-05	1.63755e-06	-142.552	0.0156168	-0.0123982	0.00949574	-16.6109	48.3212	46.3046	13.8136	0.019829	0.00590974	0.0206909	16.5959	1.1809e+09	3.9623e+09	4.13453e+09	-73.4041	0.0000000E+000	0.0000000E+000	0.0000000E+000	73.4041	0.0000000E+000	0.0000000E+000	0.0000000E+000	-73.4041	0.0000000E+000	0.0000000E+000	0.0000000E+000	-16.5959	0.0000000E+000	0.0000000E+000	0.0000000E+000	16.5959	3.35531	73.4041	0.000000000000000E+000	-1.53612e-06	-2.79602e-11	-1.5361e-06	3.96862	1.02534e+07	186.631	1.02532e+07
0.000497799	47.1482	17.2994	50.2217	-20.1489	20330.3	3.9687	-0.00038706	1.84814e+07	2.19287e+06	1	11	0.00506653	0.000100883	0	-0.0152021	7.22374e-05	1.06157e-06	52.8185	0.0105228	0.00635935	-0.00838374	-20.1374	50.2248	47.1546	17.291	0.0186931	0.00685879	0.0199117	20.1489	2.19287e+09	5.97651e+09	6.36611e+09	-69.8512	0.0000000E+000	0.0000000E+000	0.0000000E+000	69.8512	0.0000000E+000	0.0000000E+000	0.0000000E+000	-69.8512	0.0000000E+000	0.0000000E+000	0.0000000E+000	-20.1489	0.0000000E+000	0.0000000E+000	0.0000000E+000	20.1489	2.72543	69.8512	0.000000000000000E+000	-1.53612e-06	-2.79602e-11	-1.5361e-06	3.96862	1.02534e+07	186.631	1.02532e+07
0.000298679	47.1423	27.8314	54.7447	-30.5563	20330.3	3.9687	-0.00038706	1.91461e+07	4.9484e+06	1	11	0.00506545	9.25285e-05	0	-0.0152021	7.22374e-05	2.10734e-06	-109.928	0.022775	-0.00776258	0.0214113	-30.5797	54.7489	47.1345	27.8528	0.0157299	0.00928647	0.0182666	30.5563	4.9484e+09	8.38188e+09	9.73358e+09	-59.4437	0.0000000E+000	0.0000000E+000	0.0000000E+000	59.4437	0.0000000E+000	0.0000000E+000	0.0000000E+000	-59.4437	0.0000000E+000	0.0000000E+000	0.0000000E+000	-30.5563	0.0000000E+000	0.0000000E+000	0.0000000E+000	30.5563	1.69385	59.4437	0.000000000000000E+000	-1.53612e-06	-2.79602e-11	-1.5361e-06	3.96862	1.02534e+07	186.631	1.02532e+07
9.95598e-05	55.4006	85.871	102.191	-57.1715	20330.3	3.9687	-0.00038706	1.86161e+07	1.31448e+07	1	11	0.0050711	4.96236e-05	0	-0.0152021	7.22374e-05	3.76031e-06	99.4118	0.0757765	-0.0123917	-0.0747565	-57.1546	102.122	55.3882	85.7962	0.00530502	0.00822279	0.00978557	57.1715	1.31448e+10	8.48053e+09	1.56431e+10	-32.8285	0.0000000E+000	0.0000000E+000	0.0000000E+000	32.8285	0.0000000E+000	0.0000000E+000	0.0000000E+000	-32.8285	0.0000000E+000	0.0000000E+000	0.0000000E+000	-57.1715	0.0000000E+000	0.0000000E+000	0.0000000E+000	57.1715	0.645161	32.8285	0.000000000000000E+000	-1.53612e-06	-2.79602e-11	-1.5361e-06	3.96862	1.02534e+07	186.631	1.02532e+07