File: txt/18712_R307_UA701_SOC00_C07.mpt
EC-Lab ASCII FILE
Nb header lines : 65

Potentio Electrochemical Impedance Spectroscopy

Run on channel : 7 (SN 66126)
User :
CE vs. WE compliance from -10 V to 10 V
Electrode connection : standard
Potential control : Ewe
Ewe ctrl range : min = -10.00 V, max = 10.00 V
Safety Limits :
	Do not start on E overload
Acquisition started on : 10/28/2025 15:31:01.789
Technique started on : 10/28/2025 15:31:03.843
Loaded Setting File :  C:\Users\Celltest\OneDrive - store-dot.com\Documents\EC-Lab\Data\@Biologic Test Protocols\anode half cell EIS SOC00.mps
Saved on :
	File : 18712_R307_UA701_SOC00_C07.mpr
	Directory : C:\Users\Celltest\OneDrive - store-dot.com\Documents\EC-Lab\Data\Anna\
	Host : 169.254.61.224
Device : VMP-3e (SN .003165)
Address : USB
EC-LAB for windows v11.62 (software)
Internet server v27.00 (firmware)
Command interpretor v12.03 (firmware)
Electrode material :
Initial state :
Electrolyte :
Comments :
Electrode surface area : 0.001 cm²
Characteristic mass : 0.001 g
Equivalent Weight : 0.000 g/eq.
Density : 0.000 g/cm3
Volume (V) : 0.001 cm³
Record Ece
Cycle Definition : Charge/Discharge alternance
Mode                Single sine
E (V)               0.0000
vs.                 Eoc
tE (h:m:s)          0:00:0.0000
record              0
dI                  0.000
unit dI             mA
dt (s)              0.000
fi                  100.000
unit fi             kHz
ff                  10.000
unit ff             mHz
Nd                  6
Points              per decade
spacing             Logarithmic
Va (mV)             5.0
pw                  0.10
Na                  2
corr                0
E range min (V)     -10.000
E range max (V)     10.000
I Range             Auto
Bandwidth           5
nc cycles           0
goto Ns'            0
nr cycles           0
inc. cycle          0

freq/Hz	Re(Z)/Ohm	-Im(Z)/Ohm	|Z|/Ohm	Phase(Z)/deg	time/s	<Ewe>/V	<I>/mA	Cs/µF	Cp/µF	cycle number	I Range	|Ewe|/V	|I|/A	Ns	(Q-Qo)/mA.h	<Ece>/V	|Ece|/V	Phase(Zce)/deg	|Zce|/Ohm	Re(Zce)/Ohm	-Im(Zce)/Ohm	Phase(Zwe-ce)/deg	|Zwe-ce|/Ohm	Re(Zwe-ce)/Ohm	-Im(Zwe-ce)/Ohm	Re(Y)/Ohm-1	Im(Y)/Ohm-1	|Y|/Ohm-1	Phase(Y)/deg	Re(C)/nF	Im(C)/nF	|C|/nF	Phase(C)/deg	Re(M)	Im(M)	|M|	Phase(M)/deg	Re(Permittivity)	Im(Permittivity)	|Permittivity|	Phase(Permittivity)/deg	Re(Resistivity)/Ohm.cm	Im(Resistivity)/Ohm.cm	|Resistivity|/Ohm.cm	Phase(Resistivity)/deg	Re(Conductivity)/mS/cm	Im(Conductivity)/mS/cm	|Conductivity|/mS/cm	Phase(Conductivity)/deg	Tan(Delta)	Loss Angle(Delta)/deg	dq/mA.h	Pwe/W	Pce/W	Pwe-ce/W	<Ewe-Ece>/V	Rwe/Ohm	Rce/Ohm	Rwe-ce/Ohm		Ewe-Ece/V
100004	1.17026	0.453031	1.25489	-21.1624	2.05355	0.240187	0.0744795	3.51298	0.457847	1	9	0.00495781	0.00395079	0	1.47579e-05	-0.000307521	4.86343e-05	90.5739	0.01231	-0.000123303	-0.0123094	-20.6384	1.25038	1.17014	0.440722	0.743141	0.287684	0.796882	21.1624	457.847	1182.7	1268.23	-68.8376	0.0000000E+000	0.0000000E+000	0.0000000E+000	68.8376	0.0000000E+000	0.0000000E+000	0.0000000E+000	-68.8376	0.0000000E+000	0.0000000E+000	0.0000000E+000	-21.1624	0.0000000E+000	0.0000000E+000	0.0000000E+000	21.1624	2.58318	68.8376	1.47579e-05	1.7889e-05	-2.2904e-08	1.79119e-05	0.240494	3224.87	4.12893	3229
68132	1.2928	0.495196	1.3844	-20.9589	2.56051	0.240201	0.07299	4.71728	0.603565	1	9	0.0050334	0.0036358	0	2.77158e-05	-0.00026937	3.48222e-05	71.8697	0.00957757	0.00298034	-0.00910206	-20.5628	1.38396	1.29578	0.486094	0.674544	0.258378	0.722336	20.9589	603.565	1575.72	1687.36	-69.0411	0.0000000E+000	0.0000000E+000	0.0000000E+000	69.0411	0.0000000E+000	0.0000000E+000	0.0000000E+000	-69.0411	0.0000000E+000	0.0000000E+000	0.0000000E+000	-20.9589	0.0000000E+000	0.0000000E+000	0.0000000E+000	20.9589	2.61069	69.0411	1.29579e-05	1.75323e-05	-1.96613e-08	1.75519e-05	0.24047	3290.87	3.6905	3294.56
46420.4	1.42733	0.536069	1.52467	-20.585	3.06754	0.240205	0.0747401	6.39574	0.79064	1	9	0.00506258	0.00332044	0	3.12457e-05	-0.000212144	1.03586e-05	39.9853	0.00311964	0.0023903	-0.00200465	-20.483	1.52621	1.42972	0.534064	0.614002	0.230604	0.655878	20.585	790.64	2105.14	2248.72	-69.415	0.0000000E+000	0.0000000E+000	0.0000000E+000	69.415	0.0000000E+000	0.0000000E+000	0.0000000E+000	-69.415	0.0000000E+000	0.0000000E+000	0.0000000E+000	-20.585	0.0000000E+000	0.0000000E+000	0.0000000E+000	20.585	2.66258	69.415	3.52996e-06	1.7953e-05	-1.58556e-08	1.79688e-05	0.240417	3213.87	2.83842	3216.71
31621.1	1.56341	0.574366	1.66557	-20.1724	3.45056	0.240211	0.0820384	8.76302	1.04209	1	9	0.00546523	0.00328129	0	3.00321e-05	3.58368e-05	2.0189e-05	53.5728	0.00615277	0.00365352	-0.00495059	-19.9694	1.66731	1.56706	0.569416	0.563565	0.207043	0.600394	20.1724	1042.09	2836.53	3021.89	-69.8276	0.0000000E+000	0.0000000E+000	0.0000000E+000	69.8276	0.0000000E+000	0.0000000E+000	0.0000000E+000	-69.8276	0.0000000E+000	0.0000000E+000	0.0000000E+000	-20.1724	0.0000000E+000	0.0000000E+000	0.0000000E+000	20.1724	2.72197	69.8276	-1.21364e-06	1.97066e-05	2.93999e-09	1.97036e-05	0.240176	2928.04	0.436829	2927.6
21544.7	1.70109	0.612718	1.80808	-19.8086	3.83354	0.240211	0.0779797	12.0564	1.38454	1	9	0.00538139	0.0029763	0	4.33461e-05	-0.000708105	1.0738e-05	23.6626	0.00360782	0.00330449	-0.001448	-19.73	1.8107	1.7044	0.61127	0.520348	0.187425	0.553074	19.8086	1384.54	3843.92	4085.67	-70.1915	0.0000000E+000	0.0000000E+000	0.0000000E+000	70.1915	0.0000000E+000	0.0000000E+000	0.0000000E+000	-70.1915	0.0000000E+000	0.0000000E+000	0.0000000E+000	-19.8086	0.0000000E+000	0.0000000E+000	0.0000000E+000	19.8086	2.77631	70.1915	1.33141e-05	1.87316e-05	-5.52178e-08	1.87868e-05	0.24092	3080.44	9.08063	3089.52
14678.6	1.84225	0.658001	1.95623	-19.6554	4.21856	0.24021	0.075671	16.4782	1.86433	1	9	0.00518597	0.00265101	0	5.3629e-05	-0.000288445	7.54438e-06	-97.4813	0.00284585	-0.000370536	0.00282163	-19.7368	1.95683	1.84187	0.660823	0.481402	0.171944	0.511187	19.6554	1864.33	5219.68	5542.63	-70.3446	0.0000000E+000	0.0000000E+000	0.0000000E+000	70.3446	0.0000000E+000	0.0000000E+000	0.0000000E+000	-70.3446	0.0000000E+000	0.0000000E+000	0.0000000E+000	-19.6554	0.0000000E+000	0.0000000E+000	0.0000000E+000	19.6554	2.79976	70.3446	1.02828e-05	1.81769e-05	-2.1827e-08	1.81987e-05	0.240498	3174.39	3.81183	3178.21
10002.2	1.98592	0.716843	2.11134	-19.8477	4.60355	0.24022	0.0753731	22.1973	2.55878	1	9	0.00510507	0.00241793	0	6.33063e-05	1.67614e-05	7.02956e-06	-102.368	0.00290726	-0.000622728	0.00283978	-19.9259	2.11172	1.9853	0.719682	0.445499	0.160809	0.473634	19.8477	2558.78	7088.76	7536.44	-70.1523	0.0000000E+000	0.0000000E+000	0.0000000E+000	70.1523	0.0000000E+000	0.0000000E+000	0.0000000E+000	-70.1523	0.0000000E+000	0.0000000E+000	0.0000000E+000	-19.8477	0.0000000E+000	0.0000000E+000	0.0000000E+000	19.8477	2.77037	70.1523	9.67736e-06	1.81062e-05	1.26336e-09	1.81049e-05	0.240204	3187.08	0.222379	3186.86
6810.42	2.18218	0.753609	2.30865	-19.0522	4.86251	0.240214	0.065096	31.0099	3.30428	1	9	0.00521805	0.00226022	0	6.72636e-05	-0.000250295	0.000124985	-121.863	0.0552976	-0.0291914	0.0469648	-20.3973	2.29702	2.15299	0.800574	0.409427	0.141394	0.433154	19.0522	3304.28	9568.02	10122.5	-70.9478	0.0000000E+000	0.0000000E+000	0.0000000E+000	70.9478	0.0000000E+000	0.0000000E+000	0.0000000E+000	-70.9478	0.0000000E+000	0.0000000E+000	0.0000000E+000	-19.0522	0.0000000E+000	0.0000000E+000	0.0000000E+000	19.0522	2.89564	70.9478	3.95732e-06	1.5637e-05	-1.62932e-08	1.56533e-05	0.240465	3690.16	3.84501	3694
4646	2.33436	0.868644	2.49074	-20.4109	5.12661	0.240194	0.0539251	39.4365	4.79653	1	9	0.0051258	0.00205794	0	6.95773e-05	-0.000116767	3.93656e-06	-33.0504	0.00191286	0.00160334	0.00104323	-20.4205	2.4926	2.33596	0.869688	0.37628	0.140019	0.401487	20.4109	4796.53	12890	13753.5	-69.5891	0.0000000E+000	0.0000000E+000	0.0000000E+000	69.5891	0.0000000E+000	0.0000000E+000	0.0000000E+000	-69.5891	0.0000000E+000	0.0000000E+000	0.0000000E+000	-20.4109	0.0000000E+000	0.0000000E+000	0.0000000E+000	20.4109	2.68736	69.5891	2.31367e-06	1.29525e-05	-6.29665e-09	1.29588e-05	0.240311	4454.22	2.16535	4456.38
3163.08	2.53509	0.975097	2.71616	-21.0387	5.50064	0.240081	0.014939	51.6015	6.6504	1	9	0.00505165	0.00185985	0	7.19569e-05	-7.86157e-05	1.24446e-05	-82.6817	0.0066912	0.000852328	0.00663669	-21.1628	2.71934	2.53594	0.981734	0.343624	0.132172	0.368167	21.0387	6650.41	17290	18524.9	-68.9613	0.0000000E+000	0.0000000E+000	0.0000000E+000	68.9613	0.0000000E+000	0.0000000E+000	0.0000000E+000	-68.9613	0.0000000E+000	0.0000000E+000	0.0000000E+000	-21.0387	0.0000000E+000	0.0000000E+000	0.0000000E+000	21.0387	2.59984	68.9613	2.37963e-06	3.58657e-06	-1.17444e-09	3.58774e-06	0.24016	16070.8	5.26247	16076.1
2155.69	2.76666	1.09258	2.97458	-21.5495	5.95179	0.240101	0.0409297	67.5742	9.11663	1	9	0.0049938	0.00167882	0	7.82347e-05	-0.000345672	5.94242e-06	-48.1699	0.00353963	0.00236067	0.00263747	-21.58	2.97775	2.76902	1.09522	0.312683	0.123481	0.336181	21.5495	9116.63	23085.4	24820.3	-68.4505	0.0000000E+000	0.0000000E+000	0.0000000E+000	68.4505	0.0000000E+000	0.0000000E+000	0.0000000E+000	-68.4505	0.0000000E+000	0.0000000E+000	0.0000000E+000	-21.5495	0.0000000E+000	0.0000000E+000	0.0000000E+000	21.5495	2.53223	68.4505	6.27777e-06	9.82728e-06	-1.41483e-08	9.84143e-06	0.240447	5866.18	8.44549	5874.63
1468.59	2.99939	1.23683	3.2444	-22.4094	6.40307	0.240105	0.0404084	87.6209	12.7339	1	9	0.00494089	0.0015229	0	8.3518e-05	-0.000231219	1.12138e-05	-150.543	0.00736348	-0.00641157	0.00362114	-22.5118	3.23986	2.99298	1.24046	0.284948	0.117501	0.308224	22.4094	12733.9	30880.5	33403	-67.5906	0.0000000E+000	0.0000000E+000	0.0000000E+000	67.5906	0.0000000E+000	0.0000000E+000	0.0000000E+000	-67.5906	0.0000000E+000	0.0000000E+000	0.0000000E+000	-22.4094	0.0000000E+000	0.0000000E+000	0.0000000E+000	22.4094	2.42506	67.5906	5.28327e-06	9.70225e-06	-9.3432e-09	9.71159e-06	0.240336	5941.94	5.72205	5947.66
1000.32	3.31217	1.41317	3.60104	-23.1061	7.09878	0.240137	-0.00912	112.586	17.3388	1	10	0.00499392	0.0013868	0	8.30226e-05	-0.000212144	1.29984e-05	-37.3864	0.00937299	0.00744739	0.00569116	-23.1428	3.61013	3.31962	1.41887	0.25542	0.108978	0.277697	23.1061	17338.8	40638.4	44182.7	-66.8939	0.0000000E+000	0.0000000E+000	0.0000000E+000	66.8939	0.0000000E+000	0.0000000E+000	0.0000000E+000	-66.8939	0.0000000E+000	0.0000000E+000	0.0000000E+000	-23.1061	0.0000000E+000	0.0000000E+000	0.0000000E+000	23.1061	2.34378	66.8939	-4.95398e-07	-2.19005e-06	1.93475e-09	-2.19198e-06	0.240349	26330.8	23.2614	26354.1
681.09	3.64096	1.6242	3.98681	-24.0412	7.54855	0.24014	-0.00894131	143.872	23.8783	1	10	0.00494378	0.00124003	0	8.23723e-05	-0.000154917	1.11149e-05	13.7765	0.00896336	0.00870551	-0.00213448	-23.9623	3.99389	3.64967	1.62206	0.229069	0.102185	0.250827	24.0412	23878.3	53528.1	58612.5	-65.9588	0.0000000E+000	0.0000000E+000	0.0000000E+000	65.9588	0.0000000E+000	0.0000000E+000	0.0000000E+000	-65.9588	0.0000000E+000	0.0000000E+000	0.0000000E+000	-24.0412	0.0000000E+000	0.0000000E+000	0.0000000E+000	24.0412	2.2417	65.9588	-6.5026e-07	-2.14717e-06	1.38516e-09	-2.14855e-06	0.240295	26857.4	17.326	26874.7
463.961	4.03084	1.86536	4.44153	-24.8334	8.00028	0.240148	-0.00835683	183.898	32.4366	1	10	0.00490697	0.00110479	0	8.19571e-05	-0.000421973	6.41798e-06	54.4025	0.00580922	0.00338148	-0.00472363	-24.7598	4.44262	4.03422	1.86064	0.204329	0.0945577	0.225148	24.8334	32436.6	70092	77233.6	-65.1666	0.0000000E+000	0.0000000E+000	0.0000000E+000	65.1666	0.0000000E+000	0.0000000E+000	0.0000000E+000	-65.1666	0.0000000E+000	0.0000000E+000	0.0000000E+000	-24.8334	0.0000000E+000	0.0000000E+000	0.0000000E+000	24.8334	2.16089	65.1666	-4.15224e-07	-2.00688e-06	3.52636e-09	-2.0104e-06	0.24057	28736.7	50.4944	28787.2
316.316	4.51625	2.12812	4.99253	-25.2304	8.44802	0.240142	-0.0095779	236.431	42.9588	1	10	0.00488811	0.000979084	0	8.00695e-05	-0.000364747	2.07049e-06	-138.777	0.00211472	-0.00159058	0.00139359	-25.2527	4.99169	4.51466	2.12951	0.181191	0.0853794	0.200299	25.2304	42958.8	91166.4	100781	-64.7696	0.0000000E+000	0.0000000E+000	0.0000000E+000	64.7696	0.0000000E+000	0.0000000E+000	0.0000000E+000	-64.7696	0.0000000E+000	0.0000000E+000	0.0000000E+000	-25.2304	0.0000000E+000	0.0000000E+000	0.0000000E+000	25.2304	2.12218	64.7696	-1.88756e-06	-2.30006e-06	3.49351e-09	-2.30355e-06	0.240507	25072.6	38.0821	25110.6
215.345	5.10577	2.4028	5.6429	-25.2019	8.89756	0.240143	-0.00909767	307.588	55.7698	1	10	0.00487655	0.000864192	0	7.85011e-05	-0.000326596	1.02145e-05	-7.99793	0.0118197	0.0117047	0.00164456	-25.1665	5.65419	5.11747	2.40444	0.160345	0.0754593	0.177214	25.2019	55769.8	118507	130974	-64.7981	0.0000000E+000	0.0000000E+000	0.0000000E+000	64.7981	0.0000000E+000	0.0000000E+000	0.0000000E+000	-64.7981	0.0000000E+000	0.0000000E+000	0.0000000E+000	-25.2019	0.0000000E+000	0.0000000E+000	0.0000000E+000	25.2019	2.12493	64.7981	-1.56839e-06	-2.18474e-06	2.97126e-09	-2.18771e-06	0.24047	26396.1	35.8989	26432
146.737	5.80285	2.6195	6.3667	-24.2952	9.34347	0.240135	-0.0106798	414.057	70.0922	1	10	0.00486349	0.000763896	0	7.66772e-05	-9.76912e-05	1.24558e-05	55.2455	0.0163056	0.00929521	-0.0133967	-24.151	6.36968	5.81214	2.60611	0.143157	0.0646235	0.157067	24.2952	70092.2	155272	170359	-65.7048	0.0000000E+000	0.0000000E+000	0.0000000E+000	65.7048	0.0000000E+000	0.0000000E+000	0.0000000E+000	-65.7048	0.0000000E+000	0.0000000E+000	0.0000000E+000	-24.2952	0.0000000E+000	0.0000000E+000	0.0000000E+000	24.2952	2.21525	65.7048	-1.82398e-06	-2.56461e-06	1.04333e-09	-2.56565e-06	0.240233	22484.9	9.14724	22494.1
100.032	6.58717	2.73253	7.13145	-22.53	9.79485	0.240131	-0.00949229	582.259	85.4852	1	10	0.00485984	0.000681466	0	7.61591e-05	-0.000288445	4.38742e-06	-18.5191	0.00643822	0.00610483	0.00204492	-22.5263	7.13787	6.59327	2.73458	0.129522	0.0537291	0.140224	22.53	85485.2	206075	223102	-67.47	0.0000000E+000	0.0000000E+000	0.0000000E+000	67.47	0.0000000E+000	0.0000000E+000	0.0000000E+000	-67.47	0.0000000E+000	0.0000000E+000	0.0000000E+000	-22.53	0.0000000E+000	0.0000000E+000	0.0000000E+000	22.53	2.41065	67.47	-5.18014e-07	-2.27939e-06	2.73801e-09	-2.28213e-06	0.240419	25297.4	30.3873	25327.8
68.104	7.40825	2.75896	7.90532	-20.4262	10.2575	0.240161	-0.00729959	847.036	103.17	1	10	0.0048623	0.000615067	0	7.55777e-05	-0.000193068	5.1086e-06	94.5795	0.00830575	-0.000663153	-0.00827924	-20.3716	7.90181	7.40759	2.75068	0.118543	0.0441476	0.126497	20.4262	103170	277029	295616	-69.5738	0.0000000E+000	0.0000000E+000	0.0000000E+000	69.5738	0.0000000E+000	0.0000000E+000	0.0000000E+000	-69.5738	0.0000000E+000	0.0000000E+000	0.0000000E+000	-20.4262	0.0000000E+000	0.0000000E+000	0.0000000E+000	20.4262	2.68516	69.5738	-5.81485e-07	-1.75308e-06	1.40932e-09	-1.75449e-06	0.240355	32900.7	26.4492	32927.1
46.4415	8.17372	2.61871	8.58297	-17.7645	10.6947	0.240137	-0.0111973	1308.66	121.822	1	10	0.00485283	0.000565402	0	7.44971e-05	-9.76912e-05	5.23478e-06	50.0226	0.00925851	0.00594845	-0.00709478	-17.7073	8.58647	8.17967	2.61162	0.110954	0.0355478	0.11651	17.7645	121822	380240	399278	-72.2355	0.0000000E+000	0.0000000E+000	0.0000000E+000	72.2355	0.0000000E+000	0.0000000E+000	0.0000000E+000	-72.2355	0.0000000E+000	0.0000000E+000	0.0000000E+000	-17.7645	0.0000000E+000	0.0000000E+000	0.0000000E+000	17.7645	3.12127	72.2355	-1.08057e-06	-2.68889e-06	1.09388e-09	-2.68998e-06	0.240234	21445.9	8.72452	21454.6
31.6296	8.87158	2.42249	9.19638	-15.273	11.1246	0.240139	-0.011417	2077.14	144.13	1	10	0.00485354	0.000527766	0	7.21362e-05	-7.86157e-05	1.09235e-05	-4.35423	0.0206977	0.0206379	0.00157142	-15.2486	9.2167	8.89222	2.42406	0.104898	0.0286436	0.108738	15.273	144130	527830	547155	-74.727	0.0000000E+000	0.0000000E+000	0.0000000E+000	74.727	0.0000000E+000	0.0000000E+000	0.0000000E+000	-74.727	0.0000000E+000	0.0000000E+000	0.0000000E+000	-15.273	0.0000000E+000	0.0000000E+000	0.0000000E+000	15.273	3.66217	74.727	-2.36092e-06	-2.74166e-06	8.97553e-10	-2.74255e-06	0.240218	21033.5	6.88588	21040.4
21.5517	9.45006	2.16974	9.69595	-12.931	11.5455	0.24013	-0.0127609	3403.53	170.438	1	10	0.00484869	0.000500074	0	7.06685e-05	-0.000250295	7.12016e-06	-90.3028	0.0142382	-7.52394e-05	0.014238	-13.0131	9.69907	9.44999	2.18398	0.10052	0.0230796	0.103136	12.931	170438	742322	761637	-77.069	0.0000000E+000	0.0000000E+000	0.0000000E+000	77.069	0.0000000E+000	0.0000000E+000	0.0000000E+000	-77.069	0.0000000E+000	0.0000000E+000	0.0000000E+000	-12.931	0.0000000E+000	0.0000000E+000	0.0000000E+000	12.931	4.35538	77.069	-1.4677e-06	-3.06427e-06	3.19398e-09	-3.06747e-06	0.240381	18817.7	19.6142	18837.3
14.6852	9.9502	1.95844	10.1411	-11.1349	12.0052	0.240141	-0.00803297	5533.9	206.387	1	10	0.00484938	0.000478191	0	6.94561e-05	-0.00026937	1.3997e-05	-18.0577	0.0292707	0.0278289	0.00907315	-11.1547	10.1702	9.97803	1.96751	0.0967523	0.0190432	0.0986086	11.1349	206386	1.04858e+06	1.0687e+06	-78.8651	0.0000000E+000	0.0000000E+000	0.0000000E+000	78.8651	0.0000000E+000	0.0000000E+000	0.0000000E+000	-78.8651	0.0000000E+000	0.0000000E+000	0.0000000E+000	-11.1349	0.0000000E+000	0.0000000E+000	0.0000000E+000	11.1349	5.08068	78.8651	-1.2124e-06	-1.92904e-06	2.16384e-09	-1.93121e-06	0.24041	29894.4	33.533	29927.9
10.0032	10.389	1.71395	10.5295	-9.36812	12.4568	0.240133	-0.0101177	9282.86	245.962	1	10	0.00485183	0.000460786	0	7.17002e-05	0.000169365	8.32831e-06	-45.1553	0.0180742	0.0127457	0.0128149	-9.42555	10.5441	10.4018	1.72677	0.0937049	0.0154592	0.0949716	9.36812	245962	1.49088e+06	1.51104e+06	-80.6319	0.0000000E+000	0.0000000E+000	0.0000000E+000	80.6319	0.0000000E+000	0.0000000E+000	0.0000000E+000	-80.6319	0.0000000E+000	0.0000000E+000	0.0000000E+000	-9.36812	0.0000000E+000	0.0000000E+000	0.0000000E+000	9.36812	6.06144	80.6319	2.24413e-06	-2.4296e-06	-1.71358e-09	-2.42789e-06	0.239964	23734	16.7394	23717.2
6.81719	10.8018	1.50783	10.9065	-7.94663	12.9885	0.240179	-0.00157622	15483.3	295.935	1	11	0.00485729	0.000445358	0	6.96184e-05	-0.000441049	1.24809e-05	18.6229	0.0280243	0.026557	-0.00894926	-7.88093	10.9316	10.8283	1.49888	0.0908081	0.012676	0.0916885	7.94663	295935	2.12002e+06	2.14057e+06	-82.0534	0.0000000E+000	0.0000000E+000	0.0000000E+000	82.0534	0.0000000E+000	0.0000000E+000	0.0000000E+000	-82.0534	0.0000000E+000	0.0000000E+000	0.0000000E+000	-7.94663	0.0000000E+000	0.0000000E+000	0.0000000E+000	7.94663	7.16378	82.0534	-2.0818e-06	-3.78575e-07	6.95189e-10	-3.7927e-07	0.24062	152377	279.814	152657
4.63925	11.1225	1.33043	11.2018	-6.82109	13.4725	0.240175	-0.0021644	25785.7	363.738	1	11	0.00485729	0.000433617	0	7.41301e-05	-5.95403e-05	9.21427e-06	6.35604	0.0212498	0.0211192	-0.00235249	-6.79636	11.2225	11.1436	1.32808	0.0886394	0.0106027	0.0892713	6.82109	363739	3.04088e+06	3.06256e+06	-83.1789	0.0000000E+000	0.0000000E+000	0.0000000E+000	83.1789	0.0000000E+000	0.0000000E+000	0.0000000E+000	-83.1789	0.0000000E+000	0.0000000E+000	0.0000000E+000	-6.82109	0.0000000E+000	0.0000000E+000	0.0000000E+000	6.82109	8.36007	83.1789	4.51166e-06	-5.19835e-07	1.28869e-10	-5.19964e-07	0.240235	110966	27.509	110994
3.1604	11.3842	1.15305	11.4424	-5.78352	14.1655	0.240181	-0.0011746	43674.6	443.499	1	11	0.00484989	0.000423851	0	7.62294e-05	-0.000364747	3.41729e-06	4.31886	0.00806248	0.00803958	-0.000607161	-5.77644	11.4504	11.3922	1.15245	0.0869492	0.00880671	0.0873941	5.78352	443498	4.37869e+06	4.40109e+06	-84.2165	0.0000000E+000	0.0000000E+000	0.0000000E+000	84.2165	0.0000000E+000	0.0000000E+000	0.0000000E+000	-84.2165	0.0000000E+000	0.0000000E+000	0.0000000E+000	-5.78352	0.0000000E+000	0.0000000E+000	0.0000000E+000	5.78352	9.87307	84.2165	2.09936e-06	-2.82115e-07	4.2843e-10	-2.82544e-07	0.240546	204480	310.53	204790
2.15577	11.6128	1.02841	11.6583	-5.06083	15.169	0.240182	-4.25001e-05	71787.7	558.624	1	11	0.00485532	0.00041647	0	7.10194e-05	-0.000173993	3.10363e-06	56.9183	0.00745223	0.00406768	-0.00624417	-5.02851	11.6618	11.6169	1.02217	0.0854418	0.00756661	0.0857761	5.06083	558624	6.30795e+06	6.33264e+06	-84.9392	0.0000000E+000	0.0000000E+000	0.0000000E+000	84.9392	0.0000000E+000	0.0000000E+000	0.0000000E+000	-84.9392	0.0000000E+000	0.0000000E+000	0.0000000E+000	-5.06083	0.0000000E+000	0.0000000E+000	0.0000000E+000	5.06083	11.292	84.9392	-5.21e-06	-1.02078e-08	7.39472e-12	-1.02152e-08	0.240356	5.65133e+06	4093.94	5.65542e+06
1.46631	11.7932	0.922173	11.8292	-4.47116	16.6304	0.240179	-0.000270573	117702	715.311	1	11	0.00485642	0.000410545	0	6.13413e-05	-5.95403e-05	3.94607e-06	79.4019	0.0096118	0.00176779	-0.00944783	-4.42487	11.8302	11.795	0.912725	0.0842792	0.00659023	0.0845364	4.47116	715310	9.14776e+06	9.17568e+06	-85.5288	0.0000000E+000	0.0000000E+000	0.0000000E+000	85.5288	0.0000000E+000	0.0000000E+000	0.0000000E+000	-85.5288	0.0000000E+000	0.0000000E+000	0.0000000E+000	-4.47116	0.0000000E+000	0.0000000E+000	0.0000000E+000	4.47116	12.7885	85.5288	-9.67813e-06	-6.4986e-08	1.611e-11	-6.50021e-08	0.240238	887666	220.052	887886
1.00006	11.9489	0.861855	11.98	-4.1255	18.7578	0.240179	-0.0017417	184654	955.687	1	11	0.00485546	0.000405299	0	5.3749e-05	-0.000135842	2.88353e-06	-82.7283	0.00711458	0.000900525	0.00705736	-4.15885	11.9814	11.9498	0.868913	0.0832564	0.00600514	0.0834727	4.1255	955688	1.32498e+07	1.32842e+07	-85.8745	0.0000000E+000	0.0000000E+000	0.0000000E+000	85.8745	0.0000000E+000	0.0000000E+000	0.0000000E+000	-85.8745	0.0000000E+000	0.0000000E+000	0.0000000E+000	-4.1255	0.0000000E+000	0.0000000E+000	0.0000000E+000	4.1255	13.8642	85.8745	-7.59235e-06	-4.18321e-07	2.36596e-10	-4.18557e-07	0.240315	137899	77.9938	137977
0.681362	12.0863	0.863207	12.1171	-4.08515	21.87	0.240171	-0.00388603	270600	1373.29	1	11	0.0048597	0.000401062	0	5.3695e-05	-0.00026937	3.2143e-06	38.0188	0.00801446	0.00631387	-0.00493626	-4.05975	12.123	12.0926	0.858271	0.0823185	0.00587921	0.0825281	4.08515	1.37329e+06	1.92282e+07	1.92772e+07	-85.9149	0.0000000E+000	0.0000000E+000	0.0000000E+000	85.9149	0.0000000E+000	0.0000000E+000	0.0000000E+000	-85.9149	0.0000000E+000	0.0000000E+000	0.0000000E+000	-4.08515	0.0000000E+000	0.0000000E+000	0.0000000E+000	4.08515	14.0016	85.9149	-5.39286e-08	-9.33313e-07	1.04678e-09	-9.3436e-07	0.240441	61803.8	69.3175	61873.1
0.464091	12.1853	0.924958	12.2204	-4.34086	26.4266	0.240179	-0.00422068	370762	2124.08	1	11	0.0048581	0.000397541	0	6.88599e-05	-0.000212144	1.55478e-06	7.88092	0.00391099	0.00387405	-0.000536254	-4.33698	12.2242	12.1892	0.924422	0.0815958	0.00619374	0.0818305	4.34086	2.12408e+06	2.79824e+07	2.80629e+07	-85.6591	0.0000000E+000	0.0000000E+000	0.0000000E+000	85.6591	0.0000000E+000	0.0000000E+000	0.0000000E+000	-85.6591	0.0000000E+000	0.0000000E+000	0.0000000E+000	-4.34086	0.0000000E+000	0.0000000E+000	0.0000000E+000	4.34086	13.1739	85.6591	1.51648e-05	-1.01372e-06	8.9539e-10	-1.01462e-06	0.240391	56905.4	50.2629	56955.6
0.316193	12.3014	1.05775	12.3468	-4.91457	33.1	0.240179	-0.00366956	475865	3492.56	1	11	0.0048568	0.000393366	0	9.74243e-05	-0.000116767	1.53818e-06	53.7012	0.0039103	0.00231489	-0.00315147	-4.89908	12.3488	12.3037	1.0546	0.080695	0.00693867	0.0809928	4.91457	3.49256e+06	4.06176e+07	4.07675e+07	-85.0854	0.0000000E+000	0.0000000E+000	0.0000000E+000	85.0854	0.0000000E+000	0.0000000E+000	0.0000000E+000	-85.0854	0.0000000E+000	0.0000000E+000	0.0000000E+000	-4.91457	0.0000000E+000	0.0000000E+000	0.0000000E+000	4.91457	11.6297	85.0854	2.85645e-05	-8.81352e-07	4.28482e-10	-8.81781e-07	0.240296	65451.7	31.8203	65483.5
0.215268	12.465	1.29063	12.5316	-5.91136	42.8936	0.240186	-0.00154277	572847	6076.13	1	11	0.00486061	0.000387867	0	0.000127726	-0.000116767	1.48178e-06	-5.82832	0.00382032	0.00380057	0.000387946	-5.91134	12.5355	12.4688	1.29102	0.0793737	0.00821838	0.079798	5.91136	6.07613e+06	5.86837e+07	5.89974e+07	-84.0886	0.0000000E+000	0.0000000E+000	0.0000000E+000	84.0886	0.0000000E+000	0.0000000E+000	0.0000000E+000	-84.0886	0.0000000E+000	0.0000000E+000	0.0000000E+000	-5.91136	0.0000000E+000	0.0000000E+000	0.0000000E+000	5.91136	9.65807	84.0886	3.03021e-05	-3.70551e-07	1.80144e-10	-3.70732e-07	0.240303	155685	75.6864	155761
0.146929	12.6671	1.66947	12.7767	-7.50806	57.232	0.240181	-0.000229117	648835	11077.9	1	11	0.00485932	0.000380328	0	0.00013161	-0.000135842	1.94214e-06	54.613	0.00510648	0.00295714	-0.0041631	-7.48782	12.7791	12.6701	1.66531	0.0775967	0.0102269	0.0782677	7.50806	1.10779e+07	8.40536e+07	8.47805e+07	-82.4919	0.0000000E+000	0.0000000E+000	0.0000000E+000	82.4919	0.0000000E+000	0.0000000E+000	0.0000000E+000	-82.4919	0.0000000E+000	0.0000000E+000	0.0000000E+000	-7.50806	0.0000000E+000	0.0000000E+000	0.0000000E+000	7.50806	7.58751	82.4919	3.88315e-06	-5.50295e-08	3.11237e-11	-5.50606e-08	0.240317	1.04829e+06	592.894	1.04888e+06
0.0999041	12.8798	2.20157	13.0666	-9.69997	78.3093	0.240182	-0.000364735	723609	20542.2	1	11	0.00485392	0.000371476	0	7.02185e-05	-7.86157e-05	2.57856e-06	-8.91033	0.0069414	0.00685763	0.00107514	-9.69955	13.0735	12.8866	2.20265	0.0754371	0.0128947	0.0765312	9.69997	2.05422e+07	1.20177e+08	1.2192e+08	-80.3	0.0000000E+000	0.0000000E+000	0.0000000E+000	80.3	0.0000000E+000	0.0000000E+000	0.0000000E+000	-80.3	0.0000000E+000	0.0000000E+000	0.0000000E+000	-9.69997	0.0000000E+000	0.0000000E+000	0.0000000E+000	9.69997	5.85026	80.3	-6.13911e-05	-8.7603e-08	2.86739e-11	-8.76317e-08	0.240261	658512	215.542	658727
0.0680626	13.1696	2.8599	13.4766	-12.2521	109.237	0.240184	-0.00185969	817637	36821.7	1	11	0.00485635	0.000360355	0	-7.49675e-05	-7.86157e-05	1.05857e-06	-57.9664	0.00293759	0.00155815	0.0024903	-12.261	13.4786	13.1712	2.86239	0.0725127	0.0157468	0.0742028	12.2521	3.68217e+07	1.69561e+08	1.73513e+08	-77.7479	0.0000000E+000	0.0000000E+000	0.0000000E+000	77.7479	0.0000000E+000	0.0000000E+000	0.0000000E+000	-77.7479	0.0000000E+000	0.0000000E+000	0.0000000E+000	-12.2521	0.0000000E+000	0.0000000E+000	0.0000000E+000	12.2521	4.60492	77.7479	-0.000145186	-4.46668e-07	1.46201e-10	-4.46814e-07	0.240263	129153	42.2736	129195
0.0464052	13.6264	3.66299	14.1102	-15.0463	154.587	0.240185	-0.00508993	936307	63099.3	1	11	0.00485827	0.000344309	0	-0.000336299	-0.000116767	2.38594e-06	-15.9795	0.00692964	0.00666188	0.00190769	-15.0467	14.1171	13.6331	3.6649	0.0684412	0.018398	0.0708709	15.0463	6.30993e+07	2.34731e+08	2.43064e+08	-74.9537	0.0000000E+000	0.0000000E+000	0.0000000E+000	74.9537	0.0000000E+000	0.0000000E+000	0.0000000E+000	-74.9537	0.0000000E+000	0.0000000E+000	0.0000000E+000	-15.0463	0.0000000E+000	0.0000000E+000	0.0000000E+000	15.0463	3.72003	74.9537	-0.000261331	-1.22253e-06	5.94334e-10	-1.22312e-06	0.240302	47188.4	22.9407	47211.3
0.0315922	14.2558	4.90963	15.0775	-19.0035	221.193	0.240191	-0.00687224	1.02611e+06	108800	1	11	0.00485675	0.000322119	0	-0.000604666	-7.86157e-05	2.12341e-06	11.9331	0.00659201	0.00644956	-0.00136303	-18.9906	15.0832	14.2622	4.90826	0.0627091	0.0215967	0.0663238	19.0035	1.088e+08	3.15915e+08	3.34126e+08	-70.9965	0.0000000E+000	0.0000000E+000	0.0000000E+000	70.9965	0.0000000E+000	0.0000000E+000	0.0000000E+000	-70.9965	0.0000000E+000	0.0000000E+000	0.0000000E+000	-19.0035	0.0000000E+000	0.0000000E+000	0.0000000E+000	19.0035	2.90364	70.9965	-0.000268368	-1.65065e-06	5.40266e-10	-1.65119e-06	0.240269	34950.8	11.4396	34962.3
0.0215268	14.8561	6.57624	16.2466	-23.8771	365.538	0.240176	-0.00781932	1.12425e+06	184202	1	12	0.00485474	0.000298816	0	-0.000817966	-0.000154917	9.6784e-07	7.55366	0.00323892	0.00321081	-0.000425771	-23.8712	16.2494	14.8593	6.57581	0.0562835	0.0249145	0.0615514	23.8771	1.84202e+08	4.16124e+08	4.5507e+08	-66.1229	0.0000000E+000	0.0000000E+000	0.0000000E+000	66.1229	0.0000000E+000	0.0000000E+000	0.0000000E+000	-66.1229	0.0000000E+000	0.0000000E+000	0.0000000E+000	-23.8771	0.0000000E+000	0.0000000E+000	0.0000000E+000	23.8771	2.25906	66.1229	-0.0002133	-1.87801e-06	1.21135e-09	-1.87922e-06	0.240331	30715.7	19.8121	30735.5
0.0146812	15.8242	8.76261	18.0883	-28.9754	508.84	0.240177	-0.00840804	1.23716e+06	290332	1	12	0.00485652	0.000268489	0	-0.000674718	-0.000154917	2.15456e-06	-42.8293	0.00802475	0.00588521	0.00545536	-28.9815	18.0961	15.8301	8.76806	0.0483642	0.0267815	0.0552842	28.9754	2.90332e+08	5.24304e+08	5.99322e+08	-61.0246	0.0000000E+000	0.0000000E+000	0.0000000E+000	61.0246	0.0000000E+000	0.0000000E+000	0.0000000E+000	-61.0246	0.0000000E+000	0.0000000E+000	0.0000000E+000	-28.9754	0.0000000E+000	0.0000000E+000	0.0000000E+000	28.9754	1.80588	61.0246	0.000143248	-2.01942e-06	1.30255e-09	-2.02072e-06	0.240332	28565.2	18.4249	28583.6
0.0100092	17.2963	11.5018	20.7714	-33.6235	719.023	0.24018	-0.00860885	1.38247e+06	423893	1	12	0.00485328	0.000233652	0	-0.000476773	-0.000364747	2.82852e-06	7.29853	0.0121057	0.0120076	-0.0015379	-33.6017	20.7806	17.3083	11.5003	0.0400884	0.0266584	0.048143	33.6235	4.23893e+08	6.37442e+08	7.65518e+08	-56.3765	0.0000000E+000	0.0000000E+000	0.0000000E+000	56.3765	0.0000000E+000	0.0000000E+000	0.0000000E+000	-56.3765	0.0000000E+000	0.0000000E+000	0.0000000E+000	-33.6235	0.0000000E+000	0.0000000E+000	0.0000000E+000	33.6235	1.50378	56.3765	0.000197945	-2.06768e-06	3.14005e-09	-2.07082e-06	0.240545	27899.3	42.3689	27941.6