File: txt/18711_R307_UA701_4p95_SOC00_C07.mpt
EC-Lab ASCII FILE
Nb header lines : 65

Potentio Electrochemical Impedance Spectroscopy

Run on channel : 7 (SN 66126)
User :
CE vs. WE compliance from -10 V to 10 V
Electrode connection : standard
Potential control : Ewe
Ewe ctrl range : min = -10.00 V, max = 10.00 V
Safety Limits :
	Do not start on E overload
Acquisition started on : 10/29/2025 17:32:53.195
Technique started on : 10/29/2025 17:32:54.922
Loaded Setting File :  C:\Users\Celltest\OneDrive - store-dot.com\Documents\EC-Lab\Data\@Biologic Test Protocols\anode half cell EIS SOC00.mps
Saved on :
	File : 18711_R307_UA701_4p95_SOC00_C07.mpr
	Directory : C:\Users\Celltest\OneDrive - store-dot.com\Documents\EC-Lab\Data\Anna\
	Host : 169.254.61.224
Device : VMP-3e (SN .003165)
Address : USB
EC-LAB for windows v11.62 (software)
Internet server v27.00 (firmware)
Command interpretor v12.03 (firmware)
Electrode material :
Initial state :
Electrolyte :
Comments :
Electrode surface area : 0.001 cm²
Characteristic mass : 0.001 g
Equivalent Weight : 0.000 g/eq.
Density : 0.000 g/cm3
Volume (V) : 0.001 cm³
Record Ece
Cycle Definition : Charge/Discharge alternance
Mode                Single sine
E (V)               0.0000
vs.                 Eoc
tE (h:m:s)          0:00:0.0000
record              0
dI                  0.000
unit dI             mA
dt (s)              0.000
fi                  100.000
unit fi             kHz
ff                  10.000
unit ff             mHz
Nd                  6
Points              per decade
spacing             Logarithmic
Va (mV)             5.0
pw                  0.10
Na                  2
corr                0
E range min (V)     -10.000
E range max (V)     10.000
I Range             Auto
Bandwidth           5
nc cycles           0
goto Ns'            0
nr cycles           0
inc. cycle          0

freq/Hz	Re(Z)/Ohm	-Im(Z)/Ohm	|Z|/Ohm	Phase(Z)/deg	time/s	<Ewe>/V	<I>/mA	Cs/µF	Cp/µF	cycle number	I Range	|Ewe|/V	|I|/A	Ns	(Q-Qo)/mA.h	<Ece>/V	|Ece|/V	Phase(Zce)/deg	|Zce|/Ohm	Re(Zce)/Ohm	-Im(Zce)/Ohm	Phase(Zwe-ce)/deg	|Zwe-ce|/Ohm	Re(Zwe-ce)/Ohm	-Im(Zwe-ce)/Ohm	Re(Y)/Ohm-1	Im(Y)/Ohm-1	|Y|/Ohm-1	Phase(Y)/deg	Re(C)/nF	Im(C)/nF	|C|/nF	Phase(C)/deg	Re(M)	Im(M)	|M|	Phase(M)/deg	Re(Permittivity)	Im(Permittivity)	|Permittivity|	Phase(Permittivity)/deg	Re(Resistivity)/Ohm.cm	Im(Resistivity)/Ohm.cm	|Resistivity|/Ohm.cm	Phase(Resistivity)/deg	Re(Conductivity)/mS/cm	Im(Conductivity)/mS/cm	|Conductivity|/mS/cm	Phase(Conductivity)/deg	Tan(Delta)	Loss Angle(Delta)/deg	dq/mA.h	Pwe/W	Pce/W	Pwe-ce/W	<Ewe-Ece>/V	Rwe/Ohm	Rce/Ohm	Rwe-ce/Ohm		Ewe-Ece/V
100004	1.23464	0.458518	1.31703	-20.3739	1.72654	0.253121	0.0774211	3.47094	0.420697	1	9	0.00463451	0.00351891	0	5.17521e-06	-0.000421973	4.25561e-05	80.4433	0.0120935	0.00200781	-0.0119257	-19.8563	1.31481	1.23664	0.446592	0.711784	0.264342	0.759285	20.3739	420.697	1132.8	1208.39	-69.6261	0.0000000E+000	0.0000000E+000	0.0000000E+000	69.6261	0.0000000E+000	0.0000000E+000	0.0000000E+000	-69.6261	0.0000000E+000	0.0000000E+000	0.0000000E+000	-20.3739	0.0000000E+000	0.0000000E+000	0.0000000E+000	20.3739	2.69267	69.6261	5.17521e-06	1.95969e-05	-3.26697e-08	1.96296e-05	0.253543	3269.41	5.45036	3274.86
68132	1.36137	0.496701	1.44915	-20.0447	2.23352	0.253125	0.0741816	4.70298	0.552505	1	9	0.00505007	0.00348485	0	6.51352e-06	-0.000173993	3.4626e-05	82.0279	0.00993617	0.00137806	-0.00984014	-19.66	1.44711	1.36275	0.486861	0.648259	0.23652	0.690059	20.0447	552.505	1514.32	1611.96	-69.9553	0.0000000E+000	0.0000000E+000	0.0000000E+000	69.9553	0.0000000E+000	0.0000000E+000	0.0000000E+000	-69.9553	0.0000000E+000	0.0000000E+000	0.0000000E+000	-20.0447	0.0000000E+000	0.0000000E+000	0.0000000E+000	20.0447	2.74082	69.9553	1.33831e-06	1.87772e-05	-1.29071e-08	1.87901e-05	0.253299	3412.24	2.3455	3414.58
46420.4	1.4922	0.535188	1.58527	-19.7308	2.74052	0.25314	0.0759689	6.40628	0.73015	1	9	0.0050444	0.00318205	0	3.37784e-06	-0.00026937	2.02969e-05	52.7217	0.00637857	0.00386342	-0.00507544	-19.5112	1.5872	1.49606	0.530112	0.593773	0.212961	0.630808	19.7308	730.15	2035.79	2162.76	-70.2692	0.0000000E+000	0.0000000E+000	0.0000000E+000	70.2692	0.0000000E+000	0.0000000E+000	0.0000000E+000	-70.2692	0.0000000E+000	0.0000000E+000	0.0000000E+000	-19.7308	0.0000000E+000	0.0000000E+000	0.0000000E+000	19.7308	2.78817	70.2692	-3.13568e-06	1.92308e-05	-2.04637e-08	1.92513e-05	0.25341	3332.15	3.54579	3335.7
31621.1	1.62062	0.577524	1.72045	-19.614	3.12351	0.253143	0.0767509	8.71511	0.982041	1	9	0.00548729	0.00318945	0	1.82645e-05	-5.95403e-05	9.68227e-06	38.919	0.00303571	0.00236189	-0.0019071	-19.5279	1.72203	1.62298	0.575617	0.547518	0.195113	0.581244	19.614	982.041	2755.76	2925.51	-70.386	0.0000000E+000	0.0000000E+000	0.0000000E+000	70.386	0.0000000E+000	0.0000000E+000	0.0000000E+000	-70.386	0.0000000E+000	0.0000000E+000	0.0000000E+000	-19.614	0.0000000E+000	0.0000000E+000	0.0000000E+000	19.614	2.80615	70.386	1.48867e-05	1.9429e-05	-4.56977e-09	1.94335e-05	0.253203	3298.25	0.775761	3299.02
21544.7	1.75654	0.620573	1.86294	-19.4579	3.50654	0.253138	0.0803255	11.9038	1.32092	1	9	0.00534713	0.00287027	0	2.34285e-05	-0.000193068	5.7922e-06	14.9685	0.002018	0.00194952	-0.000521225	-19.4229	1.8646	1.75849	0.620051	0.506128	0.178812	0.536786	19.4579	1320.92	3738.87	3965.35	-70.5421	0.0000000E+000	0.0000000E+000	0.0000000E+000	70.5421	0.0000000E+000	0.0000000E+000	0.0000000E+000	-70.5421	0.0000000E+000	0.0000000E+000	0.0000000E+000	-19.4579	0.0000000E+000	0.0000000E+000	0.0000000E+000	19.4579	2.83051	70.5421	5.16397e-06	2.03334e-05	-1.55083e-08	2.03489e-05	0.253331	3151.4	2.40357	3153.8
14678.6	1.89743	0.680263	2.01569	-19.7237	3.88954	0.25315	0.0757455	15.9389	1.81537	1	9	0.0051057	0.00253298	0	3.70047e-05	-0.000231219	1.16217e-05	-137.476	0.00458813	-0.00338144	0.0031011	-19.8392	2.01356	1.89405	0.683364	0.467002	0.167429	0.496108	19.7237	1815.37	5063.54	5379.13	-70.2763	0.0000000E+000	0.0000000E+000	0.0000000E+000	70.2763	0.0000000E+000	0.0000000E+000	0.0000000E+000	-70.2763	0.0000000E+000	0.0000000E+000	0.0000000E+000	-19.7237	0.0000000E+000	0.0000000E+000	0.0000000E+000	19.7237	2.78926	70.2763	1.35762e-05	1.91749e-05	-1.75138e-08	1.91924e-05	0.253381	3342.11	3.05258	3345.16
10002.2	2.05517	0.738554	2.18385	-19.7666	4.14852	0.253133	0.0823735	21.5447	2.46411	1	9	0.00527419	0.00241509	0	4.36003e-05	-0.000173993	6.18656e-06	-101.112	0.00256163	-0.000493688	0.00251361	-19.833	2.18424	2.05468	0.741068	0.430926	0.154859	0.457907	19.7666	2464.11	6856.88	7286.19	-70.2334	0.0000000E+000	0.0000000E+000	0.0000000E+000	70.2334	0.0000000E+000	0.0000000E+000	0.0000000E+000	-70.2334	0.0000000E+000	0.0000000E+000	0.0000000E+000	-19.7666	0.0000000E+000	0.0000000E+000	0.0000000E+000	19.7666	2.7827	70.2334	6.59553e-06	2.08515e-05	-1.43324e-08	2.08658e-05	0.253307	3072.99	2.11224	3075.1
6810.42	2.23477	0.82692	2.38286	-20.3057	4.40754	0.253135	0.0683355	28.2607	3.4034	1	9	0.00524403	0.00220073	0	4.63716e-05	-0.000212144	8.8672e-05	77.2864	0.0402921	0.00886741	-0.0393042	-19.3433	2.37787	2.24364	0.787616	0.393584	0.145636	0.419664	20.3057	3403.4	9197.79	9807.27	-69.6943	0.0000000E+000	0.0000000E+000	0.0000000E+000	69.6943	0.0000000E+000	0.0000000E+000	0.0000000E+000	-69.6943	0.0000000E+000	0.0000000E+000	0.0000000E+000	-20.3057	0.0000000E+000	0.0000000E+000	0.0000000E+000	20.3057	2.70253	69.6943	2.77136e-06	1.72981e-05	-1.44969e-08	1.73126e-05	0.253347	3704.3	3.10444	3707.41
4646	2.40611	0.908062	2.57176	-20.6764	4.67564	0.253111	0.0515048	37.7246	4.70322	1	9	0.00510873	0.00198647	0	5.03672e-05	-0.000193068	2.00335e-05	-83.3691	0.010085	0.00116453	0.0100175	-20.8757	2.5764	2.40728	0.91808	0.363793	0.137295	0.388839	20.6764	4703.22	12462.2	13320.2	-69.3236	0.0000000E+000	0.0000000E+000	0.0000000E+000	69.3236	0.0000000E+000	0.0000000E+000	0.0000000E+000	-69.3236	0.0000000E+000	0.0000000E+000	0.0000000E+000	-20.6764	0.0000000E+000	0.0000000E+000	0.0000000E+000	20.6764	2.64972	69.3236	3.99561e-06	1.30364e-05	-9.94394e-09	1.30464e-05	0.253304	4914.32	3.74855	4918.07
3163.08	2.60983	1.03096	2.80608	-21.5555	5.04762	0.252979	0.018737	48.8055	6.58797	1	9	0.00503579	0.0017946	0	5.31672e-05	-0.000173993	9.98601e-06	-36.461	0.00556447	0.00447529	0.00330683	-21.5846	2.81146	2.6143	1.03426	0.331446	0.130931	0.356369	21.5555	6587.97	16677.2	17931.2	-68.4445	0.0000000E+000	0.0000000E+000	0.0000000E+000	68.4445	0.0000000E+000	0.0000000E+000	0.0000000E+000	-68.4445	0.0000000E+000	0.0000000E+000	0.0000000E+000	-21.5555	0.0000000E+000	0.0000000E+000	0.0000000E+000	21.5555	2.53146	68.4445	2.8e-06	4.74008e-06	-3.26011e-09	4.74334e-06	0.253153	13501.6	9.28604	13510.8
2155.69	2.84234	1.16255	3.0709	-22.2452	5.49977	0.253024	0.0446161	63.5069	9.10155	1	9	0.00497538	0.00162017	0	6.00058e-05	-0.000402898	6.67445e-06	71.4307	0.0041196	0.00131189	-0.00390513	-22.1685	3.07064	2.84365	1.15865	0.301401	0.123277	0.325638	22.2452	9101.56	22252.5	24041.9	-67.7548	0.0000000E+000	0.0000000E+000	0.0000000E+000	67.7548	0.0000000E+000	0.0000000E+000	0.0000000E+000	-67.7548	0.0000000E+000	0.0000000E+000	0.0000000E+000	-22.2452	0.0000000E+000	0.0000000E+000	0.0000000E+000	22.2452	2.44491	67.7548	6.8386e-06	1.12889e-05	-1.79757e-08	1.13069e-05	0.253427	5671.13	9.03033	5680.16
1468.59	3.11497	1.31926	3.38283	-22.9538	5.95104	0.253026	0.0429777	82.1464	12.4937	1	9	0.00493695	0.00145942	0	6.66383e-05	-0.000212144	6.80892e-06	114.147	0.0046655	-0.00190857	-0.00425726	-22.8999	3.37941	3.11306	1.315	0.272204	0.115285	0.295611	22.9538	12493.7	29499.5	32036.1	-67.0462	0.0000000E+000	0.0000000E+000	0.0000000E+000	67.0462	0.0000000E+000	0.0000000E+000	0.0000000E+000	-67.0462	0.0000000E+000	0.0000000E+000	0.0000000E+000	-22.9538	0.0000000E+000	0.0000000E+000	0.0000000E+000	22.9538	2.36115	67.0462	6.63246e-06	1.08745e-05	-9.11745e-09	1.08836e-05	0.253238	5887.39	4.93613	5892.32
1000.32	3.42399	1.5353	3.75245	-24.1513	6.64679	0.253051	-0.017351	103.63	17.3479	1	10	0.0049904	0.00132991	0	6.57635e-05	-0.000154917	2.83075e-06	13.2206	0.00212853	0.00207212	-0.000486796	-24.1316	3.75414	3.42606	1.53482	0.243166	0.109035	0.266493	24.1513	17347.9	38688.7	42400.1	-65.8487	0.0000000E+000	0.0000000E+000	0.0000000E+000	65.8487	0.0000000E+000	0.0000000E+000	0.0000000E+000	-65.8487	0.0000000E+000	0.0000000E+000	0.0000000E+000	-24.1513	0.0000000E+000	0.0000000E+000	0.0000000E+000	24.1513	2.23017	65.8487	-8.74848e-07	-4.39068e-06	2.68797e-09	-4.39337e-06	0.253206	14584.2	8.92844	14593.1
681.09	3.76645	1.77762	4.16486	-25.2655	7.09752	0.253054	-0.0178238	131.455	23.9472	1	10	0.0049419	0.00118657	0	6.47313e-05	-0.000154917	9.02039e-06	-1.26939	0.00760207	0.0076002	0.00016841	-25.2231	4.1718	3.77405	1.77779	0.217136	0.10248	0.240104	25.2655	23947.2	50739.6	56106.8	-64.7345	0.0000000E+000	0.0000000E+000	0.0000000E+000	64.7345	0.0000000E+000	0.0000000E+000	0.0000000E+000	-64.7345	0.0000000E+000	0.0000000E+000	0.0000000E+000	-25.2655	0.0000000E+000	0.0000000E+000	0.0000000E+000	25.2655	2.11881	64.7345	-1.03219e-06	-4.51039e-06	2.76122e-09	-4.51315e-06	0.253209	14197.5	8.6916	14206.2
463.961	4.17564	2.07882	4.66449	-26.4662	7.54935	0.253055	-0.0166102	165.014	32.7754	1	10	0.00491362	0.00105341	0	6.22538e-05	-7.86157e-05	5.18648e-06	142.533	0.00492351	-0.00390782	-0.00299498	-26.4546	4.65965	4.17173	2.07582	0.191918	0.0955453	0.214386	26.4662	32775.4	65834.6	73541.9	-63.5338	0.0000000E+000	0.0000000E+000	0.0000000E+000	63.5338	0.0000000E+000	0.0000000E+000	0.0000000E+000	-63.5338	0.0000000E+000	0.0000000E+000	0.0000000E+000	-26.4662	0.0000000E+000	0.0000000E+000	0.0000000E+000	26.4662	2.00866	63.5338	-2.47747e-06	-4.20329e-06	1.30582e-09	-4.2046e-06	0.253134	15234.9	4.73298	15239.7
316.316	4.69045	2.42324	5.27944	-27.3224	7.99708	0.25305	-0.0169527	207.636	43.7443	1	10	0.00489227	0.000926665	0	6.0843e-05	-0.000231219	6.477e-06	-105.823	0.00698958	-0.00190582	0.00672473	-27.3967	5.28083	4.68854	2.42997	0.168283	0.0869405	0.189414	27.3224	43744.3	84671.8	95304.1	-62.6776	0.0000000E+000	0.0000000E+000	0.0000000E+000	62.6776	0.0000000E+000	0.0000000E+000	0.0000000E+000	-62.6776	0.0000000E+000	0.0000000E+000	0.0000000E+000	-27.3224	0.0000000E+000	0.0000000E+000	0.0000000E+000	27.3224	1.93561	62.6776	-1.41076e-06	-4.28987e-06	3.91979e-09	-4.29379e-06	0.253281	14926.8	13.6391	14940.4
215.345	5.34211	2.81917	6.04035	-27.8217	8.44757	0.253046	-0.0172096	262.159	57.1061	1	10	0.00488058	0.000807995	0	5.8568e-05	-0.00051735	8.16246e-06	-14.517	0.0101021	0.00977959	0.00253228	-27.7997	6.05018	5.35189	2.8217	0.146416	0.0772674	0.165553	27.8217	57106.1	108212	122356	-62.1783	0.0000000E+000	0.0000000E+000	0.0000000E+000	62.1783	0.0000000E+000	0.0000000E+000	0.0000000E+000	-62.1783	0.0000000E+000	0.0000000E+000	0.0000000E+000	-27.8217	0.0000000E+000	0.0000000E+000	0.0000000E+000	27.8217	1.89493	62.1783	-2.27504e-06	-4.3548e-06	8.90337e-09	-4.36371e-06	0.253563	14703.8	30.0618	14733.8
146.737	6.15765	3.15886	6.92062	-27.1577	8.89354	0.253049	-0.0175893	343.36	71.5351	1	10	0.00486746	0.000703327	0	5.54763e-05	-0.000288445	8.12164e-06	-3.32618	0.0115475	0.011528	0.000669985	-27.1191	6.93119	6.16918	3.15953	0.128566	0.0659538	0.144496	27.1577	71535.1	139445	156724	-62.8423	0.0000000E+000	0.0000000E+000	0.0000000E+000	62.8423	0.0000000E+000	0.0000000E+000	0.0000000E+000	-62.8423	0.0000000E+000	0.0000000E+000	0.0000000E+000	-27.1577	0.0000000E+000	0.0000000E+000	0.0000000E+000	27.1577	1.94933	62.8423	-3.09165e-06	-4.45095e-06	5.07355e-09	-4.45603e-06	0.253337	14386.5	16.3989	14402.9
100.032	7.12155	3.41816	7.89939	-25.6398	9.34481	0.253048	-0.0172245	465.467	87.1539	1	10	0.00487064	0.000616584	0	5.42361e-05	-0.00026937	3.32687e-06	37.2089	0.00539564	0.00429728	-0.00326287	-25.605	7.90185	7.12585	3.4149	0.114127	0.0547779	0.126592	25.6398	87153.9	181580	201413	-64.3602	0.0000000E+000	0.0000000E+000	0.0000000E+000	64.3602	0.0000000E+000	0.0000000E+000	0.0000000E+000	-64.3602	0.0000000E+000	0.0000000E+000	0.0000000E+000	-25.6398	0.0000000E+000	0.0000000E+000	0.0000000E+000	25.6398	2.08345	64.3602	-1.24028e-06	-4.35861e-06	4.63975e-09	-4.36325e-06	0.253317	14691.2	15.6388	14706.8
68.104	8.15458	3.49936	8.87371	-23.2255	9.8075	0.253049	-0.0149685	667.82	103.855	1	10	0.0048672	0.000548496	0	5.29202e-05	-0.000288445	1.2038e-05	-64.1774	0.0219472	0.00955991	0.0197557	-23.3182	8.8903	8.16414	3.51911	0.10356	0.0444404	0.112692	23.2255	103855	242013	263356	-66.7745	0.0000000E+000	0.0000000E+000	0.0000000E+000	66.7745	0.0000000E+000	0.0000000E+000	0.0000000E+000	-66.7745	0.0000000E+000	0.0000000E+000	0.0000000E+000	-23.2255	0.0000000E+000	0.0000000E+000	0.0000000E+000	23.2255	2.33031	66.7745	-1.31583e-06	-3.78775e-06	4.31759e-09	-3.79207e-06	0.253337	16905.4	19.2702	16924.7
46.4415	9.17893	3.41206	9.79259	-20.3915	10.2447	0.253041	-0.0186428	1004.38	121.937	1	10	0.00485987	0.000496281	0	5.04589e-05	-0.000421973	8.56006e-06	-12.4765	0.0172484	0.0168411	0.00372634	-20.3776	9.80967	9.19577	3.41578	0.0957187	0.0355812	0.102118	20.3915	121937	328027	349958	-69.6085	0.0000000E+000	0.0000000E+000	0.0000000E+000	69.6085	0.0000000E+000	0.0000000E+000	0.0000000E+000	-69.6085	0.0000000E+000	0.0000000E+000	0.0000000E+000	-20.3915	0.0000000E+000	0.0000000E+000	0.0000000E+000	20.3915	2.69014	69.6085	-2.46132e-06	-4.7174e-06	7.86678e-09	-4.72527e-06	0.253463	13573.1	22.6346	13595.7
31.6296	10.139	3.1967	10.631	-17.4995	10.6736	0.253034	-0.0200091	1574.07	142.326	1	10	0.00486667	0.000457783	0	4.83134e-05	-2.13895e-05	1.0306e-05	41.7528	0.0225129	0.0167952	-0.0149918	-17.3953	10.6425	10.1558	3.18171	0.0897115	0.028285	0.0940649	17.4995	142326	451414	473320	-72.5005	0.0000000E+000	0.0000000E+000	0.0000000E+000	72.5005	0.0000000E+000	0.0000000E+000	0.0000000E+000	-72.5005	0.0000000E+000	0.0000000E+000	0.0000000E+000	-17.4995	0.0000000E+000	0.0000000E+000	0.0000000E+000	17.4995	3.17169	72.5005	-2.14556e-06	-5.06298e-06	4.27984e-10	-5.06341e-06	0.253056	12646	1.06899	12647
21.5517	10.9307	2.92959	11.3165	-15.0034	11.0955	0.253039	-0.0203516	2520.76	168.935	1	10	0.00485931	0.0004294	0	4.63048e-05	-0.000193068	8.04583e-06	80.7958	0.0187374	0.0029971	-0.0184961	-14.909	11.3146	10.9337	2.91109	0.085354	0.022876	0.0883664	15.0034	168935	630322	652568	-74.9966	0.0000000E+000	0.0000000E+000	0.0000000E+000	74.9966	0.0000000E+000	0.0000000E+000	0.0000000E+000	-74.9966	0.0000000E+000	0.0000000E+000	0.0000000E+000	-15.0034	0.0000000E+000	0.0000000E+000	0.0000000E+000	15.0034	3.73115	74.9966	-2.00859e-06	-5.14975e-06	3.92924e-09	-5.15368e-06	0.253232	12433.4	9.48665	12442.9
14.6852	11.6045	2.67165	11.9081	-12.965	11.5562	0.25305	-0.0148158	4056.6	204.191	1	10	0.00485959	0.000408091	0	4.61939e-05	-7.86157e-05	9.41825e-06	-53.0354	0.0230788	0.0138778	0.0184401	-13.0364	11.9258	11.6184	2.69009	0.0818356	0.0188406	0.0839764	12.965	204191	886919	910120	-77.035	0.0000000E+000	0.0000000E+000	0.0000000E+000	77.035	0.0000000E+000	0.0000000E+000	0.0000000E+000	-77.035	0.0000000E+000	0.0000000E+000	0.0000000E+000	-12.965	0.0000000E+000	0.0000000E+000	0.0000000E+000	12.965	4.34358	77.035	-1.10872e-07	-3.74915e-06	1.16476e-09	-3.75031e-06	0.253129	17079.7	5.3062	17085
10.0032	12.2873	2.37337	12.5144	-10.9324	12.2518	0.253079	-0.00870928	6703.72	241.117	1	11	0.00486745	0.000388948	0	4.23915e-05	-0.000154917	3.74319e-06	86.3936	0.00962388	0.000605363	-0.00960482	-10.8887	12.5132	12.2879	2.36376	0.0784578	0.0151547	0.079908	10.9324	241117	1.2483e+06	1.27137e+06	-79.0676	0.0000000E+000	0.0000000E+000	0.0000000E+000	79.0676	0.0000000E+000	0.0000000E+000	0.0000000E+000	-79.0676	0.0000000E+000	0.0000000E+000	0.0000000E+000	-10.9324	0.0000000E+000	0.0000000E+000	0.0000000E+000	10.9324	5.17714	79.0676	-3.80244e-06	-2.20414e-06	1.34922e-09	-2.20549e-06	0.253234	29058.5	17.7876	29076.3
6.81719	12.7852	2.09931	12.9564	-9.3247	12.5915	0.253091	-0.00773309	11120.9	291.961	1	11	0.00485327	0.000374586	0	3.91033e-05	-5.95403e-05	7.164e-06	-83.0399	0.0191251	0.00231756	0.0189842	-9.40585	12.9617	12.7875	2.11829	0.0761623	0.0125058	0.0771822	9.3247	291961	1.77809e+06	1.8019e+06	-80.6753	0.0000000E+000	0.0000000E+000	0.0000000E+000	80.6753	0.0000000E+000	0.0000000E+000	0.0000000E+000	-80.6753	0.0000000E+000	0.0000000E+000	0.0000000E+000	-9.3247	0.0000000E+000	0.0000000E+000	0.0000000E+000	9.3247	6.09017	80.6753	-3.28818e-06	-1.95717e-06	4.6043e-10	-1.95763e-06	0.25315	32728.3	7.69942	32736
4.63925	13.2351	1.87091	13.3667	-8.04604	13.0754	0.253055	-0.00831978	18336.6	359.237	1	11	0.00484934	0.000362794	0	4.16225e-05	-0.000383823	1.64924e-05	144.621	0.0454595	-0.0370652	-0.0263199	-7.9563	13.3263	13.198	1.84459	0.0740766	0.0104715	0.074813	8.04604	359237	2.54128e+06	2.56655e+06	-81.954	0.0000000E+000	0.0000000E+000	0.0000000E+000	81.954	0.0000000E+000	0.0000000E+000	0.0000000E+000	-81.954	0.0000000E+000	0.0000000E+000	0.0000000E+000	-8.04604	0.0000000E+000	0.0000000E+000	0.0000000E+000	8.04604	7.07412	81.954	2.5192e-06	-2.10536e-06	3.19332e-09	-2.10855e-06	0.253439	30416.1	46.1338	30462.2
3.1604	13.6773	1.62582	13.7736	-6.77892	13.7684	0.253081	-0.00706682	30974.7	431.575	1	11	0.0048641	0.000353147	0	4.32799e-05	-0.000173993	3.67033e-06	-14.7223	0.0103932	0.010052	0.00264127	-6.78489	13.7839	13.6873	1.62846	0.0720952	0.00856993	0.0726027	6.77892	431575	3.63065e+06	3.65621e+06	-83.2211	0.0000000E+000	0.0000000E+000	0.0000000E+000	83.2211	0.0000000E+000	0.0000000E+000	0.0000000E+000	-83.2211	0.0000000E+000	0.0000000E+000	0.0000000E+000	-6.77892	0.0000000E+000	0.0000000E+000	0.0000000E+000	6.77892	8.41257	83.2211	1.65746e-06	-1.78848e-06	1.22958e-09	-1.7897e-06	0.253255	35812.5	24.6211	35837.1
2.15577	14.0102	1.45007	14.085	-5.90913	14.7722	0.253082	-0.00618101	50913.2	539.624	1	11	0.00486423	0.000345348	0	3.85026e-05	-0.000555501	4.14609e-06	-16.3255	0.0120055	0.0115215	0.00337469	-5.91795	14.0968	14.0217	1.45344	0.0706202	0.00730925	0.0709974	5.90913	539624	5.21371e+06	5.24156e+06	-84.0909	0.0000000E+000	0.0000000E+000	0.0000000E+000	84.0909	0.0000000E+000	0.0000000E+000	0.0000000E+000	-84.0909	0.0000000E+000	0.0000000E+000	0.0000000E+000	-5.90913	0.0000000E+000	0.0000000E+000	0.0000000E+000	5.90913	9.66175	84.0909	-4.77735e-06	-1.5643e-06	3.43356e-09	-1.56774e-06	0.253637	40945.1	89.8722	41034.9
1.46631	14.278	1.27841	14.3352	-5.11642	16.2323	0.253084	-0.00559196	84903.5	675.241	1	11	0.00486192	0.000339161	0	2.81579e-05	-9.76912e-05	3.59127e-06	-51.9702	0.0105887	0.00652339	0.00834061	-5.14729	14.3424	14.2846	1.28675	0.0694806	0.00622106	0.0697586	5.11642	675241	7.54151e+06	7.57168e+06	-84.8836	0.0000000E+000	0.0000000E+000	0.0000000E+000	84.8836	0.0000000E+000	0.0000000E+000	0.0000000E+000	-84.8836	0.0000000E+000	0.0000000E+000	0.0000000E+000	-5.11642	0.0000000E+000	0.0000000E+000	0.0000000E+000	5.11642	11.1686	84.8836	-1.03447e-05	-1.41523e-06	5.46285e-10	-1.41578e-06	0.253181	45258.5	17.47	45276
1.00006	14.521	1.16607	14.5678	-4.5911	18.3599	0.253089	-0.00559398	136480	874.436	1	11	0.00486347	0.000333851	0	1.72871e-05	-0.000173993	2.98154e-06	23.5327	0.00893076	0.00818801	-0.0035658	-4.57455	14.5757	14.5292	1.1625	0.0684243	0.00549459	0.0686446	4.5911	874436	1.08894e+07	1.09244e+07	-85.4089	0.0000000E+000	0.0000000E+000	0.0000000E+000	85.4089	0.0000000E+000	0.0000000E+000	0.0000000E+000	-85.4089	0.0000000E+000	0.0000000E+000	0.0000000E+000	-4.5911	0.0000000E+000	0.0000000E+000	0.0000000E+000	4.5911	12.453	85.4089	-1.08708e-05	-1.41578e-06	9.73313e-10	-1.41675e-06	0.253263	45243.1	31.1036	45274.2
0.681362	14.7344	1.12692	14.7774	-4.3736	21.472	0.25309	-0.00655205	207276	1205.42	1	11	0.00486562	0.000329261	0	1.05567e-05	-0.000307521	2.95074e-06	-40.6536	0.0089617	0.0067989	0.00583841	-4.39415	14.7846	14.7412	1.13276	0.0674739	0.00516056	0.0676709	4.3736	1.20542e+06	1.57608e+07	1.58068e+07	-85.6264	0.0000000E+000	0.0000000E+000	0.0000000E+000	85.6264	0.0000000E+000	0.0000000E+000	0.0000000E+000	-85.6264	0.0000000E+000	0.0000000E+000	0.0000000E+000	-4.3736	0.0000000E+000	0.0000000E+000	0.0000000E+000	4.3736	13.0749	85.6264	-6.73039e-06	-1.65826e-06	2.01489e-09	-1.66028e-06	0.253398	38627.7	46.9351	38674.6
0.464091	14.9203	1.17783	14.9667	-4.51366	26.0285	0.253095	-0.00680534	291162	1803.22	1	11	0.00486425	0.000325005	0	1.51947e-05	-0.000231219	1.86021e-06	2.37541	0.00572362	0.0057187	-0.000237226	-4.51103	14.9724	14.926	1.17759	0.0666079	0.00525813	0.0668151	4.51366	1.80322e+06	2.28425e+07	2.29135e+07	-85.4863	0.0000000E+000	0.0000000E+000	0.0000000E+000	85.4863	0.0000000E+000	0.0000000E+000	0.0000000E+000	-85.4863	0.0000000E+000	0.0000000E+000	0.0000000E+000	-4.51366	0.0000000E+000	0.0000000E+000	0.0000000E+000	4.51366	12.6676	85.4863	4.63804e-06	-1.7224e-06	1.57352e-09	-1.72397e-06	0.253327	37190.7	33.9761	37224.7
0.316193	15.1037	1.30232	15.1597	-4.92817	32.7031	0.253085	-0.00646033	386500	2852.36	1	11	0.00486368	0.00032083	0	3.20575e-05	-0.000345672	2.96689e-06	-31.1841	0.00924755	0.00791135	0.00478828	-4.94362	15.168	15.1116	1.30711	0.0657205	0.00566678	0.0659643	4.92817	2.85236e+06	3.30802e+07	3.3203e+07	-85.0718	0.0000000E+000	0.0000000E+000	0.0000000E+000	85.0718	0.0000000E+000	0.0000000E+000	0.0000000E+000	-85.0718	0.0000000E+000	0.0000000E+000	0.0000000E+000	-4.92817	0.0000000E+000	0.0000000E+000	0.0000000E+000	4.92817	11.5975	85.0718	1.68627e-05	-1.63501e-06	2.23315e-09	-1.63725e-06	0.253431	39175.3	53.5068	39228.8
0.215268	15.3552	1.52178	15.4304	-5.65982	42.4966	0.253088	-0.00437995	485837	4725.39	1	11	0.00486548	0.000315318	0	5.4669e-05	-0.000383823	2.14669e-06	-28.772	0.00680801	0.00596751	0.00327686	-5.66974	15.4367	15.3611	1.52505	0.0644912	0.00639141	0.0648071	5.65982	4.72539e+06	4.76806e+07	4.79142e+07	-84.3402	0.0000000E+000	0.0000000E+000	0.0000000E+000	84.3402	0.0000000E+000	0.0000000E+000	0.0000000E+000	-84.3402	0.0000000E+000	0.0000000E+000	0.0000000E+000	-5.65982	0.0000000E+000	0.0000000E+000	0.0000000E+000	5.65982	10.0903	84.3402	2.26116e-05	-1.10851e-06	1.68112e-09	-1.1102e-06	0.253472	57783.4	87.6317	57871
0.146929	15.6803	1.9127	15.7965	-6.95465	56.835	0.253092	-0.00177752	566325	8303.04	1	11	0.00486421	0.000307929	0	6.44707e-05	-9.76912e-05	2.84045e-06	-18.7368	0.00922437	0.00873551	0.00296307	-6.96148	15.8056	15.689	1.91567	0.0628392	0.00766521	0.063305	6.95465	8.30304e+06	6.80682e+07	6.85727e+07	-83.0453	0.0000000E+000	0.0000000E+000	0.0000000E+000	83.0453	0.0000000E+000	0.0000000E+000	0.0000000E+000	-83.0453	0.0000000E+000	0.0000000E+000	0.0000000E+000	-6.95465	0.0000000E+000	0.0000000E+000	0.0000000E+000	6.95465	8.19799	83.0453	9.80169e-06	-4.49878e-07	1.73648e-10	-4.50052e-07	0.25319	142385	54.9591	142440
0.0999041	16.0994	2.47003	16.2878	-8.72252	87.9858	0.253094	-0.00224089	644962	14832.5	1	12	0.00486271	0.000298549	0	2.21798e-05	-0.000326596	1.36979e-06	52.5298	0.00458814	0.00279119	-0.00364147	-8.70837	16.29	16.1022	2.46639	0.0606856	0.00931061	0.0613957	8.72252	1.48325e+07	9.66769e+07	9.78081e+07	-81.2775	0.0000000E+000	0.0000000E+000	0.0000000E+000	81.2775	0.0000000E+000	0.0000000E+000	0.0000000E+000	-81.2775	0.0000000E+000	0.0000000E+000	0.0000000E+000	-8.72252	0.0000000E+000	0.0000000E+000	0.0000000E+000	8.72252	6.5179	81.2775	-4.2291e-05	-5.67157e-07	7.31868e-10	-5.67889e-07	0.253421	112943	145.744	113089
0.0680626	16.5816	3.223	16.8919	-10.9995	118.912	0.253097	-0.00117109	725524	26412.6	1	12	0.00485938	0.000287675	0	-8.38831e-05	-0.000231219	2.41541e-06	-43.8354	0.00839633	0.00605654	0.0058152	-11.015	16.899	16.5877	3.22881	0.0581122	0.0112954	0.0591998	10.9995	2.64126e+07	1.35887e+08	1.38431e+08	-79.0005	0.0000000E+000	0.0000000E+000	0.0000000E+000	79.0005	0.0000000E+000	0.0000000E+000	0.0000000E+000	-79.0005	0.0000000E+000	0.0000000E+000	0.0000000E+000	-10.9995	0.0000000E+000	0.0000000E+000	0.0000000E+000	10.9995	5.14479	79.0005	-0.000106063	-2.96399e-07	2.70779e-10	-2.9667e-07	0.253328	216120	197.439	216318
0.0464052	17.2071	4.08383	17.6851	-13.3512	164.264	0.253096	-0.00260155	839819	44782.4	1	12	0.00486186	0.000274913	0	-0.00028498	-0.000212144	2.17615e-06	4.16671	0.00791577	0.00789485	-0.00057515	-13.3435	17.6926	17.215	4.08325	0.0550166	0.0130573	0.0565449	13.3512	4.47824e+07	1.88689e+08	1.93931e+08	-76.6488	0.0000000E+000	0.0000000E+000	0.0000000E+000	76.6488	0.0000000E+000	0.0000000E+000	0.0000000E+000	-76.6488	0.0000000E+000	0.0000000E+000	0.0000000E+000	-13.3512	0.0000000E+000	0.0000000E+000	0.0000000E+000	13.3512	4.21347	76.6488	-0.000201097	-6.58441e-07	5.51902e-10	-6.58993e-07	0.253308	97286.6	81.5452	97368.2
0.0315922	18.0508	5.37376	18.8337	-16.5784	230.868	0.253096	-0.00377672	937479	76321.6	1	12	0.00486352	0.000258235	0	-0.000518038	-2.13895e-05	2.22531e-06	-26.3481	0.00861739	0.00772217	0.0038246	-16.5828	18.8422	18.0585	5.37759	0.0508891	0.0151498	0.0530963	16.5784	7.63216e+07	2.56369e+08	2.67488e+08	-73.4216	0.0000000E+000	0.0000000E+000	0.0000000E+000	73.4216	0.0000000E+000	0.0000000E+000	0.0000000E+000	-73.4216	0.0000000E+000	0.0000000E+000	0.0000000E+000	-16.5784	0.0000000E+000	0.0000000E+000	0.0000000E+000	16.5784	3.35906	73.4216	-0.000233058	-9.55872e-07	8.07821e-11	-9.55953e-07	0.253117	67014.7	5.6635	67020.4
0.0215268	18.9624	7.23771	20.2967	-20.8912	328.607	0.253091	-0.00424425	1.0215e+06	129894	1	12	0.00486467	0.000239677	0	-0.000642052	-0.000231219	1.55635e-06	-26.4095	0.00649351	0.00581584	0.0028882	-20.893	20.3032	18.9682	7.2406	0.04603	0.0175691	0.049269	20.8912	1.29894e+08	3.40316e+08	3.64263e+08	-69.1088	0.0000000E+000	0.0000000E+000	0.0000000E+000	69.1088	0.0000000E+000	0.0000000E+000	0.0000000E+000	-69.1088	0.0000000E+000	0.0000000E+000	0.0000000E+000	-20.8912	0.0000000E+000	0.0000000E+000	0.0000000E+000	20.8912	2.61995	69.1088	-0.000124014	-1.07418e-06	9.81353e-10	-1.07517e-06	0.253323	59631.5	54.4781	59686
0.0146812	19.9332	9.58104	22.1162	-25.6717	471.91	0.253096	-0.00386198	1.13148e+06	212349	1	12	0.00486108	0.000219797	0	-0.000502743	-0.000231219	2.10085e-06	12.1372	0.00955812	0.00934447	-0.00200963	-25.6565	22.1238	19.9425	9.57903	0.0407525	0.019588	0.0452157	25.6717	2.12349e+08	4.41788e+08	4.90172e+08	-64.3283	0.0000000E+000	0.0000000E+000	0.0000000E+000	64.3283	0.0000000E+000	0.0000000E+000	0.0000000E+000	-64.3283	0.0000000E+000	0.0000000E+000	0.0000000E+000	-25.6717	0.0000000E+000	0.0000000E+000	0.0000000E+000	25.6717	2.08048	64.3283	0.000139309	-9.77451e-07	8.92964e-10	-9.78344e-07	0.253327	65535.2	59.8706	65595.1
0.0100092	21.4235	12.5409	24.8242	-30.3438	682.092	0.253096	-0.00331889	1.26793e+06	323593	1	12	0.00486316	0.000195904	0	-0.000112167	-0.000402898	1.9112e-06	66.779	0.0097558	0.00384651	-0.0089655	-30.3214	24.823	21.4274	12.5319	0.0347649	0.0203506	0.0402833	30.3438	3.23593e+08	5.52793e+08	6.40541e+08	-59.6562	0.0000000E+000	0.0000000E+000	0.0000000E+000	59.6562	0.0000000E+000	0.0000000E+000	0.0000000E+000	-59.6562	0.0000000E+000	0.0000000E+000	0.0000000E+000	-30.3438	0.0000000E+000	0.0000000E+000	0.0000000E+000	30.3438	1.7083	59.6562	0.000390576	-8.39996e-07	1.33717e-09	-8.41333e-07	0.253499	76259.2	121.395	76380.6