File: txt/18713_R307_UA701_SOC00_C08.mpt
EC-Lab ASCII FILE
Nb header lines : 65

Potentio Electrochemical Impedance Spectroscopy

Run on channel : 8 (SN 65398)
User :
CE vs. WE compliance from -10 V to 10 V
Electrode connection : standard
Potential control : Ewe
Ewe ctrl range : min = -10.00 V, max = 10.00 V
Safety Limits :
	Do not start on E overload
Acquisition started on : 10/28/2025 15:31:10.147
Technique started on : 10/28/2025 15:31:11.874
Loaded Setting File :  C:\Users\Celltest\OneDrive - store-dot.com\Documents\EC-Lab\Data\@Biologic Test Protocols\anode half cell EIS SOC00.mps
Saved on :
	File : 18713_R307_UA701_SOC00_C08.mpr
	Directory : C:\Users\Celltest\OneDrive - store-dot.com\Documents\EC-Lab\Data\Anna\
	Host : 169.254.61.224
Device : VMP-3e (SN .003165)
Address : USB
EC-LAB for windows v11.62 (software)
Internet server v27.00 (firmware)
Command interpretor v12.03 (firmware)
Electrode material :
Initial state :
Electrolyte :
Comments :
Electrode surface area : 0.001 cm²
Characteristic mass : 0.001 g
Equivalent Weight : 0.000 g/eq.
Density : 0.000 g/cm3
Volume (V) : 0.001 cm³
Record Ece
Cycle Definition : Charge/Discharge alternance
Mode                Single sine
E (V)               0.0000
vs.                 Eoc
tE (h:m:s)          0:00:0.0000
record              0
dI                  0.000
unit dI             mA
dt (s)              0.000
fi                  100.000
unit fi             kHz
ff                  10.000
unit ff             mHz
Nd                  6
Points              per decade
spacing             Logarithmic
Va (mV)             5.0
pw                  0.10
Na                  2
corr                0
E range min (V)     -10.000
E range max (V)     10.000
I Range             Auto
Bandwidth           5
nc cycles           0
goto Ns'            0
nr cycles           0
inc. cycle          0

freq/Hz	Re(Z)/Ohm	-Im(Z)/Ohm	|Z|/Ohm	Phase(Z)/deg	time/s	<Ewe>/V	<I>/mA	Cs/µF	Cp/µF	cycle number	I Range	|Ewe|/V	|I|/A	Ns	(Q-Qo)/mA.h	<Ece>/V	|Ece|/V	Phase(Zce)/deg	|Zce|/Ohm	Re(Zce)/Ohm	-Im(Zce)/Ohm	Phase(Zwe-ce)/deg	|Zwe-ce|/Ohm	Re(Zwe-ce)/Ohm	-Im(Zwe-ce)/Ohm	Re(Y)/Ohm-1	Im(Y)/Ohm-1	|Y|/Ohm-1	Phase(Y)/deg	Re(C)/nF	Im(C)/nF	|C|/nF	Phase(C)/deg	Re(M)	Im(M)	|M|	Phase(M)/deg	Re(Permittivity)	Im(Permittivity)	|Permittivity|	Phase(Permittivity)/deg	Re(Resistivity)/Ohm.cm	Im(Resistivity)/Ohm.cm	|Resistivity|/Ohm.cm	Phase(Resistivity)/deg	Re(Conductivity)/mS/cm	Im(Conductivity)/mS/cm	|Conductivity|/mS/cm	Phase(Conductivity)/deg	Tan(Delta)	Loss Angle(Delta)/deg	dq/mA.h	Pwe/W	Pce/W	Pwe-ce/W	<Ewe-Ece>/V	Rwe/Ohm	Rce/Ohm	Rwe-ce/Ohm		Ewe-Ece/V
100004	1.18558	0.479614	1.27892	-22.0252	1.72653	0.245637	0.00558275	3.31827	0.466668	1	9	0.00483276	0.00377878	0	-5.00142e-06	0.000273542	5.59898e-05	91.8803	0.0148169	-0.000486162	-0.0148089	-21.4155	1.27299	1.1851	0.464805	0.724844	0.293227	0.781909	22.0252	466.668	1153.58	1244.4	-67.9748	0.0000000E+000	0.0000000E+000	0.0000000E+000	67.9748	0.0000000E+000	0.0000000E+000	0.0000000E+000	-67.9748	0.0000000E+000	0.0000000E+000	0.0000000E+000	-22.0252	0.0000000E+000	0.0000000E+000	0.0000000E+000	22.0252	2.47195	67.9748	-5.00142e-06	1.37133e-06	1.52712e-09	1.3698e-06	0.245363	43999.2	48.9977	43950.2
68132	1.32129	0.538403	1.42677	-22.1701	2.23357	0.245633	-0.00487108	4.33872	0.617827	1	9	0.00505172	0.00354067	0	1.46347e-05	0.000178102	3.44636e-05	78.1246	0.00973364	0.00200302	-0.00952532	-21.785	1.42506	1.32329	0.528878	0.649065	0.264483	0.700883	22.1701	617.827	1516.2	1637.25	-67.8299	0.0000000E+000	0.0000000E+000	0.0000000E+000	67.8299	0.0000000E+000	0.0000000E+000	0.0000000E+000	-67.8299	0.0000000E+000	0.0000000E+000	0.0000000E+000	-22.1701	0.0000000E+000	0.0000000E+000	0.0000000E+000	22.1701	2.45409	67.8299	1.96361e-05	-1.1965e-06	-8.67546e-10	-1.19563e-06	0.245455	50426.9	36.5631	50390.4
46420.4	1.46649	0.57878	1.57657	-21.5377	2.74251	0.245626	0.00855893	5.92377	0.798356	1	9	0.00504545	0.00320026	0	2.41639e-05	-0.000146395	2.13046e-05	55.2284	0.00665713	0.0037966	-0.00546838	-21.3024	1.57811	1.47029	0.573312	0.589999	0.232855	0.634287	21.5377	798.356	2022.85	2174.69	-68.4623	0.0000000E+000	0.0000000E+000	0.0000000E+000	68.4623	0.0000000E+000	0.0000000E+000	0.0000000E+000	-68.4623	0.0000000E+000	0.0000000E+000	0.0000000E+000	-21.5377	0.0000000E+000	0.0000000E+000	0.0000000E+000	21.5377	2.53376	68.4623	9.52924e-06	2.1023e-06	-1.25299e-09	2.10355e-06	0.245773	28698.3	17.1044	28715.4
31621.1	1.60959	0.621946	1.72557	-21.1266	3.24856	0.245632	-0.00111365	8.09264	1.05131	1	9	0.0050684	0.00293724	0	2.72719e-05	0.000368982	9.45333e-06	40.2105	0.00321844	0.00245785	-0.00207782	-21.0329	1.72711	1.61204	0.619868	0.540568	0.208876	0.57952	21.1266	1051.31	2720.78	2916.83	-68.8734	0.0000000E+000	0.0000000E+000	0.0000000E+000	68.8734	0.0000000E+000	0.0000000E+000	0.0000000E+000	-68.8734	0.0000000E+000	0.0000000E+000	0.0000000E+000	-21.1266	0.0000000E+000	0.0000000E+000	0.0000000E+000	21.1266	2.58798	68.8734	3.10796e-06	-2.73549e-07	-4.10917e-10	-2.73138e-07	0.245263	220565	331.326	220233
21544.7	1.7652	0.666763	1.88693	-20.6929	3.63155	0.245629	0.00364824	11.0792	1.38338	1	9	0.00524193	0.00277803	0	2.7515e-05	0.000254454	9.16483e-06	-67.8802	0.00329904	0.00124224	0.00305623	-20.7663	1.88917	1.76644	0.669819	0.495774	0.187267	0.529963	20.6929	1383.38	3662.38	3914.94	-69.3071	0.0000000E+000	0.0000000E+000	0.0000000E+000	69.3071	0.0000000E+000	0.0000000E+000	0.0000000E+000	-69.3071	0.0000000E+000	0.0000000E+000	0.0000000E+000	-20.6929	0.0000000E+000	0.0000000E+000	0.0000000E+000	20.6929	2.64741	69.3071	2.43133e-07	8.96111e-07	9.28307e-10	8.95183e-07	0.245374	67328.1	69.7471	67258.3
14678.6	1.91344	0.721848	2.04507	-20.6691	4.01355	0.24563	0.00688482	15.0207	1.8714	1	9	0.00506371	0.00247606	0	2.30439e-05	4.44852e-05	2.2012e-05	-73.6897	0.00888992	0.00249664	0.00853215	-20.8675	2.05043	1.91593	0.73038	0.457508	0.172596	0.488981	20.6691	1871.4	4960.6	5301.85	-69.3309	0.0000000E+000	0.0000000E+000	0.0000000E+000	69.3309	0.0000000E+000	0.0000000E+000	0.0000000E+000	-69.3309	0.0000000E+000	0.0000000E+000	0.0000000E+000	-20.6691	0.0000000E+000	0.0000000E+000	0.0000000E+000	20.6691	2.65075	69.3309	-4.47114e-06	1.69111e-06	3.06273e-10	1.69081e-06	0.245585	35677	6.46135	35670.5
10002.2	2.08593	0.780506	2.22718	-20.5146	4.27256	0.245642	0.00152769	20.3867	2.50375	1	9	0.00495284	0.00222382	0	2.2748e-05	-8.91312e-05	5.59818e-06	-40.6168	0.00251737	0.00191089	0.0016388	-20.5369	2.22954	2.08785	0.782145	0.420525	0.15735	0.448999	20.5146	2503.75	6691.37	7144.45	-69.4854	0.0000000E+000	0.0000000E+000	0.0000000E+000	69.4854	0.0000000E+000	0.0000000E+000	0.0000000E+000	-69.4854	0.0000000E+000	0.0000000E+000	0.0000000E+000	-20.5146	0.0000000E+000	0.0000000E+000	0.0000000E+000	20.5146	2.67254	69.4854	-2.95844e-07	3.75264e-07	-1.36165e-10	3.754e-07	0.245731	160793	58.3438	160851
6810.42	2.25075	0.827453	2.39803	-20.1852	4.53152	0.245634	0.00640117	28.2425	3.36263	1	9	0.00477283	0.00199031	0	2.44447e-05	0.000330806	6.53624e-05	-70.2452	0.0328403	0.0110999	0.0309076	-20.7815	2.41925	2.26185	0.858361	0.391397	0.143891	0.417008	20.1852	3362.63	9146.68	9745.21	-69.8148	0.0000000E+000	0.0000000E+000	0.0000000E+000	69.8148	0.0000000E+000	0.0000000E+000	0.0000000E+000	-69.8148	0.0000000E+000	0.0000000E+000	0.0000000E+000	-20.1852	0.0000000E+000	0.0000000E+000	0.0000000E+000	20.1852	2.72009	69.8148	1.69666e-06	1.57235e-06	2.11755e-09	1.57023e-06	0.245304	38373.3	51.679	38321.6
4646	2.4425	0.952858	2.62179	-21.3115	4.7996	0.245593	-0.0235094	35.9511	4.7487	1	9	0.00469326	0.0017901	0	2.33035e-05	6.35733e-05	1.2024e-05	-6.28731	0.00671694	0.00667654	0.000735601	-21.2736	2.62827	2.44918	0.953593	0.355337	0.138622	0.381419	21.3115	4748.69	12172.5	13066	-68.6885	0.0000000E+000	0.0000000E+000	0.0000000E+000	68.6885	0.0000000E+000	0.0000000E+000	0.0000000E+000	-68.6885	0.0000000E+000	0.0000000E+000	0.0000000E+000	-21.3115	0.0000000E+000	0.0000000E+000	0.0000000E+000	21.3115	2.56335	68.6885	-1.14122e-06	-5.77375e-06	-1.49457e-09	-5.77226e-06	0.24553	10446.6	2.70416	10443.9
3163.08	2.67099	1.07628	2.87969	-21.9471	5.17367	0.245422	-0.0479513	46.7502	6.53049	1	9	0.00462545	0.00160623	0	1.68858e-05	-1.2779e-05	6.42914e-06	-51.5252	0.00400262	0.00249031	0.00313358	-21.9863	2.88317	2.67348	1.07942	0.322094	0.129788	0.34726	21.9471	6530.49	16206.6	17472.9	-68.0529	0.0000000E+000	0.0000000E+000	0.0000000E+000	68.0529	0.0000000E+000	0.0000000E+000	0.0000000E+000	-68.0529	0.0000000E+000	0.0000000E+000	0.0000000E+000	-21.9471	0.0000000E+000	0.0000000E+000	0.0000000E+000	21.9471	2.48168	68.0529	-6.41771e-06	-1.17683e-05	6.12768e-10	-1.17689e-05	0.245435	5118.15	0.266499	5118.42
2155.69	2.90619	1.2224	3.15281	-22.8126	5.62482	0.245544	0.0291689	60.3977	9.0793	1	9	0.00458164	0.00145319	0	2.01492e-05	0.00038807	9.26518e-06	-77.2997	0.00637574	0.00140171	0.00621975	-22.9068	3.15652	2.90759	1.22862	0.292367	0.122975	0.317178	22.8126	9079.3	21585.5	23417.3	-67.1874	0.0000000E+000	0.0000000E+000	0.0000000E+000	67.1874	0.0000000E+000	0.0000000E+000	0.0000000E+000	-67.1874	0.0000000E+000	0.0000000E+000	0.0000000E+000	-22.8126	0.0000000E+000	0.0000000E+000	0.0000000E+000	22.8126	2.37744	67.1874	3.2634e-06	7.16225e-06	1.13196e-08	7.15093e-06	0.245156	8417.99	13.3042	8404.69
1468.59	3.19986	1.37878	3.48427	-23.3106	6.32103	0.245549	-0.0171711	78.6004	12.3081	1	10	0.00465984	0.00133739	0	2.01612e-05	0.000407158	1.59857e-05	93.9841	0.0119529	-0.000830491	-0.011924	-23.1357	3.47881	3.19903	1.36686	0.263577	0.113572	0.287004	23.3106	12308.1	28564.5	31103.4	-66.6894	0.0000000E+000	0.0000000E+000	0.0000000E+000	66.6894	0.0000000E+000	0.0000000E+000	0.0000000E+000	-66.6894	0.0000000E+000	0.0000000E+000	0.0000000E+000	-23.3106	0.0000000E+000	0.0000000E+000	0.0000000E+000	23.3106	2.32079	66.6894	1.19895e-08	-4.21635e-06	-6.99135e-09	-4.20936e-06	0.245142	14300.1	23.7118	14276.4
1000.32	3.51677	1.56515	3.84933	-23.9917	6.77178	0.245554	-0.0158282	101.654	16.8061	1	10	0.00460813	0.00119712	0	1.81905e-05	0.000178102	8.15096e-06	-93.9321	0.00680878	-0.00046691	0.00679276	-24.0868	3.85167	3.5163	1.57195	0.237341	0.10563	0.259785	23.9917	16806.1	37761.9	41332.9	-66.0083	0.0000000E+000	0.0000000E+000	0.0000000E+000	66.0083	0.0000000E+000	0.0000000E+000	0.0000000E+000	-66.0083	0.0000000E+000	0.0000000E+000	0.0000000E+000	-23.9917	0.0000000E+000	0.0000000E+000	0.0000000E+000	23.9917	2.24692	66.0083	-1.97062e-06	-3.88667e-06	-2.81902e-09	-3.88385e-06	0.245376	15513.7	11.2522	15502.5
681.09	3.87717	1.79605	4.27297	-24.8553	7.22258	0.245561	-0.0165945	130.106	22.9866	1	10	0.00456015	0.00106721	0	1.56903e-05	-7.00431e-05	1.38832e-05	-97.6579	0.0130089	-0.00173353	0.0128928	-25.0218	4.27683	3.87544	1.80894	0.212352	0.098369	0.234029	24.8553	22986.6	49621.7	54687.3	-65.1447	0.0000000E+000	0.0000000E+000	0.0000000E+000	65.1447	0.0000000E+000	0.0000000E+000	0.0000000E+000	-65.1447	0.0000000E+000	0.0000000E+000	0.0000000E+000	-24.8553	0.0000000E+000	0.0000000E+000	0.0000000E+000	24.8553	2.15873	65.1447	-2.50025e-06	-4.07497e-06	1.16233e-09	-4.07613e-06	0.245631	14797.8	4.22086	14802
463.961	4.30007	2.09481	4.78318	-25.9734	7.67428	0.245548	-0.0160142	163.755	31.4087	1	10	0.00453554	0.000948225	0	1.41293e-05	6.3091e-06	8.52676e-06	-45.4936	0.00899234	0.00630352	0.00641309	-26.0093	4.79166	4.30637	2.10123	0.18795	0.0915612	0.209066	25.9734	31408.7	64473.4	71717	-64.0266	0.0000000E+000	0.0000000E+000	0.0000000E+000	64.0266	0.0000000E+000	0.0000000E+000	0.0000000E+000	-64.0266	0.0000000E+000	0.0000000E+000	0.0000000E+000	-25.9734	0.0000000E+000	0.0000000E+000	0.0000000E+000	25.9734	2.05272	64.0266	-1.56097e-06	-3.93225e-06	-1.01035e-10	-3.93215e-06	0.245542	15333.2	0.393969	15332.8
316.316	4.84102	2.44701	5.42432	-26.8154	8.335	0.245546	-0.0181569	205.619	41.845	1	10	0.00506101	0.000933022	0	1.09309e-05	0.00019719	4.8672e-05	-64.9495	0.052166	0.0220879	0.047259	-27.1531	5.46545	4.86311	2.49427	0.16453	0.0831656	0.184355	26.8154	41844.9	82783.6	92758.4	-63.1846	0.0000000E+000	0.0000000E+000	0.0000000E+000	63.1846	0.0000000E+000	0.0000000E+000	0.0000000E+000	-63.1846	0.0000000E+000	0.0000000E+000	0.0000000E+000	-26.8154	0.0000000E+000	0.0000000E+000	0.0000000E+000	26.8154	1.97834	63.1846	-3.19843e-06	-4.45835e-06	-3.58035e-09	-4.45477e-06	0.245349	13523.6	10.8603	13512.7
215.345	5.47588	2.74467	6.12524	-26.6214	8.78559	0.245539	-0.0172343	269.275	54.0669	1	10	0.00501667	0.000819016	0	9.7697e-06	-0.000184571	1.28074e-05	89.1983	0.0156376	0.000218789	-0.0156361	-26.4896	6.11844	5.4761	2.72904	0.145951	0.0731552	0.163259	26.6214	54066.9	107868	120660	-63.3786	0.0000000E+000	0.0000000E+000	0.0000000E+000	63.3786	0.0000000E+000	0.0000000E+000	0.0000000E+000	-63.3786	0.0000000E+000	0.0000000E+000	0.0000000E+000	-26.6214	0.0000000E+000	0.0000000E+000	0.0000000E+000	26.6214	1.99509	63.3786	-1.16118e-06	-4.23169e-06	3.18097e-09	-4.23488e-06	0.245723	14247	10.7095	14257.8
146.737	6.28347	3.03145	6.97651	-25.7549	9.23155	0.24554	-0.018767	357.79	67.5543	1	10	0.00501185	0.000718388	0	8.23941e-06	0.00019719	5.15405e-06	2.63897	0.00717447	0.00716686	-0.00033033	-25.7269	6.98283	6.29064	3.03112	0.129099	0.0622836	0.143338	25.7549	67554.3	140024	155468	-64.2451	0.0000000E+000	0.0000000E+000	0.0000000E+000	64.2451	0.0000000E+000	0.0000000E+000	0.0000000E+000	-64.2451	0.0000000E+000	0.0000000E+000	0.0000000E+000	-25.7549	0.0000000E+000	0.0000000E+000	0.0000000E+000	25.7549	2.07276	64.2451	-1.53029e-06	-4.60803e-06	-3.70065e-09	-4.60433e-06	0.245342	13083.6	10.5073	13073.1
100.032	7.19287	3.22985	7.88475	-24.1817	9.68283	0.245546	-0.0177663	492.605	82.6584	1	10	0.00501029	0.00063544	0	5.4873e-06	0.000216278	9.54127e-06	90.4063	0.0150152	-0.000106479	-0.0150148	-24.0824	7.87852	7.19277	3.21483	0.115698	0.0519524	0.126827	24.1817	82658.4	184080	201787	-65.8183	0.0000000E+000	0.0000000E+000	0.0000000E+000	65.8183	0.0000000E+000	0.0000000E+000	0.0000000E+000	-65.8183	0.0000000E+000	0.0000000E+000	0.0000000E+000	-24.1817	0.0000000E+000	0.0000000E+000	0.0000000E+000	24.1817	2.227	65.8183	-2.75211e-06	-4.36245e-06	-3.84245e-09	-4.35861e-06	0.24533	13820.9	12.1735	13808.7
68.104	8.15025	3.29577	8.7914	-22.0173	10.1454	0.245553	-0.0147011	709.072	99.6526	1	10	0.00500481	0.000569285	0	3.3696e-06	2.53972e-05	4.13205e-06	-80.3511	0.00725832	0.00121657	0.00715564	-22.0575	8.79521	8.15147	3.30293	0.105452	0.0426423	0.113748	22.0173	99652.6	246435	265821	-67.9827	0.0000000E+000	0.0000000E+000	0.0000000E+000	67.9827	0.0000000E+000	0.0000000E+000	0.0000000E+000	-67.9827	0.0000000E+000	0.0000000E+000	0.0000000E+000	-22.0173	0.0000000E+000	0.0000000E+000	0.0000000E+000	22.0173	2.47294	67.9827	-2.1177e-06	-3.60988e-06	-3.73365e-10	-3.60951e-06	0.245527	16703.1	1.72757	16701.3
46.4415	9.09476	3.19603	9.63999	-19.3622	10.5817	0.245539	-0.0200727	1072.27	117.862	1	10	0.00499607	0.000518265	0	1.12555e-06	0.000159014	7.03605e-06	4.75173	0.0135762	0.0135295	-0.00112463	-19.3293	9.65238	9.10829	3.19491	0.0978675	0.0343921	0.103735	19.3622	117862	335391	355498	-70.6378	0.0000000E+000	0.0000000E+000	0.0000000E+000	70.6378	0.0000000E+000	0.0000000E+000	0.0000000E+000	-70.6378	0.0000000E+000	0.0000000E+000	0.0000000E+000	-19.3622	0.0000000E+000	0.0000000E+000	0.0000000E+000	19.3622	2.84564	70.6378	-2.24405e-06	-4.92863e-06	-3.19183e-09	-4.92544e-06	0.24538	12232.5	7.92189	12224.6
31.6296	9.97009	2.96714	10.4022	-16.5732	11.0115	0.245535	-0.0232942	1695.86	137.978	1	10	0.00500414	0.000481064	0	-8.18222e-07	0.00019719	5.98997e-06	32.2562	0.0124515	0.0105299	-0.00664545	-16.5216	10.4104	9.98062	2.96049	0.0921394	0.027421	0.0961332	16.5732	137978	463631	483727	-73.4268	0.0000000E+000	0.0000000E+000	0.0000000E+000	73.4268	0.0000000E+000	0.0000000E+000	0.0000000E+000	-73.4268	0.0000000E+000	0.0000000E+000	0.0000000E+000	-16.5732	0.0000000E+000	0.0000000E+000	0.0000000E+000	16.5732	3.36017	73.4268	-1.94377e-06	-5.71953e-06	-4.59337e-09	-5.71493e-06	0.245337	10540.6	8.46519	10532.1
21.5517	10.6837	2.73897	11.0292	-14.3792	11.4325	0.245531	-0.0248008	2696.2	166.279	1	10	0.00499947	0.000453294	0	-3.60714e-06	-0.000108219	3.78407e-06	-32.9705	0.00834793	0.0070035	0.00454301	-14.393	11.0371	10.6907	2.74351	0.0878281	0.0225164	0.0906684	14.3792	166279	648592	669567	-75.6208	0.0000000E+000	0.0000000E+000	0.0000000E+000	75.6208	0.0000000E+000	0.0000000E+000	0.0000000E+000	-75.6208	0.0000000E+000	0.0000000E+000	0.0000000E+000	-14.3792	0.0000000E+000	0.0000000E+000	0.0000000E+000	14.3792	3.90063	75.6208	-2.78891e-06	-6.08935e-06	2.68392e-09	-6.09204e-06	0.245639	9900.14	4.36355	9904.5
14.6852	11.3403	2.4797	11.6083	-12.3343	11.8932	0.245543	-0.0149652	4370.62	199.437	1	10	0.00499711	0.000430479	0	-6.01942e-06	-3.1867e-05	1.10254e-05	-57.9533	0.0256119	0.01359	0.021709	-12.4245	11.6262	11.3539	2.50141	0.0841571	0.018402	0.0861455	12.3343	199437	912079	933629	-77.6657	0.0000000E+000	0.0000000E+000	0.0000000E+000	77.6657	0.0000000E+000	0.0000000E+000	0.0000000E+000	-77.6657	0.0000000E+000	0.0000000E+000	0.0000000E+000	-12.3343	0.0000000E+000	0.0000000E+000	0.0000000E+000	12.3343	4.57327	77.6657	-2.41229e-06	-3.67459e-06	4.76895e-10	-3.67507e-06	0.245575	16407.6	2.12941	16409.7
10.0032	11.9398	2.21197	12.143	-10.4956	12.5888	0.24558	-0.00512268	7192.87	238.676	1	11	0.0049989	0.00041167	0	-6.81061e-06	0.00038807	3.33713e-06	100.981	0.00810634	-0.00154416	-0.00795791	-10.46	12.14	11.9383	2.20401	0.0809742	0.0150013	0.082352	10.4956	238676	1.28833e+06	1.31025e+06	-79.5044	0.0000000E+000	0.0000000E+000	0.0000000E+000	79.5044	0.0000000E+000	0.0000000E+000	0.0000000E+000	-79.5044	0.0000000E+000	0.0000000E+000	0.0000000E+000	-10.4956	0.0000000E+000	0.0000000E+000	0.0000000E+000	10.4956	5.39782	79.5044	-7.91183e-07	-1.25803e-06	-1.98796e-09	-1.25604e-06	0.245192	47939.8	75.7553	47864.1
6.81719	12.4621	1.97494	12.6176	-9.0051	12.9285	0.245592	-0.00475529	11821.2	289.611	1	11	0.00500472	0.000396647	0	-7.01482e-06	0.000254454	7.77929e-06	73.8771	0.0196127	0.0054464	-0.0188413	-8.91675	12.62	12.4675	1.95609	0.0782776	0.0124051	0.0792544	9.0051	289611	1.82748e+06	1.85028e+06	-80.9949	0.0000000E+000	0.0000000E+000	0.0000000E+000	80.9949	0.0000000E+000	0.0000000E+000	0.0000000E+000	-80.9949	0.0000000E+000	0.0000000E+000	0.0000000E+000	-9.0051	0.0000000E+000	0.0000000E+000	0.0000000E+000	9.0051	6.31011	80.9949	-2.04208e-07	-1.16786e-06	-1.21e-09	-1.16665e-06	0.245337	51646.1	53.5097	51592.6
4.63925	12.8784	1.74138	12.9956	-7.70064	13.4124	0.245583	-0.00483681	19700.6	353.729	1	11	0.00500546	0.000385165	0	-1.19137e-05	0.000216278	7.67763e-06	8.2039	0.0199334	0.0197294	-0.00284441	-7.67659	13.0148	12.8981	1.73853	0.0762551	0.010311	0.076949	7.70064	353729	2.61602e+06	2.63983e+06	-82.2994	0.0000000E+000	0.0000000E+000	0.0000000E+000	82.2994	0.0000000E+000	0.0000000E+000	0.0000000E+000	-82.2994	0.0000000E+000	0.0000000E+000	0.0000000E+000	-7.70064	0.0000000E+000	0.0000000E+000	0.0000000E+000	7.70064	7.39554	82.2994	-4.89888e-06	-1.18784e-06	-1.04609e-09	-1.18679e-06	0.245367	50773.8	44.715	50729.1
3.1604	13.2624	1.55395	13.3531	-6.68286	14.1054	0.245576	-0.00549902	32407.2	438.885	1	11	0.00500677	0.000374952	0	-1.23796e-05	0.000349894	3.92421e-06	40.0631	0.0104659	0.00800993	-0.00673619	-6.65017	13.3603	13.2704	1.54721	0.0743801	0.0087151	0.0748889	6.68286	438885	3.74572e+06	3.77135e+06	-83.3171	0.0000000E+000	0.0000000E+000	0.0000000E+000	83.3171	0.0000000E+000	0.0000000E+000	0.0000000E+000	-83.3171	0.0000000E+000	0.0000000E+000	0.0000000E+000	-6.68286	0.0000000E+000	0.0000000E+000	0.0000000E+000	6.68286	8.53463	83.3171	-4.65907e-07	-1.35043e-06	-1.92407e-09	-1.3485e-06	0.245226	44658.2	63.6285	44594.5
2.15577	13.5504	1.37643	13.6202	-5.80009	15.1091	0.245584	-0.00500776	53637.1	547.779	1	11	0.00500274	0.000367303	0	-7.43404e-06	0.000349894	3.93699e-06	54.7123	0.0107186	0.00619197	-0.00874922	-5.76085	13.6255	13.5566	1.36768	0.0730446	0.00741971	0.0734205	5.80009	547779	5.3927e+06	5.42045e+06	-84.1999	0.0000000E+000	0.0000000E+000	0.0000000E+000	84.1999	0.0000000E+000	0.0000000E+000	0.0000000E+000	-84.1999	0.0000000E+000	0.0000000E+000	0.0000000E+000	-5.80009	0.0000000E+000	0.0000000E+000	0.0000000E+000	5.80009	9.84467	84.1999	4.94556e-06	-1.22982e-06	-1.75218e-09	-1.22807e-06	0.245234	49040.6	69.8704	48970.8
1.46631	13.8268	1.22253	13.8807	-5.0528	16.5706	0.245584	-0.00435022	88784.1	688.696	1	11	0.00500659	0.000360686	0	-2.55707e-06	8.26613e-05	4.36017e-06	-33.9761	0.0120886	0.0100247	0.00675565	-5.07691	13.8913	13.8368	1.22928	0.0717623	0.00634503	0.0720422	5.0528	688696	7.78916e+06	7.81955e+06	-84.9472	0.0000000E+000	0.0000000E+000	0.0000000E+000	84.9472	0.0000000E+000	0.0000000E+000	0.0000000E+000	-84.9472	0.0000000E+000	0.0000000E+000	0.0000000E+000	-5.0528	0.0000000E+000	0.0000000E+000	0.0000000E+000	5.0528	11.31	84.9472	4.87698e-06	-1.06835e-06	-3.59595e-10	-1.06799e-06	0.245501	56453.2	19.0016	56434.2
1.00006	14.0385	1.13686	14.0844	-4.6298	18.7007	0.245589	-0.00293802	139987	912.054	1	11	0.00500348	0.000355249	0	-4.24814e-06	2.53972e-05	2.01169e-06	23.4969	0.00566274	0.0051932	-0.00225774	-4.61894	14.0894	14.0437	1.1346	0.0707688	0.00573097	0.0710005	4.6298	912054	1.12625e+07	1.12994e+07	-85.3702	0.0000000E+000	0.0000000E+000	0.0000000E+000	85.3702	0.0000000E+000	0.0000000E+000	0.0000000E+000	-85.3702	0.0000000E+000	0.0000000E+000	0.0000000E+000	-4.6298	0.0000000E+000	0.0000000E+000	0.0000000E+000	4.6298	12.3485	85.3702	-1.69107e-06	-7.21544e-07	-7.46174e-11	-7.2147e-07	0.245563	83589.8	8.64431	83581.2
0.681362	14.2155	1.12642	14.2601	-4.53058	21.8129	0.245582	-0.00238353	207368	1293.9	1	11	0.0050052	0.000350994	0	-1.64259e-05	0.000235366	2.30389e-06	-29.3854	0.0065639	0.00571938	0.00322078	-4.54166	14.266	14.2212	1.12964	0.0699068	0.00553933	0.0701259	4.53058	1.29389e+06	1.63291e+07	1.63802e+07	-85.4694	0.0000000E+000	0.0000000E+000	0.0000000E+000	85.4694	0.0000000E+000	0.0000000E+000	0.0000000E+000	-85.4694	0.0000000E+000	0.0000000E+000	0.0000000E+000	-4.53058	0.0000000E+000	0.0000000E+000	0.0000000E+000	4.53058	12.6201	85.4694	-1.21778e-05	-5.85352e-07	-5.61002e-10	-5.84791e-07	0.245346	103033	98.7467	102934
0.464091	14.366	1.16159	14.4129	-4.62267	26.3695	0.245592	-0.00239479	295234	1917.63	1	11	0.00500541	0.000347286	0	-4.13313e-05	0.000368982	2.09584e-06	-74.1453	0.0060349	0.00164873	0.00580531	-4.64514	14.415	14.3677	1.16739	0.0691564	0.00559174	0.0693821	4.62267	1.91763e+06	2.37165e+07	2.37939e+07	-85.3773	0.0000000E+000	0.0000000E+000	0.0000000E+000	85.3773	0.0000000E+000	0.0000000E+000	0.0000000E+000	-85.3773	0.0000000E+000	0.0000000E+000	0.0000000E+000	-4.62267	0.0000000E+000	0.0000000E+000	0.0000000E+000	4.62267	12.3676	85.3773	-2.49054e-05	-5.88142e-07	-8.83635e-10	-5.87258e-07	0.245223	102553	154.077	102399
0.316193	14.5336	1.28155	14.5899	-5.03922	33.0439	0.245598	-0.00394473	392765	3030.36	1	11	0.00500312	0.000342916	0	-7.29906e-05	0.000407158	3.45616e-06	4.74525	0.0100787	0.0100442	-0.000833768	-5.0325	14.5999	14.5436	1.28071	0.0682754	0.00602043	0.0685403	5.03922	3.03036e+06	3.43663e+07	3.44996e+07	-84.9608	0.0000000E+000	0.0000000E+000	0.0000000E+000	84.9608	0.0000000E+000	0.0000000E+000	0.0000000E+000	-84.9608	0.0000000E+000	0.0000000E+000	0.0000000E+000	-5.03922	0.0000000E+000	0.0000000E+000	0.0000000E+000	5.03922	11.3406	84.9608	-3.16593e-05	-9.68816e-07	-1.60613e-09	-9.6721e-07	0.245191	62259.8	103.216	62156.5
0.215268	14.7452	1.53031	14.8244	-5.92517	42.8374	0.245595	-0.00634074	483126	5148.35	1	11	0.00500385	0.000337542	0	-0.000100016	0.000235366	1.70074e-06	-10.0451	0.0050386	0.00496136	0.000878854	-5.92657	14.8294	14.7501	1.53119	0.067096	0.0069635	0.0674564	5.92517	5.14835e+06	4.96064e+07	4.98729e+07	-84.0748	0.0000000E+000	0.0000000E+000	0.0000000E+000	84.0748	0.0000000E+000	0.0000000E+000	0.0000000E+000	-84.0748	0.0000000E+000	0.0000000E+000	0.0000000E+000	-5.92517	0.0000000E+000	0.0000000E+000	0.0000000E+000	5.92517	9.6354	84.0748	-2.7025e-05	-1.55725e-06	-1.49239e-09	-1.55576e-06	0.24536	38732.9	37.1196	38695.7
0.146929	14.955	1.92928	15.0789	-7.35086	57.1757	0.245591	-0.00777646	561460	9191.06	1	11	0.00500424	0.00033187	0	-0.000102249	0.000311718	2.96093e-06	25.0836	0.00892197	0.00808054	-0.00378238	-7.33268	15.0865	14.9631	1.92549	0.0657726	0.00848501	0.0663176	7.35086	9.19105e+06	7.12456e+07	7.1836e+07	-82.6491	0.0000000E+000	0.0000000E+000	0.0000000E+000	82.6491	0.0000000E+000	0.0000000E+000	0.0000000E+000	-82.6491	0.0000000E+000	0.0000000E+000	0.0000000E+000	-7.35086	0.0000000E+000	0.0000000E+000	0.0000000E+000	7.35086	7.75162	82.6491	-2.23304e-06	-1.90983e-06	-2.42406e-09	-1.90741e-06	0.24528	31581.3	40.0848	31541.3
0.0999041	15.2057	2.44321	15.4007	-9.12815	78.252	0.245584	-0.00779969	652042	16410.4	1	11	0.00500849	0.000325212	0	-6.48627e-05	0.000101749	2.56021e-06	9.12029	0.00787243	0.00777291	-0.00124784	-9.11898	15.4082	15.2134	2.44197	0.0641099	0.010301	0.0649322	9.12815	1.64104e+07	1.02132e+08	1.03442e+08	-80.8718	0.0000000E+000	0.0000000E+000	0.0000000E+000	80.8718	0.0000000E+000	0.0000000E+000	0.0000000E+000	-80.8718	0.0000000E+000	0.0000000E+000	0.0000000E+000	-9.12815	0.0000000E+000	0.0000000E+000	0.0000000E+000	9.12815	6.22363	80.8718	3.73859e-05	-1.91548e-06	-7.93614e-10	-1.91469e-06	0.245483	31486.4	13.0453	31473.4
0.0680626	15.5771	3.11381	15.8853	-11.3042	109.179	0.245582	-0.0070861	750965	28854.4	1	11	0.00500282	0.000314934	0	-2.22042e-06	-5.09551e-05	3.0272e-06	4.67317	0.00961217	0.00958022	-0.000783121	-11.2947	15.8945	15.5867	3.11302	0.0617301	0.0123396	0.0629513	11.3042	2.88544e+07	1.44347e+08	1.47203e+08	-78.6958	0.0000000E+000	0.0000000E+000	0.0000000E+000	78.6958	0.0000000E+000	0.0000000E+000	0.0000000E+000	-78.6958	0.0000000E+000	0.0000000E+000	0.0000000E+000	-11.3042	0.0000000E+000	0.0000000E+000	0.0000000E+000	11.3042	5.0026	78.6958	6.26422e-05	-1.74022e-06	3.61073e-10	-1.74058e-06	0.245633	34656.8	7.19085	34664
0.0464052	16.0652	4.06549	16.5716	-14.2013	176.172	0.245573	-0.00657276	843607	50773.6	1	12	0.00500087	0.000301774	0	1.41596e-05	0.000330806	2.72688e-06	-5.79565	0.00903616	0.00898997	0.000912478	-14.1967	16.5805	16.0741	4.0664	0.0585001	0.0148042	0.0603442	14.2013	5.07736e+07	2.00637e+08	2.06961e+08	-75.7987	0.0000000E+000	0.0000000E+000	0.0000000E+000	75.7987	0.0000000E+000	0.0000000E+000	0.0000000E+000	-75.7987	0.0000000E+000	0.0000000E+000	0.0000000E+000	-14.2013	0.0000000E+000	0.0000000E+000	0.0000000E+000	14.2013	3.95159	75.7987	1.638e-05	-1.61409e-06	-2.17431e-09	-1.61192e-06	0.245242	37362.2	50.3298	37311.8
0.0315922	16.7697	5.40901	17.6205	-17.8769	242.778	0.245581	-0.00549725	931370	87765.1	1	12	0.00500662	0.000284136	0	-9.40693e-05	0.000101749	3.01617e-06	19.1823	0.0106152	0.0100258	-0.00348789	-17.8561	17.629	16.7798	5.40552	0.054012	0.0174213	0.0567521	17.8769	8.77651e+07	2.72101e+08	2.85905e+08	-72.1231	0.0000000E+000	0.0000000E+000	0.0000000E+000	72.1231	0.0000000E+000	0.0000000E+000	0.0000000E+000	-72.1231	0.0000000E+000	0.0000000E+000	0.0000000E+000	-17.8769	0.0000000E+000	0.0000000E+000	0.0000000E+000	17.8769	3.10033	72.1231	-0.000108229	-1.35002e-06	-5.59342e-10	-1.34946e-06	0.245479	44673.5	18.5091	44654.9
0.0215268	17.4418	7.13231	18.8437	-22.2407	340.516	0.24558	-0.00652553	1.0366e+06	148504	1	12	0.00500441	0.000265575	0	-0.00051531	0.000159014	2.60704e-06	12.3045	0.00981659	0.00959109	-0.00209198	-22.2237	18.8518	17.4514	7.13021	0.0491199	0.0200862	0.0530681	22.2407	1.48504e+08	3.63161e+08	3.92351e+08	-67.7593	0.0000000E+000	0.0000000E+000	0.0000000E+000	67.7593	0.0000000E+000	0.0000000E+000	0.0000000E+000	-67.7593	0.0000000E+000	0.0000000E+000	0.0000000E+000	-22.2407	0.0000000E+000	0.0000000E+000	0.0000000E+000	22.2407	2.44546	67.7593	-0.000421241	-1.60254e-06	-1.03765e-09	-1.6015e-06	0.245421	37633.6	24.3679	37609.3
0.0146812	18.5245	9.27291	20.7158	-26.5915	483.818	0.245582	-0.00790262	1.16908e+06	234247	1	12	0.00500696	0.000241698	0	-0.00131053	0.000178102	2.08783e-06	2.57237	0.00863816	0.00862946	-0.000387691	-26.5798	20.7233	18.5331	9.27253	0.0431662	0.021608	0.0482724	26.5915	2.34247e+08	4.67954e+08	5.23309e+08	-63.4085	0.0000000E+000	0.0000000E+000	0.0000000E+000	63.4085	0.0000000E+000	0.0000000E+000	0.0000000E+000	-63.4085	0.0000000E+000	0.0000000E+000	0.0000000E+000	-26.5915	0.0000000E+000	0.0000000E+000	0.0000000E+000	26.5915	1.9977	63.4085	-0.000795216	-1.94074e-06	-1.40747e-09	-1.93933e-06	0.245403	31076	22.537	31053.4
0.0100092	20.2	12.2738	23.6365	-31.2835	694.001	0.245587	-0.00914143	1.29551e+06	349328	1	12	0.00500382	0.000211699	0	-0.00232296	0.000330806	3.25438e-06	-99.6166	0.0153727	-0.00256808	0.0151567	-31.3181	23.6422	20.1974	12.289	0.0361562	0.0219691	0.0423074	31.2835	3.49328e+08	5.74917e+08	6.72726e+08	-58.7165	0.0000000E+000	0.0000000E+000	0.0000000E+000	58.7165	0.0000000E+000	0.0000000E+000	0.0000000E+000	-58.7165	0.0000000E+000	0.0000000E+000	0.0000000E+000	-31.2835	0.0000000E+000	0.0000000E+000	0.0000000E+000	31.2835	1.64578	58.7165	-0.00101244	-2.24502e-06	-3.02404e-09	-2.24199e-06	0.245257	26865.3	36.1876	26829.1