File: txt/18710_R307_UA701_4p95_SOC00_C08.mpt
EC-Lab ASCII FILE
Nb header lines : 65

Potentio Electrochemical Impedance Spectroscopy

Run on channel : 8 (SN 65398)
User :
CE vs. WE compliance from -10 V to 10 V
Electrode connection : standard
Potential control : Ewe
Ewe ctrl range : min = -10.00 V, max = 10.00 V
Safety Limits :
	Do not start on E overload
Acquisition started on : 10/29/2025 17:32:58.541
Technique started on : 10/29/2025 17:33:00.267
Loaded Setting File :  C:\Users\Celltest\OneDrive - store-dot.com\Documents\EC-Lab\Data\@Biologic Test Protocols\anode half cell EIS SOC00.mps
Saved on :
	File : 18710_R307_UA701_4p95_SOC00_C08.mpr
	Directory : C:\Users\Celltest\OneDrive - store-dot.com\Documents\EC-Lab\Data\Anna\
	Host : 169.254.61.224
Device : VMP-3e (SN .003165)
Address : USB
EC-LAB for windows v11.62 (software)
Internet server v27.00 (firmware)
Command interpretor v12.03 (firmware)
Electrode material :
Initial state :
Electrolyte :
Comments :
Electrode surface area : 0.001 cm²
Characteristic mass : 0.001 g
Equivalent Weight : 0.000 g/eq.
Density : 0.000 g/cm3
Volume (V) : 0.001 cm³
Record Ece
Cycle Definition : Charge/Discharge alternance
Mode                Single sine
E (V)               0.0000
vs.                 Eoc
tE (h:m:s)          0:00:0.0000
record              0
dI                  0.000
unit dI             mA
dt (s)              0.000
fi                  100.000
unit fi             kHz
ff                  10.000
unit ff             mHz
Nd                  6
Points              per decade
spacing             Logarithmic
Va (mV)             5.0
pw                  0.10
Na                  2
corr                0
E range min (V)     -10.000
E range max (V)     10.000
I Range             Auto
Bandwidth           5
nc cycles           0
goto Ns'            0
nr cycles           0
inc. cycle          0

freq/Hz	Re(Z)/Ohm	-Im(Z)/Ohm	|Z|/Ohm	Phase(Z)/deg	time/s	<Ewe>/V	<I>/mA	Cs/µF	Cp/µF	cycle number	I Range	|Ewe|/V	|I|/A	Ns	(Q-Qo)/mA.h	<Ece>/V	|Ece|/V	Phase(Zce)/deg	|Zce|/Ohm	Re(Zce)/Ohm	-Im(Zce)/Ohm	Phase(Zwe-ce)/deg	|Zwe-ce|/Ohm	Re(Zwe-ce)/Ohm	-Im(Zwe-ce)/Ohm	Re(Y)/Ohm-1	Im(Y)/Ohm-1	|Y|/Ohm-1	Phase(Y)/deg	Re(C)/nF	Im(C)/nF	|C|/nF	Phase(C)/deg	Re(M)	Im(M)	|M|	Phase(M)/deg	Re(Permittivity)	Im(Permittivity)	|Permittivity|	Phase(Permittivity)/deg	Re(Resistivity)/Ohm.cm	Im(Resistivity)/Ohm.cm	|Resistivity|/Ohm.cm	Phase(Resistivity)/deg	Re(Conductivity)/mS/cm	Im(Conductivity)/mS/cm	|Conductivity|/mS/cm	Phase(Conductivity)/deg	Tan(Delta)	Loss Angle(Delta)/deg	dq/mA.h	Pwe/W	Pce/W	Pwe-ce/W	<Ewe-Ece>/V	Rwe/Ohm	Rce/Ohm	Rwe-ce/Ohm		Ewe-Ece/V
100004	1.22137	0.446743	1.30051	-20.0911	1.72553	0.249017	-3.47834e-05	3.56243	0.420372	1	9	0.00496395	0.00381692	0	-4.40631e-06	-3.1867e-05	5.29633e-05	89.7827	0.0138759	5.26257e-05	-0.0138758	-19.5141	1.29586	1.22142	0.432867	0.722138	0.264137	0.768928	20.0911	420.372	1149.27	1223.74	-69.9089	0.0000000E+000	0.0000000E+000	0.0000000E+000	69.9089	0.0000000E+000	0.0000000E+000	0.0000000E+000	-69.9089	0.0000000E+000	0.0000000E+000	0.0000000E+000	-20.0911	0.0000000E+000	0.0000000E+000	0.0000000E+000	20.0911	2.73395	69.9089	-4.40631e-06	-8.66166e-09	1.10844e-12	-8.66277e-09	0.249049	7.15909e+06	916.157	7.16001e+06
68132	1.34032	0.504628	1.43217	-20.6313	2.23256	0.24901	0.00335062	4.6291	0.574717	1	9	0.005047	0.00352403	0	-1.20268e-05	0.000349894	3.61129e-05	75.375	0.0102476	0.00258743	-0.00991558	-20.2233	1.43113	1.3429	0.494713	0.653463	0.246028	0.698243	20.6313	574.717	1526.47	1631.08	-69.3687	0.0000000E+000	0.0000000E+000	0.0000000E+000	69.3687	0.0000000E+000	0.0000000E+000	0.0000000E+000	-69.3687	0.0000000E+000	0.0000000E+000	0.0000000E+000	-20.6313	0.0000000E+000	0.0000000E+000	0.0000000E+000	20.6313	2.65605	69.3687	-7.62046e-06	8.34339e-07	1.17236e-09	8.33167e-07	0.24866	74317.5	104.427	74213.1
46420.4	1.4712	0.541707	1.56776	-20.214	2.73853	0.249002	0.00621518	6.32918	0.755639	1	9	0.0050249	0.00320514	0	-1.06551e-05	0.000254454	1.96615e-05	85.9157	0.00613438	0.000436919	-0.0061188	-19.9984	1.56607	1.47164	0.535588	0.598565	0.220395	0.637851	20.214	755.639	2052.21	2186.91	-69.786	0.0000000E+000	0.0000000E+000	0.0000000E+000	69.786	0.0000000E+000	0.0000000E+000	0.0000000E+000	-69.786	0.0000000E+000	0.0000000E+000	0.0000000E+000	-20.214	0.0000000E+000	0.0000000E+000	0.0000000E+000	20.214	2.71587	69.786	1.37169e-06	1.54759e-06	1.58148e-09	1.54601e-06	0.248747	40063.4	40.9407	40022.5
31621.1	1.60197	0.599275	1.71039	-20.5101	3.24552	0.248999	-0.00237853	8.39878	1.03104	1	9	0.00507454	0.00296689	0	-1.92147e-05	6.35733e-05	1.43531e-05	43.6018	0.00483778	0.00350328	-0.00333633	-20.3645	1.71251	1.60548	0.595939	0.547599	0.204849	0.584661	20.5101	1031.04	2756.17	2942.7	-69.4899	0.0000000E+000	0.0000000E+000	0.0000000E+000	69.4899	0.0000000E+000	0.0000000E+000	0.0000000E+000	-69.4899	0.0000000E+000	0.0000000E+000	0.0000000E+000	-20.5101	0.0000000E+000	0.0000000E+000	0.0000000E+000	20.5101	2.67318	69.4899	-8.55964e-06	-5.92251e-07	-1.51211e-10	-5.92099e-07	0.248935	104686	26.728	104659
21544.7	1.75592	0.647641	1.87155	-20.2457	3.63056	0.249005	-0.00286215	11.4063	1.36588	1	9	0.0051836	0.00276969	0	-1.18957e-05	0.000120837	5.2469e-06	-5.61454	0.0018944	0.00188531	0.00018534	-20.231	1.87338	1.7578	0.647827	0.501306	0.184898	0.534317	20.2457	1365.88	3703.25	3947.11	-69.7543	0.0000000E+000	0.0000000E+000	0.0000000E+000	69.7543	0.0000000E+000	0.0000000E+000	0.0000000E+000	-69.7543	0.0000000E+000	0.0000000E+000	0.0000000E+000	-20.2457	0.0000000E+000	0.0000000E+000	0.0000000E+000	20.2457	2.71125	69.7543	7.31901e-06	-7.1269e-07	-3.45855e-10	-7.12344e-07	0.248884	86999.2	42.2191	86957
14678.6	1.9041	0.703255	2.02982	-20.271	3.88953	0.249003	0.00130448	15.4178	1.85069	1	9	0.00485709	0.00239287	0	-1.00316e-05	0.000349894	6.11189e-06	60.4654	0.00255421	0.00125909	-0.00222231	-20.1999	2.03023	1.90536	0.701032	0.462141	0.170686	0.492654	20.271	1850.69	5010.84	5341.68	-69.729	0.0000000E+000	0.0000000E+000	0.0000000E+000	69.729	0.0000000E+000	0.0000000E+000	0.0000000E+000	-69.729	0.0000000E+000	0.0000000E+000	0.0000000E+000	-20.271	0.0000000E+000	0.0000000E+000	0.0000000E+000	20.271	2.70756	69.729	1.86415e-06	3.24821e-07	4.56431e-10	3.24364e-07	0.248654	190883	268.225	190615
10002.2	2.05961	0.767325	2.19791	-20.4333	4.27256	0.249001	-0.000258014	20.7369	2.52746	1	9	0.00504079	0.00229345	0	-1.1417e-05	6.3091e-06	6.51344e-06	-54.5314	0.00284002	0.00164794	0.00231301	-20.4747	2.20026	2.06126	0.769638	0.426351	0.15884	0.454979	20.4333	2527.46	6784.08	7239.6	-69.5667	0.0000000E+000	0.0000000E+000	0.0000000E+000	69.5667	0.0000000E+000	0.0000000E+000	0.0000000E+000	-69.5667	0.0000000E+000	0.0000000E+000	0.0000000E+000	-20.4333	0.0000000E+000	0.0000000E+000	0.0000000E+000	20.4333	2.68415	69.5667	-1.3854e-06	-6.42459e-08	-1.62784e-12	-6.42443e-08	0.248995	965067	24.4525	965043
6810.42	2.23066	0.865457	2.39267	-21.2054	4.53355	0.249002	-0.0113815	27.0023	3.53287	1	9	0.00478285	0.00199896	0	-1.06496e-05	4.44852e-05	2.58956e-05	33.5847	0.0129545	0.010792	-0.00716606	-20.9527	2.40016	2.24145	0.858291	0.389644	0.151175	0.417944	21.2054	3532.87	9105.73	9767.06	-68.7946	0.0000000E+000	0.0000000E+000	0.0000000E+000	68.7946	0.0000000E+000	0.0000000E+000	0.0000000E+000	-68.7946	0.0000000E+000	0.0000000E+000	0.0000000E+000	-21.2054	0.0000000E+000	0.0000000E+000	0.0000000E+000	21.2054	2.57743	68.7946	7.67337e-07	-2.83401e-06	-5.06308e-10	-2.83351e-06	0.248957	21877.8	3.90856	21873.9
4646	2.41767	0.956942	2.60017	-21.5942	4.79862	0.248971	-0.0342981	35.7977	4.84868	1	9	0.00467528	0.00179807	0	-1.36802e-05	8.26613e-05	8.16552e-06	-25.9212	0.00454127	0.0040844	0.00198515	-21.6018	2.6047	2.42176	0.958927	0.357598	0.141541	0.384591	21.5942	4848.68	12250	13174.7	-68.4058	0.0000000E+000	0.0000000E+000	0.0000000E+000	68.4058	0.0000000E+000	0.0000000E+000	0.0000000E+000	-68.4058	0.0000000E+000	0.0000000E+000	0.0000000E+000	-21.5942	0.0000000E+000	0.0000000E+000	0.0000000E+000	21.5942	2.52646	68.4058	-3.03054e-06	-8.53922e-06	-2.83512e-09	-8.53638e-06	0.248888	7259.03	2.41009	7256.62
3163.08	2.65404	1.08833	2.86852	-22.2969	5.17263	0.248754	-0.0660316	46.2326	6.65512	1	9	0.00460771	0.0016063	0	-2.03088e-05	0.000101749	4.70341e-06	26.6447	0.0029281	0.00261715	-0.00131313	-22.2528	2.87045	2.65666	1.08702	0.322546	0.132265	0.348612	22.2969	6655.12	16229.4	17540.9	-67.7031	0.0000000E+000	0.0000000E+000	0.0000000E+000	67.7031	0.0000000E+000	0.0000000E+000	0.0000000E+000	-67.7031	0.0000000E+000	0.0000000E+000	0.0000000E+000	-22.2969	0.0000000E+000	0.0000000E+000	0.0000000E+000	22.2969	2.43863	67.7031	-6.62863e-06	-1.64256e-05	-6.71867e-09	-1.64189e-05	0.248652	3767.19	1.54092	3765.65
2155.69	2.90511	1.21838	3.15026	-22.7528	5.62377	0.248928	0.04684	60.597	9.06409	1	9	0.00455741	0.00144668	0	-1.62323e-05	0.000139925	2.15558e-05	-48.2941	0.0149002	0.00991322	0.0111241	-22.8691	3.16371	2.91503	1.2295	0.292732	0.122769	0.317434	22.7528	9064.09	21612.5	23436.2	-67.2472	0.0000000E+000	0.0000000E+000	0.0000000E+000	67.2472	0.0000000E+000	0.0000000E+000	0.0000000E+000	-67.2472	0.0000000E+000	0.0000000E+000	0.0000000E+000	-22.7528	0.0000000E+000	0.0000000E+000	0.0000000E+000	22.7528	2.38441	67.2472	4.0765e-06	1.16598e-05	6.55411e-09	1.16532e-05	0.248788	5314.43	2.98731	5311.45
1468.59	3.18743	1.38813	3.47658	-23.5333	6.32109	0.248928	-0.0217057	78.0708	12.4465	1	10	0.00464558	0.00133625	0	-1.67029e-05	8.26613e-05	8.23219e-06	-61.2529	0.00616067	0.00296294	0.00540137	-23.5953	3.48145	3.19039	1.39353	0.263716	0.114849	0.287639	23.5333	12446.5	28579.6	31172.2	-66.4667	0.0000000E+000	0.0000000E+000	0.0000000E+000	66.4667	0.0000000E+000	0.0000000E+000	0.0000000E+000	-66.4667	0.0000000E+000	0.0000000E+000	0.0000000E+000	-23.5333	0.0000000E+000	0.0000000E+000	0.0000000E+000	23.5333	2.2962	66.4667	-4.70615e-07	-5.40317e-06	-1.79422e-09	-5.40137e-06	0.248845	11468.3	3.80827	11464.5
1000.32	3.50313	1.58358	3.84443	-24.3252	6.77179	0.248929	-0.0210399	100.471	17.0474	1	10	0.0045907	0.00119412	0	-1.96937e-05	0.000120837	8.80518e-06	-83.2047	0.0073738	0.000872493	0.007322	-24.4192	3.84825	3.504	1.5909	0.237024	0.107146	0.260117	24.3252	17047.4	37711.5	41385.6	-65.6748	0.0000000E+000	0.0000000E+000	0.0000000E+000	65.6748	0.0000000E+000	0.0000000E+000	0.0000000E+000	-65.6748	0.0000000E+000	0.0000000E+000	0.0000000E+000	-24.3252	0.0000000E+000	0.0000000E+000	0.0000000E+000	24.3252	2.21216	65.6748	-2.99082e-06	-5.23743e-06	-2.5424e-09	-5.23489e-06	0.248808	11831.3	5.74326	11825.6
681.09	3.86495	1.81993	4.272	-25.2149	7.2226	0.24892	-0.0230784	128.399	23.3029	1	10	0.00454906	0.00106486	0	-2.1479e-05	0.00019719	1.62328e-05	-73.0799	0.0152441	0.00443661	0.0145842	-25.3661	4.28224	3.86938	1.83452	0.211778	0.0997225	0.234082	25.2149	23302.8	49487.7	54699.7	-64.7851	0.0000000E+000	0.0000000E+000	0.0000000E+000	64.7851	0.0000000E+000	0.0000000E+000	0.0000000E+000	-64.7851	0.0000000E+000	0.0000000E+000	0.0000000E+000	-25.2149	0.0000000E+000	0.0000000E+000	0.0000000E+000	25.2149	2.12368	64.7851	-1.7853e-06	-5.74469e-06	-4.55082e-09	-5.74013e-06	0.248723	10785.9	8.54434	10777.3
463.961	4.29499	2.1163	4.78808	-26.2311	7.67433	0.248917	-0.0219624	162.092	31.666	1	10	0.00453141	0.000946394	0	-2.46324e-05	0.000178102	8.37645e-06	94.9704	0.00885091	-0.00076685	-0.00881762	-26.1404	4.7835	4.29423	2.10748	0.187344	0.0923112	0.208852	26.2311	31666	64265.7	71643.6	-63.7689	0.0000000E+000	0.0000000E+000	0.0000000E+000	63.7689	0.0000000E+000	0.0000000E+000	0.0000000E+000	-63.7689	0.0000000E+000	0.0000000E+000	0.0000000E+000	-26.2311	0.0000000E+000	0.0000000E+000	0.0000000E+000	26.2311	2.02949	63.7689	-3.15338e-06	-5.46682e-06	-3.91154e-09	-5.46291e-06	0.248739	11333.8	8.10938	11325.7
316.316	4.81936	2.44292	5.40316	-26.8803	8.12205	0.248914	-0.0233648	205.964	42.103	1	10	0.00451586	0.000835781	0	-2.67237e-05	0.000521687	3.6813e-06	-89.4356	0.00440463	4.33906e-05	0.00440441	-26.9217	5.40519	4.81941	2.44732	0.16508	0.0836784	0.185077	26.8803	42103	83060.3	93121.8	-63.1197	0.0000000E+000	0.0000000E+000	0.0000000E+000	63.1197	0.0000000E+000	0.0000000E+000	0.0000000E+000	-63.1197	0.0000000E+000	0.0000000E+000	0.0000000E+000	-26.8803	0.0000000E+000	0.0000000E+000	0.0000000E+000	26.8803	1.97279	63.1197	-2.09126e-06	-5.81584e-06	-1.21891e-08	-5.80365e-06	0.248392	10653.4	22.3278	10631
215.345	5.47305	2.80252	6.14885	-27.115	8.78553	0.248913	-0.0216388	263.717	54.783	1	10	0.00488853	0.000795031	0	-2.98831e-05	0.000254454	8.93196e-06	-81.5844	0.0112347	0.00164423	0.0111138	-27.2001	6.15539	5.4747	2.81363	0.144758	0.0741241	0.162632	27.115	54783	106986	120197	-62.885	0.0000000E+000	0.0000000E+000	0.0000000E+000	62.885	0.0000000E+000	0.0000000E+000	0.0000000E+000	-62.885	0.0000000E+000	0.0000000E+000	0.0000000E+000	-27.115	0.0000000E+000	0.0000000E+000	0.0000000E+000	27.115	1.95291	62.885	-3.15947e-06	-5.38617e-06	-5.50607e-09	-5.38067e-06	0.248659	11503.1	11.7592	11491.3
146.737	6.26936	3.11976	7.0027	-26.4559	9.23149	0.248911	-0.0235955	347.663	69.0032	1	10	0.00487168	0.000695685	0	-3.28217e-05	0.00038807	9.26487e-06	-73.335	0.0133176	0.00381916	0.0127582	-26.5353	7.01181	6.27318	3.13252	0.127848	0.0636195	0.142802	26.4559	69003.2	138666	154887	-63.5441	0.0000000E+000	0.0000000E+000	0.0000000E+000	63.5441	0.0000000E+000	0.0000000E+000	0.0000000E+000	-63.5441	0.0000000E+000	0.0000000E+000	0.0000000E+000	-26.4559	0.0000000E+000	0.0000000E+000	0.0000000E+000	26.4559	2.00957	63.5441	-2.93859e-06	-5.87317e-06	-9.15671e-09	-5.86401e-06	0.248523	10549.1	16.4468	10532.6
100.032	7.21987	3.38112	7.97236	-25.0941	9.68277	0.248918	-0.0218731	470.566	84.6385	1	10	0.00487915	0.000612008	0	-3.53864e-05	-0.000146395	1.21301e-05	-25.0782	0.0198201	0.0179517	0.00840084	-25.094	7.99218	7.23782	3.38952	0.113594	0.053197	0.125433	25.0941	84638.5	180733	199570	-64.9059	0.0000000E+000	0.0000000E+000	0.0000000E+000	64.9059	0.0000000E+000	0.0000000E+000	0.0000000E+000	-64.9059	0.0000000E+000	0.0000000E+000	0.0000000E+000	-25.0941	0.0000000E+000	0.0000000E+000	0.0000000E+000	25.0941	2.13535	64.9059	-2.56466e-06	-5.44462e-06	3.20213e-09	-5.44782e-06	0.249064	11380.1	6.69293	11386.8
68.104	8.25628	3.47685	8.9585	-22.8367	10.1455	0.248928	-0.0181755	672.143	101.243	1	10	0.00487768	0.000544476	0	-3.75914e-05	0.000235366	4.07587e-06	-17.6475	0.00748587	0.00713358	0.00226942	-22.8324	8.96595	8.26342	3.47912	0.102876	0.0433227	0.111626	22.8367	101243	240415	260863	-67.1633	0.0000000E+000	0.0000000E+000	0.0000000E+000	67.1633	0.0000000E+000	0.0000000E+000	0.0000000E+000	-67.1633	0.0000000E+000	0.0000000E+000	0.0000000E+000	-22.8367	0.0000000E+000	0.0000000E+000	0.0000000E+000	22.8367	2.37465	67.1633	-2.20504e-06	-4.52439e-06	-4.27789e-09	-4.52012e-06	0.248693	13695.8	12.9496	13682.9
46.4415	9.26766	3.40498	9.87337	-20.1735	10.5826	0.248917	-0.0239675	1006.47	119.701	1	10	0.00486674	0.000492916	0	-4.07686e-05	6.3091e-06	1.01783e-05	-59.2455	0.0206491	0.0105591	0.0177451	-20.2489	9.88941	9.27822	3.42272	0.0950691	0.0349288	0.101283	20.1735	119701	325801	347095	-69.8265	0.0000000E+000	0.0000000E+000	0.0000000E+000	69.8265	0.0000000E+000	0.0000000E+000	0.0000000E+000	-69.8265	0.0000000E+000	0.0000000E+000	0.0000000E+000	-20.1735	0.0000000E+000	0.0000000E+000	0.0000000E+000	20.1735	2.7218	69.8265	-3.17716e-06	-5.96591e-06	-1.51213e-10	-5.96576e-06	0.248911	10385.6	0.263236	10385.3
31.6296	10.1958	3.18913	10.6829	-17.3691	11.0125	0.24892	-0.0264636	1577.81	140.611	1	10	0.00486566	0.000455461	0	-4.27882e-05	0.000216278	8.47907e-06	31.2719	0.0186164	0.0159117	-0.0096638	-17.2942	10.6952	10.2117	3.17946	0.0893389	0.0279442	0.0936073	17.3691	140611	449540	471017	-72.6309	0.0000000E+000	0.0000000E+000	0.0000000E+000	72.6309	0.0000000E+000	0.0000000E+000	0.0000000E+000	-72.6309	0.0000000E+000	0.0000000E+000	0.0000000E+000	-17.3691	0.0000000E+000	0.0000000E+000	0.0000000E+000	17.3691	3.19705	72.6309	-2.01959e-06	-6.58731e-06	-5.72348e-09	-6.58159e-06	0.248703	9406.12	8.17265	9397.95
21.5517	11.0039	2.8942	11.3782	-14.7359	11.4334	0.248921	-0.0284352	2551.58	165.09	1	10	0.00486681	0.000427732	0	-4.56417e-05	0.000273542	1.49615e-05	-75.125	0.0349788	0.00897944	0.0338066	-14.8888	11.3955	11.0129	2.92801	0.0849968	0.0223554	0.0878875	14.7359	165090	627683	649031	-75.2641	0.0000000E+000	0.0000000E+000	0.0000000E+000	75.2641	0.0000000E+000	0.0000000E+000	0.0000000E+000	-75.2641	0.0000000E+000	0.0000000E+000	0.0000000E+000	-14.7359	0.0000000E+000	0.0000000E+000	0.0000000E+000	14.7359	3.80206	75.2641	-2.85351e-06	-7.07812e-06	-7.77821e-09	-7.07034e-06	0.248648	8754	9.61984	8744.38
14.6852	11.6817	2.60148	11.9679	-12.5547	11.8942	0.248928	-0.0186442	4166.02	196.847	1	10	0.00486506	0.00040651	0	-4.64197e-05	0.00019719	8.34456e-06	48.706	0.0205273	0.0135464	-0.0154229	-12.4686	11.9778	11.6953	2.58606	0.081559	0.0181629	0.083557	12.5547	196847	883922	905575	-77.4453	0.0000000E+000	0.0000000E+000	0.0000000E+000	77.4453	0.0000000E+000	0.0000000E+000	0.0000000E+000	-77.4453	0.0000000E+000	0.0000000E+000	0.0000000E+000	-12.5547	0.0000000E+000	0.0000000E+000	0.0000000E+000	12.5547	4.49041	77.4453	-7.77993e-07	-4.64107e-06	-3.67645e-09	-4.63739e-06	0.248731	13351.5	10.5764	13340.9
10.0032	12.3026	2.28622	12.5132	-10.5273	12.5888	0.248955	-0.00835816	6959.25	232.306	1	11	0.00486516	0.000388801	0	-4.98291e-05	4.44852e-05	6.95104e-06	-100.267	0.0178781	-0.00318659	0.0175919	-10.6092	12.5133	12.2994	2.30381	0.0785703	0.0146009	0.0799154	10.5273	232306	1.25008e+06	1.27149e+06	-79.4727	0.0000000E+000	0.0000000E+000	0.0000000E+000	79.4727	0.0000000E+000	0.0000000E+000	0.0000000E+000	-79.4727	0.0000000E+000	0.0000000E+000	0.0000000E+000	-10.5273	0.0000000E+000	0.0000000E+000	0.0000000E+000	10.5273	5.38119	79.4727	-3.40939e-06	-2.08081e-06	-3.71815e-10	-2.08043e-06	0.24891	29785.8	5.32237	29780.5
6.81719	12.8229	2.05356	12.9863	-9.09855	12.9275	0.248953	-0.00799784	11368.6	284.285	1	11	0.00486862	0.000374905	0	-5.36714e-05	0.000311718	6.16977e-06	33.631	0.0164569	0.0137024	-0.0091145	-9.04933	12.9984	12.8366	2.04444	0.0760356	0.012177	0.0770044	9.09855	284285	1.77514e+06	1.79776e+06	-80.9014	0.0000000E+000	0.0000000E+000	0.0000000E+000	80.9014	0.0000000E+000	0.0000000E+000	0.0000000E+000	-80.9014	0.0000000E+000	0.0000000E+000	0.0000000E+000	-9.09855	0.0000000E+000	0.0000000E+000	0.0000000E+000	9.09855	6.24422	80.9014	-3.84236e-06	-1.99109e-06	-2.49307e-09	-1.9886e-06	0.248642	31127.6	38.9753	31088.6
4.63925	13.2634	1.76251	13.38	-7.56939	13.4115	0.248964	-0.00782661	19464.4	337.745	1	11	0.00486667	0.000363726	0	-5.55057e-05	0.000464422	9.40055e-06	-30.886	0.0258451	0.02218	0.0132671	-7.61311	13.4038	13.2856	1.77578	0.074087	0.00984502	0.0747382	7.56939	337745	2.54164e+06	2.56398e+06	-82.4306	0.0000000E+000	0.0000000E+000	0.0000000E+000	82.4306	0.0000000E+000	0.0000000E+000	0.0000000E+000	-82.4306	0.0000000E+000	0.0000000E+000	0.0000000E+000	-7.56939	0.0000000E+000	0.0000000E+000	0.0000000E+000	7.56939	7.52532	82.4306	-1.83427e-06	-1.94854e-06	-3.63485e-09	-1.94491e-06	0.248499	31809.9	59.3389	31750.6
3.1604	13.6311	1.56139	13.7202	-6.53453	14.1044	0.248963	-0.00751188	32252.8	417.703	1	11	0.00487174	0.000355077	0	-5.22418e-05	-0.000146395	4.14778e-06	74.7842	0.0116813	0.00306582	-0.0112718	-6.48632	13.722	13.6341	1.55012	0.0724116	0.00829448	0.0728851	6.53453	417703	3.64659e+06	3.67044e+06	-83.4655	0.0000000E+000	0.0000000E+000	0.0000000E+000	83.4655	0.0000000E+000	0.0000000E+000	0.0000000E+000	-83.4655	0.0000000E+000	0.0000000E+000	0.0000000E+000	-6.53453	0.0000000E+000	0.0000000E+000	0.0000000E+000	6.53453	8.7301	83.4655	3.26386e-06	-1.87018e-06	1.0997e-09	-1.87128e-06	0.249109	33142.5	19.4885	33162
2.15577	13.9529	1.36333	14.0193	-5.58064	15.108	0.24897	-0.00641248	54152.2	512.112	1	11	0.00487153	0.000347486	0	-4.9809e-05	0.000216278	4.02182e-06	-29.5324	0.0115741	0.0100703	0.00570504	-5.59983	14.0299	13.963	1.36904	0.0709919	0.0069366	0.07133	5.58064	512112	5.24116e+06	5.26612e+06	-84.4194	0.0000000E+000	0.0000000E+000	0.0000000E+000	84.4194	0.0000000E+000	0.0000000E+000	0.0000000E+000	-84.4194	0.0000000E+000	0.0000000E+000	0.0000000E+000	-5.58064	0.0000000E+000	0.0000000E+000	0.0000000E+000	5.58064	10.2344	84.4194	2.4328e-06	-1.59652e-06	-1.38688e-09	-1.59513e-06	0.248754	38825.9	33.7276	38792.1
1.46631	14.2137	1.23161	14.267	-4.95226	16.5694	0.248971	-0.00490858	88129.7	656.753	1	11	0.00487198	0.000341486	0	-5.38776e-05	-1.2779e-05	6.92817e-06	-22.9667	0.0202883	0.0186801	0.00791642	-4.97742	14.2863	14.2324	1.23952	0.0698302	0.00605073	0.0700919	4.95226	656753	7.57945e+06	7.60785e+06	-85.0477	0.0000000E+000	0.0000000E+000	0.0000000E+000	85.0477	0.0000000E+000	0.0000000E+000	0.0000000E+000	-85.0477	0.0000000E+000	0.0000000E+000	0.0000000E+000	-4.95226	0.0000000E+000	0.0000000E+000	0.0000000E+000	4.95226	11.5408	85.0477	-4.06857e-06	-1.2221e-06	6.27265e-11	-1.22216e-06	0.248984	50721.7	2.60339	50724.3
1.00006	14.4179	1.12575	14.4618	-4.4646	18.698	0.248964	-0.00452644	141368	856.625	1	11	0.00486967	0.000336726	0	-6.6463e-05	8.26613e-05	3.10825e-06	-27.4428	0.00923079	0.00819206	0.00425413	-4.47887	14.4703	14.4261	1.13001	0.0689379	0.00538268	0.0691477	4.4646	856624	1.09711e+07	1.10045e+07	-85.5354	0.0000000E+000	0.0000000E+000	0.0000000E+000	85.5354	0.0000000E+000	0.0000000E+000	0.0000000E+000	-85.5354	0.0000000E+000	0.0000000E+000	0.0000000E+000	-4.4646	0.0000000E+000	0.0000000E+000	0.0000000E+000	4.4646	12.8074	85.5354	-1.25854e-05	-1.12692e-06	-3.74161e-10	-1.12654e-06	0.248881	55002.1	18.2619	54983.8
0.681362	14.6085	1.09046	14.6491	-4.26896	21.8092	0.248978	-0.00372673	214207	1186.94	1	11	0.00487134	0.000332535	0	-8.39604e-05	0.00019719	2.48982e-06	43.6188	0.00748739	0.00542046	-0.00516523	-4.24725	14.6541	14.6139	1.08529	0.0680742	0.00508144	0.0682636	4.26896	1.18694e+06	1.5901e+07	1.59452e+07	-85.731	0.0000000E+000	0.0000000E+000	0.0000000E+000	85.731	0.0000000E+000	0.0000000E+000	0.0000000E+000	-85.731	0.0000000E+000	0.0000000E+000	0.0000000E+000	-4.26896	0.0000000E+000	0.0000000E+000	0.0000000E+000	4.26896	13.3966	85.731	-1.74974e-05	-9.27875e-07	-7.34873e-10	-9.27141e-07	0.248781	66808.7	52.9122	66755.8
0.464091	14.7873	1.12492	14.83	-4.35032	26.3658	0.248978	-0.00514053	304856	1754.11	1	11	0.00487078	0.000328441	0	-0.00010106	6.3091e-06	5.49609e-06	-15.1368	0.0167339	0.0161533	0.00436962	-4.36241	14.8465	14.8035	1.12929	0.0672365	0.00511493	0.0674308	4.35032	1.75411e+06	2.3058e+07	2.31247e+07	-85.6497	0.0000000E+000	0.0000000E+000	0.0000000E+000	85.6497	0.0000000E+000	0.0000000E+000	0.0000000E+000	-85.6497	0.0000000E+000	0.0000000E+000	0.0000000E+000	-4.35032	0.0000000E+000	0.0000000E+000	0.0000000E+000	4.35032	13.1452	85.6497	-1.70992e-05	-1.27988e-06	-3.24321e-11	-1.27984e-06	0.248971	48434.3	1.22733	48433
0.316193	14.9791	1.27137	15.0329	-4.85142	33.0419	0.248965	-0.0067861	395911	2831.73	1	11	0.00487399	0.000324221	0	-0.000108221	0.00019719	3.2058e-06	4.86923	0.00988769	0.00985201	-0.000839285	-4.84506	15.0427	14.9889	1.27053	0.0662823	0.00562579	0.0665207	4.85142	2.83173e+06	3.3363e+07	3.3483e+07	-85.1486	0.0000000E+000	0.0000000E+000	0.0000000E+000	85.1486	0.0000000E+000	0.0000000E+000	0.0000000E+000	-85.1486	0.0000000E+000	0.0000000E+000	0.0000000E+000	-4.85142	0.0000000E+000	0.0000000E+000	0.0000000E+000	4.85142	11.7819	85.1486	-7.16163e-06	-1.6895e-06	-1.33815e-09	-1.68816e-06	0.248768	36687.5	29.0579	36658.5
0.215268	15.1644	1.52316	15.2407	-5.73573	42.8353	0.248959	-0.00712252	485396	4848.16	1	11	0.00487089	0.000319598	0	-9.44458e-05	0.000139925	1.77462e-06	3.62394	0.00555269	0.00554158	-0.000350972	-5.73234	15.2462	15.1699	1.52281	0.0652853	0.00655746	0.0656138	5.73573	4.84816e+06	4.82677e+07	4.85106e+07	-84.2643	0.0000000E+000	0.0000000E+000	0.0000000E+000	84.2643	0.0000000E+000	0.0000000E+000	0.0000000E+000	-84.2643	0.0000000E+000	0.0000000E+000	0.0000000E+000	-5.73573	0.0000000E+000	0.0000000E+000	0.0000000E+000	5.73573	9.95588	84.2643	1.37754e-05	-1.77322e-06	-9.96621e-10	-1.77222e-06	0.24882	34953.9	19.6455	34934.2
0.146929	15.4061	1.86752	15.5189	-6.91167	57.1737	0.248967	-0.00536873	580025	8399.63	1	11	0.00487181	0.000313929	0	-5.56009e-05	0.000159014	3.43349e-06	5.21328	0.0109372	0.0108919	-0.000993788	-6.9032	15.5295	15.417	1.86653	0.0639695	0.00775438	0.0644377	6.91167	8.39962e+06	6.92924e+07	6.97997e+07	-83.0883	0.0000000E+000	0.0000000E+000	0.0000000E+000	83.0883	0.0000000E+000	0.0000000E+000	0.0000000E+000	-83.0883	0.0000000E+000	0.0000000E+000	0.0000000E+000	-6.91167	0.0000000E+000	0.0000000E+000	0.0000000E+000	6.91167	8.24947	83.0883	3.88449e-05	-1.33663e-06	-8.537e-10	-1.33578e-06	0.248808	46373.5	29.6185	46343.9
0.0999041	15.7767	2.3727	15.9541	-8.55279	78.25	0.248968	-0.00271419	671419	14850.3	1	11	0.00487222	0.00030539	0	-7.84584e-06	4.44852e-05	3.92328e-06	9.48943	0.0128468	0.012671	-0.002118	-8.53851	15.9663	15.7893	2.37058	0.0619828	0.00932179	0.0626799	8.55279	1.48503e+07	9.87434e+07	9.98538e+07	-81.4472	0.0000000E+000	0.0000000E+000	0.0000000E+000	81.4472	0.0000000E+000	0.0000000E+000	0.0000000E+000	-81.4472	0.0000000E+000	0.0000000E+000	0.0000000E+000	-8.55279	0.0000000E+000	0.0000000E+000	0.0000000E+000	8.55279	6.64924	81.4472	4.7755e-05	-6.75747e-07	-1.20741e-10	-6.75626e-07	0.248924	91728.4	16.3899	91712
0.0680626	16.2283	3.12323	16.5261	-10.8937	123.945	0.248956	-0.00283998	748699	26740.7	1	12	0.00487331	0.000294885	0	-3.38979e-07	8.26613e-05	2.42366e-06	-7.35764	0.008219	0.00815132	0.00105254	-10.8919	16.5344	16.2365	3.12428	0.0594197	0.0114357	0.0605102	10.8937	2.67407e+07	1.38945e+08	1.41495e+08	-79.1063	0.0000000E+000	0.0000000E+000	0.0000000E+000	79.1063	0.0000000E+000	0.0000000E+000	0.0000000E+000	-79.1063	0.0000000E+000	0.0000000E+000	0.0000000E+000	-10.8937	0.0000000E+000	0.0000000E+000	0.0000000E+000	10.8937	5.19601	79.1063	7.50686e-06	-7.07031e-07	-2.34757e-10	-7.06797e-07	0.248873	87661.1	29.1063	87632
0.0464052	16.7911	4.13681	17.2932	-13.8403	169.296	0.248962	-0.00122069	829064	47442.6	1	12	0.00487429	0.000281862	0	-9.25682e-05	-1.2779e-05	3.32228e-06	8.36776	0.0117869	0.0116614	-0.00171531	-13.8255	17.3041	16.8028	4.13509	0.0561473	0.013833	0.0578262	13.8403	4.74426e+07	1.92567e+08	1.98325e+08	-76.1597	0.0000000E+000	0.0000000E+000	0.0000000E+000	76.1597	0.0000000E+000	0.0000000E+000	0.0000000E+000	-76.1597	0.0000000E+000	0.0000000E+000	0.0000000E+000	-13.8403	0.0000000E+000	0.0000000E+000	0.0000000E+000	13.8403	4.05895	76.1597	-9.22292e-05	-3.03907e-07	1.55992e-11	-3.03922e-07	0.248975	203951	10.4686	203962
0.0315922	17.385	5.37379	18.1966	-17.1766	235.902	0.248963	-0.00172381	937474	81760	1	12	0.00487187	0.000267735	0	-0.000350453	0.000159014	3.16394e-06	14.2067	0.0118174	0.011456	-0.00290024	-17.1573	18.2067	17.3965	5.37089	0.0525042	0.0162293	0.0549553	17.1766	8.176e+07	2.64505e+08	2.76853e+08	-72.8234	0.0000000E+000	0.0000000E+000	0.0000000E+000	72.8234	0.0000000E+000	0.0000000E+000	0.0000000E+000	-72.8234	0.0000000E+000	0.0000000E+000	0.0000000E+000	-17.1766	0.0000000E+000	0.0000000E+000	0.0000000E+000	17.1766	3.23515	72.8234	-0.000257885	-4.29166e-07	-2.74109e-10	-4.28892e-07	0.248804	144426	92.2453	144334
0.0215268	18.2921	7.02584	19.595	-21.0114	333.641	0.24896	-0.00283716	1.05231e+06	135286	1	12	0.00487022	0.000248545	0	-0.000750076	0.00038807	2.9487e-06	-5.30006	0.0118639	0.0118131	0.00109588	-21.002	19.6064	18.3039	7.02694	0.0476403	0.0182983	0.0510336	21.0114	1.35285e+08	3.52221e+08	3.77309e+08	-68.9886	0.0000000E+000	0.0000000E+000	0.0000000E+000	68.9886	0.0000000E+000	0.0000000E+000	0.0000000E+000	-68.9886	0.0000000E+000	0.0000000E+000	0.0000000E+000	-21.0114	0.0000000E+000	0.0000000E+000	0.0000000E+000	21.0114	2.60354	68.9886	-0.000399623	-7.06338e-07	-1.10102e-09	-7.05237e-07	0.248572	87749.8	136.781	87613
0.0146812	19.5106	9.48736	21.695	-25.9321	476.942	0.24896	-0.00359481	1.14265e+06	218516	1	12	0.00487372	0.000224647	0	-0.00111361	4.44852e-05	3.43265e-06	30.3231	0.0152802	0.0131897	-0.0077146	-25.8985	21.7035	19.5238	9.47965	0.0414525	0.0201569	0.0460935	25.9321	2.18516e+08	4.49376e+08	4.99688e+08	-64.0679	0.0000000E+000	0.0000000E+000	0.0000000E+000	64.0679	0.0000000E+000	0.0000000E+000	0.0000000E+000	-64.0679	0.0000000E+000	0.0000000E+000	0.0000000E+000	-25.9321	0.0000000E+000	0.0000000E+000	0.0000000E+000	25.9321	2.05649	64.0679	-0.000363532	-8.94966e-07	-1.59916e-10	-8.94806e-07	0.248916	69255.4	12.3748	69243.1
0.0100092	20.8604	12.7992	24.474	-31.5318	687.125	0.248961	-0.00380812	1.24234e+06	339778	1	12	0.00486904	0.000198948	0	-0.0011825	0.00019719	1.74587e-06	33.0752	0.0087755	0.00735347	-0.00478913	-31.5132	24.4777	20.8677	12.7944	0.0348268	0.0213685	0.0408598	31.5318	3.39778e+08	5.53778e+08	6.49707e+08	-58.4682	0.0000000E+000	0.0000000E+000	0.0000000E+000	58.4682	0.0000000E+000	0.0000000E+000	0.0000000E+000	-58.4682	0.0000000E+000	0.0000000E+000	0.0000000E+000	-31.5318	0.0000000E+000	0.0000000E+000	0.0000000E+000	31.5318	1.62982	58.4682	-6.88959e-05	-9.48071e-07	-7.50922e-10	-9.4732e-07	0.248763	65376.2	51.7814	65324.5