File: txt/18723_R302_UA698_SOC00_C03.mpt
EC-Lab ASCII FILE
Nb header lines : 65

Potentio Electrochemical Impedance Spectroscopy

Run on channel : 3 (SN 65921)
User :
CE vs. WE compliance from -10 V to 10 V
Electrode connection : standard
Potential control : Ewe
Ewe ctrl range : min = -10.00 V, max = 10.00 V
Safety Limits :
	Do not start on E overload
Acquisition started on : 10/31/2025 10:59:39.821
Technique started on : 10/31/2025 10:59:41.600
Loaded Setting File :  C:\Users\Celltest\OneDrive - store-dot.com\Documents\EC-Lab\Data\@Biologic Test Protocols\anode half cell EIS SOC00.mps
Saved on :
	File : 18723_R302_UA698_SOC00_C03.mpr
	Directory : C:\Users\Celltest\OneDrive - store-dot.com\Documents\EC-Lab\Data\Charmaine\
	Host : 169.254.61.224
Device : VMP-3e (SN .003165)
Address : USB
EC-LAB for windows v11.62 (software)
Internet server v27.00 (firmware)
Command interpretor v12.03 (firmware)
Electrode material :
Initial state :
Electrolyte :
Comments :
Electrode surface area : 0.001 cm²
Characteristic mass : 0.001 g
Equivalent Weight : 0.000 g/eq.
Density : 0.000 g/cm3
Volume (V) : 0.001 cm³
Record Ece
Cycle Definition : Charge/Discharge alternance
Mode                Single sine
E (V)               0.0000
vs.                 Eoc
tE (h:m:s)          0:00:0.0000
record              0
dI                  0.000
unit dI             mA
dt (s)              0.000
fi                  100.000
unit fi             kHz
ff                  10.000
unit ff             mHz
Nd                  6
Points              per decade
spacing             Logarithmic
Va (mV)             5.0
pw                  0.10
Na                  2
corr                0
E range min (V)     -10.000
E range max (V)     10.000
I Range             Auto
Bandwidth           5
nc cycles           0
goto Ns'            0
nr cycles           0
inc. cycle          0

freq/Hz	Re(Z)/Ohm	-Im(Z)/Ohm	|Z|/Ohm	Phase(Z)/deg	time/s	<Ewe>/V	<I>/mA	Cs/µF	Cp/µF	cycle number	I Range	|Ewe|/V	|I|/A	Ns	(Q-Qo)/mA.h	<Ece>/V	|Ece|/V	Phase(Zce)/deg	|Zce|/Ohm	Re(Zce)/Ohm	-Im(Zce)/Ohm	Phase(Zwe-ce)/deg	|Zwe-ce|/Ohm	Re(Zwe-ce)/Ohm	-Im(Zwe-ce)/Ohm	Re(Y)/Ohm-1	Im(Y)/Ohm-1	|Y|/Ohm-1	Phase(Y)/deg	Re(C)/nF	Im(C)/nF	|C|/nF	Phase(C)/deg	Re(M)	Im(M)	|M|	Phase(M)/deg	Re(Permittivity)	Im(Permittivity)	|Permittivity|	Phase(Permittivity)/deg	Re(Resistivity)/Ohm.cm	Im(Resistivity)/Ohm.cm	|Resistivity|/Ohm.cm	Phase(Resistivity)/deg	Re(Conductivity)/mS/cm	Im(Conductivity)/mS/cm	|Conductivity|/mS/cm	Phase(Conductivity)/deg	Tan(Delta)	Loss Angle(Delta)/deg	dq/mA.h	Pwe/W	Pce/W	Pwe-ce/W	<Ewe-Ece>/V	Rwe/Ohm	Rce/Ohm	Rwe-ce/Ohm		Ewe-Ece/V
100004	1.4372	0.607567	1.56035	-22.9159	1.77856	0.262717	0.0517944	2.61945	0.39715	1	9	0.00607963	0.00389633	0	7.4974e-06	1.49552e-05	3.672e-05	50.7726	0.00942426	0.0059599	-0.00730043	-22.5843	1.56302	1.44316	0.600267	0.590302	0.249546	0.640882	22.9159	397.15	939.461	1019.96	-67.0841	0.0000000E+000	0.0000000E+000	0.0000000E+000	67.0841	0.0000000E+000	0.0000000E+000	0.0000000E+000	-67.0841	0.0000000E+000	0.0000000E+000	0.0000000E+000	-22.9159	0.0000000E+000	0.0000000E+000	0.0000000E+000	22.9159	2.3655	67.0841	7.4974e-06	1.36073e-05	7.74598e-10	1.36065e-05	0.262702	5072.32	0.288743	5072.03
68132	1.60161	0.758855	1.77229	-25.352	2.28552	0.262694	0.050862	3.07829	0.564363	1	9	0.0049816	0.00281083	0	7.72505e-06	-0.000214174	1.84241e-05	25.7048	0.00655468	0.00590603	-0.00284299	-25.1876	1.77642	1.60751	0.756012	0.509903	0.241596	0.564242	25.352	564.363	1191.12	1318.06	-64.648	0.0000000E+000	0.0000000E+000	0.0000000E+000	64.648	0.0000000E+000	0.0000000E+000	0.0000000E+000	-64.648	0.0000000E+000	0.0000000E+000	0.0000000E+000	-25.352	0.0000000E+000	0.0000000E+000	0.0000000E+000	25.352	2.11056	64.648	2.27641e-07	1.33612e-05	-1.08933e-08	1.33721e-05	0.262909	5164.84	4.21087	5169.05
46420.4	1.80625	0.840665	1.9923	-24.9582	2.67052	0.262681	0.0445967	4.07839	0.726148	1	9	0.00517198	0.00259599	0	6.43819e-06	-4.13882e-06	1.67453e-05	11.5111	0.00645044	0.0063207	-0.00128724	-24.8482	1.99749	1.81257	0.839378	0.45506	0.211794	0.501932	24.9582	726.148	1560.2	1720.9	-65.0418	0.0000000E+000	0.0000000E+000	0.0000000E+000	65.0418	0.0000000E+000	0.0000000E+000	0.0000000E+000	-65.0418	0.0000000E+000	0.0000000E+000	0.0000000E+000	-24.9582	0.0000000E+000	0.0000000E+000	0.0000000E+000	24.9582	2.1486	65.0418	-1.28686e-06	1.17147e-05	-1.84578e-10	1.17149e-05	0.262685	5890.14	0.0928054	5890.23
31621.1	2.02763	0.916232	2.22503	-24.317	3.05353	0.262675	0.0464241	5.49335	0.931486	1	9	0.00532189	0.00239183	0	8.16697e-06	-0.000118703	1.12e-05	27.6142	0.00468259	0.00414919	-0.00217045	-24.2222	2.22792	2.03178	0.914062	0.409559	0.185069	0.449432	24.317	931.486	2061.39	2262.07	-65.683	0.0000000E+000	0.0000000E+000	0.0000000E+000	65.683	0.0000000E+000	0.0000000E+000	0.0000000E+000	-65.683	0.0000000E+000	0.0000000E+000	0.0000000E+000	-24.317	0.0000000E+000	0.0000000E+000	0.0000000E+000	24.317	2.21301	65.683	1.72878e-06	1.21945e-05	-5.51069e-09	1.22e-05	0.262794	5658.16	2.55693	5660.72
21544.7	2.26114	0.984601	2.46621	-23.5305	3.43656	0.262667	0.041464	7.50274	1.19586	1	9	0.00515647	0.00209085	0	1.70415e-05	-0.000137797	1.10751e-05	7.76833	0.00529693	0.00524832	-0.000715975	-23.4666	2.47074	2.26639	0.983885	0.371764	0.161883	0.405481	23.5305	1195.86	2746.3	2995.37	-66.4695	0.0000000E+000	0.0000000E+000	0.0000000E+000	66.4695	0.0000000E+000	0.0000000E+000	0.0000000E+000	-66.4695	0.0000000E+000	0.0000000E+000	0.0000000E+000	-23.5305	0.0000000E+000	0.0000000E+000	0.0000000E+000	23.5305	2.2965	66.4695	8.87454e-06	1.08912e-05	-5.71363e-09	1.08969e-05	0.262805	6334.82	3.3233	6338.14
14678.6	2.50921	1.05619	2.72243	-22.8275	3.81956	0.26267	0.0422472	10.2658	1.54512	1	9	0.00495393	0.00181967	0	1.6795e-05	-0.000137797	5.96694e-06	-44.1783	0.00327913	0.00235171	0.00228521	-22.8526	2.72549	2.51156	1.05847	0.338549	0.142504	0.367318	22.8275	1545.12	3670.77	3982.71	-67.1725	0.0000000E+000	0.0000000E+000	0.0000000E+000	67.1725	0.0000000E+000	0.0000000E+000	0.0000000E+000	-67.1725	0.0000000E+000	0.0000000E+000	0.0000000E+000	-22.8275	0.0000000E+000	0.0000000E+000	0.0000000E+000	22.8275	2.37572	67.1725	-2.46515e-07	1.10971e-05	-5.82155e-09	1.11029e-05	0.262807	6217.45	3.26169	6220.71
10002.2	2.74829	1.16357	2.98445	-22.9468	4.20452	0.262677	0.0433287	13.6751	2.07867	1	9	0.00484638	0.00162387	0	1.89777e-05	-9.96091e-05	7.8434e-06	-49.9496	0.00483005	0.00310796	0.0036973	-22.9889	2.98876	2.75139	1.16727	0.308555	0.130636	0.33507	22.9468	2078.67	4909.71	5331.61	-67.0532	0.0000000E+000	0.0000000E+000	0.0000000E+000	67.0532	0.0000000E+000	0.0000000E+000	0.0000000E+000	-67.0532	0.0000000E+000	0.0000000E+000	0.0000000E+000	-22.9468	0.0000000E+000	0.0000000E+000	0.0000000E+000	22.9468	2.36195	67.0532	2.18273e-06	1.13814e-05	-4.31593e-09	1.13858e-05	0.262776	6062.42	2.29892	6064.72
6810.42	2.95731	1.22501	3.20099	-22.5009	4.58755	0.262678	0.0425455	19.0769	2.79394	1	9	0.00496494	0.00155107	0	1.92852e-05	0.000244084	0.000156356	-70.6477	0.100806	0.0334045	0.0951101	-23.817	3.26911	2.99071	1.32012	0.288622	0.119556	0.312404	22.5009	2793.94	6744.89	7300.66	-67.4991	0.0000000E+000	0.0000000E+000	0.0000000E+000	67.4991	0.0000000E+000	0.0000000E+000	0.0000000E+000	-67.4991	0.0000000E+000	0.0000000E+000	0.0000000E+000	-22.5009	0.0000000E+000	0.0000000E+000	0.0000000E+000	22.5009	2.41411	67.4991	3.07494e-07	1.11758e-05	1.03847e-08	1.11654e-05	0.262434	6174.04	5.73701	6168.3
4646	3.21224	1.45122	3.52485	-24.3124	4.97961	0.262672	0.0501161	23.6052	4.00124	1	9	0.00540735	0.00153407	0	2.31539e-05	-9.96091e-05	7.31509e-06	-33.3353	0.00476843	0.00398388	0.00262043	-24.3246	3.52956	3.21623	1.45384	0.25854	0.116803	0.2837	24.3124	4001.24	8856.63	9718.53	-65.6876	0.0000000E+000	0.0000000E+000	0.0000000E+000	65.6876	0.0000000E+000	0.0000000E+000	0.0000000E+000	-65.6876	0.0000000E+000	0.0000000E+000	0.0000000E+000	-24.3124	0.0000000E+000	0.0000000E+000	0.0000000E+000	24.3124	2.21347	65.6876	3.86866e-06	1.31641e-05	-4.99202e-09	1.31691e-05	0.262771	5241.26	1.98757	5243.25
3163.08	3.4181	1.69098	3.8135	-26.3223	5.73962	0.262672	-0.000757572	29.7558	5.85061	1	10	0.00478123	0.00125376	0	3.12133e-05	-0.000156891	5.6965e-06	132.436	0.00454352	-0.00306579	-0.00335328	-26.2975	3.80927	3.41503	1.68763	0.235037	0.116276	0.262226	26.3223	5850.61	11826.2	13194.3	-63.6777	0.0000000E+000	0.0000000E+000	0.0000000E+000	63.6777	0.0000000E+000	0.0000000E+000	0.0000000E+000	-63.6777	0.0000000E+000	0.0000000E+000	0.0000000E+000	-26.3223	0.0000000E+000	0.0000000E+000	0.0000000E+000	26.3223	2.02137	63.6777	8.05939e-06	-1.98993e-07	1.18857e-10	-1.99112e-07	0.262829	346729	207.098	346936
2155.69	3.69528	2.03206	4.21715	-28.8067	6.40485	0.262668	0.00177061	36.3327	8.43593	1	10	0.00521201	0.00123591	0	3.20233e-05	-0.000175985	7.06953e-06	69.4135	0.0057201	0.00201131	-0.00535483	-28.7298	4.21633	3.69729	2.0267	0.207783	0.114261	0.237127	28.8067	8435.92	15340.6	17507.1	-61.1933	0.0000000E+000	0.0000000E+000	0.0000000E+000	61.1933	0.0000000E+000	0.0000000E+000	0.0000000E+000	-61.1933	0.0000000E+000	0.0000000E+000	0.0000000E+000	-28.8067	0.0000000E+000	0.0000000E+000	0.0000000E+000	28.8067	1.81849	61.1933	8.09987e-07	4.65082e-07	-3.11601e-10	4.65394e-07	0.262844	148349	99.3926	148448
1468.59	3.95719	2.49446	4.67779	-32.2258	7.0701	0.262675	0.00178179	43.4453	12.3542	1	10	0.00511746	0.00109399	0	3.28204e-05	-0.000195079	1.22361e-05	-89.1903	0.0111849	0.000158058	0.0111837	-32.3405	4.68389	3.95735	2.50564	0.180845	0.113998	0.213776	32.2258	12354.2	19598.6	23167.5	-57.7742	0.0000000E+000	0.0000000E+000	0.0000000E+000	57.7742	0.0000000E+000	0.0000000E+000	0.0000000E+000	-57.7742	0.0000000E+000	0.0000000E+000	0.0000000E+000	-32.2258	0.0000000E+000	0.0000000E+000	0.0000000E+000	32.2258	1.58639	57.7742	7.97126e-07	4.68032e-07	-3.47591e-10	4.6838e-07	0.26287	147422	109.485	147531
1000.32	4.23835	3.15174	5.28177	-36.6354	7.73477	0.262691	0.00180789	50.4813	17.9752	1	10	0.0050305	0.000952428	0	3.2975e-05	-0.000309644	1.06676e-05	-73.109	0.0112005	0.00325432	0.0107173	-36.7075	5.29078	4.2416	3.16246	0.151928	0.112978	0.189331	36.6354	17975.2	24172.4	30123.2	-53.3646	0.0000000E+000	0.0000000E+000	0.0000000E+000	53.3646	0.0000000E+000	0.0000000E+000	0.0000000E+000	-53.3646	0.0000000E+000	0.0000000E+000	0.0000000E+000	-36.6354	0.0000000E+000	0.0000000E+000	0.0000000E+000	36.6354	1.34476	53.3646	1.54608e-07	4.74915e-07	-5.59801e-10	4.75475e-07	0.263	145302	171.274	145474
681.09	4.87293	4.02533	6.3205	-39.5587	8.18453	0.262679	0.00191975	58.0516	23.5458	1	10	0.00486782	0.000770163	0	3.3826e-05	-0.000405114	6.14485e-06	111.251	0.00797864	-0.00289187	-0.00743611	-39.5234	6.31354	4.87004	4.0179	0.12198	0.100762	0.158215	39.5587	23545.8	28503.8	36971.2	-50.4413	0.0000000E+000	0.0000000E+000	0.0000000E+000	50.4413	0.0000000E+000	0.0000000E+000	0.0000000E+000	-50.4413	0.0000000E+000	0.0000000E+000	0.0000000E+000	-39.5587	0.0000000E+000	0.0000000E+000	0.0000000E+000	39.5587	1.21057	50.4413	8.50982e-07	5.04277e-07	-7.77716e-10	5.05055e-07	0.263084	136830	211.025	137041
463.961	5.65169	5.1812	7.66723	-42.5131	8.63633	0.262671	0.00244924	66.2077	30.2338	1	10	0.00460841	0.000601053	0	3.42102e-05	5.31434e-05	3.10884e-06	-79.9968	0.00517232	0.000898447	0.00509369	-42.5366	7.67134	5.65259	5.1863	0.0961393	0.088136	0.130425	42.5131	30233.8	32979.2	44740.5	-47.4869	0.0000000E+000	0.0000000E+000	0.0000000E+000	47.4869	0.0000000E+000	0.0000000E+000	0.0000000E+000	-47.4869	0.0000000E+000	0.0000000E+000	0.0000000E+000	-42.5131	0.0000000E+000	0.0000000E+000	0.0000000E+000	42.5131	1.09081	47.4869	3.8421e-07	6.43346e-07	1.30161e-10	6.43215e-07	0.262618	107246	21.6979	107224
316.316	6.71895	6.68536	9.47831	-44.8564	9.29702	0.262685	0.00208754	75.2618	37.4423	1	10	0.00509413	0.000537451	0	3.49996e-05	-0.000156891	6.51217e-06	-86.2203	0.0121168	0.000798752	0.0120904	-44.9048	9.48741	6.71975	6.69745	0.0747894	0.0744154	0.105504	44.8564	37442.3	37630.4	53084.6	-45.1436	0.0000000E+000	0.0000000E+000	0.0000000E+000	45.1436	0.0000000E+000	0.0000000E+000	0.0000000E+000	-45.1436	0.0000000E+000	0.0000000E+000	0.0000000E+000	-44.8564	0.0000000E+000	0.0000000E+000	0.0000000E+000	44.8564	1.00503	45.1436	7.89375e-07	5.48365e-07	-3.27517e-10	5.48692e-07	0.262842	125835	75.1562	125910
215.345	8.27304	8.55343	11.8998	-45.9547	9.74657	0.262678	0.00238212	86.4064	44.6426	1	10	0.00494388	0.00041546	0	3.55741e-05	-8.05151e-05	4.59446e-06	117.746	0.0110587	-0.00514842	-0.00978718	-45.9397	11.8892	8.26789	8.54364	0.0584236	0.0604037	0.0840353	45.9547	44642.6	43179.2	62108	-44.0453	0.0000000E+000	0.0000000E+000	0.0000000E+000	44.0453	0.0000000E+000	0.0000000E+000	0.0000000E+000	-44.0453	0.0000000E+000	0.0000000E+000	0.0000000E+000	-45.9547	0.0000000E+000	0.0000000E+000	0.0000000E+000	45.9547	0.967219	44.0453	5.74525e-07	6.25731e-07	-1.91796e-10	6.25922e-07	0.262759	110271	33.7998	110305
146.737	10.5284	10.6841	14.9999	-45.4205	10.1925	0.26268	0.00170719	101.518	51.5039	1	10	0.0048371	0.000322475	0	3.6127e-05	0.000205896	7.6062e-06	132.66	0.0235869	-0.0159837	-0.0173454	-45.4175	14.9763	10.5124	10.6668	0.0467935	0.0474855	0.0666671	45.4205	51503.9	50753.3	72308.7	-44.5795	0.0000000E+000	0.0000000E+000	0.0000000E+000	44.5795	0.0000000E+000	0.0000000E+000	0.0000000E+000	-44.5795	0.0000000E+000	0.0000000E+000	0.0000000E+000	-45.4205	0.0000000E+000	0.0000000E+000	0.0000000E+000	45.4205	0.985428	44.5795	5.52882e-07	4.48445e-07	3.51503e-10	4.48093e-07	0.262474	153867	120.605	153747
100.032	13.7921	12.997	18.9511	-43.3001	10.6428	0.262676	0.00197194	122.416	57.578	1	10	0.00478779	0.000252639	0	3.62135e-05	-4.13882e-06	7.86197e-06	-6.93101	0.0311194	0.030892	0.0037553	-43.2444	18.9762	13.823	13.0008	0.0384026	0.0361889	0.0527674	43.3001	57578	61100.1	83955	-46.6999	0.0000000E+000	0.0000000E+000	0.0000000E+000	46.6999	0.0000000E+000	0.0000000E+000	0.0000000E+000	-46.6999	0.0000000E+000	0.0000000E+000	0.0000000E+000	-43.3001	0.0000000E+000	0.0000000E+000	0.0000000E+000	43.3001	1.06117	46.6999	8.65519e-08	5.17982e-07	-8.16149e-12	5.1799e-07	0.26268	133207	2.09886	133209
68.104	17.8808	14.6447	23.1126	-39.3181	11.3565	0.262689	-0.00336401	159.576	64.0666	1	11	0.00476962	0.000206365	0	3.57375e-05	1.49552e-05	4.38326e-06	89.567	0.0212404	0.000160507	-0.0212398	-39.2771	23.0992	17.881	14.6235	0.0334727	0.0274147	0.0432665	39.3181	64066.6	78223.7	101111	-50.6819	0.0000000E+000	0.0000000E+000	0.0000000E+000	50.6819	0.0000000E+000	0.0000000E+000	0.0000000E+000	-50.6819	0.0000000E+000	0.0000000E+000	0.0000000E+000	-39.3181	0.0000000E+000	0.0000000E+000	0.0000000E+000	39.3181	1.22097	50.6819	-4.75987e-07	-8.83687e-07	-5.03096e-11	-8.83637e-07	0.262674	78088	4.44566	78083.6
46.4415	22.8537	15.4643	27.5942	-34.0849	11.7927	0.262675	-0.00323983	221.606	69.6002	1	11	0.00474136	0.000171825	0	3.54467e-05	0.000263178	5.44046e-06	-30.431	0.0316628	0.0273009	0.0160372	-34.0807	27.6258	22.881	15.4804	0.0300139	0.0203094	0.0362396	34.0849	69600.2	102857	124193	-55.9151	0.0000000E+000	0.0000000E+000	0.0000000E+000	55.9151	0.0000000E+000	0.0000000E+000	0.0000000E+000	-55.9151	0.0000000E+000	0.0000000E+000	0.0000000E+000	-34.0849	0.0000000E+000	0.0000000E+000	0.0000000E+000	34.0849	1.47783	55.9151	-2.90799e-07	-8.51021e-07	-8.52653e-10	-8.50169e-07	0.262411	81076.6	81.232	80995.3
31.6296	27.9215	14.8881	31.6428	-28.0671	12.2225	0.262677	-0.00324543	337.978	74.8198	1	11	0.00472904	0.000149451	0	3.48416e-05	-2.32329e-05	1.29991e-05	15.1892	0.0869794	0.0839409	-0.0227892	-27.9594	31.7062	28.0054	14.8653	0.0278862	0.0148693	0.0316028	28.0671	74819.8	140319	159020	-61.9329	0.0000000E+000	0.0000000E+000	0.0000000E+000	61.9329	0.0000000E+000	0.0000000E+000	0.0000000E+000	-61.9329	0.0000000E+000	0.0000000E+000	0.0000000E+000	-28.0671	0.0000000E+000	0.0000000E+000	0.0000000E+000	28.0671	1.87543	61.9329	-6.05146e-07	-8.52498e-07	7.54006e-11	-8.52574e-07	0.2627	80937.5	7.15865	80944.6
21.5517	32.303	13.4159	34.9782	-22.5539	12.6434	0.262674	-0.00328533	550.449	80.9776	1	11	0.00473264	0.000135303	0	3.43552e-05	-4.13882e-06	4.79629e-06	-36.5738	0.0354486	0.0284684	0.0211223	-22.5679	35.0126	32.3315	13.4371	0.0264027	0.0109655	0.0285893	22.5539	80977.6	194979	211126	-67.4461	0.0000000E+000	0.0000000E+000	0.0000000E+000	67.4461	0.0000000E+000	0.0000000E+000	0.0000000E+000	-67.4461	0.0000000E+000	0.0000000E+000	0.0000000E+000	-22.5539	0.0000000E+000	0.0000000E+000	0.0000000E+000	22.5539	2.40781	67.4461	-4.86383e-07	-8.62972e-07	1.35974e-11	-8.62985e-07	0.262679	79953.8	1.25979	79955
14.6852	35.7072	11.5493	37.5285	-17.9235	13.1042	0.26269	-0.00298253	938.399	88.8737	1	11	0.00472934	0.00012602	0	3.33637e-05	-9.96091e-05	4.11988e-06	-25.9352	0.0326923	0.0293998	0.0142981	-17.9304	37.5609	35.7366	11.5636	0.0253532	0.00820034	0.0266464	17.9235	88873.7	274774	288789	-72.0765	0.0000000E+000	0.0000000E+000	0.0000000E+000	72.0765	0.0000000E+000	0.0000000E+000	0.0000000E+000	-72.0765	0.0000000E+000	0.0000000E+000	0.0000000E+000	-17.9235	0.0000000E+000	0.0000000E+000	0.0000000E+000	17.9235	3.09173	72.0765	-9.91506e-07	-7.83482e-07	2.97087e-10	-7.83779e-07	0.26279	88076.2	33.3975	88109.6
10.0032	38.1643	9.49857	39.3286	-13.9762	13.5548	0.262689	-0.00309403	1675.03	97.7064	1	11	0.00472157	0.000120055	0	3.36554e-05	0.00012952	1.02287e-05	-98.0999	0.0852003	-0.0120047	0.0843503	-14.0996	39.3374	38.1523	9.58292	0.0246741	0.00614104	0.0254268	13.9762	97706.5	392575	404551	-76.0238	0.0000000E+000	0.0000000E+000	0.0000000E+000	76.0238	0.0000000E+000	0.0000000E+000	0.0000000E+000	-76.0238	0.0000000E+000	0.0000000E+000	0.0000000E+000	-13.9762	0.0000000E+000	0.0000000E+000	0.0000000E+000	13.9762	4.0179	76.0238	2.91736e-07	-8.12766e-07	-4.00738e-10	-8.12366e-07	0.262559	84901.8	41.8611	84859.9
6.81719	39.9272	7.81797	40.6854	-11.0787	13.8945	0.262681	-0.00316414	2986.21	110.264	1	11	0.00471624	0.00011592	0	3.23326e-05	-6.1421e-05	6.14895e-06	113.628	0.0530448	-0.0212603	-0.0485979	-11.0172	40.6552	39.9059	7.76937	0.0241208	0.004723	0.0245789	11.0787	110264	563128	573821	-78.9213	0.0000000E+000	0.0000000E+000	0.0000000E+000	78.9213	0.0000000E+000	0.0000000E+000	0.0000000E+000	-78.9213	0.0000000E+000	0.0000000E+000	0.0000000E+000	-11.0787	0.0000000E+000	0.0000000E+000	0.0000000E+000	11.0787	5.1071	78.9213	-1.32285e-06	-8.31159e-07	1.94344e-10	-8.31353e-07	0.262743	83018.3	19.4116	83037.7
4.63925	41.3754	6.50966	41.8844	-8.94114	14.3784	0.262681	-0.00306942	5270.04	127.299	1	11	0.0047237	0.00011278	0	3.26397e-05	-2.32329e-05	1.2227e-05	-5.36555	0.108415	0.10794	0.0101378	-8.93191	41.9926	41.4834	6.5198	0.0235851	0.00371068	0.0238752	8.94114	127299	809115	819068	-81.0589	0.0000000E+000	0.0000000E+000	0.0000000E+000	81.0589	0.0000000E+000	0.0000000E+000	0.0000000E+000	-81.0589	0.0000000E+000	0.0000000E+000	0.0000000E+000	-8.94114	0.0000000E+000	0.0000000E+000	0.0000000E+000	8.94114	6.356	81.0589	3.07118e-07	-8.06277e-07	7.13114e-11	-8.06348e-07	0.262704	85580	7.56915	85587.6
3.1604	42.3847	5.56131	42.748	-7.47509	15.0715	0.262678	-0.00307855	9055.27	153.258	1	11	0.00472514	0.000110535	0	3.34281e-05	-4.13882e-06	4.56514e-06	13.8998	0.0413005	0.0400911	-0.00992143	-7.45493	42.7865	42.4248	5.55139	0.0231941	0.0030433	0.0233929	7.47509	153258	1.16803e+06	1.17805e+06	-82.5249	0.0000000E+000	0.0000000E+000	0.0000000E+000	82.5249	0.0000000E+000	0.0000000E+000	0.0000000E+000	-82.5249	0.0000000E+000	0.0000000E+000	0.0000000E+000	-7.47509	0.0000000E+000	0.0000000E+000	0.0000000E+000	7.47509	7.62136	82.5249	7.88414e-07	-8.08669e-07	1.27416e-11	-8.08682e-07	0.262682	85325.2	1.3444	85326.6
2.15577	43.307	4.96405	43.5906	-6.53897	16.0751	0.262686	-0.00256581	14872.4	192.872	1	11	0.00472208	0.000108328	0	3.2653e-05	-0.000233268	3.30954e-06	59.0304	0.0305511	0.0157211	-0.0261957	-6.50242	43.6032	43.3228	4.93786	0.0227915	0.00261246	0.0229407	6.53897	192872	1.68264e+06	1.69366e+06	-83.461	0.0000000E+000	0.0000000E+000	0.0000000E+000	83.461	0.0000000E+000	0.0000000E+000	0.0000000E+000	-83.461	0.0000000E+000	0.0000000E+000	0.0000000E+000	-6.53897	0.0000000E+000	0.0000000E+000	0.0000000E+000	6.53897	8.72413	83.461	-7.75138e-07	-6.74002e-07	5.98521e-10	-6.74601e-07	0.262919	102379	90.9137	102470
1.46631	44.0896	4.56221	44.3251	-5.9077	18.2646	0.262692	-0.00287121	23791.4	252.041	1	12	0.00472188	0.000106528	0	2.85032e-05	-4.13882e-06	2.93501e-06	-22.5457	0.0275514	0.0254458	0.0105638	-5.91789	44.3515	44.1151	4.57277	0.0224408	0.00232208	0.0225606	5.9077	252041	2.43575e+06	2.44875e+06	-84.0923	0.0000000E+000	0.0000000E+000	0.0000000E+000	84.0923	0.0000000E+000	0.0000000E+000	0.0000000E+000	-84.0923	0.0000000E+000	0.0000000E+000	0.0000000E+000	-5.9077	0.0000000E+000	0.0000000E+000	0.0000000E+000	5.9077	9.6641	84.0923	-4.14974e-06	-7.54244e-07	1.18834e-11	-7.54256e-07	0.262696	91491.5	1.44149	91493
1.00006	44.9755	4.39819	45.19	-5.58524	20.3936	0.262674	-0.00323081	36184.2	342.753	1	12	0.00472391	0.000104534	0	2.40907e-05	-0.000405114	2.51462e-06	16.9903	0.0240554	0.0230055	-0.00702921	-5.57354	45.2122	44.9985	4.39116	0.0220237	0.00215372	0.0221288	5.58524	342753	3.50496e+06	3.52168e+06	-84.4148	0.0000000E+000	0.0000000E+000	0.0000000E+000	84.4148	0.0000000E+000	0.0000000E+000	0.0000000E+000	-84.4148	0.0000000E+000	0.0000000E+000	0.0000000E+000	-5.58524	0.0000000E+000	0.0000000E+000	0.0000000E+000	5.58524	10.2259	84.4148	-4.4125e-06	-8.48649e-07	1.30885e-09	-8.49958e-07	0.263079	81302.9	125.391	81428.3
0.681362	46.0686	4.72559	46.3103	-5.85676	23.5039	0.262683	-0.00327359	49429.5	514.686	1	12	0.00472536	0.000102037	0	2.02031e-05	-6.1421e-05	2.13285e-06	-14.1579	0.0209028	0.0202678	0.00511271	-5.86049	46.331	46.0888	4.7307	0.0214807	0.00220344	0.0215935	5.85676	514686	5.01755e+06	5.04388e+06	-84.1432	0.0000000E+000	0.0000000E+000	0.0000000E+000	84.1432	0.0000000E+000	0.0000000E+000	0.0000000E+000	-84.1432	0.0000000E+000	0.0000000E+000	0.0000000E+000	-5.85676	0.0000000E+000	0.0000000E+000	0.0000000E+000	5.85676	9.74875	84.1432	-3.88766e-06	-8.59917e-07	2.01067e-10	-8.60118e-07	0.262745	80243.3	18.7626	80262.1
0.464091	46.98	4.46437	47.1917	-5.42835	28.0604	0.262679	-0.00353479	76817	687.46	1	12	0.00472135	0.000100046	0	1.97794e-05	9.13315e-05	1.79578e-06	62.3	0.0179496	0.0083437	-0.0158924	-5.40818	47.1985	46.9884	4.44848	0.0210952	0.00200461	0.0211902	5.42835	687460	7.23436e+06	7.26695e+06	-84.5717	0.0000000E+000	0.0000000E+000	0.0000000E+000	84.5717	0.0000000E+000	0.0000000E+000	0.0000000E+000	-84.5717	0.0000000E+000	0.0000000E+000	0.0000000E+000	-5.42835	0.0000000E+000	0.0000000E+000	0.0000000E+000	5.42835	10.5233	84.5717	-4.2367e-07	-9.28515e-07	-3.22838e-10	-9.28192e-07	0.262587	74312.3	25.8379	74286.5
0.316193	47.2918	4.77461	47.5322	-5.76508	34.7348	0.262677	-0.00371153	105422	1063.72	1	12	0.00472332	9.9371e-05	0	2.17027e-05	-6.1421e-05	3.19076e-06	-22.2922	0.0321095	0.0297097	0.0121801	-5.77608	47.563	47.3215	4.78679	0.0209319	0.0021133	0.0210384	5.76508	1.06373e+06	1.0536e+07	1.05896e+07	-84.2349	0.0000000E+000	0.0000000E+000	0.0000000E+000	84.2349	0.0000000E+000	0.0000000E+000	0.0000000E+000	-84.2349	0.0000000E+000	0.0000000E+000	0.0000000E+000	-5.76508	0.0000000E+000	0.0000000E+000	0.0000000E+000	5.76508	9.90485	84.2349	1.92332e-06	-9.74933e-07	2.27966e-10	-9.75161e-07	0.262738	70773.1	16.5487	70789.7
0.215268	48.797	4.8634	49.0387	-5.69165	44.5282	0.262679	-0.00228218	152020	1495.21	1	12	0.00472292	9.631e-05	0	2.61386e-05	-0.000175985	2.42453e-06	10.3039	0.0251742	0.0247682	-0.00450287	-5.68355	49.0629	48.8217	4.8589	0.0202915	0.00202238	0.0203921	5.69165	1.49521e+06	1.50022e+07	1.50765e+07	-84.3084	0.0000000E+000	0.0000000E+000	0.0000000E+000	84.3084	0.0000000E+000	0.0000000E+000	0.0000000E+000	-84.3084	0.0000000E+000	0.0000000E+000	0.0000000E+000	-5.69165	0.0000000E+000	0.0000000E+000	0.0000000E+000	5.69165	10.0335	84.3084	4.43587e-06	-5.99481e-07	4.01631e-10	-5.99882e-07	0.262855	115100	77.1128	115177
0.146929	50.3443	5.43513	50.6368	-6.16175	58.8666	0.262677	-0.00142868	199298	2296.1	1	12	0.00472235	9.32592e-05	0	2.29198e-05	-0.000156891	2.52965e-06	-34.8736	0.027125	0.0222538	0.0155092	-6.17648	50.6606	50.3666	5.45064	0.0196344	0.00211971	0.0197485	6.16175	2.2961e+06	2.12682e+07	2.13918e+07	-83.8383	0.0000000E+000	0.0000000E+000	0.0000000E+000	83.8383	0.0000000E+000	0.0000000E+000	0.0000000E+000	-83.8383	0.0000000E+000	0.0000000E+000	0.0000000E+000	-6.16175	0.0000000E+000	0.0000000E+000	0.0000000E+000	6.16175	9.26275	83.8383	-3.21879e-06	-3.75283e-07	2.24148e-10	-3.75507e-07	0.262834	183859	109.815	183969
0.0999041	50.8806	5.84874	51.2157	-6.55739	79.9436	0.262674	-0.00142061	272379	3552.17	1	12	0.00472341	9.22259e-05	0	7.21454e-06	3.40493e-05	1.93493e-06	-66.0963	0.0209804	0.00850125	0.0191808	-6.57761	51.2263	50.8891	5.86793	0.0193975	0.00222975	0.0195253	6.55739	3.55217e+06	3.09018e+07	3.11053e+07	-83.4426	0.0000000E+000	0.0000000E+000	0.0000000E+000	83.4426	0.0000000E+000	0.0000000E+000	0.0000000E+000	-83.4426	0.0000000E+000	0.0000000E+000	0.0000000E+000	-6.55739	0.0000000E+000	0.0000000E+000	0.0000000E+000	6.55739	8.69941	83.4426	-1.57053e-05	-3.73158e-07	-4.83708e-11	-3.73109e-07	0.26264	184902	23.9681	184878
0.0680626	51.8819	6.7724	52.3221	-7.43705	110.871	0.262676	-0.00046698	345278	5784.75	1	12	0.00472549	9.03154e-05	0	-2.58358e-05	-0.000118703	2.38935e-06	2.80072	0.0264557	0.0264241	-0.00129269	-7.4319	52.3481	51.9083	6.77111	0.0189516	0.00247385	0.0191124	7.43705	5.78475e+06	4.43157e+07	4.46917e+07	-82.563	0.0000000E+000	0.0000000E+000	0.0000000E+000	82.563	0.0000000E+000	0.0000000E+000	0.0000000E+000	-82.563	0.0000000E+000	0.0000000E+000	0.0000000E+000	-7.43705	0.0000000E+000	0.0000000E+000	0.0000000E+000	7.43705	7.66078	82.563	-3.30503e-05	-1.22664e-07	5.5432e-11	-1.2272e-07	0.262795	562500	254.193	562754
0.0464052	53.0038	7.8587	53.5832	-8.43362	156.222	0.262679	-0.00060603	436418	9387.43	1	12	0.00472498	8.81802e-05	0	-8.68797e-05	-4.13882e-06	1.97353e-06	-3.69851	0.0223807	0.0223341	0.0014437	-8.43165	53.6055	53.0261	7.86014	0.0184608	0.00273712	0.0186626	8.43362	9.38744e+06	6.33145e+07	6.40066e+07	-81.5664	0.0000000E+000	0.0000000E+000	0.0000000E+000	81.5664	0.0000000E+000	0.0000000E+000	0.0000000E+000	-81.5664	0.0000000E+000	0.0000000E+000	0.0000000E+000	-8.43362	0.0000000E+000	0.0000000E+000	0.0000000E+000	8.43362	6.7446	81.5664	-6.10439e-05	-1.59191e-07	2.50825e-12	-1.59194e-07	0.262683	433443	6.82939	433449
0.0315922	54.5445	9.57398	55.3784	-9.95549	222.828	0.262677	-0.000947829	526196	15727.2	1	12	0.00472552	8.53315e-05	0	-0.000162129	-0.000175985	3.83337e-06	9.62156	0.0449233	0.0442914	-0.00750847	-9.93992	55.4207	54.5888	9.56647	0.0177857	0.00312185	0.0180576	9.95549	1.57272e+07	8.96006e+07	9.09704e+07	-80.0445	0.0000000E+000	0.0000000E+000	0.0000000E+000	80.0445	0.0000000E+000	0.0000000E+000	0.0000000E+000	-80.0445	0.0000000E+000	0.0000000E+000	0.0000000E+000	-9.95549	0.0000000E+000	0.0000000E+000	0.0000000E+000	9.95549	5.69716	80.0445	-7.52493e-05	-2.48973e-07	1.66804e-10	-2.49139e-07	0.262853	277135	185.672	277321
0.0215268	56.2754	12.1767	57.5777	-12.2093	320.566	0.26268	-0.00122742	607169	27155.9	1	12	0.00472417	8.20486e-05	0	-0.000215667	-0.000462396	8.54694e-07	66.5372	0.0104169	0.00414754	-0.00955564	-12.1991	57.5797	56.2795	12.1672	0.016975	0.00367301	0.0173678	12.2093	2.71558e+07	1.25502e+08	1.28406e+08	-77.7907	0.0000000E+000	0.0000000E+000	0.0000000E+000	77.7907	0.0000000E+000	0.0000000E+000	0.0000000E+000	-77.7907	0.0000000E+000	0.0000000E+000	0.0000000E+000	-12.2093	0.0000000E+000	0.0000000E+000	0.0000000E+000	12.2093	4.62155	77.7907	-5.35377e-05	-3.22419e-07	5.67557e-10	-3.22987e-07	0.263142	214009	376.721	214385
0.0146812	58.1084	15.6473	60.1782	-15.071	463.867	0.262678	-0.00120973	692817	46840.4	1	12	0.00472292	7.84821e-05	0	-0.00019102	-0.000156891	2.34082e-06	-9.28376	0.0298262	0.0294355	0.00481168	-15.0682	60.2079	58.1378	15.6522	0.0160457	0.00432078	0.0166173	15.071	4.68404e+07	1.73948e+08	1.80144e+08	-74.929	0.0000000E+000	0.0000000E+000	0.0000000E+000	74.929	0.0000000E+000	0.0000000E+000	0.0000000E+000	-74.929	0.0000000E+000	0.0000000E+000	0.0000000E+000	-15.071	0.0000000E+000	0.0000000E+000	0.0000000E+000	15.071	3.71362	74.929	2.46466e-05	-3.1777e-07	1.89797e-10	-3.1796e-07	0.262834	217137	129.691	217266
0.0100092	60.3329	19.656	63.454	-18.0452	674.047	0.262673	-0.000841105	808961	77624.4	1	12	0.00472479	7.446e-05	0	-4.43928e-05	5.31434e-05	1.91931e-06	-11.2875	0.0257764	0.0252778	0.00504528	-18.0425	63.4796	60.3581	19.661	0.0149843	0.00488176	0.0157594	18.0452	7.76244e+07	2.38264e+08	2.5059e+08	-71.9548	0.0000000E+000	0.0000000E+000	0.0000000E+000	71.9548	0.0000000E+000	0.0000000E+000	0.0000000E+000	-71.9548	0.0000000E+000	0.0000000E+000	0.0000000E+000	-18.0452	0.0000000E+000	0.0000000E+000	0.0000000E+000	18.0452	3.06944	71.9548	0.000146627	-2.20936e-07	-4.46992e-11	-2.20891e-07	0.26262	312296	63.1828	312232