File: txt/18726_R302_UA699_SOC00_C01.mpt
EC-Lab ASCII FILE
Nb header lines : 65

Potentio Electrochemical Impedance Spectroscopy

Run on channel : 1 (SN 66354)
User :
CE vs. WE compliance from -10 V to 10 V
Electrode connection : standard
Potential control : Ewe
Ewe ctrl range : min = -10.00 V, max = 10.00 V
Safety Limits :
	Do not start on E overload
Acquisition started on : 10/31/2025 11:23:47.789
Technique started on : 10/31/2025 11:23:49.701
Loaded Setting File :  C:\Users\Celltest\OneDrive - store-dot.com\Documents\EC-Lab\Data\@Biologic Test Protocols\anode half cell EIS SOC00.mps
Saved on :
	File : 18726_R302_UA699_SOC00_C01.mpr
	Directory : C:\Users\Celltest\OneDrive - store-dot.com\Documents\EC-Lab\Data\Charmaine\
	Host : 169.254.61.224
Device : VMP-3e (SN .003165)
Address : USB
EC-LAB for windows v11.62 (software)
Internet server v27.00 (firmware)
Command interpretor v12.03 (firmware)
Electrode material :
Initial state :
Electrolyte :
Comments :
Electrode surface area : 0.001 cm²
Characteristic mass : 0.001 g
Equivalent Weight : 0.000 g/eq.
Density : 0.000 g/cm3
Volume (V) : 0.001 cm³
Record Ece
Cycle Definition : Charge/Discharge alternance
Mode                Single sine
E (V)               0.0000
vs.                 Eoc
tE (h:m:s)          0:00:0.0000
record              0
dI                  0.000
unit dI             mA
dt (s)              0.000
fi                  100.000
unit fi             kHz
ff                  10.000
unit ff             mHz
Nd                  6
Points              per decade
spacing             Logarithmic
Va (mV)             5.0
pw                  0.10
Na                  2
corr                0
E range min (V)     -10.000
E range max (V)     10.000
I Range             Auto
Bandwidth           5
nc cycles           0
goto Ns'            0
nr cycles           0
inc. cycle          0

freq/Hz	Re(Z)/Ohm	-Im(Z)/Ohm	|Z|/Ohm	Phase(Z)/deg	time/s	<Ewe>/V	<I>/mA	Cs/µF	Cp/µF	cycle number	I Range	|Ewe|/V	|I|/A	Ns	(Q-Qo)/mA.h	<Ece>/V	|Ece|/V	Phase(Zce)/deg	|Zce|/Ohm	Re(Zce)/Ohm	-Im(Zce)/Ohm	Phase(Zwe-ce)/deg	|Zwe-ce|/Ohm	Re(Zwe-ce)/Ohm	-Im(Zwe-ce)/Ohm	Re(Y)/Ohm-1	Im(Y)/Ohm-1	|Y|/Ohm-1	Phase(Y)/deg	Re(C)/nF	Im(C)/nF	|C|/nF	Phase(C)/deg	Re(M)	Im(M)	|M|	Phase(M)/deg	Re(Permittivity)	Im(Permittivity)	|Permittivity|	Phase(Permittivity)/deg	Re(Resistivity)/Ohm.cm	Im(Resistivity)/Ohm.cm	|Resistivity|/Ohm.cm	Phase(Resistivity)/deg	Re(Conductivity)/mS/cm	Im(Conductivity)/mS/cm	|Conductivity|/mS/cm	Phase(Conductivity)/deg	Tan(Delta)	Loss Angle(Delta)/deg	dq/mA.h	Pwe/W	Pce/W	Pwe-ce/W	<Ewe-Ece>/V	Rwe/Ohm	Rce/Ohm	Rwe-ce/Ohm		Ewe-Ece/V
100004	1.42063	0.740612	1.60209	-27.5342	1.91154	0.27113	0.0648552	2.14889	0.459219	1	9	0.0047094	0.00293953	0	2.12268e-06	0.00021219	4.28974e-05	91.7955	0.0145933	-0.000457247	-0.0145861	-27.0772	1.59499	1.42017	0.726026	0.553486	0.288547	0.624184	27.5342	459.219	880.867	993.383	-62.4658	0.0000000E+000	0.0000000E+000	0.0000000E+000	62.4658	0.0000000E+000	0.0000000E+000	0.0000000E+000	-62.4658	0.0000000E+000	0.0000000E+000	0.0000000E+000	-27.5342	0.0000000E+000	0.0000000E+000	0.0000000E+000	27.5342	1.91818	62.4658	2.12268e-06	1.75842e-05	1.37616e-08	1.75704e-05	0.270917	4180.54	3.27175	4177.26
68132	1.63271	0.855873	1.84344	-27.6636	2.41853	0.27113	0.0579259	2.72935	0.588328	1	9	0.00507333	0.0027521	0	2.27077e-05	-1.67377e-05	2.79435e-05	69.3202	0.0101535	0.00358567	-0.00949931	-27.3502	1.84223	1.6363	0.846374	0.480454	0.251855	0.542464	27.6636	588.328	1122.33	1267.18	-62.3363	0.0000000E+000	0.0000000E+000	0.0000000E+000	62.3363	0.0000000E+000	0.0000000E+000	0.0000000E+000	-62.3363	0.0000000E+000	0.0000000E+000	0.0000000E+000	-27.6636	0.0000000E+000	0.0000000E+000	0.0000000E+000	27.6636	1.90766	62.3363	2.0585e-05	1.57055e-05	-9.69545e-10	1.57064e-05	0.271147	4680.64	0.288949	4680.93
46420.4	1.88371	0.955813	2.11233	-26.9037	2.92553	0.271127	0.0617631	3.58706	0.734447	1	9	0.00504157	0.00238673	0	1.65863e-05	0.000116803	2.35048e-05	39.1157	0.00984811	0.00764089	-0.00621305	-26.6601	2.11635	1.89135	0.9496	0.422173	0.214214	0.473411	26.9037	734.447	1447.44	1623.12	-63.0963	0.0000000E+000	0.0000000E+000	0.0000000E+000	63.0963	0.0000000E+000	0.0000000E+000	0.0000000E+000	-63.0963	0.0000000E+000	0.0000000E+000	0.0000000E+000	-26.9037	0.0000000E+000	0.0000000E+000	0.0000000E+000	26.9037	1.97079	63.0963	-6.12139e-06	1.67456e-05	7.21415e-09	1.67384e-05	0.27101	4389.78	1.89115	4387.89
31621.1	2.13107	1.03069	2.36723	-25.8106	3.43256	0.271126	0.0704061	4.88333	0.925739	1	9	0.00510232	0.0021554	0	2.1333e-05	4.04943e-05	7.94125e-06	1.50809	0.00368436	0.00368308	-9.69652e-05	-25.7697	2.3705	2.13475	1.03059	0.380292	0.183927	0.422435	25.8106	925.739	1914.08	2126.19	-64.1894	0.0000000E+000	0.0000000E+000	0.0000000E+000	64.1894	0.0000000E+000	0.0000000E+000	0.0000000E+000	-64.1894	0.0000000E+000	0.0000000E+000	0.0000000E+000	-25.8106	0.0000000E+000	0.0000000E+000	0.0000000E+000	25.8106	2.06762	64.1894	4.74672e-06	1.90889e-05	2.85104e-09	1.90861e-05	0.271086	3850.89	0.575153	3850.31
21544.7	2.40639	1.10392	2.64752	-24.6432	3.81555	0.271121	0.0593788	6.69177	1.16343	1	9	0.00489297	0.00184813	0	2.75531e-05	7.86489e-05	1.03363e-05	-27.5459	0.00559285	0.00495885	0.00258647	-24.6493	2.6531	2.41135	1.10651	0.343311	0.157493	0.377712	24.6432	1163.43	2536.11	2790.24	-65.3568	0.0000000E+000	0.0000000E+000	0.0000000E+000	65.3568	0.0000000E+000	0.0000000E+000	0.0000000E+000	-65.3568	0.0000000E+000	0.0000000E+000	0.0000000E+000	-24.6432	0.0000000E+000	0.0000000E+000	0.0000000E+000	24.6432	2.17985	65.3568	6.22008e-06	1.60989e-05	4.67008e-09	1.60942e-05	0.271042	4565.96	1.32453	4564.63
14678.6	2.67662	1.16827	2.92047	-23.58	4.19854	0.271122	0.0667552	9.28094	1.48516	1	9	0.00478679	0.00163905	0	3.21825e-05	0.000288499	1.20292e-05	-105.738	0.00733917	-0.00199068	0.00706404	-23.7225	2.92148	2.67463	1.17534	0.31382	0.136974	0.34241	23.58	1485.16	3402.64	3712.64	-66.42	0.0000000E+000	0.0000000E+000	0.0000000E+000	66.42	0.0000000E+000	0.0000000E+000	0.0000000E+000	-66.42	0.0000000E+000	0.0000000E+000	0.0000000E+000	-23.58	0.0000000E+000	0.0000000E+000	0.0000000E+000	23.58	2.29109	66.42	4.62943e-06	1.80988e-05	1.92588e-08	1.80795e-05	0.270834	4061.44	4.32175	4057.12
10002.2	2.93573	1.23328	3.18425	-22.7869	4.58156	0.27112	0.0519652	12.9022	1.93539	1	9	0.00494987	0.00155448	0	3.96508e-05	0.000402963	1.06903e-05	-80.969	0.00687708	0.00107948	0.00679183	-22.8919	3.18788	2.93681	1.24007	0.289535	0.121631	0.314045	22.7869	1935.39	4607.06	4997.07	-67.2131	0.0000000E+000	0.0000000E+000	0.0000000E+000	67.2131	0.0000000E+000	0.0000000E+000	0.0000000E+000	-67.2131	0.0000000E+000	0.0000000E+000	0.0000000E+000	-22.7869	0.0000000E+000	0.0000000E+000	0.0000000E+000	22.7869	2.38043	67.2131	7.4683e-06	1.40888e-05	2.09401e-08	1.40678e-05	0.270717	5217.33	7.75448	5209.58
6810.42	3.19777	1.33516	3.46532	-22.6619	4.84055	0.271118	0.0556161	17.503	2.59833	1	9	0.00478227	0.00138004	0	4.50334e-05	0.000116803	0.000183736	83.3567	0.133138	0.0154026	-0.132244	-20.5244	3.43096	3.21318	1.20292	0.266295	0.111185	0.288574	22.6619	2598.33	6223.12	6743.78	-67.3381	0.0000000E+000	0.0000000E+000	0.0000000E+000	67.3381	0.0000000E+000	0.0000000E+000	0.0000000E+000	-67.3381	0.0000000E+000	0.0000000E+000	0.0000000E+000	-22.6619	0.0000000E+000	0.0000000E+000	0.0000000E+000	22.6619	2.39505	67.3381	5.38257e-06	1.50786e-05	6.49616e-09	1.50721e-05	0.271002	4874.82	2.10017	4872.72
4646	3.47911	1.46587	3.77531	-22.8473	5.10763	0.271095	0.0305812	23.3693	3.52313	1	9	0.00469364	0.00124324	0	4.6679e-05	2.1417e-05	4.94097e-06	25.7154	0.00397425	0.00358065	-0.00172443	-22.8021	3.77795	3.48269	1.46414	0.244097	0.102846	0.264879	22.8473	3523.13	8361.87	9073.77	-67.1527	0.0000000E+000	0.0000000E+000	0.0000000E+000	67.1527	0.0000000E+000	0.0000000E+000	0.0000000E+000	-67.1527	0.0000000E+000	0.0000000E+000	0.0000000E+000	-22.8473	0.0000000E+000	0.0000000E+000	0.0000000E+000	22.8473	2.37342	67.1527	1.64565e-06	8.29042e-06	6.54956e-10	8.28976e-06	0.271074	8864.76	0.700331	8864.06
3163.08	3.79216	1.6468	4.1343	-23.4735	5.68968	0.271048	-0.0167828	30.5541	4.84781	1	10	0.00479882	0.00116073	0	4.99432e-05	0.000441118	7.34911e-06	4.38719	0.00633143	0.00631288	-0.000484331	-23.4326	4.1399	3.79848	1.64631	0.221862	0.0963465	0.241879	23.4735	4847.81	11163.3	12170.5	-66.5265	0.0000000E+000	0.0000000E+000	0.0000000E+000	66.5265	0.0000000E+000	0.0000000E+000	0.0000000E+000	-66.5265	0.0000000E+000	0.0000000E+000	0.0000000E+000	-23.4735	0.0000000E+000	0.0000000E+000	0.0000000E+000	23.4735	2.30275	66.5265	3.2642e-06	-4.54895e-06	-7.40321e-09	-4.54155e-06	0.270607	16150.3	26.2839	16124
2155.69	4.10393	1.90455	4.52432	-24.895	6.14084	0.271037	-0.00877738	38.7652	6.86938	1	10	0.00474491	0.00104876	0	4.96755e-05	0.000460195	9.9879e-06	-21.6935	0.00952358	0.00884906	0.00352032	-24.8883	4.53383	4.11278	1.90807	0.20049	0.0930431	0.221027	24.895	6869.38	14802.2	16318.5	-65.105	0.0000000E+000	0.0000000E+000	0.0000000E+000	65.105	0.0000000E+000	0.0000000E+000	0.0000000E+000	-65.105	0.0000000E+000	0.0000000E+000	0.0000000E+000	-24.895	0.0000000E+000	0.0000000E+000	0.0000000E+000	24.895	2.15481	65.105	-2.67706e-07	-2.379e-06	-4.03931e-09	-2.37496e-06	0.270577	30879.1	52.4297	30826.7
1468.59	4.44532	2.2523	4.98335	-26.8698	6.59109	0.271039	-0.00893018	48.1165	9.82887	1	10	0.00469704	0.000942548	0	4.79282e-05	-7.39696e-05	2.79072e-05	12.7355	0.0296082	0.0288798	-0.00652717	-26.6538	5.00619	4.4742	2.24577	0.179003	0.0906951	0.200668	26.8698	9828.87	19399.1	21747	-63.1302	0.0000000E+000	0.0000000E+000	0.0000000E+000	63.1302	0.0000000E+000	0.0000000E+000	0.0000000E+000	-63.1302	0.0000000E+000	0.0000000E+000	0.0000000E+000	-26.8698	0.0000000E+000	0.0000000E+000	0.0000000E+000	26.8698	1.97368	63.1302	-1.74732e-06	-2.42042e-06	6.60562e-10	-2.42109e-06	0.271113	30350.9	8.2831	30359.1
1000.32	4.83166	2.74918	5.55904	-29.6395	7.04179	0.271038	-0.00958613	57.8733	14.1542	1	10	0.00464462	0.000835508	0	4.63586e-05	2.1417e-05	9.97798e-06	-62.1741	0.0119424	0.00557455	0.0105615	-29.7056	5.56911	4.83723	2.75974	0.15635	0.0889618	0.179887	29.6395	14154.2	24875.9	28620.8	-60.3605	0.0000000E+000	0.0000000E+000	0.0000000E+000	60.3605	0.0000000E+000	0.0000000E+000	0.0000000E+000	-60.3605	0.0000000E+000	0.0000000E+000	0.0000000E+000	-29.6395	0.0000000E+000	0.0000000E+000	0.0000000E+000	29.6395	1.75749	60.3605	-1.56962e-06	-2.59821e-06	-2.05306e-10	-2.598e-06	0.271017	28274	2.23416	28271.8
681.09	5.33262	3.4209	6.33557	-32.6804	7.49257	0.271033	-0.0101675	68.3086	19.9152	1	10	0.0046181	0.000728916	0	4.49323e-05	0.000288499	5.05279e-06	-54.3824	0.00693192	0.00403696	0.00563511	-32.7035	6.34201	5.33666	3.42654	0.132852	0.0852255	0.157839	32.6804	19915.2	31044.5	36883.3	-57.3196	0.0000000E+000	0.0000000E+000	0.0000000E+000	57.3196	0.0000000E+000	0.0000000E+000	0.0000000E+000	-57.3196	0.0000000E+000	0.0000000E+000	0.0000000E+000	-32.6804	0.0000000E+000	0.0000000E+000	0.0000000E+000	32.6804	1.55884	57.3196	-1.42632e-06	-2.75574e-06	-2.93333e-09	-2.75281e-06	0.270745	26656.7	28.3745	26628.3
463.961	5.98617	4.30337	7.37247	-35.7118	7.94436	0.271034	-0.0095116	79.7132	27.1595	1	10	0.00459345	0.000623055	0	4.39622e-05	4.04943e-05	5.9175e-06	-55.6504	0.00949756	0.00535891	0.00784128	-35.7369	7.3814	5.99153	4.31121	0.110135	0.079174	0.13564	35.7118	27159.5	37780.1	46529.3	-54.2882	0.0000000E+000	0.0000000E+000	0.0000000E+000	54.2882	0.0000000E+000	0.0000000E+000	0.0000000E+000	-54.2882	0.0000000E+000	0.0000000E+000	0.0000000E+000	-35.7118	0.0000000E+000	0.0000000E+000	0.0000000E+000	35.7118	1.39104	54.2882	-9.701e-07	-2.57797e-06	-3.85165e-10	-2.57758e-06	0.270994	28495.1	4.25736	28490.9
316.316	6.89887	5.44477	8.78862	-38.2814	8.39204	0.271042	-0.0114794	92.4101	35.468	1	10	0.00458366	0.000521545	0	4.24306e-05	5.95716e-05	1.05543e-05	-32.1524	0.0202366	0.017133	0.0107694	-38.2674	8.80874	6.916	5.45554	0.0893174	0.0704917	0.113783	38.2814	35468	44940.2	57250.4	-51.7186	0.0000000E+000	0.0000000E+000	0.0000000E+000	51.7186	0.0000000E+000	0.0000000E+000	0.0000000E+000	-51.7186	0.0000000E+000	0.0000000E+000	0.0000000E+000	-38.2814	0.0000000E+000	0.0000000E+000	0.0000000E+000	38.2814	1.26706	51.7186	-1.53154e-06	-3.1114e-06	-6.83847e-10	-3.11072e-06	0.270982	23611.1	5.18942	23605.9
215.345	8.21542	6.8441	10.6927	-39.797	8.84159	0.271038	-0.010898	107.987	44.2409	1	10	0.00457911	0.000428245	0	4.08264e-05	-7.39696e-05	7.43314e-06	-24.581	0.0173572	0.0157842	0.00722026	-39.7726	10.7095	8.2312	6.85132	0.071854	0.0598602	0.0935213	39.797	44240.9	53105.2	69118.9	-50.203	0.0000000E+000	0.0000000E+000	0.0000000E+000	50.203	0.0000000E+000	0.0000000E+000	0.0000000E+000	-50.203	0.0000000E+000	0.0000000E+000	0.0000000E+000	-39.797	0.0000000E+000	0.0000000E+000	0.0000000E+000	39.797	1.20036	50.203	-1.60422e-06	-2.95378e-06	8.06122e-10	-2.95458e-06	0.271112	24870.4	6.78743	24877.1
146.737	10.1082	8.26876	13.0594	-39.284	9.28754	0.271038	-0.0111589	131.171	52.5861	1	10	0.00456756	0.000349751	0	3.90695e-05	-3.5815e-05	6.80228e-05	-119.807	0.194489	-0.0966776	0.168758	-40.1235	13.0929	10.0116	8.43752	0.0592688	0.0484833	0.076573	39.284	52586.1	64284.4	83052.9	-50.716	0.0000000E+000	0.0000000E+000	0.0000000E+000	50.716	0.0000000E+000	0.0000000E+000	0.0000000E+000	-50.716	0.0000000E+000	0.0000000E+000	0.0000000E+000	-39.284	0.0000000E+000	0.0000000E+000	0.0000000E+000	39.284	1.22246	50.716	-1.75693e-06	-3.02449e-06	3.99656e-10	-3.02489e-06	0.271074	24288.9	3.20954	24292.1
100.032	12.6305	9.85435	16.0199	-37.9615	9.73878	0.271037	-0.00958242	161.456	61.0926	1	10	0.00456484	0.000284948	0	3.83263e-05	-0.000131202	1.23774e-05	4.98495	0.0434375	0.0432732	-0.00377446	-37.8558	16.0517	12.6738	9.85058	0.0492153	0.0383979	0.0624223	37.9615	61092.6	78303.5	99316.4	-52.0385	0.0000000E+000	0.0000000E+000	0.0000000E+000	52.0385	0.0000000E+000	0.0000000E+000	0.0000000E+000	-52.0385	0.0000000E+000	0.0000000E+000	0.0000000E+000	-37.9615	0.0000000E+000	0.0000000E+000	0.0000000E+000	37.9615	1.28172	52.0385	-7.43156e-07	-2.59719e-06	1.25723e-09	-2.59845e-06	0.271168	28284.8	13.6919	28298.5
68.104	15.8643	10.846	19.2175	-34.3594	10.2015	0.27105	-0.00654496	215.466	68.6318	1	10	0.00456599	0.000237596	0	3.78127e-05	4.04943e-05	1.06602e-05	-64.7339	0.044867	0.0191503	0.0405748	-34.4269	19.2562	15.8834	10.8866	0.0429565	0.0293682	0.052036	34.3594	68631.8	100387	121605	-55.6406	0.0000000E+000	0.0000000E+000	0.0000000E+000	55.6406	0.0000000E+000	0.0000000E+000	0.0000000E+000	-55.6406	0.0000000E+000	0.0000000E+000	0.0000000E+000	-34.3594	0.0000000E+000	0.0000000E+000	0.0000000E+000	34.3594	1.46269	55.6406	-5.13592e-07	-1.77401e-06	-2.65033e-10	-1.77375e-06	0.271009	41413.5	6.18709	41407.3
46.4415	19.5552	11.1796	22.5253	-29.7565	10.8777	0.271088	-0.0046702	306.539	75.5093	1	11	0.00456938	0.000202856	0	3.6696e-05	0.000135881	5.98035e-06	-74.2536	0.0294808	0.00800052	0.0283744	-29.809	22.5463	19.5632	11.208	0.0385408	0.0220337	0.0443946	29.7565	75509.2	132079	152140	-60.2435	0.0000000E+000	0.0000000E+000	0.0000000E+000	60.2435	0.0000000E+000	0.0000000E+000	0.0000000E+000	-60.2435	0.0000000E+000	0.0000000E+000	0.0000000E+000	-29.7565	0.0000000E+000	0.0000000E+000	0.0000000E+000	29.7565	1.74918	60.2435	-1.11672e-06	-1.26604e-06	-6.34591e-10	-1.2654e-06	0.270953	58046.4	29.0953	58017.3
31.6296	22.9301	10.6845	25.2972	-24.9836	11.3076	0.271095	-0.00484113	470.947	84.0111	1	11	0.00456478	0.000180446	0	3.59083e-05	0.000250345	1.2589e-05	-5.26238	0.0697662	0.0694721	0.00639872	-24.9305	25.3629	22.9996	10.6909	0.0358312	0.0166959	0.0395301	24.9836	84011.1	180297	198909	-65.0164	0.0000000E+000	0.0000000E+000	0.0000000E+000	65.0164	0.0000000E+000	0.0000000E+000	0.0000000E+000	-65.0164	0.0000000E+000	0.0000000E+000	0.0000000E+000	-24.9836	0.0000000E+000	0.0000000E+000	0.0000000E+000	24.9836	2.14611	65.0164	-7.87698e-07	-1.31241e-06	-1.21195e-09	-1.31119e-06	0.270845	55998.3	51.712	55946.6
21.5517	25.7596	9.52547	27.4644	-20.2935	11.7285	0.271079	-0.00499232	775.268	93.2577	1	11	0.00454241	0.000165393	0	3.53812e-05	0.000231267	2.51367e-05	108.131	0.151982	-0.0472945	-0.144436	-20.0443	27.3702	25.7123	9.38103	0.0341507	0.0126283	0.0364108	20.2935	93257.7	252196	268886	-69.7065	0.0000000E+000	0.0000000E+000	0.0000000E+000	69.7065	0.0000000E+000	0.0000000E+000	0.0000000E+000	-69.7065	0.0000000E+000	0.0000000E+000	0.0000000E+000	-20.2935	0.0000000E+000	0.0000000E+000	0.0000000E+000	20.2935	2.70429	69.7065	-5.27114e-07	-1.35331e-06	-1.15456e-09	-1.35216e-06	0.270848	54299.2	46.3246	54252.9
14.6852	28.099	8.49152	29.354	-16.8148	12.1892	0.271098	-0.00419168	1276.31	106.805	1	11	0.00455613	0.000155213	0	3.51379e-05	0.00021219	8.06895e-06	-20.1479	0.0519862	0.048805	0.0179064	-16.8207	29.4059	28.1478	8.50943	0.0326104	0.00985487	0.0340669	16.8148	106805	353425	369211	-73.1852	0.0000000E+000	0.0000000E+000	0.0000000E+000	73.1852	0.0000000E+000	0.0000000E+000	0.0000000E+000	-73.1852	0.0000000E+000	0.0000000E+000	0.0000000E+000	-16.8148	0.0000000E+000	0.0000000E+000	0.0000000E+000	16.8148	3.30906	73.1852	-2.43318e-07	-1.13636e-06	-8.89433e-10	-1.13547e-06	0.270886	64675.4	50.6217	64624.7
10.0032	29.993	7.51933	30.9212	-14.0742	12.6398	0.271099	-0.00444937	2115.93	125.126	1	11	0.00456729	0.000147708	0	3.53133e-05	5.95716e-05	4.26688e-06	-11.3976	0.0288873	0.0283177	0.00570861	-14.0717	30.95	30.0213	7.52504	0.0313695	0.00786444	0.0323403	14.0742	125126	499101	514547	-75.9258	0.0000000E+000	0.0000000E+000	0.0000000E+000	75.9258	0.0000000E+000	0.0000000E+000	0.0000000E+000	-75.9258	0.0000000E+000	0.0000000E+000	0.0000000E+000	-14.0742	0.0000000E+000	0.0000000E+000	0.0000000E+000	14.0742	3.98878	75.9258	1.75416e-07	-1.20622e-06	-2.65056e-10	-1.20595e-06	0.271039	60929.6	13.3888	60916.2
6.81719	31.5109	6.71852	32.2192	-12.0359	12.9795	0.271104	-0.0028466	3474.89	151.098	1	11	0.00455948	0.000141514	0	3.49009e-05	0.000307577	7.18793e-06	-79.831	0.0507929	0.00896762	0.049995	-12.1195	32.2384	31.5199	6.76851	0.0303551	0.00647208	0.0310374	12.0359	151098	708674	724603	-77.9641	0.0000000E+000	0.0000000E+000	0.0000000E+000	77.9641	0.0000000E+000	0.0000000E+000	0.0000000E+000	-77.9641	0.0000000E+000	0.0000000E+000	0.0000000E+000	-12.0359	0.0000000E+000	0.0000000E+000	0.0000000E+000	12.0359	4.69016	77.9641	-4.12387e-07	-7.71726e-07	-8.75548e-10	-7.70851e-07	0.270797	95237.9	108.05	95129.8
4.63925	32.7516	6.20262	33.3337	-10.7239	13.4635	0.271101	-0.00361298	5530.92	191.505	1	11	0.00456394	0.000136917	0	3.30172e-05	-5.48923e-05	1.4286e-05	0.378061	0.104341	0.104339	-0.000688479	-10.6895	33.4361	32.8559	6.20193	0.0294757	0.00558222	0.0299996	10.7239	191505	1.0112e+06	1.02917e+06	-79.2761	0.0000000E+000	0.0000000E+000	0.0000000E+000	79.2761	0.0000000E+000	0.0000000E+000	0.0000000E+000	-79.2761	0.0000000E+000	0.0000000E+000	0.0000000E+000	-10.7239	0.0000000E+000	0.0000000E+000	0.0000000E+000	10.7239	5.28028	79.2761	-1.88372e-06	-9.79483e-07	1.98325e-10	-9.79681e-07	0.271156	75035.2	15.1931	75050.4
3.1604	34.1086	5.95227	34.6241	-9.89896	14.1564	0.271119	-0.00279763	8460.49	250.037	1	11	0.00456443	0.000131828	0	3.29844e-05	7.86489e-05	4.14732e-06	-95.0159	0.0314601	-0.0027506	0.0313396	-9.95083	34.6268	34.1059	5.98361	0.0284516	0.00496507	0.0288816	9.89896	250037	1.4328e+06	1.45445e+06	-80.101	0.0000000E+000	0.0000000E+000	0.0000000E+000	80.101	0.0000000E+000	0.0000000E+000	0.0000000E+000	-80.101	0.0000000E+000	0.0000000E+000	0.0000000E+000	-9.89896	0.0000000E+000	0.0000000E+000	0.0000000E+000	9.89896	5.73035	80.101	-3.27731e-08	-7.58491e-07	-2.20031e-10	-7.58271e-07	0.27104	96910.1	28.1126	96882
2.15577	35.288	5.73703	35.7513	-9.2342	15.16	0.271108	-0.00240262	12868.6	331.376	1	11	0.0045637	0.000127651	0	3.4623e-05	0.000135881	5.28872e-06	57.5389	0.0414311	0.0222372	-0.0349577	-9.17321	35.7677	35.3102	5.70207	0.0276085	0.00448851	0.027971	9.2342	331376	2.03827e+06	2.06503e+06	-80.7658	0.0000000E+000	0.0000000E+000	0.0000000E+000	80.7658	0.0000000E+000	0.0000000E+000	0.0000000E+000	-80.7658	0.0000000E+000	0.0000000E+000	0.0000000E+000	-9.2342	0.0000000E+000	0.0000000E+000	0.0000000E+000	9.2342	6.15092	80.7658	1.63857e-06	-6.51369e-07	-3.2647e-10	-6.51043e-07	0.270972	112839	56.5553	112782
1.46631	36.6092	5.65579	37.0435	-8.78224	17.3495	0.271106	-0.00280573	19191.2	447.366	1	12	0.00456292	0.000123177	0	3.4935e-05	-3.5815e-05	3.83031e-06	14.9958	0.0310959	0.030037	-0.00804604	-8.76286	37.072	36.6393	5.64774	0.0266788	0.00412162	0.0269953	8.78224	447365	2.89574e+06	2.9301e+06	-81.2178	0.0000000E+000	0.0000000E+000	0.0000000E+000	81.2178	0.0000000E+000	0.0000000E+000	0.0000000E+000	-81.2178	0.0000000E+000	0.0000000E+000	0.0000000E+000	-8.78224	0.0000000E+000	0.0000000E+000	0.0000000E+000	8.78224	6.47288	81.2178	3.12015e-07	-7.60649e-07	1.00487e-10	-7.6075e-07	0.271141	96625.6	12.7649	96638.4
1.00006	37.9574	5.61494	38.3704	-8.4146	19.4786	0.271103	-0.00247816	28343.1	606.938	1	12	0.00456333	0.000118928	0	3.12143e-05	0.00021219	4.03203e-06	58.1998	0.033903	0.0178655	-0.0288139	-8.36815	38.3839	37.9752	5.58613	0.0257812	0.00381375	0.0260617	8.4146	606938	4.10294e+06	4.14759e+06	-81.5854	0.0000000E+000	0.0000000E+000	0.0000000E+000	81.5854	0.0000000E+000	0.0000000E+000	0.0000000E+000	-81.5854	0.0000000E+000	0.0000000E+000	0.0000000E+000	-8.4146	0.0000000E+000	0.0000000E+000	0.0000000E+000	8.4146	6.76006	81.5854	-3.72071e-06	-6.71835e-07	-5.25841e-10	-6.7131e-07	0.27089	109397	85.624	109311
0.681362	39.28	5.5526	39.6706	-8.04598	22.5915	0.271103	-0.00227511	42067.4	824.141	1	12	0.0045679	0.000115146	0	2.41984e-05	0.000231267	2.68075e-06	-3.66627	0.0232813	0.0232337	0.00148872	-8.04341	39.6938	39.3033	5.55409	0.0249595	0.00352825	0.0252076	8.04598	824141	5.83012e+06	5.88808e+06	-81.954	0.0000000E+000	0.0000000E+000	0.0000000E+000	81.954	0.0000000E+000	0.0000000E+000	0.0000000E+000	-81.954	0.0000000E+000	0.0000000E+000	0.0000000E+000	-8.04598	0.0000000E+000	0.0000000E+000	0.0000000E+000	8.04598	7.07418	81.954	-7.0159e-06	-6.16791e-07	-5.26159e-10	-6.16264e-07	0.270872	119160	101.651	119059
0.464091	40.5943	5.4621	40.9601	-7.66332	27.147	0.271105	-0.0023392	62785.2	1116.49	1	12	0.00456138	0.000111361	0	1.49381e-05	0.000135881	3.91078e-06	-28.5471	0.0351179	0.0308485	0.0167822	-7.68082	40.9929	40.6251	5.47889	0.0241959	0.00325565	0.024414	7.66332	1.11649e+06	8.29774e+06	8.37252e+06	-82.3367	0.0000000E+000	0.0000000E+000	0.0000000E+000	82.3367	0.0000000E+000	0.0000000E+000	0.0000000E+000	-82.3367	0.0000000E+000	0.0000000E+000	0.0000000E+000	-7.66332	0.0000000E+000	0.0000000E+000	0.0000000E+000	7.66332	7.43199	82.3367	-9.26035e-06	-6.34171e-07	-3.17853e-10	-6.33853e-07	0.27097	115896	58.0885	115838
0.316193	41.9063	5.53323	42.27	-7.52171	33.823	0.271109	-0.00234817	90968.1	1558.77	1	12	0.00456593	0.000108018	0	7.40639e-06	7.86489e-05	2.60571e-06	19.9952	0.0241229	0.0226688	-0.0082486	-7.50661	42.2914	41.929	5.52498	0.0234539	0.0030968	0.0236574	7.52171	1.55877e+06	1.18054e+07	1.19079e+07	-82.4783	0.0000000E+000	0.0000000E+000	0.0000000E+000	82.4783	0.0000000E+000	0.0000000E+000	0.0000000E+000	-82.4783	0.0000000E+000	0.0000000E+000	0.0000000E+000	-7.52171	0.0000000E+000	0.0000000E+000	0.0000000E+000	7.52171	7.57358	82.4783	-7.53168e-06	-6.3661e-07	-1.84681e-10	-6.36425e-07	0.271031	115456	33.4937	115422
0.215268	43.0961	5.75507	43.4787	-7.60629	43.6164	0.271107	-0.00247375	128467	2250.81	1	12	0.00456269	0.000104941	0	5.89781e-06	0.000250345	3.37729e-06	12.8866	0.0321828	0.0313722	-0.00717747	-7.59145	43.5089	43.1275	5.74789	0.0227974	0.00304437	0.0229998	7.60629	2.2508e+06	1.68549e+07	1.70045e+07	-82.3937	0.0000000E+000	0.0000000E+000	0.0000000E+000	82.3937	0.0000000E+000	0.0000000E+000	0.0000000E+000	-82.3937	0.0000000E+000	0.0000000E+000	0.0000000E+000	-7.60629	0.0000000E+000	0.0000000E+000	0.0000000E+000	7.60629	7.48838	82.3937	-1.50858e-06	-6.70653e-07	-6.19291e-10	-6.70034e-07	0.270857	109593	101.2	109492
0.146929	44.2432	6.04339	44.654	-7.77817	57.9547	0.271108	-0.00232515	179239	3283.01	1	12	0.00456614	0.000102256	0	1.41646e-05	0.000650968	1.51388e-06	-7.171	0.0148048	0.014689	0.0018481	-7.77797	44.6688	44.2579	6.04524	0.0221884	0.00303082	0.0223944	7.77817	3.28302e+06	2.40347e+07	2.42579e+07	-82.2218	0.0000000E+000	0.0000000E+000	0.0000000E+000	82.2218	0.0000000E+000	0.0000000E+000	0.0000000E+000	-82.2218	0.0000000E+000	0.0000000E+000	0.0000000E+000	-7.77817	0.0000000E+000	0.0000000E+000	0.0000000E+000	7.77817	7.32092	82.2218	8.26675e-06	-6.30368e-07	-1.5136e-09	-6.28854e-07	0.270457	116598	279.968	116318
0.0999041	45.4884	6.49158	45.9493	-8.12175	79.0308	0.271109	-0.00175402	245407	4898.12	1	12	0.00456147	9.92717e-05	0	3.08552e-05	-9.30469e-05	2.10148e-06	-49.931	0.021169	0.0136267	0.0162	-8.13934	45.9651	45.5021	6.50778	0.0215448	0.00307463	0.0217631	8.12175	4.89812e+06	3.43226e+07	3.46703e+07	-81.8782	0.0000000E+000	0.0000000E+000	0.0000000E+000	81.8782	0.0000000E+000	0.0000000E+000	0.0000000E+000	-81.8782	0.0000000E+000	0.0000000E+000	0.0000000E+000	-8.12175	0.0000000E+000	0.0000000E+000	0.0000000E+000	8.12175	7.0073	81.8782	1.66907e-05	-4.75532e-07	1.63207e-10	-4.75695e-07	0.271202	154564	53.0476	154617
0.0680626	46.8894	7.20441	47.4397	-8.735	109.957	0.271105	-0.00116783	324574	7485.6	1	12	0.00456654	9.626e-05	0	4.8158e-05	0.000402963	3.01604e-06	-14.5568	0.0313322	0.0303264	0.00787501	-8.73884	47.4708	46.9197	7.21228	0.0208349	0.00320122	0.0210794	8.735	7.4856e+06	4.87195e+07	4.92913e+07	-81.265	0.0000000E+000	0.0000000E+000	0.0000000E+000	81.265	0.0000000E+000	0.0000000E+000	0.0000000E+000	-81.265	0.0000000E+000	0.0000000E+000	0.0000000E+000	-8.735	0.0000000E+000	0.0000000E+000	0.0000000E+000	8.735	6.50844	81.265	1.73028e-05	-3.16605e-07	-4.70592e-10	-3.16134e-07	0.270702	232145	345.053	231800
0.0464052	48.3753	8.33181	49.0875	-9.77234	155.308	0.271116	-0.000258839	411637	11859.1	1	12	0.00456534	9.3004e-05	0	5.05384e-05	0.000383886	3.45231e-06	-1.67899	0.03712	0.0371041	0.00108761	-9.76624	49.1243	48.4124	8.3329	0.0200762	0.00345778	0.0203718	9.77234	1.18591e+07	6.88549e+07	6.98687e+07	-80.2277	0.0000000E+000	0.0000000E+000	0.0000000E+000	80.2277	0.0000000E+000	0.0000000E+000	0.0000000E+000	-80.2277	0.0000000E+000	0.0000000E+000	0.0000000E+000	-9.77234	0.0000000E+000	0.0000000E+000	0.0000000E+000	9.77234	5.80609	80.2277	2.38034e-06	-7.01754e-08	-9.93647e-11	-7.0076e-08	0.270732	1.04743e+06	1483.11	1.04595e+06
0.0315922	49.8154	9.92651	50.7948	-11.2695	221.914	0.271111	0.00016124	507509	19382	1	12	0.00456759	8.99223e-05	0	9.83478e-06	2.1417e-05	2.33192e-06	26.3296	0.0259326	0.0232423	-0.011502	-11.2516	50.8154	49.8387	9.91501	0.0193075	0.00384731	0.019687	11.2695	1.9382e+07	9.7267e+07	9.91792e+07	-78.7305	0.0000000E+000	0.0000000E+000	0.0000000E+000	78.7305	0.0000000E+000	0.0000000E+000	0.0000000E+000	-78.7305	0.0000000E+000	0.0000000E+000	0.0000000E+000	-11.2695	0.0000000E+000	0.0000000E+000	0.0000000E+000	11.2695	5.01843	78.7305	-4.07036e-05	4.37139e-08	3.45327e-12	4.37105e-08	0.27109	1.68142e+06	132.827	1.68128e+06
0.0215268	51.453	11.959	52.8245	-13.0847	319.651	0.271104	0.000119777	618224	31685.8	1	12	0.00456588	8.64348e-05	0	-9.49851e-05	0.000288499	3.74122e-06	-0.527846	0.0432837	0.0432818	0.000398751	-13.0745	52.8668	51.4963	11.9594	0.0184391	0.00428572	0.0189306	13.0847	3.16858e+07	1.36327e+08	1.3996e+08	-76.9153	0.0000000E+000	0.0000000E+000	0.0000000E+000	76.9153	0.0000000E+000	0.0000000E+000	0.0000000E+000	-76.9153	0.0000000E+000	0.0000000E+000	0.0000000E+000	-13.0847	0.0000000E+000	0.0000000E+000	0.0000000E+000	13.0847	4.30245	76.9153	-0.00010482	3.24722e-08	3.45557e-11	3.24376e-08	0.270816	2.2634e+06	2408.63	2.26099e+06
0.0146812	53.6664	14.6475	55.6294	-15.2663	462.954	0.271101	-0.000301828	740107	51311.5	1	12	0.00456365	8.20366e-05	0	-0.000255312	-9.30469e-05	2.22659e-06	-6.8674	0.0271415	0.0269467	0.00324536	-15.2622	55.6563	53.6933	14.6508	0.0173418	0.00473321	0.0179761	15.2663	5.13115e+07	1.87998e+08	1.94874e+08	-74.7337	0.0000000E+000	0.0000000E+000	0.0000000E+000	74.7337	0.0000000E+000	0.0000000E+000	0.0000000E+000	-74.7337	0.0000000E+000	0.0000000E+000	0.0000000E+000	-15.2663	0.0000000E+000	0.0000000E+000	0.0000000E+000	15.2663	3.66385	74.7337	-0.000160327	-8.1826e-08	2.80842e-11	-8.18541e-08	0.271194	898198	308.278	898506
0.0100092	56.4395	18.6102	59.4286	-18.2493	673.135	0.271102	-0.000630843	854421	83787.9	1	12	0.00456378	7.67943e-05	0	-0.000405413	0.000135881	2.59458e-06	2.34005	0.0337861	0.0337579	-0.00137949	-18.2378	59.4602	56.4733	18.6088	0.0159806	0.00526937	0.0168269	18.2493	8.37878e+07	2.54106e+08	2.67563e+08	-71.7507	0.0000000E+000	0.0000000E+000	0.0000000E+000	71.7507	0.0000000E+000	0.0000000E+000	0.0000000E+000	-71.7507	0.0000000E+000	0.0000000E+000	0.0000000E+000	-18.2493	0.0000000E+000	0.0000000E+000	0.0000000E+000	18.2493	3.03273	71.7507	-0.000150101	-1.71023e-07	-8.57195e-11	-1.70937e-07	0.270966	429746	215.396	429530