File: txt/18721_R302_UA698_SOC00_C01.mpt
EC-Lab ASCII FILE
Nb header lines : 65

Potentio Electrochemical Impedance Spectroscopy

Run on channel : 1 (SN 66354)
User :
CE vs. WE compliance from -10 V to 10 V
Electrode connection : standard
Potential control : Ewe
Ewe ctrl range : min = -10.00 V, max = 10.00 V
Safety Limits :
	Do not start on E overload
Acquisition started on : 10/31/2025 10:59:19.911
Technique started on : 10/31/2025 10:59:21.822
Loaded Setting File :  C:\Users\Celltest\OneDrive - store-dot.com\Documents\EC-Lab\Data\@Biologic Test Protocols\anode half cell EIS SOC00.mps
Saved on :
	File : 18721_R302_UA698_SOC00_C01.mpr
	Directory : C:\Users\Celltest\OneDrive - store-dot.com\Documents\EC-Lab\Data\Charmaine\
	Host : 169.254.61.224
Device : VMP-3e (SN .003165)
Address : USB
EC-LAB for windows v11.62 (software)
Internet server v27.00 (firmware)
Command interpretor v12.03 (firmware)
Electrode material :
Initial state :
Electrolyte :
Comments :
Electrode surface area : 0.001 cm²
Characteristic mass : 0.001 g
Equivalent Weight : 0.000 g/eq.
Density : 0.000 g/cm3
Volume (V) : 0.001 cm³
Record Ece
Cycle Definition : Charge/Discharge alternance
Mode                Single sine
E (V)               0.0000
vs.                 Eoc
tE (h:m:s)          0:00:0.0000
record              0
dI                  0.000
unit dI             mA
dt (s)              0.000
fi                  100.000
unit fi             kHz
ff                  10.000
unit ff             mHz
Nd                  6
Points              per decade
spacing             Logarithmic
Va (mV)             5.0
pw                  0.10
Na                  2
corr                0
E range min (V)     -10.000
E range max (V)     10.000
I Range             Auto
Bandwidth           5
nc cycles           0
goto Ns'            0
nr cycles           0
inc. cycle          0

freq/Hz	Re(Z)/Ohm	-Im(Z)/Ohm	|Z|/Ohm	Phase(Z)/deg	time/s	<Ewe>/V	<I>/mA	Cs/µF	Cp/µF	cycle number	I Range	|Ewe|/V	|I|/A	Ns	(Q-Qo)/mA.h	<Ece>/V	|Ece|/V	Phase(Zce)/deg	|Zce|/Ohm	Re(Zce)/Ohm	-Im(Zce)/Ohm	Phase(Zwe-ce)/deg	|Zwe-ce|/Ohm	Re(Zwe-ce)/Ohm	-Im(Zwe-ce)/Ohm	Re(Y)/Ohm-1	Im(Y)/Ohm-1	|Y|/Ohm-1	Phase(Y)/deg	Re(C)/nF	Im(C)/nF	|C|/nF	Phase(C)/deg	Re(M)	Im(M)	|M|	Phase(M)/deg	Re(Permittivity)	Im(Permittivity)	|Permittivity|	Phase(Permittivity)/deg	Re(Resistivity)/Ohm.cm	Im(Resistivity)/Ohm.cm	|Resistivity|/Ohm.cm	Phase(Resistivity)/deg	Re(Conductivity)/mS/cm	Im(Conductivity)/mS/cm	|Conductivity|/mS/cm	Phase(Conductivity)/deg	Tan(Delta)	Loss Angle(Delta)/deg	dq/mA.h	Pwe/W	Pce/W	Pwe-ce/W	<Ewe-Ece>/V	Rwe/Ohm	Rce/Ohm	Rwe-ce/Ohm		Ewe-Ece/V
100004	1.26917	0.648754	1.42537	-27.0745	1.91051	0.264325	0.0710022	2.45315	0.508194	1	9	0.00481153	0.00337564	0	1.39242e-05	-7.39696e-05	4.2086e-05	82.5989	0.0124675	0.00160601	-0.0123637	-26.6012	1.42122	1.27078	0.636391	0.624691	0.31932	0.701573	27.0745	508.194	994.19	1116.55	-62.9255	0.0000000E+000	0.0000000E+000	0.0000000E+000	62.9255	0.0000000E+000	0.0000000E+000	0.0000000E+000	-62.9255	0.0000000E+000	0.0000000E+000	0.0000000E+000	-27.0745	0.0000000E+000	0.0000000E+000	0.0000000E+000	27.0745	1.95632	62.9255	1.39242e-05	1.87677e-05	-5.252e-09	1.87729e-05	0.264399	3722.78	1.04179	3723.82
68132	1.44438	0.735264	1.62075	-26.9785	2.41756	0.264326	0.0753237	3.17706	0.653851	1	9	0.00504458	0.00311249	0	3.30638e-05	-3.5815e-05	2.89327e-05	77.3571	0.00929567	0.00203457	-0.00907028	-26.6597	1.61848	1.44641	0.726194	0.549854	0.279905	0.616997	26.9785	653.851	1284.45	1441.29	-63.0215	0.0000000E+000	0.0000000E+000	0.0000000E+000	63.0215	0.0000000E+000	0.0000000E+000	0.0000000E+000	-63.0215	0.0000000E+000	0.0000000E+000	0.0000000E+000	-26.9785	0.0000000E+000	0.0000000E+000	0.0000000E+000	26.9785	1.96443	63.0215	1.91396e-05	1.991e-05	-2.69772e-09	1.99127e-05	0.264362	3509.2	0.475481	3509.67
46420.4	1.65124	0.804702	1.83688	-25.9815	2.92654	0.264318	0.0744296	4.26066	0.817683	1	9	0.00507475	0.0027627	0	2.97244e-05	7.86489e-05	2.04233e-05	50.9054	0.00739252	0.00466174	-0.00573737	-25.7571	1.83857	1.6559	0.798965	0.489382	0.238492	0.544401	25.9815	817.683	1677.87	1866.51	-64.0185	0.0000000E+000	0.0000000E+000	0.0000000E+000	64.0185	0.0000000E+000	0.0000000E+000	0.0000000E+000	-64.0185	0.0000000E+000	0.0000000E+000	0.0000000E+000	-25.9815	0.0000000E+000	0.0000000E+000	0.0000000E+000	25.9815	2.05199	64.0185	-3.33937e-06	1.96731e-05	5.8538e-09	1.96673e-05	0.26424	3551.25	1.05669	3550.2
31621.1	1.85446	0.87602	2.05096	-25.2854	3.43354	0.264331	0.0656376	5.74551	1.0482	1	9	0.00500949	0.00244252	0	4.92186e-05	0.000135881	7.61083e-06	18.1373	0.00311598	0.00296115	-0.000969989	-25.2256	2.05322	1.85742	0.87505	0.440864	0.208258	0.487578	25.2854	1048.2	2218.95	2454.07	-64.7146	0.0000000E+000	0.0000000E+000	0.0000000E+000	64.7146	0.0000000E+000	0.0000000E+000	0.0000000E+000	-64.7146	0.0000000E+000	0.0000000E+000	0.0000000E+000	-25.2854	0.0000000E+000	0.0000000E+000	0.0000000E+000	25.2854	2.11691	64.7146	1.94942e-05	1.735e-05	8.91889e-09	1.73411e-05	0.264195	4027.12	2.07017	4025.05
21544.7	2.07335	0.939089	2.27611	-24.3673	3.69453	0.26432	0.063216	7.86635	1.33906	1	9	0.00528452	0.00232173	0	5.63518e-05	0.000288499	7.34348e-06	147	0.00316293	-0.00265265	-0.00172266	-24.3553	2.27299	2.0707	0.937367	0.400208	0.181267	0.439346	24.3673	1339.06	2956.42	3245.53	-65.6327	0.0000000E+000	0.0000000E+000	0.0000000E+000	65.6327	0.0000000E+000	0.0000000E+000	0.0000000E+000	-65.6327	0.0000000E+000	0.0000000E+000	0.0000000E+000	-24.3673	0.0000000E+000	0.0000000E+000	0.0000000E+000	24.3673	2.20784	65.6327	7.13315e-06	1.67093e-05	1.82378e-08	1.6691e-05	0.264032	4181.22	4.5637	4176.66
14678.6	2.28737	1.01031	2.50056	-23.8305	4.07752	0.264319	0.0700336	10.7321	1.75192	1	9	0.00507736	0.00203049	0	6.41059e-05	0.000174035	1.0499e-05	-27.6836	0.00517067	0.00457876	0.00240223	-23.8385	2.50571	2.29195	1.01271	0.365817	0.161577	0.399911	23.8305	1751.92	3966.42	4336.1	-66.1695	0.0000000E+000	0.0000000E+000	0.0000000E+000	66.1695	0.0000000E+000	0.0000000E+000	0.0000000E+000	-66.1695	0.0000000E+000	0.0000000E+000	0.0000000E+000	-23.8305	0.0000000E+000	0.0000000E+000	0.0000000E+000	23.8305	2.26404	66.1695	7.75406e-06	1.85112e-05	1.21883e-08	1.8499e-05	0.264145	3774.18	2.48503	3771.7
10002.2	2.49948	1.08472	2.7247	-23.4598	4.33654	0.26432	0.0689904	14.6692	2.3249	1	9	0.00463621	0.00170155	0	6.82346e-05	5.95716e-05	7.17561e-06	-112.442	0.00421711	-0.00160989	0.00389772	-23.5485	2.72478	2.49787	1.08862	0.336675	0.14611	0.367013	23.4598	2324.9	5357.16	5839.89	-66.5402	0.0000000E+000	0.0000000E+000	0.0000000E+000	66.5402	0.0000000E+000	0.0000000E+000	0.0000000E+000	-66.5402	0.0000000E+000	0.0000000E+000	0.0000000E+000	-23.4598	0.0000000E+000	0.0000000E+000	0.0000000E+000	23.4598	2.30426	66.5402	4.12873e-06	1.82356e-05	4.10987e-09	1.82315e-05	0.264261	3831.26	0.863476	3830.4
6810.42	2.70709	1.20711	2.96403	-24.0325	4.71952	0.264313	0.0689904	19.3597	3.21092	1	9	0.00482135	0.00162662	0	7.53993e-05	2.1417e-05	3.60376e-05	-95.4135	0.0221549	-0.00209016	0.0220561	-24.4373	2.97118	2.705	1.22917	0.308133	0.137399	0.337378	24.0325	3210.92	7200.85	7884.31	-65.9675	0.0000000E+000	0.0000000E+000	0.0000000E+000	65.9675	0.0000000E+000	0.0000000E+000	0.0000000E+000	-65.9675	0.0000000E+000	0.0000000E+000	0.0000000E+000	-24.0325	0.0000000E+000	0.0000000E+000	0.0000000E+000	24.0325	2.24262	65.9675	7.16474e-06	1.82351e-05	1.47756e-09	1.82336e-05	0.264292	3831.16	0.310434	3830.85
4646	2.92355	1.36463	3.22635	-25.0218	4.98463	0.264282	0.0463398	25.103	4.49089	1	9	0.00472621	0.00146488	0	7.79236e-05	0.000193113	4.24065e-06	12.7206	0.00289489	0.00282383	-0.000637446	-24.9904	3.22864	2.92637	1.36399	0.280858	0.131097	0.309948	25.0218	4490.89	9621.17	10617.7	-64.9782	0.0000000E+000	0.0000000E+000	0.0000000E+000	64.9782	0.0000000E+000	0.0000000E+000	0.0000000E+000	-64.9782	0.0000000E+000	0.0000000E+000	0.0000000E+000	-25.0218	0.0000000E+000	0.0000000E+000	0.0000000E+000	25.0218	2.14237	64.9782	2.52432e-06	1.22468e-05	8.9488e-09	1.22378e-05	0.264089	5703.13	4.16732	5698.96
3163.08	3.18321	1.62867	3.57567	-27.0963	5.35768	0.264098	0.0531946	30.8942	6.40958	1	9	0.00465503	0.00130186	0	8.43341e-05	0.000174035	9.3934e-06	-41.8738	0.00721535	0.00537267	0.00481618	-27.1257	3.58264	3.18858	1.63349	0.248972	0.127385	0.279668	27.0963	6409.57	12527.4	14071.9	-62.9037	0.0000000E+000	0.0000000E+000	0.0000000E+000	62.9037	0.0000000E+000	0.0000000E+000	0.0000000E+000	-62.9037	0.0000000E+000	0.0000000E+000	0.0000000E+000	-27.0963	0.0000000E+000	0.0000000E+000	0.0000000E+000	27.0963	1.95448	62.9037	6.41045e-06	1.40486e-05	9.25774e-09	1.40393e-05	0.263924	4964.76	3.27167	4961.48
2155.69	3.47386	1.9676	3.99239	-29.5273	6.0538	0.264224	-0.00993645	37.5229	9.11391	1	10	0.00480432	0.00120337	0	9.13832e-05	4.04943e-05	4.50817e-06	62.969	0.00374629	0.00170258	-0.00333705	-29.4736	3.99223	3.47557	1.96427	0.217945	0.123444	0.250476	29.5273	9113.91	16090.9	18492.7	-60.4727	0.0000000E+000	0.0000000E+000	0.0000000E+000	60.4727	0.0000000E+000	0.0000000E+000	0.0000000E+000	-60.4727	0.0000000E+000	0.0000000E+000	0.0000000E+000	-29.5273	0.0000000E+000	0.0000000E+000	0.0000000E+000	29.5273	1.76553	60.4727	7.04906e-06	-2.62545e-06	-4.02369e-10	-2.62504e-06	0.264183	26591.4	4.07532	26587.3
1468.59	3.80277	2.44018	4.51836	-32.6877	6.50507	0.264227	-0.0108682	44.4117	12.9533	1	10	0.00473933	0.00104891	0	9.0416e-05	0.000135881	6.99677e-06	-91.3522	0.00667055	-0.000157411	0.00666869	-32.7599	4.52183	3.80261	2.44685	0.186268	0.119526	0.221319	32.6877	12953.3	20186.4	23985	-57.3123	0.0000000E+000	0.0000000E+000	0.0000000E+000	57.3123	0.0000000E+000	0.0000000E+000	0.0000000E+000	-57.3123	0.0000000E+000	0.0000000E+000	0.0000000E+000	-32.6877	0.0000000E+000	0.0000000E+000	0.0000000E+000	32.6877	1.55839	57.3123	-9.67127e-07	-2.87167e-06	-1.47678e-09	-2.8702e-06	0.264092	24312	12.5026	24299.5
1000.32	4.19038	3.07684	5.19867	-36.2885	6.95577	0.264221	-0.0101079	51.7102	18.1134	1	10	0.00467049	0.000898401	0	8.85718e-05	2.1417e-05	1.1342e-05	7.68548	0.0126247	0.0125113	-0.00168836	-36.192	5.20776	4.20289	3.07515	0.155049	0.113847	0.192357	36.2885	18113.4	24668.9	30604.7	-53.7115	0.0000000E+000	0.0000000E+000	0.0000000E+000	53.7115	0.0000000E+000	0.0000000E+000	0.0000000E+000	-53.7115	0.0000000E+000	0.0000000E+000	0.0000000E+000	-36.2885	0.0000000E+000	0.0000000E+000	0.0000000E+000	36.2885	1.36191	53.7115	-1.84421e-06	-2.67072e-06	-2.1648e-10	-2.6705e-06	0.2642	26140.1	2.11883	26138
681.09	4.70504	3.95322	6.14536	-40.0373	7.40657	0.264221	-0.0101377	59.1105	24.4609	1	10	0.00463362	0.000754003	0	8.78601e-05	2.1417e-05	7.74974e-06	45.6706	0.0102781	0.00718217	-0.0073523	-39.9418	6.14613	4.71222	3.94587	0.124586	0.104678	0.162725	40.0373	24460.9	29112.9	38025	-49.9627	0.0000000E+000	0.0000000E+000	0.0000000E+000	49.9627	0.0000000E+000	0.0000000E+000	0.0000000E+000	-49.9627	0.0000000E+000	0.0000000E+000	0.0000000E+000	-40.0373	0.0000000E+000	0.0000000E+000	0.0000000E+000	40.0373	1.19018	49.9627	-7.11701e-07	-2.6786e-06	-2.17119e-10	-2.67838e-06	0.2642	26063.2	2.1126	26061.1
463.961	5.40721	5.12106	7.44736	-43.4431	7.85831	0.264229	-0.00896746	66.9852	31.6733	1	10	0.00460399	0.000618204	0	8.6564e-05	9.77262e-05	1.03856e-05	102.011	0.0167996	-0.0034961	-0.0164318	-43.3697	7.43353	5.40372	5.10463	0.0974919	0.0923325	0.134276	43.4431	31673.3	33443.2	46061.3	-46.5569	0.0000000E+000	0.0000000E+000	0.0000000E+000	46.5569	0.0000000E+000	0.0000000E+000	0.0000000E+000	-46.5569	0.0000000E+000	0.0000000E+000	0.0000000E+000	-43.4431	0.0000000E+000	0.0000000E+000	0.0000000E+000	43.4431	1.05588	46.5569	-1.29613e-06	-2.36946e-06	-8.76356e-10	-2.36859e-06	0.264131	29465.3	10.8979	29454.4
316.316	6.43808	6.64551	9.25266	-45.9083	8.30604	0.264222	-0.0102756	75.7131	39.0566	1	10	0.00459074	0.000496153	0	8.55656e-05	-3.5815e-05	4.67628e-06	13.248	0.00942507	0.00917425	-0.00215991	-45.8582	9.25749	6.44726	6.64335	0.075201	0.0776239	0.108077	45.9083	39056.6	37837.5	54379.2	-44.0917	0.0000000E+000	0.0000000E+000	0.0000000E+000	44.0917	0.0000000E+000	0.0000000E+000	0.0000000E+000	-44.0917	0.0000000E+000	0.0000000E+000	0.0000000E+000	-45.9083	0.0000000E+000	0.0000000E+000	0.0000000E+000	45.9083	0.968787	44.0917	-9.98358e-07	-2.71505e-06	3.68021e-10	-2.71542e-06	0.264258	25713.5	3.48543	25717
215.345	7.94624	8.53946	11.6647	-47.0609	8.75559	0.264217	-0.0101974	86.5477	46.3842	1	10	0.00457271	0.000392013	0	8.41523e-05	2.1417e-05	6.45818e-06	108.345	0.0164744	-0.00518507	-0.0156372	-47.0271	11.6497	7.94105	8.52382	0.0584003	0.0627601	0.0857288	47.0609	46384.2	43161.9	63359.7	-42.9391	0.0000000E+000	0.0000000E+000	0.0000000E+000	42.9391	0.0000000E+000	0.0000000E+000	0.0000000E+000	-42.9391	0.0000000E+000	0.0000000E+000	0.0000000E+000	-47.0609	0.0000000E+000	0.0000000E+000	0.0000000E+000	47.0609	0.930531	42.9391	-1.41332e-06	-2.69432e-06	-2.18396e-10	-2.6941e-06	0.264196	25910.4	2.10024	25908.3
146.737	10.171	10.7066	14.7675	-46.4696	9.20155	0.264218	-0.0104173	101.304	53.2494	1	10	0.00457023	0.000309478	0	8.2649e-05	0.000288499	1.63584e-05	1.53248	0.0528581	0.0528391	-0.00141362	-46.3176	14.8029	10.2238	10.7052	0.0466388	0.0490948	0.0677161	46.4696	53249.4	50585.5	73446.6	-43.5304	0.0000000E+000	0.0000000E+000	0.0000000E+000	43.5304	0.0000000E+000	0.0000000E+000	0.0000000E+000	-43.5304	0.0000000E+000	0.0000000E+000	0.0000000E+000	-46.4696	0.0000000E+000	0.0000000E+000	0.0000000E+000	46.4696	0.949973	43.5304	-1.50327e-06	-2.75242e-06	-3.00537e-09	-2.74942e-06	0.263929	25363.5	27.6944	25335.8
100.032	13.4055	12.837	18.5606	-43.759	9.65283	0.264217	-0.0106185	123.941	59.2871	1	10	0.00456604	0.000246006	0	8.15891e-05	7.86489e-05	1.62671e-05	-59.8009	0.0661247	0.0332612	0.0571505	-43.8152	18.6242	13.4388	12.8942	0.0389132	0.0372631	0.0538774	43.759	59287.1	61912.5	85721.2	-46.241	0.0000000E+000	0.0000000E+000	0.0000000E+000	46.241	0.0000000E+000	0.0000000E+000	0.0000000E+000	-46.241	0.0000000E+000	0.0000000E+000	0.0000000E+000	-43.759	0.0000000E+000	0.0000000E+000	0.0000000E+000	43.759	1.04428	46.241	-1.05997e-06	-2.80559e-06	-8.35134e-10	-2.80475e-06	0.264138	24882.7	7.40677	24875.2
68.104	17.7983	14.6649	23.0616	-39.4868	10.3664	0.264267	-0.00206942	159.356	64.4387	1	11	0.00457545	0.000198401	0	8.1144e-05	-0.000188433	5.54249e-06	-74.9125	0.0279358	0.00727149	0.0269728	-39.527	23.0844	17.8056	14.6919	0.0334656	0.0275739	0.0433621	39.4868	64438.7	78207.1	101335	-50.5132	0.0000000E+000	0.0000000E+000	0.0000000E+000	50.5132	0.0000000E+000	0.0000000E+000	0.0000000E+000	-50.5132	0.0000000E+000	0.0000000E+000	0.0000000E+000	-39.4868	0.0000000E+000	0.0000000E+000	0.0000000E+000	39.4868	1.21367	50.5132	-4.45026e-07	-5.46879e-07	3.89948e-10	-5.47269e-07	0.264455	127701	91.0562	127792
46.4415	22.7326	15.4377	27.479	-34.1804	10.8026	0.26427	-0.00245298	221.988	70.064	1	11	0.00457262	0.000166404	0	8.07612e-05	-0.000169356	1.11257e-05	-81.617	0.0668597	0.00974747	0.0661454	-34.2829	27.5243	22.7424	15.5039	0.0301056	0.0204447	0.0363914	34.1804	70064	103172	124713	-55.8196	0.0000000E+000	0.0000000E+000	0.0000000E+000	55.8196	0.0000000E+000	0.0000000E+000	0.0000000E+000	-55.8196	0.0000000E+000	0.0000000E+000	0.0000000E+000	-34.1804	0.0000000E+000	0.0000000E+000	0.0000000E+000	34.1804	1.47254	55.8196	-3.82869e-07	-6.4825e-07	4.15428e-10	-6.48665e-07	0.264439	107734	69.0409	107803
31.6296	27.6439	14.9469	31.426	-28.3998	11.2325	0.264279	-0.00230924	336.648	76.1551	1	11	0.00456051	0.000145119	0	8.07164e-05	-3.5815e-05	1.06425e-05	-25.5294	0.0733368	0.0661765	0.0316063	-28.3932	31.4993	27.7101	14.9785	0.0279911	0.0151346	0.0318207	28.3998	76155.1	140847	160117	-61.6002	0.0000000E+000	0.0000000E+000	0.0000000E+000	61.6002	0.0000000E+000	0.0000000E+000	0.0000000E+000	-61.6002	0.0000000E+000	0.0000000E+000	0.0000000E+000	-28.3998	0.0000000E+000	0.0000000E+000	0.0000000E+000	28.3998	1.84947	61.6002	-4.48121e-08	-6.10283e-07	8.27054e-11	-6.10366e-07	0.264314	114444	15.5094	114459
21.5517	31.9967	13.3339	34.6639	-22.6227	11.6535	0.264282	-0.00235654	553.837	81.9483	1	11	0.00454888	0.000131228	0	8.05543e-05	-0.000112124	2.67829e-05	13.6664	0.204094	0.198315	-0.048221	-22.424	34.8286	32.1951	13.2856	0.0266288	0.0110969	0.0288485	22.6227	81948.3	196648	213040	-67.3773	0.0000000E+000	0.0000000E+000	0.0000000E+000	67.3773	0.0000000E+000	0.0000000E+000	0.0000000E+000	-67.3773	0.0000000E+000	0.0000000E+000	0.0000000E+000	-22.6227	0.0000000E+000	0.0000000E+000	0.0000000E+000	22.6227	2.39966	67.3773	-1.62092e-07	-6.22789e-07	2.64225e-10	-6.23054e-07	0.264394	112148	47.5801	112196
14.6852	35.4972	11.5252	37.3214	-17.9876	12.1142	0.264278	-0.00199532	940.356	89.676	1	11	0.00456704	0.000122371	0	8.09139e-05	0.000174035	4.27244e-06	77.126	0.0349139	0.0077791	-0.0340362	-17.9342	37.3183	35.505	11.4912	0.0254847	0.00827436	0.0267943	17.9876	89676	276198	290392	-72.0124	0.0000000E+000	0.0000000E+000	0.0000000E+000	72.0124	0.0000000E+000	0.0000000E+000	0.0000000E+000	-72.0124	0.0000000E+000	0.0000000E+000	0.0000000E+000	-17.9876	0.0000000E+000	0.0000000E+000	0.0000000E+000	17.9876	3.07996	72.0124	3.59614e-07	-5.27318e-07	-3.47256e-10	-5.2697e-07	0.264104	132449	87.222	132362
10.0032	37.9428	9.49519	39.1128	-14.0497	12.5648	0.264275	-0.00209177	1675.63	98.7522	1	11	0.00456106	0.000116613	0	7.99662e-05	-0.000150279	9.57884e-06	-18.4135	0.0821421	0.0779366	0.0259464	-14.0589	39.1947	38.0207	9.52114	0.0248022	0.00620677	0.0255671	14.0497	98752.2	394614	406782	-75.9503	0.0000000E+000	0.0000000E+000	0.0000000E+000	75.9503	0.0000000E+000	0.0000000E+000	0.0000000E+000	-75.9503	0.0000000E+000	0.0000000E+000	0.0000000E+000	-14.0497	0.0000000E+000	0.0000000E+000	0.0000000E+000	14.0497	3.996	75.9503	-9.47668e-07	-5.528e-07	3.14348e-10	-5.53115e-07	0.264425	126340	71.8431	126412
6.81719	39.5843	7.76213	40.3382	-11.0944	12.9045	0.264286	-0.000908678	3007.7	111.369	1	11	0.00453927	0.00011253	0	8.09113e-05	-0.000245665	6.63228e-06	-57.2499	0.0589378	0.0318839	0.0495689	-11.1547	40.379	39.6162	7.8117	0.0243271	0.00477032	0.0247904	11.0944	111369	567944	578760	-78.9056	0.0000000E+000	0.0000000E+000	0.0000000E+000	78.9056	0.0000000E+000	0.0000000E+000	0.0000000E+000	-78.9056	0.0000000E+000	0.0000000E+000	0.0000000E+000	-11.0944	0.0000000E+000	0.0000000E+000	0.0000000E+000	11.0944	5.09967	78.9056	9.45133e-07	-2.40151e-07	2.23231e-10	-2.40374e-07	0.264532	290847	270.355	291117
4.63925	41.1629	6.45983	41.6667	-8.91887	13.3885	0.264284	-0.00137305	5310.69	127.648	1	11	0.00457029	0.000109687	0	8.01067e-05	2.1417e-05	1.23372e-05	-12.0168	0.112477	0.110012	0.0234174	-8.92721	41.779	41.2729	6.48324	0.0237098	0.00372086	0.024	8.91887	127648	813392	823348	-81.0811	0.0000000E+000	0.0000000E+000	0.0000000E+000	81.0811	0.0000000E+000	0.0000000E+000	0.0000000E+000	-81.0811	0.0000000E+000	0.0000000E+000	0.0000000E+000	-8.91887	0.0000000E+000	0.0000000E+000	0.0000000E+000	8.91887	6.37213	81.0811	-8.04635e-07	-3.62875e-07	-2.94065e-11	-3.62846e-07	0.264263	192480	15.5981	192464
3.1604	42.1353	5.51097	42.4941	-7.45155	14.0814	0.264283	-0.000747246	9137.99	153.691	1	11	0.00456237	0.000107365	0	7.86044e-05	9.77262e-05	8.07409e-06	72.6834	0.0752025	0.0223841	-0.071794	-7.35168	42.5071	42.1576	5.43917	0.0233339	0.0030519	0.0235327	7.45155	153691	1.17508e+06	1.18509e+06	-82.5484	0.0000000E+000	0.0000000E+000	0.0000000E+000	82.5484	0.0000000E+000	0.0000000E+000	0.0000000E+000	-82.5484	0.0000000E+000	0.0000000E+000	0.0000000E+000	-7.45155	0.0000000E+000	0.0000000E+000	0.0000000E+000	7.45155	7.64571	82.5484	-1.50236e-06	-1.97485e-07	-7.30255e-11	-1.97412e-07	0.264186	353676	130.782	353546
2.15577	43.0667	4.927	43.3477	-6.52649	15.085	0.264285	-0.000201972	14984.3	193.584	1	11	0.00456234	0.00010525	0	7.84692e-05	0.000116803	6.62811e-06	-76.4881	0.062975	0.014714	0.0612319	-6.60465	43.3693	43.0815	4.98824	0.0229198	0.00262211	0.0230693	6.52649	193584	1.69211e+06	1.70315e+06	-83.4735	0.0000000E+000	0.0000000E+000	0.0000000E+000	83.4735	0.0000000E+000	0.0000000E+000	0.0000000E+000	-83.4735	0.0000000E+000	0.0000000E+000	0.0000000E+000	-6.52649	0.0000000E+000	0.0000000E+000	0.0000000E+000	6.52649	8.74096	83.4735	-1.35174e-07	-5.33783e-08	-2.35911e-11	-5.33547e-08	0.264168	1.30852e+06	578.314	1.30794e+06
1.46631	43.8834	4.61725	44.1256	-6.00635	17.2744	0.264294	-0.000795764	23507.7	257.392	1	12	0.0045633	0.000103416	0	8.05032e-05	0.000174035	3.16646e-06	-0.705461	0.0306187	0.0306164	0.000376987	-6.00268	44.1561	43.914	4.61763	0.0225381	0.00237138	0.0226626	6.00635	257392	2.44632e+06	2.45982e+06	-83.9937	0.0000000E+000	0.0000000E+000	0.0000000E+000	83.9937	0.0000000E+000	0.0000000E+000	0.0000000E+000	-83.9937	0.0000000E+000	0.0000000E+000	0.0000000E+000	-6.00635	0.0000000E+000	0.0000000E+000	0.0000000E+000	6.00635	9.50423	83.9937	2.03403e-06	-2.10315e-07	-1.38491e-10	-2.10177e-07	0.26412	332125	218.702	331907
1.00006	44.7813	4.36493	44.9935	-5.56716	19.403	0.264288	-0.000772974	36459.9	343.138	1	12	0.00456192	0.000101391	0	8.2619e-05	-0.000188433	3.37963e-06	14.2408	0.0333328	0.0323085	-0.00819978	-5.55278	45.0249	44.8136	4.35673	0.0221206	0.00215614	0.0222254	5.56716	343138	3.52037e+06	3.53706e+06	-84.4328	0.0000000E+000	0.0000000E+000	0.0000000E+000	84.4328	0.0000000E+000	0.0000000E+000	0.0000000E+000	-84.4328	0.0000000E+000	0.0000000E+000	0.0000000E+000	-5.56716	0.0000000E+000	0.0000000E+000	0.0000000E+000	5.56716	10.2593	84.4328	2.1158e-06	-2.04288e-07	1.45654e-10	-2.04433e-07	0.264476	341910	243.777	342154
0.681362	45.759	4.44551	45.9745	-5.54889	22.5152	0.264285	-0.000602474	52543.7	491.281	1	12	0.0045661	9.93182e-05	0	8.28558e-05	0.000326654	4.33423e-06	-36.6687	0.0436399	0.0350036	0.0260611	-5.57698	46.0118	45.794	4.47157	0.0216493	0.00210324	0.0217512	5.54889	491281	5.05691e+06	5.08072e+06	-84.4511	0.0000000E+000	0.0000000E+000	0.0000000E+000	84.4511	0.0000000E+000	0.0000000E+000	0.0000000E+000	-84.4511	0.0000000E+000	0.0000000E+000	0.0000000E+000	-5.54889	0.0000000E+000	0.0000000E+000	0.0000000E+000	5.54889	10.2933	84.4511	2.36791e-07	-1.59225e-07	-1.96801e-10	-1.59028e-07	0.263959	438667	542.187	438124
0.464091	46.6955	4.5497	46.9166	-5.56495	27.0717	0.264289	-0.000339086	75376.3	708.836	1	12	0.00456399	9.72787e-05	0	7.87684e-05	0.000383886	3.24449e-06	-45.6785	0.0333525	0.0233029	0.0238614	-5.59118	46.9422	46.7188	4.57356	0.0212139	0.00206694	0.0213144	5.56495	708836	7.2751e+06	7.30955e+06	-84.4351	0.0000000E+000	0.0000000E+000	0.0000000E+000	84.4351	0.0000000E+000	0.0000000E+000	0.0000000E+000	-84.4351	0.0000000E+000	0.0000000E+000	0.0000000E+000	-5.56495	0.0000000E+000	0.0000000E+000	0.0000000E+000	5.56495	10.2634	84.4351	-4.08742e-06	-8.96166e-08	-1.3017e-10	-8.94865e-08	0.263905	779417	1132.12	778285
0.316193	47.6928	4.67506	47.9214	-5.5985	33.7452	0.264285	-0.000316076	107666	1024.7	1	12	0.00456162	9.51896e-05	0	6.95321e-05	-0.000245665	2.9993e-06	13.4554	0.0315087	0.0306438	-0.00733172	-5.58621	47.9512	47.7234	4.66773	0.020768	0.00203577	0.0208675	5.5985	1.0247e+06	1.04535e+07	1.05036e+07	-84.4015	0.0000000E+000	0.0000000E+000	0.0000000E+000	84.4015	0.0000000E+000	0.0000000E+000	0.0000000E+000	-84.4015	0.0000000E+000	0.0000000E+000	0.0000000E+000	-5.5985	0.0000000E+000	0.0000000E+000	0.0000000E+000	5.5985	10.2015	84.4015	-9.23629e-06	-8.35341e-08	7.76489e-11	-8.36118e-08	0.264531	836144	777.235	836921
0.215268	48.803	4.8689	49.0453	-5.69734	43.5385	0.264289	-0.000482678	151849	1496.5	1	12	0.00456377	9.30521e-05	0	5.73664e-05	0.000345731	5.19114e-06	5.76988	0.0557875	0.0555049	-0.0056085	-5.68439	49.0999	48.8585	4.86329	0.0202886	0.00202412	0.0203893	5.69734	1.4965e+06	1.50001e+07	1.50745e+07	-84.3027	0.0000000E+000	0.0000000E+000	0.0000000E+000	84.3027	0.0000000E+000	0.0000000E+000	0.0000000E+000	-84.3027	0.0000000E+000	0.0000000E+000	0.0000000E+000	-5.69734	0.0000000E+000	0.0000000E+000	0.0000000E+000	5.69734	10.0234	84.3027	-1.21657e-05	-1.27567e-07	-1.66877e-10	-1.274e-07	0.263943	547547	716.277	546831
0.146929	49.9482	5.22997	50.2212	-5.97754	57.877	0.264283	-0.000873286	207116	2246.14	1	12	0.00456499	9.08977e-05	0	4.74256e-05	0.000269422	1.44105e-06	42.535	0.0158535	0.0116819	-0.0107176	-5.96399	50.2317	49.9599	5.21925	0.0198036	0.0020736	0.0199119	5.97754	2.24614e+06	2.14515e+07	2.15688e+07	-84.0225	0.0000000E+000	0.0000000E+000	0.0000000E+000	84.0225	0.0000000E+000	0.0000000E+000	0.0000000E+000	-84.0225	0.0000000E+000	0.0000000E+000	0.0000000E+000	-5.97754	0.0000000E+000	0.0000000E+000	0.0000000E+000	5.97754	9.55038	84.0225	-9.9408e-06	-2.30795e-07	-2.35282e-10	-2.3056e-07	0.264014	302631	308.515	302323
0.0999041	51.0439	5.84913	51.3779	-6.53702	78.9541	0.264286	-0.00111158	272361	3530	1	12	0.00456562	8.88634e-05	0	4.79572e-05	0.000135881	2.28555e-06	10.563	0.0257198	0.025284	-0.00471487	-6.52859	51.4025	51.0692	5.84441	0.0193371	0.00221584	0.0194636	6.53702	3.53e+06	3.08054e+07	3.1007e+07	-83.463	0.0000000E+000	0.0000000E+000	0.0000000E+000	83.463	0.0000000E+000	0.0000000E+000	0.0000000E+000	-83.463	0.0000000E+000	0.0000000E+000	0.0000000E+000	-6.53702	0.0000000E+000	0.0000000E+000	0.0000000E+000	6.53702	8.72675	83.463	5.31563e-07	-2.93776e-07	-1.51043e-10	-2.93625e-07	0.264151	237757	122.241	237635
0.0680626	52.1337	6.71686	52.5646	-7.34149	109.882	0.264287	-0.00116772	348133	5684.47	1	12	0.00456317	8.68107e-05	0	6.37208e-05	0.000116803	2.57722e-06	-19.5272	0.0296878	0.0279802	0.00992329	-7.34832	52.5937	52.1617	6.72678	0.0188682	0.00243097	0.0190242	7.34149	5.68447e+06	4.41207e+07	4.44854e+07	-82.6585	0.0000000E+000	0.0000000E+000	0.0000000E+000	82.6585	0.0000000E+000	0.0000000E+000	0.0000000E+000	-82.6585	0.0000000E+000	0.0000000E+000	0.0000000E+000	-7.34149	0.0000000E+000	0.0000000E+000	0.0000000E+000	7.34149	7.76162	82.6585	1.57636e-05	-3.08615e-07	-1.36394e-10	-3.08478e-07	0.264171	226327	100.027	226227
0.0464052	53.3531	7.79665	53.9197	-8.31396	155.233	0.264279	-0.000883639	439891	9197.42	1	12	0.00456282	8.46224e-05	0	0.000103452	0.000269422	2.19609e-06	-15.825	0.0259516	0.024968	0.00707698	-8.31757	53.9455	53.378	7.80373	0.0183512	0.00268171	0.0185461	8.31396	9.19742e+06	6.29386e+07	6.36071e+07	-81.686	0.0000000E+000	0.0000000E+000	0.0000000E+000	81.686	0.0000000E+000	0.0000000E+000	0.0000000E+000	-81.686	0.0000000E+000	0.0000000E+000	0.0000000E+000	-8.31396	0.0000000E+000	0.0000000E+000	0.0000000E+000	8.31396	6.84307	81.686	3.97317e-05	-2.33527e-07	-2.38072e-10	-2.33289e-07	0.26401	299080	304.901	298776
0.0315922	54.9598	9.46646	55.7691	-9.77293	221.837	0.264283	-0.00028943	532172	15333.5	1	12	0.00456495	8.18545e-05	0	0.000155392	9.77262e-05	3.05225e-06	4.75768	0.0372887	0.0371602	-0.00309279	-9.76332	55.8052	54.9969	9.46337	0.0176709	0.00304369	0.0179311	9.77293	1.53335e+07	8.90221e+07	9.0333e+07	-80.2271	0.0000000E+000	0.0000000E+000	0.0000000E+000	80.2271	0.0000000E+000	0.0000000E+000	0.0000000E+000	-80.2271	0.0000000E+000	0.0000000E+000	0.0000000E+000	-9.77293	0.0000000E+000	0.0000000E+000	0.0000000E+000	9.77293	5.80574	80.2271	5.194e-05	-7.64913e-08	-2.82849e-11	-7.6463e-08	0.264185	913115	337.651	912778
0.0215268	56.837	11.9929	58.0885	-11.9149	319.576	0.264281	0.000261419	616479	26277.5	1	12	0.00456563	7.85979e-05	0	0.000185275	0.000116803	3.65525e-06	8.00809	0.0465056	0.0460521	-0.00647883	-11.8993	58.1322	56.883	11.9864	0.0168442	0.00355421	0.0172151	11.9149	2.62775e+07	1.24535e+08	1.27277e+08	-78.0851	0.0000000E+000	0.0000000E+000	0.0000000E+000	78.0851	0.0000000E+000	0.0000000E+000	0.0000000E+000	-78.0851	0.0000000E+000	0.0000000E+000	0.0000000E+000	-11.9149	0.0000000E+000	0.0000000E+000	0.0000000E+000	11.9149	4.73923	78.0851	2.98822e-05	6.90882e-08	3.05347e-11	6.90576e-08	0.264164	1.01095e+06	446.805	1.0105e+06
0.0146812	58.8515	15.3811	60.8283	-14.6469	462.877	0.264286	0.000490482	704810	45064.6	1	12	0.00456522	7.50509e-05	0	0.000140561	2.1417e-05	4.06974e-06	-0.950186	0.0542264	0.054219	0.000899243	-14.6348	60.881	58.9057	15.382	0.0159055	0.00415697	0.0164397	14.6469	4.50646e+07	1.72427e+08	1.78219e+08	-75.3531	0.0000000E+000	0.0000000E+000	0.0000000E+000	75.3531	0.0000000E+000	0.0000000E+000	0.0000000E+000	-75.3531	0.0000000E+000	0.0000000E+000	0.0000000E+000	-14.6469	0.0000000E+000	0.0000000E+000	0.0000000E+000	14.6469	3.82622	75.3531	-4.47133e-05	1.29627e-07	1.05046e-11	1.29617e-07	0.264264	538829	43.6652	538785
0.0100092	61.1577	19.3839	64.1561	-17.586	673.059	0.264289	0.000218306	820315	74883.7	1	12	0.0045634	7.11297e-05	0	-2.59785e-05	2.33964e-06	2.59051e-06	-2.57685	0.0364196	0.0363828	0.0016374	-17.5776	64.1913	61.1941	19.3855	0.0148585	0.0047094	0.015587	17.586	7.48837e+07	2.36264e+08	2.47847e+08	-72.414	0.0000000E+000	0.0000000E+000	0.0000000E+000	72.414	0.0000000E+000	0.0000000E+000	0.0000000E+000	-72.414	0.0000000E+000	0.0000000E+000	0.0000000E+000	-17.586	0.0000000E+000	0.0000000E+000	0.0000000E+000	17.586	3.15508	72.414	-0.00016654	5.7696e-08	5.10759e-13	5.76955e-08	0.264287	1.21063e+06	10.7173	1.21062e+06