File: txt/18724_R302_UA698_SOC00_C04.mpt
EC-Lab ASCII FILE
Nb header lines : 65

Potentio Electrochemical Impedance Spectroscopy

Run on channel : 4 (SN 66756)
User :
CE vs. WE compliance from -10 V to 10 V
Electrode connection : standard
Potential control : Ewe
Ewe ctrl range : min = -10.00 V, max = 10.00 V
Safety Limits :
	Do not start on E overload
Acquisition started on : 10/31/2025 10:59:49.391
Technique started on : 10/31/2025 10:59:51.302
Loaded Setting File :  C:\Users\Celltest\OneDrive - store-dot.com\Documents\EC-Lab\Data\@Biologic Test Protocols\anode half cell EIS SOC00.mps
Saved on :
	File : 18724_R302_UA698_SOC00_C04.mpr
	Directory : C:\Users\Celltest\OneDrive - store-dot.com\Documents\EC-Lab\Data\Charmaine\
	Host : 169.254.61.224
Device : VMP-3e (SN .003165)
Address : USB
EC-LAB for windows v11.62 (software)
Internet server v27.00 (firmware)
Command interpretor v12.03 (firmware)
Electrode material :
Initial state :
Electrolyte :
Comments :
Electrode surface area : 0.001 cm²
Characteristic mass : 0.001 g
Equivalent Weight : 0.000 g/eq.
Density : 0.000 g/cm3
Volume (V) : 0.001 cm³
Record Ece
Cycle Definition : Charge/Discharge alternance
Mode                Single sine
E (V)               0.0000
vs.                 Eoc
tE (h:m:s)          0:00:0.0000
record              0
dI                  0.000
unit dI             mA
dt (s)              0.000
fi                  100.000
unit fi             kHz
ff                  10.000
unit ff             mHz
Nd                  6
Points              per decade
spacing             Logarithmic
Va (mV)             5.0
pw                  0.10
Na                  2
corr                0
E range min (V)     -10.000
E range max (V)     10.000
I Range             Auto
Bandwidth           5
nc cycles           0
goto Ns'            0
nr cycles           0
inc. cycle          0

freq/Hz	Re(Z)/Ohm	-Im(Z)/Ohm	|Z|/Ohm	Phase(Z)/deg	time/s	<Ewe>/V	<I>/mA	Cs/µF	Cp/µF	cycle number	I Range	|Ewe|/V	|I|/A	Ns	(Q-Qo)/mA.h	<Ece>/V	|Ece|/V	Phase(Zce)/deg	|Zce|/Ohm	Re(Zce)/Ohm	-Im(Zce)/Ohm	Phase(Zwe-ce)/deg	|Zwe-ce|/Ohm	Re(Zwe-ce)/Ohm	-Im(Zwe-ce)/Ohm	Re(Y)/Ohm-1	Im(Y)/Ohm-1	|Y|/Ohm-1	Phase(Y)/deg	Re(C)/nF	Im(C)/nF	|C|/nF	Phase(C)/deg	Re(M)	Im(M)	|M|	Phase(M)/deg	Re(Permittivity)	Im(Permittivity)	|Permittivity|	Phase(Permittivity)/deg	Re(Resistivity)/Ohm.cm	Im(Resistivity)/Ohm.cm	|Resistivity|/Ohm.cm	Phase(Resistivity)/deg	Re(Conductivity)/mS/cm	Im(Conductivity)/mS/cm	|Conductivity|/mS/cm	Phase(Conductivity)/deg	Tan(Delta)	Loss Angle(Delta)/deg	dq/mA.h	Pwe/W	Pce/W	Pwe-ce/W	<Ewe-Ece>/V	Rwe/Ohm	Rce/Ohm	Rwe-ce/Ohm		Ewe-Ece/V
100004	1.25157	0.656947	1.41351	-27.6949	1.91054	0.262079	-0.0353804	2.42255	0.523283	1	9	0.00454921	0.00321838	0	-1.26463e-05	-9.19415e-05	3.35582e-05	67.9709	0.0104271	0.00391095	-0.00966582	-27.274	1.41252	1.25548	0.647281	0.626409	0.328801	0.707459	27.6949	523.283	996.924	1125.91	-62.3051	0.0000000E+000	0.0000000E+000	0.0000000E+000	62.3051	0.0000000E+000	0.0000000E+000	0.0000000E+000	-62.3051	0.0000000E+000	0.0000000E+000	0.0000000E+000	-27.6949	0.0000000E+000	0.0000000E+000	0.0000000E+000	27.6949	1.90513	62.3051	-1.26463e-05	-9.27246e-06	3.25293e-09	-9.27571e-06	0.262171	7407.45	2.59865	7410.05
68132	1.43803	0.742895	1.61859	-27.3212	2.29355	0.262084	-0.0298977	3.14442	0.662406	1	9	0.00539696	0.00333436	0	-2.70412e-05	-0.000168381	2.70258e-05	46.1396	0.00810524	0.00561615	-0.00584413	-27.0465	1.62091	1.44365	0.737051	0.548903	0.283567	0.617823	27.3212	662.406	1282.23	1443.22	-62.6788	0.0000000E+000	0.0000000E+000	0.0000000E+000	62.6788	0.0000000E+000	0.0000000E+000	0.0000000E+000	-62.6788	0.0000000E+000	0.0000000E+000	0.0000000E+000	-27.3212	0.0000000E+000	0.0000000E+000	0.0000000E+000	27.3212	1.93571	62.6788	-1.43948e-05	-7.83571e-06	5.03422e-09	-7.84075e-06	0.262252	8766.02	5.63191	8771.65
46420.4	1.64196	0.812828	1.83214	-26.337	2.67654	0.262076	-0.0297112	4.21806	0.830223	1	9	0.00546305	0.00298179	0	-3.35856e-05	3.60827e-06	1.8324e-05	21.7389	0.00614532	0.00570827	-0.00227609	-26.1944	1.83625	1.64767	0.810552	0.489156	0.242149	0.545811	26.337	830.223	1677.1	1871.34	-63.663	0.0000000E+000	0.0000000E+000	0.0000000E+000	63.663	0.0000000E+000	0.0000000E+000	0.0000000E+000	-63.663	0.0000000E+000	0.0000000E+000	0.0000000E+000	-26.337	0.0000000E+000	0.0000000E+000	0.0000000E+000	26.337	2.02006	63.663	-6.54448e-06	-7.78661e-06	-1.07206e-10	-7.7865e-06	0.262073	8820.78	0.121445	8820.66
31621.1	1.85931	0.876696	2.05564	-25.2446	3.06153	0.262064	-0.0313896	5.74108	1.04424	1	9	0.00542773	0.00264041	0	-4.49986e-05	-0.000111051	1.08892e-05	0.612357	0.00412405	0.00412381	-4.40756e-05	-25.1946	2.05935	1.86344	0.876652	0.440007	0.20747	0.486467	25.2446	1044.24	2214.64	2448.48	-64.7554	0.0000000E+000	0.0000000E+000	0.0000000E+000	64.7554	0.0000000E+000	0.0000000E+000	0.0000000E+000	-64.7554	0.0000000E+000	0.0000000E+000	0.0000000E+000	-25.2446	0.0000000E+000	0.0000000E+000	0.0000000E+000	25.2446	2.12082	64.7554	-1.14129e-05	-8.22609e-06	3.48586e-09	-8.22957e-06	0.262175	8348.74	3.53784	8352.28
21544.7	2.07452	0.927271	2.27233	-24.0837	3.44451	0.262074	-0.0270258	7.9666	1.32662	1	9	0.005399	0.00237598	0	-4.87375e-05	-0.000531471	1.16667e-05	3.99447	0.00491028	0.00489836	-0.000342052	-24.0256	2.27666	2.07942	0.926929	0.401769	0.179583	0.440078	24.0837	1326.62	2967.95	3250.94	-65.9163	0.0000000E+000	0.0000000E+000	0.0000000E+000	65.9163	0.0000000E+000	0.0000000E+000	0.0000000E+000	-65.9163	0.0000000E+000	0.0000000E+000	0.0000000E+000	-24.0837	0.0000000E+000	0.0000000E+000	0.0000000E+000	24.0837	2.23723	65.9163	-3.73889e-06	-7.08277e-06	1.43634e-08	-7.09714e-06	0.262605	9697.16	19.6653	9716.83
14678.6	2.28707	0.974647	2.48608	-23.0816	3.82752	0.262073	-0.0315388	11.1247	1.70982	1	9	0.00535938	0.00215575	0	-4.97768e-05	-0.000206601	9.12182e-06	-115.134	0.00423139	-0.00179721	0.00383075	-23.179	2.48594	2.28527	0.978478	0.370039	0.157694	0.402239	23.0816	1709.82	4012.2	4361.34	-66.9184	0.0000000E+000	0.0000000E+000	0.0000000E+000	66.9184	0.0000000E+000	0.0000000E+000	0.0000000E+000	-66.9184	0.0000000E+000	0.0000000E+000	0.0000000E+000	-23.0816	0.0000000E+000	0.0000000E+000	0.0000000E+000	23.0816	2.34656	66.9184	-1.03929e-06	-8.26547e-06	6.51596e-09	-8.27199e-06	0.26228	8309.53	6.55069	8316.08
10002.2	2.49693	1.05704	2.71146	-22.9446	4.21056	0.262072	-0.0286669	15.0534	2.28775	1	9	0.00524165	0.00193315	0	-5.05045e-05	-0.000130161	1.23116e-05	-58.4141	0.00636866	0.00333575	0.00542518	-23.0225	2.71665	2.50027	1.06246	0.339627	0.143775	0.368806	22.9446	2287.75	5404.12	5868.42	-67.0554	0.0000000E+000	0.0000000E+000	0.0000000E+000	67.0554	0.0000000E+000	0.0000000E+000	0.0000000E+000	-67.0554	0.0000000E+000	0.0000000E+000	0.0000000E+000	-22.9446	0.0000000E+000	0.0000000E+000	0.0000000E+000	22.9446	2.3622	67.0554	-7.2777e-07	-7.51281e-06	3.73133e-09	-7.51654e-06	0.262202	9141.97	4.54047	9146.51
6810.42	2.70366	1.15209	2.93889	-23.08	4.59352	0.262079	-0.0303453	20.2843	3.11721	1	9	0.00508808	0.00173129	0	-5.50844e-05	0.000137378	5.20411e-05	-80.3612	0.0300592	0.00503298	0.0296348	-23.5703	2.95525	2.70869	1.18173	0.313029	0.133389	0.340264	23.08	3117.21	7315.27	7951.74	-66.92	0.0000000E+000	0.0000000E+000	0.0000000E+000	66.92	0.0000000E+000	0.0000000E+000	0.0000000E+000	-66.92	0.0000000E+000	0.0000000E+000	0.0000000E+000	-23.08	0.0000000E+000	0.0000000E+000	0.0000000E+000	23.08	2.34674	66.92	-4.57983e-06	-7.95288e-06	-4.16878e-09	-7.94871e-06	0.261942	8636.56	4.52715	8632.03
4646	2.91091	1.32245	3.19723	-24.4327	4.85862	0.262059	-0.0308302	25.9037	4.43172	1	9	0.00537201	0.00168021	0	-5.68241e-05	-0.000397701	2.03312e-05	82.634	0.0121004	0.00155136	-0.0120006	-24.2251	3.1937	2.91246	1.31045	0.284761	0.129369	0.312771	24.4327	4431.72	9754.88	10714.4	-65.5673	0.0000000E+000	0.0000000E+000	0.0000000E+000	65.5673	0.0000000E+000	0.0000000E+000	0.0000000E+000	-65.5673	0.0000000E+000	0.0000000E+000	0.0000000E+000	-24.4327	0.0000000E+000	0.0000000E+000	0.0000000E+000	24.4327	2.20115	65.5673	-1.7397e-06	-8.07933e-06	1.22612e-08	-8.09159e-06	0.262457	8500.08	12.8997	8512.98
3163.08	3.1356	1.53029	3.48909	-26.0142	5.23267	0.262012	-0.0436232	32.8802	6.32498	1	9	0.00537092	0.00153934	0	-6.18633e-05	6.09381e-05	1.32456e-05	-61.1264	0.00860471	0.00415503	0.00753503	-26.0953	3.49614	3.13975	1.53783	0.25757	0.125704	0.286607	26.0142	6324.98	12960	14421.1	-63.9858	0.0000000E+000	0.0000000E+000	0.0000000E+000	63.9858	0.0000000E+000	0.0000000E+000	0.0000000E+000	-63.9858	0.0000000E+000	0.0000000E+000	0.0000000E+000	-26.0142	0.0000000E+000	0.0000000E+000	0.0000000E+000	26.0142	2.04902	63.9858	-5.03921e-06	-1.14298e-05	-2.65831e-09	-1.14271e-05	0.261951	6006.25	1.39692	6004.85
2155.69	3.41267	1.8764	3.8945	-28.8035	5.92878	0.262035	-0.0175602	39.3468	9.13386	1	10	0.00545227	0.00139999	0	-6.78646e-05	-3.46116e-05	9.87888e-06	47.152	0.00705638	0.00479873	-0.00517346	-28.7028	3.89622	3.41747	1.87122	0.225004	0.123714	0.256772	28.8035	9133.86	16612.1	18957.5	-61.1965	0.0000000E+000	0.0000000E+000	0.0000000E+000	61.1965	0.0000000E+000	0.0000000E+000	0.0000000E+000	-61.1965	0.0000000E+000	0.0000000E+000	0.0000000E+000	-28.8035	0.0000000E+000	0.0000000E+000	0.0000000E+000	28.8035	1.81873	61.1965	-6.00129e-06	-4.60138e-06	6.07786e-10	-4.60199e-06	0.26207	14922.1	1.97103	14924.1
1468.59	3.72384	2.33611	4.39595	-32.1017	6.38012	0.262038	-0.0174706	46.3901	13.1011	1	10	0.00534664	0.00121626	0	-6.9166e-05	-0.000187491	6.20728e-06	9.94466	0.00510356	0.00502688	-0.000881369	-32.0572	4.39974	3.72886	2.33523	0.192701	0.120889	0.227482	32.1017	13101.1	20883.6	24652.8	-57.8983	0.0000000E+000	0.0000000E+000	0.0000000E+000	57.8983	0.0000000E+000	0.0000000E+000	0.0000000E+000	-57.8983	0.0000000E+000	0.0000000E+000	0.0000000E+000	-32.1017	0.0000000E+000	0.0000000E+000	0.0000000E+000	32.1017	1.59403	57.8983	-1.3014e-06	-4.57798e-06	3.27559e-09	-4.58125e-06	0.262226	14998.8	10.7318	15009.5
1000.32	4.1141	2.95615	5.06603	-35.6988	6.83082	0.26203	-0.0170641	53.8213	18.3262	1	10	0.00523014	0.00103239	0	-7.08539e-05	-0.000244821	1.06334e-05	0.498437	0.0102998	0.0102994	-8.96003e-05	-35.6301	5.07434	4.1244	2.95606	0.160302	0.115184	0.197393	35.6988	18326.2	25504.7	31406.1	-54.3012	0.0000000E+000	0.0000000E+000	0.0000000E+000	54.3012	0.0000000E+000	0.0000000E+000	0.0000000E+000	-54.3012	0.0000000E+000	0.0000000E+000	0.0000000E+000	-35.6988	0.0000000E+000	0.0000000E+000	0.0000000E+000	35.6988	1.39171	54.3012	-1.68792e-06	-4.4713e-06	4.17764e-09	-4.47548e-06	0.262275	15355.7	14.3472	15370
681.09	4.62689	3.77767	5.97318	-39.2303	7.28152	0.262047	-0.0169186	61.8574	24.7416	1	10	0.00513894	0.000860335	0	-7.24591e-05	-0.000187491	9.6067e-06	-70.8829	0.0111662	0.00365695	0.0105504	-39.2864	5.98269	4.63055	3.78822	0.129681	0.10588	0.167415	39.2303	24741.6	30303.5	39121	-50.7697	0.0000000E+000	0.0000000E+000	0.0000000E+000	50.7697	0.0000000E+000	0.0000000E+000	0.0000000E+000	-50.7697	0.0000000E+000	0.0000000E+000	0.0000000E+000	-39.2303	0.0000000E+000	0.0000000E+000	0.0000000E+000	39.2303	1.2248	50.7697	-1.60519e-06	-4.43346e-06	3.17209e-09	-4.43664e-06	0.262234	15488.7	11.082	15499.8
463.961	5.34529	4.87623	7.23531	-42.3726	7.73336	0.262034	-0.017273	70.3485	31.9528	1	10	0.00508377	0.000702633	0	-7.48792e-05	-7.28316e-05	4.21912e-06	-3.7364	0.00600473	0.00599196	0.000391306	-42.3429	7.24	5.35128	4.87662	0.102107	0.0931472	0.138211	42.3726	31952.8	35026.4	47411.3	-47.6274	0.0000000E+000	0.0000000E+000	0.0000000E+000	47.6274	0.0000000E+000	0.0000000E+000	0.0000000E+000	-47.6274	0.0000000E+000	0.0000000E+000	0.0000000E+000	-42.3726	0.0000000E+000	0.0000000E+000	0.0000000E+000	42.3726	1.09619	47.6274	-2.42012e-06	-4.5261e-06	1.25802e-09	-4.52735e-06	0.262106	15170.2	4.21651	15174.4
316.316	6.36842	6.25839	8.92885	-44.5007	8.18109	0.262022	-0.0173737	80.3963	39.4977	1	10	0.00503789	0.000564226	0	-7.66041e-05	-5.37216e-05	1.01404e-05	25.0107	0.0179722	0.0162869	-0.00759841	-44.3928	8.93515	6.38471	6.25079	0.0798806	0.0785004	0.111997	44.5007	39497.7	40192.1	56351.3	-45.4993	0.0000000E+000	0.0000000E+000	0.0000000E+000	45.4993	0.0000000E+000	0.0000000E+000	0.0000000E+000	-45.4993	0.0000000E+000	0.0000000E+000	0.0000000E+000	-44.5007	0.0000000E+000	0.0000000E+000	0.0000000E+000	44.5007	1.01758	45.4993	-1.72488e-06	-4.55228e-06	9.33342e-10	-4.55322e-06	0.262076	15081.5	3.09212	15084.6
215.345	7.8771	7.95892	11.1979	-45.296	8.63159	0.262045	-0.0174483	92.8607	46.9102	1	10	0.00501215	0.000447597	0	-7.82082e-05	-0.000435921	7.54884e-06	-86.3904	0.0168653	0.0010618	0.0168318	-45.3527	11.2106	7.87816	7.97575	0.0628192	0.0634718	0.0893024	45.296	46910.2	46427.9	66000.8	-44.704	0.0000000E+000	0.0000000E+000	0.0000000E+000	44.704	0.0000000E+000	0.0000000E+000	0.0000000E+000	-44.704	0.0000000E+000	0.0000000E+000	0.0000000E+000	-45.296	0.0000000E+000	0.0000000E+000	0.0000000E+000	45.296	0.989719	44.7039	-1.60417e-06	-4.57224e-06	7.60607e-09	-4.57985e-06	0.262481	15018.4	24.9836	15043.4
146.737	10.1151	9.7931	14.079	-44.0734	9.0775	0.26202	-0.017978	110.754	53.5862	1	10	0.00499896	0.000355064	0	-8.04643e-05	-7.28316e-05	8.84822e-06	-5.29435	0.0249201	0.0248138	0.00229944	-44.01	14.0985	10.1399	9.7954	0.0510297	0.0494053	0.0710275	44.0734	53586.2	55348	77038.2	-45.9266	0.0000000E+000	0.0000000E+000	0.0000000E+000	45.9266	0.0000000E+000	0.0000000E+000	0.0000000E+000	-45.9266	0.0000000E+000	0.0000000E+000	0.0000000E+000	-44.0734	0.0000000E+000	0.0000000E+000	0.0000000E+000	44.0734	1.03288	45.9266	-2.25605e-06	-4.71059e-06	1.30936e-09	-4.7119e-06	0.262093	14574.5	4.05115	14578.5
100.032	13.1391	11.6134	17.5359	-41.473	9.52881	0.262035	-0.0167843	137	60.0879	1	10	0.00498336	0.000284181	0	-8.26128e-05	2.27182e-05	2.48977e-05	21.8622	0.087612	0.0813111	-0.0326246	-41.2177	17.5754	13.2204	11.5808	0.0427278	0.0377664	0.057026	41.473	60087.9	67981.6	90730.6	-48.527	0.0000000E+000	0.0000000E+000	0.0000000E+000	48.527	0.0000000E+000	0.0000000E+000	0.0000000E+000	-48.527	0.0000000E+000	0.0000000E+000	0.0000000E+000	-41.473	0.0000000E+000	0.0000000E+000	0.0000000E+000	41.473	1.13137	48.527	-2.14856e-06	-4.39807e-06	-3.8131e-10	-4.39769e-06	0.262012	15611.9	1.35354	15610.5
68.104	17.1888	12.7632	21.4092	-36.595	10.2424	0.262058	-0.00881979	183.1	65.0736	1	11	0.00501004	0.000234013	0	-8.46062e-05	-0.000435921	9.12849e-06	-1.83643	0.0390084	0.0389884	0.00125008	-36.5355	21.4413	17.2278	12.7645	0.0375011	0.0278456	0.0467088	36.595	65073.6	87637.8	109156	-53.405	0.0000000E+000	0.0000000E+000	0.0000000E+000	53.405	0.0000000E+000	0.0000000E+000	0.0000000E+000	-53.405	0.0000000E+000	0.0000000E+000	0.0000000E+000	-36.595	0.0000000E+000	0.0000000E+000	0.0000000E+000	36.595	1.34675	53.405	-1.99341e-06	-2.3113e-06	3.84473e-09	-2.31514e-06	0.262494	29712.5	49.4253	29762
46.4415	21.4456	12.9107	25.0319	-31.0488	10.6787	0.262047	-0.00921003	265.439	70.6112	1	11	0.00499817	0.000199672	0	-8.58021e-05	-0.000187491	5.90767e-06	-0.813448	0.0295869	0.0295839	0.000420042	-31.0147	25.0575	21.4752	12.9111	0.0342254	0.0206044	0.039949	31.0488	70611.2	117290	136905	-58.9512	0.0000000E+000	0.0000000E+000	0.0000000E+000	58.9512	0.0000000E+000	0.0000000E+000	0.0000000E+000	-58.9512	0.0000000E+000	0.0000000E+000	0.0000000E+000	-31.0488	0.0000000E+000	0.0000000E+000	0.0000000E+000	31.0488	1.66107	58.9512	-1.19587e-06	-2.41346e-06	1.7268e-09	-2.41519e-06	0.262235	28452.4	20.3573	28472.8
31.6296	25.4343	12.0375	28.139	-25.3272	11.1085	0.262049	-0.00915668	418.013	76.4973	1	11	0.00497958	0.000176963	0	-8.6501e-05	0.000175598	5.61945e-06	8.61425	0.0317549	0.0313967	-0.00475629	-25.2912	28.1654	25.4657	12.0328	0.0321219	0.0152026	0.0355378	25.3272	76497.3	161632	178821	-64.6728	0.0000000E+000	0.0000000E+000	0.0000000E+000	64.6728	0.0000000E+000	0.0000000E+000	0.0000000E+000	-64.6728	0.0000000E+000	0.0000000E+000	0.0000000E+000	-25.3272	0.0000000E+000	0.0000000E+000	0.0000000E+000	25.3272	2.11291	64.6728	-6.98843e-07	-2.3995e-06	-1.60789e-09	-2.39789e-06	0.261874	28618.4	19.177	28599.2
21.5517	28.7766	10.5116	30.6363	-20.0664	11.5295	0.262048	-0.00922943	702.537	82.7054	1	11	0.00498867	0.000162835	0	-8.74428e-05	-5.37216e-05	7.99285e-06	155.687	0.0490856	-0.044732	-0.0202099	-20.0596	30.5874	28.7318	10.4914	0.0306595	0.0111994	0.032641	20.0664	82705.4	226414	241047	-69.9336	0.0000000E+000	0.0000000E+000	0.0000000E+000	69.9336	0.0000000E+000	0.0000000E+000	0.0000000E+000	-69.9336	0.0000000E+000	0.0000000E+000	0.0000000E+000	-20.0664	0.0000000E+000	0.0000000E+000	0.0000000E+000	20.0664	2.7376	69.9336	-9.41857e-07	-2.41855e-06	4.9582e-10	-2.41905e-06	0.262101	28392.6	5.82068	28398.4
14.6852	31.2616	8.77263	32.4692	-15.6752	11.9901	0.262055	-0.00853812	1235.41	90.1839	1	11	0.00498447	0.000153514	0	-8.79571e-05	-0.000378591	5.96461e-06	-20.9905	0.0388539	0.0362755	0.013918	-15.6815	32.5079	31.2979	8.78655	0.029653	0.00832122	0.0307984	15.6752	90183.8	321374	333788	-74.3248	0.0000000E+000	0.0000000E+000	0.0000000E+000	74.3248	0.0000000E+000	0.0000000E+000	0.0000000E+000	-74.3248	0.0000000E+000	0.0000000E+000	0.0000000E+000	-15.6752	0.0000000E+000	0.0000000E+000	0.0000000E+000	15.6752	3.56354	74.3248	-5.14285e-07	-2.23746e-06	3.23245e-09	-2.24069e-06	0.262433	30692.3	44.3412	30736.7
10.0032	33.0971	7.21258	33.8739	-12.2938	12.4408	0.26206	-0.00852357	2205.92	100.009	1	11	0.00498912	0.000147285	0	-9.01806e-05	3.60827e-06	8.3557e-06	0.242773	0.0567315	0.056731	-0.000240381	-12.273	33.9293	33.1539	7.21234	0.0288443	0.00628579	0.0295212	12.2938	100009	458924	469695	-77.7062	0.0000000E+000	0.0000000E+000	0.0000000E+000	77.7062	0.0000000E+000	0.0000000E+000	0.0000000E+000	-77.7062	0.0000000E+000	0.0000000E+000	0.0000000E+000	-12.2938	0.0000000E+000	0.0000000E+000	0.0000000E+000	12.2938	4.58881	77.7062	-2.22348e-06	-2.23369e-06	-3.07553e-11	-2.23365e-06	0.262056	30745.3	0.423329	30744.9
6.81719	34.3648	5.99654	34.8841	-9.89826	12.7805	0.262059	-0.00813482	3893.27	115.043	1	11	0.0049945	0.000143174	0	-8.96199e-05	-0.000111051	9.97272e-06	-3.78132	0.0696545	0.0695029	0.00459361	-9.88609	34.9533	34.4343	6.00113	0.0282397	0.00492773	0.0286664	9.89826	115043	659287	669249	-80.1017	0.0000000E+000	0.0000000E+000	0.0000000E+000	80.1017	0.0000000E+000	0.0000000E+000	0.0000000E+000	-80.1017	0.0000000E+000	0.0000000E+000	0.0000000E+000	-9.89826	0.0000000E+000	0.0000000E+000	0.0000000E+000	9.89826	5.73077	80.1017	5.60655e-07	-2.1318e-06	9.03384e-10	-2.13271e-06	0.26217	32214.5	13.6514	32228.1
4.63925	35.3394	5.03821	35.6967	-8.11379	13.2644	0.262062	-0.00776883	6809.19	135.642	1	11	0.00498436	0.000139631	0	-9.07468e-05	-0.000130161	8.91478e-06	-45.2363	0.0638453	0.0449589	0.0453312	-8.17555	35.7476	35.3843	5.08354	0.0277334	0.00395386	0.0280138	8.11379	135642	951426	961046	-81.8862	0.0000000E+000	0.0000000E+000	0.0000000E+000	81.8862	0.0000000E+000	0.0000000E+000	0.0000000E+000	-81.8862	0.0000000E+000	0.0000000E+000	0.0000000E+000	-8.11379	0.0000000E+000	0.0000000E+000	0.0000000E+000	8.11379	7.01426	81.8862	-1.12688e-06	-2.03592e-06	1.0112e-09	-2.03693e-06	0.262192	33732.5	16.7543	33749.3
3.1604	36.0393	4.29766	36.2946	-6.80036	13.9574	0.262069	-0.00728122	11717.8	164.295	1	11	0.00498206	0.000137267	0	-9.40298e-05	-0.000263931	6.86065e-06	-15.4216	0.0499803	0.0481807	0.0132908	-6.81217	36.3441	36.0875	4.31095	0.0273584	0.00326247	0.0275523	6.80036	164295	1.37775e+06	1.38751e+06	-83.1996	0.0000000E+000	0.0000000E+000	0.0000000E+000	83.1996	0.0000000E+000	0.0000000E+000	0.0000000E+000	-83.1996	0.0000000E+000	0.0000000E+000	0.0000000E+000	-6.80036	0.0000000E+000	0.0000000E+000	0.0000000E+000	6.80036	8.38581	83.1996	-3.28302e-06	-1.90818e-06	1.92174e-09	-1.9101e-06	0.262333	35992.5	36.2482	36028.7
2.15577	36.8569	3.84514	37.0569	-5.95591	14.9612	0.262063	-0.00708862	19200.2	206.724	1	11	0.004989	0.000134631	0	-9.71433e-05	-1.55017e-05	4.05652e-06	25.0541	0.0301307	0.0272956	-0.0127595	-5.93192	37.0828	36.8842	3.83238	0.0268398	0.0028001	0.0269855	5.95591	206724	1.98152e+06	1.99227e+06	-84.0441	0.0000000E+000	0.0000000E+000	0.0000000E+000	84.0441	0.0000000E+000	0.0000000E+000	0.0000000E+000	-84.0441	0.0000000E+000	0.0000000E+000	0.0000000E+000	-5.95591	0.0000000E+000	0.0000000E+000	0.0000000E+000	5.95591	9.58532	84.0441	-3.11344e-06	-1.85766e-06	1.09885e-10	-1.85777e-06	0.262079	36969.6	2.18684	36971.8
1.46631	37.4957	3.68295	37.6761	-5.60979	17.1483	0.262064	-0.00665996	29471.2	281.617	1	12	0.00499089	0.000132468	0	-9.9241e-05	0.000118268	4.9268e-06	34.3325	0.0371923	0.0307126	-0.0209763	-5.57351	37.7046	37.5264	3.66198	0.0264149	0.00259456	0.026542	5.60979	281617	2.8671e+06	2.8809e+06	-84.3902	0.0000000E+000	0.0000000E+000	0.0000000E+000	84.3902	0.0000000E+000	0.0000000E+000	0.0000000E+000	-84.3902	0.0000000E+000	0.0000000E+000	0.0000000E+000	-5.60979	0.0000000E+000	0.0000000E+000	0.0000000E+000	5.60979	10.1809	84.3902	-2.09769e-06	-1.74534e-06	-7.8766e-10	-1.74455e-06	0.261946	39349.2	17.7581	39331.5
1.00006	38.1743	3.5731	38.3411	-5.34729	19.2769	0.262066	-0.00625901	44539.7	386.819	1	12	0.00498722	0.000130075	0	-9.88625e-05	-0.000263931	2.64563e-06	-6.19775	0.0203393	0.0202204	0.00219584	-5.34774	38.3615	38.1945	3.5753	0.0259682	0.00243061	0.0260817	5.34729	386819	4.1327e+06	4.15076e+06	-84.6527	0.0000000E+000	0.0000000E+000	0.0000000E+000	84.6527	0.0000000E+000	0.0000000E+000	0.0000000E+000	-84.6527	0.0000000E+000	0.0000000E+000	0.0000000E+000	-5.34729	0.0000000E+000	0.0000000E+000	0.0000000E+000	5.34729	10.6838	84.6527	3.78443e-07	-1.64027e-06	1.65195e-09	-1.64193e-06	0.26233	41870.2	42.1682	41912.4
0.681362	38.9232	3.60866	39.0902	-5.29687	22.3891	0.26206	-0.00596118	64728.6	551.636	1	12	0.0049848	0.000127521	0	-0.000100566	-3.46116e-05	1.93406e-06	2.46865	0.0151667	0.0151526	-0.00065327	-5.29387	39.1052	38.9384	3.608	0.0254726	0.00236162	0.0255819	5.29687	551636	5.94999e+06	5.9755e+06	-84.7031	0.0000000E+000	0.0000000E+000	0.0000000E+000	84.7031	0.0000000E+000	0.0000000E+000	0.0000000E+000	-84.7031	0.0000000E+000	0.0000000E+000	0.0000000E+000	-5.29687	0.0000000E+000	0.0000000E+000	0.0000000E+000	5.29687	10.7861	84.7031	-1.70363e-06	-1.56219e-06	2.06326e-10	-1.56239e-06	0.262095	43961.1	5.80617	43966.9
0.464091	39.7343	3.74153	39.9101	-5.37932	26.9456	0.262058	-0.0052405	91657.4	805.566	1	12	0.00498931	0.000125014	0	-0.000108446	0.000213818	3.7582e-06	9.82838	0.0300623	0.0296211	-0.00513156	-5.36801	39.9391	39.764	3.7364	0.024946	0.00234901	0.0250563	5.37932	805567	8.55495e+06	8.5928e+06	-84.6207	0.0000000E+000	0.0000000E+000	0.0000000E+000	84.6207	0.0000000E+000	0.0000000E+000	0.0000000E+000	-84.6207	0.0000000E+000	0.0000000E+000	0.0000000E+000	-5.37932	0.0000000E+000	0.0000000E+000	0.0000000E+000	5.37932	10.6198	84.6207	-7.87971e-06	-1.37332e-06	-1.12051e-09	-1.3722e-06	0.261844	50006.3	40.801	49965.5
0.316193	40.5142	3.92698	40.7041	-5.5363	33.6192	0.262058	-0.00451329	128177	1193.03	1	12	0.00498615	0.000122498	0	-0.000125811	-0.000397701	3.84665e-06	-13.2269	0.0314019	0.0305689	0.00718501	-5.54221	40.7352	40.5448	3.93416	0.024453	0.00237019	0.0245676	5.5363	1.19303e+06	1.23083e+07	1.2366e+07	-84.4637	0.0000000E+000	0.0000000E+000	0.0000000E+000	84.4637	0.0000000E+000	0.0000000E+000	0.0000000E+000	-84.4637	0.0000000E+000	0.0000000E+000	0.0000000E+000	-5.5363	0.0000000E+000	0.0000000E+000	0.0000000E+000	5.5363	10.3169	84.4637	-1.73653e-05	-1.18274e-06	1.79494e-09	-1.18454e-06	0.262456	58063.8	88.1178	58151.9
0.215268	41.3471	4.12724	41.5525	-5.70034	43.4127	0.262068	-0.00383184	179136	1767.28	1	12	0.0049879	0.000120038	0	-0.000152847	-0.000187491	4.53292e-06	-10.4356	0.0377623	0.0371377	0.00683988	-5.70464	41.5902	41.3842	4.13408	0.0239469	0.00239036	0.0240659	5.70034	1.76728e+06	1.77048e+07	1.77928e+07	-84.2997	0.0000000E+000	0.0000000E+000	0.0000000E+000	84.2997	0.0000000E+000	0.0000000E+000	0.0000000E+000	-84.2997	0.0000000E+000	0.0000000E+000	0.0000000E+000	-5.70034	0.0000000E+000	0.0000000E+000	0.0000000E+000	5.70034	10.0181	84.2997	-2.70357e-05	-1.0042e-06	7.18436e-10	-1.00492e-06	0.262255	68392.2	48.9299	68441.1
0.146929	42.2199	4.47466	42.4564	-6.04988	57.7501	0.262059	-0.00389081	242077	2688.98	1	12	0.00498664	0.000117453	0	-0.000186203	9.9158e-05	2.42658e-06	-72.2031	0.0206599	0.00631456	0.0196713	-6.07538	42.4647	42.2262	4.49433	0.0234224	0.00248241	0.0235536	6.04988	2.68898e+06	2.53714e+07	2.55135e+07	-83.9501	0.0000000E+000	0.0000000E+000	0.0000000E+000	83.9501	0.0000000E+000	0.0000000E+000	0.0000000E+000	-83.9501	0.0000000E+000	0.0000000E+000	0.0000000E+000	-6.04988	0.0000000E+000	0.0000000E+000	0.0000000E+000	6.04988	9.43534	83.9501	-3.33558e-05	-1.01962e-06	-3.85805e-10	-1.01924e-06	0.26196	67353.4	25.4852	67327.9
0.0999041	43.1431	5.10562	43.4441	-6.74909	78.8272	0.262054	-0.00380142	312024	4309.47	1	12	0.00498928	0.000114844	0	-0.00021567	-3.46116e-05	4.80674e-06	-19.2875	0.0418547	0.0395055	0.013825	-6.76106	43.485	43.1826	5.11945	0.0228586	0.00270512	0.0230181	6.74909	4.30946e+06	3.64155e+07	3.66696e+07	-83.2509	0.0000000E+000	0.0000000E+000	0.0000000E+000	83.2509	0.0000000E+000	0.0000000E+000	0.0000000E+000	-83.2509	0.0000000E+000	0.0000000E+000	0.0000000E+000	-6.74909	0.0000000E+000	0.0000000E+000	0.0000000E+000	6.74909	8.45011	83.2509	-2.94673e-05	-9.96176e-07	1.31573e-10	-9.96308e-07	0.262089	68935.9	9.10493	68945
0.0680626	44.0059	6.04836	44.4196	-7.82595	109.755	0.262059	-0.00347559	386610	7168.02	1	12	0.00498775	0.000112287	0	-0.000230172	-0.000435921	2.6478e-06	-31.5594	0.0235806	0.020093	0.0123417	-7.83818	44.4412	44.026	6.06071	0.0223029	0.00306541	0.0225126	7.82595	7.16802e+06	5.21522e+07	5.26425e+07	-82.1741	0.0000000E+000	0.0000000E+000	0.0000000E+000	82.1741	0.0000000E+000	0.0000000E+000	0.0000000E+000	-82.1741	0.0000000E+000	0.0000000E+000	0.0000000E+000	-7.82595	0.0000000E+000	0.0000000E+000	0.0000000E+000	7.82595	7.27567	82.1741	-1.45021e-05	-9.10809e-07	1.51508e-09	-9.12324e-07	0.262495	75399.8	125.424	75525.2
0.0464052	44.8777	7.23988	45.4579	-9.16428	155.105	0.262062	-0.00261471	473720	12016.2	1	12	0.00498861	0.000109741	0	-0.000207202	4.18282e-05	2.88937e-06	18.8794	0.0263289	0.0249125	-0.00851946	-9.14868	45.4811	44.9026	7.23136	0.0217176	0.00350359	0.0219984	9.16428	1.20162e+07	7.44844e+07	7.54474e+07	-80.8357	0.0000000E+000	0.0000000E+000	0.0000000E+000	80.8357	0.0000000E+000	0.0000000E+000	0.0000000E+000	-80.8357	0.0000000E+000	0.0000000E+000	0.0000000E+000	-9.16428	0.0000000E+000	0.0000000E+000	0.0000000E+000	9.16428	6.19867	80.8357	2.29704e-05	-6.85216e-07	-1.09369e-10	-6.85106e-07	0.26202	100226	15.9972	100210
0.0315922	46.0689	8.82563	46.9067	-10.845	221.711	0.262064	-0.00152535	570814	20207.7	1	12	0.00499155	0.000106414	0	-0.000145689	-0.000302151	2.51733e-06	-7.74303	0.0236559	0.0234402	0.00318716	-10.8435	46.9303	46.0923	8.82882	0.0209382	0.00401122	0.0213189	10.845	2.02077e+07	1.05482e+08	1.074e+08	-79.155	0.0000000E+000	0.0000000E+000	0.0000000E+000	79.155	0.0000000E+000	0.0000000E+000	0.0000000E+000	-79.155	0.0000000E+000	0.0000000E+000	0.0000000E+000	-10.845	0.0000000E+000	0.0000000E+000	0.0000000E+000	10.845	5.2199	79.155	6.1513e-05	-3.99741e-07	4.60887e-10	-4.00202e-07	0.262367	171806	198.086	172004
0.0215268	47.7081	11.1612	48.9963	-13.1674	319.449	0.26206	-0.000451902	662417	34373.5	1	12	0.00498541	0.000101751	0	-7.56518e-05	-0.000225711	3.24646e-06	-0.0637735	0.031906	0.031906	3.55132e-05	-13.1589	49.0274	47.74	11.1612	0.0198731	0.00464925	0.0204097	13.1674	3.43735e+07	1.46929e+08	1.50896e+08	-76.8326	0.0000000E+000	0.0000000E+000	0.0000000E+000	76.8326	0.0000000E+000	0.0000000E+000	0.0000000E+000	-76.8326	0.0000000E+000	0.0000000E+000	0.0000000E+000	-13.1674	0.0000000E+000	0.0000000E+000	0.0000000E+000	13.1674	4.27447	76.8326	7.00368e-05	-1.18426e-07	1.01999e-10	-1.18528e-07	0.262286	579905	499.469	580404
0.0146812	49.6372	14.518	51.7168	-16.3033	462.752	0.262054	3.67429e-05	746711	58844.1	1	12	0.00498918	9.64713e-05	0	-7.19688e-05	-0.000302151	1.92436e-06	-9.83955	0.0199475	0.0196541	0.00340883	-16.3008	51.7366	49.6569	14.5214	0.0185586	0.00542805	0.0193361	16.3033	5.88441e+07	2.01189e+08	2.09618e+08	-73.6967	0.0000000E+000	0.0000000E+000	0.0000000E+000	73.6967	0.0000000E+000	0.0000000E+000	0.0000000E+000	-73.6967	0.0000000E+000	0.0000000E+000	0.0000000E+000	-16.3033	0.0000000E+000	0.0000000E+000	0.0000000E+000	16.3033	3.41901	73.6967	3.68296e-06	9.62864e-09	-1.11019e-11	9.63975e-09	0.262357	7.1321e+06	8223.38	7.14033e+06
0.0100092	51.5597	18.6923	54.8434	-19.9275	672.933	0.262055	5.39081e-05	850665	98818	1	12	0.0049853	9.09005e-05	0	-0.000231819	-0.000225711	2.12551e-06	-2.3472	0.0233828	0.0233632	0.000957642	-19.9201	54.8657	51.583	18.6933	0.017142	0.00621461	0.0182337	19.9275	9.8818e+07	2.72573e+08	2.89933e+08	-70.0725	0.0000000E+000	0.0000000E+000	0.0000000E+000	70.0725	0.0000000E+000	0.0000000E+000	0.0000000E+000	-70.0725	0.0000000E+000	0.0000000E+000	0.0000000E+000	-19.9275	0.0000000E+000	0.0000000E+000	0.0000000E+000	19.9275	2.75833	70.0725	-0.00015985	1.41269e-08	-1.21677e-11	1.41391e-08	0.262281	4.86115e+06	4186.96	4.86534e+06