File: txt/18728_R302_UA699_SOC00_C03.mpt
EC-Lab ASCII FILE
Nb header lines : 65

Potentio Electrochemical Impedance Spectroscopy

Run on channel : 3 (SN 65921)
User :
CE vs. WE compliance from -10 V to 10 V
Electrode connection : standard
Potential control : Ewe
Ewe ctrl range : min = -10.00 V, max = 10.00 V
Safety Limits :
	Do not start on E overload
Acquisition started on : 10/31/2025 11:24:03.402
Technique started on : 10/31/2025 11:24:05.457
Loaded Setting File :  C:\Users\Celltest\OneDrive - store-dot.com\Documents\EC-Lab\Data\@Biologic Test Protocols\anode half cell EIS SOC00.mps
Saved on :
	File : 18728_R302_UA699_SOC00_C03.mpr
	Directory : C:\Users\Celltest\OneDrive - store-dot.com\Documents\EC-Lab\Data\Charmaine\
	Host : 169.254.61.224
Device : VMP-3e (SN .003165)
Address : USB
EC-LAB for windows v11.62 (software)
Internet server v27.00 (firmware)
Command interpretor v12.03 (firmware)
Electrode material :
Initial state :
Electrolyte :
Comments :
Electrode surface area : 0.001 cm²
Characteristic mass : 0.001 g
Equivalent Weight : 0.000 g/eq.
Density : 0.000 g/cm3
Volume (V) : 0.001 cm³
Record Ece
Cycle Definition : Charge/Discharge alternance
Mode                Single sine
E (V)               0.0000
vs.                 Eoc
tE (h:m:s)          0:00:0.0000
record              0
dI                  0.000
unit dI             mA
dt (s)              0.000
fi                  100.000
unit fi             kHz
ff                  10.000
unit ff             mHz
Nd                  6
Points              per decade
spacing             Logarithmic
Va (mV)             5.0
pw                  0.10
Na                  2
corr                0
E range min (V)     -10.000
E range max (V)     10.000
I Range             Auto
Bandwidth           5
nc cycles           0
goto Ns'            0
nr cycles           0
inc. cycle          0

freq/Hz	Re(Z)/Ohm	-Im(Z)/Ohm	|Z|/Ohm	Phase(Z)/deg	time/s	<Ewe>/V	<I>/mA	Cs/µF	Cp/µF	cycle number	I Range	|Ewe|/V	|I|/A	Ns	(Q-Qo)/mA.h	<Ece>/V	|Ece|/V	Phase(Zce)/deg	|Zce|/Ohm	Re(Zce)/Ohm	-Im(Zce)/Ohm	Phase(Zwe-ce)/deg	|Zwe-ce|/Ohm	Re(Zwe-ce)/Ohm	-Im(Zwe-ce)/Ohm	Re(Y)/Ohm-1	Im(Y)/Ohm-1	|Y|/Ohm-1	Phase(Y)/deg	Re(C)/nF	Im(C)/nF	|C|/nF	Phase(C)/deg	Re(M)	Im(M)	|M|	Phase(M)/deg	Re(Permittivity)	Im(Permittivity)	|Permittivity|	Phase(Permittivity)/deg	Re(Resistivity)/Ohm.cm	Im(Resistivity)/Ohm.cm	|Resistivity|/Ohm.cm	Phase(Resistivity)/deg	Re(Conductivity)/mS/cm	Im(Conductivity)/mS/cm	|Conductivity|/mS/cm	Phase(Conductivity)/deg	Tan(Delta)	Loss Angle(Delta)/deg	dq/mA.h	Pwe/W	Pce/W	Pwe-ce/W	<Ewe-Ece>/V	Rwe/Ohm	Rce/Ohm	Rwe-ce/Ohm		Ewe-Ece/V
100004	1.51084	0.737068	1.68104	-26.0056	2.05454	0.270687	0.0338189	2.15922	0.415101	1	9	0.00494952	0.00294431	0	-2.44194e-06	1.49552e-05	2.52937e-05	66.6042	0.00859069	0.0034112	-0.0078844	-25.713	1.68067	1.51425	0.729184	0.534639	0.260825	0.594869	26.0056	415.101	850.873	946.728	-63.9944	0.0000000E+000	0.0000000E+000	0.0000000E+000	63.9944	0.0000000E+000	0.0000000E+000	0.0000000E+000	-63.9944	0.0000000E+000	0.0000000E+000	0.0000000E+000	-26.0056	0.0000000E+000	0.0000000E+000	0.0000000E+000	26.0056	2.0498	63.9944	-2.44194e-06	9.15433e-06	5.0577e-10	9.15382e-06	0.270672	8004.02	0.442216	8003.57
68132	1.72179	0.845588	1.91823	-26.1561	2.56356	0.270681	0.0376228	2.76255	0.536819	1	9	0.00504325	0.00262912	0	-2.75687e-06	5.31434e-05	1.77516e-05	24.5774	0.00675193	0.00614021	-0.00280828	-26.0003	1.92251	1.72793	0.84278	0.467931	0.229805	0.521315	26.1561	536.819	1093.08	1217.78	-63.8439	0.0000000E+000	0.0000000E+000	0.0000000E+000	63.8439	0.0000000E+000	0.0000000E+000	0.0000000E+000	-63.8439	0.0000000E+000	0.0000000E+000	0.0000000E+000	-26.1561	0.0000000E+000	0.0000000E+000	0.0000000E+000	26.1561	2.03621	63.8439	-3.14929e-07	1.01838e-05	1.9994e-09	1.01818e-05	0.270628	7194.59	1.41253	7193.18
46420.4	1.95258	0.940492	2.16728	-25.7186	2.94655	0.270684	0.0337443	3.6455	0.686497	1	9	0.00543758	0.00250895	0	-1.52471e-06	-4.23269e-05	1.42122e-05	42.2558	0.0056646	0.00419265	-0.00380911	-25.5799	2.16941	1.95677	0.936683	0.4157	0.200229	0.461409	25.7186	686.497	1425.25	1581.97	-64.2814	0.0000000E+000	0.0000000E+000	0.0000000E+000	64.2814	0.0000000E+000	0.0000000E+000	0.0000000E+000	-64.2814	0.0000000E+000	0.0000000E+000	0.0000000E+000	-25.7186	0.0000000E+000	0.0000000E+000	0.0000000E+000	25.7186	2.07612	64.2814	1.23216e-06	9.13405e-06	-1.42829e-09	9.13548e-06	0.270727	8021.64	1.25434	8022.89
31621.1	2.20236	1.02225	2.42804	-24.899	3.32952	0.270685	0.0310964	4.92361	0.87275	1	9	0.00544751	0.00224358	0	5.05051e-06	0.000301366	7.00642e-06	21.5554	0.00312287	0.00290447	-0.00114734	-24.8456	2.43019	2.20526	1.02111	0.373574	0.173399	0.411855	24.899	872.75	1880.26	2072.94	-65.101	0.0000000E+000	0.0000000E+000	0.0000000E+000	65.101	0.0000000E+000	0.0000000E+000	0.0000000E+000	-65.101	0.0000000E+000	0.0000000E+000	0.0000000E+000	-24.899	0.0000000E+000	0.0000000E+000	0.0000000E+000	24.899	2.15441	65.101	6.57522e-06	8.41733e-06	9.37141e-09	8.40796e-06	0.270383	8704.69	9.69135	8695
21544.7	2.46124	1.10193	2.69665	-24.1187	3.71452	0.270669	0.0364667	6.70387	1.1194	1	9	0.00539302	0.00199989	0	1.44399e-05	3.40493e-05	6.69329e-06	-29.0698	0.00334683	0.00292522	0.00162614	-24.1249	2.69999	2.46416	1.10356	0.338457	0.151532	0.37083	24.1187	1119.4	2500.25	2739.4	-65.8813	0.0000000E+000	0.0000000E+000	0.0000000E+000	65.8813	0.0000000E+000	0.0000000E+000	0.0000000E+000	-65.8813	0.0000000E+000	0.0000000E+000	0.0000000E+000	-24.1187	0.0000000E+000	0.0000000E+000	0.0000000E+000	24.1187	2.23357	65.8813	9.38943e-06	9.87041e-06	1.24167e-09	9.86917e-06	0.270635	7422.37	0.93371	7421.44
14678.6	2.72496	1.16673	2.96423	-23.1788	4.09756	0.270671	0.0362056	9.29322	1.43973	1	9	0.00527599	0.00177989	0	2.19246e-05	-0.00029055	1.10903e-05	-57.8491	0.0062309	0.00331578	0.00527538	-23.2472	2.96935	2.72827	1.172	0.310125	0.132784	0.337356	23.1788	1439.73	3362.58	3657.84	-66.8212	0.0000000E+000	0.0000000E+000	0.0000000E+000	66.8212	0.0000000E+000	0.0000000E+000	0.0000000E+000	-66.8212	0.0000000E+000	0.0000000E+000	0.0000000E+000	-23.1788	0.0000000E+000	0.0000000E+000	0.0000000E+000	23.1788	2.33556	66.8212	7.48471e-06	9.79982e-06	-1.05195e-08	9.81034e-06	0.270962	7475.95	8.02499	7483.97
10002.2	2.99847	1.26204	3.25324	-22.826	4.48051	0.270687	0.0356089	12.6081	1.89742	1	9	0.00518535	0.0015939	0	2.53978e-05	3.40493e-05	4.88778e-06	-71.057	0.00306655	0.000995489	0.00290047	-22.8662	3.25528	2.99947	1.26494	0.283314	0.119245	0.307386	22.826	1897.42	4508.07	4891.11	-67.174	0.0000000E+000	0.0000000E+000	0.0000000E+000	67.174	0.0000000E+000	0.0000000E+000	0.0000000E+000	-67.174	0.0000000E+000	0.0000000E+000	0.0000000E+000	-22.826	0.0000000E+000	0.0000000E+000	0.0000000E+000	22.826	2.37589	67.174	3.47317e-06	9.63887e-06	1.21246e-09	9.63766e-06	0.270653	7601.66	0.956202	7600.71
6810.42	3.29211	1.404	3.579	-23.097	4.86355	0.270686	0.0319168	16.6448	2.56148	1	9	0.00503321	0.00140632	0	2.83279e-05	1.49552e-05	4.28259e-05	140.724	0.0304525	-0.0235735	-0.0192781	-22.96	3.54976	3.26854	1.38472	0.257011	0.109608	0.279408	23.097	2561.48	6006.17	6529.57	-66.903	0.0000000E+000	0.0000000E+000	0.0000000E+000	66.903	0.0000000E+000	0.0000000E+000	0.0000000E+000	-66.903	0.0000000E+000	0.0000000E+000	0.0000000E+000	-23.097	0.0000000E+000	0.0000000E+000	0.0000000E+000	23.097	2.34481	66.903	2.93011e-06	8.63944e-06	4.77324e-10	8.63897e-06	0.270671	8480.98	0.468569	8480.51
4646	3.54482	1.53598	3.86329	-23.4272	5.12863	0.270659	0.0234885	22.3026	3.52543	1	9	0.00500898	0.00129656	0	3.10165e-05	-6.1421e-05	3.51352e-06	-28.7167	0.00270988	0.00237658	0.00130204	-23.4309	3.86598	3.5472	1.53728	0.237509	0.102913	0.258847	23.4272	3525.43	8136.19	8867.15	-66.5728	0.0000000E+000	0.0000000E+000	0.0000000E+000	66.5728	0.0000000E+000	0.0000000E+000	0.0000000E+000	-66.5728	0.0000000E+000	0.0000000E+000	0.0000000E+000	-23.4272	0.0000000E+000	0.0000000E+000	0.0000000E+000	23.4272	2.30785	66.5728	2.68855e-06	6.35738e-06	-1.44269e-09	6.35882e-06	0.270721	11523.1	2.61494	11525.7
3163.08	3.83653	1.72955	4.20836	-24.2664	5.71067	0.270615	-0.0163145	29.0922	4.91379	1	10	0.0050612	0.00120265	0	2.83839e-05	-4.13882e-06	1.38969e-05	20.4378	0.0115552	0.0108278	-0.00403496	-24.1559	4.21658	3.84736	1.72551	0.216627	0.0976578	0.237622	24.2664	4913.79	10899.9	11956.3	-65.7336	0.0000000E+000	0.0000000E+000	0.0000000E+000	65.7336	0.0000000E+000	0.0000000E+000	0.0000000E+000	-65.7336	0.0000000E+000	0.0000000E+000	0.0000000E+000	-24.2664	0.0000000E+000	0.0000000E+000	0.0000000E+000	24.2664	2.21822	65.7336	-2.63258e-06	-4.41495e-06	6.75226e-11	-4.41501e-06	0.270619	16587.4	0.25369	16587.7
2155.69	4.15662	2.00793	4.6162	-25.7837	6.16178	0.270618	-0.00893874	36.7693	6.95686	1	10	0.00500888	0.00108506	0	2.68833e-05	-0.00038602	8.21846e-06	-46.6834	0.00757417	0.0051961	0.00551077	-25.8172	4.62328	4.16182	2.01344	0.195061	0.0942279	0.216628	25.7837	6956.86	14401.4	15993.7	-64.2163	0.0000000E+000	0.0000000E+000	0.0000000E+000	64.2163	0.0000000E+000	0.0000000E+000	0.0000000E+000	-64.2163	0.0000000E+000	0.0000000E+000	0.0000000E+000	-25.7837	0.0000000E+000	0.0000000E+000	0.0000000E+000	25.7837	2.0701	64.2163	-1.50058e-06	-2.41899e-06	3.45053e-09	-2.42244e-06	0.271004	30274.8	43.1851	30317.9
1468.59	4.5208	2.4	5.11836	-27.9629	6.61311	0.270623	-0.00849875	45.1554	9.92816	1	10	0.00493651	0.000964472	0	2.56472e-05	-9.96091e-05	4.81952e-06	-31.0618	0.00499706	0.00428054	0.00257829	-27.9659	5.12335	4.52508	2.40257	0.172565	0.0916113	0.195375	27.9629	9928.16	18701.4	21173.3	-62.0371	0.0000000E+000	0.0000000E+000	0.0000000E+000	62.0371	0.0000000E+000	0.0000000E+000	0.0000000E+000	-62.0371	0.0000000E+000	0.0000000E+000	0.0000000E+000	-27.9629	0.0000000E+000	0.0000000E+000	0.0000000E+000	27.9629	1.88367	62.0371	-1.23614e-06	-2.29995e-06	8.46553e-10	-2.3008e-06	0.270722	31842.7	11.7205	31854.4
1000.32	4.93198	2.94209	5.74285	-30.8175	7.06384	0.27062	-0.00872248	54.0785	14.1933	1	10	0.00486025	0.000846312	0	2.52603e-05	1.49552e-05	5.85269e-06	-22.3997	0.00691552	0.00639373	0.00263527	-30.8074	5.74969	4.93837	2.94473	0.149543	0.0892075	0.174129	30.8175	14193.3	23792.9	27704.7	-59.1825	0.0000000E+000	0.0000000E+000	0.0000000E+000	59.1825	0.0000000E+000	0.0000000E+000	0.0000000E+000	-59.1825	0.0000000E+000	0.0000000E+000	0.0000000E+000	-30.8175	0.0000000E+000	0.0000000E+000	0.0000000E+000	30.8175	1.67635	59.1825	-3.86825e-07	-2.36048e-06	-1.30447e-10	-2.36035e-06	0.270605	31025.6	1.71456	31023.9
681.09	5.4692	3.67392	6.58862	-33.8911	7.51358	0.270616	-0.00968827	63.6042	19.7768	1	10	0.00480942	0.000729958	0	2.40189e-05	-0.000195079	5.91769e-06	-137.736	0.00810689	-0.00599952	0.00545229	-33.9596	6.58668	5.4632	3.67937	0.12599	0.0846333	0.151777	33.8911	19776.9	29440.9	35466.8	-56.1089	0.0000000E+000	0.0000000E+000	0.0000000E+000	56.1089	0.0000000E+000	0.0000000E+000	0.0000000E+000	-56.1089	0.0000000E+000	0.0000000E+000	0.0000000E+000	-33.8911	0.0000000E+000	0.0000000E+000	0.0000000E+000	33.8911	1.48866	56.1089	-1.24146e-06	-2.6218e-06	1.88998e-09	-2.62369e-06	0.270811	27932.4	20.1356	27952.5
463.961	6.15249	4.6475	7.71054	-37.0669	7.96428	0.270621	-0.00858079	73.8107	26.8157	1	10	0.00477663	0.000619493	0	2.25958e-05	-0.000156891	8.42012e-06	-19.4772	0.013592	0.0128141	0.00453198	-37.0364	7.7235	6.16531	4.65204	0.103486	0.0781718	0.129693	37.0669	26815.7	35499.3	44489.1	-52.9331	0.0000000E+000	0.0000000E+000	0.0000000E+000	52.9331	0.0000000E+000	0.0000000E+000	0.0000000E+000	-52.9331	0.0000000E+000	0.0000000E+000	0.0000000E+000	-37.0669	0.0000000E+000	0.0000000E+000	0.0000000E+000	37.0669	1.32383	52.9331	-1.42306e-06	-2.32214e-06	1.34625e-09	-2.32349e-06	0.270778	31538	18.284	31556.3
316.316	7.10648	5.88668	9.22795	-39.6368	8.41206	0.270615	-0.00857707	85.4729	34.7824	1	10	0.00474635	0.000514345	0	2.2026e-05	0.000167708	6.17628e-06	101.328	0.0120081	-0.00235875	-0.0117741	-39.5898	9.21863	7.10412	5.87491	0.0834534	0.069129	0.108366	39.6368	34782.4	41989.7	54524.8	-50.3632	0.0000000E+000	0.0000000E+000	0.0000000E+000	50.3632	0.0000000E+000	0.0000000E+000	0.0000000E+000	-50.3632	0.0000000E+000	0.0000000E+000	0.0000000E+000	-39.6368	0.0000000E+000	0.0000000E+000	0.0000000E+000	39.6368	1.20721	50.3632	-5.69858e-07	-2.32108e-06	-1.43844e-09	-2.31964e-06	0.270447	31551	19.553	31531.4
215.345	8.53762	7.43617	11.322	-41.0555	8.86152	0.270621	-0.00868148	99.3886	42.8736	1	10	0.00473259	0.000418	0	2.12291e-05	-9.96091e-05	1.01776e-05	22.3076	0.0243484	0.0225261	-0.00924212	-40.9455	11.3329	8.56014	7.42693	0.0666025	0.0580101	0.0883237	41.0555	42873.6	49224	65277.5	-48.9445	0.0000000E+000	0.0000000E+000	0.0000000E+000	48.9445	0.0000000E+000	0.0000000E+000	0.0000000E+000	-48.9445	0.0000000E+000	0.0000000E+000	0.0000000E+000	-41.0555	0.0000000E+000	0.0000000E+000	0.0000000E+000	41.0555	1.14812	48.9445	-7.96881e-07	-2.34939e-06	8.64754e-10	-2.35026e-06	0.270721	31172.3	11.4738	31183.8
146.737	10.5306	9.17425	13.9664	-41.0623	9.30747	0.27062	-0.00960997	118.225	51.013	1	10	0.00471876	0.000337865	0	2.03431e-05	-0.000309644	9.89807e-06	56.0461	0.0292959	0.0163625	-0.0243006	-40.943	13.9628	10.547	9.14995	0.0539864	0.0470328	0.0716004	41.0623	51013	58554.9	77659.5	-48.9377	0.0000000E+000	0.0000000E+000	0.0000000E+000	48.9377	0.0000000E+000	0.0000000E+000	0.0000000E+000	-48.9377	0.0000000E+000	0.0000000E+000	0.0000000E+000	-41.0623	0.0000000E+000	0.0000000E+000	0.0000000E+000	41.0623	1.14784	48.9377	-8.85977e-07	-2.60065e-06	2.97567e-09	-2.60363e-06	0.27093	28160.3	32.2211	28192.6
100.032	13.3213	10.8382	17.1733	-39.1319	9.75884	0.270624	-0.00894996	146.799	58.4696	1	10	0.00470834	0.000274166	0	1.90694e-05	-2.32329e-05	3.19372e-05	-89.3931	0.116489	0.00123383	0.116482	-39.4294	17.248	13.3225	10.9547	0.0451686	0.0367493	0.0582299	39.1319	58469.6	71865.1	92646	-50.8681	0.0000000E+000	0.0000000E+000	0.0000000E+000	50.8681	0.0000000E+000	0.0000000E+000	0.0000000E+000	-50.8681	0.0000000E+000	0.0000000E+000	0.0000000E+000	-39.1319	0.0000000E+000	0.0000000E+000	0.0000000E+000	39.1319	1.2291	50.8681	-1.27368e-06	-2.42207e-06	2.07933e-10	-2.42228e-06	0.270647	30237.4	2.59586	30240
68.104	16.9042	12.0878	20.7814	-35.5676	10.4724	0.270649	-0.00699831	193.331	65.41	1	11	0.00472835	0.000227528	0	1.7685e-05	0.00012952	6.42822e-06	-55.7131	0.0282525	0.0159157	0.023343	-35.5944	20.8079	16.9201	12.1111	0.0391422	0.0279896	0.0481199	35.5676	65410	91472.9	112453	-54.4324	0.0000000E+000	0.0000000E+000	0.0000000E+000	54.4324	0.0000000E+000	0.0000000E+000	0.0000000E+000	-54.4324	0.0000000E+000	0.0000000E+000	0.0000000E+000	-35.5676	0.0000000E+000	0.0000000E+000	0.0000000E+000	35.5676	1.39845	54.4324	-1.38442e-06	-1.89409e-06	-9.06419e-10	-1.89318e-06	0.27052	38673.5	18.5073	38655
46.4415	20.7892	12.5098	24.2629	-31.0373	10.9087	0.270648	-0.00716835	273.944	72.8251	1	11	0.00471327	0.000194258	0	1.67684e-05	-0.00029055	6.89814e-06	13.0448	0.0355101	0.0345937	-0.00801507	-30.979	24.2884	20.8238	12.5018	0.0353145	0.0212504	0.0412153	31.0373	72825.1	121023	141244	-58.9627	0.0000000E+000	0.0000000E+000	0.0000000E+000	58.9627	0.0000000E+000	0.0000000E+000	0.0000000E+000	-58.9627	0.0000000E+000	0.0000000E+000	0.0000000E+000	-31.0373	0.0000000E+000	0.0000000E+000	0.0000000E+000	31.0373	1.66183	58.9627	-9.16574e-07	-1.9401e-06	2.08276e-09	-1.94218e-06	0.270939	37756	40.5323	37796.5
31.6296	24.6719	12.0362	27.4513	-26.0055	11.3386	0.27064	-0.00737904	418.058	80.3698	1	11	0.00471413	0.000171727	0	1.6274e-05	-6.1421e-05	5.99577e-06	11.9564	0.0349145	0.034157	-0.00723315	-25.9607	27.4788	24.706	12.029	0.0327399	0.0159722	0.0364282	26.0055	80369.8	164742	183301	-63.9945	0.0000000E+000	0.0000000E+000	0.0000000E+000	63.9945	0.0000000E+000	0.0000000E+000	0.0000000E+000	-63.9945	0.0000000E+000	0.0000000E+000	0.0000000E+000	-26.0055	0.0000000E+000	0.0000000E+000	0.0000000E+000	26.0055	2.0498	63.9945	-4.94391e-07	-1.99707e-06	4.53228e-10	-1.99752e-06	0.270702	36676.9	8.32371	36685.2
21.5517	27.9879	11.1509	30.1275	-21.7233	11.7595	0.270645	-0.00744952	662.257	90.7242	1	11	0.00472054	0.000156685	0	1.55019e-05	-0.000118703	2.00078e-05	-120.43	0.127694	-0.0646753	0.110104	-21.9635	30.1084	27.9232	11.261	0.030835	0.0122853	0.0331923	21.7233	90724.2	227710	245118	-68.2767	0.0000000E+000	0.0000000E+000	0.0000000E+000	68.2767	0.0000000E+000	0.0000000E+000	0.0000000E+000	-68.2767	0.0000000E+000	0.0000000E+000	0.0000000E+000	-21.7233	0.0000000E+000	0.0000000E+000	0.0000000E+000	21.7233	2.50991	68.2767	-7.72143e-07	-2.01617e-06	8.84282e-10	-2.01706e-06	0.270763	36330.5	15.9343	36346.4
14.6852	30.5807	9.85104	32.1282	-17.8555	12.2202	0.270658	-0.00672162	1100.17	103.431	1	11	0.00470314	0.000146387	0	1.49291e-05	-9.96091e-05	8.89942e-06	7.36955	0.0607939	0.0602917	-0.00779795	-17.8093	32.1832	30.641	9.84324	0.0296261	0.00954354	0.0311253	17.8555	103431	321082	337330	-72.1445	0.0000000E+000	0.0000000E+000	0.0000000E+000	72.1445	0.0000000E+000	0.0000000E+000	0.0000000E+000	-72.1445	0.0000000E+000	0.0000000E+000	0.0000000E+000	-17.8555	0.0000000E+000	0.0000000E+000	0.0000000E+000	17.8555	3.10431	72.1445	-5.72757e-07	-1.81926e-06	6.69535e-10	-1.81993e-06	0.270758	40266.8	14.8192	40281.7
10.0032	32.727	8.86117	33.9054	-15.1502	12.6709	0.270658	-0.00664294	1795.52	122.64	1	11	0.0047035	0.000138724	0	1.30057e-05	-0.000118703	1.13595e-05	-61.4341	0.0818855	0.0391552	0.0719174	-15.25	33.9621	32.7662	8.93308	0.0284687	0.0077082	0.0294938	15.1502	122640	452949	469258	-74.8498	0.0000000E+000	0.0000000E+000	0.0000000E+000	74.8498	0.0000000E+000	0.0000000E+000	0.0000000E+000	-74.8498	0.0000000E+000	0.0000000E+000	0.0000000E+000	-15.1502	0.0000000E+000	0.0000000E+000	0.0000000E+000	15.1502	3.69331	74.8498	-1.92341e-06	-1.79796e-06	7.88538e-10	-1.79875e-06	0.270777	40743.7	17.8691	40761.6
6.81719	34.6325	8.08671	35.5641	-13.1431	13.0105	0.270653	-0.0071251	2886.97	149.267	1	11	0.00471121	0.000132471	0	1.32976e-05	-0.000175985	9.15134e-06	-146.276	0.0690819	-0.057457	0.0383535	-13.2245	35.5169	34.575	8.12507	0.0273817	0.00639365	0.0281183	13.1431	149267	639257	656452	-76.8569	0.0000000E+000	0.0000000E+000	0.0000000E+000	76.8569	0.0000000E+000	0.0000000E+000	0.0000000E+000	-76.8569	0.0000000E+000	0.0000000E+000	0.0000000E+000	-13.1431	0.0000000E+000	0.0000000E+000	0.0000000E+000	13.1431	4.28264	76.8569	2.91843e-07	-1.92843e-06	1.25391e-09	-1.92968e-06	0.270829	37985.8	24.6994	38010.5
4.63925	36.1882	7.47185	36.9515	-11.666	13.4944	0.270656	-0.00627936	4591.39	187.731	1	11	0.00470581	0.000127351	0	1.30258e-05	-8.05151e-05	2.49307e-06	26.4069	0.0195764	0.0175337	-0.00870646	-11.6473	36.9669	36.2057	7.46315	0.0265035	0.00547222	0.0270625	11.666	187731	909232	928410	-78.334	0.0000000E+000	0.0000000E+000	0.0000000E+000	78.334	0.0000000E+000	0.0000000E+000	0.0000000E+000	-78.334	0.0000000E+000	0.0000000E+000	0.0000000E+000	-11.666	0.0000000E+000	0.0000000E+000	0.0000000E+000	11.666	4.84327	78.334	-2.71769e-07	-1.69954e-06	5.05583e-10	-1.70005e-06	0.270736	43102.4	12.8222	43115.3
3.1604	37.7331	7.23449	38.4204	-10.8535	14.1874	0.270651	-0.0060558	6960.98	246.81	1	11	0.0047102	0.000122596	0	1.04029e-05	-2.32329e-05	7.62929e-06	24.7913	0.062231	0.0564958	-0.0260944	-10.7995	38.471	37.7896	7.2084	0.0255622	0.00490099	0.0260278	10.8535	246810	1.28729e+06	1.31074e+06	-79.1465	0.0000000E+000	0.0000000E+000	0.0000000E+000	79.1465	0.0000000E+000	0.0000000E+000	0.0000000E+000	-79.1465	0.0000000E+000	0.0000000E+000	0.0000000E+000	-10.8535	0.0000000E+000	0.0000000E+000	0.0000000E+000	10.8535	5.21573	79.1465	-2.62291e-06	-1.63901e-06	1.40694e-10	-1.63915e-06	0.270674	44692.8	3.83647	44696.7
2.15577	39.3396	7.03817	39.9642	-10.1434	15.1911	0.270657	-0.00561084	10489.6	325.338	1	11	0.00471045	0.000117867	0	7.10572e-06	0.000148614	4.42163e-06	-110.29	0.0375138	-0.013009	0.035186	-10.1963	39.9576	39.3266	7.07335	0.0246313	0.00440673	0.0250224	10.1434	325338	1.81847e+06	1.84734e+06	-79.8566	0.0000000E+000	0.0000000E+000	0.0000000E+000	79.8566	0.0000000E+000	0.0000000E+000	0.0000000E+000	-79.8566	0.0000000E+000	0.0000000E+000	0.0000000E+000	-10.1434	0.0000000E+000	0.0000000E+000	0.0000000E+000	10.1434	5.58947	79.8566	-3.29717e-06	-1.51861e-06	-8.33847e-10	-1.51778e-06	0.270509	48238.3	26.4869	48211.8
1.46631	40.969	7.11545	41.5824	-9.85277	17.3784	0.270654	-0.00571425	15254.3	446.661	1	12	0.00471172	0.00011331	0	4.19058e-06	3.40493e-05	2.29218e-06	-31.0862	0.0202292	0.0173241	0.0104449	-9.86286	41.6012	40.9864	7.12589	0.023694	0.00411513	0.0240487	9.85277	446661	2.57177e+06	2.61027e+06	-80.1472	0.0000000E+000	0.0000000E+000	0.0000000E+000	80.1472	0.0000000E+000	0.0000000E+000	0.0000000E+000	-80.1472	0.0000000E+000	0.0000000E+000	0.0000000E+000	-9.85277	0.0000000E+000	0.0000000E+000	0.0000000E+000	9.85277	5.75776	80.1472	-2.91515e-06	-1.54658e-06	-1.94566e-10	-1.54639e-06	0.270619	47364.7	5.95867	47358.7
1.00006	42.6282	7.09343	43.2144	-9.44758	19.5058	0.270652	-0.00563322	22435.5	604.494	1	12	0.00471164	0.00010903	0	4.35373e-06	-4.23269e-05	1.63207e-06	73.085	0.0149691	0.0043553	-0.0143215	-9.4279	43.2163	42.6326	7.07911	0.0228266	0.00379839	0.0231404	9.44758	604494	3.63273e+06	3.68268e+06	-80.5524	0.0000000E+000	0.0000000E+000	0.0000000E+000	80.5524	0.0000000E+000	0.0000000E+000	0.0000000E+000	-80.5524	0.0000000E+000	0.0000000E+000	0.0000000E+000	-9.44758	0.0000000E+000	0.0000000E+000	0.0000000E+000	9.44758	6.00954	80.5524	1.63148e-07	-1.52464e-06	2.38437e-10	-1.52488e-06	0.270694	48045.6	7.51381	48053.2
0.681362	44.3972	7.03184	44.9506	-9.00001	22.618	0.270655	-0.00526857	33218	812.903	1	12	0.00470993	0.00010478	0	3.97763e-06	0.000244084	2.33747e-06	-1.77161	0.0223084	0.0222977	0.000689672	-8.99643	44.9728	44.4195	7.03253	0.0219727	0.00348014	0.0222466	9.00001	812903	5.13246e+06	5.19644e+06	-81	0.0000000E+000	0.0000000E+000	0.0000000E+000	81	0.0000000E+000	0.0000000E+000	0.0000000E+000	-81	0.0000000E+000	0.0000000E+000	0.0000000E+000	-9.00001	0.0000000E+000	0.0000000E+000	0.0000000E+000	9.00001	6.31375	81	-3.76091e-07	-1.42597e-06	-1.28597e-09	-1.42468e-06	0.270411	51371.7	46.3283	51325.3
0.464091	46.1896	6.99421	46.7161	-8.61054	27.1747	0.270648	-0.00477525	49031.9	1099.06	1	12	0.0047125	0.000100875	0	-5.15125e-08	-8.05151e-05	3.31294e-06	26.3141	0.0328419	0.0294388	-0.0145585	-8.58749	46.7431	46.219	6.97965	0.0211646	0.00320483	0.0214059	8.61054	1.09906e+06	7.25818e+06	7.34092e+06	-81.3895	0.0000000E+000	0.0000000E+000	0.0000000E+000	81.3895	0.0000000E+000	0.0000000E+000	0.0000000E+000	-81.3895	0.0000000E+000	0.0000000E+000	0.0000000E+000	-8.61054	0.0000000E+000	0.0000000E+000	0.0000000E+000	8.61054	6.60398	81.3895	-4.02915e-06	-1.29241e-06	3.8448e-10	-1.2928e-06	0.270728	56677.1	16.8609	56694
0.316193	47.8315	6.99236	48.3399	-8.31699	33.848	0.270656	-0.00408849	71985.3	1506.19	1	12	0.00471496	9.75375e-05	0	-1.15581e-05	-4.23269e-05	4.36312e-06	23.6009	0.0447328	0.0409912	-0.0179094	-8.28899	48.3779	47.8725	6.97445	0.0204693	0.00299234	0.0206868	8.31699	1.50619e+06	1.03031e+07	1.04127e+07	-81.683	0.0000000E+000	0.0000000E+000	0.0000000E+000	81.683	0.0000000E+000	0.0000000E+000	0.0000000E+000	-81.683	0.0000000E+000	0.0000000E+000	0.0000000E+000	-8.31699	0.0000000E+000	0.0000000E+000	0.0000000E+000	8.31699	6.84055	81.683	-1.15066e-05	-1.10658e-06	1.73053e-10	-1.10675e-06	0.270699	66199.6	10.3527	66210
0.215268	49.3075	7.01595	49.8041	-8.09824	43.6414	0.270654	-0.00365261	105379	2091.21	1	12	0.00470946	9.45597e-05	0	-3.32249e-05	-4.23269e-05	2.17854e-06	72.0691	0.0230387	0.00709293	-0.0219197	-8.07213	49.808	49.3146	6.99403	0.0198784	0.0028285	0.0200787	8.09824	2.09121e+06	1.46968e+07	1.48449e+07	-81.9018	0.0000000E+000	0.0000000E+000	0.0000000E+000	81.9018	0.0000000E+000	0.0000000E+000	0.0000000E+000	-81.9018	0.0000000E+000	0.0000000E+000	0.0000000E+000	-8.09824	0.0000000E+000	0.0000000E+000	0.0000000E+000	8.09824	7.02791	81.9018	-2.16668e-05	-9.88591e-07	1.54604e-10	-9.88746e-07	0.270696	74098.8	11.5881	74110.3
0.146929	50.8751	7.16667	51.3774	-8.01837	57.9798	0.270657	-0.00327521	151146	2940.94	1	12	0.00471392	9.17509e-05	0	-6.42075e-05	-0.000156891	2.30328e-06	-2.6206	0.0251036	0.0250773	0.00114779	-8.01574	51.4024	50.9002	7.16782	0.0192735	0.00271502	0.0194638	8.01837	2.94094e+06	2.08773e+07	2.10834e+07	-81.9816	0.0000000E+000	0.0000000E+000	0.0000000E+000	81.9816	0.0000000E+000	0.0000000E+000	0.0000000E+000	-81.9816	0.0000000E+000	0.0000000E+000	0.0000000E+000	-8.01837	0.0000000E+000	0.0000000E+000	0.0000000E+000	8.01837	7.09885	81.9816	-3.09826e-05	-8.86459e-07	5.13852e-10	-8.86973e-07	0.270814	82638	47.9027	82685.9
0.0999041	52.489	7.62498	53.0399	-8.26543	79.0559	0.270655	-0.00314621	208929	4317.87	1	12	0.00471077	8.88156e-05	0	-9.89133e-05	-0.000233268	1.19323e-06	-19.2889	0.0134349	0.0126807	0.00443796	-8.2682	53.0531	52.5017	7.62941	0.0186579	0.00271039	0.0188537	8.26543	4.31787e+06	2.97234e+07	3.00354e+07	-81.7346	0.0000000E+000	0.0000000E+000	0.0000000E+000	81.7346	0.0000000E+000	0.0000000E+000	0.0000000E+000	-81.7346	0.0000000E+000	0.0000000E+000	0.0000000E+000	-8.26543	0.0000000E+000	0.0000000E+000	0.0000000E+000	8.26543	6.88382	81.7346	-3.47058e-05	-8.51535e-07	7.33908e-10	-8.52269e-07	0.270888	86025.7	74.1425	86099.8
0.0680626	54.1367	8.45264	54.7926	-8.87424	109.983	0.270657	-0.00294709	276643	6583.55	1	12	0.00471382	8.60303e-05	0	-0.00012818	0.00022499	3.46307e-06	-9.02829	0.0402541	0.0397553	0.00631675	-8.87435	54.8328	54.1764	8.45895	0.0180322	0.00281546	0.0182507	8.87424	6.58355e+06	4.21657e+07	4.26766e+07	-81.1258	0.0000000E+000	0.0000000E+000	0.0000000E+000	81.1258	0.0000000E+000	0.0000000E+000	0.0000000E+000	-81.1258	0.0000000E+000	0.0000000E+000	0.0000000E+000	-8.87424	0.0000000E+000	0.0000000E+000	0.0000000E+000	8.87424	6.40471	81.1258	-2.9267e-05	-7.9765e-07	-6.63065e-10	-7.96987e-07	0.270432	91838.8	76.3431	91762.4
0.0464052	55.6321	9.62082	56.4579	-9.81149	155.334	0.270652	-0.00259415	356485	10351.8	1	12	0.00471263	8.34715e-05	0	-0.00013376	-8.05151e-05	2.03626e-06	2.61112	0.0243947	0.0243694	-0.00111135	-9.80616	56.4817	55.6565	9.61971	0.0174533	0.0030183	0.0177123	9.81149	1.03518e+07	5.98591e+07	6.07476e+07	-80.1885	0.0000000E+000	0.0000000E+000	0.0000000E+000	80.1885	0.0000000E+000	0.0000000E+000	0.0000000E+000	-80.1885	0.0000000E+000	0.0000000E+000	0.0000000E+000	-9.81149	0.0000000E+000	0.0000000E+000	0.0000000E+000	9.81149	5.78247	80.1885	-5.57949e-06	-7.02113e-07	2.08868e-10	-7.02322e-07	0.270733	104332	31.0371	104363
0.0315922	57.2829	11.0675	58.3423	-10.9353	221.939	0.270652	-0.00193972	455186	16380.4	1	12	0.00471025	8.07348e-05	0	-0.000103401	0.000396837	2.16108e-06	12.0425	0.0267676	0.0261785	-0.00558471	-10.925	58.367	57.3091	11.062	0.016829	0.0032515	0.0171402	10.9353	1.63804e+07	8.47809e+07	8.63489e+07	-79.0647	0.0000000E+000	0.0000000E+000	0.0000000E+000	79.0647	0.0000000E+000	0.0000000E+000	0.0000000E+000	-79.0647	0.0000000E+000	0.0000000E+000	0.0000000E+000	-10.9353	0.0000000E+000	0.0000000E+000	0.0000000E+000	10.9353	5.17576	79.0647	3.03588e-05	-5.24989e-07	-7.69752e-10	-5.2422e-07	0.270255	139532	204.584	139327
0.0215268	59.3706	13.0802	60.7944	-12.4246	319.678	0.270654	-0.00107603	565233	26165.4	1	12	0.00471245	7.75146e-05	0	-4.19775e-05	3.40493e-05	2.06342e-06	-4.681	0.0266198	0.026531	0.00217238	-12.4212	60.8208	59.3971	13.0823	0.0160637	0.00353905	0.0164489	12.4246	2.61654e+07	1.18764e+08	1.21612e+08	-77.5754	0.0000000E+000	0.0000000E+000	0.0000000E+000	77.5754	0.0000000E+000	0.0000000E+000	0.0000000E+000	-77.5754	0.0000000E+000	0.0000000E+000	0.0000000E+000	-12.4246	0.0000000E+000	0.0000000E+000	0.0000000E+000	12.4246	4.53897	77.5754	6.14235e-05	-2.91233e-07	-3.66382e-11	-2.91197e-07	0.27062	251529	31.6433	251498
0.0146812	61.9896	16.1848	64.0677	-14.6327	462.979	0.270649	-0.000346964	669809	42745.5	1	12	0.00471351	7.35708e-05	0	1.02628e-05	-6.1421e-05	2.08168e-06	16.3395	0.0282949	0.0271521	-0.00796019	-14.6196	64.0919	62.0168	16.1769	0.0151022	0.00394304	0.0156085	14.6327	4.27455e+07	1.6372e+08	1.69208e+08	-75.3673	0.0000000E+000	0.0000000E+000	0.0000000E+000	75.3673	0.0000000E+000	0.0000000E+000	0.0000000E+000	-75.3673	0.0000000E+000	0.0000000E+000	0.0000000E+000	-14.6327	0.0000000E+000	0.0000000E+000	0.0000000E+000	14.6327	3.83011	75.3673	5.22403e-05	-9.39056e-08	2.13109e-11	-9.39269e-08	0.27071	780048	177.024	780225
0.0100092	64.6939	20.5961	67.8933	-17.6595	673.159	0.270655	6.34858e-05	772037	71048	1	12	0.00471187	6.94011e-05	0	-2.08478e-05	-0.000309644	2.21976e-06	-4.216	0.0319844	0.0318979	0.00235139	-17.6532	67.9244	64.7258	20.5984	0.0140349	0.00446817	0.014729	17.6595	7.1048e+07	2.23168e+08	2.34204e+08	-72.3405	0.0000000E+000	0.0000000E+000	0.0000000E+000	72.3405	0.0000000E+000	0.0000000E+000	0.0000000E+000	-72.3405	0.0000000E+000	0.0000000E+000	0.0000000E+000	-17.6595	0.0000000E+000	0.0000000E+000	0.0000000E+000	17.6595	3.14108	72.3405	-3.11106e-05	1.71827e-08	-1.9658e-11	1.72024e-08	0.270964	4.26323e+06	4877.37	4.26811e+06