File: txt/18729_R302_UA699_SOC00_C04.mpt
EC-Lab ASCII FILE
Nb header lines : 65

Potentio Electrochemical Impedance Spectroscopy

Run on channel : 4 (SN 66756)
User :
CE vs. WE compliance from -10 V to 10 V
Electrode connection : standard
Potential control : Ewe
Ewe ctrl range : min = -10.00 V, max = 10.00 V
Safety Limits :
	Do not start on E overload
Acquisition started on : 10/31/2025 11:24:10.521
Technique started on : 10/31/2025 11:24:12.433
Loaded Setting File :  C:\Users\Celltest\OneDrive - store-dot.com\Documents\EC-Lab\Data\@Biologic Test Protocols\anode half cell EIS SOC00.mps
Saved on :
	File : 18729_R302_UA699_SOC00_C04.mpr
	Directory : C:\Users\Celltest\OneDrive - store-dot.com\Documents\EC-Lab\Data\Charmaine\
	Host : 169.254.61.224
Device : VMP-3e (SN .003165)
Address : USB
EC-LAB for windows v11.62 (software)
Internet server v27.00 (firmware)
Command interpretor v12.03 (firmware)
Electrode material :
Initial state :
Electrolyte :
Comments :
Electrode surface area : 0.001 cm²
Characteristic mass : 0.001 g
Equivalent Weight : 0.000 g/eq.
Density : 0.000 g/cm3
Volume (V) : 0.001 cm³
Record Ece
Cycle Definition : Charge/Discharge alternance
Mode                Single sine
E (V)               0.0000
vs.                 Eoc
tE (h:m:s)          0:00:0.0000
record              0
dI                  0.000
unit dI             mA
dt (s)              0.000
fi                  100.000
unit fi             kHz
ff                  10.000
unit ff             mHz
Nd                  6
Points              per decade
spacing             Logarithmic
Va (mV)             5.0
pw                  0.10
Na                  2
corr                0
E range min (V)     -10.000
E range max (V)     10.000
I Range             Auto
Bandwidth           5
nc cycles           0
goto Ns'            0
nr cycles           0
inc. cycle          0

freq/Hz	Re(Z)/Ohm	-Im(Z)/Ohm	|Z|/Ohm	Phase(Z)/deg	time/s	<Ewe>/V	<I>/mA	Cs/µF	Cp/µF	cycle number	I Range	|Ewe|/V	|I|/A	Ns	(Q-Qo)/mA.h	<Ece>/V	|Ece|/V	Phase(Zce)/deg	|Zce|/Ohm	Re(Zce)/Ohm	-Im(Zce)/Ohm	Phase(Zwe-ce)/deg	|Zwe-ce|/Ohm	Re(Zwe-ce)/Ohm	-Im(Zwe-ce)/Ohm	Re(Y)/Ohm-1	Im(Y)/Ohm-1	|Y|/Ohm-1	Phase(Y)/deg	Re(C)/nF	Im(C)/nF	|C|/nF	Phase(C)/deg	Re(M)	Im(M)	|M|	Phase(M)/deg	Re(Permittivity)	Im(Permittivity)	|Permittivity|	Phase(Permittivity)/deg	Re(Resistivity)/Ohm.cm	Im(Resistivity)/Ohm.cm	|Resistivity|/Ohm.cm	Phase(Resistivity)/deg	Re(Conductivity)/mS/cm	Im(Conductivity)/mS/cm	|Conductivity|/mS/cm	Phase(Conductivity)/deg	Tan(Delta)	Loss Angle(Delta)/deg	dq/mA.h	Pwe/W	Pce/W	Pwe-ce/W	<Ewe-Ece>/V	Rwe/Ohm	Rce/Ohm	Rwe-ce/Ohm		Ewe-Ece/V
100004	1.39435	0.742969	1.57994	-28.0507	1.91156	0.271973	-0.035455	2.14207	0.473691	1	9	0.00474359	0.00300239	0	-3.6751e-06	-0.000263931	3.02601e-05	85.2503	0.0100787	0.000834544	-0.010044	-27.7141	1.57598	1.39518	0.732925	0.558587	0.29764	0.632937	28.0507	473.691	888.985	1007.31	-61.9493	0.0000000E+000	0.0000000E+000	0.0000000E+000	61.9493	0.0000000E+000	0.0000000E+000	0.0000000E+000	-61.9493	0.0000000E+000	0.0000000E+000	0.0000000E+000	-28.0507	0.0000000E+000	0.0000000E+000	0.0000000E+000	28.0507	1.87672	61.9493	-3.6751e-06	-9.64282e-06	9.35768e-09	-9.65218e-06	0.272237	7670.94	7.44411	7678.38
68132	1.61406	0.833655	1.81664	-27.3162	2.41856	0.271971	-0.035828	2.80209	0.59009	1	9	0.00505885	0.00278473	0	-1.38234e-06	-0.000512361	2.02953e-05	93.9231	0.00728808	-0.00049863	-0.007271	-27.1192	1.81287	1.61356	0.826384	0.489084	0.25261	0.550467	27.3162	590.09	1142.49	1285.88	-62.6838	0.0000000E+000	0.0000000E+000	0.0000000E+000	62.6838	0.0000000E+000	0.0000000E+000	0.0000000E+000	-62.6838	0.0000000E+000	0.0000000E+000	0.0000000E+000	-27.3162	0.0000000E+000	0.0000000E+000	0.0000000E+000	27.3162	1.93613	62.6838	2.29276e-06	-9.74419e-06	1.83569e-08	-9.76255e-06	0.272484	7591.03	14.3006	7605.33
46420.4	1.85567	0.925419	2.07362	-26.5053	2.92554	0.271971	-0.0377302	3.70487	0.737887	1	9	0.00508234	0.00245094	0	-2.11651e-05	-0.000149271	1.19798e-05	27.7432	0.00488784	0.00432595	-0.00227534	-26.3959	2.07648	1.86	0.923143	0.43156	0.215218	0.482247	26.5053	737.887	1479.63	1653.41	-63.4947	0.0000000E+000	0.0000000E+000	0.0000000E+000	63.4947	0.0000000E+000	0.0000000E+000	0.0000000E+000	-63.4947	0.0000000E+000	0.0000000E+000	0.0000000E+000	-26.5053	0.0000000E+000	0.0000000E+000	0.0000000E+000	26.5053	2.00522	63.4947	-1.97827e-05	-1.02615e-05	5.63204e-09	-1.02671e-05	0.27212	7208.3	3.95629	7212.26
31621.1	2.09111	0.992353	2.31463	-25.387	3.43455	0.27197	-0.0328815	5.07197	0.932277	1	9	0.00521567	0.00225335	0	-3.66911e-05	-0.000283041	9.78629e-06	-6.31548	0.004343	0.00431665	0.000477743	-25.352	2.31874	2.09543	0.992831	0.390314	0.185226	0.432034	25.387	932.277	1964.52	2174.51	-64.613	0.0000000E+000	0.0000000E+000	0.0000000E+000	64.613	0.0000000E+000	0.0000000E+000	0.0000000E+000	-64.613	0.0000000E+000	0.0000000E+000	0.0000000E+000	-25.387	0.0000000E+000	0.0000000E+000	0.0000000E+000	25.387	2.10723	64.613	-1.5526e-05	-8.94279e-06	9.30682e-09	-8.9521e-06	0.272253	8271.22	8.60791	8279.82
21544.7	2.34269	1.05672	2.56999	-24.2789	3.81756	0.27197	-0.0343361	6.99067	1.18189	1	9	0.0047233	0.00183787	0	-3.73328e-05	-0.000149271	6.77252e-06	-132.119	0.00368499	-0.00247142	0.00273336	-24.3571	2.56887	2.34022	1.05946	0.354692	0.159992	0.389106	24.2789	1181.89	2620.18	2874.41	-65.7211	0.0000000E+000	0.0000000E+000	0.0000000E+000	65.7211	0.0000000E+000	0.0000000E+000	0.0000000E+000	-65.7211	0.0000000E+000	0.0000000E+000	0.0000000E+000	-24.2789	0.0000000E+000	0.0000000E+000	0.0000000E+000	24.2789	2.21694	65.7211	-6.41684e-07	-9.33839e-06	5.1254e-09	-9.34352e-06	0.272119	7920.8	4.34735	7925.15
14678.6	2.59559	1.11051	2.82317	-23.1633	4.20055	0.27197	-0.0406767	9.76371	1.51071	1	9	0.00484243	0.00171524	0	-3.90022e-05	-0.000359481	8.36985e-06	-97.4693	0.00487968	-0.00063433	0.00483828	-23.2586	2.8245	2.59496	1.11534	0.325657	0.13933	0.354211	23.1633	1510.71	3530.99	3840.59	-66.8367	0.0000000E+000	0.0000000E+000	0.0000000E+000	66.8367	0.0000000E+000	0.0000000E+000	0.0000000E+000	-66.8367	0.0000000E+000	0.0000000E+000	0.0000000E+000	-23.1633	0.0000000E+000	0.0000000E+000	0.0000000E+000	23.1633	2.3373	66.8367	-1.66939e-06	-1.10629e-05	1.46225e-08	-1.10775e-05	0.27233	6686.15	8.83752	6694.98
10002.2	2.84766	1.18368	3.08387	-22.5711	4.58356	0.271975	-0.0378421	13.4428	1.98045	1	9	0.00499634	0.00162015	0	-4.22851e-05	-9.19415e-05	5.91053e-06	-140.441	0.00364814	-0.00281259	0.00232341	-22.631	3.08217	2.84485	1.186	0.29943	0.124463	0.324268	22.5711	1980.45	4764.52	5159.73	-67.4289	0.0000000E+000	0.0000000E+000	0.0000000E+000	67.4289	0.0000000E+000	0.0000000E+000	0.0000000E+000	-67.4289	0.0000000E+000	0.0000000E+000	0.0000000E+000	-22.5711	0.0000000E+000	0.0000000E+000	0.0000000E+000	22.5711	2.40577	67.4289	-3.2829e-06	-1.02921e-05	3.47926e-09	-1.02956e-05	0.272067	7187.1	2.42961	7189.53
6810.42	3.11637	1.2389	3.3536	-21.6801	4.84255	0.271975	-0.0421313	18.8629	2.57431	1	9	0.00482955	0.00144011	0	-4.38335e-05	2.27182e-05	0.000108049	-76.5444	0.0750282	0.0174585	0.0729687	-22.715	3.39734	3.13383	1.31187	0.277093	0.110158	0.298187	21.6801	2574.31	6475.49	6968.43	-68.3199	0.0000000E+000	0.0000000E+000	0.0000000E+000	68.3199	0.0000000E+000	0.0000000E+000	0.0000000E+000	-68.3199	0.0000000E+000	0.0000000E+000	0.0000000E+000	-21.6801	0.0000000E+000	0.0000000E+000	0.0000000E+000	21.6801	2.51543	68.3199	-1.54837e-06	-1.14586e-05	-9.57148e-10	-1.14577e-05	0.271952	6455.41	0.539225	6454.87
4646	3.36895	1.39256	3.64541	-22.4579	5.10762	0.271935	-0.0595491	24.5995	3.58973	1	9	0.00475817	0.00130525	0	-4.86389e-05	-0.000187491	8.93941e-06	51.7133	0.00684882	0.00424351	-0.00537577	-22.3544	3.64729	3.37319	1.38719	0.253513	0.10479	0.274317	22.4579	3589.73	8684.43	9397.1	-67.5421	0.0000000E+000	0.0000000E+000	0.0000000E+000	67.5421	0.0000000E+000	0.0000000E+000	0.0000000E+000	-67.5421	0.0000000E+000	0.0000000E+000	0.0000000E+000	-22.4579	0.0000000E+000	0.0000000E+000	0.0000000E+000	22.4579	2.41924	67.5421	-4.80545e-06	-1.61935e-05	1.11649e-08	-1.62047e-05	0.272123	4566.57	3.14851	4569.72
3163.08	3.65007	1.61461	3.99124	-23.8623	5.69063	0.271861	-0.0288477	31.1631	5.09992	1	10	0.00485893	0.0012174	0	-5.38291e-05	-0.000187491	7.07005e-06	49.8554	0.00580752	0.00374422	-0.00443938	-23.7823	3.99287	3.65382	1.61018	0.229132	0.101357	0.250549	23.8623	5099.92	11529.1	12606.7	-66.1377	0.0000000E+000	0.0000000E+000	0.0000000E+000	66.1377	0.0000000E+000	0.0000000E+000	0.0000000E+000	-66.1377	0.0000000E+000	0.0000000E+000	0.0000000E+000	-23.8623	0.0000000E+000	0.0000000E+000	0.0000000E+000	23.8623	2.26065	66.1377	-5.19021e-06	-7.84255e-06	5.40869e-09	-7.84796e-06	0.272048	9424	6.49935	9430.5
2155.69	3.94924	1.88673	4.37678	-25.5359	6.14178	0.271852	-0.0193581	39.1313	7.27166	1	10	0.00479831	0.00109631	0	-5.66999e-05	-3.46116e-05	8.40755e-06	-83.8984	0.00766895	0.000815153	0.00762551	-25.6213	4.38081	3.95005	1.89436	0.206159	0.0984917	0.228478	25.5359	7271.66	15220.8	16868.6	-64.4641	0.0000000E+000	0.0000000E+000	0.0000000E+000	64.4641	0.0000000E+000	0.0000000E+000	0.0000000E+000	-64.4641	0.0000000E+000	0.0000000E+000	0.0000000E+000	-25.5359	0.0000000E+000	0.0000000E+000	0.0000000E+000	25.5359	2.09317	64.4641	-2.87079e-06	-5.26254e-06	6.70016e-10	-5.26321e-06	0.271886	14043.3	1.78797	14045.1
1468.59	4.28348	2.27022	4.84789	-27.9233	6.59306	0.27187	-0.0195894	47.7367	10.4684	1	10	0.00474934	0.000979672	0	-5.82312e-05	-0.000206601	5.47866e-06	-30.7432	0.00559234	0.00480644	0.00285876	-27.9266	4.85348	4.28828	2.27308	0.18226	0.0965965	0.206275	27.9233	10468.4	19752	22354.6	-62.0767	0.0000000E+000	0.0000000E+000	0.0000000E+000	62.0767	0.0000000E+000	0.0000000E+000	0.0000000E+000	-62.0767	0.0000000E+000	0.0000000E+000	0.0000000E+000	-27.9233	0.0000000E+000	0.0000000E+000	0.0000000E+000	27.9233	1.88681	62.0767	-1.53127e-06	-5.32577e-06	4.04719e-09	-5.32982e-06	0.272077	13878.5	10.5466	13889
1000.32	4.68005	2.7723	5.43953	-30.641	7.04385	0.271862	-0.0189627	57.3907	14.9073	1	10	0.00470224	0.000864456	0	-6.00413e-05	-1.55017e-05	3.37262e-06	137.313	0.00390144	-0.00286782	-0.00264515	-30.6324	5.43571	4.67718	2.76965	0.158171	0.0936951	0.183839	30.641	14907.3	25165.7	29249.6	-59.359	0.0000000E+000	0.0000000E+000	0.0000000E+000	59.359	0.0000000E+000	0.0000000E+000	0.0000000E+000	-59.359	0.0000000E+000	0.0000000E+000	0.0000000E+000	-30.641	0.0000000E+000	0.0000000E+000	0.0000000E+000	30.641	1.68815	59.359	-1.81017e-06	-5.15525e-06	2.93954e-10	-5.15554e-06	0.271878	14336.7	0.817482	14337.5
681.09	5.18096	3.47381	6.23776	-33.8416	7.49351	0.271868	-0.0190597	67.2682	20.8624	1	10	0.00467268	0.000749096	0	-6.20579e-05	-5.37216e-05	6.41454e-06	67.0266	0.00856304	0.00334219	-0.00788388	-33.7644	6.23616	5.1843	3.46592	0.133153	0.0892787	0.160314	33.8416	20862.4	31114.9	37461.6	-56.1584	0.0000000E+000	0.0000000E+000	0.0000000E+000	56.1584	0.0000000E+000	0.0000000E+000	0.0000000E+000	-56.1584	0.0000000E+000	0.0000000E+000	0.0000000E+000	-33.8416	0.0000000E+000	0.0000000E+000	0.0000000E+000	33.8416	1.49144	56.1584	-2.01651e-06	-5.18172e-06	1.02392e-09	-5.18274e-06	0.271921	14264	2.81859	14266.8
463.961	5.86318	4.38419	7.32107	-36.7873	7.94433	0.271878	-0.0182801	78.2438	28.0595	1	10	0.00465442	0.000635757	0	-6.38464e-05	-0.000512361	3.77583e-06	-33.4012	0.00593911	0.00495818	0.00326947	-36.7845	7.327	5.86814	4.38746	0.109392	0.0817976	0.136592	36.7873	28059.5	37525.2	46855.9	-53.2127	0.0000000E+000	0.0000000E+000	0.0000000E+000	53.2127	0.0000000E+000	0.0000000E+000	0.0000000E+000	-53.2127	0.0000000E+000	0.0000000E+000	0.0000000E+000	-36.7873	0.0000000E+000	0.0000000E+000	0.0000000E+000	36.7873	1.33735	53.2127	-1.78855e-06	-4.96996e-06	9.36601e-09	-4.97933e-06	0.27239	14872.9	28.0283	14900.9
316.316	6.7715	5.57739	8.77271	-39.4768	8.39206	0.27187	-0.0196081	90.2128	36.4639	1	10	0.00463738	0.000528615	0	-6.64395e-05	-0.000225711	1.0315e-05	27.5301	0.0195132	0.0173037	-0.00901928	-39.3596	8.78035	6.7888	5.56837	0.0879867	0.0724709	0.11399	39.4768	36463.9	44270.7	57354.2	-50.5232	0.0000000E+000	0.0000000E+000	0.0000000E+000	50.5232	0.0000000E+000	0.0000000E+000	0.0000000E+000	-50.5232	0.0000000E+000	0.0000000E+000	0.0000000E+000	-39.4768	0.0000000E+000	0.0000000E+000	0.0000000E+000	39.4768	1.2141	50.5232	-2.59306e-06	-5.33085e-06	4.42576e-09	-5.33528e-06	0.272096	13865.2	11.5111	13876.7
215.345	8.13658	6.96719	10.7119	-40.5728	8.84256	0.271875	-0.019	106.079	44.8753	1	10	0.00463558	0.000432748	0	-6.84726e-05	-3.46116e-05	1.6479e-05	-24.2217	0.03808	0.0347276	0.015623	-40.5157	10.7485	8.17131	6.98282	0.0709097	0.0607186	0.0933538	40.5728	44875.3	52407.3	68995.1	-49.4272	0.0000000E+000	0.0000000E+000	0.0000000E+000	49.4272	0.0000000E+000	0.0000000E+000	0.0000000E+000	-49.4272	0.0000000E+000	0.0000000E+000	0.0000000E+000	-40.5728	0.0000000E+000	0.0000000E+000	0.0000000E+000	40.5728	1.16784	49.4272	-2.03313e-06	-5.16563e-06	6.57623e-10	-5.16629e-06	0.271909	14309.2	1.82166	14311
146.737	10.0273	8.53295	13.1666	-40.3968	9.28852	0.271871	-0.0199065	127.11	53.3868	1	10	0.00462554	0.00035131	0	-7.04115e-05	0.000213818	5.54634e-06	91.9716	0.0157876	-0.000543165	-0.0157782	-40.346	13.1559	10.0268	8.51717	0.0578416	0.0492215	0.07595	40.3968	53386.8	62736.4	82377.2	-49.6032	0.0000000E+000	0.0000000E+000	0.0000000E+000	49.6032	0.0000000E+000	0.0000000E+000	0.0000000E+000	-49.6032	0.0000000E+000	0.0000000E+000	0.0000000E+000	-40.3968	0.0000000E+000	0.0000000E+000	0.0000000E+000	40.3968	1.17513	49.6032	-1.9389e-06	-5.412e-06	-4.25636e-09	-5.40774e-06	0.271657	13657.4	10.7411	13646.7
100.032	12.7485	10.055	16.2366	-38.2636	9.73985	0.271876	-0.0192276	158.233	60.6838	1	10	0.00464194	0.000285893	0	-7.3102e-05	-5.37216e-05	3.8294e-05	92.5252	0.133945	-0.00590144	-0.133815	-37.9038	16.1494	12.7426	9.92121	0.048358	0.038141	0.0615892	38.2636	60683.8	76939.4	97990.8	-51.7364	0.0000000E+000	0.0000000E+000	0.0000000E+000	51.7364	0.0000000E+000	0.0000000E+000	0.0000000E+000	-51.7364	0.0000000E+000	0.0000000E+000	0.0000000E+000	-38.2636	0.0000000E+000	0.0000000E+000	0.0000000E+000	38.2636	1.26787	51.7364	-2.69047e-06	-5.22752e-06	1.03294e-09	-5.22855e-06	0.27193	14139.9	2.79398	14142.7
68.104	15.9773	10.9599	19.3751	-34.4487	10.2025	0.271872	-0.0158816	213.227	68.2285	1	10	0.00462123	0.000238514	0	-7.51815e-05	-0.000111051	7.03514e-06	100.579	0.0294957	-0.00541504	-0.0289944	-34.387	19.3542	15.9719	10.9309	0.0425615	0.0291956	0.0516126	34.4487	68228.5	99463.6	120616	-55.5513	0.0000000E+000	0.0000000E+000	0.0000000E+000	55.5513	0.0000000E+000	0.0000000E+000	0.0000000E+000	-55.5513	0.0000000E+000	0.0000000E+000	0.0000000E+000	-34.4487	0.0000000E+000	0.0000000E+000	0.0000000E+000	34.4487	1.4578	55.5513	-2.0795e-06	-4.31777e-06	1.76368e-09	-4.31953e-06	0.271983	17118.6	6.99245	17125.6
46.4415	19.6021	11.2428	22.5974	-29.8364	10.8786	0.271916	-0.00707826	304.817	75.452	1	11	0.00461651	0.000204294	0	-7.76181e-05	-9.19415e-05	7.90959e-06	-22.1816	0.0387167	0.0358514	0.0146172	-29.8234	22.6358	19.6379	11.2574	0.0383872	0.022017	0.0442529	29.8364	75452	131553	151654	-60.1636	0.0000000E+000	0.0000000E+000	0.0000000E+000	60.1636	0.0000000E+000	0.0000000E+000	0.0000000E+000	-60.1636	0.0000000E+000	0.0000000E+000	0.0000000E+000	-29.8364	0.0000000E+000	0.0000000E+000	0.0000000E+000	29.8364	1.74353	60.1636	-2.43663e-06	-1.9247e-06	6.50786e-10	-1.92535e-06	0.272008	38415.7	12.9893	38428.7
31.6296	23.0323	10.7396	25.4131	-24.9988	11.3095	0.271919	-0.0071428	468.533	83.6756	1	11	0.00461852	0.000181738	0	-7.81112e-05	-0.000111051	6.98931e-06	-107.499	0.0384582	-0.0115638	0.0366785	-25.0848	25.4181	23.0207	10.7762	0.0356634	0.0166292	0.0393498	24.9988	83675.6	179453	198002	-65.0012	0.0000000E+000	0.0000000E+000	0.0000000E+000	65.0012	0.0000000E+000	0.0000000E+000	0.0000000E+000	-65.0012	0.0000000E+000	0.0000000E+000	0.0000000E+000	-24.9988	0.0000000E+000	0.0000000E+000	0.0000000E+000	24.9988	2.14462	65.0012	-4.93128e-07	-1.94226e-06	7.93219e-10	-1.94305e-06	0.27203	38068.9	15.5473	38084.4
21.5517	25.9126	9.74713	27.6852	-20.614	11.7305	0.271923	-0.0069973	757.638	93.9116	1	11	0.00461465	0.000166683	0	-7.88791e-05	-0.000321261	8.21087e-06	48.0003	0.0492604	0.0329615	-0.0366078	-20.5191	27.7032	25.9456	9.71052	0.0338077	0.0127169	0.0361204	20.614	93911.6	249663	266741	-69.386	0.0000000E+000	0.0000000E+000	0.0000000E+000	69.386	0.0000000E+000	0.0000000E+000	0.0000000E+000	-69.386	0.0000000E+000	0.0000000E+000	0.0000000E+000	-20.614	0.0000000E+000	0.0000000E+000	0.0000000E+000	20.614	2.65849	69.386	-7.67849e-07	-1.90273e-06	2.24796e-09	-1.90498e-06	0.272244	38861.1	45.9121	38907
14.6852	28.2313	8.67702	29.5347	-17.0851	12.1902	0.271912	-0.00656715	1249.02	107.807	1	11	0.00460869	0.000156044	0	-7.97253e-05	-0.00070346	5.29972e-06	16.353	0.0339631	0.0325891	-0.00956244	-17.0488	29.563	28.2639	8.66746	0.0323643	0.00994734	0.0338585	17.0851	107807	350759	366952	-72.9149	0.0000000E+000	0.0000000E+000	0.0000000E+000	72.9149	0.0000000E+000	0.0000000E+000	0.0000000E+000	-72.9149	0.0000000E+000	0.0000000E+000	0.0000000E+000	-17.0851	0.0000000E+000	0.0000000E+000	0.0000000E+000	17.0851	3.25357	72.9149	-8.46213e-07	-1.78568e-06	4.61973e-09	-1.7903e-06	0.272615	41404.8	107.118	41512
10.0032	30.0641	7.71421	31.0381	-14.3911	12.6408	0.271919	-0.00634927	2062.48	127.404	1	11	0.00461833	0.000148796	0	-8.14555e-05	0.000156488	3.25982e-06	-42.2226	0.021908	0.0162237	0.0147224	-14.41	31.0574	30.0804	7.72893	0.0312075	0.00800759	0.0322185	14.3911	127404	496524	512609	-75.6089	0.0000000E+000	0.0000000E+000	0.0000000E+000	75.6089	0.0000000E+000	0.0000000E+000	0.0000000E+000	-75.6089	0.0000000E+000	0.0000000E+000	0.0000000E+000	-14.3911	0.0000000E+000	0.0000000E+000	0.0000000E+000	14.3911	3.89724	75.6089	-1.73027e-06	-1.72649e-06	-9.93584e-10	-1.72549e-06	0.271762	42826.8	24.6466	42802.2
6.81719	31.7011	6.97877	32.4602	-12.4152	12.9805	0.271935	-0.00602394	3345.31	154.629	1	11	0.00462151	0.000142375	0	-8.1511e-05	-0.000111051	1.09997e-05	-110.928	0.0772591	-0.0275965	0.0721623	-12.5501	32.4489	31.6735	7.05093	0.0300865	0.00662333	0.030807	12.4152	154629	702404	719223	-77.5848	0.0000000E+000	0.0000000E+000	0.0000000E+000	77.5848	0.0000000E+000	0.0000000E+000	0.0000000E+000	-77.5848	0.0000000E+000	0.0000000E+000	0.0000000E+000	-12.4152	0.0000000E+000	0.0000000E+000	0.0000000E+000	12.4152	4.54251	77.5848	-5.5482e-08	-1.63812e-06	6.68968e-10	-1.63879e-06	0.272046	45142.4	18.435	45160.8
4.63925	32.9519	6.45226	33.5777	-11.0788	13.4644	0.271931	-0.00598962	5316.92	196.328	1	11	0.00461129	0.000137332	0	-8.10813e-05	-0.000168381	5.69693e-06	64.4928	0.041483	0.0178636	-0.0374397	-11.0103	33.5881	32.9698	6.41482	0.0292267	0.00572282	0.0297817	11.0788	196328	1.00265e+06	1.0217e+06	-78.9212	0.0000000E+000	0.0000000E+000	0.0000000E+000	78.9212	0.0000000E+000	0.0000000E+000	0.0000000E+000	-78.9212	0.0000000E+000	0.0000000E+000	0.0000000E+000	-11.0788	0.0000000E+000	0.0000000E+000	0.0000000E+000	11.0788	5.10703	78.9212	4.29773e-07	-1.62877e-06	1.00854e-09	-1.62977e-06	0.2721	45400.4	28.1122	45428.5
3.1604	34.3817	6.27709	34.9501	-10.3466	14.1574	0.271934	-0.00492448	8022.69	258.786	1	11	0.00461617	0.000132079	0	-8.29899e-05	3.60827e-06	9.28736e-06	40.0497	0.0703168	0.0538265	-0.0452455	-10.2579	34.9949	34.4356	6.23185	0.028147	0.00513881	0.0286123	10.3466	258787	1.41746e+06	1.44089e+06	-79.6534	0.0000000E+000	0.0000000E+000	0.0000000E+000	79.6534	0.0000000E+000	0.0000000E+000	0.0000000E+000	-79.6534	0.0000000E+000	0.0000000E+000	0.0000000E+000	-10.3466	0.0000000E+000	0.0000000E+000	0.0000000E+000	10.3466	5.47733	79.6534	-1.90864e-06	-1.33913e-06	-1.77689e-11	-1.33912e-06	0.27193	55220.8	0.732721	55220.1
2.15577	35.6796	6.0526	36.1893	-9.62787	15.1611	0.271935	-0.00461949	12197.7	341.193	1	11	0.00461895	0.000127633	0	-8.65762e-05	-0.000149271	3.53351e-06	-27.6676	0.027685	0.0245193	0.0128553	-9.64143	36.2156	35.7041	6.06545	0.0272433	0.00462149	0.0276325	9.62787	341193	2.0113e+06	2.04004e+06	-80.3721	0.0000000E+000	0.0000000E+000	0.0000000E+000	80.3721	0.0000000E+000	0.0000000E+000	0.0000000E+000	-80.3721	0.0000000E+000	0.0000000E+000	0.0000000E+000	-9.62787	0.0000000E+000	0.0000000E+000	0.0000000E+000	9.62787	5.89492	80.3721	-3.5863e-06	-1.2562e-06	6.89558e-10	-1.25689e-06	0.272084	58866.8	32.3134	58899.1
1.46631	37.1002	6.02573	37.5863	-9.2253	17.3483	0.271925	-0.00448854	18012.9	462.961	1	12	0.0046213	0.000122952	0	-9.03241e-05	-0.000187491	4.22681e-06	85.6682	0.0343778	0.00259661	-0.0342796	-9.17308	37.5834	37.1028	5.99145	0.0262613	0.0042653	0.0266054	9.2253	462961	2.85043e+06	2.88778e+06	-80.7747	0.0000000E+000	0.0000000E+000	0.0000000E+000	80.7747	0.0000000E+000	0.0000000E+000	0.0000000E+000	-80.7747	0.0000000E+000	0.0000000E+000	0.0000000E+000	-9.2253	0.0000000E+000	0.0000000E+000	0.0000000E+000	9.2253	6.15696	80.7747	-3.7479e-06	-1.22055e-06	8.41562e-10	-1.22139e-06	0.272113	60582.1	41.7711	60623.8
1.00006	38.5472	6.03859	39.0173	-8.90327	19.4769	0.271931	-0.00442969	26354.6	631.266	1	12	0.00461676	0.000118326	0	-8.99847e-05	-0.000263931	2.61541e-06	17.1993	0.0221035	0.0211151	-0.00653594	-8.88899	39.0372	38.5683	6.03205	0.0253208	0.00396661	0.0256296	8.90327	631266	4.02968e+06	4.07882e+06	-81.0967	0.0000000E+000	0.0000000E+000	0.0000000E+000	81.0967	0.0000000E+000	0.0000000E+000	0.0000000E+000	-81.0967	0.0000000E+000	0.0000000E+000	0.0000000E+000	-8.90327	0.0000000E+000	0.0000000E+000	0.0000000E+000	8.90327	6.38348	81.0967	3.39387e-07	-1.20457e-06	1.16913e-09	-1.20574e-06	0.272195	61388.3	59.5823	61447.9
0.681362	39.9718	5.98584	40.4176	-8.51684	22.589	0.271932	-0.00425733	39022.7	855.908	1	12	0.00461303	0.000114134	0	-8.85732e-05	-0.000455031	4.95883e-06	-0.0613172	0.0434473	0.0434473	4.64967e-05	-8.50779	40.4605	40.0153	5.98589	0.0244689	0.00366425	0.0247417	8.51684	855908	5.71552e+06	5.77926e+06	-81.4832	0.0000000E+000	0.0000000E+000	0.0000000E+000	81.4832	0.0000000E+000	0.0000000E+000	0.0000000E+000	-81.4832	0.0000000E+000	0.0000000E+000	0.0000000E+000	-8.51684	0.0000000E+000	0.0000000E+000	0.0000000E+000	8.51684	6.67773	81.4832	1.41148e-06	-1.1577e-06	1.93721e-09	-1.15964e-06	0.272387	63873.9	106.882	63980.8
0.464091	41.4378	5.90216	41.856	-8.10636	27.1456	0.271933	-0.00368181	58104	1155.35	1	12	0.0046151	0.000110261	0	-8.81271e-05	-9.19415e-05	2.63852e-06	26.2988	0.0239296	0.0214528	-0.0106021	-8.08786	41.8757	41.4592	5.89156	0.0236527	0.00336896	0.0238914	8.10636	1.15535e+06	8.11145e+06	8.19332e+06	-81.8936	0.0000000E+000	0.0000000E+000	0.0000000E+000	81.8936	0.0000000E+000	0.0000000E+000	0.0000000E+000	-81.8936	0.0000000E+000	0.0000000E+000	0.0000000E+000	-8.10636	0.0000000E+000	0.0000000E+000	0.0000000E+000	8.10636	7.02078	81.8936	4.46144e-07	-1.00121e-06	3.38511e-10	-1.00155e-06	0.272025	73858.6	24.9718	73883.5
0.316193	42.8518	5.95651	43.2638	-7.91356	33.819	0.271936	-0.0030099	84503.7	1601.81	1	12	0.0046205	0.000106798	0	-9.34373e-05	0.000156488	2.65386e-06	2.93025	0.0248493	0.0248168	-0.0012703	-7.90737	43.2882	42.8766	5.95524	0.0228939	0.00318231	0.023114	7.91356	1.60181e+06	1.15236e+07	1.16344e+07	-82.0864	0.0000000E+000	0.0000000E+000	0.0000000E+000	82.0864	0.0000000E+000	0.0000000E+000	0.0000000E+000	-82.0864	0.0000000E+000	0.0000000E+000	0.0000000E+000	-7.91356	0.0000000E+000	0.0000000E+000	0.0000000E+000	7.91356	7.19411	82.0864	-5.31016e-06	-8.185e-07	-4.71013e-10	-8.18029e-07	0.27178	90347.3	51.9911	90295.3
0.215268	44.121	6.0858	44.5387	-7.8535	43.6124	0.271928	-0.00261598	121485	2268.21	1	12	0.00461446	0.000103606	0	-0.000109208	-0.000263931	3.23526e-06	-25.49	0.0312267	0.0281871	0.0134385	-7.86567	44.5685	44.1492	6.09924	0.0222418	0.00306791	0.0224524	7.8535	2.26821e+06	1.64441e+07	1.65998e+07	-82.1465	0.0000000E+000	0.0000000E+000	0.0000000E+000	82.1465	0.0000000E+000	0.0000000E+000	0.0000000E+000	-82.1465	0.0000000E+000	0.0000000E+000	0.0000000E+000	-7.8535	0.0000000E+000	0.0000000E+000	0.0000000E+000	7.8535	7.24982	82.1465	-1.57712e-05	-7.11359e-07	6.90439e-10	-7.12049e-07	0.272192	103949	100.892	104050
0.146929	45.3789	6.30403	45.8147	-7.9089	57.9509	0.271927	-0.0022356	171828	3253.28	1	12	0.00462001	0.000100841	0	-0.000137421	9.9158e-05	2.63032e-06	4.0271	0.0260838	0.0260194	-0.00183182	-7.90216	45.8402	45.4049	6.3022	0.0216194	0.00300337	0.0218271	7.9089	3.25328e+06	2.34184e+07	2.36433e+07	-82.0911	0.0000000E+000	0.0000000E+000	0.0000000E+000	82.0911	0.0000000E+000	0.0000000E+000	0.0000000E+000	-82.0911	0.0000000E+000	0.0000000E+000	0.0000000E+000	-7.9089	0.0000000E+000	0.0000000E+000	0.0000000E+000	7.9089	7.19839	82.0911	-2.82129e-05	-6.0792e-07	-2.21678e-10	-6.07698e-07	0.271828	121635	44.3541	121591
0.0999041	46.7484	6.70025	47.2261	-8.15642	79.0271	0.271932	-0.00205689	237764	4785.9	1	12	0.00461754	9.77752e-05	0	-0.0001751	-0.000130161	2.50247e-06	33.3233	0.0255941	0.021386	-0.0140604	-8.13586	47.2453	46.7698	6.68619	0.0209605	0.00300419	0.0211747	8.15642	4.7859e+06	3.33918e+07	3.3733e+07	-81.8436	0.0000000E+000	0.0000000E+000	0.0000000E+000	81.8436	0.0000000E+000	0.0000000E+000	0.0000000E+000	-81.8436	0.0000000E+000	0.0000000E+000	0.0000000E+000	-8.15642	0.0000000E+000	0.0000000E+000	0.0000000E+000	8.15642	6.97711	81.8436	-3.76785e-05	-5.59334e-07	2.67727e-10	-5.59602e-07	0.272062	132206	63.2808	132269
0.0680626	48.1949	7.44469	48.7665	-8.78111	109.955	0.271931	-0.00203309	314098	7320.08	1	12	0.00461621	9.46594e-05	0	-0.000213681	-7.28316e-05	3.36749e-06	12.1821	0.0355748	0.0347737	-0.00750699	-8.76617	48.7997	48.2296	7.43718	0.0202655	0.00313043	0.0205059	8.78111	7.32008e+06	4.73881e+07	4.79502e+07	-81.2189	0.0000000E+000	0.0000000E+000	0.0000000E+000	81.2189	0.0000000E+000	0.0000000E+000	0.0000000E+000	-81.2189	0.0000000E+000	0.0000000E+000	0.0000000E+000	-8.78111	0.0000000E+000	0.0000000E+000	0.0000000E+000	8.78111	6.47372	81.2189	-3.85815e-05	-5.5286e-07	1.48073e-10	-5.53009e-07	0.272004	133753	35.8231	133789
0.0464052	49.6662	8.62283	50.4091	-9.84928	155.306	0.271924	-0.0021395	397744	11638.2	1	12	0.00461929	9.16361e-05	0	-0.000234307	-0.000187491	2.87178e-06	-28.4783	0.0313389	0.0275469	0.0149432	-9.86065	50.4388	49.6937	8.63777	0.0195453	0.00339337	0.0198377	9.84928	1.16382e+07	6.70341e+07	6.80369e+07	-80.1507	0.0000000E+000	0.0000000E+000	0.0000000E+000	80.1507	0.0000000E+000	0.0000000E+000	0.0000000E+000	-80.1507	0.0000000E+000	0.0000000E+000	0.0000000E+000	-9.84928	0.0000000E+000	0.0000000E+000	0.0000000E+000	9.84928	5.75984	80.1507	-2.06258e-05	-5.81782e-07	4.01137e-10	-5.82183e-07	0.272112	127097	87.6333	127185
0.0315922	51.0875	10.1834	52.0926	-11.2731	221.912	0.271924	-0.00182488	494708	18905.1	1	12	0.00462112	8.87098e-05	0	-0.000213349	-3.46116e-05	2.5277e-06	-24.986	0.028494	0.0258273	0.0120358	-11.2805	52.1202	51.1133	10.1954	0.0188262	0.00375267	0.0191966	11.2731	1.89051e+07	9.48426e+07	9.67085e+07	-78.7269	0.0000000E+000	0.0000000E+000	0.0000000E+000	78.7269	0.0000000E+000	0.0000000E+000	0.0000000E+000	-78.7269	0.0000000E+000	0.0000000E+000	0.0000000E+000	-11.2731	0.0000000E+000	0.0000000E+000	0.0000000E+000	11.2731	5.01676	78.7269	2.09583e-05	-4.96228e-07	6.31621e-11	-4.96291e-07	0.271958	149009	18.9665	149028
0.0215268	52.7995	12.1126	54.171	-12.9205	319.65	0.271927	-0.0012137	610387	30517.1	1	12	0.00461827	8.52535e-05	0	-0.000136886	-0.000206601	2.64007e-06	-25.0025	0.0309672	0.0280653	0.0130885	-12.9273	54.2013	52.8275	12.1256	0.0179927	0.00412764	0.0184601	12.9205	3.05171e+07	1.33026e+08	1.36482e+08	-77.0795	0.0000000E+000	0.0000000E+000	0.0000000E+000	77.0795	0.0000000E+000	0.0000000E+000	0.0000000E+000	-77.0795	0.0000000E+000	0.0000000E+000	0.0000000E+000	-12.9205	0.0000000E+000	0.0000000E+000	0.0000000E+000	12.9205	4.35907	77.0795	7.64626e-05	-3.30039e-07	2.50752e-10	-3.30289e-07	0.272134	224048	170.224	224218
0.0146812	55.1346	14.8789	57.107	-15.1024	462.953	0.271931	-0.000439706	728597	49459.9	1	12	0.00461777	8.08618e-05	0	-2.78522e-05	-0.000149271	2.56193e-06	3.65331	0.0316829	0.0316185	-0.0020188	-15.0922	57.137	55.1662	14.8769	0.0169062	0.0045624	0.017511	15.1024	4.94599e+07	1.83276e+08	1.89832e+08	-74.8976	0.0000000E+000	0.0000000E+000	0.0000000E+000	74.8976	0.0000000E+000	0.0000000E+000	0.0000000E+000	-74.8976	0.0000000E+000	0.0000000E+000	0.0000000E+000	-15.1024	0.0000000E+000	0.0000000E+000	0.0000000E+000	15.1024	3.70555	74.8976	0.000109034	-1.1957e-07	6.56355e-11	-1.19635e-07	0.27208	618439	339.48	618778
0.0100092	57.7912	19.002	60.835	-18.2011	673.135	0.271933	5.5968e-05	836801	81642.1	1	12	0.0046204	7.59497e-05	0	3.98462e-05	-0.000187491	3.18993e-06	-13.9719	0.0420005	0.0407579	0.0101409	-18.1982	60.8769	57.832	19.0122	0.0156154	0.00513443	0.0164379	18.2011	8.16421e+07	2.483e+08	2.61378e+08	-71.7989	0.0000000E+000	0.0000000E+000	0.0000000E+000	71.7989	0.0000000E+000	0.0000000E+000	0.0000000E+000	-71.7989	0.0000000E+000	0.0000000E+000	0.0000000E+000	-18.2011	0.0000000E+000	0.0000000E+000	0.0000000E+000	18.2011	3.04132	71.7989	6.76984e-05	1.52195e-08	-1.04935e-11	1.523e-08	0.27212	4.85871e+06	3349.97	4.86206e+06