File: txt/18727_R302_UA699_SOC00_C02.mpt
EC-Lab ASCII FILE
Nb header lines : 65

Potentio Electrochemical Impedance Spectroscopy

Run on channel : 2 (SN 66139)
User :
CE vs. WE compliance from -10 V to 10 V
Electrode connection : standard
Potential control : Ewe
Ewe ctrl range : min = -10.00 V, max = 10.00 V
Safety Limits :
	Do not start on E overload
Acquisition started on : 10/31/2025 11:23:56.500
Technique started on : 10/31/2025 11:23:58.412
Loaded Setting File :  C:\Users\Celltest\OneDrive - store-dot.com\Documents\EC-Lab\Data\@Biologic Test Protocols\anode half cell EIS SOC00.mps
Saved on :
	File : 18727_R302_UA699_SOC00_C02.mpr
	Directory : C:\Users\Celltest\OneDrive - store-dot.com\Documents\EC-Lab\Data\Charmaine\
	Host : 169.254.61.224
Device : VMP-3e (SN .003165)
Address : USB
EC-LAB for windows v11.62 (software)
Internet server v27.00 (firmware)
Command interpretor v12.03 (firmware)
Electrode material :
Initial state :
Electrolyte :
Comments :
Electrode surface area : 0.001 cm²
Characteristic mass : 0.001 g
Equivalent Weight : 0.000 g/eq.
Density : 0.000 g/cm3
Volume (V) : 0.001 cm³
Record Ece
Cycle Definition : Charge/Discharge alternance
Mode                Single sine
E (V)               0.0000
vs.                 Eoc
tE (h:m:s)          0:00:0.0000
record              0
dI                  0.000
unit dI             mA
dt (s)              0.000
fi                  100.000
unit fi             kHz
ff                  10.000
unit ff             mHz
Nd                  6
Points              per decade
spacing             Logarithmic
Va (mV)             5.0
pw                  0.10
Na                  2
corr                0
E range min (V)     -10.000
E range max (V)     10.000
I Range             Auto
Bandwidth           5
nc cycles           0
goto Ns'            0
nr cycles           0
inc. cycle          0

freq/Hz	Re(Z)/Ohm	-Im(Z)/Ohm	|Z|/Ohm	Phase(Z)/deg	time/s	<Ewe>/V	<I>/mA	Cs/µF	Cp/µF	cycle number	I Range	|Ewe|/V	|I|/A	Ns	(Q-Qo)/mA.h	<Ece>/V	|Ece|/V	Phase(Zce)/deg	|Zce|/Ohm	Re(Zce)/Ohm	-Im(Zce)/Ohm	Phase(Zwe-ce)/deg	|Zwe-ce|/Ohm	Re(Zwe-ce)/Ohm	-Im(Zwe-ce)/Ohm	Re(Y)/Ohm-1	Im(Y)/Ohm-1	|Y|/Ohm-1	Phase(Y)/deg	Re(C)/nF	Im(C)/nF	|C|/nF	Phase(C)/deg	Re(M)	Im(M)	|M|	Phase(M)/deg	Re(Permittivity)	Im(Permittivity)	|Permittivity|	Phase(Permittivity)/deg	Re(Resistivity)/Ohm.cm	Im(Resistivity)/Ohm.cm	|Resistivity|/Ohm.cm	Phase(Resistivity)/deg	Re(Conductivity)/mS/cm	Im(Conductivity)/mS/cm	|Conductivity|/mS/cm	Phase(Conductivity)/deg	Tan(Delta)	Loss Angle(Delta)/deg	dq/mA.h	Pwe/W	Pce/W	Pwe-ce/W	<Ewe-Ece>/V	Rwe/Ohm	Rce/Ohm	Rwe-ce/Ohm		Ewe-Ece/V
100004	1.65142	0.863629	1.86361	-27.6079	1.91154	0.274179	-0.011246	1.84279	0.395751	1	9	0.00462677	0.00248269	0	-6.37106e-06	-0.000152384	1.9973e-05	67.1526	0.00804491	0.00312367	-0.00741372	-27.3613	1.86296	1.65454	0.856216	0.475497	0.248667	0.536593	27.6079	395.751	756.749	853.983	-62.3921	0.0000000E+000	0.0000000E+000	0.0000000E+000	62.3921	0.0000000E+000	0.0000000E+000	0.0000000E+000	-62.3921	0.0000000E+000	0.0000000E+000	0.0000000E+000	-27.6079	0.0000000E+000	0.0000000E+000	0.0000000E+000	27.6079	1.91218	62.3921	-6.37106e-06	-3.08341e-06	1.71371e-09	-3.08513e-06	0.274332	24380.2	13.5501	24393.8
68132	1.90323	1.00651	2.15299	-27.8717	2.41853	0.27417	-0.0139649	2.32088	0.507227	1	9	0.00509254	0.00236534	0	-1.62321e-05	5.7615e-05	1.55719e-05	35.0214	0.00658337	0.00539137	-0.00377808	-27.7159	2.15599	1.90862	1.00273	0.410591	0.217137	0.464471	27.8717	507.227	959.131	1084.99	-62.1283	0.0000000E+000	0.0000000E+000	0.0000000E+000	62.1283	0.0000000E+000	0.0000000E+000	0.0000000E+000	-62.1283	0.0000000E+000	0.0000000E+000	0.0000000E+000	-27.8717	0.0000000E+000	0.0000000E+000	0.0000000E+000	27.8717	1.89093	62.1283	-9.86103e-06	-3.82877e-06	-8.0459e-10	-3.82797e-06	0.274113	19632.8	4.12569	19628.7
46420.4	2.18445	1.12606	2.45761	-27.2707	2.92554	0.27418	-0.00424377	3.04473	0.63922	1	9	0.00504284	0.00205193	0	-1.19878e-05	0.000153069	7.8375e-06	5.61405	0.00381957	0.00380125	-0.000373657	-27.2224	2.46081	2.18825	1.12569	0.361674	0.18644	0.4069	27.2707	639.22	1240.02	1395.08	-62.7293	0.0000000E+000	0.0000000E+000	0.0000000E+000	62.7293	0.0000000E+000	0.0000000E+000	0.0000000E+000	-62.7293	0.0000000E+000	0.0000000E+000	0.0000000E+000	-27.2707	0.0000000E+000	0.0000000E+000	0.0000000E+000	27.2707	1.9399	62.7293	4.24426e-06	-1.16356e-06	-6.4959e-10	-1.16291e-06	0.274027	64607.7	36.0692	64571.6
31621.1	2.50251	1.21844	2.78337	-25.9608	3.30856	0.274179	-0.0067765	4.13084	0.791597	1	9	0.00535508	0.00192396	0	-1.77274e-05	0.000191251	9.74284e-06	-10.3738	0.00506396	0.00498119	0.000911861	-25.9329	2.78825	2.50749	1.21935	0.323023	0.157276	0.359277	25.9608	791.598	1625.83	1808.3	-64.0392	0.0000000E+000	0.0000000E+000	0.0000000E+000	64.0392	0.0000000E+000	0.0000000E+000	0.0000000E+000	-64.0392	0.0000000E+000	0.0000000E+000	0.0000000E+000	-25.9608	0.0000000E+000	0.0000000E+000	0.0000000E+000	25.9608	2.05387	64.0392	-5.73961e-06	-1.85797e-06	-1.29601e-09	-1.85668e-06	0.273988	40460.3	28.2227	40432.1
21544.7	2.82372	1.29151	3.10506	-24.5784	3.69153	0.274176	-0.0104266	5.7198	0.98955	1	9	0.00521005	0.00167792	0	-1.66324e-05	-1.87484e-05	7.61975e-06	-110.516	0.00454118	-0.00159158	0.00425314	-24.662	3.10539	2.82213	1.29577	0.292874	0.133955	0.322055	24.5784	989.55	2163.52	2379.08	-65.4216	0.0000000E+000	0.0000000E+000	0.0000000E+000	65.4216	0.0000000E+000	0.0000000E+000	0.0000000E+000	-65.4216	0.0000000E+000	0.0000000E+000	0.0000000E+000	-24.5784	0.0000000E+000	0.0000000E+000	0.0000000E+000	24.5784	2.18637	65.4216	1.09499e-06	-2.85872e-06	1.95482e-10	-2.85892e-06	0.274195	26295.8	1.79813	26297.6
14678.6	3.13293	1.34809	3.41066	-23.282	3.95056	0.274174	-0.0144492	8.04298	1.25654	1	9	0.00547275	0.0016046	0	-1.8849e-05	9.57967e-05	5.66681e-06	-120.799	0.0035316	-0.00180828	0.00303353	-23.3409	3.4102	3.13112	1.35112	0.269323	0.115889	0.293198	23.282	1256.54	2920.18	3179.05	-66.718	0.0000000E+000	0.0000000E+000	0.0000000E+000	66.718	0.0000000E+000	0.0000000E+000	0.0000000E+000	-66.718	0.0000000E+000	0.0000000E+000	0.0000000E+000	-23.282	0.0000000E+000	0.0000000E+000	0.0000000E+000	23.282	2.32398	66.718	-2.21651e-06	-3.96158e-06	-1.38418e-09	-3.96019e-06	0.274078	18975.1	6.62992	18968.4
10002.2	3.44486	1.39405	3.71624	-22.032	4.21156	0.274169	-0.0145609	11.4142	1.60619	1	9	0.0054141	0.00145688	0	-1.95383e-05	0.000363069	9.00373e-06	-125.278	0.00618016	-0.00356932	0.00504522	-22.1248	3.71483	3.44129	1.3991	0.249439	0.100942	0.269089	22.032	1606.18	3969.06	4281.73	-67.968	0.0000000E+000	0.0000000E+000	0.0000000E+000	67.968	0.0000000E+000	0.0000000E+000	0.0000000E+000	-67.968	0.0000000E+000	0.0000000E+000	0.0000000E+000	-22.032	0.0000000E+000	0.0000000E+000	0.0000000E+000	22.032	2.47111	67.968	-6.89365e-07	-3.99215e-06	-5.2866e-09	-3.98686e-06	0.273806	18829.1	24.9345	18804.2
6810.42	3.76409	1.5324	4.06406	-22.1518	4.47255	0.274175	-0.00871329	15.2501	2.1682	1	9	0.0053433	0.00131477	0	-1.92948e-05	0.000248523	7.43342e-05	83.6373	0.0565379	0.00626561	-0.0561897	-21.3819	4.04905	3.77035	1.47621	0.227897	0.0927795	0.246059	22.1518	2168.2	5325.8	5750.23	-67.8482	0.0000000E+000	0.0000000E+000	0.0000000E+000	67.8482	0.0000000E+000	0.0000000E+000	0.0000000E+000	-67.8482	0.0000000E+000	0.0000000E+000	0.0000000E+000	-22.1518	0.0000000E+000	0.0000000E+000	0.0000000E+000	22.1518	2.45633	67.8482	2.43492e-07	-2.38897e-06	-2.16546e-09	-2.3868e-06	0.273927	31466.4	28.5224	31437.8
4646	4.06338	1.61524	4.37265	-21.6784	4.89659	0.274155	-0.0195944	21.2082	2.89393	1	10	0.00531695	0.00121596	0	-2.24288e-05	0.00040125	8.74835e-06	-40.3005	0.00719462	0.00548707	0.00465345	-21.7084	4.37947	4.06887	1.61989	0.212519	0.0844788	0.228694	21.6784	2893.93	7280.13	7834.23	-68.3216	0.0000000E+000	0.0000000E+000	0.0000000E+000	68.3216	0.0000000E+000	0.0000000E+000	0.0000000E+000	-68.3216	0.0000000E+000	0.0000000E+000	0.0000000E+000	-21.6784	0.0000000E+000	0.0000000E+000	0.0000000E+000	21.6784	2.51565	68.3216	-3.13399e-06	-5.37191e-06	-7.86225e-09	-5.36405e-06	0.273754	13991.5	20.4778	13971
3163.08	4.38427	1.80462	4.74115	-22.3727	5.26961	0.274102	-0.0219301	27.882	4.03952	1	10	0.00529743	0.00111733	0	-2.39867e-05	-0.000152384	1.11767e-05	-46.5371	0.0100031	0.00688096	0.00726044	-22.4221	4.75027	4.39115	1.81188	0.195043	0.0802823	0.210919	22.3727	4039.52	9813.87	10612.7	-67.6273	0.0000000E+000	0.0000000E+000	0.0000000E+000	67.6273	0.0000000E+000	0.0000000E+000	0.0000000E+000	-67.6273	0.0000000E+000	0.0000000E+000	0.0000000E+000	-22.3727	0.0000000E+000	0.0000000E+000	0.0000000E+000	22.3727	2.42947	67.6273	-1.55791e-06	-6.01109e-06	3.3418e-09	-6.01443e-06	0.274255	12498.9	6.94863	12505.9
2155.69	4.72763	2.06663	5.1596	-23.612	5.72178	0.27411	-0.0144201	35.725	5.73144	1	10	0.00524018	0.00101562	0	-2.61312e-05	0.000229433	6.63769e-06	-74.5143	0.00653562	0.00174499	0.00629836	-23.6682	5.16372	4.72938	2.07292	0.177587	0.0776301	0.193814	23.612	5731.45	13111.3	14309.3	-66.388	0.0000000E+000	0.0000000E+000	0.0000000E+000	66.388	0.0000000E+000	0.0000000E+000	0.0000000E+000	-66.388	0.0000000E+000	0.0000000E+000	0.0000000E+000	-23.612	0.0000000E+000	0.0000000E+000	0.0000000E+000	23.612	2.28761	66.388	-2.14445e-06	-3.95269e-06	-3.30843e-09	-3.94938e-06	0.273881	19008.9	15.9107	18993
1468.59	5.09832	2.43808	5.65129	-25.5577	6.17311	0.274107	-0.0145616	44.45	8.27318	1	10	0.00518034	0.000916666	0	-2.70756e-05	3.85242e-05	7.45537e-06	-73.35	0.00813314	0.00233034	0.00779214	-25.6187	5.65676	5.10065	2.44587	0.159636	0.0763401	0.176951	25.5577	8273.18	17300.2	19176.6	-64.4423	0.0000000E+000	0.0000000E+000	0.0000000E+000	64.4423	0.0000000E+000	0.0000000E+000	0.0000000E+000	-64.4423	0.0000000E+000	0.0000000E+000	0.0000000E+000	-25.5577	0.0000000E+000	0.0000000E+000	0.0000000E+000	25.5577	2.09112	64.4423	-9.44416e-07	-3.99144e-06	-5.60975e-10	-3.99088e-06	0.274068	18823.9	2.64559	18821.3
1000.32	5.53373	2.95975	6.27553	-28.1404	6.62479	0.27411	-0.0144126	53.7559	11.9573	1	10	0.00513827	0.000818779	0	-2.89143e-05	-0.000209657	7.6175e-06	-51.3751	0.00930349	0.00580741	0.00726835	-28.1738	6.28408	5.53954	2.96702	0.140513	0.0751543	0.159349	28.1404	11957.3	22356.2	25353.1	-61.8596	0.0000000E+000	0.0000000E+000	0.0000000E+000	61.8596	0.0000000E+000	0.0000000E+000	0.0000000E+000	-61.8596	0.0000000E+000	0.0000000E+000	0.0000000E+000	-28.1404	0.0000000E+000	0.0000000E+000	0.0000000E+000	28.1404	1.86966	61.8596	-1.83875e-06	-3.95065e-06	3.02171e-09	-3.95367e-06	0.27432	19018.8	14.5467	19033.3
681.09	6.0689	3.66594	7.09018	-31.1342	7.07558	0.274108	-0.0149155	63.7427	17.0407	1	10	0.00510534	0.000720058	0	-3.02079e-05	1.94333e-05	8.05897e-06	-19.2371	0.0111921	0.0105672	0.00368756	-31.1156	7.10113	6.07946	3.66963	0.120725	0.0729241	0.14104	31.1342	17040.7	28210.5	32957.8	-58.8658	0.0000000E+000	0.0000000E+000	0.0000000E+000	58.8658	0.0000000E+000	0.0000000E+000	0.0000000E+000	-58.8658	0.0000000E+000	0.0000000E+000	0.0000000E+000	-31.1342	0.0000000E+000	0.0000000E+000	0.0000000E+000	31.1342	1.65548	58.8658	-1.29361e-06	-4.08847e-06	-2.89858e-10	-4.08818e-06	0.274089	18377.4	1.30289	18376.1
463.961	6.76935	4.60956	8.18976	-34.2528	7.52737	0.274111	-0.0147255	74.4182	23.5753	1	10	0.00508326	0.000620684	0	-3.22327e-05	0.000343978	3.02982e-06	-51.2047	0.00488142	0.00305841	0.00380453	-34.2627	8.19443	6.7724	4.61337	0.100926	0.0687255	0.122104	34.2528	23575.3	34621.3	41885.9	-55.7472	0.0000000E+000	0.0000000E+000	0.0000000E+000	55.7472	0.0000000E+000	0.0000000E+000	0.0000000E+000	-55.7472	0.0000000E+000	0.0000000E+000	0.0000000E+000	-34.2528	0.0000000E+000	0.0000000E+000	0.0000000E+000	34.2528	1.46854	55.7472	-2.02476e-06	-4.03643e-06	-5.06526e-09	-4.03137e-06	0.273767	18614.7	23.3592	18591.3
316.316	7.72649	5.80966	9.66699	-36.9401	7.97505	0.274111	-0.0148448	86.606	31.28	1	10	0.00506642	0.000524095	0	-3.36579e-05	0.000133978	9.81763e-06	38.981	0.0187325	0.0145618	-0.0117839	-36.8324	9.67157	7.74105	5.79788	0.0826797	0.0621682	0.103445	36.9401	31280	41600.5	52048.4	-53.0599	0.0000000E+000	0.0000000E+000	0.0000000E+000	53.0599	0.0000000E+000	0.0000000E+000	0.0000000E+000	-53.0599	0.0000000E+000	0.0000000E+000	0.0000000E+000	-36.9401	0.0000000E+000	0.0000000E+000	0.0000000E+000	36.9401	1.32994	53.0599	-1.42524e-06	-4.06911e-06	-1.98888e-09	-4.06712e-06	0.273977	18465.2	9.0253	18456.1
215.345	9.0645	7.30476	11.6415	-38.8641	8.42459	0.274111	-0.0151838	101.177	39.8358	1	10	0.00504605	0.000433454	0	-3.50649e-05	0.00017216	1.62892e-05	34.3151	0.03758	0.0310392	-0.0211855	-38.6873	11.6524	9.09554	7.28358	0.0668845	0.0538999	0.0858995	38.8641	39835.8	49432.4	63485.9	-51.1359	0.0000000E+000	0.0000000E+000	0.0000000E+000	51.1359	0.0000000E+000	0.0000000E+000	0.0000000E+000	-51.1359	0.0000000E+000	0.0000000E+000	0.0000000E+000	-38.8641	0.0000000E+000	0.0000000E+000	0.0000000E+000	38.8641	1.2409	51.1359	-1.40697e-06	-4.16203e-06	-2.61404e-09	-4.15942e-06	0.273939	18052.9	11.3384	18041.6
146.737	11.0745	8.99443	14.2669	-39.0827	8.8705	0.274103	-0.0156867	120.588	47.9287	1	10	0.00504996	0.000353964	0	-3.64666e-05	0.000439432	1.28053e-05	14.336	0.0361769	0.0350503	-0.00895766	-38.9662	14.2885	11.1095	8.98547	0.0544083	0.0441892	0.0700925	39.0827	47928.7	59012.6	76024	-50.9173	0.0000000E+000	0.0000000E+000	0.0000000E+000	50.9173	0.0000000E+000	0.0000000E+000	0.0000000E+000	-50.9173	0.0000000E+000	0.0000000E+000	0.0000000E+000	-39.0827	0.0000000E+000	0.0000000E+000	0.0000000E+000	39.0827	1.23126	50.9173	-1.40165e-06	-4.29976e-06	-6.89322e-09	-4.29287e-06	0.273663	17473.6	28.0131	17445.6
100.032	13.7527	10.5807	17.3519	-37.573	9.32177	0.274103	-0.0142785	150.372	55.9115	1	10	0.00503315	0.000290063	0	-3.8557e-05	9.57967e-05	1.16773e-05	-76.0187	0.0402578	0.0097265	0.0390652	-37.6555	17.3835	13.7625	10.6198	0.0456767	0.0351415	0.0576306	37.573	55911.5	72673.4	91692.5	-52.427	0.0000000E+000	0.0000000E+000	0.0000000E+000	52.427	0.0000000E+000	0.0000000E+000	0.0000000E+000	-52.427	0.0000000E+000	0.0000000E+000	0.0000000E+000	-37.573	0.0000000E+000	0.0000000E+000	0.0000000E+000	37.573	1.29979	52.427	-2.09046e-06	-3.91379e-06	-1.36784e-09	-3.91243e-06	0.274008	19196.9	6.70914	19190.2
68.104	17.2344	11.8787	20.9315	-34.5763	10.0355	0.274152	-0.00781383	196.734	63.3602	1	11	0.00505159	0.000241339	0	-4.0512e-05	-5.69301e-05	6.27136e-06	73.359	0.0259856	0.00744163	-0.0248973	-34.5086	20.9235	17.2418	11.8538	0.0393365	0.0271125	0.047775	34.5763	63360.2	91927.1	111647	-55.4237	0.0000000E+000	0.0000000E+000	0.0000000E+000	55.4237	0.0000000E+000	0.0000000E+000	0.0000000E+000	-55.4237	0.0000000E+000	0.0000000E+000	0.0000000E+000	-34.5763	0.0000000E+000	0.0000000E+000	0.0000000E+000	34.5763	1.45086	55.4237	-1.955e-06	-2.14218e-06	4.44842e-10	-2.14262e-06	0.274209	35085.5	7.28581	35092.8
46.4415	21.0822	12.3212	24.4186	-30.3036	10.4727	0.274143	-0.00822359	278.139	70.8148	1	11	0.00503666	0.000206263	0	-4.15578e-05	0.000210342	7.54773e-06	66.7023	0.0365927	0.0144727	-0.033609	-30.2183	24.4142	21.0966	12.2876	0.0353568	0.0206638	0.0409524	30.3036	70814.8	121168	140344	-59.6964	0.0000000E+000	0.0000000E+000	0.0000000E+000	59.6964	0.0000000E+000	0.0000000E+000	0.0000000E+000	-59.6964	0.0000000E+000	0.0000000E+000	0.0000000E+000	-30.3036	0.0000000E+000	0.0000000E+000	0.0000000E+000	30.3036	1.71105	59.6964	-1.04577e-06	-2.25444e-06	-1.72976e-09	-2.25271e-06	0.273932	33336.1	25.5779	33310.6
31.6296	24.9217	11.9392	27.634	-25.5977	10.9026	0.274144	-0.00836453	421.455	78.6714	1	11	0.00503902	0.000182349	0	-4.21723e-05	-0.000114203	8.76267e-06	113.914	0.0480545	-0.0194795	-0.0439293	-25.5329	27.5974	24.9022	11.8953	0.0326356	0.0156347	0.0361874	25.5977	78671.4	164217	182089	-64.4023	0.0000000E+000	0.0000000E+000	0.0000000E+000	64.4023	0.0000000E+000	0.0000000E+000	0.0000000E+000	-64.4023	0.0000000E+000	0.0000000E+000	0.0000000E+000	-25.5977	0.0000000E+000	0.0000000E+000	0.0000000E+000	25.5977	2.08738	64.4023	-6.14551e-07	-2.29309e-06	9.55251e-10	-2.29404e-06	0.274258	32774.6	13.6532	32788.2
21.5517	28.1467	10.9294	30.1942	-21.2212	11.3234	0.274138	-0.00829071	675.684	88.529	1	11	0.00502431	0.0001664	0	-4.30888e-05	-0.000133293	5.67419e-06	105.611	0.0340998	-0.00917647	-0.0328418	-21.1693	30.1738	28.1376	10.8965	0.0308732	0.011988	0.0331189	21.2212	88529	227992	244576	-68.7788	0.0000000E+000	0.0000000E+000	0.0000000E+000	68.7788	0.0000000E+000	0.0000000E+000	0.0000000E+000	-68.7788	0.0000000E+000	0.0000000E+000	0.0000000E+000	-21.2212	0.0000000E+000	0.0000000E+000	0.0000000E+000	21.2212	2.57533	68.7788	-9.16482e-07	-2.27279e-06	1.1051e-09	-2.2739e-06	0.274271	33065.7	16.0775	33081.7
14.6852	30.9013	9.81597	32.4229	-17.6227	11.7842	0.274151	-0.00766581	1104.1	101.198	1	11	0.00504069	0.000155467	0	-4.39701e-05	9.57967e-05	7.78555e-06	-64.8345	0.0500785	0.0212951	0.0453252	-17.6876	32.4569	30.9226	9.8613	0.029395	0.00933748	0.0308424	17.6227	101198	318577	334264	-72.3773	0.0000000E+000	0.0000000E+000	0.0000000E+000	72.3773	0.0000000E+000	0.0000000E+000	0.0000000E+000	-72.3773	0.0000000E+000	0.0000000E+000	0.0000000E+000	-17.6227	0.0000000E+000	0.0000000E+000	0.0000000E+000	17.6227	3.14806	72.3773	-8.81263e-07	-2.10159e-06	-7.34359e-10	-2.10085e-06	0.274055	35762.8	12.4966	35750.3
10.0032	33.0019	8.66329	34.1201	-14.7088	12.2348	0.274147	-0.00765052	1836.53	118.398	1	11	0.00503461	0.000147556	0	-4.59826e-05	-9.51117e-05	1.00951e-05	3.22474	0.0684153	0.068307	-0.00384854	-14.6734	34.1852	33.0702	8.65944	0.0283478	0.00744153	0.0293082	14.7088	118398	451025	466306	-75.2912	0.0000000E+000	0.0000000E+000	0.0000000E+000	75.2912	0.0000000E+000	0.0000000E+000	0.0000000E+000	-75.2912	0.0000000E+000	0.0000000E+000	0.0000000E+000	-14.7088	0.0000000E+000	0.0000000E+000	0.0000000E+000	14.7088	3.8094	75.2912	-2.01249e-06	-2.09737e-06	7.27654e-10	-2.0981e-06	0.274242	35833.8	12.4321	35846.2
6.81719	34.7736	7.85865	35.6505	-12.7346	12.5745	0.274162	-0.00732576	2970.75	144.355	1	11	0.00502853	0.000141051	0	-4.59137e-05	7.67059e-05	1.04188e-05	137.169	0.0738658	-0.0541702	-0.0502171	-12.675	35.5866	34.7194	7.80844	0.0273601	0.00618325	0.0280501	12.7346	144355	638752	654861	-77.2654	0.0000000E+000	0.0000000E+000	0.0000000E+000	77.2654	0.0000000E+000	0.0000000E+000	0.0000000E+000	-77.2654	0.0000000E+000	0.0000000E+000	0.0000000E+000	-12.7346	0.0000000E+000	0.0000000E+000	0.0000000E+000	12.7346	4.42487	77.2654	6.88365e-08	-2.00845e-06	-5.61929e-10	-2.00789e-06	0.274085	37424.4	10.4707	37413.9
4.63925	36.3267	7.24515	37.0422	-11.2793	13.0585	0.274152	-0.00722025	4735.05	181.145	1	11	0.00503653	0.000135968	0	-4.58909e-05	0.000153069	6.01541e-06	-72.5148	0.0442415	0.0132928	0.0421973	-11.3393	37.0635	36.34	7.28735	0.0264748	0.00528025	0.0269963	11.2793	181145	908250	926138	-78.7207	0.0000000E+000	0.0000000E+000	0.0000000E+000	78.7207	0.0000000E+000	0.0000000E+000	0.0000000E+000	-78.7207	0.0000000E+000	0.0000000E+000	0.0000000E+000	-11.2793	0.0000000E+000	0.0000000E+000	0.0000000E+000	11.2793	5.01394	78.7207	2.28482e-08	-1.97945e-06	-1.1052e-09	-1.97834e-06	0.273999	37969.9	21.2	37948.8
3.1604	37.8176	6.93117	38.4476	-10.3858	13.7515	0.274152	-0.00640109	7265.6	236.128	1	11	0.00503489	0.000130955	0	-4.83723e-05	0.000153069	8.27687e-06	82.9452	0.0632041	0.00776265	-0.0627256	-10.2918	38.4439	37.8254	6.86845	0.0255833	0.00468888	0.0260095	10.3858	236128	1.28835e+06	1.30981e+06	-79.6142	0.0000000E+000	0.0000000E+000	0.0000000E+000	79.6142	0.0000000E+000	0.0000000E+000	0.0000000E+000	-79.6142	0.0000000E+000	0.0000000E+000	0.0000000E+000	-10.3858	0.0000000E+000	0.0000000E+000	0.0000000E+000	10.3858	5.45617	79.6142	-2.48136e-06	-1.75488e-06	-9.79811e-10	-1.7539e-06	0.273999	42829	23.913	42805.1
2.15577	39.2986	6.69184	39.8643	-9.66374	14.7551	0.274154	-0.00605248	11032.5	310.882	1	11	0.00503704	0.000126355	0	-5.22174e-05	3.42479e-07	2.94151e-06	117.828	0.0232798	-0.0108674	-0.0205876	-9.63718	39.8501	39.2877	6.67125	0.0247292	0.00421092	0.0250851	9.66374	310882	1.82569e+06	1.85197e+06	-80.3363	0.0000000E+000	0.0000000E+000	0.0000000E+000	80.3363	0.0000000E+000	0.0000000E+000	0.0000000E+000	-80.3363	0.0000000E+000	0.0000000E+000	0.0000000E+000	-9.66374	0.0000000E+000	0.0000000E+000	0.0000000E+000	9.66374	5.87262	80.3363	-3.84519e-06	-1.65931e-06	-2.07285e-12	-1.65931e-06	0.274153	45296.1	0.056585	45296
1.46631	40.8159	6.69978	41.3621	-9.32176	16.9416	0.274152	-0.0059292	16200.7	425.059	1	12	0.00503625	0.00012176	0	-5.61916e-05	-0.000133293	2.02547e-06	-47.167	0.0166349	0.0113095	0.012199	-9.3359	41.3752	40.8272	6.71198	0.0238574	0.00391611	0.0241767	9.32176	425059	2.58951e+06	2.62417e+06	-80.6782	0.0000000E+000	0.0000000E+000	0.0000000E+000	80.6782	0.0000000E+000	0.0000000E+000	0.0000000E+000	-80.6782	0.0000000E+000	0.0000000E+000	0.0000000E+000	-9.32176	0.0000000E+000	0.0000000E+000	0.0000000E+000	9.32176	6.09213	80.6782	-3.97417e-06	-1.6255e-06	7.90323e-10	-1.62629e-06	0.274285	46237.6	22.4809	46260.1
1.00006	42.3528	6.65654	42.8727	-8.93205	19.0716	0.274159	-0.00587481	23908	576.341	1	12	0.00503476	0.000117435	0	-5.62659e-05	0.000133978	3.23255e-06	-6.09125	0.0275262	0.0273708	0.00292087	-8.93022	42.9002	42.3801	6.65946	0.023042	0.00362149	0.0233249	8.93205	576341	3.66702e+06	3.71203e+06	-81.068	0.0000000E+000	0.0000000E+000	0.0000000E+000	81.068	0.0000000E+000	0.0000000E+000	0.0000000E+000	-81.068	0.0000000E+000	0.0000000E+000	0.0000000E+000	-8.93205	0.0000000E+000	0.0000000E+000	0.0000000E+000	8.93205	6.36258	81.068	-7.42744e-08	-1.61063e-06	-7.87097e-10	-1.60984e-06	0.274025	46666.9	22.8056	46644.1
0.681362	43.9552	6.60092	44.4481	-8.5405	22.1844	0.274157	-0.0056136	35386.5	780.44	1	12	0.00503462	0.00011327	0	-5.61259e-05	9.57967e-05	3.12961e-06	-97.2388	0.0276298	-0.00348148	0.0274096	-8.57611	44.4488	43.9518	6.62833	0.0222487	0.00334116	0.0224981	8.5405	780440	5.19692e+06	5.25519e+06	-81.4595	0.0000000E+000	0.0000000E+000	0.0000000E+000	81.4595	0.0000000E+000	0.0000000E+000	0.0000000E+000	-81.4595	0.0000000E+000	0.0000000E+000	0.0000000E+000	-8.5405	0.0000000E+000	0.0000000E+000	0.0000000E+000	8.5405	6.65896	81.4595	1.39992e-07	-1.53901e-06	-5.37764e-10	-1.53847e-06	0.274061	48838.1	17.0651	48821
0.464091	45.6027	6.5633	46.0726	-8.18997	26.7409	0.274154	-0.00503228	52251	1060.36	1	12	0.0050345	0.000109273	0	-5.86358e-05	3.42479e-07	1.5768e-06	19.2883	0.0144299	0.01362	-0.00476652	-8.18169	46.0854	45.6163	6.55854	0.0214835	0.00309198	0.0217049	8.18997	1.06036e+06	7.36754e+06	7.44346e+06	-81.81	0.0000000E+000	0.0000000E+000	0.0000000E+000	81.81	0.0000000E+000	0.0000000E+000	0.0000000E+000	-81.81	0.0000000E+000	0.0000000E+000	0.0000000E+000	-8.18997	0.0000000E+000	0.0000000E+000	0.0000000E+000	8.18997	6.94813	81.81	-2.50987e-06	-1.37962e-06	-1.72345e-12	-1.37962e-06	0.274154	54479.1	0.0680565	54479
0.316193	47.1258	6.63173	47.5901	-8.01029	33.4169	0.274156	-0.00429568	75899.8	1473.88	1	12	0.00503575	0.000105815	0	-6.8374e-05	0.000267614	1.79779e-06	-8.49379	0.01699	0.0168036	0.00250946	-8.01046	47.6071	47.1426	6.63424	0.0208077	0.00292815	0.0210128	8.01029	1.47388e+06	1.04735e+07	1.05767e+07	-81.9897	0.0000000E+000	0.0000000E+000	0.0000000E+000	81.9897	0.0000000E+000	0.0000000E+000	0.0000000E+000	-81.9897	0.0000000E+000	0.0000000E+000	0.0000000E+000	-8.01029	0.0000000E+000	0.0000000E+000	0.0000000E+000	8.01029	7.10611	81.9897	-9.7382e-06	-1.17768e-06	-1.14958e-09	-1.17653e-06	0.273888	63821.3	62.2985	63759
0.215268	48.5901	6.77064	49.0595	-7.93263	43.2103	0.274155	-0.00371062	109197	2079.81	1	12	0.00503811	0.000102694	0	-8.92915e-05	0.000229433	2.69572e-06	-2.97375	0.0262501	0.0262147	0.00136181	-7.92998	49.0857	48.6163	6.772	0.0201884	0.00281309	0.0203834	7.93263	2.07981e+06	1.4926e+07	1.50702e+07	-82.0674	0.0000000E+000	0.0000000E+000	0.0000000E+000	82.0674	0.0000000E+000	0.0000000E+000	0.0000000E+000	-82.0674	0.0000000E+000	0.0000000E+000	0.0000000E+000	-7.93263	0.0000000E+000	0.0000000E+000	0.0000000E+000	7.93263	7.17659	82.0674	-2.09175e-05	-1.01729e-06	-8.51336e-10	-1.01643e-06	0.273926	73884.1	61.8314	73822.3
0.146929	50.0553	6.9733	50.5387	-7.93095	57.5488	0.274158	-0.00321112	155337	2957.36	1	12	0.00503608	9.96481e-05	0	-0.000122091	0.000133978	1.92751e-06	10.2299	0.0193432	0.0190357	-0.00343531	-7.92411	50.557	50.0743	6.96986	0.0195976	0.00273018	0.0197868	7.93095	2.95736e+06	2.12283e+07	2.14333e+07	-82.0691	0.0000000E+000	0.0000000E+000	0.0000000E+000	82.0691	0.0000000E+000	0.0000000E+000	0.0000000E+000	-82.0691	0.0000000E+000	0.0000000E+000	0.0000000E+000	-7.93095	0.0000000E+000	0.0000000E+000	0.0000000E+000	7.93095	7.17813	82.0691	-3.28e-05	-8.80354e-07	-4.30221e-10	-8.79924e-07	0.274024	85377.7	41.7233	85336
0.0999041	51.6541	7.44111	52.1873	-8.19743	78.625	0.274157	-0.00303827	214091	4352.55	1	12	0.00503549	9.64886e-05	0	-0.000162437	0.000363069	2.12175e-06	26.3048	0.0219896	0.0197126	-0.00974464	-8.18376	52.2055	51.6738	7.43136	0.018966	0.00273217	0.0191617	8.19743	4.35255e+06	3.02142e+07	3.05261e+07	-81.8026	0.0000000E+000	0.0000000E+000	0.0000000E+000	81.8026	0.0000000E+000	0.0000000E+000	0.0000000E+000	-81.8026	0.0000000E+000	0.0000000E+000	0.0000000E+000	-8.19743	0.0000000E+000	0.0000000E+000	0.0000000E+000	8.19743	6.94173	81.8026	-4.03459e-05	-8.32963e-07	-1.1031e-09	-8.3186e-07	0.273794	90234.8	119.499	90115.3
0.0680626	53.3152	8.29423	53.9565	-8.84261	109.552	0.274158	-0.00284013	281926	6661.93	1	12	0.00503647	9.33431e-05	0	-0.000201024	-5.69301e-05	2.62525e-06	1.02153	0.0281247	0.0281202	-0.00050141	-8.83749	53.9842	53.3433	8.29373	0.0183132	0.00284897	0.0185334	8.84261	6.66193e+06	4.28228e+07	4.33379e+07	-81.1574	0.0000000E+000	0.0000000E+000	0.0000000E+000	81.1574	0.0000000E+000	0.0000000E+000	0.0000000E+000	-81.1574	0.0000000E+000	0.0000000E+000	0.0000000E+000	-8.84261	0.0000000E+000	0.0000000E+000	0.0000000E+000	8.84261	6.42798	81.1574	-3.85868e-05	-7.78645e-07	1.61689e-10	-7.78806e-07	0.274215	96530.4	20.0449	96550.4
0.0464052	54.9178	9.56099	55.7439	-9.876	154.904	0.274154	-0.00272009	358716	10552.7	1	12	0.0050349	9.03221e-05	0	-0.000218268	0.000248523	1.86485e-06	34.9592	0.0206466	0.0169211	-0.0118304	-9.86105	55.7585	54.9347	9.54916	0.0176734	0.00307687	0.0179392	9.876	1.05527e+07	6.0614e+07	6.15257e+07	-80.124	0.0000000E+000	0.0000000E+000	0.0000000E+000	80.124	0.0000000E+000	0.0000000E+000	0.0000000E+000	-80.124	0.0000000E+000	0.0000000E+000	0.0000000E+000	-9.876	0.0000000E+000	0.0000000E+000	0.0000000E+000	9.876	5.74394	80.124	-1.72437e-05	-7.45723e-07	-6.76007e-10	-7.45047e-07	0.273905	100788	91.3658	100697
0.0315922	56.5319	11.1591	57.6227	-11.1664	221.51	0.274146	-0.00214725	451451	16931	1	12	0.00503545	8.73865e-05	0	-0.000194741	9.57967e-05	2.18274e-06	1.87846	0.0249779	0.0249645	-0.000818763	-11.1607	57.647	56.5568	11.1583	0.0170257	0.0033608	0.0173543	11.1664	1.6931e+07	8.57721e+07	8.74272e+07	-78.8336	0.0000000E+000	0.0000000E+000	0.0000000E+000	78.8336	0.0000000E+000	0.0000000E+000	0.0000000E+000	-78.8336	0.0000000E+000	0.0000000E+000	0.0000000E+000	-11.1664	0.0000000E+000	0.0000000E+000	0.0000000E+000	11.1664	5.06598	78.8336	2.35269e-05	-5.8866e-07	-2.05699e-10	-5.88454e-07	0.274051	127673	44.6137	127629
0.0215268	58.4993	13.1653	59.9624	-12.6831	319.248	0.274141	-0.00130766	561580	27071.5	1	12	0.00503469	8.39641e-05	0	-0.000125518	1.94333e-05	1.98054e-06	-20.7629	0.0235879	0.022056	0.00836194	-12.6863	59.9858	58.5213	13.1736	0.0162702	0.0036616	0.0166771	12.6831	2.70715e+07	1.20291e+08	1.233e+08	-77.3169	0.0000000E+000	0.0000000E+000	0.0000000E+000	77.3169	0.0000000E+000	0.0000000E+000	0.0000000E+000	-77.3169	0.0000000E+000	0.0000000E+000	0.0000000E+000	-12.6831	0.0000000E+000	0.0000000E+000	0.0000000E+000	12.6831	4.44346	77.3169	6.9223e-05	-3.58484e-07	-2.54122e-11	-3.58458e-07	0.274121	209642	14.8611	209627
0.0146812	61.0832	16.2033	63.1958	-14.8565	462.551	0.274143	-0.000441363	669045	43983.3	1	12	0.00503458	7.96665e-05	0	-3.97362e-05	3.85242e-05	1.47537e-06	-18.9536	0.0185194	0.0175153	0.00601515	-14.8577	63.2142	61.1007	16.2093	0.0152949	0.00405722	0.0158238	14.8565	4.39833e+07	1.65808e+08	1.71542e+08	-75.1435	0.0000000E+000	0.0000000E+000	0.0000000E+000	75.1435	0.0000000E+000	0.0000000E+000	0.0000000E+000	-75.1435	0.0000000E+000	0.0000000E+000	0.0000000E+000	-14.8565	0.0000000E+000	0.0000000E+000	0.0000000E+000	14.8565	3.76979	75.1435	8.57817e-05	-1.20996e-07	-1.70031e-11	-1.20979e-07	0.274104	621128	87.2846	621041
0.0100092	63.8681	20.7958	67.1685	-18.0355	672.733	0.274131	-2.88322e-06	764621	73293.8	1	12	0.00503206	7.4917e-05	0	-2.21399e-05	5.7615e-05	1.5144e-06	-32.359	0.0202144	0.0170753	0.0108192	-18.0398	67.1881	63.8852	20.8066	0.0141564	0.00460941	0.0148879	18.0355	7.32938e+07	2.251e+08	2.36732e+08	-71.9645	0.0000000E+000	0.0000000E+000	0.0000000E+000	71.9645	0.0000000E+000	0.0000000E+000	0.0000000E+000	-71.9645	0.0000000E+000	0.0000000E+000	0.0000000E+000	-18.0355	0.0000000E+000	0.0000000E+000	0.0000000E+000	18.0355	3.0712	71.9645	1.75963e-05	-7.90379e-10	-1.66116e-13	-7.90213e-10	0.274073	9.50782e+07	19982.9	9.50582e+07