File: txt/18722_R302_UA698_SOC00_C02.mpt
EC-Lab ASCII FILE
Nb header lines : 65

Potentio Electrochemical Impedance Spectroscopy

Run on channel : 2 (SN 66139)
User :
CE vs. WE compliance from -10 V to 10 V
Electrode connection : standard
Potential control : Ewe
Ewe ctrl range : min = -10.00 V, max = 10.00 V
Safety Limits :
	Do not start on E overload
Acquisition started on : 10/31/2025 10:59:24.795
Technique started on : 10/31/2025 10:59:26.706
Loaded Setting File :  C:\Users\Celltest\OneDrive - store-dot.com\Documents\EC-Lab\Data\@Biologic Test Protocols\anode half cell EIS SOC00.mps
Saved on :
	File : 18722_R302_UA698_SOC00_C02.mpr
	Directory : C:\Users\Celltest\OneDrive - store-dot.com\Documents\EC-Lab\Data\Anna\
	Host : 169.254.61.224
Device : VMP-3e (SN .003165)
Address : USB
EC-LAB for windows v11.62 (software)
Internet server v27.00 (firmware)
Command interpretor v12.03 (firmware)
Electrode material :
Initial state :
Electrolyte :
Comments :
Electrode surface area : 0.001 cm²
Characteristic mass : 0.001 g
Equivalent Weight : 0.000 g/eq.
Density : 0.000 g/cm3
Volume (V) : 0.001 cm³
Record Ece
Cycle Definition : Charge/Discharge alternance
Mode                Single sine
E (V)               0.0000
vs.                 Eoc
tE (h:m:s)          0:00:0.0000
record              0
dI                  0.000
unit dI             mA
dt (s)              0.000
fi                  100.000
unit fi             kHz
ff                  10.000
unit ff             mHz
Nd                  6
Points              per decade
spacing             Logarithmic
Va (mV)             5.0
pw                  0.10
Na                  2
corr                0
E range min (V)     -10.000
E range max (V)     10.000
I Range             Auto
Bandwidth           5
nc cycles           0
goto Ns'            0
nr cycles           0
inc. cycle          0

freq/Hz	Re(Z)/Ohm	-Im(Z)/Ohm	|Z|/Ohm	Phase(Z)/deg	time/s	<Ewe>/V	<I>/mA	Cs/µF	Cp/µF	cycle number	I Range	|Ewe|/V	|I|/A	Ns	(Q-Qo)/mA.h	<Ece>/V	|Ece|/V	Phase(Zce)/deg	|Zce|/Ohm	Re(Zce)/Ohm	-Im(Zce)/Ohm	Phase(Zwe-ce)/deg	|Zwe-ce|/Ohm	Re(Zwe-ce)/Ohm	-Im(Zwe-ce)/Ohm	Re(Y)/Ohm-1	Im(Y)/Ohm-1	|Y|/Ohm-1	Phase(Y)/deg	Re(C)/nF	Im(C)/nF	|C|/nF	Phase(C)/deg	Re(M)	Im(M)	|M|	Phase(M)/deg	Re(Permittivity)	Im(Permittivity)	|Permittivity|	Phase(Permittivity)/deg	Re(Resistivity)/Ohm.cm	Im(Resistivity)/Ohm.cm	|Resistivity|/Ohm.cm	Phase(Resistivity)/deg	Re(Conductivity)/mS/cm	Im(Conductivity)/mS/cm	|Conductivity|/mS/cm	Phase(Conductivity)/deg	Tan(Delta)	Loss Angle(Delta)/deg	dq/mA.h	Pwe/W	Pce/W	Pwe-ce/W	<Ewe-Ece>/V	Rwe/Ohm	Rce/Ohm	Rwe-ce/Ohm		Ewe-Ece/V
100004	1.22478	0.595328	1.3618	-25.9229	1.91052	0.269559	-0.0139649	2.6733	0.510896	1	9	0.00481853	0.00353835	0	-1.34094e-06	3.85242e-05	2.17013e-05	94.5882	0.00613318	-0.000490611	-0.00611353	-25.7001	1.3587	1.22429	0.589215	0.660435	0.321017	0.734321	25.9229	510.896	1051.08	1168.66	-64.0771	0.0000000E+000	0.0000000E+000	0.0000000E+000	64.0771	0.0000000E+000	0.0000000E+000	0.0000000E+000	-64.0771	0.0000000E+000	0.0000000E+000	0.0000000E+000	-25.9229	0.0000000E+000	0.0000000E+000	0.0000000E+000	25.9229	2.05732	64.0771	-1.34094e-06	-3.76437e-06	-5.37987e-10	-3.76384e-06	0.269521	19302.6	2.75864	19299.9
68132	1.3912	0.665571	1.54221	-25.5672	2.41756	0.269555	-0.0101658	3.50973	0.653694	1	9	0.0050751	0.00329079	0	-2.30856e-05	7.67059e-05	1.49232e-05	99.9177	0.00453485	-0.000781056	-0.00446708	-25.4298	1.53958	1.39042	0.661104	0.584926	0.279837	0.648419	25.5672	653.694	1366.37	1514.69	-64.4328	0.0000000E+000	0.0000000E+000	0.0000000E+000	64.4328	0.0000000E+000	0.0000000E+000	0.0000000E+000	-64.4328	0.0000000E+000	0.0000000E+000	0.0000000E+000	-25.5672	0.0000000E+000	0.0000000E+000	0.0000000E+000	25.5672	2.09023	64.4328	-2.17446e-05	-2.74025e-06	-7.79779e-10	-2.73947e-06	0.269478	26515.8	7.54546	26508.3
46420.4	1.58208	0.727843	1.74147	-24.705	2.92456	0.269547	-0.0124378	4.71057	0.822842	1	9	0.005067	0.00290961	0	-3.56431e-05	-7.60209e-05	7.09145e-06	91.252	0.00243725	-5.3253e-05	-0.00243667	-24.6329	1.74041	1.58202	0.725406	0.521669	0.239996	0.574227	24.705	822.842	1788.57	1968.77	-65.295	0.0000000E+000	0.0000000E+000	0.0000000E+000	65.295	0.0000000E+000	0.0000000E+000	0.0000000E+000	-65.295	0.0000000E+000	0.0000000E+000	0.0000000E+000	-24.705	0.0000000E+000	0.0000000E+000	0.0000000E+000	24.705	2.17365	65.295	-1.25575e-05	-3.35258e-06	9.45535e-10	-3.35352e-06	0.269623	21671.5	6.11207	21677.6
31621.1	1.75702	0.781118	1.92283	-23.9685	3.43354	0.269547	-0.00662748	6.44356	1.06336	1	9	0.00511284	0.00265902	0	-5.06753e-05	0.000496704	1.74504e-05	20.7215	0.00656271	0.00613818	-0.00232206	-23.8313	1.9275	1.76316	0.778796	0.475222	0.211269	0.520067	23.9685	1063.36	2391.88	2617.59	-66.0315	0.0000000E+000	0.0000000E+000	0.0000000E+000	66.0315	0.0000000E+000	0.0000000E+000	0.0000000E+000	-66.0315	0.0000000E+000	0.0000000E+000	0.0000000E+000	-23.9685	0.0000000E+000	0.0000000E+000	0.0000000E+000	23.9685	2.24937	66.0315	-1.50322e-05	-1.78642e-06	-3.2919e-09	-1.78312e-06	0.26905	40671.2	74.9462	40596.2
21544.7	1.94693	0.851535	2.12501	-23.6232	3.69253	0.269542	-0.00491419	8.67516	1.39303	1	9	0.00472732	0.00222461	0	-4.9761e-05	0.000248523	8.38089e-06	-77.0735	0.00376735	0.000842763	0.00367188	-23.7048	2.12725	1.94778	0.855207	0.431151	0.188574	0.470586	23.6232	1393.03	3185	3476.32	-66.3768	0.0000000E+000	0.0000000E+000	0.0000000E+000	66.3768	0.0000000E+000	0.0000000E+000	0.0000000E+000	-66.3768	0.0000000E+000	0.0000000E+000	0.0000000E+000	-23.6232	0.0000000E+000	0.0000000E+000	0.0000000E+000	23.6232	2.28638	66.3768	9.14331e-07	-1.32458e-06	-1.22129e-09	-1.32336e-06	0.269294	54849.9	50.5727	54799.3
14678.6	2.14266	0.907062	2.32675	-22.9446	4.07556	0.269551	-0.00577085	11.9536	1.81666	1	9	0.00487807	0.00209652	0	-5.16061e-05	9.57967e-05	1.06476e-05	-90.5835	0.00507871	-5.17218e-05	0.00507845	-23.0602	2.32868	2.14261	0.912141	0.395781	0.167548	0.429785	22.9446	1816.66	4291.32	4660.01	-67.0554	0.0000000E+000	0.0000000E+000	0.0000000E+000	67.0554	0.0000000E+000	0.0000000E+000	0.0000000E+000	-67.0554	0.0000000E+000	0.0000000E+000	0.0000000E+000	-22.9446	0.0000000E+000	0.0000000E+000	0.0000000E+000	22.9446	2.3622	67.0554	-1.84516e-06	-1.55554e-06	-5.52828e-10	-1.55498e-06	0.269455	46709.1	16.6001	46692.5
10002.2	2.33024	0.983176	2.52916	-22.8759	4.45855	0.269548	-0.00863879	16.1842	2.4457	1	9	0.00491641	0.00194389	0	-5.0477e-05	-0.000247839	5.22121e-06	-164.129	0.00268595	-0.00258356	0.000734545	-22.914	2.52706	2.32765	0.983911	0.364291	0.153702	0.395389	22.8759	2445.7	5796.58	6291.41	-67.1241	0.0000000E+000	0.0000000E+000	0.0000000E+000	67.1241	0.0000000E+000	0.0000000E+000	0.0000000E+000	-67.1241	0.0000000E+000	0.0000000E+000	0.0000000E+000	-22.8759	0.0000000E+000	0.0000000E+000	0.0000000E+000	22.8759	2.37011	67.1241	1.12916e-06	-2.32857e-06	2.14102e-09	-2.33071e-06	0.269796	31202.1	28.689	31230.8
6810.42	2.53592	1.10809	2.76745	-23.6033	4.71752	0.269552	-0.0107618	21.0897	3.38114	1	9	0.00471205	0.00170267	0	-5.22265e-05	0.00017216	0.000171628	81.4147	0.100799	0.0150474	-0.0996697	-21.5694	2.74305	2.55097	1.00842	0.331114	0.144683	0.361344	23.6033	3381.14	7737.91	8444.37	-66.3967	0.0000000E+000	0.0000000E+000	0.0000000E+000	66.3967	0.0000000E+000	0.0000000E+000	0.0000000E+000	-66.3967	0.0000000E+000	0.0000000E+000	0.0000000E+000	-23.6033	0.0000000E+000	0.0000000E+000	0.0000000E+000	23.6033	2.28855	66.3967	-1.74957e-06	-2.90087e-06	-1.85275e-09	-2.89901e-06	0.26938	25047.1	15.9973	25031.1
4646	2.71945	1.28803	3.00906	-25.344	4.98161	0.269525	-0.032141	26.5958	4.8731	1	9	0.0045746	0.00152028	0	-5.52618e-05	0.000324887	1.20002e-05	40.4546	0.00789345	0.00600628	-0.00512163	-25.207	3.01231	2.72546	1.28291	0.300344	0.142254	0.332329	25.344	4873.1	10288.7	11384.4	-64.656	0.0000000E+000	0.0000000E+000	0.0000000E+000	64.656	0.0000000E+000	0.0000000E+000	0.0000000E+000	-64.656	0.0000000E+000	0.0000000E+000	0.0000000E+000	-25.344	0.0000000E+000	0.0000000E+000	0.0000000E+000	25.344	2.11132	64.656	-3.03524e-06	-8.66279e-06	-1.04422e-08	-8.65235e-06	0.2692	8385.72	10.1082	8375.61
3163.08	2.92815	1.53927	3.30808	-27.73	5.53265	0.269339	-0.0364615	32.6885	7.07737	1	9	0.00499482	0.00150988	0	-6.39456e-05	-0.000133293	7.63878e-06	41.1196	0.00505918	0.00381128	-0.00332708	-27.6484	3.30991	2.93196	1.53594	0.267572	0.140657	0.30229	27.73	7077.38	13463.3	15210.1	-62.27	0.0000000E+000	0.0000000E+000	0.0000000E+000	62.27	0.0000000E+000	0.0000000E+000	0.0000000E+000	-62.27	0.0000000E+000	0.0000000E+000	0.0000000E+000	-27.73	0.0000000E+000	0.0000000E+000	0.0000000E+000	27.73	1.9023	62.27	-8.68386e-06	-9.82051e-06	4.86008e-09	-9.82537e-06	0.269473	7386.95	3.65573	7390.61
2155.69	3.1787	1.87636	3.69119	-30.553	6.22877	0.269492	-0.0198067	39.3475	10.1676	1	10	0.00519244	0.00140671	0	-6.09624e-05	0.000363069	6.96751e-06	-1.16078	0.00495304	0.00495203	0.000100339	-30.5153	3.6955	3.18365	1.87646	0.233301	0.137716	0.270915	30.553	10167.6	17224.7	20001.7	-59.447	0.0000000E+000	0.0000000E+000	0.0000000E+000	59.447	0.0000000E+000	0.0000000E+000	0.0000000E+000	-59.447	0.0000000E+000	0.0000000E+000	0.0000000E+000	-30.553	0.0000000E+000	0.0000000E+000	0.0000000E+000	30.553	1.69408	59.447	2.98324e-06	-5.33775e-06	-7.1912e-09	-5.33056e-06	0.269129	13606.1	18.3306	13587.7
1468.59	3.47942	2.36128	4.205	-34.1625	6.68005	0.269488	-0.0186743	45.8957	14.4723	1	10	0.00511091	0.00121544	0	-6.42031e-05	-0.000133293	8.05308e-06	-53.1459	0.00662566	0.00397394	0.00530163	-34.1918	4.21126	3.48339	2.36658	0.196777	0.133542	0.237812	34.1625	14472.3	21325.3	25772.4	-55.8375	0.0000000E+000	0.0000000E+000	0.0000000E+000	55.8375	0.0000000E+000	0.0000000E+000	0.0000000E+000	-55.8375	0.0000000E+000	0.0000000E+000	0.0000000E+000	-34.1625	0.0000000E+000	0.0000000E+000	0.0000000E+000	34.1625	1.47353	55.8375	-3.24072e-06	-5.03248e-06	2.48916e-09	-5.03497e-06	0.269621	14431	7.13781	14438.1
1000.32	3.85722	3.0157	4.89618	-38.0195	7.13081	0.26948	-0.0193634	52.7586	20.015	1	10	0.0050408	0.00102954	0	-6.64827e-05	0.000133978	9.08782e-06	-6.62252	0.00882709	0.00876819	0.00101801	-37.9657	4.90371	3.86598	3.01672	0.160901	0.125798	0.204241	38.0195	20015	25600	32495.6	-51.9805	0.0000000E+000	0.0000000E+000	0.0000000E+000	51.9805	0.0000000E+000	0.0000000E+000	0.0000000E+000	-51.9805	0.0000000E+000	0.0000000E+000	0.0000000E+000	-38.0195	0.0000000E+000	0.0000000E+000	0.0000000E+000	38.0195	1.27905	51.9805	-2.27959e-06	-5.21805e-06	-2.59428e-09	-5.21546e-06	0.269346	13917	6.91915	13910
681.09	4.35193	3.89655	5.84143	-41.8401	7.58061	0.269488	-0.0197509	59.9702	26.6844	1	10	0.00498398	0.000853211	0	-6.93463e-05	9.57967e-05	1.35813e-05	-53.9485	0.0159179	0.00936788	0.0128694	-41.8727	5.857	4.36129	3.90942	0.127539	0.114193	0.171191	41.8401	26684.4	29802.9	40003.3	-48.1599	0.0000000E+000	0.0000000E+000	0.0000000E+000	48.1599	0.0000000E+000	0.0000000E+000	0.0000000E+000	-48.1599	0.0000000E+000	0.0000000E+000	0.0000000E+000	-41.8401	0.0000000E+000	0.0000000E+000	0.0000000E+000	41.8401	1.11687	48.1599	-2.86354e-06	-5.32262e-06	-1.89207e-09	-5.32073e-06	0.269392	13644.4	4.85025	13639.5
463.961	5.07123	5.07005	7.17097	-44.9934	8.03333	0.269481	-0.0185513	67.6591	33.8217	1	10	0.00495874	0.000691502	0	-7.12481e-05	0.000133978	4.1319e-06	-98.0658	0.00597526	-0.000838392	0.00591615	-45.0315	7.17456	5.07039	5.07597	0.0986183	0.0985955	0.139451	44.9934	33821.7	33829.6	47836.7	-45.0066	0.0000000E+000	0.0000000E+000	0.0000000E+000	45.0066	0.0000000E+000	0.0000000E+000	0.0000000E+000	-45.0066	0.0000000E+000	0.0000000E+000	0.0000000E+000	-44.9934	0.0000000E+000	0.0000000E+000	0.0000000E+000	44.9934	1.00023	45.0066	-1.90187e-06	-4.99923e-06	-2.48548e-09	-4.99675e-06	0.269347	14526.2	7.22203	14519
316.316	6.08964	6.57699	8.96329	-47.2034	8.48101	0.26948	-0.0191437	76.5018	41.19	1	10	0.00493359	0.000550421	0	-7.39672e-05	0.000133978	5.31581e-06	40.729	0.00965771	0.00731866	-0.00630148	-47.1417	8.96364	6.09695	6.57069	0.0757978	0.081864	0.111566	47.2034	41190	38137.8	56134.8	-42.7966	0.0000000E+000	0.0000000E+000	0.0000000E+000	42.7966	0.0000000E+000	0.0000000E+000	0.0000000E+000	-42.7966	0.0000000E+000	0.0000000E+000	0.0000000E+000	-47.2034	0.0000000E+000	0.0000000E+000	0.0000000E+000	47.2034	0.9259	42.7966	-2.7191e-06	-5.15883e-06	-2.56484e-09	-5.15626e-06	0.269346	14076.7	6.99858	14069.7
215.345	7.63172	8.42454	11.3673	-47.8268	8.93061	0.269478	-0.0190431	87.7283	48.1854	1	10	0.00491931	0.000432759	0	-7.66477e-05	0.000153069	1.15016e-05	-56.8121	0.0265773	0.0145481	0.022242	-47.8477	11.3936	7.64627	8.44678	0.0590617	0.0651973	0.0879714	47.8268	48185.4	43650.8	65017.1	-42.1732	0.0000000E+000	0.0000000E+000	0.0000000E+000	42.1732	0.0000000E+000	0.0000000E+000	0.0000000E+000	-42.1732	0.0000000E+000	0.0000000E+000	0.0000000E+000	-47.8268	0.0000000E+000	0.0000000E+000	0.0000000E+000	47.8268	0.905892	42.1732	-2.68052e-06	-5.13168e-06	-2.91491e-09	-5.12877e-06	0.269325	14150.9	8.03805	14142.9
146.737	9.93418	10.5125	14.4638	-46.6202	9.37755	0.269474	-0.0205145	103.175	54.5032	1	10	0.00491644	0.000339914	0	-7.89291e-05	3.85242e-05	1.01508e-05	-131.044	0.0298629	-0.0196091	0.0225229	-46.7379	14.4667	9.91457	10.535	0.0474863	0.0502508	0.0691382	46.6202	54503.2	51504.8	74989	-43.3798	0.0000000E+000	0.0000000E+000	0.0000000E+000	43.3798	0.0000000E+000	0.0000000E+000	0.0000000E+000	-43.3798	0.0000000E+000	0.0000000E+000	0.0000000E+000	-46.6202	0.0000000E+000	0.0000000E+000	0.0000000E+000	46.6202	0.944987	43.3798	-2.28131e-06	-5.52815e-06	-7.90306e-10	-5.52735e-06	0.269436	13135.8	1.8779	13133.9
100.032	13.3148	12.7291	18.4205	-43.7118	9.82884	0.269474	-0.0190915	124.992	59.6868	1	10	0.00493562	0.000267942	0	-8.11978e-05	0.000248523	3.13291e-05	90.4706	0.116925	-0.00096033	-0.116921	-43.4498	18.3392	13.3138	12.6122	0.0392403	0.0375143	0.0542875	43.7118	59686.8	62432.9	86373.5	-46.2882	0.0000000E+000	0.0000000E+000	0.0000000E+000	46.2882	0.0000000E+000	0.0000000E+000	0.0000000E+000	-46.2882	0.0000000E+000	0.0000000E+000	0.0000000E+000	-43.7118	0.0000000E+000	0.0000000E+000	0.0000000E+000	43.7118	1.04601	46.2882	-2.26879e-06	-5.14467e-06	-4.74469e-09	-5.13992e-06	0.269226	14114.9	13.0175	14101.8
68.104	17.4423	14.2515	22.5242	-39.251	10.5414	0.26952	-0.00699057	163.979	65.6461	1	11	0.00492138	0.000218493	0	-8.32282e-05	0.000324887	1.14313e-05	47.0264	0.0523188	0.0356637	-0.03828	-39.1182	22.5277	17.478	14.2132	0.03438	0.0280906	0.0443967	39.251	65646.1	80343.9	103752	-50.749	0.0000000E+000	0.0000000E+000	0.0000000E+000	50.749	0.0000000E+000	0.0000000E+000	0.0000000E+000	-50.749	0.0000000E+000	0.0000000E+000	0.0000000E+000	-39.251	0.0000000E+000	0.0000000E+000	0.0000000E+000	39.251	1.22389	50.749	-2.03035e-06	-1.8841e-06	-2.27114e-09	-1.88183e-06	0.269196	38554.9	46.475	38508.4
46.4415	22.2551	14.7364	26.6917	-33.5109	10.9776	0.269517	-0.00732427	232.553	70.8845	1	11	0.00491225	0.000184036	0	-8.39974e-05	0.000210342	4.38482e-06	-84.6994	0.0238259	0.00220107	0.023724	-33.5508	26.7067	22.2573	14.7601	0.0312374	0.0206842	0.0374648	33.5109	70884.5	107050	128392	-56.4891	0.0000000E+000	0.0000000E+000	0.0000000E+000	56.4891	0.0000000E+000	0.0000000E+000	0.0000000E+000	-56.4891	0.0000000E+000	0.0000000E+000	0.0000000E+000	-33.5109	0.0000000E+000	0.0000000E+000	0.0000000E+000	33.5109	1.51021	56.4891	-7.69228e-07	-1.97402e-06	-1.5406e-09	-1.97248e-06	0.269307	36797.8	28.7185	36769.1
31.6296	26.9787	14.0624	30.4237	-27.5303	11.4075	0.269517	-0.00758341	357.823	76.4471	1	11	0.00490833	0.000161332	0	-8.51854e-05	5.7615e-05	2.999e-06	-71.9105	0.018589	0.00577193	0.0176702	-27.5547	30.437	26.9845	14.08	0.0291472	0.0151927	0.0328691	27.5303	76447.1	146664	165392	-62.4697	0.0000000E+000	0.0000000E+000	0.0000000E+000	62.4697	0.0000000E+000	0.0000000E+000	0.0000000E+000	-62.4697	0.0000000E+000	0.0000000E+000	0.0000000E+000	-27.5303	0.0000000E+000	0.0000000E+000	0.0000000E+000	27.5303	1.91851	62.4697	-1.18798e-06	-2.04386e-06	-4.36918e-10	-2.04342e-06	0.269459	35540.4	7.59751	35532.8
21.5517	30.9716	12.6132	33.4414	-22.1586	11.8285	0.269525	-0.00749429	585.482	83.2899	1	11	0.00490799	0.000146764	0	-8.61473e-05	9.57967e-05	9.66073e-06	-47.3105	0.0658251	0.0446311	0.0483839	-22.2065	33.501	31.0162	12.6616	0.0276945	0.0112786	0.029903	22.1586	83289.9	204518	220828	-67.8414	0.0000000E+000	0.0000000E+000	0.0000000E+000	67.8414	0.0000000E+000	0.0000000E+000	0.0000000E+000	-67.8414	0.0000000E+000	0.0000000E+000	0.0000000E+000	-22.1586	0.0000000E+000	0.0000000E+000	0.0000000E+000	22.1586	2.45549	67.8414	-9.61872e-07	-2.0199e-06	-7.17929e-10	-2.01918e-06	0.269429	35964	12.7826	35951.3
14.6852	34.0653	10.7134	35.7103	-17.4581	12.2892	0.26952	-0.00688804	1011.61	91.0505	1	11	0.00490882	0.000137463	0	-8.75514e-05	0.00017216	5.81409e-06	-33.948	0.0422958	0.0350863	0.0236197	-17.4774	35.7508	34.1004	10.737	0.0267132	0.00840119	0.0280032	17.4581	91050.5	289513	303493	-72.5419	0.0000000E+000	0.0000000E+000	0.0000000E+000	72.5419	0.0000000E+000	0.0000000E+000	0.0000000E+000	-72.5419	0.0000000E+000	0.0000000E+000	0.0000000E+000	-17.4581	0.0000000E+000	0.0000000E+000	0.0000000E+000	17.4581	3.17969	72.5419	-1.4041e-06	-1.85647e-06	-1.18585e-09	-1.85528e-06	0.269348	39128.8	24.9941	39103.8
10.0032	36.3141	8.89092	37.3866	-13.7573	12.7398	0.269517	-0.00707185	1789.51	101.203	1	11	0.00490899	0.000131303	0	-8.74161e-05	0.000191251	6.30382e-06	9.39501	0.0480096	0.0473656	-0.00783709	-13.7284	37.4308	36.3614	8.88308	0.0259802	0.00636083	0.0267475	13.7573	101203	413355	425564	-76.2427	0.0000000E+000	0.0000000E+000	0.0000000E+000	76.2427	0.0000000E+000	0.0000000E+000	0.0000000E+000	-76.2427	0.0000000E+000	0.0000000E+000	0.0000000E+000	-13.7573	0.0000000E+000	0.0000000E+000	0.0000000E+000	13.7573	4.0844	76.2427	1.35313e-07	-1.90599e-06	-1.3525e-09	-1.90464e-06	0.269326	38111.3	27.044	38084.2
6.81719	37.9809	7.36457	38.6883	-10.9736	13.0795	0.26953	-0.00625344	3170.06	114.869	1	11	0.00491175	0.000126957	0	-8.91595e-05	-0.000209657	5.70944e-06	21.5164	0.0449714	0.0418374	-0.0164941	-10.9379	38.7262	38.0227	7.34808	0.025375	0.00492027	0.0258476	10.9736	114869	592408	603442	-79.0264	0.0000000E+000	0.0000000E+000	0.0000000E+000	79.0264	0.0000000E+000	0.0000000E+000	0.0000000E+000	-79.0264	0.0000000E+000	0.0000000E+000	0.0000000E+000	-10.9736	0.0000000E+000	0.0000000E+000	0.0000000E+000	10.9736	5.15724	79.0264	-1.74344e-06	-1.68549e-06	1.31108e-09	-1.6868e-06	0.26974	43101.1	33.5266	43134.6
4.63925	39.2733	6.22851	39.7641	-9.01172	13.5635	0.269523	-0.00672771	5507.93	135.137	1	11	0.004906	0.000123378	0	-8.9826e-05	0.000324887	5.0343e-06	-4.89515	0.040804	0.0406552	0.00348191	-9.0075	39.8048	39.3139	6.23199	0.0248379	0.00393914	0.0251483	9.01172	135137	852093	862742	-80.9883	0.0000000E+000	0.0000000E+000	0.0000000E+000	80.9883	0.0000000E+000	0.0000000E+000	0.0000000E+000	-80.9883	0.0000000E+000	0.0000000E+000	0.0000000E+000	-9.01172	0.0000000E+000	0.0000000E+000	0.0000000E+000	9.01172	6.30541	80.9883	-6.66547e-07	-1.81327e-06	-2.18574e-09	-1.81109e-06	0.269198	40061.6	48.2908	40013.3
3.1604	40.2437	5.41917	40.607	-7.66924	14.2564	0.26953	-0.006114	9292.78	165.505	1	11	0.00490755	0.000120855	0	-8.93141e-05	-0.000114203	5.00876e-06	-61.7269	0.0414445	0.0196312	0.0365001	-7.71656	40.6313	40.2634	5.45567	0.024406	0.00328649	0.0246263	7.66924	165505	1.22907e+06	1.24016e+06	-82.3308	0.0000000E+000	0.0000000E+000	0.0000000E+000	82.3308	0.0000000E+000	0.0000000E+000	0.0000000E+000	-82.3308	0.0000000E+000	0.0000000E+000	0.0000000E+000	-7.66924	0.0000000E+000	0.0000000E+000	0.0000000E+000	7.66924	7.42618	82.3308	5.119e-07	-1.64791e-06	6.98234e-10	-1.64861e-06	0.269645	44084.2	18.6789	44102.8
2.15577	41.2124	4.91605	41.5046	-6.80241	15.2601	0.269529	-0.00536429	15017.7	210.689	1	11	0.00490734	0.000118236	0	-8.99638e-05	0.000343978	1.9866e-06	-95.466	0.0168019	-0.00160047	0.0167255	-6.8256	41.505	41.2108	4.93277	0.0239241	0.0028538	0.0240937	6.80241	210689	1.76626e+06	1.77878e+06	-83.1976	0.0000000E+000	0.0000000E+000	0.0000000E+000	83.1976	0.0000000E+000	0.0000000E+000	0.0000000E+000	-83.1976	0.0000000E+000	0.0000000E+000	0.0000000E+000	-6.80241	0.0000000E+000	0.0000000E+000	0.0000000E+000	6.80241	8.38325	83.1976	-6.49661e-07	-1.44583e-06	-1.84519e-09	-1.44399e-06	0.269185	50245.1	64.1237	50181
1.46631	42.1039	4.68313	42.3635	-6.34681	17.4495	0.269527	-0.00511288	23177	283.235	1	12	0.0049124	0.000115958	0	-9.49623e-05	0.000229433	1.10933e-06	-25.6527	0.00956664	0.0086237	0.00414154	-6.35108	42.3726	42.1125	4.68727	0.0234605	0.00260947	0.0236052	6.34681	283235	2.54643e+06	2.56214e+06	-83.6532	0.0000000E+000	0.0000000E+000	0.0000000E+000	83.6532	0.0000000E+000	0.0000000E+000	0.0000000E+000	-83.6532	0.0000000E+000	0.0000000E+000	0.0000000E+000	-6.34681	0.0000000E+000	0.0000000E+000	0.0000000E+000	6.34681	8.99054	83.6532	-4.99846e-06	-1.37806e-06	-1.17306e-09	-1.37688e-06	0.269297	52715.2	44.8735	52670.4
1.00006	43.0447	4.56939	43.2866	-6.05951	19.5779	0.26953	-0.00496578	34828.4	388.101	1	12	0.00490986	0.000113427	0	-0.000101471	0.000114888	2.39625e-06	7.74641	0.0211259	0.0209331	-0.00284754	-6.05284	43.3071	43.0657	4.56655	0.0229728	0.00243866	0.0231018	6.05951	388100	3.656e+06	3.67654e+06	-83.9405	0.0000000E+000	0.0000000E+000	0.0000000E+000	83.9405	0.0000000E+000	0.0000000E+000	0.0000000E+000	-83.9405	0.0000000E+000	0.0000000E+000	0.0000000E+000	-6.05951	0.0000000E+000	0.0000000E+000	0.0000000E+000	6.05951	9.42023	83.9405	-6.50853e-06	-1.33843e-06	-5.70506e-10	-1.33786e-06	0.269415	54277.5	23.1359	54254.4
0.681362	44.0872	4.5681	44.3233	-5.91559	22.6901	0.269538	-0.00475703	51133.7	543.143	1	12	0.00490667	0.000110702	0	-0.000108249	-0.000114203	2.2137e-06	31.843	0.0199969	0.0169873	-0.0105503	-5.89977	44.3391	44.1042	4.55754	0.0224414	0.00232526	0.0225615	5.91559	543143	5.24193e+06	5.27e+06	-84.0844	0.0000000E+000	0.0000000E+000	0.0000000E+000	84.0844	0.0000000E+000	0.0000000E+000	0.0000000E+000	-84.0844	0.0000000E+000	0.0000000E+000	0.0000000E+000	-5.91559	0.0000000E+000	0.0000000E+000	0.0000000E+000	5.91559	9.65112	84.0844	-6.77839e-06	-1.2822e-06	5.43265e-10	-1.28274e-06	0.269652	56660.9	24.0071	56684.9
0.464091	45.1671	4.7157	45.4126	-5.96041	27.2467	0.269536	-0.00481704	72722.8	784.171	1	12	0.00491052	0.000108131	0	-0.000112653	0.000515795	1.30233e-06	23.8211	0.012044	0.011018	-0.00486435	-5.95287	45.4231	45.1781	4.71084	0.0219013	0.00228662	0.0220203	5.96041	784171	7.51081e+06	7.55163e+06	-84.0396	0.0000000E+000	0.0000000E+000	0.0000000E+000	84.0396	0.0000000E+000	0.0000000E+000	0.0000000E+000	-84.0396	0.0000000E+000	0.0000000E+000	0.0000000E+000	-5.96041	0.0000000E+000	0.0000000E+000	0.0000000E+000	5.96041	9.57802	84.0396	-4.40336e-06	-1.29837e-06	-2.48461e-09	-1.29588e-06	0.26902	55954.7	107.077	55847.6
0.316193	46.1849	4.8478	46.4386	-5.99211	33.9201	0.269533	-0.00465953	103830	1131.5	1	12	0.00490834	0.000105695	0	-0.000113277	0.000343978	1.81007e-06	-8.03442	0.0171254	0.0169573	0.00239358	-5.99286	46.4557	46.2019	4.85019	0.0214161	0.00224795	0.0215338	5.99211	1.1315e+06	1.07798e+07	1.0839e+07	-84.0079	0.0000000E+000	0.0000000E+000	0.0000000E+000	84.0079	0.0000000E+000	0.0000000E+000	0.0000000E+000	-84.0079	0.0000000E+000	0.0000000E+000	0.0000000E+000	-5.99211	0.0000000E+000	0.0000000E+000	0.0000000E+000	5.99211	9.52699	84.0079	-6.24142e-07	-1.2559e-06	-1.60278e-09	-1.25429e-06	0.269189	57845.4	73.8224	57771.6
0.215268	47.2532	4.95998	47.5128	-5.99216	43.7135	0.269528	-0.00409801	149060	1624.42	1	12	0.00491022	0.000103345	0	-0.000111048	0.000210342	2.50852e-06	22.2873	0.0242733	0.0224599	-0.00920567	-5.9783	47.5342	47.2757	4.95077	0.020932	0.00219714	0.021047	5.99216	1.62442e+06	1.54757e+07	1.55607e+07	-84.0078	0.0000000E+000	0.0000000E+000	0.0000000E+000	84.0078	0.0000000E+000	0.0000000E+000	0.0000000E+000	-84.0078	0.0000000E+000	0.0000000E+000	0.0000000E+000	-5.99216	0.0000000E+000	0.0000000E+000	0.0000000E+000	5.99216	9.5269	84.0078	2.22852e-06	-1.10453e-06	-8.61983e-10	-1.10367e-06	0.269317	65770.3	51.3278	65719
0.146929	48.3402	5.20722	48.6198	-6.14822	58.0518	0.269529	-0.00328695	208021	2386.12	1	12	0.00491118	0.000101012	0	-0.000111201	0.000153069	1.27733e-06	-3.87546	0.0126453	0.0126164	0.000854671	-6.14762	48.6325	48.3528	5.20808	0.0204494	0.00220282	0.0205677	6.14822	2.38612e+06	2.21511e+07	2.22792e+07	-83.8518	0.0000000E+000	0.0000000E+000	0.0000000E+000	83.8518	0.0000000E+000	0.0000000E+000	0.0000000E+000	-83.8518	0.0000000E+000	0.0000000E+000	0.0000000E+000	-6.14822	0.0000000E+000	0.0000000E+000	0.0000000E+000	6.14822	9.2833	83.8518	-1.53306e-07	-8.8593e-07	-5.03131e-10	-8.85427e-07	0.269376	81999.8	46.5687	81953.2
0.0999041	49.4318	5.75588	49.7658	-6.64166	79.128	0.269529	-0.00227634	276774	3702.43	1	12	0.00490987	9.86596e-05	0	-0.000122917	-7.60209e-05	1.92965e-06	24.3959	0.0195587	0.0178124	-0.00807849	-6.63005	49.7826	49.4496	5.74781	0.0199593	0.00232407	0.0200941	6.64166	3.70243e+06	3.17966e+07	3.20115e+07	-83.3583	0.0000000E+000	0.0000000E+000	0.0000000E+000	83.3583	0.0000000E+000	0.0000000E+000	0.0000000E+000	-83.3583	0.0000000E+000	0.0000000E+000	0.0000000E+000	-6.64166	0.0000000E+000	0.0000000E+000	0.0000000E+000	6.64166	8.58805	83.3583	-1.17153e-05	-6.1354e-07	1.7305e-10	-6.13713e-07	0.269605	118404	33.3961	118438
0.0680626	50.5419	6.60774	50.972	-7.44849	110.056	0.269526	-0.0014276	353882	5947.05	1	12	0.00491205	9.63676e-05	0	-0.000154423	0.000114888	2.56194e-06	-2.71386	0.0265851	0.0265552	0.00125875	-7.44602	50.9985	50.5684	6.609	0.0194531	0.00254325	0.0196186	7.44849	5.94704e+06	4.54883e+07	4.58754e+07	-82.5515	0.0000000E+000	0.0000000E+000	0.0000000E+000	82.5515	0.0000000E+000	0.0000000E+000	0.0000000E+000	-82.5515	0.0000000E+000	0.0000000E+000	0.0000000E+000	-7.44849	0.0000000E+000	0.0000000E+000	0.0000000E+000	7.44849	7.64889	82.5515	-3.15066e-05	-3.84775e-07	-1.64014e-10	-3.84611e-07	0.269411	188796	80.476	188716
0.0464052	51.6651	7.73064	52.2403	-8.51002	155.407	0.269516	-0.00117035	443648	9715.34	1	12	0.00491014	9.39916e-05	0	-0.00022243	3.42479e-07	1.45296e-06	37.8666	0.0154584	0.0122035	-0.00948873	-8.49775	52.2509	51.6773	7.72115	0.0189316	0.00283273	0.0191423	8.51002	9.71534e+06	6.49292e+07	6.56521e+07	-81.49	0.0000000E+000	0.0000000E+000	0.0000000E+000	81.49	0.0000000E+000	0.0000000E+000	0.0000000E+000	-81.49	0.0000000E+000	0.0000000E+000	0.0000000E+000	-8.51002	0.0000000E+000	0.0000000E+000	0.0000000E+000	8.51002	6.68316	81.49	-6.80064e-05	-3.15428e-07	-4.00821e-13	-3.15428e-07	0.269516	230286	0.29263	230286
0.0315922	53.1842	9.35166	54.0001	-9.97269	222.013	0.26951	-0.00122721	538705	16156.2	1	12	0.00490827	9.08937e-05	0	-0.000323443	0.000191251	1.36589e-06	62.4272	0.0150274	0.00695579	-0.0133206	-9.95749	54.0046	53.1911	9.33834	0.0182387	0.00320701	0.0185185	9.97269	1.61562e+07	9.18827e+07	9.32923e+07	-80.0273	0.0000000E+000	0.0000000E+000	0.0000000E+000	80.0273	0.0000000E+000	0.0000000E+000	0.0000000E+000	-80.0273	0.0000000E+000	0.0000000E+000	0.0000000E+000	-9.97269	0.0000000E+000	0.0000000E+000	0.0000000E+000	9.97269	5.68713	80.0273	-0.000101013	-3.30744e-07	-2.34704e-10	-3.3051e-07	0.269318	219612	155.842	219456
0.0215268	55.0772	11.7589	56.3184	-12.0516	319.75	0.26951	-0.00135632	628746	27409.8	1	12	0.00490703	8.71301e-05	0	-0.000426904	0.000133978	1.68514e-06	-20.0544	0.0193405	0.0181679	0.00663211	-12.0543	56.3376	55.0953	11.7655	0.0173648	0.00370736	0.0177562	12.0516	2.74098e+07	1.28384e+08	1.31278e+08	-77.9484	0.0000000E+000	0.0000000E+000	0.0000000E+000	77.9484	0.0000000E+000	0.0000000E+000	0.0000000E+000	-77.9484	0.0000000E+000	0.0000000E+000	0.0000000E+000	-12.0516	0.0000000E+000	0.0000000E+000	0.0000000E+000	12.0516	4.68388	77.9484	-0.000103461	-3.65541e-07	-1.81717e-10	-3.65359e-07	0.269376	198707	98.781	198608
0.0146812	57.1773	15.1739	59.1564	-14.8627	463.053	0.269515	-0.0014011	714436	47005.8	1	12	0.00490766	8.29608e-05	0	-0.000473699	0.000248523	1.28828e-06	-76.3102	0.0155288	0.00367512	0.0150876	-14.8759	59.1639	57.1809	15.1889	0.0163388	0.00433603	0.0169043	14.8627	4.70058e+07	1.77124e+08	1.83256e+08	-75.1373	0.0000000E+000	0.0000000E+000	0.0000000E+000	75.1373	0.0000000E+000	0.0000000E+000	0.0000000E+000	-75.1373	0.0000000E+000	0.0000000E+000	0.0000000E+000	-14.8627	0.0000000E+000	0.0000000E+000	0.0000000E+000	14.8627	3.76814	75.1373	-4.67945e-05	-3.77618e-07	-3.48207e-10	-3.7727e-07	0.269266	192359	177.377	192181
0.0100092	59.3071	19.2962	62.3673	-18.0228	673.236	0.269515	-0.00109923	824045	78882.2	1	12	0.00490982	7.87243e-05	0	-0.000386989	0.000248523	2.49273e-06	12.6042	0.031664	0.0309009	-0.00690956	-18.008	62.3945	59.338	19.2893	0.0152473	0.00496086	0.016034	18.0228	7.88823e+07	2.42446e+08	2.54956e+08	-71.9772	0.0000000E+000	0.0000000E+000	0.0000000E+000	71.9772	0.0000000E+000	0.0000000E+000	0.0000000E+000	-71.9772	0.0000000E+000	0.0000000E+000	0.0000000E+000	-18.0228	0.0000000E+000	0.0000000E+000	0.0000000E+000	18.0228	3.07352	71.9772	8.67092e-05	-2.96258e-07	-2.73184e-10	-2.95985e-07	0.269266	245186	226.089	244960