File: txt/18725_R302_UA698_SOC00_C05.mpt
EC-Lab ASCII FILE
Nb header lines : 65

Potentio Electrochemical Impedance Spectroscopy

Run on channel : 5 (SN 65912)
User :
CE vs. WE compliance from -10 V to 10 V
Electrode connection : standard
Potential control : Ewe
Ewe ctrl range : min = -10.00 V, max = 10.00 V
Safety Limits :
	Do not start on E overload
Acquisition started on : 10/31/2025 10:59:58.272
Technique started on : 10/31/2025 11:00:00.184
Loaded Setting File :  C:\Users\Celltest\OneDrive - store-dot.com\Documents\EC-Lab\Data\@Biologic Test Protocols\anode half cell EIS SOC00.mps
Saved on :
	File : 18725_R302_UA698_SOC00_C05.mpr
	Directory : C:\Users\Celltest\OneDrive - store-dot.com\Documents\EC-Lab\Data\Charmaine\
	Host : 169.254.61.224
Device : VMP-3e (SN .003165)
Address : USB
EC-LAB for windows v11.62 (software)
Internet server v27.00 (firmware)
Command interpretor v12.03 (firmware)
Electrode material :
Initial state :
Electrolyte :
Comments :
Electrode surface area : 0.001 cm²
Characteristic mass : 0.001 g
Equivalent Weight : 0.000 g/eq.
Density : 0.000 g/cm3
Volume (V) : 0.001 cm³
Record Ece
Cycle Definition : Charge/Discharge alternance
Mode                Single sine
E (V)               0.0000
vs.                 Eoc
tE (h:m:s)          0:00:0.0000
record              0
dI                  0.000
unit dI             mA
dt (s)              0.000
fi                  100.000
unit fi             kHz
ff                  10.000
unit ff             mHz
Nd                  6
Points              per decade
spacing             Logarithmic
Va (mV)             5.0
pw                  0.10
Na                  2
corr                0
E range min (V)     -10.000
E range max (V)     10.000
I Range             Auto
Bandwidth           5
nc cycles           0
goto Ns'            0
nr cycles           0
inc. cycle          0

freq/Hz	Re(Z)/Ohm	-Im(Z)/Ohm	|Z|/Ohm	Phase(Z)/deg	time/s	<Ewe>/V	<I>/mA	Cs/µF	Cp/µF	cycle number	I Range	|Ewe|/V	|I|/A	Ns	(Q-Qo)/mA.h	<Ece>/V	|Ece|/V	Phase(Zce)/deg	|Zce|/Ohm	Re(Zce)/Ohm	-Im(Zce)/Ohm	Phase(Zwe-ce)/deg	|Zwe-ce|/Ohm	Re(Zwe-ce)/Ohm	-Im(Zwe-ce)/Ohm	Re(Y)/Ohm-1	Im(Y)/Ohm-1	|Y|/Ohm-1	Phase(Y)/deg	Re(C)/nF	Im(C)/nF	|C|/nF	Phase(C)/deg	Re(M)	Im(M)	|M|	Phase(M)/deg	Re(Permittivity)	Im(Permittivity)	|Permittivity|	Phase(Permittivity)/deg	Re(Resistivity)/Ohm.cm	Im(Resistivity)/Ohm.cm	|Resistivity|/Ohm.cm	Phase(Resistivity)/deg	Re(Conductivity)/mS/cm	Im(Conductivity)/mS/cm	|Conductivity|/mS/cm	Phase(Conductivity)/deg	Tan(Delta)	Loss Angle(Delta)/deg	dq/mA.h	Pwe/W	Pce/W	Pwe-ce/W	<Ewe-Ece>/V	Rwe/Ohm	Rce/Ohm	Rwe-ce/Ohm		Ewe-Ece/V
100004	1.2382	0.559995	1.35895	-24.3356	1.91152	0.268268	-0.0177477	2.84197	0.482595	1	9	0.00463628	0.00341167	0	-5.55284e-07	-0.00023237	4.04204e-05	93.5413	0.0118477	-0.000731815	-0.0118251	-23.8922	1.35345	1.23747	0.54817	0.67048	0.303234	0.735863	24.3356	482.595	1067.06	1171.12	-65.6644	0.0000000E+000	0.0000000E+000	0.0000000E+000	65.6644	0.0000000E+000	0.0000000E+000	0.0000000E+000	-65.6644	0.0000000E+000	0.0000000E+000	0.0000000E+000	-24.3356	0.0000000E+000	0.0000000E+000	0.0000000E+000	24.3356	2.21109	65.6644	-5.55284e-07	-4.76113e-06	4.12402e-09	-4.76525e-06	0.2685	15115.7	13.093	15128.8
68132	1.38999	0.626535	1.52467	-24.2634	2.41855	0.268234	-0.0206151	3.72841	0.629599	1	9	0.00503398	0.0033017	0	9.32342e-06	-3.27544e-06	2.65548e-05	81.3961	0.00804276	0.00120322	-0.00795225	-23.972	1.52252	1.39119	0.618583	0.597944	0.269523	0.655881	24.2634	629.6	1396.78	1532.12	-65.7366	0.0000000E+000	0.0000000E+000	0.0000000E+000	65.7366	0.0000000E+000	0.0000000E+000	0.0000000E+000	-65.7366	0.0000000E+000	0.0000000E+000	0.0000000E+000	-24.2634	0.0000000E+000	0.0000000E+000	0.0000000E+000	24.2634	2.21853	65.7366	9.87871e-06	-5.52967e-06	6.75236e-11	-5.52974e-06	0.268237	13011.5	0.158885	13011.7
46420.4	1.5606	0.685557	1.70454	-23.7154	2.92754	0.268234	-0.0191255	5.00113	0.808985	1	9	0.00509418	0.00298859	0	1.68099e-05	1.58158e-05	1.74938e-05	51.6119	0.00585354	0.00363496	-0.00458813	-23.5253	1.70603	1.56424	0.680969	0.537126	0.235955	0.586668	23.7154	808.985	1841.57	2011.43	-66.2846	0.0000000E+000	0.0000000E+000	0.0000000E+000	66.2846	0.0000000E+000	0.0000000E+000	0.0000000E+000	-66.2846	0.0000000E+000	0.0000000E+000	0.0000000E+000	-23.7154	0.0000000E+000	0.0000000E+000	0.0000000E+000	23.7154	2.2764	66.2846	7.48645e-06	-5.13013e-06	-3.02485e-10	-5.12983e-06	0.268219	14024.9	0.826945	14024.1
31621.1	1.73731	0.756668	1.89494	-23.5351	3.43453	0.268231	-0.0136885	6.65177	1.06062	1	9	0.00513147	0.00270799	0	1.63659e-05	-0.000175096	1.61192e-05	-4.2288	0.00595245	0.00593625	0.000438931	-23.4757	1.90056	1.74324	0.757107	0.483824	0.210725	0.527722	23.5351	1060.62	2435.17	2656.12	-66.4649	0.0000000E+000	0.0000000E+000	0.0000000E+000	66.4649	0.0000000E+000	0.0000000E+000	0.0000000E+000	-66.4649	0.0000000E+000	0.0000000E+000	0.0000000E+000	-23.5351	0.0000000E+000	0.0000000E+000	0.0000000E+000	23.5351	2.296	66.4649	-4.43992e-07	-3.67169e-06	2.39681e-09	-3.67409e-06	0.268406	19595.3	12.7915	19608.1
21544.7	1.92012	0.822309	2.08879	-23.1835	3.81754	0.268231	-0.0210993	8.98349	1.39228	1	9	0.00496469	0.00237683	0	1.34133e-05	3.4907e-05	5.07137e-06	-156.586	0.00213367	-0.00195798	0.000847861	-23.2261	2.08732	1.91816	0.823157	0.440087	0.188472	0.478747	23.1835	1392.28	3251.01	3536.6	-66.8165	0.0000000E+000	0.0000000E+000	0.0000000E+000	66.8165	0.0000000E+000	0.0000000E+000	0.0000000E+000	-66.8165	0.0000000E+000	0.0000000E+000	0.0000000E+000	-23.1835	0.0000000E+000	0.0000000E+000	0.0000000E+000	23.1835	2.33503	66.8165	-2.95254e-06	-5.65947e-06	-7.36512e-10	-5.65873e-06	0.268196	12712.8	1.65442	12711.1
14678.6	2.10562	0.900706	2.29017	-23.1595	4.20256	0.268233	-0.0224399	12.0379	1.86201	1	9	0.0049706	0.0021704	0	1.49837e-05	-0.000480556	7.56736e-06	62.6827	0.00348661	0.00160007	-0.00309778	-23.0725	2.29043	2.10722	0.897609	0.40146	0.17173	0.436648	23.1595	1862.01	4352.9	4734.43	-66.8405	0.0000000E+000	0.0000000E+000	0.0000000E+000	66.8405	0.0000000E+000	0.0000000E+000	0.0000000E+000	-66.8405	0.0000000E+000	0.0000000E+000	0.0000000E+000	-23.1595	0.0000000E+000	0.0000000E+000	0.0000000E+000	23.1595	2.33774	66.8405	1.5704e-06	-6.01912e-06	1.07836e-08	-6.02991e-06	0.268714	11953.4	21.4152	11974.8
10002.2	2.30381	0.994466	2.50929	-23.348	4.46152	0.268231	-0.0230357	16.0005	2.51312	1	9	0.00457189	0.00182199	0	1.48875e-05	0.000149454	1.55128e-05	-94.6109	0.00851419	-0.000684447	0.00848664	-23.5319	2.51203	2.30313	1.00295	0.365887	0.157939	0.39852	23.348	2513.12	5821.97	6341.23	-66.652	0.0000000E+000	0.0000000E+000	0.0000000E+000	66.652	0.0000000E+000	0.0000000E+000	0.0000000E+000	-66.652	0.0000000E+000	0.0000000E+000	0.0000000E+000	-23.348	0.0000000E+000	0.0000000E+000	0.0000000E+000	23.348	2.31663	66.652	-9.62716e-08	-6.17889e-06	-3.44279e-09	-6.17545e-06	0.268081	11644.1	6.48793	11637.6
6810.42	2.49053	1.10385	2.7242	-23.9038	4.84455	0.26823	-0.0255681	21.1707	3.476	1	9	0.0049224	0.00180692	0	1.01348e-05	3.4907e-05	3.77032e-05	51.6666	0.020866	0.0129419	-0.0163676	-23.4796	2.72947	2.50348	1.08748	0.335595	0.148742	0.367081	23.9038	3476	7842.63	8578.43	-66.0962	0.0000000E+000	0.0000000E+000	0.0000000E+000	66.0962	0.0000000E+000	0.0000000E+000	0.0000000E+000	-66.0962	0.0000000E+000	0.0000000E+000	0.0000000E+000	-23.9038	0.0000000E+000	0.0000000E+000	0.0000000E+000	23.9038	2.25622	66.0962	-4.75266e-06	-6.85813e-06	-8.92504e-10	-6.85724e-06	0.268195	10490.8	1.36526	10489.5
4646	2.69207	1.27622	2.97926	-25.3639	5.10962	0.268198	-0.0472416	26.8421	4.92547	1	9	0.00481909	0.00161755	0	6.03937e-06	-2.23667e-05	1.66432e-05	-97.3958	0.0102892	-0.00132444	0.0102036	-25.552	2.98245	2.69075	1.28642	0.303299	0.143783	0.335654	25.3639	4925.47	10389.9	11498.3	-64.6361	0.0000000E+000	0.0000000E+000	0.0000000E+000	64.6361	0.0000000E+000	0.0000000E+000	0.0000000E+000	-64.6361	0.0000000E+000	0.0000000E+000	0.0000000E+000	-25.3639	0.0000000E+000	0.0000000E+000	0.0000000E+000	25.3639	2.10942	64.6361	-4.09545e-06	-1.26701e-05	1.05664e-09	-1.26712e-05	0.26822	5677.15	0.473452	5677.62
3163.08	2.9381	1.55934	3.32626	-27.9562	5.48368	0.268004	-0.0651167	32.2679	7.0915	1	9	0.00474289	0.00142589	0	-2.05475e-07	-7.96403e-05	1.02183e-05	-83.6442	0.00716623	0.000793311	0.00712218	-28.058	3.3303	2.9389	1.56646	0.265556	0.140938	0.300638	27.9562	7091.5	13361.8	15127	-62.0438	0.0000000E+000	0.0000000E+000	0.0000000E+000	62.0438	0.0000000E+000	0.0000000E+000	0.0000000E+000	-62.0438	0.0000000E+000	0.0000000E+000	0.0000000E+000	-27.9562	0.0000000E+000	0.0000000E+000	0.0000000E+000	27.9562	1.8842	62.0438	-6.24484e-06	-1.74515e-05	5.18592e-09	-1.74567e-05	0.268084	4115.75	1.22304	4116.97
2155.69	3.15355	1.88719	3.6751	-30.8978	6.17981	0.268165	-0.015283	39.1217	10.316	1	10	0.00491309	0.00133686	0	8.18829e-07	0.000283093	5.02711e-06	-14.3027	0.00376038	0.00364383	0.000928984	-30.8811	3.6787	3.15719	1.88812	0.233486	0.139726	0.272102	30.8978	10316	17238.3	20089.3	-59.1022	0.0000000E+000	0.0000000E+000	0.0000000E+000	59.1022	0.0000000E+000	0.0000000E+000	0.0000000E+000	-59.1022	0.0000000E+000	0.0000000E+000	0.0000000E+000	-30.8978	0.0000000E+000	0.0000000E+000	0.0000000E+000	30.8978	1.67102	59.1022	1.0243e-06	-4.09837e-06	-4.32651e-09	-4.09404e-06	0.267882	17546.6	18.5234	17528.1
1468.59	3.45247	2.37723	4.19175	-34.5497	6.63105	0.26817	-0.0142181	45.5878	14.6622	1	10	0.00482366	0.00115075	0	1.47388e-08	1.58158e-05	1.08077e-05	-5.23586	0.00939186	0.00935267	0.000857062	-34.487	4.19994	3.46182	2.37808	0.19649	0.135295	0.238564	34.5497	14662.2	21294.1	25853.8	-55.4503	0.0000000E+000	0.0000000E+000	0.0000000E+000	55.4503	0.0000000E+000	0.0000000E+000	0.0000000E+000	-55.4503	0.0000000E+000	0.0000000E+000	0.0000000E+000	-34.5497	0.0000000E+000	0.0000000E+000	0.0000000E+000	34.5497	1.45231	55.4503	-8.0409e-07	-3.81288e-06	-2.2487e-10	-3.81265e-06	0.268155	18861.2	1.11237	18860.1
1000.32	3.84954	3.03079	4.89945	-38.2138	7.0818	0.26817	-0.0140431	52.4958	20.0882	1	10	0.0047688	0.000973332	0	-2.30953e-06	0.000130363	1.46827e-05	-47.0788	0.015085	0.0102728	0.0110466	-38.2409	4.91436	3.85981	3.04184	0.160366	0.126259	0.204104	38.2138	20088.2	25514.9	32473.8	-51.7862	0.0000000E+000	0.0000000E+000	0.0000000E+000	51.7862	0.0000000E+000	0.0000000E+000	0.0000000E+000	-51.7862	0.0000000E+000	0.0000000E+000	0.0000000E+000	-38.2138	0.0000000E+000	0.0000000E+000	0.0000000E+000	38.2138	1.27014	51.7862	-2.32427e-06	-3.76593e-06	-1.8307e-09	-3.7641e-06	0.268039	19096.2	9.28306	19086.9
681.09	4.34499	3.9211	5.85269	-42.0644	7.53259	0.268171	-0.0139947	59.5948	26.7493	1	10	0.00470825	0.00080446	0	-3.31619e-06	-0.000136914	8.26688e-06	19.1673	0.0102763	0.00970663	-0.003374	-41.9763	5.85764	4.3547	3.91772	0.126846	0.114471	0.170862	42.0644	26749.3	29641.1	39926.4	-47.9356	0.0000000E+000	0.0000000E+000	0.0000000E+000	47.9356	0.0000000E+000	0.0000000E+000	0.0000000E+000	-47.9356	0.0000000E+000	0.0000000E+000	0.0000000E+000	-42.0644	0.0000000E+000	0.0000000E+000	0.0000000E+000	42.0644	1.10811	47.9356	-1.00666e-06	-3.75297e-06	1.91607e-09	-3.75489e-06	0.268308	19162.3	9.78326	19172.1
463.961	5.05931	5.10621	7.18818	-45.2644	7.98432	0.268161	-0.0144341	67.18	33.9	1	10	0.00467604	0.000650518	0	-5.34148e-06	0.000149454	7.70557e-06	-39.8659	0.0118453	0.0090918	0.00759274	-45.2555	7.19997	5.0684	5.1138	0.0979158	0.0988236	0.139117	45.2644	33900	33588.6	47722.1	-44.7356	0.0000000E+000	0.0000000E+000	0.0000000E+000	44.7356	0.0000000E+000	0.0000000E+000	0.0000000E+000	-44.7356	0.0000000E+000	0.0000000E+000	0.0000000E+000	-45.2644	0.0000000E+000	0.0000000E+000	0.0000000E+000	45.2644	0.990814	44.7356	-2.02529e-06	-3.87066e-06	-2.15724e-09	-3.8685e-06	0.268011	18578.3	10.3543	18567.9
316.316	6.1146	6.61474	9.00795	-47.25	8.43201	0.268163	-0.0143633	76.0652	41.0166	1	10	0.00466751	0.000518154	0	-6.6186e-06	0.000111272	5.7587e-06	11.6326	0.0111139	0.0108856	-0.00224096	-47.1895	9.0137	6.12549	6.6125	0.0753557	0.0815194	0.111013	47.25	41016.6	37915.4	55856.4	-42.75	0.0000000E+000	0.0000000E+000	0.0000000E+000	42.75	0.0000000E+000	0.0000000E+000	0.0000000E+000	-42.75	0.0000000E+000	0.0000000E+000	0.0000000E+000	-47.25	0.0000000E+000	0.0000000E+000	0.0000000E+000	47.25	0.92439	42.75	-1.27712e-06	-3.85172e-06	-1.59824e-09	-3.85013e-06	0.268052	18670	7.74693	18662.2
215.345	7.65425	8.47485	11.4197	-47.9125	8.8816	0.268166	-0.014207	87.2076	48.0292	1	10	0.00464407	0.00040667	0	-8.30069e-06	0.000149454	6.23659e-06	-80.0425	0.0153357	0.00265183	0.0151047	-47.9534	11.4327	7.6569	8.48995	0.0586935	0.0649859	0.0875676	47.9125	48029.2	43378.6	64718.7	-42.0875	0.0000000E+000	0.0000000E+000	0.0000000E+000	42.0875	0.0000000E+000	0.0000000E+000	0.0000000E+000	-42.0875	0.0000000E+000	0.0000000E+000	0.0000000E+000	-47.9125	0.0000000E+000	0.0000000E+000	0.0000000E+000	47.9125	0.903172	42.0875	-1.68209e-06	-3.80983e-06	-2.12329e-09	-3.8077e-06	0.268017	18875.7	10.5198	18865.2
146.737	9.9637	10.5737	14.5285	-46.7013	9.32851	0.268154	-0.0159532	102.578	54.3328	1	10	0.00463462	0.000319001	0	-1.06029e-05	0.000187637	1.01796e-05	81.2192	0.0319108	0.00487134	-0.0315368	-46.6019	14.5089	9.96857	10.5422	0.0472038	0.0500937	0.0688301	46.7013	54332.8	51198.4	74654.8	-43.2987	0.0000000E+000	0.0000000E+000	0.0000000E+000	43.2987	0.0000000E+000	0.0000000E+000	0.0000000E+000	-43.2987	0.0000000E+000	0.0000000E+000	0.0000000E+000	-46.7013	0.0000000E+000	0.0000000E+000	0.0000000E+000	46.7013	0.94231	43.2987	-2.30223e-06	-4.27793e-06	-2.99341e-09	-4.27493e-06	0.267966	16808.7	11.7617	16797
100.032	13.3026	12.6581	18.3626	-43.5781	9.77984	0.268158	-0.0143373	125.693	59.7284	1	10	0.00463144	0.000252221	0	-1.20066e-05	0.000111272	1.83046e-05	-1.24828	0.0725737	0.0725565	0.00158101	-43.426	18.4164	13.3751	12.6597	0.0394516	0.0375405	0.0544584	43.5781	59728.4	62769.1	86645.5	-46.4219	0.0000000E+000	0.0000000E+000	0.0000000E+000	46.4219	0.0000000E+000	0.0000000E+000	0.0000000E+000	-46.4219	0.0000000E+000	0.0000000E+000	0.0000000E+000	-43.5781	0.0000000E+000	0.0000000E+000	0.0000000E+000	43.5781	1.05091	46.4219	-1.40365e-06	-3.84466e-06	-1.59534e-09	-3.84307e-06	0.268047	18703.6	7.76101	18695.8
68.104	17.5424	14.2134	22.5778	-39.0154	10.4935	0.268206	-0.00401419	164.418	65.1601	1	11	0.00464931	0.000205924	0	-1.29666e-05	0.000168545	5.12147e-06	-53.0546	0.0248707	0.0149487	0.0198769	-39.0307	22.602	17.5574	14.2333	0.0344133	0.0278826	0.0442912	39.0154	65160.1	80421.7	103506	-50.9846	0.0000000E+000	0.0000000E+000	0.0000000E+000	50.9846	0.0000000E+000	0.0000000E+000	0.0000000E+000	-50.9846	0.0000000E+000	0.0000000E+000	0.0000000E+000	-39.0154	0.0000000E+000	0.0000000E+000	0.0000000E+000	39.0154	1.23422	50.9846	-9.60071e-07	-1.07663e-06	-6.76574e-10	-1.07595e-06	0.268037	66814.4	41.9874	66772.4
46.4415	22.3364	14.6317	26.7021	-33.2273	10.9307	0.268189	-0.00422493	234.217	70.3265	1	11	0.0046352	0.00017359	0	-1.35541e-05	9.21806e-05	2.62735e-06	-81.2533	0.0151354	0.0023016	0.0149594	-33.2515	26.7122	22.3387	14.6467	0.0313273	0.0205213	0.0374503	33.2273	70326.5	107358	128342	-56.7727	0.0000000E+000	0.0000000E+000	0.0000000E+000	56.7727	0.0000000E+000	0.0000000E+000	0.0000000E+000	-56.7727	0.0000000E+000	0.0000000E+000	0.0000000E+000	-33.2273	0.0000000E+000	0.0000000E+000	0.0000000E+000	33.2273	1.52657	56.7727	-5.87487e-07	-1.13308e-06	-3.89457e-10	-1.13269e-06	0.268097	63477.8	21.8183	63456
31.6296	27.0854	13.9089	30.4479	-27.1815	11.3606	0.268196	-0.00445279	361.77	75.4928	1	11	0.00464365	0.000152511	0	-1.40928e-05	0.000111272	8.28218e-06	17.7233	0.0543054	0.0517279	-0.0165317	-27.1094	30.4864	27.1371	13.8924	0.0292159	0.015003	0.032843	27.1815	75492.8	147010	165261	-62.8185	0.0000000E+000	0.0000000E+000	0.0000000E+000	62.8185	0.0000000E+000	0.0000000E+000	0.0000000E+000	-62.8185	0.0000000E+000	0.0000000E+000	0.0000000E+000	-27.1815	0.0000000E+000	0.0000000E+000	0.0000000E+000	27.1815	1.94734	62.8185	-5.38707e-07	-1.19422e-06	-4.9547e-10	-1.19372e-06	0.268085	60231	24.9892	60206
21.5517	30.8909	12.2665	33.2372	-21.6575	11.7815	0.268191	-0.00466725	602.031	81.9989	1	11	0.004625	0.000139151	0	-1.45299e-05	-0.000136914	8.53472e-06	-47.7746	0.0613341	0.0412195	0.0454183	-21.704	33.2923	30.9321	12.3119	0.0279628	0.0111038	0.0300868	21.6575	81998.9	206500	222184	-68.3425	0.0000000E+000	0.0000000E+000	0.0000000E+000	68.3425	0.0000000E+000	0.0000000E+000	0.0000000E+000	-68.3425	0.0000000E+000	0.0000000E+000	0.0000000E+000	-21.6575	0.0000000E+000	0.0000000E+000	0.0000000E+000	21.6575	2.51832	68.3425	-4.37091e-07	-1.25171e-06	6.39011e-10	-1.25235e-06	0.268327	57462.3	29.3351	57491.6
14.6852	33.8247	10.3719	35.3791	-17.0474	12.2422	0.268206	-0.00378596	1044.92	89.8058	1	11	0.00462075	0.000130607	0	-1.44764e-05	0.000111272	7.31717e-06	28.4247	0.0560245	0.0492704	-0.0266678	-16.9828	35.4185	33.8739	10.3452	0.0270233	0.00828634	0.0282652	17.0474	89805.8	292874	306333	-72.9526	0.0000000E+000	0.0000000E+000	0.0000000E+000	72.9526	0.0000000E+000	0.0000000E+000	0.0000000E+000	-72.9526	0.0000000E+000	0.0000000E+000	0.0000000E+000	-17.0474	0.0000000E+000	0.0000000E+000	0.0000000E+000	17.0474	3.26119	72.9526	5.34769e-08	-1.01542e-06	-4.21271e-10	-1.015e-06	0.268095	70842.2	29.3906	70812.8
10.0032	36.0583	8.50806	37.0485	-13.2763	12.6928	0.268208	-0.00387011	1870.04	98.6214	1	11	0.00462714	0.000124894	0	-1.49224e-05	3.4907e-05	6.21973e-06	9.24498	0.0497999	0.0491531	-0.00800066	-13.2468	37.0945	36.1075	8.50006	0.0262703	0.00619855	0.0269917	13.2763	98621.4	417971	429448	-76.7237	0.0000000E+000	0.0000000E+000	0.0000000E+000	76.7237	0.0000000E+000	0.0000000E+000	0.0000000E+000	-76.7237	0.0000000E+000	0.0000000E+000	0.0000000E+000	-13.2763	0.0000000E+000	0.0000000E+000	0.0000000E+000	13.2763	4.23814	76.7237	-4.45982e-07	-1.03799e-06	-1.35094e-10	-1.03786e-06	0.268173	69302.4	9.01964	69293.4
6.81719	37.6339	7.0219	38.2834	-10.569	13.0325	0.268185	-0.00420855	3324.76	111.853	1	11	0.00463021	0.000120946	0	-1.47668e-05	-3.27544e-06	4.60361e-06	30.5915	0.0380635	0.0327657	-0.019371	-10.5315	38.3121	37.6667	7.00253	0.0256778	0.00479108	0.026121	10.569	111853	599478	609823	-79.431	0.0000000E+000	0.0000000E+000	0.0000000E+000	79.431	0.0000000E+000	0.0000000E+000	0.0000000E+000	-79.431	0.0000000E+000	0.0000000E+000	0.0000000E+000	-10.569	0.0000000E+000	0.0000000E+000	0.0000000E+000	10.569	5.35951	79.431	1.55582e-07	-1.12867e-06	1.37848e-11	-1.12868e-06	0.268188	63723.9	0.778283	63724.6
4.63925	38.762	5.86962	39.2039	-8.61071	13.5165	0.268202	-0.0036806	5844.7	131.016	1	11	0.00462793	0.000118048	0	-1.65622e-05	0.000168545	8.03699e-06	86.204	0.0680827	0.00450733	-0.0679333	-8.51154	39.1983	38.7666	5.80169	0.0252201	0.00381901	0.0255076	8.61071	131016	865206	875070	-81.3893	0.0000000E+000	0.0000000E+000	0.0000000E+000	81.3893	0.0000000E+000	0.0000000E+000	0.0000000E+000	-81.3893	0.0000000E+000	0.0000000E+000	0.0000000E+000	-8.61071	0.0000000E+000	0.0000000E+000	0.0000000E+000	8.61071	6.60384	81.3893	-1.79531e-06	-9.87143e-07	-6.20348e-10	-9.86523e-07	0.268033	72869.1	45.793	72823.3
3.1604	39.8037	4.98253	40.1144	-7.13502	14.2094	0.268199	-0.00355792	10107.2	155.93	1	11	0.00463117	0.000115449	0	-1.77752e-05	-9.87315e-05	8.75131e-06	-69.2797	0.0758024	0.0268193	0.0708994	-7.23066	40.1498	39.8305	5.05343	0.0247357	0.00309635	0.0249287	7.13502	155930	1.24567e+06	1.25539e+06	-82.865	0.0000000E+000	0.0000000E+000	0.0000000E+000	82.865	0.0000000E+000	0.0000000E+000	0.0000000E+000	-82.865	0.0000000E+000	0.0000000E+000	0.0000000E+000	-7.13502	0.0000000E+000	0.0000000E+000	0.0000000E+000	7.13502	7.98866	82.865	-1.21305e-06	-9.54231e-07	3.51279e-10	-9.54582e-07	0.268298	75381	27.7498	75408.7
2.15577	40.5504	4.57523	40.8077	-6.43736	15.2131	0.268207	-0.00286708	16136.3	202.837	1	11	0.00462975	0.000113453	0	-1.70754e-05	0.000206728	2.96706e-06	-51.6003	0.0261523	0.0162443	0.0204955	-6.46339	40.8261	40.5666	4.59573	0.0243507	0.00274745	0.0245052	6.43736	202837	1.79775e+06	1.80916e+06	-83.5626	0.0000000E+000	0.0000000E+000	0.0000000E+000	83.5626	0.0000000E+000	0.0000000E+000	0.0000000E+000	-83.5626	0.0000000E+000	0.0000000E+000	0.0000000E+000	-6.43736	0.0000000E+000	0.0000000E+000	0.0000000E+000	6.43736	8.86302	83.5626	6.99815e-07	-7.6897e-07	-5.92705e-10	-7.68378e-07	0.268	93547.2	72.1041	93475.1
1.46631	41.3248	4.25257	41.5431	-5.8754	17.4013	0.268201	-0.00241322	25523.6	267.454	1	12	0.00463137	0.000111484	0	-1.58524e-05	0.000149454	4.63743e-06	-60.7462	0.0415974	0.0203278	0.0362922	-5.92229	41.567	41.3452	4.28887	0.023945	0.00246408	0.0240714	5.8754	267454	2.59901e+06	2.61274e+06	-84.1246	0.0000000E+000	0.0000000E+000	0.0000000E+000	84.1246	0.0000000E+000	0.0000000E+000	0.0000000E+000	-84.1246	0.0000000E+000	0.0000000E+000	0.0000000E+000	-5.8754	0.0000000E+000	0.0000000E+000	0.0000000E+000	5.8754	9.7176	84.1246	1.22303e-06	-6.47228e-07	-3.60666e-10	-6.46867e-07	0.268052	111139	61.9316	111077
1.00006	42.2106	4.14717	42.4138	-5.61127	19.5288	0.268204	-0.00205153	38374.3	366.885	1	12	0.00463289	0.000109231	0	-1.69522e-05	-0.000156005	1.52531e-06	-12.4608	0.0139641	0.0136351	0.00301304	-5.61352	42.4277	42.2242	4.15018	0.0234643	0.00230535	0.0235772	5.61127	366885	3.73421e+06	3.75219e+06	-84.3887	0.0000000E+000	0.0000000E+000	0.0000000E+000	84.3887	0.0000000E+000	0.0000000E+000	0.0000000E+000	-84.3887	0.0000000E+000	0.0000000E+000	0.0000000E+000	-5.61127	0.0000000E+000	0.0000000E+000	0.0000000E+000	5.61127	10.1782	84.3887	-1.0998e-06	-5.50227e-07	3.20049e-10	-5.50548e-07	0.26836	130733	76.0434	130809
0.681362	43.0416	4.14887	43.2411	-5.50585	22.6409	0.268204	-0.0017093	56300.4	518.296	1	12	0.00463282	0.000107139	0	-2.14565e-05	9.21806e-05	1.58216e-06	-46.3887	0.0147673	0.0101859	0.0106921	-5.51865	43.2523	43.0518	4.15957	0.0230194	0.00221889	0.0231261	5.50585	518296	5.37696e+06	5.40188e+06	-84.4941	0.0000000E+000	0.0000000E+000	0.0000000E+000	84.4941	0.0000000E+000	0.0000000E+000	0.0000000E+000	-84.4941	0.0000000E+000	0.0000000E+000	0.0000000E+000	-5.50585	0.0000000E+000	0.0000000E+000	0.0000000E+000	5.50585	10.3743	84.4941	-4.50435e-06	-4.5844e-07	-1.57564e-10	-4.58282e-07	0.268112	156909	53.929	156855
0.464091	43.9214	4.1908	44.1209	-5.45042	27.1975	0.268209	-0.00151803	81831.6	738.288	1	12	0.004634	0.00010503	0	-3.02153e-05	5.39982e-05	2.82281e-06	-43.2535	0.0268763	0.0195748	0.0184164	-5.47181	44.1421	43.941	4.20921	0.0225625	0.00215282	0.022665	5.45042	738288	7.73758e+06	7.77272e+06	-84.5496	0.0000000E+000	0.0000000E+000	0.0000000E+000	84.5496	0.0000000E+000	0.0000000E+000	0.0000000E+000	-84.5496	0.0000000E+000	0.0000000E+000	0.0000000E+000	-5.45042	0.0000000E+000	0.0000000E+000	0.0000000E+000	5.45042	10.4804	84.5496	-8.75884e-06	-4.0715e-07	-8.1971e-11	-4.07068e-07	0.268155	176682	35.5712	176647
0.316193	44.8743	4.27624	45.0776	-5.44349	33.872	0.268216	-0.00142761	117708	1059.27	1	12	0.0046313	0.000102741	0	-4.08138e-05	-6.05491e-05	2.09207e-06	-3.88327	0.0203627	0.0203159	0.00137904	-5.44278	45.0979	44.8946	4.27762	0.0220839	0.00210446	0.022184	5.44349	1.05927e+06	1.11159e+07	1.11662e+07	-84.5565	0.0000000E+000	0.0000000E+000	0.0000000E+000	84.5565	0.0000000E+000	0.0000000E+000	0.0000000E+000	-84.5565	0.0000000E+000	0.0000000E+000	0.0000000E+000	-5.44349	0.0000000E+000	0.0000000E+000	0.0000000E+000	5.44349	10.4939	84.5565	-1.05985e-05	-3.82907e-07	8.64404e-11	-3.82994e-07	0.268276	187878	42.4129	187920
0.215268	45.8533	4.54251	46.0778	-5.65761	43.6654	0.268204	-0.00177538	162759	1581.81	1	12	0.00463537	0.000100599	0	-4.87462e-05	-2.23667e-05	1.90929e-06	-45.4152	0.0189792	0.0133228	0.0135173	-5.6727	46.0924	45.8666	4.55603	0.0215967	0.0021395	0.0217024	5.65761	1.58181e+06	1.59672e+07	1.60454e+07	-84.3424	0.0000000E+000	0.0000000E+000	0.0000000E+000	84.3424	0.0000000E+000	0.0000000E+000	0.0000000E+000	-84.3424	0.0000000E+000	0.0000000E+000	0.0000000E+000	-5.65761	0.0000000E+000	0.0000000E+000	0.0000000E+000	5.65761	10.0943	84.3424	-7.93235e-06	-4.76165e-07	3.97094e-11	-4.76204e-07	0.268226	151068	12.5982	151080
0.146929	46.7491	4.94903	47.0103	-6.04303	58.0037	0.268205	-0.00175791	218874	2425.75	1	12	0.004633	9.85529e-05	0	-4.7507e-05	3.4907e-05	2.4472e-06	6.48971	0.0248314	0.0246723	-0.00280656	-6.03647	47.0346	46.7738	4.94622	0.0211537	0.00223941	0.0212719	6.04303	2.42575e+06	2.29139e+07	2.3042e+07	-83.957	0.0000000E+000	0.0000000E+000	0.0000000E+000	83.957	0.0000000E+000	0.0000000E+000	0.0000000E+000	-83.957	0.0000000E+000	0.0000000E+000	0.0000000E+000	-6.04303	0.0000000E+000	0.0000000E+000	0.0000000E+000	6.04303	9.44612	83.957	1.23914e-06	-4.71481e-07	-6.13635e-11	-4.7142e-07	0.26817	152570	19.8571	152550
0.0999041	47.6339	5.48799	47.949	-6.57218	79.0798	0.268212	-0.00129035	290284	3802.69	1	12	0.00463651	9.66967e-05	0	-3.1304e-05	0.000130363	1.67836e-06	26.1152	0.0173569	0.015585	-0.00764012	-6.56098	47.9636	47.6495	5.48035	0.0207184	0.00238701	0.0208555	6.57218	3.80269e+06	3.30061e+07	3.32244e+07	-83.4278	0.0000000E+000	0.0000000E+000	0.0000000E+000	83.4278	0.0000000E+000	0.0000000E+000	0.0000000E+000	-83.4278	0.0000000E+000	0.0000000E+000	0.0000000E+000	-6.57218	0.0000000E+000	0.0000000E+000	0.0000000E+000	6.57218	8.67966	83.4278	1.62031e-05	-3.46087e-07	-1.68214e-10	-3.45919e-07	0.268082	207860	101.029	207759
0.0680626	48.5857	6.25669	48.9869	-7.33796	110.006	0.268208	-0.000818189	373738	6096.72	1	12	0.00463103	9.45361e-05	0	-1.65199e-06	1.58158e-05	2.39733e-06	6.06952	0.0253588	0.0252167	-0.00268132	-7.33108	49.0116	48.6109	6.25401	0.0202464	0.00260726	0.0204136	7.33796	6.09672e+06	4.73435e+07	4.77344e+07	-82.662	0.0000000E+000	0.0000000E+000	0.0000000E+000	82.662	0.0000000E+000	0.0000000E+000	0.0000000E+000	-82.662	0.0000000E+000	0.0000000E+000	0.0000000E+000	-7.33796	0.0000000E+000	0.0000000E+000	0.0000000E+000	7.33796	7.7654	82.662	2.9652e-05	-2.19444e-07	-1.29403e-11	-2.19432e-07	0.268192	327807	19.3302	327787
0.0464052	49.7952	7.35046	50.3347	-8.39701	155.358	0.268211	0.000319724	466594	9950.21	1	12	0.00463187	9.20213e-05	0	3.8157e-05	7.30894e-05	1.39536e-06	-13.3441	0.0151634	0.014754	0.0034997	-8.3985	50.3499	49.8099	7.35396	0.019654	0.00290121	0.019867	8.39701	9.9502e+06	6.7407e+07	6.81374e+07	-81.603	0.0000000E+000	0.0000000E+000	0.0000000E+000	81.603	0.0000000E+000	0.0000000E+000	0.0000000E+000	-81.603	0.0000000E+000	0.0000000E+000	0.0000000E+000	-8.39701	0.0000000E+000	0.0000000E+000	0.0000000E+000	8.39701	6.77443	81.603	3.9809e-05	8.57535e-08	2.33684e-11	8.57302e-08	0.268138	838885	228.602	838656
0.0315922	51.1852	9.16438	51.9991	-10.1509	221.963	0.268209	0.00119562	549714	17074.6	1	12	0.00463526	8.91412e-05	0	6.29698e-05	5.39982e-05	1.27998e-06	2.26367	0.014359	0.0143478	-0.000567154	-10.1475	52.0131	51.1995	9.16382	0.0189301	0.00338931	0.0192311	10.1509	1.70746e+07	9.53658e+07	9.68823e+07	-79.8491	0.0000000E+000	0.0000000E+000	0.0000000E+000	79.8491	0.0000000E+000	0.0000000E+000	0.0000000E+000	-79.8491	0.0000000E+000	0.0000000E+000	0.0000000E+000	-10.1509	0.0000000E+000	0.0000000E+000	0.0000000E+000	10.1509	5.58523	79.8491	2.48128e-05	3.20676e-07	6.45611e-11	3.20611e-07	0.268155	224327	45.1635	224282
0.0215268	52.6118	11.564	53.8677	-12.3964	319.702	0.268213	0.00165211	639341	29464	1	12	0.00463051	8.59607e-05	0	4.03476e-05	0.000168545	2.26915e-06	-21.9045	0.0263975	0.0244918	0.00984787	-12.401	53.8938	52.6363	11.5739	0.0181312	0.00398521	0.018564	12.3964	2.9464e+07	1.3405e+08	1.3725e+08	-77.6036	0.0000000E+000	0.0000000E+000	0.0000000E+000	77.6036	0.0000000E+000	0.0000000E+000	0.0000000E+000	-77.6036	0.0000000E+000	0.0000000E+000	0.0000000E+000	-12.3964	0.0000000E+000	0.0000000E+000	0.0000000E+000	12.3964	4.54962	77.6036	-2.26222e-05	4.43119e-07	2.78456e-10	4.4284e-07	0.268045	162345	102.018	162243
0.0146812	54.4536	14.4413	56.336	-14.8531	463.004	0.268213	0.00158879	750679	49327.8	1	12	0.00463712	8.23118e-05	0	-4.99605e-05	-3.27544e-06	2.18231e-06	-12.0146	0.0265127	0.025932	0.00551891	-14.8517	56.3625	54.4796	14.4468	0.0171575	0.00455022	0.0177506	14.8531	4.93278e+07	1.86e+08	1.9243e+08	-75.1469	0.0000000E+000	0.0000000E+000	0.0000000E+000	75.1469	0.0000000E+000	0.0000000E+000	0.0000000E+000	-75.1469	0.0000000E+000	0.0000000E+000	0.0000000E+000	-14.8531	0.0000000E+000	0.0000000E+000	0.0000000E+000	14.8531	3.7707	75.1469	-9.03081e-05	4.26135e-07	-5.20399e-12	4.2614e-07	0.268216	168816	2.06159	168818
0.0100092	56.9894	18.1604	59.813	-17.6751	673.186	0.268206	0.00116628	875583	80715.3	1	12	0.00463065	7.74188e-05	0	-0.00018121	-2.23667e-05	1.36861e-06	-98.0747	0.017678	-0.00248314	0.0175028	-17.6918	59.8159	56.9869	18.1779	0.0159295	0.00507614	0.0167188	17.6751	8.07153e+07	2.53294e+08	2.65844e+08	-72.3249	0.0000000E+000	0.0000000E+000	0.0000000E+000	72.3249	0.0000000E+000	0.0000000E+000	0.0000000E+000	-72.3249	0.0000000E+000	0.0000000E+000	0.0000000E+000	-17.6751	0.0000000E+000	0.0000000E+000	0.0000000E+000	17.6751	3.13812	72.3249	-0.00013125	3.12802e-07	-2.60857e-11	3.12828e-07	0.268228	229968	19.1779	229987