File: txt/18732_R302_UA700_SOC00_C02.mpt
EC-Lab ASCII FILE
Nb header lines : 65

Potentio Electrochemical Impedance Spectroscopy

Run on channel : 2 (SN 66139)
User :
CE vs. WE compliance from -10 V to 10 V
Electrode connection : standard
Potential control : Ewe
Ewe ctrl range : min = -10.00 V, max = 10.00 V
Safety Limits :
	Do not start on E overload
Acquisition started on : 10/31/2025 11:54:15.981
Technique started on : 10/31/2025 11:54:18.036
Loaded Setting File :  C:\Users\Celltest\OneDrive - store-dot.com\Documents\EC-Lab\Data\@Biologic Test Protocols\anode half cell EIS SOC00.mps
Saved on :
	File : 18732_R302_UA700_SOC00_C02.mpr
	Directory : C:\Users\Celltest\OneDrive - store-dot.com\Documents\EC-Lab\Data\Charmaine\
	Host : 169.254.61.224
Device : VMP-3e (SN .003165)
Address : USB
EC-LAB for windows v11.62 (software)
Internet server v27.00 (firmware)
Command interpretor v12.03 (firmware)
Electrode material :
Initial state :
Electrolyte :
Comments :
Electrode surface area : 0.001 cm²
Characteristic mass : 0.001 g
Equivalent Weight : 0.000 g/eq.
Density : 0.000 g/cm3
Volume (V) : 0.001 cm³
Record Ece
Cycle Definition : Charge/Discharge alternance
Mode                Single sine
E (V)               0.0000
vs.                 Eoc
tE (h:m:s)          0:00:0.0000
record              0
dI                  0.000
unit dI             mA
dt (s)              0.000
fi                  100.000
unit fi             kHz
ff                  10.000
unit ff             mHz
Nd                  6
Points              per decade
spacing             Logarithmic
Va (mV)             5.0
pw                  0.10
Na                  2
corr                0
E range min (V)     -10.000
E range max (V)     10.000
I Range             Auto
Bandwidth           5
nc cycles           0
goto Ns'            0
nr cycles           0
inc. cycle          0

freq/Hz	Re(Z)/Ohm	-Im(Z)/Ohm	|Z|/Ohm	Phase(Z)/deg	time/s	<Ewe>/V	<I>/mA	Cs/µF	Cp/µF	cycle number	I Range	|Ewe|/V	|I|/A	Ns	(Q-Qo)/mA.h	<Ece>/V	|Ece|/V	Phase(Zce)/deg	|Zce|/Ohm	Re(Zce)/Ohm	-Im(Zce)/Ohm	Phase(Zwe-ce)/deg	|Zwe-ce|/Ohm	Re(Zwe-ce)/Ohm	-Im(Zwe-ce)/Ohm	Re(Y)/Ohm-1	Im(Y)/Ohm-1	|Y|/Ohm-1	Phase(Y)/deg	Re(C)/nF	Im(C)/nF	|C|/nF	Phase(C)/deg	Re(M)	Im(M)	|M|	Phase(M)/deg	Re(Permittivity)	Im(Permittivity)	|Permittivity|	Phase(Permittivity)/deg	Re(Resistivity)/Ohm.cm	Im(Resistivity)/Ohm.cm	|Resistivity|/Ohm.cm	Phase(Resistivity)/deg	Re(Conductivity)/mS/cm	Im(Conductivity)/mS/cm	|Conductivity|/mS/cm	Phase(Conductivity)/deg	Tan(Delta)	Loss Angle(Delta)/deg	dq/mA.h	Pwe/W	Pce/W	Pwe-ce/W	<Ewe-Ece>/V	Rwe/Ohm	Rce/Ohm	Rwe-ce/Ohm		Ewe-Ece/V
100004	1.6258	0.706924	1.77285	-23.5001	2.05455	0.264329	0.032667	2.25129	0.35796	1	9	0.00493157	0.00278173	0	4.42106e-07	0.000114888	2.58774e-05	41.5746	0.00930263	0.00695922	-0.00617318	-23.2281	1.77679	1.63276	0.700751	0.517281	0.224921	0.564065	23.5001	357.96	823.248	897.704	-66.4999	0.0000000E+000	0.0000000E+000	0.0000000E+000	66.4999	0.0000000E+000	0.0000000E+000	0.0000000E+000	-66.4999	0.0000000E+000	0.0000000E+000	0.0000000E+000	-23.5001	0.0000000E+000	0.0000000E+000	0.0000000E+000	23.5001	2.29983	66.4999	4.42106e-07	8.63483e-06	3.75303e-09	8.63108e-06	0.264214	8091.64	3.51693	8088.12
68132	1.80947	0.828679	1.9902	-24.6063	2.43753	0.264307	0.0197054	2.81892	0.488723	1	9	0.0054399	0.00273334	0	7.4987e-06	0.000248523	2.27101e-05	16.045	0.00830853	0.00798487	-0.00229641	-24.4509	1.99651	1.81745	0.826383	0.456834	0.209216	0.502463	24.6063	488.723	1067.15	1173.74	-65.3937	0.0000000E+000	0.0000000E+000	0.0000000E+000	65.3937	0.0000000E+000	0.0000000E+000	0.0000000E+000	-65.3937	0.0000000E+000	0.0000000E+000	0.0000000E+000	-24.6063	0.0000000E+000	0.0000000E+000	0.0000000E+000	24.6063	2.18356	65.3937	7.05659e-06	5.20828e-06	4.89725e-09	5.20338e-06	0.264059	13413	12.612	13400.3
46420.4	2.0304	0.928589	2.23266	-24.5767	2.82052	0.264304	0.0171354	3.69223	0.638687	1	9	0.00547211	0.00245093	0	1.84782e-06	-0.000114203	1.45127e-05	-4.28359	0.00592131	0.00590477	0.000442281	-24.5241	2.23822	2.0363	0.929031	0.407319	0.186284	0.447895	24.5767	638.687	1396.52	1535.64	-65.4233	0.0000000E+000	0.0000000E+000	0.0000000E+000	65.4233	0.0000000E+000	0.0000000E+000	0.0000000E+000	-65.4233	0.0000000E+000	0.0000000E+000	0.0000000E+000	-24.5767	0.0000000E+000	0.0000000E+000	0.0000000E+000	24.5767	2.18654	65.4233	-5.65087e-06	4.52896e-06	-1.95691e-09	4.53091e-06	0.264418	15424.4	6.66471	15431.1
31621.1	2.26723	1.042	2.49522	-24.6832	3.20555	0.264303	0.0177313	4.8303	0.842354	1	9	0.00545503	0.00218619	0	8.36364e-06	-0.000114203	1.83627e-05	-29.7873	0.00839941	0.00728965	0.00417267	-24.7003	2.50358	2.27452	1.04618	0.364149	0.16736	0.400767	24.6832	842.354	1832.83	2017.13	-65.3168	0.0000000E+000	0.0000000E+000	0.0000000E+000	65.3168	0.0000000E+000	0.0000000E+000	0.0000000E+000	-65.3168	0.0000000E+000	0.0000000E+000	0.0000000E+000	-24.6832	0.0000000E+000	0.0000000E+000	0.0000000E+000	24.6832	2.17584	65.3168	6.51582e-06	4.68643e-06	-2.02496e-09	4.68846e-06	0.264417	14906	6.44072	14912.4
21544.7	2.52095	1.13827	2.76602	-24.3003	3.58856	0.264299	0.0141557	6.48986	1.09904	1	9	0.005429	0.00196275	0	3.73974e-06	0.000133978	4.46576e-06	127.481	0.00227526	-0.0013845	-0.00180554	-24.2779	2.76402	2.51957	1.13646	0.329499	0.148776	0.36153	24.3003	1099.04	2434.08	2670.7	-65.6998	0.0000000E+000	0.0000000E+000	0.0000000E+000	65.6998	0.0000000E+000	0.0000000E+000	0.0000000E+000	-65.6998	0.0000000E+000	0.0000000E+000	0.0000000E+000	-24.3003	0.0000000E+000	0.0000000E+000	0.0000000E+000	24.3003	2.21473	65.6998	-4.6239e-06	3.74134e-06	1.89656e-09	3.73944e-06	0.264165	18670.8	9.46462	18661.4
14678.6	2.77424	1.24593	3.04117	-24.1851	3.97351	0.264305	0.0188114	8.70248	1.46065	1	9	0.00537773	0.00176831	0	4.86353e-06	0.000191251	7.06826e-06	-85.6677	0.00399719	0.000301949	0.00398577	-24.2513	3.04308	2.77454	1.24991	0.299959	0.134713	0.328821	24.1851	1460.65	3252.35	3565.29	-65.8149	0.0000000E+000	0.0000000E+000	0.0000000E+000	65.8149	0.0000000E+000	0.0000000E+000	0.0000000E+000	-65.8149	0.0000000E+000	0.0000000E+000	0.0000000E+000	-24.1851	0.0000000E+000	0.0000000E+000	0.0000000E+000	24.1851	2.22665	65.8149	1.12379e-06	4.97196e-06	3.59771e-09	4.96836e-06	0.264114	14050.2	10.1667	14040.1
10002.2	3.07799	1.38678	3.37597	-24.2538	4.35655	0.2643	0.0234672	11.474	1.93612	1	9	0.00535623	0.00158657	0	9.0571e-06	0.000114888	9.56581e-06	51.7955	0.00602923	0.0037289	-0.00473782	-24.1545	3.37743	3.08172	1.38204	0.270066	0.121677	0.296211	24.2538	1936.12	4297.27	4713.29	-65.7462	0.0000000E+000	0.0000000E+000	0.0000000E+000	65.7462	0.0000000E+000	0.0000000E+000	0.0000000E+000	-65.7462	0.0000000E+000	0.0000000E+000	0.0000000E+000	-24.2538	0.0000000E+000	0.0000000E+000	0.0000000E+000	24.2538	2.21953	65.7462	4.19358e-06	6.20237e-06	2.69609e-09	6.19968e-06	0.264185	11262.5	4.89567	11257.6
6810.42	3.3698	1.54395	3.70666	-24.616	4.74157	0.2643	0.011772	15.1361	2.62612	1	9	0.00523201	0.00141152	0	6.5333e-06	-1.87484e-05	2.17237e-05	4.8528	0.0153903	0.0153351	-0.00130196	-24.4993	3.72006	3.38513	1.54265	0.245267	0.112375	0.269785	24.616	2626.12	5731.72	6304.69	-65.384	0.0000000E+000	0.0000000E+000	0.0000000E+000	65.384	0.0000000E+000	0.0000000E+000	0.0000000E+000	-65.384	0.0000000E+000	0.0000000E+000	0.0000000E+000	-24.616	0.0000000E+000	0.0000000E+000	0.0000000E+000	24.616	2.18258	65.384	-2.5238e-06	3.11133e-06	-2.20705e-10	3.11155e-06	0.264319	22451.6	1.59263	22453.2
4646	3.69513	1.7424	4.08533	-25.2458	5.2916	0.264285	-0.00938357	19.6604	3.5763	1	10	0.00476746	0.00116697	0	6.8556e-06	3.85242e-05	7.05753e-06	48.8045	0.00604774	0.00398323	-0.00455073	-25.1642	4.087	3.69911	1.73785	0.221398	0.104398	0.244778	25.2458	3576.3	7584.3	8385.2	-64.7542	0.0000000E+000	0.0000000E+000	0.0000000E+000	64.7542	0.0000000E+000	0.0000000E+000	0.0000000E+000	-64.7542	0.0000000E+000	0.0000000E+000	0.0000000E+000	-25.2458	0.0000000E+000	0.0000000E+000	0.0000000E+000	25.2458	2.12071	64.7542	3.22302e-07	-2.47994e-06	-3.61494e-10	-2.47958e-06	0.264247	28164.7	4.10549	28160.6
3163.08	4.03235	1.98878	4.49612	-26.2528	5.66461	0.264265	-0.0114883	25.3002	4.95017	1	10	0.00509455	0.0011331	0	5.08488e-06	0.000382159	1.03261e-05	-7.37871	0.00911317	0.0090377	0.00117038	-26.2153	4.50475	4.04139	1.98995	0.199472	0.0983808	0.222414	26.2528	4950.17	10036.7	11191.1	-63.7472	0.0000000E+000	0.0000000E+000	0.0000000E+000	63.7472	0.0000000E+000	0.0000000E+000	0.0000000E+000	-63.7472	0.0000000E+000	0.0000000E+000	0.0000000E+000	-26.2528	0.0000000E+000	0.0000000E+000	0.0000000E+000	26.2528	2.02755	63.7472	-1.77072e-06	-3.03596e-06	-4.39037e-09	-3.03157e-06	0.263883	23002.9	33.265	22969.7
2155.69	4.39751	2.33851	4.98064	-28.0032	6.11683	0.264261	-0.0110785	31.5714	6.95991	1	10	0.00508563	0.00102108	0	4.10312e-06	0.000229433	5.79673e-06	70.2641	0.00567705	0.00191706	-0.00534358	-27.9385	4.97982	4.39943	2.33317	0.177271	0.0942692	0.200778	28.0032	6959.91	13087.9	14823.4	-61.9968	0.0000000E+000	0.0000000E+000	0.0000000E+000	61.9968	0.0000000E+000	0.0000000E+000	0.0000000E+000	-61.9968	0.0000000E+000	0.0000000E+000	0.0000000E+000	-28.0032	0.0000000E+000	0.0000000E+000	0.0000000E+000	28.0032	1.88048	61.9968	-9.81763e-07	-2.92763e-06	-2.54178e-09	-2.92509e-06	0.264032	23853.5	20.7096	23832.7
1468.59	4.81414	2.82074	5.57965	-30.3672	6.56807	0.264271	-0.0101621	38.42	9.81902	1	10	0.00499045	0.000894403	0	2.07637e-06	7.67059e-05	7.29223e-06	-52.9941	0.00815319	0.00490738	0.00651092	-30.3994	5.58718	4.81905	2.82725	0.154634	0.0906042	0.179223	30.3672	9819.02	16758.1	19422.8	-59.6328	0.0000000E+000	0.0000000E+000	0.0000000E+000	59.6328	0.0000000E+000	0.0000000E+000	0.0000000E+000	-59.6328	0.0000000E+000	0.0000000E+000	0.0000000E+000	-30.3672	0.0000000E+000	0.0000000E+000	0.0000000E+000	30.3672	1.7067	59.6328	-2.02674e-06	-2.68556e-06	-7.79496e-10	-2.68478e-06	0.264194	26005.4	7.54819	25997.9
1000.32	5.30088	3.48502	6.34387	-33.3226	7.01882	0.26426	-0.0113319	45.6537	13.7777	1	10	0.00489406	0.000771464	0	7.32636e-07	0.000191251	3.57794e-06	60.2823	0.00463786	0.00229911	-0.00402788	-33.2808	6.34358	5.30318	3.48099	0.131716	0.0865958	0.157633	33.3226	13777.7	20956.6	25080	-56.6774	0.0000000E+000	0.0000000E+000	0.0000000E+000	56.6774	0.0000000E+000	0.0000000E+000	0.0000000E+000	-56.6774	0.0000000E+000	0.0000000E+000	0.0000000E+000	-33.3226	0.0000000E+000	0.0000000E+000	0.0000000E+000	33.3226	1.52105	56.6774	-1.34374e-06	-2.99456e-06	-2.16723e-09	-2.99239e-06	0.264069	23320	16.8773	23303.2
681.09	5.90775	4.38345	7.35637	-36.5748	7.46757	0.264267	-0.010557	53.3089	18.928	1	10	0.00481942	0.000655135	0	-1.09939e-06	-7.60209e-05	4.63457e-06	-44.9164	0.00707421	0.00500952	0.00499492	-36.5828	7.36337	5.91276	4.38844	0.109168	0.0810008	0.135937	36.5748	18928	25510	31765.3	-53.4252	0.0000000E+000	0.0000000E+000	0.0000000E+000	53.4252	0.0000000E+000	0.0000000E+000	0.0000000E+000	-53.4252	0.0000000E+000	0.0000000E+000	0.0000000E+000	-36.5748	0.0000000E+000	0.0000000E+000	0.0000000E+000	36.5748	1.34774	53.4252	-1.83203e-06	-2.78988e-06	8.02555e-10	-2.79068e-06	0.264343	25032.4	7.20097	25039.6
463.961	6.67123	5.58158	8.69824	-39.918	7.91936	0.264267	-0.00998707	61.4585	25.3066	1	10	0.00475195	0.000546312	0	-2.33025e-06	3.42479e-07	5.5582e-06	51.8477	0.010174	0.00628505	-0.00800057	-39.851	8.69793	6.67751	5.57358	0.0881746	0.0737725	0.114966	39.918	25306.6	30247	39437.4	-50.082	0.0000000E+000	0.0000000E+000	0.0000000E+000	50.082	0.0000000E+000	0.0000000E+000	0.0000000E+000	-50.082	0.0000000E+000	0.0000000E+000	0.0000000E+000	-39.918	0.0000000E+000	0.0000000E+000	0.0000000E+000	39.918	1.19522	50.082	-1.23086e-06	-2.63925e-06	-3.42037e-12	-2.63925e-06	0.264266	26460.9	0.0342923	26460.8
316.316	7.75979	7.20176	10.5868	-42.864	8.36704	0.264262	-0.0103931	69.8651	32.3304	1	10	0.00471636	0.000445495	0	-3.41832e-06	1.94333e-05	9.62901e-06	120.926	0.0216142	-0.011108	-0.0185414	-42.8313	10.566	7.74869	7.18322	0.0692346	0.0642557	0.0944575	42.864	32330.4	34835.5	47526.5	-47.136	0.0000000E+000	0.0000000E+000	0.0000000E+000	47.136	0.0000000E+000	0.0000000E+000	0.0000000E+000	-47.136	0.0000000E+000	0.0000000E+000	0.0000000E+000	-42.864	0.0000000E+000	0.0000000E+000	0.0000000E+000	42.864	1.07749	47.136	-1.08806e-06	-2.74651e-06	-2.01973e-10	-2.74631e-06	0.264243	25426.7	1.86983	25424.8
215.345	9.3509	9.20396	13.1207	-44.5463	8.81752	0.264264	-0.0107694	80.2992	39.5138	1	10	0.00469071	0.000357505	0	-4.28618e-06	0.000343978	2.30895e-06	40.6247	0.0064585	0.00490194	-0.00420514	-44.5182	13.1212	9.3558	9.19976	0.0543176	0.0534641	0.0762156	44.5463	39513.8	40144.6	56328.7	-45.4537	0.0000000E+000	0.0000000E+000	0.0000000E+000	45.4537	0.0000000E+000	0.0000000E+000	0.0000000E+000	-45.4537	0.0000000E+000	0.0000000E+000	0.0000000E+000	-44.5463	0.0000000E+000	0.0000000E+000	0.0000000E+000	44.5463	1.01596	45.4537	-8.67868e-07	-2.84596e-06	-3.70442e-09	-2.84226e-06	0.26392	24538.5	31.9404	24506.6
146.737	11.7793	11.6238	16.5489	-44.6194	9.26247	0.264259	-0.0107172	93.3105	46.0355	1	10	0.00470245	0.000284156	0	-5.16786e-06	0.000343978	2.01525e-05	109.141	0.0709208	-0.023255	-0.0669997	-44.5104	16.4853	11.756	11.5568	0.0430113	0.0424437	0.0604272	44.6194	46035.5	46651.1	65540.8	-45.3806	0.0000000E+000	0.0000000E+000	0.0000000E+000	45.3806	0.0000000E+000	0.0000000E+000	0.0000000E+000	-45.3806	0.0000000E+000	0.0000000E+000	0.0000000E+000	-44.6194	0.0000000E+000	0.0000000E+000	0.0000000E+000	44.6194	1.01337	45.3806	-8.81676e-07	-2.83212e-06	-3.68649e-09	-2.82843e-06	0.263915	24657.4	32.0958	24625.3
100.032	15.0466	14.1507	20.6553	-43.2424	9.71384	0.264259	-0.00997963	112.436	52.771	1	10	0.00466904	0.000226046	0	-6.69121e-06	9.57967e-05	1.30672e-05	-3.02005	0.057808	0.0577277	0.00304564	-43.1391	20.6995	15.1043	14.1537	0.0352676	0.0331676	0.0484137	43.2424	52771	56112.1	77028.2	-46.7576	0.0000000E+000	0.0000000E+000	0.0000000E+000	46.7576	0.0000000E+000	0.0000000E+000	0.0000000E+000	-46.7576	0.0000000E+000	0.0000000E+000	0.0000000E+000	-43.2424	0.0000000E+000	0.0000000E+000	0.0000000E+000	43.2424	1.06331	46.7576	-1.52335e-06	-2.63721e-06	-9.56016e-10	-2.63626e-06	0.264164	26479.9	9.59922	26470.3
68.104	19.6166	16.2233	25.456	-39.5914	10.4274	0.264281	-0.00729705	144.048	58.5068	1	11	0.00467657	0.000183712	0	-8.34937e-06	0.000324887	7.25087e-06	74.8691	0.0394688	0.0103023	-0.0381005	-39.5105	25.4397	19.6269	16.1852	0.0302722	0.0250357	0.0392834	39.5914	58506.8	70744.3	91803.1	-50.4086	0.0000000E+000	0.0000000E+000	0.0000000E+000	50.4086	0.0000000E+000	0.0000000E+000	0.0000000E+000	-50.4086	0.0000000E+000	0.0000000E+000	0.0000000E+000	-39.5914	0.0000000E+000	0.0000000E+000	0.0000000E+000	39.5914	1.20916	50.4086	-1.65817e-06	-1.92847e-06	-2.37072e-09	-1.9261e-06	0.263956	36217.4	44.523	36172.9
46.4415	25.0666	17.4093	30.5192	-34.7807	10.8637	0.264275	-0.00759757	196.849	64.0544	1	11	0.00467221	0.000153091	0	-9.23103e-06	-0.000228748	8.43729e-06	-42.3938	0.0551129	0.0407024	0.0371584	-34.7944	30.5738	25.1073	17.4464	0.0269123	0.0186911	0.0327663	34.7807	64054.4	92228.3	112290	-55.2193	0.0000000E+000	0.0000000E+000	0.0000000E+000	55.2193	0.0000000E+000	0.0000000E+000	0.0000000E+000	-55.2193	0.0000000E+000	0.0000000E+000	0.0000000E+000	-34.7807	0.0000000E+000	0.0000000E+000	0.0000000E+000	34.7807	1.43984	55.2193	-8.81657e-07	-2.00785e-06	1.73793e-09	-2.00958e-06	0.264504	34784.1	30.108	34814.2
31.6296	30.7338	17.2279	35.233	-29.273	11.2926	0.264278	-0.0076233	292.075	69.8329	1	11	0.00466505	0.000132406	0	-9.97138e-06	3.42479e-07	3.35924e-06	-34.3993	0.0253708	0.020934	0.0143334	-29.2766	35.2583	30.7547	17.2422	0.024758	0.0138782	0.0283825	29.273	69832.9	124579	142816	-60.727	0.0000000E+000	0.0000000E+000	0.0000000E+000	60.727	0.0000000E+000	0.0000000E+000	0.0000000E+000	-60.727	0.0000000E+000	0.0000000E+000	0.0000000E+000	-29.273	0.0000000E+000	0.0000000E+000	0.0000000E+000	29.273	1.78395	60.727	-7.40353e-07	-2.01467e-06	-2.61082e-12	-2.01467e-06	0.264278	34667.2	0.0449253	34667.1
21.5517	35.9795	15.8062	39.2983	-23.7165	11.7144	0.264271	-0.00773926	467.208	75.5819	1	11	0.00466511	0.00011871	0	-1.08919e-05	-9.51117e-05	3.80999e-06	-85.9161	0.0320949	0.00228573	0.0320134	-23.7578	39.3133	35.9817	15.8382	0.0232974	0.0102348	0.0254464	23.7165	75581.9	172046	187916	-66.2835	0.0000000E+000	0.0000000E+000	0.0000000E+000	66.2835	0.0000000E+000	0.0000000E+000	0.0000000E+000	-66.2835	0.0000000E+000	0.0000000E+000	0.0000000E+000	-23.7165	0.0000000E+000	0.0000000E+000	0.0000000E+000	23.7165	2.27629	66.2835	-9.20532e-07	-2.04526e-06	7.36094e-10	-2.04599e-06	0.264366	34146.8	12.2895	34159.1
14.6852	40.2134	13.8071	42.5177	-18.9497	12.1742	0.264274	-0.00711175	784.944	82.7763	1	11	0.00466809	0.000109792	0	-1.2084e-05	0.000153069	6.98827e-06	-23.51	0.0636502	0.0583666	0.0253906	-18.9565	42.5811	40.2717	13.8325	0.022245	0.00763773	0.0235196	18.9497	82776.3	241087	254901	-71.0503	0.0000000E+000	0.0000000E+000	0.0000000E+000	71.0503	0.0000000E+000	0.0000000E+000	0.0000000E+000	-71.0503	0.0000000E+000	0.0000000E+000	0.0000000E+000	-18.9497	0.0000000E+000	0.0000000E+000	0.0000000E+000	18.9497	2.91251	71.0503	-1.19213e-06	-1.87945e-06	-1.08859e-09	-1.87836e-06	0.264121	37160.2	21.5234	37138.7
10.0032	43.4043	11.6135	44.9311	-14.9795	12.6248	0.264275	-0.0072072	1369.99	91.5271	1	11	0.00466639	0.000103856	0	-1.32799e-05	9.57967e-05	6.83983e-06	-91.4156	0.0658585	-0.001627	0.0658384	-15.0611	44.9466	43.4026	11.6793	0.0215	0.00575266	0.0222563	14.9795	91527.1	342074	354107	-75.0205	0.0000000E+000	0.0000000E+000	0.0000000E+000	75.0205	0.0000000E+000	0.0000000E+000	0.0000000E+000	-75.0205	0.0000000E+000	0.0000000E+000	0.0000000E+000	-14.9795	0.0000000E+000	0.0000000E+000	0.0000000E+000	14.9795	3.7374	75.0205	-1.19587e-06	-1.90469e-06	-6.90426e-10	-1.904e-06	0.26418	36668.3	13.2918	36655
6.81719	45.5852	9.53855	46.5725	-11.8184	12.9645	0.26427	-0.00679221	2447.55	102.669	1	11	0.00464713	9.97827e-05	0	-1.40234e-05	0.000382159	5.36536e-05	-27.9199	0.537704	0.475117	0.251773	-11.9999	47.0893	46.0603	9.79032	0.0210167	0.00439768	0.0214719	11.8184	102669	490659	501286	-78.1816	0.0000000E+000	0.0000000E+000	0.0000000E+000	78.1816	0.0000000E+000	0.0000000E+000	0.0000000E+000	-78.1816	0.0000000E+000	0.0000000E+000	0.0000000E+000	-11.8184	0.0000000E+000	0.0000000E+000	0.0000000E+000	11.8184	4.77905	78.1816	-7.43445e-07	-1.79498e-06	-2.59571e-09	-1.79238e-06	0.263887	38907.7	56.2643	38851.5
4.63925	47.4659	7.96359	48.1293	-9.52409	13.4484	0.264292	-0.00675307	4307.87	117.94	1	11	0.00467103	9.70515e-05	0	-1.38092e-05	0.000343978	8.15367e-06	53.7703	0.0840139	0.0496542	-0.0677702	-9.43482	48.1672	47.5156	7.89582	0.020491	0.00343787	0.0207773	9.52409	117940	702966	712791	-80.4759	0.0000000E+000	0.0000000E+000	0.0000000E+000	80.4759	0.0000000E+000	0.0000000E+000	0.0000000E+000	-80.4759	0.0000000E+000	0.0000000E+000	0.0000000E+000	-9.52409	0.0000000E+000	0.0000000E+000	0.0000000E+000	9.52409	5.96037	80.4759	2.14194e-07	-1.78478e-06	-2.3229e-09	-1.78246e-06	0.263948	39136.6	50.9365	39085.6
3.1604	48.8487	6.72088	49.3089	-7.83389	14.1414	0.264283	-0.00615483	7492.94	139.205	1	11	0.0046639	9.45855e-05	0	-1.49754e-05	0.000496704	4.3279e-06	49.9725	0.0457565	0.0294285	-0.0350374	-7.78892	49.3333	48.8781	6.68584	0.020091	0.00276424	0.0202803	7.83389	139205	1.01177e+06	1.0213e+06	-82.1661	0.0000000E+000	0.0000000E+000	0.0000000E+000	82.1661	0.0000000E+000	0.0000000E+000	0.0000000E+000	-82.1661	0.0000000E+000	0.0000000E+000	0.0000000E+000	-7.83389	0.0000000E+000	0.0000000E+000	0.0000000E+000	7.83389	7.2682	82.1661	-1.16619e-06	-1.62662e-06	-3.05713e-09	-1.62356e-06	0.263786	42939.1	80.7016	42858.4
2.15577	49.937	5.90017	50.2843	-6.73839	15.655	0.264282	-0.00566885	12512.8	172.273	1	12	0.004671	9.28918e-05	0	-1.90777e-05	0.000305796	4.05324e-06	-35.821	0.043634	0.0353806	0.025537	-6.76254	50.3225	49.9724	5.92571	0.0197495	0.00233345	0.0198869	6.73839	172273	1.45806e+06	1.4682e+06	-83.2616	0.0000000E+000	0.0000000E+000	0.0000000E+000	83.2616	0.0000000E+000	0.0000000E+000	0.0000000E+000	-83.2616	0.0000000E+000	0.0000000E+000	0.0000000E+000	-6.73839	0.0000000E+000	0.0000000E+000	0.0000000E+000	6.73839	8.46365	83.2616	-4.10232e-06	-1.49818e-06	-1.73351e-09	-1.49644e-06	0.263976	46620.1	53.9432	46566.1
1.46631	50.9769	5.29849	51.2515	-5.93396	17.1165	0.264282	-0.00572207	20485.3	218.944	1	12	0.00466746	9.10697e-05	0	-2.21948e-05	9.57967e-05	2.17561e-06	61.1189	0.0238895	0.0115385	-0.0209182	-5.90937	51.2609	50.9885	5.27758	0.0194071	0.00201715	0.0195116	5.93396	218944	2.10646e+06	2.11781e+06	-84.066	0.0000000E+000	0.0000000E+000	0.0000000E+000	84.066	0.0000000E+000	0.0000000E+000	0.0000000E+000	-84.066	0.0000000E+000	0.0000000E+000	0.0000000E+000	-5.93396	0.0000000E+000	0.0000000E+000	0.0000000E+000	5.93396	9.62102	84.066	-3.11707e-06	-1.51224e-06	-5.48155e-10	-1.51169e-06	0.264186	46186.4	16.7416	46169.7
1.00006	51.9185	5.08667	52.1671	-5.59564	19.2459	0.264288	-0.00567419	31286.7	297.462	1	12	0.00466656	8.9454e-05	0	-2.41511e-05	9.57967e-05	3.94464e-06	-42.856	0.0440969	0.0323259	0.0299928	-5.62494	52.2022	51.9509	5.11666	0.0190778	0.00186913	0.0191692	5.59564	297462	3.03613e+06	3.05067e+06	-84.4044	0.0000000E+000	0.0000000E+000	0.0000000E+000	84.4044	0.0000000E+000	0.0000000E+000	0.0000000E+000	-84.4044	0.0000000E+000	0.0000000E+000	0.0000000E+000	-5.59564	0.0000000E+000	0.0000000E+000	0.0000000E+000	5.59564	10.2068	84.4044	-1.95634e-06	-1.49962e-06	-5.43569e-10	-1.49908e-06	0.264192	46577.2	16.8829	46560.3
0.681362	52.864	4.92993	53.0934	-5.32781	22.358	0.264286	-0.00546156	47380.7	408.509	1	12	0.0046674	8.79092e-05	0	-2.52277e-05	0.000229433	1.84177e-06	-2.1747	0.0209509	0.0209358	0.000795015	-5.32657	53.1143	52.885	4.93072	0.0187534	0.00174888	0.0188347	5.32781	408509	4.38047e+06	4.39948e+06	-84.6722	0.0000000E+000	0.0000000E+000	0.0000000E+000	84.6722	0.0000000E+000	0.0000000E+000	0.0000000E+000	-84.6722	0.0000000E+000	0.0000000E+000	0.0000000E+000	-5.32781	0.0000000E+000	0.0000000E+000	0.0000000E+000	5.32781	10.7231	84.6722	-1.07657e-06	-1.44341e-06	-1.25306e-09	-1.44216e-06	0.264057	48390.3	42.0087	48348.3
0.464091	53.9114	4.91892	54.1354	-5.21328	26.9144	0.264288	-0.00503838	69718.4	575.605	1	12	0.00466687	8.62074e-05	0	-2.66474e-05	3.42479e-07	3.26138e-06	-7.50189	0.0378318	0.037508	0.00493928	-5.21487	54.1732	53.9489	4.92386	0.0183958	0.00167845	0.0184722	5.21328	575605	6.30864e+06	6.33485e+06	-84.7867	0.0000000E+000	0.0000000E+000	0.0000000E+000	84.7867	0.0000000E+000	0.0000000E+000	0.0000000E+000	-84.7867	0.0000000E+000	0.0000000E+000	0.0000000E+000	-5.21328	0.0000000E+000	0.0000000E+000	0.0000000E+000	5.21328	10.96	84.7867	-1.41972e-06	-1.33159e-06	-1.72554e-12	-1.33158e-06	0.264288	52455	0.067974	52454.9
0.316193	55.089	5.11765	55.3262	-5.30742	33.5889	0.264284	-0.00449461	98355.2	841.542	1	12	0.00467008	8.44098e-05	0	-3.20931e-05	5.7615e-05	2.12957e-06	-17.1697	0.025229	0.0241046	0.00744768	-5.31278	55.3509	55.1131	5.12509	0.0179971	0.00167189	0.0180746	5.30742	841542	9.0588e+06	9.0978e+06	-84.6926	0.0000000E+000	0.0000000E+000	0.0000000E+000	84.6926	0.0000000E+000	0.0000000E+000	0.0000000E+000	-84.6926	0.0000000E+000	0.0000000E+000	0.0000000E+000	-5.30742	0.0000000E+000	0.0000000E+000	0.0000000E+000	5.30742	10.7645	84.6926	-5.44574e-06	-1.18785e-06	-2.58957e-10	-1.1876e-06	0.264227	58800.3	12.8187	58787.5
0.215268	56.2076	5.44878	56.4711	-5.53697	43.3824	0.264283	-0.00382278	135688	1263.25	1	12	0.00466763	8.26551e-05	0	-4.61384e-05	-5.69301e-05	2.84982e-06	4.36088	0.0344784	0.0343786	-0.00262168	-5.53096	56.5051	56.242	5.44616	0.0176256	0.00170863	0.0177082	5.53697	1.26325e+06	1.30312e+07	1.30923e+07	-84.463	0.0000000E+000	0.0000000E+000	0.0000000E+000	84.463	0.0000000E+000	0.0000000E+000	0.0000000E+000	-84.463	0.0000000E+000	0.0000000E+000	0.0000000E+000	-5.53697	0.0000000E+000	0.0000000E+000	0.0000000E+000	5.53697	10.3156	84.463	-1.40453e-05	-1.01029e-06	2.17631e-10	-1.01051e-06	0.264339	69133.7	14.8923	69148.6
0.146929	57.4149	5.89297	57.7165	-5.86022	57.7209	0.264286	-0.00316926	183814	1916.23	1	12	0.00466833	8.08837e-05	0	-7.24347e-05	-0.000305111	1.26179e-06	41.8687	0.0156001	0.011617	-0.0104119	-5.84876	57.727	57.4265	5.88256	0.0172355	0.00176902	0.0173261	5.86022	1.91623e+06	1.86697e+07	1.87678e+07	-84.1398	0.0000000E+000	0.0000000E+000	0.0000000E+000	84.1398	0.0000000E+000	0.0000000E+000	0.0000000E+000	-84.1398	0.0000000E+000	0.0000000E+000	0.0000000E+000	-5.86022	0.0000000E+000	0.0000000E+000	0.0000000E+000	5.86022	9.74295	84.1398	-2.62963e-05	-8.37592e-07	9.66976e-10	-8.38559e-07	0.264591	83390.6	96.2721	83486.9
0.0999041	58.7776	6.51548	59.1376	-6.3254	78.7971	0.264282	-0.00281678	244506	2967.94	1	12	0.00466858	7.89443e-05	0	-0.000111776	0.000133978	1.25515e-06	-96.5432	0.0158992	-0.00181174	0.0157956	-6.3408	59.1376	58.7758	6.53128	0.0168068	0.00186302	0.0169097	6.3254	2.96794e+06	2.67745e+07	2.69385e+07	-83.6746	0.0000000E+000	0.0000000E+000	0.0000000E+000	83.6746	0.0000000E+000	0.0000000E+000	0.0000000E+000	-83.6746	0.0000000E+000	0.0000000E+000	0.0000000E+000	-6.3254	0.0000000E+000	0.0000000E+000	0.0000000E+000	6.3254	9.02122	83.6746	-3.93409e-05	-7.44424e-07	-3.77387e-10	-7.44046e-07	0.264148	93824.3	47.5644	93776.8
0.0680626	60.283	7.48729	60.7462	-7.08002	109.724	0.264282	-0.00253359	312311	4744.59	1	12	0.00467152	7.69024e-05	0	-0.000158594	0.000267614	1.66355e-06	1.66708	0.021632	0.0216228	-0.000629316	-7.07692	60.7675	60.3046	7.48666	0.0163364	0.00202902	0.0164619	7.08002	4.74459e+06	3.82005e+07	3.8494e+07	-82.92	0.0000000E+000	0.0000000E+000	0.0000000E+000	82.92	0.0000000E+000	0.0000000E+000	0.0000000E+000	-82.92	0.0000000E+000	0.0000000E+000	0.0000000E+000	-7.08002	0.0000000E+000	0.0000000E+000	0.0000000E+000	7.08002	8.05137	82.92	-4.68186e-05	-6.69582e-07	-6.78024e-10	-6.68904e-07	0.264015	104312	105.627	104206
0.0464052	62.0022	9.00243	62.6523	-8.26135	155.076	0.264286	-0.00236546	380973	7865.72	1	12	0.0046652	7.44618e-05	0	-0.000199667	0.000191251	1.09734e-06	-32.9114	0.014737	0.0123718	0.0080072	-8.26697	62.6657	62.0146	9.01044	0.0157955	0.00229343	0.0159611	8.26135	7.86573e+06	5.41734e+07	5.47414e+07	-81.7386	0.0000000E+000	0.0000000E+000	0.0000000E+000	81.7386	0.0000000E+000	0.0000000E+000	0.0000000E+000	-81.7386	0.0000000E+000	0.0000000E+000	0.0000000E+000	-8.26135	0.0000000E+000	0.0000000E+000	0.0000000E+000	8.26135	6.88727	81.7386	-4.10727e-05	-6.25159e-07	-4.52397e-10	-6.24707e-07	0.264095	111727	80.8514	111646
0.0315922	63.7099	11.1254	64.674	-9.90544	221.682	0.264291	-0.00205823	452819	13399.7	1	12	0.00466925	7.21966e-05	0	-0.000210165	-0.000171475	1.66791e-06	-15.7642	0.0231023	0.0222334	0.00627642	-9.90753	64.697	63.7322	11.1317	0.0152317	0.00265984	0.0154622	9.90544	1.33997e+07	7.67339e+07	7.78951e+07	-80.0946	0.0000000E+000	0.0000000E+000	0.0000000E+000	80.0946	0.0000000E+000	0.0000000E+000	0.0000000E+000	-80.0946	0.0000000E+000	0.0000000E+000	0.0000000E+000	-9.90544	0.0000000E+000	0.0000000E+000	0.0000000E+000	9.90544	5.72653	80.0946	-1.04978e-05	-5.43972e-07	3.52936e-10	-5.44325e-07	0.264462	128407	83.3119	128490
0.0215268	65.6113	13.725	67.0314	-11.8151	319.419	0.264292	-0.00147809	538678	22583.7	1	12	0.00466912	6.96557e-05	0	-0.000170389	-0.000228748	2.14217e-06	38.04	0.0307537	0.024221	-0.0189508	-11.795	67.0513	65.6355	13.706	0.0146023	0.0030546	0.0149184	11.8151	2.25837e+07	1.0796e+08	1.10297e+08	-78.1849	0.0000000E+000	0.0000000E+000	0.0000000E+000	78.1849	0.0000000E+000	0.0000000E+000	0.0000000E+000	-78.1849	0.0000000E+000	0.0000000E+000	0.0000000E+000	-11.8151	0.0000000E+000	0.0000000E+000	0.0000000E+000	11.8151	4.78043	78.1849	3.97756e-05	-3.90648e-07	3.3811e-10	-3.90986e-07	0.26452	178806	154.759	178961
0.0146812	68.1772	17.0438	70.2753	-14.0359	462.722	0.264293	-0.000825652	636051	37412.9	1	12	0.00466607	6.63969e-05	0	-8.29345e-05	0.000458523	1.12763e-06	-95.3808	0.0169832	-0.00159258	0.0169084	-14.0496	70.2779	68.1756	17.0607	0.0138049	0.00345113	0.0142297	14.0359	3.74129e+07	1.49656e+08	1.54261e+08	-75.9641	0.0000000E+000	0.0000000E+000	0.0000000E+000	75.9641	0.0000000E+000	0.0000000E+000	0.0000000E+000	-75.9641	0.0000000E+000	0.0000000E+000	0.0000000E+000	-14.0359	0.0000000E+000	0.0000000E+000	0.0000000E+000	14.0359	4.00011	75.9641	8.74545e-05	-2.18214e-07	-3.7858e-10	-2.17835e-07	0.263834	320102	555.346	319546
0.0100092	71.5507	21.8516	74.8131	-16.9827	672.904	0.264288	-0.000266115	727677	62079.9	1	12	0.00466925	6.24122e-05	0	1.00043e-06	-0.000343293	1.01875e-06	-8.83114	0.0163229	0.0161294	0.00250594	-16.9809	74.8292	71.5668	21.8541	0.0127838	0.00390417	0.0133667	16.9827	6.20799e+07	2.03274e+08	2.12542e+08	-73.0173	0.0000000E+000	0.0000000E+000	0.0000000E+000	73.0173	0.0000000E+000	0.0000000E+000	0.0000000E+000	-73.0173	0.0000000E+000	0.0000000E+000	0.0000000E+000	-16.9827	0.0000000E+000	0.0000000E+000	0.0000000E+000	16.9827	3.27439	73.0173	8.39349e-05	-7.0331e-08	9.13553e-11	-7.04224e-08	0.264632	993137	1290.02	994427