File: txt/18733_R302_UA700_SOC00_C03.mpt
EC-Lab ASCII FILE
Nb header lines : 65

Potentio Electrochemical Impedance Spectroscopy

Run on channel : 3 (SN 65921)
User :
CE vs. WE compliance from -10 V to 10 V
Electrode connection : standard
Potential control : Ewe
Ewe ctrl range : min = -10.00 V, max = 10.00 V
Safety Limits :
	Do not start on E overload
Acquisition started on : 10/31/2025 11:54:21.647
Technique started on : 10/31/2025 11:54:23.558
Loaded Setting File :  C:\Users\Celltest\OneDrive - store-dot.com\Documents\EC-Lab\Data\@Biologic Test Protocols\anode half cell EIS SOC00.mps
Saved on :
	File : 18733_R302_UA700_SOC00_C03.mpr
	Directory : C:\Users\Celltest\OneDrive - store-dot.com\Documents\EC-Lab\Data\Charmaine\
	Host : 169.254.61.224
Device : VMP-3e (SN .003165)
Address : USB
EC-LAB for windows v11.62 (software)
Internet server v27.00 (firmware)
Command interpretor v12.03 (firmware)
Electrode material :
Initial state :
Electrolyte :
Comments :
Electrode surface area : 0.001 cm²
Characteristic mass : 0.001 g
Equivalent Weight : 0.000 g/eq.
Density : 0.000 g/cm3
Volume (V) : 0.001 cm³
Record Ece
Cycle Definition : Charge/Discharge alternance
Mode                Single sine
E (V)               0.0000
vs.                 Eoc
tE (h:m:s)          0:00:0.0000
record              0
dI                  0.000
unit dI             mA
dt (s)              0.000
fi                  100.000
unit fi             kHz
ff                  10.000
unit ff             mHz
Nd                  6
Points              per decade
spacing             Logarithmic
Va (mV)             5.0
pw                  0.10
Na                  2
corr                0
E range min (V)     -10.000
E range max (V)     10.000
I Range             Auto
Bandwidth           5
nc cycles           0
goto Ns'            0
nr cycles           0
inc. cycle          0

freq/Hz	Re(Z)/Ohm	-Im(Z)/Ohm	|Z|/Ohm	Phase(Z)/deg	time/s	<Ewe>/V	<I>/mA	Cs/µF	Cp/µF	cycle number	I Range	|Ewe|/V	|I|/A	Ns	(Q-Qo)/mA.h	<Ece>/V	|Ece|/V	Phase(Zce)/deg	|Zce|/Ohm	Re(Zce)/Ohm	-Im(Zce)/Ohm	Phase(Zwe-ce)/deg	|Zwe-ce|/Ohm	Re(Zwe-ce)/Ohm	-Im(Zwe-ce)/Ohm	Re(Y)/Ohm-1	Im(Y)/Ohm-1	|Y|/Ohm-1	Phase(Y)/deg	Re(C)/nF	Im(C)/nF	|C|/nF	Phase(C)/deg	Re(M)	Im(M)	|M|	Phase(M)/deg	Re(Permittivity)	Im(Permittivity)	|Permittivity|	Phase(Permittivity)/deg	Re(Resistivity)/Ohm.cm	Im(Resistivity)/Ohm.cm	|Resistivity|/Ohm.cm	Phase(Resistivity)/deg	Re(Conductivity)/mS/cm	Im(Conductivity)/mS/cm	|Conductivity|/mS/cm	Phase(Conductivity)/deg	Tan(Delta)	Loss Angle(Delta)/deg	dq/mA.h	Pwe/W	Pce/W	Pwe-ce/W	<Ewe-Ece>/V	Rwe/Ohm	Rce/Ohm	Rwe-ce/Ohm		Ewe-Ece/V
100004	1.36762	0.657701	1.51754	-25.6834	1.91052	0.262695	0.0102121	2.41978	0.454516	1	9	0.00466212	0.00307215	0	4.96619e-06	-8.05151e-05	3.14266e-05	92.7005	0.0102295	-0.000481959	-0.0102182	-25.3425	1.51271	1.36713	0.647483	0.593856	0.285592	0.658959	25.6834	454.516	945.115	1048.73	-64.3166	0.0000000E+000	0.0000000E+000	0.0000000E+000	64.3166	0.0000000E+000	0.0000000E+000	0.0000000E+000	-64.3166	0.0000000E+000	0.0000000E+000	0.0000000E+000	-25.6834	0.0000000E+000	0.0000000E+000	0.0000000E+000	25.6834	2.07939	64.3166	4.96619e-06	2.68266e-06	-8.22224e-10	2.68348e-06	0.262776	25724	7.88432	25731.9
68132	1.54302	0.767637	1.72342	-26.4499	2.41752	0.262689	0.0102866	3.04307	0.60373	1	9	0.00504931	0.00292982	0	-7.6616e-06	-0.000118703	2.59605e-05	77.8239	0.00886079	0.00186889	-0.00866146	-26.1641	1.72126	1.54489	0.758976	0.519504	0.258449	0.580242	26.4499	603.73	1213.55	1355.43	-63.5501	0.0000000E+000	0.0000000E+000	0.0000000E+000	63.5501	0.0000000E+000	0.0000000E+000	0.0000000E+000	-63.5501	0.0000000E+000	0.0000000E+000	0.0000000E+000	-26.4499	0.0000000E+000	0.0000000E+000	0.0000000E+000	26.4499	2.01009	63.5501	-1.26278e-05	2.70219e-06	-1.22106e-09	2.70341e-06	0.262808	25536.9	11.5396	25548.4
46420.4	1.75288	0.872735	1.95812	-26.4681	2.92456	0.262691	0.0193863	3.92852	0.780393	1	9	0.00506682	0.00258759	0	7.21171e-06	-4.23269e-05	1.18554e-05	47.4243	0.00458163	0.00309976	-0.00337384	-26.3394	1.9594	1.75598	0.869361	0.457163	0.227615	0.510693	26.4681	780.393	1567.41	1750.94	-63.5319	0.0000000E+000	0.0000000E+000	0.0000000E+000	63.5319	0.0000000E+000	0.0000000E+000	0.0000000E+000	-63.5319	0.0000000E+000	0.0000000E+000	0.0000000E+000	-26.4681	0.0000000E+000	0.0000000E+000	0.0000000E+000	26.4681	2.00849	63.5319	1.48733e-05	5.0926e-06	-8.20561e-10	5.09342e-06	0.262733	13550.4	2.18335	13552.6
31621.1	1.97645	0.985036	2.20832	-26.491	3.43156	0.262691	0.0107341	5.10965	1.01665	1	9	0.00514612	0.00233034	0	1.48595e-05	7.22374e-05	7.50612e-06	-24.7371	0.00322105	0.00292548	0.00134787	-26.4885	2.21154	1.97938	0.986383	0.405288	0.20199	0.452834	26.491	1016.65	2039.89	2279.19	-63.509	0.0000000E+000	0.0000000E+000	0.0000000E+000	63.509	0.0000000E+000	0.0000000E+000	0.0000000E+000	-63.509	0.0000000E+000	0.0000000E+000	0.0000000E+000	-26.491	0.0000000E+000	0.0000000E+000	0.0000000E+000	26.491	2.00648	63.509	7.64781e-06	2.81976e-06	7.75407e-10	2.81898e-06	0.262619	24472.5	6.72969	24465.7
21544.7	2.23125	1.09654	2.48613	-26.1716	3.81452	0.262694	0.0117038	6.73685	1.31055	1	9	0.00497114	0.00199954	0	1.83126e-05	-0.000118703	3.51861e-06	-25.4903	0.00175971	0.00158841	0.000757303	-26.1711	2.48789	2.23284	1.09729	0.360993	0.177408	0.402231	26.1716	1310.55	2666.73	2971.36	-63.8284	0.0000000E+000	0.0000000E+000	0.0000000E+000	63.8284	0.0000000E+000	0.0000000E+000	0.0000000E+000	-63.8284	0.0000000E+000	0.0000000E+000	0.0000000E+000	-26.1716	0.0000000E+000	0.0000000E+000	0.0000000E+000	26.1716	2.03481	63.8284	3.45308e-06	3.0745e-06	-1.38927e-09	3.07589e-06	0.262812	22445.2	10.1423	22455.4
14678.6	2.49139	1.19448	2.76293	-25.6151	4.19755	0.262685	0.0135311	9.07728	1.69658	1	9	0.00478085	0.00173035	0	1.83488e-05	-0.000328738	6.30658e-06	1.30875	0.00364468	0.00364373	-8.32444e-05	-25.581	2.76619	2.49503	1.1944	0.326362	0.156473	0.361934	25.6151	1696.58	3538.64	3924.33	-64.3849	0.0000000E+000	0.0000000E+000	0.0000000E+000	64.3849	0.0000000E+000	0.0000000E+000	0.0000000E+000	-64.3849	0.0000000E+000	0.0000000E+000	0.0000000E+000	-25.6151	0.0000000E+000	0.0000000E+000	0.0000000E+000	25.6151	2.08575	64.3849	3.62261e-08	3.55443e-06	-4.4482e-09	3.55887e-06	0.263014	19413.4	24.2949	19437.7
10002.2	2.76851	1.30888	3.06232	-25.3035	4.58251	0.26268	0.0167011	12.157	2.22086	1	9	0.00505809	0.00165172	0	1.89718e-05	-6.1421e-05	7.91692e-06	-138.427	0.00479315	-0.00358582	0.00318059	-25.386	3.06044	2.76493	1.31206	0.295219	0.139572	0.32655	25.3035	2220.86	4697.52	5196.04	-64.6965	0.0000000E+000	0.0000000E+000	0.0000000E+000	64.6965	0.0000000E+000	0.0000000E+000	0.0000000E+000	-64.6965	0.0000000E+000	0.0000000E+000	0.0000000E+000	-25.3035	0.0000000E+000	0.0000000E+000	0.0000000E+000	25.3035	2.11518	64.6965	6.2297e-07	4.38704e-06	-1.0258e-09	4.38807e-06	0.262741	15728.3	3.67767	15732
6810.42	3.0534	1.44866	3.37962	-25.3816	4.84152	0.262695	0.0143143	16.1317	2.96398	1	9	0.00484351	0.00143315	0	2.01565e-05	1.49552e-05	2.58272e-05	93.2848	0.0180212	-0.0010326	-0.0179916	-25.1128	3.37102	3.05237	1.43067	0.267329	0.126832	0.295891	25.3816	2963.98	6247.31	6914.77	-64.6184	0.0000000E+000	0.0000000E+000	0.0000000E+000	64.6184	0.0000000E+000	0.0000000E+000	0.0000000E+000	-64.6184	0.0000000E+000	0.0000000E+000	0.0000000E+000	-25.3816	0.0000000E+000	0.0000000E+000	0.0000000E+000	25.3816	2.10775	64.6184	1.18475e-06	3.76029e-06	2.14074e-10	3.76008e-06	0.26268	18352	1.04478	18350.9
4646	3.35209	1.62094	3.72344	-25.8066	5.10759	0.262653	-0.00272888	21.1336	4.00517	1	9	0.00476069	0.00127858	0	2.08141e-05	-4.13882e-06	6.38617e-06	-66.3756	0.00499476	0.0020016	0.00457616	-25.8566	3.72723	3.35409	1.62552	0.241784	0.116918	0.268569	25.8066	4005.17	8282.64	9200.19	-64.1934	0.0000000E+000	0.0000000E+000	0.0000000E+000	64.1934	0.0000000E+000	0.0000000E+000	0.0000000E+000	-64.1934	0.0000000E+000	0.0000000E+000	0.0000000E+000	-25.8066	0.0000000E+000	0.0000000E+000	0.0000000E+000	25.8066	2.06799	64.1934	6.57536e-07	-7.16747e-07	1.12943e-11	-7.16758e-07	0.262657	96249.3	1.51667	96250.8
3163.08	3.63597	1.88387	4.09502	-27.3896	5.69063	0.262585	-0.028355	26.7091	5.6526	1	10	0.00489353	0.00119499	0	1.8326e-05	-0.000195079	6.18642e-06	-64.9913	0.00517695	0.00218859	0.00469158	-27.4338	4.09913	3.63815	1.88856	0.216824	0.112341	0.244199	27.3896	5652.6	10909.8	12287.2	-62.6104	0.0000000E+000	0.0000000E+000	0.0000000E+000	62.6104	0.0000000E+000	0.0000000E+000	0.0000000E+000	-62.6104	0.0000000E+000	0.0000000E+000	0.0000000E+000	-27.3896	0.0000000E+000	0.0000000E+000	0.0000000E+000	27.3896	1.93005	62.6104	-2.48807e-06	-7.4456e-06	5.53149e-09	-7.45113e-06	0.26278	9260.61	6.87989	9267.49
2155.69	3.97866	2.2208	4.5565	-29.1692	6.14182	0.262621	-0.00948316	33.2449	7.89733	1	10	0.00481018	0.00105568	0	1.78705e-05	-6.1421e-05	8.60561e-06	-87.8222	0.00815177	0.000309768	0.00814588	-29.2567	4.56074	3.97897	2.22894	0.191635	0.106966	0.219467	29.1692	7897.33	14148.4	16203.3	-60.8308	0.0000000E+000	0.0000000E+000	0.0000000E+000	60.8308	0.0000000E+000	0.0000000E+000	0.0000000E+000	-60.8308	0.0000000E+000	0.0000000E+000	0.0000000E+000	-29.1692	0.0000000E+000	0.0000000E+000	0.0000000E+000	29.1692	1.79155	60.8308	-4.55471e-07	-2.49048e-06	5.82465e-10	-2.49106e-06	0.262683	27693.4	6.47685	27699.9
1468.59	4.36235	2.70717	5.13409	-31.8228	6.59309	0.262614	-0.0102364	40.0316	11.1303	1	10	0.00474933	0.000925057	0	1.59974e-05	-2.32329e-05	7.82399e-06	47.4612	0.00845785	0.00571827	-0.00623191	-31.7301	5.13567	4.36807	2.70094	0.165498	0.102704	0.194776	31.8228	11130.3	17935.5	21108.4	-58.1772	0.0000000E+000	0.0000000E+000	0.0000000E+000	58.1772	0.0000000E+000	0.0000000E+000	0.0000000E+000	-58.1772	0.0000000E+000	0.0000000E+000	0.0000000E+000	-31.8228	0.0000000E+000	0.0000000E+000	0.0000000E+000	31.8228	1.6114	58.1772	-1.87315e-06	-2.68822e-06	2.37821e-10	-2.68846e-06	0.262637	25654.9	2.26963	25657.2
1000.32	4.81282	3.36229	5.87096	-34.9386	7.04377	0.262628	-0.010173	47.3201	15.5202	1	10	0.00469325	0.0007994	0	1.43503e-05	-0.000233268	6.60794e-06	3.36595	0.00826613	0.00825187	-0.00048533	-34.8886	5.87745	4.82107	3.3618	0.139631	0.0975475	0.17033	34.9386	15520.2	22215.8	27100.1	-55.0614	0.0000000E+000	0.0000000E+000	0.0000000E+000	55.0614	0.0000000E+000	0.0000000E+000	0.0000000E+000	-55.0614	0.0000000E+000	0.0000000E+000	0.0000000E+000	-34.9386	0.0000000E+000	0.0000000E+000	0.0000000E+000	34.9386	1.43141	55.0614	-1.64708e-06	-2.67172e-06	2.37304e-09	-2.67409e-06	0.262861	25816.1	22.93	25839.1
681.09	5.36838	4.28201	6.86696	-38.5771	7.49352	0.262623	-0.00992692	54.5718	21.2195	1	10	0.0046621	0.000678918	0	1.29431e-05	-4.13882e-06	7.39116e-06	-2.49712	0.0108867	0.0108763	0.000474324	-38.5237	6.87576	5.37925	4.28249	0.113845	0.090807	0.145625	38.5771	21219.5	26603	34029.2	-51.4229	0.0000000E+000	0.0000000E+000	0.0000000E+000	51.4229	0.0000000E+000	0.0000000E+000	0.0000000E+000	-51.4229	0.0000000E+000	0.0000000E+000	0.0000000E+000	-38.5771	0.0000000E+000	0.0000000E+000	0.0000000E+000	38.5771	1.2537	51.4229	-1.40717e-06	-2.60704e-06	4.10857e-11	-2.60708e-06	0.262627	26455.6	0.416929	26456.1
463.961	6.12379	5.47637	8.21532	-41.8056	7.94531	0.262621	-0.00899843	62.6391	27.8345	1	10	0.00463484	0.000564171	0	1.21153e-05	-0.000195079	1.56335e-05	-5.77016	0.0277105	0.0275701	0.00278597	-41.6922	8.23775	6.15136	5.47916	0.0907343	0.0811417	0.121724	41.8056	27834.5	31125.1	41755.6	-48.1944	0.0000000E+000	0.0000000E+000	0.0000000E+000	48.1944	0.0000000E+000	0.0000000E+000	0.0000000E+000	-48.1944	0.0000000E+000	0.0000000E+000	0.0000000E+000	-41.8056	0.0000000E+000	0.0000000E+000	0.0000000E+000	41.8056	1.11822	48.1944	-8.2789e-07	-2.36317e-06	1.75541e-09	-2.36493e-06	0.262816	29185.2	21.6793	29206.9
316.316	7.1672	7.06752	10.0657	-44.5988	8.39304	0.262622	-0.0100723	71.1921	35.0976	1	10	0.0046178	0.000458765	0	1.07761e-05	-0.000233268	3.9217e-06	4.31806	0.00854838	0.00852411	-0.000643634	-44.5622	10.0713	7.17572	7.06688	0.0707392	0.0697554	0.0993472	44.5988	35097.6	35592.6	49986.7	-45.4012	0.0000000E+000	0.0000000E+000	0.0000000E+000	45.4012	0.0000000E+000	0.0000000E+000	0.0000000E+000	-45.4012	0.0000000E+000	0.0000000E+000	0.0000000E+000	-44.5988	0.0000000E+000	0.0000000E+000	0.0000000E+000	44.5988	1.0141	45.4012	-1.33911e-06	-2.64522e-06	2.34955e-09	-2.64757e-06	0.262856	26073.6	23.1592	26096.8
215.345	8.72712	9.10634	12.613	-46.2182	8.84353	0.262612	-0.00943471	81.1601	42.3051	1	10	0.00461343	0.000365768	0	9.95501e-06	-2.32329e-05	8.77367e-06	48.8658	0.023987	0.0157792	-0.0180663	-46.1096	12.6109	8.7429	9.08827	0.0548572	0.0572409	0.0792832	46.2182	42305.1	40543.4	58595.9	-43.7818	0.0000000E+000	0.0000000E+000	0.0000000E+000	43.7818	0.0000000E+000	0.0000000E+000	0.0000000E+000	-43.7818	0.0000000E+000	0.0000000E+000	0.0000000E+000	-46.2182	0.0000000E+000	0.0000000E+000	0.0000000E+000	46.2182	0.958357	43.7818	-8.21125e-07	-2.47766e-06	2.19196e-10	-2.47788e-06	0.262635	27834.6	2.46249	27837.1
146.737	11.0983	11.4937	15.9774	-46.0026	9.28955	0.262617	-0.0112283	94.3666	48.8343	1	10	0.00460664	0.000288321	0	9.10823e-06	-0.000175985	7.91766e-06	48.1371	0.0274613	0.0183263	-0.0204516	-45.9044	15.9755	11.1167	11.4733	0.0434754	0.0450242	0.0625882	46.0026	48834.3	47154.4	67884.7	-43.9974	0.0000000E+000	0.0000000E+000	0.0000000E+000	43.9974	0.0000000E+000	0.0000000E+000	0.0000000E+000	-43.9974	0.0000000E+000	0.0000000E+000	0.0000000E+000	-46.0026	0.0000000E+000	0.0000000E+000	0.0000000E+000	46.0026	0.965599	43.9973	-8.4678e-07	-2.94874e-06	1.97602e-09	-2.95072e-06	0.262793	23388.8	15.6734	23404.5
100.032	14.4721	13.9949	20.132	-44.0395	9.74084	0.262611	-0.00931166	113.687	54.9383	1	10	0.00460607	0.000228793	0	7.70241e-06	-0.000271456	5.04879e-06	12.361	0.022067	0.0215555	-0.00472391	-43.9872	20.1442	14.4937	13.9901	0.0357073	0.0345298	0.0496721	44.0395	54938.3	56811.8	79030.4	-45.9605	0.0000000E+000	0.0000000E+000	0.0000000E+000	45.9605	0.0000000E+000	0.0000000E+000	0.0000000E+000	-45.9605	0.0000000E+000	0.0000000E+000	0.0000000E+000	-44.0395	0.0000000E+000	0.0000000E+000	0.0000000E+000	44.0395	1.0341	45.9605	-1.40583e-06	-2.44534e-06	2.5277e-09	-2.44787e-06	0.262882	28202.3	29.1522	28231.5
68.104	19.0641	16.1328	24.9741	-40.2393	10.4544	0.262668	-0.00600005	144.856	60.4474	1	11	0.00461261	0.000184696	0	6.39061e-06	-4.13882e-06	6.41668e-06	53.2872	0.0347419	0.0207689	-0.0278506	-40.1597	24.972	19.0848	16.105	0.0305658	0.025866	0.0400415	40.2393	60447.4	71430.4	93574.5	-49.7607	0.0000000E+000	0.0000000E+000	0.0000000E+000	49.7607	0.0000000E+000	0.0000000E+000	0.0000000E+000	-49.7607	0.0000000E+000	0.0000000E+000	0.0000000E+000	-40.2393	0.0000000E+000	0.0000000E+000	0.0000000E+000	40.2393	1.1817	49.7607	-1.31179e-06	-1.57602e-06	2.48331e-11	-1.57605e-06	0.262672	43777.6	0.689797	43778.3
46.4415	24.4962	17.2945	29.9861	-35.2224	10.8907	0.26266	-0.00618837	198.155	65.9147	1	11	0.00460715	0.000153643	0	5.68396e-06	-0.00048149	2.76772e-06	27.7794	0.018014	0.0159378	-0.00839574	-35.1917	29.9943	24.5122	17.2861	0.0272433	0.019234	0.0333488	35.2224	65914.7	93362.7	114286	-54.7776	0.0000000E+000	0.0000000E+000	0.0000000E+000	54.7776	0.0000000E+000	0.0000000E+000	0.0000000E+000	-54.7776	0.0000000E+000	0.0000000E+000	0.0000000E+000	-35.2224	0.0000000E+000	0.0000000E+000	0.0000000E+000	35.2224	1.41642	54.7776	-7.06652e-07	-1.62544e-06	2.97964e-09	-1.62842e-06	0.263141	42444.1	77.8057	42521.9
31.6296	30.1628	16.9625	34.6052	-29.3518	11.3206	0.262654	-0.00629278	296.646	71.2744	1	11	0.00459854	0.000132886	0	5.10774e-06	-0.000137797	3.43385e-06	113.906	0.0258406	-0.0104716	-0.0236238	-29.3262	34.5845	30.1523	16.9388	0.0251877	0.0141647	0.0288974	29.3518	71274.4	126741	145407	-60.6482	0.0000000E+000	0.0000000E+000	0.0000000E+000	60.6482	0.0000000E+000	0.0000000E+000	0.0000000E+000	-60.6482	0.0000000E+000	0.0000000E+000	0.0000000E+000	-29.3518	0.0000000E+000	0.0000000E+000	0.0000000E+000	29.3518	1.77821	60.6482	-5.76226e-07	-1.65282e-06	8.67128e-10	-1.65369e-06	0.262792	41738.9	21.8977	41760.8
21.5517	35.24	15.5978	38.5376	-23.8749	11.7415	0.26266	-0.00641882	473.451	77.5588	1	11	0.00459993	0.000119362	0	4.34907e-06	0.000110426	1.01262e-05	54.2125	0.0848363	0.0496107	-0.0688185	-23.7516	38.5552	35.2896	15.529	0.0237283	0.0105025	0.0259487	23.8749	77558.8	175228	191625	-66.1251	0.0000000E+000	0.0000000E+000	0.0000000E+000	66.1251	0.0000000E+000	0.0000000E+000	0.0000000E+000	-66.1251	0.0000000E+000	0.0000000E+000	0.0000000E+000	-23.8749	0.0000000E+000	0.0000000E+000	0.0000000E+000	23.8749	2.2593	66.1251	-7.58665e-07	-1.68597e-06	-7.08802e-10	-1.68526e-06	0.26255	40920.3	17.2034	40903.1
14.6852	39.4251	13.4872	41.6682	-18.8856	12.2022	0.262665	-0.00558464	803.566	84.1884	1	11	0.00460502	0.000110517	0	3.37584e-06	-0.00029055	5.26855e-06	-84.9044	0.0476721	0.00423416	0.0474837	-18.9455	41.6876	39.4293	13.5346	0.0227072	0.00776803	0.0239991	18.8856	84188.4	246096	260098	-71.1144	0.0000000E+000	0.0000000E+000	0.0000000E+000	71.1144	0.0000000E+000	0.0000000E+000	0.0000000E+000	-71.1144	0.0000000E+000	0.0000000E+000	0.0000000E+000	-18.8856	0.0000000E+000	0.0000000E+000	0.0000000E+000	18.8856	2.92316	71.1144	-9.73227e-07	-1.46689e-06	1.62262e-09	-1.46851e-06	0.262955	47033.4	52.0266	47085.4
10.0032	42.4409	11.2377	43.9034	-14.8307	12.6528	0.262667	-0.00564729	1415.81	92.7599	1	11	0.00459744	0.000104717	0	2.29505e-06	-0.000443302	7.36451e-06	-13.9765	0.0703277	0.0682456	0.0169859	-14.8293	43.9738	42.5091	11.2547	0.0220185	0.00583014	0.0227773	14.8307	92760	350323	362395	-75.1693	0.0000000E+000	0.0000000E+000	0.0000000E+000	75.1693	0.0000000E+000	0.0000000E+000	0.0000000E+000	-75.1693	0.0000000E+000	0.0000000E+000	0.0000000E+000	-14.8307	0.0000000E+000	0.0000000E+000	0.0000000E+000	14.8307	3.77666	75.1693	-1.0808e-06	-1.48336e-06	2.50346e-09	-1.48586e-06	0.26311	46512	78.4982	46590.5
6.81719	44.9009	8.71814	45.7395	-10.9881	12.9925	0.26268	-0.00595456	2677.88	97.2874	1	11	0.0045982	0.00010053	0	1.7051e-06	-4.13882e-06	6.0173e-05	-110.255	0.598556	-0.207219	0.561542	-11.7296	45.6469	44.6937	9.27968	0.0214621	0.00416718	0.021863	10.9881	97287.3	501058	510415	-79.0119	0.0000000E+000	0.0000000E+000	0.0000000E+000	79.0119	0.0000000E+000	0.0000000E+000	0.0000000E+000	-79.0119	0.0000000E+000	0.0000000E+000	0.0000000E+000	-10.9881	0.0000000E+000	0.0000000E+000	0.0000000E+000	10.9881	5.15029	79.0119	-5.8995e-07	-1.56414e-06	2.46448e-11	-1.56417e-06	0.262684	44114	0.695066	44114.7
4.63925	46.2781	7.62768	46.9025	-9.35949	13.4764	0.262671	-0.00548843	4497.59	118.952	1	11	0.00459861	9.80462e-05	0	2.08357e-06	-0.000137797	1.24228e-05	-83.1486	0.126704	0.0151152	0.125799	-9.50801	46.938	46.2932	7.75348	0.021037	0.00346737	0.0213208	9.35949	118952	721698	731436	-80.6405	0.0000000E+000	0.0000000E+000	0.0000000E+000	80.6405	0.0000000E+000	0.0000000E+000	0.0000000E+000	-80.6405	0.0000000E+000	0.0000000E+000	0.0000000E+000	-9.35949	0.0000000E+000	0.0000000E+000	0.0000000E+000	9.35949	6.06713	80.6405	3.78473e-07	-1.44165e-06	7.56291e-10	-1.44241e-06	0.262809	47859	25.1068	47884.1
3.1604	47.656	6.45497	48.0911	-7.71373	14.1695	0.262665	-0.00508812	7801.61	140.554	1	11	0.00460045	9.5661e-05	0	1.02532e-06	-0.000271456	6.48531e-06	-72.4983	0.0677946	0.0203881	0.0646563	-7.78676	48.1201	47.6764	6.51963	0.0206057	0.00279103	0.0207938	7.71373	140554	1.03769e+06	1.04716e+06	-82.2863	0.0000000E+000	0.0000000E+000	0.0000000E+000	82.2863	0.0000000E+000	0.0000000E+000	0.0000000E+000	-82.2863	0.0000000E+000	0.0000000E+000	0.0000000E+000	-7.71373	0.0000000E+000	0.0000000E+000	0.0000000E+000	7.71373	7.38283	82.2863	-1.05825e-06	-1.33647e-06	1.3812e-09	-1.33785e-06	0.262937	51623.2	53.3508	51676.5
2.15577	48.6029	5.64654	48.9298	-6.62674	15.1732	0.262672	-0.00429412	13074.8	174.122	1	11	0.00459801	9.39715e-05	0	-1.75276e-06	0.000244084	3.23441e-06	15.6241	0.034419	0.0331472	-0.0092699	-6.61149	48.9617	48.6361	5.63727	0.0203009	0.00235849	0.0204374	6.62674	174122	1.49876e+06	1.50884e+06	-83.3733	0.0000000E+000	0.0000000E+000	0.0000000E+000	83.3733	0.0000000E+000	0.0000000E+000	0.0000000E+000	-83.3733	0.0000000E+000	0.0000000E+000	0.0000000E+000	-6.62674	0.0000000E+000	0.0000000E+000	0.0000000E+000	6.62674	8.60756	83.3733	-2.77808e-06	-1.12795e-06	-1.04813e-09	-1.1269e-06	0.262428	61170.2	56.8414	61113.4
1.46631	49.5993	5.06746	49.8575	-5.83356	17.3596	0.262669	-0.00439335	21419.2	221.271	1	12	0.00460047	9.22723e-05	0	-6.07852e-06	-6.1421e-05	3.60872e-06	43.0629	0.0391094	0.0285735	-0.026704	-5.79971	49.8832	49.6279	5.04076	0.0199533	0.00203859	0.0200572	5.83356	221271	2.16575e+06	2.17703e+06	-84.1664	0.0000000E+000	0.0000000E+000	0.0000000E+000	84.1664	0.0000000E+000	0.0000000E+000	0.0000000E+000	-84.1664	0.0000000E+000	0.0000000E+000	0.0000000E+000	-5.83356	0.0000000E+000	0.0000000E+000	0.0000000E+000	5.83356	9.7878	84.1664	-4.32576e-06	-1.154e-06	2.69844e-10	-1.15427e-06	0.262731	59787.9	13.9805	59801.9
1.00006	50.5266	4.79613	50.7538	-5.42243	19.4907	0.26267	-0.00443693	33181.9	296.31	1	12	0.00460105	9.06543e-05	0	-7.65839e-06	0.00012952	3.69816e-06	33.2696	0.0407941	0.0341079	-0.0223788	-5.39365	50.7856	50.5607	4.77375	0.0196148	0.00186189	0.019703	5.42243	296310	3.12159e+06	3.13563e+06	-84.5776	0.0000000E+000	0.0000000E+000	0.0000000E+000	84.5776	0.0000000E+000	0.0000000E+000	0.0000000E+000	-84.5776	0.0000000E+000	0.0000000E+000	0.0000000E+000	-5.42243	0.0000000E+000	0.0000000E+000	0.0000000E+000	5.42243	10.5349	84.5776	-1.57987e-06	-1.16545e-06	-5.7467e-10	-1.16488e-06	0.262541	59200.9	29.1913	59171.7
0.681362	51.4364	4.71445	51.652	-5.23686	22.6029	0.262669	-0.00437192	49546.3	412.76	1	12	0.00460128	8.90822e-05	0	-7.95154e-06	-0.000252362	3.86678e-06	46.3808	0.0434068	0.0299448	-0.031424	-5.19914	51.679	51.4664	4.68303	0.0192795	0.00176708	0.0193603	5.23686	412761	4.50337e+06	4.52225e+06	-84.7631	0.0000000E+000	0.0000000E+000	0.0000000E+000	84.7631	0.0000000E+000	0.0000000E+000	0.0000000E+000	-84.7631	0.0000000E+000	0.0000000E+000	0.0000000E+000	-5.23686	0.0000000E+000	0.0000000E+000	0.0000000E+000	5.23686	10.9104	84.7631	-2.93153e-07	-1.14837e-06	1.1033e-09	-1.14947e-06	0.262921	60080.9	57.7234	60138.6
0.464091	52.4358	4.68753	52.6449	-5.10841	27.1594	0.262672	-0.00400627	73160	580.028	1	12	0.00459906	8.73601e-05	0	-7.68465e-06	-0.000137797	3.98793e-06	1.71573	0.0456493	0.0456288	-0.00136677	-5.10251	52.6902	52.4814	4.68616	0.0189198	0.00169134	0.0189952	5.10841	580028	6.48833e+06	6.5142e+06	-84.8916	0.0000000E+000	0.0000000E+000	0.0000000E+000	84.8916	0.0000000E+000	0.0000000E+000	0.0000000E+000	-84.8916	0.0000000E+000	0.0000000E+000	0.0000000E+000	-5.10841	0.0000000E+000	0.0000000E+000	0.0000000E+000	5.10841	11.1862	84.8916	2.66892e-07	-1.05233e-06	5.52053e-10	-1.05289e-06	0.262809	65565.1	34.3954	65599.5
0.316193	53.5584	4.86541	53.7789	-5.19068	33.8338	0.262669	-0.00342455	103454	846.765	1	12	0.00460275	8.55865e-05	0	-1.0125e-05	-2.32329e-05	3.09797e-06	19.1081	0.036197	0.0342026	-0.0118491	-5.17482	53.8119	53.5926	4.85356	0.0185184	0.00168227	0.0185946	5.19068	846764	9.32118e+06	9.35956e+06	-84.8093	0.0000000E+000	0.0000000E+000	0.0000000E+000	84.8093	0.0000000E+000	0.0000000E+000	0.0000000E+000	-84.8093	0.0000000E+000	0.0000000E+000	0.0000000E+000	-5.19068	0.0000000E+000	0.0000000E+000	0.0000000E+000	5.19068	11.008	84.8093	-2.44039e-06	-8.99522e-07	7.95621e-11	-8.99602e-07	0.262692	76701.8	6.78422	76708.6
0.215268	54.6833	5.17605	54.9278	-5.40723	43.6273	0.262668	-0.00285644	142837	1268.4	1	12	0.00460054	8.37562e-05	0	-1.99173e-05	0.000148614	1.53917e-06	-63.7193	0.0183768	0.00813667	0.0164773	-5.42353	54.9374	54.6915	5.19253	0.0181247	0.0017156	0.0182057	5.40723	1.2684e+06	1.34002e+07	1.34601e+07	-84.5928	0.0000000E+000	0.0000000E+000	0.0000000E+000	84.5928	0.0000000E+000	0.0000000E+000	0.0000000E+000	-84.5928	0.0000000E+000	0.0000000E+000	0.0000000E+000	-5.40723	0.0000000E+000	0.0000000E+000	0.0000000E+000	5.40723	10.5647	84.5928	-9.79227e-06	-7.50295e-07	-4.24507e-10	-7.49871e-07	0.262519	91956.2	52.0275	91904.2
0.146929	55.8666	5.59538	56.1461	-5.71944	57.9656	0.26267	-0.00227173	193590	1922.66	1	12	0.00459972	8.19242e-05	0	-4.13367e-05	-0.000137797	2.21376e-06	19.8817	0.0270221	0.0254115	-0.00918963	-5.70753	56.1705	55.892	5.58619	0.017722	0.00177497	0.0178107	5.71944	1.92266e+06	1.91967e+07	1.92927e+07	-84.2806	0.0000000E+000	0.0000000E+000	0.0000000E+000	84.2806	0.0000000E+000	0.0000000E+000	0.0000000E+000	-84.2806	0.0000000E+000	0.0000000E+000	0.0000000E+000	-5.71944	0.0000000E+000	0.0000000E+000	0.0000000E+000	5.71944	9.98442	84.2806	-2.14194e-05	-5.96715e-07	3.13038e-10	-5.97028e-07	0.262807	115625	60.6574	115686
0.0999041	57.1388	6.19594	57.4737	-6.18878	79.0416	0.262678	-0.00178886	257116	2988.17	1	12	0.00460301	8.0089e-05	0	-7.54497e-05	0.00012952	2.08184e-06	-36.7138	0.025994	0.0208376	0.0155397	-6.20194	57.4961	57.1596	6.21148	0.0172979	0.00187572	0.0173993	6.18878	2.98817e+06	2.75568e+07	2.77184e+07	-83.8112	0.0000000E+000	0.0000000E+000	0.0000000E+000	83.8112	0.0000000E+000	0.0000000E+000	0.0000000E+000	-83.8112	0.0000000E+000	0.0000000E+000	0.0000000E+000	-6.18878	0.0000000E+000	0.0000000E+000	0.0000000E+000	6.18878	9.22197	83.8112	-3.4113e-05	-4.69895e-07	-2.31693e-10	-4.69663e-07	0.262549	146841	72.4034	146769
0.0680626	58.5885	7.09026	59.0159	-6.90027	109.97	0.262673	-0.00166217	329799	4760.31	1	12	0.0045993	7.79332e-05	0	-0.000117034	-2.32329e-05	2.56244e-06	24.9657	0.03288	0.0298077	-0.0138778	-6.88342	59.0439	58.6183	7.07638	0.0168218	0.00203575	0.0169446	6.90027	4.76031e+06	3.93355e+07	3.96225e+07	-83.0997	0.0000000E+000	0.0000000E+000	0.0000000E+000	83.0997	0.0000000E+000	0.0000000E+000	0.0000000E+000	-83.0997	0.0000000E+000	0.0000000E+000	0.0000000E+000	-6.90027	0.0000000E+000	0.0000000E+000	0.0000000E+000	6.90027	8.26323	83.0997	-4.15839e-05	-4.36607e-07	3.8617e-11	-4.36645e-07	0.262696	158030	13.9774	158044
0.0464052	60.3026	8.51662	60.901	-8.03879	155.321	0.262669	-0.00178977	402704	7875.38	1	12	0.004604	7.55981e-05	0	-0.00015616	0.000263178	2.35428e-06	-13.2364	0.031142	0.0303147	0.0071306	-8.04145	60.932	60.3329	8.52375	0.0162587	0.00229624	0.0164201	8.03879	7.87538e+06	5.57623e+07	5.63156e+07	-81.9612	0.0000000E+000	0.0000000E+000	0.0000000E+000	81.9612	0.0000000E+000	0.0000000E+000	0.0000000E+000	-81.9612	0.0000000E+000	0.0000000E+000	0.0000000E+000	-8.03879	0.0000000E+000	0.0000000E+000	0.0000000E+000	8.03879	7.08058	81.9612	-3.91267e-05	-4.70116e-07	-4.71028e-10	-4.69645e-07	0.262406	146761	147.046	146614
0.0315922	61.9969	10.5779	62.8928	-9.68259	221.926	0.262669	-0.00167761	476255	13472.2	1	12	0.00460115	7.31586e-05	0	-0.000167603	-0.000118703	8.85304e-07	22.3692	0.0121012	0.0111906	-0.00460538	-9.67674	62.9031	62.0081	10.5733	0.0156736	0.00267423	0.0159001	9.68259	1.34722e+07	7.89601e+07	8.01012e+07	-80.3174	0.0000000E+000	0.0000000E+000	0.0000000E+000	80.3174	0.0000000E+000	0.0000000E+000	0.0000000E+000	-80.3174	0.0000000E+000	0.0000000E+000	0.0000000E+000	-9.68259	0.0000000E+000	0.0000000E+000	0.0000000E+000	9.68259	5.86097	80.3174	-1.14423e-05	-4.40656e-07	1.99138e-10	-4.40855e-07	0.262788	156573	70.7573	156644
0.0215268	63.8524	13.167	65.1958	-11.6516	319.665	0.262674	-0.00127072	561506	22902.8	1	12	0.00460307	7.06038e-05	0	-0.000126566	-0.000156891	2.21736e-06	-7.10166	0.0314057	0.0311647	0.00388269	-11.6494	65.2271	63.8835	13.1709	0.0150223	0.00309775	0.0153384	11.6516	2.29028e+07	1.11065e+08	1.13402e+08	-78.3484	0.0000000E+000	0.0000000E+000	0.0000000E+000	78.3484	0.0000000E+000	0.0000000E+000	0.0000000E+000	-78.3484	0.0000000E+000	0.0000000E+000	0.0000000E+000	-11.6516	0.0000000E+000	0.0000000E+000	0.0000000E+000	11.6516	4.84943	78.3484	4.10369e-05	-3.33786e-07	1.99365e-10	-3.33986e-07	0.262831	206712	123.466	206836
0.0146812	66.3087	16.3966	68.3058	-13.8893	462.967	0.262672	-0.000754346	661158	38097.6	1	12	0.0046007	6.73544e-05	0	-3.04076e-05	-4.13882e-06	2.18606e-06	2.04069	0.0324562	0.0324356	-0.00115574	-13.8819	68.337	66.3411	16.3955	0.014212	0.0035143	0.01464	13.8893	3.80977e+07	1.54069e+08	1.58709e+08	-76.1107	0.0000000E+000	0.0000000E+000	0.0000000E+000	76.1107	0.0000000E+000	0.0000000E+000	0.0000000E+000	-76.1107	0.0000000E+000	0.0000000E+000	0.0000000E+000	-13.8893	0.0000000E+000	0.0000000E+000	0.0000000E+000	13.8893	4.04404	76.1107	9.61581e-05	-1.98145e-07	3.1221e-12	-1.98148e-07	0.262676	348211	5.48663	348217
0.0100092	69.539	20.9258	72.6193	-16.7477	673.148	0.262666	-0.000247104	759870	63095.9	1	12	0.00460291	6.33841e-05	0	7.81297e-05	-6.1421e-05	2.41778e-06	-33.0926	0.0381448	0.0319573	0.0208269	-16.7562	72.6559	69.5709	20.9467	0.0131863	0.00396807	0.0137704	16.7477	6.30959e+07	2.09675e+08	2.18963e+08	-73.2523	0.0000000E+000	0.0000000E+000	0.0000000E+000	73.2523	0.0000000E+000	0.0000000E+000	0.0000000E+000	-73.2523	0.0000000E+000	0.0000000E+000	0.0000000E+000	-16.7477	0.0000000E+000	0.0000000E+000	0.0000000E+000	16.7477	3.32312	73.2523	0.000108537	-6.49058e-08	1.51774e-11	-6.49209e-08	0.262727	1.06298e+06	248.564	1.06323e+06