File: txt/18731_R302_UA700_SOC00_C01.mpt
EC-Lab ASCII FILE
Nb header lines : 65

Potentio Electrochemical Impedance Spectroscopy

Run on channel : 1 (SN 66354)
User :
CE vs. WE compliance from -10 V to 10 V
Electrode connection : standard
Potential control : Ewe
Ewe ctrl range : min = -10.00 V, max = 10.00 V
Safety Limits :
	Do not start on E overload
Acquisition started on : 10/31/2025 11:54:10.673
Technique started on : 10/31/2025 11:54:12.585
Loaded Setting File :  C:\Users\Celltest\OneDrive - store-dot.com\Documents\EC-Lab\Data\@Biologic Test Protocols\anode half cell EIS SOC00.mps
Saved on :
	File : 18731_R302_UA700_SOC00_C01.mpr
	Directory : C:\Users\Celltest\OneDrive - store-dot.com\Documents\EC-Lab\Data\Charmaine\
	Host : 169.254.61.224
Device : VMP-3e (SN .003165)
Address : USB
EC-LAB for windows v11.62 (software)
Internet server v27.00 (firmware)
Command interpretor v12.03 (firmware)
Electrode material :
Initial state :
Electrolyte :
Comments :
Electrode surface area : 0.001 cm²
Characteristic mass : 0.001 g
Equivalent Weight : 0.000 g/eq.
Density : 0.000 g/cm3
Volume (V) : 0.001 cm³
Record Ece
Cycle Definition : Charge/Discharge alternance
Mode                Single sine
E (V)               0.0000
vs.                 Eoc
tE (h:m:s)          0:00:0.0000
record              0
dI                  0.000
unit dI             mA
dt (s)              0.000
fi                  100.000
unit fi             kHz
ff                  10.000
unit ff             mHz
Nd                  6
Points              per decade
spacing             Logarithmic
Va (mV)             5.0
pw                  0.10
Na                  2
corr                0
E range min (V)     -10.000
E range max (V)     10.000
I Range             Auto
Bandwidth           5
nc cycles           0
goto Ns'            0
nr cycles           0
inc. cycle          0

freq/Hz	Re(Z)/Ohm	-Im(Z)/Ohm	|Z|/Ohm	Phase(Z)/deg	time/s	<Ewe>/V	<I>/mA	Cs/µF	Cp/µF	cycle number	I Range	|Ewe|/V	|I|/A	Ns	(Q-Qo)/mA.h	<Ece>/V	|Ece|/V	Phase(Zce)/deg	|Zce|/Ohm	Re(Zce)/Ohm	-Im(Zce)/Ohm	Phase(Zwe-ce)/deg	|Zwe-ce|/Ohm	Re(Zwe-ce)/Ohm	-Im(Zwe-ce)/Ohm	Re(Y)/Ohm-1	Im(Y)/Ohm-1	|Y|/Ohm-1	Phase(Y)/deg	Re(C)/nF	Im(C)/nF	|C|/nF	Phase(C)/deg	Re(M)	Im(M)	|M|	Phase(M)/deg	Re(Permittivity)	Im(Permittivity)	|Permittivity|	Phase(Permittivity)/deg	Re(Resistivity)/Ohm.cm	Im(Resistivity)/Ohm.cm	|Resistivity|/Ohm.cm	Phase(Resistivity)/deg	Re(Conductivity)/mS/cm	Im(Conductivity)/mS/cm	|Conductivity|/mS/cm	Phase(Conductivity)/deg	Tan(Delta)	Loss Angle(Delta)/deg	dq/mA.h	Pwe/W	Pce/W	Pwe-ce/W	<Ewe-Ece>/V	Rwe/Ohm	Rce/Ohm	Rwe-ce/Ohm		Ewe-Ece/V
100004	1.63829	0.660042	1.76625	-21.9437	1.91151	0.265854	0.0651533	2.41119	0.33672	1	9	0.00462519	0.00261864	0	2.94356e-06	-5.48923e-05	4.3752e-05	102.89	0.0167079	-0.00372727	-0.0162868	-21.4965	1.75676	1.63456	0.643755	0.525151	0.211575	0.56617	21.9437	336.72	835.774	901.054	-68.0563	0.0000000E+000	0.0000000E+000	0.0000000E+000	68.0563	0.0000000E+000	0.0000000E+000	0.0000000E+000	-68.0563	0.0000000E+000	0.0000000E+000	0.0000000E+000	-21.9437	0.0000000E+000	0.0000000E+000	0.0000000E+000	21.9437	2.4821	68.0563	2.94356e-06	1.73213e-05	-3.57641e-09	1.73249e-05	0.265909	4080.45	0.84251	4081.29
68132	1.81032	0.761045	1.96379	-22.8015	2.41855	0.265851	0.0606455	3.06944	0.460989	1	9	0.00505885	0.00257607	0	1.38852e-05	0.000402963	3.91462e-05	88.7585	0.0151961	0.00032926	-0.0151925	-22.388	1.95825	1.81065	0.745852	0.469427	0.197343	0.509221	22.8015	460.989	1096.57	1189.53	-67.1985	0.0000000E+000	0.0000000E+000	0.0000000E+000	67.1985	0.0000000E+000	0.0000000E+000	0.0000000E+000	-67.1985	0.0000000E+000	0.0000000E+000	0.0000000E+000	-22.8015	0.0000000E+000	0.0000000E+000	0.0000000E+000	22.8015	2.37873	67.1985	1.09416e-05	1.61227e-05	2.44379e-08	1.60982e-05	0.265448	4383.69	6.64457	4377.04
46420.4	2.02497	0.861352	2.20055	-23.0432	2.92754	0.265855	0.0639611	3.98044	0.609859	1	9	0.00502558	0.00228379	0	3.70449e-05	0.000288499	2.49319e-05	43.8762	0.0109169	0.00786935	-0.00756654	-22.7822	2.20485	2.03284	0.853785	0.418173	0.177876	0.454432	23.0432	609.859	1433.73	1558.05	-66.9568	0.0000000E+000	0.0000000E+000	0.0000000E+000	66.9568	0.0000000E+000	0.0000000E+000	0.0000000E+000	-66.9568	0.0000000E+000	0.0000000E+000	0.0000000E+000	-23.0432	0.0000000E+000	0.0000000E+000	0.0000000E+000	23.0432	2.35092	66.9568	2.31598e-05	1.70044e-05	1.84527e-08	1.69859e-05	0.265566	4156.51	4.51054	4152
31621.1	2.23304	0.964269	2.43234	-23.3556	3.43457	0.265846	0.0634023	5.21969	0.820334	1	9	0.00512696	0.00210783	0	4.0114e-05	0.000307577	1.12493e-05	-1.40096	0.00533692	0.00533532	0.000130482	-23.3087	2.43729	2.23838	0.964399	0.377439	0.162985	0.411126	23.3556	820.334	1899.72	2069.27	-66.6444	0.0000000E+000	0.0000000E+000	0.0000000E+000	66.6444	0.0000000E+000	0.0000000E+000	0.0000000E+000	-66.6444	0.0000000E+000	0.0000000E+000	0.0000000E+000	-23.3556	0.0000000E+000	0.0000000E+000	0.0000000E+000	23.3556	2.31579	66.6444	3.06905e-06	1.68553e-05	1.95011e-08	1.68358e-05	0.265538	4193	4.85119	4188.15
21544.7	2.46745	1.0962	2.69999	-23.954	3.81756	0.26584	0.0539024	6.7389	1.11083	1	9	0.00490151	0.00181538	0	4.4256e-05	0.000288499	8.52167e-06	10.8584	0.00469415	0.00461011	-0.000884294	-23.8972	2.70385	2.47206	1.09532	0.338472	0.150372	0.370372	23.954	1110.83	2500.36	2736.01	-66.046	0.0000000E+000	0.0000000E+000	0.0000000E+000	66.046	0.0000000E+000	0.0000000E+000	0.0000000E+000	-66.046	0.0000000E+000	0.0000000E+000	0.0000000E+000	-23.954	0.0000000E+000	0.0000000E+000	0.0000000E+000	23.954	2.2509	66.046	4.14201e-06	1.43294e-05	1.55508e-08	1.43139e-05	0.265551	4931.87	5.35225	4926.51
14678.6	2.7145	1.20709	2.97079	-23.9739	4.20054	0.265839	0.0621729	8.98248	1.48297	1	9	0.00489147	0.00164652	0	5.08742e-05	-0.000207511	6.84743e-06	-86.0626	0.00415872	0.000285563	0.0041489	-24.0447	2.97273	2.71478	1.21124	0.307572	0.136772	0.336611	23.9739	1482.97	3334.9	3649.76	-66.0261	0.0000000E+000	0.0000000E+000	0.0000000E+000	66.0261	0.0000000E+000	0.0000000E+000	0.0000000E+000	-66.0261	0.0000000E+000	0.0000000E+000	0.0000000E+000	-23.9739	0.0000000E+000	0.0000000E+000	0.0000000E+000	23.9739	2.2488	66.0261	6.61825e-06	1.6528e-05	-1.29015e-08	1.65409e-05	0.266047	4275.81	3.33764	4279.14
10002.2	2.98059	1.3191	3.25944	-23.8725	4.46153	0.265854	0.0619121	12.0627	1.97568	1	9	0.00451591	0.00138549	0	5.44439e-05	4.04943e-05	1.06279e-05	-132.351	0.00767089	-0.00516764	0.00566904	-24.0005	3.25702	2.97542	1.32477	0.280554	0.124163	0.306801	23.8725	1975.68	4464.16	4881.8	-66.1275	0.0000000E+000	0.0000000E+000	0.0000000E+000	66.1275	0.0000000E+000	0.0000000E+000	0.0000000E+000	-66.1275	0.0000000E+000	0.0000000E+000	0.0000000E+000	-23.8725	0.0000000E+000	0.0000000E+000	0.0000000E+000	23.8725	2.25956	66.1275	3.56971e-06	1.64596e-05	2.50708e-09	1.64571e-05	0.265813	4294.05	0.65406	4293.4
6810.42	3.32682	1.55199	3.67103	-25.0095	4.84454	0.265849	0.0575906	15.0576	2.6913	1	9	0.00497966	0.00135648	0	6.22582e-05	0.000231267	0.000123374	123.888	0.0909514	-0.0507114	-0.0755018	-24.2604	3.59346	3.27611	1.47649	0.246862	0.115164	0.272403	25.0095	2691.29	5769	6365.88	-64.9905	0.0000000E+000	0.0000000E+000	0.0000000E+000	64.9905	0.0000000E+000	0.0000000E+000	0.0000000E+000	-64.9905	0.0000000E+000	0.0000000E+000	0.0000000E+000	-25.0095	0.0000000E+000	0.0000000E+000	0.0000000E+000	25.0095	2.14358	64.9905	7.81429e-06	1.53104e-05	1.33188e-08	1.52971e-05	0.265618	4616.19	4.01571	4612.18
4646	3.61888	1.70843	4.00188	-25.2714	5.26761	0.26584	-0.0097911	20.0514	3.65435	1	10	0.00502466	0.00125558	0	6.4066e-05	0.000250345	1.27964e-05	-29.724	0.0101916	0.00885064	0.00505322	-25.2827	4.01204	3.62773	1.71348	0.225968	0.106677	0.249883	25.2714	3654.35	7740.83	8560.07	-64.7286	0.0000000E+000	0.0000000E+000	0.0000000E+000	64.7286	0.0000000E+000	0.0000000E+000	0.0000000E+000	-64.7286	0.0000000E+000	0.0000000E+000	0.0000000E+000	-25.2714	0.0000000E+000	0.0000000E+000	0.0000000E+000	25.2714	2.11825	64.7286	1.80774e-06	-2.60287e-06	-2.45115e-09	-2.60042e-06	0.26559	27151.2	25.5686	27125.6
3163.08	3.95046	1.97186	4.41525	-26.5259	5.64167	0.26576	-0.0153592	25.5172	5.08951	1	10	0.00494234	0.00111938	0	6.2238e-05	9.77262e-05	6.66896e-06	-119.664	0.00595772	-0.00294852	0.00517693	-26.6031	4.41492	3.94752	1.97704	0.202646	0.10115	0.226488	26.5259	5089.51	10196.4	11396.1	-63.4741	0.0000000E+000	0.0000000E+000	0.0000000E+000	63.4741	0.0000000E+000	0.0000000E+000	0.0000000E+000	-63.4741	0.0000000E+000	0.0000000E+000	0.0000000E+000	-26.5259	0.0000000E+000	0.0000000E+000	0.0000000E+000	26.5259	2.00342	63.4741	-1.82794e-06	-4.08185e-06	-1.50099e-09	-4.08035e-06	0.265662	17303	6.36273	17296.7
2155.69	4.31245	2.32602	4.89975	-28.3413	6.09282	0.265762	-0.00638096	31.741	7.15318	1	10	0.00487121	0.000994174	0	6.23579e-05	0.000116803	1.13844e-05	46.1187	0.0114511	0.00793749	-0.00825367	-28.2123	4.90283	4.32039	2.31777	0.179629	0.0968869	0.204092	28.3413	7153.18	13262	15068.1	-61.6587	0.0000000E+000	0.0000000E+000	0.0000000E+000	61.6587	0.0000000E+000	0.0000000E+000	0.0000000E+000	-61.6587	0.0000000E+000	0.0000000E+000	0.0000000E+000	-28.3413	0.0000000E+000	0.0000000E+000	0.0000000E+000	28.3413	1.854	61.6587	1.19831e-07	-1.69582e-06	-7.45318e-10	-1.69507e-06	0.265645	41649.3	18.305	41631
1468.59	4.70992	2.80784	5.48337	-30.8015	6.54409	0.265769	-0.00550885	38.5964	10.1204	1	10	0.0048093	0.000877071	0	6.09133e-05	2.1417e-05	1.07224e-05	-154.347	0.0122252	-0.0110202	0.00529253	-30.9081	5.47662	4.6989	2.81313	0.156646	0.0933852	0.18237	30.8015	10120.4	16976.1	19763.9	-59.1985	0.0000000E+000	0.0000000E+000	0.0000000E+000	59.1985	0.0000000E+000	0.0000000E+000	0.0000000E+000	-59.1985	0.0000000E+000	0.0000000E+000	0.0000000E+000	-30.8015	0.0000000E+000	0.0000000E+000	0.0000000E+000	30.8015	1.67742	59.1985	-1.44455e-06	-1.46408e-06	-1.17983e-10	-1.46396e-06	0.265747	48243.9	3.88773	48240
1000.32	5.17952	3.48345	6.24195	-33.9225	6.9948	0.265769	-0.00602318	45.6742	14.225	1	10	0.00476639	0.000763607	0	6.01798e-05	0.000135881	7.20008e-06	-99.4584	0.00942904	-0.00154948	0.00930086	-34.0013	6.24586	5.17797	3.49275	0.132938	0.0894067	0.160206	33.9225	14225	21151	25489.5	-56.0775	0.0000000E+000	0.0000000E+000	0.0000000E+000	56.0775	0.0000000E+000	0.0000000E+000	0.0000000E+000	-56.0775	0.0000000E+000	0.0000000E+000	0.0000000E+000	-33.9225	0.0000000E+000	0.0000000E+000	0.0000000E+000	33.9225	1.48689	56.0775	-7.33534e-07	-1.60078e-06	-8.18434e-10	-1.59996e-06	0.265633	44124.4	22.5596	44101.9
681.09	5.76488	4.39841	7.25119	-37.3424	7.44559	0.265778	-0.00580329	53.1276	19.5476	1	10	0.00473733	0.000653317	0	5.90462e-05	0.000116803	9.63723e-06	34.1336	0.0147512	0.0122101	-0.00827727	-37.232	7.25589	5.77709	4.39013	0.109641	0.0836521	0.137908	37.3424	19547.6	25620.5	32226	-52.6576	0.0000000E+000	0.0000000E+000	0.0000000E+000	52.6576	0.0000000E+000	0.0000000E+000	0.0000000E+000	-52.6576	0.0000000E+000	0.0000000E+000	0.0000000E+000	-37.3424	0.0000000E+000	0.0000000E+000	0.0000000E+000	37.3424	1.31067	52.6576	-1.13355e-06	-1.54239e-06	-6.77845e-10	-1.54171e-06	0.265661	45797.8	20.1271	45777.7
463.961	6.54207	5.61021	8.61819	-40.615	7.89732	0.265769	-0.00556477	61.1448	25.9111	1	10	0.0047219	0.000547899	0	5.86576e-05	2.33964e-06	6.89241e-06	66.9692	0.0125797	0.00492151	-0.011577	-40.5353	8.6144	6.54699	5.59863	0.0880812	0.0755348	0.116034	40.615	25911.1	30215	39803.7	-49.385	0.0000000E+000	0.0000000E+000	0.0000000E+000	49.385	0.0000000E+000	0.0000000E+000	0.0000000E+000	-49.385	0.0000000E+000	0.0000000E+000	0.0000000E+000	-40.615	0.0000000E+000	0.0000000E+000	0.0000000E+000	40.615	1.1661	49.385	-3.88585e-07	-1.47894e-06	-1.30196e-11	-1.47893e-06	0.265766	47759.2	0.420439	47758.7
316.316	7.58567	7.22901	10.4786	-43.6209	8.34505	0.265764	-0.00625798	69.6017	33.1262	1	10	0.00469555	0.000448108	0	5.76073e-05	-5.48923e-05	3.61552e-06	-23.5573	0.0080684	0.00739599	0.00322467	-43.6058	10.4862	7.59307	7.23224	0.0690856	0.0658374	0.0954326	43.6209	33126.2	34760.6	48017.1	-46.3791	0.0000000E+000	0.0000000E+000	0.0000000E+000	46.3791	0.0000000E+000	0.0000000E+000	0.0000000E+000	-46.3791	0.0000000E+000	0.0000000E+000	0.0000000E+000	-43.6209	0.0000000E+000	0.0000000E+000	0.0000000E+000	43.6209	1.04934	46.3791	-1.05033e-06	-1.66315e-06	3.43515e-10	-1.66349e-06	0.265819	42468	8.77156	42476.7
215.345	9.18866	9.28944	13.0662	-45.3125	8.7936	0.26577	-0.00693629	79.5603	40.2141	1	10	0.00469555	0.000359366	0	5.65799e-05	0.00021219	8.17978e-06	-6.28658	0.0227617	0.0226248	0.00249244	-45.2497	13.0839	9.21129	9.29194	0.0538213	0.0544117	0.0765334	45.3125	40214.1	39777.8	56563.6	-44.6875	0.0000000E+000	0.0000000E+000	0.0000000E+000	44.6875	0.0000000E+000	0.0000000E+000	0.0000000E+000	-44.6875	0.0000000E+000	0.0000000E+000	0.0000000E+000	-45.3125	0.0000000E+000	0.0000000E+000	0.0000000E+000	45.3125	0.989151	44.6875	-1.02744e-06	-1.84346e-06	-1.47181e-09	-1.84199e-06	0.265558	38315.9	30.5913	38285.3
146.737	11.5087	11.7269	16.4307	-45.5381	9.24051	0.265753	-0.00850161	92.4903	47.1138	1	10	0.00469004	0.000285443	0	5.53839e-05	-5.48923e-05	7.14661e-06	-45.505	0.0250369	0.017547	0.0178591	-45.5381	16.4558	11.5262	11.7448	0.0426295	0.0434379	0.0608615	45.5381	47113.8	46237	66011.9	-44.4619	0.0000000E+000	0.0000000E+000	0.0000000E+000	44.4619	0.0000000E+000	0.0000000E+000	0.0000000E+000	-44.4619	0.0000000E+000	0.0000000E+000	0.0000000E+000	-45.5381	0.0000000E+000	0.0000000E+000	0.0000000E+000	45.5381	0.98139	44.4619	-1.19598e-06	-2.25933e-06	4.66673e-10	-2.2598e-06	0.265808	31259.2	6.4567	31265.6
100.032	14.9045	14.4043	20.7274	-44.0224	9.69181	0.265763	-0.00582567	110.456	53.3436	1	10	0.00468613	0.000226083	0	5.49616e-05	9.77262e-05	7.90872e-06	42.6423	0.0349814	0.0257322	-0.0236971	-43.9258	20.7295	14.9302	14.3806	0.0346916	0.0335275	0.0482452	44.0224	53343.6	55195.7	76760	-45.9776	0.0000000E+000	0.0000000E+000	0.0000000E+000	45.9776	0.0000000E+000	0.0000000E+000	0.0000000E+000	-45.9776	0.0000000E+000	0.0000000E+000	0.0000000E+000	-44.0224	0.0000000E+000	0.0000000E+000	0.0000000E+000	44.0224	1.03472	45.9776	-4.2229e-07	-1.54824e-06	-5.6932e-10	-1.54767e-06	0.265665	45619.3	16.7751	45602.5
68.104	19.6811	16.7663	25.8545	-40.4275	10.4055	0.265829	-0.00165085	139.384	58.6155	1	11	0.00469465	0.00018158	0	5.47377e-05	-7.39696e-05	8.41594e-06	46.6066	0.0463484	0.0318415	-0.0336792	-40.325	25.8569	19.713	16.7326	0.0294428	0.0250822	0.038678	40.4275	58615.5	68806	90388.3	-49.5725	0.0000000E+000	0.0000000E+000	0.0000000E+000	49.5725	0.0000000E+000	0.0000000E+000	0.0000000E+000	-49.5725	0.0000000E+000	0.0000000E+000	0.0000000E+000	-40.4275	0.0000000E+000	0.0000000E+000	0.0000000E+000	40.4275	1.17385	49.5725	-2.23871e-07	-4.38844e-07	1.22113e-10	-4.38967e-07	0.265903	161025	44.8069	161070
46.4415	25.3314	18.0344	31.0953	-35.4486	10.8406	0.265816	-0.00215433	190.026	63.9184	1	11	0.00468388	0.00015063	0	5.44994e-05	0.000116803	5.5013e-06	-101.713	0.036522	-0.00741424	0.0357615	-35.5101	31.11	25.3239	18.0702	0.0261981	0.0186514	0.0321592	35.4486	63918.4	89780.7	110209	-54.5514	0.0000000E+000	0.0000000E+000	0.0000000E+000	54.5514	0.0000000E+000	0.0000000E+000	0.0000000E+000	-54.5514	0.0000000E+000	0.0000000E+000	0.0000000E+000	-35.4486	0.0000000E+000	0.0000000E+000	0.0000000E+000	35.4486	1.40461	54.5514	-2.3833e-07	-5.72655e-07	-2.51633e-10	-5.72403e-07	0.265699	123387	54.2181	123333
31.6296	31.2872	17.9334	36.0624	-29.8208	11.2716	0.265803	-0.00230217	280.584	69.3875	1	11	0.0046816	0.000129819	0	5.39995e-05	0.000250345	6.78398e-06	31.2929	0.052257	0.0446548	-0.027143	-29.7481	36.0877	31.3319	17.9063	0.0240579	0.0137897	0.0277297	29.8208	69387.5	121055	139531	-60.1792	0.0000000E+000	0.0000000E+000	0.0000000E+000	60.1792	0.0000000E+000	0.0000000E+000	0.0000000E+000	-60.1792	0.0000000E+000	0.0000000E+000	0.0000000E+000	-29.8208	0.0000000E+000	0.0000000E+000	0.0000000E+000	29.8208	1.74463	60.1792	-4.99901e-07	-6.11923e-07	-5.76335e-10	-6.11346e-07	0.265553	115458	108.743	115349
21.5517	36.657	16.5934	40.2377	-24.3547	11.6925	0.265805	-0.00240867	445.043	75.6845	1	11	0.00467969	0.000116301	0	5.37329e-05	0.000231267	1.80227e-05	62.6239	0.154966	0.0712578	-0.137611	-24.1344	40.2462	36.7282	16.4558	0.0226407	0.0102487	0.0248523	24.3547	75684.5	167197	183529	-65.6453	0.0000000E+000	0.0000000E+000	0.0000000E+000	65.6453	0.0000000E+000	0.0000000E+000	0.0000000E+000	-65.6453	0.0000000E+000	0.0000000E+000	0.0000000E+000	-24.3547	0.0000000E+000	0.0000000E+000	0.0000000E+000	24.3547	2.20913	65.6453	-2.66577e-07	-6.40237e-07	-5.57047e-10	-6.3968e-07	0.265574	110353	96.0145	110257
14.6852	41.1724	14.3974	43.6171	-19.2739	12.1531	0.265824	-0.00188323	752.764	82.0182	1	11	0.00468421	0.000107394	0	5.35656e-05	2.1417e-05	6.99046e-06	-61.3851	0.0650919	0.0311738	0.0571415	-19.3312	43.6654	41.2036	14.4545	0.0216418	0.00756779	0.0229268	19.2739	82018.2	234549	248476	-70.7261	0.0000000E+000	0.0000000E+000	0.0000000E+000	70.7261	0.0000000E+000	0.0000000E+000	0.0000000E+000	-70.7261	0.0000000E+000	0.0000000E+000	0.0000000E+000	-19.2739	0.0000000E+000	0.0000000E+000	0.0000000E+000	19.2739	2.85972	70.7261	-1.6734e-07	-5.00606e-07	-4.0333e-11	-5.00566e-07	0.265802	141153	11.3725	141142
10.0032	44.5185	12.0428	46.1186	-15.137	12.6038	0.265815	-0.00206905	1321.15	90.086	1	11	0.00468789	0.000101648	0	5.3979e-05	2.33964e-06	3.35193e-06	-130.977	0.0329757	-0.021624	0.0248958	-15.1739	46.1043	44.4969	12.0677	0.0209309	0.00566208	0.0216832	15.137	90086	333019	344989	-74.863	0.0000000E+000	0.0000000E+000	0.0000000E+000	74.863	0.0000000E+000	0.0000000E+000	0.0000000E+000	-74.863	0.0000000E+000	0.0000000E+000	0.0000000E+000	-15.137	0.0000000E+000	0.0000000E+000	0.0000000E+000	15.137	3.69668	74.863	4.1344e-07	-5.49985e-07	-4.84084e-12	-5.49981e-07	0.265813	128472	1.13078	128471
6.81719	46.8613	9.84516	47.8843	-11.8648	12.9435	0.26583	-0.000539266	2371.33	100.242	1	11	0.00467099	9.75474e-05	0	5.35993e-05	-9.30469e-05	3.83649e-05	-19.4122	0.393295	0.370937	0.130717	-11.9261	48.2742	47.2322	9.97588	0.0204375	0.00429375	0.0208837	11.8648	100242	477136	487553	-78.1352	0.0000000E+000	0.0000000E+000	0.0000000E+000	78.1352	0.0000000E+000	0.0000000E+000	0.0000000E+000	-78.1352	0.0000000E+000	0.0000000E+000	0.0000000E+000	-11.8648	0.0000000E+000	0.0000000E+000	0.0000000E+000	11.8648	4.75983	78.1352	-3.79669e-07	-1.43353e-07	5.01771e-11	-1.43403e-07	0.265923	492947	172.543	493119
4.63925	48.5566	8.11779	49.2305	-9.49104	13.4275	0.26582	-0.00149073	4226.05	114.905	1	11	0.00468046	9.50723e-05	0	5.25714e-05	0.000174035	1.10377e-05	74.8874	0.116098	0.0302688	-0.112083	-9.3566	49.242	48.5869	8.00571	0.0200345	0.00334941	0.0203126	9.49104	114906	687308	696847	-80.509	0.0000000E+000	0.0000000E+000	0.0000000E+000	80.509	0.0000000E+000	0.0000000E+000	0.0000000E+000	-80.509	0.0000000E+000	0.0000000E+000	0.0000000E+000	-9.49104	0.0000000E+000	0.0000000E+000	0.0000000E+000	9.49104	5.98151	80.509	-1.02796e-06	-3.96265e-07	-2.59439e-10	-3.96006e-07	0.265646	178316	116.745	178199
3.1604	50.0133	6.80963	50.4748	-7.7535	14.1204	0.265823	-0.000695484	7395.29	134.602	1	11	0.00468267	9.27724e-05	0	5.30803e-05	9.77262e-05	5.29468e-06	48.3099	0.0570717	0.0379585	-0.0426185	-7.69979	50.5067	50.0513	6.76701	0.0196307	0.00267285	0.0198119	7.7535	134602	988588	997709	-82.2465	0.0000000E+000	0.0000000E+000	0.0000000E+000	82.2465	0.0000000E+000	0.0000000E+000	0.0000000E+000	-82.2465	0.0000000E+000	0.0000000E+000	0.0000000E+000	-7.7535	0.0000000E+000	0.0000000E+000	0.0000000E+000	7.7535	7.3445	82.2465	5.08949e-07	-1.84876e-07	-6.7967e-11	-1.84808e-07	0.265725	382213	140.515	382072
2.15577	51.0658	5.93796	51.4099	-6.63259	15.6342	0.265828	-0.000679576	12433.2	165.868	1	12	0.00468418	9.11143e-05	0	5.46209e-05	0.00021219	6.40779e-06	-27.5997	0.0703269	0.0623242	0.0325818	-6.6606	51.4756	51.1282	5.97054	0.0193213	0.00224669	0.0194515	6.63259	165868	1.42644e+06	1.43606e+06	-83.3674	0.0000000E+000	0.0000000E+000	0.0000000E+000	83.3674	0.0000000E+000	0.0000000E+000	0.0000000E+000	-83.3674	0.0000000E+000	0.0000000E+000	0.0000000E+000	-6.63259	0.0000000E+000	0.0000000E+000	0.0000000E+000	6.63259	8.5999	83.3674	1.5406e-06	-1.80651e-07	-1.44199e-10	-1.80506e-07	0.265616	391168	312.239	390856
1.46631	52.0777	5.28646	52.3454	-5.7963	17.0943	0.265832	-0.000300421	20531.9	209.413	1	12	0.00468301	8.94637e-05	0	5.41817e-05	0.000174035	2.69386e-06	-86.4557	0.0301112	0.00186149	0.0300536	-5.82882	52.3503	52.0796	5.31652	0.0190062	0.00192934	0.0191039	5.7963	209413	2.06296e+06	2.07356e+06	-84.2037	0.0000000E+000	0.0000000E+000	0.0000000E+000	84.2037	0.0000000E+000	0.0000000E+000	0.0000000E+000	-84.2037	0.0000000E+000	0.0000000E+000	0.0000000E+000	-5.7963	0.0000000E+000	0.0000000E+000	0.0000000E+000	5.7963	9.85115	84.2037	-4.39214e-07	-7.98614e-08	-5.22839e-11	-7.98091e-08	0.265658	884865	579.305	884285
1.00006	52.9708	4.92529	53.1993	-5.31216	19.2218	0.265834	-0.000194483	32311.8	276.957	1	12	0.00468248	8.80177e-05	0	5.16487e-05	0.000116803	5.59929e-06	-7.45237	0.0636155	0.0630782	0.00825106	-5.31472	53.2628	53.0338	4.93354	0.0187165	0.00174029	0.0187973	5.31216	276958	2.97864e+06	2.99148e+06	-84.6878	0.0000000E+000	0.0000000E+000	0.0000000E+000	84.6878	0.0000000E+000	0.0000000E+000	0.0000000E+000	-84.6878	0.0000000E+000	0.0000000E+000	0.0000000E+000	-5.31216	0.0000000E+000	0.0000000E+000	0.0000000E+000	5.31216	10.7549	84.6878	-2.53306e-06	-5.17001e-08	-2.27163e-11	-5.16774e-08	0.265717	1.36688e+06	600.585	1.36628e+06
0.681362	53.8855	4.74011	54.0935	-5.02716	22.334	0.265832	-0.000217447	49278.1	378.39	1	12	0.00468376	8.65862e-05	0	4.7611e-05	-7.39696e-05	2.85004e-06	-43.7264	0.0329156	0.0237864	0.0227517	-5.04895	54.1192	53.9092	4.76286	0.0184154	0.00161993	0.0184865	5.02716	378390	4.30153e+06	4.31814e+06	-84.9728	0.0000000E+000	0.0000000E+000	0.0000000E+000	84.9728	0.0000000E+000	0.0000000E+000	0.0000000E+000	-84.9728	0.0000000E+000	0.0000000E+000	0.0000000E+000	-5.02716	0.0000000E+000	0.0000000E+000	0.0000000E+000	5.02716	11.368	84.9728	-4.03761e-06	-5.78043e-08	1.60845e-11	-5.78204e-08	0.265906	1.22252e+06	340.173	1.22286e+06
0.464091	54.938	4.75804	55.1437	-4.94989	26.8904	0.265833	-0.000431363	72075.7	536.605	1	12	0.00468634	8.49842e-05	0	4.38237e-05	0.000174035	3.45288e-06	-9.41358	0.0406297	0.0400826	0.00664538	-4.95318	55.1842	54.9781	4.76469	0.0180668	0.00156472	0.0181344	4.94989	536604	6.19582e+06	6.21902e+06	-85.0501	0.0000000E+000	0.0000000E+000	0.0000000E+000	85.0501	0.0000000E+000	0.0000000E+000	0.0000000E+000	-85.0501	0.0000000E+000	0.0000000E+000	0.0000000E+000	-4.94989	0.0000000E+000	0.0000000E+000	0.0000000E+000	4.94989	11.5463	85.0501	-3.78735e-06	-1.14671e-07	-7.50725e-11	-1.14596e-07	0.265659	616262	403.454	615859
0.316193	56.0034	5.00626	56.2267	-5.10821	33.5649	0.265838	-0.000568734	100544	797.068	1	12	0.00468356	8.32977e-05	0	4.33642e-05	0.000326654	2.10039e-06	2.09251	0.0252155	0.0251987	-0.000920693	-5.10499	56.2517	56.0286	5.00534	0.0177145	0.00158353	0.0177851	5.10821	797068	8.91655e+06	8.9521e+06	-84.8918	0.0000000E+000	0.0000000E+000	0.0000000E+000	84.8918	0.0000000E+000	0.0000000E+000	0.0000000E+000	-84.8918	0.0000000E+000	0.0000000E+000	0.0000000E+000	-5.10821	0.0000000E+000	0.0000000E+000	0.0000000E+000	5.10821	11.1867	84.8918	-4.59448e-07	-1.51191e-07	-1.85779e-10	-1.51005e-07	0.265511	467420	574.353	466846
0.215268	57.0542	5.38939	57.3082	-5.3962	43.3583	0.265831	-0.00078062	137183	1213.24	1	12	0.00468588	8.17664e-05	0	4.89974e-05	5.95716e-05	2.92831e-06	-28.2085	0.0358131	0.0315597	0.0169282	-5.41008	57.3412	57.0857	5.40632	0.0173722	0.00164099	0.0174495	5.3962	1.21324e+06	1.28439e+07	1.2901e+07	-84.6038	0.0000000E+000	0.0000000E+000	0.0000000E+000	84.6038	0.0000000E+000	0.0000000E+000	0.0000000E+000	-84.6038	0.0000000E+000	0.0000000E+000	0.0000000E+000	-5.3962	0.0000000E+000	0.0000000E+000	0.0000000E+000	5.3962	10.5864	84.6038	5.63314e-06	-2.07513e-07	-4.65028e-11	-2.07466e-07	0.265771	340538	76.3131	340462
0.146929	58.1966	5.83514	58.4884	-5.72568	57.6967	0.265833	-0.000668743	185636	1847.67	1	12	0.00468353	8.00762e-05	0	6.16636e-05	7.86489e-05	2.73714e-06	16.7476	0.0341817	0.0327318	-0.00984963	-5.71288	58.52	58.2294	5.82529	0.0170121	0.00170573	0.0170974	5.72568	1.84767e+06	1.84277e+07	1.85201e+07	-84.2743	0.0000000E+000	0.0000000E+000	0.0000000E+000	84.2743	0.0000000E+000	0.0000000E+000	0.0000000E+000	-84.2743	0.0000000E+000	0.0000000E+000	0.0000000E+000	-5.72568	0.0000000E+000	0.0000000E+000	0.0000000E+000	5.72568	9.97348	84.2743	1.26662e-05	-1.77774e-07	-5.25959e-11	-1.77721e-07	0.265754	397511	117.607	397394
0.0999041	59.5666	6.48297	59.9183	-6.21138	78.7728	0.265829	-0.000376794	245732	2876.68	1	12	0.00468399	7.81729e-05	0	7.761e-05	4.04943e-05	2.66979e-06	0.149538	0.0341523	0.0341522	-8.91354e-05	-6.20777	59.9523	59.6007	6.48288	0.0165914	0.00180574	0.0166894	6.21138	2.87668e+06	2.64314e+07	2.65875e+07	-83.7886	0.0000000E+000	0.0000000E+000	0.0000000E+000	83.7886	0.0000000E+000	0.0000000E+000	0.0000000E+000	-83.7886	0.0000000E+000	0.0000000E+000	0.0000000E+000	-6.21138	0.0000000E+000	0.0000000E+000	0.0000000E+000	6.21138	9.18815	83.7886	1.59464e-05	-1.00163e-07	-1.5258e-11	-1.00148e-07	0.265789	705504	107.471	705396
0.0680626	61.0509	7.51704	61.512	-7.01935	109.699	0.265827	-7.09863e-05	311075	4645.57	1	12	0.00468505	7.61649e-05	0	8.90568e-05	0.000326654	2.12906e-06	5.71532	0.0279533	0.0278144	-0.00278376	-7.01361	61.5392	61.0787	7.51426	0.0161352	0.00198668	0.016257	7.01935	4.64557e+06	3.77298e+07	3.80147e+07	-82.9807	0.0000000E+000	0.0000000E+000	0.0000000E+000	82.9807	0.0000000E+000	0.0000000E+000	0.0000000E+000	-82.9807	0.0000000E+000	0.0000000E+000	0.0000000E+000	-7.01935	0.0000000E+000	0.0000000E+000	0.0000000E+000	7.01935	8.12167	82.9807	1.14469e-05	-1.88701e-08	-2.31879e-11	-1.88469e-08	0.2655	3.74477e+06	4601.65	3.74016e+06
0.0464052	62.6372	9.02375	63.2839	-8.19784	155.05	0.265831	0.000307389	380073	7727.78	1	12	0.00468647	7.40547e-05	0	7.95624e-05	0.000231267	2.24451e-06	-1.94019	0.0303088	0.0302914	0.00102614	-8.19485	63.314	62.6675	9.02477	0.0156404	0.00225321	0.0158018	8.19784	7.72778e+06	5.36414e+07	5.41952e+07	-81.8022	0.0000000E+000	0.0000000E+000	0.0000000E+000	81.8022	0.0000000E+000	0.0000000E+000	0.0000000E+000	-81.8022	0.0000000E+000	0.0000000E+000	0.0000000E+000	-8.19784	0.0000000E+000	0.0000000E+000	0.0000000E+000	8.19784	6.94137	81.8022	-9.49449e-06	8.17134e-08	7.1089e-11	8.16423e-08	0.2656	864804	752.361	864051
0.0315922	64.3017	10.9528	65.2279	-9.66669	221.656	0.265827	0.000335987	459954	12968.8	1	12	0.00468328	7.17988e-05	0	3.27872e-05	7.86489e-05	2.15294e-06	-9.07307	0.0299858	0.0296106	0.00472857	-9.66641	65.2578	64.3313	10.9575	0.0151132	0.0025743	0.0153309	9.66669	1.29688e+07	7.61371e+07	7.72337e+07	-80.3333	0.0000000E+000	0.0000000E+000	0.0000000E+000	80.3333	0.0000000E+000	0.0000000E+000	0.0000000E+000	-80.3333	0.0000000E+000	0.0000000E+000	0.0000000E+000	-9.66669	0.0000000E+000	0.0000000E+000	0.0000000E+000	9.66669	5.87079	80.3333	-4.67752e-05	8.93147e-08	2.6425e-11	8.92882e-08	0.265749	791183	234.083	790949
0.0215268	66.356	13.3465	67.6849	-11.3724	319.393	0.265827	7.49167e-05	553955	21538.9	1	12	0.00468407	6.92041e-05	0	-5.49785e-05	0.000269422	2.14688e-06	17.8258	0.0310225	0.0295331	-0.0094967	-11.3596	67.712	66.3855	13.337	0.0144843	0.00291329	0.0147743	11.3724	2.15389e+07	1.07087e+08	1.09232e+08	-78.6276	0.0000000E+000	0.0000000E+000	0.0000000E+000	78.6276	0.0000000E+000	0.0000000E+000	0.0000000E+000	-78.6276	0.0000000E+000	0.0000000E+000	0.0000000E+000	-11.3724	0.0000000E+000	0.0000000E+000	0.0000000E+000	11.3724	4.9718	78.6276	-8.77657e-05	1.99149e-08	2.01842e-11	1.98947e-08	0.265557	3.5483e+06	3596.28	3.5447e+06
0.0146812	69.1386	16.8138	71.1537	-13.6684	462.696	0.265828	-0.000290688	644751	36002.4	1	12	0.00468508	6.58444e-05	0	-0.000158125	2.1417e-05	1.93435e-06	-9.81391	0.0293776	0.0289477	0.00500738	-13.6669	71.1831	69.1676	16.8189	0.0136561	0.00332102	0.0140541	13.6684	3.60024e+07	1.48042e+08	1.52357e+08	-76.3316	0.0000000E+000	0.0000000E+000	0.0000000E+000	76.3316	0.0000000E+000	0.0000000E+000	0.0000000E+000	-76.3316	0.0000000E+000	0.0000000E+000	0.0000000E+000	-13.6684	0.0000000E+000	0.0000000E+000	0.0000000E+000	13.6684	4.112	76.3316	-0.000103147	-7.72731e-08	-6.22565e-12	-7.72669e-08	0.265807	914481	73.6768	914407
0.0100092	72.2609	21.7347	75.4588	-16.7403	672.877	0.265832	-0.000572521	731591	60695.4	1	12	0.00468308	6.20614e-05	0	-0.00021112	0.000383886	1.11887e-06	46.6413	0.0180285	0.0123777	-0.013108	-16.728	75.4669	72.2733	21.7216	0.0126906	0.0038171	0.0132523	16.7403	6.06954e+07	2.01793e+08	2.10723e+08	-73.2597	0.0000000E+000	0.0000000E+000	0.0000000E+000	73.2597	0.0000000E+000	0.0000000E+000	0.0000000E+000	-73.2597	0.0000000E+000	0.0000000E+000	0.0000000E+000	-16.7403	0.0000000E+000	0.0000000E+000	0.0000000E+000	16.7403	3.32468	73.2597	-5.29952e-05	-1.52195e-07	-2.19783e-10	-1.51975e-07	0.265449	464319	670.518	463648