File: txt/18730_R302_UA699_SOC00_C05.mpt
EC-Lab ASCII FILE
Nb header lines : 65

Potentio Electrochemical Impedance Spectroscopy

Run on channel : 5 (SN 65912)
User :
CE vs. WE compliance from -10 V to 10 V
Electrode connection : standard
Potential control : Ewe
Ewe ctrl range : min = -10.00 V, max = 10.00 V
Safety Limits :
	Do not start on E overload
Acquisition started on : 10/31/2025 11:24:16.949
Technique started on : 10/31/2025 11:24:18.872
Loaded Setting File :  C:\Users\Celltest\OneDrive - store-dot.com\Documents\EC-Lab\Data\@Biologic Test Protocols\anode half cell EIS SOC00.mps
Saved on :
	File : 18730_R302_UA699_SOC00_C05.mpr
	Directory : C:\Users\Celltest\OneDrive - store-dot.com\Documents\EC-Lab\Data\Charmaine\
	Host : 169.254.61.224
Device : VMP-3e (SN .003165)
Address : USB
EC-LAB for windows v11.62 (software)
Internet server v27.00 (firmware)
Command interpretor v12.03 (firmware)
Electrode material :
Initial state :
Electrolyte :
Comments :
Electrode surface area : 0.001 cm²
Characteristic mass : 0.001 g
Equivalent Weight : 0.000 g/eq.
Density : 0.000 g/cm3
Volume (V) : 0.001 cm³
Record Ece
Cycle Definition : Charge/Discharge alternance
Mode                Single sine
E (V)               0.0000
vs.                 Eoc
tE (h:m:s)          0:00:0.0000
record              0
dI                  0.000
unit dI             mA
dt (s)              0.000
fi                  100.000
unit fi             kHz
ff                  10.000
unit ff             mHz
Nd                  6
Points              per decade
spacing             Logarithmic
Va (mV)             5.0
pw                  0.10
Na                  2
corr                0
E range min (V)     -10.000
E range max (V)     10.000
I Range             Auto
Bandwidth           5
nc cycles           0
goto Ns'            0
nr cycles           0
inc. cycle          0

freq/Hz	Re(Z)/Ohm	-Im(Z)/Ohm	|Z|/Ohm	Phase(Z)/deg	time/s	<Ewe>/V	<I>/mA	Cs/µF	Cp/µF	cycle number	I Range	|Ewe|/V	|I|/A	Ns	(Q-Qo)/mA.h	<Ece>/V	|Ece|/V	Phase(Zce)/deg	|Zce|/Ohm	Re(Zce)/Ohm	-Im(Zce)/Ohm	Phase(Zwe-ce)/deg	|Zwe-ce|/Ohm	Re(Zwe-ce)/Ohm	-Im(Zwe-ce)/Ohm	Re(Y)/Ohm-1	Im(Y)/Ohm-1	|Y|/Ohm-1	Phase(Y)/deg	Re(C)/nF	Im(C)/nF	|C|/nF	Phase(C)/deg	Re(M)	Im(M)	|M|	Phase(M)/deg	Re(Permittivity)	Im(Permittivity)	|Permittivity|	Phase(Permittivity)/deg	Re(Resistivity)/Ohm.cm	Im(Resistivity)/Ohm.cm	|Resistivity|/Ohm.cm	Phase(Resistivity)/deg	Re(Conductivity)/mS/cm	Im(Conductivity)/mS/cm	|Conductivity|/mS/cm	Phase(Conductivity)/deg	Tan(Delta)	Loss Angle(Delta)/deg	dq/mA.h	Pwe/W	Pce/W	Pwe-ce/W	<Ewe-Ece>/V	Rwe/Ohm	Rce/Ohm	Rwe-ce/Ohm		Ewe-Ece/V
100004	1.89447	0.756327	2.03986	-21.7633	1.92256	0.272077	0.00191497	2.10424	0.289276	1	9	0.00628002	0.00307865	0	-2.52563e-06	0.000130363	2.58362e-05	49.6576	0.00839207	0.00543264	-0.00639634	-21.5402	2.04255	1.8999	0.749931	0.455287	0.181764	0.490229	21.7633	289.276	724.585	780.195	-68.2367	0.0000000E+000	0.0000000E+000	0.0000000E+000	68.2367	0.0000000E+000	0.0000000E+000	0.0000000E+000	-68.2367	0.0000000E+000	0.0000000E+000	0.0000000E+000	-21.7633	0.0000000E+000	0.0000000E+000	0.0000000E+000	21.7633	2.50483	68.2367	-2.52563e-06	5.21018e-07	2.49641e-10	5.20769e-07	0.271946	142079	68.0758	142011
68132	2.03958	1.00751	2.27486	-26.2885	2.80151	0.271946	-0.00501166	2.31856	0.45479	1	9	0.0054794	0.00240868	0	1.83039e-05	-7.96403e-05	1.71633e-05	28.5592	0.00712561	0.00625859	-0.00340652	-26.142	2.27897	2.04584	1.00411	0.394124	0.194689	0.439588	26.2885	454.79	920.665	1026.87	-63.7115	0.0000000E+000	0.0000000E+000	0.0000000E+000	63.7115	0.0000000E+000	0.0000000E+000	0.0000000E+000	-63.7115	0.0000000E+000	0.0000000E+000	0.0000000E+000	-26.2885	0.0000000E+000	0.0000000E+000	0.0000000E+000	26.2885	2.02437	63.7115	2.08296e-05	-1.3629e-06	3.9913e-10	-1.3633e-06	0.272026	54262.8	15.891	54278.6
46420.4	2.32936	1.12781	2.58803	-25.8348	3.30854	0.27194	-0.0119383	3.04002	0.577309	1	9	0.00479168	0.00185148	0	1.34844e-05	0.000111272	1.45472e-05	20.2066	0.00785706	0.00737348	-0.00271388	-25.7099	2.59349	2.33674	1.12509	0.347776	0.168383	0.386395	25.8348	577.309	1192.37	1324.78	-64.1652	0.0000000E+000	0.0000000E+000	0.0000000E+000	64.1652	0.0000000E+000	0.0000000E+000	0.0000000E+000	-64.1652	0.0000000E+000	0.0000000E+000	0.0000000E+000	-25.8348	0.0000000E+000	0.0000000E+000	0.0000000E+000	25.8348	2.06539	64.1652	-4.81948e-06	-3.24649e-06	-1.3284e-09	-3.24516e-06	0.271828	22778.8	9.32059	22769.5
31621.1	2.63447	1.22291	2.90447	-24.9005	3.81552	0.271947	-0.0157367	4.11576	0.72963	1	9	0.00538642	0.00185453	0	8.14456e-06	-9.87315e-05	1.39238e-05	21.2864	0.00750799	0.00699577	-0.00272563	-24.7938	2.90967	2.64146	1.22018	0.312292	0.144964	0.344297	24.9005	729.63	1571.82	1732.91	-65.0995	0.0000000E+000	0.0000000E+000	0.0000000E+000	65.0995	0.0000000E+000	0.0000000E+000	0.0000000E+000	-65.0995	0.0000000E+000	0.0000000E+000	0.0000000E+000	-24.9005	0.0000000E+000	0.0000000E+000	0.0000000E+000	24.9005	2.15427	65.0995	-5.33989e-06	-4.27956e-06	1.55371e-09	-4.28112e-06	0.272046	17281	6.27395	17287.3
21544.7	2.96455	1.28847	3.23245	-23.4909	4.32452	0.271937	-0.0138003	5.73333	0.91094	1	9	0.00471787	0.00145953	0	4.74411e-06	7.30894e-05	7.28687e-06	16.4452	0.0049926	0.00478836	-0.0014134	-23.4342	3.23628	2.96934	1.28705	0.283724	0.123313	0.309363	23.4909	910.94	2095.93	2285.33	-66.5091	0.0000000E+000	0.0000000E+000	0.0000000E+000	66.5091	0.0000000E+000	0.0000000E+000	0.0000000E+000	-66.5091	0.0000000E+000	0.0000000E+000	0.0000000E+000	-23.4909	0.0000000E+000	0.0000000E+000	0.0000000E+000	23.4909	2.30084	66.5091	-3.40045e-06	-3.7528e-06	-1.00865e-09	-3.75179e-06	0.271863	19705.2	5.29623	19699.9
14678.6	3.29126	1.35274	3.55841	-22.3431	4.70756	0.271932	-0.0091453	8.01533	1.15834	1	9	0.00466156	0.00131001	0	2.89818e-06	-3.27544e-06	6.41494e-06	0.518625	0.00489686	0.00489666	-4.43244e-05	-22.3125	3.56293	3.29616	1.3527	0.259926	0.106832	0.281024	22.3431	1158.34	2818.29	3047.05	-67.6569	0.0000000E+000	0.0000000E+000	0.0000000E+000	67.6569	0.0000000E+000	0.0000000E+000	0.0000000E+000	-67.6569	0.0000000E+000	0.0000000E+000	0.0000000E+000	-22.3431	0.0000000E+000	0.0000000E+000	0.0000000E+000	22.3431	2.43303	67.6569	-1.84594e-06	-2.4869e-06	2.99549e-11	-2.48693e-06	0.271935	29734.6	0.358156	29735
10002.2	3.59572	1.43968	3.87322	-21.8206	4.96652	0.271925	-0.00799087	11.0524	1.52702	1	9	0.00481519	0.0012432	0	2.55597e-06	0.000111272	4.99468e-06	-109.358	0.0040176	-0.00133173	0.00379046	-21.8799	3.8734	3.59438	1.44347	0.239685	0.0959669	0.258183	21.8206	1527.02	3813.85	4108.19	-68.1794	0.0000000E+000	0.0000000E+000	0.0000000E+000	68.1794	0.0000000E+000	0.0000000E+000	0.0000000E+000	-68.1794	0.0000000E+000	0.0000000E+000	0.0000000E+000	-21.8206	0.0000000E+000	0.0000000E+000	0.0000000E+000	21.8206	2.49758	68.1794	-3.4221e-07	-2.17292e-06	-8.89159e-10	-2.17203e-06	0.271814	34029.5	13.9249	34015.6
6810.42	3.84547	1.47891	4.12006	-21.036	5.50555	0.271925	-0.00598564	15.8017	2.03602	1	10	0.00446041	0.00108261	0	3.71822e-06	0.000225819	0.000103921	-82.3899	0.0959913	0.0127122	0.0951459	-22.1944	4.16693	3.85819	1.57406	0.226539	0.0871237	0.242715	21.036	2036.02	5294.07	5672.09	-68.964	0.0000000E+000	0.0000000E+000	0.0000000E+000	68.964	0.0000000E+000	0.0000000E+000	0.0000000E+000	-68.964	0.0000000E+000	0.0000000E+000	0.0000000E+000	-21.036	0.0000000E+000	0.0000000E+000	0.0000000E+000	21.036	2.6002	68.964	1.16226e-06	-1.62765e-06	-1.35167e-09	-1.6263e-06	0.271699	45429.6	37.7268	45391.8
4646	4.21365	1.64481	4.5233	-21.3233	5.89661	0.271933	-0.00563937	20.827	2.75387	1	10	0.0059465	0.00131464	0	3.73312e-06	0.000130363	1.12951e-05	-88.121	0.00859181	0.000281715	0.00858719	-21.4232	4.52669	4.21394	1.65339	0.205943	0.0803902	0.221077	21.3233	2753.87	7054.86	7573.3	-68.6767	0.0000000E+000	0.0000000E+000	0.0000000E+000	68.6767	0.0000000E+000	0.0000000E+000	0.0000000E+000	-68.6767	0.0000000E+000	0.0000000E+000	0.0000000E+000	-21.3233	0.0000000E+000	0.0000000E+000	0.0000000E+000	21.3233	2.5618	68.6767	1.48937e-08	-1.53353e-06	-7.35166e-10	-1.5328e-06	0.271803	48220.5	23.1166	48197.3
3163.08	4.53073	1.82622	4.88494	-21.9531	6.62361	0.271886	-0.0135628	27.5522	3.85075	1	10	0.00514236	0.0010527	0	3.22644e-06	9.21806e-05	5.27643e-06	-137.095	0.00501229	-0.00367139	0.00341232	-22.0063	4.88281	4.52706	1.82963	0.189867	0.0765306	0.204711	21.9531	3850.75	9553.45	10300.3	-68.0469	0.0000000E+000	0.0000000E+000	0.0000000E+000	68.0469	0.0000000E+000	0.0000000E+000	0.0000000E+000	-68.0469	0.0000000E+000	0.0000000E+000	0.0000000E+000	-21.9531	0.0000000E+000	0.0000000E+000	0.0000000E+000	21.9531	2.48093	68.0469	-5.0668e-07	-3.68753e-06	-1.25023e-09	-3.68628e-06	0.271794	20046.5	6.79659	20039.7
2155.69	4.86838	2.08945	5.29783	-23.2284	7.07583	0.271904	-0.00802235	35.3348	5.4963	1	10	0.00519573	0.000980729	0	2.73049e-06	0.000130363	8.68201e-06	80.8969	0.0088526	0.00140058	-0.00874111	-23.1355	5.29567	4.86979	2.08071	0.173456	0.0744451	0.188757	23.2284	5496.3	12806.3	13935.9	-66.7716	0.0000000E+000	0.0000000E+000	0.0000000E+000	66.7716	0.0000000E+000	0.0000000E+000	0.0000000E+000	-66.7716	0.0000000E+000	0.0000000E+000	0.0000000E+000	-23.2284	0.0000000E+000	0.0000000E+000	0.0000000E+000	23.2284	2.32999	66.7716	-4.95948e-07	-2.18131e-06	-1.04582e-09	-2.18026e-06	0.271773	33893.3	16.25	33877
1468.59	5.2428	2.47785	5.79886	-25.2963	7.5271	0.27191	-0.0066149	43.7365	7.98565	1	10	0.00517608	0.000892603	0	1.9418e-06	0.000149454	6.18588e-06	-43.4264	0.00693016	0.00503308	0.00476394	-25.3176	5.80544	5.24784	2.48262	0.155912	0.0736869	0.172448	25.2963	7985.65	16896.6	18688.6	-64.7037	0.0000000E+000	0.0000000E+000	0.0000000E+000	64.7037	0.0000000E+000	0.0000000E+000	0.0000000E+000	-64.7037	0.0000000E+000	0.0000000E+000	0.0000000E+000	-25.2963	0.0000000E+000	0.0000000E+000	0.0000000E+000	25.2963	2.11587	64.7037	-7.88691e-07	-1.79866e-06	-9.88626e-10	-1.79767e-06	0.27176	41105.6	22.5936	41083
1000.32	5.67688	2.99908	6.4204	-27.8474	7.97784	0.271921	-0.00474948	53.0509	11.5757	1	10	0.00522834	0.000814333	0	5.72757e-07	-3.27544e-06	8.14573e-06	-63.3079	0.0100029	0.00449328	0.00893696	-27.8991	6.42855	5.68138	3.00802	0.137717	0.0727553	0.155754	27.8474	11575.7	21911.3	24781	-62.1526	0.0000000E+000	0.0000000E+000	0.0000000E+000	62.1526	0.0000000E+000	0.0000000E+000	0.0000000E+000	-62.1526	0.0000000E+000	0.0000000E+000	0.0000000E+000	-27.8474	0.0000000E+000	0.0000000E+000	0.0000000E+000	27.8474	1.89287	62.1526	-1.36904e-06	-1.29148e-06	1.55566e-11	-1.2915e-06	0.271924	57252.7	0.689641	57253.4
681.09	6.21333	3.72437	7.24406	-30.9392	8.42751	0.271931	-0.00425428	62.7427	16.5846	1	10	0.00537308	0.000741722	0	3.2449e-07	-9.87315e-05	7.81656e-06	-49.8805	0.0105384	0.00679077	0.00805872	-30.9662	7.25402	6.22012	3.73243	0.118402	0.0709723	0.138044	30.9392	16584.6	27667.9	32257.7	-59.0608	0.0000000E+000	0.0000000E+000	0.0000000E+000	59.0608	0.0000000E+000	0.0000000E+000	0.0000000E+000	-59.0608	0.0000000E+000	0.0000000E+000	0.0000000E+000	-30.9392	0.0000000E+000	0.0000000E+000	0.0000000E+000	30.9392	1.66829	59.0609	-2.48267e-07	-1.15687e-06	4.20031e-10	-1.15729e-06	0.27203	63919.5	23.2076	63942.7
463.961	6.92611	4.66984	8.35335	-33.9893	9.09332	0.271929	-0.0049096	73.4576	22.9572	1	10	0.00475773	0.00056956	0	-5.58009e-07	5.39982e-05	7.10039e-06	-0.652674	0.0124665	0.0124656	0.000142006	-33.9424	8.36377	6.93858	4.66999	0.0992586	0.0669238	0.119712	33.9893	22957.2	34049.2	41065.6	-56.0107	0.0000000E+000	0.0000000E+000	0.0000000E+000	56.0107	0.0000000E+000	0.0000000E+000	0.0000000E+000	-56.0107	0.0000000E+000	0.0000000E+000	0.0000000E+000	-33.9893	0.0000000E+000	0.0000000E+000	0.0000000E+000	33.9893	1.48316	56.0107	-8.825e-07	-1.33506e-06	-2.6511e-10	-1.3348e-06	0.271875	55387.1	10.9985	55376.1
316.316	7.88008	5.88952	9.83779	-36.7742	9.54108	0.271917	-0.00550907	85.4318	30.6185	1	10	0.00457937	0.000465488	0	-1.29272e-06	-3.27544e-06	9.21203e-06	-12.3099	0.0197901	0.0193351	0.00421922	-36.7265	9.85581	7.89942	5.89374	0.0814209	0.0608534	0.101649	36.7742	30618.5	40967.1	51144.8	-53.2258	0.0000000E+000	0.0000000E+000	0.0000000E+000	53.2258	0.0000000E+000	0.0000000E+000	0.0000000E+000	-53.2258	0.0000000E+000	0.0000000E+000	0.0000000E+000	-36.7742	0.0000000E+000	0.0000000E+000	0.0000000E+000	36.7742	1.33798	53.2258	-7.34709e-07	-1.49801e-06	1.80446e-11	-1.49803e-06	0.27192	49358	0.594554	49358.6
215.345	9.24631	7.43029	11.8619	-38.7852	9.99053	0.271911	-0.00639152	99.4673	39.029	1	10	0.00453149	0.000382022	0	-1.61023e-06	-2.23667e-05	9.71749e-06	-113.873	0.025437	-0.0102945	0.0232608	-38.9038	11.8684	9.23602	7.45355	0.0657149	0.0528081	0.0843039	38.7852	39029	48568	62306.6	-51.2148	0.0000000E+000	0.0000000E+000	0.0000000E+000	51.2148	0.0000000E+000	0.0000000E+000	0.0000000E+000	-51.2148	0.0000000E+000	0.0000000E+000	0.0000000E+000	-38.7852	0.0000000E+000	0.0000000E+000	0.0000000E+000	38.7852	1.24441	51.2148	-3.17515e-07	-1.73793e-06	1.42957e-10	-1.73807e-06	0.271933	42542.4	3.49942	42545.9
146.737	11.2619	9.14943	14.5101	-39.0913	10.4365	0.271911	-0.00785855	118.546	47.1341	1	10	0.00450054	0.000310167	0	-2.08819e-06	-2.23667e-05	1.70171e-05	-63.0216	0.0548644	0.0248895	0.0488939	-39.1789	14.5602	11.2868	9.19833	0.0534899	0.0434566	0.0689177	39.0913	47134.1	58016.5	74749.8	-50.9087	0.0000000E+000	0.0000000E+000	0.0000000E+000	50.9087	0.0000000E+000	0.0000000E+000	0.0000000E+000	-50.9087	0.0000000E+000	0.0000000E+000	0.0000000E+000	-39.0913	0.0000000E+000	0.0000000E+000	0.0000000E+000	39.0913	1.23088	50.9087	-4.77955e-07	-2.13683e-06	1.75769e-10	-2.137e-06	0.271933	34600.7	2.84616	34603.5
100.032	14.0383	10.8052	17.7151	-37.5851	10.8878	0.271901	-0.00800748	147.248	54.7801	1	10	0.00449579	0.000253783	0	-3.33967e-06	0.000206728	8.63382e-06	-84.3973	0.0340205	0.00332141	0.033858	-37.6652	17.7384	14.0417	10.839	0.0447328	0.0344304	0.0564489	37.5851	54780.1	71171.7	89812.4	-52.4149	0.0000000E+000	0.0000000E+000	0.0000000E+000	52.4149	0.0000000E+000	0.0000000E+000	0.0000000E+000	-52.4149	0.0000000E+000	0.0000000E+000	0.0000000E+000	-37.5851	0.0000000E+000	0.0000000E+000	0.0000000E+000	37.5851	1.29922	52.4149	-1.25148e-06	-2.17724e-06	-1.65537e-09	-2.17559e-06	0.271694	33955.9	25.8168	33930
68.104	17.5555	12.1267	21.3367	-34.6353	11.8215	0.271939	-0.0046691	192.71	62.2497	1	11	0.00488089	0.000228756	0	-5.2601e-06	3.4907e-05	6.50136e-06	34.9562	0.0284205	0.0232932	-0.0162836	-34.5638	21.3466	17.5788	12.1105	0.038562	0.0266373	0.0468676	34.6353	62249.7	90117.1	109527	-55.3647	0.0000000E+000	0.0000000E+000	0.0000000E+000	55.3647	0.0000000E+000	0.0000000E+000	0.0000000E+000	-55.3647	0.0000000E+000	0.0000000E+000	0.0000000E+000	-34.6353	0.0000000E+000	0.0000000E+000	0.0000000E+000	34.6353	1.44767	55.3647	-1.92044e-06	-1.26971e-06	-1.62984e-10	-1.26955e-06	0.271904	58242.1	7.47617	58234.6
46.4415	21.4928	12.6401	24.9342	-30.46	12.2587	0.271919	-0.0051036	271.122	69.6743	1	11	0.00487203	0.000195396	0	-5.75846e-06	-0.000175096	8.78598e-06	49.7396	0.044965	0.0290592	-0.0343135	-30.3582	24.9419	21.5219	12.6057	0.0345704	0.020331	0.0401056	30.46	69674.3	118472	137442	-59.54	0.0000000E+000	0.0000000E+000	0.0000000E+000	59.54	0.0000000E+000	0.0000000E+000	0.0000000E+000	-59.54	0.0000000E+000	0.0000000E+000	0.0000000E+000	-30.46	0.0000000E+000	0.0000000E+000	0.0000000E+000	30.46	1.70037	59.54	-4.98361e-07	-1.38777e-06	8.93622e-10	-1.38866e-06	0.272094	53279.8	34.3084	53314.1
31.6296	25.4734	12.2644	28.2721	-25.7089	12.6886	0.271918	-0.00527487	410.281	77.2072	1	11	0.00487836	0.00017255	0	-6.32092e-06	-2.23667e-05	8.94686e-06	0.302594	0.0518507	0.0518499	-0.000273836	-25.6629	28.3187	25.5253	12.2641	0.0318693	0.0153437	0.0353706	25.7089	77207.2	160361	177979	-64.2911	0.0000000E+000	0.0000000E+000	0.0000000E+000	64.2911	0.0000000E+000	0.0000000E+000	0.0000000E+000	-64.2911	0.0000000E+000	0.0000000E+000	0.0000000E+000	-25.7089	0.0000000E+000	0.0000000E+000	0.0000000E+000	25.7089	2.07702	64.2911	-5.62452e-07	-1.43433e-06	1.17981e-10	-1.43445e-06	0.271941	51549.8	4.24023	51554
21.5517	28.8392	11.2878	30.9695	-21.3757	13.1095	0.27192	-0.00541822	654.226	86.9119	1	11	0.00487236	0.000157327	0	-7.01274e-06	-3.27544e-06	6.4903e-06	20.5025	0.0412535	0.0386403	-0.014449	-21.3248	31.0003	28.8778	11.2734	0.0300686	0.011769	0.0322898	21.3757	86911.9	222050	238453	-68.6243	0.0000000E+000	0.0000000E+000	0.0000000E+000	68.6243	0.0000000E+000	0.0000000E+000	0.0000000E+000	-68.6243	0.0000000E+000	0.0000000E+000	0.0000000E+000	-21.3757	0.0000000E+000	0.0000000E+000	0.0000000E+000	21.3757	2.55489	68.6243	-6.91828e-07	-1.47332e-06	1.7747e-11	-1.47334e-06	0.271923	50186.2	0.604524	50186.8
14.6852	31.5856	10.0186	33.1364	-17.5984	13.5692	0.271928	-0.00470708	1081.77	98.8865	1	11	0.00487202	0.000147029	0	-8.18794e-06	-0.000194188	1.10418e-05	-34.0501	0.0750991	0.0622233	0.0420493	-17.6351	33.2085	31.6478	10.0606	0.0287659	0.00912421	0.0301783	17.5984	98886.5	311759	327066	-72.4016	0.0000000E+000	0.0000000E+000	0.0000000E+000	72.4016	0.0000000E+000	0.0000000E+000	0.0000000E+000	-72.4016	0.0000000E+000	0.0000000E+000	0.0000000E+000	-17.5984	0.0000000E+000	0.0000000E+000	0.0000000E+000	17.5984	3.1527	72.4016	-1.1752e-06	-1.27999e-06	9.14057e-10	-1.2809e-06	0.272122	57769.9	41.2543	57811.1
10.0032	33.776	8.91566	34.9329	-14.7868	14.0198	0.271931	-0.00486532	1784.54	116.242	1	11	0.00486863	0.000139371	0	-8.78818e-06	-0.00023237	1.73297e-05	-48.1092	0.124343	0.0830254	0.092563	-14.8985	35.0369	33.8591	9.00823	0.0276782	0.00730607	0.0286263	14.7868	116242	440372	455456	-75.2132	0.0000000E+000	0.0000000E+000	0.0000000E+000	75.2132	0.0000000E+000	0.0000000E+000	0.0000000E+000	-75.2132	0.0000000E+000	0.0000000E+000	0.0000000E+000	-14.7868	0.0000000E+000	0.0000000E+000	0.0000000E+000	14.7868	3.78839	75.2132	-6.00234e-07	-1.32303e-06	1.13055e-09	-1.32416e-06	0.272163	55891.7	47.7605	55939.4
6.81719	35.563	7.96515	36.4441	-12.6244	14.3595	0.271915	-0.00526594	2931.03	140.009	1	11	0.00486265	0.000133428	0	-9.87269e-06	-2.23667e-05	1.33374e-05	-82.1443	0.09996	0.0136624	0.0990219	-12.7714	36.4792	35.5767	8.06417	0.0267759	0.00599709	0.0274393	12.6244	140009	625114	640601	-77.3756	0.0000000E+000	0.0000000E+000	0.0000000E+000	77.3756	0.0000000E+000	0.0000000E+000	0.0000000E+000	-77.3756	0.0000000E+000	0.0000000E+000	0.0000000E+000	-12.6244	0.0000000E+000	0.0000000E+000	0.0000000E+000	12.6244	4.46482	77.3756	-1.08451e-06	-1.43189e-06	1.17781e-10	-1.432e-06	0.271937	51636.5	4.24742	51640.8
4.63925	37.1266	7.38399	37.8538	-11.2486	14.8445	0.271921	-0.00466948	4646.02	176.785	1	11	0.00486812	0.000128603	0	-9.05302e-06	0.000111272	6.67903e-06	-40.2006	0.0519351	0.0396675	0.0335224	-11.2866	37.8992	37.1663	7.41751	0.02591	0.00515316	0.0264175	11.2486	176785	888872	906282	-78.7514	0.0000000E+000	0.0000000E+000	0.0000000E+000	78.7514	0.0000000E+000	0.0000000E+000	0.0000000E+000	-78.7514	0.0000000E+000	0.0000000E+000	0.0000000E+000	-11.2486	0.0000000E+000	0.0000000E+000	0.0000000E+000	11.2486	5.02798	78.7514	8.19664e-07	-1.26973e-06	-5.19582e-10	-1.26921e-06	0.27181	58233.7	23.8296	58209.8
3.1604	38.6973	6.92606	39.3123	-10.1474	15.5375	0.271918	-0.00427947	7270.97	225.688	1	11	0.00486308	0.000123704	0	-9.28264e-06	7.30894e-05	8.85252e-06	-10.0036	0.0715621	0.0704742	0.012431	-10.1471	39.3838	38.7678	6.9385	0.0250395	0.00448157	0.0254374	10.1474	225688	1.26097e+06	1.281e+06	-79.8526	0.0000000E+000	0.0000000E+000	0.0000000E+000	79.8526	0.0000000E+000	0.0000000E+000	0.0000000E+000	-79.8526	0.0000000E+000	0.0000000E+000	0.0000000E+000	-10.1474	0.0000000E+000	0.0000000E+000	0.0000000E+000	10.1474	5.5872	79.8526	-2.29614e-07	-1.16367e-06	-3.12784e-10	-1.16335e-06	0.271845	63540.1	17.0791	63523.1
2.15577	40.1642	6.79209	40.7344	-9.59838	16.5412	0.271931	-0.00343086	10869.6	302.203	1	11	0.00487182	0.0001196	0	-1.18267e-05	-9.87315e-05	3.95079e-06	-31.4735	0.0330335	0.0281737	0.0172469	-9.61568	40.7651	40.1924	6.80934	0.0242056	0.00409336	0.0245493	9.59838	302203	1.78704e+06	1.81241e+06	-80.4016	0.0000000E+000	0.0000000E+000	0.0000000E+000	80.4016	0.0000000E+000	0.0000000E+000	0.0000000E+000	-80.4016	0.0000000E+000	0.0000000E+000	0.0000000E+000	-9.59838	0.0000000E+000	0.0000000E+000	0.0000000E+000	9.59838	5.91337	80.4016	-2.54409e-06	-9.32958e-07	3.38734e-10	-9.33297e-07	0.27203	79260.2	28.7775	79289
1.46631	41.6507	6.64185	42.1769	-9.06042	18.7284	0.271933	-0.00310545	16342	405.26	1	12	0.00486951	0.000115454	0	-1.66103e-05	0.000302184	3.40432e-06	75.7516	0.0294862	0.00725733	-0.0285792	-9.02053	42.1796	41.6579	6.61327	0.0234138	0.0037337	0.0237096	9.06042	405260	2.54136e+06	2.57347e+06	-80.9396	0.0000000E+000	0.0000000E+000	0.0000000E+000	80.9396	0.0000000E+000	0.0000000E+000	0.0000000E+000	-80.9396	0.0000000E+000	0.0000000E+000	0.0000000E+000	-9.06042	0.0000000E+000	0.0000000E+000	0.0000000E+000	9.06042	6.27095	80.9396	-4.78359e-06	-8.44474e-07	-9.38418e-10	-8.43536e-07	0.271631	87566.3	97.3076	87469
1.00006	43.3242	6.58905	43.8224	-8.64767	20.857	0.271939	-0.003191	24152.9	546.037	1	12	0.00487369	0.000111214	0	-1.86594e-05	0.000302184	9.45359e-07	-125.719	0.00850033	-0.00496252	0.00690138	-8.65757	43.8186	43.3193	6.59595	0.0225599	0.00343107	0.0228194	8.64767	546037	3.5903e+06	3.63158e+06	-81.3523	0.0000000E+000	0.0000000E+000	0.0000000E+000	81.3523	0.0000000E+000	0.0000000E+000	0.0000000E+000	-81.3523	0.0000000E+000	0.0000000E+000	0.0000000E+000	-8.64767	0.0000000E+000	0.0000000E+000	0.0000000E+000	8.64767	6.57519	81.3523	-2.04907e-06	-8.67756e-07	-9.64268e-10	-8.66792e-07	0.271637	85220.6	94.6989	85125.9
0.681362	44.8382	6.61391	45.3234	-8.39098	23.9692	0.271934	-0.00333035	35317	752.067	1	12	0.0048734	0.000107525	0	-1.85791e-05	-4.14579e-05	2.33706e-06	8.73034	0.021735	0.0214832	-0.00329903	-8.38289	45.3441	44.8597	6.61061	0.0218275	0.00321969	0.0220637	8.39098	752066	5.09854e+06	5.15371e+06	-81.609	0.0000000E+000	0.0000000E+000	0.0000000E+000	81.609	0.0000000E+000	0.0000000E+000	0.0000000E+000	-81.609	0.0000000E+000	0.0000000E+000	0.0000000E+000	-8.39098	0.0000000E+000	0.0000000E+000	0.0000000E+000	8.39098	6.77937	81.609	8.02632e-08	-9.05636e-07	1.38069e-10	-9.05774e-07	0.271976	81653.3	12.4485	81665.8
0.464091	46.3476	6.49784	46.8009	-7.98073	28.5258	0.271939	-0.00293195	52777.5	1017.37	1	12	0.00487348	0.000104132	0	-1.56784e-05	9.21806e-05	2.71812e-06	35.9149	0.0261026	0.0211402	-0.0153114	-7.95858	46.8197	46.3688	6.48253	0.0211602	0.00296661	0.0213671	7.98073	1.01737e+06	7.25666e+06	7.32763e+06	-82.0193	0.0000000E+000	0.0000000E+000	0.0000000E+000	82.0193	0.0000000E+000	0.0000000E+000	0.0000000E+000	-82.0193	0.0000000E+000	0.0000000E+000	0.0000000E+000	-7.98073	0.0000000E+000	0.0000000E+000	0.0000000E+000	7.98073	7.13278	82.0193	2.90075e-06	-7.97313e-07	-2.70269e-10	-7.97043e-07	0.271847	92750.3	31.44	92718.8
0.316193	47.8797	6.49309	48.318	-7.72292	35.2018	0.271924	-0.00279615	77520.5	1399.92	1	12	0.00486782	0.000100746	0	-1.31465e-05	0.000321275	2.55728e-06	-27.9696	0.0253835	0.0224186	0.0119049	-7.73333	48.3418	47.9021	6.50499	0.0205085	0.00278121	0.0206962	7.72292	1.39992e+06	1.03229e+07	1.04174e+07	-82.2771	0.0000000E+000	0.0000000E+000	0.0000000E+000	82.2771	0.0000000E+000	0.0000000E+000	0.0000000E+000	-82.2771	0.0000000E+000	0.0000000E+000	0.0000000E+000	-7.72292	0.0000000E+000	0.0000000E+000	0.0000000E+000	7.72292	7.37395	82.2771	2.53187e-06	-7.60342e-07	-8.98334e-10	-7.59443e-07	0.271603	97249.6	114.899	97134.7
0.215268	49.3893	6.65682	49.8359	-7.67621	44.9942	0.271926	-0.00215733	111064	1981.63	1	12	0.00487108	9.77423e-05	0	-1.6e-05	0.000187637	2.43459e-06	-19.0686	0.0249082	0.0235415	0.00813751	-7.68187	49.8604	49.4129	6.66496	0.019886	0.00268029	0.0200658	7.67621	1.98163e+06	1.47024e+07	1.48354e+07	-82.3238	0.0000000E+000	0.0000000E+000	0.0000000E+000	82.3238	0.0000000E+000	0.0000000E+000	0.0000000E+000	-82.3238	0.0000000E+000	0.0000000E+000	0.0000000E+000	-7.67621	0.0000000E+000	0.0000000E+000	0.0000000E+000	7.67621	7.41936	82.3238	-2.85346e-06	-5.86635e-07	-4.04795e-10	-5.8623e-07	0.271738	126047	86.9763	125960
0.146929	50.8073	6.98883	51.2857	-7.83221	59.3316	0.271937	-0.00142091	154992	2878.22	1	12	0.00486548	9.487e-05	0	-3.01494e-05	-7.96403e-05	2.83432e-06	22.5763	0.0298758	0.0275864	-0.0114697	-7.81532	51.3115	50.8349	6.97736	0.0193167	0.00265712	0.0194986	7.83221	2.87823e+06	2.09241e+07	2.11211e+07	-82.1678	0.0000000E+000	0.0000000E+000	0.0000000E+000	82.1678	0.0000000E+000	0.0000000E+000	0.0000000E+000	-82.1678	0.0000000E+000	0.0000000E+000	0.0000000E+000	-7.83221	0.0000000E+000	0.0000000E+000	0.0000000E+000	7.83221	7.26979	82.1678	-1.41494e-05	-3.86398e-07	1.13162e-10	-3.86511e-07	0.272016	191382	56.0488	191438
0.0999041	52.2347	7.47525	52.7669	-8.14424	80.4098	0.271925	-0.00124624	213114	4277.01	1	12	0.00487133	9.2318e-05	0	-6.13694e-05	5.39982e-05	2.4713e-06	-18.8995	0.0267694	0.0253262	0.00867086	-8.14966	52.7932	52.26	7.48392	0.0187602	0.00268474	0.0189513	8.14424	4.277e+06	2.98864e+07	3.01909e+07	-81.8558	0.0000000E+000	0.0000000E+000	0.0000000E+000	81.8558	0.0000000E+000	0.0000000E+000	0.0000000E+000	-81.8558	0.0000000E+000	0.0000000E+000	0.0000000E+000	-8.14424	0.0000000E+000	0.0000000E+000	0.0000000E+000	8.14424	6.98769	81.8558	-3.12201e-05	-3.38882e-07	-6.72945e-11	-3.38815e-07	0.271871	218197	43.3291	218154
0.0680626	53.7799	8.22101	54.4046	-8.69118	111.336	0.27193	-0.000929399	284437	6494.79	1	12	0.00487243	8.95592e-05	0	-0.000106134	9.21806e-05	1.47796e-06	23.8814	0.0165026	0.0150897	-0.00668099	-8.68183	54.4185	53.795	8.21433	0.0181697	0.0027775	0.0183808	8.69118	6.49479e+06	4.24874e+07	4.29809e+07	-81.3088	0.0000000E+000	0.0000000E+000	0.0000000E+000	81.3088	0.0000000E+000	0.0000000E+000	0.0000000E+000	-81.3088	0.0000000E+000	0.0000000E+000	0.0000000E+000	-8.69118	0.0000000E+000	0.0000000E+000	0.0000000E+000	8.69118	6.54176	81.3088	-4.47641e-05	-2.52731e-07	-8.56725e-11	-2.52646e-07	0.271838	292587	99.1831	292488
0.0464052	55.5817	9.2862	56.3521	-9.48498	156.688	0.271923	-0.0013303	369331	10029.3	1	12	0.00487257	8.64665e-05	0	-0.00015915	0.000321275	2.01758e-06	10.2221	0.0233336	0.0229633	-0.00414088	-9.47698	56.374	55.6046	9.28206	0.017503	0.00292428	0.0177456	9.48498	1.00293e+07	6.00296e+07	6.08617e+07	-80.515	0.0000000E+000	0.0000000E+000	0.0000000E+000	80.515	0.0000000E+000	0.0000000E+000	0.0000000E+000	-80.515	0.0000000E+000	0.0000000E+000	0.0000000E+000	-9.48498	0.0000000E+000	0.0000000E+000	0.0000000E+000	9.48498	5.9854	80.515	-5.30165e-05	-3.6174e-07	-4.27393e-10	-3.61312e-07	0.271602	204407	241.506	204166
0.0315922	57.4501	11.0597	58.5049	-10.8967	223.293	0.271927	-0.00150027	455508	16278	1	12	0.00486861	8.32171e-05	0	-0.000192781	0.000206728	1.69557e-06	-15.2854	0.0203752	0.0196545	0.00537146	-10.8983	58.5253	57.4697	11.0651	0.0167844	0.00323117	0.0170926	10.8967	1.62779e+07	8.45562e+07	8.61088e+07	-79.1033	0.0000000E+000	0.0000000E+000	0.0000000E+000	79.1033	0.0000000E+000	0.0000000E+000	0.0000000E+000	-79.1033	0.0000000E+000	0.0000000E+000	0.0000000E+000	-10.8967	0.0000000E+000	0.0000000E+000	0.0000000E+000	10.8967	5.19453	79.1033	-3.36311e-05	-4.07963e-07	-3.10148e-10	-4.07653e-07	0.27172	181252	137.794	181114
0.0215268	59.3275	13.4364	60.83	-12.761	321.031	0.271924	-0.00137203	550248	26846.5	1	12	0.00487417	8.01277e-05	0	-0.000172577	5.39982e-05	1.74109e-06	-14.1955	0.0217289	0.0210654	0.0053286	-12.7615	60.8518	59.3486	13.4417	0.0160332	0.00363117	0.0164392	12.761	2.68465e+07	1.18539e+08	1.21541e+08	-77.239	0.0000000E+000	0.0000000E+000	0.0000000E+000	77.239	0.0000000E+000	0.0000000E+000	0.0000000E+000	-77.239	0.0000000E+000	0.0000000E+000	0.0000000E+000	-12.761	0.0000000E+000	0.0000000E+000	0.0000000E+000	12.761	4.41544	77.239	2.02043e-05	-3.73088e-07	-7.40871e-11	-3.73014e-07	0.27187	198191	39.3565	198152
0.0146812	61.4825	16.3939	63.6306	-14.9301	464.334	0.271924	-0.000956683	661269	43894.4	1	12	0.0048726	7.65764e-05	0	-7.21871e-05	9.21806e-05	1.34223e-06	-16.8768	0.017528	0.0167731	0.00508863	-14.9307	63.6481	61.4992	16.3989	0.0151852	0.00404902	0.0157157	14.9301	4.38944e+07	1.64619e+08	1.7037e+08	-75.0699	0.0000000E+000	0.0000000E+000	0.0000000E+000	75.0699	0.0000000E+000	0.0000000E+000	0.0000000E+000	-75.0699	0.0000000E+000	0.0000000E+000	0.0000000E+000	-14.9301	0.0000000E+000	0.0000000E+000	0.0000000E+000	14.9301	3.75034	75.0699	0.00010039	-2.60145e-07	-8.81876e-11	-2.60056e-07	0.271832	284236	96.3545	284140
0.0100092	64.3919	20.3148	67.5204	-17.5098	674.516	0.271928	-0.000337901	782725	70854.1	1	12	0.0048739	7.21841e-05	0	9.43199e-05	9.21806e-05	2.04866e-06	-6.83095	0.0283811	0.0281796	0.00337565	-17.5054	67.5483	64.4201	20.3182	0.0141241	0.00445598	0.0148103	17.5098	7.08541e+07	2.24586e+08	2.35498e+08	-72.4902	0.0000000E+000	0.0000000E+000	0.0000000E+000	72.4902	0.0000000E+000	0.0000000E+000	0.0000000E+000	-72.4902	0.0000000E+000	0.0000000E+000	0.0000000E+000	-17.5098	0.0000000E+000	0.0000000E+000	0.0000000E+000	17.5098	3.1697	72.4902	0.000166507	-9.18848e-08	-3.1148e-11	-9.18537e-08	0.271836	804756	272.803	804483