File: txt/18734_R302_UA700_SOC00_C04.mpt
EC-Lab ASCII FILE
Nb header lines : 65

Potentio Electrochemical Impedance Spectroscopy

Run on channel : 4 (SN 66756)
User :
CE vs. WE compliance from -10 V to 10 V
Electrode connection : standard
Potential control : Ewe
Ewe ctrl range : min = -10.00 V, max = 10.00 V
Safety Limits :
	Do not start on E overload
Acquisition started on : 10/31/2025 11:54:27.375
Technique started on : 10/31/2025 11:54:29.297
Loaded Setting File :  C:\Users\Celltest\OneDrive - store-dot.com\Documents\EC-Lab\Data\@Biologic Test Protocols\anode half cell EIS SOC00.mps
Saved on :
	File : 18734_R302_UA700_SOC00_C04.mpr
	Directory : C:\Users\Celltest\OneDrive - store-dot.com\Documents\EC-Lab\Data\Charmaine\
	Host : 169.254.61.224
Device : VMP-3e (SN .003165)
Address : USB
EC-LAB for windows v11.62 (software)
Internet server v27.00 (firmware)
Command interpretor v12.03 (firmware)
Electrode material :
Initial state :
Electrolyte :
Comments :
Electrode surface area : 0.001 cm²
Characteristic mass : 0.001 g
Equivalent Weight : 0.000 g/eq.
Density : 0.000 g/cm3
Volume (V) : 0.001 cm³
Record Ece
Cycle Definition : Charge/Discharge alternance
Mode                Single sine
E (V)               0.0000
vs.                 Eoc
tE (h:m:s)          0:00:0.0000
record              0
dI                  0.000
unit dI             mA
dt (s)              0.000
fi                  100.000
unit fi             kHz
ff                  10.000
unit ff             mHz
Nd                  6
Points              per decade
spacing             Logarithmic
Va (mV)             5.0
pw                  0.10
Na                  2
corr                0
E range min (V)     -10.000
E range max (V)     10.000
I Range             Auto
Bandwidth           5
nc cycles           0
goto Ns'            0
nr cycles           0
inc. cycle          0

freq/Hz	Re(Z)/Ohm	-Im(Z)/Ohm	|Z|/Ohm	Phase(Z)/deg	time/s	<Ewe>/V	<I>/mA	Cs/µF	Cp/µF	cycle number	I Range	|Ewe|/V	|I|/A	Ns	(Q-Qo)/mA.h	<Ece>/V	|Ece|/V	Phase(Zce)/deg	|Zce|/Ohm	Re(Zce)/Ohm	-Im(Zce)/Ohm	Phase(Zwe-ce)/deg	|Zwe-ce|/Ohm	Re(Zwe-ce)/Ohm	-Im(Zwe-ce)/Ohm	Re(Y)/Ohm-1	Im(Y)/Ohm-1	|Y|/Ohm-1	Phase(Y)/deg	Re(C)/nF	Im(C)/nF	|C|/nF	Phase(C)/deg	Re(M)	Im(M)	|M|	Phase(M)/deg	Re(Permittivity)	Im(Permittivity)	|Permittivity|	Phase(Permittivity)/deg	Re(Resistivity)/Ohm.cm	Im(Resistivity)/Ohm.cm	|Resistivity|/Ohm.cm	Phase(Resistivity)/deg	Re(Conductivity)/mS/cm	Im(Conductivity)/mS/cm	|Conductivity|/mS/cm	Phase(Conductivity)/deg	Tan(Delta)	Loss Angle(Delta)/deg	dq/mA.h	Pwe/W	Pce/W	Pwe-ce/W	<Ewe-Ece>/V	Rwe/Ohm	Rce/Ohm	Rwe-ce/Ohm		Ewe-Ece/V
100004	1.59529	0.566599	1.69293	-19.5535	1.92154	0.259904	-0.00487124	2.80885	0.314632	1	9	0.00482473	0.00284993	0	-5.86318e-06	0.000156488	2.67822e-05	58.304	0.00939748	0.00493756	-0.00799582	-19.2429	1.69493	1.60023	0.558603	0.556628	0.197697	0.590693	19.5535	314.633	885.868	940.082	-70.4465	0.0000000E+000	0.0000000E+000	0.0000000E+000	70.4465	0.0000000E+000	0.0000000E+000	0.0000000E+000	-70.4465	0.0000000E+000	0.0000000E+000	0.0000000E+000	-19.5535	0.0000000E+000	0.0000000E+000	0.0000000E+000	19.5535	2.81556	70.4465	-5.86318e-06	-1.26605e-06	-7.62291e-10	-1.26529e-06	0.259747	53354.7	32.1248	53322.6
68132	1.70737	0.726654	1.85557	-23.0545	2.43052	0.259891	-0.0102048	3.2147	0.492994	1	9	0.0053056	0.00285928	0	-1.80367e-05	-0.000130161	1.78388e-05	51.2918	0.0062389	0.00390152	-0.00486847	-22.8692	1.85726	1.71127	0.721785	0.495876	0.211044	0.538918	23.0545	492.994	1158.36	1258.9	-66.9455	0.0000000E+000	0.0000000E+000	0.0000000E+000	66.9455	0.0000000E+000	0.0000000E+000	0.0000000E+000	-66.9455	0.0000000E+000	0.0000000E+000	0.0000000E+000	-23.0545	0.0000000E+000	0.0000000E+000	0.0000000E+000	23.0545	2.34963	66.9455	-1.21735e-05	-2.65212e-06	1.32827e-09	-2.65345e-06	0.260021	25467.6	12.755	25480.3
46420.4	1.89293	0.824445	2.06468	-23.535	2.93756	0.259879	-0.0209837	4.15863	0.663084	1	9	0.00510607	0.00247306	0	-1.97133e-05	2.27182e-05	1.71081e-05	-26.7407	0.0069178	0.00617795	0.00311269	-23.5457	2.07158	1.89911	0.827558	0.444048	0.1934	0.484337	23.535	663.084	1522.45	1660.58	-66.465	0.0000000E+000	0.0000000E+000	0.0000000E+000	66.465	0.0000000E+000	0.0000000E+000	0.0000000E+000	-66.465	0.0000000E+000	0.0000000E+000	0.0000000E+000	-23.535	0.0000000E+000	0.0000000E+000	0.0000000E+000	23.535	2.296	66.465	-1.67655e-06	-5.45322e-06	-4.76712e-10	-5.45275e-06	0.259856	12384.8	1.08266	12383.7
31621.1	2.11069	0.91587	2.30083	-23.457	3.44453	0.259873	-0.0217669	5.49552	0.870775	1	9	0.00507533	0.00220587	0	-2.14214e-05	3.60827e-06	1.86087e-05	12.7102	0.008436	0.00822928	-0.00185609	-23.3334	2.30765	2.11892	0.914014	0.398707	0.173007	0.434625	23.457	870.776	2006.77	2187.55	-66.543	0.0000000E+000	0.0000000E+000	0.0000000E+000	66.543	0.0000000E+000	0.0000000E+000	0.0000000E+000	-66.543	0.0000000E+000	0.0000000E+000	0.0000000E+000	-23.457	0.0000000E+000	0.0000000E+000	0.0000000E+000	23.457	2.30457	66.543	-1.70813e-06	-5.65664e-06	-7.8541e-11	-5.65656e-06	0.259869	11938.9	0.165768	11938.7
21544.7	2.34206	1.00328	2.5479	-23.1891	3.82752	0.259877	-0.0208345	7.36306	1.14166	1	9	0.00549484	0.00215661	0	-2.78991e-05	-0.000416811	7.20282e-06	-23.4288	0.00333988	0.00306452	0.00132796	-23.1894	2.55124	2.34512	1.00461	0.360772	0.154545	0.39248	23.1891	1141.66	2665.09	2899.33	-66.8109	0.0000000E+000	0.0000000E+000	0.0000000E+000	66.8109	0.0000000E+000	0.0000000E+000	0.0000000E+000	-66.8109	0.0000000E+000	0.0000000E+000	0.0000000E+000	-23.1891	0.0000000E+000	0.0000000E+000	0.0000000E+000	23.1891	2.3344	66.8109	-6.47769e-06	-5.41441e-06	8.68405e-09	-5.42309e-06	0.260294	12473.4	20.0058	12493.4
14678.6	2.55918	1.09677	2.7843	-23.1983	4.33454	0.259866	-0.0208345	9.88595	1.53399	1	9	0.00507222	0.00182172	0	-3.22498e-05	3.60827e-06	7.42995e-06	164.815	0.00407853	-0.00393612	-0.00106834	-23.21	2.78026	2.55524	1.09571	0.330118	0.141477	0.359157	23.1983	1533.99	3579.36	3894.22	-66.8017	0.0000000E+000	0.0000000E+000	0.0000000E+000	66.8017	0.0000000E+000	0.0000000E+000	0.0000000E+000	-66.8017	0.0000000E+000	0.0000000E+000	0.0000000E+000	-23.1983	0.0000000E+000	0.0000000E+000	0.0000000E+000	23.1983	2.33337	66.8017	-4.35069e-06	-5.41418e-06	-7.51766e-11	-5.41411e-06	0.259862	12472.9	0.173187	12472.7
10002.2	2.81146	1.20577	3.05911	-23.2135	4.71755	0.259878	-0.0178134	13.1965	2.05021	1	9	0.00546078	0.00178509	0	-3.38595e-05	-7.28316e-05	4.25697e-06	-53.7356	0.00238474	0.0014106	0.0019228	-23.2361	3.06117	2.81287	1.2077	0.300428	0.128847	0.326892	23.2135	2050.21	4780.4	5201.49	-66.7865	0.0000000E+000	0.0000000E+000	0.0000000E+000	66.7865	0.0000000E+000	0.0000000E+000	0.0000000E+000	-66.7865	0.0000000E+000	0.0000000E+000	0.0000000E+000	-23.2135	0.0000000E+000	0.0000000E+000	0.0000000E+000	23.2135	2.33166	66.7865	-1.60977e-06	-4.62932e-06	1.29738e-09	-4.63062e-06	0.259951	14588.9	4.08857	14593
6810.42	3.05797	1.34822	3.34199	-23.7921	5.10256	0.259868	-0.0276972	17.3334	2.82097	1	9	0.00542601	0.00162359	0	-4.16982e-05	-0.000321261	3.72429e-05	31.6599	0.0229386	0.0195249	-0.0120399	-23.4695	3.35505	3.07749	1.33618	0.273794	0.120713	0.299223	23.7921	2820.97	6398.37	6992.64	-66.2079	0.0000000E+000	0.0000000E+000	0.0000000E+000	66.2079	0.0000000E+000	0.0000000E+000	0.0000000E+000	-66.2079	0.0000000E+000	0.0000000E+000	0.0000000E+000	-23.7921	0.0000000E+000	0.0000000E+000	0.0000000E+000	23.7921	2.26815	66.2079	-7.83861e-06	-7.19762e-06	8.89804e-09	-7.20651e-06	0.260189	9382.45	11.599	9394.05
4646	3.32491	1.52059	3.65612	-24.5762	5.49462	0.259873	-0.0172167	22.5283	3.89684	1	9	0.00529502	0.00144826	0	-4.62127e-05	6.09381e-05	1.4509e-05	-58.8073	0.0100182	0.00518863	0.0085699	-24.6643	3.66441	3.3301	1.52916	0.248736	0.113755	0.273514	24.5762	3896.84	8520.79	9369.59	-65.4238	0.0000000E+000	0.0000000E+000	0.0000000E+000	65.4238	0.0000000E+000	0.0000000E+000	0.0000000E+000	-65.4238	0.0000000E+000	0.0000000E+000	0.0000000E+000	-24.5762	0.0000000E+000	0.0000000E+000	0.0000000E+000	24.5762	2.18659	65.4238	-4.51454e-06	-4.47416e-06	-1.04915e-09	-4.47311e-06	0.259812	15094.3	3.53948	15090.7
3163.08	3.63613	1.7884	4.05214	-26.1898	6.25466	0.259869	-0.0071194	28.135	5.48031	1	10	0.00502042	0.00123895	0	-5.11879e-05	-0.000130161	2.80171e-06	9.81428	0.00226135	0.00222826	-0.000385459	-26.171	4.05397	3.63836	1.78801	0.221448	0.108917	0.246783	26.1898	5480.31	11142.5	12417.3	-63.8102	0.0000000E+000	0.0000000E+000	0.0000000E+000	63.8102	0.0000000E+000	0.0000000E+000	0.0000000E+000	-63.8102	0.0000000E+000	0.0000000E+000	0.0000000E+000	-26.1898	0.0000000E+000	0.0000000E+000	0.0000000E+000	26.1898	2.03318	63.8102	-4.97516e-06	-1.85011e-06	9.26672e-10	-1.85104e-06	0.259999	36501.5	18.2826	36519.8
2155.69	3.95095	2.11929	4.48346	-28.2092	6.91978	0.25988	-0.00696274	34.8372	7.78393	1	10	0.00500533	0.0011164	0	-5.2823e-05	-0.000149271	9.58787e-06	-9.91032	0.0085882	0.00846005	0.00147809	-28.1748	4.49161	3.95941	2.12077	0.196551	0.10543	0.223042	28.2092	7783.93	14511.4	16467.2	-61.7908	0.0000000E+000	0.0000000E+000	0.0000000E+000	61.7908	0.0000000E+000	0.0000000E+000	0.0000000E+000	-61.7908	0.0000000E+000	0.0000000E+000	0.0000000E+000	-28.2092	0.0000000E+000	0.0000000E+000	0.0000000E+000	28.2092	1.86428	61.7908	-1.63518e-06	-1.80948e-06	1.03934e-09	-1.81052e-06	0.260029	37324.4	21.4386	37345.9
1468.59	4.30021	2.59207	5.02102	-31.0806	7.37105	0.259878	-0.00611972	41.8093	11.1425	1	10	0.00502582	0.00100096	0	-5.29658e-05	-0.000168381	6.69704e-06	101.792	0.00669064	-0.00136734	-0.00654943	-31.0246	5.01647	4.29884	2.58552	0.170571	0.102817	0.199163	31.0806	11142.5	18485.3	21583.8	-58.9194	0.0000000E+000	0.0000000E+000	0.0000000E+000	58.9194	0.0000000E+000	0.0000000E+000	0.0000000E+000	-58.9194	0.0000000E+000	0.0000000E+000	0.0000000E+000	-31.0806	0.0000000E+000	0.0000000E+000	0.0000000E+000	31.0806	1.65899	58.9194	-1.42811e-07	-1.59038e-06	1.03045e-09	-1.59141e-06	0.260046	42465.6	27.5146	42493.2
1000.32	4.73051	3.23484	5.73079	-34.3653	7.82185	0.25988	-0.00632116	49.1845	15.6713	1	10	0.00489669	0.000854453	0	-5.44189e-05	0.000118268	1.02288e-05	83.0257	0.0119711	0.00145359	-0.0118825	-34.259	5.72529	4.73196	3.22296	0.144039	0.0984974	0.174496	34.3653	15671.3	22917.1	27763	-55.6347	0.0000000E+000	0.0000000E+000	0.0000000E+000	55.6347	0.0000000E+000	0.0000000E+000	0.0000000E+000	-55.6347	0.0000000E+000	0.0000000E+000	0.0000000E+000	-34.3653	0.0000000E+000	0.0000000E+000	0.0000000E+000	34.3653	1.46236	55.6347	-1.45311e-06	-1.64274e-06	-7.4759e-10	-1.64199e-06	0.259761	41112.7	18.7099	41094
681.09	5.27518	4.12097	6.69402	-37.997	8.27255	0.259877	-0.00666061	56.7043	21.4902	1	10	0.00476654	0.00071206	0	-5.48919e-05	-0.000149271	1.12448e-05	-48.7413	0.0157919	0.0104141	0.0118714	-38.0221	6.70954	5.28559	4.13284	0.117723	0.0919656	0.149387	37.997	21490.2	27509.2	34908.3	-52.003	0.0000000E+000	0.0000000E+000	0.0000000E+000	52.003	0.0000000E+000	0.0000000E+000	0.0000000E+000	-52.003	0.0000000E+000	0.0000000E+000	0.0000000E+000	-37.997	0.0000000E+000	0.0000000E+000	0.0000000E+000	37.997	1.28008	52.003	-4.72901e-07	-1.73094e-06	9.94239e-10	-1.73194e-06	0.260027	39017	22.4111	39039.4
463.961	5.99598	5.31997	8.01585	-41.5813	8.72435	0.259877	-0.00608617	64.4807	28.402	1	10	0.00466412	0.000581862	0	-5.59613e-05	-7.28316e-05	8.01015e-06	48.881	0.0137664	0.00905313	-0.0103709	-41.4829	8.01575	6.00503	5.3096	0.093317	0.0827962	0.124753	41.5813	28402	32011	42794.6	-48.4187	0.0000000E+000	0.0000000E+000	0.0000000E+000	48.4187	0.0000000E+000	0.0000000E+000	0.0000000E+000	-48.4187	0.0000000E+000	0.0000000E+000	0.0000000E+000	-41.5813	0.0000000E+000	0.0000000E+000	0.0000000E+000	41.5813	1.12707	48.4187	-1.06949e-06	-1.58165e-06	4.43265e-10	-1.5821e-06	0.25995	42699.6	11.9667	42711.5
316.316	7.01278	6.88202	9.82554	-44.4608	9.17203	0.259875	-0.00689189	73.1111	35.8676	1	10	0.00458867	0.000467014	0	-5.65531e-05	-0.000206601	7.01183e-06	-6.86143	0.0150142	0.0149066	0.00179372	-44.4075	9.83744	7.02768	6.88381	0.0726402	0.0712858	0.101776	44.4608	35867.6	36549.1	51208.6	-45.5392	0.0000000E+000	0.0000000E+000	0.0000000E+000	45.5392	0.0000000E+000	0.0000000E+000	0.0000000E+000	-45.5392	0.0000000E+000	0.0000000E+000	0.0000000E+000	-44.4608	0.0000000E+000	0.0000000E+000	0.0000000E+000	44.4608	1.019	45.5392	-5.91747e-07	-1.79103e-06	1.42387e-09	-1.79245e-06	0.260081	37707.3	29.9774	37737.3
215.345	8.53985	8.87754	12.3183	-46.1107	9.62252	0.259883	-0.00724253	83.2518	43.2394	1	10	0.0045478	0.000369192	0	-5.76927e-05	0.000137378	5.60058e-06	-61.9019	0.0151698	0.00714474	0.013382	-46.1299	12.3329	8.54699	8.89092	0.0562796	0.058505	0.0811803	46.1107	43239.4	41594.6	59998	-43.8893	0.0000000E+000	0.0000000E+000	0.0000000E+000	43.8893	0.0000000E+000	0.0000000E+000	0.0000000E+000	-43.8893	0.0000000E+000	0.0000000E+000	0.0000000E+000	-46.1107	0.0000000E+000	0.0000000E+000	0.0000000E+000	46.1107	0.961962	43.8893	-1.13964e-06	-1.88221e-06	-9.94964e-10	-1.88121e-06	0.259745	35882.9	18.9682	35863.9
146.737	10.8197	11.1412	15.5304	-45.8388	10.0685	0.259883	-0.00742904	97.3525	50.1012	1	10	0.00451618	0.000290797	0	-5.89703e-05	-0.000187491	1.47224e-05	-4.87674	0.0506278	0.0504446	0.004304	-45.7166	15.5686	10.8701	11.1455	0.0448592	0.0461922	0.06439	45.8388	50101.2	48655.4	69839	-44.1612	0.0000000E+000	0.0000000E+000	0.0000000E+000	44.1612	0.0000000E+000	0.0000000E+000	0.0000000E+000	-44.1612	0.0000000E+000	0.0000000E+000	0.0000000E+000	-45.8388	0.0000000E+000	0.0000000E+000	0.0000000E+000	45.8388	0.971142	44.1612	-1.27755e-06	-1.93068e-06	1.39288e-09	-1.93208e-06	0.260071	34982.1	25.2376	35007.3
100.032	14.1311	13.6084	19.6183	-43.9206	10.7338	0.259883	-0.00705229	116.916	56.2559	1	10	0.00499568	0.000254645	0	-5.99225e-05	-0.000206601	5.06226e-06	23.654	0.0198797	0.0182095	-0.007976	-43.867	19.6258	14.1493	13.6004	0.0367159	0.0353579	0.0509729	43.9206	56255.9	58416.5	81100	-46.0794	0.0000000E+000	0.0000000E+000	0.0000000E+000	46.0794	0.0000000E+000	0.0000000E+000	0.0000000E+000	-46.0794	0.0000000E+000	0.0000000E+000	0.0000000E+000	-43.9206	0.0000000E+000	0.0000000E+000	0.0000000E+000	43.9206	1.03841	46.0794	-9.52229e-07	-1.83277e-06	1.45701e-09	-1.83423e-06	0.26009	36850.8	29.2956	36880.1
68.104	18.6415	15.6029	24.3096	-39.9293	11.4474	0.259873	-0.00337285	149.776	61.7017	1	11	0.00500427	0.000205856	0	-6.09975e-05	-3.46116e-05	1.18923e-05	52.8017	0.0577704	0.0349265	-0.0460169	-39.7933	24.3069	18.6764	15.5569	0.0315446	0.0264028	0.041136	39.9293	61701.8	73717.8	96132.3	-50.0707	0.0000000E+000	0.0000000E+000	0.0000000E+000	50.0707	0.0000000E+000	0.0000000E+000	0.0000000E+000	-50.0707	0.0000000E+000	0.0000000E+000	0.0000000E+000	-39.9293	0.0000000E+000	0.0000000E+000	0.0000000E+000	39.9293	1.19474	50.0707	-1.07502e-06	-8.76511e-07	1.1674e-10	-8.76627e-07	0.259907	77048.4	10.2618	77058.7
46.4415	23.9737	16.6173	29.1697	-34.7276	11.8837	0.259872	-0.00355006	206.231	66.9282	1	11	0.00500486	0.000171577	0	-6.13304e-05	-0.000283041	1.19391e-05	123.386	0.0695844	-0.0382906	-0.0581019	-34.6766	29.1051	23.9354	16.5592	0.0281754	0.0195297	0.0342821	34.7276	66928.2	96557.1	117485	-55.2724	0.0000000E+000	0.0000000E+000	0.0000000E+000	55.2724	0.0000000E+000	0.0000000E+000	0.0000000E+000	-55.2724	0.0000000E+000	0.0000000E+000	0.0000000E+000	-34.7276	0.0000000E+000	0.0000000E+000	0.0000000E+000	34.7276	1.4427	55.2724	-3.3291e-07	-9.2256e-07	1.00481e-09	-9.23565e-07	0.260155	73202	79.7285	73281.7
31.6296	29.3944	16.2566	33.5903	-28.9448	12.3136	0.259867	-0.00370191	309.527	72.4983	1	11	0.00499151	0.0001486	0	-6.17585e-05	-0.000149271	1.20747e-05	-9.83638	0.0812563	0.0800618	0.0138814	-28.8995	33.6671	29.4745	16.2705	0.0260518	0.0144079	0.0297705	28.9448	72498.3	131088	149800	-61.0552	0.0000000E+000	0.0000000E+000	0.0000000E+000	61.0552	0.0000000E+000	0.0000000E+000	0.0000000E+000	-61.0552	0.0000000E+000	0.0000000E+000	0.0000000E+000	-28.9448	0.0000000E+000	0.0000000E+000	0.0000000E+000	28.9448	1.80816	61.0552	-4.28033e-07	-9.62003e-07	5.52589e-10	-9.62556e-07	0.260016	70198.2	40.3228	70238.5
21.5517	34.1902	14.7383	37.2315	-23.3193	12.7345	0.259883	-0.00340829	501.062	78.5169	1	11	0.00498411	0.000133868	0	-6.22372e-05	-0.000263931	4.94481e-06	-21.5807	0.0369379	0.0343486	0.0135862	-23.3176	37.2684	34.2245	14.7518	0.0246649	0.0106322	0.026859	23.3193	78516.9	182145	198348	-66.6807	0.0000000E+000	0.0000000E+000	0.0000000E+000	66.6807	0.0000000E+000	0.0000000E+000	0.0000000E+000	-66.6807	0.0000000E+000	0.0000000E+000	0.0000000E+000	-23.3193	0.0000000E+000	0.0000000E+000	0.0000000E+000	23.3193	2.31982	66.6807	-4.78731e-07	-8.85758e-07	8.99554e-10	-8.86658e-07	0.260147	76250.3	77.4379	76327.7
14.6852	38.0163	12.7269	40.0901	-18.5093	13.1951	0.259885	-0.00298671	851.565	85.8207	1	11	0.00498835	0.000124429	0	-6.31572e-05	4.18282e-05	1.2219e-05	36.3578	0.0982011	0.0790844	-0.0582161	-18.3947	40.1467	38.0954	12.6687	0.0236535	0.00791864	0.0249438	18.5093	85820.7	256353	270337	-71.4907	0.0000000E+000	0.0000000E+000	0.0000000E+000	71.4907	0.0000000E+000	0.0000000E+000	0.0000000E+000	-71.4907	0.0000000E+000	0.0000000E+000	0.0000000E+000	-18.5093	0.0000000E+000	0.0000000E+000	0.0000000E+000	18.5093	2.98707	71.4907	-9.20021e-07	-7.76203e-07	-1.24929e-10	-7.76078e-07	0.259843	87013.8	14.0047	86999.8
10.0032	40.8071	10.4927	42.1345	-14.4201	13.6459	0.259885	-0.00319004	1516.33	94.0359	1	11	0.0049835	0.000118276	0	-6.34376e-05	-0.000168381	1.11102e-05	-10.782	0.0939341	0.0922758	0.0175725	-14.412	42.2283	40.8994	10.5103	0.0229858	0.00591034	0.0237335	14.4201	94035.9	365713	377610	-75.5799	0.0000000E+000	0.0000000E+000	0.0000000E+000	75.5799	0.0000000E+000	0.0000000E+000	0.0000000E+000	-75.5799	0.0000000E+000	0.0000000E+000	0.0000000E+000	-14.4201	0.0000000E+000	0.0000000E+000	0.0000000E+000	14.4201	3.88908	75.5799	-2.80372e-07	-8.29043e-07	5.37143e-10	-8.2958e-07	0.260053	81467.5	52.7834	81520.3
6.81719	42.9619	8.62586	43.8193	-11.3528	13.9855	0.259881	-0.00276958	2706.53	104.878	1	11	0.00499557	0.000114004	0	-6.43193e-05	-0.000302151	3.50946e-05	2.93279	0.307837	0.307434	-0.0157503	-11.2542	44.1177	43.2694	8.61011	0.0223745	0.00449232	0.022821	11.3528	104878	522357	532781	-78.6472	0.0000000E+000	0.0000000E+000	0.0000000E+000	78.6472	0.0000000E+000	0.0000000E+000	0.0000000E+000	-78.6472	0.0000000E+000	0.0000000E+000	0.0000000E+000	-11.3528	0.0000000E+000	0.0000000E+000	0.0000000E+000	11.3528	4.9806	78.6472	-8.81722e-07	-7.19761e-07	8.36832e-10	-7.20598e-07	0.260183	93834	109.096	93943.1
4.63925	44.3986	7.1049	44.9635	-9.09169	14.4705	0.259895	-0.00280316	4828.52	120.562	1	11	0.00498622	0.000110895	0	-6.35015e-05	-0.000149271	9.45029e-06	-8.41358	0.0852184	0.0843013	0.012469	-9.09041	45.0487	44.4829	7.11737	0.0219608	0.00351429	0.0222403	9.09169	120562	753392	762978	-80.9083	0.0000000E+000	0.0000000E+000	0.0000000E+000	80.9083	0.0000000E+000	0.0000000E+000	0.0000000E+000	-80.9083	0.0000000E+000	0.0000000E+000	0.0000000E+000	-9.09169	0.0000000E+000	0.0000000E+000	0.0000000E+000	9.09169	6.24901	80.9083	8.1782e-07	-7.28526e-07	4.18431e-10	-7.28944e-07	0.260044	92714.9	53.2511	92768.2
3.1604	45.6227	5.96676	46.0112	-7.45113	15.1635	0.259896	-0.00234968	8439.96	141.935	1	11	0.00499656	0.000108594	0	-6.32634e-05	-7.28316e-05	3.48339e-06	-35.2031	0.0320771	0.0262106	0.0184917	-7.46971	46.0396	45.6489	5.98525	0.0215503	0.00281845	0.0217338	7.45113	141935	1.08525e+06	1.0945e+06	-82.5489	0.0000000E+000	0.0000000E+000	0.0000000E+000	82.5489	0.0000000E+000	0.0000000E+000	0.0000000E+000	-82.5489	0.0000000E+000	0.0000000E+000	0.0000000E+000	-7.45113	0.0000000E+000	0.0000000E+000	0.0000000E+000	7.45113	7.64615	82.5489	2.38113e-07	-6.10673e-07	1.71131e-10	-6.10844e-07	0.259969	110609	30.9963	110640
2.15577	46.5423	5.24944	46.8374	-6.43511	16.1672	0.2599	-0.00179585	14063.9	176.663	1	11	0.00498571	0.000106447	0	-6.49579e-05	8.00481e-05	2.30235e-06	18.6888	0.021629	0.0204886	-0.00693054	-6.42388	46.857	46.5628	5.24251	0.0212159	0.00239292	0.0213505	6.43511	176663	1.56632e+06	1.57625e+06	-83.5649	0.0000000E+000	0.0000000E+000	0.0000000E+000	83.5649	0.0000000E+000	0.0000000E+000	0.0000000E+000	-83.5649	0.0000000E+000	0.0000000E+000	0.0000000E+000	-6.43511	0.0000000E+000	0.0000000E+000	0.0000000E+000	6.43511	8.86615	83.5649	-1.69457e-06	-4.66741e-07	-1.43754e-10	-4.66597e-07	0.25982	144722	44.574	144678
1.46631	47.3955	4.77741	47.6357	-5.7559	18.3543	0.259889	-0.00170112	22719.6	228.519	1	12	0.00498901	0.000104732	0	-6.86936e-05	-0.000206601	5.64128e-06	61.3699	0.0538637	0.0258089	-0.0472779	-5.69624	47.6567	47.4214	4.73013	0.0208868	0.00210537	0.0209927	5.7559	228519	2.26708e+06	2.27857e+06	-84.2441	0.0000000E+000	0.0000000E+000	0.0000000E+000	84.2441	0.0000000E+000	0.0000000E+000	0.0000000E+000	-84.2441	0.0000000E+000	0.0000000E+000	0.0000000E+000	-5.7559	0.0000000E+000	0.0000000E+000	0.0000000E+000	5.7559	9.92076	84.2441	-3.73561e-06	-4.42101e-07	3.51453e-10	-4.42452e-07	0.260095	152775	121.45	152897
1.00006	48.3273	4.4791	48.5344	-5.2952	20.4828	0.259887	-0.00186927	35530.5	302.611	1	12	0.00498743	0.000102761	0	-7.04821e-05	-0.000206601	3.28445e-06	48.7189	0.0319621	0.0210871	-0.0240189	-5.26468	48.5532	48.3484	4.45508	0.020516	0.00190148	0.0206039	5.2952	302610	3.26502e+06	3.27901e+06	-84.7048	0.0000000E+000	0.0000000E+000	0.0000000E+000	84.7048	0.0000000E+000	0.0000000E+000	0.0000000E+000	-84.7048	0.0000000E+000	0.0000000E+000	0.0000000E+000	-5.2952	0.0000000E+000	0.0000000E+000	0.0000000E+000	5.2952	10.7895	84.7048	-1.78855e-06	-4.85799e-07	3.86194e-10	-4.86185e-07	0.260094	139031	110.525	139142
0.681362	49.2005	4.47794	49.4038	-5.2004	23.5949	0.259892	-0.00201165	52163.1	428.548	1	12	0.00499051	0.000101015	0	-7.00266e-05	9.9158e-05	3.24908e-06	50.4269	0.0321644	0.0204907	-0.0247927	-5.16963	49.422	49.221	4.45315	0.020158	0.00183467	0.0202413	5.2004	428548	4.70858e+06	4.72804e+06	-84.7996	0.0000000E+000	0.0000000E+000	0.0000000E+000	84.7996	0.0000000E+000	0.0000000E+000	0.0000000E+000	-84.7996	0.0000000E+000	0.0000000E+000	0.0000000E+000	-5.2004	0.0000000E+000	0.0000000E+000	0.0000000E+000	5.2004	10.9873	84.7996	4.55541e-07	-5.22812e-07	-1.99472e-10	-5.22613e-07	0.259793	129193	49.2918	129144
0.464091	50.0698	4.55062	50.2761	-5.19309	28.1514	0.25989	-0.00193274	75361	617.397	1	12	0.00499111	9.9274e-05	0	-6.63401e-05	3.60827e-06	3.87183e-06	-18.7621	0.0390014	0.036929	0.0125444	-5.20351	50.3141	50.1067	4.56317	0.0198085	0.00180031	0.0198901	5.19309	617396	6.79312e+06	6.82112e+06	-84.8069	0.0000000E+000	0.0000000E+000	0.0000000E+000	84.8069	0.0000000E+000	0.0000000E+000	0.0000000E+000	-84.8069	0.0000000E+000	0.0000000E+000	0.0000000E+000	-5.19309	0.0000000E+000	0.0000000E+000	0.0000000E+000	5.19309	11.0028	84.8069	3.68649e-06	-5.02301e-07	-6.97387e-12	-5.02294e-07	0.259887	134467	1.86692	134465
0.316193	51.0932	4.68211	51.3073	-5.23588	34.826	0.259887	-0.00167732	107504	895.265	1	12	0.00498517	9.71629e-05	0	-6.14152e-05	9.9158e-05	2.033e-06	15.0669	0.0209237	0.0202044	-0.00543905	-5.22778	51.3269	51.1134	4.67667	0.0194091	0.00177862	0.0194904	5.23588	895265	9.76951e+06	9.81044e+06	-84.7641	0.0000000E+000	0.0000000E+000	0.0000000E+000	84.7641	0.0000000E+000	0.0000000E+000	0.0000000E+000	-84.7641	0.0000000E+000	0.0000000E+000	0.0000000E+000	-5.23588	0.0000000E+000	0.0000000E+000	0.0000000E+000	5.23588	10.9124	84.7641	4.92491e-06	-4.35913e-07	-1.6632e-10	-4.35747e-07	0.259788	154941	59.1169	154882
0.215268	52.2268	5.00708	52.4663	-5.47631	44.6194	0.259902	-0.000994505	147658	1344.82	1	12	0.00498994	9.51075e-05	0	-5.95355e-05	-0.000225711	2.67757e-06	23.056	0.0281531	0.0259043	-0.0110256	-5.46163	52.491	52.2527	4.99605	0.0189729	0.00181896	0.0190599	5.47631	1.34482e+06	1.40273e+07	1.40916e+07	-84.5237	0.0000000E+000	0.0000000E+000	0.0000000E+000	84.5237	0.0000000E+000	0.0000000E+000	0.0000000E+000	-84.5237	0.0000000E+000	0.0000000E+000	0.0000000E+000	-5.47631	0.0000000E+000	0.0000000E+000	0.0000000E+000	5.47631	10.4306	84.5237	1.87967e-06	-2.58474e-07	2.24471e-10	-2.58698e-07	0.260128	261338	226.958	261565
0.146929	53.3445	5.53104	53.6305	-5.91957	58.9578	0.2599	-0.000547362	195842	2083.03	1	12	0.00498772	9.30015e-05	0	-6.73857e-05	6.09381e-05	2.13273e-06	14.8787	0.0229322	0.0221633	-0.00588836	-5.91088	53.652	53.3667	5.52515	0.0185467	0.00192302	0.0186461	5.91957	2.08303e+06	2.009e+07	2.01977e+07	-84.0804	0.0000000E+000	0.0000000E+000	0.0000000E+000	84.0804	0.0000000E+000	0.0000000E+000	0.0000000E+000	-84.0804	0.0000000E+000	0.0000000E+000	0.0000000E+000	-5.91957	0.0000000E+000	0.0000000E+000	0.0000000E+000	5.91957	9.64457	84.0804	-7.85023e-06	-1.4226e-07	-3.33552e-11	-1.42226e-07	0.259839	474824	111.331	474712
0.0999041	54.5217	6.20265	54.8734	-6.49033	80.034	0.259893	-0.000412342	256838	3281.63	1	12	0.004992	9.09731e-05	0	-9.13772e-05	0.000175598	2.91159e-06	0.803123	0.032005	0.0320019	-0.000448604	-6.48609	54.9052	54.5537	6.2022	0.018107	0.00205993	0.0182238	6.49033	3.28163e+06	2.88458e+07	2.90318e+07	-83.5097	0.0000000E+000	0.0000000E+000	0.0000000E+000	83.5097	0.0000000E+000	0.0000000E+000	0.0000000E+000	-83.5097	0.0000000E+000	0.0000000E+000	0.0000000E+000	-6.49033	0.0000000E+000	0.0000000E+000	0.0000000E+000	6.49033	8.79008	83.5097	-2.39914e-05	-1.07165e-07	-7.24063e-11	-1.07092e-07	0.259717	630285	425.855	629859
0.0680626	55.797	7.11448	56.2487	-7.26638	110.962	0.25989	-0.000374241	328676	5258.11	1	12	0.00498979	8.87094e-05	0	-0.000130385	-0.000283041	2.33166e-06	39.0508	0.0262843	0.020412	-0.0165593	-7.24702	56.2669	55.8174	7.09792	0.0176354	0.00224863	0.0177782	7.26638	5.2581e+06	4.12379e+07	4.15718e+07	-82.7336	0.0000000E+000	0.0000000E+000	0.0000000E+000	82.7336	0.0000000E+000	0.0000000E+000	0.0000000E+000	-82.7336	0.0000000E+000	0.0000000E+000	0.0000000E+000	-7.26638	0.0000000E+000	0.0000000E+000	0.0000000E+000	7.26638	7.84274	82.7336	-3.90082e-05	-9.72617e-08	1.05926e-10	-9.73676e-08	0.260173	694445	756.306	695202
0.0464052	57.4109	8.35743	58.016	-8.28248	156.313	0.259893	-0.000734169	410375	8515.88	1	12	0.00498853	8.59854e-05	0	-0.000181094	-0.000168381	2.7932e-06	13.112	0.0324846	0.0316377	-0.00736929	-8.27079	58.0463	57.4426	8.35006	0.0170568	0.002483	0.0172366	8.28248	8.51589e+06	5.84995e+07	5.9116e+07	-81.7175	0.0000000E+000	0.0000000E+000	0.0000000E+000	81.7175	0.0000000E+000	0.0000000E+000	0.0000000E+000	-81.7175	0.0000000E+000	0.0000000E+000	0.0000000E+000	-8.28248	0.0000000E+000	0.0000000E+000	0.0000000E+000	8.28248	6.86945	81.7175	-5.07084e-05	-1.90805e-07	1.2362e-10	-1.90929e-07	0.260061	353996	229.35	354225
0.0315922	59.2331	10.3699	60.134	-9.93012	222.918	0.259897	-0.00107425	485808	14446.9	1	12	0.00498926	8.2969e-05	0	-0.000218258	0.000213818	3.69612e-06	-9.98962	0.0445482	0.0438728	0.00772776	-9.93016	60.1785	59.277	10.3776	0.0163804	0.00286771	0.0166295	9.93012	1.44469e+07	8.2521e+07	8.37761e+07	-80.0699	0.0000000E+000	0.0000000E+000	0.0000000E+000	80.0699	0.0000000E+000	0.0000000E+000	0.0000000E+000	-80.0699	0.0000000E+000	0.0000000E+000	0.0000000E+000	-9.93012	0.0000000E+000	0.0000000E+000	0.0000000E+000	9.93012	5.71201	80.0699	-3.71639e-05	-2.79193e-07	-2.29693e-10	-2.78963e-07	0.259683	241934	199.04	241735
0.0215268	61.0902	13.1262	62.4845	-12.1265	320.657	0.259887	-0.00124934	563252	24856.2	1	12	0.0049897	7.9855e-05	0	-0.000206154	-0.000149271	2.01118e-06	15.2268	0.0251854	0.0243013	-0.0066147	-12.1159	62.5069	61.1145	13.1196	0.0156469	0.00336197	0.016004	12.1265	2.48562e+07	1.15683e+08	1.18323e+08	-77.8735	0.0000000E+000	0.0000000E+000	0.0000000E+000	77.8735	0.0000000E+000	0.0000000E+000	0.0000000E+000	-77.8735	0.0000000E+000	0.0000000E+000	0.0000000E+000	-12.1265	0.0000000E+000	0.0000000E+000	0.0000000E+000	12.1265	4.65407	77.8735	1.21037e-05	-3.24686e-07	1.8649e-10	-3.24872e-07	0.260036	208020	119.48	208139
0.0146812	63.1998	16.4822	65.3137	-14.6168	463.96	0.25989	-0.000916023	657726	41885.6	1	12	0.00499052	7.64085e-05	0	-0.000110044	-0.000187491	1.19125e-06	14.11	0.0155905	0.0151201	-0.00380073	-14.6103	65.3274	63.215	16.4784	0.0148152	0.00386372	0.0153107	14.6168	4.18856e+07	1.60608e+08	1.6598e+08	-75.3831	0.0000000E+000	0.0000000E+000	0.0000000E+000	75.3831	0.0000000E+000	0.0000000E+000	0.0000000E+000	-75.3831	0.0000000E+000	0.0000000E+000	0.0000000E+000	-14.6168	0.0000000E+000	0.0000000E+000	0.0000000E+000	14.6168	3.83444	75.3831	9.61098e-05	-2.38065e-07	1.71746e-10	-2.38237e-07	0.260078	283716	204.68	283920
0.0100092	66.1545	20.6856	69.3132	-17.3637	674.142	0.259888	-0.000409814	768695	68463.4	1	12	0.0049917	7.20166e-05	0	6.27021e-05	-0.000340371	2.80689e-06	-2.45045	0.0389757	0.03894	0.00166642	-17.3555	69.3508	66.1935	20.6873	0.0137698	0.00430563	0.0144273	17.3637	6.84634e+07	2.18953e+08	2.29407e+08	-72.6363	0.0000000E+000	0.0000000E+000	0.0000000E+000	72.6363	0.0000000E+000	0.0000000E+000	0.0000000E+000	-72.6363	0.0000000E+000	0.0000000E+000	0.0000000E+000	-17.3637	0.0000000E+000	0.0000000E+000	0.0000000E+000	17.3637	3.1981	72.6363	0.000172746	-1.06506e-07	1.39489e-10	-1.06645e-07	0.260228	634160	830.55	634991