File: txt/18799_R307_UC93_26p5_SOC50_C01.mpt
EC-Lab ASCII FILE
Nb header lines : 65

Potentio Electrochemical Impedance Spectroscopy

Run on channel : 1 (SN 66354)
Grouped channel(s) : 1, 2, 3, 4, 5
User :
CE vs. WE compliance from -10 V to 10 V
Electrode connection : standard
Potential control : Ewe
Ewe ctrl range : min = -10.00 V, max = 10.00 V
Safety Limits :
	Do not start on E overload
Acquisition started on : 11/04/2025 16:29:50.795
Loaded Setting File :  C:\Users\Celltest\OneDrive - store-dot.com\Documents\EC-Lab\Data\@Biologic Test Protocols\cathode half cell EIS SOC50.mps
Saved on :
	File : 18799_R307_UC93_26p5_SOC00_C01.mpr
	Directory : C:\Users\Celltest\OneDrive - store-dot.com\Documents\EC-Lab\Data\Anna\
	Host : 169.254.61.224
Device : VMP-3e (SN .003165)
Address : USB
EC-LAB for windows v11.62 (software)
Internet server v27.00 (firmware)
Command interpretor v12.03 (firmware)
Electrode material :
Initial state :
Electrolyte :
Comments :
Electrode surface area : 0.001 cm²
Characteristic mass : 0.001 g
Equivalent Weight : 0.000 g/eq.
Density : 0.000 g/cm3
Volume (V) : 0.001 cm³
Record Ece
Cycle Definition : Charge/Discharge alternance
Mode                Multi sine
E (V)               0.0000
vs.                 Eoc
tE (h:m:s)          0:00:0.0000
record              0
dI                  0.000
unit dI             mA
dt (s)              0.000
fi                  1.000
unit fi             MHz
ff                  0.100
unit ff             mHz
Nd                  10
Points              per decade
spacing             Logarithmic
Va (mV)             5.0
pw                  0.10
Na                  2
corr                0
E range min (V)     -10.000
E range max (V)     10.000
I Range             Auto
Bandwidth           5
nc cycles           0
goto Ns'            0
nr cycles           0
inc. cycle          0

freq/Hz	Re(Z)/Ohm	-Im(Z)/Ohm	|Z|/Ohm	Phase(Z)/deg	time/s	<Ewe>/V	<I>/mA	Cs/µF	Cp/µF	cycle number	I Range	|Ewe|/V	|I|/A	Ns	(Q-Qo)/mA.h	<Ece>/V	|Ece|/V	Phase(Zce)/deg	|Zce|/Ohm	Re(Zce)/Ohm	-Im(Zce)/Ohm	Phase(Zwe-ce)/deg	|Zwe-ce|/Ohm	Re(Zwe-ce)/Ohm	-Im(Zwe-ce)/Ohm	Re(Y)/Ohm-1	Im(Y)/Ohm-1	|Y|/Ohm-1	Phase(Y)/deg	Re(C)/nF	Im(C)/nF	|C|/nF	Phase(C)/deg	Re(M)	Im(M)	|M|	Phase(M)/deg	Re(Permittivity)	Im(Permittivity)	|Permittivity|	Phase(Permittivity)/deg	Re(Resistivity)/Ohm.cm	Im(Resistivity)/Ohm.cm	|Resistivity|/Ohm.cm	Phase(Resistivity)/deg	Re(Conductivity)/mS/cm	Im(Conductivity)/mS/cm	|Conductivity|/mS/cm	Phase(Conductivity)/deg	Tan(Delta)	Loss Angle(Delta)/deg	dq/mA.h	Pwe/W	Pce/W	Pwe-ce/W	<Ewe-Ece>/V	Rwe/Ohm	Rce/Ohm	Rwe-ce/Ohm		Ewe-Ece/V
1.00002e+06	3.39575	2.67467	4.32261	-38.2258	2.23355	1.04905	0.0244333	0.0595034	0.0227819	1	10	0.000289161	6.6895e-05	0	9.98313e-06	2.34201e-05	0.00019393	-72.0796	2.89902	0.892014	2.75838	-51.7195	6.9212	4.28776	5.43305	0.181737	0.143146	0.231342	38.2258	22.7819	28.9238	36.8185	-51.7742	0.0000000E+000	0.0000000E+000	0.0000000E+000	51.7742	0.0000000E+000	0.0000000E+000	0.0000000E+000	-51.7742	0.0000000E+000	0.0000000E+000	0.0000000E+000	-38.2258	0.0000000E+000	0.0000000E+000	0.0000000E+000	38.2258	1.26959	51.7742	9.98313e-06	2.56319e-05	5.72232e-10	2.56313e-05	1.04903	42935.3	0.95853	42934.4
630957	1.92014	-0.255181	1.93702	7.57011	3.40455	1.04861	0.0879901	-0.988488	-0.0171555	1	9	0.000651315	0.000336246	0	3.1525e-05	0.000156961	0.000116591	-114.38	0.346744	-0.143132	0.315823	-1.95452	1.77804	1.777	0.060642	0.511758	-0.0680114	0.516258	-7.57011	-17.1555	129.088	130.223	-97.5701	0.0000000E+000	0.0000000E+000	0.0000000E+000	97.5701	0.0000000E+000	0.0000000E+000	0.0000000E+000	-97.5701	0.0000000E+000	0.0000000E+000	0.0000000E+000	7.57011	0.0000000E+000	0.0000000E+000	0.0000000E+000	-7.57011	7.52459	82.4299	7.1184e-06	9.22676e-05	1.3811e-08	9.22538e-05	1.04846	11917.4	1.78385	11915.6
398103	2.37726	0.272067	2.39278	-6.52885	4.17257	1.04864	0.0874686	1.46943	0.0189975	1	9	0.00232451	0.000971471	0	4.62062e-05	-9.10437e-05	6.49707e-05	171.434	0.0668787	-0.0661326	-0.00996199	-6.47027	2.32594	2.31113	0.262105	0.415214	0.0475195	0.417924	6.52885	18.9975	165.995	167.079	-83.4712	0.0000000E+000	0.0000000E+000	0.0000000E+000	83.4712	0.0000000E+000	0.0000000E+000	0.0000000E+000	-83.4712	0.0000000E+000	0.0000000E+000	0.0000000E+000	-6.52885	0.0000000E+000	0.0000000E+000	0.0000000E+000	6.52885	8.73777	83.4712	6.85068e-06	9.17228e-05	-7.96347e-09	9.17308e-05	1.04873	11988.7	1.04087	11989.8
251206	2.58755	0.672748	2.67357	-14.5739	4.93855	1.04856	0.0933548	0.941754	0.0596291	1	9	0.0051526	0.00192723	0	6.6909e-05	0.00030958	5.97561e-05	116.985	0.0310062	-0.0140693	-0.0276304	-14.0729	2.6531	2.57348	0.645117	0.361997	0.0941171	0.374032	14.5739	59.6291	229.348	236.973	-75.4261	0.0000000E+000	0.0000000E+000	0.0000000E+000	75.4261	0.0000000E+000	0.0000000E+000	0.0000000E+000	-75.4261	0.0000000E+000	0.0000000E+000	0.0000000E+000	-14.5739	0.0000000E+000	0.0000000E+000	0.0000000E+000	14.5739	3.84624	75.4261	8.45e-06	9.78885e-05	2.89007e-08	9.78596e-05	1.04825	11232	3.31616	11228.7
158486	2.82879	1.00377	3.0016	-19.5367	5.70656	1.04856	0.125766	1.00045	0.111881	1	9	0.00546223	0.00181977	0	9.07878e-05	-7.19664e-05	4.01976e-05	109.147	0.0220894	-0.00724512	-0.0208674	-19.2061	2.98785	2.82155	0.982902	0.313975	0.111411	0.333155	19.5367	111.881	315.3	334.561	-70.4633	0.0000000E+000	0.0000000E+000	0.0000000E+000	70.4633	0.0000000E+000	0.0000000E+000	0.0000000E+000	-70.4633	0.0000000E+000	0.0000000E+000	0.0000000E+000	-19.5367	0.0000000E+000	0.0000000E+000	0.0000000E+000	19.5367	2.81817	70.4633	1.52553e-05	0.000131873	-9.05093e-09	0.000131882	1.04863	8337.35	0.572225	8337.92
100004	3.12236	1.30807	3.38529	-22.7306	6.59656	1.04859	0.165069	1.21667	0.181653	1	9	0.00545481	0.00161133	0	0.000129736	-3.38118e-05	2.78421e-05	98.8573	0.017279	-0.00266052	-0.017073	-22.4808	3.37628	3.1197	1.291	0.272452	0.11414	0.295395	22.7306	181.653	433.605	470.119	-67.2694	0.0000000E+000	0.0000000E+000	0.0000000E+000	67.2694	0.0000000E+000	0.0000000E+000	0.0000000E+000	-67.2694	0.0000000E+000	0.0000000E+000	0.0000000E+000	-22.7306	0.0000000E+000	0.0000000E+000	0.0000000E+000	22.7306	2.38699	67.2694	1.65793e-05	0.000173091	-5.5813e-09	0.000173096	1.04863	6352.45	0.204834	6352.65
63093.8	3.56828	1.67651	3.9425	-25.1659	7.61251	1.04857	0.150615	1.50462	0.27208	1	9	0.005018	0.0012728	0	0.000169789	-1.47345e-05	1.90996e-05	48.6968	0.015006	0.00990464	-0.0112729	-24.9566	3.9467	3.57818	1.66524	0.22957	0.107861	0.253646	25.1659	272.08	579.093	639.825	-64.8341	0.0000000E+000	0.0000000E+000	0.0000000E+000	64.8341	0.0000000E+000	0.0000000E+000	0.0000000E+000	-64.8341	0.0000000E+000	0.0000000E+000	0.0000000E+000	-25.1659	0.0000000E+000	0.0000000E+000	0.0000000E+000	25.1659	2.12839	64.8341	1.94041e-05	0.000157929	-2.21923e-09	0.000157932	1.04858	6961.9	0.0978291	6962
39814.1	4.12314	2.0957	4.62518	-26.9432	8.37853	1.04859	0.185634	1.90745	0.391612	1	9	0.00521985	0.00112857	0	0.000200881	9.97293e-05	2.08873e-05	-28.6479	0.0185077	0.0162421	0.0088731	-26.95	4.64368	4.13938	2.10458	0.19274	0.0979654	0.216208	26.9432	391.612	770.469	864.282	-63.0568	0.0000000E+000	0.0000000E+000	0.0000000E+000	63.0568	0.0000000E+000	0.0000000E+000	0.0000000E+000	-63.0568	0.0000000E+000	0.0000000E+000	0.0000000E+000	-26.9432	0.0000000E+000	0.0000000E+000	0.0000000E+000	26.9432	1.96743	63.0568	1.1741e-05	0.000194654	1.85131e-08	0.000194636	1.04849	5648.73	0.537237	5648.19
25116.9	4.89396	2.42364	5.46121	-26.346	9.42354	1.04867	0.148611	2.61448	0.514924	1	10	0.00514019	0.000941218	0	0.000245981	2.34201e-05	7.85152e-06	-67.3263	0.00834187	0.00321565	0.00769717	-26.4034	5.46751	4.89717	2.43134	0.16409	0.0812624	0.183109	26.346	514.924	1039.77	1160.29	-63.654	0.0000000E+000	0.0000000E+000	0.0000000E+000	63.654	0.0000000E+000	0.0000000E+000	0.0000000E+000	-63.654	0.0000000E+000	0.0000000E+000	0.0000000E+000	-26.346	0.0000000E+000	0.0000000E+000	0.0000000E+000	26.346	2.01926	63.654	1.61467e-05	0.000155845	3.48049e-09	0.000155841	1.04865	7056.49	0.157593	7056.34
15847.7	5.73322	2.6754	6.32674	-25.016	10.0675	1.04874	0.167432	3.75375	0.671249	1	10	0.0053816	0.000850613	0	0.000273511	0.000424044	1.23661e-05	-65.7874	0.0145379	0.00596235	0.013259	-25.1019	6.33775	5.73918	2.68866	0.143232	0.0668389	0.158059	25.016	671.249	1438.45	1587.36	-64.984	0.0000000E+000	0.0000000E+000	0.0000000E+000	64.984	0.0000000E+000	0.0000000E+000	0.0000000E+000	-64.984	0.0000000E+000	0.0000000E+000	0.0000000E+000	-25.016	0.0000000E+000	0.0000000E+000	0.0000000E+000	25.016	2.14294	64.984	1.20576e-05	0.000175593	7.09986e-08	0.000175522	1.04832	6263.67	2.53263	6261.14
10002.2	6.68458	2.79968	7.24719	-22.7252	10.7116	1.0487	0.17278	5.68349	0.848188	1	10	0.00503289	0.00069446	0	0.000304117	0.000252348	8.97568e-06	-98.8086	0.0129247	-0.00197921	0.0127722	-22.8244	7.25031	6.6826	2.81245	0.127272	0.0533051	0.137984	22.7252	848.188	2025.15	2195.6	-67.2748	0.0000000E+000	0.0000000E+000	0.0000000E+000	67.2748	0.0000000E+000	0.0000000E+000	0.0000000E+000	-67.2748	0.0000000E+000	0.0000000E+000	0.0000000E+000	-22.7252	0.0000000E+000	0.0000000E+000	0.0000000E+000	22.7252	2.38762	67.2748	1.16503e-05	0.000181194	4.36008e-08	0.000181151	1.04844	6069.53	1.46051	6068.07
6309.38	7.65629	2.78416	8.1468	-19.9835	11.2316	1.04869	0.180566	9.06022	1.05817	1	10	0.00497411	0.000610561	0	0.000330158	-0.000243662	5.95873e-06	-73.3479	0.00975945	0.00279666	0.00935016	-20.0385	8.15263	7.65909	2.79351	0.115357	0.0419489	0.122748	19.9835	1058.17	2909.9	3096.32	-70.0165	0.0000000E+000	0.0000000E+000	0.0000000E+000	70.0165	0.0000000E+000	0.0000000E+000	0.0000000E+000	-70.0165	0.0000000E+000	0.0000000E+000	0.0000000E+000	-19.9835	0.0000000E+000	0.0000000E+000	0.0000000E+000	19.9835	2.74994	70.0165	1.32416e-05	0.000189357	-4.39971e-08	0.000189401	1.04893	5807.77	1.34944	5809.12
3983.6	8.55924	2.61548	8.94993	-16.9918	11.7941	1.04857	0.18837	15.2754	1.30453	1	10	0.00489546	0.000546983	0	0.000358284	0.000195116	7.92574e-06	-40.7476	0.0144899	0.0109774	0.00945797	-17.0291	8.9632	8.57022	2.62494	0.106855	0.0326521	0.111733	16.9918	1304.53	4269.13	4464	-73.0082	0.0000000E+000	0.0000000E+000	0.0000000E+000	73.0082	0.0000000E+000	0.0000000E+000	0.0000000E+000	-73.0082	0.0000000E+000	0.0000000E+000	0.0000000E+000	-16.9918	0.0000000E+000	0.0000000E+000	0.0000000E+000	16.9918	3.27253	73.0082	1.56281e-05	0.00019752	3.6754e-08	0.000197483	1.04838	5566.55	1.03581	5565.52
2510.8	9.35493	2.37431	9.65153	-14.2411	12.6188	1.04867	0.235684	26.6975	1.61567	1	10	0.00485743	0.00050328	0	0.000408142	2.34201e-05	8.66374e-06	52.7585	0.0172145	0.0104178	-0.0137044	-14.1471	9.65827	9.36535	2.36061	0.100426	0.0254886	0.103611	14.2411	1615.67	6365.84	6567.67	-75.7588	0.0000000E+000	0.0000000E+000	0.0000000E+000	75.7588	0.0000000E+000	0.0000000E+000	0.0000000E+000	-75.7588	0.0000000E+000	0.0000000E+000	0.0000000E+000	-14.2411	0.0000000E+000	0.0000000E+000	0.0000000E+000	14.2411	3.94006	75.7588	2.8103e-05	0.000247156	5.51974e-09	0.00024715	1.04865	4449.5	0.0993709	4449.4
1585.51	10.0108	2.11812	10.2324	-11.9466	13.5208	1.04868	0.251847	47.3916	2.03069	1	10	0.00482637	0.000471673	0	0.000468633	0.000214193	1.17467e-05	-75.1924	0.0249043	0.00636488	0.0240772	-12.071	10.2437	10.0172	2.1422	0.0956118	0.0202298	0.0977285	11.9466	2030.69	9597.61	9810.09	-78.0534	0.0000000E+000	0.0000000E+000	0.0000000E+000	78.0534	0.0000000E+000	0.0000000E+000	0.0000000E+000	-78.0534	0.0000000E+000	0.0000000E+000	0.0000000E+000	-11.9466	0.0000000E+000	0.0000000E+000	0.0000000E+000	11.9466	4.72628	78.0534	3.07952e-05	0.000264106	5.3944e-08	0.000264052	1.04846	4163.93	0.850488	4163.08
1000.32	10.5761	1.85993	10.7384	-9.97419	14.4228	1.04868	0.2644	85.5428	2.56627	1	10	0.00482283	0.000449121	0	0.000533156	0.000214193	8.31159e-06	-97.3984	0.0185063	-0.00238301	0.0183523	-10.0728	10.7392	10.5737	1.87829	0.0917166	0.0161295	0.0931241	9.97419	2566.27	14592.5	14816.4	-80.0258	0.0000000E+000	0.0000000E+000	0.0000000E+000	80.0258	0.0000000E+000	0.0000000E+000	0.0000000E+000	-80.0258	0.0000000E+000	0.0000000E+000	0.0000000E+000	-9.97419	0.0000000E+000	0.0000000E+000	0.0000000E+000	9.97419	5.68626	80.0258	3.23866e-05	0.00027727	5.66326e-08	0.000277213	1.04846	3966.25	0.810111	3965.44
631.01	10.9878	1.67322	11.1145	-8.65846	15.3236	1.04867	0.282487	150.741	3.41632	1	10	0.00481871	0.000433553	0	0.000600569	-0.000110121	3.82974e-06	-79.5942	0.0088334	0.00159547	0.00868812	-8.70148	11.1174	10.9894	1.68191	0.0889473	0.0135449	0.0899727	8.65846	3416.32	22434.5	22693.2	-81.3415	0.0000000E+000	0.0000000E+000	0.0000000E+000	81.3415	0.0000000E+000	0.0000000E+000	0.0000000E+000	-81.3415	0.0000000E+000	0.0000000E+000	0.0000000E+000	-8.65846	0.0000000E+000	0.0000000E+000	0.0000000E+000	8.65846	6.56687	81.3415	3.42198e-05	0.000296235	-3.11077e-08	0.000296266	1.04878	3712.28	0.389827	3712.67
398.089	11.3849	1.54578	11.4894	-7.73204	16.2248	1.04868	0.301736	258.637	4.68163	1	10	0.00480537	0.000418246	0	0.000672736	0.000404966	1.31231e-05	36.294	0.0313765	0.0252891	-0.0185727	-7.62351	11.5119	11.4102	1.52721	0.0862458	0.01171	0.0870371	7.73204	4681.62	34480.8	34797.2	-82.268	0.0000000E+000	0.0000000E+000	0.0000000E+000	82.268	0.0000000E+000	0.0000000E+000	0.0000000E+000	-82.268	0.0000000E+000	0.0000000E+000	0.0000000E+000	-7.73204	0.0000000E+000	0.0000000E+000	0.0000000E+000	7.73204	7.36513	82.268	3.69266e-05	0.000316426	1.22193e-07	0.000316304	1.04828	3475.5	1.34212	3474.16
251.044	11.7622	1.53002	11.8613	-7.4114	17.123	1.04867	0.318929	414.355	6.89452	1	10	0.00481641	0.000406061	0	0.000749747	-9.10437e-05	3.03042e-05	-68.3948	0.0746297	0.0274793	0.0693864	-7.72569	11.8977	11.7897	1.59941	0.0836036	0.0108751	0.0843079	7.4114	6894.52	53002.3	53448.8	-82.5886	0.0000000E+000	0.0000000E+000	0.0000000E+000	82.5886	0.0000000E+000	0.0000000E+000	0.0000000E+000	-82.5886	0.0000000E+000	0.0000000E+000	0.0000000E+000	-7.4114	0.0000000E+000	0.0000000E+000	0.0000000E+000	7.4114	7.68759	82.5886	3.91093e-05	0.000334452	-2.90365e-08	0.000334481	1.04876	3288.11	0.285467	3288.4
158.428	12.0637	1.56124	12.1643	-7.37402	18.0278	1.04867	0.338078	643.453	10.5994	1	10	0.00481178	0.000395564	0	0.000832121	0.000214193	8.8237e-06	31.7623	0.0223066	0.018966	-0.0117421	-7.30779	12.1816	12.0827	1.5495	0.0815276	0.010551	0.0822075	7.37402	10599.4	81901.5	82584.5	-82.626	0.0000000E+000	0.0000000E+000	0.0000000E+000	82.626	0.0000000E+000	0.0000000E+000	0.0000000E+000	-82.626	0.0000000E+000	0.0000000E+000	0.0000000E+000	-7.37402	0.0000000E+000	0.0000000E+000	0.0000000E+000	7.37402	7.72701	82.626	4.18348e-05	0.000354531	7.24139e-08	0.000354459	1.04845	3101.86	0.633562	3101.22
100.032	12.4176	1.67926	12.5306	-7.70153	18.9268	1.04867	0.353656	947.463	17.0159	1	10	0.00481014	0.000383871	0	0.000916773	0.000137884	7.21553e-06	21.1422	0.0187968	0.0175315	-0.00677971	-7.66012	12.5471	12.4351	1.67248	0.0790846	0.0106948	0.0798044	7.70153	17015.9	125827	126972	-82.2985	0.0000000E+000	0.0000000E+000	0.0000000E+000	82.2985	0.0000000E+000	0.0000000E+000	0.0000000E+000	-82.2985	0.0000000E+000	0.0000000E+000	0.0000000E+000	-7.70153	0.0000000E+000	0.0000000E+000	0.0000000E+000	7.70153	7.39467	82.2985	4.30225e-05	0.000370868	4.87635e-08	0.000370819	1.04853	2965.22	0.389881	2964.83
63.0823	12.8415	1.90188	12.9816	-8.42448	19.844	1.04868	0.371706	1326.57	28.4734	1	10	0.00480933	0.000370473	0	0.0010085	-5.28891e-05	4.22844e-06	-64.3587	0.0114136	0.00493908	0.0102896	-8.46619	12.988	12.8465	1.91217	0.076201	0.0112857	0.0770322	8.42448	28473.4	192253	194350	-81.5755	0.0000000E+000	0.0000000E+000	0.0000000E+000	81.5755	0.0000000E+000	0.0000000E+000	0.0000000E+000	-81.5755	0.0000000E+000	0.0000000E+000	0.0000000E+000	-8.42448	0.0000000E+000	0.0000000E+000	0.0000000E+000	8.42448	6.75202	81.5755	4.65963e-05	0.000389801	-1.96592e-08	0.000389821	1.04873	2821.27	0.142288	2821.41
39.8089	13.3446	2.19955	13.5246	-9.35976	20.7449	1.04867	0.384023	1817.63	48.0755	1	10	0.00480519	0.000355292	0	0.00110076	4.3428e-06	5.58653e-06	-26.2914	0.0157238	0.0140972	0.00696464	-9.37914	13.5397	13.3587	2.20652	0.0729548	0.012025	0.0739392	9.35976	48075.5	291671	295607	-80.6402	0.0000000E+000	0.0000000E+000	0.0000000E+000	80.6402	0.0000000E+000	0.0000000E+000	0.0000000E+000	-80.6402	0.0000000E+000	0.0000000E+000	0.0000000E+000	-9.35976	0.0000000E+000	0.0000000E+000	0.0000000E+000	9.35976	6.06695	80.6402	4.66948e-05	0.000402714	1.66774e-09	0.000402713	1.04867	2730.75	0.0113087	2730.74
25.1044	14.0378	2.59216	14.2751	-10.4622	21.6241	1.04866	0.403463	2445.73	80.6441	1	10	0.00481083	0.000337008	0	0.00119501	0.00051943	5.18798e-06	-26.8621	0.0153942	0.0137332	0.0069558	-10.4796	14.2899	14.0515	2.59911	0.0688874	0.0127205	0.070052	10.4622	80644.1	436727	444110	-79.5378	0.0000000E+000	0.0000000E+000	0.0000000E+000	79.5378	0.0000000E+000	0.0000000E+000	0.0000000E+000	-79.5378	0.0000000E+000	0.0000000E+000	0.0000000E+000	-10.4622	0.0000000E+000	0.0000000E+000	0.0000000E+000	10.4622	5.41548	79.5378	4.88905e-05	0.000423097	2.09571e-07	0.000422887	1.04814	2599.16	1.28743	2597.87
15.8576	14.8841	2.98645	15.1807	-11.3456	22.7371	1.04868	0.411026	3360.69	130.063	1	11	0.00481644	0.000317273	0	0.0013169	-7.19664e-05	1.35991e-05	1.79799	0.0428623	0.0428412	-0.00134483	-11.3089	15.2225	14.9269	2.98511	0.0645858	0.012959	0.065873	11.3456	130063	648216	661136	-78.6544	0.0000000E+000	0.0000000E+000	0.0000000E+000	78.6544	0.0000000E+000	0.0000000E+000	0.0000000E+000	-78.6544	0.0000000E+000	0.0000000E+000	0.0000000E+000	-11.3456	0.0000000E+000	0.0000000E+000	0.0000000E+000	11.3456	4.98387	78.6544	7.20475e-05	0.000431037	-2.95801e-08	0.000431066	1.04876	2551.38	0.17509	2551.56
10.0032	15.8848	3.26565	16.217	-11.6172	23.7189	1.04869	0.435464	4872.05	197.564	1	11	0.00479978	0.000295972	0	0.00143012	0.00023327	2.16492e-05	-67.7525	0.0731462	0.0276937	0.067701	-11.8312	16.2579	15.9125	3.33335	0.0604004	0.0124173	0.0616636	11.6172	197564	960995	981093	-78.3828	0.0000000E+000	0.0000000E+000	0.0000000E+000	78.3828	0.0000000E+000	0.0000000E+000	0.0000000E+000	-78.3828	0.0000000E+000	0.0000000E+000	0.0000000E+000	-11.6172	0.0000000E+000	0.0000000E+000	0.0000000E+000	11.6172	4.86422	78.3828	5.14943e-05	0.000456668	1.01581e-07	0.000456567	1.04846	2408.22	0.535682	2407.68
6.31058	17.0657	3.39608	17.4003	-11.2549	24.6423	1.04869	0.45246	7426.31	282.889	1	11	0.00481538	0.000276742	0	0.00154482	0.000385889	9.22711e-06	20.2911	0.033342	0.0312729	-0.0115627	-11.1975	17.4287	17.0969	3.38451	0.0563651	0.0112167	0.0574703	11.2549	282889	1.42155e+06	1.44942e+06	-78.7451	0.0000000E+000	0.0000000E+000	0.0000000E+000	78.7451	0.0000000E+000	0.0000000E+000	0.0000000E+000	-78.7451	0.0000000E+000	0.0000000E+000	0.0000000E+000	-11.2549	0.0000000E+000	0.0000000E+000	0.0000000E+000	11.2549	5.02511	78.7451	4.4564e-05	0.000474492	1.74599e-07	0.000474317	1.04831	2317.76	0.852869	2316.91
3.97785	18.2613	3.39964	18.575	-10.5458	25.6493	1.04872	0.473326	11769	394.226	1	11	0.00481591	0.000259268	0	0.00167085	0.000290502	3.99713e-06	-32.6317	0.015417	0.0129835	0.0083134	-10.5637	18.5893	18.2743	3.40796	0.0529263	0.00985312	0.0538357	10.5458	394226	2.1176e+06	2.15398e+06	-79.4542	0.0000000E+000	0.0000000E+000	0.0000000E+000	79.4542	0.0000000E+000	0.0000000E+000	0.0000000E+000	-79.4542	0.0000000E+000	0.0000000E+000	0.0000000E+000	-10.5458	0.0000000E+000	0.0000000E+000	0.0000000E+000	10.5458	5.37153	79.4542	7.28797e-05	0.000496387	1.37502e-07	0.00049625	1.04843	2215.65	0.613747	2215.03
2.51367	18.8629	3.19806	19.1321	-9.62254	27.2089	1.04872	0.499853	19798.1	553.187	1	11	0.00481082	0.000251453	0	0.00188464	-1.47345e-05	5.41906e-06	148.509	0.021551	-0.0183771	-0.0112574	-9.59848	19.1121	18.8446	3.1868	0.0515327	0.00873697	0.0522681	9.62254	553187	3.26283e+06	3.30939e+06	-80.3775	0.0000000E+000	0.0000000E+000	0.0000000E+000	80.3775	0.0000000E+000	0.0000000E+000	0.0000000E+000	-80.3775	0.0000000E+000	0.0000000E+000	0.0000000E+000	-9.62254	0.0000000E+000	0.0000000E+000	0.0000000E+000	9.62254	5.89824	80.3775	0.000118631	0.000524206	-7.36508e-09	0.000524213	1.04874	2098.06	0.0294777	2098.09
1.58469	20.0941	2.97472	20.3131	-8.42086	29.6445	1.04872	0.540582	33762.2	724.052	1	11	0.00481016	0.000236801	0	0.00222882	-3.38118e-05	2.77301e-06	12.8176	0.0117103	0.0114185	-0.0025979	-8.4089	20.324	20.1056	2.97212	0.0486985	0.00720929	0.0492293	8.42086	724051	4.89094e+06	4.94425e+06	-81.5791	0.0000000E+000	0.0000000E+000	0.0000000E+000	81.5791	0.0000000E+000	0.0000000E+000	0.0000000E+000	-81.5791	0.0000000E+000	0.0000000E+000	0.0000000E+000	-8.42086	0.0000000E+000	0.0000000E+000	0.0000000E+000	8.42086	6.75497	81.5791	0.000194555	0.000566919	-1.82781e-08	0.000566937	1.04875	1939.98	0.0625471	1940.05
1.00469	19.6781	3.83631	20.0486	-11.0316	240.463	1.04875	3.66522	41292.7	1511.93	1	11	0.00501146	0.000249966	0	0.156412	0.000252348	3.21064e-07	-12.039	0.00128443	0.00125618	0.000267904	-11.0317	20.0499	19.6794	3.83658	0.0489571	0.00954433	0.0498788	11.0316	1.51193e+06	7.75536e+06	7.90137e+06	-78.9684	0.0000000E+000	0.0000000E+000	0.0000000E+000	78.9684	0.0000000E+000	0.0000000E+000	0.0000000E+000	-78.9684	0.0000000E+000	0.0000000E+000	0.0000000E+000	-11.0316	0.0000000E+000	0.0000000E+000	0.0000000E+000	11.0316	5.12945	78.9684	0.153921	0.0038439	9.2491e-07	0.00384297	1.0485	286.135	0.0688493	286.067
0.632957	21.2263	4.76712	21.755	-12.6578	240.463	1.04875	3.66522	52746	2532.69	1	11	0.00502548	0.000231003	0	0.156412	0.000252348	4.41987e-07	-20.5796	0.00191334	0.00179124	0.000672554	-12.6585	21.7569	21.2281	4.76779	0.0448492	0.0100725	0.0459664	12.6578	2.53269e+06	1.12772e+07	1.15581e+07	-77.3422	0.0000000E+000	0.0000000E+000	0.0000000E+000	77.3422	0.0000000E+000	0.0000000E+000	0.0000000E+000	-77.3422	0.0000000E+000	0.0000000E+000	0.0000000E+000	-12.6578	0.0000000E+000	0.0000000E+000	0.0000000E+000	12.6578	4.45265	77.3422	0.000000000000000E+000	0.0038439	9.2491e-07	0.00384297	1.0485	286.135	0.0688493	286.067
0.401878	20.5167	4.08579	20.9196	-11.2628	240.463	1.04875	3.66522	96928.2	3697.39	1	11	0.0050383	0.000240841	0	0.156412	0.000252348	5.04583e-07	-13.4955	0.00209509	0.00203724	0.00048893	-11.263	20.9217	20.5188	4.08628	0.0468814	0.00933618	0.047802	11.2628	3.69739e+06	1.85664e+07	1.8931e+07	-78.7372	0.0000000E+000	0.0000000E+000	0.0000000E+000	78.7372	0.0000000E+000	0.0000000E+000	0.0000000E+000	-78.7372	0.0000000E+000	0.0000000E+000	0.0000000E+000	-11.2628	0.0000000E+000	0.0000000E+000	0.0000000E+000	11.2628	5.02148	78.7372	0.000000000000000E+000	0.0038439	9.2491e-07	0.00384297	1.0485	286.135	0.0688493	286.067
0.251173	22.83	2.61226	22.979	-6.52752	240.463	1.04875	3.66522	242566	3134.74	1	11	0.00504085	0.000219368	0	0.156412	0.000252348	3.96962e-07	26.3936	0.00180957	0.00162095	-0.000804418	-6.52507	22.9805	22.8316	2.61145	0.043236	0.00494715	0.0435181	6.52752	3.13474e+06	2.73963e+07	2.7575e+07	-83.4725	0.0000000E+000	0.0000000E+000	0.0000000E+000	83.4725	0.0000000E+000	0.0000000E+000	0.0000000E+000	-83.4725	0.0000000E+000	0.0000000E+000	0.0000000E+000	-6.52752	0.0000000E+000	0.0000000E+000	0.0000000E+000	6.52752	8.73956	83.4725	0.000000000000000E+000	0.0038439	9.2491e-07	0.00384297	1.0485	286.135	0.0688493	286.067
0.160751	30.664	3.97422	30.9205	-7.38468	240.463	1.04875	3.66522	249123	4115.53	1	11	0.00503256	0.000162758	0	0.156412	0.000252348	4.06295e-07	5.50379	0.00249632	0.00248481	-0.000239426	-7.38365	30.9229	30.6665	3.97398	0.0320728	0.00415681	0.032341	7.38468	4.11553e+06	3.17543e+07	3.20199e+07	-82.6153	0.0000000E+000	0.0000000E+000	0.0000000E+000	82.6153	0.0000000E+000	0.0000000E+000	0.0000000E+000	-82.6153	0.0000000E+000	0.0000000E+000	0.0000000E+000	-7.38468	0.0000000E+000	0.0000000E+000	0.0000000E+000	7.38468	7.71572	82.6153	0.000000000000000E+000	0.0038439	9.2491e-07	0.00384297	1.0485	286.135	0.0688493	286.067
0.100469	21.3105	12.5525	24.7326	-30.4992	240.463	1.04875	3.66522	126200	32506.9	1	11	0.00503585	0.000203612	0	0.156412	0.000252348	3.81501e-07	-19.8195	0.00187367	0.00176268	0.000635282	-30.4984	24.7345	21.3123	12.5531	0.0348381	0.0205205	0.0404324	30.4992	3.25069e+07	5.51874e+07	6.40496e+07	-59.5008	0.0000000E+000	0.0000000E+000	0.0000000E+000	59.5008	0.0000000E+000	0.0000000E+000	0.0000000E+000	-59.5008	0.0000000E+000	0.0000000E+000	0.0000000E+000	-30.4992	0.0000000E+000	0.0000000E+000	0.0000000E+000	30.4992	1.69772	59.5008	0.000000000000000E+000	0.0038439	9.2491e-07	0.00384297	1.0485	286.135	0.0688493	286.067
0.0602816	26.8194	-12.3799	29.5388	24.7781	240.463	1.04875	3.66522	-213265	-37459.7	1	11	0.00503067	0.000170307	0	0.156412	0.000252348	4.71764e-07	63.8185	0.00277008	0.00122221	-0.00248587	24.7815	29.541	26.8207	-12.3823	0.0307371	-0.0141883	0.0338537	-24.7781	-3.74597e+07	8.11518e+07	8.93803e+07	-114.778	0.0000000E+000	0.0000000E+000	0.0000000E+000	114.778	0.0000000E+000	0.0000000E+000	0.0000000E+000	-114.778	0.0000000E+000	0.0000000E+000	0.0000000E+000	24.7781	0.0000000E+000	0.0000000E+000	0.0000000E+000	-24.7781	2.16638	65.2219	0.000000000000000E+000	0.0038439	9.2491e-07	0.00384297	1.0485	286.135	0.0688493	286.067
0.0401878	36.6859	-101.329	107.766	70.0974	240.463	1.04875	3.66522	-39083.3	-34554.1	1	11	0.00503158	4.66899e-05	0	0.156412	0.000252348	8.14501e-07	61.8331	0.0174449	0.00823472	-0.015379	70.0961	107.783	36.6941	-101.345	0.00315891	-0.00872514	0.00927938	-70.0974	-3.45541e+07	1.25102e+07	3.6749e+07	-160.097	0.0000000E+000	0.0000000E+000	0.0000000E+000	160.097	0.0000000E+000	0.0000000E+000	0.0000000E+000	-160.097	0.0000000E+000	0.0000000E+000	0.0000000E+000	70.0974	0.0000000E+000	0.0000000E+000	0.0000000E+000	-70.0974	0.362046	19.9026	0.000000000000000E+000	0.0038439	9.2491e-07	0.00384297	1.0485	286.135	0.0688493	286.067
0.0200939	1.9036	16.1415	16.2533	-83.274	240.463	1.04875	3.66522	490697	483966	1	11	0.0050318	0.000309586	0	0.156412	0.000252348	1.05504e-06	-111.147	0.0034079	-0.00122943	0.00317841	-83.2797	16.2563	1.90237	16.1447	0.00720595	0.0611024	0.0615258	83.274	4.83966e+08	5.70752e+07	4.8732e+08	-6.72596	0.0000000E+000	0.0000000E+000	0.0000000E+000	6.72596	0.0000000E+000	0.0000000E+000	0.0000000E+000	-6.72596	0.0000000E+000	0.0000000E+000	0.0000000E+000	-83.274	0.0000000E+000	0.0000000E+000	0.0000000E+000	83.274	0.117932	6.72595	0.000000000000000E+000	0.0038439	9.2491e-07	0.00384297	1.0485	286.135	0.0688493	286.067
0.00796479	28.5104	8.80122	29.8379	-17.1556	20329.4	1.0488	20.0045	2.2704e+06	197538	1	11	0.00502423	0.000168384	0	108.246	0.000137884	6.08167e-07	-21.667	0.00361179	0.0033566	0.00133352	-17.1561	29.8415	28.5137	8.80255	0.0320232	0.00988564	0.0335144	17.1556	1.97538e+08	6.39898e+08	6.69695e+08	-72.8444	0.0000000E+000	0.0000000E+000	0.0000000E+000	72.8444	0.0000000E+000	0.0000000E+000	0.0000000E+000	-72.8444	0.0000000E+000	0.0000000E+000	0.0000000E+000	-17.1556	0.0000000E+000	0.0000000E+000	0.0000000E+000	17.1556	3.23937	72.8444	108.089	0.0209807	2.7583e-06	0.0209779	1.04866	52.4282	0.00689266	52.4213
0.00497799	26.905	10.8754	29.0199	-22.0092	20329.4	1.0488	20.0045	2.93983e+06	412875	1	11	0.00503198	0.000173398	0	108.246	0.000137884	5.8993e-07	-17.3854	0.00340218	0.00324675	0.00101656	-22.0087	29.0233	26.9083	10.8764	0.0319479	0.0129138	0.0344591	22.0092	4.12875e+08	1.02143e+09	1.10172e+09	-67.9908	0.0000000E+000	0.0000000E+000	0.0000000E+000	67.9908	0.0000000E+000	0.0000000E+000	0.0000000E+000	-67.9908	0.0000000E+000	0.0000000E+000	0.0000000E+000	-22.0092	0.0000000E+000	0.0000000E+000	0.0000000E+000	22.0092	2.47394	67.9908	0.000000000000000E+000	0.0209807	2.7583e-06	0.0209779	1.04866	52.4282	0.00689266	52.4213
0.00318591	27.2926	19.3404	33.4505	-35.3225	20329.4	1.0488	20.0045	2.58298e+06	863466	1	11	0.00503445	0.000150504	0	108.246	0.000137884	5.96274e-07	-46.6669	0.00396183	0.00271876	0.00288175	-35.3239	33.4544	27.2953	19.3433	0.0243916	0.0172846	0.0298949	35.3225	8.63466e+08	1.2185e+09	1.49342e+09	-54.6775	0.0000000E+000	0.0000000E+000	0.0000000E+000	54.6775	0.0000000E+000	0.0000000E+000	0.0000000E+000	-54.6775	0.0000000E+000	0.0000000E+000	0.0000000E+000	-35.3225	0.0000000E+000	0.0000000E+000	0.0000000E+000	35.3225	1.41117	54.6775	0.000000000000000E+000	0.0209807	2.7583e-06	0.0209779	1.04866	52.4282	0.00689266	52.4213
0.0019912	3.69335	-37.3823	37.5643	84.3575	20329.4	1.0488	20.0045	-2.13816e+06	-2.11749e+06	1	11	0.00503585	0.000134059	0	108.246	0.000137884	8.86128e-07	73.2667	0.00660997	0.00190312	-0.00633008	84.3556	37.5708	3.69525	-37.3887	0.00261739	-0.026492	0.026621	-84.3575	-2.11749e+09	2.09206e+08	2.1278e+09	-174.358	0.0000000E+000	0.0000000E+000	0.0000000E+000	174.358	0.0000000E+000	0.0000000E+000	0.0000000E+000	-174.358	0.0000000E+000	0.0000000E+000	0.0000000E+000	84.3575	0.0000000E+000	0.0000000E+000	0.0000000E+000	-84.3575	0.0987993	5.64247	0.000000000000000E+000	0.0209807	2.7583e-06	0.0209779	1.04866	52.4282	0.00689266	52.4213
0.00129428	13.4761	3.91679	14.0338	-16.2064	20329.4	1.0488	20.0045	3.13951e+07	2.44554e+06	1	11	0.00503738	0.000358947	0	108.246	0.000137884	6.99027e-07	5.95424	0.00194744	0.00193693	-0.000202016	-16.2034	14.0356	13.478	3.91659	0.0684252	0.0198876	0.0712567	16.2064	2.44554e+09	8.41412e+09	8.76231e+09	-73.7936	0.0000000E+000	0.0000000E+000	0.0000000E+000	73.7936	0.0000000E+000	0.0000000E+000	0.0000000E+000	-73.7936	0.0000000E+000	0.0000000E+000	0.0000000E+000	-16.2064	0.0000000E+000	0.0000000E+000	0.0000000E+000	16.2064	3.44059	73.7936	0.000000000000000E+000	0.0209807	2.7583e-06	0.0209779	1.04866	52.4282	0.00689266	52.4213
0.000796479	8.5493	-14.2352	16.6052	59.0121	20329.4	1.0488	20.0045	-1.40373e+07	-1.03163e+07	1	11	0.00503699	0.000303339	0	108.246	0.000137884	5.00784e-07	78.7194	0.00165091	0.000322942	-0.00161901	59.014	16.6067	8.54962	-14.2368	0.0310059	-0.051627	0.0602222	-59.0121	-1.03163e+10	6.19569e+09	1.20338e+10	-149.012	0.0000000E+000	0.0000000E+000	0.0000000E+000	149.012	0.0000000E+000	0.0000000E+000	0.0000000E+000	-149.012	0.0000000E+000	0.0000000E+000	0.0000000E+000	59.0121	0.0000000E+000	0.0000000E+000	0.0000000E+000	-59.0121	0.600574	30.9879	0.000000000000000E+000	0.0209807	2.7583e-06	0.0209779	1.04866	52.4282	0.00689266	52.4213
0.000497799	9.46211	-3.00363	9.9274	17.6114	20329.4	1.0488	20.0045	-1.06444e+08	-9.7441e+06	1	11	0.0050368	0.000507364	0	108.246	0.000137884	5.28041e-07	14.5622	0.00104076	0.00100732	-0.000261677	17.6111	9.92844	9.46311	-3.00389	0.0960101	-0.0304772	0.100731	-17.6114	-9.74409e+09	3.06961e+10	3.22055e+10	-107.611	0.0000000E+000	0.0000000E+000	0.0000000E+000	107.611	0.0000000E+000	0.0000000E+000	0.0000000E+000	-107.611	0.0000000E+000	0.0000000E+000	0.0000000E+000	17.6114	0.0000000E+000	0.0000000E+000	0.0000000E+000	-17.6114	3.15022	72.3886	0.000000000000000E+000	0.0209807	2.7583e-06	0.0209779	1.04866	52.4282	0.00689266	52.4213
0.000298679	8.38164	2.52495	8.7537	-16.7648	20329.4	1.0488	20.0045	2.11039e+08	1.75584e+07	1	11	0.00503483	0.000575166	0	108.246	0.000137884	5.88686e-07	108.282	0.00102351	-0.000321068	-0.000971844	-16.7593	8.75312	8.38132	2.52398	0.109382	0.0329511	0.114237	16.7648	1.75584e+10	5.82855e+10	6.08727e+10	-73.2352	0.0000000E+000	0.0000000E+000	0.0000000E+000	73.2352	0.0000000E+000	0.0000000E+000	0.0000000E+000	-73.2352	0.0000000E+000	0.0000000E+000	0.0000000E+000	-16.7648	0.0000000E+000	0.0000000E+000	0.0000000E+000	16.7648	3.31953	73.2352	0.000000000000000E+000	0.0209807	2.7583e-06	0.0209779	1.04866	52.4282	0.00689266	52.4213
9.95598e-05	9.52295	-1.96203	9.72297	11.6419	20329.4	1.0488	20.0045	-8.14761e+08	-3.31775e+07	1	11	0.00503827	0.000518182	0	108.246	0.000137884	1.57193e-06	14.7169	0.00303354	0.00293402	-0.000770648	11.6428	9.726	9.52588	-1.9628	0.100733	-0.0207543	0.102849	-11.6419	-3.31775e+10	1.61031e+11	1.64413e+11	-101.642	0.0000000E+000	0.0000000E+000	0.0000000E+000	101.642	0.0000000E+000	0.0000000E+000	0.0000000E+000	-101.642	0.0000000E+000	0.0000000E+000	0.0000000E+000	11.6419	0.0000000E+000	0.0000000E+000	0.0000000E+000	-11.6419	4.85362	78.3581	0.000000000000000E+000	0.0209807	2.7583e-06	0.0209779	1.04866	52.4282	0.00689266	52.4213