File: txt/18802_R307_UC93_26p5_SOC50_C04.mpt
EC-Lab ASCII FILE
Nb header lines : 65

Potentio Electrochemical Impedance Spectroscopy

Run on channel : 4 (SN 66756)
Grouped channel(s) : 1, 2, 3, 4, 5
User :
CE vs. WE compliance from -10 V to 10 V
Electrode connection : standard
Potential control : Ewe
Ewe ctrl range : min = -10.00 V, max = 10.00 V
Safety Limits :
	Do not start on E overload
Acquisition started on : 11/04/2025 16:29:50.795
Loaded Setting File :  C:\Users\Celltest\OneDrive - store-dot.com\Documents\EC-Lab\Data\@Biologic Test Protocols\cathode half cell EIS SOC50.mps
Saved on :
	File : 18799_R307_UC93_26p5_SOC00_C04.mpr
	Directory : C:\Users\Celltest\OneDrive - store-dot.com\Documents\EC-Lab\Data\Anna\
	Host : 169.254.61.224
Device : VMP-3e (SN .003165)
Address : USB
EC-LAB for windows v11.62 (software)
Internet server v27.00 (firmware)
Command interpretor v12.03 (firmware)
Electrode material :
Initial state :
Electrolyte :
Comments :
Electrode surface area : 0.001 cm²
Characteristic mass : 0.001 g
Equivalent Weight : 0.000 g/eq.
Density : 0.000 g/cm3
Volume (V) : 0.001 cm³
Record Ece
Cycle Definition : Charge/Discharge alternance
Mode                Multi sine
E (V)               0.0000
vs.                 Eoc
tE (h:m:s)          0:00:0.0000
record              0
dI                  0.000
unit dI             mA
dt (s)              0.000
fi                  1.000
unit fi             MHz
ff                  0.100
unit ff             mHz
Nd                  10
Points              per decade
spacing             Logarithmic
Va (mV)             5.0
pw                  0.10
Na                  2
corr                0
E range min (V)     -10.000
E range max (V)     10.000
I Range             Auto
Bandwidth           5
nc cycles           0
goto Ns'            0
nr cycles           0
inc. cycle          0

freq/Hz	Re(Z)/Ohm	-Im(Z)/Ohm	|Z|/Ohm	Phase(Z)/deg	time/s	<Ewe>/V	<I>/mA	Cs/µF	Cp/µF	cycle number	I Range	|Ewe|/V	|I|/A	Ns	(Q-Qo)/mA.h	<Ece>/V	|Ece|/V	Phase(Zce)/deg	|Zce|/Ohm	Re(Zce)/Ohm	-Im(Zce)/Ohm	Phase(Zwe-ce)/deg	|Zwe-ce|/Ohm	Re(Zwe-ce)/Ohm	-Im(Zwe-ce)/Ohm	Re(Y)/Ohm-1	Im(Y)/Ohm-1	|Y|/Ohm-1	Phase(Y)/deg	Re(C)/nF	Im(C)/nF	|C|/nF	Phase(C)/deg	Re(M)	Im(M)	|M|	Phase(M)/deg	Re(Permittivity)	Im(Permittivity)	|Permittivity|	Phase(Permittivity)/deg	Re(Resistivity)/Ohm.cm	Im(Resistivity)/Ohm.cm	|Resistivity|/Ohm.cm	Phase(Resistivity)/deg	Re(Conductivity)/mS/cm	Im(Conductivity)/mS/cm	|Conductivity|/mS/cm	Phase(Conductivity)/deg	Tan(Delta)	Loss Angle(Delta)/deg	dq/mA.h	Pwe/W	Pce/W	Pwe-ce/W	<Ewe-Ece>/V	Rwe/Ohm	Rce/Ohm	Rwe-ce/Ohm		Ewe-Ece/V
1.00002e+06	3.50212	1.75527	3.91737	-26.6201	2.23453	3.96664	0.0119865	0.090671	0.0182039	1	10	0.000251731	6.42602e-05	0	-2.14967e-06	-0.000568162	0.000178425	-68.1126	2.77661	1.03508	2.57647	-43.6729	6.27297	4.5372	4.33174	0.228213	0.114381	0.255273	26.6201	18.2039	36.3206	40.6272	-63.3799	0.0000000E+000	0.0000000E+000	0.0000000E+000	63.3799	0.0000000E+000	0.0000000E+000	0.0000000E+000	-63.3799	0.0000000E+000	0.0000000E+000	0.0000000E+000	-26.6201	0.0000000E+000	0.0000000E+000	0.0000000E+000	26.6201	1.9952	63.3799	-2.14967e-06	4.75462e-05	-6.81028e-09	4.75531e-05	3.96721	330925	47.4	330973
630957	1.06428	-0.35787	1.12284	18.5855	3.40555	3.96556	-0.0678664	-0.704848	-0.0716001	1	9	0.000395003	0.00035179	0	-1.84587e-05	-0.000109523	0.000103285	-95.3941	0.293599	-0.0275998	0.292299	3.6192	1.03875	1.03668	-0.065571	0.844157	-0.283853	0.890603	-18.5855	-71.6001	212.933	224.649	-108.586	0.0000000E+000	0.0000000E+000	0.0000000E+000	108.586	0.0000000E+000	0.0000000E+000	0.0000000E+000	-108.586	0.0000000E+000	0.0000000E+000	0.0000000E+000	18.5855	0.0000000E+000	0.0000000E+000	0.0000000E+000	-18.5855	2.97392	71.4145	-6.01699e-06	-0.000269128	7.43291e-09	-0.000269136	3.96567	58431.8	1.6138	58433.4
398103	1.33057	0.021819	1.33075	-0.939464	4.17152	3.96543	-0.0768551	18.3227	0.00492567	1	9	0.00130827	0.000983103	0	-3.2312e-05	-5.21927e-05	4.06233e-05	-0.115779	0.0413215	0.0413214	8.3499e-05	-0.914659	1.37207	1.37189	0.0219025	0.751354	0.0123209	0.751455	0.939464	4.92565	300.379	300.419	-89.0605	0.0000000E+000	0.0000000E+000	0.0000000E+000	89.0605	0.0000000E+000	0.0000000E+000	0.0000000E+000	-89.0605	0.0000000E+000	0.0000000E+000	0.0000000E+000	-0.939464	0.0000000E+000	0.0000000E+000	0.0000000E+000	0.939464	60.9822	89.0605	-6.02738e-06	-0.000304763	4.01128e-09	-0.000304767	3.96548	51596.2	0.679106	51596.9
251206	1.43805	0.325863	1.47451	-12.7676	4.93754	3.96523	-0.0686123	1.94426	0.0949574	1	9	0.00384742	0.00260929	0	-4.29515e-05	-0.000319732	4.38794e-05	75.073	0.0168166	0.00433175	-0.0162491	-12.1149	1.47524	1.44238	0.309613	0.661423	0.149878	0.678192	12.7676	94.9574	419.053	429.677	-77.2324	0.0000000E+000	0.0000000E+000	0.0000000E+000	77.2324	0.0000000E+000	0.0000000E+000	0.0000000E+000	-77.2324	0.0000000E+000	0.0000000E+000	0.0000000E+000	-12.7676	0.0000000E+000	0.0000000E+000	0.0000000E+000	12.7676	4.41306	77.2324	-3.89845e-06	-0.000272064	2.19376e-08	-0.000272085	3.96555	57791.7	4.65998	57796.4
158486	1.56429	0.524089	1.64975	-18.5225	5.70753	3.96515	-0.0718572	1.91613	0.193374	1	9	0.0053791	0.00326056	0	-6.79558e-05	-1.39728e-05	4.1857e-05	95.6946	0.0128374	-0.00127379	-0.012774	-18.1146	1.64453	1.56302	0.511315	0.574753	0.192561	0.606153	18.5225	193.374	577.179	608.711	-71.4775	0.0000000E+000	0.0000000E+000	0.0000000E+000	71.4775	0.0000000E+000	0.0000000E+000	0.0000000E+000	-71.4775	0.0000000E+000	0.0000000E+000	0.0000000E+000	-18.5225	0.0000000E+000	0.0000000E+000	0.0000000E+000	18.5225	2.98478	71.4775	-1.5569e-05	-0.000284924	1.00405e-09	-0.000284925	3.96516	55180.9	0.194453	55181.1
100004	1.72571	0.702603	1.86325	-22.1532	6.47352	3.96516	-0.0408631	2.26513	0.322085	1	9	0.00544142	0.00292038	0	-7.54107e-05	5.13712e-06	3.40336e-05	111.19	0.0116538	-0.00421237	-0.0108659	-21.8914	1.85527	1.72149	0.691738	0.497076	0.202379	0.536695	22.1532	322.085	791.092	854.146	-67.8468	0.0000000E+000	0.0000000E+000	0.0000000E+000	67.8468	0.0000000E+000	0.0000000E+000	0.0000000E+000	-67.8468	0.0000000E+000	0.0000000E+000	0.0000000E+000	-22.1532	0.0000000E+000	0.0000000E+000	0.0000000E+000	22.1532	2.45616	67.8468	3.34313e-06	-0.000162029	-2.09919e-10	-0.000162029	3.96516	97035.1	0.125715	97035
63093.8	1.941	0.914338	2.14558	-25.2235	7.36554	3.96514	-0.0591015	2.75884	0.501016	1	9	0.00504897	0.0023532	0	-8.13403e-05	-0.000128633	2.54428e-05	85.419	0.010812	0.000863539	-0.0107775	-24.9528	2.14179	1.94186	0.903561	0.421636	0.198618	0.466075	25.2235	501.016	1063.58	1175.68	-64.7765	0.0000000E+000	0.0000000E+000	0.0000000E+000	64.7765	0.0000000E+000	0.0000000E+000	0.0000000E+000	-64.7765	0.0000000E+000	0.0000000E+000	0.0000000E+000	-25.2235	0.0000000E+000	0.0000000E+000	0.0000000E+000	25.2235	2.12285	64.7765	-6.26766e-06	-0.000234346	7.60238e-09	-0.000234353	3.96527	67090.3	2.17647	67092.5
39814.1	2.22837	1.12906	2.49808	-26.8702	8.25554	3.96513	-0.0550734	3.54052	0.723247	1	9	0.0050032	0.00200282	0	-9.77371e-05	-0.000166852	1.35305e-05	14.3196	0.00675572	0.00654583	-0.0016709	-26.7683	2.50317	2.23492	1.12739	0.357087	0.180927	0.400307	26.8702	723.247	1427.44	1600.21	-63.1298	0.0000000E+000	0.0000000E+000	0.0000000E+000	63.1298	0.0000000E+000	0.0000000E+000	0.0000000E+000	-63.1298	0.0000000E+000	0.0000000E+000	0.0000000E+000	-26.8702	0.0000000E+000	0.0000000E+000	0.0000000E+000	26.8702	1.97365	63.1298	-1.57124e-05	-0.000218373	9.18914e-09	-0.000218383	3.9653	71997.2	3.02964	72000.2
25116.9	2.56955	1.37316	2.91345	-28.1199	9.02052	3.96515	-0.0602578	4.61459	1.02509	1	9	0.00483905	0.00166094	0	-0.000112035	-0.000109523	3.41966e-06	-138.341	0.00205888	-0.00153822	0.00136852	-28.1579	2.91273	2.56801	1.37453	0.302722	0.161773	0.343236	28.1199	1025.09	1918.22	2174.94	-61.8801	0.0000000E+000	0.0000000E+000	0.0000000E+000	61.8801	0.0000000E+000	0.0000000E+000	0.0000000E+000	-61.8801	0.0000000E+000	0.0000000E+000	0.0000000E+000	-28.1199	0.0000000E+000	0.0000000E+000	0.0000000E+000	28.1199	1.87127	61.8801	-6.28139e-06	-0.000238931	6.59959e-09	-0.000238938	3.96526	65803.2	1.81757	65805
15847.7	2.99112	1.61567	3.39959	-28.3759	9.78652	3.96515	-0.060034	6.21587	1.40396	1	9	0.00504038	0.00148264	0	-0.000124164	-0.000205072	8.43079e-06	-118.244	0.00568632	-0.00269093	0.00500931	-28.4718	3.3996	2.98843	1.62068	0.25881	0.139798	0.294154	28.3759	1403.96	2599.18	2954.12	-61.6241	0.0000000E+000	0.0000000E+000	0.0000000E+000	61.6241	0.0000000E+000	0.0000000E+000	0.0000000E+000	-61.6241	0.0000000E+000	0.0000000E+000	0.0000000E+000	-28.3759	0.0000000E+000	0.0000000E+000	0.0000000E+000	28.3759	1.85132	61.6241	-5.06464e-06	-0.000238044	1.23113e-08	-0.000238056	3.96535	66048.4	3.41594	66051.8
0.0000000E+000	0.0000000E+000	0.0000000E+000	0.0000000E+000	0.0000000E+000	0.000000000000000E+000	0.0000000E+000	0.0000000E+000	0.0000000E+000	0.0000000E+000	0.000000000000000E+000	0	0.0000000E+000	0.0000000E+000	0	0.000000000000000E+000	0.0000000E+000	0.0000000E+000	0.0000000E+000	0.0000000E+000	0.0000000E+000	0.0000000E+000	0.0000000E+000	0.0000000E+000	0.0000000E+000	0.0000000E+000	0.0000000E+000	0.0000000E+000	0.0000000E+000	0.0000000E+000	0.0000000E+000	0.0000000E+000	0.0000000E+000	-90	0.0000000E+000	0.0000000E+000	0.0000000E+000	90	0.0000000E+000	0.0000000E+000	0.0000000E+000	-90	0.0000000E+000	0.0000000E+000	0.0000000E+000	0.0000000E+000	0.0000000E+000	0.0000000E+000	0.0000000E+000	0.0000000E+000	0.0000000E+000	90	0.000000000000000E+000	0.0000000E+000	0.0000000E+000	0.0000000E+000	0.0000000E+000	0.0000000E+000	0.0000000E+000	0.0000000E+000
0.0000000E+000	0.0000000E+000	0.0000000E+000	0.0000000E+000	0.0000000E+000	0.000000000000000E+000	0.0000000E+000	0.0000000E+000	0.0000000E+000	0.0000000E+000	0.000000000000000E+000	0	0.0000000E+000	0.0000000E+000	0	0.000000000000000E+000	0.0000000E+000	0.0000000E+000	0.0000000E+000	0.0000000E+000	0.0000000E+000	0.0000000E+000	0.0000000E+000	0.0000000E+000	0.0000000E+000	0.0000000E+000	0.0000000E+000	0.0000000E+000	0.0000000E+000	0.0000000E+000	0.0000000E+000	0.0000000E+000	0.0000000E+000	-90	0.0000000E+000	0.0000000E+000	0.0000000E+000	90	0.0000000E+000	0.0000000E+000	0.0000000E+000	-90	0.0000000E+000	0.0000000E+000	0.0000000E+000	0.0000000E+000	0.0000000E+000	0.0000000E+000	0.0000000E+000	0.0000000E+000	0.0000000E+000	90	0.000000000000000E+000	0.0000000E+000	0.0000000E+000	0.0000000E+000	0.0000000E+000	0.0000000E+000	0.0000000E+000	0.0000000E+000
0.0000000E+000	0.0000000E+000	0.0000000E+000	0.0000000E+000	0.0000000E+000	0.000000000000000E+000	0.0000000E+000	0.0000000E+000	0.0000000E+000	0.0000000E+000	0.000000000000000E+000	0	0.0000000E+000	0.0000000E+000	0	0.000000000000000E+000	0.0000000E+000	0.0000000E+000	0.0000000E+000	0.0000000E+000	0.0000000E+000	0.0000000E+000	0.0000000E+000	0.0000000E+000	0.0000000E+000	0.0000000E+000	0.0000000E+000	0.0000000E+000	0.0000000E+000	0.0000000E+000	0.0000000E+000	0.0000000E+000	0.0000000E+000	-90	0.0000000E+000	0.0000000E+000	0.0000000E+000	90	0.0000000E+000	0.0000000E+000	0.0000000E+000	-90	0.0000000E+000	0.0000000E+000	0.0000000E+000	0.0000000E+000	0.0000000E+000	0.0000000E+000	0.0000000E+000	0.0000000E+000	0.0000000E+000	90	0.000000000000000E+000	0.0000000E+000	0.0000000E+000	0.0000000E+000	0.0000000E+000	0.0000000E+000	0.0000000E+000	0.0000000E+000
2510.8	5.23867	3.30735	6.19534	-32.2656	12.4928	3.96506	-0.0260463	19.1658	5.46207	1	10	0.00482696	0.000779127	0	-0.000155286	-3.30828e-05	1.02084e-05	-50.9466	0.0131024	0.00825509	0.0101748	-32.3044	6.20775	5.24693	3.31753	0.136487	0.0861688	0.161412	32.2656	5462.07	8651.63	10231.6	-57.7344	0.0000000E+000	0.0000000E+000	0.0000000E+000	57.7344	0.0000000E+000	0.0000000E+000	0.0000000E+000	-57.7344	0.0000000E+000	0.0000000E+000	0.0000000E+000	-32.2656	0.0000000E+000	0.0000000E+000	0.0000000E+000	32.2656	1.58395	57.7344	-0.000155286	-0.000103275	8.61686e-10	-0.000103276	3.96509	152231	1.27015	152232
1585.51	6.13972	4.06834	7.36529	-33.5295	13.3948	3.96505	-0.0246214	24.6737	7.52817	1	10	0.00473001	0.000642203	0	-0.0001608	-0.000396172	8.0918e-06	-4.26771	0.0126001	0.0125651	0.000937656	-33.4817	7.37629	6.15228	4.06928	0.11318	0.0749959	0.135772	33.5295	7528.17	11361.1	13628.9	-56.4705	0.0000000E+000	0.0000000E+000	0.0000000E+000	56.4705	0.0000000E+000	0.0000000E+000	0.0000000E+000	-56.4705	0.0000000E+000	0.0000000E+000	0.0000000E+000	-33.5295	0.0000000E+000	0.0000000E+000	0.0000000E+000	33.5295	1.50914	56.4705	-2.79374e-06	-9.76252e-05	9.75431e-09	-9.7635e-05	3.96545	161041	16.0905	161057
1000.32	7.38428	5.0081	8.92237	-34.1456	14.2968	3.96505	-0.0239388	31.7693	10.0091	1	10	0.00468589	0.000525184	0	-0.00016668	-0.000109523	4.9911e-06	94.837	0.00950352	-0.000801351	-0.00946967	-34.0981	8.91639	7.38348	4.99863	0.0927572	0.062909	0.112078	34.1456	10009.1	14758	17832	-55.8544	0.0000000E+000	0.0000000E+000	0.0000000E+000	55.8544	0.0000000E+000	0.0000000E+000	0.0000000E+000	-55.8544	0.0000000E+000	0.0000000E+000	0.0000000E+000	-34.1456	0.0000000E+000	0.0000000E+000	0.0000000E+000	34.1456	1.47447	55.8544	-2.68339e-06	-9.49186e-05	2.62184e-09	-9.49212e-05	3.96516	165633	4.57511	165637
1995.64	5.6698	3.67083	6.75438	-32.9205	12.9438	3.96506	-0.0228608	21.7257	6.41699	1	10	0.00477864	0.000707487	0	-0.000158006	-0.000109523	9.08029e-06	-78.1061	0.0128346	0.00264521	0.012559	-32.9976	6.76343	5.67245	3.68339	0.124279	0.0804625	0.148052	32.9205	6416.99	9911.4	11807.4	-57.0795	0.0000000E+000	0.0000000E+000	0.0000000E+000	57.0795	0.0000000E+000	0.0000000E+000	0.0000000E+000	-57.0795	0.0000000E+000	0.0000000E+000	0.0000000E+000	-32.9205	0.0000000E+000	0.0000000E+000	0.0000000E+000	32.9205	1.54456	57.0795	-2.71972e-06	-9.06444e-05	2.50377e-09	-9.06469e-05	3.96517	173444	4.79085	173449
1258.79	6.73662	4.53731	8.12215	-33.9614	13.8461	3.96505	-0.0225624	27.8656	8.69607	1	10	0.00471313	0.000580282	0	-0.000163996	-0.000166852	7.3709e-06	-38.3467	0.0127023	0.00996202	0.00788073	-33.9682	8.13481	6.74659	4.54519	0.102118	0.0687791	0.12312	33.9614	8696.07	12911.2	15566.7	-56.0386	0.0000000E+000	0.0000000E+000	0.0000000E+000	56.0386	0.0000000E+000	0.0000000E+000	0.0000000E+000	-56.0386	0.0000000E+000	0.0000000E+000	0.0000000E+000	-33.9614	0.0000000E+000	0.0000000E+000	0.0000000E+000	33.9614	1.48472	56.0386	-3.19656e-06	-8.9461e-05	3.76459e-09	-8.94647e-05	3.96522	175738	7.39517	175745
794.238	8.12623	5.50294	9.81417	-34.1052	14.7481	3.96505	-0.0244909	36.4145	11.4487	1	10	0.00466332	0.000475162	0	-0.00016958	-0.000185962	6.29046e-06	90.8325	0.0132386	-0.000192352	-0.0132372	-34.0418	9.80659	8.12603	5.4897	0.0843688	0.0571331	0.101893	34.1052	11448.7	16906.4	20418.1	-55.8948	0.0000000E+000	0.0000000E+000	0.0000000E+000	55.8948	0.0000000E+000	0.0000000E+000	0.0000000E+000	-55.8948	0.0000000E+000	0.0000000E+000	0.0000000E+000	-34.1052	0.0000000E+000	0.0000000E+000	0.0000000E+000	34.1052	1.47671	55.8948	-2.90037e-06	-9.71076e-05	4.55438e-09	-9.71121e-05	3.96524	161899	7.59314	161907
501.444	10.0165	6.50972	11.946	-33.0198	15.6473	3.96505	-0.0257703	48.7568	14.4782	1	10	0.00464518	0.000388848	0	-0.000175028	-0.000147743	7.20303e-06	26.9248	0.018524	0.016516	-0.00838807	-32.943	11.9553	10.033	6.50134	0.0701894	0.0456161	0.0837101	33.0198	14478.2	22277.6	26569	-56.9802	0.0000000E+000	0.0000000E+000	0.0000000E+000	56.9802	0.0000000E+000	0.0000000E+000	0.0000000E+000	-56.9802	0.0000000E+000	0.0000000E+000	0.0000000E+000	-33.0198	0.0000000E+000	0.0000000E+000	0.0000000E+000	33.0198	1.5387	56.9802	-2.65522e-06	-0.000102181	3.80737e-09	-0.000102184	3.9652	153861	5.73305	153867
316.316	12.3823	7.32079	14.3846	-30.5928	16.5481	3.96505	-0.024834	68.7292	17.8017	1	10	0.00463209	0.000322018	0	-0.000180894	-0.000166852	6.56622e-06	-30.0438	0.0203909	0.0176512	0.0102089	-30.592	14.405	12.4	7.331	0.0598423	0.0353805	0.0695189	30.5928	17801.8	30109.8	34978.6	-59.4072	0.0000000E+000	0.0000000E+000	0.0000000E+000	59.4072	0.0000000E+000	0.0000000E+000	0.0000000E+000	-59.4072	0.0000000E+000	0.0000000E+000	0.0000000E+000	-30.5928	0.0000000E+000	0.0000000E+000	0.0000000E+000	30.5928	1.69139	59.4072	-3.01998e-06	-9.84682e-05	4.14362e-09	-9.84723e-05	3.96522	159662	6.7187	159669
199.553	15.1634	7.61792	16.9694	-26.6744	17.4483	3.96504	-0.0236217	104.695	21.0991	1	10	0.00462091	0.000272308	0	-0.000187268	-0.000396172	5.89859e-06	-35.1728	0.0216615	0.0177065	0.012478	-26.6852	16.9908	15.1811	7.6304	0.0526578	0.0264547	0.0589295	26.6744	21099.1	41997.6	46999.7	-63.3256	0.0000000E+000	0.0000000E+000	0.0000000E+000	63.3256	0.0000000E+000	0.0000000E+000	0.0000000E+000	-63.3256	0.0000000E+000	0.0000000E+000	0.0000000E+000	-26.6744	0.0000000E+000	0.0000000E+000	0.0000000E+000	26.6744	1.99049	63.3256	-3.17857e-06	-9.36612e-05	9.35827e-09	-9.36706e-05	3.96544	167856	16.7715	167872
125.846	17.8721	7.25778	19.2896	-22.1018	18.3495	3.96505	-0.0275011	174.252	24.6683	1	10	0.00462854	0.00023995	0	-0.000193772	-0.000224182	6.96433e-06	17.9256	0.0290241	0.0276152	-0.00893309	-22.0464	19.3118	17.8998	7.24885	0.0480319	0.0195055	0.0518414	22.1018	24668.3	60745.2	65562.9	-67.8982	0.0000000E+000	0.0000000E+000	0.0000000E+000	67.8982	0.0000000E+000	0.0000000E+000	0.0000000E+000	-67.8982	0.0000000E+000	0.0000000E+000	0.0000000E+000	-22.1018	0.0000000E+000	0.0000000E+000	0.0000000E+000	22.1018	2.46248	67.8982	-3.4743e-06	-0.000109043	6.16527e-09	-0.00010905	3.96528	144178	8.15175	144186
79.4155	20.7639	6.31711	21.7036	-16.9216	19.5024	3.9651	-0.0182083	317.246	26.8764	1	11	0.00463276	0.000213456	0	-0.000199697	-9.04127e-05	1.03896e-05	-43.4326	0.048673	0.0353456	0.0334627	-16.9789	21.7471	20.7992	6.35057	0.0440805	0.0134108	0.0460754	16.9216	26876.4	88340.8	92338.7	-73.0784	0.0000000E+000	0.0000000E+000	0.0000000E+000	73.0784	0.0000000E+000	0.0000000E+000	0.0000000E+000	-73.0784	0.0000000E+000	0.0000000E+000	0.0000000E+000	-16.9216	0.0000000E+000	0.0000000E+000	0.0000000E+000	16.9216	3.28693	73.0784	-3.51613e-06	-7.21978e-05	1.64626e-09	-7.21995e-05	3.96519	217764	4.96546	217769
50.1444	22.4852	5.26991	23.0945	-13.1904	20.4133	3.9651	-0.0161142	602.275	31.3604	1	11	0.00463018	0.000200488	0	-0.000204082	-0.000128633	5.95726e-06	-47.079	0.0297138	0.0202348	0.0217592	-13.2315	23.1192	22.5055	5.29167	0.0421579	0.00988062	0.0433003	13.1904	31360.4	133806	137432	-76.8096	0.0000000E+000	0.0000000E+000	0.0000000E+000	76.8096	0.0000000E+000	0.0000000E+000	0.0000000E+000	-76.8096	0.0000000E+000	0.0000000E+000	0.0000000E+000	-13.1904	0.0000000E+000	0.0000000E+000	0.0000000E+000	13.1904	4.26672	76.8096	-2.10764e-06	-6.38944e-05	2.07281e-09	-6.38965e-05	3.96523	246062	7.98255	246070
31.6296	23.5776	3.92686	23.9023	-9.45586	21.2945	3.96509	-0.0163545	1281.39	34.5853	1	11	0.00462049	0.000193307	0	-0.000207502	2.42471e-05	9.77551e-06	-3.84088	0.0505699	0.0504563	0.00338747	-9.44402	23.9527	23.628	3.93025	0.0412685	0.00687329	0.0418369	9.45586	34585.3	207656	210517	-80.5441	0.0000000E+000	0.0000000E+000	0.0000000E+000	80.5441	0.0000000E+000	0.0000000E+000	0.0000000E+000	-80.5441	0.0000000E+000	0.0000000E+000	0.0000000E+000	-9.45586	0.0000000E+000	0.0000000E+000	0.0000000E+000	9.45586	6.00418	80.5441	-1.51992e-06	-6.4847e-05	-3.96548e-10	-6.48466e-05	3.96507	242447	1.4826	242445
19.9553	23.7899	3.38085	24.0289	-8.08832	22.1953	3.9651	-0.0165231	2359.04	46.7004	1	11	0.00462549	0.000192497	0	-0.00021187	-0.000377062	6.23579e-06	-19.4218	0.0323942	0.0305509	0.0107717	-8.10348	24.0607	23.8204	3.39163	0.0412026	0.00585543	0.0416166	8.08832	46700.4	328614	331916	-81.9117	0.0000000E+000	0.0000000E+000	0.0000000E+000	81.9117	0.0000000E+000	0.0000000E+000	0.0000000E+000	-81.9117	0.0000000E+000	0.0000000E+000	0.0000000E+000	-8.08832	0.0000000E+000	0.0000000E+000	0.0000000E+000	8.08832	7.03664	81.9117	-2.10789e-06	-6.55159e-05	6.23024e-09	-6.55221e-05	3.96548	239973	22.8203	239996
12.6008	24.9562	2.142	25.0479	-4.90571	23.152	3.96511	-0.0154703	5896.6	43.1219	1	11	0.00462409	0.000184609	0	-0.000214844	-0.000109523	1.36998e-05	86.246	0.0742094	0.00485866	-0.0740502	-4.73598	25.0466	24.961	2.06795	0.0397772	0.0034141	0.0399235	4.90571	43121.9	502407	504255	-85.0943	0.0000000E+000	0.0000000E+000	0.0000000E+000	85.0943	0.0000000E+000	0.0000000E+000	0.0000000E+000	-85.0943	0.0000000E+000	0.0000000E+000	0.0000000E+000	-4.90571	0.0000000E+000	0.0000000E+000	0.0000000E+000	4.90571	11.6509	85.0943	-1.50151e-06	-6.13414e-05	1.69435e-09	-6.13431e-05	3.96522	256305	7.07955	256312
7.93953	25.6609	1.60275	25.7109	-3.574	24.1628	3.96512	-0.0159577	12507.1	48.6025	1	11	0.0046208	0.000179722	0	-0.000219179	-0.000109523	5.34644e-06	-39.176	0.0297485	0.0230613	0.0187923	-3.61256	25.7351	25.6839	1.62155	0.0388184	0.00242456	0.0388941	3.574	48602.5	778150	779666	-86.426	0.0000000E+000	0.0000000E+000	0.0000000E+000	86.426	0.0000000E+000	0.0000000E+000	0.0000000E+000	-86.426	0.0000000E+000	0.0000000E+000	0.0000000E+000	-3.574	0.0000000E+000	0.0000000E+000	0.0000000E+000	3.574	16.0105	86.426	-8.44225e-07	-6.32742e-05	1.74773e-09	-6.32759e-05	3.96523	248477	6.8633	248483
5.01444	25.9632	1.1387	25.9881	-2.51129	24.9773	3.96511	-0.020862	27873.2	53.5128	1	11	0.00462082	0.000177805	0	-0.000225241	-0.000166852	4.14806e-06	-27.3352	0.0233293	0.0207242	0.0107127	-2.53287	26.0093	25.9839	1.14942	0.0384421	0.00168601	0.0384791	2.51129	53512.8	1.22013e+06	1.2213e+06	-87.4887	0.0000000E+000	0.0000000E+000	0.0000000E+000	87.4887	0.0000000E+000	0.0000000E+000	0.0000000E+000	-87.4887	0.0000000E+000	0.0000000E+000	0.0000000E+000	-2.51129	0.0000000E+000	0.0000000E+000	0.0000000E+000	2.51129	22.8007	87.4887	-3.577e-06	-8.27201e-05	3.48088e-09	-8.27236e-05	3.96527	190064	7.99791	190072
3.1604	25.8794	1.51553	25.9237	-3.35148	26.2284	3.96512	-0.0156456	33228.8	113.566	1	11	0.00462347	0.000178349	0	-0.000226971	-0.000185962	2.99988e-06	58.6871	0.0168202	0.00874166	-0.0143702	-3.31866	25.9316	25.8881	1.50116	0.0385088	0.00225512	0.0385748	3.35148	113566	1.93927e+06	1.94259e+06	-86.6485	0.0000000E+000	0.0000000E+000	0.0000000E+000	86.6485	0.0000000E+000	0.0000000E+000	0.0000000E+000	-86.6485	0.0000000E+000	0.0000000E+000	0.0000000E+000	-3.35148	0.0000000E+000	0.0000000E+000	0.0000000E+000	3.35148	17.0761	86.6485	-7.73896e-07	-6.20367e-05	2.9095e-09	-6.20396e-05	3.9653	253433	11.8859	253445
1.99706	26.2036	1.25774	26.2338	-2.74803	28.174	3.96513	-0.0135573	63363.2	145.647	1	11	0.00462466	0.000176286	0	-0.000238842	-0.000491722	4.17867e-06	20.9044	0.0237038	0.0221436	-0.00845777	-2.72727	26.2555	26.2257	1.24929	0.038075	0.00182756	0.0381188	2.74803	145646	3.03437e+06	3.03786e+06	-87.252	0.0000000E+000	0.0000000E+000	0.0000000E+000	87.252	0.0000000E+000	0.0000000E+000	0.0000000E+000	-87.252	0.0000000E+000	0.0000000E+000	0.0000000E+000	-2.74803	0.0000000E+000	0.0000000E+000	0.0000000E+000	2.74803	20.8338	87.252	-7.52064e-06	-5.37565e-05	6.66643e-09	-5.37632e-05	3.96562	292471	36.2698	292507
1.25967	26.1584	1.3064	26.191	-2.85907	32.0645	3.96512	-0.0125676	96713.4	240.62	1	12	0.00462377	0.00017654	0	-0.000255514	-0.000262402	2.32075e-06	-3.06082	0.0131458	0.013127	0.000701931	-2.85917	26.2042	26.1716	1.3071	0.0381335	0.00190445	0.038181	2.85907	240620	4.81802e+06	4.82402e+06	-87.1409	0.0000000E+000	0.0000000E+000	0.0000000E+000	87.1409	0.0000000E+000	0.0000000E+000	0.0000000E+000	-87.1409	0.0000000E+000	0.0000000E+000	0.0000000E+000	-2.85907	0.0000000E+000	0.0000000E+000	0.0000000E+000	2.85907	20.0234	87.1409	-8.42307e-06	-4.98322e-05	3.29777e-09	-4.98355e-05	3.96538	315503	20.8792	315524
0.793708	26.5737	1.38614	26.6098	-2.98596	241.26	3.96508	-0.013448	144661	392.538	1	11	0.00507009	0.000190534	0	-0.00180538	-0.000243292	3.1433e-07	-20.7707	0.00164973	0.00154251	0.00058504	-2.98705	26.6114	26.5753	1.38672	0.0375291	0.00195759	0.0375801	2.98596	392538	7.52536e+06	7.53559e+06	-87.014	0.0000000E+000	0.0000000E+000	0.0000000E+000	87.014	0.0000000E+000	0.0000000E+000	0.0000000E+000	-87.014	0.0000000E+000	0.0000000E+000	0.0000000E+000	-2.98596	0.0000000E+000	0.0000000E+000	0.0000000E+000	2.98596	19.171	87.014	0.000000000000000E+000	-5.33224e-05	3.2718e-09	-5.33257e-05	3.96532	294845	18.0913	294863
0.502347	26.9356	1.47511	26.976	-3.13464	241.261	3.96508	-0.013448	214779	642.224	1	11	0.00507619	0.000188174	0	-0.00180538	-0.000243292	2.29228e-07	39.5247	0.00121817	0.000939634	-0.000775255	-3.13288	26.9769	26.9366	1.47434	0.0370145	0.00202708	0.03707	3.13464	642224	1.1727e+07	1.17446e+07	-86.8654	0.0000000E+000	0.0000000E+000	0.0000000E+000	86.8654	0.0000000E+000	0.0000000E+000	0.0000000E+000	-86.8654	0.0000000E+000	0.0000000E+000	0.0000000E+000	-3.13464	0.0000000E+000	0.0000000E+000	0.0000000E+000	3.13464	18.26	86.8654	0.000000000000000E+000	-5.33224e-05	3.2718e-09	-5.33257e-05	3.96532	294845	18.0913	294863
0.311455	27.2348	1.8306	27.2962	-3.84537	241.262	3.96508	-0.013448	279147	1255.48	1	11	0.00508052	0.000186125	0	-0.00180538	-0.000243292	3.05149e-07	-32.6414	0.00163948	0.00138054	0.000884302	-3.84703	27.2977	27.2362	1.83148	0.0365526	0.0024569	0.0366351	3.84537	1.25548e+06	1.86785e+07	1.87207e+07	-86.1546	0.0000000E+000	0.0000000E+000	0.0000000E+000	86.1546	0.0000000E+000	0.0000000E+000	0.0000000E+000	-86.1546	0.0000000E+000	0.0000000E+000	0.0000000E+000	-3.84537	0.0000000E+000	0.0000000E+000	0.0000000E+000	3.84537	14.8776	86.1546	0.000000000000000E+000	-5.33224e-05	3.2718e-09	-5.33257e-05	3.96532	294845	18.0913	294863
0.200939	27.7698	2.20236	27.857	-4.5345	241.263	3.96508	-0.013448	359640	2247.89	1	11	0.00508281	0.000182461	0	-0.00180538	-0.000243292	3.89862e-07	-46.0477	0.00213669	0.00148299	0.00153824	-4.53741	27.8586	27.7713	2.2039	0.0357852	0.00283804	0.0358976	4.5345	2.24789e+06	2.83439e+07	2.84329e+07	-85.4655	0.0000000E+000	0.0000000E+000	0.0000000E+000	85.4655	0.0000000E+000	0.0000000E+000	0.0000000E+000	-85.4655	0.0000000E+000	0.0000000E+000	0.0000000E+000	-4.5345	0.0000000E+000	0.0000000E+000	0.0000000E+000	4.5345	12.6091	85.4655	0.000000000000000E+000	-5.33224e-05	3.2718e-09	-5.33257e-05	3.96532	294845	18.0913	294863
0.13061	28.3046	2.70459	28.4336	-5.45821	241.264	3.96508	-0.013448	450548	4076.45	1	11	0.00508874	0.000178969	0	-0.00180538	-0.000243292	3.83865e-07	-1.09224	0.00214486	0.00214447	4.08855e-05	-5.45788	28.4357	28.3068	2.70463	0.0350102	0.00334533	0.0351697	5.45821	4.07645e+06	4.26617e+07	4.2856e+07	-84.5418	0.0000000E+000	0.0000000E+000	0.0000000E+000	84.5418	0.0000000E+000	0.0000000E+000	0.0000000E+000	-84.5418	0.0000000E+000	0.0000000E+000	0.0000000E+000	-5.45821	0.0000000E+000	0.0000000E+000	0.0000000E+000	5.45821	10.4654	84.5418	0.000000000000000E+000	-5.33224e-05	3.2718e-09	-5.33257e-05	3.96532	294845	18.0913	294863
0.0803755	28.9387	3.26021	29.1218	-6.42778	241.265	3.96508	-0.013448	607367	7612.11	1	11	0.00508193	0.000174506	0	-0.00180538	-0.000243292	4.08709e-07	-76.4976	0.00234209	0.000546846	0.00227735	-6.43211	29.1226	28.9393	3.26248	0.0341227	0.00384422	0.0343385	6.42778	7.61211e+06	6.75678e+07	6.79952e+07	-83.5722	0.0000000E+000	0.0000000E+000	0.0000000E+000	83.5722	0.0000000E+000	0.0000000E+000	0.0000000E+000	-83.5722	0.0000000E+000	0.0000000E+000	0.0000000E+000	-6.42778	0.0000000E+000	0.0000000E+000	0.0000000E+000	6.42778	8.87635	83.5722	0.000000000000000E+000	-5.33224e-05	3.2718e-09	-5.33257e-05	3.96532	294845	18.0913	294863
0.0502347	30.1601	4.25509	30.4588	-8.03047	241.266	3.96508	-0.013448	744574	14531.1	1	11	0.00509122	0.000167151	0	-0.00180538	-0.000243292	2.83989e-07	35.9579	0.001699	0.00137525	-0.000997636	-8.02825	30.46	30.1615	4.25409	0.0325093	0.00458651	0.0328312	8.03047	1.45311e+07	1.02997e+08	1.04017e+08	-81.9695	0.0000000E+000	0.0000000E+000	0.0000000E+000	81.9695	0.0000000E+000	0.0000000E+000	0.0000000E+000	-81.9695	0.0000000E+000	0.0000000E+000	0.0000000E+000	-8.03047	0.0000000E+000	0.0000000E+000	0.0000000E+000	8.03047	7.08802	81.9695	0.000000000000000E+000	-5.33224e-05	3.2718e-09	-5.33257e-05	3.96532	294845	18.0913	294863
0.0301408	31.7871	5.44332	32.2498	-9.71725	241.268	3.96508	-0.013448	970067	27636	1	11	0.00508251	0.000157598	0	-0.00180538	-0.000243292	1.09338e-06	-29.2793	0.00693774	0.00605142	0.00339302	-9.72138	32.2563	31.7931	5.44671	0.0305631	0.00523371	0.031008	9.71725	2.7636e+07	1.61385e+08	1.63734e+08	-80.2828	0.0000000E+000	0.0000000E+000	0.0000000E+000	80.2828	0.0000000E+000	0.0000000E+000	0.0000000E+000	-80.2828	0.0000000E+000	0.0000000E+000	0.0000000E+000	-9.71725	0.0000000E+000	0.0000000E+000	0.0000000E+000	9.71725	5.83965	80.2828	0.000000000000000E+000	-5.33224e-05	3.2718e-09	-5.33257e-05	3.96532	294845	18.0913	294863
0.0100469	35.9299	7.3306	36.6701	-11.5315	241.269	3.96508	-0.013448	2.16096e+06	86357.8	1	11	0.00508987	0.000138802	0	-0.00180538	-0.000243292	1.15179e-06	15.4812	0.00829811	0.00799704	-0.00221495	-11.5256	36.6775	35.9379	7.32838	0.0267197	0.00545149	0.0272702	11.5315	8.63578e+07	4.23271e+08	4.3199e+08	-78.4685	0.0000000E+000	0.0000000E+000	0.0000000E+000	78.4685	0.0000000E+000	0.0000000E+000	0.0000000E+000	-78.4685	0.0000000E+000	0.0000000E+000	0.0000000E+000	-11.5315	0.0000000E+000	0.0000000E+000	0.0000000E+000	11.5315	4.90136	78.4685	0.000000000000000E+000	-5.33224e-05	3.2718e-09	-5.33257e-05	3.96532	294845	18.0913	294863
0.00627227	38.1582	8.9514	39.1941	-13.2021	20330.2	3.96509	-0.000721878	2.83468e+06	147858	1	11	0.00507947	0.000129598	0	-0.0144063	-1.39728e-05	2.80807e-07	-16.4187	0.00216676	0.0020784	0.000612442	-13.2023	39.1963	38.1603	8.95201	0.0248397	0.00582706	0.025514	13.2021	1.47858e+08	6.30293e+08	6.47403e+08	-76.7979	0.0000000E+000	0.0000000E+000	0.0000000E+000	76.7979	0.0000000E+000	0.0000000E+000	0.0000000E+000	-76.7979	0.0000000E+000	0.0000000E+000	0.0000000E+000	-13.2021	0.0000000E+000	0.0000000E+000	0.0000000E+000	13.2021	4.26282	76.7979	0.000000000000000E+000	-2.86231e-06	1.00867e-11	-2.86232e-06	3.9651	5.49274e+06	19.3562	5.49276e+06
0.00398239	40.7375	9.1384	41.7499	-12.6435	20330.2	3.96509	-0.000721878	4.37326e+06	209525	1	11	0.00508577	0.000121815	0	-0.0144063	-1.39728e-05	2.72733e-07	6.43356	0.00223891	0.00222481	-0.000250872	-12.6425	41.752	40.7397	9.13815	0.0233713	0.00524276	0.0239522	12.6435	2.09525e+08	9.34028e+08	9.5724e+08	-77.3565	0.0000000E+000	0.0000000E+000	0.0000000E+000	77.3565	0.0000000E+000	0.0000000E+000	0.0000000E+000	-77.3565	0.0000000E+000	0.0000000E+000	0.0000000E+000	-12.6435	0.0000000E+000	0.0000000E+000	0.0000000E+000	12.6435	4.45783	77.3565	0.000000000000000E+000	-2.86231e-06	1.00867e-11	-2.86232e-06	3.9651	5.49274e+06	19.3562	5.49276e+06
0.002489	43.3415	9.94417	44.4677	-12.9222	20330.2	3.96509	-0.000721878	6.43024e+06	321570	1	11	0.00508718	0.000114402	0	-0.0144063	-1.39728e-05	3.73784e-07	45.9519	0.00326729	0.00227162	-0.00234838	-12.9185	44.4694	43.3438	9.94182	0.0219187	0.00502898	0.0224882	12.9222	3.2157e+08	1.40156e+09	1.43798e+09	-77.0778	0.0000000E+000	0.0000000E+000	0.0000000E+000	77.0778	0.0000000E+000	0.0000000E+000	0.0000000E+000	-77.0778	0.0000000E+000	0.0000000E+000	0.0000000E+000	-12.9222	0.0000000E+000	0.0000000E+000	0.0000000E+000	12.9222	4.35848	77.0778	0.000000000000000E+000	-2.86231e-06	1.00867e-11	-2.86232e-06	3.9651	5.49274e+06	19.3562	5.49276e+06
0.00159296	45.5692	10.4437	46.7507	-12.9083	20330.2	3.96509	-0.000721878	9.56668e+06	477413	1	11	0.00508955	0.000108866	0	-0.0144063	-1.39728e-05	1.30549e-06	-28.6322	0.0119918	0.0105253	0.00574628	-12.9123	46.7622	45.5798	10.4495	0.0208495	0.00477836	0.0213901	12.9083	4.77413e+08	2.08311e+09	2.13712e+09	-77.0917	0.0000000E+000	0.0000000E+000	0.0000000E+000	77.0917	0.0000000E+000	0.0000000E+000	0.0000000E+000	-77.0917	0.0000000E+000	0.0000000E+000	0.0000000E+000	-12.9083	0.0000000E+000	0.0000000E+000	0.0000000E+000	12.9083	4.36332	77.0917	0.000000000000000E+000	-2.86231e-06	1.00867e-11	-2.86232e-06	3.9651	5.49274e+06	19.3562	5.49276e+06
0.000995598	48.2022	14.4076	50.3093	-16.6414	20330.2	3.96509	-0.000721878	1.10954e+07	909977	1	11	0.00508887	0.000101152	0	-0.0144063	-1.39728e-05	1.64612e-06	-29.1576	0.0162738	0.0142116	0.00792881	-16.6454	50.3252	48.2164	14.4155	0.0190445	0.00569239	0.019877	16.6414	9.09977e+08	3.04443e+09	3.17751e+09	-73.3586	0.0000000E+000	0.0000000E+000	0.0000000E+000	73.3586	0.0000000E+000	0.0000000E+000	0.0000000E+000	-73.3586	0.0000000E+000	0.0000000E+000	0.0000000E+000	-16.6414	0.0000000E+000	0.0000000E+000	0.0000000E+000	16.6414	3.34561	73.3586	0.000000000000000E+000	-2.86231e-06	1.00867e-11	-2.86232e-06	3.9651	5.49274e+06	19.3562	5.49276e+06
0.000597359	51.2244	16.7507	53.8937	-18.1081	20330.2	3.96509	-0.000721878	1.59057e+07	1.53654e+06	1	11	0.00508961	9.4438e-05	0	-0.0144063	-1.39728e-05	2.17051e-06	-26.3597	0.0229834	0.0205937	0.0102048	-18.1116	53.9164	51.245	16.7609	0.0176361	0.0057671	0.0185551	18.1081	1.53654e+09	4.69879e+09	4.94364e+09	-71.8919	0.0000000E+000	0.0000000E+000	0.0000000E+000	71.8919	0.0000000E+000	0.0000000E+000	0.0000000E+000	-71.8919	0.0000000E+000	0.0000000E+000	0.0000000E+000	-18.1081	0.0000000E+000	0.0000000E+000	0.0000000E+000	18.1081	3.05805	71.8919	0.000000000000000E+000	-2.86231e-06	1.00867e-11	-2.86232e-06	3.9651	5.49274e+06	19.3562	5.49276e+06
0.000398239	53.2202	22.5632	57.8056	-22.9749	20330.2	3.96509	-0.000721878	1.77123e+07	2.69858e+06	1	11	0.00508765	8.80131e-05	0	-0.0144063	-1.39728e-05	1.67515e-06	159.544	0.0190329	-0.0178328	-0.00665175	-22.9758	57.7866	53.2024	22.5565	0.0159271	0.00675243	0.0172994	22.9749	2.69858e+09	6.36521e+09	6.91363e+09	-67.0251	0.0000000E+000	0.0000000E+000	0.0000000E+000	67.0251	0.0000000E+000	0.0000000E+000	0.0000000E+000	-67.0251	0.0000000E+000	0.0000000E+000	0.0000000E+000	-22.9749	0.0000000E+000	0.0000000E+000	0.0000000E+000	22.9749	2.35872	67.0251	0.000000000000000E+000	-2.86231e-06	1.00867e-11	-2.86232e-06	3.9651	5.49274e+06	19.3562	5.49276e+06
0.00019912	51.5366	41.4782	66.1548	-38.8282	20330.2	3.96509	-0.000721878	1.92702e+07	7.57536e+06	1	11	0.00509285	7.69838e-05	0	-0.0144063	-1.39728e-05	2.81108e-06	-0.623038	0.0365151	0.036513	0.00039706	-38.8086	66.1835	51.5731	41.4786	0.0117759	0.00947757	0.0151161	38.8282	7.57536e+09	9.41236e+09	1.20822e+10	-51.1718	0.0000000E+000	0.0000000E+000	0.0000000E+000	51.1718	0.0000000E+000	0.0000000E+000	0.0000000E+000	-51.1718	0.0000000E+000	0.0000000E+000	0.0000000E+000	-38.8282	0.0000000E+000	0.0000000E+000	0.0000000E+000	38.8282	1.2425	51.1718	0.000000000000000E+000	-2.86231e-06	1.00867e-11	-2.86232e-06	3.9651	5.49274e+06	19.3562	5.49276e+06
9.95598e-05	60.8273	85.2282	104.708	-54.4846	20330.2	3.96509	-0.000721878	1.87565e+07	1.24268e+07	1	11	0.00508642	4.85772e-05	0	-0.0144063	-1.39728e-05	3.46623e-06	-15.4439	0.0713551	0.0687786	0.0190015	-54.46	104.764	60.896	85.2472	0.00554801	0.0077736	0.00955036	54.4846	1.24268e+10	8.86897e+09	1.52671e+10	-35.5154	0.0000000E+000	0.0000000E+000	0.0000000E+000	35.5154	0.0000000E+000	0.0000000E+000	0.0000000E+000	-35.5154	0.0000000E+000	0.0000000E+000	0.0000000E+000	-54.4846	0.0000000E+000	0.0000000E+000	0.0000000E+000	54.4846	0.713699	35.5154	0.000000000000000E+000	-2.86231e-06	1.00867e-11	-2.86232e-06	3.9651	5.49274e+06	19.3562	5.49276e+06