File: txt/18800_R307_UC93_26p5_SOC50_C02.mpt
EC-Lab ASCII FILE
Nb header lines : 65

Potentio Electrochemical Impedance Spectroscopy

Run on channel : 2 (SN 66139)
Grouped channel(s) : 1, 2, 3, 4, 5
User :
CE vs. WE compliance from -10 V to 10 V
Electrode connection : standard
Potential control : Ewe
Ewe ctrl range : min = -10.00 V, max = 10.00 V
Safety Limits :
	Do not start on E overload
Acquisition started on : 11/04/2025 16:29:50.795
Loaded Setting File :  C:\Users\Celltest\OneDrive - store-dot.com\Documents\EC-Lab\Data\@Biologic Test Protocols\cathode half cell EIS SOC50.mps
Saved on :
	File : 18799_R307_UC93_26p5_SOC00_C02.mpr
	Directory : C:\Users\Celltest\OneDrive - store-dot.com\Documents\EC-Lab\Data\Anna\
	Host : 169.254.61.224
Device : VMP-3e (SN .003165)
Address : USB
EC-LAB for windows v11.62 (software)
Internet server v27.00 (firmware)
Command interpretor v12.03 (firmware)
Electrode material :
Initial state :
Electrolyte :
Comments :
Electrode surface area : 0.001 cm²
Characteristic mass : 0.001 g
Equivalent Weight : 0.000 g/eq.
Density : 0.000 g/cm3
Volume (V) : 0.001 cm³
Record Ece
Cycle Definition : Charge/Discharge alternance
Mode                Multi sine
E (V)               0.0000
vs.                 Eoc
tE (h:m:s)          0:00:0.0000
record              0
dI                  0.000
unit dI             mA
dt (s)              0.000
fi                  1.000
unit fi             MHz
ff                  0.100
unit ff             mHz
Nd                  10
Points              per decade
spacing             Logarithmic
Va (mV)             5.0
pw                  0.10
Na                  2
corr                0
E range min (V)     -10.000
E range max (V)     10.000
I Range             Auto
Bandwidth           5
nc cycles           0
goto Ns'            0
nr cycles           0
inc. cycle          0

freq/Hz	Re(Z)/Ohm	-Im(Z)/Ohm	|Z|/Ohm	Phase(Z)/deg	time/s	<Ewe>/V	<I>/mA	Cs/µF	Cp/µF	cycle number	I Range	|Ewe|/V	|I|/A	Ns	(Q-Qo)/mA.h	<Ece>/V	|Ece|/V	Phase(Zce)/deg	|Zce|/Ohm	Re(Zce)/Ohm	-Im(Zce)/Ohm	Phase(Zwe-ce)/deg	|Zwe-ce|/Ohm	Re(Zwe-ce)/Ohm	-Im(Zwe-ce)/Ohm	Re(Y)/Ohm-1	Im(Y)/Ohm-1	|Y|/Ohm-1	Phase(Y)/deg	Re(C)/nF	Im(C)/nF	|C|/nF	Phase(C)/deg	Re(M)	Im(M)	|M|	Phase(M)/deg	Re(Permittivity)	Im(Permittivity)	|Permittivity|	Phase(Permittivity)/deg	Re(Resistivity)/Ohm.cm	Im(Resistivity)/Ohm.cm	|Resistivity|/Ohm.cm	Phase(Resistivity)/deg	Re(Conductivity)/mS/cm	Im(Conductivity)/mS/cm	|Conductivity|/mS/cm	Phase(Conductivity)/deg	Tan(Delta)	Loss Angle(Delta)/deg	dq/mA.h	Pwe/W	Pce/W	Pwe-ce/W	<Ewe-Ece>/V	Rwe/Ohm	Rce/Ohm	Rwe-ce/Ohm		Ewe-Ece/V
1.00002e+06	3.43668	1.61947	3.79914	-25.2313	2.23355	3.96115	-0.0397553	0.098274	0.0178572	1	10	0.000253069	6.66122e-05	0	-1.51565e-05	0.000503768	0.000178281	-65.6602	2.67641	1.10308	2.43852	-41.7928	6.08906	4.53976	4.05799	0.238105	0.112202	0.263217	25.2313	17.8572	37.8949	41.8916	-64.7687	0.0000000E+000	0.0000000E+000	0.0000000E+000	64.7687	0.0000000E+000	0.0000000E+000	0.0000000E+000	-64.7687	0.0000000E+000	0.0000000E+000	0.0000000E+000	-25.2313	0.0000000E+000	0.0000000E+000	0.0000000E+000	25.2313	2.1221	64.7687	-1.51565e-05	-0.000157477	-2.00275e-08	-0.000157457	3.96065	99638.4	12.6717	99625.7
630957	1.35096	-0.473898	1.43167	19.3302	3.40456	3.96103	-0.04987	-0.532274	-0.0583204	1	9	0.000479507	0.000334929	0	-3.19944e-05	6.46786e-05	0.000107599	-100.882	0.32126	-0.0606502	0.315483	6.99934	1.3	1.29031	-0.158415	0.65911	-0.231207	0.698486	-19.3302	-58.3204	166.256	176.189	-109.33	0.0000000E+000	0.0000000E+000	0.0000000E+000	109.33	0.0000000E+000	0.0000000E+000	0.0000000E+000	-109.33	0.0000000E+000	0.0000000E+000	0.0000000E+000	19.3302	0.0000000E+000	0.0000000E+000	0.0000000E+000	-19.3302	2.85074	70.6698	-4.99898e-06	-0.000197537	-3.22553e-09	-0.000197533	3.96097	79427	1.29694	79425.7
398103	1.64762	0.0147277	1.64769	-0.51214	4.17054	3.96115	-0.0443576	27.1449	0.00216875	1	9	0.00156861	0.000952007	0	-4.29589e-05	-4.98664e-05	4.44691e-05	-165.78	0.0467109	-0.0452797	0.011474	-0.936824	1.60256	1.60234	0.0262017	0.606886	0.00542481	0.60691	0.51214	2.16874	242.623	242.632	-89.4879	0.0000000E+000	0.0000000E+000	0.0000000E+000	89.4879	0.0000000E+000	0.0000000E+000	0.0000000E+000	-89.4879	0.0000000E+000	0.0000000E+000	0.0000000E+000	-0.51214	0.0000000E+000	0.0000000E+000	0.0000000E+000	0.51214	111.872	89.4879	-6.11446e-06	-0.000175707	2.21196e-09	-0.00017571	3.9612	89300.4	1.12419	89301.5
251206	1.72233	0.289928	1.74656	-9.55532	4.93655	3.96109	-0.0524772	2.18524	0.0602163	1	9	0.00449039	0.00257099	0	-5.51771e-05	8.37695e-05	2.03929e-05	115.172	0.00793191	-0.00337379	-0.00717863	-9.34091	1.74205	1.71895	0.28275	0.564611	0.0950439	0.572554	9.55532	60.2163	357.716	362.749	-80.4447	0.0000000E+000	0.0000000E+000	0.0000000E+000	80.4447	0.0000000E+000	0.0000000E+000	0.0000000E+000	-80.4447	0.0000000E+000	0.0000000E+000	0.0000000E+000	-9.55532	0.0000000E+000	0.0000000E+000	0.0000000E+000	9.55532	5.94052	80.4447	-5.44188e-06	-0.000207867	-4.39599e-09	-0.000207863	3.96101	75482.1	1.5963	75480.5
158486	1.83562	0.482696	1.89802	-14.733	5.70454	3.96105	-0.00733515	2.08044	0.134555	1	9	0.005399	0.00284453	0	-6.50002e-05	6.46786e-05	3.4096e-05	83.6536	0.0119865	0.00132497	-0.011913	-14.3747	1.89631	1.83695	0.470783	0.509541	0.133989	0.526864	14.733	134.555	511.691	529.087	-75.267	0.0000000E+000	0.0000000E+000	0.0000000E+000	75.267	0.0000000E+000	0.0000000E+000	0.0000000E+000	-75.267	0.0000000E+000	0.0000000E+000	0.0000000E+000	-14.733	0.0000000E+000	0.0000000E+000	0.0000000E+000	14.733	3.80285	75.267	-1.27834e-05	-2.90549e-05	-4.74427e-10	-2.90544e-05	3.96099	540010	8.81763	540001
100004	1.96852	0.657235	2.07534	-18.4627	6.47255	3.96102	-0.0210416	2.42149	0.242855	1	9	0.00544027	0.00262139	0	-7.36758e-05	-3.07756e-05	3.09556e-05	79.0341	0.0118088	0.00224634	-0.0115932	-18.1393	2.07383	1.97077	0.645642	0.457048	0.152596	0.481849	18.4627	242.855	727.387	766.858	-71.5373	0.0000000E+000	0.0000000E+000	0.0000000E+000	71.5373	0.0000000E+000	0.0000000E+000	0.0000000E+000	-71.5373	0.0000000E+000	0.0000000E+000	0.0000000E+000	-18.4627	0.0000000E+000	0.0000000E+000	0.0000000E+000	18.4627	2.99516	71.5373	-5.91418e-06	-8.33463e-05	6.47569e-10	-8.33469e-05	3.96105	188246	1.4626	188248
63093.8	2.13844	0.878434	2.31184	-22.332	7.36356	3.961	-0.0334818	2.8716	0.414599	1	9	0.00502116	0.00217193	0	-7.422e-05	0.000179224	1.00056e-05	57.2652	0.00460678	0.00249112	-0.00387514	-22.2197	2.31267	2.14094	0.874559	0.400114	0.164359	0.432556	22.332	414.599	1009.29	1091.13	-67.668	0.0000000E+000	0.0000000E+000	0.0000000E+000	67.668	0.0000000E+000	0.0000000E+000	0.0000000E+000	-67.668	0.0000000E+000	0.0000000E+000	0.0000000E+000	-22.332	0.0000000E+000	0.0000000E+000	0.0000000E+000	22.332	2.43438	67.668	-1.61448e-06	-0.000132621	-6.00073e-09	-0.000132615	3.96082	118303	5.35287	118298
39814.1	2.4021	1.13479	2.65666	-25.2868	8.12952	3.96101	-0.0425698	3.52263	0.642729	1	9	0.00548949	0.00206631	0	-8.685e-05	-0.000107139	1.64407e-05	-15.6665	0.00795656	0.00766098	0.00214857	-25.2582	2.66451	2.40976	1.13694	0.340345	0.160784	0.376412	25.2868	642.729	1360.51	1504.69	-64.7132	0.0000000E+000	0.0000000E+000	0.0000000E+000	64.7132	0.0000000E+000	0.0000000E+000	0.0000000E+000	-64.7132	0.0000000E+000	0.0000000E+000	0.0000000E+000	-25.2868	0.0000000E+000	0.0000000E+000	0.0000000E+000	25.2868	2.11678	64.7132	-8.31469e-06	-0.000168619	4.56089e-09	-0.000168624	3.96112	93047.4	2.51678	93049.9
25116.9	2.72766	1.45196	3.09004	-28.0268	8.77152	3.961	-0.027299	4.36415	0.963565	1	9	0.00483289	0.00156402	0	-8.85661e-05	0.00010286	7.87226e-06	-34.3345	0.00503334	0.00415632	0.00283892	-28.037	3.09504	2.73182	1.4548	0.285669	0.152064	0.323621	28.0268	963.565	1810.16	2050.64	-61.9732	0.0000000E+000	0.0000000E+000	0.0000000E+000	61.9732	0.0000000E+000	0.0000000E+000	0.0000000E+000	-61.9732	0.0000000E+000	0.0000000E+000	0.0000000E+000	-28.0268	0.0000000E+000	0.0000000E+000	0.0000000E+000	28.0268	1.87861	61.9732	-2.90986e-06	-0.000108131	-2.80798e-09	-0.000108129	3.9609	145097	3.76792	145093
15847.7	3.15889	1.77883	3.6253	-29.3847	9.41557	3.96104	-0.00320089	5.64572	1.35926	1	9	0.00466011	0.00128544	0	-9.37856e-05	-3.07756e-05	9.62231e-06	-101.555	0.00748563	-0.00149946	0.00733391	-29.4973	3.6276	3.15739	1.78617	0.240351	0.135346	0.275839	29.3847	1359.26	2413.79	2770.19	-60.6153	0.0000000E+000	0.0000000E+000	0.0000000E+000	60.6153	0.0000000E+000	0.0000000E+000	0.0000000E+000	-60.6153	0.0000000E+000	0.0000000E+000	0.0000000E+000	-29.3847	0.0000000E+000	0.0000000E+000	0.0000000E+000	29.3847	1.77582	60.6153	8.72074e-08	-1.26788e-05	9.85094e-11	-1.26789e-05	3.96107	1.23748e+06	9.61469	1.23749e+06
10002.2	3.63899	2.13291	4.21801	-30.3757	10.0575	3.96095	-0.0733722	7.46021	1.90757	1	9	0.00465375	0.00110331	0	-9.91811e-05	0.000160133	5.87641e-06	20.2535	0.00532618	0.00499687	-0.00184379	-30.3198	4.22139	3.64399	2.13106	0.204535	0.119883	0.237079	30.3757	1907.57	3254.55	3772.39	-59.6243	0.0000000E+000	0.0000000E+000	0.0000000E+000	59.6243	0.0000000E+000	0.0000000E+000	0.0000000E+000	-59.6243	0.0000000E+000	0.0000000E+000	0.0000000E+000	-30.3757	0.0000000E+000	0.0000000E+000	0.0000000E+000	30.3757	1.70612	59.6243	-3.15627e-06	-0.000290624	-1.17493e-08	-0.000290612	3.96079	53984.4	2.18247	53982.2
6309.38	4.2402	2.54306	4.94433	-30.9532	10.7335	3.96103	-0.0350727	9.91922	2.62406	1	10	0.00476428	0.000963584	0	-0.000104843	-3.07756e-05	5.39139e-06	-6.48649	0.00559514	0.00555933	0.000632077	-30.9264	4.94942	4.24576	2.54369	0.173449	0.104026	0.202252	30.9532	2624.06	4375.27	5101.83	-59.0468	0.0000000E+000	0.0000000E+000	0.0000000E+000	59.0468	0.0000000E+000	0.0000000E+000	0.0000000E+000	-59.0468	0.0000000E+000	0.0000000E+000	0.0000000E+000	-30.9532	0.0000000E+000	0.0000000E+000	0.0000000E+000	30.9532	1.66736	59.0468	-1.8597e-06	-0.000138924	1.07938e-09	-0.000138925	3.96106	112938	0.877481	112939
3983.6	4.91949	3.08249	5.80544	-32.0707	11.2961	3.96097	-0.0443336	12.9611	3.65406	1	10	0.00460425	0.000793092	0	-0.000111129	0.000141042	7.32716e-06	-54.6536	0.00923873	0.00534477	0.00753575	-32.1056	5.81397	4.92484	3.09002	0.145965	0.0914599	0.172252	32.0707	3654.06	5831.69	6881.91	-57.9293	0.0000000E+000	0.0000000E+000	0.0000000E+000	57.9293	0.0000000E+000	0.0000000E+000	0.0000000E+000	-57.9293	0.0000000E+000	0.0000000E+000	0.0000000E+000	-32.0707	0.0000000E+000	0.0000000E+000	0.0000000E+000	32.0707	1.59595	57.9293	-3.06247e-06	-0.000175604	-6.2529e-09	-0.000175598	3.96083	89344.7	3.18138	89341.5
2510.8	5.76648	3.79028	6.90062	-33.3167	12.3348	3.96096	-0.027205	16.7238	5.04548	1	10	0.0049964	0.00072405	0	-0.000119639	0.00010286	1.22385e-05	-129.943	0.0169028	-0.0108521	0.0129591	-33.4562	6.89869	5.75563	3.80324	0.121097	0.0795968	0.144914	33.3167	5045.48	7676.13	9185.85	-56.6833	0.0000000E+000	0.0000000E+000	0.0000000E+000	56.6833	0.0000000E+000	0.0000000E+000	0.0000000E+000	-56.6833	0.0000000E+000	0.0000000E+000	0.0000000E+000	-33.3167	0.0000000E+000	0.0000000E+000	0.0000000E+000	33.3167	1.52139	56.6833	-5.10286e-06	-0.000107758	-2.79832e-09	-0.000107755	3.96085	145596	3.78093	145593
1585.51	6.8337	4.66727	8.27544	-34.3322	13.2368	3.96096	-0.0251562	21.5075	6.84121	1	10	0.00490005	0.00059212	0	-0.000125247	0.000121951	1.02278e-05	126.54	0.0172732	-0.0102842	-0.013878	-34.2929	8.25912	6.82342	4.65339	0.099787	0.0681523	0.12084	34.3322	6841.21	10016.7	12130	-55.6678	0.0000000E+000	0.0000000E+000	0.0000000E+000	55.6678	0.0000000E+000	0.0000000E+000	0.0000000E+000	-55.6678	0.0000000E+000	0.0000000E+000	0.0000000E+000	-34.3322	0.0000000E+000	0.0000000E+000	0.0000000E+000	34.3322	1.46418	55.6678	-2.59927e-06	-9.96425e-05	-3.06782e-09	-9.96394e-05	3.96084	157455	4.84777	157450
1000.32	8.25521	5.69294	10.0279	-34.5908	14.1398	3.96095	-0.0255995	27.9476	9.00743	1	10	0.00485349	0.000484	0	-0.000131363	0.000370132	5.66655e-06	-24.8194	0.0117077	0.0106264	0.00491444	-34.5795	10.0394	8.26583	5.69785	0.082094	0.0566135	0.0997221	34.5908	9007.43	13061.5	15866.2	-55.4092	0.0000000E+000	0.0000000E+000	0.0000000E+000	55.4092	0.0000000E+000	0.0000000E+000	0.0000000E+000	-55.4092	0.0000000E+000	0.0000000E+000	0.0000000E+000	-34.5908	0.0000000E+000	0.0000000E+000	0.0000000E+000	34.5908	1.45008	55.4092	-2.85465e-06	-0.000101398	-9.47518e-09	-0.000101389	3.96058	154728	14.4586	154713
631.01	10.1489	6.77494	12.2025	-33.7251	15.0416	3.96096	-0.0246905	37.2288	11.476	1	10	0.00481766	0.000394809	0	-0.000137634	6.46786e-05	5.4381e-06	83.7417	0.013774	0.00150152	-0.0136919	-33.6677	12.1961	10.1504	6.76124	0.0681591	0.0454996	0.0819504	33.7251	11476	17191.3	20669.8	-56.2749	0.0000000E+000	0.0000000E+000	0.0000000E+000	56.2749	0.0000000E+000	0.0000000E+000	0.0000000E+000	-56.2749	0.0000000E+000	0.0000000E+000	0.0000000E+000	-33.7251	0.0000000E+000	0.0000000E+000	0.0000000E+000	33.7251	1.49801	56.2749	-3.38028e-06	-9.77982e-05	-1.59695e-09	-9.77966e-05	3.9609	160425	2.61957	160422
398.089	12.578	7.75743	14.7778	-31.664	15.9428	3.96095	-0.02589	51.5373	14.2016	1	10	0.00480923	0.000325436	0	-0.000143901	0.000236496	1.73791e-05	68.3427	0.0534026	0.0197085	-0.0496328	-31.46	14.7686	12.5977	7.7078	0.0575958	0.035522	0.067669	31.664	14201.6	23026.7	27053.9	-58.336	0.0000000E+000	0.0000000E+000	0.0000000E+000	58.336	0.0000000E+000	0.0000000E+000	0.0000000E+000	-58.336	0.0000000E+000	0.0000000E+000	0.0000000E+000	-31.664	0.0000000E+000	0.0000000E+000	0.0000000E+000	31.664	1.62142	58.336	-2.90132e-06	-0.000102549	-6.1229e-09	-0.000102543	3.96071	152991	9.13464	152982
251.044	15.572	8.34126	17.6653	-28.1761	16.841	3.96095	-0.0258006	76.0042	16.9456	1	10	0.00480409	0.00027195	0	-0.00015001	-6.89573e-05	2.51484e-05	-78.7496	0.0924743	0.0180414	0.0906973	-28.407	17.7242	15.59	8.43196	0.0499	0.0267293	0.056608	28.1761	16945.6	31635.2	35887.9	-61.8239	0.0000000E+000	0.0000000E+000	0.0000000E+000	61.8239	0.0000000E+000	0.0000000E+000	0.0000000E+000	-61.8239	0.0000000E+000	0.0000000E+000	0.0000000E+000	-28.1761	0.0000000E+000	0.0000000E+000	0.0000000E+000	28.1761	1.86686	61.8239	-2.87096e-06	-0.000102195	1.77914e-09	-0.000102197	3.96101	153521	2.6727	153524
158.428	18.6678	8.16187	20.3741	-23.6157	17.7459	3.96097	-0.023871	123.083	19.7524	1	10	0.00479625	0.000235409	0	-0.000155727	-6.89573e-05	4.34409e-06	139.922	0.0184533	-0.0141198	-0.0118809	-23.601	20.3564	18.6537	8.14999	0.0449715	0.0196623	0.049082	23.6157	19752.4	45177.7	49307	-66.3843	0.0000000E+000	0.0000000E+000	0.0000000E+000	66.3843	0.0000000E+000	0.0000000E+000	0.0000000E+000	-66.3843	0.0000000E+000	0.0000000E+000	0.0000000E+000	-23.6157	0.0000000E+000	0.0000000E+000	0.0000000E+000	23.6157	2.2872	66.3843	-2.86443e-06	-9.45522e-05	1.64608e-09	-9.45539e-05	3.96104	165933	2.88875	165935
100.032	21.6303	7.36928	22.8512	-18.8136	18.8908	3.96101	-0.0211921	215.902	22.4537	1	11	0.0047976	0.000209949	0	-0.000162747	-0.000107139	8.77491e-06	-6.01156	0.0417954	0.0415655	0.00437719	-18.7904	22.892	21.6719	7.37366	0.0414233	0.0141126	0.0437614	18.8136	22453.7	65906.2	69626.1	-71.1864	0.0000000E+000	0.0000000E+000	0.0000000E+000	71.1864	0.0000000E+000	0.0000000E+000	0.0000000E+000	-71.1864	0.0000000E+000	0.0000000E+000	0.0000000E+000	-18.8136	0.0000000E+000	0.0000000E+000	0.0000000E+000	18.8136	2.9352	71.1864	-4.06365e-06	-8.39422e-05	2.2705e-09	-8.39445e-05	3.96112	186910	5.0556	186915
63.0823	23.9024	6.06996	24.6611	-14.2489	19.8069	3.96101	-0.0209788	415.649	25.1811	1	11	0.00479455	0.000194418	0	-0.000168082	-8.80481e-05	7.63531e-06	48.6168	0.0392727	0.0259629	-0.0294665	-14.1678	24.679	23.9284	6.04049	0.0393022	0.00998072	0.0405497	14.2489	25181.1	99158.5	102306	-75.7511	0.0000000E+000	0.0000000E+000	0.0000000E+000	75.7511	0.0000000E+000	0.0000000E+000	0.0000000E+000	-75.7511	0.0000000E+000	0.0000000E+000	0.0000000E+000	-14.2489	0.0000000E+000	0.0000000E+000	0.0000000E+000	14.2489	3.93782	75.7511	-2.53527e-06	-8.30975e-05	1.84715e-09	-8.30993e-05	3.9611	188810	4.197	188814
39.8089	25.384	4.61746	25.8006	-10.3096	20.7078	3.96102	-0.0209912	865.838	27.7321	1	11	0.00478201	0.000185345	0	-0.000173497	0.000389223	9.22212e-06	20.0286	0.0497565	0.0467473	-0.0170411	-10.2539	25.8436	25.4308	4.60042	0.038133	0.00693655	0.0387588	10.3096	27732.1	152455	154957	-79.6904	0.0000000E+000	0.0000000E+000	0.0000000E+000	79.6904	0.0000000E+000	0.0000000E+000	0.0000000E+000	-79.6904	0.0000000E+000	0.0000000E+000	0.0000000E+000	-10.3096	0.0000000E+000	0.0000000E+000	0.0000000E+000	10.3096	5.49741	79.6904	-2.73652e-06	-8.31463e-05	-8.17024e-09	-8.31381e-05	3.96063	188699	18.5422	188681
25.1044	26.3899	3.4238	26.611	-7.39221	21.587	3.96102	-0.0207671	1851.66	30.6517	1	11	0.00479167	0.000180063	0	-0.000178698	0.000255587	6.79635e-06	24.4698	0.0377443	0.0343541	-0.0156342	-7.34937	26.6431	26.4242	3.40816	0.0372661	0.00483487	0.0375784	7.39221	30651.7	236256	238236	-82.6078	0.0000000E+000	0.0000000E+000	0.0000000E+000	82.6078	0.0000000E+000	0.0000000E+000	0.0000000E+000	-82.6078	0.0000000E+000	0.0000000E+000	0.0000000E+000	-7.39221	0.0000000E+000	0.0000000E+000	0.0000000E+000	7.39221	7.70777	82.6078	-2.34441e-06	-8.22587e-05	-5.30779e-09	-8.22534e-05	3.96076	190735	12.3073	190723
15.8576	26.8597	2.52423	26.978	-5.36881	22.465	3.961	-0.0209531	3976.07	34.8091	1	11	0.00477127	0.000176858	0	-0.000184693	7.4061e-06	9.81948e-06	11.5807	0.055522	0.0543917	-0.0111459	-5.3345	27.0311	26.914	2.51309	0.0369046	0.00346824	0.0370672	5.36881	34809.1	370394	372026	-84.6312	0.0000000E+000	0.0000000E+000	0.0000000E+000	84.6312	0.0000000E+000	0.0000000E+000	0.0000000E+000	-84.6312	0.0000000E+000	0.0000000E+000	0.0000000E+000	-5.36881	0.0000000E+000	0.0000000E+000	0.0000000E+000	5.36881	10.6407	84.6312	-3.20604e-06	-8.29953e-05	-1.55181e-10	-8.29952e-05	3.96099	189041	0.35346	189041
10.0032	27.3702	1.91706	27.4373	-4.00656	23.4459	3.96102	-0.0206944	8299.36	40.5168	1	11	0.00479517	0.000174768	0	-0.000189107	-0.00012623	4.94638e-06	-83.5762	0.0283025	0.00316655	0.0281248	-4.06468	27.4424	27.3734	1.94519	0.0363577	0.00254656	0.0364468	4.00656	40516.8	578465	579882	-85.9934	0.0000000E+000	0.0000000E+000	0.0000000E+000	85.9934	0.0000000E+000	0.0000000E+000	0.0000000E+000	-85.9934	0.0000000E+000	0.0000000E+000	0.0000000E+000	-4.00656	0.0000000E+000	0.0000000E+000	0.0000000E+000	4.00656	14.2772	85.9934	-1.27967e-06	-8.19707e-05	2.61225e-09	-8.19733e-05	3.96114	191406	6.09972	191412
6.31058	27.5775	1.52149	27.6195	-3.15789	24.3683	3.96103	-0.0204334	16576.1	50.3024	1	11	0.00477956	0.00017305	0	-0.000195122	-1.16848e-05	8.36163e-06	-62.8143	0.0483191	0.0220759	0.0429813	-3.24431	27.6439	27.5996	1.56447	0.0361513	0.00199452	0.0362063	3.15789	50302.4	911749	913135	-86.8421	0.0000000E+000	0.0000000E+000	0.0000000E+000	86.8421	0.0000000E+000	0.0000000E+000	0.0000000E+000	-86.8421	0.0000000E+000	0.0000000E+000	0.0000000E+000	-3.15789	0.0000000E+000	0.0000000E+000	0.0000000E+000	3.15789	18.1253	86.8421	-1.64197e-06	-8.09371e-05	2.38759e-10	-8.09374e-05	3.96104	193851	0.571846	193852
3.97785	27.8919	1.33752	27.924	-2.74544	25.3753	3.96103	-0.0185346	29913.7	68.6305	1	11	0.00478916	0.000171507	0	-0.000199808	8.37695e-05	9.15818e-06	41.8236	0.0533983	0.0397925	-0.035608	-2.66866	27.9621	27.9317	1.30191	0.0357704	0.00171532	0.0358115	2.74544	68630.4	1.43118e+06	1.43283e+06	-87.2546	0.0000000E+000	0.0000000E+000	0.0000000E+000	87.2546	0.0000000E+000	0.0000000E+000	0.0000000E+000	-87.2546	0.0000000E+000	0.0000000E+000	0.0000000E+000	-2.74544	0.0000000E+000	0.0000000E+000	0.0000000E+000	2.74544	20.8535	87.2546	-3.82741e-06	-7.34162e-05	-1.55264e-09	-7.34146e-05	3.96094	213710	4.51962	213705
2.51367	28.0917	1.22559	28.1185	-2.49812	26.935	3.96103	-0.0182048	51661.4	98.146	1	11	0.0047871	0.000170248	0	-0.000210308	-0.000107139	1.26218e-06	-76.4497	0.00741377	0.00173704	0.0072074	-2.51264	28.1205	28.0935	1.2328	0.03553	0.00155011	0.0355638	2.49812	98146.1	2.24961e+06	2.25175e+06	-87.5019	0.0000000E+000	0.0000000E+000	0.0000000E+000	87.5019	0.0000000E+000	0.0000000E+000	0.0000000E+000	-87.5019	0.0000000E+000	0.0000000E+000	0.0000000E+000	-2.49812	0.0000000E+000	0.0000000E+000	0.0000000E+000	2.49812	22.921	87.5019	-4.60739e-06	-7.21099e-05	1.95045e-09	-7.21119e-05	3.96114	217581	5.8852	217587
1.58469	28.3346	1.22519	28.361	-2.47592	29.3704	3.96103	-0.0177982	81973.8	152.98	1	11	0.00478641	0.000168767	0	-0.000216253	7.4061e-06	6.46941e-06	21.5397	0.0383334	0.0356563	-0.014074	-2.44445	28.3961	28.3702	1.21111	0.0352267	0.0015232	0.0352596	2.47592	152980	3.53793e+06	3.54124e+06	-87.5241	0.0000000E+000	0.0000000E+000	0.0000000E+000	87.5241	0.0000000E+000	0.0000000E+000	0.0000000E+000	-87.5241	0.0000000E+000	0.0000000E+000	0.0000000E+000	-2.47592	0.0000000E+000	0.0000000E+000	0.0000000E+000	2.47592	23.1268	87.5241	-3.18624e-06	-7.04992e-05	-1.31815e-10	-7.04991e-05	3.96103	222552	0.416115	222552
1.00469	28.5956	1.29772	28.625	-2.5984	241.1	3.96099	-0.0156965	122069	250.885	1	11	0.00497661	0.000173855	0	-0.00186043	0.000160133	1.61734e-07	132.762	0.000930282	-0.000631624	-0.00068299	-2.59709	28.6244	28.595	1.29703	0.0348985	0.00158375	0.0349344	2.5984	250885	5.52832e+06	5.53401e+06	-87.4016	0.0000000E+000	0.0000000E+000	0.0000000E+000	87.4016	0.0000000E+000	0.0000000E+000	0.0000000E+000	-87.4016	0.0000000E+000	0.0000000E+000	0.0000000E+000	-2.5984	0.0000000E+000	0.0000000E+000	0.0000000E+000	2.5984	22.0353	87.4016	-0.0016329	-6.21737e-05	-2.51353e-09	-6.21712e-05	3.96083	252348	10.2018	252338
0.632957	28.9092	1.45392	28.9458	-2.87912	241.1	3.96099	-0.0156965	172944	436.33	1	11	0.00498895	0.000172355	0	-0.00186043	0.000160133	4.09169e-07	-162.93	0.00237399	-0.0022694	0.000696873	-2.88072	28.9435	28.907	1.45461	0.0345037	0.00173528	0.0345474	2.87912	436330	8.67585e+06	8.68682e+06	-87.1209	0.0000000E+000	0.0000000E+000	0.0000000E+000	87.1209	0.0000000E+000	0.0000000E+000	0.0000000E+000	-87.1209	0.0000000E+000	0.0000000E+000	0.0000000E+000	-2.87912	0.0000000E+000	0.0000000E+000	0.0000000E+000	2.87912	19.8837	87.1209	0.000000000000000E+000	-6.21737e-05	-2.51353e-09	-6.21712e-05	3.96083	252348	10.2018	252338
0.401878	29.1457	1.74468	29.1979	-3.42567	241.1	3.96099	-0.0156965	226992	810.476	1	11	0.0050028	0.000171341	0	-0.00186043	0.000160133	4.42108e-07	8.1007	0.00258028	0.00255453	-0.000363595	-3.42466	29.2004	29.1482	1.74432	0.0341879	0.00204651	0.0342491	3.42567	810476	1.35394e+07	1.35636e+07	-86.5743	0.0000000E+000	0.0000000E+000	0.0000000E+000	86.5743	0.0000000E+000	0.0000000E+000	0.0000000E+000	-86.5743	0.0000000E+000	0.0000000E+000	0.0000000E+000	-3.42567	0.0000000E+000	0.0000000E+000	0.0000000E+000	3.42567	16.7055	86.5743	0.000000000000000E+000	-6.21737e-05	-2.51353e-09	-6.21712e-05	3.96083	252348	10.2018	252338
0.251173	29.6694	2.13496	29.7461	-4.11582	241.1	3.96099	-0.0156965	296795	1528.89	1	11	0.00500305	0.000168192	0	-0.00186043	0.000160133	6.29085e-07	-12.0482	0.00374029	0.0036579	0.000780728	-4.11682	29.7498	29.673	2.13574	0.0335312	0.00241285	0.0336179	4.11582	1.52889e+06	2.12469e+07	2.13018e+07	-85.8842	0.0000000E+000	0.0000000E+000	0.0000000E+000	85.8842	0.0000000E+000	0.0000000E+000	0.0000000E+000	-85.8842	0.0000000E+000	0.0000000E+000	0.0000000E+000	-4.11582	0.0000000E+000	0.0000000E+000	0.0000000E+000	4.11582	13.8969	85.8842	0.000000000000000E+000	-6.21737e-05	-2.51353e-09	-6.21712e-05	3.96083	252348	10.2018	252338
0.160751	30.1447	2.51757	30.2497	-4.77403	241.1	3.96099	-0.0156965	393265	2723.99	1	11	0.00499979	0.000165284	0	-0.00186043	0.000160133	2.19764e-07	-29.268	0.00132962	0.00115988	0.000650044	-4.77508	30.2509	30.1459	2.51822	0.0329435	0.00275131	0.0330582	4.77403	2.72399e+06	3.26164e+07	3.273e+07	-85.226	0.0000000E+000	0.0000000E+000	0.0000000E+000	85.226	0.0000000E+000	0.0000000E+000	0.0000000E+000	-85.226	0.0000000E+000	0.0000000E+000	0.0000000E+000	-4.77403	0.0000000E+000	0.0000000E+000	0.0000000E+000	4.77403	11.9738	85.226	0.000000000000000E+000	-6.21737e-05	-2.51353e-09	-6.21712e-05	3.96083	252348	10.2018	252338
0.100469	30.716	3.51992	30.9171	-6.53732	241.1	3.96099	-0.0156965	450043	5833.41	1	11	0.00500321	0.000161827	0	-0.00186043	0.000160133	3.86424e-07	-100.936	0.00238789	-0.000453001	0.00234453	-6.54173	30.9169	30.7156	3.52226	0.0321343	0.00368244	0.0323446	6.53732	5.83341e+06	5.09044e+07	5.12375e+07	-83.4627	0.0000000E+000	0.0000000E+000	0.0000000E+000	83.4627	0.0000000E+000	0.0000000E+000	0.0000000E+000	-83.4627	0.0000000E+000	0.0000000E+000	0.0000000E+000	-6.53732	0.0000000E+000	0.0000000E+000	0.0000000E+000	6.53732	8.72635	83.4627	0.000000000000000E+000	-6.21737e-05	-2.51353e-09	-6.21712e-05	3.96083	252348	10.2018	252338
0.0602816	31.7688	4.3316	32.0627	-7.76428	241.1	3.96099	-0.0156965	609518	11124.6	1	11	0.00499685	0.000155846	0	-0.00186043	0.000160133	3.31504e-07	49.8113	0.00212712	0.00137265	-0.00162496	-7.76108	32.0638	31.7701	4.32998	0.030903	0.00421356	0.0311889	7.76428	1.11246e+07	8.15897e+07	8.23446e+07	-82.2357	0.0000000E+000	0.0000000E+000	0.0000000E+000	82.2357	0.0000000E+000	0.0000000E+000	0.0000000E+000	-82.2357	0.0000000E+000	0.0000000E+000	0.0000000E+000	-7.76428	0.0000000E+000	0.0000000E+000	0.0000000E+000	7.76428	7.33418	82.2357	0.000000000000000E+000	-6.21737e-05	-2.51353e-09	-6.21712e-05	3.96083	252348	10.2018	252338
0.0401878	33.2209	5.24038	33.6317	-8.96415	241.101	3.96099	-0.0156965	755725	18348.1	1	11	0.00499745	0.000148593	0	-0.00186043	0.000160133	7.38983e-07	-75.815	0.00497319	0.0012187	0.00482156	-8.97194	33.6337	33.2222	5.2452	0.0293707	0.00463302	0.0297338	8.96415	1.83481e+07	1.16316e+08	1.17754e+08	-81.0359	0.0000000E+000	0.0000000E+000	0.0000000E+000	81.0359	0.0000000E+000	0.0000000E+000	0.0000000E+000	-81.0359	0.0000000E+000	0.0000000E+000	0.0000000E+000	-8.96415	0.0000000E+000	0.0000000E+000	0.0000000E+000	8.96415	6.33942	81.0359	0.000000000000000E+000	-6.21737e-05	-2.51353e-09	-6.21712e-05	3.96083	252348	10.2018	252338
0.0200939	35.9536	7.61081	36.7503	-11.9522	241.101	3.96099	-0.0156965	1.0407e+06	44633.9	1	11	0.00499889	0.000136023	0	-0.00186043	0.000160133	1.10852e-06	28.1864	0.00814947	0.00718306	-0.00384933	-11.944	36.7566	35.9608	7.60696	0.0266207	0.00563519	0.0272106	11.9522	4.46339e+07	2.10851e+08	2.15524e+08	-78.0478	0.0000000E+000	0.0000000E+000	0.0000000E+000	78.0478	0.0000000E+000	0.0000000E+000	0.0000000E+000	-78.0478	0.0000000E+000	0.0000000E+000	0.0000000E+000	-11.9522	0.0000000E+000	0.0000000E+000	0.0000000E+000	11.9522	4.72402	78.0478	0.000000000000000E+000	-6.21737e-05	-2.51353e-09	-6.21712e-05	3.96083	252348	10.2018	252338
0.00796479	41.2501	9.2934	42.284	-12.6964	20330	3.96104	-0.000587474	2.15016e+06	103865	1	11	0.00499347	0.000118094	0	-0.0155317	-0.000183502	4.09205e-07	178.175	0.00346509	-0.00346333	-0.000110349	-12.6973	42.2806	41.2466	9.29329	0.0230713	0.00519783	0.0236496	12.6964	1.03865e+08	4.61019e+08	4.72574e+08	-77.3036	0.0000000E+000	0.0000000E+000	0.0000000E+000	77.3036	0.0000000E+000	0.0000000E+000	0.0000000E+000	-77.3036	0.0000000E+000	0.0000000E+000	0.0000000E+000	-12.6964	0.0000000E+000	0.0000000E+000	0.0000000E+000	12.6964	4.43865	77.3036	-0.0136712	-2.32701e-06	1.07803e-10	-2.32712e-06	3.96123	6.7425e+06	312.358	6.74281e+06
0.00497799	44.6765	10.0305	45.7886	-12.6538	20330	3.96104	-0.000587474	3.18746e+06	152958	1	11	0.00500142	0.000109229	0	-0.0155317	-0.000183502	4.77043e-07	-143.415	0.00436739	-0.00350687	0.00260305	-12.658	45.7858	44.673	10.0331	0.021309	0.00478416	0.0218395	12.6538	1.52958e+08	6.81287e+08	6.98246e+08	-77.3462	0.0000000E+000	0.0000000E+000	0.0000000E+000	77.3462	0.0000000E+000	0.0000000E+000	0.0000000E+000	-77.3462	0.0000000E+000	0.0000000E+000	0.0000000E+000	-12.6538	0.0000000E+000	0.0000000E+000	0.0000000E+000	12.6538	4.45408	77.3462	0.000000000000000E+000	-2.32701e-06	1.07803e-10	-2.32712e-06	3.96123	6.7425e+06	312.358	6.74281e+06
0.00318591	47.2625	12.1286	48.7939	-14.3928	20330	3.96104	-0.000587474	4.11884e+06	254487	1	11	0.00500398	0.000102553	0	-0.0155317	-0.000183502	6.26481e-07	7.22098	0.00610884	0.00606039	-0.000767859	-14.3901	48.7996	47.2686	12.1278	0.0198511	0.00509424	0.0204944	14.3928	2.54487e+08	9.91679e+08	1.02381e+09	-75.6072	0.0000000E+000	0.0000000E+000	0.0000000E+000	75.6072	0.0000000E+000	0.0000000E+000	0.0000000E+000	-75.6072	0.0000000E+000	0.0000000E+000	0.0000000E+000	-14.3928	0.0000000E+000	0.0000000E+000	0.0000000E+000	14.3928	3.89678	75.6072	0.000000000000000E+000	-2.32701e-06	1.07803e-10	-2.32712e-06	3.96123	6.7425e+06	312.358	6.74281e+06
0.0019912	50.5253	13.1876	52.2179	-14.6284	20330	3.96104	-0.000587474	6.06096e+06	386573	1	11	0.00500586	9.58648e-05	0	-0.0155317	-0.000183502	8.33783e-07	-18.4709	0.00869749	0.00824944	0.00275556	-14.629	52.2266	50.5335	13.1903	0.0185297	0.00483643	0.0191505	14.6284	3.86573e+08	1.48107e+09	1.53069e+09	-75.3716	0.0000000E+000	0.0000000E+000	0.0000000E+000	75.3716	0.0000000E+000	0.0000000E+000	0.0000000E+000	-75.3716	0.0000000E+000	0.0000000E+000	0.0000000E+000	-14.6284	0.0000000E+000	0.0000000E+000	0.0000000E+000	14.6284	3.83128	75.3716	0.000000000000000E+000	-2.32701e-06	1.07803e-10	-2.32712e-06	3.96123	6.7425e+06	312.358	6.74281e+06
0.00129428	52.0337	14.1869	53.9331	-15.2509	20330.1	3.96104	-0.000587474	8.66775e+06	599748	1	11	0.00500992	9.28915e-05	0	-0.0155317	-0.000183502	7.51636e-07	96.4667	0.00809155	-0.000911319	-0.00804007	-15.2429	53.9301	52.0328	14.1788	0.0178885	0.00487726	0.0185415	15.2509	5.99748e+08	2.19972e+09	2.28001e+09	-74.7491	0.0000000E+000	0.0000000E+000	0.0000000E+000	74.7491	0.0000000E+000	0.0000000E+000	0.0000000E+000	-74.7491	0.0000000E+000	0.0000000E+000	0.0000000E+000	-15.2509	0.0000000E+000	0.0000000E+000	0.0000000E+000	15.2509	3.66774	74.7491	0.000000000000000E+000	-2.32701e-06	1.07803e-10	-2.32712e-06	3.96123	6.7425e+06	312.358	6.74281e+06
0.000796479	56.626	16.154	58.8851	-15.9222	20330.1	3.96104	-0.000587474	1.23699e+07	930927	1	11	0.00500442	8.49862e-05	0	-0.0155317	-0.000183502	5.80431e-07	-25.5716	0.00682971	0.00616071	0.00294797	-15.9233	58.8918	56.6322	16.157	0.0163307	0.00465875	0.0169822	15.9222	9.30927e+08	3.26325e+09	3.39344e+09	-74.0778	0.0000000E+000	0.0000000E+000	0.0000000E+000	74.0778	0.0000000E+000	0.0000000E+000	0.0000000E+000	-74.0778	0.0000000E+000	0.0000000E+000	0.0000000E+000	-15.9222	0.0000000E+000	0.0000000E+000	0.0000000E+000	15.9222	3.50538	74.0778	0.000000000000000E+000	-2.32701e-06	1.07803e-10	-2.32712e-06	3.96123	6.7425e+06	312.358	6.74281e+06
0.000497799	57.4908	19.7165	60.7777	-18.9295	20330.1	3.96104	-0.000587474	1.62157e+07	1.7065e+06	1	11	0.00500633	8.23711e-05	0	-0.0155317	-0.000183502	6.67827e-07	22.6487	0.00810753	0.00748231	-0.00312205	-18.9244	60.7838	57.4983	19.7134	0.0155636	0.00533754	0.0164534	18.9295	1.7065e+09	4.97594e+09	5.26043e+09	-71.0705	0.0000000E+000	0.0000000E+000	0.0000000E+000	71.0705	0.0000000E+000	0.0000000E+000	0.0000000E+000	-71.0705	0.0000000E+000	0.0000000E+000	0.0000000E+000	-18.9295	0.0000000E+000	0.0000000E+000	0.0000000E+000	18.9295	2.91587	71.0705	0.000000000000000E+000	-2.32701e-06	1.07803e-10	-2.32712e-06	3.96123	6.7425e+06	312.358	6.74281e+06
0.000298679	58.2113	29.3819	65.2062	-26.7822	20330.1	3.96104	-0.000587474	1.81357e+07	3.68228e+06	1	11	0.00500344	7.67325e-05	0	-0.0155317	-0.000183502	3.64678e-06	20.9865	0.0475259	0.0443732	-0.0170213	-26.7513	65.2382	58.2557	29.3649	0.0136908	0.00691039	0.015336	26.7822	3.68228e+09	7.29531e+09	8.17195e+09	-63.2178	0.0000000E+000	0.0000000E+000	0.0000000E+000	63.2178	0.0000000E+000	0.0000000E+000	0.0000000E+000	-63.2178	0.0000000E+000	0.0000000E+000	0.0000000E+000	-26.7822	0.0000000E+000	0.0000000E+000	0.0000000E+000	26.7822	1.98119	63.2178	0.000000000000000E+000	-2.32701e-06	1.07803e-10	-2.32712e-06	3.96123	6.7425e+06	312.358	6.74281e+06
9.95598e-05	69.2307	86.1687	110.535	-51.2205	20330.1	3.96104	-0.000587474	1.85518e+07	1.12743e+07	1	11	0.00500891	4.53152e-05	0	-0.0155317	-0.000183502	2.6165e-06	-42.9653	0.05774	0.0422522	0.0393531	-51.2162	110.592	69.2729	86.2081	0.00566632	0.00705264	0.00904693	51.2205	1.12743e+10	9.05809e+09	1.44623e+10	-38.7795	0.0000000E+000	0.0000000E+000	0.0000000E+000	38.7795	0.0000000E+000	0.0000000E+000	0.0000000E+000	-38.7795	0.0000000E+000	0.0000000E+000	0.0000000E+000	-51.2205	0.0000000E+000	0.0000000E+000	0.0000000E+000	51.2205	0.803432	38.7795	0.000000000000000E+000	-2.32701e-06	1.07803e-10	-2.32712e-06	3.96123	6.7425e+06	312.358	6.74281e+06