File: txt/18808_R307_UC93_28_SOC50_C05.mpt
EC-Lab ASCII FILE
Nb header lines : 65

Potentio Electrochemical Impedance Spectroscopy

Run on channel : 5 (SN 65912)
Grouped channel(s) : 1, 2, 3, 4, 5
User :
CE vs. WE compliance from -10 V to 10 V
Electrode connection : standard
Potential control : Ewe
Ewe ctrl range : min = -10.00 V, max = 10.00 V
Safety Limits :
	Do not start on E overload
Acquisition started on : 11/05/2025 08:59:28.513
Loaded Setting File :  C:\Users\Celltest\OneDrive - store-dot.com\Documents\EC-Lab\Data\@Biologic Test Protocols\cathode half cell EIS SOC50.mps
Saved on :
	File : 18804_R307_UC93_28_SOC00_C05.mpr
	Directory : C:\Users\Celltest\OneDrive - store-dot.com\Documents\EC-Lab\Data\Anna\
	Host : 169.254.61.224
Device : VMP-3e (SN .003165)
Address : USB
EC-LAB for windows v11.62 (software)
Internet server v27.00 (firmware)
Command interpretor v12.03 (firmware)
Electrode material :
Initial state :
Electrolyte :
Comments :
Electrode surface area : 0.001 cm²
Characteristic mass : 0.001 g
Equivalent Weight : 0.000 g/eq.
Density : 0.000 g/cm3
Volume (V) : 0.001 cm³
Record Ece
Cycle Definition : Charge/Discharge alternance
Mode                Multi sine
E (V)               0.0000
vs.                 Eoc
tE (h:m:s)          0:00:0.0000
record              0
dI                  0.000
unit dI             mA
dt (s)              0.000
fi                  1.000
unit fi             MHz
ff                  0.100
unit ff             mHz
Nd                  10
Points              per decade
spacing             Logarithmic
Va (mV)             5.0
pw                  0.10
Na                  2
corr                0
E range min (V)     -10.000
E range max (V)     10.000
I Range             Auto
Bandwidth           5
nc cycles           0
goto Ns'            0
nr cycles           0
inc. cycle          0

freq/Hz	Re(Z)/Ohm	-Im(Z)/Ohm	|Z|/Ohm	Phase(Z)/deg	time/s	<Ewe>/V	<I>/mA	Cs/µF	Cp/µF	cycle number	I Range	|Ewe|/V	|I|/A	Ns	(Q-Qo)/mA.h	<Ece>/V	|Ece|/V	Phase(Zce)/deg	|Zce|/Ohm	Re(Zce)/Ohm	-Im(Zce)/Ohm	Phase(Zwe-ce)/deg	|Zwe-ce|/Ohm	Re(Zwe-ce)/Ohm	-Im(Zwe-ce)/Ohm	Re(Y)/Ohm-1	Im(Y)/Ohm-1	|Y|/Ohm-1	Phase(Y)/deg	Re(C)/nF	Im(C)/nF	|C|/nF	Phase(C)/deg	Re(M)	Im(M)	|M|	Phase(M)/deg	Re(Permittivity)	Im(Permittivity)	|Permittivity|	Phase(Permittivity)/deg	Re(Resistivity)/Ohm.cm	Im(Resistivity)/Ohm.cm	|Resistivity|/Ohm.cm	Phase(Resistivity)/deg	Re(Conductivity)/mS/cm	Im(Conductivity)/mS/cm	|Conductivity|/mS/cm	Phase(Conductivity)/deg	Tan(Delta)	Loss Angle(Delta)/deg	dq/mA.h	Pwe/W	Pce/W	Pwe-ce/W	<Ewe-Ece>/V	Rwe/Ohm	Rce/Ohm	Rwe-ce/Ohm		Ewe-Ece/V
1.00002e+06	2.09896	2.61184	3.35072	-51.2136	2.40952	3.97177	0.0444293	0.0609347	0.0370239	1	10	0.000217671	6.49624e-05	0	1.38513e-05	-5.94036e-05	0.00019412	-69.8581	2.98819	1.02897	2.80544	-59.998	6.25547	3.12793	5.41729	0.18695	0.232632	0.298443	51.2136	37.0239	29.7535	47.4978	-38.7864	0.0000000E+000	0.0000000E+000	0.0000000E+000	38.7864	0.0000000E+000	0.0000000E+000	0.0000000E+000	-38.7864	0.0000000E+000	0.0000000E+000	0.0000000E+000	-51.2136	0.0000000E+000	0.0000000E+000	0.0000000E+000	51.2136	0.803629	38.7864	1.38513e-05	0.000176463	-2.63926e-09	0.000176466	3.97183	89395.3	1.33704	89396.7
630957	0.998692	-0.184526	1.0156	10.4683	3.70456	3.97063	0.00459614	-1.36698	-0.0451269	1	9	0.000285332	0.00028095	0	1.67645e-05	-0.000116677	0.00010328	-101.938	0.36761	-0.0760415	0.35966	-10.7478	0.939125	0.922651	0.175133	0.968254	-0.178902	0.984643	-10.4683	-45.1269	244.236	248.37	-100.468	0.0000000E+000	0.0000000E+000	0.0000000E+000	100.468	0.0000000E+000	0.0000000E+000	0.0000000E+000	-100.468	0.0000000E+000	0.0000000E+000	0.0000000E+000	10.4683	0.0000000E+000	0.0000000E+000	0.0000000E+000	-10.4683	5.4122	79.5317	9.05714e-07	1.82496e-05	-5.36265e-10	1.82501e-05	3.97075	863906	25.3859	863931
398103	1.40948	0.096113	1.41275	-3.90098	4.47054	3.97039	0.00292037	4.15951	0.0192519	1	9	0.00118261	0.000837092	0	1.62012e-05	-0.000116677	5.2174e-05	155.109	0.0623277	-0.0565383	-0.0262328	-2.95672	1.35475	1.35294	0.0698801	0.706197	0.0481558	0.707837	3.90098	19.2519	282.325	282.981	-86.099	0.0000000E+000	0.0000000E+000	0.0000000E+000	86.099	0.0000000E+000	0.0000000E+000	0.0000000E+000	-86.099	0.0000000E+000	0.0000000E+000	0.0000000E+000	-3.90098	0.0000000E+000	0.0000000E+000	0.0000000E+000	3.90098	14.6648	86.099	-8.87612e-07	1.1595e-05	-3.40741e-10	1.15954e-05	3.9705	1.35955e+06	39.9529	1.35959e+06
251206	1.49709	0.441684	1.56088	-16.4376	5.23652	3.97018	1.57067e-05	1.43443	0.114858	1	9	0.00354278	0.00226973	0	1.59898e-05	5.51437e-05	5.38836e-05	85.3096	0.0237401	0.00194127	-0.0236606	-15.5818	1.55622	1.49903	0.418023	0.614479	0.181289	0.640664	16.4376	114.858	389.311	405.901	-73.5624	0.0000000E+000	0.0000000E+000	0.0000000E+000	73.5624	0.0000000E+000	0.0000000E+000	0.0000000E+000	-73.5624	0.0000000E+000	0.0000000E+000	0.0000000E+000	-16.4376	0.0000000E+000	0.0000000E+000	0.0000000E+000	16.4376	3.3895	73.5624	6.4711e-07	6.23584e-08	8.66125e-13	6.23575e-08	3.97012	2.5277e+08	3510.84	2.52766e+08
158486	1.63849	0.689519	1.77766	-22.8227	6.00255	3.96997	-0.00419238	1.45641	0.219118	1	9	0.00537704	0.00302478	0	9.59886e-06	-0.00015486	4.34569e-05	86.4777	0.0143669	0.000882654	-0.0143398	-22.3845	1.77296	1.63937	0.675179	0.518496	0.218197	0.562537	22.8227	219.118	520.684	564.911	-67.1774	0.0000000E+000	0.0000000E+000	0.0000000E+000	67.1774	0.0000000E+000	0.0000000E+000	0.0000000E+000	-67.1774	0.0000000E+000	0.0000000E+000	0.0000000E+000	-22.8227	0.0000000E+000	0.0000000E+000	0.0000000E+000	22.8227	2.37628	67.1774	-2.77863e-06	-1.66436e-05	6.49231e-10	-1.66443e-05	3.97012	946949	36.9384	946986
100004	1.8665	0.943534	2.09143	-26.817	6.76852	3.96994	-0.000729077	1.68673	0.3433	1	9	0.00533734	0.002552	0	8.54512e-06	5.51437e-05	3.14082e-05	52.6109	0.0123073	0.0074733	-0.00977851	-26.4859	2.09373	1.87398	0.933756	0.426718	0.21571	0.478141	26.817	343.3	679.117	760.957	-63.183	0.0000000E+000	0.0000000E+000	0.0000000E+000	63.183	0.0000000E+000	0.0000000E+000	0.0000000E+000	-63.183	0.0000000E+000	0.0000000E+000	0.0000000E+000	-26.817	0.0000000E+000	0.0000000E+000	0.0000000E+000	26.817	1.9782	63.183	8.14252e-06	-2.89439e-06	-4.0204e-11	-2.89435e-06	3.96989	5.44516e+06	75.6349	5.44509e+06
0.0000000E+000	0.0000000E+000	0.0000000E+000	0.0000000E+000	0.0000000E+000	0.000000000000000E+000	0.0000000E+000	0.0000000E+000	0.0000000E+000	0.0000000E+000	0.000000000000000E+000	0	0.0000000E+000	0.0000000E+000	0	0.000000000000000E+000	0.0000000E+000	0.0000000E+000	0.0000000E+000	0.0000000E+000	0.0000000E+000	0.0000000E+000	0.0000000E+000	0.0000000E+000	0.0000000E+000	0.0000000E+000	0.0000000E+000	0.0000000E+000	0.0000000E+000	0.0000000E+000	0.0000000E+000	0.0000000E+000	0.0000000E+000	-90	0.0000000E+000	0.0000000E+000	0.0000000E+000	90	0.0000000E+000	0.0000000E+000	0.0000000E+000	-90	0.0000000E+000	0.0000000E+000	0.0000000E+000	0.0000000E+000	0.0000000E+000	0.0000000E+000	0.0000000E+000	0.0000000E+000	0.0000000E+000	90	0.000000000000000E+000	0.0000000E+000	0.0000000E+000	0.0000000E+000	0.0000000E+000	0.0000000E+000	0.0000000E+000	0.0000000E+000
0.0000000E+000	0.0000000E+000	0.0000000E+000	0.0000000E+000	0.0000000E+000	0.000000000000000E+000	0.0000000E+000	0.0000000E+000	0.0000000E+000	0.0000000E+000	0.000000000000000E+000	0	0.0000000E+000	0.0000000E+000	0	0.000000000000000E+000	0.0000000E+000	0.0000000E+000	0.0000000E+000	0.0000000E+000	0.0000000E+000	0.0000000E+000	0.0000000E+000	0.0000000E+000	0.0000000E+000	0.0000000E+000	0.0000000E+000	0.0000000E+000	0.0000000E+000	0.0000000E+000	0.0000000E+000	0.0000000E+000	0.0000000E+000	-90	0.0000000E+000	0.0000000E+000	0.0000000E+000	90	0.0000000E+000	0.0000000E+000	0.0000000E+000	-90	0.0000000E+000	0.0000000E+000	0.0000000E+000	0.0000000E+000	0.0000000E+000	0.0000000E+000	0.0000000E+000	0.0000000E+000	0.0000000E+000	90	0.000000000000000E+000	0.0000000E+000	0.0000000E+000	0.0000000E+000	0.0000000E+000	0.0000000E+000	0.0000000E+000	0.0000000E+000
0.0000000E+000	0.0000000E+000	0.0000000E+000	0.0000000E+000	0.0000000E+000	0.000000000000000E+000	0.0000000E+000	0.0000000E+000	0.0000000E+000	0.0000000E+000	0.000000000000000E+000	0	0.0000000E+000	0.0000000E+000	0	0.000000000000000E+000	0.0000000E+000	0.0000000E+000	0.0000000E+000	0.0000000E+000	0.0000000E+000	0.0000000E+000	0.0000000E+000	0.0000000E+000	0.0000000E+000	0.0000000E+000	0.0000000E+000	0.0000000E+000	0.0000000E+000	0.0000000E+000	0.0000000E+000	0.0000000E+000	0.0000000E+000	-90	0.0000000E+000	0.0000000E+000	0.0000000E+000	90	0.0000000E+000	0.0000000E+000	0.0000000E+000	-90	0.0000000E+000	0.0000000E+000	0.0000000E+000	0.0000000E+000	0.0000000E+000	0.0000000E+000	0.0000000E+000	0.0000000E+000	0.0000000E+000	90	0.000000000000000E+000	0.0000000E+000	0.0000000E+000	0.0000000E+000	0.0000000E+000	0.0000000E+000	0.0000000E+000	0.0000000E+000
15847.7	3.70112	1.77775	4.10593	-25.6563	9.83654	3.96988	0.0091022	5.64915	1.05901	1	9	0.00516028	0.00125679	0	1.36687e-06	-7.84948e-05	1.31468e-05	10.6732	0.0104606	0.0102797	-0.00193739	-25.57	4.11436	3.7114	1.77581	0.219538	0.10545	0.24355	25.6563	1059.01	2204.77	2445.92	-64.3437	0.0000000E+000	0.0000000E+000	0.0000000E+000	64.3437	0.0000000E+000	0.0000000E+000	0.0000000E+000	-64.3437	0.0000000E+000	0.0000000E+000	0.0000000E+000	-25.6563	0.0000000E+000	0.0000000E+000	0.0000000E+000	25.6563	2.08191	64.3437	1.36687e-06	3.61347e-05	-7.14476e-10	3.61354e-05	3.96996	436145	8.62372	436154
10002.2	4.24233	1.83575	4.62248	-23.3992	10.8816	3.96988	-0.00592979	8.66781	1.36706	1	10	0.00513558	0.001111	0	1.02247e-06	-0.000193042	4.13438e-06	-75.0576	0.00372131	0.000959534	0.00359548	-23.4354	4.62479	4.24329	1.83935	0.198543	0.085914	0.216334	23.3992	1367.06	3159.2	3442.3	-66.6008	0.0000000E+000	0.0000000E+000	0.0000000E+000	66.6008	0.0000000E+000	0.0000000E+000	0.0000000E+000	-66.6008	0.0000000E+000	0.0000000E+000	0.0000000E+000	-23.3992	0.0000000E+000	0.0000000E+000	0.0000000E+000	23.3992	2.31095	66.6008	1.87068e-07	-2.35406e-05	1.1447e-09	-2.35417e-05	3.97008	669482	32.5546	669514
6309.38	4.80025	1.88414	5.15678	-21.4305	11.6475	3.96989	-0.00611224	13.3881	1.78727	1	10	0.0050132	0.000972157	0	-2.29678e-06	-0.000231225	1.03759e-05	-88.3218	0.010673	0.000312574	0.0106685	-21.5395	5.16098	4.80056	1.89481	0.180512	0.0708528	0.193919	21.4305	1787.27	4553.44	4891.64	-68.5695	0.0000000E+000	0.0000000E+000	0.0000000E+000	68.5695	0.0000000E+000	0.0000000E+000	0.0000000E+000	-68.5695	0.0000000E+000	0.0000000E+000	0.0000000E+000	-21.4305	0.0000000E+000	0.0000000E+000	0.0000000E+000	21.4305	2.54771	68.5695	-2.34462e-06	-2.42649e-05	1.4133e-09	-2.42663e-05	3.97012	649499	37.8298	649536
12590.9	3.96038	1.81021	4.35448	-24.5642	10.4985	3.96989	-0.00654043	6.98284	1.20676	1	10	0.00489813	0.00112485	0	8.35398e-07	5.51437e-05	1.30991e-05	-80.5927	0.0116452	0.00190343	0.0114886	-24.6911	4.361	3.96229	1.8217	0.208864	0.0954679	0.229649	24.5642	1206.76	2640.14	2902.86	-65.4358	0.0000000E+000	0.0000000E+000	0.0000000E+000	65.4358	0.0000000E+000	0.0000000E+000	0.0000000E+000	-65.4358	0.0000000E+000	0.0000000E+000	0.0000000E+000	-24.5642	0.0000000E+000	0.0000000E+000	0.0000000E+000	24.5642	2.1878	65.4358	-5.31476e-07	-2.59648e-05	-3.60663e-10	-2.59644e-05	3.96983	606977	8.4312	606968
7942.4	4.52568	1.86282	4.89406	-22.3726	11.2645	3.96989	-0.00687926	10.7572	1.55847	1	10	0.00515405	0.00105312	0	4.7833e-08	3.60525e-05	7.11053e-06	-111.055	0.00675186	-0.00242573	0.00630106	-22.4516	4.89422	4.52325	1.86912	0.188949	0.0777733	0.204329	22.3726	1558.47	3786.28	4094.48	-67.6274	0.0000000E+000	0.0000000E+000	0.0000000E+000	67.6274	0.0000000E+000	0.0000000E+000	0.0000000E+000	-67.6274	0.0000000E+000	0.0000000E+000	0.0000000E+000	-22.3726	0.0000000E+000	0.0000000E+000	0.0000000E+000	22.3726	2.42948	67.6274	-9.74633e-07	-2.73099e-05	-2.48014e-10	-2.73097e-05	3.96986	577081	5.24075	577076
5010.39	5.08215	1.91122	5.42964	-20.6096	11.9066	3.96988	-0.00659256	16.6202	2.05929	1	10	0.00524931	0.000966788	0	-3.21902e-06	0.000169691	8.96268e-06	-83.5264	0.00927058	0.00104521	0.00921147	-20.6966	5.43387	5.0832	1.92043	0.172387	0.0648289	0.184174	20.6096	2059.29	5475.87	5850.29	-69.3904	0.0000000E+000	0.0000000E+000	0.0000000E+000	69.3904	0.0000000E+000	0.0000000E+000	0.0000000E+000	-69.3904	0.0000000E+000	0.0000000E+000	0.0000000E+000	-20.6096	0.0000000E+000	0.0000000E+000	0.0000000E+000	20.6096	2.65911	69.3904	-9.22233e-07	-2.61717e-05	-1.1187e-09	-2.61706e-05	3.96971	602176	25.7398	602150
3163.08	5.63034	1.95785	5.96103	-19.1743	12.5837	3.96982	-0.00983193	25.6998	2.77235	1	10	0.00535599	0.000898501	0	-3.181e-06	-7.84948e-05	5.89785e-06	-76.6779	0.0065641	0.00151253	0.00638746	-19.2274	5.96456	5.63185	1.96424	0.15845	0.0550983	0.167756	19.1743	2772.35	7972.63	8440.9	-70.8257	0.0000000E+000	0.0000000E+000	0.0000000E+000	70.8257	0.0000000E+000	0.0000000E+000	0.0000000E+000	-70.8257	0.0000000E+000	0.0000000E+000	0.0000000E+000	-19.1743	0.0000000E+000	0.0000000E+000	0.0000000E+000	19.1743	2.87577	70.8257	-3.20219e-07	-3.9031e-05	7.71756e-10	-3.90318e-05	3.9699	403768	7.98366	403776
1995.64	6.20733	2.06675	6.54235	-18.4154	13.4858	3.96985	-0.00250799	38.5877	3.85087	1	10	0.0053227	0.000813576	0	-3.47898e-06	0.000131509	1.25303e-05	155.918	0.0154015	-0.014061	-0.00628457	-18.402	6.52703	6.19327	2.06047	0.145023	0.0482859	0.15285	18.4154	3850.87	11565.8	12190	-71.5846	0.0000000E+000	0.0000000E+000	0.0000000E+000	71.5846	0.0000000E+000	0.0000000E+000	0.0000000E+000	-71.5846	0.0000000E+000	0.0000000E+000	0.0000000E+000	-18.4154	0.0000000E+000	0.0000000E+000	0.0000000E+000	18.4154	3.00342	71.5846	-6.2574e-07	-9.95633e-06	-3.29822e-10	-9.956e-06	3.96972	1.58288e+06	52.4358	1.58283e+06
1258.79	6.79725	2.13675	7.12519	-17.4508	14.3881	3.96985	-0.00254895	59.1714	5.32143	1	10	0.00523867	0.000735233	0	-3.84838e-06	-4.03124e-05	1.09667e-05	-80.7586	0.0149159	0.00239542	0.0147223	-17.5579	7.1319	6.79965	2.15148	0.133888	0.0420883	0.140347	17.4508	5321.43	16928	17744.8	-72.5492	0.0000000E+000	0.0000000E+000	0.0000000E+000	72.5492	0.0000000E+000	0.0000000E+000	0.0000000E+000	-72.5492	0.0000000E+000	0.0000000E+000	0.0000000E+000	-17.4508	0.0000000E+000	0.0000000E+000	0.0000000E+000	17.4508	3.18111	72.5492	1.13549e-07	-1.0119e-05	1.02754e-10	-1.01191e-05	3.96989	1.55744e+06	15.8153	1.55746e+06
794.238	7.48382	2.23653	7.81086	-16.6387	15.2901	3.96985	-0.00344258	89.5973	7.34592	1	10	0.0052042	0.000666277	0	-5.61689e-06	0.000112417	1.21049e-05	7.78355	0.0181679	0.0180005	-0.0024605	-16.5837	7.82741	7.50182	2.23407	0.122666	0.0366586	0.128027	16.6387	7345.91	24580.7	25654.9	-73.3613	0.0000000E+000	0.0000000E+000	0.0000000E+000	73.3613	0.0000000E+000	0.0000000E+000	0.0000000E+000	-73.3613	0.0000000E+000	0.0000000E+000	0.0000000E+000	-16.6387	0.0000000E+000	0.0000000E+000	0.0000000E+000	16.6387	3.34618	73.3613	-8.22189e-07	-1.36665e-05	-3.87005e-10	-1.36661e-05	3.96974	1.15316e+06	32.655	1.15313e+06
501.444	8.15394	2.30108	8.47241	-15.7593	16.1903	3.96985	-0.00326758	137.932	10.1746	1	10	0.00515881	0.000608895	0	-5.7681e-06	-2.12212e-05	7.56351e-06	22.4605	0.0124217	0.0114794	-0.00474567	-15.7074	8.48217	8.16542	2.29634	0.113594	0.0320567	0.11803	15.7593	10174.6	36053.8	37462	-74.2407	0.0000000E+000	0.0000000E+000	0.0000000E+000	74.2407	0.0000000E+000	0.0000000E+000	0.0000000E+000	-74.2407	0.0000000E+000	0.0000000E+000	0.0000000E+000	-15.7593	0.0000000E+000	0.0000000E+000	0.0000000E+000	15.7593	3.54352	74.2407	-8.28531e-08	-1.29718e-05	6.93418e-11	-1.29718e-05	3.96987	1.21492e+06	6.49447	1.21493e+06
316.316	8.8843	2.30364	9.1781	-14.5363	17.091	3.96984	-0.00308513	218.416	13.7597	1	10	0.00514765	0.000560862	0	-6.92453e-06	-5.94036e-05	6.73601e-06	-89.0011	0.0120101	0.000209384	0.0120083	-14.6085	9.18132	8.88451	2.31565	0.105467	0.027347	0.108955	14.5363	13759.7	53066	54820.9	-75.4637	0.0000000E+000	0.0000000E+000	0.0000000E+000	75.4637	0.0000000E+000	0.0000000E+000	0.0000000E+000	-75.4637	0.0000000E+000	0.0000000E+000	0.0000000E+000	-14.5363	0.0000000E+000	0.0000000E+000	0.0000000E+000	14.5363	3.85663	75.4637	-5.33357e-07	-1.22475e-05	1.83268e-10	-1.22477e-05	3.9699	1.28677e+06	19.2548	1.28679e+06
199.553	9.58115	2.31665	9.85725	-13.5928	17.9913	3.96986	-0.00259364	344.272	19.0156	1	10	0.00514471	0.000521921	0	-8.75352e-06	-2.12997e-06	8.00814e-06	-21.7245	0.0153436	0.0142538	0.00567934	-13.6054	9.87244	9.59541	2.32233	0.0986067	0.0238423	0.101448	13.5928	19015.6	78644.5	80910.7	-76.4072	0.0000000E+000	0.0000000E+000	0.0000000E+000	76.4072	0.0000000E+000	0.0000000E+000	0.0000000E+000	-76.4072	0.0000000E+000	0.0000000E+000	0.0000000E+000	-13.5928	0.0000000E+000	0.0000000E+000	0.0000000E+000	13.5928	4.13578	76.4072	-1.08237e-06	-1.02964e-05	5.52437e-12	-1.02964e-05	3.96986	1.53061e+06	0.821226	1.53061e+06
125.846	10.2314	2.2864	10.4837	-12.5969	18.8925	3.96984	-0.00331226	553.134	26.3088	1	10	0.005136	0.000489902	0	-9.71851e-06	-4.03124e-05	5.56833e-06	118.678	0.0113662	-0.00545441	-0.00997197	-12.5502	10.4762	10.2259	2.27643	0.0930898	0.0208027	0.0953858	12.5969	26308.8	117729	120633	-77.4031	0.0000000E+000	0.0000000E+000	0.0000000E+000	77.4031	0.0000000E+000	0.0000000E+000	0.0000000E+000	-77.4031	0.0000000E+000	0.0000000E+000	0.0000000E+000	-12.5969	0.0000000E+000	0.0000000E+000	0.0000000E+000	12.5969	4.47489	77.4031	-3.29331e-07	-1.31492e-05	1.33525e-10	-1.31493e-05	3.96988	1.19853e+06	12.1707	1.19854e+06
79.4155	10.9065	2.28649	11.1436	-11.8403	19.7984	3.96985	-0.00304045	876.488	36.9005	1	10	0.00513232	0.000460562	0	-1.0758e-05	-0.000231225	4.98977e-06	-51.9205	0.0108341	0.00668197	0.00852812	-11.8761	11.1519	10.9132	2.29501	0.0878282	0.0184127	0.0897375	11.8403	36900.5	176015	179841	-78.1597	0.0000000E+000	0.0000000E+000	0.0000000E+000	78.1597	0.0000000E+000	0.0000000E+000	0.0000000E+000	-78.1597	0.0000000E+000	0.0000000E+000	0.0000000E+000	-11.8403	0.0000000E+000	0.0000000E+000	0.0000000E+000	11.8403	4.76999	78.1597	-9.1747e-07	-1.20701e-05	7.03027e-10	-1.20708e-05	3.97008	1.30568e+06	76.0495	1.30576e+06
50.1444	11.5382	2.30572	11.7664	-11.3007	20.7093	3.96985	-0.00330109	1376.55	52.859	1	10	0.00513201	0.000436159	0	-1.09112e-05	-5.94036e-05	8.71636e-06	69.4331	0.0199844	0.00702051	-0.0187106	-11.2047	11.7696	11.5453	2.28701	0.0833402	0.0166541	0.084988	11.3007	52859	264516	269746	-78.6993	0.0000000E+000	0.0000000E+000	0.0000000E+000	78.6993	0.0000000E+000	0.0000000E+000	0.0000000E+000	-78.6993	0.0000000E+000	0.0000000E+000	0.0000000E+000	-11.3007	0.0000000E+000	0.0000000E+000	0.0000000E+000	11.3007	5.00418	78.6993	-1.93148e-07	-1.31048e-05	1.96097e-10	-1.3105e-05	3.96991	1.20259e+06	17.9952	1.20261e+06
31.6296	12.1547	2.34781	12.3794	-10.9326	21.5906	3.96983	-0.00562078	2143.21	77.0887	1	10	0.00513273	0.000414619	0	-1.26247e-05	-7.84948e-05	5.37141e-06	35.9923	0.0129551	0.0104819	-0.00761339	-10.8889	12.3883	12.1652	2.3402	0.0793132	0.0153202	0.0807793	10.9326	77088.6	399092	406469	-79.0674	0.0000000E+000	0.0000000E+000	0.0000000E+000	79.0674	0.0000000E+000	0.0000000E+000	0.0000000E+000	-79.0674	0.0000000E+000	0.0000000E+000	0.0000000E+000	-10.9326	0.0000000E+000	0.0000000E+000	0.0000000E+000	10.9326	5.17705	79.0674	-1.33541e-06	-2.23135e-05	4.41202e-10	-2.2314e-05	3.96991	706278	13.9651	706292
19.9553	12.7578	2.46823	12.9944	-10.9496	22.4913	3.96985	-0.00349098	3231.29	116.583	1	10	0.00513294	0.000395013	0	-1.29516e-05	1.69612e-05	8.97604e-06	-67.6886	0.0227234	0.00862672	0.0210222	-11.0333	13.0069	12.7664	2.48926	0.0755553	0.0146176	0.0769564	10.9496	116583	602597	613771	-79.0504	0.0000000E+000	0.0000000E+000	0.0000000E+000	79.0504	0.0000000E+000	0.0000000E+000	0.0000000E+000	-79.0504	0.0000000E+000	0.0000000E+000	0.0000000E+000	-10.9496	0.0000000E+000	0.0000000E+000	0.0000000E+000	10.9496	5.1688	79.0504	-2.59924e-07	-1.38587e-05	-5.92115e-11	-1.38586e-05	3.96983	1.13717e+06	4.85859	1.13717e+06
12.6008	13.3495	2.72615	13.6251	-11.5418	23.732	3.96988	7.90992e-05	4633.1	185.479	1	11	0.00512873	0.000376419	0	-1.52784e-05	-2.12212e-05	8.13898e-06	-39.9174	0.0216221	0.0165835	0.0138746	-11.585	13.6441	13.3661	2.74002	0.0719101	0.014685	0.0733942	11.5418	185479	908263	927008	-78.4582	0.0000000E+000	0.0000000E+000	0.0000000E+000	78.4582	0.0000000E+000	0.0000000E+000	0.0000000E+000	-78.4582	0.0000000E+000	0.0000000E+000	0.0000000E+000	-11.5418	0.0000000E+000	0.0000000E+000	0.0000000E+000	11.5418	4.89685	78.4582	-1.21827e-06	3.14014e-07	-1.67858e-12	3.14016e-07	3.9699	5.01886e+07	268.286	5.01889e+07
7.93953	14.0095	3.13005	14.3549	-12.5944	24.7428	3.96989	0.000324644	6404.34	304.492	1	11	0.00513112	0.000357447	0	-1.4922e-05	9.33261e-05	3.74285e-06	-8.43621	0.0104711	0.0103578	0.00153619	-12.5913	14.3653	14.0199	3.13159	0.0679864	0.0151898	0.0696626	12.5944	304492	1.36285e+06	1.39645e+06	-77.4056	0.0000000E+000	0.0000000E+000	0.0000000E+000	77.4056	0.0000000E+000	0.0000000E+000	0.0000000E+000	-77.4056	0.0000000E+000	0.0000000E+000	0.0000000E+000	-12.5944	0.0000000E+000	0.0000000E+000	0.0000000E+000	12.5944	4.47581	77.4056	2.14708e-06	1.2888e-06	3.02978e-11	1.28877e-06	3.96979	1.22284e+07	287.472	1.22281e+07
5.01444	14.7876	3.79023	15.2656	-14.3761	25.5573	3.96988	-0.00150996	8373.99	516.219	1	11	0.00513323	0.000336261	0	-1.69105e-05	-0.000250316	6.92054e-06	-98.1215	0.0205809	-0.00290753	0.0203745	-14.4528	15.2679	14.7847	3.8106	0.0634555	0.0162644	0.0655067	14.3761	516220	2.01403e+06	2.07914e+06	-75.6239	0.0000000E+000	0.0000000E+000	0.0000000E+000	75.6239	0.0000000E+000	0.0000000E+000	0.0000000E+000	-75.6239	0.0000000E+000	0.0000000E+000	0.0000000E+000	-14.3761	0.0000000E+000	0.0000000E+000	0.0000000E+000	14.3761	3.90151	75.6239	1.38816e-06	-5.99437e-06	3.77968e-10	-5.99475e-06	3.97013	2.62912e+06	165.776	2.62928e+06
3.1604	15.7175	4.67125	16.3969	-16.552	26.8084	3.96988	0.000441922	10780.7	874.958	1	11	0.00513209	0.000312991	0	-1.42583e-05	9.33261e-05	7.16601e-06	51.1697	0.0228952	0.0143557	-0.0178355	-16.478	16.4056	15.7318	4.65341	0.0584599	0.0173743	0.0609871	16.552	874958	2.94399e+06	3.07126e+06	-73.448	0.0000000E+000	0.0000000E+000	0.0000000E+000	73.448	0.0000000E+000	0.0000000E+000	0.0000000E+000	-73.448	0.0000000E+000	0.0000000E+000	0.0000000E+000	-16.552	0.0000000E+000	0.0000000E+000	0.0000000E+000	16.552	3.36472	73.448	-9.35605e-07	1.75438e-06	4.12429e-11	1.75433e-06	3.96978	8.98321e+06	211.182	8.983e+06
1.99706	16.8646	5.77713	17.8267	-18.9094	28.755	3.96988	5.00541e-05	13794.8	1448.77	1	11	0.00512958	0.000287748	0	-2.19349e-05	0.0001506	4.31721e-06	-30.0019	0.0150035	0.0129931	0.00750218	-18.9186	17.8414	16.8776	5.78463	0.0530684	0.0181791	0.0560957	18.9094	1.44877e+06	4.22926e+06	4.47053e+06	-71.0906	0.0000000E+000	0.0000000E+000	0.0000000E+000	71.0906	0.0000000E+000	0.0000000E+000	0.0000000E+000	-71.0906	0.0000000E+000	0.0000000E+000	0.0000000E+000	-18.9094	0.0000000E+000	0.0000000E+000	0.0000000E+000	18.9094	2.9192	71.0906	-3.01407e-06	1.98709e-07	7.53814e-12	1.98701e-07	3.96973	7.93117e+07	3008.74	7.93087e+07
1.25967	18.267	7.30849	19.6748	-21.8059	31.8046	3.96988	-7.20598e-05	17287.6	2385.44	1	11	0.00512798	0.000260637	0	-1.25904e-05	-2.12212e-05	3.85192e-06	-15.6694	0.0147789	0.0142297	0.00399156	-21.8013	19.6895	18.2813	7.31249	0.0471896	0.0188802	0.0508264	21.8059	2.38544e+06	5.96222e+06	6.42171e+06	-68.1941	0.0000000E+000	0.0000000E+000	0.0000000E+000	68.1941	0.0000000E+000	0.0000000E+000	0.0000000E+000	-68.1941	0.0000000E+000	0.0000000E+000	0.0000000E+000	-21.8059	0.0000000E+000	0.0000000E+000	0.0000000E+000	21.8059	2.49943	68.1941	6.87894e-06	-2.86069e-07	1.52919e-12	-2.86071e-07	3.96991	5.50915e+07	294.494	5.50918e+07
0.793708	20.2489	9.20635	22.2436	-24.4493	240.928	3.96985	-0.0012869	21780.7	3731.11	1	11	0.00508484	0.000228598	0	-0.000321713	-0.000135768	5.78419e-07	-35.0688	0.00253029	0.00207095	0.0014538	-24.4505	22.2461	20.251	9.20781	0.0409254	0.0186071	0.0449568	24.4493	3.73111e+06	8.2064e+06	9.01477e+06	-65.5507	0.0000000E+000	0.0000000E+000	0.0000000E+000	65.5507	0.0000000E+000	0.0000000E+000	0.0000000E+000	-65.5507	0.0000000E+000	0.0000000E+000	0.0000000E+000	-24.4493	0.0000000E+000	0.0000000E+000	0.0000000E+000	24.4493	2.19945	65.5507	0.000000000000000E+000	-5.10879e-06	1.7472e-10	-5.10897e-06	3.96999	3.08482e+06	105.501	3.08493e+06
0.502347	22.7258	11.6464	25.5363	-27.134	240.928	3.96985	-0.0012869	27203.4	5658.39	1	11	0.00509127	0.000199374	0	-0.000321713	-0.000135768	6.22995e-07	-22.842	0.00312476	0.00287971	0.001213	-27.1335	25.5394	22.7287	11.6476	0.0348501	0.0178598	0.0391599	27.134	5.65839e+06	1.10413e+07	1.24068e+07	-62.866	0.0000000E+000	0.0000000E+000	0.0000000E+000	62.866	0.0000000E+000	0.0000000E+000	0.0000000E+000	-62.866	0.0000000E+000	0.0000000E+000	0.0000000E+000	-27.134	0.0000000E+000	0.0000000E+000	0.0000000E+000	27.134	1.95132	62.866	0.000000000000000E+000	-5.10879e-06	1.7472e-10	-5.10897e-06	3.96999	3.08482e+06	105.501	3.08493e+06
0.311455	25.8728	14.6587	29.7368	-29.5345	240.929	3.96985	-0.0012869	34860.2	8470.93	1	11	0.00509567	0.000171359	0	-0.000321713	-0.000135768	7.58531e-07	-12.3942	0.00442655	0.00432339	0.000950096	-29.532	29.741	25.8771	14.6596	0.0292587	0.016577	0.0336284	29.5345	8.47093e+06	1.49513e+07	1.71843e+07	-60.4655	0.0000000E+000	0.0000000E+000	0.0000000E+000	60.4655	0.0000000E+000	0.0000000E+000	0.0000000E+000	-60.4655	0.0000000E+000	0.0000000E+000	0.0000000E+000	-29.5345	0.0000000E+000	0.0000000E+000	0.0000000E+000	29.5345	1.76502	60.4655	0.000000000000000E+000	-5.10879e-06	1.7472e-10	-5.10897e-06	3.96999	3.08482e+06	105.501	3.08493e+06
0.200939	29.6444	18.3914	34.8861	-31.8155	240.929	3.96985	-0.0012869	43066.7	11969.3	1	11	0.00509602	0.000146076	0	-0.000321713	-0.000135768	6.52941e-07	-34.2745	0.00446987	0.00369367	0.00251724	-31.8158	34.8905	29.6481	18.3939	0.0243579	0.0151116	0.0286647	31.8155	1.19693e+07	1.92928e+07	2.27041e+07	-58.1845	0.0000000E+000	0.0000000E+000	0.0000000E+000	58.1845	0.0000000E+000	0.0000000E+000	0.0000000E+000	-58.1845	0.0000000E+000	0.0000000E+000	0.0000000E+000	-31.8155	0.0000000E+000	0.0000000E+000	0.0000000E+000	31.8155	1.61186	58.1845	0.000000000000000E+000	-5.10879e-06	1.7472e-10	-5.10897e-06	3.96999	3.08482e+06	105.501	3.08493e+06
0.13061	34.3665	22.4816	41.0668	-33.1916	240.93	3.96985	-0.0012869	54202	16243.9	1	11	0.00510118	0.000124217	0	-0.000321713	-0.000135768	5.89683e-07	-52.1312	0.00474721	0.0029141	0.00374753	-33.1937	41.0713	34.3694	22.4854	0.0203777	0.0133305	0.0243506	33.1916	1.62439e+07	2.48312e+07	2.96724e+07	-56.8084	0.0000000E+000	0.0000000E+000	0.0000000E+000	56.8084	0.0000000E+000	0.0000000E+000	0.0000000E+000	-56.8084	0.0000000E+000	0.0000000E+000	0.0000000E+000	-33.1916	0.0000000E+000	0.0000000E+000	0.0000000E+000	33.1916	1.52865	56.8084	0.000000000000000E+000	-5.10879e-06	1.7472e-10	-5.10897e-06	3.96999	3.08482e+06	105.501	3.08493e+06
0.0803755	40.8556	28.1952	49.6402	-34.6103	240.93	3.96985	-0.0012869	70229.7	22657.1	1	11	0.00509526	0.000102644	0	-0.000321713	-0.000135768	6.31487e-07	-29.7812	0.00615221	0.00533968	0.00305574	-34.6097	49.6463	40.8609	28.1983	0.01658	0.0114422	0.020145	34.6103	2.26571e+07	3.28307e+07	3.98899e+07	-55.3897	0.0000000E+000	0.0000000E+000	0.0000000E+000	55.3897	0.0000000E+000	0.0000000E+000	0.0000000E+000	-55.3897	0.0000000E+000	0.0000000E+000	0.0000000E+000	-34.6103	0.0000000E+000	0.0000000E+000	0.0000000E+000	34.6103	1.44902	55.3897	0.000000000000000E+000	-5.10879e-06	1.7472e-10	-5.10897e-06	3.96999	3.08482e+06	105.501	3.08493e+06
0.0502347	49.0853	35.3355	60.4811	-35.7493	240.93	3.96985	-0.0012869	89661.3	30604.7	1	11	0.00510505	8.44073e-05	0	-0.000321713	-0.000135768	6.65743e-07	-48.5314	0.00788726	0.00522302	0.00591007	-35.751	60.4888	49.0905	35.3414	0.0134187	0.00965988	0.0165341	35.7493	3.06047e+07	4.25136e+07	5.23837e+07	-54.2507	0.0000000E+000	0.0000000E+000	0.0000000E+000	54.2507	0.0000000E+000	0.0000000E+000	0.0000000E+000	-54.2507	0.0000000E+000	0.0000000E+000	0.0000000E+000	-35.7493	0.0000000E+000	0.0000000E+000	0.0000000E+000	35.7493	1.38912	54.2507	0.000000000000000E+000	-5.10879e-06	1.7472e-10	-5.10897e-06	3.96999	3.08482e+06	105.501	3.08493e+06
0.0301408	59.8539	45.5535	75.2171	-37.274	240.931	3.96985	-0.0012869	115916	42516.2	1	11	0.00509503	6.77376e-05	0	-0.000321713	-0.000135768	6.67341e-07	16.3353	0.00985185	0.00945415	-0.0027709	-37.268	75.223	59.8633	45.5508	0.0105794	0.00805172	0.0132948	37.274	4.25162e+07	5.5863e+07	7.02018e+07	-52.726	0.0000000E+000	0.0000000E+000	0.0000000E+000	52.726	0.0000000E+000	0.0000000E+000	0.0000000E+000	-52.726	0.0000000E+000	0.0000000E+000	0.0000000E+000	-37.274	0.0000000E+000	0.0000000E+000	0.0000000E+000	37.274	1.31392	52.726	0.000000000000000E+000	-5.10879e-06	1.7472e-10	-5.10897e-06	3.96999	3.08482e+06	105.501	3.08493e+06
0.0100469	98.6102	70.0694	120.97	-35.3964	240.931	3.96985	-0.0012869	226078	75850.9	1	11	0.00510419	4.21939e-05	0	-0.000321713	-0.000135768	1.67221e-06	17.322	0.0396315	0.0378341	-0.0118	-35.3815	120.994	98.6481	70.0576	0.00673857	0.00478822	0.00826652	35.3964	7.58509e+07	1.06747e+08	1.30951e+08	-54.6036	0.0000000E+000	0.0000000E+000	0.0000000E+000	54.6036	0.0000000E+000	0.0000000E+000	0.0000000E+000	-54.6036	0.0000000E+000	0.0000000E+000	0.0000000E+000	-35.3964	0.0000000E+000	0.0000000E+000	0.0000000E+000	35.3964	1.40732	54.6036	0.000000000000000E+000	-5.10879e-06	1.7472e-10	-5.10897e-06	3.96999	3.08482e+06	105.501	3.08493e+06