File: txt/18805_R307_UC93_28_SOC50_C02.mpt
EC-Lab ASCII FILE
Nb header lines : 65

Potentio Electrochemical Impedance Spectroscopy

Run on channel : 2 (SN 66139)
Grouped channel(s) : 1, 2, 3, 4, 5
User :
CE vs. WE compliance from -10 V to 10 V
Electrode connection : standard
Potential control : Ewe
Ewe ctrl range : min = -10.00 V, max = 10.00 V
Safety Limits :
	Do not start on E overload
Acquisition started on : 11/05/2025 08:59:28.513
Loaded Setting File :  C:\Users\Celltest\OneDrive - store-dot.com\Documents\EC-Lab\Data\@Biologic Test Protocols\cathode half cell EIS SOC50.mps
Saved on :
	File : 18804_R307_UC93_28_SOC00_C02.mpr
	Directory : C:\Users\Celltest\OneDrive - store-dot.com\Documents\EC-Lab\Data\Anna\
	Host : 169.254.61.224
Device : VMP-3e (SN .003165)
Address : USB
EC-LAB for windows v11.62 (software)
Internet server v27.00 (firmware)
Command interpretor v12.03 (firmware)
Electrode material :
Initial state :
Electrolyte :
Comments :
Electrode surface area : 0.001 cm²
Characteristic mass : 0.001 g
Equivalent Weight : 0.000 g/eq.
Density : 0.000 g/cm3
Volume (V) : 0.001 cm³
Record Ece
Cycle Definition : Charge/Discharge alternance
Mode                Multi sine
E (V)               0.0000
vs.                 Eoc
tE (h:m:s)          0:00:0.0000
record              0
dI                  0.000
unit dI             mA
dt (s)              0.000
fi                  1.000
unit fi             MHz
ff                  0.100
unit ff             mHz
Nd                  10
Points              per decade
spacing             Logarithmic
Va (mV)             5.0
pw                  0.10
Na                  2
corr                0
E range min (V)     -10.000
E range max (V)     10.000
I Range             Auto
Bandwidth           5
nc cycles           0
goto Ns'            0
nr cycles           0
inc. cycle          0

freq/Hz	Re(Z)/Ohm	-Im(Z)/Ohm	|Z|/Ohm	Phase(Z)/deg	time/s	<Ewe>/V	<I>/mA	Cs/µF	Cp/µF	cycle number	I Range	|Ewe|/V	|I|/A	Ns	(Q-Qo)/mA.h	<Ece>/V	|Ece|/V	Phase(Zce)/deg	|Zce|/Ohm	Re(Zce)/Ohm	-Im(Zce)/Ohm	Phase(Zwe-ce)/deg	|Zwe-ce|/Ohm	Re(Zwe-ce)/Ohm	-Im(Zwe-ce)/Ohm	Re(Y)/Ohm-1	Im(Y)/Ohm-1	|Y|/Ohm-1	Phase(Y)/deg	Re(C)/nF	Im(C)/nF	|C|/nF	Phase(C)/deg	Re(M)	Im(M)	|M|	Phase(M)/deg	Re(Permittivity)	Im(Permittivity)	|Permittivity|	Phase(Permittivity)/deg	Re(Resistivity)/Ohm.cm	Im(Resistivity)/Ohm.cm	|Resistivity|/Ohm.cm	Phase(Resistivity)/deg	Re(Conductivity)/mS/cm	Im(Conductivity)/mS/cm	|Conductivity|/mS/cm	Phase(Conductivity)/deg	Tan(Delta)	Loss Angle(Delta)/deg	dq/mA.h	Pwe/W	Pce/W	Pwe-ce/W	<Ewe-Ece>/V	Rwe/Ohm	Rce/Ohm	Rwe-ce/Ohm		Ewe-Ece/V
1.00002e+06	2.83063	2.37224	3.69324	-39.965	2.23455	3.9713	-0.041875	0.0670894	0.0276794	1	10	0.000245417	6.64504e-05	0	-1.36003e-05	0.000121951	0.000179248	-66.2655	2.69747	1.08573	2.46932	-51.0304	6.22724	3.91636	4.84156	0.207525	0.173918	0.270765	39.965	27.6794	33.0279	43.0928	-50.035	0.0000000E+000	0.0000000E+000	0.0000000E+000	50.035	0.0000000E+000	0.0000000E+000	0.0000000E+000	-50.035	0.0000000E+000	0.0000000E+000	0.0000000E+000	-39.965	0.0000000E+000	0.0000000E+000	0.0000000E+000	39.965	1.19323	50.035	-1.36003e-05	-0.000166298	-5.1067e-09	-0.000166293	3.97117	94837	2.91227	94834.1
630957	1.43936	-0.250688	1.46103	9.87988	3.40356	3.97109	-0.0626082	-1.0062	-0.0296235	1	9	0.000486083	0.000332699	0	-2.76758e-05	0.000255587	0.00012434	-109.626	0.373731	-0.125526	0.35202	-4.41027	1.31774	1.31384	0.101331	0.674297	-0.11744	0.684448	-9.87988	-29.6235	170.087	172.648	-99.8799	0.0000000E+000	0.0000000E+000	0.0000000E+000	99.8799	0.0000000E+000	0.0000000E+000	0.0000000E+000	-99.8799	0.0000000E+000	0.0000000E+000	0.0000000E+000	9.87988	0.0000000E+000	0.0000000E+000	0.0000000E+000	-9.87988	5.74164	80.1201	-5.48292e-06	-0.000248623	-1.60018e-08	-0.000248607	3.97084	63427.7	4.08233	63423.6
398103	1.78426	0.204509	1.79594	-6.53863	4.17156	3.97127	-0.0510247	1.95484	0.0253486	1	9	0.00172915	0.000962811	0	-3.87962e-05	4.55878e-05	3.7614e-05	-2.91685	0.0390668	0.0390162	0.00198798	-6.46157	1.83493	1.82327	0.206497	0.55319	0.0634059	0.556811	6.53863	25.3486	221.156	222.604	-83.4614	0.0000000E+000	0.0000000E+000	0.0000000E+000	83.4614	0.0000000E+000	0.0000000E+000	0.0000000E+000	-83.4614	0.0000000E+000	0.0000000E+000	0.0000000E+000	-6.53863	0.0000000E+000	0.0000000E+000	0.0000000E+000	6.53863	8.72458	83.4614	-6.35582e-06	-0.000202633	-2.3261e-09	-0.00020263	3.97123	77830.4	0.893446	77829.5
251206	1.95804	0.511575	2.02377	-14.6423	4.81353	3.97123	-0.0451398	1.23846	0.0791366	1	9	0.00524169	0.00259006	0	-4.96371e-05	8.37695e-05	2.4089e-05	103.595	0.00930053	-0.00218621	-0.00903993	-14.4098	2.01938	1.95586	0.502535	0.47808	0.124907	0.494128	14.6423	79.1366	302.894	313.061	-75.3577	0.0000000E+000	0.0000000E+000	0.0000000E+000	75.3577	0.0000000E+000	0.0000000E+000	0.0000000E+000	-75.3577	0.0000000E+000	0.0000000E+000	0.0000000E+000	-14.6423	0.0000000E+000	0.0000000E+000	0.0000000E+000	14.6423	3.82748	75.3577	-5.33362e-06	-0.000179261	-3.78133e-09	-0.000179257	3.97115	87976.4	1.85578	87974.6
158486	2.15062	0.744731	2.27591	-19.1003	5.57955	3.97117	-0.0381375	1.34843	0.144383	1	9	0.00545157	0.00239533	0	-5.02599e-05	4.55878e-05	3.15557e-05	108.037	0.0131738	-0.00407904	-0.0125264	-18.835	2.26798	2.14654	0.732205	0.415195	0.143777	0.439384	19.1003	144.383	416.947	441.238	-70.8997	0.0000000E+000	0.0000000E+000	0.0000000E+000	70.8997	0.0000000E+000	0.0000000E+000	0.0000000E+000	-70.8997	0.0000000E+000	0.0000000E+000	0.0000000E+000	-19.1003	0.0000000E+000	0.0000000E+000	0.0000000E+000	19.1003	2.88778	70.8997	9.35615e-07	-0.000151451	-1.73861e-09	-0.000151449	3.97112	104128	1.19535	104126
100004	2.37597	0.951424	2.55938	-21.8229	6.34554	3.97116	-0.0198498	1.67275	0.231157	1	9	0.00549561	0.00214724	0	-4.89913e-05	0.00031286	2.00395e-05	104.43	0.00933269	-0.00232562	-0.00903829	-21.6541	2.55388	2.37365	0.942386	0.362719	0.145246	0.390719	21.8229	231.157	577.264	621.825	-68.1771	0.0000000E+000	0.0000000E+000	0.0000000E+000	68.1771	0.0000000E+000	0.0000000E+000	0.0000000E+000	-68.1771	0.0000000E+000	0.0000000E+000	0.0000000E+000	-21.8229	0.0000000E+000	0.0000000E+000	0.0000000E+000	21.8229	2.49728	68.1771	-2.03538e-06	-7.88267e-05	-6.2102e-09	-7.88204e-05	3.97084	200060	15.7613	200044
63093.8	2.67455	1.16706	2.91809	-23.5745	7.23554	3.97115	-0.0189559	2.16142	0.345725	1	9	0.00548447	0.00187948	0	-4.83089e-05	7.4061e-06	1.00242e-05	77.3008	0.00533352	0.00117248	-0.00520305	-23.4716	2.91709	2.67572	1.16186	0.31409	0.137056	0.34269	23.5745	345.725	792.295	864.44	-66.4255	0.0000000E+000	0.0000000E+000	0.0000000E+000	66.4255	0.0000000E+000	0.0000000E+000	0.0000000E+000	-66.4255	0.0000000E+000	0.0000000E+000	0.0000000E+000	-23.5745	0.0000000E+000	0.0000000E+000	0.0000000E+000	23.5745	2.29169	66.4255	2.45295e-06	-7.52767e-05	-1.40389e-10	-7.52766e-05	3.97114	209494	0.390701	209494
39814.1	3.05239	1.43791	3.37412	-25.224	8.12753	3.97116	-0.0208927	2.78005	0.504888	1	9	0.00539578	0.00159917	0	-5.43109e-05	0.000446496	1.80466e-05	-52.2468	0.011285	0.00690935	0.00892252	-25.3108	3.38417	3.0593	1.44683	0.268114	0.126302	0.296374	25.224	504.888	1071.77	1184.74	-64.776	0.0000000E+000	0.0000000E+000	0.0000000E+000	64.776	0.0000000E+000	0.0000000E+000	0.0000000E+000	-64.776	0.0000000E+000	0.0000000E+000	0.0000000E+000	-25.224	0.0000000E+000	0.0000000E+000	0.0000000E+000	25.224	2.1228	64.776	-4.04697e-06	-8.29682e-05	-9.32849e-09	-8.29588e-05	3.97071	190074	21.3709	190053
25116.9	3.44849	1.69272	3.84154	-26.1445	8.77152	3.97114	-0.033966	3.74342	0.726824	1	9	0.0049435	0.00128686	0	-5.77589e-05	0.00031286	5.71476e-06	-47.7399	0.00444087	0.00298647	0.00328669	-26.1688	3.84567	3.45148	1.69601	0.233679	0.114703	0.260312	26.1445	726.824	1480.72	1649.49	-63.8555	0.0000000E+000	0.0000000E+000	0.0000000E+000	63.8555	0.0000000E+000	0.0000000E+000	0.0000000E+000	-63.8555	0.0000000E+000	0.0000000E+000	0.0000000E+000	-26.1445	0.0000000E+000	0.0000000E+000	0.0000000E+000	26.1445	2.03725	63.8555	-2.74367e-06	-0.000134884	-1.06266e-08	-0.000134873	3.97083	116915	9.21096	116906
15847.7	3.96808	1.97769	4.43362	-26.4917	9.41356	3.97113	-0.0373554	5.07803	1.01041	1	9	0.00457495	0.00103188	0	-6.36383e-05	0.000293769	6.54627e-06	-53.0519	0.00634405	0.00381335	0.00507004	-26.5283	4.43929	3.9719	1.98276	0.201867	0.10061	0.225549	26.4917	1010.41	2027.3	2265.15	-63.5083	0.0000000E+000	0.0000000E+000	0.0000000E+000	63.5083	0.0000000E+000	0.0000000E+000	0.0000000E+000	-63.5083	0.0000000E+000	0.0000000E+000	0.0000000E+000	-26.4917	0.0000000E+000	0.0000000E+000	0.0000000E+000	26.4917	2.00642	63.5083	-2.80105e-06	-0.000148343	-1.09739e-08	-0.000148332	3.97084	106307	7.86416	106299
10002.2	4.55599	2.26855	5.08954	-26.47	10.2105	3.97116	-0.0352776	7.01414	1.39353	1	10	0.00488996	0.000960787	0	-7.01594e-05	0.00010286	9.59483e-06	60.267	0.00998643	0.00495286	-0.00867168	-26.3578	5.09011	4.56094	2.25988	0.175884	0.0875775	0.196482	26.47	1393.53	2798.66	3126.41	-63.53	0.0000000E+000	0.0000000E+000	0.0000000E+000	63.53	0.0000000E+000	0.0000000E+000	0.0000000E+000	-63.53	0.0000000E+000	0.0000000E+000	0.0000000E+000	-26.47	0.0000000E+000	0.0000000E+000	0.0000000E+000	26.47	2.00832	63.53	-1.59537e-06	-0.000140093	-3.62866e-09	-0.000140089	3.97106	112569	2.91574	112566
6309.38	5.20103	2.63138	5.82879	-26.8364	10.7285	3.97117	-0.0344729	9.58628	1.9537	1	10	0.00487437	0.000836256	0	-7.53279e-05	0.000293769	7.61981e-06	93.1832	0.00911182	-0.000505969	-0.00909776	-26.7588	5.82424	5.20052	2.62228	0.153085	0.0774507	0.171562	26.8364	1953.7	3861.58	4327.67	-63.1636	0.0000000E+000	0.0000000E+000	0.0000000E+000	63.1636	0.0000000E+000	0.0000000E+000	0.0000000E+000	-63.1636	0.0000000E+000	0.0000000E+000	0.0000000E+000	-26.8364	0.0000000E+000	0.0000000E+000	0.0000000E+000	26.8364	1.97654	63.1636	-2.16399e-06	-0.000136898	-1.01271e-08	-0.000136888	3.97088	115197	8.52172	115188
3983.6	5.92993	3.04991	6.66829	-27.2179	11.2911	3.97109	-0.042769	13.0996	2.74033	1	10	0.00476871	0.000715133	0	-8.01138e-05	0.000160133	4.91344e-06	8.40808	0.00687067	0.00679682	-0.00100465	-27.1835	6.67387	5.93673	3.04891	0.133359	0.0685896	0.149964	27.2179	2740.33	5328.02	5991.42	-62.7821	0.0000000E+000	0.0000000E+000	0.0000000E+000	62.7821	0.0000000E+000	0.0000000E+000	0.0000000E+000	-62.7821	0.0000000E+000	0.0000000E+000	0.0000000E+000	-27.2179	0.0000000E+000	0.0000000E+000	0.0000000E+000	27.2179	1.9443	62.7821	-2.64183e-06	-0.00016984	-6.84872e-09	-0.000169833	3.97093	92849.8	3.74413	92846.1
2510.8	6.76899	3.61924	7.67582	-28.1325	12.1158	3.97114	-0.015519	17.5142	3.89382	1	10	0.00468242	0.000610022	0	-8.43303e-05	0.000236496	5.55838e-06	-128.972	0.00911177	-0.0057308	0.00708395	-28.1993	7.67411	6.76326	3.62632	0.114888	0.0614282	0.130279	28.1325	3893.82	7282.53	8258.15	-61.8675	0.0000000E+000	0.0000000E+000	0.0000000E+000	61.8675	0.0000000E+000	0.0000000E+000	0.0000000E+000	-61.8675	0.0000000E+000	0.0000000E+000	0.0000000E+000	-28.1325	0.0000000E+000	0.0000000E+000	0.0000000E+000	28.1325	1.87028	61.8675	-1.4857e-06	-6.16281e-05	-3.67019e-09	-6.16245e-05	3.9709	255888	15.2391	255873
1585.51	7.7859	4.31142	8.89992	-28.9754	13.0178	3.97115	-0.0153216	23.2826	5.46386	1	10	0.00462466	0.00051963	0	-8.82711e-05	2.64969e-05	2.78631e-06	-91.983	0.00536212	-0.000185548	0.00535891	-29.0061	8.90235	7.78571	4.31678	0.0982962	0.0544312	0.112361	28.9754	5463.86	9867.08	11278.9	-61.0246	0.0000000E+000	0.0000000E+000	0.0000000E+000	61.0246	0.0000000E+000	0.0000000E+000	0.0000000E+000	-61.0246	0.0000000E+000	0.0000000E+000	0.0000000E+000	-28.9754	0.0000000E+000	0.0000000E+000	0.0000000E+000	28.9754	1.80588	61.0246	-2.27828e-06	-6.08442e-05	-4.05975e-10	-6.08438e-05	3.97112	259186	1.72939	259185
1000.32	9.04671	5.15648	10.4131	-29.6824	13.9198	3.97112	-0.0174189	30.8552	7.56616	1	10	0.00459036	0.000440826	0	-9.27853e-05	-0.000145321	8.68414e-06	4.10425	0.0196997	0.0196492	-0.00140994	-29.6222	10.4295	9.06636	5.15507	0.0834319	0.0475548	0.0960331	29.6824	7566.16	13274.4	15279.2	-60.3176	0.0000000E+000	0.0000000E+000	0.0000000E+000	60.3176	0.0000000E+000	0.0000000E+000	0.0000000E+000	-60.3176	0.0000000E+000	0.0000000E+000	0.0000000E+000	-29.6824	0.0000000E+000	0.0000000E+000	0.0000000E+000	29.6824	1.75444	60.3176	-2.41606e-06	-6.91726e-05	2.53132e-09	-6.91751e-05	3.97127	227978	8.34271	227986
631.01	10.6185	6.146	12.2689	-30.0624	14.8215	3.97114	-0.0160108	41.0385	10.2984	1	10	0.00456886	0.000372395	0	-9.64461e-05	2.64969e-05	4.3018e-06	-33.5854	0.0115517	0.00962329	0.00639016	-30.0657	12.2804	10.6281	6.15239	0.0705429	0.0408305	0.0815072	30.0624	10298.4	17792.5	20558	-59.9376	0.0000000E+000	0.0000000E+000	0.0000000E+000	59.9376	0.0000000E+000	0.0000000E+000	0.0000000E+000	-59.9376	0.0000000E+000	0.0000000E+000	0.0000000E+000	-30.0624	0.0000000E+000	0.0000000E+000	0.0000000E+000	30.0624	1.7277	59.9376	-1.70148e-06	-6.3581e-05	-4.24236e-10	-6.35805e-05	3.97111	248030	1.65495	248028
398.089	12.7032	7.20035	14.6019	-29.5452	15.7229	3.97114	-0.0157239	55.5247	13.5013	1	10	0.00457069	0.00031302	0	-0.00010045	0.000121951	1.5015e-05	-14.0352	0.0479681	0.0465361	0.0116331	-29.4951	14.6481	12.7497	7.21198	0.059579	0.0337703	0.0684842	29.5452	13501.3	23819.5	27379.8	-60.4548	0.0000000E+000	0.0000000E+000	0.0000000E+000	60.4548	0.0000000E+000	0.0000000E+000	0.0000000E+000	-60.4548	0.0000000E+000	0.0000000E+000	0.0000000E+000	-29.5452	0.0000000E+000	0.0000000E+000	0.0000000E+000	29.5452	1.76424	60.4548	-2.17478e-06	-6.24418e-05	-1.91755e-09	-6.24399e-05	3.97101	252554	7.75578	252546
251.044	15.3132	8.07085	17.3099	-27.7916	16.621	3.97112	-0.0153626	78.5507	17.0766	1	10	0.00455487	0.000263137	0	-0.000104388	-6.89573e-05	5.84621e-06	-12.5724	0.0222174	0.0216846	0.00483612	-27.7723	17.3313	15.3348	8.07569	0.0511066	0.0269359	0.0577705	27.7916	17076.6	32400.1	36624.8	-62.2084	0.0000000E+000	0.0000000E+000	0.0000000E+000	62.2084	0.0000000E+000	0.0000000E+000	0.0000000E+000	-62.2084	0.0000000E+000	0.0000000E+000	0.0000000E+000	-27.7916	0.0000000E+000	0.0000000E+000	0.0000000E+000	27.7916	1.89734	62.2084	-2.06996e-06	-6.10066e-05	1.05936e-09	-6.10077e-05	3.97119	258493	4.48866	258498
158.428	18.416	8.47548	20.2727	-24.713	17.5258	3.97113	-0.0155786	118.529	20.717	1	10	0.0045486	0.00022437	0	-0.000108094	0.000255587	1.21892e-05	-14.7046	0.0543262	0.0525469	0.01379	-24.6864	20.3262	18.4686	8.48927	0.0448096	0.0206224	0.0493274	24.713	20717	45015.1	49553.6	-65.287	0.0000000E+000	0.0000000E+000	0.0000000E+000	65.287	0.0000000E+000	0.0000000E+000	0.0000000E+000	-65.287	0.0000000E+000	0.0000000E+000	0.0000000E+000	-24.713	0.0000000E+000	0.0000000E+000	0.0000000E+000	24.713	2.17286	65.287	-1.87465e-06	-6.18648e-05	-3.9817e-09	-6.18608e-05	3.97087	254909	16.4063	254892
100.032	21.6191	8.20102	23.1223	-20.7738	18.6698	3.97118	-0.0173488	194.005	24.4055	1	11	0.00455395	0.00019695	0	-0.000113176	0.000141042	5.72691e-06	-2.19009	0.0290779	0.0290567	0.00111121	-20.7509	23.1499	21.6481	8.20213	0.0404366	0.0153393	0.0432483	20.7738	24405.5	64336.3	68809.8	-69.2262	0.0000000E+000	0.0000000E+000	0.0000000E+000	69.2262	0.0000000E+000	0.0000000E+000	0.0000000E+000	-69.2262	0.0000000E+000	0.0000000E+000	0.0000000E+000	-20.7738	0.0000000E+000	0.0000000E+000	0.0000000E+000	20.7738	2.63614	69.2262	-3.00354e-06	-6.8895e-05	-2.4469e-09	-6.88925e-05	3.97104	228903	8.1298	228894
63.0823	24.3802	7.03899	25.376	-16.1044	19.586	3.97118	-0.0168857	358.428	27.5789	1	11	0.00454406	0.000179069	0	-0.000117337	-0.000259866	3.58197e-06	-36.6194	0.0200033	0.0160549	0.0119319	-16.1202	25.3947	24.3962	7.05092	0.0378609	0.0109311	0.0394074	16.1044	27578.9	95522.1	99423.7	-73.8956	0.0000000E+000	0.0000000E+000	0.0000000E+000	73.8956	0.0000000E+000	0.0000000E+000	0.0000000E+000	-73.8956	0.0000000E+000	0.0000000E+000	0.0000000E+000	-16.1044	0.0000000E+000	0.0000000E+000	0.0000000E+000	16.1044	3.46359	73.8956	-2.1315e-06	-6.7056e-05	4.38801e-09	-6.70604e-05	3.97144	235180	15.3897	235195
39.8089	26.4256	5.65066	27.023	-12.0699	20.4869	3.97118	-0.0169979	707.524	30.9365	1	11	0.00454368	0.000168141	0	-0.000121118	0.000217405	6.14873e-06	-8.06391	0.0365689	0.0362073	0.0051298	-12.0645	27.0595	26.4618	5.65579	0.0361874	0.00773804	0.0370055	12.0699	30936.5	144676	147947	-77.9301	0.0000000E+000	0.0000000E+000	0.0000000E+000	77.9301	0.0000000E+000	0.0000000E+000	0.0000000E+000	-77.9301	0.0000000E+000	0.0000000E+000	0.0000000E+000	-12.0699	0.0000000E+000	0.0000000E+000	0.0000000E+000	12.0699	4.67656	77.9301	-1.9154e-06	-6.75018e-05	-3.69544e-09	-6.74981e-05	3.97097	233628	12.7901	233615
25.1044	27.7289	4.18431	28.0428	-8.58123	21.3661	3.97117	-0.0169819	1515.12	33.7326	1	11	0.00454406	0.00016204	0	-0.000125118	4.55878e-05	2.49477e-06	84.5467	0.015396	0.00146316	-0.0153263	-8.54982	28.042	27.7304	4.16898	0.0352605	0.00532084	0.0356597	8.58123	33732.6	223542	226073	-81.4188	0.0000000E+000	0.0000000E+000	0.0000000E+000	81.4188	0.0000000E+000	0.0000000E+000	0.0000000E+000	-81.4188	0.0000000E+000	0.0000000E+000	0.0000000E+000	-8.58123	0.0000000E+000	0.0000000E+000	0.0000000E+000	8.58123	6.62688	81.4188	-2.18346e-06	-6.74379e-05	-7.74166e-10	-6.74372e-05	3.97112	233848	2.6845	233845
15.8576	28.5057	3.13542	28.6776	-6.2769	22.2441	3.97118	-0.0173637	3201.01	38.2644	1	11	0.00454106	0.000158349	0	-0.000128258	0.000236496	1.05587e-05	-18.4473	0.06668	0.0632536	0.0210997	-6.30493	28.7428	28.5689	3.15652	0.0346614	0.00381251	0.0348705	6.2769	38264.4	347880	349978	-83.7231	0.0000000E+000	0.0000000E+000	0.0000000E+000	83.7231	0.0000000E+000	0.0000000E+000	0.0000000E+000	-83.7231	0.0000000E+000	0.0000000E+000	0.0000000E+000	-6.2769	0.0000000E+000	0.0000000E+000	0.0000000E+000	6.2769	9.09149	83.7231	-1.3495e-06	-6.89542e-05	-4.10644e-09	-6.89501e-05	3.97094	228706	13.6202	228692
10.0032	29.0081	2.35504	29.1035	-4.64141	23.2248	3.97117	-0.016511	6755.91	44.2372	1	11	0.00453864	0.000155948	0	-0.000133359	4.55878e-05	9.00815e-06	-55.657	0.0577638	0.0325872	0.0476941	-4.72969	29.1399	29.0407	2.40273	0.0342474	0.00278039	0.0343601	4.64141	44237.1	544890	546683	-85.3586	0.0000000E+000	0.0000000E+000	0.0000000E+000	85.3586	0.0000000E+000	0.0000000E+000	0.0000000E+000	-85.3586	0.0000000E+000	0.0000000E+000	0.0000000E+000	-4.64141	0.0000000E+000	0.0000000E+000	0.0000000E+000	4.64141	12.3175	85.3586	-2.52732e-06	-6.55679e-05	-7.52698e-10	-6.55672e-05	3.97113	240517	2.76106	240515
6.31058	29.4132	1.85435	29.4716	-3.60744	24.1483	3.97117	-0.0166597	13600.6	53.844	1	11	0.00454099	0.00015408	0	-0.000136141	0.000198315	6.40073e-06	28.241	0.0415415	0.0365966	-0.0196566	-3.56487	29.5068	29.4498	1.8347	0.0338638	0.00213494	0.033931	3.60744	53844	854056	855752	-86.3926	0.0000000E+000	0.0000000E+000	0.0000000E+000	86.3926	0.0000000E+000	0.0000000E+000	0.0000000E+000	-86.3926	0.0000000E+000	0.0000000E+000	0.0000000E+000	-3.60744	0.0000000E+000	0.0000000E+000	0.0000000E+000	3.60744	15.8617	86.3926	-1.01417e-06	-6.61587e-05	-3.30387e-09	-6.61553e-05	3.97097	238369	11.9038	238357
3.97785	29.7765	1.64425	29.8218	-3.16065	25.1553	3.97119	-0.0147556	24333.4	73.9726	1	11	0.004543	0.000152338	0	-0.000142342	0.000236496	6.74031e-06	-28.6236	0.0442458	0.0388383	0.0211961	-3.19715	29.8618	29.8153	1.66545	0.0334815	0.00184884	0.0335325	3.16065	73972.6	1.3396e+06	1.34164e+06	-86.8393	0.0000000E+000	0.0000000E+000	0.0000000E+000	86.8393	0.0000000E+000	0.0000000E+000	0.0000000E+000	-86.8393	0.0000000E+000	0.0000000E+000	0.0000000E+000	-3.16065	0.0000000E+000	0.0000000E+000	0.0000000E+000	3.16065	18.1094	86.8393	-2.53597e-06	-5.85972e-05	-3.48964e-09	-5.85938e-05	3.97096	269132	16.0276	269115
2.51367	30.0744	1.47958	30.1108	-2.81653	26.7149	3.97119	-0.0142267	42793	103.325	1	11	0.00454157	0.000150829	0	-0.000144983	0.000236496	2.58852e-06	-99.6558	0.017162	-0.00287856	0.0169189	-2.84896	30.1087	30.0715	1.4965	0.0331706	0.00163191	0.0332107	2.81653	103325	2.10022e+06	2.10276e+06	-87.1835	0.0000000E+000	0.0000000E+000	0.0000000E+000	87.1835	0.0000000E+000	0.0000000E+000	0.0000000E+000	-87.1835	0.0000000E+000	0.0000000E+000	0.0000000E+000	-2.81653	0.0000000E+000	0.0000000E+000	0.0000000E+000	2.81653	20.3263	87.1835	-1.71846e-06	-5.64971e-05	-3.36457e-09	-5.64938e-05	3.97095	279135	16.6233	279119
1.58469	30.4175	1.46828	30.453	-2.76357	29.1504	3.97119	-0.0137295	68401.9	159.011	1	11	0.00454229	0.000149158	0	-0.000158517	0.000274678	2.24929e-06	19.5239	0.0150799	0.0142129	-0.00503971	-2.75281	30.4669	30.4318	1.46324	0.0327993	0.00158325	0.0328375	2.76357	159011	3.29414e+06	3.29798e+06	-87.2364	0.0000000E+000	0.0000000E+000	0.0000000E+000	87.2364	0.0000000E+000	0.0000000E+000	0.0000000E+000	-87.2364	0.0000000E+000	0.0000000E+000	0.0000000E+000	-2.76357	0.0000000E+000	0.0000000E+000	0.0000000E+000	2.76357	20.7164	87.2364	-8.39353e-06	-5.45224e-05	-3.77119e-09	-5.45186e-05	3.97091	289245	20.0064	289225
1.00469	31.8737	1.5728	31.9124	-2.82497	240.879	3.97114	-0.0114564	100719	244.648	1	11	0.00497729	0.000155967	0	-0.00148979	4.55878e-05	1.71864e-07	2.26455	0.00110192	0.00110106	-4.35409e-05	-2.82479	31.9135	31.8748	1.57276	0.0312977	0.00154438	0.0313357	2.82497	244648	4.95791e+06	4.96394e+06	-87.175	0.0000000E+000	0.0000000E+000	0.0000000E+000	87.175	0.0000000E+000	0.0000000E+000	0.0000000E+000	-87.175	0.0000000E+000	0.0000000E+000	0.0000000E+000	-2.82497	0.0000000E+000	0.0000000E+000	0.0000000E+000	2.82497	20.2655	87.175	-0.00131878	-4.5495e-05	-5.22272e-10	-4.54944e-05	3.97109	346631	3.97924	346627
0.632957	32.2592	1.70286	32.3041	-3.02166	240.881	3.97114	-0.0114564	147661	410.309	1	11	0.004989	0.000154439	0	-0.00148979	4.55878e-05	4.87517e-07	-136.683	0.0031567	-0.00229674	0.00216559	-3.02571	32.3019	32.2569	1.70503	0.0309128	0.00163179	0.0309558	3.02166	410309	7.77292e+06	7.78374e+06	-86.9783	0.0000000E+000	0.0000000E+000	0.0000000E+000	86.9783	0.0000000E+000	0.0000000E+000	0.0000000E+000	-86.9783	0.0000000E+000	0.0000000E+000	0.0000000E+000	-3.02166	0.0000000E+000	0.0000000E+000	0.0000000E+000	3.02166	18.9441	86.9783	0.000000000000000E+000	-4.5495e-05	-5.22272e-10	-4.54944e-05	3.97109	346631	3.97924	346627
0.401878	32.5203	1.95433	32.5789	-3.43909	240.883	3.97114	-0.0114564	202642	729.205	1	11	0.00500331	0.000153575	0	-0.00148979	4.55878e-05	3.29846e-07	-148.665	0.00214778	-0.00183452	0.00111692	-3.44124	32.5772	32.5184	1.95544	0.0306394	0.00184129	0.0306947	3.43909	729204	1.21341e+07	1.2156e+07	-86.5609	0.0000000E+000	0.0000000E+000	0.0000000E+000	86.5609	0.0000000E+000	0.0000000E+000	0.0000000E+000	-86.5609	0.0000000E+000	0.0000000E+000	0.0000000E+000	-3.43909	0.0000000E+000	0.0000000E+000	0.0000000E+000	3.43909	16.6401	86.5609	0.000000000000000E+000	-4.5495e-05	-5.22272e-10	-4.54944e-05	3.97109	346631	3.97924	346627
0.251173	33.1287	2.28742	33.2076	-3.94979	240.884	3.97114	-0.0114564	277014	1314.37	1	11	0.00500305	0.00015066	0	-0.00148979	4.55878e-05	2.81276e-07	-3.70599	0.00186696	0.00186306	0.000120674	-3.94978	33.2095	33.1306	2.28754	0.0300421	0.00207429	0.0301136	3.94979	1.31437e+06	1.9036e+07	1.90813e+07	-86.0502	0.0000000E+000	0.0000000E+000	0.0000000E+000	86.0502	0.0000000E+000	0.0000000E+000	0.0000000E+000	-86.0502	0.0000000E+000	0.0000000E+000	0.0000000E+000	-3.94979	0.0000000E+000	0.0000000E+000	0.0000000E+000	3.94979	14.483	86.0502	0.000000000000000E+000	-4.5495e-05	-5.22272e-10	-4.54944e-05	3.97109	346631	3.97924	346627
0.160751	33.53	2.59017	33.6299	-4.41729	240.886	3.97114	-0.0114564	382241	2267.48	1	11	0.0050001	0.00014868	0	-0.00148979	4.55878e-05	2.83571e-07	-44.9061	0.00190725	0.00135084	0.00134642	-4.4194	33.6314	33.5314	2.59152	0.0296471	0.00229022	0.0297354	4.41729	2.26748e+06	2.93527e+07	2.94402e+07	-85.5827	0.0000000E+000	0.0000000E+000	0.0000000E+000	85.5827	0.0000000E+000	0.0000000E+000	0.0000000E+000	-85.5827	0.0000000E+000	0.0000000E+000	0.0000000E+000	-4.41729	0.0000000E+000	0.0000000E+000	0.0000000E+000	4.41729	12.9451	85.5827	0.000000000000000E+000	-4.5495e-05	-5.22272e-10	-4.54944e-05	3.97109	346631	3.97924	346627
0.100469	34.076	3.69406	34.2757	-6.18707	240.888	3.97114	-0.0114564	428827	4981.02	1	11	0.00500248	0.000145948	0	-0.00148979	4.55878e-05	2.79776e-07	-10.1757	0.00191695	0.0018868	0.000338661	-6.18729	34.2776	34.0779	3.6944	0.0290053	0.00314436	0.0291752	6.18707	4.98102e+06	4.59477e+07	4.62169e+07	-83.8129	0.0000000E+000	0.0000000E+000	0.0000000E+000	83.8129	0.0000000E+000	0.0000000E+000	0.0000000E+000	-83.8129	0.0000000E+000	0.0000000E+000	0.0000000E+000	-6.18707	0.0000000E+000	0.0000000E+000	0.0000000E+000	6.18707	9.22454	83.8129	0.000000000000000E+000	-4.5495e-05	-5.22272e-10	-4.54944e-05	3.97109	346631	3.97924	346627
0.0602816	34.9641	4.69712	35.2781	-7.65139	240.889	3.97114	-0.0114564	562087	9964.49	1	11	0.00499823	0.000141681	0	-0.00148979	4.55878e-05	5.69991e-07	76.9179	0.00402306	0.000910606	-0.00391865	-7.64488	35.2785	34.965	4.6932	0.0280938	0.00377416	0.0283462	7.65139	9.96449e+06	7.41729e+07	7.48392e+07	-82.3486	0.0000000E+000	0.0000000E+000	0.0000000E+000	82.3486	0.0000000E+000	0.0000000E+000	0.0000000E+000	-82.3486	0.0000000E+000	0.0000000E+000	0.0000000E+000	-7.65139	0.0000000E+000	0.0000000E+000	0.0000000E+000	7.65139	7.44372	82.3486	0.000000000000000E+000	-4.5495e-05	-5.22272e-10	-4.54944e-05	3.97109	346631	3.97924	346627
0.0401878	36.5162	5.59457	36.9423	-8.71043	240.891	3.97114	-0.0114564	707880	16234.7	1	11	0.00499804	0.000135293	0	-0.00148979	4.55878e-05	4.18021e-07	50.2466	0.00308974	0.00197584	-0.00237541	-8.70632	36.9439	36.5182	5.5922	0.026757	0.00409938	0.0270692	8.71043	1.62347e+07	1.05965e+08	1.07202e+08	-81.2896	0.0000000E+000	0.0000000E+000	0.0000000E+000	81.2896	0.0000000E+000	0.0000000E+000	0.0000000E+000	-81.2896	0.0000000E+000	0.0000000E+000	0.0000000E+000	-8.71043	0.0000000E+000	0.0000000E+000	0.0000000E+000	8.71043	6.52708	81.2896	0.000000000000000E+000	-4.5495e-05	-5.22272e-10	-4.54944e-05	3.97109	346631	3.97924	346627
0.0200939	39.3033	8.61979	40.2374	-12.37	240.893	3.97114	-0.0114564	918882	42169	1	11	0.00499678	0.000124182	0	-0.00148979	4.55878e-05	2.09448e-07	-27.9083	0.00168662	0.00149046	0.000789433	-12.3706	40.2391	39.3048	8.62058	0.0242755	0.00532398	0.0248525	12.37	4.2169e+07	1.92276e+08	1.96846e+08	-77.63	0.0000000E+000	0.0000000E+000	0.0000000E+000	77.63	0.0000000E+000	0.0000000E+000	0.0000000E+000	-77.63	0.0000000E+000	0.0000000E+000	0.0000000E+000	-12.37	0.0000000E+000	0.0000000E+000	0.0000000E+000	12.37	4.55966	77.63	0.000000000000000E+000	-4.5495e-05	-5.22272e-10	-4.54944e-05	3.97109	346631	3.97924	346627
0.00796479	45.4609	11.2058	46.8216	-13.847	20329.8	3.97116	-0.000889687	1.78321e+06	102140	1	11	0.00499369	0.000106654	0	-0.0181369	-8.80481e-05	8.54806e-08	-28.5038	0.000801479	0.000704328	0.00038248	-13.8472	46.8224	45.4616	11.2062	0.020737	0.00511152	0.0213577	13.847	1.0214e+08	4.14373e+08	4.26776e+08	-76.153	0.0000000E+000	0.0000000E+000	0.0000000E+000	76.153	0.0000000E+000	0.0000000E+000	0.0000000E+000	-76.153	0.0000000E+000	0.0000000E+000	0.0000000E+000	-13.847	0.0000000E+000	0.0000000E+000	0.0000000E+000	13.847	4.05691	76.153	-0.0166471	-3.53309e-06	7.83353e-11	-3.53317e-06	3.97125	4.46354e+06	98.9653	4.46364e+06
0.00497799	49.7304	12.6937	51.3249	-14.319	20329.8	3.97116	-0.000889687	2.5187e+06	154063	1	11	0.00500152	9.74482e-05	0	-0.0181369	-8.80481e-05	4.55201e-07	-126.245	0.00467121	-0.00276182	0.00376731	-14.3239	51.3232	49.7277	12.6975	0.0188784	0.00481873	0.0194837	14.319	1.54063e+08	6.03576e+08	6.22928e+08	-75.681	0.0000000E+000	0.0000000E+000	0.0000000E+000	75.681	0.0000000E+000	0.0000000E+000	0.0000000E+000	-75.681	0.0000000E+000	0.0000000E+000	0.0000000E+000	-14.319	0.0000000E+000	0.0000000E+000	0.0000000E+000	14.319	3.91772	75.681	0.000000000000000E+000	-3.53309e-06	7.83353e-11	-3.53317e-06	3.97125	4.46354e+06	98.9653	4.46364e+06
0.00318591	53.103	15.7312	55.3841	-16.5013	20329.8	3.97116	-0.000889687	3.17559e+06	256199	1	11	0.00500394	9.03498e-05	0	-0.0181369	-8.80481e-05	4.4844e-07	4.79394	0.00496337	0.00494601	-0.000414801	-16.4995	55.3887	53.1079	15.7308	0.0173121	0.00512851	0.0180557	16.5013	2.56199e+08	8.64838e+08	9.01988e+08	-73.4986	0.0000000E+000	0.0000000E+000	0.0000000E+000	73.4986	0.0000000E+000	0.0000000E+000	0.0000000E+000	-73.4986	0.0000000E+000	0.0000000E+000	0.0000000E+000	-16.5013	0.0000000E+000	0.0000000E+000	0.0000000E+000	16.5013	3.37565	73.4986	0.000000000000000E+000	-3.53309e-06	7.83353e-11	-3.53317e-06	3.97125	4.46354e+06	98.9653	4.46364e+06
0.0019912	57.7011	17.2226	60.2165	-16.6193	20329.8	3.97116	-0.000889687	4.64095e+06	379641	1	11	0.00500662	8.31436e-05	0	-0.0181369	-8.80481e-05	4.96964e-07	9.73457	0.00597717	0.00589111	-0.00101065	-16.6168	60.2219	57.7069	17.2216	0.015913	0.00474972	0.0166067	16.6193	3.79641e+08	1.27192e+09	1.32736e+09	-73.3807	0.0000000E+000	0.0000000E+000	0.0000000E+000	73.3807	0.0000000E+000	0.0000000E+000	0.0000000E+000	-73.3807	0.0000000E+000	0.0000000E+000	0.0000000E+000	-16.6193	0.0000000E+000	0.0000000E+000	0.0000000E+000	16.6193	3.35031	73.3807	0.000000000000000E+000	-3.53309e-06	7.83353e-11	-3.53317e-06	3.97125	4.46354e+06	98.9653	4.46364e+06
0.00129428	60.4159	18.1161	63.0736	-16.6917	20329.8	3.97116	-0.000889687	6.78777e+06	559968	1	11	0.00500691	7.93821e-05	0	-0.0181369	-8.80481e-05	1.4177e-07	-56.8194	0.00178591	0.000977395	0.00149472	-16.6928	63.0749	60.4169	18.1176	0.0151865	0.00455376	0.0158545	16.6917	5.59968e+08	1.86745e+09	1.9496e+09	-73.3083	0.0000000E+000	0.0000000E+000	0.0000000E+000	73.3083	0.0000000E+000	0.0000000E+000	0.0000000E+000	-73.3083	0.0000000E+000	0.0000000E+000	0.0000000E+000	-16.6917	0.0000000E+000	0.0000000E+000	0.0000000E+000	16.6917	3.33492	73.3083	0.000000000000000E+000	-3.53309e-06	7.83353e-11	-3.53317e-06	3.97125	4.46354e+06	98.9653	4.46364e+06
0.000796479	67.1553	19.7093	69.9878	-16.3564	20329.8	3.97116	-0.000889687	1.01385e+07	804031	1	11	0.00500695	7.15403e-05	0	-0.0181369	-8.80481e-05	1.84707e-07	-39.6702	0.00258187	0.00198734	0.00164818	-16.3572	69.9902	67.1573	19.711	0.0137099	0.00402371	0.0142882	16.3564	8.04031e+08	2.73956e+09	2.85512e+09	-73.6436	0.0000000E+000	0.0000000E+000	0.0000000E+000	73.6436	0.0000000E+000	0.0000000E+000	0.0000000E+000	-73.6436	0.0000000E+000	0.0000000E+000	0.0000000E+000	-16.3564	0.0000000E+000	0.0000000E+000	0.0000000E+000	16.3564	3.40729	73.6436	0.000000000000000E+000	-3.53309e-06	7.83353e-11	-3.53317e-06	3.97125	4.46354e+06	98.9653	4.46364e+06
0.000497799	68.7009	22.0283	72.1461	-17.778	20329.8	3.97116	-0.000889687	1.45139e+07	1.35307e+06	1	11	0.00500648	6.93936e-05	0	-0.0181369	-8.80481e-05	7.75975e-07	-18.3264	0.0111822	0.0106151	0.00351603	-17.778	72.1573	68.7115	22.0318	0.0131989	0.00423209	0.0138608	17.778	1.35307e+09	4.21991e+09	4.43152e+09	-72.222	0.0000000E+000	0.0000000E+000	0.0000000E+000	72.222	0.0000000E+000	0.0000000E+000	0.0000000E+000	-72.222	0.0000000E+000	0.0000000E+000	0.0000000E+000	-17.778	0.0000000E+000	0.0000000E+000	0.0000000E+000	17.778	3.11876	72.222	0.000000000000000E+000	-3.53309e-06	7.83353e-11	-3.53317e-06	3.97125	4.46354e+06	98.9653	4.46364e+06
0.000298679	70.3699	31.318	77.0243	-23.9913	20329.8	3.97116	-0.000889687	1.70146e+07	2.81289e+06	1	11	0.00500761	6.50134e-05	0	-0.0181369	-8.80481e-05	5.2167e-07	-83.8133	0.00802403	0.000864742	0.0079773	-23.9965	77.0283	70.3708	31.326	0.0118613	0.00527884	0.0129829	23.9913	2.81289e+09	6.32042e+09	6.9181e+09	-66.0087	0.0000000E+000	0.0000000E+000	0.0000000E+000	66.0087	0.0000000E+000	0.0000000E+000	0.0000000E+000	-66.0087	0.0000000E+000	0.0000000E+000	0.0000000E+000	-23.9913	0.0000000E+000	0.0000000E+000	0.0000000E+000	23.9913	2.24695	66.0087	0.000000000000000E+000	-3.53309e-06	7.83353e-11	-3.53317e-06	3.97125	4.46354e+06	98.9653	4.46364e+06
9.95598e-05	84.8304	83.9908	119.376	-44.7151	20329.8	3.97116	-0.000889687	1.90329e+07	9.42178e+06	1	11	0.00500958	4.19647e-05	0	-0.0181369	-8.80481e-05	4.40016e-07	4.07654	0.0104854	0.0104589	-0.000745398	-44.7113	119.383	84.8409	83.9901	0.00595273	0.00589382	0.00837688	44.7151	9.42178e+09	9.51596e+09	1.33912e+10	-45.2849	0.0000000E+000	0.0000000E+000	0.0000000E+000	45.2849	0.0000000E+000	0.0000000E+000	0.0000000E+000	-45.2849	0.0000000E+000	0.0000000E+000	0.0000000E+000	-44.7151	0.0000000E+000	0.0000000E+000	0.0000000E+000	44.7151	1.01	45.2849	0.000000000000000E+000	-3.53309e-06	7.83353e-11	-3.53317e-06	3.97125	4.46354e+06	98.9653	4.46364e+06