File: txt/18804_R307_UC93_28_SOC50_C01.mpt
EC-Lab ASCII FILE
Nb header lines : 65

Potentio Electrochemical Impedance Spectroscopy

Run on channel : 1 (SN 66354)
Grouped channel(s) : 1, 2, 3, 4, 5
User :
CE vs. WE compliance from -10 V to 10 V
Electrode connection : standard
Potential control : Ewe
Ewe ctrl range : min = -10.00 V, max = 10.00 V
Safety Limits :
	Do not start on E overload
Acquisition started on : 11/05/2025 08:59:28.513
Loaded Setting File :  C:\Users\Celltest\OneDrive - store-dot.com\Documents\EC-Lab\Data\@Biologic Test Protocols\cathode half cell EIS SOC50.mps
Saved on :
	File : 18804_R307_UC93_28_SOC00_C01.mpr
	Directory : C:\Users\Celltest\OneDrive - store-dot.com\Documents\EC-Lab\Data\Anna\
	Host : 169.254.61.224
Device : VMP-3e (SN .003165)
Address : USB
EC-LAB for windows v11.62 (software)
Internet server v27.00 (firmware)
Command interpretor v12.03 (firmware)
Electrode material :
Initial state :
Electrolyte :
Comments :
Electrode surface area : 0.001 cm²
Characteristic mass : 0.001 g
Equivalent Weight : 0.000 g/eq.
Density : 0.000 g/cm3
Volume (V) : 0.001 cm³
Record Ece
Cycle Definition : Charge/Discharge alternance
Mode                Multi sine
E (V)               0.0000
vs.                 Eoc
tE (h:m:s)          0:00:0.0000
record              0
dI                  0.000
unit dI             mA
dt (s)              0.000
fi                  1.000
unit fi             MHz
ff                  0.100
unit ff             mHz
Nd                  10
Points              per decade
spacing             Logarithmic
Va (mV)             5.0
pw                  0.10
Na                  2
corr                0
E range min (V)     -10.000
E range max (V)     10.000
I Range             Auto
Bandwidth           5
nc cycles           0
goto Ns'            0
nr cycles           0
inc. cycle          0

freq/Hz	Re(Z)/Ohm	-Im(Z)/Ohm	|Z|/Ohm	Phase(Z)/deg	time/s	<Ewe>/V	<I>/mA	Cs/µF	Cp/µF	cycle number	I Range	|Ewe|/V	|I|/A	Ns	(Q-Qo)/mA.h	<Ece>/V	|Ece|/V	Phase(Zce)/deg	|Zce|/Ohm	Re(Zce)/Ohm	-Im(Zce)/Ohm	Phase(Zwe-ce)/deg	|Zwe-ce|/Ohm	Re(Zwe-ce)/Ohm	-Im(Zwe-ce)/Ohm	Re(Y)/Ohm-1	Im(Y)/Ohm-1	|Y|/Ohm-1	Phase(Y)/deg	Re(C)/nF	Im(C)/nF	|C|/nF	Phase(C)/deg	Re(M)	Im(M)	|M|	Phase(M)/deg	Re(Permittivity)	Im(Permittivity)	|Permittivity|	Phase(Permittivity)/deg	Re(Resistivity)/Ohm.cm	Im(Resistivity)/Ohm.cm	|Resistivity|/Ohm.cm	Phase(Resistivity)/deg	Re(Conductivity)/mS/cm	Im(Conductivity)/mS/cm	|Conductivity|/mS/cm	Phase(Conductivity)/deg	Tan(Delta)	Loss Angle(Delta)/deg	dq/mA.h	Pwe/W	Pce/W	Pwe-ce/W	<Ewe-Ece>/V	Rwe/Ohm	Rce/Ohm	Rwe-ce/Ohm		Ewe-Ece/V
1.00002e+06	3.57449	2.59915	4.41957	-36.0224	2.69253	3.97261	-0.00790157	0.0612322	0.021178	1	10	0.000290913	6.58239e-05	0	2.55484e-06	0.000462198	0.000190413	-71.1607	2.89277	0.934116	2.7378	-49.8092	6.98646	4.50861	5.33695	0.183001	0.133068	0.226266	36.0224	21.178	29.125	36.0107	-53.9776	0.0000000E+000	0.0000000E+000	0.0000000E+000	53.9776	0.0000000E+000	0.0000000E+000	0.0000000E+000	-53.9776	0.0000000E+000	0.0000000E+000	0.0000000E+000	-36.0224	0.0000000E+000	0.0000000E+000	0.0000000E+000	36.0224	1.37525	53.9776	2.55484e-06	-3.13899e-05	-3.65209e-09	-3.13863e-05	3.97215	502762	58.4945	502704
630957	1.98276	-0.509596	2.0472	14.4138	3.86552	3.97218	0.00852661	-0.494988	-0.0306708	1	9	0.000691606	0.00033783	0	4.00733e-06	0.00023327	0.000131108	-120.236	0.38809	-0.195426	0.335294	5.56988	1.79581	1.78734	-0.174301	0.473096	-0.121592	0.488472	-14.4138	-30.6708	119.336	123.214	-104.414	0.0000000E+000	0.0000000E+000	0.0000000E+000	104.414	0.0000000E+000	0.0000000E+000	0.0000000E+000	-104.414	0.0000000E+000	0.0000000E+000	0.0000000E+000	14.4138	0.0000000E+000	0.0000000E+000	0.0000000E+000	-14.4138	3.89085	75.5862	9.13009e-07	3.38693e-05	1.98901e-09	3.38673e-05	3.97195	465857	27.3579	465830
398103	2.47142	0.0654389	2.47229	-1.51673	4.63152	3.97223	0.00729723	6.10926	0.00428017	1	9	0.0023611	0.000955024	0	6.48821e-06	0.000271425	6.77011e-05	174.29	0.0708894	-0.0705377	-0.00705273	-1.39308	2.4016	2.40089	0.0583861	0.404342	0.0107062	0.404483	1.51673	4.28016	161.649	161.706	-88.4833	0.0000000E+000	0.0000000E+000	0.0000000E+000	88.4833	0.0000000E+000	0.0000000E+000	0.0000000E+000	-88.4833	0.0000000E+000	0.0000000E+000	0.0000000E+000	-1.51673	0.0000000E+000	0.0000000E+000	0.0000000E+000	1.51673	37.7669	88.4833	1.80613e-06	2.89863e-05	1.98065e-09	2.89843e-05	3.97195	544347	37.1956	544310
251206	2.64109	0.405428	2.67203	-8.72723	5.39954	3.97219	0.0202618	1.5627	0.0359767	1	9	0.00513248	0.00192082	0	4.85344e-06	-0.000148276	5.24066e-05	117.794	0.0272835	-0.0127222	-0.0241357	-8.25421	2.65588	2.62837	0.381292	0.369915	0.0567848	0.374248	8.72723	35.9767	234.364	237.11	-81.2728	0.0000000E+000	0.0000000E+000	0.0000000E+000	81.2728	0.0000000E+000	0.0000000E+000	0.0000000E+000	-81.2728	0.0000000E+000	0.0000000E+000	0.0000000E+000	-8.72723	0.0000000E+000	0.0000000E+000	0.0000000E+000	8.72723	6.51433	81.2728	-1.48336e-06	8.04836e-05	-3.00433e-09	8.04866e-05	3.97234	196044	7.318	196051
158486	2.83419	0.623357	2.90193	-12.4042	6.16552	3.97217	0.0286812	1.61099	0.0743346	1	9	0.00544898	0.00187771	0	7.49767e-06	0.000271425	4.99283e-05	94.1469	0.02659	-0.00192283	-0.0265204	-11.8997	2.89447	2.83227	0.596836	0.336554	0.0740222	0.344598	12.4042	74.3346	337.974	346.052	-77.5958	0.0000000E+000	0.0000000E+000	0.0000000E+000	77.5958	0.0000000E+000	0.0000000E+000	0.0000000E+000	-77.5958	0.0000000E+000	0.0000000E+000	0.0000000E+000	-12.4042	0.0000000E+000	0.0000000E+000	0.0000000E+000	12.4042	4.54666	77.5958	3.6598e-06	0.000113927	7.78481e-09	0.000113919	3.9719	138494	9.4635	138484
100004	3.02472	0.796118	3.12774	-14.746	6.93153	3.97217	0.0225715	1.99906	0.129515	1	9	0.00547407	0.00175017	0	1.40026e-05	0.000290502	3.38857e-05	92.5674	0.0193614	-0.000867291	-0.019342	-14.4068	3.12203	3.02386	0.776776	0.309189	0.0813797	0.31972	14.746	129.515	492.072	508.831	-75.254	0.0000000E+000	0.0000000E+000	0.0000000E+000	75.254	0.0000000E+000	0.0000000E+000	0.0000000E+000	-75.254	0.0000000E+000	0.0000000E+000	0.0000000E+000	-14.746	0.0000000E+000	0.0000000E+000	0.0000000E+000	14.746	3.79934	75.254	3.00017e-06	8.9658e-05	6.55709e-09	8.96514e-05	3.97188	175981	12.8703	175969
63093.8	3.25755	1.01916	3.41325	-17.3729	7.82152	3.97218	0.0192931	2.47509	0.220668	1	9	0.00543917	0.00159355	0	2.39352e-05	-1.47345e-05	2.19889e-05	89.1121	0.0137987	0.000213821	-0.0137971	-17.1505	3.40936	3.25776	1.00536	0.279611	0.0874793	0.292976	17.3729	220.668	705.322	739.035	-72.6271	0.0000000E+000	0.0000000E+000	0.0000000E+000	72.6271	0.0000000E+000	0.0000000E+000	0.0000000E+000	-72.6271	0.0000000E+000	0.0000000E+000	0.0000000E+000	-17.3729	0.0000000E+000	0.0000000E+000	0.0000000E+000	17.3729	3.19631	72.6271	2.42219e-06	7.66358e-05	-2.84275e-10	7.66361e-05	3.97219	205885	0.763717	205886
39814.1	3.55185	1.22284	3.75646	-18.9977	8.71157	3.97218	0.0220127	3.26899	0.346414	1	9	0.00520321	0.00138514	0	3.01008e-05	-0.000110121	2.92361e-05	52.8617	0.021107	0.0127431	-0.0168261	-18.6923	3.76308	3.5646	1.20601	0.251708	0.0866587	0.266208	18.9977	346.414	1006.19	1064.16	-71.0023	0.0000000E+000	0.0000000E+000	0.0000000E+000	71.0023	0.0000000E+000	0.0000000E+000	0.0000000E+000	-71.0023	0.0000000E+000	0.0000000E+000	0.0000000E+000	-18.9977	0.0000000E+000	0.0000000E+000	0.0000000E+000	18.9977	2.90459	71.0023	2.5083e-06	8.74386e-05	-2.42406e-09	8.7441e-05	3.97229	180450	5.00261	180455
25116.9	3.93684	1.56365	4.23601	-21.6622	9.35356	3.97215	0.0136305	4.05241	0.55218	1	9	0.00489075	0.00115457	0	3.23495e-05	-3.38118e-05	1.12424e-05	37.7733	0.00973736	0.0076968	-0.00596451	-21.5489	4.24097	3.94454	1.55769	0.219399	0.0871419	0.236071	21.6622	552.18	1390.24	1495.88	-68.3378	0.0000000E+000	0.0000000E+000	0.0000000E+000	68.3378	0.0000000E+000	0.0000000E+000	0.0000000E+000	-68.3378	0.0000000E+000	0.0000000E+000	0.0000000E+000	-21.6622	0.0000000E+000	0.0000000E+000	0.0000000E+000	21.6622	2.51772	68.3378	1.69281e-06	5.41423e-05	-4.60871e-10	5.41428e-05	3.97219	291417	2.4806	291419
15847.7	4.44777	1.84287	4.81444	-22.506	10.2755	3.97228	-0.0106036	5.44953	0.798469	1	10	0.00491298	0.00102047	0	3.45473e-05	0.00023327	9.93374e-06	-69.1109	0.0097345	0.00347093	0.00909468	-22.5901	4.82114	4.45124	1.85197	0.191889	0.0795067	0.207708	22.506	798.469	1927.1	2085.97	-67.494	0.0000000E+000	0.0000000E+000	0.0000000E+000	67.494	0.0000000E+000	0.0000000E+000	0.0000000E+000	-67.494	0.0000000E+000	0.0000000E+000	0.0000000E+000	-22.506	0.0000000E+000	0.0000000E+000	0.0000000E+000	22.506	2.4135	67.494	-1.13677e-06	-4.21204e-05	-2.4735e-09	-4.21179e-05	3.97204	374617	21.9992	374595
10002.2	4.98996	2.16443	5.43916	-23.4491	10.7955	3.97228	-0.00844941	7.35157	1.16414	1	10	0.00545492	0.0010029	0	3.2721e-05	-0.000224585	9.05013e-06	-93.0472	0.00902398	-0.000479709	0.00901122	-23.5382	5.44231	4.98948	2.17344	0.168668	0.0731611	0.183852	23.4491	1164.14	2683.84	2925.45	-66.5509	0.0000000E+000	0.0000000E+000	0.0000000E+000	66.5509	0.0000000E+000	0.0000000E+000	0.0000000E+000	-66.5509	0.0000000E+000	0.0000000E+000	0.0000000E+000	-23.4491	0.0000000E+000	0.0000000E+000	0.0000000E+000	23.4491	2.30544	66.5509	-3.91762e-07	-3.35634e-05	1.89761e-09	-3.35653e-05	3.9725	470125	26.58	470152
6309.38	5.61619	2.52536	6.15785	-24.2114	11.4396	3.97228	-0.010257	9.98872	1.67996	1	10	0.00495931	0.000805363	0	3.18483e-05	8.0652e-05	8.62789e-06	-79.5986	0.010713	0.00193417	0.010537	-24.2934	6.16394	5.61813	2.5359	0.14811	0.0665987	0.162394	24.2114	1679.96	3736.09	4096.42	-65.7886	0.0000000E+000	0.0000000E+000	0.0000000E+000	65.7886	0.0000000E+000	0.0000000E+000	0.0000000E+000	-65.7886	0.0000000E+000	0.0000000E+000	0.0000000E+000	-24.2114	0.0000000E+000	0.0000000E+000	0.0000000E+000	24.2114	2.22392	65.7886	-2.77747e-07	-4.07436e-05	-8.27246e-10	-4.07428e-05	3.9722	387276	7.86314	387268
3983.6	6.33497	2.94386	6.98557	-24.9243	12.0021	3.97217	-0.0205881	13.5715	2.41023	1	10	0.00488746	0.000699651	0	2.961e-05	-5.28891e-05	7.04059e-06	-77.9012	0.010063	0.00210919	0.00983948	-24.9901	6.99163	6.33708	2.9537	0.12982	0.0603273	0.143152	24.9243	2410.23	5186.63	5719.29	-65.0757	0.0000000E+000	0.0000000E+000	0.0000000E+000	65.0757	0.0000000E+000	0.0000000E+000	0.0000000E+000	-65.0757	0.0000000E+000	0.0000000E+000	0.0000000E+000	-24.9243	0.0000000E+000	0.0000000E+000	0.0000000E+000	24.9243	2.15193	65.0757	-1.19134e-06	-8.17794e-05	1.08888e-09	-8.17805e-05	3.97223	192936	2.56892	192938
2510.8	7.15097	3.48266	7.95395	-25.967	12.8268	3.97224	0.00528435	18.201	3.48942	1	10	0.00480901	0.000604607	0	2.9947e-05	-1.47345e-05	4.21087e-06	-38.1336	0.00696464	0.00547819	0.00430065	-25.9775	7.96076	7.15645	3.48696	0.113031	0.0550485	0.125724	25.967	3489.42	7164.85	7969.38	-64.033	0.0000000E+000	0.0000000E+000	0.0000000E+000	64.033	0.0000000E+000	0.0000000E+000	0.0000000E+000	-64.033	0.0000000E+000	0.0000000E+000	0.0000000E+000	-25.967	0.0000000E+000	0.0000000E+000	0.0000000E+000	25.967	2.05331	64.033	6.06163e-07	2.09907e-05	-7.78623e-11	2.09908e-05	3.97225	751698	2.78833	751701
1585.51	8.11211	4.16678	9.11967	-27.1873	13.7288	3.97221	0.00335752	24.0908	5.02915	1	10	0.0047599	0.000521938	0	3.073e-05	0.000252348	7.4345e-06	-96.1138	0.014244	-0.00151704	0.014163	-27.2708	9.1248	8.11059	4.18095	0.0975383	0.0501006	0.109653	27.1873	5029.15	9791	11007.1	-62.8127	0.0000000E+000	0.0000000E+000	0.0000000E+000	62.8127	0.0000000E+000	0.0000000E+000	0.0000000E+000	-62.8127	0.0000000E+000	0.0000000E+000	0.0000000E+000	-27.1873	0.0000000E+000	0.0000000E+000	0.0000000E+000	27.1873	1.94685	62.8127	3.43566e-07	1.33368e-05	8.47263e-10	1.3336e-05	3.97196	1.18308e+06	75.1589	1.183e+06
1000.32	9.31931	4.97498	10.5641	-28.0949	14.6318	3.97223	0.00402092	31.9809	7.09265	1	10	0.00472971	0.000447716	0	3.16878e-05	-0.000148276	6.48626e-06	48.5249	0.0144874	0.00959495	-0.0108546	-28.0185	10.5674	9.3289	4.96412	0.0835064	0.0445787	0.0946603	28.0949	7092.65	13286.2	15060.8	-61.9051	0.0000000E+000	0.0000000E+000	0.0000000E+000	61.9051	0.0000000E+000	0.0000000E+000	0.0000000E+000	-61.9051	0.0000000E+000	0.0000000E+000	0.0000000E+000	-28.0949	0.0000000E+000	0.0000000E+000	0.0000000E+000	28.0949	1.87324	61.9051	1.50259e-07	1.5972e-05	-5.96204e-10	1.59726e-05	3.97238	987892	36.8761	987928
631.01	10.8558	5.89176	12.3516	-28.49	15.5325	3.97223	0.00420353	42.8094	9.74059	1	10	0.00470453	0.000380885	0	3.26361e-05	0.000424044	5.2253e-06	73.6083	0.0137188	0.00387149	-0.0131612	-28.4278	12.3487	10.8597	5.8786	0.071157	0.038619	0.0809614	28.49	9740.59	17947.4	20420.3	-61.51	0.0000000E+000	0.0000000E+000	0.0000000E+000	61.51	0.0000000E+000	0.0000000E+000	0.0000000E+000	-61.51	0.0000000E+000	0.0000000E+000	0.0000000E+000	-28.49	0.0000000E+000	0.0000000E+000	0.0000000E+000	28.49	1.84254	61.51	6.61685e-07	1.66974e-05	1.78248e-09	1.66956e-05	3.97181	944975	100.878	944874
398.089	12.8619	6.86128	14.5776	-28.078	16.4339	3.97222	0.0035774	58.2686	12.9084	1	10	0.00470536	0.00032278	0	3.35214e-05	-3.38118e-05	1.93716e-05	-72.9751	0.0600149	0.0175716	0.0573849	-28.244	14.6202	12.8795	6.91866	0.0605249	0.0322874	0.0685984	28.078	12908.4	24197.7	27425.5	-61.922	0.0000000E+000	0.0000000E+000	0.0000000E+000	61.922	0.0000000E+000	0.0000000E+000	0.0000000E+000	-61.922	0.0000000E+000	0.0000000E+000	0.0000000E+000	-28.078	0.0000000E+000	0.0000000E+000	0.0000000E+000	28.078	1.87457	61.922	7.5376e-07	1.42103e-05	-1.20959e-10	1.42104e-05	3.97226	1.11036e+06	9.45149	1.11037e+06
251.044	15.3905	7.66005	17.1914	-26.4601	17.3321	3.97224	0.00389792	82.7633	16.4315	1	10	0.00469853	0.000273307	0	3.4429e-05	0.00023327	8.14987e-06	4.72804	0.0298195	0.029718	-0.00245791	-26.4087	17.2169	15.4203	7.6576	0.0520751	0.0259184	0.0581685	26.4601	16431.5	33014.1	36877.2	-63.5399	0.0000000E+000	0.0000000E+000	0.0000000E+000	63.5399	0.0000000E+000	0.0000000E+000	0.0000000E+000	-63.5399	0.0000000E+000	0.0000000E+000	0.0000000E+000	-26.4601	0.0000000E+000	0.0000000E+000	0.0000000E+000	26.4601	2.00919	63.5399	7.06677e-07	1.54835e-05	9.0927e-10	1.54826e-05	3.97201	1.01907e+06	59.8448	1.01901e+06
158.428	18.3015	8.07994	20.0058	-23.821	18.2368	3.97224	0.0032308	124.331	20.2808	1	10	0.00469357	0.000234611	0	3.54047e-05	0.000118807	6.40453e-06	-41.0784	0.0272985	0.0205779	0.0179376	-23.8442	20.0318	18.3221	8.09788	0.0457274	0.0201882	0.0499856	23.821	20280.8	45937.1	50214.8	-66.179	0.0000000E+000	0.0000000E+000	0.0000000E+000	66.179	0.0000000E+000	0.0000000E+000	0.0000000E+000	-66.179	0.0000000E+000	0.0000000E+000	0.0000000E+000	-23.821	0.0000000E+000	0.0000000E+000	0.0000000E+000	23.821	2.26505	66.179	5.0323e-07	1.28335e-05	3.8384e-10	1.28331e-05	3.97213	1.22949e+06	36.7732	1.22946e+06
100.032	21.4346	7.6545	22.7603	-19.6522	19.3808	3.97228	-0.00141327	207.857	23.5094	1	11	0.00469615	0.000206331	0	3.59731e-05	0.000347734	1.23095e-05	-41.9035	0.0596589	0.0444024	0.0398449	-19.7089	22.8155	21.479	7.69434	0.0413769	0.0147761	0.0439361	19.6522	23509.4	65832.4	69904.2	-70.3478	0.0000000E+000	0.0000000E+000	0.0000000E+000	70.3478	0.0000000E+000	0.0000000E+000	0.0000000E+000	-70.3478	0.0000000E+000	0.0000000E+000	0.0000000E+000	-19.6522	0.0000000E+000	0.0000000E+000	0.0000000E+000	19.6522	2.80026	70.3478	3.04169e-08	-5.61389e-06	-4.91441e-10	-5.61339e-06	3.97193	2.81071e+06	246.05	2.81046e+06
63.0823	24.0093	6.56734	24.8912	-15.2981	20.297	3.97227	-0.00134065	384.17	26.7429	1	11	0.00469049	0.000188439	0	3.55727e-05	4.24974e-05	7.38322e-06	-107.191	0.0391809	-0.01158	0.0374306	-15.3882	24.89	23.9977	6.60477	0.0387512	0.0105998	0.0401748	15.2981	26742.9	97768.3	101360	-74.7019	0.0000000E+000	0.0000000E+000	0.0000000E+000	74.7019	0.0000000E+000	0.0000000E+000	0.0000000E+000	-74.7019	0.0000000E+000	0.0000000E+000	0.0000000E+000	-15.2981	0.0000000E+000	0.0000000E+000	0.0000000E+000	15.2981	3.65586	74.7019	-1.53775e-07	-5.32542e-06	-5.69741e-11	-5.32536e-06	3.97223	2.96294e+06	31.6991	2.96291e+06
39.8089	25.9141	5.1739	26.4256	-11.291	21.1978	3.97225	-0.00154844	772.72	29.6216	1	11	0.00469313	0.000177598	0	3.48283e-05	0.000195116	7.16755e-06	-25.1447	0.0403583	0.0365338	0.0171485	-11.3119	26.4647	25.9506	5.19105	0.0371097	0.00740917	0.0378422	11.291	29621.6	148364	151292	-78.709	0.0000000E+000	0.0000000E+000	0.0000000E+000	78.709	0.0000000E+000	0.0000000E+000	0.0000000E+000	-78.709	0.0000000E+000	0.0000000E+000	0.0000000E+000	-11.291	0.0000000E+000	0.0000000E+000	0.0000000E+000	11.291	5.00862	78.709	-3.43084e-07	-6.15081e-06	-3.02126e-10	-6.15051e-06	3.97206	2.56532e+06	126.008	2.56519e+06
25.1044	27.0778	3.86029	27.3516	-8.11358	22.076	3.97228	-0.00145572	1642.29	32.7133	1	11	0.00468478	0.00017128	0	3.43158e-05	0.00023327	1.27125e-05	-110.539	0.0742207	-0.0260395	0.069503	-8.2655	27.3357	27.0518	3.9298	0.0361949	0.00516005	0.0365609	8.11358	32713.3	229466	231786	-81.8864	0.0000000E+000	0.0000000E+000	0.0000000E+000	81.8864	0.0000000E+000	0.0000000E+000	0.0000000E+000	-81.8864	0.0000000E+000	0.0000000E+000	0.0000000E+000	-8.11358	0.0000000E+000	0.0000000E+000	0.0000000E+000	8.11358	7.01445	81.8864	-5.64787e-08	-5.78252e-06	-3.39576e-10	-5.78218e-06	3.97205	2.72874e+06	160.244	2.72858e+06
15.8576	27.8331	2.81603	27.9752	-5.77728	22.954	3.97228	-0.00181619	3564.07	36.1139	1	11	0.0046906	0.00016767	0	3.29366e-05	0.000271425	5.21429e-06	-111.538	0.0310985	-0.0114168	0.0289271	-5.83859	27.9668	27.8217	2.84496	0.0355644	0.00359825	0.0357459	5.77728	36113.9	356943	358765	-84.2227	0.0000000E+000	0.0000000E+000	0.0000000E+000	84.2227	0.0000000E+000	0.0000000E+000	0.0000000E+000	-84.2227	0.0000000E+000	0.0000000E+000	0.0000000E+000	-5.77728	0.0000000E+000	0.0000000E+000	0.0000000E+000	5.77728	9.8838	84.2227	-9.19706e-07	-7.21443e-06	-4.92961e-10	-7.21393e-06	3.97201	2.18714e+06	149.447	2.18699e+06
10.0032	28.2412	2.10136	28.3193	-4.2554	23.9348	3.97227	-0.00168921	7571.47	41.6887	1	11	0.00468013	0.000165263	0	3.36777e-05	4.3428e-06	1.29502e-05	-19.6777	0.0783613	0.0737852	0.0263865	-4.29745	28.3948	28.315	2.12775	0.0352143	0.00262021	0.0353116	4.2554	41688.6	560274	561822	-85.7446	0.0000000E+000	0.0000000E+000	0.0000000E+000	85.7446	0.0000000E+000	0.0000000E+000	0.0000000E+000	-85.7446	0.0000000E+000	0.0000000E+000	0.0000000E+000	-4.2554	0.0000000E+000	0.0000000E+000	0.0000000E+000	4.2554	13.4395	85.7446	3.58003e-07	-6.71e-06	-7.3359e-12	-6.70999e-06	3.97227	2.35156e+06	2.57091	2.35156e+06
6.31058	28.5944	1.73574	28.647	-3.47372	24.8583	3.97228	-0.00107811	14530	53.3429	1	11	0.00468221	0.000163445	0	3.23804e-05	0.00023327	4.35311e-06	-54.5638	0.0266335	0.015442	0.0217	-3.51514	28.6638	28.6099	1.75744	0.0348435	0.00211508	0.0349076	3.47372	53342.9	878764	880382	-86.5263	0.0000000E+000	0.0000000E+000	0.0000000E+000	86.5263	0.0000000E+000	0.0000000E+000	0.0000000E+000	-86.5263	0.0000000E+000	0.0000000E+000	0.0000000E+000	-3.47372	0.0000000E+000	0.0000000E+000	0.0000000E+000	3.47372	16.4739	86.5263	-7.25057e-07	-4.28258e-06	-2.51492e-10	-4.28233e-06	3.97205	3.68447e+06	216.369	3.68426e+06
3.97785	28.8598	1.41039	28.8943	-2.79784	25.8654	3.97229	0.000173492	28368.2	67.5908	1	11	0.0046826	0.00016206	0	3.42237e-05	0.000118807	5.85176e-06	50.2912	0.0361087	0.0230693	-0.0277785	-2.74063	28.916	28.8829	1.38261	0.0345677	0.00168933	0.0346089	2.79784	67590.7	1.38306e+06	1.38471e+06	-87.2022	0.0000000E+000	0.0000000E+000	0.0000000E+000	87.2022	0.0000000E+000	0.0000000E+000	0.0000000E+000	-87.2022	0.0000000E+000	0.0000000E+000	0.0000000E+000	-2.79784	0.0000000E+000	0.0000000E+000	0.0000000E+000	2.79784	20.4623	87.2022	3.03479e-07	6.89161e-07	2.0612e-11	6.89141e-07	3.97217	2.2896e+07	684.795	2.28954e+07
2.51367	29.1093	1.29385	29.1381	-2.54501	27.425	3.97231	0.000839084	48935.7	96.4882	1	11	0.00467948	0.000160597	0	3.06147e-05	0.000156961	6.97924e-06	45.7687	0.0434582	0.0303145	-0.0311391	-2.48126	29.167	29.1397	1.26271	0.0342855	0.00152392	0.0343193	2.54501	96488.3	2.17081e+06	2.17295e+06	-87.455	0.0000000E+000	0.0000000E+000	0.0000000E+000	87.455	0.0000000E+000	0.0000000E+000	0.0000000E+000	-87.455	0.0000000E+000	0.0000000E+000	0.0000000E+000	-2.54501	0.0000000E+000	0.0000000E+000	0.0000000E+000	2.54501	22.4982	87.455	-1.536e-06	3.3331e-06	1.31704e-10	3.33297e-06	3.97215	4.7341e+06	187.063	4.73391e+06
1.58469	29.4454	1.32246	29.4751	-2.57155	29.8605	3.9723	0.000457184	75944.5	152.879	1	11	0.00468773	0.00015904	0	3.55735e-05	-9.10437e-05	3.96302e-06	-32.2332	0.0249183	0.021078	0.0132906	-2.5955	29.4968	29.4665	1.33575	0.0338928	0.0015222	0.0339269	2.57155	152879	3.40396e+06	3.40739e+06	-87.4285	0.0000000E+000	0.0000000E+000	0.0000000E+000	87.4285	0.0000000E+000	0.0000000E+000	0.0000000E+000	-87.4285	0.0000000E+000	0.0000000E+000	0.0000000E+000	-2.57155	0.0000000E+000	0.0000000E+000	0.0000000E+000	2.57155	22.2657	87.4285	3.69613e-06	1.81607e-06	-4.16237e-11	1.81611e-06	3.97239	8.68862e+06	199.14	8.68882e+06
1.00469	30.9562	1.42484	30.989	-2.63533	241.59	3.97225	-0.0024131	111178	235.038	1	11	0.00500566	0.00016153	0	-0.000701471	9.97293e-05	9.36151e-08	-54.9666	0.000579551	0.000332693	0.000474547	-2.63617	30.9894	30.9566	1.42531	0.0322354	0.00148372	0.0322695	2.63533	235037	5.10645e+06	5.11186e+06	-87.3647	0.0000000E+000	0.0000000E+000	0.0000000E+000	87.3647	0.0000000E+000	0.0000000E+000	0.0000000E+000	-87.3647	0.0000000E+000	0.0000000E+000	0.0000000E+000	-2.63533	0.0000000E+000	0.0000000E+000	0.0000000E+000	2.63533	21.7261	87.3647	-0.000740488	-9.58543e-06	-2.40657e-10	-9.58519e-06	3.97215	1.64612e+06	41.3283	1.64608e+06
0.632957	31.29	1.58249	31.33	-2.89527	241.591	3.97225	-0.0024131	158893	405.384	1	11	0.00501731	0.000160144	0	-0.000701471	9.97293e-05	2.87519e-07	-45.5812	0.00179538	0.00125658	0.00128234	-2.89749	31.3313	31.2913	1.58378	0.0318775	0.00161221	0.0319183	2.89527	405384	8.0155e+06	8.02574e+06	-87.1047	0.0000000E+000	0.0000000E+000	0.0000000E+000	87.1047	0.0000000E+000	0.0000000E+000	0.0000000E+000	-87.1047	0.0000000E+000	0.0000000E+000	0.0000000E+000	-2.89527	0.0000000E+000	0.0000000E+000	0.0000000E+000	2.89527	19.7726	87.1047	0.000000000000000E+000	-9.58543e-06	-2.40657e-10	-9.58519e-06	3.97215	1.64612e+06	41.3283	1.64608e+06
0.401878	31.5316	1.83993	31.5853	-3.33953	241.591	3.97225	-0.0024131	215241	730.397	1	11	0.00503183	0.000159309	0	-0.000701471	9.97293e-05	1.63275e-07	23.6919	0.0010249	0.000938517	-0.000411822	-3.33869	31.5862	31.5326	1.83952	0.0316066	0.0018443	0.0316603	3.33953	730397	1.25171e+07	1.25384e+07	-86.6605	0.0000000E+000	0.0000000E+000	0.0000000E+000	86.6605	0.0000000E+000	0.0000000E+000	0.0000000E+000	-86.6605	0.0000000E+000	0.0000000E+000	0.0000000E+000	-3.33953	0.0000000E+000	0.0000000E+000	0.0000000E+000	3.33953	17.1374	86.6605	0.000000000000000E+000	-9.58543e-06	-2.40657e-10	-9.58519e-06	3.97215	1.64612e+06	41.3283	1.64608e+06
0.251173	32.0844	2.17743	32.1582	-3.88246	241.592	3.97225	-0.0024131	291007	1334.16	1	11	0.00503224	0.000156484	0	-0.000701471	9.97293e-05	2.35577e-07	-19.9947	0.00150544	0.00141469	0.000514758	-3.88321	32.1596	32.0858	2.17794	0.0310249	0.00210553	0.0310963	3.88246	1.33416e+06	1.96588e+07	1.9704e+07	-86.1175	0.0000000E+000	0.0000000E+000	0.0000000E+000	86.1175	0.0000000E+000	0.0000000E+000	0.0000000E+000	-86.1175	0.0000000E+000	0.0000000E+000	0.0000000E+000	-3.88246	0.0000000E+000	0.0000000E+000	0.0000000E+000	3.88246	14.735	86.1175	0.000000000000000E+000	-9.58543e-06	-2.40657e-10	-9.58519e-06	3.97215	1.64612e+06	41.3283	1.64608e+06
0.160751	32.4748	2.49627	32.5706	-4.39557	241.593	3.97225	-0.0024131	396620	2329.74	1	11	0.00502844	0.000154386	0	-0.000701471	9.97293e-05	2.57878e-07	60.5822	0.00167035	0.000820433	-0.00145498	-4.3929	32.5713	32.4756	2.49482	0.0306122	0.0023531	0.0307025	4.39557	2.32974e+06	3.03083e+07	3.03977e+07	-85.6044	0.0000000E+000	0.0000000E+000	0.0000000E+000	85.6044	0.0000000E+000	0.0000000E+000	0.0000000E+000	-85.6044	0.0000000E+000	0.0000000E+000	0.0000000E+000	-4.39557	0.0000000E+000	0.0000000E+000	0.0000000E+000	4.39557	13.0093	85.6044	0.000000000000000E+000	-9.58543e-06	-2.40657e-10	-9.58519e-06	3.97215	1.64612e+06	41.3283	1.64608e+06
0.100469	33.0008	3.57566	33.1939	-6.18392	241.593	3.97225	-0.0024131	443027	5140.74	1	11	0.0050307	0.000151555	0	-0.000701471	9.97293e-05	5.96189e-07	-24.7024	0.00393382	0.00357384	0.00164396	-6.18607	33.1976	33.0043	3.5773	0.0299507	0.00324518	0.030126	6.18392	5.14074e+06	4.74453e+07	4.7723e+07	-83.8161	0.0000000E+000	0.0000000E+000	0.0000000E+000	83.8161	0.0000000E+000	0.0000000E+000	0.0000000E+000	-83.8161	0.0000000E+000	0.0000000E+000	0.0000000E+000	-6.18392	0.0000000E+000	0.0000000E+000	0.0000000E+000	6.18392	9.22929	83.8161	0.000000000000000E+000	-9.58543e-06	-2.40657e-10	-9.58519e-06	3.97215	1.64612e+06	41.3283	1.64608e+06
0.0602816	33.8289	4.65099	34.1472	-7.82827	241.594	3.97225	-0.0024131	567661	10531	1	11	0.00502626	0.000147194	0	-0.000701471	9.97293e-05	5.6574e-07	44.5481	0.0038435	0.00273912	-0.00269625	-7.82316	34.1495	33.8317	4.6483	0.0290121	0.00398874	0.029285	7.82827	1.0531e+07	7.65974e+07	7.7318e+07	-82.1717	0.0000000E+000	0.0000000E+000	0.0000000E+000	82.1717	0.0000000E+000	0.0000000E+000	0.0000000E+000	-82.1717	0.0000000E+000	0.0000000E+000	0.0000000E+000	-7.82827	0.0000000E+000	0.0000000E+000	0.0000000E+000	7.82827	7.27349	82.1717	0.000000000000000E+000	-9.58543e-06	-2.40657e-10	-9.58519e-06	3.97215	1.64612e+06	41.3283	1.64608e+06
0.0401878	35.2775	5.59218	35.718	-9.00755	241.595	3.97225	-0.0024131	708183	17359.3	1	11	0.00502645	0.000140726	0	-0.000701471	9.97293e-05	7.4532e-07	8.93946	0.00529626	0.00523192	-0.000822989	-9.00493	35.7231	35.2828	5.59136	0.0276518	0.00438335	0.0279971	9.00755	1.73593e+07	1.09509e+08	1.10876e+08	-80.9924	0.0000000E+000	0.0000000E+000	0.0000000E+000	80.9924	0.0000000E+000	0.0000000E+000	0.0000000E+000	-80.9924	0.0000000E+000	0.0000000E+000	0.0000000E+000	-9.00755	0.0000000E+000	0.0000000E+000	0.0000000E+000	9.00755	6.30837	80.9924	0.000000000000000E+000	-9.58543e-06	-2.40657e-10	-9.58519e-06	3.97215	1.64612e+06	41.3283	1.64608e+06
0.0200939	38.0812	8.6151	39.0435	-12.7474	241.596	3.97225	-0.0024131	919382	44763	1	11	0.00502685	0.00012875	0	-0.000701471	9.97293e-05	2.74088e-07	17.06	0.00212884	0.00203517	-0.000624545	-12.7459	39.0454	38.0832	8.61448	0.0249812	0.00565149	0.0256125	12.7474	4.4763e+07	1.97865e+08	2.02865e+08	-77.2526	0.0000000E+000	0.0000000E+000	0.0000000E+000	77.2526	0.0000000E+000	0.0000000E+000	0.0000000E+000	-77.2526	0.0000000E+000	0.0000000E+000	0.0000000E+000	-12.7474	0.0000000E+000	0.0000000E+000	0.0000000E+000	12.7474	4.42028	77.2526	0.000000000000000E+000	-9.58543e-06	-2.40657e-10	-9.58519e-06	3.97215	1.64612e+06	41.3283	1.64608e+06
0.00796479	44.414	11.4685	45.8708	-14.4786	20330.5	3.97226	0.000173385	1.74236e+06	108913	1	11	0.00502006	0.000109439	0	-0.00806978	0.000156961	5.90896e-07	-8.52402	0.0053993	0.00533966	0.000800306	-14.4779	45.8761	44.4193	11.4693	0.021108	0.00545048	0.0218004	14.4786	1.08913e+08	4.21787e+08	4.35622e+08	-75.5214	0.0000000E+000	0.0000000E+000	0.0000000E+000	75.5214	0.0000000E+000	0.0000000E+000	0.0000000E+000	-75.5214	0.0000000E+000	0.0000000E+000	0.0000000E+000	-14.4786	0.0000000E+000	0.0000000E+000	0.0000000E+000	14.4786	3.87269	75.5214	-0.00736831	6.8873e-07	2.72147e-11	6.88702e-07	3.9721	2.29101e+07	905.276	2.29092e+07
0.00497799	48.7118	13.0391	50.4268	-14.9855	20330.5	3.97226	0.000173385	2.45199e+06	163942	1	11	0.005028	9.9709e-05	0	-0.00806978	0.000156961	5.5316e-07	-13.0635	0.00554775	0.00540417	0.00125396	-14.9853	50.4323	48.7172	13.0403	0.0191563	0.00512772	0.0198307	14.9855	1.63942e+08	6.1246e+08	6.34023e+08	-75.0145	0.0000000E+000	0.0000000E+000	0.0000000E+000	75.0145	0.0000000E+000	0.0000000E+000	0.0000000E+000	-75.0145	0.0000000E+000	0.0000000E+000	0.0000000E+000	-14.9855	0.0000000E+000	0.0000000E+000	0.0000000E+000	14.9855	3.73584	75.0145	0.000000000000000E+000	6.8873e-07	2.72147e-11	6.88702e-07	3.9721	2.29101e+07	905.276	2.29092e+07
0.00318591	52.1551	16.2778	54.6363	-17.3333	20330.5	3.97226	0.000173385	3.06896e+06	272407	1	11	0.00502981	9.20599e-05	0	-0.00806978	0.000156961	4.64228e-07	-33.2459	0.00504268	0.00421732	0.00276456	-17.3347	54.6411	52.1593	16.2805	0.0174717	0.00545296	0.0183029	17.3333	2.72407e+08	8.72812e+08	9.14334e+08	-72.6667	0.0000000E+000	0.0000000E+000	0.0000000E+000	72.6667	0.0000000E+000	0.0000000E+000	0.0000000E+000	-72.6667	0.0000000E+000	0.0000000E+000	0.0000000E+000	-17.3333	0.0000000E+000	0.0000000E+000	0.0000000E+000	17.3333	3.20407	72.6667	0.000000000000000E+000	6.8873e-07	2.72147e-11	6.88702e-07	3.9721	2.29101e+07	905.276	2.29092e+07
0.0019912	56.9338	17.9828	59.7063	-17.529	20330.5	3.97226	0.000173385	4.44476e+06	403203	1	11	0.00503381	8.43096e-05	0	-0.00806978	0.000156961	8.00724e-07	-11.6007	0.00949742	0.00930342	0.00190984	-17.528	59.7158	56.9431	17.9847	0.0159709	0.00504449	0.0167486	17.529	4.03203e+08	1.27654e+09	1.33871e+09	-72.471	0.0000000E+000	0.0000000E+000	0.0000000E+000	72.471	0.0000000E+000	0.0000000E+000	0.0000000E+000	-72.471	0.0000000E+000	0.0000000E+000	0.0000000E+000	-17.529	0.0000000E+000	0.0000000E+000	0.0000000E+000	17.529	3.16601	72.471	0.000000000000000E+000	6.8873e-07	2.72147e-11	6.88702e-07	3.9721	2.29101e+07	905.276	2.29092e+07
0.00129428	59.9258	19.0831	62.8909	-17.6638	20330.5	3.97226	0.000173385	6.44382e+06	593288	1	11	0.00503316	8.003e-05	0	-0.00806978	0.000156961	7.33818e-07	-16.9043	0.00916929	0.0087731	0.00266619	-17.6637	62.9001	59.9346	19.0858	0.0151509	0.00482473	0.0159005	17.6638	5.93288e+08	1.86308e+09	1.95526e+09	-72.3362	0.0000000E+000	0.0000000E+000	0.0000000E+000	72.3362	0.0000000E+000	0.0000000E+000	0.0000000E+000	-72.3362	0.0000000E+000	0.0000000E+000	0.0000000E+000	-17.6638	0.0000000E+000	0.0000000E+000	0.0000000E+000	17.6638	3.14026	72.3362	0.000000000000000E+000	6.8873e-07	2.72147e-11	6.88702e-07	3.9721	2.29101e+07	905.276	2.29092e+07
0.000796479	67.0118	20.6571	70.1234	-17.1325	20330.5	3.97226	0.000173385	9.67336e+06	839438	1	11	0.00503336	7.17785e-05	0	-0.00806978	0.000156961	6.94099e-07	-45.3987	0.00967	0.00678998	0.00688513	-17.1362	70.132	67.0186	20.664	0.0136278	0.0042009	0.0142606	17.1325	8.39438e+08	2.72315e+09	2.84959e+09	-72.8675	0.0000000E+000	0.0000000E+000	0.0000000E+000	72.8675	0.0000000E+000	0.0000000E+000	0.0000000E+000	-72.8675	0.0000000E+000	0.0000000E+000	0.0000000E+000	-17.1325	0.0000000E+000	0.0000000E+000	0.0000000E+000	17.1325	3.24401	72.8675	0.000000000000000E+000	6.8873e-07	2.72147e-11	6.88702e-07	3.9721	2.29101e+07	905.276	2.29092e+07
0.000497799	68.928	23.0904	72.6927	-18.5205	20330.5	3.97226	0.000173385	1.38463e+07	1.39706e+06	1	11	0.00503437	6.92556e-05	0	-0.00806978	0.000156961	7.11457e-07	-32.0917	0.0102729	0.0087032	0.00545776	-18.5224	72.7027	68.9367	23.0959	0.0130441	0.00436968	0.0137565	18.5205	1.39706e+09	4.17042e+09	4.3982e+09	-71.4795	0.0000000E+000	0.0000000E+000	0.0000000E+000	71.4795	0.0000000E+000	0.0000000E+000	0.0000000E+000	-71.4795	0.0000000E+000	0.0000000E+000	0.0000000E+000	-18.5205	0.0000000E+000	0.0000000E+000	0.0000000E+000	18.5205	2.98513	71.4795	0.000000000000000E+000	6.8873e-07	2.72147e-11	6.88702e-07	3.9721	2.29101e+07	905.276	2.29092e+07
0.000298679	71.4012	32.2003	78.3262	-24.2743	20330.5	3.97226	0.000173385	1.65483e+07	2.7968e+06	1	11	0.00503395	6.42691e-05	0	-0.00806978	0.000156961	8.98159e-07	-98.2244	0.013975	-0.00199912	0.0138313	-24.2841	78.3301	71.3992	32.2142	0.0116384	0.00524863	0.0127671	24.2743	2.7968e+09	6.20164e+09	6.80311e+09	-65.7257	0.0000000E+000	0.0000000E+000	0.0000000E+000	65.7257	0.0000000E+000	0.0000000E+000	0.0000000E+000	-65.7257	0.0000000E+000	0.0000000E+000	0.0000000E+000	-24.2743	0.0000000E+000	0.0000000E+000	0.0000000E+000	24.2743	2.21741	65.7257	0.000000000000000E+000	6.8873e-07	2.72147e-11	6.88702e-07	3.9721	2.29101e+07	905.276	2.29092e+07
9.95598e-05	85.7017	81.4765	118.251	-43.5522	20330.5	3.97226	0.000173385	1.96202e+07	9.31455e+06	1	11	0.00503562	4.25843e-05	0	-0.00806978	0.000156961	9.04686e-07	43.1177	0.0212446	0.0155075	-0.0145206	-43.542	118.252	85.7172	81.462	0.00612891	0.00582674	0.00845662	43.5522	9.31455e+09	9.79758e+09	1.35186e+10	-46.4478	0.0000000E+000	0.0000000E+000	0.0000000E+000	46.4478	0.0000000E+000	0.0000000E+000	0.0000000E+000	-46.4478	0.0000000E+000	0.0000000E+000	0.0000000E+000	-43.5522	0.0000000E+000	0.0000000E+000	0.0000000E+000	43.5522	1.05186	46.4478	0.000000000000000E+000	6.8873e-07	2.72147e-11	6.88702e-07	3.9721	2.29101e+07	905.276	2.29092e+07