File: txt/18806_R307_UC93_28_SOC50_C03.mpt
EC-Lab ASCII FILE
Nb header lines : 65

Potentio Electrochemical Impedance Spectroscopy

Run on channel : 3 (SN 65921)
Grouped channel(s) : 1, 2, 3, 4, 5
User :
CE vs. WE compliance from -10 V to 10 V
Electrode connection : standard
Potential control : Ewe
Ewe ctrl range : min = -10.00 V, max = 10.00 V
Safety Limits :
	Do not start on E overload
Acquisition started on : 11/05/2025 08:59:28.513
Loaded Setting File :  C:\Users\Celltest\OneDrive - store-dot.com\Documents\EC-Lab\Data\@Biologic Test Protocols\cathode half cell EIS SOC50.mps
Saved on :
	File : 18804_R307_UC93_28_SOC00_C03.mpr
	Directory : C:\Users\Celltest\OneDrive - store-dot.com\Documents\EC-Lab\Data\Anna\
	Host : 169.254.61.224
Device : VMP-3e (SN .003165)
Address : USB
EC-LAB for windows v11.62 (software)
Internet server v27.00 (firmware)
Command interpretor v12.03 (firmware)
Electrode material :
Initial state :
Electrolyte :
Comments :
Electrode surface area : 0.001 cm²
Characteristic mass : 0.001 g
Equivalent Weight : 0.000 g/eq.
Density : 0.000 g/cm3
Volume (V) : 0.001 cm³
Record Ece
Cycle Definition : Charge/Discharge alternance
Mode                Multi sine
E (V)               0.0000
vs.                 Eoc
tE (h:m:s)          0:00:0.0000
record              0
dI                  0.000
unit dI             mA
dt (s)              0.000
fi                  1.000
unit fi             MHz
ff                  0.100
unit ff             mHz
Nd                  10
Points              per decade
spacing             Logarithmic
Va (mV)             5.0
pw                  0.10
Na                  2
corr                0
E range min (V)     -10.000
E range max (V)     10.000
I Range             Auto
Bandwidth           5
nc cycles           0
goto Ns'            0
nr cycles           0
inc. cycle          0

freq/Hz	Re(Z)/Ohm	-Im(Z)/Ohm	|Z|/Ohm	Phase(Z)/deg	time/s	<Ewe>/V	<I>/mA	Cs/µF	Cp/µF	cycle number	I Range	|Ewe|/V	|I|/A	Ns	(Q-Qo)/mA.h	<Ece>/V	|Ece|/V	Phase(Zce)/deg	|Zce|/Ohm	Re(Zce)/Ohm	-Im(Zce)/Ohm	Phase(Zwe-ce)/deg	|Zwe-ce|/Ohm	Re(Zwe-ce)/Ohm	-Im(Zwe-ce)/Ohm	Re(Y)/Ohm-1	Im(Y)/Ohm-1	|Y|/Ohm-1	Phase(Y)/deg	Re(C)/nF	Im(C)/nF	|C|/nF	Phase(C)/deg	Re(M)	Im(M)	|M|	Phase(M)/deg	Re(Permittivity)	Im(Permittivity)	|Permittivity|	Phase(Permittivity)/deg	Re(Resistivity)/Ohm.cm	Im(Resistivity)/Ohm.cm	|Resistivity|/Ohm.cm	Phase(Resistivity)/deg	Re(Conductivity)/mS/cm	Im(Conductivity)/mS/cm	|Conductivity|/mS/cm	Phase(Conductivity)/deg	Tan(Delta)	Loss Angle(Delta)/deg	dq/mA.h	Pwe/W	Pce/W	Pwe-ce/W	<Ewe-Ece>/V	Rwe/Ohm	Rce/Ohm	Rwe-ce/Ohm		Ewe-Ece/V
1.00002e+06	4.06396	2.16631	4.60529	-28.0601	2.69352	3.97081	0.0134942	0.0734668	0.0162562	1	10	0.000253331	5.50087e-05	0	5.2933e-06	0.000123601	0.000189897	-66.2483	3.45213	1.39043	3.15974	-44.318	7.62346	5.45438	5.32605	0.191618	0.102143	0.217142	28.0601	16.2562	30.4964	34.5585	-61.9399	0.0000000E+000	0.0000000E+000	0.0000000E+000	61.9399	0.0000000E+000	0.0000000E+000	0.0000000E+000	-61.9399	0.0000000E+000	0.0000000E+000	0.0000000E+000	-28.0601	0.0000000E+000	0.0000000E+000	0.0000000E+000	28.0601	1.87598	61.9399	5.2933e-06	5.35828e-05	1.66789e-09	5.35811e-05	3.97069	294261	9.15955	294252
630957	1.38426	-1.01039	1.71378	36.1261	3.86256	3.97042	0.0403452	-0.249651	-0.0867751	1	9	0.00041181	0.000240293	0	1.61154e-05	-0.000143716	0.000119837	-97.627	0.498711	-0.0661903	0.494299	21.3827	1.41551	1.31807	-0.516086	0.471309	-0.344013	0.583504	-36.1261	-86.7751	118.885	147.185	-126.126	0.0000000E+000	0.0000000E+000	0.0000000E+000	126.126	0.0000000E+000	0.0000000E+000	0.0000000E+000	-126.126	0.0000000E+000	0.0000000E+000	0.0000000E+000	36.1261	0.0000000E+000	0.0000000E+000	0.0000000E+000	-36.1261	1.37003	53.8739	4.47087e-06	0.000160187	-5.79826e-09	0.000160193	3.97056	98411.2	3.56217	98414.8
398103	2.0019	-0.139527	2.00675	3.98691	4.62851	3.97052	0.0471326	-2.86528	-0.0138514	1	9	0.00140273	0.000699003	0	2.43948e-05	-1.00578e-05	5.37251e-05	160.359	0.0768596	-0.0723877	-0.0258345	4.89835	1.93658	1.92951	-0.165361	0.497112	-0.0346473	0.498318	-3.98691	-13.8514	198.737	199.219	-93.9869	0.0000000E+000	0.0000000E+000	0.0000000E+000	93.9869	0.0000000E+000	0.0000000E+000	0.0000000E+000	-93.9869	0.0000000E+000	0.0000000E+000	0.0000000E+000	3.98691	0.0000000E+000	0.0000000E+000	0.0000000E+000	-3.98691	14.3478	86.0131	5.22585e-06	0.000187141	-4.74052e-10	0.000187141	3.97053	84241.5	0.213394	84241.7
251206	2.02925	0.384343	2.06533	-10.7248	5.39452	3.9704	0.0378092	1.64843	0.057086	1	9	0.00395373	0.00191433	0	2.84334e-05	-1.00578e-05	5.98221e-05	86.7741	0.0312496	0.00175851	-0.0312001	-9.86371	2.06149	2.03101	0.353143	0.475726	0.0901031	0.484184	10.7248	57.086	301.402	306.761	-79.2752	0.0000000E+000	0.0000000E+000	0.0000000E+000	79.2752	0.0000000E+000	0.0000000E+000	0.0000000E+000	-79.2752	0.0000000E+000	0.0000000E+000	0.0000000E+000	-10.7248	0.0000000E+000	0.0000000E+000	0.0000000E+000	10.7248	5.2798	79.2752	1.0499e-06	0.000150118	-3.80279e-10	0.000150118	3.97041	105011	0.266015	105012
158486	2.15189	0.663142	2.25176	-17.1275	6.16052	3.97034	0.0350495	1.51434	0.131339	1	9	0.00541651	0.00240546	0	3.31072e-05	8.54125e-05	5.31455e-05	67.8559	0.0220937	0.00832796	-0.020464	-16.568	2.2538	2.16022	0.642677	0.424403	0.130787	0.444098	17.1275	131.339	426.194	445.972	-72.8725	0.0000000E+000	0.0000000E+000	0.0000000E+000	72.8725	0.0000000E+000	0.0000000E+000	0.0000000E+000	-72.8725	0.0000000E+000	0.0000000E+000	0.0000000E+000	-17.1275	0.0000000E+000	0.0000000E+000	0.0000000E+000	17.1275	3.245	72.8725	3.95573e-06	0.000139159	2.99367e-09	0.000139156	3.97026	113278	2.43691	113276
100004	2.36271	0.899	2.52797	-20.8316	6.92652	3.97033	0.041203	1.77029	0.223883	1	9	0.005345	0.00211435	0	4.10403e-05	-0.00016281	3.91654e-05	49.3129	0.0185236	0.0120761	-0.0140461	-20.4377	2.53432	2.37479	0.884954	0.369716	0.140675	0.395575	20.8316	223.883	588.4	629.554	-69.1684	0.0000000E+000	0.0000000E+000	0.0000000E+000	69.1684	0.0000000E+000	0.0000000E+000	0.0000000E+000	-69.1684	0.0000000E+000	0.0000000E+000	0.0000000E+000	-20.8316	0.0000000E+000	0.0000000E+000	0.0000000E+000	20.8316	2.62816	69.1684	4.76365e-06	0.000163589	-6.70827e-09	0.000163596	3.97049	96360.2	3.95142	96364.1
63093.8	2.63777	1.12556	2.86788	-23.1084	7.69255	3.97034	0.0422472	2.24112	0.345208	1	9	0.00528112	0.00184147	0	4.95467e-05	-0.000430127	1.84234e-05	26.9324	0.0100047	0.00891959	-0.00453151	-22.9555	2.87431	2.64669	1.12103	0.320713	0.136851	0.34869	23.1084	345.208	809.001	879.575	-66.8916	0.0000000E+000	0.0000000E+000	0.0000000E+000	66.8916	0.0000000E+000	0.0000000E+000	0.0000000E+000	-66.8916	0.0000000E+000	0.0000000E+000	0.0000000E+000	-23.1084	0.0000000E+000	0.0000000E+000	0.0000000E+000	23.1084	2.34352	66.8916	-2.52726e-07	0.000167736	-1.81717e-08	0.000167754	3.97077	93978.8	10.1812	93989
39814.1	2.99592	1.34605	3.28442	-24.1941	8.46054	3.97033	0.0462376	2.96977	0.498801	1	9	0.00522665	0.00159135	0	5.77972e-05	-0.000124622	2.57003e-05	15.9815	0.01615	0.0155258	-0.00444655	-24.013	3.29677	3.01145	1.3416	0.277724	0.12478	0.304468	24.1941	498.801	1110.19	1217.1	-65.8059	0.0000000E+000	0.0000000E+000	0.0000000E+000	65.8059	0.0000000E+000	0.0000000E+000	0.0000000E+000	-65.8059	0.0000000E+000	0.0000000E+000	0.0000000E+000	-24.1941	0.0000000E+000	0.0000000E+000	0.0000000E+000	24.1941	2.22572	65.8059	4.73055e-06	0.000183578	-5.76223e-09	0.000183584	3.97045	85868	2.69526	85870.7
25116.9	3.3979	1.62085	3.76469	-25.5018	9.22855	3.97032	0.0423218	3.90941	0.724667	1	9	0.00524452	0.00139308	0	6.48223e-05	6.63184e-05	1.03482e-05	-37.5597	0.00742825	0.00588851	0.00452818	-25.5254	3.77195	3.40379	1.62538	0.239747	0.114363	0.265626	25.5018	724.667	1519.17	1683.16	-64.4982	0.0000000E+000	0.0000000E+000	0.0000000E+000	64.4982	0.0000000E+000	0.0000000E+000	0.0000000E+000	-64.4982	0.0000000E+000	0.0000000E+000	0.0000000E+000	-25.5018	0.0000000E+000	0.0000000E+000	0.0000000E+000	25.5018	2.09637	64.4982	5.05748e-06	0.000168031	2.80671e-09	0.000168028	3.97026	93812.8	1.56701	93811.3
15847.7	3.88591	1.88131	4.31736	-25.8333	9.99656	3.97033	0.042098	5.33818	1.01363	1	9	0.00524642	0.00121519	0	7.45756e-05	-2.91519e-05	1.03006e-05	-65.5876	0.00847657	0.00350338	0.00771871	-25.9052	4.32388	3.88941	1.88903	0.208476	0.100931	0.231623	25.8333	1013.63	2093.68	2326.14	-64.1667	0.0000000E+000	0.0000000E+000	0.0000000E+000	64.1667	0.0000000E+000	0.0000000E+000	0.0000000E+000	-64.1667	0.0000000E+000	0.0000000E+000	0.0000000E+000	-25.8333	0.0000000E+000	0.0000000E+000	0.0000000E+000	25.8333	2.06553	64.1667	4.43692e-06	0.000167143	-1.22724e-09	0.000167144	3.97036	94311.6	0.692477	94312.3
10002.2	4.40729	2.14183	4.90017	-25.9186	11.0415	3.97032	-3.04447e-05	7.42913	1.41934	1	10	0.0051991	0.001061	0	7.40637e-05	-6.734e-05	1.25417e-05	-84.1392	0.0118206	0.00120703	0.0117588	-26.0359	4.90641	4.4085	2.15359	0.183548	0.0891996	0.204074	25.9186	1419.34	2920.61	3247.22	-64.0814	0.0000000E+000	0.0000000E+000	0.0000000E+000	64.0814	0.0000000E+000	0.0000000E+000	0.0000000E+000	-64.0814	0.0000000E+000	0.0000000E+000	0.0000000E+000	-25.9186	0.0000000E+000	0.0000000E+000	0.0000000E+000	25.9186	2.05772	64.0814	-3.32344e-08	-1.20875e-07	2.05015e-12	-1.20877e-07	3.97039	1.30411e+08	2211.88	1.30413e+08
6309.38	4.99462	2.47997	5.57642	-26.4057	11.8075	3.97033	0.000547524	10.1715	2.01172	1	10	0.00514106	0.000921929	0	7.52671e-05	-0.000353751	8.28135e-06	-110.677	0.00898264	-0.00317174	0.00840404	-26.4975	5.57733	4.99145	2.48837	0.160617	0.0797508	0.179326	26.4057	2011.72	4051.58	4523.53	-63.5943	0.0000000E+000	0.0000000E+000	0.0000000E+000	63.5943	0.0000000E+000	0.0000000E+000	0.0000000E+000	-63.5943	0.0000000E+000	0.0000000E+000	0.0000000E+000	-26.4057	0.0000000E+000	0.0000000E+000	0.0000000E+000	26.4057	2.01399	63.5943	-1.13125e-07	2.17385e-06	-1.93687e-10	2.17405e-06	3.97068	7.25142e+06	646.092	7.25207e+06
3983.6	5.64843	2.90068	6.3497	-27.1822	12.4941	3.97033	0.00132686	13.7735	2.87434	1	10	0.00516501	0.000813426	0	7.43378e-05	-0.000124622	7.73152e-06	-62.1376	0.00950489	0.00444211	0.00840301	-27.2313	6.35749	5.65287	2.90908	0.140095	0.0719438	0.157488	27.1822	2874.34	5597.14	6292.04	-62.8178	0.0000000E+000	0.0000000E+000	0.0000000E+000	62.8178	0.0000000E+000	0.0000000E+000	0.0000000E+000	-62.8178	0.0000000E+000	0.0000000E+000	0.0000000E+000	-27.1822	0.0000000E+000	0.0000000E+000	0.0000000E+000	27.1822	1.94728	62.8178	-3.29032e-07	5.26807e-06	-1.65356e-10	5.26823e-06	3.97046	2.99228e+06	93.9228	2.99237e+06
2510.8	6.43118	3.45907	7.30241	-28.274	13.3188	3.97029	0.00146855	18.3252	4.11182	1	10	0.00512861	0.000702317	0	7.32361e-05	-8.64341e-05	7.88881e-06	81.7007	0.0112325	0.00162136	-0.0111149	-28.1911	7.29858	6.4328	3.44796	0.120603	0.0648675	0.136941	28.274	4111.82	7644.79	8680.43	-61.726	0.0000000E+000	0.0000000E+000	0.0000000E+000	61.726	0.0000000E+000	0.0000000E+000	0.0000000E+000	-61.726	0.0000000E+000	0.0000000E+000	0.0000000E+000	-28.274	0.0000000E+000	0.0000000E+000	0.0000000E+000	28.274	1.85922	61.726	-2.88303e-07	5.83057e-06	-1.26933e-10	5.8307e-06	3.97038	2.70355e+06	58.8567	2.7036e+06
1585.51	7.37275	4.19148	8.48092	-29.6187	14.2208	3.9703	0.00193466	23.9488	5.84971	1	10	0.00498142	0.000587368	0	7.39683e-05	-0.000143716	4.80796e-06	23.3366	0.0081856	0.00751597	-0.00324258	-29.5746	8.48585	7.38026	4.18824	0.102505	0.058275	0.117912	29.6187	5849.71	10289.5	11836.1	-60.3813	0.0000000E+000	0.0000000E+000	0.0000000E+000	60.3813	0.0000000E+000	0.0000000E+000	0.0000000E+000	-60.3813	0.0000000E+000	0.0000000E+000	0.0000000E+000	-29.6187	0.0000000E+000	0.0000000E+000	0.0000000E+000	29.6187	1.75898	60.3813	7.13527e-07	7.68117e-06	-2.78042e-10	7.68145e-06	3.97044	2.05219e+06	74.2851	2.05227e+06
1000.32	8.60041	5.08498	9.9912	-30.5937	15.1228	3.9703	0.00165126	31.289	8.10467	1	10	0.00487024	0.000487453	0	7.46211e-05	-8.64341e-05	1.19952e-05	-56.9439	0.024608	0.0134227	0.0206249	-30.6562	10.0133	8.61383	5.10561	0.0861557	0.0509395	0.100088	30.5937	8104.67	13707.7	15924.4	-59.4063	0.0000000E+000	0.0000000E+000	0.0000000E+000	59.4063	0.0000000E+000	0.0000000E+000	0.0000000E+000	-59.4063	0.0000000E+000	0.0000000E+000	0.0000000E+000	-30.5937	0.0000000E+000	0.0000000E+000	0.0000000E+000	30.5937	1.69133	59.4063	5.65692e-07	6.556e-06	-1.42725e-10	6.55614e-06	3.97039	2.40441e+06	52.3443	2.40446e+06
631.01	10.2447	6.08488	11.9156	-30.7082	16.0245	3.9703	0.00202414	41.4507	10.8095	1	10	0.0048047	0.00040323	0	7.46466e-05	-0.000296469	8.513e-06	97.8767	0.0211121	-0.00289325	-0.0209129	-30.6288	11.9024	10.2418	6.06396	0.072156	0.0428571	0.0839239	30.7082	10809.5	18199.4	21167.5	-59.2918	0.0000000E+000	0.0000000E+000	0.0000000E+000	59.2918	0.0000000E+000	0.0000000E+000	0.0000000E+000	-59.2918	0.0000000E+000	0.0000000E+000	0.0000000E+000	-30.7082	0.0000000E+000	0.0000000E+000	0.0000000E+000	30.7082	1.68364	59.2918	-1.2153e-07	8.03646e-06	-6.00096e-10	8.03706e-06	3.97059	1.96147e+06	146.466	1.96162e+06
398.089	12.3288	7.1106	14.2324	-29.974	16.9259	3.9703	0.00161397	56.2256	14.0343	1	10	0.0047613	0.00033454	0	7.50721e-05	-0.000105528	6.98629e-06	-107.377	0.0208833	-0.00623699	0.0199302	-30.056	14.237	12.3226	7.13053	0.0608648	0.0351035	0.0702622	29.974	14034.3	24333.6	28090.7	-60.026	0.0000000E+000	0.0000000E+000	0.0000000E+000	60.026	0.0000000E+000	0.0000000E+000	0.0000000E+000	-60.026	0.0000000E+000	0.0000000E+000	0.0000000E+000	-29.974	0.0000000E+000	0.0000000E+000	0.0000000E+000	29.974	1.73387	60.026	4.70516e-07	6.40793e-06	-1.70319e-10	6.4081e-06	3.9704	2.45996e+06	65.3844	2.46003e+06
251.044	15.0417	7.88337	16.9824	-27.659	17.824	3.97029	0.00187126	80.4189	17.3294	1	10	0.00474246	0.000279257	0	7.54012e-05	-0.000258281	4.28446e-06	24.3575	0.0153423	0.0139767	-0.00632762	-27.6182	16.9918	15.0557	7.87704	0.0521556	0.0273347	0.0588845	27.659	17329.4	33065.1	37331.1	-62.341	0.0000000E+000	0.0000000E+000	0.0000000E+000	62.341	0.0000000E+000	0.0000000E+000	0.0000000E+000	-62.341	0.0000000E+000	0.0000000E+000	0.0000000E+000	-27.659	0.0000000E+000	0.0000000E+000	0.0000000E+000	27.659	1.90804	62.341	3.15485e-07	7.42944e-06	-4.8331e-10	7.42993e-06	3.97055	2.12172e+06	138.025	2.12186e+06
158.428	18.0825	7.92735	19.7438	-23.6726	18.7289	3.97029	0.00169973	126.724	20.4292	1	10	0.00473712	0.000239929	0	7.58869e-05	-0.000200998	5.34838e-06	122.14	0.0222915	-0.0118588	-0.0188754	-23.6362	19.7254	18.0706	7.90847	0.0463869	0.020336	0.0506487	23.6726	20429.2	46599.6	50881	-66.3274	0.0000000E+000	0.0000000E+000	0.0000000E+000	66.3274	0.0000000E+000	0.0000000E+000	0.0000000E+000	-66.3274	0.0000000E+000	0.0000000E+000	0.0000000E+000	-23.6726	0.0000000E+000	0.0000000E+000	0.0000000E+000	23.6726	2.28103	66.3274	2.94926e-07	6.74842e-06	-3.41643e-10	6.74876e-06	3.97049	2.33584e+06	118.253	2.33595e+06
100.032	21.0146	7.30169	22.247	-19.1602	19.8728	3.97032	0.000131576	217.9	23.4726	1	11	0.00473986	0.000213056	0	7.63525e-05	-0.000220093	5.98076e-06	65.9478	0.0280713	0.011441	-0.025634	-19.0881	22.2494	21.0261	7.27605	0.0424599	0.014753	0.0449499	19.1602	23472.6	67555.3	71517	-70.8398	0.0000000E+000	0.0000000E+000	0.0000000E+000	70.8398	0.0000000E+000	0.0000000E+000	0.0000000E+000	-70.8398	0.0000000E+000	0.0000000E+000	0.0000000E+000	-19.1602	0.0000000E+000	0.0000000E+000	0.0000000E+000	19.1602	2.87805	70.8398	1.33261e-07	5.22399e-07	-2.89589e-11	5.22428e-07	3.97054	3.01751e+07	1672.74	3.01768e+07
63.0823	23.3534	6.03449	24.1204	-14.4883	20.7899	3.97032	0.000230395	418.092	26.1688	1	11	0.00473246	0.000196202	0	7.63834e-05	-2.91519e-05	1.06638e-05	42.022	0.0543514	0.040377	-0.0363837	-14.3807	24.1504	23.3937	5.99811	0.0401402	0.0103722	0.0414587	14.4883	26168.8	101273	104599	-75.5117	0.0000000E+000	0.0000000E+000	0.0000000E+000	75.5117	0.0000000E+000	0.0000000E+000	0.0000000E+000	-75.5117	0.0000000E+000	0.0000000E+000	0.0000000E+000	-14.4883	0.0000000E+000	0.0000000E+000	0.0000000E+000	14.4883	3.86998	75.5117	1.05164e-07	9.1474e-07	-6.71644e-12	9.14747e-07	3.97035	1.72327e+07	126.53	1.72328e+07
39.8089	24.9383	4.71539	25.3802	-10.7072	21.6909	3.97032	0.000255006	847.855	29.2664	1	11	0.00472915	0.000186333	0	7.61599e-05	0.000276353	9.92773e-06	75.0288	0.0532797	0.0137639	-0.0514711	-10.5873	25.3842	24.952	4.66392	0.0387149	0.00732031	0.0394009	10.7072	29266.4	154781	157524	-79.2928	0.0000000E+000	0.0000000E+000	0.0000000E+000	79.2928	0.0000000E+000	0.0000000E+000	0.0000000E+000	-79.2928	0.0000000E+000	0.0000000E+000	0.0000000E+000	-10.7072	0.0000000E+000	0.0000000E+000	0.0000000E+000	10.7072	5.28869	79.2928	-1.24353e-07	1.01246e-06	7.04717e-11	1.01239e-06	3.97005	1.55695e+07	1083.71	1.55685e+07
25.1044	25.9328	3.47785	26.1649	-7.63837	22.5701	3.97031	-5.94143e-08	1822.88	32.2063	1	11	0.00472478	0.000180577	0	7.59575e-05	-0.000258281	9.37361e-06	-56.4245	0.0519093	0.0287077	0.0432486	-7.72377	26.1992	25.9615	3.5211	0.03788	0.00508009	0.0382191	7.63837	32206.3	240148	242298	-82.3616	0.0000000E+000	0.0000000E+000	0.0000000E+000	82.3616	0.0000000E+000	0.0000000E+000	0.0000000E+000	-82.3616	0.0000000E+000	0.0000000E+000	0.0000000E+000	-7.63837	0.0000000E+000	0.0000000E+000	0.0000000E+000	7.63837	7.45655	82.3616	1.93825e-07	-2.35893e-10	1.53456e-14	-2.35908e-10	3.97057	6.68242e+10	4.34712e+06	6.68286e+10
15.8576	26.466	2.68423	26.6018	-5.79124	23.448	3.97031	-0.000246548	3739.07	38.0699	1	11	0.0047118	0.000177124	0	7.49167e-05	8.54125e-05	1.15566e-05	-1.0575	0.065246	0.0652349	0.00120417	-5.77967	26.6668	26.5312	2.68543	0.0373996	0.00379314	0.0375915	5.79124	38069.9	375362	377288	-84.2088	0.0000000E+000	0.0000000E+000	0.0000000E+000	84.2088	0.0000000E+000	0.0000000E+000	0.0000000E+000	-84.2088	0.0000000E+000	0.0000000E+000	0.0000000E+000	-5.79124	0.0000000E+000	0.0000000E+000	0.0000000E+000	5.79124	9.85982	84.2088	-8.02894e-07	-9.78871e-07	-2.10583e-11	-9.7885e-07	3.97022	1.61036e+07	346.434	1.61033e+07
10.0032	26.9713	2.028	27.0474	-4.30003	24.4298	3.97033	0.000186765	7845.38	44.1058	1	11	0.00472804	0.000174805	0	7.60142e-05	0.000142695	1.45708e-05	-160.294	0.0833542	-0.0784725	0.028107	-4.37207	26.9713	26.8928	2.0561	0.036868	0.00277214	0.0369721	4.30003	44105.9	586584	588240	-85.7	0.0000000E+000	0.0000000E+000	0.0000000E+000	85.7	0.0000000E+000	0.0000000E+000	0.0000000E+000	-85.7	0.0000000E+000	0.0000000E+000	0.0000000E+000	-4.30003	0.0000000E+000	0.0000000E+000	0.0000000E+000	4.30003	13.2995	85.7	1.26645e-06	7.41516e-07	2.66503e-11	7.4149e-07	3.97018	2.12584e+07	764.035	2.12577e+07
6.31058	27.2843	1.68423	27.3363	-3.53231	25.3543	3.97031	-0.000834614	14974.4	56.8425	1	11	0.00472106	0.000172703	0	7.50056e-05	-1.00578e-05	1.48097e-05	30.6906	0.0857525	0.0737417	-0.0437682	-3.43149	27.4072	27.3581	1.64046	0.036512	0.00225384	0.0365815	3.53231	56842.5	920844	922596	-86.4677	0.0000000E+000	0.0000000E+000	0.0000000E+000	86.4677	0.0000000E+000	0.0000000E+000	0.0000000E+000	-86.4677	0.0000000E+000	0.0000000E+000	0.0000000E+000	-3.53231	0.0000000E+000	0.0000000E+000	0.0000000E+000	3.53231	16.1999	86.4677	3.14693e-07	-3.31367e-06	8.39441e-12	-3.31368e-06	3.97032	4.75706e+06	12.0509	4.75707e+06
3.97785	27.6069	1.49423	27.6473	-3.09813	26.3613	3.97033	0.00106756	26776.5	78.2138	1	11	0.00472181	0.000170787	0	7.5825e-05	6.63184e-05	8.91468e-06	-5.80331	0.0521976	0.0519301	0.0052779	-3.10322	27.6995	27.6588	1.49951	0.036117	0.00195484	0.0361699	3.09813	78213.8	1.44505e+06	1.44717e+06	-86.9019	0.0000000E+000	0.0000000E+000	0.0000000E+000	86.9019	0.0000000E+000	0.0000000E+000	0.0000000E+000	-86.9019	0.0000000E+000	0.0000000E+000	0.0000000E+000	-3.09813	0.0000000E+000	0.0000000E+000	0.0000000E+000	3.09813	18.4757	86.9019	-8.35128e-07	4.23856e-06	7.07988e-11	4.23849e-06	3.97026	3.71907e+06	62.1216	3.71901e+06
2.51367	27.9352	1.44688	27.9727	-2.96494	27.9209	3.97033	0.00108932	43760.1	117.078	1	11	0.00472594	0.000168948	0	7.36917e-05	-0.000334657	7.23759e-06	-72.7451	0.042839	0.0127071	0.040911	-3.04723	27.9875	27.9479	1.48779	0.0357013	0.00184912	0.0357492	2.96494	117078	2.26045e+06	2.26348e+06	-87.0351	0.0000000E+000	0.0000000E+000	0.0000000E+000	87.0351	0.0000000E+000	0.0000000E+000	0.0000000E+000	-87.0351	0.0000000E+000	0.0000000E+000	0.0000000E+000	-2.96494	0.0000000E+000	0.0000000E+000	0.0000000E+000	2.96494	19.3072	87.0351	4.23346e-08	4.32494e-06	-3.64547e-10	4.32531e-06	3.97067	3.6448e+06	307.218	3.6451e+06
1.58469	28.2444	1.42166	28.2801	-2.88151	30.3564	3.97033	0.00117324	70644.9	178.53	1	11	0.00472388	0.000167039	0	8.05789e-05	-6.734e-05	1.24107e-06	51.0785	0.00742985	0.00466784	-0.00578048	-2.86935	28.2845	28.249	1.41588	0.0353158	0.0017776	0.0353605	2.88151	178530	3.54688e+06	3.55137e+06	-87.1185	0.0000000E+000	0.0000000E+000	0.0000000E+000	87.1185	0.0000000E+000	0.0000000E+000	0.0000000E+000	-87.1185	0.0000000E+000	0.0000000E+000	0.0000000E+000	-2.88151	0.0000000E+000	0.0000000E+000	0.0000000E+000	2.88151	19.8671	87.1185	3.88034e-06	4.65816e-06	-7.90062e-11	4.65824e-06	3.97039	3.38406e+06	57.3965	3.38412e+06
1.00469	29.1376	1.52257	29.1774	-2.99123	242.084	3.9703	-0.00110029	104042	283.315	1	11	0.00503853	0.000172686	0	-0.000611168	8.54125e-05	4.48751e-07	6.39003	0.00259865	0.0025825	-0.000289219	-2.9904	29.1799	29.1402	1.52228	0.0342264	0.00178848	0.0342731	2.99123	283315	5.42186e+06	5.42925e+06	-87.0088	0.0000000E+000	0.0000000E+000	0.0000000E+000	87.0088	0.0000000E+000	0.0000000E+000	0.0000000E+000	-87.0088	0.0000000E+000	0.0000000E+000	0.0000000E+000	-2.99123	0.0000000E+000	0.0000000E+000	0.0000000E+000	2.99123	19.1372	87.0088	-0.000693389	-4.36847e-06	-9.39783e-11	-4.36837e-06	3.97021	3.60842e+06	77.6274	3.60834e+06
0.632957	29.5158	1.68028	29.5635	-3.25823	242.085	3.9703	-0.00110029	149646	483.409	1	11	0.00505023	0.000170826	0	-0.000611168	8.54125e-05	3.52944e-07	-25.2991	0.0020661	0.00186794	0.000882934	-3.25973	29.5655	29.5176	1.68116	0.0337708	0.00192251	0.0338254	3.25823	483409	8.49154e+06	8.50529e+06	-86.7418	0.0000000E+000	0.0000000E+000	0.0000000E+000	86.7418	0.0000000E+000	0.0000000E+000	0.0000000E+000	-86.7418	0.0000000E+000	0.0000000E+000	0.0000000E+000	-3.25823	0.0000000E+000	0.0000000E+000	0.0000000E+000	3.25823	17.566	86.7418	0.000000000000000E+000	-4.36847e-06	-9.39783e-11	-4.36837e-06	3.97021	3.60842e+06	77.6274	3.60834e+06
0.401878	29.8169	1.93901	29.8799	-3.72075	242.086	3.9703	-0.00110029	204242	860.101	1	11	0.00506227	0.000169421	0	-0.000611168	8.54125e-05	2.04761e-07	-4.85385	0.00120859	0.00120426	0.000102264	-3.72079	29.8811	29.8181	1.93912	0.0333968	0.00217182	0.0334673	3.72075	860102	1.32261e+07	1.3254e+07	-86.2793	0.0000000E+000	0.0000000E+000	0.0000000E+000	86.2793	0.0000000E+000	0.0000000E+000	0.0000000E+000	-86.2793	0.0000000E+000	0.0000000E+000	0.0000000E+000	-3.72075	0.0000000E+000	0.0000000E+000	0.0000000E+000	3.72075	15.3774	86.2793	0.000000000000000E+000	-4.36847e-06	-9.39783e-11	-4.36837e-06	3.97021	3.60842e+06	77.6274	3.60834e+06
0.251173	30.4168	2.31352	30.5047	-4.34957	242.087	3.9703	-0.00110029	273888	1575.38	1	11	0.00506446	0.000166022	0	-0.000611168	8.54125e-05	2.41534e-07	24.9906	0.00145483	0.00131862	-0.000614622	-4.34823	30.5059	30.4181	2.3129	0.0326874	0.00248622	0.0327819	4.34957	1.57538e+06	2.07123e+07	2.07721e+07	-85.6504	0.0000000E+000	0.0000000E+000	0.0000000E+000	85.6504	0.0000000E+000	0.0000000E+000	0.0000000E+000	-85.6504	0.0000000E+000	0.0000000E+000	0.0000000E+000	-4.34957	0.0000000E+000	0.0000000E+000	0.0000000E+000	4.34957	13.1474	85.6504	0.000000000000000E+000	-4.36847e-06	-9.39783e-11	-4.36837e-06	3.97021	3.60842e+06	77.6274	3.60834e+06
0.160751	30.8761	2.60411	30.9857	-4.82096	242.088	3.9703	-0.00110029	380195	2685.37	1	11	0.00505907	0.000163271	0	-0.000611168	8.54125e-05	7.74861e-07	2.06013	0.00474586	0.00474279	-0.000170605	-4.81991	30.9904	30.8808	2.60394	0.0321588	0.0027123	0.032273	4.82096	2.68537e+06	3.18395e+07	3.19525e+07	-85.179	0.0000000E+000	0.0000000E+000	0.0000000E+000	85.179	0.0000000E+000	0.0000000E+000	0.0000000E+000	-85.179	0.0000000E+000	0.0000000E+000	0.0000000E+000	-4.82096	0.0000000E+000	0.0000000E+000	0.0000000E+000	4.82096	11.8567	85.179	0.000000000000000E+000	-4.36847e-06	-9.39783e-11	-4.36837e-06	3.97021	3.60842e+06	77.6274	3.60834e+06
0.100469	31.4552	3.58268	31.6585	-6.49787	242.089	3.9703	-0.00110029	442159	5662.55	1	11	0.0050604	0.000159843	0	-0.000611168	8.54125e-05	6.43869e-07	-19.4983	0.00402813	0.00379713	0.00134451	-6.49951	31.6625	31.459	3.58402	0.0313841	0.00357459	0.031587	6.49787	5.66255e+06	4.9716e+07	5.00375e+07	-83.5021	0.0000000E+000	0.0000000E+000	0.0000000E+000	83.5021	0.0000000E+000	0.0000000E+000	0.0000000E+000	-83.5021	0.0000000E+000	0.0000000E+000	0.0000000E+000	-6.49787	0.0000000E+000	0.0000000E+000	0.0000000E+000	6.49787	8.7798	83.5021	0.000000000000000E+000	-4.36847e-06	-9.39783e-11	-4.36837e-06	3.97021	3.60842e+06	77.6274	3.60834e+06
0.0602816	32.4489	4.44664	32.7521	-7.80294	242.09	3.9703	-0.00110029	593749	10944.3	1	11	0.00505488	0.000154337	0	-0.000611168	8.54125e-05	5.5352e-07	48.9816	0.00358643	0.00235378	-0.00270595	-7.7977	32.7541	32.4512	4.44393	0.0302497	0.00414527	0.0305324	7.80294	1.09443e+07	7.98649e+07	8.06112e+07	-82.1971	0.0000000E+000	0.0000000E+000	0.0000000E+000	82.1971	0.0000000E+000	0.0000000E+000	0.0000000E+000	-82.1971	0.0000000E+000	0.0000000E+000	0.0000000E+000	-7.80294	0.0000000E+000	0.0000000E+000	0.0000000E+000	7.80294	7.29739	82.1971	0.000000000000000E+000	-4.36847e-06	-9.39783e-11	-4.36837e-06	3.97021	3.60842e+06	77.6274	3.60834e+06
0.0401878	33.8391	5.28176	34.2488	-8.87142	242.091	3.9703	-0.00110029	749804	17832.6	1	11	0.00505531	0.000147606	0	-0.000611168	8.54125e-05	1.01655e-06	-0.691779	0.00688696	0.00688645	8.31498e-05	-8.86978	34.2556	33.8459	5.28185	0.0288488	0.00450286	0.0291981	8.87142	1.78326e+07	1.1425e+08	1.15633e+08	-81.1286	0.0000000E+000	0.0000000E+000	0.0000000E+000	81.1286	0.0000000E+000	0.0000000E+000	0.0000000E+000	-81.1286	0.0000000E+000	0.0000000E+000	0.0000000E+000	-8.87142	0.0000000E+000	0.0000000E+000	0.0000000E+000	8.87142	6.40677	81.1286	0.000000000000000E+000	-4.36847e-06	-9.39783e-11	-4.36837e-06	3.97021	3.60842e+06	77.6274	3.60834e+06
0.0200939	36.5102	7.69965	37.3133	-11.9086	242.092	3.9703	-0.00110029	1.02869e+06	43802.6	1	11	0.00505703	0.000135529	0	-0.000611168	8.54125e-05	1.13123e-06	-77.1578	0.00834678	0.00185521	0.00813799	-11.9203	37.3168	36.5121	7.70779	0.0262233	0.00553024	0.0268001	11.9086	4.38026e+07	2.07703e+08	2.12272e+08	-78.0914	0.0000000E+000	0.0000000E+000	0.0000000E+000	78.0914	0.0000000E+000	0.0000000E+000	0.0000000E+000	-78.0914	0.0000000E+000	0.0000000E+000	0.0000000E+000	-11.9086	0.0000000E+000	0.0000000E+000	0.0000000E+000	11.9086	4.74181	78.0914	0.000000000000000E+000	-4.36847e-06	-9.39783e-11	-4.36837e-06	3.97021	3.60842e+06	77.6274	3.60834e+06
0.00796479	42.5143	10.1154	43.7011	-13.3836	20330.9	3.97031	-0.000363407	1.97543e+06	105839	1	11	0.00505238	0.000115612	0	-0.00995222	-0.000315563	6.86027e-07	-161.386	0.00593386	-0.00562348	0.001894	-13.3877	43.6961	42.5086	10.1173	0.0222613	0.00529664	0.0228827	13.3836	1.05839e+08	4.44832e+08	4.5725e+08	-76.6164	0.0000000E+000	0.0000000E+000	0.0000000E+000	76.6164	0.0000000E+000	0.0000000E+000	0.0000000E+000	-76.6164	0.0000000E+000	0.0000000E+000	0.0000000E+000	-13.3836	0.0000000E+000	0.0000000E+000	0.0000000E+000	13.3836	4.20291	76.6164	-0.00934105	-1.44284e-06	1.14678e-10	-1.44295e-06	3.97062	1.09252e+07	868.345	1.09261e+07
0.00497799	46.2425	11.5193	47.6557	-13.988	20330.9	3.97031	-0.000363407	2.77549e+06	162167	1	11	0.00506053	0.000106189	0	-0.00995222	-0.000315563	1.26016e-06	-145.883	0.0118671	-0.00982465	0.00665611	-13.9987	47.6478	46.2327	11.526	0.0203616	0.00507221	0.0209839	13.988	1.62167e+08	6.50996e+08	6.7089e+08	-76.012	0.0000000E+000	0.0000000E+000	0.0000000E+000	76.012	0.0000000E+000	0.0000000E+000	0.0000000E+000	-76.012	0.0000000E+000	0.0000000E+000	0.0000000E+000	-13.988	0.0000000E+000	0.0000000E+000	0.0000000E+000	13.988	4.01435	76.012	0.000000000000000E+000	-1.44284e-06	1.14678e-10	-1.44295e-06	3.97062	1.09252e+07	868.345	1.09261e+07
0.00318591	49.3039	14.1804	51.3026	-16.0458	20330.9	3.97031	-0.000363407	3.52289e+06	269150	1	11	0.0050627	9.8683e-05	0	-0.00995222	-0.000315563	1.16119e-06	-178.917	0.0117668	-0.0117647	0.000222347	-16.0497	51.2914	49.2922	14.1806	0.0187328	0.00538776	0.0194922	16.0458	2.6915e+08	9.35811e+08	9.73748e+08	-73.9542	0.0000000E+000	0.0000000E+000	0.0000000E+000	73.9542	0.0000000E+000	0.0000000E+000	0.0000000E+000	-73.9542	0.0000000E+000	0.0000000E+000	0.0000000E+000	-16.0458	0.0000000E+000	0.0000000E+000	0.0000000E+000	16.0458	3.47692	73.9542	0.000000000000000E+000	-1.44284e-06	1.14678e-10	-1.44295e-06	3.97062	1.09252e+07	868.345	1.09261e+07
0.0019912	53.357	15.6457	55.6035	-16.3425	20330.9	3.97031	-0.000363407	5.10872e+06	404478	1	11	0.00506675	9.11227e-05	0	-0.00995222	-0.000315563	2.18514e-07	-122.672	0.00239802	-0.00129451	0.0020186	-16.3449	55.6029	53.3557	15.6477	0.0172578	0.00506045	0.0179845	16.3425	4.04478e+08	1.37941e+09	1.43749e+09	-73.6575	0.0000000E+000	0.0000000E+000	0.0000000E+000	73.6575	0.0000000E+000	0.0000000E+000	0.0000000E+000	-73.6575	0.0000000E+000	0.0000000E+000	0.0000000E+000	-16.3425	0.0000000E+000	0.0000000E+000	0.0000000E+000	16.3425	3.41034	73.6575	0.000000000000000E+000	-1.44284e-06	1.14678e-10	-1.44295e-06	3.97062	1.09252e+07	868.345	1.09261e+07
0.00129428	55.874	16.7195	58.3219	-16.6591	20330.9	3.97031	-0.000363407	7.35477e+06	604439	1	11	0.00506535	8.68515e-05	0	-0.00995222	-0.000315563	4.3351e-07	63.9367	0.00499139	0.00219304	-0.00448381	-16.6542	58.3227	55.8762	16.715	0.0164265	0.00491541	0.0171462	16.6591	6.04439e+08	2.01994e+09	2.10844e+09	-73.3409	0.0000000E+000	0.0000000E+000	0.0000000E+000	73.3409	0.0000000E+000	0.0000000E+000	0.0000000E+000	-73.3409	0.0000000E+000	0.0000000E+000	0.0000000E+000	-16.6591	0.0000000E+000	0.0000000E+000	0.0000000E+000	16.6591	3.34185	73.3409	0.000000000000000E+000	-1.44284e-06	1.14678e-10	-1.44295e-06	3.97062	1.09252e+07	868.345	1.09261e+07
0.000796479	61.562	18.3948	64.2515	-16.6362	20330.9	3.97031	-0.000363407	1.0863e+07	890377	1	11	0.00506695	7.88612e-05	0	-0.00995222	-0.000315563	6.87566e-07	-133.871	0.00871868	-0.00604238	0.00628531	-16.6431	64.2475	61.556	18.4011	0.0149124	0.00445582	0.0155638	16.6362	8.90377e+08	2.97984e+09	3.11002e+09	-73.3638	0.0000000E+000	0.0000000E+000	0.0000000E+000	73.3638	0.0000000E+000	0.0000000E+000	0.0000000E+000	-73.3638	0.0000000E+000	0.0000000E+000	0.0000000E+000	-16.6362	0.0000000E+000	0.0000000E+000	0.0000000E+000	16.6362	3.34671	73.3638	0.000000000000000E+000	-1.44284e-06	1.14678e-10	-1.44295e-06	3.97062	1.09252e+07	868.345	1.09261e+07
0.000497799	63.3843	21.2326	66.846	-18.52	20330.9	3.97031	-0.000363407	1.50578e+07	1.51921e+06	1	11	0.00506492	7.577e-05	0	-0.00995222	-0.000315563	6.54344e-07	52.9151	0.00863592	0.00520744	-0.00688924	-18.5129	66.8488	63.3895	21.2258	0.014185	0.00475174	0.0149598	18.52	1.51921e+09	4.5352e+09	4.78289e+09	-71.48	0.0000000E+000	0.0000000E+000	0.0000000E+000	71.48	0.0000000E+000	0.0000000E+000	0.0000000E+000	-71.48	0.0000000E+000	0.0000000E+000	0.0000000E+000	-18.52	0.0000000E+000	0.0000000E+000	0.0000000E+000	18.52	2.98523	71.48	0.000000000000000E+000	-1.44284e-06	1.14678e-10	-1.44295e-06	3.97062	1.09252e+07	868.345	1.09261e+07
0.000298679	65.4072	30.3717	72.1147	-24.9077	20330.9	3.97031	-0.000363407	1.75447e+07	3.11197e+06	1	11	0.00506633	7.02537e-05	0	-0.00995222	-0.000315563	5.85192e-07	-105.994	0.0083297	-0.0022952	0.00800724	-24.9142	72.116	65.4049	30.3797	0.012577	0.00584011	0.0138668	24.9077	3.11197e+09	6.70181e+09	7.38909e+09	-65.0923	0.0000000E+000	0.0000000E+000	0.0000000E+000	65.0923	0.0000000E+000	0.0000000E+000	0.0000000E+000	-65.0923	0.0000000E+000	0.0000000E+000	0.0000000E+000	-24.9077	0.0000000E+000	0.0000000E+000	0.0000000E+000	24.9077	2.15356	65.0923	0.000000000000000E+000	-1.44284e-06	1.14678e-10	-1.44295e-06	3.97062	1.09252e+07	868.345	1.09261e+07
9.95598e-05	76.1385	80.0812	110.499	-46.4457	20330.9	3.97031	-0.000363407	1.99621e+07	1.04845e+07	1	11	0.00506998	4.58825e-05	0	-0.00995222	-0.000315563	1.12053e-06	46.9537	0.0244217	0.01667	-0.0178475	-46.4331	110.498	76.1552	80.0633	0.00623572	0.00655862	0.00904984	46.4457	1.04845e+10	9.96833e+09	1.44669e+10	-43.5543	0.0000000E+000	0.0000000E+000	0.0000000E+000	43.5543	0.0000000E+000	0.0000000E+000	0.0000000E+000	-43.5543	0.0000000E+000	0.0000000E+000	0.0000000E+000	-46.4457	0.0000000E+000	0.0000000E+000	0.0000000E+000	46.4457	0.950767	43.5543	0.000000000000000E+000	-1.44284e-06	1.14678e-10	-1.44295e-06	3.97062	1.09252e+07	868.345	1.09261e+07