File: txt/18803_R307_UC93_26p5_SOC50_C05.mpt
EC-Lab ASCII FILE
Nb header lines : 65

Potentio Electrochemical Impedance Spectroscopy

Run on channel : 5 (SN 65912)
Grouped channel(s) : 1, 2, 3, 4, 5
User :
CE vs. WE compliance from -10 V to 10 V
Electrode connection : standard
Potential control : Ewe
Ewe ctrl range : min = -10.00 V, max = 10.00 V
Safety Limits :
	Do not start on E overload
Acquisition started on : 11/04/2025 16:29:50.795
Loaded Setting File :  C:\Users\Celltest\OneDrive - store-dot.com\Documents\EC-Lab\Data\@Biologic Test Protocols\cathode half cell EIS SOC50.mps
Saved on :
	File : 18799_R307_UC93_26p5_SOC00_C05.mpr
	Directory : C:\Users\Celltest\OneDrive - store-dot.com\Documents\EC-Lab\Data\Anna\
	Host : 169.254.61.224
Device : VMP-3e (SN .003165)
Address : USB
EC-LAB for windows v11.62 (software)
Internet server v27.00 (firmware)
Command interpretor v12.03 (firmware)
Electrode material :
Initial state :
Electrolyte :
Comments :
Electrode surface area : 0.001 cm²
Characteristic mass : 0.001 g
Equivalent Weight : 0.000 g/eq.
Density : 0.000 g/cm3
Volume (V) : 0.001 cm³
Record Ece
Cycle Definition : Charge/Discharge alternance
Mode                Multi sine
E (V)               0.0000
vs.                 Eoc
tE (h:m:s)          0:00:0.0000
record              0
dI                  0.000
unit dI             mA
dt (s)              0.000
fi                  1.000
unit fi             MHz
ff                  0.100
unit ff             mHz
Nd                  10
Points              per decade
spacing             Logarithmic
Va (mV)             5.0
pw                  0.10
Na                  2
corr                0
E range min (V)     -10.000
E range max (V)     10.000
I Range             Auto
Bandwidth           5
nc cycles           0
goto Ns'            0
nr cycles           0
inc. cycle          0

freq/Hz	Re(Z)/Ohm	-Im(Z)/Ohm	|Z|/Ohm	Phase(Z)/deg	time/s	<Ewe>/V	<I>/mA	Cs/µF	Cp/µF	cycle number	I Range	|Ewe|/V	|I|/A	Ns	(Q-Qo)/mA.h	<Ece>/V	|Ece|/V	Phase(Zce)/deg	|Zce|/Ohm	Re(Zce)/Ohm	-Im(Zce)/Ohm	Phase(Zwe-ce)/deg	|Zwe-ce|/Ohm	Re(Zwe-ce)/Ohm	-Im(Zwe-ce)/Ohm	Re(Y)/Ohm-1	Im(Y)/Ohm-1	|Y|/Ohm-1	Phase(Y)/deg	Re(C)/nF	Im(C)/nF	|C|/nF	Phase(C)/deg	Re(M)	Im(M)	|M|	Phase(M)/deg	Re(Permittivity)	Im(Permittivity)	|Permittivity|	Phase(Permittivity)/deg	Re(Resistivity)/Ohm.cm	Im(Resistivity)/Ohm.cm	|Resistivity|/Ohm.cm	Phase(Resistivity)/deg	Re(Conductivity)/mS/cm	Im(Conductivity)/mS/cm	|Conductivity|/mS/cm	Phase(Conductivity)/deg	Tan(Delta)	Loss Angle(Delta)/deg	dq/mA.h	Pwe/W	Pce/W	Pwe-ce/W	<Ewe-Ece>/V	Rwe/Ohm	Rce/Ohm	Rwe-ce/Ohm		Ewe-Ece/V
1.00002e+06	0.925626	-0.465288	1.03599	26.6875	2.69456	3.96311	-0.0101136	-0.34205	-0.0689958	1	9	0.0002278	0.000219886	0	4.50901e-06	0.000131509	0.000188149	-1.59551	0.855665	0.855334	0.0238245	13.9219	1.83486	1.78096	-0.441464	0.86243	-0.433522	0.96526	-26.6875	-68.9958	137.258	153.623	-116.688	0.0000000E+000	0.0000000E+000	0.0000000E+000	116.688	0.0000000E+000	0.0000000E+000	0.0000000E+000	-116.688	0.0000000E+000	0.0000000E+000	0.0000000E+000	26.6875	0.0000000E+000	0.0000000E+000	0.0000000E+000	-26.6875	1.98936	63.3125	4.50901e-06	-4.00812e-05	-1.33002e-09	-4.00799e-05	3.96298	391860	13.0032	391847
630957	1.09284	-0.221157	1.11499	11.4404	3.46254	3.96195	-0.0467575	-1.14056	-0.0448724	1	9	0.000408106	0.000366017	0	-1.96016e-07	9.33261e-05	0.000107005	-102.001	0.292349	-0.0607853	0.28596	-3.59289	1.03408	1.03205	0.0648026	0.879049	-0.177893	0.896869	-11.4404	-44.8724	221.735	226.23	-101.44	0.0000000E+000	0.0000000E+000	0.0000000E+000	101.44	0.0000000E+000	0.0000000E+000	0.0000000E+000	-101.44	0.0000000E+000	0.0000000E+000	0.0000000E+000	11.4404	0.0000000E+000	0.0000000E+000	0.0000000E+000	-11.4404	4.94145	78.5596	-4.57814e-06	-0.000185251	-4.3637e-09	-0.000185247	3.96186	84734	1.99596	84732
398103	1.38369	0.0619887	1.38508	-2.5651	4.22852	3.9617	-0.0562537	6.44929	0.0129177	1	9	0.00142905	0.00103175	0	-7.75668e-06	-0.000288498	4.60957e-05	167.859	0.0446774	-0.0436781	-0.00939683	-2.24755	1.34105	1.34001	0.0525918	0.721257	0.0323119	0.72198	2.5651	12.9177	288.346	288.635	-87.4349	0.0000000E+000	0.0000000E+000	0.0000000E+000	87.4349	0.0000000E+000	0.0000000E+000	0.0000000E+000	-87.4349	0.0000000E+000	0.0000000E+000	0.0000000E+000	-2.5651	0.0000000E+000	0.0000000E+000	0.0000000E+000	2.5651	22.3217	87.4349	-4.50567e-06	-0.00022286	1.62291e-08	-0.000222877	3.96199	70425.7	5.12852	70430.8
251206	1.51478	0.304367	1.54506	-11.3612	4.99453	3.96152	-0.0449327	2.08157	0.0807788	1	9	0.00423205	0.00273909	0	-2.09401e-05	0.0001506	4.26285e-05	99.9289	0.015563	-0.00268348	-0.0153299	-10.8215	1.53948	1.5121	0.289037	0.634542	0.127499	0.647224	11.3612	80.7788	402.022	410.057	-78.6388	0.0000000E+000	0.0000000E+000	0.0000000E+000	78.6388	0.0000000E+000	0.0000000E+000	0.0000000E+000	-78.6388	0.0000000E+000	0.0000000E+000	0.0000000E+000	-11.3612	0.0000000E+000	0.0000000E+000	0.0000000E+000	11.3612	4.97683	78.6388	-6.46992e-06	-0.000178002	-6.76686e-09	-0.000177995	3.96136	88165.5	3.35167	88162.1
158486	1.648	0.474175	1.71486	-16.052	5.76052	3.96135	-0.0441134	2.11782	0.161924	1	9	0.00536892	0.00313083	0	-2.58737e-05	9.33261e-05	5.30265e-05	98.6726	0.0169369	-0.00255387	-0.0167432	-15.5359	1.70784	1.64544	0.457432	0.560403	0.161244	0.583139	16.052	161.924	562.768	585.6	-73.948	0.0000000E+000	0.0000000E+000	0.0000000E+000	73.948	0.0000000E+000	0.0000000E+000	0.0000000E+000	-73.948	0.0000000E+000	0.0000000E+000	0.0000000E+000	-16.052	0.0000000E+000	0.0000000E+000	0.0000000E+000	16.052	3.4755	73.948	-4.73077e-06	-0.000174749	-4.11694e-09	-0.000174745	3.96125	89799.1	2.11559	89797
100004	1.78778	0.640636	1.8991	-19.7147	6.52655	3.96126	-0.0269831	2.48423	0.282697	1	9	0.00544203	0.00286558	0	-3.20531e-05	-0.00015486	3.26254e-05	97.3764	0.0113852	-0.00146171	-0.011291	-19.4081	1.89394	1.78632	0.629345	0.495701	0.17763	0.526566	19.7147	282.697	788.903	838.024	-70.2853	0.0000000E+000	0.0000000E+000	0.0000000E+000	70.2853	0.0000000E+000	0.0000000E+000	0.0000000E+000	-70.2853	0.0000000E+000	0.0000000E+000	0.0000000E+000	-19.7147	0.0000000E+000	0.0000000E+000	0.0000000E+000	19.7147	2.79063	70.2853	6.26495e-06	-0.000106887	4.1786e-09	-0.000106891	3.96141	146805	5.73913	146811
63093.8	1.96973	0.834163	2.13908	-22.9522	7.29255	3.96126	-0.0357717	3.024	0.459866	1	9	0.00547402	0.00255906	0	-3.81167e-05	-4.03124e-05	2.16624e-05	85.982	0.00846501	0.000593136	-0.00844421	-22.7375	2.13635	1.97032	0.825719	0.43048	0.182305	0.467491	22.9522	459.866	1085.89	1179.25	-67.0478	0.0000000E+000	0.0000000E+000	0.0000000E+000	67.0478	0.0000000E+000	0.0000000E+000	0.0000000E+000	-67.0478	0.0000000E+000	0.0000000E+000	0.0000000E+000	-22.9522	0.0000000E+000	0.0000000E+000	0.0000000E+000	22.9522	2.36132	67.0478	-1.28916e-06	-0.000141701	1.44204e-09	-0.000141703	3.9613	110737	1.12693	110738
39814.1	2.22897	1.06256	2.46927	-25.4873	8.30652	3.96126	-0.0335374	3.76211	0.696622	1	9	0.00504793	0.0020443	0	-4.54963e-05	1.69612e-05	1.17217e-05	-0.675793	0.00573386	0.00573346	6.76282e-05	-25.4316	2.47448	2.2347	1.06262	0.365565	0.174266	0.404977	25.4873	696.622	1461.33	1618.88	-64.5127	0.0000000E+000	0.0000000E+000	0.0000000E+000	64.5127	0.0000000E+000	0.0000000E+000	0.0000000E+000	-64.5127	0.0000000E+000	0.0000000E+000	0.0000000E+000	-25.4873	0.0000000E+000	0.0000000E+000	0.0000000E+000	25.4873	2.09774	64.5127	-5.92611e-06	-0.00013285	-5.68836e-10	-0.00013285	3.96124	118115	0.505742	118114
25116.9	2.53991	1.34247	2.87287	-27.8587	8.94853	3.96127	-0.0250095	4.72008	1.03069	1	9	0.00451509	0.00157163	0	-5.43415e-05	-0.000269407	4.73807e-06	7.90315	0.00301475	0.00298611	-0.000414525	-27.8236	2.87531	2.5429	1.34205	0.307742	0.162657	0.348084	27.8587	1030.69	1950.03	2205.66	-62.1413	0.0000000E+000	0.0000000E+000	0.0000000E+000	62.1413	0.0000000E+000	0.0000000E+000	0.0000000E+000	-62.1413	0.0000000E+000	0.0000000E+000	0.0000000E+000	-27.8587	0.0000000E+000	0.0000000E+000	0.0000000E+000	27.8587	1.89197	62.1413	-3.09744e-06	-9.90692e-05	6.73772e-09	-9.90759e-05	3.96154	158391	10.7722	158402
15847.7	2.91593	1.61257	3.33212	-28.9435	9.71556	3.96116	-0.0877213	6.22783	1.45858	1	9	0.00503032	0.00150965	0	-6.11472e-05	-5.94036e-05	1.00315e-05	-2.54364	0.00664491	0.00663836	0.000294904	-28.8927	3.33807	2.92257	1.61286	0.262625	0.145237	0.300109	28.9435	1458.58	2637.49	3013.94	-61.0565	0.0000000E+000	0.0000000E+000	0.0000000E+000	61.0565	0.0000000E+000	0.0000000E+000	0.0000000E+000	-61.0565	0.0000000E+000	0.0000000E+000	0.0000000E+000	-28.9435	0.0000000E+000	0.0000000E+000	0.0000000E+000	28.9435	1.80825	61.0565	-5.37183e-06	-0.000347478	5.21096e-09	-0.000347483	3.96122	45156.2	0.677186	45156.9
10002.2	3.34333	1.9437	3.86727	-30.1723	10.2335	3.96124	-0.0397564	8.18643	2.06796	1	9	0.00459144	0.00118725	0	-6.41868e-05	-9.7586e-05	1.49722e-05	-129.578	0.0126108	-0.0080346	0.00971989	-30.3567	3.86523	3.33529	1.95342	0.223547	0.129963	0.25858	30.1723	2067.96	3557.07	4114.51	-59.8277	0.0000000E+000	0.0000000E+000	0.0000000E+000	59.8277	0.0000000E+000	0.0000000E+000	0.0000000E+000	-59.8277	0.0000000E+000	0.0000000E+000	0.0000000E+000	-30.1723	0.0000000E+000	0.0000000E+000	0.0000000E+000	30.1723	1.72008	59.8277	-1.24047e-06	-0.000157485	3.87967e-09	-0.000157489	3.96134	99637.7	2.4546	99640.2
6309.38	3.83365	2.33994	4.49135	-31.3986	11.0325	3.96125	-0.0334681	10.7802	2.92607	1	10	0.00515176	0.00114704	0	-7.10526e-05	0.000284238	5.13422e-06	-66.8641	0.00447605	0.00175871	0.00411607	-31.4317	4.49499	3.83541	2.34406	0.190046	0.115998	0.22265	31.3986	2926.07	4793.94	5616.38	-58.6014	0.0000000E+000	0.0000000E+000	0.0000000E+000	58.6014	0.0000000E+000	0.0000000E+000	0.0000000E+000	-58.6014	0.0000000E+000	0.0000000E+000	0.0000000E+000	-31.3986	0.0000000E+000	0.0000000E+000	0.0000000E+000	31.3986	1.63835	58.6014	-3.03923e-06	-0.000132576	-9.51293e-09	-0.000132566	3.96096	118359	8.4928	118350
3983.6	4.43193	2.88959	5.29073	-33.1041	11.5951	3.96117	-0.0418049	13.8264	4.1243	1	10	0.00499271	0.000943671	0	-7.68548e-05	0.000226965	8.57449e-06	-62.6847	0.00908631	0.00416959	0.00807314	-33.1526	5.29863	4.4361	2.89767	0.15833	0.10323	0.18901	33.1041	4124.3	6325.68	7551.43	-56.8959	0.0000000E+000	0.0000000E+000	0.0000000E+000	56.8959	0.0000000E+000	0.0000000E+000	0.0000000E+000	-56.8959	0.0000000E+000	0.0000000E+000	0.0000000E+000	-33.1041	0.0000000E+000	0.0000000E+000	0.0000000E+000	33.1041	1.53376	56.8959	-3.82006e-06	-0.000165596	-9.48823e-09	-0.000165587	3.96094	94753.8	5.42914	94748.4
2510.8	5.20307	3.62142	6.33929	-34.8386	12.4198	3.96117	-0.0172676	17.5036	5.71222	1	10	0.00485288	0.000765523	0	-8.35533e-05	-2.12212e-05	4.286e-06	-12.9119	0.00559878	0.00545722	0.00125107	-34.8197	6.34449	5.20853	3.62268	0.129473	0.0901151	0.157746	34.8386	5712.22	8207.02	9999.23	-55.1614	0.0000000E+000	0.0000000E+000	0.0000000E+000	55.1614	0.0000000E+000	0.0000000E+000	0.0000000E+000	-55.1614	0.0000000E+000	0.0000000E+000	0.0000000E+000	-34.8386	0.0000000E+000	0.0000000E+000	0.0000000E+000	34.8386	1.43675	55.1614	-2.4388e-06	-6.83999e-05	3.66439e-10	-6.84003e-05	3.96119	229399	1.22896	229400
1585.51	6.18963	4.54098	7.67672	-36.2654	13.3218	3.96117	-0.0160314	22.1056	7.73483	1	10	0.00474571	0.000618196	0	-8.7338e-05	-0.000173951	8.30104e-06	56.3608	0.0134278	0.0074385	-0.0111793	-36.1653	7.67611	6.19706	4.5298	0.10503	0.0770546	0.130264	36.2654	7734.83	10543	13076	-53.7346	0.0000000E+000	0.0000000E+000	0.0000000E+000	53.7346	0.0000000E+000	0.0000000E+000	0.0000000E+000	-53.7346	0.0000000E+000	0.0000000E+000	0.0000000E+000	-36.2654	0.0000000E+000	0.0000000E+000	0.0000000E+000	36.2654	1.36306	53.7346	-1.73153e-06	-6.35033e-05	2.78868e-09	-6.35061e-05	3.96135	247088	10.8506	247099
1000.32	7.56266	5.65834	9.44514	-36.8036	14.2238	3.96118	-0.0164038	28.1185	10.0915	1	10	0.0046906	0.000496616	0	-9.11763e-05	-4.03124e-05	1.0059e-05	27.2622	0.0202551	0.0180052	-0.00927811	-36.6933	9.45401	7.58066	5.64906	0.0847731	0.0634268	0.105875	36.8036	10091.5	13487.7	16845.1	-53.1964	0.0000000E+000	0.0000000E+000	0.0000000E+000	53.1964	0.0000000E+000	0.0000000E+000	0.0000000E+000	-53.1964	0.0000000E+000	0.0000000E+000	0.0000000E+000	-36.8036	0.0000000E+000	0.0000000E+000	0.0000000E+000	36.8036	1.33655	53.1964	-1.71582e-06	-6.49783e-05	6.61275e-10	-6.4979e-05	3.96122	241480	2.45751	241482
631.01	9.4491	6.83513	11.6621	-35.8806	15.1236	3.96119	-0.0155213	36.9009	12.6759	1	10	0.00466631	0.000400126	0	-9.53124e-05	0.000112417	7.99997e-06	35.4443	0.0199936	0.0162884	-0.0115945	-35.7876	11.6685	9.46539	6.82354	0.0694764	0.0502566	0.0857478	35.8806	12675.9	17523.5	21627.6	-54.1194	0.0000000E+000	0.0000000E+000	0.0000000E+000	54.1194	0.0000000E+000	0.0000000E+000	0.0000000E+000	-54.1194	0.0000000E+000	0.0000000E+000	0.0000000E+000	-35.8806	0.0000000E+000	0.0000000E+000	0.0000000E+000	35.8806	1.38243	54.1194	-2.24687e-06	-6.14829e-05	-1.74487e-09	-6.14811e-05	3.96107	255209	7.24277	255202
398.089	11.9153	7.95089	14.3245	-33.7145	16.0248	3.96119	-0.0140618	50.2833	15.4916	1	10	0.00463799	0.00032378	0	-9.89995e-05	7.42349e-05	8.79801e-06	-7.67685	0.0271728	0.0269293	0.0036299	-33.6669	14.3489	11.9422	7.95452	0.0580693	0.0387486	0.0698104	33.7145	15491.6	23215.9	27910	-56.2855	0.0000000E+000	0.0000000E+000	0.0000000E+000	56.2855	0.0000000E+000	0.0000000E+000	0.0000000E+000	-56.2855	0.0000000E+000	0.0000000E+000	0.0000000E+000	-33.7145	0.0000000E+000	0.0000000E+000	0.0000000E+000	33.7145	1.49861	56.2855	-2.03376e-06	-5.57013e-05	-1.04387e-09	-5.57002e-05	3.96111	281700	5.27921	281694
251.044	15.0301	8.63917	17.3361	-29.8899	16.9231	3.96118	-0.017383	73.3834	18.2239	1	10	0.00463831	0.000267552	0	-0.000102821	-2.12997e-06	1.54057e-05	8.30591	0.0575801	0.0569761	-0.00831792	-29.7725	17.3814	15.0871	8.63085	0.0500105	0.0287455	0.0576832	29.8899	18223.9	31705.2	36569.5	-60.1101	0.0000000E+000	0.0000000E+000	0.0000000E+000	60.1101	0.0000000E+000	0.0000000E+000	0.0000000E+000	-60.1101	0.0000000E+000	0.0000000E+000	0.0000000E+000	-29.8899	0.0000000E+000	0.0000000E+000	0.0000000E+000	29.8899	1.73976	60.1101	-2.07439e-06	-6.88573e-05	3.70253e-11	-6.88573e-05	3.96118	227876	0.122531	227876
158.428	18.2908	8.61882	20.2197	-25.2303	17.8278	3.96118	-0.0149591	116.557	21.1779	1	10	0.00464012	0.000229484	0	-0.00010622	-9.7586e-05	3.29059e-06	134.339	0.0143391	-0.0100216	-0.0102556	-25.2161	20.2063	18.2808	8.60857	0.0447385	0.0210813	0.0494566	25.2303	21177.9	44943.7	49683.4	-64.7697	0.0000000E+000	0.0000000E+000	0.0000000E+000	64.7697	0.0000000E+000	0.0000000E+000	0.0000000E+000	-64.7697	0.0000000E+000	0.0000000E+000	0.0000000E+000	-25.2303	0.0000000E+000	0.0000000E+000	0.0000000E+000	25.2303	2.12219	64.7697	-1.71035e-06	-5.92557e-05	1.4598e-09	-5.92571e-05	3.96128	264801	6.52353	264807
100.032	21.3634	7.6454	22.6903	-19.6909	18.9718	3.96122	-0.0142705	208.104	23.6267	1	11	0.00464432	0.000204684	0	-0.000110849	7.42349e-05	7.29733e-06	44.7839	0.0356518	0.0253045	-0.0251144	-19.6097	22.7056	21.3887	7.62028	0.0414946	0.0148498	0.0440718	19.6909	23626.7	66019.6	70120	-70.3091	0.0000000E+000	0.0000000E+000	0.0000000E+000	70.3091	0.0000000E+000	0.0000000E+000	0.0000000E+000	-70.3091	0.0000000E+000	0.0000000E+000	0.0000000E+000	-19.6909	0.0000000E+000	0.0000000E+000	0.0000000E+000	19.6909	2.79429	70.3091	-2.55194e-06	-5.65286e-05	-1.05937e-09	-5.65276e-05	3.96115	277581	5.20198	277576
63.0823	23.7017	6.23704	24.5086	-14.743	19.8869	3.96123	-0.014329	404.514	26.1971	1	11	0.00463399	0.000189076	0	-0.000114353	9.33261e-05	3.77553e-06	17.8466	0.0199683	0.0190075	-0.00611969	-14.7179	24.5255	23.7207	6.23092	0.0394586	0.0103834	0.0408019	14.743	26197.1	99553.1	102942	-75.257	0.0000000E+000	0.0000000E+000	0.0000000E+000	75.257	0.0000000E+000	0.0000000E+000	0.0000000E+000	-75.257	0.0000000E+000	0.0000000E+000	0.0000000E+000	-14.743	0.0000000E+000	0.0000000E+000	0.0000000E+000	14.743	3.80016	75.257	-1.69522e-06	-5.67603e-05	-1.33727e-09	-5.67589e-05	3.96114	276449	6.51312	276443
39.8089	25.3086	4.82673	25.7647	-10.7975	20.7879	3.96122	-0.014339	828.298	29.0698	1	11	0.00463706	0.000179977	0	-0.000117508	0.0001506	7.89021e-06	-143.242	0.0438401	-0.0351235	0.0262353	-10.8696	25.7352	25.2734	4.85297	0.0381256	0.00727114	0.0388128	10.7975	29069.8	152425	155172	-79.2025	0.0000000E+000	0.0000000E+000	0.0000000E+000	79.2025	0.0000000E+000	0.0000000E+000	0.0000000E+000	-79.2025	0.0000000E+000	0.0000000E+000	0.0000000E+000	-10.7975	0.0000000E+000	0.0000000E+000	0.0000000E+000	10.7975	5.24341	79.2025	-1.64321e-06	-5.68e-05	-2.15945e-09	-5.67978e-05	3.96107	276255	10.5028	276244
25.1044	26.2616	3.52307	26.4969	-7.64076	21.667	3.96121	-0.0141793	1799.49	31.8127	1	11	0.00462833	0.000174674	0	-0.000121049	0.000246056	6.85167e-06	47.741	0.0392254	0.0263785	-0.0290312	-7.57102	26.5192	26.288	3.49404	0.0374052	0.005018	0.0377403	7.64076	31812.7	237138	239263	-82.3592	0.0000000E+000	0.0000000E+000	0.0000000E+000	82.3592	0.0000000E+000	0.0000000E+000	0.0000000E+000	-82.3592	0.0000000E+000	0.0000000E+000	0.0000000E+000	-7.64076	0.0000000E+000	0.0000000E+000	0.0000000E+000	7.64076	7.45419	82.3592	-1.69745e-06	-5.61671e-05	-3.48889e-09	-5.61636e-05	3.96096	279366	17.3532	279349
15.8576	26.8397	2.63758	26.969	-5.61253	22.5471	3.96121	-0.0148398	3805.2	36.3965	1	11	0.00462112	0.000171349	0	-0.000124123	-0.00015486	1.35624e-05	50.4022	0.0791509	0.0504504	-0.0609888	-5.47332	27.0133	26.8902	2.5766	0.0369018	0.0036264	0.0370796	5.61253	36396.5	370366	372150	-84.3875	0.0000000E+000	0.0000000E+000	0.0000000E+000	84.3875	0.0000000E+000	0.0000000E+000	0.0000000E+000	-84.3875	0.0000000E+000	0.0000000E+000	0.0000000E+000	-5.61253	0.0000000E+000	0.0000000E+000	0.0000000E+000	5.61253	10.1759	84.3875	-1.51054e-06	-5.87834e-05	2.29808e-09	-5.87857e-05	3.96136	266932	10.4354	266942
10.0032	27.2603	1.99692	27.3333	-4.18966	23.5288	3.96122	-0.0140028	7967.46	42.5263	1	11	0.00462246	0.000169114	0	-0.000128142	-0.000269407	8.69432e-06	29.5509	0.051411	0.0447233	-0.0253557	-4.12989	27.3761	27.305	1.97157	0.0364876	0.00267286	0.0365854	4.18966	42526.3	580532	582088	-85.8103	0.0000000E+000	0.0000000E+000	0.0000000E+000	85.8103	0.0000000E+000	0.0000000E+000	0.0000000E+000	-85.8103	0.0000000E+000	0.0000000E+000	0.0000000E+000	-4.18966	0.0000000E+000	0.0000000E+000	0.0000000E+000	4.18966	13.6511	85.8103	-1.09008e-06	-5.54682e-05	3.77245e-09	-5.5472e-05	3.96149	282888	19.2395	282907
6.31058	27.6013	1.59966	27.6476	-3.31691	24.4513	3.96119	-0.0153201	15766.1	52.7791	1	11	0.00462663	0.000167343	0	-0.00013083	3.60525e-05	1.07036e-05	-22.6138	0.063962	0.0590445	0.0245946	-3.36062	27.708	27.6604	1.62425	0.0361089	0.00209272	0.0361695	3.31691	52779.1	910678	912206	-86.6831	0.0000000E+000	0.0000000E+000	0.0000000E+000	86.6831	0.0000000E+000	0.0000000E+000	0.0000000E+000	-86.6831	0.0000000E+000	0.0000000E+000	0.0000000E+000	-3.31691	0.0000000E+000	0.0000000E+000	0.0000000E+000	3.31691	17.2545	86.6831	7.02833e-08	-6.06857e-05	-5.52326e-10	-6.06852e-05	3.96116	258562	2.35328	258560
3.97785	27.8801	1.33454	27.912	-2.74049	25.4584	3.96123	-0.0126786	29980.6	68.5364	1	11	0.0046284	0.000165821	0	-0.000137136	-4.03124e-05	3.05242e-06	91.2642	0.0184079	-0.000406126	-0.0184034	-2.7028	27.9107	27.8797	1.31614	0.0357859	0.00171297	0.0358269	2.74049	68536.4	1.43181e+06	1.43344e+06	-87.2595	0.0000000E+000	0.0000000E+000	0.0000000E+000	87.2595	0.0000000E+000	0.0000000E+000	0.0000000E+000	-87.2595	0.0000000E+000	0.0000000E+000	0.0000000E+000	-2.74049	0.0000000E+000	0.0000000E+000	0.0000000E+000	2.74049	20.8912	87.2595	-3.64796e-06	-5.0223e-05	5.11106e-10	-5.02235e-05	3.96127	312433	3.17955	312436
2.51367	28.1033	1.2312	28.1303	-2.50851	27.0179	3.96125	-0.011835	51426	98.5125	1	11	0.00463058	0.000164612	0	-0.000139117	-5.94036e-05	6.26788e-06	2.53631	0.0380768	0.0380395	-0.00168499	-2.5017	28.1682	28.1414	1.22952	0.0355148	0.0015559	0.0355489	2.50851	98512.4	2.24864e+06	2.2508e+06	-87.4915	0.0000000E+000	0.0000000E+000	0.0000000E+000	87.4915	0.0000000E+000	0.0000000E+000	0.0000000E+000	-87.4915	0.0000000E+000	0.0000000E+000	0.0000000E+000	-2.50851	0.0000000E+000	0.0000000E+000	0.0000000E+000	2.50851	22.826	87.4915	-1.90855e-07	-4.68814e-05	7.03043e-10	-4.68821e-05	3.96131	334705	5.01931	334710
1.58469	28.3737	1.27613	28.4024	-2.57518	29.4534	3.96123	-0.0116007	78701.5	158.877	1	11	0.00463232	0.000163096	0	-0.00014697	-0.00015486	4.60379e-06	51.5911	0.0282274	0.0175368	-0.0221189	-2.52905	28.4189	28.3912	1.25401	0.0351728	0.00158192	0.0352083	2.57518	158877	3.53251e+06	3.53608e+06	-87.4248	0.0000000E+000	0.0000000E+000	0.0000000E+000	87.4248	0.0000000E+000	0.0000000E+000	0.0000000E+000	-87.4248	0.0000000E+000	0.0000000E+000	0.0000000E+000	-2.57518	0.0000000E+000	0.0000000E+000	0.0000000E+000	2.57518	22.2342	87.4248	-5.95856e-06	-4.59529e-05	1.79647e-09	-4.59547e-05	3.96139	341466	13.3492	341479
1.00469	28.5729	1.31844	28.6033	-2.64192	241.182	3.96121	-0.011804	120151	255.278	1	11	0.00507492	0.000177424	0	-0.00154942	0.000131509	4.77761e-07	5.57517	0.00269276	0.00268002	-0.000261606	-2.64115	28.606	28.5756	1.31818	0.0349238	0.00161149	0.0349609	2.64192	255278	5.53233e+06	5.53821e+06	-87.3581	0.0000000E+000	0.0000000E+000	0.0000000E+000	87.3581	0.0000000E+000	0.0000000E+000	0.0000000E+000	-87.3581	0.0000000E+000	0.0000000E+000	0.0000000E+000	-2.64192	0.0000000E+000	0.0000000E+000	0.0000000E+000	2.64192	21.6718	87.3581	-0.0013898	-4.6758e-05	-1.55233e-09	-4.67565e-05	3.96107	335582	11.141	335571
0.632957	28.8995	1.46452	28.9365	-2.90106	241.183	3.96121	-0.011804	171692	439.793	1	11	0.00508944	0.000175883	0	-0.00154942	0.000131509	5.09314e-07	2.19083	0.00289576	0.00289364	-0.000110698	-2.90056	28.9394	28.9024	1.46441	0.0345141	0.00174905	0.0345584	2.90106	439793	8.67845e+06	8.68959e+06	-87.0989	0.0000000E+000	0.0000000E+000	0.0000000E+000	87.0989	0.0000000E+000	0.0000000E+000	0.0000000E+000	-87.0989	0.0000000E+000	0.0000000E+000	0.0000000E+000	-2.90106	0.0000000E+000	0.0000000E+000	0.0000000E+000	2.90106	19.733	87.0989	0.000000000000000E+000	-4.6758e-05	-1.55233e-09	-4.67565e-05	3.96107	335582	11.141	335571
0.401878	29.1579	1.74411	29.21	-3.42313	241.184	3.96121	-0.011804	227066	809.537	1	11	0.00510239	0.000174679	0	-0.00154942	0.000131509	4.21812e-07	11.0015	0.00241478	0.0023704	-0.000460822	-3.42195	29.2124	29.1603	1.74365	0.0341737	0.00204414	0.0342348	3.42313	809538	1.35338e+07	1.3558e+07	-86.5769	0.0000000E+000	0.0000000E+000	0.0000000E+000	86.5769	0.0000000E+000	0.0000000E+000	0.0000000E+000	-86.5769	0.0000000E+000	0.0000000E+000	0.0000000E+000	-3.42313	0.0000000E+000	0.0000000E+000	0.0000000E+000	3.42313	16.7179	86.5769	0.000000000000000E+000	-4.6758e-05	-1.55233e-09	-4.67565e-05	3.96107	335582	11.141	335571
0.251173	29.7076	2.12893	29.7838	-4.09897	241.185	3.96121	-0.011804	297635	1520.72	1	11	0.00510397	0.000171367	0	-0.00154942	0.000131509	5.83584e-07	-2.8401	0.00340545	0.00340127	0.000168736	-4.09883	29.7872	29.711	2.1291	0.0334894	0.00239995	0.0335753	4.09897	1.52072e+06	2.12204e+07	2.12748e+07	-85.901	0.0000000E+000	0.0000000E+000	0.0000000E+000	85.901	0.0000000E+000	0.0000000E+000	0.0000000E+000	-85.901	0.0000000E+000	0.0000000E+000	0.0000000E+000	-4.09897	0.0000000E+000	0.0000000E+000	0.0000000E+000	4.09897	13.9542	85.901	0.000000000000000E+000	-4.6758e-05	-1.55233e-09	-4.67565e-05	3.96107	335582	11.141	335571
0.160751	30.1924	2.42382	30.2896	-4.58981	241.187	3.96121	-0.011804	408476	2615.66	1	11	0.00509618	0.000168249	0	-0.00154942	0.000131509	4.52026e-07	-4.84445	0.00268665	0.00267706	0.000226891	-4.58983	30.2922	30.1951	2.42405	0.0329088	0.00264189	0.0330147	4.58981	2.61566e+06	3.25821e+07	3.26869e+07	-85.4102	0.0000000E+000	0.0000000E+000	0.0000000E+000	85.4102	0.0000000E+000	0.0000000E+000	0.0000000E+000	-85.4102	0.0000000E+000	0.0000000E+000	0.0000000E+000	-4.58981	0.0000000E+000	0.0000000E+000	0.0000000E+000	4.58981	12.4566	85.4102	0.000000000000000E+000	-4.6758e-05	-1.55233e-09	-4.67565e-05	3.96107	335582	11.141	335571
0.100469	30.7667	3.29844	30.943	-6.11919	241.188	3.96121	-0.011804	480262	5457.19	1	11	0.00509788	0.00016475	0	-0.00154942	0.000131509	4.67714e-07	-11.4352	0.00283892	0.00278257	0.000562842	-6.11967	30.9459	30.7695	3.299	0.0321333	0.00344495	0.0323175	6.11919	5.45718e+06	5.09028e+07	5.11945e+07	-83.8808	0.0000000E+000	0.0000000E+000	0.0000000E+000	83.8808	0.0000000E+000	0.0000000E+000	0.0000000E+000	-83.8808	0.0000000E+000	0.0000000E+000	0.0000000E+000	-6.11919	0.0000000E+000	0.0000000E+000	0.0000000E+000	6.11919	9.32767	83.8808	0.000000000000000E+000	-4.6758e-05	-1.55233e-09	-4.67565e-05	3.96107	335582	11.141	335571
0.0602816	31.8051	3.99089	32.0545	-7.15207	241.189	3.96121	-0.011804	661555	10254.8	1	11	0.00509505	0.00015895	0	-0.00154942	0.000131509	5.6194e-07	72.1611	0.00353534	0.00108302	-0.00336537	-7.14586	32.0551	31.8062	3.98752	0.0309541	0.00388411	0.0311969	7.15207	1.02548e+07	8.17248e+07	8.23657e+07	-82.8479	0.0000000E+000	0.0000000E+000	0.0000000E+000	82.8479	0.0000000E+000	0.0000000E+000	0.0000000E+000	-82.8479	0.0000000E+000	0.0000000E+000	0.0000000E+000	-7.15207	0.0000000E+000	0.0000000E+000	0.0000000E+000	7.15207	7.96943	82.8479	0.000000000000000E+000	-4.6758e-05	-1.55233e-09	-4.67565e-05	3.96107	335582	11.141	335571
0.0401878	33.1017	4.73089	33.438	-8.13364	241.19	3.96121	-0.011804	837111	16756.7	1	11	0.00509553	0.000152387	0	-0.00154942	0.000131509	2.27937e-07	-69.3748	0.00149577	0.00052689	0.0013999	-8.13588	33.4388	33.1022	4.73229	0.0296052	0.00423118	0.0299061	8.13364	1.67567e+07	1.17245e+08	1.18437e+08	-81.8664	0.0000000E+000	0.0000000E+000	0.0000000E+000	81.8664	0.0000000E+000	0.0000000E+000	0.0000000E+000	-81.8664	0.0000000E+000	0.0000000E+000	0.0000000E+000	-8.13364	0.0000000E+000	0.0000000E+000	0.0000000E+000	8.13364	6.99692	81.8664	0.000000000000000E+000	-4.6758e-05	-1.55233e-09	-4.67565e-05	3.96107	335582	11.141	335571
0.0200939	35.6104	6.68027	36.2316	-10.6248	241.191	3.96121	-0.011804	1.18567e+06	40306.6	1	11	0.00509602	0.000140651	0	-0.00154942	0.000131509	8.6617e-07	-52.9948	0.00615828	0.00370659	0.00491789	-10.6314	36.2361	35.6141	6.68519	0.027127	0.00508885	0.0276002	10.6248	4.03066e+07	2.14862e+08	2.1861e+08	-79.3752	0.0000000E+000	0.0000000E+000	0.0000000E+000	79.3752	0.0000000E+000	0.0000000E+000	0.0000000E+000	-79.3752	0.0000000E+000	0.0000000E+000	0.0000000E+000	-10.6248	0.0000000E+000	0.0000000E+000	0.0000000E+000	10.6248	5.33069	79.3752	0.000000000000000E+000	-4.6758e-05	-1.55233e-09	-4.67565e-05	3.96107	335582	11.141	335571
0.00796479	40.1322	8.04981	40.9316	-11.342	20330.1	3.96121	-0.00097872	2.48233e+06	96009.7	1	11	0.00508827	0.000124312	0	-0.0155438	0.000207873	4.63971e-07	-158.286	0.00373232	-0.00346747	0.00138088	-11.3449	40.9284	40.1287	8.05119	0.0239539	0.00480473	0.024431	11.342	9.60097e+07	4.78655e+08	4.88189e+08	-78.658	0.0000000E+000	0.0000000E+000	0.0000000E+000	78.658	0.0000000E+000	0.0000000E+000	0.0000000E+000	-78.658	0.0000000E+000	0.0000000E+000	0.0000000E+000	-11.342	0.0000000E+000	0.0000000E+000	0.0000000E+000	11.342	4.98548	78.658	-0.0139944	-3.87692e-06	-2.0345e-10	-3.87671e-06	3.961	4.04734e+06	212.393	4.04713e+06
0.00497799	43.0076	8.48246	43.8361	-11.1573	20330.1	3.96121	-0.00097872	3.76916e+06	141131	1	11	0.00509688	0.000116271	0	-0.0155438	0.000207873	5.23309e-07	-141.36	0.00450076	-0.00351549	0.00281037	-11.1618	43.8332	43.0041	8.48527	0.0223811	0.00441426	0.0228122	11.1573	1.41131e+08	7.15562e+08	7.29347e+08	-78.8427	0.0000000E+000	0.0000000E+000	0.0000000E+000	78.8427	0.0000000E+000	0.0000000E+000	0.0000000E+000	-78.8427	0.0000000E+000	0.0000000E+000	0.0000000E+000	-11.1573	0.0000000E+000	0.0000000E+000	0.0000000E+000	11.1573	5.07018	78.8427	0.000000000000000E+000	-3.87692e-06	-2.0345e-10	-3.87671e-06	3.961	4.04734e+06	212.393	4.04713e+06
0.00318591	45.1659	10.3536	46.3374	-12.9111	20330.1	3.96121	-0.00097872	4.82498e+06	240886	1	11	0.00509942	0.00011005	0	-0.0155438	0.000207873	7.56116e-07	-163.143	0.00687068	-0.00657548	0.00199233	-12.9153	46.3315	45.1594	10.3556	0.0210352	0.00482199	0.0215808	12.9111	2.40886e+08	1.05083e+09	1.07809e+09	-77.0889	0.0000000E+000	0.0000000E+000	0.0000000E+000	77.0889	0.0000000E+000	0.0000000E+000	0.0000000E+000	-77.0889	0.0000000E+000	0.0000000E+000	0.0000000E+000	-12.9111	0.0000000E+000	0.0000000E+000	0.0000000E+000	12.9111	4.36235	77.0889	0.000000000000000E+000	-3.87692e-06	-2.0345e-10	-3.87671e-06	3.961	4.04734e+06	212.393	4.04713e+06
0.0019912	47.7218	11.4023	49.0651	-13.4379	20330.1	3.96121	-0.00097872	7.00992e+06	378576	1	11	0.0051001	0.000103945	0	-0.0155438	0.000207873	3.57485e-07	-100.58	0.00343916	-0.000631457	0.00338069	-13.4419	49.0653	47.7212	11.4057	0.0198231	0.00473639	0.0203811	13.4379	3.78576e+08	1.58445e+09	1.62904e+09	-76.5621	0.0000000E+000	0.0000000E+000	0.0000000E+000	76.5621	0.0000000E+000	0.0000000E+000	0.0000000E+000	-76.5621	0.0000000E+000	0.0000000E+000	0.0000000E+000	-13.4379	0.0000000E+000	0.0000000E+000	0.0000000E+000	13.4379	4.18528	76.5621	0.000000000000000E+000	-3.87692e-06	-2.0345e-10	-3.87671e-06	3.961	4.04734e+06	212.393	4.04713e+06
0.00129428	48.8616	12.486	50.4317	-14.3345	20330.1	3.96121	-0.00097872	9.84844e+06	603685	1	11	0.00510168	0.00010116	0	-0.0155438	0.000207873	2.97045e-07	80.7341	0.00293638	0.000472806	-0.00289807	-14.3312	50.4314	48.8621	12.4832	0.0192115	0.00490928	0.0198288	14.3345	6.03685e+08	2.3624e+09	2.43831e+09	-75.6655	0.0000000E+000	0.0000000E+000	0.0000000E+000	75.6655	0.0000000E+000	0.0000000E+000	0.0000000E+000	-75.6655	0.0000000E+000	0.0000000E+000	0.0000000E+000	-14.3345	0.0000000E+000	0.0000000E+000	0.0000000E+000	14.3345	3.9133	75.6655	0.000000000000000E+000	-3.87692e-06	-2.0345e-10	-3.87671e-06	3.961	4.04734e+06	212.393	4.04713e+06
0.000796479	52.4229	14.5813	54.413	-15.5438	20330.1	3.96121	-0.00097872	1.3704e+07	984097	1	11	0.00510068	9.374e-05	0	-0.0155438	0.000207873	6.57046e-07	-123.52	0.00700923	-0.00387072	0.00584353	-15.5508	54.4109	52.419	14.5872	0.0177058	0.00492484	0.018378	15.5438	9.84097e+08	3.53803e+09	3.67234e+09	-74.4562	0.0000000E+000	0.0000000E+000	0.0000000E+000	74.4562	0.0000000E+000	0.0000000E+000	0.0000000E+000	-74.4562	0.0000000E+000	0.0000000E+000	0.0000000E+000	-15.5438	0.0000000E+000	0.0000000E+000	0.0000000E+000	15.5438	3.5952	74.4562	0.000000000000000E+000	-3.87692e-06	-2.0345e-10	-3.87671e-06	3.961	4.04734e+06	212.393	4.04713e+06
0.000497799	52.9983	18.6082	56.1701	-19.3466	20330.1	3.96121	-0.00097872	1.71815e+07	1.88564e+06	1	11	0.00510103	9.08139e-05	0	-0.0155438	0.000207873	1.04154e-06	-103.883	0.0114689	-0.00275193	0.0111339	-19.3583	56.1712	52.9955	18.6193	0.0167978	0.00589785	0.0178031	19.3466	1.88564e+09	5.37053e+09	5.69195e+09	-70.6534	0.0000000E+000	0.0000000E+000	0.0000000E+000	70.6534	0.0000000E+000	0.0000000E+000	0.0000000E+000	-70.6534	0.0000000E+000	0.0000000E+000	0.0000000E+000	-19.3466	0.0000000E+000	0.0000000E+000	0.0000000E+000	19.3466	2.84812	70.6534	0.000000000000000E+000	-3.87692e-06	-2.0345e-10	-3.87671e-06	3.961	4.04734e+06	212.393	4.04713e+06
0.000298679	53.6961	28.4147	60.7508	-27.8867	20330.1	3.96121	-0.00097872	1.87531e+07	4.10254e+06	1	11	0.0051021	8.39841e-05	0	-0.0155438	0.000207873	8.1556e-07	-28.8913	0.00971089	0.00850225	0.00469181	-27.8869	60.7605	53.7046	28.4194	0.0145492	0.00769907	0.0164607	27.8867	4.10254e+09	7.7527e+09	8.77128e+09	-62.1133	0.0000000E+000	0.0000000E+000	0.0000000E+000	62.1133	0.0000000E+000	0.0000000E+000	0.0000000E+000	-62.1133	0.0000000E+000	0.0000000E+000	0.0000000E+000	-27.8867	0.0000000E+000	0.0000000E+000	0.0000000E+000	27.8867	1.88973	62.1133	0.000000000000000E+000	-3.87692e-06	-2.0345e-10	-3.87671e-06	3.961	4.04734e+06	212.393	4.04713e+06
9.95598e-05	62.9955	84.29	105.23	-53.2268	20330.1	3.96121	-0.00097872	1.89653e+07	1.21685e+07	1	11	0.00509951	4.84609e-05	0	-0.0155438	0.000207873	1.15774e-06	87.2449	0.0238902	0.00114831	-0.0238626	-53.2185	105.211	62.9967	84.2662	0.00568898	0.00761204	0.00950304	53.2268	1.21685e+10	9.09433e+09	1.51914e+10	-36.7732	0.0000000E+000	0.0000000E+000	0.0000000E+000	36.7732	0.0000000E+000	0.0000000E+000	0.0000000E+000	-36.7732	0.0000000E+000	0.0000000E+000	0.0000000E+000	-53.2268	0.0000000E+000	0.0000000E+000	0.0000000E+000	53.2268	0.747366	36.7732	0.000000000000000E+000	-3.87692e-06	-2.0345e-10	-3.87671e-06	3.961	4.04734e+06	212.393	4.04713e+06