File: txt/18807_R307_UC93_28_SOC50_C04.mpt
EC-Lab ASCII FILE
Nb header lines : 65

Potentio Electrochemical Impedance Spectroscopy

Run on channel : 4 (SN 66756)
Grouped channel(s) : 1, 2, 3, 4, 5
User :
CE vs. WE compliance from -10 V to 10 V
Electrode connection : standard
Potential control : Ewe
Ewe ctrl range : min = -10.00 V, max = 10.00 V
Safety Limits :
	Do not start on E overload
Acquisition started on : 11/05/2025 08:59:28.513
Loaded Setting File :  C:\Users\Celltest\OneDrive - store-dot.com\Documents\EC-Lab\Data\@Biologic Test Protocols\cathode half cell EIS SOC50.mps
Saved on :
	File : 18804_R307_UC93_28_SOC00_C04.mpr
	Directory : C:\Users\Celltest\OneDrive - store-dot.com\Documents\EC-Lab\Data\Anna\
	Host : 169.254.61.224
Device : VMP-3e (SN .003165)
Address : USB
EC-LAB for windows v11.62 (software)
Internet server v27.00 (firmware)
Command interpretor v12.03 (firmware)
Electrode material :
Initial state :
Electrolyte :
Comments :
Electrode surface area : 0.001 cm²
Characteristic mass : 0.001 g
Equivalent Weight : 0.000 g/eq.
Density : 0.000 g/cm3
Volume (V) : 0.001 cm³
Record Ece
Cycle Definition : Charge/Discharge alternance
Mode                Multi sine
E (V)               0.0000
vs.                 Eoc
tE (h:m:s)          0:00:0.0000
record              0
dI                  0.000
unit dI             mA
dt (s)              0.000
fi                  1.000
unit fi             MHz
ff                  0.100
unit ff             mHz
Nd                  10
Points              per decade
spacing             Logarithmic
Va (mV)             5.0
pw                  0.10
Na                  2
corr                0
E range min (V)     -10.000
E range max (V)     10.000
I Range             Auto
Bandwidth           5
nc cycles           0
goto Ns'            0
nr cycles           0
inc. cycle          0

freq/Hz	Re(Z)/Ohm	-Im(Z)/Ohm	|Z|/Ohm	Phase(Z)/deg	time/s	<Ewe>/V	<I>/mA	Cs/µF	Cp/µF	cycle number	I Range	|Ewe|/V	|I|/A	Ns	(Q-Qo)/mA.h	<Ece>/V	|Ece|/V	Phase(Zce)/deg	|Zce|/Ohm	Re(Zce)/Ohm	-Im(Zce)/Ohm	Phase(Zwe-ce)/deg	|Zwe-ce|/Ohm	Re(Zwe-ce)/Ohm	-Im(Zwe-ce)/Ohm	Re(Y)/Ohm-1	Im(Y)/Ohm-1	|Y|/Ohm-1	Phase(Y)/deg	Re(C)/nF	Im(C)/nF	|C|/nF	Phase(C)/deg	Re(M)	Im(M)	|M|	Phase(M)/deg	Re(Permittivity)	Im(Permittivity)	|Permittivity|	Phase(Permittivity)/deg	Re(Resistivity)/Ohm.cm	Im(Resistivity)/Ohm.cm	|Resistivity|/Ohm.cm	Phase(Resistivity)/deg	Re(Conductivity)/mS/cm	Im(Conductivity)/mS/cm	|Conductivity|/mS/cm	Phase(Conductivity)/deg	Tan(Delta)	Loss Angle(Delta)/deg	dq/mA.h	Pwe/W	Pce/W	Pwe-ce/W	<Ewe-Ece>/V	Rwe/Ohm	Rce/Ohm	Rwe-ce/Ohm		Ewe-Ece/V
1.00002e+06	3.45139	2.15691	4.06993	-32.0029	1.77452	3.97063	0.0328867	0.0737871	0.0207238	1	10	0.000239597	5.887e-05	0	6.01647e-06	-0.000300622	0.000186166	-65.772	3.16232	1.29772	2.88379	-46.7061	6.9255	4.7491	5.04069	0.208363	0.130214	0.245705	32.0029	20.7238	33.1613	39.1044	-57.9971	0.0000000E+000	0.0000000E+000	0.0000000E+000	57.9971	0.0000000E+000	0.0000000E+000	0.0000000E+000	-57.9971	0.0000000E+000	0.0000000E+000	0.0000000E+000	-32.0029	0.0000000E+000	0.0000000E+000	0.0000000E+000	32.0029	1.60015	57.9971	6.01647e-06	0.000130581	-9.88647e-09	0.000130591	3.97093	120737	9.14115	120746
630957	1.32601	-0.562979	1.44057	23.0045	2.94552	3.96959	-0.0198275	-0.448052	-0.0684298	1	9	0.000422216	0.00029309	0	1.49133e-06	-0.000243292	0.000113269	-107.448	0.386464	-0.115879	0.368682	9.12153	1.22563	1.21013	-0.194297	0.638966	-0.271284	0.694171	-23.0045	-68.4298	161.175	175.1	-113.004	0.0000000E+000	0.0000000E+000	0.0000000E+000	113.004	0.0000000E+000	0.0000000E+000	0.0000000E+000	-113.004	0.0000000E+000	0.0000000E+000	0.0000000E+000	23.0045	0.0000000E+000	0.0000000E+000	0.0000000E+000	-23.0045	2.35534	66.9955	-1.92589e-06	-7.87071e-05	4.82389e-09	-7.8712e-05	3.96983	200206	12.2704	200218
398103	1.7494	0.0131278	1.74945	-0.429951	3.71354	3.96946	-0.01386	30.4531	0.00171481	1	9	0.00147061	0.000840614	0	-4.06059e-06	-0.000128633	3.73109e-05	162.929	0.0443853	-0.0424297	-0.0130297	-0.00329381	1.70697	1.70697	9.81297e-05	0.571594	0.00428935	0.57161	0.429951	1.71482	228.513	228.52	-89.57	0.0000000E+000	0.0000000E+000	0.0000000E+000	89.57	0.0000000E+000	0.0000000E+000	0.0000000E+000	-89.57	0.0000000E+000	0.0000000E+000	0.0000000E+000	-0.429951	0.0000000E+000	0.0000000E+000	0.0000000E+000	0.429951	133.259	89.57	-1.69386e-06	-5.50166e-05	1.78284e-09	-5.50184e-05	3.96959	286398	9.28088	286407
251206	1.84216	0.396477	1.88434	-12.1462	4.48153	3.96924	-0.0286296	1.59798	0.0707439	1	9	0.00434384	0.00230523	0	-9.61519e-06	-5.21927e-05	5.75474e-05	76.1993	0.0249638	0.00595499	-0.0242432	-11.3878	1.88523	1.84811	0.372234	0.518809	0.11166	0.530689	12.1462	70.7439	328.698	336.225	-77.8538	0.0000000E+000	0.0000000E+000	0.0000000E+000	77.8538	0.0000000E+000	0.0000000E+000	0.0000000E+000	-77.8538	0.0000000E+000	0.0000000E+000	0.0000000E+000	-12.1462	0.0000000E+000	0.0000000E+000	0.0000000E+000	12.1462	4.64632	77.8538	-2.07239e-06	-0.000113638	1.49426e-09	-0.000113639	3.9693	138641	1.82303	138643
158486	1.98337	0.61969	2.07792	-17.3511	5.24852	3.96916	-0.0232215	1.62052	0.144127	1	9	0.00537625	0.00258732	0	-1.60744e-05	-0.000205072	4.49673e-05	82.6711	0.0173799	0.00221706	-0.0172379	-16.8785	2.07497	1.98558	0.602452	0.459351	0.143521	0.48125	17.3511	144.127	461.29	483.281	-72.6489	0.0000000E+000	0.0000000E+000	0.0000000E+000	72.6489	0.0000000E+000	0.0000000E+000	0.0000000E+000	-72.6489	0.0000000E+000	0.0000000E+000	0.0000000E+000	-17.3511	0.0000000E+000	0.0000000E+000	0.0000000E+000	17.3511	3.20058	72.6489	4.19005e-06	-9.21698e-05	4.76209e-09	-9.21746e-05	3.96936	170926	8.83113	170934
100004	2.18297	0.827993	2.33472	-20.7716	6.01453	3.96915	-0.0207972	1.92211	0.241747	1	9	0.00535626	0.00229418	0	-2.03538e-05	-0.000147743	3.17906e-05	58.1361	0.0138571	0.00731522	-0.0117689	-20.4383	2.33743	2.19028	0.816224	0.400477	0.1519	0.428317	20.7716	241.747	637.355	681.662	-69.2284	0.0000000E+000	0.0000000E+000	0.0000000E+000	69.2284	0.0000000E+000	0.0000000E+000	0.0000000E+000	-69.2284	0.0000000E+000	0.0000000E+000	0.0000000E+000	-20.7716	0.0000000E+000	0.0000000E+000	0.0000000E+000	20.7716	2.63646	69.2284	-1.88573e-07	-8.25471e-05	3.07263e-09	-8.25502e-05	3.96929	190850	7.10396	190857
63093.8	2.42471	1.03209	2.63523	-23.0573	6.78052	3.96915	-0.0232215	2.44407	0.374899	1	9	0.0052528	0.0019933	0	-2.06636e-05	-0.000338842	1.62009e-05	32.133	0.00812769	0.00688265	-0.00432301	-22.9125	2.63988	2.4316	1.02777	0.349158	0.148621	0.379473	23.0573	374.899	880.756	957.226	-66.9427	0.0000000E+000	0.0000000E+000	0.0000000E+000	66.9427	0.0000000E+000	0.0000000E+000	0.0000000E+000	-66.9427	0.0000000E+000	0.0000000E+000	0.0000000E+000	-23.0573	0.0000000E+000	0.0000000E+000	0.0000000E+000	23.0573	2.34932	66.9427	-3.59284e-06	-9.21697e-05	7.86843e-09	-9.21776e-05	3.96949	170925	14.5917	170940
39814.1	2.74444	1.26676	3.02269	-24.7768	7.54655	3.96914	-0.0257205	3.15565	0.554233	1	9	0.00525002	0.00173687	0	-2.89521e-05	-0.000243292	2.94423e-05	-3.67443	0.0169514	0.0169165	0.00108636	-24.6617	3.03851	2.76136	1.26785	0.300378	0.138646	0.330832	24.7768	554.233	1200.75	1322.48	-65.2232	0.0000000E+000	0.0000000E+000	0.0000000E+000	65.2232	0.0000000E+000	0.0000000E+000	0.0000000E+000	-65.2232	0.0000000E+000	0.0000000E+000	0.0000000E+000	-24.7768	0.0000000E+000	0.0000000E+000	0.0000000E+000	24.7768	2.1665	65.2232	-2.88003e-06	-0.000102088	6.25759e-09	-0.000102094	3.96938	154318	9.45909	154328
25116.9	3.09997	1.52029	3.45269	-26.1243	8.31254	3.96914	-0.0300843	4.168	0.808099	1	9	0.00523722	0.00151685	0	-3.40902e-05	-0.000185962	6.83197e-06	10.5223	0.00450405	0.00442831	-0.000822525	-26.0797	3.45631	3.1044	1.51947	0.260041	0.127529	0.289629	26.1243	808.099	1647.77	1835.25	-63.8757	0.0000000E+000	0.0000000E+000	0.0000000E+000	63.8757	0.0000000E+000	0.0000000E+000	0.0000000E+000	-63.8757	0.0000000E+000	0.0000000E+000	0.0000000E+000	-26.1243	0.0000000E+000	0.0000000E+000	0.0000000E+000	26.1243	2.03906	63.8757	-2.74894e-06	-0.000119409	5.59454e-09	-0.000119414	3.96933	131934	6.18139	131940
15847.7	3.56538	1.80093	3.9944	-26.7991	9.08255	3.96914	-0.0239675	5.57644	1.13357	1	9	0.00518267	0.00129748	0	-3.8951e-05	-0.000587272	9.61424e-06	-60.611	0.00740991	0.00363632	0.00645631	-26.8582	4.00056	3.56901	1.80739	0.223461	0.112874	0.25035	26.7991	1133.57	2244.17	2514.21	-63.2009	0.0000000E+000	0.0000000E+000	0.0000000E+000	63.2009	0.0000000E+000	0.0000000E+000	0.0000000E+000	-63.2009	0.0000000E+000	0.0000000E+000	0.0000000E+000	-26.7991	0.0000000E+000	0.0000000E+000	0.0000000E+000	26.7991	1.97974	63.2009	-2.58122e-06	-9.51305e-05	1.40754e-08	-9.51445e-05	3.96973	165605	24.5028	165630
10002.2	4.07825	2.08683	4.58116	-27.0987	10.1275	3.96914	-0.0161427	7.62493	1.5822	1	10	0.00481495	0.00105104	0	-4.56228e-05	2.42471e-05	7.67109e-06	-88.3608	0.0072986	0.000208786	0.00729562	-27.1787	4.58467	4.07846	2.09413	0.194323	0.0994346	0.218286	27.0987	1582.2	3092.05	3473.35	-62.9013	0.0000000E+000	0.0000000E+000	0.0000000E+000	62.9013	0.0000000E+000	0.0000000E+000	0.0000000E+000	-62.9013	0.0000000E+000	0.0000000E+000	0.0000000E+000	-27.0987	0.0000000E+000	0.0000000E+000	0.0000000E+000	27.0987	1.95428	62.9013	-2.39027e-06	-6.40726e-05	-3.91413e-10	-6.40722e-05	3.96911	245878	1.50205	245877
6309.38	4.64951	2.44756	5.25438	-27.7629	10.7695	3.96914	-0.0192835	10.3062	2.23627	1	10	0.00508902	0.000968529	0	-4.72644e-05	-0.000300622	1.30961e-05	-57.6106	0.0135216	0.00724312	0.011418	-27.8361	5.26611	4.65675	2.45898	0.168409	0.0886525	0.190317	27.7629	2236.27	4248.13	4800.78	-62.2371	0.0000000E+000	0.0000000E+000	0.0000000E+000	62.2371	0.0000000E+000	0.0000000E+000	0.0000000E+000	-62.2371	0.0000000E+000	0.0000000E+000	0.0000000E+000	-27.7629	0.0000000E+000	0.0000000E+000	0.0000000E+000	27.7629	1.89965	62.2371	2.09455e-07	-7.6539e-05	5.79705e-09	-7.65448e-05	3.96944	205831	15.5896	205847
3983.6	5.31756	2.91685	6.06502	-28.7461	11.3321	3.96911	-0.0111816	13.6972	3.16806	1	10	0.00520692	0.000858516	0	-4.99589e-05	-0.000281512	6.47235e-06	5.56175	0.007539	0.00750351	-0.000730668	-28.706	6.07125	5.32507	2.91612	0.14456	0.0792956	0.16488	28.7461	3168.06	5775.54	6587.37	-61.2539	0.0000000E+000	0.0000000E+000	0.0000000E+000	61.2539	0.0000000E+000	0.0000000E+000	0.0000000E+000	-61.2539	0.0000000E+000	0.0000000E+000	0.0000000E+000	-28.7461	0.0000000E+000	0.0000000E+000	0.0000000E+000	28.7461	1.82305	61.2539	-1.06486e-06	-4.43809e-05	3.14775e-09	-4.43841e-05	3.96939	354969	25.1764	354994
2510.8	6.10305	3.50316	7.037	-29.8559	12.1569	3.96909	-0.0167433	18.0945	4.48428	1	10	0.00507056	0.000720557	0	-5.44218e-05	-0.000166852	1.17129e-05	-39.9117	0.0162553	0.0124684	0.0104295	-29.8789	7.053	6.11552	3.51359	0.123246	0.0707433	0.142106	29.8559	4484.28	7812.31	9007.83	-60.1441	0.0000000E+000	0.0000000E+000	0.0000000E+000	60.1441	0.0000000E+000	0.0000000E+000	0.0000000E+000	-60.1441	0.0000000E+000	0.0000000E+000	0.0000000E+000	-29.8559	0.0000000E+000	0.0000000E+000	0.0000000E+000	29.8559	1.74216	60.1441	-2.17113e-06	-6.64557e-05	2.79366e-09	-6.64585e-05	3.96926	237056	9.96534	237066
1585.51	7.09292	4.21814	8.2524	-30.7398	13.0589	3.96908	-0.0110585	23.7975	6.21744	1	10	0.00494372	0.000599065	0	-5.76776e-05	-3.30828e-05	5.91036e-06	33.9008	0.00986598	0.00818881	-0.00550282	-30.678	8.25663	7.10111	4.21264	0.104151	0.0619384	0.121177	30.7398	6217.44	10454.8	12163.9	-59.2602	0.0000000E+000	0.0000000E+000	0.0000000E+000	59.2602	0.0000000E+000	0.0000000E+000	0.0000000E+000	-59.2602	0.0000000E+000	0.0000000E+000	0.0000000E+000	-30.7398	0.0000000E+000	0.0000000E+000	0.0000000E+000	30.7398	1.68153	59.2602	-9.07186e-07	-4.38921e-05	3.65846e-10	-4.38925e-05	3.96912	358917	2.99162	358920
1000.32	8.33379	5.12773	9.78497	-31.6037	13.9618	3.96908	-0.0127483	31.0282	8.52094	1	10	0.00486181	0.000496865	0	-6.00551e-05	4.3357e-05	8.95615e-06	-33.4431	0.0180253	0.0150409	0.00993392	-31.6071	9.80299	8.34883	5.13766	0.0870409	0.0535558	0.102198	31.6037	8520.94	13848.6	16260	-58.3963	0.0000000E+000	0.0000000E+000	0.0000000E+000	58.3963	0.0000000E+000	0.0000000E+000	0.0000000E+000	-58.3963	0.0000000E+000	0.0000000E+000	0.0000000E+000	-31.6037	0.0000000E+000	0.0000000E+000	0.0000000E+000	31.6037	1.62524	58.3963	-1.01893e-06	-5.05989e-05	-5.52727e-10	-5.05983e-05	3.96904	311343	3.40101	311339
631.01	9.93052	6.12452	11.6673	-31.6637	14.8636	3.96909	-0.0118605	41.1825	11.348	1	10	0.00480299	0.000411664	0	-6.32207e-05	-9.04127e-05	5.81336e-06	110.852	0.0141216	-0.00502674	-0.0131967	-31.6214	11.6561	9.92549	6.11132	0.0729515	0.0449919	0.08571	31.6637	11348	18400	21618	-58.3363	0.0000000E+000	0.0000000E+000	0.0000000E+000	58.3363	0.0000000E+000	0.0000000E+000	0.0000000E+000	-58.3363	0.0000000E+000	0.0000000E+000	0.0000000E+000	-31.6637	0.0000000E+000	0.0000000E+000	0.0000000E+000	31.6637	1.62144	58.3363	-1.7832e-06	-4.70753e-05	1.07234e-09	-4.70764e-05	3.96918	334648	7.62301	334656
398.089	12.0489	7.15733	14.0144	-30.7113	15.7648	3.96908	-0.0112898	55.8585	14.5694	1	10	0.004772	0.000340507	0	-6.68581e-05	-0.000262402	1.27404e-05	19.2497	0.0374159	0.035324	-0.0123355	-30.5944	14.0385	12.0842	7.14499	0.0613477	0.0364419	0.0713551	30.7113	14569.4	24526.6	28527.6	-59.2887	0.0000000E+000	0.0000000E+000	0.0000000E+000	59.2887	0.0000000E+000	0.0000000E+000	0.0000000E+000	-59.2887	0.0000000E+000	0.0000000E+000	0.0000000E+000	-30.7113	0.0000000E+000	0.0000000E+000	0.0000000E+000	30.7113	1.68344	59.2887	-1.14963e-06	-4.481e-05	2.96246e-09	-4.4813e-05	3.96934	351564	23.2425	351587
251.044	14.7435	7.85867	16.7071	-28.0588	16.663	3.96909	-0.0140165	80.6716	17.849	1	10	0.00475431	0.000284568	0	-7.01295e-05	-0.000338842	8.17395e-06	-54.6952	0.0287241	0.0166004	0.0234414	-28.1029	16.7328	14.7601	7.88211	0.0528196	0.0281543	0.0598547	28.0588	17849	33486.1	37946.1	-61.9412	0.0000000E+000	0.0000000E+000	0.0000000E+000	61.9412	0.0000000E+000	0.0000000E+000	0.0000000E+000	-61.9412	0.0000000E+000	0.0000000E+000	0.0000000E+000	-28.0588	0.0000000E+000	0.0000000E+000	0.0000000E+000	28.0588	1.87608	61.9412	-1.3998e-06	-5.56328e-05	4.74939e-09	-5.56376e-05	3.96943	283172	24.1745	283196
158.428	17.7682	8.02731	19.4973	-24.3125	17.5679	3.96908	-0.0119015	125.146	21.2133	1	10	0.00475403	0.00024383	0	-7.29478e-05	0.000100687	9.1343e-06	-34.1867	0.0374618	0.0309888	0.0210495	-24.3314	19.5342	17.7992	8.04836	0.0467404	0.0211164	0.0512891	24.3125	21213.3	46954.8	51524.3	-65.6875	0.0000000E+000	0.0000000E+000	0.0000000E+000	65.6875	0.0000000E+000	0.0000000E+000	0.0000000E+000	-65.6875	0.0000000E+000	0.0000000E+000	0.0000000E+000	-24.3125	0.0000000E+000	0.0000000E+000	0.0000000E+000	24.3125	2.21346	65.6875	-1.41527e-06	-4.72381e-05	-1.19833e-09	-4.72369e-05	3.96898	333493	8.46	333485
100.032	20.7591	7.33489	22.0168	-19.4601	18.4678	3.96908	-0.0139904	216.914	24.075	1	10	0.00474625	0.000215574	0	-7.62886e-05	-9.04127e-05	9.01428e-06	-8.07962	0.0418153	0.0414002	0.0058771	-19.4386	22.0578	20.8005	7.34077	0.0428252	0.0151316	0.0454198	19.4601	24075	68136.6	72264.8	-70.5399	0.0000000E+000	0.0000000E+000	0.0000000E+000	70.5399	0.0000000E+000	0.0000000E+000	0.0000000E+000	-70.5399	0.0000000E+000	0.0000000E+000	0.0000000E+000	-19.4601	0.0000000E+000	0.0000000E+000	0.0000000E+000	19.4601	2.83018	70.5399	-1.83713e-06	-5.55291e-05	1.26491e-09	-5.55304e-05	3.96917	283700	6.46247	283706
63.0823	23.3409	6.0816	24.1202	-14.604	19.632	3.96912	-0.00790351	414.853	26.3736	1	11	0.00475206	0.000197016	0	-7.85108e-05	-0.000205072	6.30164e-06	6.08489	0.0319855	0.0318053	-0.00339052	-14.5772	24.1501	23.3727	6.07821	0.0401196	0.0104534	0.041459	14.604	26373.6	101221	104600	-75.396	0.0000000E+000	0.0000000E+000	0.0000000E+000	75.396	0.0000000E+000	0.0000000E+000	0.0000000E+000	-75.396	0.0000000E+000	0.0000000E+000	0.0000000E+000	-14.604	0.0000000E+000	0.0000000E+000	0.0000000E+000	14.604	3.83795	75.396	-6.55202e-07	-3.137e-05	1.62079e-09	-3.13716e-05	3.96932	502197	25.947	502223
39.8089	24.9882	4.68556	25.4237	-10.6203	20.5328	3.96915	-0.00478047	853.253	28.9818	1	11	0.00475446	0.000187009	0	-8.02276e-05	-0.000166852	7.17573e-06	-62.0467	0.038371	0.0179865	0.0338942	-10.6878	25.4476	25.0062	4.71946	0.0386596	0.00724912	0.0393334	10.6203	28981.8	154560	157254	-79.3797	0.0000000E+000	0.0000000E+000	0.0000000E+000	79.3797	0.0000000E+000	0.0000000E+000	0.0000000E+000	-79.3797	0.0000000E+000	0.0000000E+000	0.0000000E+000	-10.6203	0.0000000E+000	0.0000000E+000	0.0000000E+000	10.6203	5.33301	79.3797	-7.07183e-07	-1.89744e-05	7.97634e-10	-1.89752e-05	3.96932	830284	34.9029	830319
25.1044	25.781	3.54982	26.0243	-7.83983	21.4111	3.96912	-0.0056393	1785.92	33.2291	1	11	0.00474822	0.000182453	0	-8.17018e-05	-9.04127e-05	1.28051e-05	-7.28775	0.0701829	0.069616	0.00890288	-7.83834	26.0945	25.8507	3.55872	0.0380665	0.00524142	0.0384256	7.83983	33229.1	241331	243608	-82.1602	0.0000000E+000	0.0000000E+000	0.0000000E+000	82.1602	0.0000000E+000	0.0000000E+000	0.0000000E+000	-82.1602	0.0000000E+000	0.0000000E+000	0.0000000E+000	-7.83983	0.0000000E+000	0.0000000E+000	0.0000000E+000	7.83983	7.26263	82.1602	-4.53214e-07	-2.23831e-05	5.09864e-10	-2.23836e-05	3.96921	703833	16.0326	703849
15.8576	26.4796	2.62331	26.6092	-5.65779	22.2891	3.96913	-0.00504946	3825.9	37.1852	1	11	0.00474686	0.000178392	0	-8.35727e-05	-0.000357952	7.69453e-06	76.3195	0.0431328	0.0102012	-0.0419091	-5.56584	26.6152	26.4898	2.5814	0.0373979	0.00370498	0.037581	5.65779	37185.2	375345	377183	-84.3422	0.0000000E+000	0.0000000E+000	0.0000000E+000	84.3422	0.0000000E+000	0.0000000E+000	0.0000000E+000	-84.3422	0.0000000E+000	0.0000000E+000	0.0000000E+000	-5.65779	0.0000000E+000	0.0000000E+000	0.0000000E+000	5.65779	10.094	84.3422	-1.14854e-06	-2.0042e-05	1.80747e-09	-2.00438e-05	3.96949	786050	70.8891	786121
10.0032	26.8668	2.10417	26.9491	-4.47818	23.2699	3.96912	-0.00477712	7561.38	46.0971	1	11	0.00474776	0.000176175	0	-8.46216e-05	-0.000128633	7.03382e-06	-32.2444	0.0399251	0.0337679	0.0213014	-4.51767	26.9844	26.9006	2.12547	0.0369937	0.00289729	0.037107	4.47818	46097.1	588585	590388	-85.5218	0.0000000E+000	0.0000000E+000	0.0000000E+000	85.5218	0.0000000E+000	0.0000000E+000	0.0000000E+000	-85.5218	0.0000000E+000	0.0000000E+000	0.0000000E+000	-4.47818	0.0000000E+000	0.0000000E+000	0.0000000E+000	4.47818	12.7684	85.5218	8.81909e-07	-1.89609e-05	6.14493e-10	-1.89616e-05	3.96925	830861	26.9268	830888
6.31058	26.773	1.30838	26.805	-2.79779	24.1933	3.96912	-0.00722973	19275.9	45.9257	1	11	0.00474707	0.000177097	0	-8.66955e-05	-0.000319732	7.35301e-06	-40.476	0.0415198	0.0315832	0.0269517	-2.85197	26.8378	26.8046	1.33534	0.0372621	0.00182098	0.0373065	2.79779	45925.7	939762	940883	-87.2022	0.0000000E+000	0.0000000E+000	0.0000000E+000	87.2022	0.0000000E+000	0.0000000E+000	0.0000000E+000	-87.2022	0.0000000E+000	0.0000000E+000	0.0000000E+000	-2.79779	0.0000000E+000	0.0000000E+000	0.0000000E+000	2.79779	20.4626	87.2022	4.79354e-07	-2.86957e-05	2.31158e-09	-2.8698e-05	3.96944	549000	44.2246	549044
3.97785	27.2743	1.24145	27.3026	-2.60615	25.2004	3.96913	-0.00399645	32228.6	66.6338	1	11	0.00474756	0.000173887	0	-8.8773e-05	-0.000166852	7.74127e-06	-0.096029	0.044519	0.0445189	7.46148e-05	-2.60206	27.347	27.3188	1.24153	0.0365887	0.00166542	0.0366266	2.60615	66633.9	1.46393e+06	1.46544e+06	-87.3939	0.0000000E+000	0.0000000E+000	0.0000000E+000	87.3939	0.0000000E+000	0.0000000E+000	0.0000000E+000	-87.3939	0.0000000E+000	0.0000000E+000	0.0000000E+000	-2.60615	0.0000000E+000	0.0000000E+000	0.0000000E+000	2.60615	21.9697	87.3939	-2.36499e-06	-1.58624e-05	6.66817e-10	-1.58631e-05	3.9693	993165	41.7502	993206
2.51367	27.7185	1.91668	27.7847	-3.95559	26.76	3.96914	-0.00487672	33034	157.198	1	11	0.0047488	0.000170914	0	-9.16474e-05	-7.13027e-05	3.96227e-06	-64.6083	0.0231828	0.0099409	0.0209433	-3.99724	27.7961	27.7285	1.93762	0.0359053	0.00248277	0.035991	3.95559	157199	2.27336e+06	2.27879e+06	-86.0444	0.0000000E+000	0.0000000E+000	0.0000000E+000	86.0444	0.0000000E+000	0.0000000E+000	0.0000000E+000	-86.0444	0.0000000E+000	0.0000000E+000	0.0000000E+000	-3.95559	0.0000000E+000	0.0000000E+000	0.0000000E+000	3.95559	14.4618	86.0444	-1.23091e-07	-1.93564e-05	3.47724e-10	-1.93567e-05	3.96921	813894	14.621	813909
1.58469	27.9797	1.35257	28.0123	-2.7676	29.1943	3.96914	-0.00480285	74253.4	173.117	1	11	0.00475026	0.000169577	0	-8.9428e-05	-0.000109523	4.52716e-06	-10.4746	0.0266967	0.0262518	0.00485343	-2.77491	28.0388	28.0059	1.35743	0.0356569	0.0017237	0.0356986	2.7676	173116	3.58114e+06	3.58532e+06	-87.2324	0.0000000E+000	0.0000000E+000	0.0000000E+000	87.2324	0.0000000E+000	0.0000000E+000	0.0000000E+000	-87.2324	0.0000000E+000	0.0000000E+000	0.0000000E+000	-2.7676	0.0000000E+000	0.0000000E+000	0.0000000E+000	2.7676	20.6863	87.2324	6.49627e-07	-1.90632e-05	5.26021e-10	-1.90637e-05	3.96925	826412	22.8037	826435
1.00469	28.846	1.41184	28.8806	-2.80205	240.923	3.96909	-0.00527728	112202	268.14	1	11	0.00506259	0.000175294	0	-0.00108195	-0.000243292	6.28817e-07	24.3718	0.00358722	0.00326755	-0.00148029	-2.7988	28.8838	28.8493	1.41036	0.0345839	0.00169268	0.0346253	2.80205	268139	5.47849e+06	5.48505e+06	-87.198	0.0000000E+000	0.0000000E+000	0.0000000E+000	87.198	0.0000000E+000	0.0000000E+000	0.0000000E+000	-87.198	0.0000000E+000	0.0000000E+000	0.0000000E+000	-2.80205	0.0000000E+000	0.0000000E+000	0.0000000E+000	2.80205	20.4315	87.198	-0.000988071	-2.0946e-05	1.28392e-09	-2.09473e-05	3.96934	752110	46.1018	752156
0.632957	29.1681	1.56951	29.2103	-3.08006	240.924	3.96909	-0.00527728	160208	462.527	1	11	0.00507531	0.000173751	0	-0.00108195	-0.000243292	5.69504e-07	-19.9465	0.0032777	0.00308108	0.00111817	-3.08192	29.2134	29.1712	1.57062	0.0341851	0.00183946	0.0342345	3.08006	462527	8.59572e+06	8.60816e+06	-86.9199	0.0000000E+000	0.0000000E+000	0.0000000E+000	86.9199	0.0000000E+000	0.0000000E+000	0.0000000E+000	-86.9199	0.0000000E+000	0.0000000E+000	0.0000000E+000	-3.08006	0.0000000E+000	0.0000000E+000	0.0000000E+000	3.08006	18.5842	86.9199	0.000000000000000E+000	-2.0946e-05	1.28392e-09	-2.09473e-05	3.96934	752110	46.1018	752156
0.401878	29.4104	1.83603	29.4677	-3.57223	240.925	3.96909	-0.00527728	215698	837.367	1	11	0.00508929	0.000172708	0	-0.00108195	-0.000243292	3.92401e-07	69.1092	0.00227205	0.000810188	-0.00212269	-3.56801	29.4683	29.4112	1.83391	0.0338696	0.00211441	0.0339355	3.57223	837367	1.34133e+07	1.34394e+07	-86.4278	0.0000000E+000	0.0000000E+000	0.0000000E+000	86.4278	0.0000000E+000	0.0000000E+000	0.0000000E+000	-86.4278	0.0000000E+000	0.0000000E+000	0.0000000E+000	-3.57223	0.0000000E+000	0.0000000E+000	0.0000000E+000	3.57223	16.0184	86.4278	0.000000000000000E+000	-2.0946e-05	1.28392e-09	-2.09473e-05	3.96934	752110	46.1018	752156
0.251173	30.0227	2.19197	30.1026	-4.17578	240.925	3.96909	-0.00527728	289076	1532.75	1	11	0.00509087	0.000169117	0	-0.00108195	-0.000243292	4.40669e-07	-4.56688	0.0026057	0.00259743	0.000207473	-4.17581	30.1053	30.0253	2.19218	0.0331315	0.00241894	0.0332197	4.17578	1.53275e+06	2.09936e+07	2.10495e+07	-85.8242	0.0000000E+000	0.0000000E+000	0.0000000E+000	85.8242	0.0000000E+000	0.0000000E+000	0.0000000E+000	-85.8242	0.0000000E+000	0.0000000E+000	0.0000000E+000	-4.17578	0.0000000E+000	0.0000000E+000	0.0000000E+000	4.17578	13.6967	85.8242	0.000000000000000E+000	-2.0946e-05	1.28392e-09	-2.09473e-05	3.96934	752110	46.1018	752156
0.160751	30.4866	2.4647	30.5861	-4.62205	240.926	3.96909	-0.00527728	401700	2608.46	1	11	0.005086	0.000166285	0	-0.00108195	-0.000243292	6.4144e-07	35.9768	0.00385748	0.00312168	-0.00226611	-4.61735	30.589	30.4897	2.46244	0.0325883	0.00263462	0.0326946	4.62205	2.60846e+06	3.22647e+07	3.237e+07	-85.3779	0.0000000E+000	0.0000000E+000	0.0000000E+000	85.3779	0.0000000E+000	0.0000000E+000	0.0000000E+000	-85.3779	0.0000000E+000	0.0000000E+000	0.0000000E+000	-4.62205	0.0000000E+000	0.0000000E+000	0.0000000E+000	4.62205	12.3693	85.3779	0.000000000000000E+000	-2.0946e-05	1.28392e-09	-2.09473e-05	3.96934	752110	46.1018	752156
0.100469	31.0635	3.42504	31.2517	-6.29197	240.927	3.96909	-0.00527728	462510	5555.25	1	11	0.00508868	0.000162829	0	-0.00108195	-0.000243292	4.42323e-07	20.0589	0.00271649	0.00255171	-0.00093172	-6.28976	31.2542	31.066	3.42411	0.0318055	0.00350685	0.0319982	6.29197	5.55525e+06	5.03835e+07	5.06888e+07	-83.708	0.0000000E+000	0.0000000E+000	0.0000000E+000	83.708	0.0000000E+000	0.0000000E+000	0.0000000E+000	-83.708	0.0000000E+000	0.0000000E+000	0.0000000E+000	-6.29197	0.0000000E+000	0.0000000E+000	0.0000000E+000	6.29197	9.06953	83.708	0.000000000000000E+000	-2.0946e-05	1.28392e-09	-2.09473e-05	3.96934	752110	46.1018	752156
0.0602816	31.9844	4.15872	32.2537	-7.40823	240.928	3.96909	-0.00527728	634856	10554.5	1	11	0.00508294	0.000157592	0	-0.00108195	-0.000243292	5.99004e-07	11.8094	0.00380097	0.00372052	-0.000777891	-7.406	32.2573	31.9882	4.15795	0.0307454	0.00399762	0.0310042	7.40823	1.05545e+07	8.11738e+07	8.1857e+07	-82.5918	0.0000000E+000	0.0000000E+000	0.0000000E+000	82.5918	0.0000000E+000	0.0000000E+000	0.0000000E+000	-82.5918	0.0000000E+000	0.0000000E+000	0.0000000E+000	-7.40823	0.0000000E+000	0.0000000E+000	0.0000000E+000	7.40823	7.69093	82.5918	0.000000000000000E+000	-2.0946e-05	1.28392e-09	-2.09473e-05	3.96934	752110	46.1018	752156
0.0401878	33.3319	4.87667	33.6867	-8.3237	240.928	3.96909	-0.00527728	812088	17018.9	1	11	0.00508538	0.000150961	0	-0.00108195	-0.000243292	3.95431e-07	18.0506	0.00261943	0.00249051	-0.000811649	-8.32172	33.6891	33.3344	4.87586	0.0293726	0.0042974	0.0296853	8.3237	1.70189e+07	1.16324e+08	1.17562e+08	-81.6763	0.0000000E+000	0.0000000E+000	0.0000000E+000	81.6763	0.0000000E+000	0.0000000E+000	0.0000000E+000	-81.6763	0.0000000E+000	0.0000000E+000	0.0000000E+000	-8.3237	0.0000000E+000	0.0000000E+000	0.0000000E+000	8.3237	6.83496	81.6763	0.000000000000000E+000	-2.0946e-05	1.28392e-09	-2.09473e-05	3.96934	752110	46.1018	752156
0.0200939	35.7927	7.15408	36.5006	-11.3031	240.929	3.96909	-0.00527728	1.10714e+06	42531.4	1	11	0.0050854	0.000139324	0	-0.00108195	-0.000243292	8.46143e-07	-45.2372	0.00607322	0.0042766	0.00431216	-11.3084	36.5057	35.7969	7.15839	0.0268654	0.00536974	0.0273968	11.3031	4.25314e+07	2.12789e+08	2.16998e+08	-78.6969	0.0000000E+000	0.0000000E+000	0.0000000E+000	78.6969	0.0000000E+000	0.0000000E+000	0.0000000E+000	-78.6969	0.0000000E+000	0.0000000E+000	0.0000000E+000	-11.3031	0.0000000E+000	0.0000000E+000	0.0000000E+000	11.3031	5.00311	78.6969	0.000000000000000E+000	-2.0946e-05	1.28392e-09	-2.09473e-05	3.96934	752110	46.1018	752156
0.00796479	40.8948	9.1494	41.9058	-12.6111	20329.8	3.9691	-0.00100774	2.184e+06	104110	1	11	0.00507567	0.000121121	0	-0.0152384	-0.000300622	4.70271e-07	-17.4128	0.00388265	0.00370472	0.0011619	-12.6116	41.9096	40.8985	9.15056	0.0232873	0.00521008	0.0238631	12.6111	1.0411e+08	4.65335e+08	4.76839e+08	-77.3889	0.0000000E+000	0.0000000E+000	0.0000000E+000	77.3889	0.0000000E+000	0.0000000E+000	0.0000000E+000	-77.3889	0.0000000E+000	0.0000000E+000	0.0000000E+000	-12.6111	0.0000000E+000	0.0000000E+000	0.0000000E+000	12.6111	4.46967	77.3889	-0.0141565	-3.99983e-06	3.0295e-10	-4.00013e-06	3.9694	3.9386e+06	298.312	3.9389e+06
0.00497799	44.341	10.4014	45.5447	-13.2016	20329.8	3.9691	-0.00100774	3.07379e+06	160318	1	11	0.0050828	0.0001116	0	-0.0152384	-0.000300622	3.72143e-07	-36.9904	0.0033346	0.00266347	0.00200636	-13.2033	45.5477	44.3437	10.4034	0.0213762	0.00501437	0.0219565	13.2016	1.60318e+08	6.83434e+08	7.01986e+08	-76.7984	0.0000000E+000	0.0000000E+000	0.0000000E+000	76.7984	0.0000000E+000	0.0000000E+000	0.0000000E+000	-76.7984	0.0000000E+000	0.0000000E+000	0.0000000E+000	-13.2016	0.0000000E+000	0.0000000E+000	0.0000000E+000	13.2016	4.26299	76.7984	0.000000000000000E+000	-3.99983e-06	3.0295e-10	-4.00013e-06	3.9694	3.9386e+06	298.312	3.9389e+06
0.00318591	47.1479	12.8187	48.8595	-15.2101	20329.8	3.9691	-0.00100774	3.89709e+06	268247	1	11	0.00508525	0.000104079	0	-0.0152384	-0.000300622	2.0411e-07	7.75571	0.0019611	0.00194316	-0.00026465	-15.2092	48.8613	47.1499	12.8185	0.0197499	0.00536968	0.0204669	15.2101	2.68247e+08	9.86623e+08	1.02244e+09	-74.7899	0.0000000E+000	0.0000000E+000	0.0000000E+000	74.7899	0.0000000E+000	0.0000000E+000	0.0000000E+000	-74.7899	0.0000000E+000	0.0000000E+000	0.0000000E+000	-15.2101	0.0000000E+000	0.0000000E+000	0.0000000E+000	15.2101	3.67805	74.7899	0.000000000000000E+000	-3.99983e-06	3.0295e-10	-4.00013e-06	3.9694	3.9386e+06	298.312	3.9389e+06
0.0019912	50.7405	14.1274	52.6706	-15.5585	20329.8	3.9691	-0.00100774	5.65774e+06	407036	1	11	0.00508857	9.66112e-05	0	-0.0152384	-0.000300622	7.16388e-07	-18.3781	0.00741517	0.00703697	0.0023379	-15.5589	52.678	50.7476	14.1298	0.0182902	0.00509245	0.0189859	15.5585	4.07036e+08	1.46193e+09	1.51753e+09	-74.4415	0.0000000E+000	0.0000000E+000	0.0000000E+000	74.4415	0.0000000E+000	0.0000000E+000	0.0000000E+000	-74.4415	0.0000000E+000	0.0000000E+000	0.0000000E+000	-15.5585	0.0000000E+000	0.0000000E+000	0.0000000E+000	15.5585	3.59164	74.4415	0.000000000000000E+000	-3.99983e-06	3.0295e-10	-4.00013e-06	3.9694	3.9386e+06	298.312	3.9389e+06
0.00129428	52.9307	14.881	54.9828	-15.7029	20329.8	3.9691	-0.00100774	8.26342e+06	605302	1	11	0.00508931	9.25618e-05	0	-0.0152384	-0.000300622	8.04415e-07	-22.4091	0.00869057	0.0080343	0.003313	-15.7039	54.9914	52.9388	14.8843	0.0175087	0.00492243	0.0181875	15.7029	6.05302e+08	2.15301e+09	2.23648e+09	-74.2971	0.0000000E+000	0.0000000E+000	0.0000000E+000	74.2971	0.0000000E+000	0.0000000E+000	0.0000000E+000	-74.2971	0.0000000E+000	0.0000000E+000	0.0000000E+000	-15.7029	0.0000000E+000	0.0000000E+000	0.0000000E+000	15.7029	3.55693	74.2971	0.000000000000000E+000	-3.99983e-06	3.0295e-10	-4.00013e-06	3.9694	3.9386e+06	298.312	3.9389e+06
0.000796479	57.4804	16.4154	59.7784	-15.9385	20329.8	3.9691	-0.00100774	1.21729e+07	917929	1	11	0.00508852	8.51229e-05	0	-0.0152384	-0.000300622	8.54076e-07	-39.5497	0.0100334	0.00773651	0.00638877	-15.9423	59.7876	57.4881	16.4218	0.0160854	0.00459371	0.0167284	15.9385	9.17929e+08	3.21423e+09	3.34273e+09	-74.0615	0.0000000E+000	0.0000000E+000	0.0000000E+000	74.0615	0.0000000E+000	0.0000000E+000	0.0000000E+000	-74.0615	0.0000000E+000	0.0000000E+000	0.0000000E+000	-15.9385	0.0000000E+000	0.0000000E+000	0.0000000E+000	15.9385	3.50161	74.0615	0.000000000000000E+000	-3.99983e-06	3.0295e-10	-4.00013e-06	3.9694	3.9386e+06	298.312	3.9389e+06
0.000497799	58.8312	19.4704	61.9694	-18.3121	20329.8	3.9691	-0.00100774	1.64207e+07	1.62101e+06	1	11	0.00509103	8.21539e-05	0	-0.0152384	-0.000300622	5.16223e-07	-8.55673	0.00628361	0.00621367	0.000934929	-18.3111	61.9756	58.8375	19.4713	0.0153198	0.00507013	0.016137	18.3121	1.62101e+09	4.898e+09	5.15927e+09	-71.6879	0.0000000E+000	0.0000000E+000	0.0000000E+000	71.6879	0.0000000E+000	0.0000000E+000	0.0000000E+000	-71.6879	0.0000000E+000	0.0000000E+000	0.0000000E+000	-18.3121	0.0000000E+000	0.0000000E+000	0.0000000E+000	18.3121	3.02158	71.6879	0.000000000000000E+000	-3.99983e-06	3.0295e-10	-4.00013e-06	3.9694	3.9386e+06	298.312	3.9389e+06
0.000298679	60.131	28.7936	66.6694	-25.5874	20329.8	3.9691	-0.00100774	1.85062e+07	3.4519e+06	1	11	0.00509132	7.63666e-05	0	-0.0152384	-0.000300622	7.22055e-07	-9.64536	0.00945512	0.00932146	0.0015842	-25.5851	66.6785	60.1403	28.7952	0.0135284	0.00647803	0.0149994	25.5874	3.4519e+09	7.20875e+09	7.9926e+09	-64.4126	0.0000000E+000	0.0000000E+000	0.0000000E+000	64.4126	0.0000000E+000	0.0000000E+000	0.0000000E+000	-64.4126	0.0000000E+000	0.0000000E+000	0.0000000E+000	-25.5874	0.0000000E+000	0.0000000E+000	0.0000000E+000	25.5874	2.08834	64.4126	0.000000000000000E+000	-3.99983e-06	3.0295e-10	-4.00013e-06	3.9694	3.9386e+06	298.312	3.9389e+06
9.95598e-05	69.6719	79.8871	106.001	-48.9074	20329.8	3.9691	-0.00100774	2.00106e+07	1.13657e+07	1	11	0.00508726	4.79928e-05	0	-0.0152384	-0.000300622	1.72243e-06	-98.5028	0.0358894	-0.00530652	0.035495	-48.9222	106.024	69.6666	79.9226	0.0062007	0.00710985	0.00943391	48.9074	1.13657e+10	9.91236e+09	1.50809e+10	-41.0926	0.0000000E+000	0.0000000E+000	0.0000000E+000	41.0926	0.0000000E+000	0.0000000E+000	0.0000000E+000	-41.0926	0.0000000E+000	0.0000000E+000	0.0000000E+000	-48.9074	0.0000000E+000	0.0000000E+000	0.0000000E+000	48.9074	0.872129	41.0926	0.000000000000000E+000	-3.99983e-06	3.0295e-10	-4.00013e-06	3.9694	3.9386e+06	298.312	3.9389e+06