File: txt/18801_R307_UC93_26p5_SOC50_C03.mpt
EC-Lab ASCII FILE
Nb header lines : 65

Potentio Electrochemical Impedance Spectroscopy

Run on channel : 3 (SN 65921)
Grouped channel(s) : 1, 2, 3, 4, 5
User :
CE vs. WE compliance from -10 V to 10 V
Electrode connection : standard
Potential control : Ewe
Ewe ctrl range : min = -10.00 V, max = 10.00 V
Safety Limits :
	Do not start on E overload
Acquisition started on : 11/04/2025 16:29:50.795
Loaded Setting File :  C:\Users\Celltest\OneDrive - store-dot.com\Documents\EC-Lab\Data\@Biologic Test Protocols\cathode half cell EIS SOC50.mps
Saved on :
	File : 18799_R307_UC93_26p5_SOC00_C03.mpr
	Directory : C:\Users\Celltest\OneDrive - store-dot.com\Documents\EC-Lab\Data\Anna\
	Host : 169.254.61.224
Device : VMP-3e (SN .003165)
Address : USB
EC-LAB for windows v11.62 (software)
Internet server v27.00 (firmware)
Command interpretor v12.03 (firmware)
Electrode material :
Initial state :
Electrolyte :
Comments :
Electrode surface area : 0.001 cm²
Characteristic mass : 0.001 g
Equivalent Weight : 0.000 g/eq.
Density : 0.000 g/cm3
Volume (V) : 0.001 cm³
Record Ece
Cycle Definition : Charge/Discharge alternance
Mode                Multi sine
E (V)               0.0000
vs.                 Eoc
tE (h:m:s)          0:00:0.0000
record              0
dI                  0.000
unit dI             mA
dt (s)              0.000
fi                  1.000
unit fi             MHz
ff                  0.100
unit ff             mHz
Nd                  10
Points              per decade
spacing             Logarithmic
Va (mV)             5.0
pw                  0.10
Na                  2
corr                0
E range min (V)     -10.000
E range max (V)     10.000
I Range             Auto
Bandwidth           5
nc cycles           0
goto Ns'            0
nr cycles           0
inc. cycle          0

freq/Hz	Re(Z)/Ohm	-Im(Z)/Ohm	|Z|/Ohm	Phase(Z)/deg	time/s	<Ewe>/V	<I>/mA	Cs/µF	Cp/µF	cycle number	I Range	|Ewe|/V	|I|/A	Ns	(Q-Qo)/mA.h	<Ece>/V	|Ece|/V	Phase(Zce)/deg	|Zce|/Ohm	Re(Zce)/Ohm	-Im(Zce)/Ohm	Phase(Zwe-ce)/deg	|Zwe-ce|/Ohm	Re(Zwe-ce)/Ohm	-Im(Zwe-ce)/Ohm	Re(Y)/Ohm-1	Im(Y)/Ohm-1	|Y|/Ohm-1	Phase(Y)/deg	Re(C)/nF	Im(C)/nF	|C|/nF	Phase(C)/deg	Re(M)	Im(M)	|M|	Phase(M)/deg	Re(Permittivity)	Im(Permittivity)	|Permittivity|	Phase(Permittivity)/deg	Re(Resistivity)/Ohm.cm	Im(Resistivity)/Ohm.cm	|Resistivity|/Ohm.cm	Phase(Resistivity)/deg	Re(Conductivity)/mS/cm	Im(Conductivity)/mS/cm	|Conductivity|/mS/cm	Phase(Conductivity)/deg	Tan(Delta)	Loss Angle(Delta)/deg	dq/mA.h	Pwe/W	Pce/W	Pwe-ce/W	<Ewe-Ece>/V	Rwe/Ohm	Rce/Ohm	Rwe-ce/Ohm		Ewe-Ece/V
1.00002e+06	5.93193	5.6994	8.22624	-43.8547	2.23353	3.96861	-0.000548792	0.0279243	0.0134041	1	10	0.000196572	2.38958e-05	0	-7.97508e-06	0.000199977	0.000191783	-59.5259	8.02581	4.07028	6.91711	-51.5931	16.1003	10.0022	12.6165	0.0876584	0.0842223	0.121562	43.8547	13.4041	13.951	19.3469	-46.1453	0.0000000E+000	0.0000000E+000	0.0000000E+000	46.1453	0.0000000E+000	0.0000000E+000	0.0000000E+000	-46.1453	0.0000000E+000	0.0000000E+000	0.0000000E+000	-43.8547	0.0000000E+000	0.0000000E+000	0.0000000E+000	43.8547	1.0408	46.1453	-7.97508e-06	-2.17794e-06	-1.09746e-10	-2.17783e-06	3.96841	7.23153e+06	364.395	7.23117e+06
630957	0.530825	-0.849186	1.00144	57.9905	3.40252	3.96822	0.0284858	-0.297042	-0.213584	1	9	0.000182607	0.000182344	0	-1.29127e-07	4.72244e-05	0.000116373	-71.4221	0.638205	0.203328	0.604949	18.4012	0.773714	0.734153	-0.244237	0.529294	-0.846737	0.998557	-57.9905	-213.584	133.511	251.88	-147.991	0.0000000E+000	0.0000000E+000	0.0000000E+000	147.991	0.0000000E+000	0.0000000E+000	0.0000000E+000	-147.991	0.0000000E+000	0.0000000E+000	0.0000000E+000	57.9905	0.0000000E+000	0.0000000E+000	0.0000000E+000	-57.9905	0.625099	32.0095	2.78321e-06	0.000113038	1.34522e-09	0.000113037	3.96817	139305	1.65782	139304
398103	1.52672	-0.181503	1.53747	6.77976	4.16856	3.96833	0.0337815	-2.20262	-0.030697	1	9	0.000929797	0.000604759	0	6.5406e-06	-0.000296469	6.08783e-05	147.697	0.100665	-0.0850862	-0.0537947	9.26988	1.46071	1.44163	-0.235298	0.645872	-0.0767842	0.65042	-6.77976	-30.697	258.209	260.027	-96.7798	0.0000000E+000	0.0000000E+000	0.0000000E+000	96.7798	0.0000000E+000	0.0000000E+000	0.0000000E+000	-96.7798	0.0000000E+000	0.0000000E+000	0.0000000E+000	6.77976	0.0000000E+000	0.0000000E+000	0.0000000E+000	-6.77976	8.41152	83.2202	3.20393e-06	0.000134056	-1.00152e-08	0.000134066	3.96862	117470	8.77607	117479
251206	1.4961	0.276741	1.52148	-10.4798	4.93456	3.96824	0.0350868	2.28937	0.0757405	1	9	0.00285484	0.00187635	0	1.11328e-05	-0.000220093	5.70713e-05	89.403	0.0304161	0.000316917	-0.0304145	-9.34764	1.51656	1.49642	0.246326	0.646289	0.119547	0.657253	10.4798	75.7405	409.465	416.411	-79.5202	0.0000000E+000	0.0000000E+000	0.0000000E+000	79.5202	0.0000000E+000	0.0000000E+000	0.0000000E+000	-79.5202	0.0000000E+000	0.0000000E+000	0.0000000E+000	-10.4798	0.0000000E+000	0.0000000E+000	0.0000000E+000	10.4798	5.40616	79.5202	9.00372e-07	0.000139233	-7.72235e-09	0.00013924	3.96846	113098	6.2728	113104
158486	1.60574	0.480679	1.67614	-16.6651	5.57654	3.96812	-0.0356963	2.08917	0.171816	1	9	0.00471986	0.00281591	0	2.44316e-06	-6.734e-05	5.15732e-05	64.1954	0.0183149	0.00797256	-0.0164886	-16.0481	1.67915	1.61371	0.464191	0.57155	0.171094	0.596609	16.6651	171.816	573.962	599.127	-73.3349	0.0000000E+000	0.0000000E+000	0.0000000E+000	73.3349	0.0000000E+000	0.0000000E+000	0.0000000E+000	-73.3349	0.0000000E+000	0.0000000E+000	0.0000000E+000	-16.6651	0.0000000E+000	0.0000000E+000	0.0000000E+000	16.6651	3.34056	73.3349	-7.88902e-06	-0.000141647	2.40379e-09	-0.00014165	3.96818	111163	1.88647	111165
100004	1.72051	0.710399	1.8614	-22.4357	6.59054	3.96815	0.0273671	2.24028	0.326306	1	9	0.00519496	0.00279088	0	1.75033e-05	-0.00016281	3.06033e-05	48.7981	0.0109654	0.0072231	-0.00825032	-22.1168	1.86496	1.72773	0.702148	0.496565	0.205032	0.537229	22.4357	326.306	790.279	854.995	-67.5643	0.0000000E+000	0.0000000E+000	0.0000000E+000	67.5643	0.0000000E+000	0.0000000E+000	0.0000000E+000	-67.5643	0.0000000E+000	0.0000000E+000	0.0000000E+000	-22.4357	0.0000000E+000	0.0000000E+000	0.0000000E+000	22.4357	2.42189	67.5643	3.11381e-06	0.000108597	-4.45565e-09	0.000108601	3.96832	144997	5.94913	145003
63093.8	1.92422	0.955278	2.1483	-26.4021	7.48053	3.96816	0.0371007	2.64061	0.522124	1	9	0.00523976	0.00243903	0	3.69863e-05	-0.000124622	2.53105e-05	39.107	0.0103773	0.00805244	-0.00654568	-26.1507	2.15262	1.93227	0.948732	0.416933	0.206986	0.465485	26.4021	522.124	1051.72	1174.19	-63.5979	0.0000000E+000	0.0000000E+000	0.0000000E+000	63.5979	0.0000000E+000	0.0000000E+000	0.0000000E+000	-63.5979	0.0000000E+000	0.0000000E+000	0.0000000E+000	-26.4021	0.0000000E+000	0.0000000E+000	0.0000000E+000	26.4021	2.01431	63.5979	1.27801e-05	0.000147222	-4.62357e-09	0.000147226	3.96829	106956	3.35903	106960
39814.1	2.19661	1.22025	2.51279	-29.0529	8.24852	3.96814	0.0254651	3.27592	0.772542	1	9	0.00480054	0.00191044	0	4.08339e-05	-0.000143716	1.52037e-05	24.2513	0.00795821	0.00725592	-0.00326876	-28.9077	2.51755	2.20386	1.21699	0.347889	0.193258	0.397964	29.0529	772.542	1390.67	1590.84	-60.9471	0.0000000E+000	0.0000000E+000	0.0000000E+000	60.9471	0.0000000E+000	0.0000000E+000	0.0000000E+000	-60.9471	0.0000000E+000	0.0000000E+000	0.0000000E+000	-29.0529	0.0000000E+000	0.0000000E+000	0.0000000E+000	29.0529	1.80012	60.9471	6.92942e-07	0.000101049	-3.65975e-09	0.000101053	3.96829	155827	5.64366	155832
25116.9	2.59143	1.50277	2.99563	-30.1094	9.01655	3.96815	0.0245327	4.2166	1.06113	1	9	0.00500025	0.00166918	0	4.671e-05	-0.000239187	9.43548e-06	6.65509	0.00565277	0.00561468	-0.000655112	-30.0448	3.00016	2.59704	1.50211	0.288777	0.167461	0.333819	30.1094	1061.13	1829.85	2115.27	-59.8906	0.0000000E+000	0.0000000E+000	0.0000000E+000	59.8906	0.0000000E+000	0.0000000E+000	0.0000000E+000	-59.8906	0.0000000E+000	0.0000000E+000	0.0000000E+000	-30.1094	0.0000000E+000	0.0000000E+000	0.0000000E+000	30.1094	1.72444	59.8906	2.04564e-06	9.73495e-05	-5.8679e-09	9.73554e-05	3.96839	161749	9.74969	161759
15847.7	3.08691	1.72235	3.53489	-29.1594	10.5276	3.96813	0.0259126	5.83088	1.38427	1	9	0.00488419	0.00138171	0	5.37296e-05	-6.734e-05	1.18472e-05	-16.7494	0.00857436	0.00821059	0.00247101	-29.1296	3.54327	3.09512	1.72482	0.247042	0.137838	0.282894	29.1594	1384.27	2480.99	2841.04	-60.8406	0.0000000E+000	0.0000000E+000	0.0000000E+000	60.8406	0.0000000E+000	0.0000000E+000	0.0000000E+000	-60.8406	0.0000000E+000	0.0000000E+000	0.0000000E+000	-29.1594	0.0000000E+000	0.0000000E+000	0.0000000E+000	29.1594	1.79227	60.8406	4.31881e-06	0.000102824	-1.74495e-09	0.000102826	3.96819	153135	2.59874	153138
10002.2	3.59566	2.07565	4.15176	-29.9963	11.4175	3.96811	0.0198337	7.66601	1.91608	1	9	0.00485022	0.00116823	0	6.07018e-05	-0.00016281	1.04874e-05	-79.3592	0.0089772	0.00165766	0.00882282	-30.0902	4.15761	3.59732	2.08447	0.2086	0.120417	0.240862	29.9963	1916.08	3319.23	3832.58	-60.0037	0.0000000E+000	0.0000000E+000	0.0000000E+000	60.0037	0.0000000E+000	0.0000000E+000	0.0000000E+000	-60.0037	0.0000000E+000	0.0000000E+000	0.0000000E+000	-29.9963	0.0000000E+000	0.0000000E+000	0.0000000E+000	29.9963	1.73231	60.0037	2.04877e-06	7.87025e-05	-3.22914e-09	7.87057e-05	3.96827	200069	8.20876	200077
6309.38	4.11721	2.55258	4.84429	-31.798	12.3425	3.96814	-0.0127459	9.88219	2.7438	1	10	0.00457559	0.000944533	0	6.24402e-05	-0.000353751	9.68917e-06	-43.67	0.0102582	0.00742002	0.00708329	-31.8229	4.85433	4.12463	2.55967	0.175446	0.108773	0.206429	31.798	2743.8	4425.65	5207.19	-58.202	0.0000000E+000	0.0000000E+000	0.0000000E+000	58.202	0.0000000E+000	0.0000000E+000	0.0000000E+000	-58.202	0.0000000E+000	0.0000000E+000	0.0000000E+000	-31.798	0.0000000E+000	0.0000000E+000	0.0000000E+000	31.798	1.61296	58.202	-1.52381e-07	-5.05776e-05	4.50889e-09	-5.05821e-05	3.96849	311325	27.754	311353
3983.6	4.80723	3.06141	5.69927	-32.4904	13.049	3.96815	-0.0091774	13.0504	3.76554	1	10	0.00501927	0.000880686	0	5.82875e-05	-6.734e-05	6.54351e-06	-80.7213	0.00743001	0.00119799	0.0073328	-32.5461	5.70422	4.80842	3.06875	0.147998	0.0942505	0.175461	32.4904	3765.54	5912.9	7010.11	-57.5096	0.0000000E+000	0.0000000E+000	0.0000000E+000	57.5096	0.0000000E+000	0.0000000E+000	0.0000000E+000	-57.5096	0.0000000E+000	0.0000000E+000	0.0000000E+000	-32.4904	0.0000000E+000	0.0000000E+000	0.0000000E+000	32.4904	1.57026	57.5096	-3.97507e-06	-3.64173e-05	6.18006e-10	-3.64179e-05	3.96822	432383	7.3376	432390
2510.8	5.62274	3.7291	6.74695	-33.553	14.2648	3.96814	-0.0123059	16.9982	5.19273	1	10	0.00592154	0.000877661	0	5.49216e-05	-0.000315563	9.63493e-06	-74.1279	0.010978	0.00300238	0.0105594	-33.6136	6.7553	5.62574	3.73966	0.123519	0.0819197	0.148215	33.553	5192.73	7829.61	9395.06	-56.447	0.0000000E+000	0.0000000E+000	0.0000000E+000	56.447	0.0000000E+000	0.0000000E+000	0.0000000E+000	-56.447	0.0000000E+000	0.0000000E+000	0.0000000E+000	-33.553	0.0000000E+000	0.0000000E+000	0.0000000E+000	33.553	1.5078	56.447	-2.72434e-06	-4.88317e-05	3.88329e-09	-4.88356e-05	3.96846	322458	25.6432	322483
1585.51	6.70217	4.55861	8.10556	-34.2223	15.3809	3.96813	-0.0115042	22.0201	6.96496	1	10	0.00489368	0.000603744	0	5.24451e-05	-2.91519e-05	5.54094e-06	-49.5867	0.00917764	0.00594983	0.00698775	-34.2395	8.11441	6.70812	4.5656	0.102012	0.0693852	0.123372	34.2223	6964.96	10240	12384.2	-55.7777	0.0000000E+000	0.0000000E+000	0.0000000E+000	55.7777	0.0000000E+000	0.0000000E+000	0.0000000E+000	-55.7777	0.0000000E+000	0.0000000E+000	0.0000000E+000	-34.2223	0.0000000E+000	0.0000000E+000	0.0000000E+000	34.2223	1.47022	55.7777	-1.70746e-06	-4.56503e-05	3.3537e-10	-4.56506e-05	3.96816	344928	2.53401	344930
1000.32	8.08066	5.53021	9.79185	-34.3868	16.2828	3.96814	-0.0119778	28.7699	9.17684	1	10	0.00538352	0.000549796	0	4.9135e-05	-0.000124622	9.43015e-06	-15.2786	0.0171521	0.0165459	0.0045198	-34.354	9.80806	8.09721	5.53473	0.0842786	0.0576783	0.102126	34.3868	9176.84	13409.1	16248.6	-55.6132	0.0000000E+000	0.0000000E+000	0.0000000E+000	55.6132	0.0000000E+000	0.0000000E+000	0.0000000E+000	-55.6132	0.0000000E+000	0.0000000E+000	0.0000000E+000	-34.3868	0.0000000E+000	0.0000000E+000	0.0000000E+000	34.3868	1.46118	55.6132	-1.34056e-06	-4.75296e-05	1.4927e-09	-4.75311e-05	3.96827	331291	10.4044	331302
631.01	9.88686	6.57946	11.876	-33.6428	17.1856	3.96814	-0.0118585	38.3348	11.7662	1	10	0.00533401	0.000449142	0	4.66407e-05	2.81303e-05	6.58436e-06	26.1463	0.0146598	0.0131597	-0.00646006	-33.5817	11.8834	9.90002	6.573	0.0701	0.0466499	0.0842035	33.6428	11766.2	17680.8	21238	-56.3572	0.0000000E+000	0.0000000E+000	0.0000000E+000	56.3572	0.0000000E+000	0.0000000E+000	0.0000000E+000	-56.3572	0.0000000E+000	0.0000000E+000	0.0000000E+000	-33.6428	0.0000000E+000	0.0000000E+000	0.0000000E+000	33.6428	1.50268	56.3572	-1.52637e-06	-4.70561e-05	-3.33583e-10	-4.70558e-05	3.96811	334624	2.37217	334622
398.089	12.2296	7.54117	14.3678	-31.6592	18.0868	3.96814	-0.0116646	53.0153	14.6049	1	10	0.00489077	0.000340398	0	4.35133e-05	2.81303e-05	1.25806e-05	24.3135	0.0369586	0.0336806	-0.0152169	-31.5373	14.3885	12.2633	7.52595	0.0592425	0.0365307	0.0696001	31.6592	14604.9	23685	27825.9	-58.3408	0.0000000E+000	0.0000000E+000	0.0000000E+000	58.3408	0.0000000E+000	0.0000000E+000	0.0000000E+000	-58.3408	0.0000000E+000	0.0000000E+000	0.0000000E+000	-31.6592	0.0000000E+000	0.0000000E+000	0.0000000E+000	31.6592	1.62172	58.3408	-1.73065e-06	-4.62866e-05	-3.28128e-10	-4.62863e-05	3.96811	340187	2.4116	340184
251.044	15.0482	8.06335	17.0724	-28.184	18.985	3.96814	-0.0109337	78.6238	17.5387	1	10	0.00482678	0.000282725	0	4.09497e-05	8.54125e-05	1.89676e-05	13.9032	0.0670885	0.065123	-0.0161201	-28.0335	17.1222	15.1133	8.04723	0.0516294	0.0276648	0.0585742	28.184	17538.7	32731.6	37134.4	-61.816	0.0000000E+000	0.0000000E+000	0.0000000E+000	61.816	0.0000000E+000	0.0000000E+000	0.0000000E+000	-61.816	0.0000000E+000	0.0000000E+000	0.0000000E+000	-28.184	0.0000000E+000	0.0000000E+000	0.0000000E+000	28.184	1.86625	61.816	-1.35672e-06	-4.33865e-05	-9.33876e-10	-4.33856e-05	3.96805	362927	7.81184	362919
158.428	18.1688	8.08934	19.8882	-24.0002	19.8899	3.96814	-0.0117503	124.186	20.5451	1	10	0.00462576	0.000232588	0	3.84198e-05	-4.8246e-05	5.78035e-06	55.0432	0.0248523	0.0142393	-0.0203686	-23.93	19.893	18.183	8.06897	0.0459339	0.0204513	0.050281	24.0002	20545.1	46144.6	50511.6	-65.9998	0.0000000E+000	0.0000000E+000	0.0000000E+000	65.9998	0.0000000E+000	0.0000000E+000	0.0000000E+000	-65.9998	0.0000000E+000	0.0000000E+000	0.0000000E+000	-24.0002	0.0000000E+000	0.0000000E+000	0.0000000E+000	24.0002	2.24601	65.9998	-1.43023e-06	-4.6627e-05	5.66907e-10	-4.66276e-05	3.96819	337704	4.10592	337708
100.032	21.0236	7.28085	22.2487	-19.1018	21.0338	3.96814	-0.0167702	218.524	23.4021	1	11	0.00461403	0.000207384	0	3.38536e-05	-0.000277375	1.18444e-05	9.64635	0.0571134	0.0563059	-0.00957028	-19.0313	22.2988	21.08	7.27128	0.0424716	0.0147086	0.0449465	19.1018	23402.1	67574.1	71511.6	-70.8982	0.0000000E+000	0.0000000E+000	0.0000000E+000	70.8982	0.0000000E+000	0.0000000E+000	0.0000000E+000	-70.8982	0.0000000E+000	0.0000000E+000	0.0000000E+000	-19.1018	0.0000000E+000	0.0000000E+000	0.0000000E+000	19.1018	2.88753	70.8982	-2.82657e-06	-6.65465e-05	4.65163e-09	-6.65512e-05	3.96842	236618	16.5397	236635
63.0823	23.3377	5.9972	24.096	-14.4117	21.95	3.96815	-0.0165573	420.692	26.0599	1	11	0.00461131	0.000191373	0	2.97192e-05	-0.000124622	7.61383e-06	-3.67047	0.0397854	0.0397038	0.00254698	-14.3941	24.135	23.3774	5.99974	0.0401948	0.010329	0.0415007	14.4117	26059.9	101410	104705	-75.5883	0.0000000E+000	0.0000000E+000	0.0000000E+000	75.5883	0.0000000E+000	0.0000000E+000	0.0000000E+000	-75.5883	0.0000000E+000	0.0000000E+000	0.0000000E+000	-14.4117	0.0000000E+000	0.0000000E+000	0.0000000E+000	14.4117	3.89144	75.5883	-2.0301e-06	-6.57018e-05	2.06341e-09	-6.57038e-05	3.96827	239662	7.52673	239669
39.8089	24.8884	4.6584	25.3206	-10.6015	22.8508	3.96815	-0.0166177	858.229	29.0488	1	11	0.00460878	0.000182017	0	2.60473e-05	-8.64341e-05	1.06447e-05	8.72363	0.0584821	0.0578055	-0.00886989	-10.5578	25.3758	24.9462	4.64953	0.0388194	0.00726589	0.0394936	10.6015	29048.8	155199	157894	-79.3985	0.0000000E+000	0.0000000E+000	0.0000000E+000	79.3985	0.0000000E+000	0.0000000E+000	0.0000000E+000	-79.3985	0.0000000E+000	0.0000000E+000	0.0000000E+000	-10.6015	0.0000000E+000	0.0000000E+000	0.0000000E+000	10.6015	5.34269	79.3985	-1.89227e-06	-6.59415e-05	1.43634e-09	-6.59429e-05	3.96823	238791	5.20133	238796
25.1044	25.7931	3.47826	26.0266	-7.68014	23.7301	3.96814	-0.0165498	1822.67	32.5535	1	11	0.00459214	0.00017644	0	2.20859e-05	6.63184e-05	6.5802e-06	37.6273	0.0372941	0.0295369	-0.0227689	-7.62183	26.0528	25.8226	3.45549	0.0380776	0.00513485	0.0384223	7.68014	32553.5	241401	243586	-82.3199	0.0000000E+000	0.0000000E+000	0.0000000E+000	82.3199	0.0000000E+000	0.0000000E+000	0.0000000E+000	-82.3199	0.0000000E+000	0.0000000E+000	0.0000000E+000	-7.68014	0.0000000E+000	0.0000000E+000	0.0000000E+000	7.68014	7.41552	82.3199	-2.05689e-06	-6.56721e-05	-1.09756e-09	-6.5671e-05	3.96808	239770	4.0072	239766
15.8576	26.4003	2.60539	26.5285	-5.63615	24.608	3.96813	-0.0167952	3852.22	37.1561	1	11	0.00459028	0.000173032	0	1.88861e-05	-8.64341e-05	8.72494e-06	-124.179	0.0504239	-0.0283269	0.0417152	-5.73191	26.5045	26.3719	2.6471	0.037513	0.00370209	0.0376953	5.63615	37156.1	376500	378330	-84.3638	0.0000000E+000	0.0000000E+000	0.0000000E+000	84.3638	0.0000000E+000	0.0000000E+000	0.0000000E+000	-84.3638	0.0000000E+000	0.0000000E+000	0.0000000E+000	-5.63615	0.0000000E+000	0.0000000E+000	0.0000000E+000	5.63615	10.133	84.3638	-1.43491e-06	-6.66455e-05	1.45168e-09	-6.6647e-05	3.96822	236266	5.14636	236271
10.0032	26.8743	1.97657	26.9469	-4.20646	25.5898	3.96814	-0.0159125	8049.49	43.3089	1	11	0.0046032	0.000170825	0	1.38857e-05	-4.8246e-05	1.14118e-05	-49.384	0.066804	0.0434884	0.0507103	-4.30704	26.994	26.9178	2.02728	0.0370101	0.00272205	0.0371101	4.20646	43308.9	588845	590436	-85.7935	0.0000000E+000	0.0000000E+000	0.0000000E+000	85.7935	0.0000000E+000	0.0000000E+000	0.0000000E+000	-85.7935	0.0000000E+000	0.0000000E+000	0.0000000E+000	-4.20646	0.0000000E+000	0.0000000E+000	0.0000000E+000	4.20646	13.5964	85.7935	-1.99554e-06	-6.31432e-05	7.67716e-10	-6.3144e-05	3.96819	249372	3.03195	249375
6.31058	27.1832	1.65141	27.2333	-3.47652	26.5123	3.96813	-0.0169936	15272	56.1572	1	11	0.00459594	0.000168761	0	1.10292e-05	2.81303e-05	1.24298e-05	8.46197	0.0736531	0.0728513	-0.0108383	-3.44455	27.3054	27.2561	1.64058	0.0366521	0.00222666	0.0367197	3.47652	56157.1	924379	926083	-86.5235	0.0000000E+000	0.0000000E+000	0.0000000E+000	86.5235	0.0000000E+000	0.0000000E+000	0.0000000E+000	-86.5235	0.0000000E+000	0.0000000E+000	0.0000000E+000	-3.47652	0.0000000E+000	0.0000000E+000	0.0000000E+000	3.47652	16.4606	86.5235	-5.08202e-07	-6.74327e-05	-4.78034e-10	-6.74323e-05	3.9681	233508	1.65535	233506
3.97785	27.5004	1.37502	27.5347	-2.86242	27.5193	3.96816	-0.0153987	29097.9	72.564	1	11	0.00460283	0.000167165	0	4.1326e-06	-8.64341e-05	2.54858e-06	16.4121	0.0152459	0.0146247	-0.00430765	-2.85195	27.5491	27.515	1.37072	0.0362725	0.00181363	0.0363178	2.86242	72564	1.45127e+06	1.45309e+06	-87.1376	0.0000000E+000	0.0000000E+000	0.0000000E+000	87.1376	0.0000000E+000	0.0000000E+000	0.0000000E+000	-87.1376	0.0000000E+000	0.0000000E+000	0.0000000E+000	-2.86242	0.0000000E+000	0.0000000E+000	0.0000000E+000	2.86242	19.9999	87.1376	-3.3114e-06	-6.11044e-05	1.33097e-09	-6.11057e-05	3.96824	257695	5.61309	257700
2.51367	27.711	1.251	27.7392	-2.58483	29.0789	3.96814	-0.0153059	50612	102.939	1	11	0.0045975	0.00016574	0	1.55094e-06	-0.000220093	5.36727e-06	63.5624	0.0323837	0.014418	-0.028997	-2.52369	27.7524	27.7254	1.222	0.0360133	0.0016258	0.03605	2.58483	102939	2.28021e+06	2.28253e+06	-87.4152	0.0000000E+000	0.0000000E+000	0.0000000E+000	87.4152	0.0000000E+000	0.0000000E+000	0.0000000E+000	-87.4152	0.0000000E+000	0.0000000E+000	0.0000000E+000	-2.58483	0.0000000E+000	0.0000000E+000	0.0000000E+000	2.58483	22.1511	87.4152	-1.25398e-06	-6.07362e-05	3.36872e-09	-6.07395e-05	3.96836	259255	14.3795	259269
1.58469	27.9839	1.27777	28.013	-2.61437	31.5145	3.96815	-0.0145096	78600.2	163.535	1	11	0.00460167	0.000164269	0	-1.1359e-05	0.000180883	4.90093e-06	19.5063	0.0298348	0.0281224	-0.00996216	-2.59141	28.0407	28.012	1.26781	0.0356605	0.0016283	0.0356977	2.61437	163535	3.5815e+06	3.58523e+06	-87.3856	0.0000000E+000	0.0000000E+000	0.0000000E+000	87.3856	0.0000000E+000	0.0000000E+000	0.0000000E+000	-87.3856	0.0000000E+000	0.0000000E+000	0.0000000E+000	-2.61437	0.0000000E+000	0.0000000E+000	0.0000000E+000	2.61437	21.9005	87.3856	-8.49545e-06	-5.75763e-05	-2.62454e-09	-5.75736e-05	3.96797	273484	12.4664	273472
1.00469	28.2122	1.32622	28.2434	-2.69142	243.244	3.96811	-0.0132843	119446	263.371	1	11	0.00503765	0.000178366	0	-0.0015167	-4.8246e-05	3.15827e-07	-30.6697	0.00177067	0.001523	0.000903199	-2.6931	28.2449	28.2138	1.32712	0.0353675	0.00166258	0.0354065	2.69142	263371	5.60261e+06	5.6088e+06	-87.3086	0.0000000E+000	0.0000000E+000	0.0000000E+000	87.3086	0.0000000E+000	0.0000000E+000	0.0000000E+000	-87.3086	0.0000000E+000	0.0000000E+000	0.0000000E+000	-2.69142	0.0000000E+000	0.0000000E+000	0.0000000E+000	2.69142	21.2727	87.3086	-0.00149087	-5.27134e-05	6.40912e-10	-5.27141e-05	3.96816	298708	3.63181	298711
0.632957	28.5321	1.46826	28.5699	-2.94583	243.246	3.96811	-0.0132843	171255	452.305	1	11	0.00504947	0.000176741	0	-0.0015167	-4.8246e-05	4.65501e-07	-44.4376	0.0026338	0.00188057	0.00184401	-2.94933	28.5718	28.534	1.4701	0.0349557	0.00179881	0.0350019	2.94583	452305	8.78948e+06	8.80111e+06	-87.0542	0.0000000E+000	0.0000000E+000	0.0000000E+000	87.0542	0.0000000E+000	0.0000000E+000	0.0000000E+000	-87.0542	0.0000000E+000	0.0000000E+000	0.0000000E+000	-2.94583	0.0000000E+000	0.0000000E+000	0.0000000E+000	2.94583	19.4327	87.0542	0.000000000000000E+000	-5.27134e-05	6.40912e-10	-5.27141e-05	3.96816	298708	3.63181	298711
0.401878	28.7835	1.74492	28.8363	-3.46916	243.248	3.96811	-0.0132843	226961	831.041	1	11	0.0050623	0.000175553	0	-0.0015167	-4.8246e-05	3.6384e-07	4.64038	0.00207253	0.00206574	-0.000167671	-3.46857	28.8384	28.7855	1.74475	0.034615	0.00209844	0.0346785	3.46916	831041	1.37085e+07	1.37337e+07	-86.5308	0.0000000E+000	0.0000000E+000	0.0000000E+000	86.5308	0.0000000E+000	0.0000000E+000	0.0000000E+000	-86.5308	0.0000000E+000	0.0000000E+000	0.0000000E+000	-3.46916	0.0000000E+000	0.0000000E+000	0.0000000E+000	3.46916	16.4956	86.5308	0.000000000000000E+000	-5.27134e-05	6.40912e-10	-5.27141e-05	3.96816	298708	3.63181	298711
0.251173	29.3304	2.11424	29.4065	-4.12295	243.25	3.96811	-0.0132843	299704	1549.22	1	11	0.00506516	0.000172246	0	-0.0015167	-4.8246e-05	3.34699e-07	27.099	0.00194314	0.00172982	-0.000885158	-4.12099	29.4082	29.3321	2.11335	0.0339181	0.00244494	0.0340061	4.12295	1.54922e+06	2.1492e+07	2.15478e+07	-85.877	0.0000000E+000	0.0000000E+000	0.0000000E+000	85.877	0.0000000E+000	0.0000000E+000	0.0000000E+000	-85.877	0.0000000E+000	0.0000000E+000	0.0000000E+000	-4.12295	0.0000000E+000	0.0000000E+000	0.0000000E+000	4.12295	13.8728	85.877	0.000000000000000E+000	-5.27134e-05	6.40912e-10	-5.27141e-05	3.96816	298708	3.63181	298711
0.160751	29.7857	2.43536	29.8851	-4.67425	243.252	3.96811	-0.0132843	406540	2699.72	1	11	0.00505827	0.000169257	0	-0.0015167	-4.8246e-05	7.37679e-07	-12.2205	0.00435833	0.00425958	0.000922548	-4.67535	29.8894	29.79	2.43628	0.0333502	0.0027268	0.0334615	4.67425	2.69972e+06	3.3019e+07	3.31292e+07	-85.3257	0.0000000E+000	0.0000000E+000	0.0000000E+000	85.3257	0.0000000E+000	0.0000000E+000	0.0000000E+000	-85.3257	0.0000000E+000	0.0000000E+000	0.0000000E+000	-4.67425	0.0000000E+000	0.0000000E+000	0.0000000E+000	4.67425	12.2305	85.3257	0.000000000000000E+000	-5.27134e-05	6.40912e-10	-5.27141e-05	3.96816	298708	3.63181	298711
0.100469	30.345	3.36378	30.5309	-6.32547	243.253	3.96811	-0.0132843	470933	5716.55	1	11	0.00506016	0.000165739	0	-0.0015167	-4.8246e-05	4.34969e-07	9.66127	0.00262442	0.0025872	-0.000440438	-6.32412	30.5334	30.3476	3.36334	0.0325543	0.00360868	0.0327537	6.32547	5.71655e+06	5.15697e+07	5.18856e+07	-83.6745	0.0000000E+000	0.0000000E+000	0.0000000E+000	83.6745	0.0000000E+000	0.0000000E+000	0.0000000E+000	-83.6745	0.0000000E+000	0.0000000E+000	0.0000000E+000	-6.32547	0.0000000E+000	0.0000000E+000	0.0000000E+000	6.32547	9.02111	83.6745	0.000000000000000E+000	-5.27134e-05	6.40912e-10	-5.27141e-05	3.96816	298708	3.63181	298711
0.0602816	31.3352	4.07708	31.5993	-7.41322	243.255	3.96811	-0.0132843	647568	10780.3	1	11	0.00505457	0.000159958	0	-0.0015167	-4.8246e-05	6.08406e-07	28.6018	0.00380353	0.00333937	-0.00182082	-7.40917	31.6024	31.3385	4.07526	0.0313818	0.00408314	0.0316463	7.41322	1.07803e+07	8.28538e+07	8.35522e+07	-82.5868	0.0000000E+000	0.0000000E+000	0.0000000E+000	82.5868	0.0000000E+000	0.0000000E+000	0.0000000E+000	-82.5868	0.0000000E+000	0.0000000E+000	0.0000000E+000	-7.41322	0.0000000E+000	0.0000000E+000	0.0000000E+000	7.41322	7.68569	82.5868	0.000000000000000E+000	-5.27134e-05	6.40912e-10	-5.27141e-05	3.96816	298708	3.63181	298711
0.0401878	32.6804	4.87762	33.0424	-8.48886	243.257	3.96811	-0.0132843	811930	17692.6	1	11	0.00505554	0.000153002	0	-0.0015167	-4.8246e-05	5.25071e-07	45.4222	0.0034318	0.0024087	-0.00244446	-8.48405	33.0444	32.6828	4.87517	0.0299326	0.00446751	0.0302642	8.48886	1.76926e+07	1.18542e+08	1.19855e+08	-81.5111	0.0000000E+000	0.0000000E+000	0.0000000E+000	81.5111	0.0000000E+000	0.0000000E+000	0.0000000E+000	-81.5111	0.0000000E+000	0.0000000E+000	0.0000000E+000	-8.48886	0.0000000E+000	0.0000000E+000	0.0000000E+000	8.48886	6.70007	81.5111	0.000000000000000E+000	-5.27134e-05	6.40912e-10	-5.27141e-05	3.96816	298708	3.63181	298711
0.0200939	35.2141	7.0874	35.9203	-11.3796	243.259	3.96811	-0.0132843	1.11756e+06	43507.5	1	11	0.00506037	0.000140878	0	-0.0015167	-4.8246e-05	1.11411e-06	-107.148	0.00790835	-0.00233176	0.00755678	-11.3922	35.9195	35.2118	7.09495	0.0272922	0.00549298	0.0278394	11.3796	4.35075e+07	2.16169e+08	2.20504e+08	-78.6204	0.0000000E+000	0.0000000E+000	0.0000000E+000	78.6204	0.0000000E+000	0.0000000E+000	0.0000000E+000	-78.6204	0.0000000E+000	0.0000000E+000	0.0000000E+000	-11.3796	0.0000000E+000	0.0000000E+000	0.0000000E+000	11.3796	4.96855	78.6204	0.000000000000000E+000	-5.27134e-05	6.40912e-10	-5.27141e-05	3.96816	298708	3.63181	298711
0.00796479	39.8463	8.78051	40.8022	-12.4271	20332.1	3.96812	-0.000156911	2.27576e+06	105390	1	11	0.00505321	0.000123846	0	-0.0117425	9.03623e-06	4.10573e-07	-163.989	0.00331518	-0.00318658	0.000914384	-12.4293	40.7993	39.8431	8.78143	0.0239342	0.00527414	0.0245085	12.4271	1.0539e+08	4.78262e+08	4.89736e+08	-77.5729	0.0000000E+000	0.0000000E+000	0.0000000E+000	77.5729	0.0000000E+000	0.0000000E+000	0.0000000E+000	-77.5729	0.0000000E+000	0.0000000E+000	0.0000000E+000	-12.4271	0.0000000E+000	0.0000000E+000	0.0000000E+000	12.4271	4.53804	77.5729	-0.0102258	-6.2264e-07	-1.41788e-12	-6.22639e-07	3.96811	2.52891e+07	57.5884	2.5289e+07
0.00497799	43.1814	9.43214	44.1995	-12.3216	20332.1	3.96812	-0.000156911	3.38966e+06	154362	1	11	0.00506126	0.000114509	0	-0.0117425	9.03623e-06	7.25511e-07	-130.343	0.00633582	-0.00410155	0.00482907	-12.3289	44.1965	43.1773	9.43697	0.0221035	0.00482809	0.0226247	12.3216	1.54362e+08	7.06688e+08	7.2335e+08	-77.6784	0.0000000E+000	0.0000000E+000	0.0000000E+000	77.6784	0.0000000E+000	0.0000000E+000	0.0000000E+000	-77.6784	0.0000000E+000	0.0000000E+000	0.0000000E+000	-12.3216	0.0000000E+000	0.0000000E+000	0.0000000E+000	12.3216	4.57811	77.6784	0.000000000000000E+000	-6.2264e-07	-1.41788e-12	-6.22639e-07	3.96811	2.52891e+07	57.5884	2.5289e+07
0.00318591	45.566	11.3593	46.9606	-13.9981	20332.1	3.96812	-0.000156911	4.39778e+06	257319	1	11	0.00506272	0.000107808	0	-0.0117425	9.03623e-06	9.68109e-07	-176.999	0.00897995	-0.00896764	0.000470069	-14.0014	46.952	45.5571	11.3598	0.0206621	0.00515092	0.0212944	13.9981	2.57319e+08	1.03219e+09	1.06378e+09	-76.0019	0.0000000E+000	0.0000000E+000	0.0000000E+000	76.0019	0.0000000E+000	0.0000000E+000	0.0000000E+000	-76.0019	0.0000000E+000	0.0000000E+000	0.0000000E+000	-13.9981	0.0000000E+000	0.0000000E+000	0.0000000E+000	13.9981	4.01133	76.0019	0.000000000000000E+000	-6.2264e-07	-1.41788e-12	-6.22639e-07	3.96811	2.52891e+07	57.5884	2.5289e+07
0.0019912	48.5815	12.2647	50.1057	-14.1687	20332.1	3.96812	-0.000156911	6.517e+06	390472	1	11	0.00506748	0.000101136	0	-0.0117425	9.03623e-06	3.63261e-07	-76.2076	0.00359181	0.000856303	0.00348824	-14.1723	50.1074	48.5823	12.2682	0.0193507	0.00488522	0.0199578	14.1687	3.90472e+08	1.54669e+09	1.59521e+09	-75.8313	0.0000000E+000	0.0000000E+000	0.0000000E+000	75.8313	0.0000000E+000	0.0000000E+000	0.0000000E+000	-75.8313	0.0000000E+000	0.0000000E+000	0.0000000E+000	-14.1687	0.0000000E+000	0.0000000E+000	0.0000000E+000	14.1687	3.96107	75.8313	0.000000000000000E+000	-6.2264e-07	-1.41788e-12	-6.22639e-07	3.96811	2.52891e+07	57.5884	2.5289e+07
0.00129428	49.8833	13.1409	51.5852	-14.7583	20332.1	3.96812	-0.000156911	9.35768e+06	607250	1	11	0.00506521	9.81912e-05	0	-0.0117425	9.03623e-06	8.39604e-07	65.4139	0.0085507	0.0035576	-0.00777547	-14.7489	51.5866	49.8869	13.1331	0.0187459	0.00493827	0.0193854	14.7583	6.0725e+08	2.30515e+09	2.38379e+09	-75.2417	0.0000000E+000	0.0000000E+000	0.0000000E+000	75.2417	0.0000000E+000	0.0000000E+000	0.0000000E+000	-75.2417	0.0000000E+000	0.0000000E+000	0.0000000E+000	-14.7583	0.0000000E+000	0.0000000E+000	0.0000000E+000	14.7583	3.79604	75.2417	0.000000000000000E+000	-6.2264e-07	-1.41788e-12	-6.22639e-07	3.96811	2.52891e+07	57.5884	2.5289e+07
0.000796479	53.9203	15.1211	56.0004	-15.6653	20332.1	3.96812	-0.000156911	1.32149e+07	963486	1	11	0.00506718	9.04847e-05	0	-0.0117425	9.03623e-06	7.82035e-07	-159.141	0.00864274	-0.00807629	0.00307741	-15.6705	55.9935	53.9122	15.1241	0.0171937	0.00482169	0.017857	15.6653	9.63486e+08	3.43571e+09	3.56825e+09	-74.3347	0.0000000E+000	0.0000000E+000	0.0000000E+000	74.3347	0.0000000E+000	0.0000000E+000	0.0000000E+000	-74.3347	0.0000000E+000	0.0000000E+000	0.0000000E+000	-15.6653	0.0000000E+000	0.0000000E+000	0.0000000E+000	15.6653	3.56591	74.3347	0.000000000000000E+000	-6.2264e-07	-1.41788e-12	-6.22639e-07	3.96811	2.52891e+07	57.5884	2.5289e+07
0.000497799	54.5599	18.9161	57.746	-19.1216	20332.1	3.96812	-0.000156911	1.69019e+07	1.81365e+06	1	11	0.00506754	8.77556e-05	0	-0.0117425	9.03623e-06	1.02126e-06	-129.62	0.0116376	-0.00742113	0.00896434	-19.1324	57.742	54.5525	18.925	0.0163617	0.00567266	0.0173172	19.1216	1.81365e+09	5.23113e+09	5.53661e+09	-70.8784	0.0000000E+000	0.0000000E+000	0.0000000E+000	70.8784	0.0000000E+000	0.0000000E+000	0.0000000E+000	-70.8784	0.0000000E+000	0.0000000E+000	0.0000000E+000	-19.1216	0.0000000E+000	0.0000000E+000	0.0000000E+000	19.1216	2.88432	70.8784	0.000000000000000E+000	-6.2264e-07	-1.41788e-12	-6.22639e-07	3.96811	2.52891e+07	57.5884	2.5289e+07
0.000298679	55.0254	28.7597	62.0879	-27.5944	20332.1	3.96812	-0.000156911	1.85281e+07	3.97543e+06	1	11	0.00506563	8.15881e-05	0	-0.0117425	9.03623e-06	1.37184e-06	-106.217	0.0168142	-0.00469585	0.0161452	-27.6096	62.0912	55.0207	28.7758	0.0142741	0.00746053	0.0161062	27.5944	3.97543e+09	7.60613e+09	8.58238e+09	-62.4056	0.0000000E+000	0.0000000E+000	0.0000000E+000	62.4056	0.0000000E+000	0.0000000E+000	0.0000000E+000	-62.4056	0.0000000E+000	0.0000000E+000	0.0000000E+000	-27.5944	0.0000000E+000	0.0000000E+000	0.0000000E+000	27.5944	1.91328	62.4056	0.000000000000000E+000	-6.2264e-07	-1.41788e-12	-6.22639e-07	3.96811	2.52891e+07	57.5884	2.5289e+07
9.95598e-05	65.3043	84.9768	107.171	-52.4579	20332.1	3.96812	-0.000156911	1.8812e+07	1.18271e+07	1	11	0.00506797	4.72885e-05	0	-0.0117425	9.03623e-06	1.87894e-06	74.089	0.0397334	0.0108927	-0.0382112	-52.4408	107.148	65.3151	84.9386	0.0056857	0.00739849	0.00933085	52.4579	1.18271e+10	9.08908e+09	1.49162e+10	-37.5421	0.0000000E+000	0.0000000E+000	0.0000000E+000	37.5421	0.0000000E+000	0.0000000E+000	0.0000000E+000	-37.5421	0.0000000E+000	0.0000000E+000	0.0000000E+000	-52.4579	0.0000000E+000	0.0000000E+000	0.0000000E+000	52.4579	0.768495	37.5421	0.000000000000000E+000	-6.2264e-07	-1.41788e-12	-6.22639e-07	3.96811	2.52891e+07	57.5884	2.5289e+07