File: txt/18817_R307_UA701_3p24_SOC00_C04.mpt
EC-Lab ASCII FILE
Nb header lines : 65

Potentio Electrochemical Impedance Spectroscopy

Run on channel : 4 (SN 66756)
User :
CE vs. WE compliance from -10 V to 10 V
Electrode connection : standard
Potential control : Ewe
Ewe ctrl range : min = -10.00 V, max = 10.00 V
Safety Limits :
	Do not start on E overload
Acquisition started on : 11/03/2025 16:08:50.134
Technique started on : 11/03/2025 16:08:51.914
Loaded Setting File :  C:\Users\Celltest\OneDrive - store-dot.com\Documents\EC-Lab\Data\@Biologic Test Protocols\anode half cell EIS SOC00.mps
Saved on :
	File : 18817_R307_UA701_3p24_SOC00_C04.mpr
	Directory : C:\Users\Celltest\OneDrive - store-dot.com\Documents\EC-Lab\Data\Anna\
	Host : 169.254.61.224
Device : VMP-3e (SN .003165)
Address : USB
EC-LAB for windows v11.62 (software)
Internet server v27.00 (firmware)
Command interpretor v12.03 (firmware)
Electrode material :
Initial state :
Electrolyte :
Comments :
Electrode surface area : 0.001 cm²
Characteristic mass : 0.001 g
Equivalent Weight : 0.000 g/eq.
Density : 0.000 g/cm3
Volume (V) : 0.001 cm³
Record Ece
Cycle Definition : Charge/Discharge alternance
Mode                Single sine
E (V)               0.0000
vs.                 Eoc
tE (h:m:s)          0:00:0.0000
record              0
dI                  0.000
unit dI             mA
dt (s)              0.000
fi                  100.000
unit fi             kHz
ff                  10.000
unit ff             mHz
Nd                  6
Points              per decade
spacing             Logarithmic
Va (mV)             5.0
pw                  0.10
Na                  2
corr                0
E range min (V)     -10.000
E range max (V)     10.000
I Range             Auto
Bandwidth           5
nc cycles           0
goto Ns'            0
nr cycles           0
inc. cycle          0

freq/Hz	Re(Z)/Ohm	-Im(Z)/Ohm	|Z|/Ohm	Phase(Z)/deg	time/s	<Ewe>/V	<I>/mA	Cs/µF	Cp/µF	cycle number	I Range	|Ewe|/V	|I|/A	Ns	(Q-Qo)/mA.h	<Ece>/V	|Ece|/V	Phase(Zce)/deg	|Zce|/Ohm	Re(Zce)/Ohm	-Im(Zce)/Ohm	Phase(Zwe-ce)/deg	|Zwe-ce|/Ohm	Re(Zwe-ce)/Ohm	-Im(Zwe-ce)/Ohm	Re(Y)/Ohm-1	Im(Y)/Ohm-1	|Y|/Ohm-1	Phase(Y)/deg	Re(C)/nF	Im(C)/nF	|C|/nF	Phase(C)/deg	Re(M)	Im(M)	|M|	Phase(M)/deg	Re(Permittivity)	Im(Permittivity)	|Permittivity|	Phase(Permittivity)/deg	Re(Resistivity)/Ohm.cm	Im(Resistivity)/Ohm.cm	|Resistivity|/Ohm.cm	Phase(Resistivity)/deg	Re(Conductivity)/mS/cm	Im(Conductivity)/mS/cm	|Conductivity|/mS/cm	Phase(Conductivity)/deg	Tan(Delta)	Loss Angle(Delta)/deg	dq/mA.h	Pwe/W	Pce/W	Pwe-ce/W	<Ewe-Ece>/V	Rwe/Ohm	Rce/Ohm	Rwe-ce/Ohm		Ewe-Ece/V
100004	1.48327	0.170462	1.49304	-6.55582	1.77954	0.246641	-0.0168437	9.33636	0.1217	1	9	0.00209157	0.00140088	0	-6.35509e-06	-0.000283041	2.83844e-05	48.6066	0.0202618	0.0133976	-0.0152002	-5.92256	1.5047	1.49667	0.155261	0.665397	0.0764691	0.669776	6.55582	121.7	1058.97	1065.94	-83.4442	0.0000000E+000	0.0000000E+000	0.0000000E+000	83.4442	0.0000000E+000	0.0000000E+000	0.0000000E+000	-83.4442	0.0000000E+000	0.0000000E+000	0.0000000E+000	-6.55582	0.0000000E+000	0.0000000E+000	0.0000000E+000	6.55582	8.70151	83.4442	-6.35509e-06	-4.15434e-06	4.76746e-09	-4.15911e-06	0.246924	14642.9	16.804	14659.7
68132	1.54284	0.286563	1.56923	-10.5221	2.16252	0.246623	-0.020648	8.1517	0.271842	1	9	0.00324264	0.00206639	0	-7.2229e-06	-0.000149271	8.69407e-06	43.9477	0.00420737	0.0030292	-0.00291992	-10.3972	1.57168	1.54587	0.283643	0.62654	0.116372	0.637256	10.5221	271.842	1463.58	1488.62	-79.4779	0.0000000E+000	0.0000000E+000	0.0000000E+000	79.4779	0.0000000E+000	0.0000000E+000	0.0000000E+000	-79.4779	0.0000000E+000	0.0000000E+000	0.0000000E+000	-10.5221	0.0000000E+000	0.0000000E+000	0.0000000E+000	10.5221	5.38395	79.4779	-8.6781e-07	-5.09228e-06	3.08216e-09	-5.09537e-06	0.246773	11944.2	7.22933	11951.4
46420.4	1.62844	0.370769	1.67012	-12.8266	2.42152	0.246627	-0.0193053	9.24715	0.455743	1	9	0.00491486	0.00294282	0	-7.15066e-06	-3.46116e-05	6.3112e-06	-72.6994	0.00214461	0.000637773	0.00204758	-12.8902	1.6712	1.62908	0.372817	0.583818	0.132926	0.59876	12.8266	455.743	2001.66	2052.88	-77.1734	0.0000000E+000	0.0000000E+000	0.0000000E+000	77.1734	0.0000000E+000	0.0000000E+000	0.0000000E+000	-77.1734	0.0000000E+000	0.0000000E+000	0.0000000E+000	-12.8266	0.0000000E+000	0.0000000E+000	0.0000000E+000	12.8266	4.39207	77.1734	7.22463e-08	-4.76122e-06	6.68188e-10	-4.76188e-06	0.246662	12775.1	1.79286	12776.9
31621.1	0.0333406	-0.319555	0.32129	84.0436	2.5766	0.246633	-0.0245643	-15.7506	-15.581	1	9	8.08598e-05	0.000251673	0	-8.07148e-06	-0.000149271	1.00746e-05	-2.34767	0.0400306	0.039997	0.00163978	77.0101	0.326264	0.0733376	-0.317915	0.322984	-3.09565	3.11246	-84.0436	-15581	1625.64	15665.6	-174.044	0.0000000E+000	0.0000000E+000	0.0000000E+000	174.044	0.0000000E+000	0.0000000E+000	0.0000000E+000	-174.044	0.0000000E+000	0.0000000E+000	0.0000000E+000	84.0436	0.0000000E+000	0.0000000E+000	0.0000000E+000	-84.0436	0.104335	5.95638	-9.20821e-07	-6.05837e-06	3.66674e-09	-6.06203e-06	0.246782	10040.3	6.07676	10046.4
21544.7	1.85575	0.506895	1.92373	-15.2776	3.44153	0.246618	-0.0206107	14.5734	1.01184	1	9	0.00486708	0.00253002	0	-3.86029e-05	2.27182e-05	4.82723e-06	18.51	0.00190798	0.00180928	-0.000605726	-15.246	1.92532	1.85755	0.50629	0.501453	0.136972	0.519824	15.2776	1011.84	3704.34	3840.04	-74.7224	0.0000000E+000	0.0000000E+000	0.0000000E+000	74.7224	0.0000000E+000	0.0000000E+000	0.0000000E+000	-74.7224	0.0000000E+000	0.0000000E+000	0.0000000E+000	-15.2776	0.0000000E+000	0.0000000E+000	0.0000000E+000	15.2776	3.661	74.7224	-3.05314e-05	-5.08298e-06	-4.68239e-10	-5.08251e-06	0.246596	11965.5	1.10225	11964.4
14678.6	1.97186	0.597821	2.0605	-16.866	3.94853	0.24662	-0.0277345	18.137	1.52673	1	9	0.00512057	0.00248512	0	-4.52462e-05	-9.19415e-05	6.30015e-06	-67.3683	0.00253515	0.000975541	0.00233994	-16.9204	2.06211	1.97284	0.600161	0.464445	0.140808	0.48532	16.866	1526.73	5035.81	5262.16	-73.134	0.0000000E+000	0.0000000E+000	0.0000000E+000	73.134	0.0000000E+000	0.0000000E+000	0.0000000E+000	-73.134	0.0000000E+000	0.0000000E+000	0.0000000E+000	-16.866	0.0000000E+000	0.0000000E+000	0.0000000E+000	16.866	3.29842	73.134	-6.64327e-06	-6.83987e-06	2.54995e-09	-6.84242e-06	0.246712	8892.16	3.31506	8895.47
10002.2	2.12339	0.6905	2.23284	-18.0139	4.45552	0.246623	-0.0284058	23.0441	2.2038	1	9	0.00512763	0.00229646	0	-5.37147e-05	-1.55017e-05	3.52729e-06	-95.8894	0.00153597	-0.000157604	0.00152786	-18.0524	2.23316	2.12323	0.692028	0.425907	0.1385	0.44786	18.0139	2203.8	6777.01	7126.33	-71.9861	0.0000000E+000	0.0000000E+000	0.0000000E+000	71.9861	0.0000000E+000	0.0000000E+000	0.0000000E+000	-71.9861	0.0000000E+000	0.0000000E+000	0.0000000E+000	-18.0139	0.0000000E+000	0.0000000E+000	0.0000000E+000	18.0139	3.07515	71.9861	-8.46859e-06	-7.00554e-06	4.40338e-10	-7.00598e-06	0.246639	8682.13	0.545722	8682.68
6810.42	2.25146	0.762577	2.3771	-18.7114	4.96254	0.246629	-0.026168	30.6452	3.15381	1	9	0.0049834	0.00209642	0	-5.96797e-05	-0.000225711	0.00016684	-64.4476	0.0795834	0.0343272	0.0717994	-20.0535	2.43331	2.28579	0.834376	0.398447	0.134955	0.420681	18.7114	3153.81	9311.43	9831.04	-71.2886	0.0000000E+000	0.0000000E+000	0.0000000E+000	71.2886	0.0000000E+000	0.0000000E+000	0.0000000E+000	-71.2886	0.0000000E+000	0.0000000E+000	0.0000000E+000	-18.7114	0.0000000E+000	0.0000000E+000	0.0000000E+000	18.7114	2.95244	71.2886	-5.96496e-06	-6.45378e-06	5.90641e-09	-6.45969e-06	0.246854	9424.81	8.62546	9433.44
4646	2.45435	0.923944	2.6225	-20.6289	5.48164	0.246623	-0.0193053	37.0762	4.6021	1	9	0.00511361	0.0019499	0	-6.65664e-05	4.18282e-05	1.61496e-05	-78.4151	0.00828229	0.00166325	0.00811356	-20.7818	2.62692	2.45601	0.932057	0.356867	0.134343	0.381316	20.6289	4602.1	12224.9	13062.5	-69.3711	0.0000000E+000	0.0000000E+000	0.0000000E+000	69.3711	0.0000000E+000	0.0000000E+000	0.0000000E+000	-69.3711	0.0000000E+000	0.0000000E+000	0.0000000E+000	-20.6289	0.0000000E+000	0.0000000E+000	0.0000000E+000	20.6289	2.65638	69.3711	-6.88672e-06	-4.76114e-06	-8.07507e-10	-4.76034e-06	0.246582	12774.9	2.16667	12772.7
3163.08	2.64939	1.08108	2.86147	-22.1978	6.20867	0.246624	-0.0266902	46.5429	6.64338	1	9	0.00510571	0.0017843	0	-7.31495e-05	-0.000149271	1.30716e-05	155.768	0.00732589	-0.00668039	-0.00300683	-22.1926	2.85415	2.64271	1.07807	0.32357	0.132032	0.349471	22.1978	6643.38	16280.9	17584.1	-67.8022	0.0000000E+000	0.0000000E+000	0.0000000E+000	67.8022	0.0000000E+000	0.0000000E+000	0.0000000E+000	-67.8022	0.0000000E+000	0.0000000E+000	0.0000000E+000	-22.1978	0.0000000E+000	0.0000000E+000	0.0000000E+000	22.1978	2.4507	67.8022	-6.58307e-06	-6.58244e-06	3.98408e-09	-6.58642e-06	0.246773	9240.24	5.59274	9245.83
2155.69	2.85886	1.2657	3.12651	-23.8804	7.08786	0.246631	-0.0247134	58.3314	9.55972	1	9	0.0051084	0.0016339	0	-7.29623e-05	0.000137378	5.45423e-06	86.2605	0.00333817	0.000217719	-0.00333106	-23.8229	3.12536	2.85908	1.26237	0.292464	0.129483	0.319845	23.8804	9559.72	21592.7	23614.2	-66.1196	0.0000000E+000	0.0000000E+000	0.0000000E+000	66.1196	0.0000000E+000	0.0000000E+000	0.0000000E+000	-66.1196	0.0000000E+000	0.0000000E+000	0.0000000E+000	-23.8804	0.0000000E+000	0.0000000E+000	0.0000000E+000	23.8804	2.25871	66.1196	1.87179e-07	-6.0951e-06	-3.39508e-09	-6.09171e-06	0.246494	9979.63	5.55884	9974.08
1468.59	3.12064	1.52564	3.47361	-26.0534	8.21309	0.24663	-0.00829814	71.0343	13.7028	1	10	0.0048948	0.00140914	0	-8.11201e-05	-5.37216e-05	7.32499e-06	-88.814	0.00519819	0.000107591	0.00519708	-26.1296	3.47599	3.12074	1.53083	0.258632	0.126442	0.287885	26.0534	13702.8	28028.6	31198.9	-63.9466	0.0000000E+000	0.0000000E+000	0.0000000E+000	63.9466	0.0000000E+000	0.0000000E+000	0.0000000E+000	-63.9466	0.0000000E+000	0.0000000E+000	0.0000000E+000	-26.0534	0.0000000E+000	0.0000000E+000	0.0000000E+000	26.0534	2.04546	63.9466	-8.15782e-06	-2.04657e-06	4.4579e-10	-2.04702e-06	0.246684	29721.1	6.47393	29727.6
1000.32	3.4106	1.84825	3.8792	-28.4539	8.87785	0.246627	-0.00825711	86.0834	19.5415	1	10	0.00538731	0.00138877	0	-8.42977e-05	-0.000359481	6.27714e-06	-118.182	0.00451994	-0.00213468	0.00398409	-28.5207	3.87923	3.40846	1.85224	0.226645	0.122822	0.257785	28.4539	19541.5	36060.1	41014.6	-61.5461	0.0000000E+000	0.0000000E+000	0.0000000E+000	61.5461	0.0000000E+000	0.0000000E+000	0.0000000E+000	-61.5461	0.0000000E+000	0.0000000E+000	0.0000000E+000	-28.4539	0.0000000E+000	0.0000000E+000	0.0000000E+000	28.4539	1.84531	61.5461	-3.17758e-06	-2.03643e-06	2.96827e-09	-2.0394e-06	0.246987	29868.5	43.5359	29912
681.09	3.75593	2.27963	4.3936	-31.2553	9.54259	0.246623	-0.00878307	102.506	27.5955	1	10	0.00518497	0.00118012	0	-8.49685e-05	-0.000340371	1.0575e-05	-30.801	0.00896097	0.00769703	0.00458853	-31.2544	4.40257	3.76363	2.28422	0.19457	0.118093	0.227604	31.2553	27595.5	45466.5	53185.7	-58.7447	0.0000000E+000	0.0000000E+000	0.0000000E+000	58.7447	0.0000000E+000	0.0000000E+000	0.0000000E+000	-58.7447	0.0000000E+000	0.0000000E+000	0.0000000E+000	-31.2553	0.0000000E+000	0.0000000E+000	0.0000000E+000	31.2553	1.64761	58.7447	-6.70766e-07	-2.1661e-06	2.9895e-09	-2.16909e-06	0.246963	28079.3	38.7531	28118.1
463.961	4.20998	2.85969	5.08938	-34.1869	10.2093	0.246619	-0.0090218	119.955	37.873	1	10	0.00504627	0.000991531	0	-8.70963e-05	-0.000263931	1.10613e-05	45.6219	0.0111558	0.00780226	-0.0079735	-34.0634	5.09136	4.21778	2.85172	0.162536	0.110405	0.196488	34.1869	37873	55755.7	67402.3	-55.8131	0.0000000E+000	0.0000000E+000	0.0000000E+000	55.8131	0.0000000E+000	0.0000000E+000	0.0000000E+000	-55.8131	0.0000000E+000	0.0000000E+000	0.0000000E+000	-34.1869	0.0000000E+000	0.0000000E+000	0.0000000E+000	34.1869	1.47218	55.8131	-2.12782e-06	-2.22495e-06	2.38113e-09	-2.22733e-06	0.246883	27335.9	29.2548	27365.1
316.316	4.85694	3.57576	6.03125	-36.3611	10.6571	0.246617	-0.00923816	140.712	49.4599	1	10	0.00483878	0.000802286	0	-8.84708e-05	3.60827e-06	6.74476e-06	-32.5792	0.00840692	0.00708408	0.00452684	-36.3559	6.03964	4.86403	3.58029	0.133521	0.0983002	0.165803	36.3611	49459.9	67181.2	83424.2	-53.6389	0.0000000E+000	0.0000000E+000	0.0000000E+000	53.6389	0.0000000E+000	0.0000000E+000	0.0000000E+000	-53.6389	0.0000000E+000	0.0000000E+000	0.0000000E+000	-36.3611	0.0000000E+000	0.0000000E+000	0.0000000E+000	36.3611	1.3583	53.6389	-1.3745e-06	-2.27828e-06	-3.33338e-11	-2.27825e-06	0.246613	26695.4	0.390583	26695
215.345	5.76969	4.41987	7.26805	-37.4539	11.1076	0.246633	-0.00784681	167.216	61.8386	1	10	0.00459628	0.000632395	0	-8.88844e-05	0.000137378	7.73273e-06	-67.0079	0.0122277	0.00477618	0.0112563	-37.5014	7.27869	5.77447	4.43112	0.109224	0.0836707	0.137589	37.4539	61838.6	80724.1	101688	-52.5461	0.0000000E+000	0.0000000E+000	0.0000000E+000	52.5461	0.0000000E+000	0.0000000E+000	0.0000000E+000	-52.5461	0.0000000E+000	0.0000000E+000	0.0000000E+000	-37.4539	0.0000000E+000	0.0000000E+000	0.0000000E+000	37.4539	1.3054	52.5461	-4.13598e-07	-1.93528e-06	-1.07798e-09	-1.9342e-06	0.246495	31431	17.5075	31413.5
146.737	7.05017	5.28414	8.81062	-36.8517	11.7655	0.246631	-0.00765658	205.26	73.8313	1	10	0.00497109	0.000564215	0	-9.03577e-05	-5.37216e-05	5.67101e-06	57.7338	0.0100511	0.00536584	-0.00849901	-36.7866	8.80982	7.05554	5.27564	0.0908211	0.0680708	0.113499	36.8517	73831.3	98506.8	123104	-53.1483	0.0000000E+000	0.0000000E+000	0.0000000E+000	53.1483	0.0000000E+000	0.0000000E+000	0.0000000E+000	-53.1483	0.0000000E+000	0.0000000E+000	0.0000000E+000	-36.8517	0.0000000E+000	0.0000000E+000	0.0000000E+000	36.8517	1.33421	53.1483	-1.47327e-06	-1.88835e-06	4.11324e-10	-1.88876e-06	0.246684	32211.6	7.0164	32218.6
100.032	8.65931	5.99602	10.5326	-34.7001	12.2168	0.246635	-0.00758197	265.349	85.9948	1	10	0.00485938	0.000461365	0	-9.15691e-05	-0.000225711	2.99101e-06	-69.2511	0.00648295	0.00229673	0.00606248	-34.7201	10.538	8.6616	6.00208	0.0780569	0.0540494	0.0949432	34.7001	85994.8	124192	151058	-55.2999	0.0000000E+000	0.0000000E+000	0.0000000E+000	55.2999	0.0000000E+000	0.0000000E+000	0.0000000E+000	-55.2999	0.0000000E+000	0.0000000E+000	0.0000000E+000	-34.7001	0.0000000E+000	0.0000000E+000	0.0000000E+000	34.7001	1.44418	55.2999	-1.2114e-06	-1.86998e-06	1.71134e-09	-1.87169e-06	0.246861	32529.1	29.7695	32558.9
68.104	10.5762	6.42179	12.3732	-31.2659	12.6794	0.246624	-0.00761928	363.908	98.0263	1	10	0.00480574	0.000388401	0	-9.26652e-05	-0.000168381	7.83044e-06	12.0914	0.0201607	0.0197135	-0.00422312	-31.2019	12.3878	10.5959	6.41757	0.0690824	0.0419464	0.0808201	31.2659	98026.4	161442	188872	-58.7341	0.0000000E+000	0.0000000E+000	0.0000000E+000	58.7341	0.0000000E+000	0.0000000E+000	0.0000000E+000	-58.7341	0.0000000E+000	0.0000000E+000	0.0000000E+000	-31.2659	0.0000000E+000	0.0000000E+000	0.0000000E+000	31.2659	1.64692	58.7341	-1.09614e-06	-1.8791e-06	1.28294e-09	-1.88038e-06	0.246793	32368.5	22.0994	32390.6
46.4415	12.5793	6.4913	14.1554	-27.295	13.1157	0.24662	-0.00858913	527.937	111.019	1	10	0.00477919	0.000337622	0	-9.37852e-05	-0.000359481	8.48368e-06	-39.5814	0.0251277	0.0193664	0.0160107	-27.3167	14.18	12.5987	6.50731	0.0627785	0.0323955	0.0706442	27.295	111019	215142	242097	-62.7049	0.0000000E+000	0.0000000E+000	0.0000000E+000	62.7049	0.0000000E+000	0.0000000E+000	0.0000000E+000	-62.7049	0.0000000E+000	0.0000000E+000	0.0000000E+000	-27.295	0.0000000E+000	0.0000000E+000	0.0000000E+000	27.295	1.93788	62.7049	-1.11996e-06	-2.11825e-06	3.08763e-09	-2.12134e-06	0.246979	28713.1	41.853	28754.9
31.6296	14.4612	6.26236	15.7589	-23.4148	13.5456	0.246622	-0.00789531	803.505	126.885	1	10	0.00475809	0.000301929	0	-9.42081e-05	0.000175598	6.8423e-06	4.87653	0.0226619	0.0225799	-0.00192646	-23.3758	15.7789	14.4838	6.26044	0.0582306	0.0252165	0.063456	23.4148	126885	293007	319301	-66.5852	0.0000000E+000	0.0000000E+000	0.0000000E+000	66.5852	0.0000000E+000	0.0000000E+000	0.0000000E+000	-66.5852	0.0000000E+000	0.0000000E+000	0.0000000E+000	-23.4148	0.0000000E+000	0.0000000E+000	0.0000000E+000	23.4148	2.30923	66.5852	-4.22945e-07	-1.94716e-06	-1.3864e-09	-1.94577e-06	0.246446	31236.5	22.2408	31214.3
21.5517	16.1699	5.8077	17.1813	-19.7566	14.1984	0.246623	-0.00671899	1271.55	145.289	1	11	0.00476045	0.000277072	0	-9.48209e-05	-0.000111051	7.71082e-06	6.33803	0.0278296	0.0276595	-0.00307223	-19.7158	17.2063	16.1976	5.80462	0.0547769	0.019674	0.0582029	19.7566	145289	404516	429816	-70.2434	0.0000000E+000	0.0000000E+000	0.0000000E+000	70.2434	0.0000000E+000	0.0000000E+000	0.0000000E+000	-70.2434	0.0000000E+000	0.0000000E+000	0.0000000E+000	-19.7566	0.0000000E+000	0.0000000E+000	0.0000000E+000	19.7566	2.78422	70.2434	-6.12786e-07	-1.65705e-06	7.46153e-10	-1.6578e-06	0.246734	36705.3	16.528	36721.8
14.6852	17.5487	5.27521	18.3244	-16.731	14.6592	0.246632	-0.00646455	2054.48	170.264	1	11	0.00474721	0.000259065	0	-9.56205e-05	6.09381e-05	5.34293e-06	90.9358	0.0206239	-0.00033683	-0.0206211	-16.6696	18.3181	17.5483	5.25459	0.0522619	0.0157102	0.0545721	16.731	170264	566404	591442	-73.269	0.0000000E+000	0.0000000E+000	0.0000000E+000	73.269	0.0000000E+000	0.0000000E+000	0.0000000E+000	-73.269	0.0000000E+000	0.0000000E+000	0.0000000E+000	-16.731	0.0000000E+000	0.0000000E+000	0.0000000E+000	16.731	3.32662	73.269	-7.99612e-07	-1.59437e-06	-3.93937e-10	-1.59397e-06	0.246571	38151.5	9.42651	38142.1
10.0032	18.7807	4.80945	19.3868	-14.3639	15.1099	0.246622	-0.0065996	3308.15	203.594	1	11	0.00475928	0.000245491	0	-9.8173e-05	0.000252038	5.65238e-06	7.73476	0.0230248	0.0228153	-0.00309885	-14.3383	19.4081	18.8036	4.80635	0.0499691	0.0127963	0.0515816	14.3639	203594	795029	820683	-75.6361	0.0000000E+000	0.0000000E+000	0.0000000E+000	75.6361	0.0000000E+000	0.0000000E+000	0.0000000E+000	-75.6361	0.0000000E+000	0.0000000E+000	0.0000000E+000	-14.3639	0.0000000E+000	0.0000000E+000	0.0000000E+000	14.3639	3.90496	75.6361	-2.55252e-06	-1.62761e-06	-1.66335e-09	-1.62594e-06	0.24637	37369.2	38.1898	37331
6.81719	19.8294	4.3969	20.311	-12.5023	15.4495	0.246628	-0.00659848	5309.67	248.828	1	11	0.00473989	0.000233366	0	-9.76839e-05	-0.000168381	1.01708e-05	17.7743	0.043583	0.0415027	-0.0133045	-12.4404	20.3487	19.8709	4.3836	0.0480669	0.0106582	0.0492344	12.5023	248828	1.12218e+06	1.14943e+06	-77.4977	0.0000000E+000	0.0000000E+000	0.0000000E+000	77.4977	0.0000000E+000	0.0000000E+000	0.0000000E+000	-77.4977	0.0000000E+000	0.0000000E+000	0.0000000E+000	-12.5023	0.0000000E+000	0.0000000E+000	0.0000000E+000	12.5023	4.50985	77.4977	4.89096e-07	-1.62737e-06	1.11106e-09	-1.62848e-06	0.246796	37376.5	25.5182	37402
4.63925	20.7681	3.96351	21.1429	-10.8048	15.9335	0.246623	-0.00617392	8655.51	304.175	1	11	0.00474175	0.000224272	0	-9.67632e-05	-0.000244821	1.41406e-05	13.2541	0.0630511	0.0613716	-0.0144558	-10.7353	21.2005	20.8294	3.94905	0.0464587	0.00886647	0.0472972	10.8048	304175	1.59382e+06	1.62259e+06	-79.1952	0.0000000E+000	0.0000000E+000	0.0000000E+000	79.1952	0.0000000E+000	0.0000000E+000	0.0000000E+000	-79.1952	0.0000000E+000	0.0000000E+000	0.0000000E+000	-10.8048	0.0000000E+000	0.0000000E+000	0.0000000E+000	10.8048	5.23982	79.1952	9.20723e-07	-1.52263e-06	1.51151e-09	-1.52414e-06	0.246868	39945.9	39.6541	39985.6
3.1604	21.6834	3.71724	21.9997	-9.72782	16.6265	0.246628	-0.00588385	13547.4	386.782	1	11	0.00474443	0.000215659	0	-9.98347e-05	0.000137378	6.16941e-06	-71.0736	0.0286072	0.00927884	0.0270606	-9.79316	22.0134	21.6926	3.7443	0.0448016	0.00768047	0.0454552	9.72782	386782	2.25617e+06	2.28909e+06	-80.2722	0.0000000E+000	0.0000000E+000	0.0000000E+000	80.2722	0.0000000E+000	0.0000000E+000	0.0000000E+000	-80.2722	0.0000000E+000	0.0000000E+000	0.0000000E+000	-9.72782	0.0000000E+000	0.0000000E+000	0.0000000E+000	9.72782	5.83318	80.2722	-3.07146e-06	-1.45112e-06	-8.08311e-10	-1.45031e-06	0.246491	41916.1	23.3483	41892.8
2.15577	22.5504	3.39722	22.8049	-8.56718	17.6301	0.24663	-0.00550033	21731.8	482.266	1	11	0.0047496	0.000208271	0	-0.000105024	-0.000168381	5.0462e-06	93.9596	0.024229	-0.00167311	-0.0241711	-8.50774	22.7996	22.5487	3.37304	0.043361	0.00653233	0.0438503	8.56718	482266	3.20124e+06	3.23736e+06	-81.4328	0.0000000E+000	0.0000000E+000	0.0000000E+000	81.4328	0.0000000E+000	0.0000000E+000	0.0000000E+000	-81.4328	0.0000000E+000	0.0000000E+000	0.0000000E+000	-8.56718	0.0000000E+000	0.0000000E+000	0.0000000E+000	8.56718	6.63791	81.4328	-5.18957e-06	-1.35655e-06	9.26152e-10	-1.35747e-06	0.246799	44839.2	30.613	44869.8
1.46631	23.3578	3.12666	23.5662	-7.62424	19.0915	0.246629	-0.0060245	34714.7	611.078	1	11	0.00474844	0.000201494	0	-0.000108894	3.60827e-06	4.52143e-06	39.04	0.0224396	0.0174289	-0.0141338	-7.58458	23.5816	23.3753	3.11252	0.0420586	0.00562992	0.0424337	7.62424	611078	4.56509e+06	4.6058e+06	-82.3758	0.0000000E+000	0.0000000E+000	0.0000000E+000	82.3758	0.0000000E+000	0.0000000E+000	0.0000000E+000	-82.3758	0.0000000E+000	0.0000000E+000	0.0000000E+000	-7.62424	0.0000000E+000	0.0000000E+000	0.0000000E+000	7.62424	7.47054	82.3758	-3.87018e-06	-1.48581e-06	-2.1738e-11	-1.48579e-06	0.246625	40937.6	0.598933	40937
1.00006	24.0191	2.88118	24.1913	-6.84017	22.265	0.246628	-0.00577201	55235.9	783.512	1	12	0.00474649	0.000196207	0	-0.000110129	0.000194708	3.07985e-06	-55.2117	0.015697	0.00895586	0.0128914	-6.86795	24.2017	24.028	2.89408	0.041043	0.00492327	0.0413372	6.84017	783512	6.53178e+06	6.5786e+06	-83.1598	0.0000000E+000	0.0000000E+000	0.0000000E+000	83.1598	0.0000000E+000	0.0000000E+000	0.0000000E+000	-83.1598	0.0000000E+000	0.0000000E+000	0.0000000E+000	-6.84017	0.0000000E+000	0.0000000E+000	0.0000000E+000	6.84017	8.33653	83.1598	-1.2342e-06	-1.42354e-06	-1.12386e-09	-1.42241e-06	0.246433	42728.2	33.7331	42694.5
0.681362	24.6135	2.6471	24.7555	-6.13837	25.3772	0.24663	-0.00562046	88241.2	1008.95	1	12	0.0047441	0.000191638	0	-0.000106419	-0.000225711	3.32152e-06	-40.5477	0.0173322	0.0131702	0.0112673	-6.16103	24.7698	24.6267	2.65837	0.0401635	0.00431945	0.0403951	6.13837	1.00895e+06	9.38153e+06	9.43563e+06	-83.8616	0.0000000E+000	0.0000000E+000	0.0000000E+000	83.8616	0.0000000E+000	0.0000000E+000	0.0000000E+000	-83.8616	0.0000000E+000	0.0000000E+000	0.0000000E+000	-6.13837	0.0000000E+000	0.0000000E+000	0.0000000E+000	6.13837	9.2983	83.8616	3.70971e-06	-1.38617e-06	1.2686e-09	-1.38744e-06	0.246855	43880.7	40.1589	43920.9
0.464091	25.1208	2.49675	25.2446	-5.67597	29.9338	0.246636	-0.00444056	137354	1343.55	1	12	0.00474764	0.000188065	0	-0.000103617	-7.28316e-05	2.8285e-06	3.22937	0.01504	0.0150161	-0.000847252	-5.67068	25.2595	25.1359	2.4959	0.0394182	0.00391776	0.0396124	5.67597	1.34355e+06	1.35181e+07	1.35847e+07	-84.324	0.0000000E+000	0.0000000E+000	0.0000000E+000	84.324	0.0000000E+000	0.0000000E+000	0.0000000E+000	-84.324	0.0000000E+000	0.0000000E+000	0.0000000E+000	-5.67597	0.0000000E+000	0.0000000E+000	0.0000000E+000	5.67597	10.0614	84.324	2.80162e-06	-1.0952e-06	3.23413e-10	-1.09552e-06	0.246708	55541.6	16.4014	55558
0.316193	25.5909	2.50339	25.7131	-5.58708	36.6098	0.246638	-0.00324516	201066	1905.84	1	12	0.00474647	0.000184593	0	-0.000108241	-7.28316e-05	3.83494e-06	6.9419	0.0207751	0.0206228	-0.00251093	-5.57705	25.7334	25.6116	2.50088	0.0387059	0.00378634	0.0388907	5.58708	1.90584e+06	1.94825e+07	1.95755e+07	-84.4129	0.0000000E+000	0.0000000E+000	0.0000000E+000	84.4129	0.0000000E+000	0.0000000E+000	0.0000000E+000	-84.4129	0.0000000E+000	0.0000000E+000	0.0000000E+000	-5.58708	0.0000000E+000	0.0000000E+000	0.0000000E+000	5.58708	10.2225	84.4129	-4.62329e-06	-8.00379e-07	2.3635e-10	-8.00615e-07	0.24671	76001.6	22.4431	76024
0.215268	26.0025	2.68915	26.1412	-5.90447	46.4023	0.246631	-0.00255753	274933	2909.41	1	12	0.00474492	0.000181512	0	-0.000129141	-0.000225711	2.46978e-06	21.1371	0.0136067	0.0126913	-0.00490661	-5.89092	26.1533	26.0152	2.68424	0.0380509	0.00393518	0.0382538	5.90447	2.90941e+06	2.81323e+07	2.82824e+07	-84.0955	0.0000000E+000	0.0000000E+000	0.0000000E+000	84.0955	0.0000000E+000	0.0000000E+000	0.0000000E+000	-84.0955	0.0000000E+000	0.0000000E+000	0.0000000E+000	-5.90447	0.0000000E+000	0.0000000E+000	0.0000000E+000	5.90447	9.66942	84.0955	-2.09009e-05	-6.30766e-07	5.77264e-10	-6.31343e-07	0.246856	96433	88.2535	96521.3
0.146929	26.4052	3.04216	26.5799	-6.5721	60.7407	0.246624	-0.00251422	356067	4664.33	1	12	0.00474624	0.000178565	0	-0.000172097	-0.000225711	2.58547e-06	-0.48147	0.0144792	0.0144786	0.00012167	-6.56879	26.5943	26.4197	3.04228	0.0373752	0.00430602	0.0376225	6.5721	4.66433e+06	4.04853e+07	4.07531e+07	-83.4279	0.0000000E+000	0.0000000E+000	0.0000000E+000	83.4279	0.0000000E+000	0.0000000E+000	0.0000000E+000	-83.4279	0.0000000E+000	0.0000000E+000	0.0000000E+000	-6.5721	0.0000000E+000	0.0000000E+000	0.0000000E+000	6.5721	8.67976	83.4279	-4.29551e-05	-6.20067e-07	5.67488e-10	-6.20635e-07	0.246849	98091.4	89.7737	98181.2
0.0999041	26.9564	3.63741	27.2007	-7.68488	81.8169	0.246622	-0.00297275	437971	7831.92	1	12	0.00475182	0.000174695	0	-0.000234637	-1.55017e-05	2.28415e-06	8.07756	0.0130751	0.0129454	-0.00183722	-7.6774	27.2133	26.9694	3.63557	0.0364336	0.00491622	0.0367637	7.68488	7.83192e+06	5.80415e+07	5.85675e+07	-82.3151	0.0000000E+000	0.0000000E+000	0.0000000E+000	82.3151	0.0000000E+000	0.0000000E+000	0.0000000E+000	-82.3151	0.0000000E+000	0.0000000E+000	0.0000000E+000	-7.68488	0.0000000E+000	0.0000000E+000	0.0000000E+000	7.68488	7.41089	82.3151	-6.25404e-05	-7.33145e-07	4.60826e-11	-7.33191e-07	0.246637	82960.9	5.2146	82966.1
0.0680626	27.6671	4.596	28.0462	-9.43173	112.744	0.246623	-0.00341913	508782	13662.9	1	12	0.00474603	0.000169222	0	-0.000302041	-0.000149271	3.06404e-06	-4.06625	0.0181067	0.0180611	0.00128394	-9.42827	28.0642	27.6851	4.59728	0.0351734	0.00584294	0.0356554	9.43173	1.36629e+07	8.22482e+07	8.33753e+07	-80.5683	0.0000000E+000	0.0000000E+000	0.0000000E+000	80.5683	0.0000000E+000	0.0000000E+000	0.0000000E+000	-80.5683	0.0000000E+000	0.0000000E+000	0.0000000E+000	-9.43173	0.0000000E+000	0.0000000E+000	0.0000000E+000	9.43173	6.01982	80.5683	-6.74036e-05	-8.43237e-07	5.10379e-10	-8.43747e-07	0.246772	72130.2	43.6576	72173.8
0.0464052	28.545	6.025	29.1739	-11.9185	158.096	0.246623	-0.00373442	569241	24278.5	1	12	0.00474728	0.000162724	0	-0.000340665	-0.000206601	2.71961e-06	35.8839	0.0167131	0.013541	-0.00979629	-11.8942	29.1851	28.5585	6.01521	0.0335383	0.00707896	0.0342772	11.9185	2.42785e+07	1.15026e+08	1.1756e+08	-78.0815	0.0000000E+000	0.0000000E+000	0.0000000E+000	78.0815	0.0000000E+000	0.0000000E+000	0.0000000E+000	-78.0815	0.0000000E+000	0.0000000E+000	0.0000000E+000	-11.9185	0.0000000E+000	0.0000000E+000	0.0000000E+000	11.9185	4.73775	78.0815	-3.86242e-05	-9.20994e-07	7.71536e-10	-9.21766e-07	0.24683	66040.5	55.3235	66095.8
0.0315922	29.4848	7.85986	30.5145	-14.9264	224.7	0.246615	-0.00349709	640952	42524.9	1	12	0.00474699	0.000155565	0	-0.000304352	-0.000225711	2.92014e-06	21.1729	0.0187711	0.017504	-0.00677981	-14.9057	30.5296	29.5023	7.85308	0.0316656	0.00844118	0.0327713	14.9264	4.25249e+07	1.59524e+08	1.65095e+08	-75.0736	0.0000000E+000	0.0000000E+000	0.0000000E+000	75.0736	0.0000000E+000	0.0000000E+000	0.0000000E+000	-75.0736	0.0000000E+000	0.0000000E+000	0.0000000E+000	-14.9264	0.0000000E+000	0.0000000E+000	0.0000000E+000	14.9264	3.75132	75.0736	3.63128e-05	-8.62436e-07	7.89333e-10	-8.63226e-07	0.246841	70520	64.5425	70584.5
0.0215268	30.8378	10.1062	32.4515	-18.145	322.439	0.246614	-0.00273187	731567	70950.8	1	12	0.00474679	0.000146273	0	-0.000183088	-0.000168381	3.02836e-06	-6.55976	0.0207034	0.0205679	0.00236515	-18.1377	32.4718	30.8583	10.1085	0.0292828	0.00959657	0.0308152	18.145	7.09508e+07	2.16498e+08	2.27827e+08	-71.855	0.0000000E+000	0.0000000E+000	0.0000000E+000	71.855	0.0000000E+000	0.0000000E+000	0.0000000E+000	-71.855	0.0000000E+000	0.0000000E+000	0.0000000E+000	-18.145	0.0000000E+000	0.0000000E+000	0.0000000E+000	18.145	3.05138	71.855	0.000121264	-6.73719e-07	4.59997e-10	-6.74179e-07	0.246783	90272.9	61.6358	90334.6
0.0146812	32.7974	13.2118	35.3584	-21.9411	465.74	0.246613	-0.00195077	820538	114560	1	12	0.00474788	0.000134278	0	-4.99733e-05	-0.000340371	2.62029e-06	3.43603	0.0195138	0.0194788	-0.00116954	-21.9275	35.3761	32.8169	13.2106	0.0262333	0.0105676	0.0282818	21.9411	1.1456e+08	2.84389e+08	3.06596e+08	-68.059	0.0000000E+000	0.0000000E+000	0.0000000E+000	68.059	0.0000000E+000	0.0000000E+000	0.0000000E+000	-68.059	0.0000000E+000	0.0000000E+000	0.0000000E+000	-21.9411	0.0000000E+000	0.0000000E+000	0.0000000E+000	21.9411	2.48244	68.059	0.000133114	-4.81085e-07	6.63986e-10	-4.81749e-07	0.246953	126418	174.48	126592
0.0100092	35.1406	17.5537	39.281	-26.5434	675.922	0.246621	-0.00168709	905844	180895	1	12	0.00474629	0.000120829	0	-8.17386e-05	9.9158e-05	3.97095e-06	-2.56859	0.0328641	0.0328311	0.00147282	-26.5239	39.311	35.1734	17.5552	0.0227743	0.0113764	0.0254576	26.5434	1.80895e+08	3.62132e+08	4.04799e+08	-63.4566	0.0000000E+000	0.0000000E+000	0.0000000E+000	63.4566	0.0000000E+000	0.0000000E+000	0.0000000E+000	-63.4566	0.0000000E+000	0.0000000E+000	0.0000000E+000	-26.5434	0.0000000E+000	0.0000000E+000	0.0000000E+000	26.5434	2.00189	63.4566	-3.17654e-05	-4.16072e-07	-1.67289e-10	-4.15904e-07	0.246522	146181	58.7746	146122