File: txt/18816_R307_UA701_3p24_SOC00_C03.mpt
EC-Lab ASCII FILE
Nb header lines : 65

Potentio Electrochemical Impedance Spectroscopy

Run on channel : 3 (SN 65921)
User :
CE vs. WE compliance from -10 V to 10 V
Electrode connection : standard
Potential control : Ewe
Ewe ctrl range : min = -10.00 V, max = 10.00 V
Safety Limits :
	Do not start on E overload
Acquisition started on : 11/03/2025 16:08:41.593
Technique started on : 11/03/2025 16:08:43.462
Loaded Setting File :  C:\Users\Celltest\OneDrive - store-dot.com\Documents\EC-Lab\Data\@Biologic Test Protocols\anode half cell EIS SOC00.mps
Saved on :
	File : 18816_R307_UA701_3p24_SOC00_C03.mpr
	Directory : C:\Users\Celltest\OneDrive - store-dot.com\Documents\EC-Lab\Data\Anna\
	Host : 169.254.61.224
Device : VMP-3e (SN .003165)
Address : USB
EC-LAB for windows v11.62 (software)
Internet server v27.00 (firmware)
Command interpretor v12.03 (firmware)
Electrode material :
Initial state :
Electrolyte :
Comments :
Electrode surface area : 0.001 cm²
Characteristic mass : 0.001 g
Equivalent Weight : 0.000 g/eq.
Density : 0.000 g/cm3
Volume (V) : 0.001 cm³
Record Ece
Cycle Definition : Charge/Discharge alternance
Mode                Single sine
E (V)               0.0000
vs.                 Eoc
tE (h:m:s)          0:00:0.0000
record              0
dI                  0.000
unit dI             mA
dt (s)              0.000
fi                  100.000
unit fi             kHz
ff                  10.000
unit ff             mHz
Nd                  6
Points              per decade
spacing             Logarithmic
Va (mV)             5.0
pw                  0.10
Na                  2
corr                0
E range min (V)     -10.000
E range max (V)     10.000
I Range             Auto
Bandwidth           5
nc cycles           0
goto Ns'            0
nr cycles           0
inc. cycle          0

freq/Hz	Re(Z)/Ohm	-Im(Z)/Ohm	|Z|/Ohm	Phase(Z)/deg	time/s	<Ewe>/V	<I>/mA	Cs/µF	Cp/µF	cycle number	I Range	|Ewe|/V	|I|/A	Ns	(Q-Qo)/mA.h	<Ece>/V	|Ece|/V	Phase(Zce)/deg	|Zce|/Ohm	Re(Zce)/Ohm	-Im(Zce)/Ohm	Phase(Zwe-ce)/deg	|Zwe-ce|/Ohm	Re(Zwe-ce)/Ohm	-Im(Zwe-ce)/Ohm	Re(Y)/Ohm-1	Im(Y)/Ohm-1	|Y|/Ohm-1	Phase(Y)/deg	Re(C)/nF	Im(C)/nF	|C|/nF	Phase(C)/deg	Re(M)	Im(M)	|M|	Phase(M)/deg	Re(Permittivity)	Im(Permittivity)	|Permittivity|	Phase(Permittivity)/deg	Re(Resistivity)/Ohm.cm	Im(Resistivity)/Ohm.cm	|Resistivity|/Ohm.cm	Phase(Resistivity)/deg	Re(Conductivity)/mS/cm	Im(Conductivity)/mS/cm	|Conductivity|/mS/cm	Phase(Conductivity)/deg	Tan(Delta)	Loss Angle(Delta)/deg	dq/mA.h	Pwe/W	Pce/W	Pwe-ce/W	<Ewe-Ece>/V	Rwe/Ohm	Rce/Ohm	Rwe-ce/Ohm		Ewe-Ece/V
100004	1.19788	0.455366	1.28151	-20.814	1.86854	0.248206	0.0346766	3.49497	0.441284	1	9	0.00495475	0.00386633	0	-4.63763e-06	-4.23269e-05	4.71284e-05	71.0956	0.0121894	0.00394925	-0.0115319	-20.2691	1.28117	1.20183	0.443834	0.729402	0.277277	0.780327	20.814	441.284	1160.84	1241.88	-69.186	0.0000000E+000	0.0000000E+000	0.0000000E+000	69.186	0.0000000E+000	0.0000000E+000	0.0000000E+000	-69.186	0.0000000E+000	0.0000000E+000	0.0000000E+000	-20.814	0.0000000E+000	0.0000000E+000	0.0000000E+000	20.814	2.63059	69.186	-4.63763e-06	8.60693e-06	-1.46776e-09	8.6084e-06	0.248248	7157.73	1.22062	7158.95
68132	1.31983	0.506912	1.41383	-21.0105	2.37755	0.248188	0.0276281	4.60825	0.592391	1	9	0.00504629	0.00356924	0	1.17287e-06	-0.000175985	2.89332e-05	76.2571	0.00810626	0.00192576	-0.00787419	-20.6844	1.41283	1.32176	0.499038	0.660275	0.253594	0.7073	21.0105	592.391	1542.39	1652.24	-68.9895	0.0000000E+000	0.0000000E+000	0.0000000E+000	68.9895	0.0000000E+000	0.0000000E+000	0.0000000E+000	-68.9895	0.0000000E+000	0.0000000E+000	0.0000000E+000	-21.0105	0.0000000E+000	0.0000000E+000	0.0000000E+000	21.0105	2.60366	68.9895	5.8105e-06	6.85698e-06	-4.86215e-09	6.86184e-06	0.248364	8983.17	6.36979	8989.54
46420.4	1.44668	0.552131	1.54846	-20.8896	2.76253	0.24819	0.0307235	6.20969	0.789505	1	9	0.0054814	0.00353991	0	3.16136e-06	-8.05151e-05	1.50144e-05	52.5084	0.00424147	0.00258155	-0.00336536	-20.7393	1.54967	1.44926	0.548765	0.603355	0.230273	0.645804	20.8896	789.505	2068.64	2214.18	-69.1104	0.0000000E+000	0.0000000E+000	0.0000000E+000	69.1104	0.0000000E+000	0.0000000E+000	0.0000000E+000	-69.1104	0.0000000E+000	0.0000000E+000	0.0000000E+000	-20.8896	0.0000000E+000	0.0000000E+000	0.0000000E+000	20.8896	2.62017	69.1104	1.98848e-06	7.62526e-06	-2.47371e-09	7.62773e-06	0.24827	8078.16	2.62063	8080.79
31621.1	1.5827	0.604069	1.69406	-20.8903	3.14556	0.248185	0.0271433	8.33214	1.05942	1	9	0.005489	0.00324014	0	-2.84443e-06	-4.23269e-05	1.19104e-05	32.1758	0.00367587	0.00311133	-0.00195747	-20.7911	1.69627	1.58581	0.602111	0.551494	0.210488	0.590297	20.8903	1059.42	2775.77	2971.07	-69.1097	0.0000000E+000	0.0000000E+000	0.0000000E+000	69.1097	0.0000000E+000	0.0000000E+000	0.0000000E+000	-69.1097	0.0000000E+000	0.0000000E+000	0.0000000E+000	-20.8903	0.0000000E+000	0.0000000E+000	0.0000000E+000	20.8903	2.62007	69.1097	-6.00579e-06	6.73657e-06	-1.14889e-09	6.73772e-06	0.248228	9143.5	1.55939	9145.06
21544.7	1.72963	0.655302	1.84961	-20.7501	3.52853	0.248181	0.0318796	11.273	1.41502	1	9	0.00538418	0.00291099	0	3.84711e-06	-0.000156891	1.01587e-05	-6.51018	0.00348978	0.00346728	0.000395671	-20.7236	1.85299	1.7331	0.655698	0.505586	0.191551	0.540656	20.7501	1415.02	3734.87	3993.93	-69.2499	0.0000000E+000	0.0000000E+000	0.0000000E+000	69.2499	0.0000000E+000	0.0000000E+000	0.0000000E+000	-69.2499	0.0000000E+000	0.0000000E+000	0.0000000E+000	-20.7501	0.0000000E+000	0.0000000E+000	0.0000000E+000	20.7501	2.63944	69.2499	6.69154e-06	7.91192e-06	-5.00164e-09	7.91692e-06	0.248338	7784.95	4.92137	7789.87
14678.6	1.88577	0.723131	2.01966	-20.9802	3.91154	0.248184	0.038667	14.994	1.92219	1	9	0.00526602	0.00260738	0	1.35381e-06	-9.96091e-05	1.65676e-05	-67.9784	0.00635412	0.00238252	0.00589053	-21.1118	2.024	1.88815	0.729021	0.462307	0.17728	0.495133	20.9802	1922.19	5012.64	5368.55	-69.0198	0.0000000E+000	0.0000000E+000	0.0000000E+000	69.0198	0.0000000E+000	0.0000000E+000	0.0000000E+000	-69.0198	0.0000000E+000	0.0000000E+000	0.0000000E+000	-20.9802	0.0000000E+000	0.0000000E+000	0.0000000E+000	20.9802	2.60778	69.0198	-2.4933e-06	9.59653e-06	-3.85159e-09	9.60038e-06	0.248283	6418.48	2.57607	6421.06
10002.2	2.0463	0.803379	2.19835	-21.435	4.29452	0.248195	0.0318423	19.8063	2.64515	1	9	0.00512901	0.00233312	0	4.9768e-06	-9.96091e-05	4.89998e-06	12.6124	0.00210019	0.00204951	-0.000458584	-21.4044	2.20009	2.04835	0.802921	0.423423	0.166236	0.454886	21.435	2645.15	6737.48	7238.13	-68.565	0.0000000E+000	0.0000000E+000	0.0000000E+000	68.565	0.0000000E+000	0.0000000E+000	0.0000000E+000	-68.565	0.0000000E+000	0.0000000E+000	0.0000000E+000	-21.435	0.0000000E+000	0.0000000E+000	0.0000000E+000	21.435	2.54711	68.565	3.623e-06	7.9031e-06	-3.17178e-09	7.90627e-06	0.248294	7794.5	3.1282	7797.63
6810.42	2.22899	0.900224	2.40391	-21.9924	4.55353	0.248174	0.0319169	25.9594	3.64049	1	9	0.00533929	0.00222108	0	8.7277e-06	-4.13882e-06	1.71532e-05	21.2741	0.00772289	0.00719662	-0.00280209	-21.8665	2.40954	2.23619	0.897422	0.385719	0.155781	0.415989	21.9924	3640.49	9013.98	9721.37	-68.0076	0.0000000E+000	0.0000000E+000	0.0000000E+000	68.0076	0.0000000E+000	0.0000000E+000	0.0000000E+000	-68.0076	0.0000000E+000	0.0000000E+000	0.0000000E+000	-21.9924	0.0000000E+000	0.0000000E+000	0.0000000E+000	21.9924	2.47604	68.0076	3.7509e-06	7.92093e-06	-1.32098e-10	7.92107e-06	0.248178	7775.63	0.129675	7775.76
4646	2.42617	1.02136	2.63239	-22.83	4.81964	0.248159	0.012375	33.5398	5.04918	1	9	0.0052888	0.00200912	0	9.86476e-06	-0.000137797	8.35457e-06	-88.4139	0.00415831	0.0001151	0.00415672	-22.9124	2.63411	2.42628	1.02552	0.350123	0.147394	0.379883	22.83	5049.18	11993.9	13013.4	-67.17	0.0000000E+000	0.0000000E+000	0.0000000E+000	67.17	0.0000000E+000	0.0000000E+000	0.0000000E+000	-67.17	0.0000000E+000	0.0000000E+000	0.0000000E+000	-22.83	0.0000000E+000	0.0000000E+000	0.0000000E+000	22.83	2.37542	67.17	1.13705e-06	3.07098e-06	-1.70525e-09	3.07268e-06	0.248297	20053.2	11.1351	20064.3
3163.08	2.64211	1.16131	2.88606	-23.7273	5.19268	0.248049	-0.0195483	43.3275	7.01528	1	9	0.00521339	0.0018064	0	8.52017e-06	-0.000366926	8.03193e-06	72.3081	0.00444637	0.00135125	-0.00423608	-23.6395	2.8856	2.64346	1.15707	0.317204	0.139423	0.346493	23.7273	7015.27	15960.6	17434.3	-66.2727	0.0000000E+000	0.0000000E+000	0.0000000E+000	66.2727	0.0000000E+000	0.0000000E+000	0.0000000E+000	-66.2727	0.0000000E+000	0.0000000E+000	0.0000000E+000	-23.7273	0.0000000E+000	0.0000000E+000	0.0000000E+000	23.7273	2.27512	66.2727	-1.34459e-06	-4.84893e-06	7.17277e-09	-4.8561e-06	0.248416	12689.1	18.7703	12707.8
2155.69	2.9002	1.34618	3.1974	-24.8992	5.64383	0.248113	0.0310218	54.8442	9.72173	1	9	0.00514877	0.0016103	0	1.08437e-05	-6.1421e-05	8.33787e-06	-5.49149	0.00517783	0.00515407	0.000495508	-24.8684	3.20228	2.90535	1.34668	0.283684	0.131677	0.312754	24.8992	9721.73	20944.4	23090.7	-65.1008	0.0000000E+000	0.0000000E+000	0.0000000E+000	65.1008	0.0000000E+000	0.0000000E+000	0.0000000E+000	-65.1008	0.0000000E+000	0.0000000E+000	0.0000000E+000	-24.8992	0.0000000E+000	0.0000000E+000	0.0000000E+000	24.8992	2.15439	65.1008	2.32349e-06	7.69692e-06	-1.90539e-09	7.69883e-06	0.248175	7998.03	1.97993	8000.01
1468.59	3.14082	1.56296	3.50822	-26.4563	6.34005	0.248128	-0.0179738	69.338	13.7624	1	10	0.00521007	0.0014851	0	1.0188e-05	0.000167708	8.74582e-06	64.2322	0.00588903	0.00256011	-0.00530344	-26.3601	3.50815	3.14338	1.55766	0.255194	0.126992	0.285045	26.4563	13762.4	27656	30891.1	-63.5437	0.0000000E+000	0.0000000E+000	0.0000000E+000	63.5437	0.0000000E+000	0.0000000E+000	0.0000000E+000	-63.5437	0.0000000E+000	0.0000000E+000	0.0000000E+000	-26.4563	0.0000000E+000	0.0000000E+000	0.0000000E+000	26.4563	2.00953	63.5437	-6.55615e-07	-4.45981e-06	-3.01435e-09	-4.4568e-06	0.247961	13805	9.33066	13795.6
1000.32	3.45141	1.8669	3.92397	-28.4093	6.79085	0.248132	-0.0182833	85.2238	19.2908	1	10	0.00513533	0.00130871	0	7.00739e-06	-6.1421e-05	5.01321e-06	38.6893	0.00383065	0.00299001	-0.00239453	-28.3578	3.92546	3.4544	1.8645	0.224153	0.121247	0.254844	28.4093	19290.8	35663.7	40546.7	-61.5907	0.0000000E+000	0.0000000E+000	0.0000000E+000	61.5907	0.0000000E+000	0.0000000E+000	0.0000000E+000	-61.5907	0.0000000E+000	0.0000000E+000	0.0000000E+000	-28.4093	0.0000000E+000	0.0000000E+000	0.0000000E+000	28.4093	1.84874	61.5907	-3.18065e-06	-4.53668e-06	1.12298e-09	-4.5378e-06	0.248194	13571.5	3.3594	13574.9
681.09	3.83829	2.27299	4.46082	-30.6335	7.24155	0.248144	-0.0181416	102.806	26.6921	1	10	0.0050839	0.00113968	0	5.76063e-06	-0.000195079	3.24253e-06	-52.1383	0.00284512	0.00174621	0.00224621	-30.6469	4.46347	3.84003	2.27523	0.192889	0.114227	0.224174	30.6335	26692.1	45073.8	52384.3	-59.3665	0.0000000E+000	0.0000000E+000	0.0000000E+000	59.3665	0.0000000E+000	0.0000000E+000	0.0000000E+000	-59.3665	0.0000000E+000	0.0000000E+000	0.0000000E+000	-30.6335	0.0000000E+000	0.0000000E+000	0.0000000E+000	30.6335	1.68865	59.3665	-1.24675e-06	-4.50174e-06	3.53906e-09	-4.50528e-06	0.24834	13678.2	10.7531	13688.9
463.961	4.32571	2.78871	5.14671	-32.8092	7.69328	0.248128	-0.0174704	123.009	36.1145	1	10	0.00503829	0.000978932	0	3.14009e-06	-0.000137797	6.53684e-06	-15.1952	0.00667752	0.00644407	0.00175024	-32.7867	5.15308	4.33215	2.79046	0.163304	0.105279	0.194299	32.8092	36114.6	56019.1	66651.3	-57.1908	0.0000000E+000	0.0000000E+000	0.0000000E+000	57.1908	0.0000000E+000	0.0000000E+000	0.0000000E+000	-57.1908	0.0000000E+000	0.0000000E+000	0.0000000E+000	-32.8092	0.0000000E+000	0.0000000E+000	0.0000000E+000	32.8092	1.55115	57.1908	-2.62055e-06	-4.3349e-06	2.40738e-09	-4.3373e-06	0.248265	14202.7	7.88746	14210.6
316.316	5.00036	3.42283	6.05965	-34.3923	8.14106	0.248129	-0.0178247	146.999	46.9018	1	10	0.00501673	0.000827891	0	1.55191e-06	3.40493e-05	1.46834e-05	-22.2618	0.0177359	0.0164139	0.00671906	-34.3572	6.07699	5.01677	3.42955	0.136178	0.093216	0.165026	34.3923	46901.8	68518.1	83033.2	-55.6077	0.0000000E+000	0.0000000E+000	0.0000000E+000	55.6077	0.0000000E+000	0.0000000E+000	0.0000000E+000	-55.6077	0.0000000E+000	0.0000000E+000	0.0000000E+000	-34.3923	0.0000000E+000	0.0000000E+000	0.0000000E+000	34.3923	1.46088	55.6077	-1.58818e-06	-4.42282e-06	-6.06918e-10	-4.42222e-06	0.248095	13920.5	1.91023	13918.6
215.345	5.89762	4.14231	7.20699	-35.0831	8.59155	0.248126	-0.0178321	178.42	58.9416	1	10	0.00498966	0.000692336	0	-7.30539e-07	0.000110426	2.48636e-05	65.1274	0.0359126	0.0151049	-0.0325815	-34.8018	7.20071	5.91272	4.10973	0.113545	0.0797509	0.138754	35.0831	58941.6	83918	102549	-54.9169	0.0000000E+000	0.0000000E+000	0.0000000E+000	54.9169	0.0000000E+000	0.0000000E+000	0.0000000E+000	-54.9169	0.0000000E+000	0.0000000E+000	0.0000000E+000	-35.0831	0.0000000E+000	0.0000000E+000	0.0000000E+000	35.0831	1.42375	54.9169	-2.28245e-06	-4.42462e-06	-1.96912e-09	-4.42265e-06	0.248015	13914.5	6.1925	13908.3
146.737	7.13103	4.77844	8.584	-33.8257	9.03752	0.248126	-0.0177054	226.983	70.3373	1	10	0.00497562	0.000579639	0	-3.74441e-06	5.31434e-05	9.35878e-06	-21.222	0.0161459	0.0150509	0.00584453	-33.8022	8.59975	7.14608	4.78428	0.0967772	0.0648495	0.116496	33.8257	70337.3	104967	126354	-56.1743	0.0000000E+000	0.0000000E+000	0.0000000E+000	56.1743	0.0000000E+000	0.0000000E+000	0.0000000E+000	-56.1743	0.0000000E+000	0.0000000E+000	0.0000000E+000	-33.8257	0.0000000E+000	0.0000000E+000	0.0000000E+000	33.8257	1.49234	56.1743	-3.01388e-06	-4.39316e-06	-9.40923e-10	-4.39222e-06	0.248073	14014.2	3.00154	14011.2
100.032	8.62032	5.33609	10.1382	-31.7581	9.48885	0.248117	-0.0174406	298.166	82.5999	1	10	0.00498032	0.000491241	0	-5.1747e-06	1.49552e-05	1.53662e-05	85.8072	0.0312803	0.00228698	-0.0311966	-31.6011	10.1238	8.62261	5.3049	0.0838685	0.0519157	0.0986365	31.7581	82599.9	133438	156935	-58.242	0.0000000E+000	0.0000000E+000	0.0000000E+000	58.242	0.0000000E+000	0.0000000E+000	0.0000000E+000	-58.242	0.0000000E+000	0.0000000E+000	0.0000000E+000	-31.7581	0.0000000E+000	0.0000000E+000	0.0000000E+000	31.7581	1.61547	58.242	-1.43029e-06	-4.32732e-06	-2.60829e-10	-4.32706e-06	0.248102	14226.4	0.857495	14225.6
68.104	10.2712	5.53371	11.6671	-28.3139	9.95143	0.248138	-0.0157477	422.31	95.0039	1	10	0.00497344	0.000426281	0	-6.69747e-06	-0.000214174	5.59077e-06	-44.2238	0.0131152	0.00939864	0.00914739	-28.3316	11.6797	10.2806	5.54285	0.0754571	0.0406531	0.0857114	28.3139	95003.9	176339	200303	-61.6861	0.0000000E+000	0.0000000E+000	0.0000000E+000	61.6861	0.0000000E+000	0.0000000E+000	0.0000000E+000	-61.6861	0.0000000E+000	0.0000000E+000	0.0000000E+000	-28.3139	0.0000000E+000	0.0000000E+000	0.0000000E+000	28.3139	1.85612	61.6861	-1.52277e-06	-3.90761e-06	3.37274e-09	-3.91098e-06	0.248352	15757.1	13.6003	15770.7
46.4415	11.9885	5.49284	13.1869	-24.6162	10.3876	0.24812	-0.018604	623.902	108.249	1	10	0.00497358	0.00037716	0	-9.12923e-06	0.000148614	8.29524e-06	37.5978	0.021994	0.0174261	-0.0134188	-24.5317	13.1972	12.0059	5.47943	0.0689409	0.0315871	0.0758327	24.6162	108249	236260	259878	-65.3838	0.0000000E+000	0.0000000E+000	0.0000000E+000	65.3838	0.0000000E+000	0.0000000E+000	0.0000000E+000	-65.3838	0.0000000E+000	0.0000000E+000	0.0000000E+000	-24.6162	0.0000000E+000	0.0000000E+000	0.0000000E+000	24.6162	2.18256	65.3838	-2.43176e-06	-4.61604e-06	-2.76481e-09	-4.61327e-06	0.247972	13336.9	7.98825	13328.9
31.6296	13.5498	5.17606	14.5047	-20.9071	10.8176	0.248122	-0.0201515	972.137	123.796	1	10	0.00497559	0.000343032	0	-1.10472e-05	1.49552e-05	6.00931e-06	103.539	0.0175182	-0.00410108	-0.0170314	-20.8499	14.4948	13.5457	5.15903	0.0644038	0.0246025	0.068943	20.9071	123796	324070	346910	-69.0929	0.0000000E+000	0.0000000E+000	0.0000000E+000	69.0929	0.0000000E+000	0.0000000E+000	0.0000000E+000	-69.0929	0.0000000E+000	0.0000000E+000	0.0000000E+000	-20.9071	0.0000000E+000	0.0000000E+000	0.0000000E+000	20.9071	2.61777	69.0929	-1.91795e-06	-5.00003e-06	-3.01371e-10	-4.99972e-06	0.248107	12312.8	0.74214	12312.1
21.5517	14.8479	4.69357	15.5721	-17.5422	11.4705	0.248155	-0.0127824	1573.38	142.937	1	11	0.0049695	0.000319128	0	-1.27268e-05	5.31434e-05	6.45756e-06	6.62789	0.020235	0.0200998	-0.00233554	-17.5118	15.5906	14.868	4.69124	0.0612309	0.0193556	0.0642173	17.5422	142937	452177	474231	-72.4578	0.0000000E+000	0.0000000E+000	0.0000000E+000	72.4578	0.0000000E+000	0.0000000E+000	0.0000000E+000	-72.4578	0.0000000E+000	0.0000000E+000	0.0000000E+000	-17.5422	0.0000000E+000	0.0000000E+000	0.0000000E+000	17.5422	3.16346	72.4578	-1.67966e-06	-3.17201e-06	-6.79299e-10	-3.17133e-06	0.248102	19413.8	4.15755	19409.7
14.6852	15.9924	4.19805	16.5342	-14.7085	11.9312	0.248147	-0.012292	2581.63	166.427	1	11	0.00497399	0.000300831	0	-1.28098e-05	0.000148614	1.17338e-05	-22.8849	0.0390048	0.0359346	0.0151682	-14.7276	16.5728	16.0283	4.21321	0.0584988	0.0153561	0.0604807	14.7085	166427	633999	655479	-75.2915	0.0000000E+000	0.0000000E+000	0.0000000E+000	75.2915	0.0000000E+000	0.0000000E+000	0.0000000E+000	-75.2915	0.0000000E+000	0.0000000E+000	0.0000000E+000	-14.7085	0.0000000E+000	0.0000000E+000	0.0000000E+000	14.7085	3.80948	75.2915	-8.29198e-08	-3.05022e-06	-1.82676e-09	-3.0484e-06	0.247998	20187.6	12.0903	20175.5
10.0032	16.9335	3.71847	17.337	-12.3852	12.3818	0.248154	-0.0120631	4278.75	196.834	1	11	0.00496826	0.000286571	0	-1.52739e-05	-0.000252362	3.79587e-06	-100.348	0.0132459	-0.00237927	0.0130304	-12.4289	17.3374	16.9311	3.7315	0.0563379	0.0123714	0.0576803	12.3852	196834	896359	917716	-77.6148	0.0000000E+000	0.0000000E+000	0.0000000E+000	77.6148	0.0000000E+000	0.0000000E+000	0.0000000E+000	-77.6148	0.0000000E+000	0.0000000E+000	0.0000000E+000	-12.3852	0.0000000E+000	0.0000000E+000	0.0000000E+000	12.3852	4.55389	77.6148	-2.4641e-06	-2.9935e-06	3.04426e-09	-2.99654e-06	0.248406	20571.4	20.9202	20592.3
6.81719	17.7514	3.29428	18.0545	-10.5133	12.7215	0.248134	-0.0124557	7086.86	235.941	1	11	0.00497028	0.000275293	0	-1.43375e-05	-4.23269e-05	8.47162e-06	24.8914	0.0307732	0.0279146	-0.0129524	-10.4568	18.0796	17.7793	3.28133	0.054458	0.0101062	0.0553878	10.5133	235941	1.27138e+06	1.29309e+06	-79.4867	0.0000000E+000	0.0000000E+000	0.0000000E+000	79.4867	0.0000000E+000	0.0000000E+000	0.0000000E+000	-79.4867	0.0000000E+000	0.0000000E+000	0.0000000E+000	-10.5133	0.0000000E+000	0.0000000E+000	0.0000000E+000	10.5133	5.38856	79.4867	9.36409e-07	-3.09069e-06	5.27213e-10	-3.09122e-06	0.248176	19921.3	3.39819	19924.7
4.63925	18.4722	2.91291	18.7004	-8.96129	13.2054	0.248144	-0.0115242	11777.3	285.757	1	11	0.0049732	0.00026594	0	-1.83248e-05	-9.96091e-05	1.08275e-05	34.2765	0.0407139	0.0336431	-0.0229295	-8.87598	18.7301	18.5058	2.88998	0.052822	0.00832961	0.0534747	8.96129	285757	1.81212e+06	1.83451e+06	-81.0387	0.0000000E+000	0.0000000E+000	0.0000000E+000	81.0387	0.0000000E+000	0.0000000E+000	0.0000000E+000	-81.0387	0.0000000E+000	0.0000000E+000	0.0000000E+000	-8.96129	0.0000000E+000	0.0000000E+000	0.0000000E+000	8.96129	6.34148	81.0387	-3.9873e-06	-2.85967e-06	1.14792e-09	-2.86081e-06	0.248243	21532.4	8.64346	21541
3.1604	19.09	2.53818	19.258	-7.57356	13.8984	0.248143	-0.0113085	19840.7	344.652	1	11	0.00497186	0.000258172	0	-2.29907e-05	-0.000156891	5.66936e-06	-109.068	0.0219597	-0.00717416	0.0207547	-7.6376	19.2536	19.0828	2.55894	0.0514736	0.00684387	0.0519266	7.57356	344652	2.59217e+06	2.61498e+06	-82.4264	0.0000000E+000	0.0000000E+000	0.0000000E+000	82.4264	0.0000000E+000	0.0000000E+000	0.0000000E+000	-82.4264	0.0000000E+000	0.0000000E+000	0.0000000E+000	-7.57356	0.0000000E+000	0.0000000E+000	0.0000000E+000	7.57356	7.52112	82.4264	-4.66594e-06	-2.80612e-06	1.77421e-09	-2.8079e-06	0.2483	21943	13.8738	21956.9
2.15577	19.6008	2.26028	19.7307	-6.57806	14.9021	0.248148	-0.0109018	32663	428.644	1	11	0.00497163	0.000251975	0	-2.42756e-05	-0.000175985	5.7567e-06	85.3336	0.0228463	0.00185864	-0.0227706	-6.51175	19.7299	19.6027	2.23751	0.0503488	0.00580602	0.0506825	6.57806	428644	3.71713e+06	3.74176e+06	-83.4219	0.0000000E+000	0.0000000E+000	0.0000000E+000	83.4219	0.0000000E+000	0.0000000E+000	0.0000000E+000	-83.4219	0.0000000E+000	0.0000000E+000	0.0000000E+000	-6.57806	0.0000000E+000	0.0000000E+000	0.0000000E+000	6.57806	8.67183	83.4219	-1.28488e-06	-2.70527e-06	1.91857e-09	-2.70719e-06	0.248324	22762	16.1427	22778.1
1.46631	20.0218	2.00957	20.1224	-5.73152	16.3616	0.248148	-0.0104858	54012.1	538.687	1	11	0.00497047	0.000247011	0	-2.27347e-05	-4.23269e-05	2.87851e-06	-64.6714	0.0116533	0.0049854	0.0105331	-5.75994	20.1284	20.0268	2.0201	0.0494473	0.00496298	0.0496958	5.73152	538687	5.36707e+06	5.39404e+06	-84.2685	0.0000000E+000	0.0000000E+000	0.0000000E+000	84.2685	0.0000000E+000	0.0000000E+000	0.0000000E+000	-84.2685	0.0000000E+000	0.0000000E+000	0.0000000E+000	-5.73152	0.0000000E+000	0.0000000E+000	0.0000000E+000	5.73152	9.96324	84.2685	1.54088e-06	-2.60203e-06	4.43832e-10	-2.60247e-06	0.24819	23665.1	4.03659	23669.2
1.00006	20.3944	1.82917	20.4763	-5.12512	19.5379	0.248147	-0.00943074	87003.9	694.294	1	12	0.00497515	0.000242971	0	-2.4937e-05	-4.13882e-06	3.36865e-06	90.5973	0.0138644	-0.000144527	-0.0138637	-5.08652	20.4749	20.3943	1.8153	0.0486417	0.00436266	0.048837	5.12512	694294	7.74108e+06	7.77215e+06	-84.8749	0.0000000E+000	0.0000000E+000	0.0000000E+000	84.8749	0.0000000E+000	0.0000000E+000	0.0000000E+000	-84.8749	0.0000000E+000	0.0000000E+000	0.0000000E+000	-5.12512	0.0000000E+000	0.0000000E+000	0.0000000E+000	5.12512	11.1496	84.8749	-2.20235e-06	-2.34021e-06	3.90321e-11	-2.34025e-06	0.248152	26312.6	0.438865	26313.1
0.681362	20.7154	1.7477	20.789	-4.82246	22.65	0.248145	-0.00809855	133652	944.587	1	12	0.00497262	0.000239195	0	-3.31888e-05	-0.000175985	3.62944e-06	-4.86708	0.0151736	0.0151189	0.0012874	-4.82249	20.8042	20.7305	1.74899	0.0479321	0.00404389	0.0481024	4.82246	944587	1.11961e+07	1.12359e+07	-85.1775	0.0000000E+000	0.0000000E+000	0.0000000E+000	85.1775	0.0000000E+000	0.0000000E+000	0.0000000E+000	-85.1775	0.0000000E+000	0.0000000E+000	0.0000000E+000	-4.82246	0.0000000E+000	0.0000000E+000	0.0000000E+000	4.82246	11.853	85.1775	-8.25176e-06	-2.00962e-06	1.42523e-09	-2.01104e-06	0.248321	30640.7	21.7305	30662.4
0.464091	20.9839	1.78012	21.0592	-4.84896	27.2065	0.248153	-0.00665443	192649	1376.52	1	12	0.00497233	0.000236112	0	-5.35398e-05	-0.000156891	3.71369e-06	-31.7833	0.0157285	0.01337	0.00828434	-4.86833	21.0733	20.9972	1.78841	0.0473152	0.00401388	0.0474851	4.84896	1.37652e+06	1.62262e+07	1.62845e+07	-85.151	0.0000000E+000	0.0000000E+000	0.0000000E+000	85.151	0.0000000E+000	0.0000000E+000	0.0000000E+000	-85.151	0.0000000E+000	0.0000000E+000	0.0000000E+000	-4.84896	0.0000000E+000	0.0000000E+000	0.0000000E+000	4.84896	11.7879	85.151	-2.0351e-05	-1.65132e-06	1.04402e-09	-1.65236e-06	0.24831	37291.4	23.577	37315
0.316193	21.2637	1.91807	21.35	-5.15436	33.8809	0.248147	-0.00631845	262424	2118.05	1	12	0.00497211	0.000232885	0	-8.6643e-05	0.000282272	1.59089e-06	-29.7712	0.00683122	0.0059296	0.00339195	-5.162	21.3562	21.2696	1.92146	0.046649	0.00420793	0.0468384	5.15436	2.11805e+06	2.34806e+07	2.3576e+07	-84.8456	0.0000000E+000	0.0000000E+000	0.0000000E+000	84.8456	0.0000000E+000	0.0000000E+000	0.0000000E+000	-84.8456	0.0000000E+000	0.0000000E+000	0.0000000E+000	-5.15436	0.0000000E+000	0.0000000E+000	0.0000000E+000	5.15436	11.086	84.8456	-3.31032e-05	-1.56791e-06	-1.78352e-09	-1.56612e-06	0.247865	39273.4	44.6742	39228.7
0.215268	21.6031	2.21238	21.7161	-5.84729	43.6744	0.248153	-0.00639881	334181	3468.46	1	12	0.00497256	0.00022898	0	-0.000126553	-9.96091e-05	2.36001e-06	-27.5739	0.0103066	0.00913593	0.00477086	-5.85735	21.7257	21.6122	2.21715	0.0458092	0.00469133	0.0460488	5.84729	3.46846e+06	3.38683e+07	3.40455e+07	-84.1527	0.0000000E+000	0.0000000E+000	0.0000000E+000	84.1527	0.0000000E+000	0.0000000E+000	0.0000000E+000	-84.1527	0.0000000E+000	0.0000000E+000	0.0000000E+000	-5.84729	0.0000000E+000	0.0000000E+000	0.0000000E+000	5.84729	9.76465	84.1527	-3.99104e-05	-1.58788e-06	6.3738e-10	-1.58852e-06	0.248252	38781.1	15.5668	38796.7
0.146929	22.0095	2.74644	22.1802	-7.11283	58.0127	0.248145	-0.00694651	394406	6047.15	1	12	0.00497359	0.000224235	0	-0.000160617	0.000148614	2.85407e-06	7.89203	0.012728	0.0126075	-0.00174764	-7.10432	22.1925	22.0221	2.74469	0.0447382	0.00558261	0.0450852	7.11283	6.04715e+06	4.8461e+07	4.88368e+07	-82.8872	0.0000000E+000	0.0000000E+000	0.0000000E+000	82.8872	0.0000000E+000	0.0000000E+000	0.0000000E+000	-82.8872	0.0000000E+000	0.0000000E+000	0.0000000E+000	-7.11283	0.0000000E+000	0.0000000E+000	0.0000000E+000	7.11283	8.01385	82.8872	-3.40637e-05	-1.72374e-06	-1.03235e-09	-1.72271e-06	0.247996	35722.3	21.394	35700.9
0.0999041	22.4448	3.52008	22.7192	-8.91326	79.0888	0.248148	-0.00644512	452568	10864.4	1	12	0.00497251	0.000218868	0	-0.000167763	-8.05151e-05	3.54494e-06	9.58495	0.0161967	0.0159705	-0.0026969	-8.90031	22.7345	22.4608	3.51738	0.0434842	0.00681975	0.0440157	8.91326	1.08644e+07	6.92737e+07	7.01205e+07	-81.0867	0.0000000E+000	0.0000000E+000	0.0000000E+000	81.0867	0.0000000E+000	0.0000000E+000	0.0000000E+000	-81.0867	0.0000000E+000	0.0000000E+000	0.0000000E+000	-8.91326	0.0000000E+000	0.0000000E+000	0.0000000E+000	8.91326	6.37621	81.0867	-7.14543e-06	-1.59934e-06	5.1893e-10	-1.59986e-06	0.248228	38501.6	12.4924	38514.1
0.0680626	22.9885	4.50604	23.426	-11.0901	110.015	0.248146	-0.0055035	518940	19200.4	1	12	0.00497305	0.000212288	0	-0.000141451	-6.1421e-05	2.5882e-06	-9.806	0.0121919	0.0120138	0.00207644	-11.0894	23.4382	23.0005	4.50811	0.0418905	0.00821107	0.0426877	11.0901	1.92004e+07	9.79552e+07	9.98192e+07	-78.9099	0.0000000E+000	0.0000000E+000	0.0000000E+000	78.9099	0.0000000E+000	0.0000000E+000	0.0000000E+000	-78.9099	0.0000000E+000	0.0000000E+000	0.0000000E+000	-11.0901	0.0000000E+000	0.0000000E+000	0.0000000E+000	11.0901	5.10171	78.9099	2.63115e-05	-1.36567e-06	3.38031e-10	-1.36601e-06	0.248207	45088.7	11.1604	45099.9
0.0464052	23.8047	5.68408	24.4739	-13.4296	155.366	0.248146	-0.00350557	603383	32546.8	1	12	0.00497072	0.000203103	0	-6.67176e-05	7.22374e-05	2.10391e-06	-17.7244	0.0103588	0.00986712	0.00315362	-13.4314	24.4842	23.8145	5.68723	0.0397426	0.00948974	0.0408599	13.4296	3.25468e+07	1.36304e+08	1.40136e+08	-76.5704	0.0000000E+000	0.0000000E+000	0.0000000E+000	76.5704	0.0000000E+000	0.0000000E+000	0.0000000E+000	-76.5704	0.0000000E+000	0.0000000E+000	0.0000000E+000	-13.4296	0.0000000E+000	0.0000000E+000	0.0000000E+000	13.4296	4.18796	76.5704	7.47334e-05	-8.69893e-07	-2.53233e-10	-8.6964e-07	0.248074	70786.4	20.6065	70765.8
0.0315922	24.9448	7.47958	26.042	-16.6911	221.971	0.248143	-0.00201787	673540	55560.8	1	12	0.00497048	0.000190864	0	-6.03049e-06	-4.23269e-05	1.56473e-06	-7.44741	0.00819815	0.00812899	0.00106261	-16.6882	26.0501	24.9529	7.48064	0.0367816	0.0110288	0.0383995	16.6911	5.55608e+07	1.85298e+08	1.93449e+08	-73.3089	0.0000000E+000	0.0000000E+000	0.0000000E+000	73.3089	0.0000000E+000	0.0000000E+000	0.0000000E+000	-73.3089	0.0000000E+000	0.0000000E+000	0.0000000E+000	-16.6911	0.0000000E+000	0.0000000E+000	0.0000000E+000	16.6911	3.33505	73.3089	6.06872e-05	-5.00719e-07	8.54102e-11	-5.00804e-07	0.248185	122973	20.9761	122994
0.0215268	26.2139	9.98849	28.0524	-20.8587	319.71	0.248143	-0.00132005	740187	93842.7	1	12	0.00497153	0.000177223	0	-7.2587e-05	-0.000252362	1.24936e-06	59.1405	0.00704967	0.00361602	-0.00605163	-20.8446	28.0536	26.2175	9.98244	0.0333113	0.0126929	0.0356476	20.8587	9.38427e+07	2.46282e+08	2.63555e+08	-69.1413	0.0000000E+000	0.0000000E+000	0.0000000E+000	69.1413	0.0000000E+000	0.0000000E+000	0.0000000E+000	-69.1413	0.0000000E+000	0.0000000E+000	0.0000000E+000	-20.8587	0.0000000E+000	0.0000000E+000	0.0000000E+000	20.8587	2.62441	69.1413	-6.65565e-05	-3.27561e-07	3.33131e-10	-3.27894e-07	0.248395	187979	191.176	188171
0.0146812	27.6775	13.016	30.5853	-25.1864	463.011	0.248142	-0.00161862	832878	150839	1	12	0.00497314	0.000162599	0	-0.000382592	-0.000195079	2.10738e-06	-15.3434	0.0129605	0.0124986	0.00342942	-25.1823	30.598	27.69	13.0194	0.029587	0.013914	0.0326955	25.1864	1.50839e+08	3.20746e+08	3.54443e+08	-64.8136	0.0000000E+000	0.0000000E+000	0.0000000E+000	64.8136	0.0000000E+000	0.0000000E+000	0.0000000E+000	-64.8136	0.0000000E+000	0.0000000E+000	0.0000000E+000	-25.1864	0.0000000E+000	0.0000000E+000	0.0000000E+000	25.1864	2.12642	64.8136	-0.000310005	-4.01647e-07	3.15759e-10	-4.01962e-07	0.248337	153305	120.522	153425
0.0100092	29.7846	16.7345	34.1638	-29.3295	673.191	0.248148	-0.00221377	950189	227983	1	12	0.00497068	0.000145496	0	-0.000936406	0.00012952	1.64879e-06	-34.2905	0.0113322	0.00936257	0.00638443	-29.3311	34.1751	29.7939	16.7409	0.0255188	0.0143377	0.0292708	29.3295	2.27983e+08	4.05772e+08	4.65432e+08	-60.6705	0.0000000E+000	0.0000000E+000	0.0000000E+000	60.6705	0.0000000E+000	0.0000000E+000	0.0000000E+000	-60.6705	0.0000000E+000	0.0000000E+000	0.0000000E+000	-29.3295	0.0000000E+000	0.0000000E+000	0.0000000E+000	29.3295	1.77983	60.6705	-0.000553814	-5.49343e-07	-2.86727e-10	-5.49056e-07	0.248019	112093	58.5063	112034