File: txt/18818_R307_UA701_3p24_SOC00_C05.mpt
EC-Lab ASCII FILE
Nb header lines : 65

Potentio Electrochemical Impedance Spectroscopy

Run on channel : 5 (SN 65912)
User :
CE vs. WE compliance from -10 V to 10 V
Electrode connection : standard
Potential control : Ewe
Ewe ctrl range : min = -10.00 V, max = 10.00 V
Safety Limits :
	Do not start on E overload
Acquisition started on : 11/03/2025 16:08:58.360
Technique started on : 11/03/2025 16:09:00.086
Loaded Setting File :  C:\Users\Celltest\OneDrive - store-dot.com\Documents\EC-Lab\Data\@Biologic Test Protocols\anode half cell EIS SOC00.mps
Saved on :
	File : 18818_R307_UA701_3p24_SOC00_C05.mpr
	Directory : C:\Users\Celltest\OneDrive - store-dot.com\Documents\EC-Lab\Data\Anna\
	Host : 169.254.61.224
Device : VMP-3e (SN .003165)
Address : USB
EC-LAB for windows v11.62 (software)
Internet server v27.00 (firmware)
Command interpretor v12.03 (firmware)
Electrode material :
Initial state :
Electrolyte :
Comments :
Electrode surface area : 0.001 cm²
Characteristic mass : 0.001 g
Equivalent Weight : 0.000 g/eq.
Density : 0.000 g/cm3
Volume (V) : 0.001 cm³
Record Ece
Cycle Definition : Charge/Discharge alternance
Mode                Single sine
E (V)               0.0000
vs.                 Eoc
tE (h:m:s)          0:00:0.0000
record              0
dI                  0.000
unit dI             mA
dt (s)              0.000
fi                  100.000
unit fi             kHz
ff                  10.000
unit ff             mHz
Nd                  6
Points              per decade
spacing             Logarithmic
Va (mV)             5.0
pw                  0.10
Na                  2
corr                0
E range min (V)     -10.000
E range max (V)     10.000
I Range             Auto
Bandwidth           5
nc cycles           0
goto Ns'            0
nr cycles           0
inc. cycle          0

freq/Hz	Re(Z)/Ohm	-Im(Z)/Ohm	|Z|/Ohm	Phase(Z)/deg	time/s	<Ewe>/V	<I>/mA	Cs/µF	Cp/µF	cycle number	I Range	|Ewe|/V	|I|/A	Ns	(Q-Qo)/mA.h	<Ece>/V	|Ece|/V	Phase(Zce)/deg	|Zce|/Ohm	Re(Zce)/Ohm	-Im(Zce)/Ohm	Phase(Zwe-ce)/deg	|Zwe-ce|/Ohm	Re(Zwe-ce)/Ohm	-Im(Zwe-ce)/Ohm	Re(Y)/Ohm-1	Im(Y)/Ohm-1	|Y|/Ohm-1	Phase(Y)/deg	Re(C)/nF	Im(C)/nF	|C|/nF	Phase(C)/deg	Re(M)	Im(M)	|M|	Phase(M)/deg	Re(Permittivity)	Im(Permittivity)	|Permittivity|	Phase(Permittivity)/deg	Re(Resistivity)/Ohm.cm	Im(Resistivity)/Ohm.cm	|Resistivity|/Ohm.cm	Phase(Resistivity)/deg	Re(Conductivity)/mS/cm	Im(Conductivity)/mS/cm	|Conductivity|/mS/cm	Phase(Conductivity)/deg	Tan(Delta)	Loss Angle(Delta)/deg	dq/mA.h	Pwe/W	Pce/W	Pwe-ce/W	<Ewe-Ece>/V	Rwe/Ohm	Rce/Ohm	Rwe-ce/Ohm		Ewe-Ece/V
100004	1.12162	0.425391	1.19958	-20.77	1.72552	0.244565	-0.0218813	3.74124	0.470474	1	9	0.00462115	0.00385232	0	-8.81631e-06	-3.27544e-06	3.83371e-05	87.478	0.00995171	0.000437907	-0.00994207	-20.3174	1.1965	1.12206	0.415449	0.779451	0.295618	0.833627	20.77	470.474	1240.49	1326.71	-69.23	0.0000000E+000	0.0000000E+000	0.0000000E+000	69.23	0.0000000E+000	0.0000000E+000	0.0000000E+000	-69.23	0.0000000E+000	0.0000000E+000	0.0000000E+000	-20.77	0.0000000E+000	0.0000000E+000	0.0000000E+000	20.77	2.63668	69.23	-8.81631e-06	-5.3514e-06	7.16708e-11	-5.35147e-06	0.244569	11176.9	0.149692	11177.1
68132	1.23403	0.486579	1.32649	-21.5194	2.23251	0.244543	-0.010188	4.80082	0.64597	1	9	0.00505269	0.00380906	0	-9.08754e-06	0.000416731	3.37866e-05	80.4889	0.00887008	0.00146567	-0.00874815	-21.1441	1.32468	1.23549	0.477831	0.701318	0.276531	0.753867	21.5194	645.97	1638.26	1761.02	-68.4806	0.0000000E+000	0.0000000E+000	0.0000000E+000	68.4806	0.0000000E+000	0.0000000E+000	0.0000000E+000	-68.4806	0.0000000E+000	0.0000000E+000	0.0000000E+000	-21.5194	0.0000000E+000	0.0000000E+000	0.0000000E+000	21.5194	2.53613	68.4806	-2.71229e-07	-2.4914e-06	-4.24565e-09	-2.48715e-06	0.244126	24003.1	40.9043	23962.2
46420.4	1.3654	0.542019	1.46905	-21.6514	2.73956	0.244537	-0.0219185	6.32554	0.861099	1	9	0.00504269	0.00343262	0	-1.67223e-05	0.000168545	1.8703e-05	89.5539	0.00544862	4.24212e-05	-0.00544846	-21.453	1.46709	1.36544	0.53657	0.632685	0.251155	0.680712	21.6514	861.099	2169.2	2333.86	-68.3486	0.0000000E+000	0.0000000E+000	0.0000000E+000	68.3486	0.0000000E+000	0.0000000E+000	0.0000000E+000	-68.3486	0.0000000E+000	0.0000000E+000	0.0000000E+000	-21.6514	0.0000000E+000	0.0000000E+000	0.0000000E+000	21.6514	2.51911	68.3486	-7.63473e-06	-5.35988e-06	-3.69427e-09	-5.35619e-06	0.244368	11156.6	7.68964	11148.9
31621.1	1.50272	0.604512	1.61976	-21.9138	3.24656	0.244524	-0.0202055	8.32603	1.15971	1	9	0.00509592	0.0031461	0	-5.67016e-06	0.000225819	1.2308e-05	66.4835	0.00391214	0.001561	-0.00358722	-21.7755	1.61987	1.50428	0.600925	0.572769	0.230412	0.617377	21.9138	1159.71	2882.85	3107.37	-68.0862	0.0000000E+000	0.0000000E+000	0.0000000E+000	68.0862	0.0000000E+000	0.0000000E+000	0.0000000E+000	-68.0862	0.0000000E+000	0.0000000E+000	0.0000000E+000	-21.9138	0.0000000E+000	0.0000000E+000	0.0000000E+000	21.9138	2.48585	68.0862	1.10521e-05	-4.94073e-06	-4.56279e-09	-4.93617e-06	0.244298	12101.9	11.1761	12090.7
21544.7	1.65247	0.671378	1.78365	-22.1113	3.63152	0.24453	-0.0173753	11.003	1.55893	1	9	0.0053287	0.00298752	0	-1.61436e-06	-0.000156005	8.81036e-06	18.8943	0.00294905	0.00279015	-0.000954973	-22.0492	1.78588	1.65526	0.670423	0.519414	0.211031	0.560647	22.1113	1558.93	3837.02	4141.62	-67.8887	0.0000000E+000	0.0000000E+000	0.0000000E+000	67.8887	0.0000000E+000	0.0000000E+000	0.0000000E+000	-67.8887	0.0000000E+000	0.0000000E+000	0.0000000E+000	-22.1113	0.0000000E+000	0.0000000E+000	0.0000000E+000	22.1113	2.46131	67.8887	4.0558e-06	-4.24878e-06	2.71063e-09	-4.25149e-06	0.244686	14073.5	8.97857	14082.4
14678.6	1.80762	0.741741	1.95389	-22.3103	3.89054	0.24453	-0.0195352	14.6179	2.10663	1	9	0.0052718	0.00269811	0	-9.28568e-07	0.00024491	1.17686e-05	33.8839	0.00436179	0.00362102	-0.00243175	-22.2042	1.95632	1.81124	0.739309	0.473487	0.194291	0.5118	22.3103	2106.63	5133.86	5549.27	-67.6897	0.0000000E+000	0.0000000E+000	0.0000000E+000	67.6897	0.0000000E+000	0.0000000E+000	0.0000000E+000	-67.6897	0.0000000E+000	0.0000000E+000	0.0000000E+000	-22.3103	0.0000000E+000	0.0000000E+000	0.0000000E+000	22.3103	2.437	67.6897	6.85797e-07	-4.77693e-06	-4.78437e-09	-4.77215e-06	0.244285	12517.4	12.5369	12504.9
10002.2	1.97103	0.825785	2.13703	-22.7318	4.14956	0.244536	-0.0178966	19.2689	2.8772	1	9	0.00493419	0.0023089	0	-3.19037e-06	-2.23667e-05	6.87876e-06	-152.717	0.00297924	-0.0026478	0.00136564	-22.793	2.13511	1.96838	0.827151	0.431592	0.18082	0.46794	22.7318	2877.2	6867.47	7445.83	-67.2682	0.0000000E+000	0.0000000E+000	0.0000000E+000	67.2682	0.0000000E+000	0.0000000E+000	0.0000000E+000	-67.2682	0.0000000E+000	0.0000000E+000	0.0000000E+000	-22.7318	0.0000000E+000	0.0000000E+000	0.0000000E+000	22.7318	2.38686	67.2682	-2.2618e-06	-4.37637e-06	4.00288e-10	-4.37677e-06	0.244558	13663.8	1.24977	13665
6810.42	2.16982	0.922358	2.35772	-23.0297	4.40855	0.244522	-0.0225144	25.3365	3.87758	1	9	0.00472073	0.00200224	0	-6.64388e-06	-7.96403e-05	2.39833e-05	-93.6916	0.0119782	-0.000771238	0.0119534	-23.3039	2.36171	2.16904	0.934311	0.390336	0.165926	0.424139	23.0297	3877.58	9121.88	9911.83	-66.9703	0.0000000E+000	0.0000000E+000	0.0000000E+000	66.9703	0.0000000E+000	0.0000000E+000	0.0000000E+000	-66.9703	0.0000000E+000	0.0000000E+000	0.0000000E+000	-23.0297	0.0000000E+000	0.0000000E+000	0.0000000E+000	23.0297	2.35247	66.9703	-3.45351e-06	-5.50525e-06	1.79305e-09	-5.50705e-06	0.244601	10860.7	3.53731	10864.2
4646	2.37303	1.04382	2.59246	-23.7431	4.67563	0.24449	-0.037671	32.8182	5.32037	1	9	0.00459646	0.00177301	0	-9.36675e-06	0.000206728	6.17462e-06	-15.2722	0.00348256	0.00335958	0.000917325	-23.7318	2.59591	2.37639	1.04474	0.353085	0.155311	0.385734	23.7431	5320.37	12095.4	13213.8	-66.2569	0.0000000E+000	0.0000000E+000	0.0000000E+000	66.2569	0.0000000E+000	0.0000000E+000	0.0000000E+000	-66.2569	0.0000000E+000	0.0000000E+000	0.0000000E+000	-23.7431	0.0000000E+000	0.0000000E+000	0.0000000E+000	23.7431	2.27341	66.2569	-2.72287e-06	-9.21018e-06	-7.78765e-09	-9.2024e-06	0.244283	6490.14	5.48772	6484.65
3163.08	2.6	1.20976	2.86767	-24.9521	5.04862	0.244298	-0.0879075	41.5922	7.402	1	9	0.00452142	0.00157669	0	-1.72659e-05	-7.96403e-05	9.53048e-06	32.7939	0.00604463	0.00508126	-0.00327388	-24.8501	2.8709	2.60509	1.20648	0.316166	0.147109	0.348715	24.9521	7402	15908.4	17546.1	-65.0479	0.0000000E+000	0.0000000E+000	0.0000000E+000	65.0479	0.0000000E+000	0.0000000E+000	0.0000000E+000	-65.0479	0.0000000E+000	0.0000000E+000	0.0000000E+000	-24.9521	0.0000000E+000	0.0000000E+000	0.0000000E+000	24.9521	2.1492	65.0479	-7.89918e-06	-2.14756e-05	7.00098e-09	-2.14827e-05	0.244378	2779.04	0.905956	2779.94
2155.69	2.84879	1.38863	3.16922	-25.9867	5.71378	0.244445	0.00679334	53.1675	10.2075	1	9	0.00484692	0.00152937	0	-1.34699e-05	-7.96403e-05	1.08707e-05	-19.8057	0.00710797	0.00668751	0.00240841	-25.9729	3.17628	2.85548	1.39104	0.283633	0.138256	0.315535	25.9867	10207.5	20940.7	23296	-64.0133	0.0000000E+000	0.0000000E+000	0.0000000E+000	64.0133	0.0000000E+000	0.0000000E+000	0.0000000E+000	-64.0133	0.0000000E+000	0.0000000E+000	0.0000000E+000	-25.9867	0.0000000E+000	0.0000000E+000	0.0000000E+000	25.9867	2.05151	64.0133	3.79602e-06	1.6606e-06	-5.41024e-10	1.66114e-06	0.244525	35983.1	11.7233	35994.8
1468.59	3.10485	1.615	3.49976	-27.4814	6.41109	0.244456	-0.0228974	67.1037	14.2894	1	10	0.00495232	0.00141505	0	-1.54925e-05	-0.000136914	9.33914e-06	-45.6736	0.00659989	0.00461164	0.00472137	-27.5151	3.50603	3.10946	1.61972	0.253492	0.131855	0.285734	27.4814	14289.4	27471.6	30965.7	-62.5186	0.0000000E+000	0.0000000E+000	0.0000000E+000	62.5186	0.0000000E+000	0.0000000E+000	0.0000000E+000	-62.5186	0.0000000E+000	0.0000000E+000	0.0000000E+000	-27.4814	0.0000000E+000	0.0000000E+000	0.0000000E+000	27.4814	1.92251	62.5186	-2.02262e-06	-5.5974e-06	3.13497e-09	-5.60054e-06	0.244593	10676.2	5.97946	10682.1
1000.32	3.41276	1.94353	3.92738	-29.6611	6.8618	0.244444	-0.0231729	81.8632	20.0479	1	10	0.00488857	0.00124474	0	-1.72865e-05	-0.00023237	5.40946e-06	-46.3665	0.00434585	0.00299883	0.00314539	-29.6793	3.93154	3.41576	1.94668	0.221259	0.126005	0.254623	29.6611	20047.9	35203.2	40511.5	-60.3389	0.0000000E+000	0.0000000E+000	0.0000000E+000	60.3389	0.0000000E+000	0.0000000E+000	0.0000000E+000	-60.3389	0.0000000E+000	0.0000000E+000	0.0000000E+000	-29.6611	0.0000000E+000	0.0000000E+000	0.0000000E+000	29.6611	1.75596	60.3389	-1.794e-06	-5.66448e-06	5.38469e-09	-5.66986e-06	0.244676	10548.7	10.0277	10558.7
681.09	3.79209	2.37005	4.47181	-32.0053	7.31251	0.244446	-0.0225064	98.5958	27.6954	1	10	0.00484519	0.0010835	0	-1.99571e-05	5.39982e-05	8.09474e-06	-75.8896	0.00747093	0.00182135	0.00724552	-32.0716	4.47719	3.79391	2.3773	0.189632	0.11852	0.223623	32.0053	27695.4	44312.7	52255.6	-57.9947	0.0000000E+000	0.0000000E+000	0.0000000E+000	57.9947	0.0000000E+000	0.0000000E+000	0.0000000E+000	-57.9947	0.0000000E+000	0.0000000E+000	0.0000000E+000	-32.0053	0.0000000E+000	0.0000000E+000	0.0000000E+000	32.0053	1.6	57.9947	-2.67059e-06	-5.50161e-06	-1.21531e-09	-5.5004e-06	0.244392	10861.2	2.39924	10858.8
463.961	4.26743	2.94049	5.18242	-34.5689	7.76431	0.24445	-0.0223687	116.659	37.5572	1	10	0.00481226	0.000928573	0	-2.26236e-05	-7.96403e-05	7.7136e-06	-44.5948	0.00830693	0.00591528	0.00583221	-34.5849	5.1906	4.27335	2.94632	0.158892	0.109485	0.19296	34.5689	37557.2	54505.5	66192.1	-55.4311	0.0000000E+000	0.0000000E+000	0.0000000E+000	55.4311	0.0000000E+000	0.0000000E+000	0.0000000E+000	-55.4311	0.0000000E+000	0.0000000E+000	0.0000000E+000	-34.5689	0.0000000E+000	0.0000000E+000	0.0000000E+000	34.5689	1.45127	55.4311	-2.66645e-06	-5.46802e-06	1.78145e-09	-5.46981e-06	0.24453	10928.3	3.56035	10931.8
316.316	4.93164	3.6448	6.13234	-36.4668	8.21209	0.244444	-0.0228378	138.047	48.7663	1	10	0.00478257	0.000779892	0	-2.5248e-05	9.21806e-05	6.30266e-06	-64.5776	0.00808145	0.00346927	0.00729891	-36.5023	6.13947	4.93511	3.6521	0.131141	0.0969217	0.16307	36.4668	48766.3	65983.9	82048.9	-53.5332	0.0000000E+000	0.0000000E+000	0.0000000E+000	53.5332	0.0000000E+000	0.0000000E+000	0.0000000E+000	-53.5332	0.0000000E+000	0.0000000E+000	0.0000000E+000	-36.4668	0.0000000E+000	0.0000000E+000	0.0000000E+000	36.4668	1.35306	53.5332	-2.62447e-06	-5.58258e-06	-2.1052e-09	-5.58047e-06	0.244352	10703.5	4.03632	10699.5
215.345	5.88142	4.48345	7.39543	-37.3186	8.66158	0.244451	-0.0215235	164.844	60.5859	1	10	0.00477955	0.000646284	0	-2.71405e-05	-0.00023237	1.49669e-05	73.8528	0.0231584	0.00644049	-0.0222448	-37.1511	7.3871	5.88786	4.46121	0.107536	0.0819757	0.135219	37.3186	60585.9	79476.9	99936.1	-52.6814	0.0000000E+000	0.0000000E+000	0.0000000E+000	52.6814	0.0000000E+000	0.0000000E+000	0.0000000E+000	-52.6814	0.0000000E+000	0.0000000E+000	0.0000000E+000	-37.3186	0.0000000E+000	0.0000000E+000	0.0000000E+000	37.3186	1.31181	52.6814	-1.89245e-06	-5.26143e-06	5.00141e-09	-5.26643e-06	0.244683	11357.4	10.7961	11368.2
146.737	7.13985	5.3495	8.92158	-36.8422	9.10754	0.244455	-0.0229011	202.753	72.8968	1	10	0.00476531	0.000534133	0	-2.9039e-05	0.000187637	9.47957e-06	30.0444	0.0177476	0.015363	-0.00888571	-36.7374	8.92856	7.15522	5.34061	0.0897027	0.0672093	0.112088	36.8422	72896.8	97293.8	121573	-53.1578	0.0000000E+000	0.0000000E+000	0.0000000E+000	53.1578	0.0000000E+000	0.0000000E+000	0.0000000E+000	-53.1578	0.0000000E+000	0.0000000E+000	0.0000000E+000	-36.8422	0.0000000E+000	0.0000000E+000	0.0000000E+000	36.8422	1.33468	53.1578	-1.89855e-06	-5.59831e-06	-4.29709e-09	-5.59401e-06	0.244268	10674.4	8.19334	10666.2
100.032	8.82359	6.05623	10.702	-34.4644	9.55883	0.244456	-0.0212665	262.711	84.1299	1	10	0.00477227	0.000445921	0	-3.20264e-05	-0.00023237	2.88587e-05	-41.693	0.064717	0.0483254	0.0430459	-34.5078	10.7662	8.87192	6.09927	0.0770393	0.0528773	0.0934401	34.4644	84129.9	122573	148667	-55.5356	0.0000000E+000	0.0000000E+000	0.0000000E+000	55.5356	0.0000000E+000	0.0000000E+000	0.0000000E+000	-55.5356	0.0000000E+000	0.0000000E+000	0.0000000E+000	-34.4644	0.0000000E+000	0.0000000E+000	0.0000000E+000	34.4644	1.45695	55.5356	-2.98732e-06	-5.19874e-06	4.94171e-09	-5.20368e-06	0.244689	11494.9	10.9266	11505.8
68.104	10.7335	6.52715	12.5623	-31.3043	10.0214	0.244453	-0.0200006	358.034	96.6573	1	10	0.0047653	0.000379334	0	-3.47089e-05	0.000302184	4.69078e-06	-86.2362	0.0123658	0.000811735	0.0123392	-31.3504	12.5694	10.7343	6.53949	0.0680147	0.0413606	0.0796034	31.3043	96657.3	158946	186028	-58.6957	0.0000000E+000	0.0000000E+000	0.0000000E+000	58.6957	0.0000000E+000	0.0000000E+000	0.0000000E+000	-58.6957	0.0000000E+000	0.0000000E+000	0.0000000E+000	-31.3043	0.0000000E+000	0.0000000E+000	0.0000000E+000	31.3043	1.64443	58.6957	-2.68257e-06	-4.88921e-06	-6.04386e-09	-4.88316e-06	0.244151	12222.3	15.1088	12207.2
46.4415	12.7424	6.63056	14.3643	-27.4904	10.4577	0.244442	-0.024007	516.848	110.127	1	10	0.00476365	0.000331631	0	-3.73086e-05	0.000149454	1.11022e-05	-11.1512	0.0334775	0.0328455	0.00647454	-27.4529	14.3964	12.7752	6.63704	0.0617564	0.0321352	0.069617	27.4904	110127	211639	238577	-62.5096	0.0000000E+000	0.0000000E+000	0.0000000E+000	62.5096	0.0000000E+000	0.0000000E+000	0.0000000E+000	-62.5096	0.0000000E+000	0.0000000E+000	0.0000000E+000	-27.4904	0.0000000E+000	0.0000000E+000	0.0000000E+000	27.4904	1.92177	62.5096	-2.59963e-06	-5.86832e-06	-3.58795e-09	-5.86474e-06	0.244293	10182.1	6.22545	10175.9
31.6296	14.6866	6.30651	15.9834	-23.2389	10.8875	0.244429	-0.0263527	797.881	124.216	1	10	0.00475908	0.000297751	0	-4.06876e-05	9.21806e-05	1.23297e-05	64.7452	0.0414095	0.0176671	-0.0374515	-23.0905	15.9849	14.7043	6.26905	0.0574888	0.0246859	0.0625649	23.2389	124216	289275	314816	-66.7611	0.0000000E+000	0.0000000E+000	0.0000000E+000	66.7611	0.0000000E+000	0.0000000E+000	0.0000000E+000	-66.7611	0.0000000E+000	0.0000000E+000	0.0000000E+000	-23.2389	0.0000000E+000	0.0000000E+000	0.0000000E+000	23.2389	2.32881	66.7611	-3.379e-06	-6.44138e-06	-2.42921e-09	-6.43895e-06	0.244337	9275.29	3.49795	9271.79
21.5517	16.3986	5.83301	17.4052	-19.5805	11.5404	0.244459	-0.0104699	1266.03	142.192	1	11	0.00476475	0.000273755	0	-4.43511e-05	-3.27544e-06	3.806e-06	59.8102	0.0139029	0.0069913	-0.0120172	-19.5355	17.4077	16.4056	5.821	0.0541317	0.0192547	0.0574542	19.5805	142192	399751	424287	-70.4195	0.0000000E+000	0.0000000E+000	0.0000000E+000	70.4195	0.0000000E+000	0.0000000E+000	0.0000000E+000	-70.4195	0.0000000E+000	0.0000000E+000	0.0000000E+000	-19.5805	0.0000000E+000	0.0000000E+000	0.0000000E+000	19.5805	2.81135	70.4195	-3.66351e-06	-2.55944e-06	3.42934e-11	-2.55948e-06	0.244462	23348.8	0.312845	23349.1
14.6852	17.8032	5.27854	18.5692	-16.5148	12.0011	0.244473	-0.00942028	2053.18	165.908	1	11	0.00476347	0.000256525	0	-4.67677e-05	0.000187637	1.03136e-05	-52.7986	0.0402052	0.0243088	0.0320241	-16.5881	18.6017	17.8275	5.31056	0.0516309	0.0153083	0.0538525	16.5148	165908	559566	583643	-73.4852	0.0000000E+000	0.0000000E+000	0.0000000E+000	73.4852	0.0000000E+000	0.0000000E+000	0.0000000E+000	-73.4852	0.0000000E+000	0.0000000E+000	0.0000000E+000	-16.5148	0.0000000E+000	0.0000000E+000	0.0000000E+000	16.5148	3.37275	73.4852	-2.41662e-06	-2.30301e-06	-1.76759e-09	-2.30124e-06	0.244286	25951.8	19.9184	25931.9
10.0032	18.9945	4.75763	19.5813	-14.0618	12.4518	0.244481	-0.00955618	3344.18	197.419	1	11	0.00476135	0.000243158	0	-4.6704e-05	-0.000136914	8.88534e-06	-41.9823	0.0365414	0.0271631	0.0244426	-14.1118	19.6136	19.0217	4.78208	0.0495388	0.0124082	0.0510691	14.0618	197419	788182	812531	-75.9382	0.0000000E+000	0.0000000E+000	0.0000000E+000	75.9382	0.0000000E+000	0.0000000E+000	0.0000000E+000	-75.9382	0.0000000E+000	0.0000000E+000	0.0000000E+000	-14.0618	0.0000000E+000	0.0000000E+000	0.0000000E+000	14.0618	3.99243	75.9382	6.3726e-08	-2.3363e-06	1.30837e-09	-2.33761e-06	0.244618	25583.5	14.3273	25597.9
6.81719	20.0149	4.28279	20.468	-12.078	12.7915	0.244464	-0.00983504	5451.14	238.667	1	11	0.00475519	0.000232323	0	-4.95953e-05	0.000264002	6.4102e-06	-112.562	0.0275917	-0.0105863	0.02548	-12.154	20.463	20.0043	4.30827	0.0477753	0.010223	0.0488568	12.078	238667	1.11537e+06	1.14062e+06	-77.922	0.0000000E+000	0.0000000E+000	0.0000000E+000	77.922	0.0000000E+000	0.0000000E+000	0.0000000E+000	-77.922	0.0000000E+000	0.0000000E+000	0.0000000E+000	-12.078	0.0000000E+000	0.0000000E+000	0.0000000E+000	12.078	4.67332	77.922	-2.89129e-06	-2.40431e-06	-2.59647e-09	-2.40172e-06	0.2442	24856.4	26.8429	24829.6
4.63925	21.0273	3.91932	21.3895	-10.5583	13.2754	0.244483	-0.00939757	8753.09	293.888	1	11	0.00476544	0.000222793	0	-4.91789e-05	5.39982e-05	4.33703e-06	-20.4405	0.0194666	0.0182409	0.00679841	-10.5672	21.4087	21.0456	3.92612	0.0459604	0.00856662	0.0467519	10.5583	293888	1.57672e+06	1.60388e+06	-79.4417	0.0000000E+000	0.0000000E+000	0.0000000E+000	79.4417	0.0000000E+000	0.0000000E+000	0.0000000E+000	-79.4417	0.0000000E+000	0.0000000E+000	0.0000000E+000	-10.5583	0.0000000E+000	0.0000000E+000	0.0000000E+000	10.5583	5.36505	79.4417	4.16345e-07	-2.29755e-06	-5.07452e-10	-2.29704e-06	0.244429	26015.6	5.74598	26009.8
3.1604	21.8439	3.57162	22.1339	-9.28606	13.9685	0.244471	-0.00903232	14099.8	367.135	1	11	0.00476202	0.000215145	0	-4.83598e-05	0.000340366	5.5373e-06	32.8507	0.0257375	0.0216217	-0.0139613	-9.2414	22.153	21.8655	3.55765	0.0445874	0.00729033	0.0451795	9.28606	367135	2.24538e+06	2.2752e+06	-80.7139	0.0000000E+000	0.0000000E+000	0.0000000E+000	80.7139	0.0000000E+000	0.0000000E+000	0.0000000E+000	-80.7139	0.0000000E+000	0.0000000E+000	0.0000000E+000	-9.28606	0.0000000E+000	0.0000000E+000	0.0000000E+000	9.28606	6.11597	80.7139	8.19137e-07	-2.20814e-06	-3.0743e-09	-2.20506e-06	0.24413	27066.2	37.6832	27028.5
2.15577	22.6406	3.26072	22.8742	-8.19546	14.9721	0.244474	-0.00795278	22641.5	460.089	1	11	0.00475722	0.000207973	0	-5.11319e-05	0.000130363	7.28529e-06	-33.7099	0.0350299	0.0291399	0.0194412	-8.2332	22.9058	22.6697	3.28016	0.043271	0.00623194	0.0437175	8.19546	460089	3.19459e+06	3.22755e+06	-81.8045	0.0000000E+000	0.0000000E+000	0.0000000E+000	81.8045	0.0000000E+000	0.0000000E+000	0.0000000E+000	-81.8045	0.0000000E+000	0.0000000E+000	0.0000000E+000	-8.19546	0.0000000E+000	0.0000000E+000	0.0000000E+000	8.19546	6.94342	81.8045	-2.77218e-06	-1.94425e-06	-1.03675e-09	-1.94321e-06	0.244344	30740.7	16.3921	30724.3
1.46631	23.3591	2.9593	23.5458	-7.22018	16.4325	0.244478	-0.00722601	36677.9	579.369	1	11	0.00476132	0.000202215	0	-5.85396e-05	1.58158e-05	1.98072e-06	39.279	0.0097951	0.00758212	-0.00620125	-7.2029	23.5526	23.3667	2.9531	0.0421336	0.00533779	0.0424704	7.22018	579369	4.57323e+06	4.60978e+06	-82.7798	0.0000000E+000	0.0000000E+000	0.0000000E+000	82.7798	0.0000000E+000	0.0000000E+000	0.0000000E+000	-82.7798	0.0000000E+000	0.0000000E+000	0.0000000E+000	-7.22018	0.0000000E+000	0.0000000E+000	0.0000000E+000	7.22018	7.89346	82.7798	-7.4076e-06	-1.7666e-06	-1.14285e-10	-1.76649e-06	0.244463	33833.1	2.18873	33830.9
1.00006	23.9841	2.71476	24.1373	-6.45782	19.607	0.244479	-0.00665735	58622	741.561	1	12	0.00475896	0.000197162	0	-7.06243e-05	0.000225819	2.69557e-06	1.80188	0.0136719	0.0136651	-0.000429893	-6.45316	24.1508	23.9978	2.71433	0.0411668	0.00465966	0.0414297	6.45782	741561	6.55148e+06	6.59331e+06	-83.5422	0.0000000E+000	0.0000000E+000	0.0000000E+000	83.5422	0.0000000E+000	0.0000000E+000	0.0000000E+000	-83.5422	0.0000000E+000	0.0000000E+000	0.0000000E+000	-6.45782	0.0000000E+000	0.0000000E+000	0.0000000E+000	6.45782	8.83471	83.5422	-1.20848e-05	-1.62759e-06	-1.50336e-09	-1.62608e-06	0.244254	36723.2	33.9203	36689.3
0.681362	24.5635	2.50108	24.6905	-5.81388	22.719	0.244497	-0.00623493	93393.2	958.32	1	12	0.00475996	0.000192785	0	-7.74778e-05	0.000130363	2.76114e-06	13.3257	0.0143224	0.0139368	-0.00330111	-5.80299	24.704	24.5774	2.49777	0.0402931	0.00410269	0.0405015	5.81388	958321	9.41181e+06	9.46047e+06	-84.1861	0.0000000E+000	0.0000000E+000	0.0000000E+000	84.1861	0.0000000E+000	0.0000000E+000	0.0000000E+000	-84.1861	0.0000000E+000	0.0000000E+000	0.0000000E+000	-5.81388	0.0000000E+000	0.0000000E+000	0.0000000E+000	5.81388	9.82116	84.1861	-6.85348e-06	-1.52442e-06	-8.12804e-10	-1.52361e-06	0.244366	39214.1	20.9085	39193.2
0.464091	25.023	2.41213	25.139	-5.50612	27.2746	0.244495	-0.00660383	142173	1308.95	1	12	0.00476296	0.000189465	0	-7.87294e-05	1.58158e-05	2.40226e-06	39.4385	0.0126792	0.00979222	-0.00805444	-5.48571	25.1479	25.0328	2.40408	0.0395954	0.00381687	0.0397789	5.50612	1.30895e+06	1.35788e+07	1.36418e+07	-84.4939	0.0000000E+000	0.0000000E+000	0.0000000E+000	84.4939	0.0000000E+000	0.0000000E+000	0.0000000E+000	-84.4939	0.0000000E+000	0.0000000E+000	0.0000000E+000	-5.50612	0.0000000E+000	0.0000000E+000	0.0000000E+000	5.50612	10.3738	84.4939	-1.25158e-06	-1.6146e-06	-1.04445e-10	-1.6145e-06	0.24448	37023.3	2.39494	37020.9
0.316193	25.4062	2.42672	25.5218	-5.45618	33.949	0.244483	-0.00652411	207418	1875.28	1	12	0.00475921	0.000186476	0	-7.43432e-05	-0.000366009	2.18376e-06	49.249	0.0117107	0.0076444	-0.00887145	-5.43473	25.5286	25.4138	2.41785	0.0390047	0.00372562	0.0391822	5.45618	1.87528e+06	1.96329e+07	1.97223e+07	-84.5438	0.0000000E+000	0.0000000E+000	0.0000000E+000	84.5438	0.0000000E+000	0.0000000E+000	0.0000000E+000	-84.5438	0.0000000E+000	0.0000000E+000	0.0000000E+000	-5.45618	0.0000000E+000	0.0000000E+000	0.0000000E+000	5.45618	10.4693	84.5438	4.3862e-06	-1.59503e-06	2.38788e-09	-1.59742e-06	0.244849	37473.7	56.1009	37529.8
0.215268	25.8181	2.57541	25.9463	-5.69653	43.7424	0.244482	-0.00518598	287074	2828.38	1	12	0.00476002	0.000183457	0	-6.79029e-05	-6.05491e-05	1.80224e-06	-23.9592	0.0098238	0.00897733	0.00398931	-5.70333	25.9556	25.8271	2.5794	0.0383509	0.00382558	0.0385412	5.69653	2.82838e+06	2.83541e+07	2.84948e+07	-84.3035	0.0000000E+000	0.0000000E+000	0.0000000E+000	84.3035	0.0000000E+000	0.0000000E+000	0.0000000E+000	-84.3035	0.0000000E+000	0.0000000E+000	0.0000000E+000	-5.69653	0.0000000E+000	0.0000000E+000	0.0000000E+000	5.69653	10.0249	84.3035	6.44025e-06	-1.26788e-06	3.14006e-10	-1.26819e-06	0.244542	47142.8	11.6755	47154.5
0.146929	26.3	2.96852	26.467	-6.43981	58.0809	0.244478	-0.00364414	364899	4590.33	1	12	0.00475994	0.000179844	0	-6.96543e-05	0.000206728	3.3336e-06	0.246549	0.018536	0.0185359	-7.97621e-05	-6.43514	26.4854	26.3186	2.96844	0.0375445	0.0042377	0.0377829	6.43981	4.59032e+06	4.06686e+07	4.09268e+07	-83.5602	0.0000000E+000	0.0000000E+000	0.0000000E+000	83.5602	0.0000000E+000	0.0000000E+000	0.0000000E+000	-83.5602	0.0000000E+000	0.0000000E+000	0.0000000E+000	-6.43981	0.0000000E+000	0.0000000E+000	0.0000000E+000	6.43981	8.85963	83.5602	-1.75136e-06	-8.90912e-07	-7.53345e-10	-8.90159e-07	0.244271	67088	56.7289	67031.3
0.0999041	26.8212	3.67636	27.072	-7.80484	79.157	0.24448	-0.0023137	433330	7991.24	1	12	0.00476166	0.000175889	0	-9.70858e-05	-0.000213279	2.24719e-06	-23.1701	0.0127762	0.0117457	0.00502695	-7.81201	27.0843	26.833	3.68139	0.0365964	0.00501623	0.0369385	7.80484	7.99124e+06	5.83008e+07	5.8846e+07	-82.1952	0.0000000E+000	0.0000000E+000	0.0000000E+000	82.1952	0.0000000E+000	0.0000000E+000	0.0000000E+000	-82.1952	0.0000000E+000	0.0000000E+000	0.0000000E+000	-7.80484	0.0000000E+000	0.0000000E+000	0.0000000E+000	7.80484	7.29559	82.1952	-2.74315e-05	-5.65655e-07	4.93464e-10	-5.66148e-07	0.244694	105666	92.1807	105758
0.0680626	27.4289	4.6723	27.824	-9.66709	110.084	0.244477	-0.00178819	500474	14112.4	1	12	0.0047619	0.000171143	0	-0.000163308	1.58158e-05	1.96075e-06	-13.1715	0.0114568	0.0111554	0.00261061	-9.66853	27.8355	27.4401	4.67491	0.0354298	0.00603518	0.0359402	9.66709	1.41124e+07	8.28477e+07	8.40411e+07	-80.3329	0.0000000E+000	0.0000000E+000	0.0000000E+000	80.3329	0.0000000E+000	0.0000000E+000	0.0000000E+000	-80.3329	0.0000000E+000	0.0000000E+000	0.0000000E+000	-9.66709	0.0000000E+000	0.0000000E+000	0.0000000E+000	9.66709	5.87054	80.3329	-6.62222e-05	-4.37169e-07	-2.82815e-11	-4.37141e-07	0.244461	136718	8.84459	136709
0.0464052	28.2358	5.87799	28.8411	-11.7596	155.436	0.244478	-0.00224332	583478	24235.9	1	12	0.00476118	0.000165083	0	-0.000293076	0.000149454	2.13343e-06	10.086	0.0129234	0.0127237	-0.00226322	-11.7501	28.8531	28.2485	5.87573	0.033945	0.00706651	0.0346727	11.7596	2.42359e+07	1.1642e+08	1.18916e+08	-78.2404	0.0000000E+000	0.0000000E+000	0.0000000E+000	78.2404	0.0000000E+000	0.0000000E+000	0.0000000E+000	-78.2404	0.0000000E+000	0.0000000E+000	0.0000000E+000	-11.7596	0.0000000E+000	0.0000000E+000	0.0000000E+000	11.7596	4.80364	78.2404	-0.000129768	-5.48443e-07	-3.35274e-10	-5.48108e-07	0.244329	108981	66.6219	108914
0.0315922	29.4525	7.64728	30.4291	-14.5553	222.041	0.244474	-0.00286405	658769	41607.3	1	12	0.00476399	0.00015656	0	-0.000458722	0.000111272	1.63044e-06	12.9059	0.0104141	0.010151	-0.002326	-14.5463	30.4383	29.4626	7.64495	0.0318086	0.00825904	0.0328633	14.5553	4.16073e+07	1.60245e+08	1.65559e+08	-75.4447	0.0000000E+000	0.0000000E+000	0.0000000E+000	75.4447	0.0000000E+000	0.0000000E+000	0.0000000E+000	-75.4447	0.0000000E+000	0.0000000E+000	0.0000000E+000	-14.5553	0.0000000E+000	0.0000000E+000	0.0000000E+000	14.5553	3.85137	75.4447	-0.000165645	-7.00185e-07	-3.18689e-10	-6.99867e-07	0.244362	85359.3	38.8512	85320.4
0.0215268	30.9252	10.2549	32.5812	-18.3456	319.78	0.244474	-0.00322413	720958	71423	1	12	0.00476092	0.000146125	0	-0.00058235	0.000321275	1.59611e-06	51.6996	0.0109229	0.00676985	-0.00857199	-18.3276	32.5849	30.932	10.2463	0.0291326	0.00966045	0.0306926	18.3456	7.1423e+07	2.15388e+08	2.26921e+08	-71.6543	0.0000000E+000	0.0000000E+000	0.0000000E+000	71.6543	0.0000000E+000	0.0000000E+000	0.0000000E+000	-71.6543	0.0000000E+000	0.0000000E+000	0.0000000E+000	-18.3456	0.0000000E+000	0.0000000E+000	0.0000000E+000	18.3456	3.01566	71.6543	-0.000123629	-7.88218e-07	-1.03583e-09	-7.87182e-07	0.244153	75826.4	99.647	75726.8
0.0146812	32.5331	13.5397	35.2381	-22.5962	463.082	0.244474	-0.0030864	800665	118207	1	12	0.00476342	0.000135178	0	-0.000566736	9.21806e-05	1.72893e-06	10.3812	0.01279	0.0125806	-0.00230471	-22.5849	35.2489	32.5457	13.5374	0.0261999	0.0109039	0.0283783	22.5962	1.18207e+08	2.84027e+08	3.07643e+08	-67.4038	0.0000000E+000	0.0000000E+000	0.0000000E+000	67.4038	0.0000000E+000	0.0000000E+000	0.0000000E+000	-67.4038	0.0000000E+000	0.0000000E+000	0.0000000E+000	-22.5962	0.0000000E+000	0.0000000E+000	0.0000000E+000	22.5962	2.4028	67.4038	1.56148e-05	-7.54544e-07	-2.84506e-10	-7.5426e-07	0.244382	79210.1	29.8667	79180.2
0.0100092	34.696	17.4034	38.8161	-26.6382	673.264	0.244478	-0.00267546	913668	183668	1	12	0.00476178	0.000122676	0	-0.000378313	-6.05491e-05	1.74679e-06	49.4597	0.0142391	0.00925515	-0.010821	-26.6178	38.8195	34.7052	17.3926	0.023028	0.0115508	0.0257625	26.6382	1.83668e+08	3.66166e+08	4.09648e+08	-63.3618	0.0000000E+000	0.0000000E+000	0.0000000E+000	63.3618	0.0000000E+000	0.0000000E+000	0.0000000E+000	-63.3618	0.0000000E+000	0.0000000E+000	0.0000000E+000	-26.6382	0.0000000E+000	0.0000000E+000	0.0000000E+000	26.6382	1.99363	63.3618	0.000188423	-6.54091e-07	1.61996e-10	-6.54253e-07	0.244539	91378.1	22.6313	91400.7