File: txt/18811_R307_UC93_30_SOC50_C07.mpt
EC-Lab ASCII FILE
Nb header lines : 65

Potentio Electrochemical Impedance Spectroscopy

Run on channel : 6 (SN 65795)
Grouped channel(s) : 5, 6, 7, 8
CE vs. WE compliance from -10 V to 10 V
Electrode connection : standard
Potential control : Ewe
Ewe ctrl range : min = -10.00 V, max = 10.00 V
Safety Limits :
	Do not start on E overload
Acquisition started on : 11/11/2025 16:20:58.367
Loaded Setting File :  C:\Users\Celltest\OneDrive - store-dot.com\Documents\EC-Lab\Data\@Biologic Test Protocols\cathode half cell EIS SOC50.mps
Saved on :
	File : 19187_R297_UC94_SOC50_C06.mpr
	Directory : C:\Users\Celltest\OneDrive - store-dot.com\Documents\EC-Lab\Data\Michael\
	Host : 169.254.61.224
Device : VMP-3e (SN .003165)
Address : USB
EC-LAB for windows v11.62 (software)
Internet server v27.00 (firmware)
Command interpretor v12.03 (firmware)
Electrode material :
Initial state :
Electrolyte :
Comments :
Electrode surface area : 0.001 cm²
Characteristic mass : 0.001 g
Equivalent Weight : 0.000 g/eq.
Density : 0.000 g/cm3
Volume (V) : 0.001 cm³
Record Ece
Cycle Definition : Charge/Discharge alternance
Mode                Multi sine
E (V)               0.0000
vs.                 Eoc
tE (h:m:s)          0:00:0.0000
record              0
dI                  0.000
unit dI             mA
dt (s)              0.000
fi                  1.000
unit fi             MHz
ff                  0.100
unit ff             mHz
Nd                  10
Points              per decade
spacing             Logarithmic
Va (mV)             5.0
pw                  0.10
Na                  2
corr                0
E range min (V)     -10.000
E range max (V)     10.000
I Range             Auto
Bandwidth           5
nc cycles           0
goto Ns'            0
nr cycles           0
inc. cycle          0
Nb header lines : 3

freq/Hz	Re(Z)/Ohm	-Im(Z)/Ohm	|Z|/Ohm	Phase(Z)/deg	time/s	<Ewe>/V	<I>/mA	Cs/µF	Cp/µF	cycle number	I Range	|Ewe|/V	|I|/A	Ns	(Q-Qo)/mA.h	<Ece>/V	|Ece|/V	Phase(Zce)/deg	|Zce|/Ohm	Re(Zce)/Ohm	-Im(Zce)/Ohm	Phase(Zwe-ce)/deg	|Zwe-ce|/Ohm	Re(Zwe-ce)/Ohm	-Im(Zwe-ce)/Ohm	Re(Y)/Ohm-1	Im(Y)/Ohm-1	|Y|/Ohm-1	Phase(Y)/deg	Re(C)/nF	Im(C)/nF	|C|/nF	Phase(C)/deg	Re(M)	Im(M)	|M|	Phase(M)/deg	Re(Permittivity)	Im(Permittivity)	|Permittivity|	Phase(Permittivity)/deg	Re(Resistivity)/Ohm.cm	Im(Resistivity)/Ohm.cm	|Resistivity|/Ohm.cm	Phase(Resistivity)/deg	Re(Conductivity)/mS/cm	Im(Conductivity)/mS/cm	|Conductivity|/mS/cm	Phase(Conductivity)/deg	Tan(Delta)	Loss Angle(Delta)/deg	dq/mA.h	Pwe/W	Pce/W	Pwe-ce/W	<Ewe-Ece>/V	Rwe/Ohm	Rce/Ohm	Rwe-ce/Ohm		Ewe-Ece/V
1.00002e+06	3.15445	2.97004	4.33263	-43.2753	2.23453	3.97162	-0.0402497	0.0535858	0.0251809	1	10	0.000229556	5.29831e-05	0	-1.68332e-05	-6.25447e-05	0.000198601	-63.3232	3.74839	1.68287	3.34938	-52.5671	7.95831	4.83732	6.31942	0.168043	0.158219	0.230806	43.2753	25.1809	26.7444	36.7333	-46.7247	0.0000000E+000	0.0000000E+000	0.0000000E+000	46.7247	0.0000000E+000	0.0000000E+000	0.0000000E+000	-46.7247	0.0000000E+000	0.0000000E+000	0.0000000E+000	-43.2753	0.0000000E+000	0.0000000E+000	0.0000000E+000	43.2753	1.06209	46.7247	-1.68332e-05	-0.000159857	2.51741e-09	-0.000159859	3.97169	98674.5	1.55392	98676.1
630957	0.923443	-0.186217	0.942032	11.4011	3.40353	3.97171	0.026631	-1.35457	-0.0529308	1	9	0.000256217	0.000271984	0	-1.40447e-05	-0.000138846	0.000115554	-94.7824	0.424858	-0.0354208	0.423379	-14.9529	0.919146	0.888022	0.237162	1.04059	-0.20984	1.06154	-11.4011	-52.9309	262.482	267.766	-101.401	0.0000000E+000	0.0000000E+000	0.0000000E+000	101.401	0.0000000E+000	0.0000000E+000	0.0000000E+000	-101.401	0.0000000E+000	0.0000000E+000	0.0000000E+000	11.4011	0.0000000E+000	0.0000000E+000	0.0000000E+000	-11.4011	4.95896	78.5989	2.58391e-06	0.000105771	-3.69762e-09	0.000105774	3.97184	149138	5.2137	149143
398103	1.24814	0.0659673	1.24988	-3.02541	4.17055	3.97189	0.0488982	6.06032	0.0168817	1	9	0.000999822	0.000799935	0	-4.45292e-06	-0.000386827	5.80114e-05	163.569	0.0725202	-0.0695585	-0.0205131	-2.20863	1.17946	1.17858	0.0454542	0.798962	0.0422272	0.800077	3.02541	16.8817	319.411	319.857	-86.9746	0.0000000E+000	0.0000000E+000	0.0000000E+000	86.9746	0.0000000E+000	0.0000000E+000	0.0000000E+000	-86.9746	0.0000000E+000	0.0000000E+000	0.0000000E+000	-3.02541	0.0000000E+000	0.0000000E+000	0.0000000E+000	3.02541	18.9206	86.9746	5.61331e-06	0.000194219	-1.89151e-08	0.000194237	3.97228	81227.8	7.91086	81235.7
251206	1.36356	0.355391	1.40911	-14.6083	4.93653	3.97181	0.0414138	1.78272	0.113398	1	9	0.00311515	0.00221073	0	3.35812e-06	-4.34693e-05	6.01623e-05	84.5232	0.0272138	0.00259738	-0.0270896	-13.5126	1.40505	1.36615	0.328301	0.686727	0.178985	0.709669	14.6083	113.398	435.085	449.62	-75.3917	0.0000000E+000	0.0000000E+000	0.0000000E+000	75.3917	0.0000000E+000	0.0000000E+000	0.0000000E+000	-75.3917	0.0000000E+000	0.0000000E+000	0.0000000E+000	-14.6083	0.0000000E+000	0.0000000E+000	0.0000000E+000	14.6083	3.83678	75.3917	3.66087e-06	0.000164488	-1.80023e-09	0.00016449	3.97185	95905.4	1.04963	95906.5
158486	1.49118	0.570497	1.59659	-20.9358	5.70256	3.9718	0.0375785	1.76026	0.224748	1	9	0.00534761	0.0033494	0	2.24194e-05	-0.000501279	6.61896e-05	84.2956	0.0197616	0.00196423	-0.0196638	-20.2494	1.59151	1.49315	0.550833	0.584986	0.223804	0.626336	20.9358	224.748	587.454	628.979	-69.0641	0.0000000E+000	0.0000000E+000	0.0000000E+000	69.0641	0.0000000E+000	0.0000000E+000	0.0000000E+000	-69.0641	0.0000000E+000	0.0000000E+000	0.0000000E+000	-20.9358	0.0000000E+000	0.0000000E+000	0.0000000E+000	20.9358	2.61383	69.0641	1.38632e-05	0.000149254	-1.88373e-08	0.000149273	3.9723	105693	13.3395	105707
100004	1.68011	0.75222	1.84082	-24.1191	6.47052	3.97183	0.0463662	2.11572	0.353287	1	9	0.00537818	0.00292163	0	4.89833e-05	-0.000196073	4.29075e-05	78.5595	0.0146862	0.002913	-0.0143944	-23.6723	1.83765	1.68302	0.737826	0.495812	0.221985	0.543237	24.1191	353.287	789.08	864.557	-65.8809	0.0000000E+000	0.0000000E+000	0.0000000E+000	65.8809	0.0000000E+000	0.0000000E+000	0.0000000E+000	-65.8809	0.0000000E+000	0.0000000E+000	0.0000000E+000	-24.1191	0.0000000E+000	0.0000000E+000	0.0000000E+000	24.1191	2.23353	65.8809	1.01328e-05	0.000184159	-9.09115e-09	0.000184168	3.97203	85662.2	4.22878	85666.4
63093.8	1.92328	0.938148	2.13989	-26.0024	7.23855	3.97185	0.0545954	2.68882	0.516797	1	9	0.00529356	0.00247375	0	6.55431e-05	-4.34693e-05	1.97026e-05	71.7396	0.00796466	0.00249561	-0.00756358	-25.791	2.13883	1.92578	0.930584	0.42001	0.204874	0.467313	26.0024	516.797	1059.48	1178.8	-63.9976	0.0000000E+000	0.0000000E+000	0.0000000E+000	63.9976	0.0000000E+000	0.0000000E+000	0.0000000E+000	-63.9976	0.0000000E+000	0.0000000E+000	0.0000000E+000	-26.0024	0.0000000E+000	0.0000000E+000	0.0000000E+000	26.0024	2.05009	63.9976	1.16478e-05	0.000216845	-2.37322e-09	0.000216847	3.9719	72750.7	0.796207	72751.5
39814.1	2.21473	1.12046	2.48203	-26.8355	8.00653	3.97184	0.0453608	3.56768	0.727055	1	9	0.00525575	0.00211752	0	7.60032e-05	-0.000234223	1.85504e-05	17.222	0.00876042	0.00836764	-0.00259374	-26.6952	2.48833	2.2231	1.11787	0.359506	0.181879	0.402896	26.8355	727.055	1437.11	1610.56	-63.1645	0.0000000E+000	0.0000000E+000	0.0000000E+000	63.1645	0.0000000E+000	0.0000000E+000	0.0000000E+000	-63.1645	0.0000000E+000	0.0000000E+000	0.0000000E+000	-26.8355	0.0000000E+000	0.0000000E+000	0.0000000E+000	26.8355	1.97662	63.1645	6.10625e-06	0.000180166	-1.06246e-08	0.000180177	3.97208	87561	5.16356	87566.2
25116.9	2.55918	1.31964	2.87938	-27.2779	8.77253	3.97186	0.0557497	4.80174	1.00858	1	9	0.00525168	0.00182389	0	8.95889e-05	-6.25447e-05	8.16165e-06	-13.6874	0.00447486	0.00434777	0.00105886	-27.257	2.88373	2.56353	1.3207	0.308675	0.159168	0.347297	27.2779	1008.58	1955.94	2200.67	-62.7221	0.0000000E+000	0.0000000E+000	0.0000000E+000	62.7221	0.0000000E+000	0.0000000E+000	0.0000000E+000	-62.7221	0.0000000E+000	0.0000000E+000	0.0000000E+000	-27.2779	0.0000000E+000	0.0000000E+000	0.0000000E+000	27.2779	1.9393	62.7221	4.55006e-06	0.00022143	-3.48685e-09	0.000221433	3.97192	71244.5	1.12188	71245.6
15847.7	2.94365	1.49619	3.30207	-26.9431	9.53955	3.97185	0.0491589	6.71225	1.37806	1	9	0.00522772	0.00158316	0	0.000102025	-0.000310525	5.19431e-06	-112.133	0.00328096	-0.00123612	0.0030392	-26.9998	3.30235	2.94242	1.49923	0.269969	0.137219	0.30284	26.9431	1378.06	2711.24	3041.36	-63.0569	0.0000000E+000	0.0000000E+000	0.0000000E+000	63.0569	0.0000000E+000	0.0000000E+000	0.0000000E+000	-63.0569	0.0000000E+000	0.0000000E+000	0.0000000E+000	-26.9431	0.0000000E+000	0.0000000E+000	0.0000000E+000	26.9431	1.96744	63.0569	4.04698e-06	0.000195252	-1.52651e-08	0.000195267	3.97216	80796.1	6.31676	80802.5
10002.2	3.36462	1.72356	3.78039	-27.1242	10.3076	3.97186	0.0449885	9.23202	1.91901	1	9	0.00500034	0.00132271	0	0.000111699	-0.000215148	4.34037e-06	22.6289	0.00328143	0.00302881	-0.00126257	-27.0863	3.78251	3.36765	1.7223	0.235431	0.120602	0.264523	27.1242	1919.01	3746.16	4209.08	-62.8758	0.0000000E+000	0.0000000E+000	0.0000000E+000	62.8758	0.0000000E+000	0.0000000E+000	0.0000000E+000	-62.8758	0.0000000E+000	0.0000000E+000	0.0000000E+000	-27.1242	0.0000000E+000	0.0000000E+000	0.0000000E+000	27.1242	1.95213	62.8758	5.23317e-06	0.000178688	-9.67918e-09	0.000178698	3.97208	88286.2	4.7823	88291
6309.38	3.86316	2.00688	4.35334	-27.4515	10.9815	3.97183	-0.0191119	12.5694	2.67121	1	10	0.00505079	0.00116021	0	0.000114836	-0.000482204	6.86812e-06	-25.9199	0.00591972	0.00532424	0.00258759	-27.4494	4.35926	3.86849	2.00946	0.203844	0.105895	0.229709	27.4515	2671.21	5141.99	5794.43	-62.5485	0.0000000E+000	0.0000000E+000	0.0000000E+000	62.5485	0.0000000E+000	0.0000000E+000	0.0000000E+000	-62.5485	0.0000000E+000	0.0000000E+000	0.0000000E+000	-27.4515	0.0000000E+000	0.0000000E+000	0.0000000E+000	27.4515	1.92496	62.5486	-3.13632e-07	-7.59092e-05	9.21583e-09	-7.59185e-05	3.97232	207820	25.2306	207845
3983.6	4.40995	2.3685	5.00574	-28.2394	11.5441	3.97182	-0.0209249	16.8683	3.77642	1	10	0.00520077	0.00103896	0	0.000111282	-0.000272374	5.49026e-06	-84.5679	0.00528438	0.000500251	0.00526065	-28.2897	5.00868	4.41045	2.37376	0.175994	0.0945227	0.199771	28.2394	3776.42	7031.39	7981.34	-61.7606	0.0000000E+000	0.0000000E+000	0.0000000E+000	61.7606	0.0000000E+000	0.0000000E+000	0.0000000E+000	-61.7606	0.0000000E+000	0.0000000E+000	0.0000000E+000	-28.2394	0.0000000E+000	0.0000000E+000	0.0000000E+000	28.2394	1.86192	61.7606	-1.5388e-06	-8.31097e-05	5.6994e-09	-8.31154e-05	3.97209	189813	13.0168	189826
2510.8	5.1079	2.81617	5.83279	-28.8695	12.3688	3.97178	-0.0225294	22.5086	5.24703	1	10	0.00507391	0.000869894	0	0.000105647	-0.000176997	7.26083e-06	-97.7604	0.00834679	-0.00112707	0.00827035	-28.946	5.8358	5.10677	2.82444	0.150138	0.0827763	0.171444	28.8695	5247.03	9516.93	10867.5	-61.1305	0.0000000E+000	0.0000000E+000	0.0000000E+000	61.1305	0.0000000E+000	0.0000000E+000	0.0000000E+000	-61.1305	0.0000000E+000	0.0000000E+000	0.0000000E+000	-28.8695	0.0000000E+000	0.0000000E+000	0.0000000E+000	28.8695	1.81377	61.1305	-3.24074e-06	-8.94818e-05	3.98764e-09	-8.94858e-05	3.97196	176293	7.85628	176301
1585.51	5.97533	3.3367	6.84384	-29.1795	13.2708	3.97178	-0.0233112	30.084	7.15104	1	10	0.00493605	0.00072124	0	0.000100281	-0.000157922	3.3172e-06	4.11706	0.0045993	0.00458743	-0.000330204	-29.1584	6.84768	5.97992	3.33637	0.127574	0.0712389	0.146117	29.1795	7151.04	12806	14667.4	-60.8205	0.0000000E+000	0.0000000E+000	0.0000000E+000	60.8205	0.0000000E+000	0.0000000E+000	0.0000000E+000	-60.8205	0.0000000E+000	0.0000000E+000	0.0000000E+000	-29.1795	0.0000000E+000	0.0000000E+000	0.0000000E+000	29.1795	1.79079	60.8205	-2.16941e-06	-9.25867e-05	3.68134e-09	-9.25904e-05	3.97193	170381	6.77451	170388
1000.32	7.07839	3.8495	8.05744	-28.539	14.1728	3.97178	-0.0222688	41.3311	9.43391	1	10	0.00483655	0.00060026	0	9.54673e-05	-6.25447e-05	1.28128e-05	18.3255	0.0213455	0.020263	-0.00671134	-28.4285	8.07205	7.09865	3.84279	0.109029	0.059294	0.124109	28.539	9433.91	17346.9	19746.2	-61.461	0.0000000E+000	0.0000000E+000	0.0000000E+000	61.461	0.0000000E+000	0.0000000E+000	0.0000000E+000	-61.461	0.0000000E+000	0.0000000E+000	0.0000000E+000	-28.539	0.0000000E+000	0.0000000E+000	0.0000000E+000	28.539	1.83878	61.461	-2.55931e-06	-8.84468e-05	1.39279e-09	-8.84482e-05	3.97184	178356	2.80862	178359
631.01	8.47995	4.30096	9.5083	-26.8938	15.0735	3.97178	-0.0211966	58.6433	11.999	1	10	0.00479474	0.000504269	0	8.96422e-05	-0.000138846	4.94809e-06	-68.3523	0.0098124	0.00361978	0.00912033	-26.9329	9.51566	8.48357	4.31008	0.0937966	0.0475729	0.105171	26.8938	11999	23657.6	26526.6	-63.1062	0.0000000E+000	0.0000000E+000	0.0000000E+000	63.1062	0.0000000E+000	0.0000000E+000	0.0000000E+000	-63.1062	0.0000000E+000	0.0000000E+000	0.0000000E+000	-26.8938	0.0000000E+000	0.0000000E+000	0.0000000E+000	26.8938	1.97164	63.1062	-2.91234e-06	-8.41885e-05	2.94308e-09	-8.41914e-05	3.97192	187378	6.55039	187384
398.089	10.0746	4.46785	11.0209	-23.9162	15.9748	3.97179	-0.0211408	89.4831	14.7064	1	10	0.0047565	0.00043159	0	8.4397e-05	-0.000215148	1.69442e-05	87.0053	0.0392599	0.00205107	-0.0392063	-23.7253	11.0069	10.0767	4.42865	0.0829463	0.0367848	0.090737	23.9162	14706.4	33161.7	36276.4	-66.0838	0.0000000E+000	0.0000000E+000	0.0000000E+000	66.0838	0.0000000E+000	0.0000000E+000	0.0000000E+000	-66.0838	0.0000000E+000	0.0000000E+000	0.0000000E+000	-23.9162	0.0000000E+000	0.0000000E+000	0.0000000E+000	23.9162	2.25491	66.0838	-2.52828e-06	-8.39668e-05	4.5484e-09	-8.39713e-05	3.972	187873	10.1769	187883
251.044	11.6982	4.32319	12.4714	-20.2824	16.873	3.97178	-0.0215391	146.644	17.6214	1	10	0.00474558	0.000380516	0	7.95458e-05	-0.000157922	9.12545e-06	-10.4831	0.0239818	0.0235815	0.00436338	-20.2637	12.4951	11.7217	4.32755	0.0752115	0.0277953	0.0801832	20.2824	17621.4	47681.9	50833.9	-69.7176	0.0000000E+000	0.0000000E+000	0.0000000E+000	69.7176	0.0000000E+000	0.0000000E+000	0.0000000E+000	-69.7176	0.0000000E+000	0.0000000E+000	0.0000000E+000	-20.2824	0.0000000E+000	0.0000000E+000	0.0000000E+000	20.2824	2.70591	69.7176	-2.43497e-06	-8.55487e-05	3.4015e-09	-8.55521e-05	3.97193	184398	7.33185	184405
158.428	13.1815	3.8055	13.7198	-16.1034	17.7779	3.97178	-0.0210031	263.983	20.3096	1	10	0.0047378	0.000345325	0	7.51811e-05	-2.43938e-05	6.4305e-06	87.2228	0.0186216	0.000902244	-0.0185997	-16.0277	13.7156	13.1824	3.7869	0.0700273	0.0202169	0.0728872	16.1034	20309.6	70348.4	73221.4	-73.8966	0.0000000E+000	0.0000000E+000	0.0000000E+000	73.8966	0.0000000E+000	0.0000000E+000	0.0000000E+000	-73.8966	0.0000000E+000	0.0000000E+000	0.0000000E+000	-16.1034	0.0000000E+000	0.0000000E+000	0.0000000E+000	16.1034	3.4638	73.8966	-2.36188e-06	-8.34196e-05	5.12346e-10	-8.34201e-05	3.97181	189105	1.16144	189106
100.032	14.2927	3.13626	14.6327	-12.3763	18.6778	3.97177	-0.0213232	507.306	23.3047	1	10	0.0047264	0.000323002	0	7.01263e-05	3.28324e-05	1.43983e-05	-0.153597	0.0445763	0.0445762	0.000119499	-12.3395	14.6763	14.3372	3.13638	0.0667519	0.0146474	0.06834	12.3763	23304.7	106205	108732	-77.6237	0.0000000E+000	0.0000000E+000	0.0000000E+000	77.6237	0.0000000E+000	0.0000000E+000	0.0000000E+000	-77.6237	0.0000000E+000	0.0000000E+000	0.0000000E+000	-12.3763	0.0000000E+000	0.0000000E+000	0.0000000E+000	12.3763	4.55724	77.6237	-2.36372e-06	-8.46909e-05	-7.00093e-10	-8.46902e-05	3.97173	186265	1.53975	186263
63.0823	15.1342	2.43159	15.3283	-9.12761	19.593	3.97179	-0.01852	1037.58	26.1104	1	10	0.004736	0.00030897	0	6.53474e-05	-0.000157922	7.42241e-06	-55.7672	0.0240231	0.0135144	0.0198613	-9.19283	15.3448	15.1478	2.45146	0.0644125	0.0103491	0.0652386	9.12761	26110.4	162511	164595	-80.8724	0.0000000E+000	0.0000000E+000	0.0000000E+000	80.8724	0.0000000E+000	0.0000000E+000	0.0000000E+000	-80.8724	0.0000000E+000	0.0000000E+000	0.0000000E+000	-9.12761	0.0000000E+000	0.0000000E+000	0.0000000E+000	9.12761	6.224	80.8724	-2.51319e-06	-7.35575e-05	2.92471e-09	-7.35604e-05	3.97195	214460	8.5271	214468
39.8089	15.5424	1.80855	15.6473	-6.63723	20.4938	3.97179	-0.020668	2210.59	29.532	1	10	0.00473113	0.000302361	0	5.99436e-05	-0.000463129	4.84618e-06	6.29249	0.0160278	0.0159312	-0.00175671	-6.62411	15.6629	15.5584	1.8068	0.0634805	0.00738674	0.0639088	6.63723	29532	253793	255506	-83.3628	0.0000000E+000	0.0000000E+000	0.0000000E+000	83.3628	0.0000000E+000	0.0000000E+000	0.0000000E+000	-83.3628	0.0000000E+000	0.0000000E+000	0.0000000E+000	-6.63723	0.0000000E+000	0.0000000E+000	0.0000000E+000	6.63723	8.59384	83.3628	-2.66112e-06	-8.2089e-05	9.57195e-09	-8.20985e-05	3.97225	192171	22.408	192193
25.1044	15.8808	1.3375	15.937	-4.81415	21.3731	3.97178	-0.0205526	4739.99	33.3848	1	10	0.0047332	0.000296994	0	5.484e-05	-0.000215148	4.2197e-06	61.3833	0.014208	0.0068049	-0.0124724	-4.76743	15.9427	15.8876	1.32502	0.0625257	0.00526598	0.0627471	4.81415	33384.8	396395	397799	-85.1859	0.0000000E+000	0.0000000E+000	0.0000000E+000	85.1859	0.0000000E+000	0.0000000E+000	0.0000000E+000	-85.1859	0.0000000E+000	0.0000000E+000	0.0000000E+000	-4.81415	0.0000000E+000	0.0000000E+000	0.0000000E+000	4.81415	11.8735	85.1859	-2.70701e-06	-8.16305e-05	4.42185e-09	-8.1635e-05	3.972	193250	10.4682	193260
15.8576	16.1952	1.04267	16.2287	-3.68371	22.498	3.97182	-0.0194572	9625.79	39.7341	1	11	0.00474399	0.000292321	0	4.84892e-05	-8.16201e-05	3.13775e-06	-117.956	0.0107339	-0.00503203	0.00948132	-3.71826	16.2243	16.1901	1.05215	0.061492	0.00395895	0.0616193	3.68371	39734.1	617166	618443	-86.3163	0.0000000E+000	0.0000000E+000	0.0000000E+000	86.3163	0.0000000E+000	0.0000000E+000	0.0000000E+000	-86.3163	0.0000000E+000	0.0000000E+000	0.0000000E+000	-3.68371	0.0000000E+000	0.0000000E+000	0.0000000E+000	3.68371	15.5324	86.3163	-1.77298e-06	-7.72803e-05	1.58809e-09	-7.72819e-05	3.9719	204132	4.19486	204136
10.0032	16.322	0.869432	16.3451	-3.04913	23.4808	3.97182	-0.0186364	18299.8	51.7775	1	11	0.00473355	0.000289601	0	4.32518e-05	-0.000119771	6.79912e-06	28.6873	0.0234776	0.0205958	-0.0112699	-3.00589	16.3651	16.3426	0.858162	0.0610938	0.00325432	0.0611804	3.04913	51777.5	972026	973404	-86.9509	0.0000000E+000	0.0000000E+000	0.0000000E+000	86.9509	0.0000000E+000	0.0000000E+000	0.0000000E+000	-86.9509	0.0000000E+000	0.0000000E+000	0.0000000E+000	-3.04913	0.0000000E+000	0.0000000E+000	0.0000000E+000	3.04913	18.7731	86.9509	-4.44026e-06	-7.40204e-05	2.2321e-09	-7.40226e-05	3.97194	213122	6.42673	213128
6.31058	16.4582	0.740327	16.4748	-2.57556	24.4053	3.97183	-0.0181265	34066.5	68.7912	1	11	0.00472858	0.000287019	0	3.87845e-05	5.19078e-05	8.74864e-06	40.0315	0.0304811	0.0233391	-0.0196057	-2.5039	16.4973	16.4815	0.720721	0.0606374	0.00272761	0.0606987	2.57556	68791.2	1.52929e+06	1.53084e+06	-87.4244	0.0000000E+000	0.0000000E+000	0.0000000E+000	87.4244	0.0000000E+000	0.0000000E+000	0.0000000E+000	-87.4244	0.0000000E+000	0.0000000E+000	0.0000000E+000	-2.57556	0.0000000E+000	0.0000000E+000	0.0000000E+000	2.57556	22.231	87.4244	-4.45515e-06	-7.19954e-05	-9.40907e-10	-7.19945e-05	3.97178	219118	2.86365	219115
3.97785	16.5877	0.680252	16.6017	-2.34835	25.4124	3.97184	-0.0171352	58816.8	98.7501	1	11	0.00472901	0.000284851	0	3.72274e-05	-0.000176997	5.60859e-06	-7.57778	0.0196895	0.0195176	0.0025965	-2.35453	16.6213	16.6073	0.682849	0.0601843	0.00246812	0.0602349	2.34835	98750.2	2.40799e+06	2.41001e+06	-87.6516	0.0000000E+000	0.0000000E+000	0.0000000E+000	87.6516	0.0000000E+000	0.0000000E+000	0.0000000E+000	-87.6516	0.0000000E+000	0.0000000E+000	0.0000000E+000	-2.34835	0.0000000E+000	0.0000000E+000	0.0000000E+000	2.34835	24.3847	87.6516	8.43043e-07	-6.80582e-05	3.03288e-09	-6.80613e-05	3.97202	231794	10.3295	231805
2.51367	16.8242	0.674393	16.8378	-2.29545	26.972	3.97184	-0.0163137	93885.3	150.611	1	11	0.00475458	0.000282376	0	2.74686e-05	-0.000196073	2.33973e-05	29.9344	0.0828587	0.0718052	-0.0413471	-2.1457	16.9079	16.896	0.633046	0.0593427	0.00237873	0.0593903	2.29545	150611	3.75732e+06	3.76034e+06	-87.7046	0.0000000E+000	0.0000000E+000	0.0000000E+000	87.7046	0.0000000E+000	0.0000000E+000	0.0000000E+000	-87.7046	0.0000000E+000	0.0000000E+000	0.0000000E+000	-2.29545	0.0000000E+000	0.0000000E+000	0.0000000E+000	2.29545	24.9472	87.7046	-7.5906e-06	-6.47956e-05	3.19868e-09	-6.47988e-05	3.97204	243466	12.0189	243478
1.58469	16.9137	0.753956	16.9305	-2.55237	29.4075	3.97183	-0.0167829	133208	264.171	1	11	0.00473097	0.000279435	0	1.06673e-05	-0.000157922	2.17479e-06	-1.09686	0.0077828	0.00778137	0.000148984	-2.5517	16.9383	16.9215	0.754105	0.0590065	0.00263031	0.0590651	2.55237	264171	5.92621e+06	5.93209e+06	-87.4476	0.0000000E+000	0.0000000E+000	0.0000000E+000	87.4476	0.0000000E+000	0.0000000E+000	0.0000000E+000	-87.4476	0.0000000E+000	0.0000000E+000	0.0000000E+000	-2.55237	0.0000000E+000	0.0000000E+000	0.0000000E+000	2.55237	22.4333	87.4476	-7.09444e-06	-6.66589e-05	2.65039e-09	-6.66616e-05	3.97199	236659	9.40968	236669
1.00469	17.3274	0.835404	17.3475	-2.76026	240.227	3.9718	-0.0142371	189622	439.754	1	11	0.0050592	0.000291638	0	-0.00201143	-0.000405902	3.86898e-07	-2.06825	0.00132664	0.00132577	4.78781e-05	-2.76021	17.3488	17.3287	0.835452	0.0575783	0.00277602	0.0576452	2.76026	439754	9.12106e+06	9.13166e+06	-87.2397	0.0000000E+000	0.0000000E+000	0.0000000E+000	87.2397	0.0000000E+000	0.0000000E+000	0.0000000E+000	-87.2397	0.0000000E+000	0.0000000E+000	0.0000000E+000	-2.76026	0.0000000E+000	0.0000000E+000	0.0000000E+000	2.76026	20.7413	87.2397	-0.0020194	-5.65468e-05	5.77887e-09	-5.65526e-05	3.9722	278975	28.5102	279004
0.632957	17.5389	0.986028	17.5666	-3.21776	240.227	3.9718	-0.0142371	255010	803.453	1	11	0.00507427	0.000288859	0	-0.00201143	-0.000405902	4.01805e-07	2.01891	0.00139101	0.00139014	-4.90044e-05	-3.21734	17.568	17.5403	0.985979	0.0568365	0.00319532	0.0569263	3.21776	803454	1.42914e+07	1.43139e+07	-86.7822	0.0000000E+000	0.0000000E+000	0.0000000E+000	86.7822	0.0000000E+000	0.0000000E+000	0.0000000E+000	-86.7822	0.0000000E+000	0.0000000E+000	0.0000000E+000	-3.21776	0.0000000E+000	0.0000000E+000	0.0000000E+000	3.21776	17.7874	86.7822	0.000000000000000E+000	-5.65468e-05	5.77887e-09	-5.65526e-05	3.9722	278975	28.5102	279004
0.401878	17.7114	1.21572	17.7531	-3.92664	240.227	3.9718	-0.0142371	325757	1527.6	1	11	0.00508694	0.000286538	0	-0.00201143	-0.000405902	3.73987e-07	24.3216	0.00130519	0.00118935	-0.000537553	-3.92465	17.7543	17.7126	1.21518	0.0561959	0.00385731	0.0563281	3.92664	1.5276e+06	2.22552e+07	2.23075e+07	-86.0734	0.0000000E+000	0.0000000E+000	0.0000000E+000	86.0734	0.0000000E+000	0.0000000E+000	0.0000000E+000	-86.0734	0.0000000E+000	0.0000000E+000	0.0000000E+000	-3.92664	0.0000000E+000	0.0000000E+000	0.0000000E+000	3.92664	14.5687	86.0734	0.000000000000000E+000	-5.65468e-05	5.77887e-09	-5.65526e-05	3.9722	278975	28.5102	279004
0.251173	18.0835	1.52969	18.1481	-4.83515	240.227	3.9718	-0.0142371	414232	2942.97	1	11	0.00508936	0.000280434	0	-0.00201143	-0.000405902	3.49415e-07	-12.6693	0.00124598	0.00121564	0.000273272	-4.83568	18.1493	18.0847	1.52996	0.0549061	0.00464451	0.0551022	4.83515	2.94298e+06	3.4791e+07	3.49152e+07	-85.1648	0.0000000E+000	0.0000000E+000	0.0000000E+000	85.1648	0.0000000E+000	0.0000000E+000	0.0000000E+000	-85.1648	0.0000000E+000	0.0000000E+000	0.0000000E+000	-4.83515	0.0000000E+000	0.0000000E+000	0.0000000E+000	4.83515	11.8217	85.1648	0.000000000000000E+000	-5.65468e-05	5.77887e-09	-5.65526e-05	3.9722	278975	28.5102	279004
0.160751	18.438	1.78915	18.5246	-5.5424	240.228	3.9718	-0.0142371	553375	5161.95	1	11	0.00507894	0.000274172	0	-0.00201143	-0.000405902	6.33861e-07	-6.87062	0.00231191	0.00229531	0.000276568	-5.54256	18.527	18.4403	1.78943	0.0537298	0.00521372	0.0539822	5.5424	5.16195e+06	5.31963e+07	5.34462e+07	-84.4576	0.0000000E+000	0.0000000E+000	0.0000000E+000	84.4576	0.0000000E+000	0.0000000E+000	0.0000000E+000	-84.4576	0.0000000E+000	0.0000000E+000	0.0000000E+000	-5.5424	0.0000000E+000	0.0000000E+000	0.0000000E+000	5.5424	10.3055	84.4576	0.000000000000000E+000	-5.65468e-05	5.77887e-09	-5.65526e-05	3.9722	278975	28.5102	279004
0.100469	18.894	2.44276	19.0513	-7.36674	240.228	3.9718	-0.0142371	648495	10661.5	1	11	0.00508233	0.000266771	0	-0.00201143	-0.000405902	8.20553e-07	-23.5707	0.00307587	0.00281924	0.00122998	-7.36932	19.0542	18.8968	2.44399	0.0520566	0.00673025	0.0524899	7.36674	1.06615e+07	8.24636e+07	8.315e+07	-82.6333	0.0000000E+000	0.0000000E+000	0.0000000E+000	82.6333	0.0000000E+000	0.0000000E+000	0.0000000E+000	-82.6333	0.0000000E+000	0.0000000E+000	0.0000000E+000	-7.36674	0.0000000E+000	0.0000000E+000	0.0000000E+000	7.36674	7.73472	82.6333	0.000000000000000E+000	-5.65468e-05	5.77887e-09	-5.65526e-05	3.9722	278975	28.5102	279004
0.0602816	19.6386	2.95156	19.8591	-8.54725	240.228	3.9718	-0.0142371	894506	19759.1	1	11	0.00507887	0.000255745	0	-0.00201143	-0.000405902	8.7915e-07	-27.1956	0.0034376	0.00305758	0.00157109	-8.55042	19.8624	19.6416	2.95313	0.0497954	0.00748396	0.0503547	8.54725	1.97591e+07	1.31469e+08	1.32946e+08	-81.4528	0.0000000E+000	0.0000000E+000	0.0000000E+000	81.4528	0.0000000E+000	0.0000000E+000	0.0000000E+000	-81.4528	0.0000000E+000	0.0000000E+000	0.0000000E+000	-8.54725	0.0000000E+000	0.0000000E+000	0.0000000E+000	8.54725	6.65362	81.4528	0.000000000000000E+000	-5.65468e-05	5.77887e-09	-5.65526e-05	3.9722	278975	28.5102	279004
0.0401878	20.5826	3.41797	20.8644	-9.42859	240.228	3.9718	-0.0142371	1.15866e+06	31094.4	1	11	0.00507733	0.000243348	0	-0.00201143	-0.000405902	5.1977e-07	-3.92489	0.00213591	0.0021309	0.0001462	-9.42803	20.8665	20.5847	3.41812	0.047281	0.00785156	0.0479285	9.42859	3.10944e+07	1.87246e+08	1.8981e+08	-80.5714	0.0000000E+000	0.0000000E+000	0.0000000E+000	80.5714	0.0000000E+000	0.0000000E+000	0.0000000E+000	-80.5714	0.0000000E+000	0.0000000E+000	0.0000000E+000	-9.42859	0.0000000E+000	0.0000000E+000	0.0000000E+000	9.42859	6.02186	80.5714	0.000000000000000E+000	-5.65468e-05	5.77887e-09	-5.65526e-05	3.9722	278975	28.5102	279004
0.0200939	22.2415	4.96107	22.7881	-12.5742	240.228	3.9718	-0.0142371	1.59655e+06	75668.4	1	11	0.00507907	0.000222882	0	-0.00201143	-0.000405902	1.0057e-06	-61.849	0.00451223	0.00212886	0.00397847	-12.5828	22.7911	22.2437	4.96504	0.04283	0.00955341	0.0438825	12.5742	7.56684e+07	3.39238e+08	3.47575e+08	-77.4258	0.0000000E+000	0.0000000E+000	0.0000000E+000	77.4258	0.0000000E+000	0.0000000E+000	0.0000000E+000	-77.4258	0.0000000E+000	0.0000000E+000	0.0000000E+000	-12.5742	0.0000000E+000	0.0000000E+000	0.0000000E+000	12.5742	4.48322	77.4258	0.000000000000000E+000	-5.65468e-05	5.77887e-09	-5.65526e-05	3.9722	278975	28.5102	279004
0.00796479	28.4214	6.81577	29.2272	-13.4855	20329.2	3.97179	-8.4068e-05	2.93178e+06	159436	1	11	0.00507222	0.000173544	0	-0.00919078	-0.000253299	2.39092e-07	-30.6487	0.0013777	0.00118525	0.000702312	-13.4863	29.2285	28.4226	6.81647	0.0332714	0.00797885	0.0342147	13.4855	1.59436e+08	6.64839e+08	6.83689e+08	-76.5145	0.0000000E+000	0.0000000E+000	0.0000000E+000	76.5145	0.0000000E+000	0.0000000E+000	0.0000000E+000	-76.5145	0.0000000E+000	0.0000000E+000	0.0000000E+000	-13.4855	0.0000000E+000	0.0000000E+000	0.0000000E+000	13.4855	4.16995	76.5145	-0.00717934	-3.339e-07	2.12943e-11	-3.33922e-07	3.97204	4.7245e+07	3013.02	4.7248e+07
0.00497799	30.898	7.68411	31.8391	-13.9657	20329.2	3.97179	-8.4068e-05	4.16076e+06	242347	1	11	0.00508021	0.000159559	0	-0.00919078	-0.000253299	3.20411e-07	-61.076	0.00200811	0.000971219	0.00175762	-13.9684	31.8405	30.8989	7.68587	0.0304795	0.00758004	0.0314079	13.9657	2.42347e+08	9.74482e+08	1.00416e+09	-76.0342	0.0000000E+000	0.0000000E+000	0.0000000E+000	76.0342	0.0000000E+000	0.0000000E+000	0.0000000E+000	-76.0342	0.0000000E+000	0.0000000E+000	0.0000000E+000	-13.9657	0.0000000E+000	0.0000000E+000	0.0000000E+000	13.9657	4.02102	76.0342	0.000000000000000E+000	-3.339e-07	2.12943e-11	-3.33922e-07	3.97204	4.7245e+07	3013.02	4.7248e+07
0.00318591	32.9728	9.52546	34.3212	-16.1134	20329.2	3.97179	-8.4068e-05	5.24445e+06	403969	1	11	0.00508317	0.000148106	0	-0.00919078	-0.000253299	2.84287e-07	-120.855	0.00191948	-0.000984428	0.00164782	-16.1165	34.3207	32.9719	9.52711	0.0279919	0.00808652	0.0291365	16.1134	4.03969e+08	1.39836e+09	1.45554e+09	-73.8866	0.0000000E+000	0.0000000E+000	0.0000000E+000	73.8866	0.0000000E+000	0.0000000E+000	0.0000000E+000	-73.8866	0.0000000E+000	0.0000000E+000	0.0000000E+000	-16.1134	0.0000000E+000	0.0000000E+000	0.0000000E+000	16.1134	3.46155	73.8866	0.000000000000000E+000	-3.339e-07	2.12943e-11	-3.33922e-07	3.97204	4.7245e+07	3013.02	4.7248e+07
0.0019912	35.5401	10.5487	37.0726	-16.5315	20329.2	3.97179	-8.4068e-05	7.57714e+06	613481	1	11	0.00508425	0.000137143	0	-0.00919078	-0.000253299	7.31592e-07	-105.085	0.00533451	-0.00138831	0.00515069	-16.5398	37.0727	35.5387	10.5539	0.0258591	0.00767529	0.0269741	16.5315	6.13481e+08	2.0669e+09	2.15602e+09	-73.4685	0.0000000E+000	0.0000000E+000	0.0000000E+000	73.4685	0.0000000E+000	0.0000000E+000	0.0000000E+000	-73.4685	0.0000000E+000	0.0000000E+000	0.0000000E+000	-16.5315	0.0000000E+000	0.0000000E+000	0.0000000E+000	16.5315	3.36914	73.4685	0.000000000000000E+000	-3.339e-07	2.12943e-11	-3.33922e-07	3.97204	4.7245e+07	3013.02	4.7248e+07
0.00129428	36.8723	11.4909	38.6214	-17.3092	20329.2	3.97179	-8.4068e-05	1.07013e+07	947311	1	11	0.00508466	0.000131654	0	-0.00919078	-0.000253299	1.19839e-06	3.4989	0.00910254	0.00908558	-0.000555523	-17.3044	38.6299	36.8814	11.4904	0.0247198	0.00770371	0.0258924	17.3092	9.47311e+08	3.03975e+09	3.18394e+09	-72.6908	0.0000000E+000	0.0000000E+000	0.0000000E+000	72.6908	0.0000000E+000	0.0000000E+000	0.0000000E+000	-72.6908	0.0000000E+000	0.0000000E+000	0.0000000E+000	-17.3092	0.0000000E+000	0.0000000E+000	0.0000000E+000	17.3092	3.20882	72.6908	0.000000000000000E+000	-3.339e-07	2.12943e-11	-3.33922e-07	3.97204	4.7245e+07	3013.02	4.7248e+07
0.000796479	40.0807	12.9946	42.1346	-17.9633	20329.2	3.97179	-8.4068e-05	1.53774e+07	1.46262e+06	1	11	0.00508468	0.000120677	0	-0.00919078	-0.000253299	1.27717e-06	67.0738	0.0105834	0.0041227	-0.00974737	-17.9489	42.1355	40.0849	12.9849	0.0225766	0.00731957	0.0237335	17.9633	1.46262e+09	4.51132e+09	4.7425e+09	-72.0367	0.0000000E+000	0.0000000E+000	0.0000000E+000	72.0367	0.0000000E+000	0.0000000E+000	0.0000000E+000	-72.0367	0.0000000E+000	0.0000000E+000	0.0000000E+000	-17.9633	0.0000000E+000	0.0000000E+000	0.0000000E+000	17.9633	3.08441	72.0367	0.000000000000000E+000	-3.339e-07	2.12943e-11	-3.33922e-07	3.97204	4.7245e+07	3013.02	4.7248e+07
0.000497799	41.055	16.3348	44.1852	-21.6964	20329.2	3.97179	-8.4068e-05	1.95728e+07	2.675e+06	1	11	0.00508334	0.000115046	0	-0.00919078	-0.000253299	1.44636e-06	-11.3498	0.012572	0.0123261	0.00247414	-21.6935	44.1976	41.0673	16.3372	0.0210286	0.00836678	0.022632	21.6964	2.675e+09	6.72322e+09	7.23584e+09	-68.3036	0.0000000E+000	0.0000000E+000	0.0000000E+000	68.3036	0.0000000E+000	0.0000000E+000	0.0000000E+000	-68.3036	0.0000000E+000	0.0000000E+000	0.0000000E+000	-21.6964	0.0000000E+000	0.0000000E+000	0.0000000E+000	21.6964	2.51335	68.3036	0.000000000000000E+000	-3.339e-07	2.12943e-11	-3.33922e-07	3.97204	4.7245e+07	3013.02	4.7248e+07
0.000298679	41.73	24.429	48.3547	-30.345	20329.2	3.97179	-8.4068e-05	2.18127e+07	5.56729e+06	1	11	0.00508117	0.000105081	0	-0.00919078	-0.000253299	3.01903e-06	-110.971	0.0287304	-0.0102825	0.0268273	-30.3786	48.3594	41.7198	24.4559	0.0178473	0.0104479	0.0206805	30.345	5.56729e+09	9.51014e+09	1.10199e+10	-59.655	0.0000000E+000	0.0000000E+000	0.0000000E+000	59.655	0.0000000E+000	0.0000000E+000	0.0000000E+000	-59.655	0.0000000E+000	0.0000000E+000	0.0000000E+000	-30.345	0.0000000E+000	0.0000000E+000	0.0000000E+000	30.345	1.70822	59.655	0.000000000000000E+000	-3.339e-07	2.12943e-11	-3.33922e-07	3.97204	4.7245e+07	3013.02	4.7248e+07
0.00019912	41.7669	34.6004	54.2371	-39.6389	20329.2	3.97179	-8.4068e-05	2.31007e+07	9.40144e+06	1	11	0.00508247	9.37083e-05	0	-0.00919078	-0.000253299	4.37305e-06	-89.1826	0.0466666	0.000665744	0.0466619	-39.6764	54.2674	41.7676	34.6471	0.0141984	0.0117622	0.0184376	39.6389	9.40144e+09	1.13487e+10	1.4737e+10	-50.3611	0.0000000E+000	0.0000000E+000	0.0000000E+000	50.3611	0.0000000E+000	0.0000000E+000	0.0000000E+000	-50.3611	0.0000000E+000	0.0000000E+000	0.0000000E+000	-39.6389	0.0000000E+000	0.0000000E+000	0.0000000E+000	39.6389	1.20712	50.3611	0.000000000000000E+000	-3.339e-07	2.12943e-11	-3.33922e-07	3.97204	4.7245e+07	3013.02	4.7248e+07

9.95598e-05	48.9098	71.2462	86.4187	-55.5308	20329.2	3.97179	-8.4068e-05	2.24375e+07	1.52504e+07	1	11	0.00509425	5.89485e-05	0	-0.00919078	-0.000253299	8.26077e-06	22.4936	0.140135	0.129474	-0.0536131	-55.4399	86.4479	49.0393	71.1926	0.00654909	0.00953995	0.0115716	55.5308	1.52504e+10	1.04693e+10	1.84981e+10	-34.4692	0.0000000E+000	0.0000000E+000	0.0000000E+000	34.4692	0.0000000E+000	0.0000000E+000	0.0000000E+000	-34.4692	0.0000000E+000	0.0000000E+000	0.0000000E+000	-55.5308	0.0000000E+000	0.0000000E+000	0.0000000E+000	55.5308	0.686491	34.4692	0.000000000000000E+000	-3.339e-07	2.12943e-11	-3.33922e-07	3.97204	4.7245e+07	3013.02	4.7248e+07