File: txt/18815_R307_UA701_3p24_SOC00_C02.mpt
EC-Lab ASCII FILE
Nb header lines : 65

Potentio Electrochemical Impedance Spectroscopy

Run on channel : 2 (SN 66139)
User :
CE vs. WE compliance from -10 V to 10 V
Electrode connection : standard
Potential control : Ewe
Ewe ctrl range : min = -10.00 V, max = 10.00 V
Safety Limits :
	Do not start on E overload
Acquisition started on : 11/03/2025 16:08:33.268
Technique started on : 11/03/2025 16:08:34.994
Loaded Setting File :  C:\Users\Celltest\OneDrive - store-dot.com\Documents\EC-Lab\Data\@Biologic Test Protocols\anode half cell EIS SOC00.mps
Saved on :
	File : 18815_R307_UA701_3p24_SOC00_C02.mpr
	Directory : C:\Users\Celltest\OneDrive - store-dot.com\Documents\EC-Lab\Data\Anna\
	Host : 169.254.61.224
Device : VMP-3e (SN .003165)
Address : USB
EC-LAB for windows v11.62 (software)
Internet server v27.00 (firmware)
Command interpretor v12.03 (firmware)
Electrode material :
Initial state :
Electrolyte :
Comments :
Electrode surface area : 0.001 cm²
Characteristic mass : 0.001 g
Equivalent Weight : 0.000 g/eq.
Density : 0.000 g/cm3
Volume (V) : 0.001 cm³
Record Ece
Cycle Definition : Charge/Discharge alternance
Mode                Single sine
E (V)               0.0000
vs.                 Eoc
tE (h:m:s)          0:00:0.0000
record              0
dI                  0.000
unit dI             mA
dt (s)              0.000
fi                  100.000
unit fi             kHz
ff                  10.000
unit ff             mHz
Nd                  6
Points              per decade
spacing             Logarithmic
Va (mV)             5.0
pw                  0.10
Na                  2
corr                0
E range min (V)     -10.000
E range max (V)     10.000
I Range             Auto
Bandwidth           5
nc cycles           0
goto Ns'            0
nr cycles           0
inc. cycle          0

freq/Hz	Re(Z)/Ohm	-Im(Z)/Ohm	|Z|/Ohm	Phase(Z)/deg	time/s	<Ewe>/V	<I>/mA	Cs/µF	Cp/µF	cycle number	I Range	|Ewe|/V	|I|/A	Ns	(Q-Qo)/mA.h	<Ece>/V	|Ece|/V	Phase(Zce)/deg	|Zce|/Ohm	Re(Zce)/Ohm	-Im(Zce)/Ohm	Phase(Zwe-ce)/deg	|Zwe-ce|/Ohm	Re(Zwe-ce)/Ohm	-Im(Zwe-ce)/Ohm	Re(Y)/Ohm-1	Im(Y)/Ohm-1	|Y|/Ohm-1	Phase(Y)/deg	Re(C)/nF	Im(C)/nF	|C|/nF	Phase(C)/deg	Re(M)	Im(M)	|M|	Phase(M)/deg	Re(Permittivity)	Im(Permittivity)	|Permittivity|	Phase(Permittivity)/deg	Re(Resistivity)/Ohm.cm	Im(Resistivity)/Ohm.cm	|Resistivity|/Ohm.cm	Phase(Resistivity)/deg	Re(Conductivity)/mS/cm	Im(Conductivity)/mS/cm	|Conductivity|/mS/cm	Phase(Conductivity)/deg	Tan(Delta)	Loss Angle(Delta)/deg	dq/mA.h	Pwe/W	Pce/W	Pwe-ce/W	<Ewe-Ece>/V	Rwe/Ohm	Rce/Ohm	Rwe-ce/Ohm		Ewe-Ece/V
100004	1.12336	0.443758	1.20783	-21.5554	1.72553	0.242864	0.0100959	3.5864	0.484103	1	9	0.0045979	0.00380674	0	-5.77773e-06	-0.000266929	2.20585e-05	96.8595	0.00579459	-0.000692082	-0.00575312	-21.3131	1.20508	1.12267	0.438004	0.770028	0.304182	0.827931	21.5554	484.103	1225.49	1317.64	-68.4446	0.0000000E+000	0.0000000E+000	0.0000000E+000	68.4446	0.0000000E+000	0.0000000E+000	0.0000000E+000	-68.4446	0.0000000E+000	0.0000000E+000	0.0000000E+000	-21.5554	0.0000000E+000	0.0000000E+000	0.0000000E+000	21.5554	2.53147	68.4446	-5.77773e-06	2.45194e-06	-2.6949e-09	2.45464e-06	0.243131	24055.6	26.4393	24082
68132	1.25309	0.510046	1.35292	-22.1478	2.23454	0.242855	0.0159063	4.57994	0.650934	1	9	0.00505729	0.00373807	0	-1.59873e-05	-9.51117e-05	1.01969e-05	61.2765	0.00272785	0.00131096	-0.00239218	-22.0331	1.35323	1.2544	0.507654	0.684606	0.278656	0.739145	22.1478	650.934	1599.22	1726.63	-67.8522	0.0000000E+000	0.0000000E+000	0.0000000E+000	67.8522	0.0000000E+000	0.0000000E+000	0.0000000E+000	-67.8522	0.0000000E+000	0.0000000E+000	0.0000000E+000	-22.1478	0.0000000E+000	0.0000000E+000	0.0000000E+000	22.1478	2.45682	67.8522	-1.02096e-05	3.86292e-06	-1.51288e-09	3.86444e-06	0.24295	15267.8	5.9795	15273.8
46420.4	1.3857	0.563913	1.49604	-22.144	2.74155	0.242856	0.0124052	6.07995	0.863843	1	9	0.00505135	0.00337647	0	-1.53685e-05	-1.87484e-05	9.12891e-06	46.247	0.00270369	0.00186974	-0.00195295	-22.0478	1.49704	1.38756	0.56196	0.619126	0.251955	0.668429	22.144	863.843	2122.71	2291.75	-67.856	0.0000000E+000	0.0000000E+000	0.0000000E+000	67.856	0.0000000E+000	0.0000000E+000	0.0000000E+000	-67.856	0.0000000E+000	0.0000000E+000	0.0000000E+000	-22.144	0.0000000E+000	0.0000000E+000	0.0000000E+000	22.144	2.45729	67.856	6.18767e-07	3.01267e-06	-2.32577e-10	3.0129e-06	0.242874	19576.9	1.51133	19578.4
31621.1	1.52595	0.618651	1.64658	-22.0687	3.24853	0.242848	0.00652033	8.13574	1.14847	1	9	0.00505555	0.00307033	0	-2.15468e-05	5.7615e-05	9.633e-06	-9.10124	0.00313745	0.00309795	0.00049628	-22.0442	1.64964	1.52904	0.619147	0.562822	0.22818	0.607318	22.0687	1148.47	2832.79	3056.74	-67.9313	0.0000000E+000	0.0000000E+000	0.0000000E+000	67.9313	0.0000000E+000	0.0000000E+000	0.0000000E+000	-67.9313	0.0000000E+000	0.0000000E+000	0.0000000E+000	-22.0687	0.0000000E+000	0.0000000E+000	0.0000000E+000	22.0687	2.46657	67.9313	-6.17823e-06	1.58345e-06	3.75669e-10	1.58307e-06	0.24279	37244.6	8.83621	37235.8
21544.7	1.67551	0.67333	1.80574	-21.8935	3.63154	0.242845	0.0135598	10.9712	1.52544	1	9	0.00527395	0.00292065	0	-2.66916e-05	-0.000209657	9.07307e-06	-95.6894	0.00310652	-0.000307969	0.00309122	-21.9881	1.80661	1.6752	0.676421	0.513849	0.206498	0.553789	21.8935	1525.44	3795.9	4090.95	-68.1065	0.0000000E+000	0.0000000E+000	0.0000000E+000	68.1065	0.0000000E+000	0.0000000E+000	0.0000000E+000	-68.1065	0.0000000E+000	0.0000000E+000	0.0000000E+000	-21.8935	0.0000000E+000	0.0000000E+000	0.0000000E+000	21.8935	2.4884	68.1065	-5.1448e-06	3.29293e-06	-2.84291e-09	3.29577e-06	0.243055	17909.2	15.4616	17924.6
14678.6	1.82843	0.735097	1.97067	-21.9019	4.01456	0.24284	0.00931377	14.75	2.05236	1	9	0.00518013	0.00262862	0	-2.63967e-05	3.42479e-07	8.70379e-06	52.6978	0.00331117	0.00200663	-0.00263387	-21.8092	1.97155	1.83044	0.732463	0.470817	0.189286	0.507442	21.9019	2052.36	5104.91	5502.02	-68.0981	0.0000000E+000	0.0000000E+000	0.0000000E+000	68.0981	0.0000000E+000	0.0000000E+000	0.0000000E+000	-68.0981	0.0000000E+000	0.0000000E+000	0.0000000E+000	-21.9019	0.0000000E+000	0.0000000E+000	0.0000000E+000	21.9019	2.48734	68.0981	2.94858e-07	2.26176e-06	3.18977e-12	2.26175e-06	0.24284	26073.2	0.0367713	26073.2
10002.2	1.99766	0.821627	2.16003	-22.3571	4.27354	0.242838	0.00156662	19.3664	2.80207	1	9	0.00540559	0.00250256	0	-2.38863e-05	3.42479e-07	9.54304e-06	-75.6766	0.00381332	0.000943398	0.00369478	-22.4381	2.16231	1.99861	0.825322	0.428157	0.176098	0.462957	22.3571	2802.07	6812.81	7366.55	-67.6429	0.0000000E+000	0.0000000E+000	0.0000000E+000	67.6429	0.0000000E+000	0.0000000E+000	0.0000000E+000	-67.6429	0.0000000E+000	0.0000000E+000	0.0000000E+000	-22.3571	0.0000000E+000	0.0000000E+000	0.0000000E+000	22.3571	2.43135	67.6429	2.51041e-06	3.80435e-07	5.36534e-13	3.80434e-07	0.242838	155008	0.218611	155008
6810.42	2.19397	0.921982	2.37983	-22.7938	4.53253	0.242837	0.00212529	25.3468	3.80433	1	9	0.00536552	0.00225459	0	-2.25634e-05	0.000267614	5.32925e-05	59.2539	0.0236374	0.0120842	-0.0203149	-22.231	2.38321	2.20606	0.901667	0.387383	0.162791	0.420199	22.7938	3804.33	9052.89	9819.76	-67.2062	0.0000000E+000	0.0000000E+000	0.0000000E+000	67.2062	0.0000000E+000	0.0000000E+000	0.0000000E+000	-67.2062	0.0000000E+000	0.0000000E+000	0.0000000E+000	-22.7938	0.0000000E+000	0.0000000E+000	0.0000000E+000	22.7938	2.37963	67.2062	1.32291e-06	5.16101e-07	5.68759e-10	5.15532e-07	0.24257	114261	125.919	114135
4646	2.3756	1.03261	2.59032	-23.4934	4.79863	0.242815	-0.0119909	33.1744	5.27196	1	9	0.00520432	0.00200914	0	-2.23705e-05	5.7615e-05	1.13468e-05	-26.4936	0.00564756	0.00505448	0.00251937	-23.4999	2.59596	2.38065	1.03513	0.354051	0.153897	0.386053	23.4934	5271.96	12128.5	13224.8	-66.5066	0.0000000E+000	0.0000000E+000	0.0000000E+000	66.5066	0.0000000E+000	0.0000000E+000	0.0000000E+000	-66.5066	0.0000000E+000	0.0000000E+000	0.0000000E+000	-23.4934	0.0000000E+000	0.0000000E+000	0.0000000E+000	23.4934	2.30057	66.5066	1.92864e-07	-2.91158e-06	-6.90857e-10	-2.91089e-06	0.242758	20249.9	4.80489	20245.1
3163.08	2.60277	1.18467	2.85969	-24.473	5.17366	0.24269	-0.0392549	42.4729	7.28902	1	9	0.00511085	0.0017872	0	-2.5442e-05	0.000305796	8.05037e-06	-21.4995	0.00450445	0.00419103	0.00165085	-24.4684	2.86419	2.60696	1.18632	0.318271	0.144864	0.349688	24.473	7289.02	16014.3	17595.1	-65.527	0.0000000E+000	0.0000000E+000	0.0000000E+000	65.527	0.0000000E+000	0.0000000E+000	0.0000000E+000	-65.527	0.0000000E+000	0.0000000E+000	0.0000000E+000	-24.473	0.0000000E+000	0.0000000E+000	0.0000000E+000	24.473	2.19704	65.527	-3.07141e-06	-9.52678e-06	-1.2004e-08	-9.51478e-06	0.242384	6182.41	7.79	6174.62
2155.69	2.83865	1.34512	3.14122	-25.3544	5.62481	0.242734	-0.0049142	54.8874	10.0646	1	9	0.00504062	0.00160467	0	-2.67382e-05	5.7615e-05	9.90797e-06	88.711	0.00617447	0.000138894	-0.00617291	-25.2514	3.13871	2.83879	1.33895	0.287683	0.136321	0.318347	25.3544	10064.6	21239.7	23503.6	-64.6456	0.0000000E+000	0.0000000E+000	0.0000000E+000	64.6456	0.0000000E+000	0.0000000E+000	0.0000000E+000	-64.6456	0.0000000E+000	0.0000000E+000	0.0000000E+000	-25.3544	0.0000000E+000	0.0000000E+000	0.0000000E+000	25.3544	2.11033	64.6456	-1.29621e-06	-1.19284e-06	-2.83132e-10	-1.19256e-06	0.242677	49394.5	11.7242	49382.8
1468.59	3.08831	1.593	3.47496	-27.2854	6.32004	0.242765	-0.0251524	68.0304	14.2967	1	10	0.00512163	0.00147387	0	-2.83898e-05	7.67059e-05	1.70064e-05	146.846	0.0115386	-0.00966019	-0.00631038	-27.2659	3.46348	3.07865	1.58669	0.255754	0.131922	0.287773	27.2854	14296.7	27716.7	31186.7	-62.7146	0.0000000E+000	0.0000000E+000	0.0000000E+000	62.7146	0.0000000E+000	0.0000000E+000	0.0000000E+000	-62.7146	0.0000000E+000	0.0000000E+000	0.0000000E+000	-27.2854	0.0000000E+000	0.0000000E+000	0.0000000E+000	27.2854	1.93867	62.7146	-1.65164e-06	-6.10613e-06	-1.92934e-09	-6.1042e-06	0.242689	9651.77	3.04964	9648.72
1000.32	3.3994	1.91417	3.90128	-29.3834	6.77079	0.242762	-0.0248134	83.1191	20.01	1	10	0.0050707	0.00129975	0	-3.0567e-05	0.000248523	9.19994e-06	-52.5529	0.00707822	0.00430375	0.00561951	-29.4243	3.90779	3.4037	1.91979	0.223351	0.125767	0.256326	29.3834	20010	35536.1	40782.5	-60.6166	0.0000000E+000	0.0000000E+000	0.0000000E+000	60.6166	0.0000000E+000	0.0000000E+000	0.0000000E+000	-60.6166	0.0000000E+000	0.0000000E+000	0.0000000E+000	-29.3834	0.0000000E+000	0.0000000E+000	0.0000000E+000	29.3834	1.77592	60.6166	-2.17719e-06	-6.02377e-06	-6.16672e-09	-6.0176e-06	0.242514	9783.52	10.0157	9773.5
681.09	3.76263	2.35279	4.43768	-32.0179	7.22055	0.242769	-0.0248656	99.319	27.9181	1	10	0.00502115	0.00113148	0	-3.4496e-05	0.000248523	7.82551e-06	-65.7022	0.00691617	0.00284586	0.00630353	-32.0674	4.44344	3.76548	2.3591	0.191064	0.119473	0.225343	32.0179	27918.1	44647.3	52657.4	-57.9821	0.0000000E+000	0.0000000E+000	0.0000000E+000	57.9821	0.0000000E+000	0.0000000E+000	0.0000000E+000	-57.9821	0.0000000E+000	0.0000000E+000	0.0000000E+000	-32.0179	0.0000000E+000	0.0000000E+000	0.0000000E+000	32.0179	1.59922	57.9821	-3.92905e-06	-6.0366e-06	-6.17968e-09	-6.03042e-06	0.242521	9763.27	9.99468	9753.28
463.961	4.23279	2.92265	5.14378	-34.6242	7.67228	0.242764	-0.0249922	117.371	37.8924	1	10	0.00497172	0.000966552	0	-3.75967e-05	7.67059e-05	8.31208e-06	78.0229	0.00859972	0.00178462	-0.00841251	-34.5358	5.14047	4.23458	2.91424	0.159979	0.110462	0.19441	34.6242	37892.4	54878.5	66689.4	-55.3758	0.0000000E+000	0.0000000E+000	0.0000000E+000	55.3758	0.0000000E+000	0.0000000E+000	0.0000000E+000	-55.3758	0.0000000E+000	0.0000000E+000	0.0000000E+000	-34.6242	0.0000000E+000	0.0000000E+000	0.0000000E+000	34.6242	1.44827	55.3758	-3.10068e-06	-6.06723e-06	-1.91705e-09	-6.06531e-06	0.242688	9713.59	3.06919	9710.52
316.316	4.90189	3.6712	6.12423	-36.8308	8.12005	0.242763	-0.0254318	137.054	49.2497	1	10	0.00495928	0.00080978	0	-4.02006e-05	0.000343978	6.35076e-06	-66.7646	0.00784257	0.00309397	0.00720647	-36.8674	6.13103	4.90498	3.6784	0.130695	0.0978824	0.163286	36.8308	49249.7	65759.6	82157.6	-53.1692	0.0000000E+000	0.0000000E+000	0.0000000E+000	53.1692	0.0000000E+000	0.0000000E+000	0.0000000E+000	-53.1692	0.0000000E+000	0.0000000E+000	0.0000000E+000	-36.8308	0.0000000E+000	0.0000000E+000	0.0000000E+000	36.8308	1.33523	53.1692	-2.60392e-06	-6.1739e-06	-8.74798e-09	-6.16515e-06	0.242419	9545.63	13.5255	9532.11
215.345	5.83673	4.48588	7.36143	-37.5445	8.57055	0.242751	-0.0251822	164.755	61.1801	1	10	0.00492667	0.000669254	0	-4.24595e-05	3.42479e-07	1.73869e-05	-55.8491	0.0259796	0.0145843	0.0214997	-37.6078	7.3861	5.85132	4.50738	0.107707	0.0827797	0.135843	37.5445	61180.1	79603.5	100398	-52.4555	0.0000000E+000	0.0000000E+000	0.0000000E+000	52.4555	0.0000000E+000	0.0000000E+000	0.0000000E+000	-52.4555	0.0000000E+000	0.0000000E+000	0.0000000E+000	-37.5445	0.0000000E+000	0.0000000E+000	0.0000000E+000	37.5445	1.30113	52.4556	-2.25885e-06	-6.11302e-06	-8.6244e-12	-6.11301e-06	0.242751	9639.78	0.0136	9639.77
146.737	7.14025	5.37303	8.93602	-36.9614	9.01654	0.242766	-0.0254765	201.865	72.981	1	10	0.00492006	0.000550587	0	-4.52769e-05	0.00040125	1.22068e-05	-65.4126	0.0221705	0.00922472	0.0201602	-37.029	8.95552	7.14947	5.39319	0.0894179	0.0672869	0.111907	36.9614	72981	96984.9	121377	-53.0386	0.0000000E+000	0.0000000E+000	0.0000000E+000	53.0386	0.0000000E+000	0.0000000E+000	0.0000000E+000	-53.0386	0.0000000E+000	0.0000000E+000	0.0000000E+000	-36.9614	0.0000000E+000	0.0000000E+000	0.0000000E+000	36.9614	1.32891	53.0386	-2.81736e-06	-6.18482e-06	-1.02225e-08	-6.1746e-06	0.242364	9528.99	15.7498	9513.24
100.032	8.82583	6.08952	10.7228	-34.6043	9.46783	0.242764	-0.0239045	261.275	84.2658	1	10	0.00491853	0.0004587	0	-4.84222e-05	0.000324887	1.0692e-05	11.4342	0.0233094	0.0228468	-0.00462093	-34.5148	10.7389	8.84867	6.0849	0.0767614	0.0529627	0.0932596	34.6043	84265.8	122130	148380	-55.3957	0.0000000E+000	0.0000000E+000	0.0000000E+000	55.3957	0.0000000E+000	0.0000000E+000	0.0000000E+000	-55.3957	0.0000000E+000	0.0000000E+000	0.0000000E+000	-34.6043	0.0000000E+000	0.0000000E+000	0.0000000E+000	34.6043	1.44935	55.3957	-3.14537e-06	-5.80314e-06	-7.76625e-09	-5.79537e-06	0.242439	10155.6	13.591	10142
68.104	10.8011	6.47749	12.5945	-30.9513	9.93042	0.242771	-0.0218966	360.779	95.431	1	10	0.00491508	0.000390255	0	-5.11982e-05	0.000133978	8.93722e-06	94.4177	0.022901	-0.00176399	-0.022833	-30.8663	12.5813	10.7994	6.45466	0.0680934	0.0408359	0.0793995	30.9513	95431	159130	185552	-59.0487	0.0000000E+000	0.0000000E+000	0.0000000E+000	59.0487	0.0000000E+000	0.0000000E+000	0.0000000E+000	-59.0487	0.0000000E+000	0.0000000E+000	0.0000000E+000	-30.9513	0.0000000E+000	0.0000000E+000	0.0000000E+000	30.9513	1.66749	59.0487	-2.77602e-06	-5.31586e-06	-2.93367e-09	-5.31293e-06	0.242637	11087.2	6.11868	11081
46.4415	12.8136	6.47864	14.3583	-26.8215	10.3667	0.242763	-0.0258938	528.968	107.694	1	10	0.00490971	0.000341942	0	-5.42391e-05	3.42479e-07	4.8718e-06	-0.643008	0.0142475	0.0142466	0.00015989	-26.7964	14.3711	12.8278	6.4788	0.0621534	0.0314251	0.0696461	26.8215	107694	212999	238677	-63.1785	0.0000000E+000	0.0000000E+000	0.0000000E+000	63.1785	0.0000000E+000	0.0000000E+000	0.0000000E+000	-63.1785	0.0000000E+000	0.0000000E+000	0.0000000E+000	-26.8215	0.0000000E+000	0.0000000E+000	0.0000000E+000	26.8215	1.97782	63.1785	-3.04089e-06	-6.28605e-06	-8.86808e-12	-6.28604e-06	0.242763	9375.35	0.0132263	9375.34
31.6296	14.718	6.15729	15.9541	-22.702	10.7965	0.242757	-0.0260502	817.217	121.723	1	10	0.00491029	0.000307777	0	-5.67349e-05	0.000133978	7.1464e-06	-44.3234	0.0232194	0.0166113	0.0162236	-22.7327	15.9757	14.7346	6.17351	0.0578238	0.0241906	0.0626799	22.702	121723	290960	315396	-67.298	0.0000000E+000	0.0000000E+000	0.0000000E+000	67.298	0.0000000E+000	0.0000000E+000	0.0000000E+000	-67.298	0.0000000E+000	0.0000000E+000	0.0000000E+000	-22.702	0.0000000E+000	0.0000000E+000	0.0000000E+000	22.702	2.39034	67.298	-2.49576e-06	-6.32389e-06	-3.49017e-09	-6.3204e-06	0.242623	9318.83	5.14308	9313.68
21.5517	16.3403	5.55434	17.2585	-18.7738	11.4495	0.242789	-0.0129398	1329.55	137.71	1	11	0.00491071	0.000284539	0	-5.90248e-05	0.000153069	4.78908e-06	56.5331	0.016831	0.00928153	-0.0140405	-18.7197	17.2627	16.3495	5.5403	0.0548598	0.0186478	0.0579426	18.7738	137710	405128	427894	-71.2262	0.0000000E+000	0.0000000E+000	0.0000000E+000	71.2262	0.0000000E+000	0.0000000E+000	0.0000000E+000	-71.2262	0.0000000E+000	0.0000000E+000	0.0000000E+000	-18.7738	0.0000000E+000	0.0000000E+000	0.0000000E+000	18.7738	2.94189	71.2262	-2.28993e-06	-3.14164e-06	-1.98068e-09	-3.13966e-06	0.242636	18763	11.8293	18751.2
14.6852	17.663	4.95165	18.344	-15.6603	11.9102	0.242801	-0.0120002	2188.73	159.479	1	11	0.00490984	0.000267654	0	-6.05218e-05	1.94333e-05	1.21366e-05	-132.375	0.0453444	-0.030561	0.0334983	-15.787	18.3236	17.6325	4.98515	0.0524902	0.0147151	0.0545138	15.6603	159480	568879	590811	-74.3397	0.0000000E+000	0.0000000E+000	0.0000000E+000	74.3397	0.0000000E+000	0.0000000E+000	0.0000000E+000	-74.3397	0.0000000E+000	0.0000000E+000	0.0000000E+000	-15.6603	0.0000000E+000	0.0000000E+000	0.0000000E+000	15.6603	3.5671	74.3397	-1.49697e-06	-2.91366e-06	-2.33204e-10	-2.91343e-06	0.242781	20233.1	1.61942	20231.4
10.0032	18.7634	4.36372	19.2641	-13.0923	12.3618	0.242793	-0.0120945	3646.06	187.086	1	11	0.00490756	0.000254752	0	-6.38238e-05	0.000286705	3.71369e-06	-3.14537	0.0145777	0.0145557	0.000799871	-13.0849	19.2785	18.7779	4.36452	0.0505607	0.0117587	0.05191	13.0923	187086	804441	825910	-76.9077	0.0000000E+000	0.0000000E+000	0.0000000E+000	76.9077	0.0000000E+000	0.0000000E+000	0.0000000E+000	-76.9077	0.0000000E+000	0.0000000E+000	0.0000000E+000	-13.0923	0.0000000E+000	0.0000000E+000	0.0000000E+000	13.0923	4.29985	76.9077	-3.30207e-06	-2.93647e-06	-3.46757e-09	-2.93301e-06	0.242507	20074.6	23.7053	20050.9
6.81719	19.7093	3.81999	20.076	-10.9689	12.7015	0.242802	-0.0118115	6111.57	221.269	1	11	0.00490259	0.000244201	0	-6.37461e-05	3.85242e-05	7.26078e-06	-118.615	0.0297328	-0.0142394	0.0261012	-11.0498	20.067	19.695	3.84609	0.0489006	0.00947777	0.0498106	10.9689	221269	1.14164e+06	1.16288e+06	-79.0311	0.0000000E+000	0.0000000E+000	0.0000000E+000	79.0311	0.0000000E+000	0.0000000E+000	0.0000000E+000	-79.0311	0.0000000E+000	0.0000000E+000	0.0000000E+000	-10.9689	0.0000000E+000	0.0000000E+000	0.0000000E+000	10.9689	5.15951	79.0311	7.77878e-08	-2.86787e-06	-4.5503e-10	-2.86742e-06	0.242764	20556.4	3.26157	20553.1
4.63925	20.5156	3.32032	20.7825	-9.19326	13.1854	0.242793	-0.0113835	10332.2	263.727	1	11	0.00491459	0.000236477	0	-6.34321e-05	0.000229433	8.15873e-06	-104.962	0.0345012	-0.00890766	0.0333314	-9.28791	20.7791	20.5067	3.35366	0.0474992	0.00768746	0.0481173	9.19326	263727	1.62952e+06	1.65072e+06	-80.8067	0.0000000E+000	0.0000000E+000	0.0000000E+000	80.8067	0.0000000E+000	0.0000000E+000	0.0000000E+000	-80.8067	0.0000000E+000	0.0000000E+000	0.0000000E+000	-9.19326	0.0000000E+000	0.0000000E+000	0.0000000E+000	9.19326	6.17879	80.8067	3.13998e-07	-2.76384e-06	-2.61175e-09	-2.76122e-06	0.242564	21328.5	20.1548	21308.3
3.1604	21.1661	3.00677	21.3786	-8.08513	13.8784	0.242797	-0.0105683	16748.6	331.301	1	11	0.0049051	0.00022944	0	-6.74691e-05	-7.60209e-05	8.53348e-06	51.7736	0.0371927	0.0230137	-0.0292175	-7.99901	21.3973	21.1891	2.97756	0.0463109	0.00657875	0.0467758	8.08513	331301	2.33218e+06	2.35559e+06	-81.9149	0.0000000E+000	0.0000000E+000	0.0000000E+000	81.9149	0.0000000E+000	0.0000000E+000	0.0000000E+000	-81.9149	0.0000000E+000	0.0000000E+000	0.0000000E+000	-8.08513	0.0000000E+000	0.0000000E+000	0.0000000E+000	8.08513	7.03946	81.9149	-4.03701e-06	-2.56594e-06	8.03409e-10	-2.56674e-06	0.242873	22974.1	7.19332	22981.3
2.15577	21.7993	2.65983	21.961	-6.95653	14.882	0.242798	-0.0100691	27756.5	407.164	1	11	0.00491134	0.000223639	0	-7.41806e-05	0.000114888	2.37272e-06	9.1177	0.0106096	0.0104756	-0.00168123	-6.94886	21.9712	21.8098	2.65815	0.0452001	0.00551507	0.0455353	6.95653	407164	3.33701e+06	3.36176e+06	-83.0435	0.0000000E+000	0.0000000E+000	0.0000000E+000	83.0435	0.0000000E+000	0.0000000E+000	0.0000000E+000	-83.0435	0.0000000E+000	0.0000000E+000	0.0000000E+000	-6.95653	0.0000000E+000	0.0000000E+000	0.0000000E+000	6.95653	8.19575	83.0435	-6.71149e-06	-2.44476e-06	-1.15682e-09	-2.4436e-06	0.242683	24113.1	11.4099	24101.7
1.46631	22.3564	2.40738	22.4856	-6.14603	16.3434	0.242795	-0.00998444	45086.9	516.807	1	11	0.00491016	0.000218369	0	-7.9816e-05	-9.51117e-05	4.02546e-06	24.8063	0.0184342	0.0167333	-0.00773411	-6.12189	22.5015	22.3731	2.39964	0.0442172	0.00476139	0.0444728	6.14603	516807	4.79938e+06	4.82713e+06	-83.854	0.0000000E+000	0.0000000E+000	0.0000000E+000	83.854	0.0000000E+000	0.0000000E+000	0.0000000E+000	-83.854	0.0000000E+000	0.0000000E+000	0.0000000E+000	-6.14603	0.0000000E+000	0.0000000E+000	0.0000000E+000	6.14603	9.28662	83.854	-5.63544e-06	-2.42417e-06	9.49637e-10	-2.42512e-06	0.24289	24317.3	9.526	24326.8
1.00006	22.8115	2.23215	22.9205	-5.5887	19.5167	0.242799	-0.00975819	71296.7	676.19	1	12	0.00491122	0.000214273	0	-8.40695e-05	0.000248523	4.85787e-06	34.104	0.0226714	0.0187724	-0.0127118	-5.55253	22.9379	22.8303	2.21943	0.0434218	0.0042489	0.0436292	5.5887	676189	6.91035e+06	6.94335e+06	-84.4113	0.0000000E+000	0.0000000E+000	0.0000000E+000	84.4113	0.0000000E+000	0.0000000E+000	0.0000000E+000	-84.4113	0.0000000E+000	0.0000000E+000	0.0000000E+000	-5.5887	0.0000000E+000	0.0000000E+000	0.0000000E+000	5.5887	10.2195	84.4113	-4.25348e-06	-2.36928e-06	-2.42514e-09	-2.36685e-06	0.24255	24881.5	25.4682	24856.1
0.681362	23.2276	2.10558	23.3229	-5.1797	22.6289	0.242797	-0.0093912	110935	904.17	1	12	0.00491124	0.000210576	0	-8.27921e-05	3.85242e-05	4.65459e-06	-29.2657	0.0221041	0.0192827	0.0108058	-5.20184	23.3431	23.2469	2.11639	0.0427013	0.00387087	0.0428764	5.1797	904171	9.97431e+06	1.00152e+07	-84.8203	0.0000000E+000	0.0000000E+000	0.0000000E+000	84.8203	0.0000000E+000	0.0000000E+000	0.0000000E+000	-84.8203	0.0000000E+000	0.0000000E+000	0.0000000E+000	-5.1797	0.0000000E+000	0.0000000E+000	0.0000000E+000	5.1797	11.0314	84.8203	1.27741e-06	-2.28016e-06	-3.61788e-10	-2.2798e-06	0.242759	25853.7	4.10216	25849.6
0.464091	23.6072	2.05069	23.6961	-4.96466	27.1855	0.242794	-0.00792239	167231	1252.46	1	12	0.00491336	0.000207349	0	-8.34745e-05	0.000210342	1.68831e-06	-28.6963	0.00814233	0.00714227	0.00390968	-4.97258	23.7035	23.6143	2.0546	0.0420428	0.00365214	0.0422011	4.96466	1.25246e+06	1.44181e+07	1.44724e+07	-85.0353	0.0000000E+000	0.0000000E+000	0.0000000E+000	85.0353	0.0000000E+000	0.0000000E+000	0.0000000E+000	-85.0353	0.0000000E+000	0.0000000E+000	0.0000000E+000	-4.96466	0.0000000E+000	0.0000000E+000	0.0000000E+000	4.96466	11.5118	85.0353	-6.82452e-07	-1.92351e-06	-1.66641e-09	-1.92185e-06	0.242584	30646.6	26.5503	30620
0.316193	23.9603	2.13806	24.0555	-5.09919	33.8598	0.242792	-0.00616183	235423	1859.77	1	12	0.00491221	0.000204203	0	-9.38149e-05	0.000153069	2.36134e-06	4.2231	0.0115637	0.0115323	-0.000851552	-5.09473	24.0669	23.9718	2.1372	0.0414061	0.00369481	0.0415706	5.09919	1.85977e+06	2.08416e+07	2.09244e+07	-84.9008	0.0000000E+000	0.0000000E+000	0.0000000E+000	84.9008	0.0000000E+000	0.0000000E+000	0.0000000E+000	-84.9008	0.0000000E+000	0.0000000E+000	0.0000000E+000	-5.09919	0.0000000E+000	0.0000000E+000	0.0000000E+000	5.09919	11.2066	84.9008	-1.03404e-05	-1.49604e-06	-9.43186e-10	-1.4951e-06	0.242639	39402.6	24.8415	39377.8
0.215268	24.288	2.40119	24.4064	-5.64611	43.6533	0.242789	-0.0047434	307903	2980.3	1	12	0.00491163	0.000201243	0	-0.000122618	-3.78392e-05	1.00966e-06	59.2733	0.00501712	0.00256347	-0.00431279	-5.63544	24.4085	24.2906	2.39688	0.0407741	0.00403106	0.0409728	5.64611	2.9803e+06	3.01457e+07	3.02926e+07	-84.3539	0.0000000E+000	0.0000000E+000	0.0000000E+000	84.3539	0.0000000E+000	0.0000000E+000	0.0000000E+000	-84.3539	0.0000000E+000	0.0000000E+000	0.0000000E+000	-5.64611	0.0000000E+000	0.0000000E+000	0.0000000E+000	5.64611	10.115	84.3539	-2.88031e-05	-1.15165e-06	1.79486e-10	-1.15182e-06	0.242827	51184.6	7.97724	51192.6
0.146929	24.6333	2.8137	24.7935	-6.51626	57.9916	0.242787	-0.00414303	384978	4958.09	1	12	0.00491175	0.000198106	0	-0.000176076	0.00017216	2.6091e-06	-2.78048	0.0131702	0.0131547	0.000638881	-6.51428	24.8066	24.6465	2.81434	0.0400726	0.00457722	0.0403332	6.51626	4.9581e+06	4.34071e+07	4.36893e+07	-83.4837	0.0000000E+000	0.0000000E+000	0.0000000E+000	83.4837	0.0000000E+000	0.0000000E+000	0.0000000E+000	-83.4837	0.0000000E+000	0.0000000E+000	0.0000000E+000	-6.51626	0.0000000E+000	0.0000000E+000	0.0000000E+000	6.51626	8.75479	83.4837	-5.34578e-05	-1.00587e-06	-7.13265e-10	-1.00516e-06	0.242615	58601.3	41.5541	58559.7
0.0999041	25.113	3.44941	25.3488	-7.82096	79.0688	0.242787	-0.00435313	461841	8551.99	1	12	0.00491031	0.00019371	0	-0.000252286	5.7615e-05	1.4183e-06	-1.97911	0.00732175	0.00731738	0.000252858	-7.81927	25.3561	25.1203	3.44966	0.0390827	0.00536822	0.0394496	7.82096	8.55199e+06	6.22617e+07	6.28463e+07	-82.179	0.0000000E+000	0.0000000E+000	0.0000000E+000	82.179	0.0000000E+000	0.0000000E+000	0.0000000E+000	-82.179	0.0000000E+000	0.0000000E+000	0.0000000E+000	-7.82096	0.0000000E+000	0.0000000E+000	0.0000000E+000	7.82096	7.28037	82.179	-7.62099e-05	-1.05688e-06	-2.50806e-10	-1.05663e-06	0.242729	55772.9	13.2353	55759.7
0.0680626	25.7606	4.41131	26.1356	-9.7172	109.995	0.242786	-0.00442587	530083	15101.3	1	12	0.00491218	0.00018795	0	-0.000333706	0.000286705	1.11213e-06	19.4151	0.00591718	0.0055807	-0.00196693	-9.71089	26.1408	25.7662	4.40934	0.037713	0.00645806	0.038262	9.7172	1.51013e+07	8.81866e+07	8.94703e+07	-80.2828	0.0000000E+000	0.0000000E+000	0.0000000E+000	80.2828	0.0000000E+000	0.0000000E+000	0.0000000E+000	-80.2828	0.0000000E+000	0.0000000E+000	0.0000000E+000	-9.7172	0.0000000E+000	0.0000000E+000	0.0000000E+000	9.7172	5.83968	80.2828	-8.14201e-05	-1.07454e-06	-1.26892e-09	-1.07327e-06	0.242499	54856.1	64.7794	54791.3
0.0464052	26.5153	5.85031	27.153	-12.4423	155.347	0.242781	-0.00459986	586239	27214.2	1	12	0.00491009	0.00018083	0	-0.000380837	0.00017216	1.95482e-06	-5.96787	0.0108103	0.0107517	0.00112395	-12.4398	27.1638	26.526	5.85144	0.0359633	0.00793492	0.0368283	12.4423	2.72142e+07	1.23343e+08	1.26309e+08	-77.5576	0.0000000E+000	0.0000000E+000	0.0000000E+000	77.5576	0.0000000E+000	0.0000000E+000	0.0000000E+000	-77.5576	0.0000000E+000	0.0000000E+000	0.0000000E+000	-12.4423	0.0000000E+000	0.0000000E+000	0.0000000E+000	12.4423	4.53229	77.5576	-4.7131e-05	-1.11676e-06	-7.91911e-10	-1.11597e-06	0.242609	52780.2	37.4273	52742.8
0.0315922	27.3528	7.66006	28.4052	-15.6447	221.952	0.242779	-0.00392209	657670	47827.5	1	12	0.00491113	0.000172896	0	-0.00034012	9.57967e-05	2.45473e-06	-29.4955	0.0141978	0.0123577	0.00699034	-15.6516	28.4189	27.3652	7.66705	0.0339006	0.00949375	0.0352049	15.6447	4.78275e+07	1.70784e+08	1.77355e+08	-74.3553	0.0000000E+000	0.0000000E+000	0.0000000E+000	74.3553	0.0000000E+000	0.0000000E+000	0.0000000E+000	-74.3553	0.0000000E+000	0.0000000E+000	0.0000000E+000	-15.6447	0.0000000E+000	0.0000000E+000	0.0000000E+000	15.6447	3.57084	74.3553	4.07169e-05	-9.52201e-07	-3.75723e-10	-9.51825e-07	0.242683	61900.5	24.4249	61876.1
0.0215268	28.6264	9.87554	30.282	-19.0334	319.691	0.242784	-0.00283512	748653	79622.1	1	12	0.00491295	0.00016224	0	-0.000200792	5.7615e-05	1.47232e-06	1.88318	0.00907495	0.00907005	-0.000298218	-19.0273	30.2904	28.6355	9.87524	0.0312175	0.0107694	0.033023	19.0334	7.96221e+07	2.30802e+08	2.4415e+08	-70.9666	0.0000000E+000	0.0000000E+000	0.0000000E+000	70.9666	0.0000000E+000	0.0000000E+000	0.0000000E+000	-70.9666	0.0000000E+000	0.0000000E+000	0.0000000E+000	-19.0334	0.0000000E+000	0.0000000E+000	0.0000000E+000	19.0334	2.89872	70.9666	0.000139328	-6.88321e-07	-1.63345e-10	-6.88158e-07	0.242726	85634.5	20.3219	85614.2
0.0146812	30.5405	12.9888	33.1878	-23.0399	462.994	0.242778	-0.00209668	834623	127841	1	12	0.00491125	0.000147984	0	-5.54953e-05	3.85242e-05	1.13195e-06	-10.925	0.00764918	0.00751055	0.0014497	-23.0372	33.1953	30.548	12.9903	0.027728	0.0117927	0.0301316	23.0399	1.27841e+08	3.00593e+08	3.26649e+08	-66.9601	0.0000000E+000	0.0000000E+000	0.0000000E+000	66.9601	0.0000000E+000	0.0000000E+000	0.0000000E+000	-66.9601	0.0000000E+000	0.0000000E+000	0.0000000E+000	-23.0399	0.0000000E+000	0.0000000E+000	0.0000000E+000	23.0399	2.35129	66.9601	0.000145296	-5.09027e-07	-8.07728e-11	-5.08946e-07	0.242739	115792	18.3739	115773
0.0100092	32.8164	17.2619	37.0794	-27.745	673.175	0.242776	-0.0017784	921159	199638	1	12	0.00491073	0.000132438	0	-0.000100543	0.00017216	1.22714e-06	85.8822	0.00926573	0.000665347	-0.00924181	-27.7319	37.0757	32.817	17.2526	0.0238684	0.0125551	0.0269691	27.745	1.99638e+08	3.7953e+08	4.28834e+08	-62.255	0.0000000E+000	0.0000000E+000	0.0000000E+000	62.255	0.0000000E+000	0.0000000E+000	0.0000000E+000	-62.255	0.0000000E+000	0.0000000E+000	0.0000000E+000	-27.745	0.0000000E+000	0.0000000E+000	0.0000000E+000	27.745	1.90109	62.255	-4.50477e-05	-4.31753e-07	-3.0617e-10	-4.31447e-07	0.242604	136513	96.806	136417