File: txt/18819_R307_UA701_3p84_SOC00_C06.mpt
EC-Lab ASCII FILE
Nb header lines : 65

Potentio Electrochemical Impedance Spectroscopy

Run on channel : 6 (SN 65795)
User :
CE vs. WE compliance from -10 V to 10 V
Electrode connection : standard
Potential control : Ewe
Ewe ctrl range : min = -10.00 V, max = 10.00 V
Safety Limits :
	Do not start on E overload
Acquisition started on : 11/03/2025 16:09:12.763
Technique started on : 11/03/2025 16:09:14.490
Loaded Setting File :  C:\Users\Celltest\OneDrive - store-dot.com\Documents\EC-Lab\Data\@Biologic Test Protocols\anode half cell EIS SOC00.mps
Saved on :
	File : 18819_R307_UA701_3p84_SOC00_C06.mpr
	Directory : C:\Users\Celltest\OneDrive - store-dot.com\Documents\EC-Lab\Data\Anna\
	Host : 169.254.61.224
Device : VMP-3e (SN .003165)
Address : USB
EC-LAB for windows v11.62 (software)
Internet server v27.00 (firmware)
Command interpretor v12.03 (firmware)
Electrode material :
Initial state :
Electrolyte :
Comments :
Electrode surface area : 0.001 cm²
Characteristic mass : 0.001 g
Equivalent Weight : 0.000 g/eq.
Density : 0.000 g/cm3
Volume (V) : 0.001 cm³
Record Ece
Cycle Definition : Charge/Discharge alternance
Mode                Single sine
E (V)               0.0000
vs.                 Eoc
tE (h:m:s)          0:00:0.0000
record              0
dI                  0.000
unit dI             mA
dt (s)              0.000
fi                  100.000
unit fi             kHz
ff                  10.000
unit ff             mHz
Nd                  6
Points              per decade
spacing             Logarithmic
Va (mV)             5.0
pw                  0.10
Na                  2
corr                0
E range min (V)     -10.000
E range max (V)     10.000
I Range             Auto
Bandwidth           5
nc cycles           0
goto Ns'            0
nr cycles           0
inc. cycle          0

freq/Hz	Re(Z)/Ohm	-Im(Z)/Ohm	|Z|/Ohm	Phase(Z)/deg	time/s	<Ewe>/V	<I>/mA	Cs/µF	Cp/µF	cycle number	I Range	|Ewe|/V	|I|/A	Ns	(Q-Qo)/mA.h	<Ece>/V	|Ece|/V	Phase(Zce)/deg	|Zce|/Ohm	Re(Zce)/Ohm	-Im(Zce)/Ohm	Phase(Zwe-ce)/deg	|Zwe-ce|/Ohm	Re(Zwe-ce)/Ohm	-Im(Zwe-ce)/Ohm	Re(Y)/Ohm-1	Im(Y)/Ohm-1	|Y|/Ohm-1	Phase(Y)/deg	Re(C)/nF	Im(C)/nF	|C|/nF	Phase(C)/deg	Re(M)	Im(M)	|M|	Phase(M)/deg	Re(Permittivity)	Im(Permittivity)	|Permittivity|	Phase(Permittivity)/deg	Re(Resistivity)/Ohm.cm	Im(Resistivity)/Ohm.cm	|Resistivity|/Ohm.cm	Phase(Resistivity)/deg	Re(Conductivity)/mS/cm	Im(Conductivity)/mS/cm	|Conductivity|/mS/cm	Phase(Conductivity)/deg	Tan(Delta)	Loss Angle(Delta)/deg	dq/mA.h	Pwe/W	Pce/W	Pwe-ce/W	<Ewe-Ece>/V	Rwe/Ohm	Rce/Ohm	Rwe-ce/Ohm		Ewe-Ece/V
100004	0.973025	0.400068	1.05206	-22.3504	1.72655	0.246339	0.0454382	3.97805	0.575249	1	9	0.00496693	0.00472114	0	-1.36195e-06	0.000344552	5.75329e-05	87.1165	0.0121862	0.000613027	-0.0121708	-21.7223	1.04806	0.973638	0.387897	0.879108	0.361453	0.950515	22.3504	575.249	1399.09	1512.74	-67.6496	0.0000000E+000	0.0000000E+000	0.0000000E+000	67.6496	0.0000000E+000	0.0000000E+000	0.0000000E+000	-67.6496	0.0000000E+000	0.0000000E+000	0.0000000E+000	-22.3504	0.0000000E+000	0.0000000E+000	0.0000000E+000	22.3504	2.43215	67.6496	-1.36195e-06	1.11932e-05	1.56558e-08	1.11775e-05	0.245994	5421.4	7.58287	5413.82
68132	1.08137	0.446175	1.1698	-22.4211	2.23355	0.246338	0.047934	5.23556	0.761636	1	9	0.00504282	0.00431083	0	1.01348e-05	0.000516434	4.33279e-05	73.7333	0.0100509	0.00281536	-0.00964859	-21.9312	1.16877	1.08419	0.436526	0.790223	0.326046	0.854844	22.4211	761.636	1845.94	1996.9	-67.5789	0.0000000E+000	0.0000000E+000	0.0000000E+000	67.5789	0.0000000E+000	0.0000000E+000	0.0000000E+000	-67.5789	0.0000000E+000	0.0000000E+000	0.0000000E+000	-22.4211	0.0000000E+000	0.0000000E+000	0.0000000E+000	22.4211	2.42365	67.5789	1.14968e-05	1.1808e-05	2.47547e-08	1.17832e-05	0.245822	5139.11	10.7739	5128.34
46420.4	1.19954	0.482831	1.29307	-21.9255	2.74057	0.246318	0.0459597	7.10095	0.990068	1	9	0.00503477	0.00389366	0	1.30119e-05	1.98852e-05	1.47176e-05	74.1192	0.00377988	0.00103431	-0.00363561	-21.7589	1.29267	1.20057	0.479196	0.717419	0.288771	0.773355	21.9255	990.068	2459.71	2651.49	-68.0745	0.0000000E+000	0.0000000E+000	0.0000000E+000	68.0745	0.0000000E+000	0.0000000E+000	0.0000000E+000	-68.0745	0.0000000E+000	0.0000000E+000	0.0000000E+000	-21.9255	0.0000000E+000	0.0000000E+000	0.0000000E+000	21.9255	2.48439	68.0745	2.87709e-06	1.13207e-05	9.13918e-10	1.13198e-05	0.246298	5359.43	0.432667	5359
31621.1	1.3191	0.529888	1.42155	-21.8855	3.24753	0.246307	0.0468164	9.49857	1.31978	1	9	0.00501234	0.00352597	0	2.70522e-05	-9.4703e-05	1.19193e-05	31.7188	0.00338043	0.00287552	-0.00177726	-21.776	1.42356	1.32198	0.528111	0.652759	0.262216	0.703456	21.8855	1319.78	3285.45	3540.62	-68.1145	0.0000000E+000	0.0000000E+000	0.0000000E+000	68.1145	0.0000000E+000	0.0000000E+000	0.0000000E+000	-68.1145	0.0000000E+000	0.0000000E+000	0.0000000E+000	-21.8855	0.0000000E+000	0.0000000E+000	0.0000000E+000	21.8855	2.4894	68.1145	1.40403e-05	1.15312e-05	-4.43365e-09	1.15356e-05	0.246402	5261.13	2.02286	5263.15
21544.7	1.44507	0.5765	1.55582	-21.7491	3.63252	0.246323	0.0474496	12.8139	1.75938	1	9	0.00541662	0.00348152	0	3.25507e-05	0.00026816	4.78928e-06	93.8182	0.00137563	-9.16044e-05	-0.00137258	-21.7034	1.55523	1.44498	0.575127	0.596993	0.238166	0.642747	21.7491	1759.38	4410.11	4748.1	-68.2509	0.0000000E+000	0.0000000E+000	0.0000000E+000	68.2509	0.0000000E+000	0.0000000E+000	0.0000000E+000	-68.2509	0.0000000E+000	0.0000000E+000	0.0000000E+000	-21.7491	0.0000000E+000	0.0000000E+000	0.0000000E+000	21.7491	2.50663	68.2509	5.49855e-06	1.16879e-05	1.27241e-08	1.16752e-05	0.246055	5191.26	5.65146	5185.6
14678.6	1.57241	0.632472	1.69485	-21.9115	4.01553	0.246322	0.0485299	17.1433	2.38735	1	9	0.00503597	0.00297135	0	3.26774e-05	-9.4703e-05	8.78209e-06	-105.991	0.00295559	-0.000814241	0.00284122	-22.0108	1.69515	1.5716	0.635313	0.547402	0.220182	0.590024	21.9115	2387.35	5935.29	6397.43	-68.0885	0.0000000E+000	0.0000000E+000	0.0000000E+000	68.0885	0.0000000E+000	0.0000000E+000	0.0000000E+000	-68.0885	0.0000000E+000	0.0000000E+000	0.0000000E+000	-21.9115	0.0000000E+000	0.0000000E+000	0.0000000E+000	21.9115	2.48614	68.0885	1.26716e-07	1.1954e-05	-4.59593e-09	1.19586e-05	0.246417	5075.69	1.95144	5077.64
10002.2	1.71528	0.701364	1.85313	-22.2393	4.27454	0.246322	0.0416386	22.6871	3.24978	1	9	0.00501081	0.00270397	0	3.6673e-05	9.62774e-05	5.47934e-06	-145.61	0.00202641	-0.00167221	0.00114457	-22.2916	1.85202	1.71361	0.702509	0.499485	0.204235	0.539627	22.2393	3249.78	7947.78	8586.52	-67.7607	0.0000000E+000	0.0000000E+000	0.0000000E+000	67.7607	0.0000000E+000	0.0000000E+000	0.0000000E+000	-67.7607	0.0000000E+000	0.0000000E+000	0.0000000E+000	-22.2393	0.0000000E+000	0.0000000E+000	0.0000000E+000	22.2393	2.44563	67.7607	3.99557e-06	1.02565e-05	4.00886e-09	1.02525e-05	0.246225	5915.7	2.31221	5913.39
6810.42	1.87145	0.780593	2.02772	-22.6413	4.53555	0.246316	0.0484926	29.9379	4.43663	1	9	0.00482843	0.00238121	0	4.16974e-05	0.000210866	3.57849e-05	-65.8826	0.015028	0.00614057	0.0137162	-22.9306	2.0387	1.87759	0.794309	0.455158	0.189849	0.493164	22.6413	4436.63	10636.7	11524.9	-67.3587	0.0000000E+000	0.0000000E+000	0.0000000E+000	67.3587	0.0000000E+000	0.0000000E+000	0.0000000E+000	-67.3587	0.0000000E+000	0.0000000E+000	0.0000000E+000	-22.6413	0.0000000E+000	0.0000000E+000	0.0000000E+000	22.6413	2.39748	67.3587	5.02441e-06	1.19445e-05	1.02254e-08	1.19343e-05	0.246105	5079.45	4.34841	5075.1
4646	2.04793	0.885874	2.23132	-23.3918	4.8006	0.246283	0.0291971	38.6695	6.09519	1	9	0.00471143	0.0021115	0	4.20665e-05	0.000249062	1.49114e-05	-7.18556	0.007062	0.00700654	0.000883338	-23.3414	2.23811	2.05494	0.886757	0.41133	0.177929	0.448164	23.3918	6095.19	14090.7	15352.5	-66.6082	0.0000000E+000	0.0000000E+000	0.0000000E+000	66.6082	0.0000000E+000	0.0000000E+000	0.0000000E+000	-66.6082	0.0000000E+000	0.0000000E+000	0.0000000E+000	-23.3918	0.0000000E+000	0.0000000E+000	0.0000000E+000	23.3918	2.31177	66.6082	3.6907e-07	7.19077e-06	7.27188e-09	7.18349e-06	0.246034	8435.2	8.53035	8426.67
3163.08	2.24598	1.01446	2.46446	-24.3076	5.17564	0.246098	-0.0434403	49.5995	8.40429	1	9	0.00461958	0.00187448	0	3.96354e-05	0.000325454	8.12946e-06	-55.1371	0.00433691	0.00247904	0.00355853	-24.3592	2.46818	2.24846	1.01801	0.369797	0.167029	0.405769	24.3076	8404.29	18606.9	20416.9	-65.6924	0.0000000E+000	0.0000000E+000	0.0000000E+000	65.6924	0.0000000E+000	0.0000000E+000	0.0000000E+000	-65.6924	0.0000000E+000	0.0000000E+000	0.0000000E+000	-24.3076	0.0000000E+000	0.0000000E+000	0.0000000E+000	24.3076	2.21398	65.6924	-2.43108e-06	-1.06906e-05	-1.41378e-08	-1.06764e-05	0.245772	5665.19	7.49198	5657.7
2155.69	2.46065	1.16823	2.72389	-25.3968	5.6268	0.246185	0.0386586	63.1981	11.6248	1	9	0.00454959	0.00167025	0	4.40511e-05	9.62774e-05	8.31209e-06	-51.6883	0.00497654	0.00308515	0.00390484	-25.4431	2.72835	2.46374	1.17214	0.331643	0.157453	0.367122	25.3968	11624.8	24485.3	27104.7	-64.6032	0.0000000E+000	0.0000000E+000	0.0000000E+000	64.6032	0.0000000E+000	0.0000000E+000	0.0000000E+000	-64.6032	0.0000000E+000	0.0000000E+000	0.0000000E+000	-25.3968	0.0000000E+000	0.0000000E+000	0.0000000E+000	25.3968	2.1063	64.6032	4.41566e-06	9.51715e-06	3.72195e-09	9.51343e-06	0.246088	6368.18	2.49045	6365.69
1468.59	2.7029	1.34335	3.01832	-26.4276	6.07804	0.24619	0.0332573	80.6731	15.9801	1	9	0.00451591	0.00149616	0	4.97864e-05	9.62774e-05	4.17158e-06	11.6522	0.00278818	0.00273072	-0.000563132	-26.395	3.02052	2.70563	1.34279	0.296687	0.147455	0.33131	26.4276	15980.1	32152.8	35904.9	-63.5724	0.0000000E+000	0.0000000E+000	0.0000000E+000	63.5724	0.0000000E+000	0.0000000E+000	0.0000000E+000	-63.5724	0.0000000E+000	0.0000000E+000	0.0000000E+000	-26.4276	0.0000000E+000	0.0000000E+000	0.0000000E+000	26.4276	2.01205	63.5724	5.73539e-06	8.18763e-06	3.20193e-09	8.18442e-06	0.246094	7402.57	2.89492	7399.68
1000.32	2.98432	1.60162	3.38694	-28.2215	6.98886	0.246223	-0.0189949	99.3394	22.2139	1	10	0.00508765	0.00150214	0	5.04569e-05	0.00036365	1.00672e-05	-42.9302	0.00670188	0.00490701	0.0045647	-28.2502	3.39342	2.98923	1.60619	0.260154	0.139619	0.295252	28.2215	22213.9	41391.5	46975.7	-61.7785	0.0000000E+000	0.0000000E+000	0.0000000E+000	61.7785	0.0000000E+000	0.0000000E+000	0.0000000E+000	-61.7785	0.0000000E+000	0.0000000E+000	0.0000000E+000	-28.2215	0.0000000E+000	0.0000000E+000	0.0000000E+000	28.2215	1.86331	61.7785	6.70416e-07	-4.677e-06	-6.9075e-09	-4.67009e-06	0.24586	12962.6	19.1446	12943.4
681.09	3.32705	1.92892	3.84578	-30.1038	7.43955	0.246217	-0.0199415	121.144	30.4763	1	10	0.00504313	0.00131134	0	4.91228e-05	0.00026816	1.34616e-05	127.534	0.0102655	-0.00625414	-0.00814044	-30.0455	3.83628	3.3208	1.92078	0.224953	0.13042	0.260026	30.1038	30476.3	52566.3	60762	-59.8962	0.0000000E+000	0.0000000E+000	0.0000000E+000	59.8962	0.0000000E+000	0.0000000E+000	0.0000000E+000	-59.8962	0.0000000E+000	0.0000000E+000	0.0000000E+000	-30.1038	0.0000000E+000	0.0000000E+000	0.0000000E+000	30.1038	1.72483	59.8962	-1.33403e-06	-4.90993e-06	-5.3475e-09	-4.90458e-06	0.245949	12347	13.4473	12333.5
463.961	3.76902	2.33992	4.4363	-31.8332	7.89137	0.246222	-0.0193042	146.601	40.7848	1	10	0.00501309	0.00113002	0	4.62188e-05	0.00026816	1.38358e-05	-19.5917	0.0122439	0.0115351	0.00410558	-31.7998	4.44827	3.78056	2.34403	0.191508	0.118894	0.225413	31.8332	40784.8	65694	77324.6	-58.1668	0.0000000E+000	0.0000000E+000	0.0000000E+000	58.1668	0.0000000E+000	0.0000000E+000	0.0000000E+000	-58.1668	0.0000000E+000	0.0000000E+000	0.0000000E+000	-31.8332	0.0000000E+000	0.0000000E+000	0.0000000E+000	31.8332	1.61075	58.1667	-2.90404e-06	-4.75313e-06	-5.17662e-09	-4.74796e-06	0.245954	12754.8	13.8912	12740.9
316.316	4.34216	2.81877	5.17686	-32.9902	8.33906	0.246223	-0.0196173	178.5	52.9209	1	10	0.00497008	0.000960057	0	4.45672e-05	7.87179e-07	3.66453e-06	5.20884	0.00381699	0.00380123	-0.00034653	-32.9641	5.17986	4.34596	2.81843	0.162022	0.105179	0.193167	32.9902	52920.9	81521.6	97192.5	-57.0098	0.0000000E+000	0.0000000E+000	0.0000000E+000	57.0098	0.0000000E+000	0.0000000E+000	0.0000000E+000	-57.0098	0.0000000E+000	0.0000000E+000	0.0000000E+000	-32.9902	0.0000000E+000	0.0000000E+000	0.0000000E+000	32.9902	1.54044	57.0098	-1.65156e-06	-4.83022e-06	-1.54423e-11	-4.8302e-06	0.246222	12551.3	0.0401268	12551.3
215.345	5.13973	3.3304	6.12441	-32.9421	8.7886	0.246225	-0.0191813	221.917	65.6227	1	10	0.00495731	0.000809435	0	4.22765e-05	-0.000132899	8.76662e-06	48.3519	0.0108305	0.00719748	-0.00809302	-32.842	6.12606	5.14693	3.32231	0.137029	0.0887907	0.163281	32.9421	65622.7	101274	120676	-57.0579	0.0000000E+000	0.0000000E+000	0.0000000E+000	57.0579	0.0000000E+000	0.0000000E+000	0.0000000E+000	-57.0579	0.0000000E+000	0.0000000E+000	0.0000000E+000	-32.9421	0.0000000E+000	0.0000000E+000	0.0000000E+000	32.9421	1.54328	57.0579	-2.29075e-06	-4.7229e-06	2.54917e-09	-4.72545e-06	0.246357	12836.7	6.92859	12843.6
146.737	6.16005	3.7751	7.22479	-31.5015	9.23451	0.246215	-0.0205415	287.31	78.4436	1	10	0.00494396	0.000684305	0	3.9898e-05	0.00017267	1.10706e-05	-95.9075	0.0161778	-0.00166507	0.0160919	-31.6171	7.23179	6.15838	3.79119	0.118014	0.0723233	0.138412	31.5015	78443.6	128001	150125	-58.4985	0.0000000E+000	0.0000000E+000	0.0000000E+000	58.4985	0.0000000E+000	0.0000000E+000	0.0000000E+000	-58.4985	0.0000000E+000	0.0000000E+000	0.0000000E+000	-31.5015	0.0000000E+000	0.0000000E+000	0.0000000E+000	31.5015	1.63176	58.4985	-2.37844e-06	-5.05762e-06	-3.54688e-09	-5.05408e-06	0.246043	11986.3	8.4059	11977.9
100.032	7.34278	4.05735	8.38919	-28.9234	9.68583	0.246204	-0.0198446	392.138	91.724	1	10	0.00493162	0.000587854	0	3.74539e-05	7.71793e-05	3.2149e-05	13.6614	0.0546887	0.0531415	-0.0129166	-28.6718	8.42954	7.39593	4.04443	0.104333	0.0576503	0.119201	28.9234	91724	165998	189654	-61.0766	0.0000000E+000	0.0000000E+000	0.0000000E+000	61.0766	0.0000000E+000	0.0000000E+000	0.0000000E+000	-61.0766	0.0000000E+000	0.0000000E+000	0.0000000E+000	-28.9234	0.0000000E+000	0.0000000E+000	0.0000000E+000	28.9234	1.80975	61.0766	-2.44417e-06	-4.88582e-06	-1.53159e-09	-4.88429e-06	0.246127	12406.6	3.88919	12402.7
68.104	8.6006	4.06532	9.51301	-25.2991	10.1475	0.246206	-0.0170907	574.847	104.98	1	10	0.00493451	0.000518712	0	3.5255e-05	0.000229964	2.97826e-06	-16.3854	0.00574164	0.00550845	0.0016197	-25.2938	9.51868	8.60611	4.06694	0.0950372	0.0449221	0.105119	25.2991	104980	222096	245657	-64.7009	0.0000000E+000	0.0000000E+000	0.0000000E+000	64.7009	0.0000000E+000	0.0000000E+000	0.0000000E+000	-64.7009	0.0000000E+000	0.0000000E+000	0.0000000E+000	-25.2991	0.0000000E+000	0.0000000E+000	0.0000000E+000	25.2991	2.1156	64.7009	-2.19889e-06	-4.20782e-06	-3.93023e-09	-4.20389e-06	0.245976	14405.8	13.4555	14392.4
46.4415	9.7884	3.86162	10.5226	-21.5297	10.5826	0.246201	-0.0214694	887.45	119.519	1	10	0.00493488	0.000468979	0	3.26441e-05	-0.000151997	6.52469e-06	11.4644	0.0139125	0.0136349	-0.00276524	-21.4885	10.5343	9.80204	3.85886	0.0884029	0.0348758	0.0950336	21.5297	119519	302956	325680	-68.4703	0.0000000E+000	0.0000000E+000	0.0000000E+000	68.4703	0.0000000E+000	0.0000000E+000	0.0000000E+000	-68.4703	0.0000000E+000	0.0000000E+000	0.0000000E+000	-21.5297	0.0000000E+000	0.0000000E+000	0.0000000E+000	21.5297	2.53479	68.4703	-2.6109e-06	-5.28577e-06	3.26328e-09	-5.28903e-06	0.246353	11467.5	7.07972	11474.6
31.6296	10.8113	3.54501	11.3777	-18.1542	11.0136	0.246197	-0.0231426	1419.41	137.796	1	10	0.00493444	0.000433694	0	3.09463e-05	-1.83109e-05	8.55481e-06	-28.2165	0.0197254	0.0173814	0.00932627	-18.1716	11.3971	10.8287	3.55434	0.0835162	0.0273848	0.0878914	18.1542	137796	420241	442256	-71.8458	0.0000000E+000	0.0000000E+000	0.0000000E+000	71.8458	0.0000000E+000	0.0000000E+000	0.0000000E+000	-71.8458	0.0000000E+000	0.0000000E+000	0.0000000E+000	-18.1542	0.0000000E+000	0.0000000E+000	0.0000000E+000	18.1542	3.04973	71.8458	-1.69778e-06	-5.69765e-06	4.23761e-10	-5.69807e-06	0.246216	10638.3	0.791219	10639.1
21.5517	11.6625	3.13445	12.0763	-15.0435	11.4345	0.246197	-0.0246556	2356.01	158.719	1	10	0.00493066	0.000408292	0	2.83058e-05	0.000210866	6.75105e-06	-83.1299	0.0165349	0.00197789	0.0164161	-15.1163	12.0825	11.6644	3.15086	0.0799688	0.0214927	0.0828067	15.0435	158719	590553	611510	-74.9565	0.0000000E+000	0.0000000E+000	0.0000000E+000	74.9565	0.0000000E+000	0.0000000E+000	0.0000000E+000	-74.9565	0.0000000E+000	0.0000000E+000	0.0000000E+000	-15.0435	0.0000000E+000	0.0000000E+000	0.0000000E+000	15.0435	3.72074	74.9565	-2.6405e-06	-6.07012e-06	-5.19901e-09	-6.06493e-06	0.245986	9985.44	8.55245	9976.88
14.6852	12.3701	2.7894	12.6807	-12.7074	11.8942	0.246225	-0.0171652	3885.35	188.002	1	10	0.00493125	0.000388877	0	2.6782e-05	7.71793e-05	5.75583e-06	71.7697	0.0148012	0.00463035	-0.0140583	-12.6408	12.6822	12.3748	2.77535	0.0769281	0.0173469	0.0788597	12.7074	188002	833733	854667	-77.2926	0.0000000E+000	0.0000000E+000	0.0000000E+000	77.2926	0.0000000E+000	0.0000000E+000	0.0000000E+000	-77.2926	0.0000000E+000	0.0000000E+000	0.0000000E+000	-12.7074	0.0000000E+000	0.0000000E+000	0.0000000E+000	12.7074	4.43469	77.2926	-1.52383e-06	-4.2265e-06	-1.3248e-09	-4.22517e-06	0.246147	14344.4	4.49627	14339.9
10.0032	13.0556	2.46015	13.2853	-10.6715	12.5898	0.246247	-0.00987871	6467.25	221.767	1	11	0.00494237	0.000372017	0	2.43917e-05	0.000420944	7.54306e-06	63.296	0.0202761	0.00911169	-0.0181135	-10.5875	13.291	13.0647	2.44204	0.0739691	0.0139385	0.0752709	10.6715	221767	1.17688e+06	1.19759e+06	-79.3285	0.0000000E+000	0.0000000E+000	0.0000000E+000	79.3285	0.0000000E+000	0.0000000E+000	0.0000000E+000	-79.3285	0.0000000E+000	0.0000000E+000	0.0000000E+000	-10.6715	0.0000000E+000	0.0000000E+000	0.0000000E+000	10.6715	5.30682	79.3285	-2.3903e-06	-2.4326e-06	-4.15838e-09	-2.42844e-06	0.245826	24927	42.6112	24884.4
6.81719	13.5733	2.15811	13.7438	-9.03422	12.9295	0.246233	-0.0100604	10817.9	266.732	1	11	0.00493515	0.000359082	0	2.19982e-05	0.000153571	6.84174e-06	85.0315	0.0190534	0.00165017	-0.0189818	-8.95498	13.7425	13.5749	2.13913	0.0718575	0.0114251	0.0727601	9.03422	266732	1.67759e+06	1.69867e+06	-80.9658	0.0000000E+000	0.0000000E+000	0.0000000E+000	80.9658	0.0000000E+000	0.0000000E+000	0.0000000E+000	-80.9658	0.0000000E+000	0.0000000E+000	0.0000000E+000	-9.03422	0.0000000E+000	0.0000000E+000	0.0000000E+000	9.03422	6.28944	80.9658	-2.39347e-06	-2.4772e-06	-1.54499e-09	-2.47565e-06	0.246079	24475.5	15.265	24460.2
4.63925	13.9878	1.90279	14.1166	-7.74654	13.4135	0.246243	-0.0100779	18029.4	327.57	1	11	0.00492769	0.000349071	0	1.78248e-05	0.000191768	9.52405e-06	-18.0692	0.027284	0.0259384	0.00846254	-7.76635	14.1434	14.0137	1.91125	0.0701922	0.00954842	0.0708387	7.74654	327570	2.40803e+06	2.4302e+06	-82.2535	0.0000000E+000	0.0000000E+000	0.0000000E+000	82.2535	0.0000000E+000	0.0000000E+000	0.0000000E+000	-82.2535	0.0000000E+000	0.0000000E+000	0.0000000E+000	-7.74654	0.0000000E+000	0.0000000E+000	0.0000000E+000	7.74654	7.35118	82.2535	-4.17339e-06	-2.48162e-06	-1.93262e-09	-2.47969e-06	0.246051	24433.9	19.0285	24414.9
3.1604	14.4151	1.71416	14.5166	-6.78145	14.1064	0.246227	-0.0104868	29378.4	409.636	1	11	0.00493956	0.000340269	0	1.86079e-05	0.000249062	4.63483e-06	34.7434	0.013621	0.0111926	-0.00776267	-6.74583	14.5268	14.4262	1.7064	0.0684046	0.00813429	0.0688866	6.78145	409636	3.4448e+06	3.46907e+06	-83.2186	0.0000000E+000	0.0000000E+000	0.0000000E+000	83.2186	0.0000000E+000	0.0000000E+000	0.0000000E+000	-83.2186	0.0000000E+000	0.0000000E+000	0.0000000E+000	-6.78145	0.0000000E+000	0.0000000E+000	0.0000000E+000	6.78145	8.40941	83.2186	7.83122e-07	-2.58214e-06	-2.61186e-09	-2.57952e-06	0.245978	23479.7	23.75	23456
2.15577	14.7326	1.51431	14.8102	-5.86863	15.11	0.24624	-0.00953829	48753.2	509.697	1	11	0.00493655	0.000333321	0	2.18382e-05	3.89833e-05	4.22152e-06	41.6945	0.012665	0.00945699	-0.00842425	-5.83249	14.8187	14.742	1.50589	0.0671672	0.00690389	0.0675211	5.86863	509697	4.95879e+06	4.98491e+06	-84.1314	0.0000000E+000	0.0000000E+000	0.0000000E+000	84.1314	0.0000000E+000	0.0000000E+000	0.0000000E+000	-84.1314	0.0000000E+000	0.0000000E+000	0.0000000E+000	-5.86863	0.0000000E+000	0.0000000E+000	0.0000000E+000	5.86863	9.72889	84.1314	3.23027e-06	-2.34871e-06	-3.71834e-10	-2.34834e-06	0.246201	25816	4.08703	25811.9
1.46631	15.0447	1.37924	15.1078	-5.23801	16.5714	0.246234	-0.00837284	78696.4	655.892	1	11	0.00493756	0.000326822	0	2.11506e-05	5.80813e-05	3.49575e-06	-51.8389	0.0106962	0.00660891	0.00841015	-5.26747	15.1151	15.0513	1.38765	0.0659146	0.0060428	0.066191	5.23801	655892	7.15445e+06	7.18445e+06	-84.762	0.0000000E+000	0.0000000E+000	0.0000000E+000	84.762	0.0000000E+000	0.0000000E+000	0.0000000E+000	-84.762	0.0000000E+000	0.0000000E+000	0.0000000E+000	-5.23801	0.0000000E+000	0.0000000E+000	0.0000000E+000	5.23801	10.908	84.762	-6.87621e-07	-2.06168e-06	-4.86305e-10	-2.0612e-06	0.246176	29408.7	6.93687	29401.8
1.00006	15.293	1.30741	15.3488	-4.88637	18.7	0.246242	-0.00636816	121725	883.19	1	11	0.00493569	0.000321568	0	1.21981e-05	0.000287258	5.30627e-06	51.1908	0.0165012	0.0103418	-0.0128584	-4.83529	15.358	15.3034	1.29455	0.0649148	0.0055496	0.0651515	4.88637	883190	1.03308e+07	1.03685e+07	-85.1136	0.0000000E+000	0.0000000E+000	0.0000000E+000	85.1136	0.0000000E+000	0.0000000E+000	0.0000000E+000	-85.1136	0.0000000E+000	0.0000000E+000	0.0000000E+000	-4.88637	0.0000000E+000	0.0000000E+000	0.0000000E+000	4.88637	11.6972	85.1136	-8.95252e-06	-1.5681e-06	-1.8293e-09	-1.56628e-06	0.245954	38667.6	45.1085	38622.5
0.681362	15.5154	1.2751	15.5677	-4.69818	21.8119	0.246244	-0.00522052	183188	1228.96	1	11	0.00493576	0.000317051	0	-5.59067e-06	9.62774e-05	2.88652e-06	23.2739	0.00910427	0.00836343	-0.00359734	-4.68247	15.5758	15.5238	1.27151	0.0640196	0.00526132	0.0642354	4.69818	1.22896e+06	1.49539e+07	1.50043e+07	-85.3018	0.0000000E+000	0.0000000E+000	0.0000000E+000	85.3018	0.0000000E+000	0.0000000E+000	0.0000000E+000	-85.3018	0.0000000E+000	0.0000000E+000	0.0000000E+000	-4.69818	0.0000000E+000	0.0000000E+000	0.0000000E+000	4.69818	12.168	85.3018	-1.77887e-05	-1.28552e-06	-5.02618e-10	-1.28502e-06	0.246148	47168.5	18.4421	47150
0.464091	15.7285	1.30859	15.7828	-4.75598	26.3686	0.246231	-0.00615436	262068	1801.57	1	11	0.00493333	0.000312575	0	-3.14874e-05	0.000229964	2.81629e-06	32.8859	0.00900997	0.00756615	-0.00489212	-4.73602	15.79	15.7361	1.3037	0.0631418	0.00525332	0.06336	4.75598	1.80157e+06	2.16538e+07	2.17286e+07	-85.244	0.0000000E+000	0.0000000E+000	0.0000000E+000	85.244	0.0000000E+000	0.0000000E+000	0.0000000E+000	-85.244	0.0000000E+000	0.0000000E+000	0.0000000E+000	-4.75598	0.0000000E+000	0.0000000E+000	0.0000000E+000	4.75598	12.0194	85.244	-2.58967e-05	-1.51539e-06	-1.41528e-09	-1.51398e-06	0.246001	40009.2	37.366	39971.8
0.316193	15.9583	1.46369	16.0253	-5.2405	36.2518	0.246241	-0.00655168	343888	2868.84	1	12	0.00493662	0.000308052	0	-6.06237e-05	0.000249062	2.90315e-06	-5.18005	0.00942422	0.00938573	0.000850873	-5.24047	16.0347	15.9677	1.46454	0.0621406	0.00569953	0.0624014	5.2405	2.86884e+06	3.12783e+07	3.14096e+07	-84.7595	0.0000000E+000	0.0000000E+000	0.0000000E+000	84.7595	0.0000000E+000	0.0000000E+000	0.0000000E+000	-84.7595	0.0000000E+000	0.0000000E+000	0.0000000E+000	-5.2405	0.0000000E+000	0.0000000E+000	0.0000000E+000	5.2405	10.9028	84.7595	-2.91363e-05	-1.61329e-06	-1.63177e-09	-1.61166e-06	0.245992	37584.3	38.0149	37546.3
0.215268	16.2139	1.75205	16.3083	-6.16738	46.0442	0.246235	-0.00782366	421982	4870.48	1	12	0.00493969	0.000302895	0	-6.71926e-05	0.000306356	1.73337e-06	16.9604	0.00572267	0.00547377	-0.00166937	-6.15948	16.3135	16.2194	1.75038	0.0609636	0.00658765	0.0613185	6.16738	4.87048e+06	4.50725e+07	4.53349e+07	-83.8326	0.0000000E+000	0.0000000E+000	0.0000000E+000	83.8326	0.0000000E+000	0.0000000E+000	0.0000000E+000	-83.8326	0.0000000E+000	0.0000000E+000	0.0000000E+000	-6.16738	0.0000000E+000	0.0000000E+000	0.0000000E+000	6.16738	9.25423	83.8326	-6.5689e-06	-1.92646e-06	-2.39682e-09	-1.92406e-06	0.245929	31473.1	39.1576	31434
0.146929	16.4648	2.16509	16.6065	-7.49131	60.3826	0.246225	-0.00735137	500307	8504.15	1	12	0.00493408	0.000297116	0	-4.66637e-05	9.62774e-05	1.34653e-06	21.9544	0.00453199	0.00420334	-0.00169437	-7.48363	16.6105	16.469	2.1634	0.0597032	0.00785087	0.0602172	7.49131	8.50415e+06	6.46712e+07	6.5228e+07	-82.5087	0.0000000E+000	0.0000000E+000	0.0000000E+000	82.5087	0.0000000E+000	0.0000000E+000	0.0000000E+000	-82.5087	0.0000000E+000	0.0000000E+000	0.0000000E+000	-7.49131	0.0000000E+000	0.0000000E+000	0.0000000E+000	7.49131	7.60466	82.5087	2.05289e-05	-1.81009e-06	-7.07771e-10	-1.80939e-06	0.246129	33493.8	13.0965	33480.7
0.0999041	16.8299	2.6944	17.0442	-9.09566	81.4588	0.246225	-0.00521518	591254	14775.6	1	12	0.00493664	0.000289637	0	2.22607e-06	0.000191768	1.36214e-06	40.6187	0.00470291	0.00356978	-0.00306169	-9.0836	17.0473	16.8335	2.69134	0.0579332	0.0092749	0.058671	9.09566	1.47756e+07	9.22921e+07	9.34674e+07	-80.9043	0.0000000E+000	0.0000000E+000	0.0000000E+000	80.9043	0.0000000E+000	0.0000000E+000	0.0000000E+000	-80.9043	0.0000000E+000	0.0000000E+000	0.0000000E+000	-9.09566	0.0000000E+000	0.0000000E+000	0.0000000E+000	9.09566	6.24624	80.9043	4.88898e-05	-1.28411e-06	-1.0001e-09	-1.28311e-06	0.246033	47213.1	36.771	47176.4
0.0680626	17.3342	3.48031	17.6801	-11.3527	112.385	0.246218	-0.00331769	671883	26035.1	1	12	0.00493392	0.000279066	0	5.17792e-05	0.000516434	1.40685e-06	-20.2558	0.00504126	0.00472949	0.00174534	-11.3553	17.6851	17.3389	3.48205	0.0554541	0.0111339	0.0565607	11.3527	2.60351e+07	1.29672e+08	1.32259e+08	-78.6473	0.0000000E+000	0.0000000E+000	0.0000000E+000	78.6473	0.0000000E+000	0.0000000E+000	0.0000000E+000	-78.6473	0.0000000E+000	0.0000000E+000	0.0000000E+000	-11.3527	0.0000000E+000	0.0000000E+000	0.0000000E+000	11.3527	4.98064	78.6473	4.95531e-05	-8.16874e-07	-1.71337e-09	-8.15161e-07	0.245701	74213.6	155.661	74058
0.0464052	17.9932	4.62943	18.5792	-14.4285	157.736	0.246231	-0.00103901	740842	45996.5	1	12	0.00493921	0.000265845	0	5.16077e-05	0.000325454	1.81395e-06	5.26576	0.00682333	0.00679454	-0.000626215	-14.4214	18.5857	18	4.62881	0.0521258	0.0134113	0.0538235	14.4285	4.59965e+07	1.78775e+08	1.84597e+08	-75.5715	0.0000000E+000	0.0000000E+000	0.0000000E+000	75.5715	0.0000000E+000	0.0000000E+000	0.0000000E+000	-75.5715	0.0000000E+000	0.0000000E+000	0.0000000E+000	-14.4285	0.0000000E+000	0.0000000E+000	0.0000000E+000	14.4285	3.88671	75.5715	-1.71549e-07	-2.55837e-07	-3.3815e-10	-2.55499e-07	0.245906	236986	313.234	236673
0.0315922	18.6368	6.13738	19.6213	-18.2275	224.342	0.246227	-0.00115569	820837	80309.4	1	12	0.00493599	0.000251563	0	-0.000106152	0.000134473	2.00573e-06	-19.3161	0.00797307	0.00752426	0.00263733	-18.228	19.6293	18.6443	6.14002	0.0484076	0.0159414	0.0509649	18.2275	8.03094e+07	2.43867e+08	2.56751e+08	-71.7725	0.0000000E+000	0.0000000E+000	0.0000000E+000	71.7725	0.0000000E+000	0.0000000E+000	0.0000000E+000	-71.7725	0.0000000E+000	0.0000000E+000	0.0000000E+000	-18.2275	0.0000000E+000	0.0000000E+000	0.0000000E+000	18.2275	3.0366	71.7725	-0.00015776	-2.84562e-07	-1.5541e-10	-2.84407e-07	0.246092	213055	116.357	212939
0.0215268	19.5788	7.99964	21.15	-22.2243	322.079	0.246224	-0.00194452	924210	132218	1	12	0.00493685	0.000233421	0	-0.000469659	0.000191768	1.83761e-06	2.07671	0.00787251	0.00786734	-0.00028528	-22.2155	21.1572	19.5866	7.99935	0.0437688	0.0178834	0.0472813	22.2243	1.32218e+08	3.23598e+08	3.49567e+08	-67.7757	0.0000000E+000	0.0000000E+000	0.0000000E+000	67.7757	0.0000000E+000	0.0000000E+000	0.0000000E+000	-67.7757	0.0000000E+000	0.0000000E+000	0.0000000E+000	-22.2243	0.0000000E+000	0.0000000E+000	0.0000000E+000	22.2243	2.44746	67.7757	-0.000363507	-4.78788e-07	-3.72896e-10	-4.78415e-07	0.246032	126625	98.6194	126526
0.0146812	21.0261	10.5437	23.5216	-26.632	465.382	0.246225	-0.0026303	1.02817e+06	206595	1	12	0.00493733	0.000209906	0	-0.000945652	0.000306356	2.08198e-06	2.07954	0.00991861	0.00991208	-0.000359915	-26.6204	23.5303	21.036	10.5434	0.0380036	0.0190573	0.0425141	26.632	2.06595e+08	4.11987e+08	4.60885e+08	-63.368	0.0000000E+000	0.0000000E+000	0.0000000E+000	63.368	0.0000000E+000	0.0000000E+000	0.0000000E+000	-63.368	0.0000000E+000	0.0000000E+000	0.0000000E+000	-26.632	0.0000000E+000	0.0000000E+000	0.0000000E+000	26.632	1.99417	63.368	-0.000475993	-6.47647e-07	-8.05808e-10	-6.46841e-07	0.245919	93611	116.472	93494.6
0.0100092	22.787	14.1048	26.7991	-31.7569	675.563	0.246215	-0.00328554	1.12734e+06	312283	1	12	0.00493719	0.000184229	0	-0.00129459	7.71793e-05	1.69359e-06	31.6431	0.00919283	0.00782615	-0.0048228	-31.7393	26.8033	22.7948	14.1	0.0317282	0.0196393	0.0373146	31.7569	3.12283e+08	5.04508e+08	5.93337e+08	-58.2431	0.0000000E+000	0.0000000E+000	0.0000000E+000	58.2431	0.0000000E+000	0.0000000E+000	0.0000000E+000	-58.2431	0.0000000E+000	0.0000000E+000	0.0000000E+000	-31.7569	0.0000000E+000	0.0000000E+000	0.0000000E+000	31.7569	1.61555	58.2431	-0.000348943	-8.08949e-07	-2.53576e-10	-8.08695e-07	0.246137	74938.8	23.4906	74915.3