File: txt/18814_R307_UA701_3p24_SOC00_C01.mpt
EC-Lab ASCII FILE
Nb header lines : 65

Potentio Electrochemical Impedance Spectroscopy

Run on channel : 1 (SN 66354)
User :
CE vs. WE compliance from -10 V to 10 V
Electrode connection : standard
Potential control : Ewe
Ewe ctrl range : min = -10.00 V, max = 10.00 V
Safety Limits :
	Do not start on E overload
Acquisition started on : 11/03/2025 16:08:24.140
Technique started on : 11/03/2025 16:08:26.051
Loaded Setting File :  C:\Users\Celltest\OneDrive - store-dot.com\Documents\EC-Lab\Data\@Biologic Test Protocols\anode half cell EIS SOC00.mps
Saved on :
	File : 18814_R307_UA701_3p24_SOC00_C01.mpr
	Directory : C:\Users\Celltest\OneDrive - store-dot.com\Documents\EC-Lab\Data\Anna\
	Host : 169.254.61.224
Device : VMP-3e (SN .003165)
Address : USB
EC-LAB for windows v11.62 (software)
Internet server v27.00 (firmware)
Command interpretor v12.03 (firmware)
Electrode material :
Initial state :
Electrolyte :
Comments :
Electrode surface area : 0.001 cm²
Characteristic mass : 0.001 g
Equivalent Weight : 0.000 g/eq.
Density : 0.000 g/cm3
Volume (V) : 0.001 cm³
Record Ece
Cycle Definition : Charge/Discharge alternance
Mode                Single sine
E (V)               0.0000
vs.                 Eoc
tE (h:m:s)          0:00:0.0000
record              0
dI                  0.000
unit dI             mA
dt (s)              0.000
fi                  100.000
unit fi             kHz
ff                  10.000
unit ff             mHz
Nd                  6
Points              per decade
spacing             Logarithmic
Va (mV)             5.0
pw                  0.10
Na                  2
corr                0
E range min (V)     -10.000
E range max (V)     10.000
I Range             Auto
Bandwidth           5
nc cycles           0
goto Ns'            0
nr cycles           0
inc. cycle          0

freq/Hz	Re(Z)/Ohm	-Im(Z)/Ohm	|Z|/Ohm	Phase(Z)/deg	time/s	<Ewe>/V	<I>/mA	Cs/µF	Cp/µF	cycle number	I Range	|Ewe|/V	|I|/A	Ns	(Q-Qo)/mA.h	<Ece>/V	|Ece|/V	Phase(Zce)/deg	|Zce|/Ohm	Re(Zce)/Ohm	-Im(Zce)/Ohm	Phase(Zwe-ce)/deg	|Zwe-ce|/Ohm	Re(Zwe-ce)/Ohm	-Im(Zwe-ce)/Ohm	Re(Y)/Ohm-1	Im(Y)/Ohm-1	|Y|/Ohm-1	Phase(Y)/deg	Re(C)/nF	Im(C)/nF	|C|/nF	Phase(C)/deg	Re(M)	Im(M)	|M|	Phase(M)/deg	Re(Permittivity)	Im(Permittivity)	|Permittivity|	Phase(Permittivity)/deg	Re(Resistivity)/Ohm.cm	Im(Resistivity)/Ohm.cm	|Resistivity|/Ohm.cm	Phase(Resistivity)/deg	Re(Conductivity)/mS/cm	Im(Conductivity)/mS/cm	|Conductivity|/mS/cm	Phase(Conductivity)/deg	Tan(Delta)	Loss Angle(Delta)/deg	dq/mA.h	Pwe/W	Pce/W	Pwe-ce/W	<Ewe-Ece>/V	Rwe/Ohm	Rce/Ohm	Rwe-ce/Ohm		Ewe-Ece/V
100004	1.05959	0.433594	1.14488	-22.2548	1.91052	0.249986	0.0773727	3.67046	0.526466	1	9	0.00471827	0.0041212	0	1.09004e-05	-0.000207511	4.39783e-05	88.6233	0.0106712	0.000256379	-0.0106682	-21.7542	1.14112	1.05985	0.422926	0.808392	0.330801	0.873457	22.2548	526.466	1286.55	1390.1	-67.7452	0.0000000E+000	0.0000000E+000	0.0000000E+000	67.7452	0.0000000E+000	0.0000000E+000	0.0000000E+000	-67.7452	0.0000000E+000	0.0000000E+000	0.0000000E+000	-22.2548	0.0000000E+000	0.0000000E+000	0.0000000E+000	22.2548	2.44374	67.7452	1.09004e-05	1.93421e-05	-1.60557e-08	1.93581e-05	0.250193	3230.93	2.68196	3233.61
68132	1.17411	0.485374	1.27048	-22.4601	2.41752	0.249983	0.0846001	4.81274	0.702443	1	9	0.00503665	0.00396437	0	4.06858e-05	7.86489e-05	3.61049e-05	75.1	0.00910733	0.00234179	-0.00880111	-22.0526	1.26931	1.17645	0.476573	0.7274	0.300706	0.787106	22.4601	702.443	1699.19	1838.66	-67.5399	0.0000000E+000	0.0000000E+000	0.0000000E+000	67.5399	0.0000000E+000	0.0000000E+000	0.0000000E+000	-67.5399	0.0000000E+000	0.0000000E+000	0.0000000E+000	-22.4601	0.0000000E+000	0.0000000E+000	0.0000000E+000	22.4601	2.41897	67.5399	2.97854e-05	2.11486e-05	6.6537e-09	2.11419e-05	0.249905	2954.88	0.929655	2953.95
46420.4	1.30437	0.524207	1.40577	-21.8944	2.92452	0.249982	0.0774472	6.54047	0.909467	1	9	0.0050856	0.00361767	0	3.4325e-05	5.95716e-05	1.2465e-05	55.648	0.0034456	0.00194427	-0.00284464	-21.7574	1.40652	1.30632	0.521362	0.660047	0.265262	0.711355	21.8944	909.468	2263.01	2438.92	-68.1056	0.0000000E+000	0.0000000E+000	0.0000000E+000	68.1056	0.0000000E+000	0.0000000E+000	0.0000000E+000	-68.1056	0.0000000E+000	0.0000000E+000	0.0000000E+000	-21.8944	0.0000000E+000	0.0000000E+000	0.0000000E+000	21.8944	2.48828	68.1056	-6.36074e-06	1.93604e-05	4.61365e-09	1.93558e-05	0.249923	3227.78	0.769189	3227.01
31621.1	1.42918	0.58518	1.54434	-22.2668	3.43152	0.249963	0.0746159	8.60108	1.23494	1	9	0.0051344	0.00332466	0	4.58689e-05	9.77262e-05	2.61026e-05	29.3609	0.00785121	0.00684271	-0.00384952	-22.0391	1.54923	1.43602	0.58133	0.59924	0.24536	0.647526	22.2668	1234.94	3016.08	3259.12	-67.7332	0.0000000E+000	0.0000000E+000	0.0000000E+000	67.7332	0.0000000E+000	0.0000000E+000	0.0000000E+000	-67.7332	0.0000000E+000	0.0000000E+000	0.0000000E+000	-22.2668	0.0000000E+000	0.0000000E+000	0.0000000E+000	22.2668	2.44229	67.7332	1.15439e-05	1.86512e-05	7.29192e-09	1.86439e-05	0.249865	3350	1.30972	3348.69
21544.7	1.5702	0.643956	1.69711	-22.2991	3.81452	0.249964	0.0726786	11.4716	1.65164	1	9	0.00525325	0.0030954	0	4.93518e-05	0.000345731	5.67963e-06	-11.0343	0.00183486	0.00180094	0.000351187	-22.287	1.69891	1.572	0.644307	0.54517	0.223581	0.589236	22.2991	1651.64	4027.28	4352.8	-67.7009	0.0000000E+000	0.0000000E+000	0.0000000E+000	67.7009	0.0000000E+000	0.0000000E+000	0.0000000E+000	-67.7009	0.0000000E+000	0.0000000E+000	0.0000000E+000	-22.2991	0.0000000E+000	0.0000000E+000	0.0000000E+000	22.2991	2.43836	67.7009	3.4829e-06	1.81671e-05	2.51273e-08	1.81419e-05	0.249618	3439.31	4.75698	3434.55
14678.6	1.72109	0.707851	1.86096	-22.3565	4.07352	0.249958	0.0783413	15.3177	2.21616	1	9	0.00456129	0.00245104	0	5.53072e-05	-7.39696e-05	4.23004e-06	17.9542	0.00172582	0.00164178	-0.000531995	-22.3221	1.86228	1.72273	0.707319	0.496965	0.204393	0.537356	22.3565	2216.16	5388.43	5826.36	-67.6435	0.0000000E+000	0.0000000E+000	0.0000000E+000	67.6435	0.0000000E+000	0.0000000E+000	0.0000000E+000	-67.6435	0.0000000E+000	0.0000000E+000	0.0000000E+000	-22.3565	0.0000000E+000	0.0000000E+000	0.0000000E+000	22.3565	2.43143	67.6435	5.95539e-06	1.9582e-05	-5.79487e-09	1.95878e-05	0.250032	3190.63	0.944197	3191.57
10002.2	1.88224	0.782429	2.03839	-22.5722	4.45654	0.249963	0.0773354	20.3366	2.99637	1	9	0.00492834	0.00241777	0	6.40171e-05	0.000135881	8.88278e-06	27.0898	0.00367396	0.00327091	-0.00167307	-22.4936	2.04077	1.88551	0.780756	0.453004	0.18831	0.490584	22.5722	2996.37	7208.18	7806.15	-67.4278	0.0000000E+000	0.0000000E+000	0.0000000E+000	67.4278	0.0000000E+000	0.0000000E+000	0.0000000E+000	-67.4278	0.0000000E+000	0.0000000E+000	0.0000000E+000	-22.5722	0.0000000E+000	0.0000000E+000	0.0000000E+000	22.5722	2.40563	67.4278	8.70989e-06	1.9331e-05	1.05084e-08	1.93205e-05	0.249827	3232.19	1.75703	3230.43
6810.42	2.05244	0.869813	2.22915	-22.9669	4.71555	0.249964	0.0729767	26.8671	4.09067	1	9	0.00462048	0.00207276	0	7.11681e-05	0.000231267	3.21822e-05	46.177	0.0155263	0.0107509	-0.0112019	-22.5949	2.23472	2.06319	0.858611	0.413042	0.175044	0.448602	22.9669	4090.67	9652.5	10483.5	-67.0331	0.0000000E+000	0.0000000E+000	0.0000000E+000	67.0331	0.0000000E+000	0.0000000E+000	0.0000000E+000	-67.0331	0.0000000E+000	0.0000000E+000	0.0000000E+000	-22.9669	0.0000000E+000	0.0000000E+000	0.0000000E+000	22.9669	2.35964	67.0331	7.15101e-06	1.82415e-05	1.68771e-08	1.82247e-05	0.249733	3425.26	3.16906	3422.09
4646	2.24108	1.00178	2.45479	-24.085	5.10762	0.249936	0.0520025	34.1955	5.69486	1	9	0.00488179	0.00198868	0	7.58717e-05	0.00021219	5.53038e-06	-82.9502	0.00278093	0.000341309	0.00275991	-24.1405	2.45623	2.24142	1.00454	0.371902	0.166242	0.407366	24.085	5694.86	12740	13954.9	-65.915	0.0000000E+000	0.0000000E+000	0.0000000E+000	65.915	0.0000000E+000	0.0000000E+000	0.0000000E+000	-65.915	0.0000000E+000	0.0000000E+000	0.0000000E+000	-24.085	0.0000000E+000	0.0000000E+000	0.0000000E+000	24.085	2.2371	65.915	4.70365e-06	1.29973e-05	1.10344e-08	1.29862e-05	0.249724	4806.23	4.08038	4802.15
3163.08	2.46447	1.14171	2.71608	-24.8569	5.48167	0.249735	0.0130717	44.071	7.7872	1	9	0.0048135	0.00177222	0	7.79493e-05	-3.5815e-05	5.81339e-06	-62.7609	0.00328028	0.0015014	0.00291651	-24.8994	2.71867	2.46597	1.14463	0.33407	0.154765	0.368177	24.8569	7787.2	16809.2	18525.4	-65.1431	0.0000000E+000	0.0000000E+000	0.0000000E+000	65.1431	0.0000000E+000	0.0000000E+000	0.0000000E+000	-65.1431	0.0000000E+000	0.0000000E+000	0.0000000E+000	-24.8569	0.0000000E+000	0.0000000E+000	0.0000000E+000	24.8569	2.15857	65.1431	2.0776e-06	3.26446e-06	-4.68162e-10	3.26493e-06	0.249771	19105.1	2.73989	19107.8
2155.69	2.68504	1.33064	2.99668	-26.3619	5.93283	0.249874	0.10021	55.4847	10.9399	1	9	0.00476172	0.001589	0	8.88849e-05	2.1417e-05	4.1146e-06	-34.6599	0.00258942	0.00212991	0.00147261	-26.369	2.99924	2.68717	1.33211	0.299	0.148177	0.333703	26.3619	10939.9	22075.3	24637.4	-63.6381	0.0000000E+000	0.0000000E+000	0.0000000E+000	63.6381	0.0000000E+000	0.0000000E+000	0.0000000E+000	-63.6381	0.0000000E+000	0.0000000E+000	0.0000000E+000	-26.3619	0.0000000E+000	0.0000000E+000	0.0000000E+000	26.3619	2.01786	63.6381	1.09356e-05	2.50398e-05	2.14618e-09	2.50376e-05	0.249852	2493.51	0.213722	2493.3
1468.59	2.95664	1.56164	3.34371	-27.8421	6.38306	0.249872	0.106319	69.3969	15.137	1	9	0.00472068	0.00141181	0	0.000103347	0.000135881	3.73128e-06	-52.8375	0.00264291	0.00159652	0.0021062	-27.8612	3.34611	2.95824	1.56374	0.264448	0.139676	0.299069	27.8421	15137	28658.9	32410.9	-62.1579	0.0000000E+000	0.0000000E+000	0.0000000E+000	62.1579	0.0000000E+000	0.0000000E+000	0.0000000E+000	-62.1579	0.0000000E+000	0.0000000E+000	0.0000000E+000	-27.8421	0.0000000E+000	0.0000000E+000	0.0000000E+000	27.8421	1.8933	62.1579	1.44624e-05	2.65662e-05	1.44467e-08	2.65518e-05	0.249736	2350.21	1.27804	2348.93
1000.32	3.2677	1.8875	3.77366	-30.0118	7.07982	0.249883	-0.0123701	84.2934	21.0884	1	10	0.0048219	0.00127778	0	0.00010838	0.00021219	4.11954e-06	95.8153	0.00322399	-0.000326661	-0.0032074	-29.9721	3.77177	3.26737	1.88429	0.229465	0.132545	0.264995	30.0118	21088.4	36508.8	42161.7	-59.9882	0.0000000E+000	0.0000000E+000	0.0000000E+000	59.9882	0.0000000E+000	0.0000000E+000	0.0000000E+000	-59.9882	0.0000000E+000	0.0000000E+000	0.0000000E+000	-30.0118	0.0000000E+000	0.0000000E+000	0.0000000E+000	30.0118	1.73123	59.9882	5.0323e-06	-3.09109e-06	-2.62482e-09	-3.08846e-06	0.249671	20200.5	17.1534	20183.3
681.09	3.63287	2.31537	4.30797	-32.5109	7.5296	0.249874	-0.0130186	100.924	29.1534	1	10	0.00477336	0.00110803	0	0.000107888	0.000135881	8.66686e-06	-140.306	0.00782187	-0.00601871	0.00499568	-32.61	4.30559	3.62685	2.32036	0.195751	0.124759	0.232128	32.5109	29153.4	45742.4	54242.9	-57.4891	0.0000000E+000	0.0000000E+000	0.0000000E+000	57.4891	0.0000000E+000	0.0000000E+000	0.0000000E+000	-57.4891	0.0000000E+000	0.0000000E+000	0.0000000E+000	-32.5109	0.0000000E+000	0.0000000E+000	0.0000000E+000	32.5109	1.56903	57.4891	-4.91571e-07	-3.25302e-06	-1.76898e-09	-3.25125e-06	0.249738	19193.6	10.4374	19183.1
463.961	4.11288	2.87427	5.01769	-34.9476	7.9813	0.249875	-0.0120459	119.347	39.1614	1	10	0.00474593	0.000945841	0	0.000106759	-3.5815e-05	8.51887e-06	38.9418	0.00900667	0.00700525	-0.00566097	-34.8488	5.02019	4.11989	2.86861	0.163357	0.114162	0.199295	34.9476	39161.4	56037.4	68365.2	-55.0524	0.0000000E+000	0.0000000E+000	0.0000000E+000	55.0524	0.0000000E+000	0.0000000E+000	0.0000000E+000	-55.0524	0.0000000E+000	0.0000000E+000	0.0000000E+000	-34.9476	0.0000000E+000	0.0000000E+000	0.0000000E+000	34.9476	1.43093	55.0524	-1.12897e-06	-3.00997e-06	4.31424e-10	-3.0104e-06	0.249911	20743.6	2.97321	20746.5
316.316	4.7723	3.55651	5.95177	-36.6949	8.42908	0.249878	-0.0123292	141.474	50.5161	1	10	0.0047159	0.000792352	0	0.000105034	2.1417e-05	1.00396e-05	32.2415	0.0126707	0.0107169	-0.00675966	-36.5812	5.95634	4.78302	3.54975	0.134721	0.100399	0.168017	36.6949	50516.1	67785.1	84538.1	-53.3051	0.0000000E+000	0.0000000E+000	0.0000000E+000	53.3051	0.0000000E+000	0.0000000E+000	0.0000000E+000	-53.3051	0.0000000E+000	0.0000000E+000	0.0000000E+000	-36.6949	0.0000000E+000	0.0000000E+000	0.0000000E+000	36.6949	1.34185	53.3051	-1.72511e-06	-3.08079e-06	-2.64053e-10	-3.08053e-06	0.249857	20267.3	1.7371	20265.5
215.345	5.72143	4.35111	7.18798	-37.2528	8.8786	0.249887	-0.0125155	169.858	62.2406	1	10	0.00471272	0.000655639	0	0.000102872	4.04943e-05	3.11877e-05	-7.87472	0.0475685	0.0471199	0.00651723	-37.0678	7.22947	5.76855	4.35763	0.110737	0.0842146	0.139121	37.2528	62240.6	81842.3	102820	-52.7472	0.0000000E+000	0.0000000E+000	0.0000000E+000	52.7472	0.0000000E+000	0.0000000E+000	0.0000000E+000	-52.7472	0.0000000E+000	0.0000000E+000	0.0000000E+000	-37.2528	0.0000000E+000	0.0000000E+000	0.0000000E+000	37.2528	1.31493	52.7472	-2.16188e-06	-3.12746e-06	-5.06806e-10	-3.12696e-06	0.249846	19966.2	3.23553	19963
146.737	6.97695	5.1237	8.65622	-36.2926	9.32452	0.249876	-0.012959	211.688	74.1662	1	10	0.00470085	0.00054306	0	0.000100529	4.04943e-05	9.40888e-06	-48.9889	0.0173257	0.0113692	0.0130736	-36.3178	8.67312	6.98832	5.13677	0.0931128	0.0683796	0.115524	36.2926	74166.2	100992	125300	-53.7074	0.0000000E+000	0.0000000E+000	0.0000000E+000	53.7074	0.0000000E+000	0.0000000E+000	0.0000000E+000	-53.7074	0.0000000E+000	0.0000000E+000	0.0000000E+000	-36.2926	0.0000000E+000	0.0000000E+000	0.0000000E+000	36.2926	1.3617	53.7074	-2.34317e-06	-3.23815e-06	-5.24766e-10	-3.23762e-06	0.249835	19282	3.12479	19278.9
100.032	8.51352	5.70713	10.2495	-33.8363	9.7758	0.249878	-0.0129851	278.781	86.4365	1	10	0.00467105	0.000455737	0	9.96076e-05	-5.48923e-05	6.81248e-05	-68.9392	0.149483	0.0537179	0.139497	-34.3112	10.3721	8.56724	5.84662	0.0810415	0.054327	0.0975662	33.8363	86436.5	128940	155232	-56.1637	0.0000000E+000	0.0000000E+000	0.0000000E+000	56.1637	0.0000000E+000	0.0000000E+000	0.0000000E+000	-56.1637	0.0000000E+000	0.0000000E+000	0.0000000E+000	-33.8363	0.0000000E+000	0.0000000E+000	0.0000000E+000	33.8363	1.49174	56.1637	-9.21271e-07	-3.24469e-06	7.12782e-10	-3.2454e-06	0.249933	19243.4	4.22733	19247.6
68.104	10.361	6.14196	12.0447	-30.6593	10.2385	0.249888	-0.00964205	380.488	98.9385	1	10	0.00468393	0.00038888	0	9.87985e-05	0.000269422	1.10687e-05	31.5741	0.028463	0.0242494	-0.0149032	-30.5396	12.0579	10.3852	6.12706	0.0714187	0.0423368	0.0830243	30.6593	98938.5	166901	194023	-59.3407	0.0000000E+000	0.0000000E+000	0.0000000E+000	59.3407	0.0000000E+000	0.0000000E+000	0.0000000E+000	-59.3407	0.0000000E+000	0.0000000E+000	0.0000000E+000	-30.6593	0.0000000E+000	0.0000000E+000	0.0000000E+000	30.6593	1.68692	59.3407	-8.09174e-07	-2.40943e-06	-2.59778e-09	-2.40683e-06	0.249619	25916.5	27.9424	25888.5
46.4415	12.2456	6.13101	13.6947	-26.5957	10.6747	0.249878	-0.0152921	558.961	112.032	1	10	0.0046876	0.000342293	0	9.69082e-05	-0.000169356	1.02874e-05	24.7852	0.0300543	0.0272859	-0.0125993	-26.4976	13.7135	12.2729	6.11841	0.0652945	0.032691	0.073021	26.5957	112032	223764	250243	-63.4043	0.0000000E+000	0.0000000E+000	0.0000000E+000	63.4043	0.0000000E+000	0.0000000E+000	0.0000000E+000	-63.4043	0.0000000E+000	0.0000000E+000	0.0000000E+000	-26.5957	0.0000000E+000	0.0000000E+000	0.0000000E+000	26.5957	1.99732	63.4043	-1.89029e-06	-3.82115e-06	2.58981e-09	-3.82374e-06	0.250047	16340.3	11.0748	16351.4
31.6296	13.9945	5.83316	15.1615	-22.6273	11.1036	0.249878	-0.016276	862.627	127.687	1	10	0.00468517	0.000309018	0	9.54135e-05	-0.000112124	9.37477e-06	-90.7567	0.0303373	-0.000400675	0.0303347	-22.7336	15.1728	13.9941	5.8635	0.0608797	0.0253758	0.0659565	22.6273	127687	306337	331883	-67.3727	0.0000000E+000	0.0000000E+000	0.0000000E+000	67.3727	0.0000000E+000	0.0000000E+000	0.0000000E+000	-67.3727	0.0000000E+000	0.0000000E+000	0.0000000E+000	-22.6273	0.0000000E+000	0.0000000E+000	0.0000000E+000	22.6273	2.39912	67.3727	-1.49464e-06	-4.06702e-06	1.82493e-09	-4.06884e-06	0.24999	15352.5	6.88893	15359.4
21.5517	15.6071	5.3465	16.4974	-18.9099	11.7575	0.249922	-0.00158121	1381.24	145.069	1	11	0.00468733	0.000284125	0	9.49636e-05	0.000250345	7.49533e-06	-109.623	0.0263804	-0.00885926	0.0248483	-19.0015	16.4971	15.5982	5.37134	0.057344	0.0196443	0.0606155	18.9099	145069	423474	447633	-71.0901	0.0000000E+000	0.0000000E+000	0.0000000E+000	71.0901	0.0000000E+000	0.0000000E+000	0.0000000E+000	-71.0901	0.0000000E+000	0.0000000E+000	0.0000000E+000	-18.9099	0.0000000E+000	0.0000000E+000	0.0000000E+000	18.9099	2.91912	71.0901	-4.49884e-07	-3.9518e-07	-3.95848e-10	-3.94784e-07	0.249672	158057	158.324	157899
14.6852	16.945	4.78406	17.6074	-15.7659	12.2182	0.249921	-0.00132761	2265.4	167.243	1	11	0.00469515	0.000266658	0	9.60532e-05	0.000345731	4.06633e-06	26.5405	0.0152492	0.0136423	-0.00681382	-15.7325	17.6187	16.9587	4.77725	0.0546577	0.0154314	0.0567943	15.7659	167243	592369	615526	-74.2341	0.0000000E+000	0.0000000E+000	0.0000000E+000	74.2341	0.0000000E+000	0.0000000E+000	0.0000000E+000	-74.2341	0.0000000E+000	0.0000000E+000	0.0000000E+000	-15.7659	0.0000000E+000	0.0000000E+000	0.0000000E+000	15.7659	3.54197	74.2341	1.08958e-06	-3.31798e-07	-4.58998e-10	-3.31339e-07	0.249575	188248	260.415	187988
10.0032	18.0032	4.22363	18.492	-13.2031	12.6688	0.249919	-0.00136895	3767	196.516	1	11	0.00468419	0.000253309	0	9.53422e-05	0.000345731	4.55467e-06	-113.176	0.0179807	-0.00707647	0.0165296	-13.2579	18.4889	17.9961	4.24016	0.052648	0.0123514	0.0540774	13.2031	196516	837650	860394	-76.7969	0.0000000E+000	0.0000000E+000	0.0000000E+000	76.7969	0.0000000E+000	0.0000000E+000	0.0000000E+000	-76.7969	0.0000000E+000	0.0000000E+000	0.0000000E+000	-13.2031	0.0000000E+000	0.0000000E+000	0.0000000E+000	13.2031	4.2625	76.7969	-7.11054e-07	-3.42127e-07	-4.73289e-10	-3.41654e-07	0.249573	182562	252.552	182310
6.81719	18.9269	3.76098	19.297	-11.2389	13.0085	0.249932	-0.00013857	6207.46	235.797	1	11	0.00468093	0.000242573	0	9.69149e-05	2.1417e-05	1.03876e-05	50.4415	0.0428224	0.0272721	-0.033015	-11.1271	19.3173	18.9542	3.72797	0.0508278	0.0101	0.0518216	11.2389	235797	1.18663e+06	1.20983e+06	-78.7611	0.0000000E+000	0.0000000E+000	0.0000000E+000	78.7611	0.0000000E+000	0.0000000E+000	0.0000000E+000	-78.7611	0.0000000E+000	0.0000000E+000	0.0000000E+000	-11.2389	0.0000000E+000	0.0000000E+000	0.0000000E+000	11.2389	5.03244	78.7611	1.57278e-06	-3.46331e-08	-2.96775e-12	-3.46302e-08	0.249911	1.80365e+06	154.557	1.8035e+06
4.63925	19.733	3.34775	20.015	-9.62868	13.4924	0.249928	-0.000806267	10247.5	286.692	1	11	0.00468338	0.000233994	0	9.44389e-05	-0.000341052	7.4334e-06	99.013	0.0317675	-0.00497663	-0.0313752	-9.54247	20.0049	19.728	3.31638	0.0492587	0.00835685	0.0499626	9.62868	286691	1.68988e+06	1.71402e+06	-80.3713	0.0000000E+000	0.0000000E+000	0.0000000E+000	80.3713	0.0000000E+000	0.0000000E+000	0.0000000E+000	-80.3713	0.0000000E+000	0.0000000E+000	0.0000000E+000	-9.62868	0.0000000E+000	0.0000000E+000	0.0000000E+000	9.62868	5.89441	80.3713	-2.47603e-06	-2.01508e-07	2.74979e-10	-2.01783e-07	0.250269	309981	423.001	310404
3.1604	20.4721	2.94666	20.683	-8.19065	14.1854	0.249928	-0.000238929	17090.3	346.88	1	11	0.00468894	0.000226704	0	9.25753e-05	2.1417e-05	5.5128e-06	-104.545	0.0243171	-0.00610704	0.0235378	-8.25761	20.6804	20.4659	2.9702	0.0478556	0.00688813	0.0483488	8.19065	346880	2.40997e+06	2.43481e+06	-81.8093	0.0000000E+000	0.0000000E+000	0.0000000E+000	81.8093	0.0000000E+000	0.0000000E+000	0.0000000E+000	-81.8093	0.0000000E+000	0.0000000E+000	0.0000000E+000	-8.19065	0.0000000E+000	0.0000000E+000	0.0000000E+000	8.19065	6.94755	81.8093	-1.86362e-06	-5.97152e-08	-5.11713e-12	-5.971e-08	0.249907	1.04604e+06	89.6373	1.04595e+06
2.15577	21.069	2.59602	21.2284	-7.02428	15.189	0.249925	-0.000157841	28438.8	425.297	1	11	0.00468727	0.000220802	0	9.46128e-05	0.000116803	5.70648e-06	-10.5515	0.0258443	0.0254073	0.00473257	-7.02857	21.2542	21.0944	2.60075	0.0467532	0.00576069	0.0471068	7.02428	425298	3.45168e+06	3.47778e+06	-82.9757	0.0000000E+000	0.0000000E+000	0.0000000E+000	82.9757	0.0000000E+000	0.0000000E+000	0.0000000E+000	-82.9757	0.0000000E+000	0.0000000E+000	0.0000000E+000	-7.02428	0.0000000E+000	0.0000000E+000	0.0000000E+000	7.02428	8.11591	82.9757	2.03752e-06	-3.94483e-08	-1.84363e-11	-3.94299e-08	0.249808	1.5834e+06	740.009	1.58266e+06
1.46631	21.5772	2.32295	21.7019	-6.14464	16.6505	0.249927	4.21707e-05	46725.6	535.35	1	11	0.00468901	0.000216064	0	9.97555e-05	5.95716e-05	5.11738e-06	-16.8907	0.0236845	0.0226628	0.00688146	-6.15629	21.7252	21.5999	2.32983	0.0458142	0.00493223	0.0460789	6.14464	535349	4.97272e+06	5.00145e+06	-83.8554	0.0000000E+000	0.0000000E+000	0.0000000E+000	83.8554	0.0000000E+000	0.0000000E+000	0.0000000E+000	-83.8554	0.0000000E+000	0.0000000E+000	0.0000000E+000	-6.14464	0.0000000E+000	0.0000000E+000	0.0000000E+000	6.14464	9.28874	83.8554	5.14267e-06	1.05396e-08	2.51217e-12	1.05371e-08	0.249868	5.92657e+06	1412.63	5.92516e+06
1.00006	22.0277	2.11443	22.1289	-5.483	19.826	0.249922	-0.000698725	75266.1	687.171	1	12	0.00469004	0.000211942	0	0.000104129	0.000269422	6.52614e-06	10.5957	0.0307922	0.0302672	-0.00566197	-5.46095	22.1585	22.0579	2.10877	0.044983	0.0043179	0.0451897	5.483	687171	7.1588e+06	7.19171e+06	-84.517	0.0000000E+000	0.0000000E+000	0.0000000E+000	84.517	0.0000000E+000	0.0000000E+000	0.0000000E+000	-84.517	0.0000000E+000	0.0000000E+000	0.0000000E+000	-5.483	0.0000000E+000	0.0000000E+000	0.0000000E+000	5.483	10.4178	84.517	4.37324e-06	-1.74626e-07	-1.88252e-10	-1.74438e-07	0.249652	357682	385.591	357297
0.681362	22.4107	1.99924	22.4997	-5.09781	22.9382	0.24992	3.00982e-05	116836	922.47	1	12	0.00469083	0.000208484	0	0.000101701	0.000250345	3.53451e-06	-18.8613	0.0169534	0.0160431	0.00548069	-5.10807	22.5162	22.4268	2.00472	0.0442691	0.00394921	0.0444449	5.09781	922470	1.03405e+07	1.03816e+07	-84.9022	0.0000000E+000	0.0000000E+000	0.0000000E+000	84.9022	0.0000000E+000	0.0000000E+000	0.0000000E+000	-84.9022	0.0000000E+000	0.0000000E+000	0.0000000E+000	-5.09781	0.0000000E+000	0.0000000E+000	0.0000000E+000	5.09781	11.2096	84.9022	-2.42782e-06	7.52216e-09	7.53493e-12	7.51463e-09	0.24967	8.30349e+06	8317.58	8.29517e+06
0.464091	22.728	1.99927	22.8158	-5.02708	27.4946	0.249923	0.000374489	171532	1317.1	1	12	0.00468881	0.000205507	0	9.08961e-05	-0.000264743	2.02737e-06	45.9208	0.00986518	0.00686274	-0.00708693	-5.00785	22.822	22.7349	1.99218	0.0436607	0.00384061	0.0438293	5.02708	1.3171e+06	1.4973e+07	1.50308e+07	-84.9729	0.0000000E+000	0.0000000E+000	0.0000000E+000	84.9729	0.0000000E+000	0.0000000E+000	0.0000000E+000	-84.9729	0.0000000E+000	0.0000000E+000	0.0000000E+000	-5.02708	0.0000000E+000	0.0000000E+000	0.0000000E+000	5.02708	11.3682	84.9729	-1.08048e-05	9.35934e-08	-9.91433e-11	9.36925e-08	0.250187	667369	706.943	668076
0.316193	23.0509	2.11302	23.1476	-5.23752	34.167	0.249923	-0.000187435	238213	1985	1	12	0.00468731	0.000202497	0	7.26187e-05	0.000231267	2.3107e-06	6.22008	0.0114111	0.0113439	-0.00123636	-5.23191	23.1587	23.0623	2.11178	0.0430207	0.0039436	0.0432011	5.23752	1.985e+06	2.16544e+07	2.17452e+07	-84.7625	0.0000000E+000	0.0000000E+000	0.0000000E+000	84.7625	0.0000000E+000	0.0000000E+000	0.0000000E+000	-84.7625	0.0000000E+000	0.0000000E+000	0.0000000E+000	-5.23752	0.0000000E+000	0.0000000E+000	0.0000000E+000	5.23752	10.909	84.7625	-1.82774e-05	-4.68443e-08	-4.33477e-11	-4.6801e-08	0.249691	1.33338e+06	1233.85	1.33215e+06
0.215268	23.4443	2.3958	23.5664	-5.83487	43.9604	0.249924	-0.00131228	308596	3189.37	1	12	0.00468715	0.000198891	0	5.28294e-05	0.000364808	2.62316e-06	25.2421	0.0131889	0.0119296	-0.00562434	-5.81833	23.5777	23.4562	2.39018	0.0422134	0.00431384	0.0424333	5.83487	3.18937e+06	3.12098e+07	3.13724e+07	-84.1651	0.0000000E+000	0.0000000E+000	0.0000000E+000	84.1651	0.0000000E+000	0.0000000E+000	0.0000000E+000	-84.1651	0.0000000E+000	0.0000000E+000	0.0000000E+000	-5.83487	0.0000000E+000	0.0000000E+000	0.0000000E+000	5.83487	9.78558	84.1651	-1.97892e-05	-3.27971e-07	-4.78731e-10	-3.27492e-07	0.249559	190450	277.996	190172
0.146929	23.8856	2.92991	24.0646	-6.99323	58.2988	0.249918	-0.00263034	369708	5480.39	1	12	0.00468769	0.000194796	0	4.31313e-05	0.000269422	2.27066e-06	-33.1941	0.0116566	0.0097545	0.00638172	-7.00548	24.075	23.8953	2.93629	0.0412457	0.00505939	0.0415548	6.99323	5.48039e+06	4.46778e+07	4.50127e+07	-83.0068	0.0000000E+000	0.0000000E+000	0.0000000E+000	83.0068	0.0000000E+000	0.0000000E+000	0.0000000E+000	-83.0068	0.0000000E+000	0.0000000E+000	0.0000000E+000	-6.99323	0.0000000E+000	0.0000000E+000	0.0000000E+000	6.99323	8.15231	83.0068	-9.69819e-06	-6.57368e-07	-7.0867e-10	-6.56659e-07	0.249648	95013.7	102.429	94911.3
0.0999041	24.3698	3.69022	24.6476	-8.61067	79.3749	0.24992	-0.0029342	431702	9676.99	1	12	0.00469045	0.000190301	0	5.96127e-05	0.000479272	1.74878e-06	-59.78	0.00918956	0.00462531	0.00794069	-8.6273	24.6534	24.3744	3.69816	0.0401146	0.0060744	0.0405719	8.61067	9.67699e+06	6.39057e+07	6.46342e+07	-81.3893	0.0000000E+000	0.0000000E+000	0.0000000E+000	81.3893	0.0000000E+000	0.0000000E+000	0.0000000E+000	-81.3893	0.0000000E+000	0.0000000E+000	0.0000000E+000	-8.61067	0.0000000E+000	0.0000000E+000	0.0000000E+000	8.61067	6.60388	81.3893	1.64814e-05	-7.33314e-07	-1.40628e-09	-7.31908e-07	0.24944	85174.8	163.34	85011.4
0.0680626	24.9854	4.6665	25.4174	-10.5792	110.302	0.249914	-0.00287868	501095	16890.4	1	12	0.00468906	0.000184482	0	0.000104194	0.000250345	2.85645e-06	44.2622	0.0154836	0.0110886	-0.0108067	-10.5507	25.4263	24.9964	4.6557	0.0386744	0.00722319	0.0393431	10.5792	1.68904e+07	9.04346e+07	9.19984e+07	-79.4208	0.0000000E+000	0.0000000E+000	0.0000000E+000	79.4208	0.0000000E+000	0.0000000E+000	0.0000000E+000	-79.4208	0.0000000E+000	0.0000000E+000	0.0000000E+000	-10.5792	0.0000000E+000	0.0000000E+000	0.0000000E+000	10.5792	5.35419	79.4208	4.4581e-05	-7.19422e-07	-7.20662e-10	-7.18701e-07	0.249663	86815.3	86.965	86728.4
0.0464052	25.8964	5.88042	26.5556	-12.7935	155.653	0.249923	-0.00151753	583237	28598.9	1	12	0.0046883	0.000176547	0	0.000184612	0.000231267	2.82608e-06	-12.3537	0.0160076	0.0156369	0.00342474	-12.7932	26.5716	25.912	5.88385	0.0367219	0.00833864	0.0376568	12.7935	2.85989e+07	1.25945e+08	1.29151e+08	-77.2065	0.0000000E+000	0.0000000E+000	0.0000000E+000	77.2065	0.0000000E+000	0.0000000E+000	0.0000000E+000	-77.2065	0.0000000E+000	0.0000000E+000	0.0000000E+000	-12.7935	0.0000000E+000	0.0000000E+000	0.0000000E+000	12.7935	4.40383	77.2065	8.04183e-05	-3.79267e-07	-3.50956e-10	-3.78916e-07	0.249692	164690	152.397	164538
0.0315922	27.1089	7.7361	28.1912	-15.9272	222.259	0.24992	-0.000721195	651205	49038.4	1	12	0.00468911	0.000166333	0	0.000238941	-7.39696e-05	3.29062e-06	-3.05047	0.0197833	0.0197553	0.00105278	-15.9182	28.2105	27.1287	7.73715	0.0341104	0.0097341	0.0354721	15.9272	4.90384e+07	1.71841e+08	1.78701e+08	-74.0728	0.0000000E+000	0.0000000E+000	0.0000000E+000	74.0728	0.0000000E+000	0.0000000E+000	0.0000000E+000	-74.0728	0.0000000E+000	0.0000000E+000	0.0000000E+000	-15.9272	0.0000000E+000	0.0000000E+000	0.0000000E+000	15.9272	3.50421	74.0728	5.43293e-05	-1.80241e-07	5.33465e-11	-1.80294e-07	0.249994	346535	102.565	346638
0.0215268	28.3935	10.2611	30.1907	-19.8692	319.996	0.24992	-0.000603421	720525	83231.3	1	12	0.00469054	0.000155364	0	0.000171852	-0.000207511	2.46273e-06	43.8506	0.0158513	0.0114312	-0.0109815	-19.8423	30.1977	28.4049	10.2501	0.031151	0.0112576	0.0331228	19.8692	8.32314e+07	2.3031e+08	2.44888e+08	-70.1308	0.0000000E+000	0.0000000E+000	0.0000000E+000	70.1308	0.0000000E+000	0.0000000E+000	0.0000000E+000	-70.1308	0.0000000E+000	0.0000000E+000	0.0000000E+000	-19.8692	0.0000000E+000	0.0000000E+000	0.0000000E+000	19.8692	2.76711	70.1308	-6.70889e-05	-1.50807e-07	1.25216e-10	-1.50932e-07	0.250127	414172	343.89	414516
0.0146812	29.9159	13.2733	32.7283	-23.9262	463.299	0.249918	-0.00113758	816735	134335	1	12	0.0046897	0.000143292	0	-0.000106169	0.000174035	2.19269e-06	-6.80587	0.0153023	0.0151944	0.0018134	-23.9183	32.7429	29.9311	13.2751	0.027929	0.0123917	0.0305546	23.9262	1.34335e+08	3.02771e+08	3.31235e+08	-66.0738	0.0000000E+000	0.0000000E+000	0.0000000E+000	66.0738	0.0000000E+000	0.0000000E+000	0.0000000E+000	-66.0738	0.0000000E+000	0.0000000E+000	0.0000000E+000	-23.9262	0.0000000E+000	0.0000000E+000	0.0000000E+000	23.9262	2.25385	66.0738	-0.000278022	-2.84303e-07	-1.9798e-10	-2.84105e-07	0.249744	219692	152.987	219539
0.0100092	32.1311	17.0776	36.3875	-27.9906	673.48	0.249921	-0.00173366	931096	205090	1	12	0.00468937	0.000128873	0	-0.000580173	4.04943e-05	2.87173e-06	-19.7385	0.0222834	0.0209741	0.00752571	-27.9855	36.4096	32.1521	17.0852	0.0242672	0.012898	0.0274819	27.9906	2.0509e+08	3.85871e+08	4.36988e+08	-62.0094	0.0000000E+000	0.0000000E+000	0.0000000E+000	62.0094	0.0000000E+000	0.0000000E+000	0.0000000E+000	-62.0094	0.0000000E+000	0.0000000E+000	0.0000000E+000	-27.9906	0.0000000E+000	0.0000000E+000	0.0000000E+000	27.9906	1.88147	62.0094	-0.000474004	-4.33278e-07	-7.02032e-11	-4.33208e-07	0.249881	144158	23.3577	144135