File: txt/18827_R307_UA701_4p38_SOC00_C06.mpt
EC-Lab ASCII FILE
Nb header lines : 65

Potentio Electrochemical Impedance Spectroscopy

Run on channel : 6 (SN 65795)
User :
CE vs. WE compliance from -10 V to 10 V
Electrode connection : standard
Potential control : Ewe
Ewe ctrl range : min = -10.00 V, max = 10.00 V
Safety Limits :
	Do not start on E overload
Acquisition started on : 11/03/2025 17:11:12.862
Technique started on : 11/03/2025 17:11:14.589
Loaded Setting File :  C:\Users\Celltest\OneDrive - store-dot.com\Documents\EC-Lab\Data\@Biologic Test Protocols\anode half cell EIS SOC00.mps
Saved on :
	File : 18827_R307_UA701_4p38_SOC00_C06.mpr
	Directory : C:\Users\Celltest\OneDrive - store-dot.com\Documents\EC-Lab\Data\Anna\
	Host : 169.254.61.224
Device : VMP-3e (SN .003165)
Address : USB
EC-LAB for windows v11.62 (software)
Internet server v27.00 (firmware)
Command interpretor v12.03 (firmware)
Electrode material :
Initial state :
Electrolyte :
Comments :
Electrode surface area : 0.001 cm²
Characteristic mass : 0.001 g
Equivalent Weight : 0.000 g/eq.
Density : 0.000 g/cm3
Volume (V) : 0.001 cm³
Record Ece
Cycle Definition : Charge/Discharge alternance
Mode                Single sine
E (V)               0.0000
vs.                 Eoc
tE (h:m:s)          0:00:0.0000
record              0
dI                  0.000
unit dI             mA
dt (s)              0.000
fi                  100.000
unit fi             kHz
ff                  10.000
unit ff             mHz
Nd                  6
Points              per decade
spacing             Logarithmic
Va (mV)             5.0
pw                  0.10
Na                  2
corr                0
E range min (V)     -10.000
E range max (V)     10.000
I Range             Auto
Bandwidth           5
nc cycles           0
goto Ns'            0
nr cycles           0
inc. cycle          0

freq/Hz	Re(Z)/Ohm	-Im(Z)/Ohm	|Z|/Ohm	Phase(Z)/deg	time/s	<Ewe>/V	<I>/mA	Cs/µF	Cp/µF	cycle number	I Range	|Ewe|/V	|I|/A	Ns	(Q-Qo)/mA.h	<Ece>/V	|Ece|/V	Phase(Zce)/deg	|Zce|/Ohm	Re(Zce)/Ohm	-Im(Zce)/Ohm	Phase(Zwe-ce)/deg	|Zwe-ce|/Ohm	Re(Zwe-ce)/Ohm	-Im(Zwe-ce)/Ohm	Re(Y)/Ohm-1	Im(Y)/Ohm-1	|Y|/Ohm-1	Phase(Y)/deg	Re(C)/nF	Im(C)/nF	|C|/nF	Phase(C)/deg	Re(M)	Im(M)	|M|	Phase(M)/deg	Re(Permittivity)	Im(Permittivity)	|Permittivity|	Phase(Permittivity)/deg	Re(Resistivity)/Ohm.cm	Im(Resistivity)/Ohm.cm	|Resistivity|/Ohm.cm	Phase(Resistivity)/deg	Re(Conductivity)/mS/cm	Im(Conductivity)/mS/cm	|Conductivity|/mS/cm	Phase(Conductivity)/deg	Tan(Delta)	Loss Angle(Delta)/deg	dq/mA.h	Pwe/W	Pce/W	Pwe-ce/W	<Ewe-Ece>/V	Rwe/Ohm	Rce/Ohm	Rwe-ce/Ohm		Ewe-Ece/V
100004	1.37581	0.545128	1.47987	-21.6147	1.72655	0.255331	0.0307989	2.91948	0.396148	1	9	0.00483174	0.00326499	0	3.72833e-06	0.000420944	4.12556e-05	83.457	0.0126358	0.00143982	-0.0125535	-21.1413	1.47663	1.37725	0.532575	0.62822	0.248916	0.675737	21.6147	396.148	999.806	1075.43	-68.3853	0.0000000E+000	0.0000000E+000	0.0000000E+000	68.3853	0.0000000E+000	0.0000000E+000	0.0000000E+000	-68.3853	0.0000000E+000	0.0000000E+000	0.0000000E+000	-21.6147	0.0000000E+000	0.0000000E+000	0.0000000E+000	21.6147	2.52382	68.3853	3.72833e-06	7.86393e-06	1.29646e-08	7.85096e-06	0.25491	8290.28	13.6675	8276.61
68132	1.5279	0.604461	1.64313	-21.5845	2.23354	0.255329	0.0322516	3.86456	0.522993	1	9	0.00507084	0.00308609	0	7.9579e-06	-5.65069e-05	2.88514e-05	67.3897	0.00934883	0.00359427	-0.00863029	-21.2586	1.64332	1.5315	0.595831	0.565919	0.223886	0.608596	21.5845	522.993	1321.97	1421.67	-68.4155	0.0000000E+000	0.0000000E+000	0.0000000E+000	68.4155	0.0000000E+000	0.0000000E+000	0.0000000E+000	-68.4155	0.0000000E+000	0.0000000E+000	0.0000000E+000	-21.5845	0.0000000E+000	0.0000000E+000	0.0000000E+000	21.5845	2.52771	68.4155	4.22957e-06	8.2348e-06	-1.82244e-09	8.23662e-06	0.255386	7916.79	1.75206	7918.54
46420.4	1.68782	0.648226	1.80802	-21.0098	2.74252	0.255341	0.0318046	5.28914	0.67988	1	9	0.00505062	0.00279346	0	2.15363e-05	0.000134473	1.99891e-05	44.5929	0.00715569	0.00509566	-0.00502376	-20.8037	1.81099	1.69291	0.643202	0.516322	0.198299	0.553092	21.0098	679.88	1770.24	1896.31	-68.9901	0.0000000E+000	0.0000000E+000	0.0000000E+000	68.9901	0.0000000E+000	0.0000000E+000	0.0000000E+000	-68.9901	0.0000000E+000	0.0000000E+000	0.0000000E+000	-21.0098	0.0000000E+000	0.0000000E+000	0.0000000E+000	21.0098	2.60375	68.9901	1.35784e-05	8.12102e-06	4.27688e-09	8.11674e-06	0.255206	8028.41	4.22811	8024.19
31621.1	1.84606	0.706402	1.9766	-20.9395	3.12553	0.255338	0.0252859	7.1251	0.910034	1	9	0.00546488	0.00276479	0	1.74777e-05	0.000229964	1.12911e-05	11.8551	0.00408388	0.00399677	-0.000838984	-20.8755	1.98003	1.85006	0.705563	0.472508	0.180807	0.50592	20.9395	910.034	2378.22	2546.38	-69.0605	0.0000000E+000	0.0000000E+000	0.0000000E+000	69.0605	0.0000000E+000	0.0000000E+000	0.0000000E+000	-69.0605	0.0000000E+000	0.0000000E+000	0.0000000E+000	-20.9395	0.0000000E+000	0.0000000E+000	0.0000000E+000	20.9395	2.61333	69.0605	-4.05858e-06	6.45645e-06	5.81484e-09	6.45063e-06	0.255108	10098	9.09454	10088.9
21544.7	2.01616	0.759695	2.15454	-20.6465	3.50852	0.255342	0.0209649	9.72391	1.20895	1	9	0.00526326	0.00244286	0	1.7761e-05	0.000287258	1.03183e-05	-46.4086	0.00422383	0.00291238	0.00305922	-20.6952	2.15835	2.01908	0.762754	0.434326	0.163655	0.464136	20.6465	1208.95	3208.45	3428.66	-69.3535	0.0000000E+000	0.0000000E+000	0.0000000E+000	69.3535	0.0000000E+000	0.0000000E+000	0.0000000E+000	-69.3535	0.0000000E+000	0.0000000E+000	0.0000000E+000	-20.6465	0.0000000E+000	0.0000000E+000	0.0000000E+000	20.6465	2.65391	69.3535	2.8326e-07	5.35323e-06	6.02233e-09	5.3472e-06	0.255055	12179.5	13.7018	12165.8
14678.6	2.19096	0.821943	2.34007	-20.5636	3.89155	0.255348	0.0271856	13.1915	1.6275	1	9	0.00511658	0.00218651	0	2.32267e-05	5.80813e-05	1.30638e-05	-102.584	0.00597472	-0.00130174	0.00583119	-20.7085	2.3409	2.18966	0.827774	0.400109	0.150101	0.427338	20.5636	1627.5	4338.25	4633.48	-69.4364	0.0000000E+000	0.0000000E+000	0.0000000E+000	69.4364	0.0000000E+000	0.0000000E+000	0.0000000E+000	-69.4364	0.0000000E+000	0.0000000E+000	0.0000000E+000	-20.5636	0.0000000E+000	0.0000000E+000	0.0000000E+000	20.5636	2.66559	69.4364	5.46574e-06	6.94179e-06	1.57898e-09	6.94021e-06	0.25529	9392.76	2.13647	9390.62
10002.2	2.37621	0.895139	2.53922	-20.6419	4.15055	0.255345	0.0274091	17.776	2.20909	1	9	0.00521156	0.00205243	0	2.369e-05	0.000287258	9.21675e-06	-103.653	0.00449066	-0.00106	0.00436376	-20.7424	2.53977	2.37515	0.899503	0.36854	0.138832	0.393822	20.6419	2209.09	5864.18	6266.48	-69.3581	0.0000000E+000	0.0000000E+000	0.0000000E+000	69.3581	0.0000000E+000	0.0000000E+000	0.0000000E+000	-69.3581	0.0000000E+000	0.0000000E+000	0.0000000E+000	-20.6419	0.0000000E+000	0.0000000E+000	0.0000000E+000	20.6419	2.65457	69.3581	4.63332e-07	6.99878e-06	7.87348e-09	6.9909e-06	0.255058	9316.05	10.4804	9305.57
6810.42	2.57571	0.993983	2.76085	-21.1019	4.40956	0.255342	0.0258819	23.5108	3.04748	1	9	0.00511705	0.00185343	0	2.58551e-05	0.000229964	2.18029e-05	69.0928	0.0117635	0.00419787	-0.010989	-20.8578	2.76083	2.57991	0.982994	0.337918	0.130405	0.362208	21.1019	3047.48	7896.92	8464.54	-68.8981	0.0000000E+000	0.0000000E+000	0.0000000E+000	68.8981	0.0000000E+000	0.0000000E+000	0.0000000E+000	-68.8981	0.0000000E+000	0.0000000E+000	0.0000000E+000	-21.1019	0.0000000E+000	0.0000000E+000	0.0000000E+000	21.1019	2.5913	68.8981	2.16509e-06	6.60874e-06	5.95189e-09	6.60279e-06	0.255113	9865.69	8.88513	9856.81
4646	2.81389	1.0983	3.02063	-21.3214	4.67463	0.255301	0.00811363	31.1903	4.12349	1	9	0.00504672	0.00167075	0	2.80406e-05	0.000401846	2.38837e-06	80.434	0.00142952	0.000237563	-0.00140964	-21.2948	3.02034	2.81413	1.09689	0.308397	0.120372	0.331056	21.3214	4123.49	10564.6	11340.8	-68.6786	0.0000000E+000	0.0000000E+000	0.0000000E+000	68.6786	0.0000000E+000	0.0000000E+000	0.0000000E+000	-68.6786	0.0000000E+000	0.0000000E+000	0.0000000E+000	-21.3214	0.0000000E+000	0.0000000E+000	0.0000000E+000	21.3214	2.56204	68.6786	2.18552e-06	2.07142e-06	3.26043e-09	2.06816e-06	0.254899	31465.7	49.5272	31416.1
3163.08	3.0736	1.24741	3.31709	-22.0897	5.04767	0.25517	-0.0153911	40.3366	5.70437	1	9	0.00497084	0.00149856	0	2.52948e-05	0.000249062	3.91876e-06	68.8428	0.00261502	0.000943835	-0.00243875	-22.0445	3.31704	3.07454	1.24498	0.279341	0.11337	0.30147	22.0897	5704.37	14055.4	15168.9	-67.9103	0.0000000E+000	0.0000000E+000	0.0000000E+000	67.9103	0.0000000E+000	0.0000000E+000	0.0000000E+000	-67.9103	0.0000000E+000	0.0000000E+000	0.0000000E+000	-22.0897	0.0000000E+000	0.0000000E+000	0.0000000E+000	22.0897	2.46398	67.9103	-2.74583e-06	-3.92735e-06	-3.83333e-09	-3.92352e-06	0.254921	16579.1	16.1822	16562.9
2155.69	3.35919	1.41039	3.64326	-22.7756	5.74383	0.255276	-0.0151715	52.3473	7.84499	1	10	0.00505632	0.00138785	0	2.62783e-05	0.00017267	1.42362e-06	-30.3167	0.00102577	0.000885497	0.000517788	-22.7777	3.64428	3.36008	1.41091	0.253078	0.106257	0.274479	22.7756	7844.98	18684.8	20264.8	-67.2244	0.0000000E+000	0.0000000E+000	0.0000000E+000	67.2244	0.0000000E+000	0.0000000E+000	0.0000000E+000	-67.2244	0.0000000E+000	0.0000000E+000	0.0000000E+000	-22.7756	0.0000000E+000	0.0000000E+000	0.0000000E+000	22.7756	2.38175	67.2244	9.83472e-07	-3.87291e-06	-2.61965e-09	-3.87029e-06	0.255103	16826	11.3812	16814.7
1468.59	3.66538	1.60107	3.99981	-23.5961	6.1951	0.255278	-0.0158497	67.6876	10.8456	1	10	0.00497677	0.00124425	0	2.43498e-05	7.87179e-07	4.20111e-06	-103.805	0.00337641	-0.000805656	0.00327888	-23.6438	4.00038	3.66458	1.60435	0.229109	0.100077	0.250012	23.5961	10845.6	24829.1	27094.5	-66.4039	0.0000000E+000	0.0000000E+000	0.0000000E+000	66.4039	0.0000000E+000	0.0000000E+000	0.0000000E+000	-66.4039	0.0000000E+000	0.0000000E+000	0.0000000E+000	-23.5961	0.0000000E+000	0.0000000E+000	0.0000000E+000	23.5961	2.28933	66.4039	-1.92848e-06	-4.04608e-06	-1.24766e-11	-4.04607e-06	0.255277	16106.2	0.0496652	16106.1
1000.32	4.01961	1.85309	4.4262	-24.7503	6.64579	0.255274	-0.0156373	85.8585	15.0493	1	10	0.00492803	0.00111338	0	2.32477e-05	9.62774e-05	4.31452e-06	135.37	0.00387516	-0.00275781	-0.00272239	-24.7333	4.42255	4.01685	1.85037	0.205174	0.094588	0.225928	24.7503	15049.3	32644	35946	-65.2497	0.0000000E+000	0.0000000E+000	0.0000000E+000	65.2497	0.0000000E+000	0.0000000E+000	0.0000000E+000	-65.2497	0.0000000E+000	0.0000000E+000	0.0000000E+000	-24.7503	0.0000000E+000	0.0000000E+000	0.0000000E+000	24.7503	2.16913	65.2497	-1.10214e-06	-3.99179e-06	-1.50552e-09	-3.99028e-06	0.255177	16324.7	6.15691	16318.5
681.09	4.42088	2.15023	4.91606	-25.9374	7.09659	0.255276	-0.0150485	108.675	20.7906	1	10	0.00488865	0.000994423	0	2.06684e-05	0.000306356	1.4489e-05	-30.6453	0.0145702	0.0125353	0.00742677	-25.9513	4.93058	4.43342	2.15766	0.182925	0.0889714	0.203415	25.9374	20790.6	42745.4	47533.3	-64.0626	0.0000000E+000	0.0000000E+000	0.0000000E+000	64.0626	0.0000000E+000	0.0000000E+000	0.0000000E+000	-64.0626	0.0000000E+000	0.0000000E+000	0.0000000E+000	-25.9374	0.0000000E+000	0.0000000E+000	0.0000000E+000	25.9374	2.056	64.0626	-2.57921e-06	-3.84153e-06	-4.6102e-09	-3.83692e-06	0.25497	16963.6	20.3579	16943.2
463.961	4.90168	2.50448	5.50444	-27.0645	7.5483	0.255266	-0.0152795	136.969	28.355	1	10	0.00486198	0.000883284	0	1.94206e-05	0.000306356	5.77441e-06	-35.0209	0.00653743	0.00535378	0.00375167	-27.0739	5.51091	4.90703	2.50823	0.161778	0.0826592	0.181672	27.0645	28355	55495.5	62319.8	-62.9355	0.0000000E+000	0.0000000E+000	0.0000000E+000	62.9355	0.0000000E+000	0.0000000E+000	0.0000000E+000	-62.9355	0.0000000E+000	0.0000000E+000	0.0000000E+000	-27.0645	0.0000000E+000	0.0000000E+000	0.0000000E+000	27.0645	1.95716	62.9355	-1.24787e-06	-3.90035e-06	-4.68098e-09	-3.89567e-06	0.25496	16706.4	20.0501	16686.3
316.316	5.49488	2.95262	6.23793	-28.2509	7.99608	0.255267	-0.0146721	170.408	38.1792	1	10	0.00483714	0.00077544	0	1.70813e-05	0.000382748	1.08811e-05	104.857	0.0140322	-0.00359794	-0.0135631	-28.1567	6.22835	5.49129	2.93906	0.141214	0.0758801	0.16031	28.2509	38179.2	71052.1	80660.1	-61.749	0.0000000E+000	0.0000000E+000	0.0000000E+000	61.749	0.0000000E+000	0.0000000E+000	0.0000000E+000	-61.749	0.0000000E+000	0.0000000E+000	0.0000000E+000	-28.2509	0.0000000E+000	0.0000000E+000	0.0000000E+000	28.2509	1.86102	61.7491	-2.33932e-06	-3.74531e-06	-5.61573e-09	-3.7397e-06	0.254884	17398.1	26.0867	17372
215.345	6.2815	3.46311	7.17289	-28.8688	8.44658	0.255273	-0.0148957	213.413	49.7466	1	10	0.0048341	0.00067394	0	1.54891e-05	7.71793e-05	5.76307e-06	-52.4137	0.00855131	0.00521592	0.00677637	-28.896	7.18073	6.28672	3.46989	0.122089	0.0673097	0.139414	28.8688	49746.6	90232.1	103037	-61.1312	0.0000000E+000	0.0000000E+000	0.0000000E+000	61.1312	0.0000000E+000	0.0000000E+000	0.0000000E+000	-61.1312	0.0000000E+000	0.0000000E+000	0.0000000E+000	-28.8688	0.0000000E+000	0.0000000E+000	0.0000000E+000	28.8688	1.81383	61.1312	-1.59216e-06	-3.80248e-06	-1.14964e-09	-3.80133e-06	0.255196	17137.4	5.18131	17132.2
146.737	7.24463	3.98388	8.26776	-28.8067	8.89248	0.255268	-0.0156224	272.253	63.2134	1	10	0.00482222	0.000583255	0	1.45829e-05	-0.000132899	5.99719e-06	60.8653	0.0102823	0.00500607	-0.00898133	-28.7355	8.26783	7.24963	3.9749	0.105984	0.0582814	0.120952	28.8067	63213.4	114953	131187	-61.1933	0.0000000E+000	0.0000000E+000	0.0000000E+000	61.1933	0.0000000E+000	0.0000000E+000	0.0000000E+000	-61.1933	0.0000000E+000	0.0000000E+000	0.0000000E+000	-28.8067	0.0000000E+000	0.0000000E+000	0.0000000E+000	28.8067	1.81849	61.1933	-9.06197e-07	-3.9879e-06	2.0762e-09	-3.98998e-06	0.255401	16339.9	8.50695	16348.4
100.032	8.47436	4.37493	9.53702	-27.3053	9.3428	0.255274	-0.0145044	363.672	76.5292	1	10	0.00482775	0.000506212	0	1.25623e-05	0.000153571	3.15553e-06	13.324	0.00623362	0.00606583	-0.00143658	-27.2809	9.54175	8.48042	4.37349	0.0931711	0.0481001	0.104855	27.3053	76529.2	148239	166828	-62.6947	0.0000000E+000	0.0000000E+000	0.0000000E+000	62.6947	0.0000000E+000	0.0000000E+000	0.0000000E+000	-62.6947	0.0000000E+000	0.0000000E+000	0.0000000E+000	-27.3053	0.0000000E+000	0.0000000E+000	0.0000000E+000	27.3053	1.93703	62.6947	-2.02055e-06	-3.7026e-06	-2.22747e-09	-3.70038e-06	0.25512	17599.7	10.5879	17589.1
68.104	9.77981	4.58167	10.7998	-25.1023	9.80545	0.25527	-0.0118586	510.063	91.7988	1	10	0.00481961	0.000446267	0	1.08394e-05	-5.65069e-05	4.22488e-06	-34.7406	0.00946714	0.00777953	0.00539497	-25.1107	10.8092	9.78759	4.58706	0.0838487	0.0392816	0.092594	25.1023	91798.8	195949	216387	-64.8978	0.0000000E+000	0.0000000E+000	0.0000000E+000	64.8978	0.0000000E+000	0.0000000E+000	0.0000000E+000	-64.8978	0.0000000E+000	0.0000000E+000	0.0000000E+000	-25.1023	0.0000000E+000	0.0000000E+000	0.0000000E+000	25.1023	2.13455	64.8978	-1.72293e-06	-3.02714e-06	6.70092e-10	-3.02781e-06	0.255327	21526.2	4.76507	21531
46.4415	11.1429	4.58014	12.0474	-22.3445	10.2417	0.255258	-0.0175528	748.23	108.144	1	10	0.0048133	0.000399528	0	9.08929e-06	0.000229964	9.24457e-06	69.4181	0.0231387	0.00813433	-0.0216618	-22.2345	12.0468	11.151	4.55847	0.0767727	0.0315564	0.0830051	22.3445	108144	263099	284458	-67.6555	0.0000000E+000	0.0000000E+000	0.0000000E+000	67.6555	0.0000000E+000	0.0000000E+000	0.0000000E+000	-67.6555	0.0000000E+000	0.0000000E+000	0.0000000E+000	-22.3445	0.0000000E+000	0.0000000E+000	0.0000000E+000	22.3445	2.43287	67.6555	-1.75013e-06	-4.48048e-06	-4.0365e-09	-4.47645e-06	0.255028	14542.3	13.1013	14529.2
31.6296	12.4425	4.3724	13.1884	-19.362	10.6716	0.255251	-0.0192744	1150.82	126.493	1	10	0.00481479	0.000365079	0	6.18628e-06	0.000325454	5.59044e-06	-16.9053	0.015313	0.0146512	0.00445286	-19.3591	13.2037	12.4571	4.37685	0.071536	0.0251384	0.0758244	19.362	126493	359958	381536	-70.638	0.0000000E+000	0.0000000E+000	0.0000000E+000	70.638	0.0000000E+000	0.0000000E+000	0.0000000E+000	-70.638	0.0000000E+000	0.0000000E+000	0.0000000E+000	-19.362	0.0000000E+000	0.0000000E+000	0.0000000E+000	19.362	2.84568	70.638	-2.90302e-06	-4.91983e-06	-6.27294e-09	-4.91356e-06	0.254926	13243	16.8853	13226.1
21.5517	13.5907	4.04589	14.1802	-16.578	11.0925	0.255246	-0.0213539	1825.26	148.59	1	10	0.00481293	0.000339413	0	3.55185e-06	-5.65069e-05	7.25448e-06	-58.034	0.0213736	0.0113155	0.0181326	-16.6351	14.1962	13.602	4.06403	0.0675897	0.0201211	0.0705211	16.578	148590	499136	520783	-73.422	0.0000000E+000	0.0000000E+000	0.0000000E+000	73.422	0.0000000E+000	0.0000000E+000	0.0000000E+000	-73.422	0.0000000E+000	0.0000000E+000	0.0000000E+000	-16.578	0.0000000E+000	0.0000000E+000	0.0000000E+000	16.578	3.35914	73.422	-2.63442e-06	-5.45049e-06	1.20664e-09	-5.45169e-06	0.255303	11953.2	2.64622	11955.8
14.6852	14.624	3.69291	15.083	-14.1723	11.8022	0.255297	-0.00805631	2934.76	175.927	1	11	0.00481019	0.000318914	0	8.63874e-07	0.000325454	1.24002e-05	66.9013	0.0388827	0.0152543	-0.0357654	-14.0264	15.0891	14.6392	3.65714	0.0642817	0.0162327	0.0662996	14.1723	175927	696673	718543	-75.8277	0.0000000E+000	0.0000000E+000	0.0000000E+000	75.8277	0.0000000E+000	0.0000000E+000	0.0000000E+000	-75.8277	0.0000000E+000	0.0000000E+000	0.0000000E+000	-14.1723	0.0000000E+000	0.0000000E+000	0.0000000E+000	14.1723	3.96001	75.8277	-2.68798e-06	-2.05675e-06	-2.62196e-09	-2.05413e-06	0.254972	31689.1	40.3974	31648.7
10.0032	15.5133	3.30452	15.8614	-12.0249	12.2529	0.2553	-0.00812421	4814.74	208.981	1	11	0.00481539	0.000303592	0	-2.30641e-07	0.000382748	4.45218e-06	10.3185	0.014665	0.0144278	-0.0026268	-12.0048	15.875	15.5278	3.30189	0.0616628	0.0131349	0.0630462	12.0249	208981	981079	1.00309e+06	-77.9751	0.0000000E+000	0.0000000E+000	0.0000000E+000	77.9751	0.0000000E+000	0.0000000E+000	0.0000000E+000	-77.9751	0.0000000E+000	0.0000000E+000	0.0000000E+000	-12.0249	0.0000000E+000	0.0000000E+000	0.0000000E+000	12.0249	4.69458	77.9751	-1.09451e-06	-2.07411e-06	-3.10952e-09	-2.071e-06	0.254918	31424.7	47.112	31377.6
6.81719	16.1843	2.98076	16.4566	-10.4355	12.5925	0.255298	-0.00831186	7832.26	256.959	1	11	0.00479201	0.000291192	0	4.2302e-07	9.62774e-05	6.18674e-05	47.2105	0.212463	0.144327	-0.155917	-9.81497	16.5712	16.3287	2.82485	0.059761	0.0110065	0.0607661	10.4355	256959	1.39519e+06	1.41865e+06	-79.5645	0.0000000E+000	0.0000000E+000	0.0000000E+000	79.5645	0.0000000E+000	0.0000000E+000	0.0000000E+000	-79.5645	0.0000000E+000	0.0000000E+000	0.0000000E+000	-10.4355	0.0000000E+000	0.0000000E+000	0.0000000E+000	10.4355	5.4296	79.5645	6.53661e-07	-2.122e-06	-8.00244e-10	-2.1212e-06	0.255202	30714.9	11.5831	30703.3
4.63925	16.8839	2.63725	17.0886	-8.87781	13.0765	0.255292	-0.00794588	13008.3	309.82	1	11	0.00481109	0.000281538	0	-3.75401e-06	0.00045914	7.953e-06	24.5226	0.0282484	0.0257003	-0.0117246	-8.82574	17.1122	16.9096	2.62552	0.0578175	0.00903103	0.0585185	8.87781	309820	1.9835e+06	2.00755e+06	-81.1222	0.0000000E+000	0.0000000E+000	0.0000000E+000	81.1222	0.0000000E+000	0.0000000E+000	0.0000000E+000	-81.1222	0.0000000E+000	0.0000000E+000	0.0000000E+000	-8.87781	0.0000000E+000	0.0000000E+000	0.0000000E+000	8.87781	6.40209	81.1222	-4.17703e-06	-2.02852e-06	-3.64827e-09	-2.02487e-06	0.254833	32128.8	57.7834	32071
3.1604	17.4839	2.30568	17.6353	-7.51248	13.7694	0.255287	-0.00802087	21841.4	373.345	1	11	0.00481324	0.000272932	0	-6.65331e-06	1.98852e-05	8.03942e-06	-21.2795	0.0294558	0.0274475	0.01069	-7.53521	17.6639	17.5114	2.31637	0.0562177	0.00741365	0.0567044	7.51248	373345	2.83107e+06	2.85559e+06	-82.4875	0.0000000E+000	0.0000000E+000	0.0000000E+000	82.4875	0.0000000E+000	0.0000000E+000	0.0000000E+000	-82.4875	0.0000000E+000	0.0000000E+000	0.0000000E+000	-7.51248	0.0000000E+000	0.0000000E+000	0.0000000E+000	7.51248	7.58299	82.4875	-2.8993e-06	-2.04762e-06	-1.59497e-10	-2.04746e-06	0.255267	31827.8	2.47918	31825.4
2.15577	17.9614	2.04975	18.078	-6.51042	14.773	0.255291	-0.00752759	36017.8	463.041	1	11	0.0048153	0.000266362	0	-5.31213e-06	0.000287258	1.93138e-06	33.3818	0.00725096	0.00605472	-0.00398959	-6.49568	18.0836	17.9675	2.04576	0.0549592	0.00627193	0.0553159	6.51042	463041	4.0575e+06	4.08383e+06	-83.4896	0.0000000E+000	0.0000000E+000	0.0000000E+000	83.4896	0.0000000E+000	0.0000000E+000	0.0000000E+000	-83.4896	0.0000000E+000	0.0000000E+000	0.0000000E+000	-6.51042	0.0000000E+000	0.0000000E+000	0.0000000E+000	6.51042	8.76272	83.4896	1.34117e-06	-1.92173e-06	-2.16236e-09	-1.91956e-06	0.255004	33914.1	38.1607	33875.9
1.46631	18.3546	1.80678	18.4433	-5.62191	16.2345	0.255286	-0.00722599	60074.5	576.526	1	11	0.00481699	0.000261178	0	-2.15695e-06	5.80813e-05	2.24239e-06	-49.423	0.00858566	0.00558472	0.00652109	-5.64037	18.4495	18.3602	1.8133	0.0539593	0.00531159	0.0542201	5.62191	576526	5.8568e+06	5.88511e+06	-84.3781	0.0000000E+000	0.0000000E+000	0.0000000E+000	84.3781	0.0000000E+000	0.0000000E+000	0.0000000E+000	-84.3781	0.0000000E+000	0.0000000E+000	0.0000000E+000	-5.62191	0.0000000E+000	0.0000000E+000	0.0000000E+000	5.62191	10.1588	84.3781	3.15518e-06	-1.84469e-06	-4.19695e-10	-1.84427e-06	0.255227	35328.8	8.03783	35320.7
1.00006	18.6715	1.64032	18.7435	-5.02062	19.4089	0.255276	-0.00656165	97020.6	743.056	1	12	0.00481389	0.00025683	0	-4.14252e-06	0.00017267	3.04419e-06	23.2088	0.0118529	0.0108937	-0.00467104	-5.00349	18.7539	18.6824	1.63565	0.0531472	0.00466905	0.0533519	5.02062	743056	8.45811e+06	8.49068e+06	-84.9794	0.0000000E+000	0.0000000E+000	0.0000000E+000	84.9794	0.0000000E+000	0.0000000E+000	0.0000000E+000	-84.9794	0.0000000E+000	0.0000000E+000	0.0000000E+000	-5.02062	0.0000000E+000	0.0000000E+000	0.0000000E+000	5.02062	11.3829	84.9794	-1.98557e-06	-1.67503e-06	-1.133e-09	-1.6739e-06	0.255103	38904.3	26.315	38877.9
0.681362	18.9554	1.54448	19.0182	-4.65815	22.521	0.255278	-0.0052008	151238	997.438	1	12	0.00481538	0.000253199	0	-1.42029e-05	0.000153571	2.9625e-06	-34.5915	0.0117003	0.00963194	0.00664252	-4.67573	19.0283	18.965	1.55112	0.0524076	0.00427016	0.0525813	4.65815	997438	1.22415e+07	1.22821e+07	-85.3418	0.0000000E+000	0.0000000E+000	0.0000000E+000	85.3418	0.0000000E+000	0.0000000E+000	0.0000000E+000	-85.3418	0.0000000E+000	0.0000000E+000	0.0000000E+000	-4.65815	0.0000000E+000	0.0000000E+000	0.0000000E+000	4.65815	12.273	85.3418	-1.00604e-05	-1.32765e-06	-7.98694e-10	-1.32685e-06	0.255124	49084.4	29.5284	49054.9
0.464091	19.1758	1.55054	19.2384	-4.62282	27.0766	0.255283	-0.00439926	221175	1436.69	1	12	0.00481466	0.000250263	0	-3.52372e-05	0.000191768	2.02921e-06	4.73843	0.00810829	0.00808058	-0.000669802	-4.6189	19.2464	19.1839	1.54987	0.0518104	0.00418934	0.0519795	4.62282	1.43669e+06	1.77678e+07	1.78258e+07	-85.3772	0.0000000E+000	0.0000000E+000	0.0000000E+000	85.3772	0.0000000E+000	0.0000000E+000	0.0000000E+000	-85.3772	0.0000000E+000	0.0000000E+000	0.0000000E+000	-4.62282	0.0000000E+000	0.0000000E+000	0.0000000E+000	4.62282	12.3672	85.3772	-2.10343e-05	-1.12306e-06	-8.43636e-10	-1.12221e-06	0.255092	58028.6	43.5908	57985.1
0.316193	19.4024	1.66146	19.4734	-4.89441	33.751	0.255297	-0.00405405	302954	2205.34	1	12	0.00480649	0.000246823	0	-6.32437e-05	-1.83109e-05	2.06102e-06	19.693	0.00835018	0.0078618	-0.00281384	-4.88419	19.481	19.4102	1.65865	0.0511649	0.00438135	0.0513521	4.89441	2.20534e+06	2.57537e+07	2.5848e+07	-85.1056	0.0000000E+000	0.0000000E+000	0.0000000E+000	85.1056	0.0000000E+000	0.0000000E+000	0.0000000E+000	-85.1056	0.0000000E+000	0.0000000E+000	0.0000000E+000	-4.89441	0.0000000E+000	0.0000000E+000	0.0000000E+000	4.89441	11.6779	85.1056	-2.80065e-05	-1.03499e-06	7.42331e-11	-1.03506e-06	0.255316	62973.5	4.51669	62978
0.215268	19.6886	1.91476	19.7815	-5.55467	43.5444	0.255288	-0.00529459	386124	3617.74	1	12	0.00481296	0.000243306	0	-9.08739e-05	7.87179e-07	3.40732e-06	81.8746	0.0140043	0.00197936	-0.0138637	-5.51415	19.7821	19.6906	1.90089	0.050315	0.00489324	0.0505523	5.55467	3.61774e+06	3.71996e+07	3.73751e+07	-84.4453	0.0000000E+000	0.0000000E+000	0.0000000E+000	84.4453	0.0000000E+000	0.0000000E+000	0.0000000E+000	-84.4453	0.0000000E+000	0.0000000E+000	0.0000000E+000	-5.55467	0.0000000E+000	0.0000000E+000	0.0000000E+000	5.55467	10.2825	84.4453	-2.76302e-05	-1.35165e-06	-4.16779e-12	-1.35164e-06	0.255287	48216.8	0.148676	48216.6
0.146929	20.0008	2.37835	20.1417	-6.78135	57.8828	0.255288	-0.00570755	455446	6350.31	1	12	0.00482003	0.000239305	0	-0.000100665	0.00036365	1.65728e-06	-45.6555	0.00692537	0.00484063	0.00495268	-6.79371	20.1471	20.0057	2.3833	0.0493008	0.00586249	0.0496481	6.78135	6.35031e+06	5.34032e+07	5.37794e+07	-83.2187	0.0000000E+000	0.0000000E+000	0.0000000E+000	83.2187	0.0000000E+000	0.0000000E+000	0.0000000E+000	-83.2187	0.0000000E+000	0.0000000E+000	0.0000000E+000	-6.78135	0.0000000E+000	0.0000000E+000	0.0000000E+000	6.78135	8.40954	83.2187	-9.79132e-06	-1.45707e-06	-2.07555e-09	-1.455e-06	0.254925	44728.1	63.7138	44664.4
0.0999041	20.3377	2.97853	20.5547	-8.33194	78.9591	0.255288	-0.0051074	534853	11231	1	12	0.00481579	0.000234292	0	-7.9088e-05	0.000229964	1.03146e-06	52.1959	0.00440245	0.00269854	-0.00347843	-8.32126	20.5568	20.3404	2.97505	0.0481373	0.00704988	0.0486508	8.33194	1.1231e+07	7.66864e+07	7.75044e+07	-81.6681	0.0000000E+000	0.0000000E+000	0.0000000E+000	81.6681	0.0000000E+000	0.0000000E+000	0.0000000E+000	-81.6681	0.0000000E+000	0.0000000E+000	0.0000000E+000	-8.33194	0.0000000E+000	0.0000000E+000	0.0000000E+000	8.33194	6.8281	81.6681	2.15773e-05	-1.30386e-06	-1.17452e-09	-1.30268e-06	0.255058	49984	45.0256	49939
0.0680626	20.8084	3.73554	21.1411	-10.1774	109.886	0.25529	-0.00423121	625977	19543.9	1	12	0.0048219	0.000228082	0	-2.42385e-05	0.000344552	1.59589e-06	32.6678	0.00699701	0.00589019	-0.00377676	-10.1645	21.1462	20.8143	3.73176	0.0465571	0.00835795	0.0473013	10.1774	1.95439e+07	1.08867e+08	1.10608e+08	-79.8226	0.0000000E+000	0.0000000E+000	0.0000000E+000	79.8226	0.0000000E+000	0.0000000E+000	0.0000000E+000	-79.8226	0.0000000E+000	0.0000000E+000	0.0000000E+000	-10.1774	0.0000000E+000	0.0000000E+000	0.0000000E+000	10.1774	5.57039	79.8226	5.48494e-05	-1.08019e-06	-1.45787e-09	-1.07873e-06	0.254946	60335	81.431	60253.6
0.0464052	21.5081	4.68232	22.0118	-12.2817	155.238	0.255289	-0.0017908	732474	33143.8	1	12	0.00482412	0.00021916	0	5.56345e-05	3.89833e-05	2.73229e-06	10.2509	0.0124671	0.0122681	-0.00221863	-12.2693	22.0234	21.5203	4.6801	0.0443903	0.00966381	0.0454301	12.2817	3.31438e+07	1.52245e+08	1.55811e+08	-77.7183	0.0000000E+000	0.0000000E+000	0.0000000E+000	77.7183	0.0000000E+000	0.0000000E+000	0.0000000E+000	-77.7183	0.0000000E+000	0.0000000E+000	0.0000000E+000	-12.2817	0.0000000E+000	0.0000000E+000	0.0000000E+000	12.2817	4.59346	77.7183	7.9873e-05	-4.5717e-07	-6.9811e-11	-4.571e-07	0.25525	142556	21.7687	142534
0.0315922	22.3522	6.14568	23.1817	-15.3734	221.842	0.25528	-0.000887312	819729	57612.9	1	12	0.00481601	0.000207751	0	8.01936e-05	1.98852e-05	1.71695e-06	6.06433	0.00826448	0.00821823	-0.000873101	-15.366	23.1894	22.3604	6.14481	0.0415939	0.0114361	0.0431375	15.3734	5.76129e+07	2.09542e+08	2.17318e+08	-74.6266	0.0000000E+000	0.0000000E+000	0.0000000E+000	74.6266	0.0000000E+000	0.0000000E+000	0.0000000E+000	-74.6266	0.0000000E+000	0.0000000E+000	0.0000000E+000	-15.3734	0.0000000E+000	0.0000000E+000	0.0000000E+000	15.3734	3.63706	74.6266	2.45591e-05	-2.26513e-07	-1.76444e-11	-2.26495e-07	0.25526	287700	22.4106	287678
0.0215268	23.2106	8.08631	24.5788	-19.2078	319.581	0.255278	-0.000586617	914304	98962.1	1	12	0.00481766	0.000196008	0	-5.96346e-05	9.62774e-05	2.37738e-06	12.7474	0.012129	0.01183	-0.0026763	-19.1928	24.5891	23.2224	8.08363	0.0384205	0.0133853	0.0406854	19.2078	9.89621e+07	2.84056e+08	3.00801e+08	-70.7922	0.0000000E+000	0.0000000E+000	0.0000000E+000	70.7922	0.0000000E+000	0.0000000E+000	0.0000000E+000	-70.7922	0.0000000E+000	0.0000000E+000	0.0000000E+000	-19.2078	0.0000000E+000	0.0000000E+000	0.0000000E+000	19.2078	2.87035	70.7922	-0.000139828	-1.4975e-07	-5.64779e-11	-1.49694e-07	0.255181	435169	164.123	435005
0.0146812	24.3102	10.4603	26.4651	-23.2814	462.882	0.255279	-0.00112994	1.03637e+06	161903	1	12	0.00481671	0.000182002	0	-0.000443955	9.62774e-05	2.3282e-06	2.33251	0.0127921	0.0127815	-0.000520623	-23.2695	26.4766	24.3229	10.4598	0.0347089	0.0149347	0.0377856	23.2814	1.61903e+08	3.7627e+08	4.09624e+08	-66.7186	0.0000000E+000	0.0000000E+000	0.0000000E+000	66.7186	0.0000000E+000	0.0000000E+000	0.0000000E+000	-66.7186	0.0000000E+000	0.0000000E+000	0.0000000E+000	-23.2814	0.0000000E+000	0.0000000E+000	0.0000000E+000	23.2814	2.32405	66.7186	-0.00038432	-2.88452e-07	-1.08788e-10	-2.88343e-07	0.255183	225922	85.2054	225837
0.0100092	26.0736	13.6893	29.4487	-27.7006	673.064	0.255285	-0.00177649	1.16156e+06	250997	1	12	0.00481874	0.000163631	0	-0.000998949	3.89833e-05	1.93156e-06	-92.5575	0.0118043	-0.000526729	0.0117926	-27.7214	29.4538	26.0731	13.7011	0.0300654	0.0157851	0.0339573	27.7006	2.50997e+08	4.78068e+08	5.39952e+08	-62.2994	0.0000000E+000	0.0000000E+000	0.0000000E+000	62.2994	0.0000000E+000	0.0000000E+000	0.0000000E+000	-62.2994	0.0000000E+000	0.0000000E+000	0.0000000E+000	-27.7006	0.0000000E+000	0.0000000E+000	0.0000000E+000	27.7006	1.90467	62.2994	-0.000554994	-4.53512e-07	-6.92535e-11	-4.53443e-07	0.255246	143702	21.9439	143680