File: txt/18821_R307_UA701_3p84_SOC00_C08.mpt
EC-Lab ASCII FILE
Nb header lines : 65

Potentio Electrochemical Impedance Spectroscopy

Run on channel : 8 (SN 65398)
User :
CE vs. WE compliance from -10 V to 10 V
Electrode connection : standard
Potential control : Ewe
Ewe ctrl range : min = -10.00 V, max = 10.00 V
Safety Limits :
	Do not start on E overload
Acquisition started on : 11/03/2025 16:09:26.191
Technique started on : 11/03/2025 16:09:27.970
Loaded Setting File :  C:\Users\Celltest\OneDrive - store-dot.com\Documents\EC-Lab\Data\@Biologic Test Protocols\anode half cell EIS SOC00.mps
Saved on :
	File : 18821_R307_UA701_3p84_SOC00_C08.mpr
	Directory : C:\Users\Celltest\OneDrive - store-dot.com\Documents\EC-Lab\Data\Anna\
	Host : 169.254.61.224
Device : VMP-3e (SN .003165)
Address : USB
EC-LAB for windows v11.62 (software)
Internet server v27.00 (firmware)
Command interpretor v12.03 (firmware)
Electrode material :
Initial state :
Electrolyte :
Comments :
Electrode surface area : 0.001 cm²
Characteristic mass : 0.001 g
Equivalent Weight : 0.000 g/eq.
Density : 0.000 g/cm3
Volume (V) : 0.001 cm³
Record Ece
Cycle Definition : Charge/Discharge alternance
Mode                Single sine
E (V)               0.0000
vs.                 Eoc
tE (h:m:s)          0:00:0.0000
record              0
dI                  0.000
unit dI             mA
dt (s)              0.000
fi                  100.000
unit fi             kHz
ff                  10.000
unit ff             mHz
Nd                  6
Points              per decade
spacing             Logarithmic
Va (mV)             5.0
pw                  0.10
Na                  2
corr                0
E range min (V)     -10.000
E range max (V)     10.000
I Range             Auto
Bandwidth           5
nc cycles           0
goto Ns'            0
nr cycles           0
inc. cycle          0

freq/Hz	Re(Z)/Ohm	-Im(Z)/Ohm	|Z|/Ohm	Phase(Z)/deg	time/s	<Ewe>/V	<I>/mA	Cs/µF	Cp/µF	cycle number	I Range	|Ewe|/V	|I|/A	Ns	(Q-Qo)/mA.h	<Ece>/V	|Ece|/V	Phase(Zce)/deg	|Zce|/Ohm	Re(Zce)/Ohm	-Im(Zce)/Ohm	Phase(Zwe-ce)/deg	|Zwe-ce|/Ohm	Re(Zwe-ce)/Ohm	-Im(Zwe-ce)/Ohm	Re(Y)/Ohm-1	Im(Y)/Ohm-1	|Y|/Ohm-1	Phase(Y)/deg	Re(C)/nF	Im(C)/nF	|C|/nF	Phase(C)/deg	Re(M)	Im(M)	|M|	Phase(M)/deg	Re(Permittivity)	Im(Permittivity)	|Permittivity|	Phase(Permittivity)/deg	Re(Resistivity)/Ohm.cm	Im(Resistivity)/Ohm.cm	|Resistivity|/Ohm.cm	Phase(Resistivity)/deg	Re(Conductivity)/mS/cm	Im(Conductivity)/mS/cm	|Conductivity|/mS/cm	Phase(Conductivity)/deg	Tan(Delta)	Loss Angle(Delta)/deg	dq/mA.h	Pwe/W	Pce/W	Pwe-ce/W	<Ewe-Ece>/V	Rwe/Ohm	Rce/Ohm	Rwe-ce/Ohm		Ewe-Ece/V
100004	1.54397	0.312464	1.57527	-11.4408	1.77852	0.247448	0.0256719	5.09336	0.200397	1	9	0.00341913	0.0021705	0	-1.62939e-06	-1.2779e-05	2.80875e-05	69.0453	0.0129406	0.00462794	-0.0120847	-10.9772	1.57746	1.5486	0.300379	0.622197	0.125918	0.63481	11.4408	200.397	990.22	1010.29	-78.5592	0.0000000E+000	0.0000000E+000	0.0000000E+000	78.5592	0.0000000E+000	0.0000000E+000	0.0000000E+000	-78.5592	0.0000000E+000	0.0000000E+000	0.0000000E+000	-11.4408	0.0000000E+000	0.0000000E+000	0.0000000E+000	11.4408	4.94129	78.5592	-1.62939e-06	6.35248e-06	-3.28061e-10	6.35281e-06	0.247461	9638.87	0.497779	9639.37
68132	1.65171	0.430231	1.70683	-14.5997	2.28554	0.24745	0.0221378	5.42959	0.344978	1	9	0.00603783	0.00353746	0	-1.79528e-06	0.00048351	3.07048e-05	56.0512	0.0086799	0.0048473	-0.0072003	-14.3253	1.70972	1.65656	0.423031	0.566965	0.14768	0.585883	14.5997	344.978	1324.42	1368.61	-75.4003	0.0000000E+000	0.0000000E+000	0.0000000E+000	75.4003	0.0000000E+000	0.0000000E+000	0.0000000E+000	-75.4003	0.0000000E+000	0.0000000E+000	0.0000000E+000	-14.5997	0.0000000E+000	0.0000000E+000	0.0000000E+000	14.5997	3.83913	75.4003	-1.65895e-07	5.47799e-06	1.07038e-08	5.46729e-06	0.246966	11177.7	21.841	11155.9
46420.4	1.74274	0.596065	1.84186	-18.882	2.91655	0.24745	-0.00423864	5.75199	0.602409	1	9	0.00519505	0.00282054	0	2.70623e-05	0.000216278	2.02381e-05	73.605	0.00717526	0.00202527	-0.00688351	-18.659	1.84156	1.74477	0.589181	0.513712	0.175703	0.542929	18.882	602.409	1761.29	1861.46	-71.118	0.0000000E+000	0.0000000E+000	0.0000000E+000	71.118	0.0000000E+000	0.0000000E+000	0.0000000E+000	-71.118	0.0000000E+000	0.0000000E+000	0.0000000E+000	-18.882	0.0000000E+000	0.0000000E+000	0.0000000E+000	18.882	2.92375	71.118	2.88576e-05	-1.04885e-06	-9.16723e-10	-1.04794e-06	0.247234	58379.7	51.0253	58328.7
31621.1	1.88381	0.644572	1.99103	-18.8891	3.29952	0.247448	-0.00810767	7.80856	0.818384	1	9	0.00543027	0.00272736	0	2.12537e-05	0.000139925	1.20777e-05	7.75827	0.00442832	0.00438779	-0.000597797	-18.8321	1.99499	1.8882	0.643974	0.475204	0.162598	0.502252	18.8891	818.384	2391.79	2527.92	-71.1109	0.0000000E+000	0.0000000E+000	0.0000000E+000	71.1109	0.0000000E+000	0.0000000E+000	0.0000000E+000	-71.1109	0.0000000E+000	0.0000000E+000	0.0000000E+000	-18.8891	0.0000000E+000	0.0000000E+000	0.0000000E+000	18.8891	2.92257	71.1109	-5.80858e-06	-2.00623e-06	-1.13447e-09	-2.00509e-06	0.247308	30520.3	17.2584	30503
21544.7	2.03941	0.692424	2.15375	-18.7535	3.68255	0.247456	-0.00479668	10.6686	1.10271	1	9	0.00529248	0.00245733	0	2.25112e-05	0.000349894	6.40259e-06	-3.92949	0.00260551	0.00259938	0.000178552	-18.7358	2.15627	2.04201	0.692603	0.439657	0.149273	0.464307	18.7535	1102.71	3247.84	3429.93	-71.2465	0.0000000E+000	0.0000000E+000	0.0000000E+000	71.2465	0.0000000E+000	0.0000000E+000	0.0000000E+000	-71.2465	0.0000000E+000	0.0000000E+000	0.0000000E+000	-18.7535	0.0000000E+000	0.0000000E+000	0.0000000E+000	18.7535	2.94531	71.2465	1.25752e-06	-1.18697e-06	-1.67833e-09	-1.18529e-06	0.247106	51589	72.9451	51516
14678.6	2.19345	0.744397	2.31632	-18.7458	4.06757	0.24745	-0.000555634	14.5657	1.50433	1	9	0.00502861	0.00217095	0	1.98811e-05	0.000407158	8.7384e-06	-24.5465	0.00402516	0.00366138	0.00167218	-18.7559	2.32033	2.19711	0.746069	0.408818	0.138742	0.431719	18.7458	1504.33	4432.67	4680.98	-71.2542	0.0000000E+000	0.0000000E+000	0.0000000E+000	71.2542	0.0000000E+000	0.0000000E+000	0.0000000E+000	-71.2542	0.0000000E+000	0.0000000E+000	0.0000000E+000	-18.7458	0.0000000E+000	0.0000000E+000	0.0000000E+000	18.7458	2.94661	71.2542	-2.63014e-06	-1.37491e-07	-2.26231e-10	-1.37265e-07	0.247042	445347	732.782	444614
10002.2	2.36754	0.804267	2.50042	-18.7629	4.32653	0.247445	-0.00859133	19.7844	2.0469	1	9	0.00499292	0.00199683	0	2.10119e-05	6.3091e-06	8.32275e-06	-103.161	0.00416798	-0.000949017	0.0040585	-18.8579	2.50083	2.3666	0.808325	0.378679	0.128639	0.399932	18.7629	2046.9	6025.52	6363.71	-71.2371	0.0000000E+000	0.0000000E+000	0.0000000E+000	71.2371	0.0000000E+000	0.0000000E+000	0.0000000E+000	-71.2371	0.0000000E+000	0.0000000E+000	0.0000000E+000	-18.7629	0.0000000E+000	0.0000000E+000	0.0000000E+000	18.7629	2.94373	71.2371	1.13083e-06	-2.12588e-06	-5.42035e-11	-2.12582e-06	0.247439	28801.7	0.734357	28801
6810.42	2.54579	0.902414	2.701	-19.518	4.58552	0.247446	-0.0144693	25.8965	2.8907	1	9	0.00491063	0.00181808	0	1.854e-05	8.26613e-05	4.08288e-05	-24.5015	0.0224572	0.0204349	0.00931336	-19.5591	2.72337	2.56623	0.911727	0.348958	0.123696	0.370233	19.518	2890.7	8154.92	8652.1	-70.482	0.0000000E+000	0.0000000E+000	0.0000000E+000	70.482	0.0000000E+000	0.0000000E+000	0.0000000E+000	-70.482	0.0000000E+000	0.0000000E+000	0.0000000E+000	-19.518	0.0000000E+000	0.0000000E+000	0.0000000E+000	19.518	2.82109	70.482	-2.47189e-06	-3.58037e-06	-1.19605e-09	-3.57917e-06	0.247364	17101.5	5.71288	17095.8
4646	2.73536	0.999151	2.91213	-20.0658	4.84961	0.247399	-0.0353397	34.2854	4.03599	1	9	0.00480703	0.00165069	0	1.47101e-05	-0.000108219	3.56499e-06	-93.9906	0.00215969	-0.000150299	0.00215446	-20.1067	2.91273	2.73521	1.00131	0.322547	0.117817	0.343391	20.0658	4035.99	11049.3	11763.3	-69.9342	0.0000000E+000	0.0000000E+000	0.0000000E+000	69.9342	0.0000000E+000	0.0000000E+000	0.0000000E+000	-69.9342	0.0000000E+000	0.0000000E+000	0.0000000E+000	-20.0658	0.0000000E+000	0.0000000E+000	0.0000000E+000	20.0658	2.73769	69.9342	-3.82992e-06	-8.74302e-06	3.82444e-09	-8.74685e-06	0.247507	7000.59	3.06225	7003.65
3163.08	2.97805	1.14023	3.18887	-20.9508	5.22367	0.24728	-0.0434498	44.1282	5.64195	1	9	0.00474883	0.00148919	0	1.0389e-05	0.000235366	4.37563e-06	-72.3619	0.00293827	0.000890305	0.00280014	-20.9921	3.19071	2.97894	1.14303	0.292858	0.112129	0.31359	20.9508	5641.95	14735.6	15778.8	-69.0492	0.0000000E+000	0.0000000E+000	0.0000000E+000	69.0492	0.0000000E+000	0.0000000E+000	0.0000000E+000	-69.0492	0.0000000E+000	0.0000000E+000	0.0000000E+000	-20.9508	0.0000000E+000	0.0000000E+000	0.0000000E+000	20.9508	2.61179	69.0492	-4.32115e-06	-1.07443e-05	-1.02266e-08	-1.07341e-05	0.247045	5691.16	5.41695	5685.75
2155.69	3.21553	1.29206	3.46541	-21.8913	5.67477	0.247397	0.020166	57.1412	7.94346	1	9	0.00469593	0.00135509	0	1.37937e-05	2.53972e-05	5.14114e-06	-81.4989	0.00379395	0.000560854	0.00375227	-21.9453	3.46733	3.21609	1.29582	0.267759	0.107591	0.288566	21.8913	7943.46	19768.7	21304.9	-68.1087	0.0000000E+000	0.0000000E+000	0.0000000E+000	68.1087	0.0000000E+000	0.0000000E+000	0.0000000E+000	-68.1087	0.0000000E+000	0.0000000E+000	0.0000000E+000	-21.8913	0.0000000E+000	0.0000000E+000	0.0000000E+000	21.8913	2.48867	68.1087	3.40467e-06	4.98902e-06	5.12159e-10	4.9885e-06	0.247372	12268.1	1.25941	12266.8
1468.59	3.49407	1.48739	3.79748	-23.0589	6.37208	0.247389	-0.0168437	72.8611	11.1777	1	10	0.00477216	0.00125667	0	1.36975e-05	0.000159014	6.55611e-06	-100.183	0.00521707	-0.000922355	0.00513488	-23.1356	3.79864	3.49315	1.49252	0.242293	0.103141	0.263333	23.0589	11177.7	26257.9	28538.1	-66.9411	0.0000000E+000	0.0000000E+000	0.0000000E+000	66.9411	0.0000000E+000	0.0000000E+000	0.0000000E+000	-66.9411	0.0000000E+000	0.0000000E+000	0.0000000E+000	-23.0589	0.0000000E+000	0.0000000E+000	0.0000000E+000	23.0589	2.34913	66.9411	-9.61102e-08	-4.16696e-06	-2.67838e-09	-4.16428e-06	0.24723	14687.3	9.44052	14677.9
1000.32	3.80867	1.73337	4.18456	-24.4708	6.82283	0.247396	-0.0167731	91.7889	15.7497	1	10	0.00472222	0.00112849	0	1.25315e-05	0.000330806	3.67571e-06	-30.2314	0.00325721	0.00281423	0.00163998	-24.4753	4.1878	3.81149	1.73501	0.217507	0.0989898	0.238974	24.4708	15749.7	34606.3	38021.7	-65.5292	0.0000000E+000	0.0000000E+000	0.0000000E+000	65.5292	0.0000000E+000	0.0000000E+000	0.0000000E+000	-65.5292	0.0000000E+000	0.0000000E+000	0.0000000E+000	-24.4708	0.0000000E+000	0.0000000E+000	0.0000000E+000	24.4708	2.19727	65.5292	-1.16608e-06	-4.14958e-06	-5.54863e-09	-4.14404e-06	0.247065	14749.6	19.7225	14729.9
681.09	4.16925	2.05009	4.64602	-26.1841	7.2716	0.247404	-0.0168475	113.984	22.1935	1	10	0.00468396	0.00100816	0	1.00234e-05	2.53972e-05	1.19868e-05	-16.1762	0.0118897	0.011419	0.00331239	-26.1587	4.65773	4.18067	2.0534	0.19315	0.0949751	0.215238	26.1841	22193.5	45134.8	50296.1	-63.8159	0.0000000E+000	0.0000000E+000	0.0000000E+000	63.8159	0.0000000E+000	0.0000000E+000	0.0000000E+000	-63.8159	0.0000000E+000	0.0000000E+000	0.0000000E+000	-26.1841	0.0000000E+000	0.0000000E+000	0.0000000E+000	26.1841	2.03369	63.8159	-2.50808e-06	-4.16813e-06	-4.27878e-10	-4.1677e-06	0.247379	14685	1.50748	14683.4
463.961	4.62345	2.44854	5.23179	-27.9053	7.72333	0.247394	-0.0161369	140.098	30.6863	1	10	0.00465166	0.000889113	0	7.58691e-06	-0.000108219	5.71829e-06	89.941	0.00643146	6.62698e-06	-0.00643145	-27.843	5.22879	4.62346	2.44211	0.168914	0.0894552	0.191139	27.9053	30686.3	57943.4	65567.4	-62.0947	0.0000000E+000	0.0000000E+000	0.0000000E+000	62.0947	0.0000000E+000	0.0000000E+000	0.0000000E+000	-62.0947	0.0000000E+000	0.0000000E+000	0.0000000E+000	-27.9053	0.0000000E+000	0.0000000E+000	0.0000000E+000	27.9053	1.88825	62.0947	-2.43647e-06	-3.99218e-06	1.74633e-09	-3.99393e-06	0.247502	15330.9	6.7063	15337.6
316.316	5.24643	2.93981	6.01394	-29.2638	8.17107	0.247381	-0.0167545	171.151	40.8978	1	10	0.00465671	0.00077432	0	6.20669e-06	0.000178102	1.11042e-06	37.5858	0.00143406	0.00113641	-0.000874705	-29.2513	6.0145	5.24756	2.93893	0.145059	0.0812832	0.16628	29.2638	40897.8	72986.9	83664.3	-60.7362	0.0000000E+000	0.0000000E+000	0.0000000E+000	60.7362	0.0000000E+000	0.0000000E+000	0.0000000E+000	-60.7362	0.0000000E+000	0.0000000E+000	0.0000000E+000	-29.2638	0.0000000E+000	0.0000000E+000	0.0000000E+000	29.2638	1.78462	60.7362	-1.38022e-06	-4.14474e-06	-2.984e-09	-4.14175e-06	0.247203	14765.1	10.6301	14754.4
215.345	6.0152	3.47778	6.94821	-30.035	8.62053	0.247396	-0.0174278	212.512	53.2406	1	10	0.00463544	0.000667142	0	4.63787e-06	0.000235366	1.41124e-05	-83.1687	0.0211535	0.00251613	0.0210033	-30.1743	6.96092	6.01771	3.49879	0.124596	0.0720372	0.143922	30.035	53240.6	92085.3	106369	-59.965	0.0000000E+000	0.0000000E+000	0.0000000E+000	59.965	0.0000000E+000	0.0000000E+000	0.0000000E+000	-59.965	0.0000000E+000	0.0000000E+000	0.0000000E+000	-30.035	0.0000000E+000	0.0000000E+000	0.0000000E+000	30.035	1.72961	59.965	-1.56882e-06	-4.31157e-06	-4.1019e-09	-4.30747e-06	0.247161	14195.5	13.5052	14182
146.737	7.0222	3.99133	8.07725	-29.6133	9.06648	0.247398	-0.0184359	271.745	66.3544	1	10	0.00462829	0.000573003	0	3.13644e-06	6.3091e-06	1.12927e-05	11.6175	0.019708	0.0193043	-0.00396875	-29.5214	8.09208	7.0415	3.98736	0.107633	0.0611773	0.123805	29.6133	66354.4	116742	134281	-60.3867	0.0000000E+000	0.0000000E+000	0.0000000E+000	60.3867	0.0000000E+000	0.0000000E+000	0.0000000E+000	-60.3867	0.0000000E+000	0.0000000E+000	0.0000000E+000	-29.6133	0.0000000E+000	0.0000000E+000	0.0000000E+000	29.6133	1.75936	60.3867	-1.50143e-06	-4.561e-06	-1.16314e-10	-4.56088e-06	0.247391	13419.3	0.342218	13419
100.032	8.23641	4.36907	9.32348	-27.9441	9.51781	0.247399	-0.0163602	364.16	79.9677	1	10	0.00462658	0.000496229	0	6.5913e-07	0.00048351	1.43449e-05	6.69224	0.0289078	0.0287108	-0.0033688	-27.8434	9.34727	8.26512	4.36571	0.0947506	0.0502613	0.107256	27.9441	79967.8	150752	170649	-62.0559	0.0000000E+000	0.0000000E+000	0.0000000E+000	62.0559	0.0000000E+000	0.0000000E+000	0.0000000E+000	-62.0559	0.0000000E+000	0.0000000E+000	0.0000000E+000	-27.9441	0.0000000E+000	0.0000000E+000	0.0000000E+000	27.9441	1.88516	62.0559	-2.47731e-06	-4.04748e-06	-7.91031e-09	-4.03957e-06	0.246915	15122	29.5541	15092.5
68.104	9.59869	4.56124	10.6273	-25.4168	9.9805	0.247408	-0.0129862	512.348	94.3808	1	10	0.00461823	0.000434562	0	-1.24886e-06	0.00029263	1.00267e-05	52.6201	0.0230731	0.0140076	-0.0183346	-25.2951	10.6321	9.6127	4.5429	0.0849895	0.0403865	0.0940972	25.4168	94380.8	198615	219899	-64.5832	0.0000000E+000	0.0000000E+000	0.0000000E+000	64.5832	0.0000000E+000	0.0000000E+000	0.0000000E+000	-64.5832	0.0000000E+000	0.0000000E+000	0.0000000E+000	-25.4168	0.0000000E+000	0.0000000E+000	0.0000000E+000	25.4168	2.10441	64.5832	-1.90799e-06	-3.21288e-06	-3.80014e-09	-3.20908e-06	0.247116	19051.7	22.534	19029.2
46.4415	10.9457	4.48382	11.8285	-22.2761	10.4177	0.247392	-0.0191687	764.302	109.826	1	10	0.00461559	0.00039021	0	-3.46787e-06	0.000120837	8.03984e-06	-71.7579	0.0206039	0.00644968	0.0195684	-22.3519	11.8419	10.9521	4.50339	0.0782322	0.0320472	0.0845417	22.2761	109826	268101	289724	-67.7239	0.0000000E+000	0.0000000E+000	0.0000000E+000	67.7239	0.0000000E+000	0.0000000E+000	0.0000000E+000	-67.7239	0.0000000E+000	0.0000000E+000	0.0000000E+000	-22.2761	0.0000000E+000	0.0000000E+000	0.0000000E+000	22.2761	2.44115	67.7239	-2.21901e-06	-4.7422e-06	-2.3163e-09	-4.73988e-06	0.247271	12906	6.30388	12899.7
31.6296	12.2048	4.22859	12.9165	-19.1097	10.8476	0.247375	-0.0216314	1189.96	127.535	1	10	0.00461601	0.000357372	0	-5.32668e-06	8.26613e-05	6.76217e-06	-70.9096	0.0189219	0.00618861	0.0178813	-19.1756	12.9283	12.2109	4.24647	0.0731537	0.0253456	0.0774201	19.1097	127535	368098	389566	-70.8903	0.0000000E+000	0.0000000E+000	0.0000000E+000	70.8903	0.0000000E+000	0.0000000E+000	0.0000000E+000	-70.8903	0.0000000E+000	0.0000000E+000	0.0000000E+000	-19.1097	0.0000000E+000	0.0000000E+000	0.0000000E+000	19.1097	2.88625	70.8903	-1.8588e-06	-5.35105e-06	-1.78808e-09	-5.34926e-06	0.247292	11435.9	3.82137	11432.1
21.5517	13.3002	3.88393	13.8557	-16.2789	11.2685	0.247384	-0.0234579	1901.37	149.4	1	10	0.00461288	0.000332922	0	-7.89145e-06	8.26613e-05	8.80202e-06	-76.002	0.0264387	0.00639521	0.0256536	-16.3732	13.8691	13.3066	3.90959	0.0692789	0.0202308	0.0721723	16.2789	149400	511610	532978	-73.7211	0.0000000E+000	0.0000000E+000	0.0000000E+000	73.7211	0.0000000E+000	0.0000000E+000	0.0000000E+000	-73.7211	0.0000000E+000	0.0000000E+000	0.0000000E+000	-16.2789	0.0000000E+000	0.0000000E+000	0.0000000E+000	16.2789	3.42442	73.7211	-2.56478e-06	-5.80311e-06	-1.93906e-09	-5.80117e-06	0.247302	10545.9	3.52382	10542.4
14.6852	14.3099	3.49006	14.7294	-13.7064	11.9782	0.247444	-0.00628109	3105.33	174.344	1	11	0.00462653	0.000314103	0	-1.20226e-05	-1.2779e-05	3.79405e-06	-48.9833	0.012079	0.00792719	0.00911384	-13.7335	14.7392	14.3178	3.49918	0.0659583	0.0160867	0.0678916	13.7064	174344	714844	735797	-76.2936	0.0000000E+000	0.0000000E+000	0.0000000E+000	76.2936	0.0000000E+000	0.0000000E+000	0.0000000E+000	-76.2936	0.0000000E+000	0.0000000E+000	0.0000000E+000	-13.7064	0.0000000E+000	0.0000000E+000	0.0000000E+000	13.7064	4.10018	76.2936	-4.13113e-06	-1.55422e-06	8.02658e-11	-1.5543e-06	0.247456	39395	2.03451	39397.1
10.0032	15.0623	3.1416	15.3865	-11.7815	12.4288	0.247445	-0.00628742	5064.42	211.132	1	11	0.00461362	0.000299849	0	-1.04609e-05	0.000101749	1.01724e-05	-38.2021	0.033925	0.0266594	0.0209805	-11.8376	15.4169	15.089	3.16258	0.063623	0.0132701	0.0649922	11.7815	211132	1.01227e+06	1.03405e+06	-78.2185	0.0000000E+000	0.0000000E+000	0.0000000E+000	78.2185	0.0000000E+000	0.0000000E+000	0.0000000E+000	-78.2185	0.0000000E+000	0.0000000E+000	0.0000000E+000	-11.7815	0.0000000E+000	0.0000000E+000	0.0000000E+000	11.7815	4.79447	78.2185	1.56171e-06	-1.55579e-06	-6.39741e-10	-1.55515e-06	0.247343	39355.5	16.183	39339.3
6.81719	15.8004	2.76577	16.0406	-9.92872	12.7685	0.247443	-0.00620962	8441.1	250.951	1	11	0.00462472	0.000288313	0	-1.37019e-05	0.000159014	1.07792e-05	93.3691	0.0373871	-0.00219719	-0.0373225	-9.79869	16.0321	15.7982	2.72845	0.0614081	0.0107492	0.0623418	9.92872	250951	1.43364e+06	1.45544e+06	-80.0713	0.0000000E+000	0.0000000E+000	0.0000000E+000	80.0713	0.0000000E+000	0.0000000E+000	0.0000000E+000	-80.0713	0.0000000E+000	0.0000000E+000	0.0000000E+000	-9.92872	0.0000000E+000	0.0000000E+000	0.0000000E+000	9.92872	5.71283	80.0713	-3.24099e-06	-1.53653e-06	-9.87414e-10	-1.53554e-06	0.247284	39848.4	25.6076	39822.8
4.63925	16.3737	2.42824	16.5528	-8.43556	13.2534	0.247445	-0.00613294	14128	304.035	1	11	0.00461191	0.000278619	0	-1.39992e-05	6.3091e-06	3.38002e-06	-95.0818	0.0121313	-0.00107457	0.0120836	-8.47748	16.5535	16.3726	2.44032	0.0597593	0.00886239	0.0604129	8.43556	304035	2.05011e+06	2.07254e+06	-81.5644	0.0000000E+000	0.0000000E+000	0.0000000E+000	81.5644	0.0000000E+000	0.0000000E+000	0.0000000E+000	-81.5644	0.0000000E+000	0.0000000E+000	0.0000000E+000	-8.43556	0.0000000E+000	0.0000000E+000	0.0000000E+000	8.43556	6.74303	81.5644	-2.97365e-07	-1.51756e-06	-3.86933e-11	-1.51752e-06	0.247438	40346.8	1.02872	40345.8
3.1604	16.8809	2.14052	17.0161	-7.22661	13.9464	0.247432	-0.00621185	23526.6	372.287	1	11	0.00461533	0.000271233	0	-1.13769e-05	-0.000108219	4.68771e-06	46.0149	0.017283	0.0120025	-0.0124355	-7.18001	17.0265	16.8929	2.12809	0.058301	0.00739264	0.0587678	7.22661	372287	2.93599e+06	2.9595e+06	-82.7734	0.0000000E+000	0.0000000E+000	0.0000000E+000	82.7734	0.0000000E+000	0.0000000E+000	0.0000000E+000	-82.7734	0.0000000E+000	0.0000000E+000	0.0000000E+000	-7.22661	0.0000000E+000	0.0000000E+000	0.0000000E+000	7.22661	7.88636	82.7734	2.62229e-06	-1.53701e-06	6.72242e-10	-1.53768e-06	0.24754	39832.2	17.4214	39849.6
2.15577	17.3454	1.87143	17.4461	-6.15793	14.95	0.247447	-0.0050019	39449.8	453.938	1	11	0.00462028	0.000264832	0	-1.09298e-05	-0.000184571	4.3723e-06	-90.8272	0.0165097	-0.000238352	0.016508	-6.21191	17.4476	17.3452	1.88794	0.0569888	0.00614863	0.0573195	6.15793	453938	4.20734e+06	4.23176e+06	-83.8421	0.0000000E+000	0.0000000E+000	0.0000000E+000	83.8421	0.0000000E+000	0.0000000E+000	0.0000000E+000	-83.8421	0.0000000E+000	0.0000000E+000	0.0000000E+000	-6.15793	0.0000000E+000	0.0000000E+000	0.0000000E+000	6.15793	9.26853	83.8421	4.4714e-07	-1.2377e-06	9.23208e-10	-1.23863e-06	0.247631	49470.6	36.9003	49507.5
1.46631	17.6763	1.66046	17.7541	-5.36645	16.4114	0.247448	-0.00385224	65368.2	571.774	1	11	0.00461523	0.000259953	0	-1.60401e-05	0.000216278	3.11061e-06	26.366	0.0119661	0.0107213	-0.00531417	-5.34615	17.7643	17.687	1.65514	0.0560781	0.00526781	0.056325	5.36645	571774	6.08678e+06	6.11358e+06	-84.6336	0.0000000E+000	0.0000000E+000	0.0000000E+000	84.6336	0.0000000E+000	0.0000000E+000	0.0000000E+000	-84.6336	0.0000000E+000	0.0000000E+000	0.0000000E+000	-5.36645	0.0000000E+000	0.0000000E+000	0.0000000E+000	5.36645	10.6454	84.6336	-5.1103e-06	-9.53229e-07	-8.33153e-10	-9.52396e-07	0.247232	64234.9	56.1434	64178.7
1.00006	17.9861	1.51487	18.0498	-4.81436	19.5849	0.247448	-0.00371586	105055	739.99	1	12	0.0046206	0.000255993	0	-2.81007e-05	0.000139925	1.6847e-06	57.7693	0.00658104	0.00350986	-0.00556695	-4.79582	18.0528	17.9896	1.5093	0.055207	0.00464979	0.0554024	4.81436	739990	8.7859e+06	8.81701e+06	-85.1856	0.0000000E+000	0.0000000E+000	0.0000000E+000	85.1856	0.0000000E+000	0.0000000E+000	0.0000000E+000	-85.1856	0.0000000E+000	0.0000000E+000	0.0000000E+000	-4.81436	0.0000000E+000	0.0000000E+000	0.0000000E+000	4.81436	11.873	85.1856	-1.20606e-05	-9.19483e-07	-5.19943e-10	-9.18964e-07	0.247309	66592.5	37.6563	66554.9
0.681362	18.227	1.4262	18.2827	-4.4741	22.697	0.24745	-0.00398397	163780	996.653	1	12	0.00461568	0.000252462	0	-3.89423e-05	4.44852e-05	3.30055e-06	-6.16691	0.0130734	0.0129978	0.00140442	-4.47531	18.2957	18.24	1.42761	0.0545299	0.0042668	0.0546966	4.4741	996652	1.27373e+07	1.27762e+07	-85.5259	0.0000000E+000	0.0000000E+000	0.0000000E+000	85.5259	0.0000000E+000	0.0000000E+000	0.0000000E+000	-85.5259	0.0000000E+000	0.0000000E+000	0.0000000E+000	-4.4741	0.0000000E+000	0.0000000E+000	0.0000000E+000	4.4741	12.7801	85.5259	-1.08416e-05	-9.85834e-07	-1.77228e-10	-9.85657e-07	0.247405	62111.3	11.166	62100.2
0.464091	18.4587	1.45121	18.5157	-4.49532	27.2536	0.247435	-0.00572136	236312	1451.68	1	12	0.00462069	0.000249556	0	-4.45143e-05	-1.2779e-05	7.10827e-06	-48.8834	0.0284837	0.0187307	0.0214588	-4.5569	18.536	18.4774	1.47267	0.0538422	0.00423305	0.0540083	4.49532	1.45168e+06	1.84646e+07	1.85216e+07	-85.5047	0.0000000E+000	0.0000000E+000	0.0000000E+000	85.5047	0.0000000E+000	0.0000000E+000	0.0000000E+000	-85.5047	0.0000000E+000	0.0000000E+000	0.0000000E+000	-4.49532	0.0000000E+000	0.0000000E+000	0.0000000E+000	4.49532	12.7195	85.5047	-5.57198e-06	-1.41566e-06	7.3113e-11	-1.41574e-06	0.247448	43247.6	2.23355	43249.8
0.316193	18.6525	1.6238	18.723	-4.97537	33.9271	0.247437	-0.00574503	309981	2331.57	1	12	0.00461294	0.000246378	0	-3.89188e-05	0.000235366	1.64008e-06	37.1503	0.00665678	0.00530582	-0.00402008	-4.96171	18.728	18.6578	1.61978	0.0532089	0.00463213	0.0534102	4.97537	2.33157e+06	2.67826e+07	2.68839e+07	-85.0246	0.0000000E+000	0.0000000E+000	0.0000000E+000	85.0246	0.0000000E+000	0.0000000E+000	0.0000000E+000	-85.0246	0.0000000E+000	0.0000000E+000	0.0000000E+000	-4.97537	0.0000000E+000	0.0000000E+000	0.0000000E+000	4.97537	11.4869	85.0246	5.59555e-06	-1.42153e-06	-1.35218e-09	-1.42018e-06	0.247202	43069.7	40.9686	43028.8
0.215268	18.8681	1.88395	18.9619	-5.702	43.7205	0.247426	-0.00515145	392439	3873.88	1	12	0.00461691	0.000243483	0	-2.13947e-05	0.00048351	1.69008e-06	44.5025	0.00694126	0.00495065	-0.00486541	-5.68588	18.9664	18.873	1.87908	0.0524763	0.00523968	0.0527373	5.702	3.87388e+06	3.87976e+07	3.89905e+07	-84.298	0.0000000E+000	0.0000000E+000	0.0000000E+000	84.298	0.0000000E+000	0.0000000E+000	0.0000000E+000	-84.298	0.0000000E+000	0.0000000E+000	0.0000000E+000	-5.702	0.0000000E+000	0.0000000E+000	0.0000000E+000	5.702	10.0152	84.298	1.7524e-05	-1.2746e-06	-2.49078e-09	-1.27211e-06	0.246943	48030.4	93.8591	47936.5
0.146929	19.1759	2.29197	19.3124	-6.81584	58.059	0.247429	-0.00318951	472612	6656.55	1	12	0.0046211	0.000239281	0	2.57529e-06	0.000254454	1.63854e-06	-11.4924	0.00684777	0.00671048	0.00136433	-6.8175	19.3192	19.1826	2.29333	0.0514143	0.0061452	0.0517802	6.81584	6.65655e+06	5.56925e+07	5.60889e+07	-83.1842	0.0000000E+000	0.0000000E+000	0.0000000E+000	83.1842	0.0000000E+000	0.0000000E+000	0.0000000E+000	-83.1842	0.0000000E+000	0.0000000E+000	0.0000000E+000	-6.81584	0.0000000E+000	0.0000000E+000	0.0000000E+000	6.81584	8.36658	83.1842	2.397e-05	-7.89176e-07	-8.11582e-10	-7.88364e-07	0.247174	77575.9	79.7785	77496.1
0.0999041	19.6023	2.94243	19.8219	-8.53674	79.1362	0.24743	-0.0013722	541415	11930.3	1	12	0.00461359	0.000232752	0	9.69361e-06	0.000235366	2.21609e-06	-9.43209	0.00952125	0.00939253	0.00156033	-8.53717	19.8314	19.6117	2.94399	0.0498903	0.00748886	0.0504492	8.53674	1.19303e+07	7.94791e+07	8.03695e+07	-81.4633	0.0000000E+000	0.0000000E+000	0.0000000E+000	81.4633	0.0000000E+000	0.0000000E+000	0.0000000E+000	-81.4633	0.0000000E+000	0.0000000E+000	0.0000000E+000	-8.53674	0.0000000E+000	0.0000000E+000	0.0000000E+000	8.53674	6.66193	81.4633	7.11833e-06	-3.39524e-07	-3.22969e-10	-3.39201e-07	0.247194	180316	171.524	180144
0.0680626	20.0853	3.85348	20.4517	-10.8605	110.064	0.247428	-0.000583674	606817	21543.1	1	12	0.00462354	0.000226072	0	-2.39011e-05	-0.000127307	2.23043e-06	23.5439	0.00986601	0.00904471	-0.003941	-10.8449	20.4598	20.0944	3.84954	0.04802	0.00921291	0.0488958	10.8605	2.15431e+07	1.12288e+08	1.14336e+08	-79.1395	0.0000000E+000	0.0000000E+000	0.0000000E+000	79.1395	0.0000000E+000	0.0000000E+000	0.0000000E+000	-79.1395	0.0000000E+000	0.0000000E+000	0.0000000E+000	-10.8605	0.0000000E+000	0.0000000E+000	0.0000000E+000	10.8605	5.21225	79.1395	-3.35947e-05	-1.44417e-07	7.43059e-11	-1.44492e-07	0.247555	423915	218.114	424133
0.0464052	20.6106	4.97017	21.2014	-13.5578	155.415	0.247437	-0.00103957	690053	37922.5	1	12	0.00462308	0.000218056	0	-0.000150665	6.35733e-05	3.29528e-06	-22.4964	0.0151121	0.0139621	0.00578227	-13.5642	21.2163	20.6245	4.97595	0.0458524	0.0110572	0.0471668	13.5578	3.79225e+07	1.57259e+08	1.61767e+08	-76.4422	0.0000000E+000	0.0000000E+000	0.0000000E+000	76.4422	0.0000000E+000	0.0000000E+000	0.0000000E+000	-76.4422	0.0000000E+000	0.0000000E+000	0.0000000E+000	-13.5578	0.0000000E+000	0.0000000E+000	0.0000000E+000	13.5578	4.14686	76.4422	-0.000126764	-2.57229e-07	-6.6089e-11	-2.57163e-07	0.247374	238018	61.1533	237957
0.0315922	21.4264	6.35914	22.3502	-16.5304	222.021	0.247438	-0.00214137	792212	64132.4	1	12	0.00461485	0.000206479	0	-0.000374939	0.000254454	2.04461e-06	-7.69568	0.00990225	0.00981306	0.00132602	-16.5265	22.3599	21.4362	6.36047	0.0428932	0.0127303	0.0447424	16.5304	6.41324e+07	2.16087e+08	2.25403e+08	-73.4696	0.0000000E+000	0.0000000E+000	0.0000000E+000	73.4696	0.0000000E+000	0.0000000E+000	0.0000000E+000	-73.4696	0.0000000E+000	0.0000000E+000	0.0000000E+000	-16.5304	0.0000000E+000	0.0000000E+000	0.0000000E+000	16.5304	3.36939	73.4696	-0.000224275	-5.29856e-07	-5.44879e-10	-5.29311e-07	0.247184	115551	118.828	115433
0.0215268	22.5826	8.43752	24.1074	-20.4871	319.759	0.247429	-0.00290961	876246	107339	1	12	0.0046155	0.000191456	0	-0.000620474	0.000235366	2.7067e-06	-5.08631	0.0141374	0.0140818	0.00125337	-20.4782	24.121	22.5967	8.43877	0.0388574	0.0145183	0.0414811	20.4871	1.07339e+08	2.87286e+08	3.06684e+08	-69.5128	0.0000000E+000	0.0000000E+000	0.0000000E+000	69.5128	0.0000000E+000	0.0000000E+000	0.0000000E+000	-69.5128	0.0000000E+000	0.0000000E+000	0.0000000E+000	-20.4871	0.0000000E+000	0.0000000E+000	0.0000000E+000	20.4871	2.67645	69.5128	-0.000245534	-7.19924e-07	-6.84824e-10	-7.19239e-07	0.247194	85038.5	80.8924	84957.6
0.0146812	23.8532	11.3811	26.4292	-25.5074	463.062	0.247431	-0.00320156	952518	176635	1	12	0.0046171	0.000174697	0	-0.000725485	0.00019719	2.44015e-06	-26.7191	0.0139679	0.0124764	0.0062802	-25.508	26.4432	23.8656	11.3874	0.0341489	0.0162936	0.0378369	25.5074	1.76635e+08	3.702e+08	4.1018e+08	-64.4926	0.0000000E+000	0.0000000E+000	0.0000000E+000	64.4926	0.0000000E+000	0.0000000E+000	0.0000000E+000	-64.4926	0.0000000E+000	0.0000000E+000	0.0000000E+000	-25.5074	0.0000000E+000	0.0000000E+000	0.0000000E+000	25.5074	2.09585	64.4926	-0.000105011	-7.92165e-07	-6.31315e-10	-7.91534e-07	0.247233	77284.2	61.5916	77222.7
0.0100092	25.376	14.974	29.4646	-30.5441	673.244	0.247427	-0.00297385	1.0619e+06	274257	1	12	0.00461817	0.000156736	0	-0.000559884	6.3091e-06	3.05531e-06	10.7837	0.0194933	0.0191491	-0.00364722	-30.5191	29.4792	25.3952	14.9703	0.0292296	0.0172479	0.033939	30.5441	2.74257e+08	4.64777e+08	5.39662e+08	-59.4559	0.0000000E+000	0.0000000E+000	0.0000000E+000	59.4559	0.0000000E+000	0.0000000E+000	0.0000000E+000	-59.4559	0.0000000E+000	0.0000000E+000	0.0000000E+000	-30.5441	0.0000000E+000	0.0000000E+000	0.0000000E+000	30.5441	1.69468	59.4559	0.0001656	-7.35811e-07	-1.87623e-11	-7.35792e-07	0.247421	83200.9	2.12153	83198.8