File: txt/18828_R307_UA701_4p38_SOC00_C07.mpt
EC-Lab ASCII FILE
Nb header lines : 65

Potentio Electrochemical Impedance Spectroscopy

Run on channel : 7 (SN 66126)
User :
CE vs. WE compliance from -10 V to 10 V
Electrode connection : standard
Potential control : Ewe
Ewe ctrl range : min = -10.00 V, max = 10.00 V
Safety Limits :
	Do not start on E overload
Acquisition started on : 11/03/2025 17:11:21.085
Technique started on : 11/03/2025 17:11:23.140
Loaded Setting File :  C:\Users\Celltest\OneDrive - store-dot.com\Documents\EC-Lab\Data\@Biologic Test Protocols\anode half cell EIS SOC00.mps
Saved on :
	File : 18828_R307_UA701_4p38_SOC00_C07.mpr
	Directory : C:\Users\Celltest\OneDrive - store-dot.com\Documents\EC-Lab\Data\Anna\
	Host : 169.254.61.224
Device : VMP-3e (SN .003165)
Address : USB
EC-LAB for windows v11.62 (software)
Internet server v27.00 (firmware)
Command interpretor v12.03 (firmware)
Electrode material :
Initial state :
Electrolyte :
Comments :
Electrode surface area : 0.001 cm²
Characteristic mass : 0.001 g
Equivalent Weight : 0.000 g/eq.
Density : 0.000 g/cm3
Volume (V) : 0.001 cm³
Record Ece
Cycle Definition : Charge/Discharge alternance
Mode                Single sine
E (V)               0.0000
vs.                 Eoc
tE (h:m:s)          0:00:0.0000
record              0
dI                  0.000
unit dI             mA
dt (s)              0.000
fi                  100.000
unit fi             kHz
ff                  10.000
unit ff             mHz
Nd                  6
Points              per decade
spacing             Logarithmic
Va (mV)             5.0
pw                  0.10
Na                  2
corr                0
E range min (V)     -10.000
E range max (V)     10.000
I Range             Auto
Bandwidth           5
nc cycles           0
goto Ns'            0
nr cycles           0
inc. cycle          0

freq/Hz	Re(Z)/Ohm	-Im(Z)/Ohm	|Z|/Ohm	Phase(Z)/deg	time/s	<Ewe>/V	<I>/mA	Cs/µF	Cp/µF	cycle number	I Range	|Ewe|/V	|I|/A	Ns	(Q-Qo)/mA.h	<Ece>/V	|Ece|/V	Phase(Zce)/deg	|Zce|/Ohm	Re(Zce)/Ohm	-Im(Zce)/Ohm	Phase(Zwe-ce)/deg	|Zwe-ce|/Ohm	Re(Zwe-ce)/Ohm	-Im(Zwe-ce)/Ohm	Re(Y)/Ohm-1	Im(Y)/Ohm-1	|Y|/Ohm-1	Phase(Y)/deg	Re(C)/nF	Im(C)/nF	|C|/nF	Phase(C)/deg	Re(M)	Im(M)	|M|	Phase(M)/deg	Re(Permittivity)	Im(Permittivity)	|Permittivity|	Phase(Permittivity)/deg	Re(Resistivity)/Ohm.cm	Im(Resistivity)/Ohm.cm	|Resistivity|/Ohm.cm	Phase(Resistivity)/deg	Re(Conductivity)/mS/cm	Im(Conductivity)/mS/cm	|Conductivity|/mS/cm	Phase(Conductivity)/deg	Tan(Delta)	Loss Angle(Delta)/deg	dq/mA.h	Pwe/W	Pce/W	Pwe-ce/W	<Ewe-Ece>/V	Rwe/Ohm	Rce/Ohm	Rwe-ce/Ohm		Ewe-Ece/V
100004	1.22894	0.472784	1.31675	-21.0421	2.05456	0.256459	0.0670695	3.36621	0.433972	1	9	0.0049267	0.00374157	0	7.07025e-06	-0.000345672	5.35444e-05	70.28	0.0143107	0.00482876	-0.0134714	-20.4195	1.3165	1.23377	0.459312	0.708805	0.272683	0.759447	21.0421	433.972	1128.06	1208.65	-68.9579	0.0000000E+000	0.0000000E+000	0.0000000E+000	68.9579	0.0000000E+000	0.0000000E+000	0.0000000E+000	-68.9579	0.0000000E+000	0.0000000E+000	0.0000000E+000	-21.0421	0.0000000E+000	0.0000000E+000	0.0000000E+000	21.0421	2.59938	68.9579	7.07025e-06	1.72006e-05	-2.3184e-08	1.72238e-05	0.256805	3823.78	5.15393	3828.93
68132	1.35502	0.540152	1.45871	-21.7337	2.43754	0.256463	0.070309	4.32467	0.592987	1	9	0.0054533	0.00373844	0	1.97362e-05	-5.95403e-05	3.01856e-05	61.9061	0.0080744	0.00380238	-0.00712305	-21.4187	1.45963	1.35882	0.533029	0.636805	0.25385	0.685536	21.7337	592.987	1487.56	1601.4	-68.2663	0.0000000E+000	0.0000000E+000	0.0000000E+000	68.2663	0.0000000E+000	0.0000000E+000	0.0000000E+000	-68.2663	0.0000000E+000	0.0000000E+000	0.0000000E+000	-21.7337	0.0000000E+000	0.0000000E+000	0.0000000E+000	21.7337	2.50859	68.2663	1.26659e-05	1.80317e-05	-4.18622e-09	1.80359e-05	0.256523	3647.66	0.846837	3648.5
46420.4	1.50022	0.608585	1.61896	-22.0806	2.82053	0.256475	0.0672184	5.63366	0.796086	1	9	0.0054841	0.00338742	0	1.56911e-05	-5.95403e-05	1.32587e-05	59.3096	0.0039141	0.00199775	-0.00336588	-21.9437	1.61955	1.50222	0.605219	0.572377	0.232193	0.61768	22.0806	796.086	1962.43	2117.75	-67.9194	0.0000000E+000	0.0000000E+000	0.0000000E+000	67.9194	0.0000000E+000	0.0000000E+000	0.0000000E+000	-67.9194	0.0000000E+000	0.0000000E+000	0.0000000E+000	-22.0806	0.0000000E+000	0.0000000E+000	0.0000000E+000	22.0806	2.4651	67.9194	-4.04506e-06	1.72399e-05	-4.00221e-09	1.72439e-05	0.256535	3815.55	0.885774	3816.44
31621.1	1.65115	0.669719	1.7818	-22.0778	3.20552	0.256466	0.0655428	7.51536	1.06173	1	9	0.00538709	0.00302339	0	2.10728e-05	1.67614e-05	1.61018e-05	55.7259	0.00532575	0.00299921	-0.00440095	-21.9105	1.78294	1.65415	0.665318	0.520077	0.210947	0.561229	22.0778	1061.73	2617.64	2824.77	-67.9222	0.0000000E+000	0.0000000E+000	0.0000000E+000	67.9222	0.0000000E+000	0.0000000E+000	0.0000000E+000	-67.9222	0.0000000E+000	0.0000000E+000	0.0000000E+000	-22.0778	0.0000000E+000	0.0000000E+000	0.0000000E+000	22.0778	2.46544	67.9222	5.38164e-06	1.68095e-05	1.09859e-09	1.68084e-05	0.256449	3912.95	0.255732	3912.7
21544.7	1.8183	0.727848	1.95857	-21.8157	3.58855	0.256475	0.0609255	10.1494	1.40166	1	9	0.00541683	0.00276571	0	2.20814e-05	-0.000231219	8.78459e-06	59.1025	0.00317625	0.00163102	-0.0027255	-21.724	1.95907	1.81993	0.725123	0.474012	0.189742	0.510578	21.8157	1401.66	3501.62	3771.74	-68.1843	0.0000000E+000	0.0000000E+000	0.0000000E+000	68.1843	0.0000000E+000	0.0000000E+000	0.0000000E+000	-68.1843	0.0000000E+000	0.0000000E+000	0.0000000E+000	-21.8157	0.0000000E+000	0.0000000E+000	0.0000000E+000	21.8157	2.49819	68.1843	1.00864e-06	1.56259e-05	-1.40872e-08	1.564e-05	0.256706	4209.65	3.79511	4213.44
14678.6	1.99108	0.795394	2.14407	-21.7757	3.97155	0.256483	0.0652449	13.6318	1.87603	1	9	0.00533005	0.00248595	0	3.36914e-05	-0.000307521	8.76505e-06	-51.4132	0.00352583	0.00219906	0.00275602	-21.8222	2.14713	1.99327	0.79815	0.433122	0.173023	0.466403	21.7757	1876.03	4696.19	5057.04	-68.2243	0.0000000E+000	0.0000000E+000	0.0000000E+000	68.2243	0.0000000E+000	0.0000000E+000	0.0000000E+000	-68.2243	0.0000000E+000	0.0000000E+000	0.0000000E+000	-21.7757	0.0000000E+000	0.0000000E+000	0.0000000E+000	21.7757	2.50326	68.2243	1.161e-05	1.67342e-05	-2.00642e-08	1.67543e-05	0.256791	3931.09	4.71333	3935.8
10002.2	2.17368	0.875604	2.34341	-21.9406	4.35454	0.256496	0.0672184	18.1726	2.53709	1	9	0.00526337	0.00224604	0	3.78117e-05	-0.000364747	3.6193e-06	28.2317	0.00161142	0.00141973	-0.000762261	-21.9104	2.34444	2.1751	0.874841	0.395822	0.159446	0.426729	21.9406	2537.09	6298.3	6790.1	-68.0594	0.0000000E+000	0.0000000E+000	0.0000000E+000	68.0594	0.0000000E+000	0.0000000E+000	0.0000000E+000	-68.0594	0.0000000E+000	0.0000000E+000	0.0000000E+000	-21.9406	0.0000000E+000	0.0000000E+000	0.0000000E+000	21.9406	2.48249	68.0594	4.12036e-06	1.72413e-05	-2.45177e-08	1.72658e-05	0.256861	3815.86	5.4263	3821.29
6810.42	2.36797	0.980699	2.56301	-22.497	4.73755	0.256495	0.0640533	23.8292	3.48883	1	9	0.00514721	0.00200826	0	4.60153e-05	-0.000555501	2.18615e-05	-95.165	0.0108857	-0.000979974	0.0108415	-22.729	2.56628	2.36699	0.991541	0.360474	0.149291	0.390166	22.497	3488.83	8424.03	9117.91	-67.503	0.0000000E+000	0.0000000E+000	0.0000000E+000	67.503	0.0000000E+000	0.0000000E+000	0.0000000E+000	-67.503	0.0000000E+000	0.0000000E+000	0.0000000E+000	-22.497	0.0000000E+000	0.0000000E+000	0.0000000E+000	22.497	2.41457	67.503	8.20353e-06	1.64294e-05	-3.55817e-08	1.6465e-05	0.257051	4004.4	8.67248	4013.07
4646	2.58329	1.09217	2.80468	-22.9177	5.0026	0.256466	0.0517282	31.3655	4.75625	1	9	0.00545417	0.00194467	0	4.94231e-05	-9.76912e-05	8.97595e-06	54.749	0.00461567	0.00266398	-0.0037693	-22.8257	2.80567	2.58595	1.0884	0.328403	0.138843	0.356547	22.9177	4756.25	11249.9	12214	-67.0823	0.0000000E+000	0.0000000E+000	0.0000000E+000	67.0823	0.0000000E+000	0.0000000E+000	0.0000000E+000	-67.0823	0.0000000E+000	0.0000000E+000	0.0000000E+000	-22.9177	0.0000000E+000	0.0000000E+000	0.0000000E+000	22.9177	2.36529	67.0823	3.4079e-06	1.32665e-05	-5.05339e-09	1.32716e-05	0.256564	4957.95	1.88855	4959.84
3163.08	2.83431	1.2345	3.09149	-23.5357	5.37667	0.256416	0.0365359	40.7587	6.49928	1	9	0.0054432	0.00176071	0	5.41021e-05	-9.76912e-05	8.36308e-06	-165.147	0.00474984	-0.00459113	0.00121761	-23.5905	3.08776	2.82972	1.23571	0.29656	0.129168	0.323469	23.5357	6499.27	14921.8	16275.8	-66.4643	0.0000000E+000	0.0000000E+000	0.0000000E+000	66.4643	0.0000000E+000	0.0000000E+000	0.0000000E+000	-66.4643	0.0000000E+000	0.0000000E+000	0.0000000E+000	-23.5357	0.0000000E+000	0.0000000E+000	0.0000000E+000	23.5357	2.29593	66.4643	4.67893e-06	9.36838e-06	-3.56923e-09	9.37195e-06	0.256514	7018.2	2.67384	7020.87
2155.69	3.0874	1.39685	3.38869	-24.3436	5.82782	0.256411	0.0423447	52.8549	8.98086	1	9	0.00535905	0.00158145	0	5.94195e-05	-4.04649e-05	8.59442e-06	26.2735	0.00543451	0.00487308	-0.00240562	-24.2727	3.39214	3.09228	1.39444	0.268862	0.121642	0.295099	24.3436	8980.86	19850.1	21787.2	-65.6564	0.0000000E+000	0.0000000E+000	0.0000000E+000	65.6564	0.0000000E+000	0.0000000E+000	0.0000000E+000	-65.6564	0.0000000E+000	0.0000000E+000	0.0000000E+000	-24.3436	0.0000000E+000	0.0000000E+000	0.0000000E+000	24.3436	2.21027	65.6564	5.31741e-06	1.08576e-05	-1.71347e-09	1.08593e-05	0.256451	6055.32	0.955607	6056.27
1468.59	3.42626	1.62361	3.79149	-25.3549	6.52405	0.25643	-0.00761973	66.748	12.24	1	10	0.0053955	0.00142305	0	5.96647e-05	-2.31406e-06	1.40718e-05	120.863	0.00988846	-0.00507271	-0.00848818	-25.2717	3.78327	3.42119	1.61512	0.238342	0.112944	0.263749	25.3549	12240	25829.8	28583.1	-64.6451	0.0000000E+000	0.0000000E+000	0.0000000E+000	64.6451	0.0000000E+000	0.0000000E+000	0.0000000E+000	-64.6451	0.0000000E+000	0.0000000E+000	0.0000000E+000	-25.3549	0.0000000E+000	0.0000000E+000	0.0000000E+000	25.3549	2.11028	64.6451	2.4519e-07	-1.95393e-06	1.76325e-11	-1.95395e-06	0.256433	33653.5	0.303693	33653.8
1000.32	3.77719	1.88818	4.22284	-26.5599	6.9748	0.25643	-0.0071246	84.2634	16.8467	1	10	0.00530893	0.00125719	0	5.81703e-05	-0.000441049	7.31427e-06	-14.287	0.00581794	0.005638	0.00143575	-26.5432	4.22853	3.78283	1.88961	0.211816	0.105885	0.236807	26.5599	16846.7	33700.8	37677	-63.4401	0.0000000E+000	0.0000000E+000	0.0000000E+000	63.4401	0.0000000E+000	0.0000000E+000	0.0000000E+000	-63.4401	0.0000000E+000	0.0000000E+000	0.0000000E+000	-26.5599	0.0000000E+000	0.0000000E+000	0.0000000E+000	26.5599	2.00045	63.4401	-1.49435e-06	-1.82696e-06	3.1423e-09	-1.8301e-06	0.256871	35992.1	61.905	36054
681.09	4.17677	2.22683	4.73331	-28.0642	7.4256	0.256428	-0.00766812	104.937	23.226	1	10	0.0052369	0.00110639	0	5.81645e-05	-0.000326596	4.77861e-06	94.9669	0.00431909	-0.000373945	-0.00430287	-28.0203	4.73096	4.1764	2.22253	0.186428	0.0993936	0.211269	28.0642	23226	43563.9	49368.6	-61.9358	0.0000000E+000	0.0000000E+000	0.0000000E+000	61.9358	0.0000000E+000	0.0000000E+000	0.0000000E+000	-61.9358	0.0000000E+000	0.0000000E+000	0.0000000E+000	-28.0642	0.0000000E+000	0.0000000E+000	0.0000000E+000	28.0642	1.87565	61.9358	-5.79279e-09	-1.96632e-06	2.50438e-09	-1.96883e-06	0.256754	33440.8	42.5914	33483.4
463.961	4.65862	2.65628	5.3627	-29.6912	7.87732	0.256428	-0.00749688	129.141	31.6844	1	10	0.0051917	0.000968114	0	5.68052e-05	-5.95403e-05	3.61497e-06	112.469	0.00373403	-0.00142706	-0.00345058	-29.6667	5.35975	4.65719	2.65283	0.161991	0.0923648	0.186473	29.6912	31684.4	55568.6	63966.9	-60.3088	0.0000000E+000	0.0000000E+000	0.0000000E+000	60.3088	0.0000000E+000	0.0000000E+000	0.0000000E+000	-60.3088	0.0000000E+000	0.0000000E+000	0.0000000E+000	-29.6912	0.0000000E+000	0.0000000E+000	0.0000000E+000	29.6912	1.75381	60.3088	-1.35931e-06	-1.92241e-06	4.46367e-10	-1.92286e-06	0.256488	34204.7	7.94201	34212.6
316.316	5.27313	3.16546	6.15029	-30.9764	8.32506	0.256425	-0.00814092	158.951	42.1061	1	10	0.00515179	0.000837649	0	5.65076e-05	-0.000173993	5.84596e-06	-111.711	0.00697901	-0.0025817	0.00648393	-31.0406	6.15142	5.27055	3.17195	0.139405	0.0836847	0.162594	30.9764	42106.1	70141.7	81809.5	-59.0236	0.0000000E+000	0.0000000E+000	0.0000000E+000	59.0236	0.0000000E+000	0.0000000E+000	0.0000000E+000	-59.0236	0.0000000E+000	0.0000000E+000	0.0000000E+000	-30.9764	0.0000000E+000	0.0000000E+000	0.0000000E+000	30.9764	1.66583	59.0236	-2.97603e-07	-2.08754e-06	1.41646e-09	-2.08896e-06	0.256599	31498.3	21.3726	31519.7
215.345	6.09731	3.76655	7.16687	-31.7053	8.77556	0.256429	-0.00812231	196.22	54.1964	1	10	0.00512963	0.000715742	0	5.58143e-05	-0.000173993	5.52919e-06	-111.017	0.00772512	-0.00277058	0.0072112	-31.7659	7.16831	6.09454	3.77376	0.118708	0.0733304	0.139531	31.7053	54196.4	87733.4	103123	-58.2947	0.0000000E+000	0.0000000E+000	0.0000000E+000	58.2947	0.0000000E+000	0.0000000E+000	0.0000000E+000	-58.2947	0.0000000E+000	0.0000000E+000	0.0000000E+000	-31.7053	0.0000000E+000	0.0000000E+000	0.0000000E+000	31.7053	1.61881	58.2947	-6.93328e-07	-2.0828e-06	1.41322e-09	-2.08421e-06	0.256603	31571	21.4216	31592.4
146.737	7.15196	4.36141	8.37689	-31.3757	9.22148	0.25643	-0.00896738	248.687	67.4124	1	10	0.00511398	0.000610487	0	5.41366e-05	-0.000116767	9.46341e-06	-82.9267	0.0155014	0.00190884	0.0153834	-31.4586	8.38654	7.15387	4.37679	0.10192	0.0621527	0.119376	31.3757	67412.4	110545	129478	-58.6243	0.0000000E+000	0.0000000E+000	0.0000000E+000	58.6243	0.0000000E+000	0.0000000E+000	0.0000000E+000	-58.6243	0.0000000E+000	0.0000000E+000	0.0000000E+000	-31.3757	0.0000000E+000	0.0000000E+000	0.0000000E+000	31.3757	1.63983	58.6243	-1.67769e-06	-2.29951e-06	1.04709e-09	-2.30055e-06	0.256547	28595.9	13.0213	28608.9
100.032	8.46958	4.88278	9.77626	-29.9638	9.67285	0.256425	-0.007482	325.847	81.2835	1	10	0.00511041	0.000522736	0	5.37002e-05	1.67614e-05	4.56161e-06	39.2609	0.00872641	0.00675662	-0.00552253	-29.916	9.77936	8.47634	4.87726	0.0886168	0.0510883	0.102289	29.9638	81283.5	140993	162745	-60.0362	0.0000000E+000	0.0000000E+000	0.0000000E+000	60.0362	0.0000000E+000	0.0000000E+000	0.0000000E+000	-60.0362	0.0000000E+000	0.0000000E+000	0.0000000E+000	-29.9638	0.0000000E+000	0.0000000E+000	0.0000000E+000	29.9638	1.73458	60.0362	-4.3635e-07	-1.91857e-06	-1.25409e-10	-1.91845e-06	0.256408	34272.2	2.24022	34270
68.104	9.99003	5.18685	11.2563	-27.4385	10.1354	0.256427	-0.00620138	450.551	95.6666	1	10	0.00510769	0.000453763	0	5.32009e-05	9.3063e-05	1.18827e-05	47.5535	0.0261869	0.0176736	-0.0193235	-27.3098	11.2631	10.0077	5.16753	0.0788453	0.0409367	0.0888392	27.4385	95666.6	184257	207612	-62.5615	0.0000000E+000	0.0000000E+000	0.0000000E+000	62.5615	0.0000000E+000	0.0000000E+000	0.0000000E+000	-62.5615	0.0000000E+000	0.0000000E+000	0.0000000E+000	-27.4385	0.0000000E+000	0.0000000E+000	0.0000000E+000	27.4385	1.92603	62.5615	-4.9934e-07	-1.5902e-06	-5.77119e-10	-1.58962e-06	0.256334	41350.1	15.0068	41335.1
46.4415	11.5223	5.23597	12.6562	-24.438	10.5716	0.256428	-0.00840525	654.51	112.023	1	10	0.00510333	0.000403229	0	5.20342e-05	-0.000212144	7.7897e-06	-108.766	0.0193183	-0.00621485	0.0182913	-24.5251	12.6581	11.5161	5.25426	0.0719341	0.0326883	0.0790129	24.438	112023	246518	270777	-65.562	0.0000000E+000	0.0000000E+000	0.0000000E+000	65.562	0.0000000E+000	0.0000000E+000	0.0000000E+000	-65.562	0.0000000E+000	0.0000000E+000	0.0000000E+000	-24.438	0.0000000E+000	0.0000000E+000	0.0000000E+000	24.438	2.2006	65.562	-1.16674e-06	-2.15534e-06	1.78312e-09	-2.15712e-06	0.25664	30508	25.2394	30533.3
31.6296	13.0393	4.99197	13.9622	-20.9489	11.0015	0.256421	-0.0083308	1007.99	128.852	1	10	0.00510032	0.000365295	0	5.17486e-05	-0.000231219	6.89015e-06	-28.8995	0.0188619	0.016513	0.00911547	-20.9596	13.9809	13.0558	5.00109	0.0668878	0.0256074	0.071622	20.9489	128852	336569	360391	-69.0511	0.0000000E+000	0.0000000E+000	0.0000000E+000	69.0511	0.0000000E+000	0.0000000E+000	0.0000000E+000	-69.0511	0.0000000E+000	0.0000000E+000	0.0000000E+000	-20.9489	0.0000000E+000	0.0000000E+000	0.0000000E+000	20.9489	2.61205	69.0511	-2.85599e-07	-2.13619e-06	1.92624e-09	-2.13812e-06	0.256653	30779.9	27.7547	30807.7
21.5517	14.359	4.6597	15.0962	-17.979	11.4225	0.256429	-0.00874775	1584.82	150.995	1	10	0.00509911	0.000337776	0	5.10135e-05	3.58368e-05	1.31898e-05	-105.156	0.039049	-0.0102092	0.0376908	-18.127	15.0981	14.3488	4.69739	0.0630074	0.0204468	0.066242	17.979	150995	465297	489183	-72.021	0.0000000E+000	0.0000000E+000	0.0000000E+000	72.021	0.0000000E+000	0.0000000E+000	0.0000000E+000	-72.021	0.0000000E+000	0.0000000E+000	0.0000000E+000	-17.979	0.0000000E+000	0.0000000E+000	0.0000000E+000	17.979	3.08153	72.021	-7.35042e-07	-2.24318e-06	-3.13491e-10	-2.24286e-06	0.256393	29313.7	4.09669	29309.6
14.6852	15.5558	4.18113	16.1079	-15.0445	12.1322	0.25645	-0.00460136	2592.08	174.645	1	11	0.00510313	0.000316809	0	5.12214e-05	-0.000402898	6.15155e-06	-26.439	0.0194173	0.0173864	0.00864542	-15.0582	16.1269	15.5732	4.18977	0.0599534	0.0161144	0.0620813	15.0445	174645	649764	672825	-74.9555	0.0000000E+000	0.0000000E+000	0.0000000E+000	74.9555	0.0000000E+000	0.0000000E+000	0.0000000E+000	-74.9555	0.0000000E+000	0.0000000E+000	0.0000000E+000	-15.0445	0.0000000E+000	0.0000000E+000	0.0000000E+000	15.0445	3.72048	74.9555	2.07854e-07	-1.18002e-06	1.85388e-09	-1.18187e-06	0.256852	55733.5	87.5607	55821
10.0032	16.5303	3.74257	16.9487	-12.7571	12.5828	0.256445	-0.00459539	4251.19	207.291	1	11	0.00510175	0.000301012	0	5.05846e-05	-2.13895e-05	6.01946e-06	12.028	0.0199974	0.0195584	-0.00416725	-12.7288	16.9668	16.5498	3.7384	0.0575453	0.0130287	0.0590017	12.7571	207291	915568	938741	-77.2429	0.0000000E+000	0.0000000E+000	0.0000000E+000	77.2429	0.0000000E+000	0.0000000E+000	0.0000000E+000	-77.2429	0.0000000E+000	0.0000000E+000	0.0000000E+000	-12.7571	0.0000000E+000	0.0000000E+000	0.0000000E+000	12.7571	4.41682	77.2429	-6.36805e-07	-1.17846e-06	9.8293e-11	-1.17856e-06	0.256466	55804.8	4.65455	55809.4
6.81719	17.4077	3.29376	17.7166	-10.7144	12.9225	0.256464	-0.00389875	7087.98	244.988	1	11	0.00510881	0.000288363	0	4.89793e-05	-0.000231219	5.30186e-05	-98.7863	0.183861	-0.0280847	0.181703	-11.3085	17.7238	17.3797	3.47546	0.0554601	0.0104937	0.0564442	10.7144	244988	1.29478e+06	1.31775e+06	-79.2856	0.0000000E+000	0.0000000E+000	0.0000000E+000	79.2856	0.0000000E+000	0.0000000E+000	0.0000000E+000	-79.2856	0.0000000E+000	0.0000000E+000	0.0000000E+000	-10.7144	0.0000000E+000	0.0000000E+000	0.0000000E+000	10.7144	5.28507	79.2856	-1.60529e-06	-9.9989e-07	9.01465e-10	-1.00079e-06	0.256696	65781.2	59.306	65840.5
4.63925	18.0679	2.92524	18.3032	-9.19654	13.4064	0.256441	-0.00420626	11727.6	299.558	1	11	0.00509492	0.000278362	0	5.15673e-05	-0.000345672	3.18469e-05	2.48109	0.114408	0.114301	-0.00495269	-9.12449	18.4152	18.1822	2.92029	0.053933	0.0087319	0.0546353	9.19654	299558	1.85024e+06	1.87433e+06	-80.8035	0.0000000E+000	0.0000000E+000	0.0000000E+000	80.8035	0.0000000E+000	0.0000000E+000	0.0000000E+000	-80.8035	0.0000000E+000	0.0000000E+000	0.0000000E+000	-9.19654	0.0000000E+000	0.0000000E+000	0.0000000E+000	9.19654	6.17655	80.8035	2.588e-06	-1.07866e-06	1.45398e-09	-1.08011e-06	0.256787	60966.6	82.1804	61048.8
3.1604	18.7353	2.59867	18.9147	-7.89679	14.0994	0.256455	-0.00329342	19378.9	365.79	1	11	0.00509955	0.000269609	0	5.21307e-05	-0.000212144	1.71829e-06	-23.6356	0.00637327	0.00583864	0.00255517	-7.90202	18.9208	18.7411	2.60122	0.0523677	0.00726363	0.0528691	7.89679	365790	2.6372e+06	2.66244e+06	-82.1032	0.0000000E+000	0.0000000E+000	0.0000000E+000	82.1032	0.0000000E+000	0.0000000E+000	0.0000000E+000	-82.1032	0.0000000E+000	0.0000000E+000	0.0000000E+000	-7.89679	0.0000000E+000	0.0000000E+000	0.0000000E+000	7.89679	7.20958	82.1032	5.63459e-07	-8.44614e-07	6.98679e-10	-8.45313e-07	0.256667	77868.7	64.4143	77933.1
2.15577	19.2749	2.32993	19.4152	-6.89244	15.103	0.256456	-0.00260973	31686.5	456.33	1	11	0.00510718	0.000263051	0	4.78526e-05	-0.000212144	3.60429e-06	-45.7454	0.0137019	0.00956182	0.00981392	-6.91779	19.4259	19.2844	2.33975	0.0511338	0.00618103	0.0515061	6.89244	456330	3.77508e+06	3.80257e+06	-83.1076	0.0000000E+000	0.0000000E+000	0.0000000E+000	83.1076	0.0000000E+000	0.0000000E+000	0.0000000E+000	-83.1076	0.0000000E+000	0.0000000E+000	0.0000000E+000	-6.89244	0.0000000E+000	0.0000000E+000	0.0000000E+000	6.89244	8.27271	83.1076	-4.27813e-06	-6.69282e-07	5.53638e-10	-6.69835e-07	0.256668	98269.2	81.2895	98350.5
1.46631	19.7229	2.04635	19.8287	-5.92354	16.5645	0.256454	-0.00245849	53041.3	564.916	1	11	0.00510552	0.000257481	0	4.08808e-05	-0.000231219	2.85229e-06	41.5193	0.0110777	0.00829421	-0.00734308	-5.89997	19.8362	19.7312	2.03901	0.0501626	0.00520463	0.0504318	5.92354	564916	5.4447e+06	5.47393e+06	-84.0765	0.0000000E+000	0.0000000E+000	0.0000000E+000	84.0765	0.0000000E+000	0.0000000E+000	0.0000000E+000	-84.0765	0.0000000E+000	0.0000000E+000	0.0000000E+000	-5.92354	0.0000000E+000	0.0000000E+000	0.0000000E+000	5.92354	9.63807	84.0765	-6.97183e-06	-6.30488e-07	5.68449e-10	-6.31057e-07	0.256685	104314	94.0494	104408
1.00006	20.1118	1.84531	20.1962	-5.24236	19.7396	0.256465	-0.00304045	86243	719.98	1	12	0.00510525	0.000252782	0	3.49387e-05	-0.000231219	2.91269e-06	58.1142	0.0115225	0.00608654	-0.00978382	-5.21315	20.2014	20.1178	1.83552	0.0493071	0.00452406	0.0495142	5.24236	719980	7.84696e+06	7.87992e+06	-84.7576	0.0000000E+000	0.0000000E+000	0.0000000E+000	84.7576	0.0000000E+000	0.0000000E+000	0.0000000E+000	-84.7576	0.0000000E+000	0.0000000E+000	0.0000000E+000	-5.24236	0.0000000E+000	0.0000000E+000	0.0000000E+000	5.24236	10.8989	84.7576	-5.94209e-06	-7.79767e-07	7.03009e-10	-7.8047e-07	0.256696	84350.9	76.0477	84427
0.681362	20.4341	1.76374	20.5101	-4.93317	22.8515	0.256462	-0.00385884	132437	979.359	1	12	0.00510488	0.000248896	0	3.74528e-05	-9.76912e-05	2.44125e-06	-14.159	0.00980829	0.00951032	0.00239924	-4.93756	20.5197	20.4436	1.76614	0.048576	0.00419276	0.0487566	4.93317	979360	1.13465e+07	1.13887e+07	-85.0668	0.0000000E+000	0.0000000E+000	0.0000000E+000	85.0668	0.0000000E+000	0.0000000E+000	0.0000000E+000	-85.0668	0.0000000E+000	0.0000000E+000	0.0000000E+000	-4.93317	0.0000000E+000	0.0000000E+000	0.0000000E+000	4.93317	11.5857	85.0668	2.51414e-06	-9.89647e-07	3.76974e-10	-9.90024e-07	0.25656	66461	25.3162	66486.3
0.464091	20.6823	1.74644	20.7559	-4.82668	27.407	0.256462	-0.00354699	196365	1390.23	1	12	0.00510451	0.00024593	0	4.80543e-05	-0.000498275	2.34771e-06	-49.0475	0.00954626	0.00625694	0.00720984	-4.84505	20.7628	20.6886	1.75365	0.0480081	0.00405387	0.048179	4.82668	1.39023e+06	1.64639e+07	1.65225e+07	-85.1733	0.0000000E+000	0.0000000E+000	0.0000000E+000	85.1733	0.0000000E+000	0.0000000E+000	0.0000000E+000	-85.1733	0.0000000E+000	0.0000000E+000	0.0000000E+000	-4.82668	0.0000000E+000	0.0000000E+000	0.0000000E+000	4.82668	11.8426	85.1733	1.06015e-05	-9.0967e-07	1.76738e-09	-9.11438e-07	0.256961	72304.1	140.478	72444.6
0.316193	20.9469	1.8398	21.0276	-5.01949	34.083	0.256459	-0.00273409	273588	2094.4	1	12	0.00510314	0.000242688	0	6.26116e-05	-2.31406e-06	2.36546e-06	8.04783	0.00974694	0.00965094	-0.00136457	-5.01349	21.0371	20.9566	1.83844	0.0473742	0.00416094	0.0475566	5.01949	2.0944e+06	2.38457e+07	2.39375e+07	-84.9805	0.0000000E+000	0.0000000E+000	0.0000000E+000	84.9805	0.0000000E+000	0.0000000E+000	0.0000000E+000	-84.9805	0.0000000E+000	0.0000000E+000	0.0000000E+000	-5.01949	0.0000000E+000	0.0000000E+000	0.0000000E+000	5.01949	11.3854	84.9805	1.45573e-05	-7.01183e-07	6.32684e-12	-7.01189e-07	0.256462	93800.6	0.846372	93801.5
0.215268	21.2585	2.10061	21.362	-5.64323	43.8764	0.256467	-0.000950258	351963	3403.31	1	12	0.00510917	0.000239171	0	7.1204e-05	-0.000250295	1.88077e-06	19.8039	0.00786373	0.00739865	-0.00266425	-5.63417	21.3691	21.2659	2.09794	0.0465852	0.0046032	0.0468121	5.64323	3.40331e+06	3.4442e+07	3.46098e+07	-84.3568	0.0000000E+000	0.0000000E+000	0.0000000E+000	84.3568	0.0000000E+000	0.0000000E+000	0.0000000E+000	-84.3568	0.0000000E+000	0.0000000E+000	0.0000000E+000	-5.64323	0.0000000E+000	0.0000000E+000	0.0000000E+000	5.64323	10.1202	84.3568	8.59238e-06	-2.43709e-07	2.37844e-10	-2.43947e-07	0.256717	269892	263.396	270155
0.146929	21.5684	2.57196	21.7212	-6.80023	58.2148	0.256467	9.16939e-05	421162	5904.88	1	12	0.00510339	0.00023495	0	5.74479e-05	-0.000345672	2.54373e-06	-39.7128	0.0108267	0.00832849	0.0069176	-6.81574	21.7303	21.5767	2.57888	0.0457142	0.00545127	0.046038	6.80023	5.90488e+06	4.95181e+07	4.98689e+07	-83.1998	0.0000000E+000	0.0000000E+000	0.0000000E+000	83.1998	0.0000000E+000	0.0000000E+000	0.0000000E+000	-83.1998	0.0000000E+000	0.0000000E+000	0.0000000E+000	-6.80023	0.0000000E+000	0.0000000E+000	0.0000000E+000	6.80023	8.38597	83.1998	-1.37561e-05	2.35164e-08	-3.1696e-11	2.35481e-08	0.256812	2.79699e+06	3769.84	2.80076e+06
0.0999041	21.9304	3.21461	22.1648	-8.33916	79.291	0.256472	0.000346695	495574	10424.1	1	12	0.00510321	0.00023024	0	5.81559e-06	-7.86157e-05	2.21776e-06	23.6251	0.0096324	0.00882508	-0.00386019	-8.32598	22.173	21.9393	3.21075	0.0446396	0.00654337	0.0451166	8.33916	1.04241e+07	7.11143e+07	7.18742e+07	-81.6608	0.0000000E+000	0.0000000E+000	0.0000000E+000	81.6608	0.0000000E+000	0.0000000E+000	0.0000000E+000	-81.6608	0.0000000E+000	0.0000000E+000	0.0000000E+000	-8.33916	0.0000000E+000	0.0000000E+000	0.0000000E+000	8.33916	6.82211	81.6608	-5.16323e-05	8.89177e-08	-2.72557e-11	8.8945e-08	0.256551	739763	226.758	739990
0.0680626	22.4302	4.02936	22.7892	-10.184	110.219	0.256474	-0.000176117	580331	18142.2	1	12	0.00510417	0.000223973	0	-8.3681e-05	-0.000288445	3.21162e-06	44.6026	0.0143393	0.0102095	-0.0100688	-10.1546	22.7975	22.4404	4.01929	0.0431891	0.0077585	0.0438804	10.184	1.81422e+07	1.00992e+08	1.02608e+08	-79.816	0.0000000E+000	0.0000000E+000	0.0000000E+000	79.816	0.0000000E+000	0.0000000E+000	0.0000000E+000	-79.816	0.0000000E+000	0.0000000E+000	0.0000000E+000	-10.184	0.0000000E+000	0.0000000E+000	0.0000000E+000	10.184	5.56669	79.816	-8.94966e-05	-4.51695e-08	5.08002e-11	-4.52203e-08	0.256762	1.45627e+06	1637.8	1.4579e+06
0.0464052	23.1912	5.08928	23.743	-12.3773	155.57	0.256475	-0.00187943	673903	30962.6	1	12	0.00510582	0.000215045	0	-0.000207927	-0.000345672	2.41239e-06	13.8271	0.0112181	0.010893	-0.00268103	-12.3653	23.7531	23.2021	5.08659	0.0411387	0.00902783	0.0421176	12.3773	3.09625e+07	1.41092e+08	1.4445e+08	-77.6227	0.0000000E+000	0.0000000E+000	0.0000000E+000	77.6227	0.0000000E+000	0.0000000E+000	0.0000000E+000	-77.6227	0.0000000E+000	0.0000000E+000	0.0000000E+000	-12.3773	0.0000000E+000	0.0000000E+000	0.0000000E+000	12.3773	4.55687	77.6227	-0.000124246	-4.82026e-07	6.49664e-10	-4.82676e-07	0.256821	136465	183.924	136649
0.0315922	24.095	6.71004	25.0118	-15.5616	222.176	0.256463	-0.00291593	750785	54034.8	1	12	0.00510645	0.000204161	0	-0.000292572	-0.000154917	1.52199e-06	26.3312	0.00745484	0.00668136	-0.00330667	-15.5502	25.0174	24.1016	6.70673	0.0385155	0.0107259	0.0399811	15.5616	5.40348e+07	1.94033e+08	2.01416e+08	-74.4384	0.0000000E+000	0.0000000E+000	0.0000000E+000	74.4384	0.0000000E+000	0.0000000E+000	0.0000000E+000	-74.4384	0.0000000E+000	0.0000000E+000	0.0000000E+000	-15.5616	0.0000000E+000	0.0000000E+000	0.0000000E+000	15.5616	3.59089	74.4384	-8.46452e-05	-7.4783e-07	4.51729e-10	-7.48282e-07	0.256618	87952.4	53.1279	88005.5
0.0215268	24.9939	8.82463	26.506	-19.4467	319.914	0.256464	-0.00268991	837808	92864.2	1	12	0.00510336	0.000192536	0	-0.000233827	-0.000154917	8.63668e-07	-34.7051	0.00448575	0.00368771	0.00255397	-19.4492	26.5103	24.9976	8.82718	0.035575	0.0125605	0.0377273	19.4467	9.28642e+07	2.63018e+08	2.78931e+08	-70.5533	0.0000000E+000	0.0000000E+000	0.0000000E+000	70.5533	0.0000000E+000	0.0000000E+000	0.0000000E+000	-70.5533	0.0000000E+000	0.0000000E+000	0.0000000E+000	-19.4467	0.0000000E+000	0.0000000E+000	0.0000000E+000	19.4467	2.83229	70.5533	5.87443e-05	-6.89865e-07	4.16714e-10	-6.90282e-07	0.256619	95342.9	57.592	95400.4
0.0146812	26.2122	11.4067	28.5865	-23.5171	463.217	0.256466	-0.00217446	950386	151320	1	12	0.0051054	0.000178595	0	2.27109e-05	-5.95403e-05	1.13462e-06	-24.9338	0.00635302	0.00576089	0.00267825	-23.5174	28.5929	26.2179	11.4094	0.032076	0.0139584	0.0349815	23.5171	1.5132e+08	3.47728e+08	3.79226e+08	-66.4829	0.0000000E+000	0.0000000E+000	0.0000000E+000	66.4829	0.0000000E+000	0.0000000E+000	0.0000000E+000	-66.4829	0.0000000E+000	0.0000000E+000	0.0000000E+000	-23.5171	0.0000000E+000	0.0000000E+000	0.0000000E+000	23.5171	2.29797	66.4829	0.000256538	-5.57676e-07	1.29468e-10	-5.57805e-07	0.256526	117945	27.3817	117972
0.0100092	28.1561	14.917	31.8635	-27.9145	673.4	0.256471	-0.00154996	1.06596e+06	233624	1	12	0.00510494	0.000160213	0	0.000366097	-0.000250295	2.42867e-06	18.9402	0.015159	0.0143383	-0.00492035	-27.8946	31.8739	28.1704	14.9121	0.0277323	0.0146925	0.0313839	27.9145	2.33624e+08	4.40968e+08	4.99032e+08	-62.0855	0.0000000E+000	0.0000000E+000	0.0000000E+000	62.0855	0.0000000E+000	0.0000000E+000	0.0000000E+000	-62.0855	0.0000000E+000	0.0000000E+000	0.0000000E+000	-27.9145	0.0000000E+000	0.0000000E+000	0.0000000E+000	27.9145	1.88752	62.0855	0.000343386	-3.97519e-07	3.87946e-10	-3.97907e-07	0.256721	165469	161.485	165631