File: txt/18824_R307_UA701_4p38_SOC00_C03.mpt
EC-Lab ASCII FILE
Nb header lines : 65

Potentio Electrochemical Impedance Spectroscopy

Run on channel : 3 (SN 65921)
User :
CE vs. WE compliance from -10 V to 10 V
Electrode connection : standard
Potential control : Ewe
Ewe ctrl range : min = -10.00 V, max = 10.00 V
Safety Limits :
	Do not start on E overload
Acquisition started on : 11/03/2025 17:10:54.406
Technique started on : 11/03/2025 17:10:56.275
Loaded Setting File :  C:\Users\Celltest\OneDrive - store-dot.com\Documents\EC-Lab\Data\@Biologic Test Protocols\anode half cell EIS SOC00.mps
Saved on :
	File : 18824_R307_UA701_4p38_SOC00_C03.mpr
	Directory : C:\Users\Celltest\OneDrive - store-dot.com\Documents\EC-Lab\Data\Anna\
	Host : 169.254.61.224
Device : VMP-3e (SN .003165)
Address : USB
EC-LAB for windows v11.62 (software)
Internet server v27.00 (firmware)
Command interpretor v12.03 (firmware)
Electrode material :
Initial state :
Electrolyte :
Comments :
Electrode surface area : 0.001 cm²
Characteristic mass : 0.001 g
Equivalent Weight : 0.000 g/eq.
Density : 0.000 g/cm3
Volume (V) : 0.001 cm³
Record Ece
Cycle Definition : Charge/Discharge alternance
Mode                Single sine
E (V)               0.0000
vs.                 Eoc
tE (h:m:s)          0:00:0.0000
record              0
dI                  0.000
unit dI             mA
dt (s)              0.000
fi                  100.000
unit fi             kHz
ff                  10.000
unit ff             mHz
Nd                  6
Points              per decade
spacing             Logarithmic
Va (mV)             5.0
pw                  0.10
Na                  2
corr                0
E range min (V)     -10.000
E range max (V)     10.000
I Range             Auto
Bandwidth           5
nc cycles           0
goto Ns'            0
nr cycles           0
inc. cycle          0

freq/Hz	Re(Z)/Ohm	-Im(Z)/Ohm	|Z|/Ohm	Phase(Z)/deg	time/s	<Ewe>/V	<I>/mA	Cs/µF	Cp/µF	cycle number	I Range	|Ewe|/V	|I|/A	Ns	(Q-Qo)/mA.h	<Ece>/V	|Ece|/V	Phase(Zce)/deg	|Zce|/Ohm	Re(Zce)/Ohm	-Im(Zce)/Ohm	Phase(Zwe-ce)/deg	|Zwe-ce|/Ohm	Re(Zwe-ce)/Ohm	-Im(Zwe-ce)/Ohm	Re(Y)/Ohm-1	Im(Y)/Ohm-1	|Y|/Ohm-1	Phase(Y)/deg	Re(C)/nF	Im(C)/nF	|C|/nF	Phase(C)/deg	Re(M)	Im(M)	|M|	Phase(M)/deg	Re(Permittivity)	Im(Permittivity)	|Permittivity|	Phase(Permittivity)/deg	Re(Resistivity)/Ohm.cm	Im(Resistivity)/Ohm.cm	|Resistivity|/Ohm.cm	Phase(Resistivity)/deg	Re(Conductivity)/mS/cm	Im(Conductivity)/mS/cm	|Conductivity|/mS/cm	Phase(Conductivity)/deg	Tan(Delta)	Loss Angle(Delta)/deg	dq/mA.h	Pwe/W	Pce/W	Pwe-ce/W	<Ewe-Ece>/V	Rwe/Ohm	Rce/Ohm	Rwe-ce/Ohm		Ewe-Ece/V
100004	1.48841	0.539925	1.58332	-19.9383	1.86852	0.249973	0.0316559	2.94761	0.342768	1	9	0.00490167	0.00309582	0	-8.34769e-06	-0.000137797	2.77307e-05	59.875	0.00895746	0.00449564	-0.0077476	-19.6196	1.58493	1.49291	0.532177	0.593728	0.215376	0.631585	19.9383	342.768	944.912	1005.16	-70.0617	0.0000000E+000	0.0000000E+000	0.0000000E+000	70.0617	0.0000000E+000	0.0000000E+000	0.0000000E+000	-70.0617	0.0000000E+000	0.0000000E+000	0.0000000E+000	-19.9383	0.0000000E+000	0.0000000E+000	0.0000000E+000	19.9383	2.75671	70.0617	-8.34769e-06	7.91312e-06	-4.36209e-09	7.91749e-06	0.250111	7896.59	4.35298	7900.95
68132	1.64141	0.622067	1.75533	-20.7559	2.25156	0.249972	0.030537	3.75519	0.471615	1	9	0.0052121	0.0029693	0	4.16209e-06	1.49552e-05	2.30579e-05	41.1042	0.00776546	0.00585139	-0.00510525	-20.5329	1.75901	1.64726	0.616962	0.532719	0.201892	0.569693	20.7559	471.615	1244.42	1330.79	-69.2441	0.0000000E+000	0.0000000E+000	0.0000000E+000	69.2441	0.0000000E+000	0.0000000E+000	0.0000000E+000	-69.2441	0.0000000E+000	0.0000000E+000	0.0000000E+000	-20.7559	0.0000000E+000	0.0000000E+000	0.0000000E+000	20.7559	2.63863	69.2441	1.25098e-05	7.63339e-06	4.56689e-10	7.63294e-06	0.249957	8185.85	0.489741	8185.36
46420.4	1.81632	0.689589	1.94282	-20.7899	2.63453	0.249967	0.0325882	4.97189	0.626379	1	9	0.00532908	0.00274296	0	9.09632e-06	9.13315e-05	1.82989e-05	19.7836	0.00667122	0.00627747	-0.002258	-20.6623	1.94789	1.8226	0.687331	0.481202	0.182695	0.514716	20.7899	626.379	1649.83	1764.73	-69.2101	0.0000000E+000	0.0000000E+000	0.0000000E+000	69.2101	0.0000000E+000	0.0000000E+000	0.0000000E+000	-69.2101	0.0000000E+000	0.0000000E+000	0.0000000E+000	-20.7899	0.0000000E+000	0.0000000E+000	0.0000000E+000	20.7899	2.63391	69.2101	4.93423e-06	8.14597e-06	2.97633e-09	8.14299e-06	0.249876	7670.48	2.8026	7667.67
31621.1	1.99508	0.754131	2.13286	-20.7063	3.01756	0.249958	0.0216239	6.67415	0.834385	1	9	0.00532742	0.00249779	0	6.51545e-06	0.000186802	1.64063e-05	51.6086	0.00656831	0.00407912	-0.00514816	-20.5384	2.13486	1.99916	0.748983	0.438569	0.165777	0.468855	20.7063	834.384	2207.4	2359.83	-69.2937	0.0000000E+000	0.0000000E+000	0.0000000E+000	69.2937	0.0000000E+000	0.0000000E+000	0.0000000E+000	-69.2937	0.0000000E+000	0.0000000E+000	0.0000000E+000	-20.7063	0.0000000E+000	0.0000000E+000	0.0000000E+000	20.7063	2.64554	69.2937	-2.58087e-06	5.40507e-06	4.03938e-09	5.40103e-06	0.249772	11559.4	8.63869	11550.7
21544.7	2.18295	0.811545	2.32892	-20.3934	3.40055	0.249968	0.0371007	9.10264	1.1053	1	9	0.00539731	0.00231751	0	1.6968e-05	-0.000118703	9.3742e-06	64.7828	0.00404494	0.00172335	-0.00365945	-20.2942	2.32927	2.18468	0.807885	0.40247	0.149624	0.429383	20.3934	1105.3	2973.13	3171.94	-69.6066	0.0000000E+000	0.0000000E+000	0.0000000E+000	69.6066	0.0000000E+000	0.0000000E+000	0.0000000E+000	-69.6066	0.0000000E+000	0.0000000E+000	0.0000000E+000	-20.3934	0.0000000E+000	0.0000000E+000	0.0000000E+000	20.3934	2.68987	69.6066	1.04526e-05	9.27397e-06	-4.40397e-09	9.27838e-06	0.250086	6737.55	3.19949	6740.75
14678.6	2.37596	0.869664	2.53011	-20.104	3.78352	0.249958	0.029269	12.4676	1.47301	1	9	0.00538251	0.00212738	0	2.43819e-05	-0.000366926	1.50516e-05	-41.3228	0.00707521	0.00531349	0.00467176	-20.1618	2.53671	2.38127	0.874336	0.371157	0.135854	0.395239	20.104	1473.01	4024.33	4285.44	-69.896	0.0000000E+000	0.0000000E+000	0.0000000E+000	69.896	0.0000000E+000	0.0000000E+000	0.0000000E+000	-69.896	0.0000000E+000	0.0000000E+000	0.0000000E+000	-20.104	0.0000000E+000	0.0000000E+000	0.0000000E+000	20.104	2.73204	69.896	7.41392e-06	7.31604e-06	-1.07396e-08	7.32678e-06	0.250325	8540.03	12.5363	8552.56
10002.2	2.5758	0.948255	2.7448	-20.2107	4.16655	0.249979	0.0249803	16.7803	2.00276	1	9	0.00532477	0.00193995	0	2.38317e-05	0.000263178	7.82532e-06	-54.8032	0.00403377	0.00232501	0.0032963	-20.2585	2.74812	2.57812	0.951551	0.341894	0.125865	0.364326	20.2107	2002.76	5440.19	5797.13	-69.7893	0.0000000E+000	0.0000000E+000	0.0000000E+000	69.7893	0.0000000E+000	0.0000000E+000	0.0000000E+000	-69.7893	0.0000000E+000	0.0000000E+000	0.0000000E+000	-20.2107	0.0000000E+000	0.0000000E+000	0.0000000E+000	20.2107	2.71635	69.7893	-5.50194e-07	6.24453e-06	6.57426e-09	6.23796e-06	0.249716	10007	10.5354	9996.51
6810.42	2.77957	1.0252	2.96261	-20.2457	4.54953	0.24997	0.0250921	22.7949	2.72965	1	9	0.00509564	0.00171998	0	2.9108e-05	0.00022499	7.07275e-05	-83.7965	0.041121	0.00444355	0.0408802	-20.9533	2.98115	2.78401	1.06608	0.316686	0.116805	0.337541	20.2457	2729.65	7400.75	7888.1	-69.7543	0.0000000E+000	0.0000000E+000	0.0000000E+000	69.7543	0.0000000E+000	0.0000000E+000	0.0000000E+000	-69.7543	0.0000000E+000	0.0000000E+000	0.0000000E+000	-20.2457	0.0000000E+000	0.0000000E+000	0.0000000E+000	20.2457	2.71124	69.7543	5.27629e-06	6.27228e-06	5.64548e-09	6.26663e-06	0.249745	9962.08	8.96655	9953.11
4646	3.02697	1.1481	3.23739	-20.7712	4.94263	0.249959	0.022668	29.8375	3.75257	1	9	0.00506155	0.00156346	0	3.37757e-05	-0.000175985	1.10282e-05	-77.2657	0.00705371	0.00155485	0.00688021	-20.8752	3.24129	3.02853	1.15498	0.288814	0.109544	0.308891	20.7712	3752.57	9893.71	10581.5	-69.2288	0.0000000E+000	0.0000000E+000	0.0000000E+000	69.2288	0.0000000E+000	0.0000000E+000	0.0000000E+000	-69.2288	0.0000000E+000	0.0000000E+000	0.0000000E+000	-20.7712	0.0000000E+000	0.0000000E+000	0.0000000E+000	20.7712	2.63651	69.2288	4.6677e-06	5.66608e-06	-3.98925e-09	5.67007e-06	0.250135	11026.9	7.76359	11034.7
3163.08	3.28745	1.29177	3.53214	-21.4518	5.31567	0.249911	0.00864566	38.9515	5.20978	1	9	0.00512779	0.00145175	0	3.37945e-05	7.22374e-05	8.58446e-06	-100.766	0.00591317	-0.0011046	0.00580908	-21.5461	3.53324	3.28635	1.29758	0.263502	0.10354	0.283114	21.4518	5209.78	13258.5	14245.3	-68.5482	0.0000000E+000	0.0000000E+000	0.0000000E+000	68.5482	0.0000000E+000	0.0000000E+000	0.0000000E+000	-68.5482	0.0000000E+000	0.0000000E+000	0.0000000E+000	-21.4518	0.0000000E+000	0.0000000E+000	0.0000000E+000	21.4518	2.54492	68.5482	1.87512e-08	2.16065e-06	6.2454e-10	2.16002e-06	0.249839	28905.9	8.35534	28897.6
2155.69	3.55894	1.45402	3.84451	-22.2226	6.01178	0.249946	-0.0143605	50.7766	7.2631	1	10	0.00514935	0.0013394	0	3.42516e-05	0.00012952	5.05794e-06	-143.989	0.00377626	-0.00305464	0.00222021	-22.2705	3.84252	3.55589	1.45624	0.240791	0.0983758	0.260111	22.2226	7263.1	17777.6	19204.1	-67.7774	0.0000000E+000	0.0000000E+000	0.0000000E+000	67.7774	0.0000000E+000	0.0000000E+000	0.0000000E+000	-67.7774	0.0000000E+000	0.0000000E+000	0.0000000E+000	-22.2226	0.0000000E+000	0.0000000E+000	0.0000000E+000	22.2226	2.44766	67.7774	4.5713e-07	-3.58935e-06	-1.85997e-09	-3.58749e-06	0.249816	17405	9.01913	17396
1468.59	3.88055	1.64258	4.21387	-22.9422	6.46312	0.249951	-0.0143792	65.9771	10.025	1	10	0.00506928	0.001203	0	3.14861e-05	0.00012952	1.11186e-05	-156.38	0.00924243	-0.00846813	0.00370315	-23.0336	4.20752	3.87208	1.64628	0.21854	0.0925047	0.237311	22.9422	10025	23683.7	25718.1	-67.0578	0.0000000E+000	0.0000000E+000	0.0000000E+000	67.0578	0.0000000E+000	0.0000000E+000	0.0000000E+000	-67.0578	0.0000000E+000	0.0000000E+000	0.0000000E+000	-22.9422	0.0000000E+000	0.0000000E+000	0.0000000E+000	22.9422	2.36247	67.0578	-2.76545e-06	-3.59409e-06	-1.86239e-09	-3.59223e-06	0.249822	17382.8	9.00744	17373.8
1000.32	4.24976	1.89348	4.6525	-24.0153	6.91377	0.249949	-0.0143195	84.0274	13.9177	1	10	0.00500356	0.00107546	0	3.05001e-05	-0.000175985	1.25125e-05	41.8069	0.0116346	0.00867238	-0.00775588	-23.8847	4.65727	4.25843	1.88572	0.196333	0.0874758	0.214938	24.0153	13917.7	31237.3	34197.5	-65.9847	0.0000000E+000	0.0000000E+000	0.0000000E+000	65.9847	0.0000000E+000	0.0000000E+000	0.0000000E+000	-65.9847	0.0000000E+000	0.0000000E+000	0.0000000E+000	-24.0153	0.0000000E+000	0.0000000E+000	0.0000000E+000	24.0153	2.24442	65.9847	-9.86029e-07	-3.57915e-06	2.52003e-09	-3.58167e-06	0.250125	17455.1	12.2899	17467.4
681.09	4.65656	2.19367	5.1474	-25.2247	7.36455	0.249938	-0.014368	106.523	19.3469	1	10	0.00493894	0.000959501	0	2.78711e-05	-0.000328738	1.4466e-05	36.5365	0.0150766	0.0121137	-0.00897563	-25.0771	5.15455	4.66868	2.18469	0.175748	0.0827932	0.194273	25.2247	19346.9	41068.1	45397.1	-64.7753	0.0000000E+000	0.0000000E+000	0.0000000E+000	64.7753	0.0000000E+000	0.0000000E+000	0.0000000E+000	-64.7753	0.0000000E+000	0.0000000E+000	0.0000000E+000	-25.2247	0.0000000E+000	0.0000000E+000	0.0000000E+000	25.2247	2.12273	64.7753	-2.62902e-06	-3.5911e-06	4.72331e-09	-3.59583e-06	0.250266	17395.4	22.8799	17418.3
463.961	5.14451	2.5757	5.75328	-26.5958	7.81634	0.24995	-0.013391	133.181	26.6934	1	10	0.00490961	0.000853359	0	2.67039e-05	-0.000118703	1.0426e-05	-24.3909	0.0122176	0.0111271	0.00504537	-26.5911	5.76548	5.15563	2.58075	0.155422	0.0778153	0.173814	26.5958	26693.4	53315.4	59624.4	-63.4042	0.0000000E+000	0.0000000E+000	0.0000000E+000	63.4042	0.0000000E+000	0.0000000E+000	0.0000000E+000	-63.4042	0.0000000E+000	0.0000000E+000	0.0000000E+000	-26.5958	0.0000000E+000	0.0000000E+000	0.0000000E+000	26.5958	1.99732	63.4042	-1.16718e-06	-3.34709e-06	1.58956e-09	-3.34867e-06	0.250068	18665.4	8.86438	18674.3
316.316	5.74519	3.03819	6.49906	-27.8709	8.26407	0.249939	-0.014409	165.609	36.192	1	10	0.00487746	0.000750487	0	2.4433e-05	-6.1421e-05	1.0575e-05	-42.7544	0.0140908	0.0103465	0.00956565	-27.9028	6.51268	5.75554	3.04776	0.13602	0.0719306	0.153868	27.8709	36192	68438.7	77419.1	-62.1291	0.0000000E+000	0.0000000E+000	0.0000000E+000	62.1291	0.0000000E+000	0.0000000E+000	0.0000000E+000	-62.1291	0.0000000E+000	0.0000000E+000	0.0000000E+000	-27.8709	0.0000000E+000	0.0000000E+000	0.0000000E+000	27.8709	1.89099	62.1291	-2.27087e-06	-3.60137e-06	8.85017e-10	-3.60226e-06	0.25	17346	4.26267	17350.2
215.345	6.53824	3.57336	7.451	-28.658	8.71456	0.249938	-0.0140212	206.828	47.57	1	10	0.00487532	0.000654318	0	2.25689e-05	1.49552e-05	6.86194e-06	90.494	0.0104872	-9.04228e-05	-0.0104868	-28.5875	7.4459	6.53814	3.56287	0.117769	0.0643646	0.13421	28.658	47570	87039.8	99190.9	-61.342	0.0000000E+000	0.0000000E+000	0.0000000E+000	61.342	0.0000000E+000	0.0000000E+000	0.0000000E+000	-61.342	0.0000000E+000	0.0000000E+000	0.0000000E+000	-28.658	0.0000000E+000	0.0000000E+000	0.0000000E+000	28.658	1.82972	61.342	-1.86416e-06	-3.50444e-06	-2.09691e-10	-3.50423e-06	0.249923	17825.7	1.06661	17824.6
146.737	7.51905	4.10721	8.56769	-28.6452	9.16047	0.249937	-0.0150914	264.078	60.6874	1	10	0.00485741	0.000566945	0	2.1489e-05	0.000205896	7.48024e-06	-78.2761	0.013194	0.00268096	0.0129187	-28.7123	8.57625	7.52173	4.12013	0.102432	0.0559525	0.116718	28.6452	60687.4	111100	126595	-61.3548	0.0000000E+000	0.0000000E+000	0.0000000E+000	61.3548	0.0000000E+000	0.0000000E+000	0.0000000E+000	-61.3548	0.0000000E+000	0.0000000E+000	0.0000000E+000	-28.6452	0.0000000E+000	0.0000000E+000	0.0000000E+000	28.6452	1.83069	61.3548	-1.07984e-06	-3.7719e-06	-3.10726e-09	-3.76879e-06	0.249731	16561.5	13.6432	16547.9
100.032	8.76429	4.56329	9.88111	-27.5046	9.61185	0.249936	-0.0135626	348.661	74.3614	1	10	0.00485579	0.000491422	0	1.94471e-05	-9.96091e-05	5.90976e-06	-4.50221	0.0120258	0.0119887	0.000943998	-27.4773	9.89218	8.77628	4.56423	0.0897646	0.0467376	0.101203	27.5046	74361.4	142819	161018	-62.4954	0.0000000E+000	0.0000000E+000	0.0000000E+000	62.4954	0.0000000E+000	0.0000000E+000	0.0000000E+000	-62.4954	0.0000000E+000	0.0000000E+000	0.0000000E+000	-27.5046	0.0000000E+000	0.0000000E+000	0.0000000E+000	27.5046	1.92061	62.4954	-2.04199e-06	-3.38978e-06	1.35096e-09	-3.39113e-06	0.250036	18428.4	7.34441	18435.7
68.104	10.166	4.83931	11.2591	-25.4558	10.0745	0.249945	-0.0123059	482.908	89.2124	1	10	0.00485916	0.000431577	0	1.76349e-05	-0.000118703	1.00256e-05	53.3845	0.0232302	0.0138555	-0.0186458	-25.3398	11.2636	10.1799	4.82066	0.0801946	0.0381749	0.0888172	25.4558	89212.4	187410	207560	-64.5442	0.0000000E+000	0.0000000E+000	0.0000000E+000	64.5442	0.0000000E+000	0.0000000E+000	0.0000000E+000	-64.5442	0.0000000E+000	0.0000000E+000	0.0000000E+000	-25.4558	0.0000000E+000	0.0000000E+000	0.0000000E+000	25.4558	2.10072	64.5442	-1.81218e-06	-3.07582e-06	1.46076e-09	-3.07728e-06	0.250064	20310.9	9.646	20320.6
46.4415	11.6265	4.86263	12.6024	-22.6965	10.5117	0.249934	-0.0147446	704.762	104.925	1	10	0.00485101	0.000384927	0	1.6201e-05	9.13315e-05	6.15533e-06	-22.9683	0.0159909	0.0147232	0.00623999	-22.6968	12.6184	11.6412	4.86887	0.0732052	0.0306171	0.0793499	22.6965	104925	250874	271932	-67.3036	0.0000000E+000	0.0000000E+000	0.0000000E+000	67.3036	0.0000000E+000	0.0000000E+000	0.0000000E+000	-67.3036	0.0000000E+000	0.0000000E+000	0.0000000E+000	-22.6965	0.0000000E+000	0.0000000E+000	0.0000000E+000	22.6965	2.39099	67.3036	-1.43387e-06	-3.68519e-06	-1.34665e-09	-3.68384e-06	0.249843	16950.9	6.19422	16944.7
31.6296	13.005	4.66763	13.8173	-19.7435	10.9416	0.249933	-0.0152816	1078.03	123.02	1	10	0.00483853	0.000350179	0	1.40858e-05	-0.000195079	4.08852e-06	62.0344	0.0116755	0.00547514	-0.0103121	-19.6956	13.819	13.0105	4.65731	0.0681186	0.0244484	0.0723731	19.7435	123020	342762	364170	-70.2565	0.0000000E+000	0.0000000E+000	0.0000000E+000	70.2565	0.0000000E+000	0.0000000E+000	0.0000000E+000	-70.2565	0.0000000E+000	0.0000000E+000	0.0000000E+000	-19.7435	0.0000000E+000	0.0000000E+000	0.0000000E+000	19.7435	2.78622	70.2565	-2.11516e-06	-3.81937e-06	2.98113e-09	-3.82235e-06	0.250128	16355.1	12.7656	16367.9
21.5517	14.2172	4.34372	14.866	-16.9892	11.3625	0.249923	-0.0164115	1700.11	145.149	1	10	0.00484074	0.000325625	0	1.2036e-05	5.31434e-05	3.1695e-06	91.5701	0.00973359	-0.0002667	-0.00972994	-16.9537	14.8629	14.217	4.33399	0.0643321	0.0196551	0.0672677	16.9892	145149	475079	496758	-73.0108	0.0000000E+000	0.0000000E+000	0.0000000E+000	73.0108	0.0000000E+000	0.0000000E+000	0.0000000E+000	-73.0108	0.0000000E+000	0.0000000E+000	0.0000000E+000	-16.9892	0.0000000E+000	0.0000000E+000	0.0000000E+000	16.9892	3.27305	73.0108	-2.04988e-06	-4.10159e-06	-8.7216e-10	-4.10072e-06	0.249869	15228.5	3.23819	15225.3
14.6852	15.3296	3.9475	15.8297	-14.4404	12.0722	0.249959	-0.0104335	2745.49	170.734	1	11	0.00485214	0.000306521	0	7.70491e-06	0.000148614	5.13036e-06	-83.6756	0.0167374	0.00184376	0.0166355	-14.497	15.8356	15.3314	3.96414	0.0611767	0.0157535	0.0631724	14.4404	170734	663021	684651	-75.5596	0.0000000E+000	0.0000000E+000	0.0000000E+000	75.5596	0.0000000E+000	0.0000000E+000	0.0000000E+000	-75.5596	0.0000000E+000	0.0000000E+000	0.0000000E+000	-14.4404	0.0000000E+000	0.0000000E+000	0.0000000E+000	14.4404	3.88337	75.5596	-4.33106e-06	-2.60795e-06	-1.55056e-09	-2.60639e-06	0.249811	23957.4	14.2439	23943.2
10.0032	16.2294	3.50667	16.604	-12.1924	12.5228	0.249961	-0.010501	4537.18	202.373	1	11	0.00484177	0.000291603	0	7.53772e-06	-0.000195079	5.96482e-06	0.544298	0.0204552	0.0204543	-0.000194318	-12.1768	16.6239	16.2499	3.50648	0.0588681	0.0127195	0.0602266	12.1924	202373	936615	958229	-77.8076	0.0000000E+000	0.0000000E+000	0.0000000E+000	77.8076	0.0000000E+000	0.0000000E+000	0.0000000E+000	-77.8076	0.0000000E+000	0.0000000E+000	0.0000000E+000	-12.1924	0.0000000E+000	0.0000000E+000	0.0000000E+000	12.1924	4.62816	77.8076	-1.67189e-07	-2.62483e-06	2.04853e-09	-2.62688e-06	0.250156	23803.6	18.5773	23822.1
6.81719	17.0509	3.10534	17.3314	-10.3217	12.8625	0.249956	-0.0105327	7518.06	241.357	1	11	0.00484556	0.000279584	0	6.61873e-06	-0.000233268	4.25491e-06	-7.99045	0.0152187	0.015071	0.00211553	-10.3196	17.3466	17.066	3.10746	0.0567652	0.0103382	0.0576989	10.3217	241356	1.32525e+06	1.34705e+06	-79.6783	0.0000000E+000	0.0000000E+000	0.0000000E+000	79.6783	0.0000000E+000	0.0000000E+000	0.0000000E+000	-79.6783	0.0000000E+000	0.0000000E+000	0.0000000E+000	-10.3217	0.0000000E+000	0.0000000E+000	0.0000000E+000	10.3217	5.49083	79.6783	-9.18992e-07	-2.63271e-06	2.45693e-09	-2.63516e-06	0.25019	23731.5	22.147	23753.7
4.63925	17.6935	2.7769	17.9101	-8.9195	13.3464	0.249965	-0.00985437	12354.1	296.986	1	11	0.0048398	0.000270227	0	2.35795e-06	0.000186802	9.0071e-06	30.4545	0.0333316	0.0287329	-0.0168943	-8.85195	17.9359	17.7223	2.76001	0.0551591	0.00865692	0.0558343	8.9195	296986	1.8923e+06	1.91546e+06	-81.0805	0.0000000E+000	0.0000000E+000	0.0000000E+000	81.0805	0.0000000E+000	0.0000000E+000	0.0000000E+000	-81.0805	0.0000000E+000	0.0000000E+000	0.0000000E+000	-8.9195	0.0000000E+000	0.0000000E+000	0.0000000E+000	8.9195	6.37168	81.0805	-4.26078e-06	-2.46325e-06	-1.84081e-09	-2.46141e-06	0.249779	25366	18.9563	25347
3.1604	18.3676	2.47348	18.5334	-7.66961	14.0395	0.24996	-0.0100041	20359.7	362.64	1	11	0.0048523	0.000261814	0	1.03201e-06	-0.000156891	4.67011e-06	-5.2198	0.0178375	0.0177636	0.0016228	-7.66725	18.5512	18.3854	2.4751	0.053474	0.00720108	0.0539567	7.66961	362641	2.6929e+06	2.71721e+06	-82.3304	0.0000000E+000	0.0000000E+000	0.0000000E+000	82.3304	0.0000000E+000	0.0000000E+000	0.0000000E+000	-82.3304	0.0000000E+000	0.0000000E+000	0.0000000E+000	-7.66961	0.0000000E+000	0.0000000E+000	0.0000000E+000	7.66961	7.42583	82.3304	-1.32594e-06	-2.50063e-06	1.56955e-09	-2.50219e-06	0.250117	24985.8	15.6827	25001.5
2.15577	18.8348	2.19051	18.9618	-6.63376	15.0431	0.249966	-0.00949964	33703.3	449.786	1	11	0.00484617	0.000255576	0	2.88893e-06	0.00012952	3.13387e-06	-47.0256	0.012262	0.00835864	0.00897157	-6.65776	18.9711	18.8432	2.19948	0.0523846	0.00609239	0.0527377	6.63376	449786	3.86743e+06	3.89349e+06	-83.3662	0.0000000E+000	0.0000000E+000	0.0000000E+000	83.3662	0.0000000E+000	0.0000000E+000	0.0000000E+000	-83.3662	0.0000000E+000	0.0000000E+000	0.0000000E+000	-6.63376	0.0000000E+000	0.0000000E+000	0.0000000E+000	6.63376	8.59837	83.3662	1.85692e-06	-2.37459e-06	-1.23039e-09	-2.37336e-06	0.249836	26313.2	13.6342	26299.6
1.46631	19.2875	1.93414	19.3842	-5.72645	16.5046	0.249964	-0.00865113	56118.6	558.71	1	11	0.00484856	0.000250129	0	3.7886e-06	-2.32329e-05	3.52703e-06	85.5815	0.0141008	0.00108633	-0.0140589	-5.68478	19.3839	19.2885	1.92008	0.051331	0.00514745	0.0515884	5.72645	558709	5.57152e+06	5.59947e+06	-84.2736	0.0000000E+000	0.0000000E+000	0.0000000E+000	84.2736	0.0000000E+000	0.0000000E+000	0.0000000E+000	-84.2736	0.0000000E+000	0.0000000E+000	0.0000000E+000	-5.72645	0.0000000E+000	0.0000000E+000	0.0000000E+000	5.72645	9.97213	84.2736	8.99669e-07	-2.16248e-06	2.00991e-10	-2.16268e-06	0.249988	28893.8	2.68553	28896.5
1.00006	19.6334	1.74211	19.7105	-5.0707	19.6798	0.249965	-0.00771163	91351.6	713.63	1	12	0.00484687	0.000245903	0	-3.81665e-06	-4.13882e-06	2.11405e-06	-88.2217	0.00859709	0.000266786	0.00859295	-5.09551	19.7115	19.6336	1.75071	0.0505358	0.00448416	0.0507344	5.0707	713630	8.04251e+06	8.07411e+06	-84.9293	0.0000000E+000	0.0000000E+000	0.0000000E+000	84.9293	0.0000000E+000	0.0000000E+000	0.0000000E+000	-84.9293	0.0000000E+000	0.0000000E+000	0.0000000E+000	-5.0707	0.0000000E+000	0.0000000E+000	0.0000000E+000	5.0707	11.2699	84.9293	-7.60525e-06	-1.92763e-06	3.1917e-11	-1.92766e-06	0.249969	32414	0.536698	32414.5
0.681362	19.9391	1.62615	20.0053	-4.6625	22.7919	0.249962	-0.0066199	143642	949.106	1	12	0.00484977	0.000242425	0	-1.88622e-05	-9.96091e-05	4.99855e-06	22.0676	0.020619	0.0191085	-0.00774655	-4.63596	20.0237	19.9582	1.61841	0.0498214	0.00406324	0.0499868	4.6625	949105	1.16375e+07	1.16761e+07	-85.3375	0.0000000E+000	0.0000000E+000	0.0000000E+000	85.3375	0.0000000E+000	0.0000000E+000	0.0000000E+000	-85.3375	0.0000000E+000	0.0000000E+000	0.0000000E+000	-4.6625	0.0000000E+000	0.0000000E+000	0.0000000E+000	4.6625	12.2615	85.3375	-1.50455e-05	-1.65472e-06	6.59403e-10	-1.65538e-06	0.250062	37759.2	15.0469	37774.2
0.464091	20.1915	1.59025	20.2541	-4.50323	27.3485	0.249978	-0.00585909	215651	1329.41	1	12	0.00484886	0.000239402	0	-4.15167e-05	-6.1421e-05	2.83138e-06	34.6782	0.0118269	0.00972598	-0.0067291	-4.4821	20.2632	20.2013	1.58353	0.0492204	0.00387652	0.0493728	4.50323	1.32941e+06	1.68796e+07	1.69319e+07	-85.4968	0.0000000E+000	0.0000000E+000	0.0000000E+000	85.4968	0.0000000E+000	0.0000000E+000	0.0000000E+000	-85.4968	0.0000000E+000	0.0000000E+000	0.0000000E+000	-4.50323	0.0000000E+000	0.0000000E+000	0.0000000E+000	4.50323	12.697	85.4968	-2.26545e-05	-1.46464e-06	3.59871e-10	-1.465e-06	0.250039	42664.9	10.483	42675.4
0.316193	20.4557	1.69799	20.526	-4.74515	34.0228	0.249967	-0.00670146	296437	2028.59	1	12	0.00484869	0.000236222	0	-6.64792e-05	-0.000309644	1.62906e-06	-8.17651	0.00689631	0.0068262	0.000980815	-4.74631	20.5329	20.4625	1.69897	0.0485517	0.0040302	0.0487187	4.74515	2.02859e+06	2.44384e+07	2.45224e+07	-85.2548	0.0000000E+000	0.0000000E+000	0.0000000E+000	85.2548	0.0000000E+000	0.0000000E+000	0.0000000E+000	-85.2548	0.0000000E+000	0.0000000E+000	0.0000000E+000	-4.74515	0.0000000E+000	0.0000000E+000	0.0000000E+000	4.74515	12.047	85.2548	-2.49624e-05	-1.67514e-06	2.07507e-09	-1.67722e-06	0.250277	37300.3	46.2054	37346.5
0.215268	20.7219	1.97437	20.8158	-5.44268	43.8151	0.249964	-0.00702896	374465	3368.88	1	12	0.00484852	0.000232925	0	-8.31638e-05	-9.96091e-05	2.98971e-06	5.72125	0.0128355	0.0127715	-0.00127955	-5.43584	20.8284	20.7347	1.97309	0.0478239	0.00455663	0.0480405	5.44268	3.36888e+06	3.53579e+07	3.5518e+07	-84.5573	0.0000000E+000	0.0000000E+000	0.0000000E+000	84.5573	0.0000000E+000	0.0000000E+000	0.0000000E+000	-84.5573	0.0000000E+000	0.0000000E+000	0.0000000E+000	-5.44268	0.0000000E+000	0.0000000E+000	0.0000000E+000	5.44268	10.4954	84.5573	-1.66846e-05	-1.75699e-06	7.00148e-10	-1.75769e-06	0.250064	35562.1	14.1713	35576.3
0.146929	20.9863	2.40737	21.1239	-6.54389	58.1534	0.249962	-0.00665651	449956	5843.96	1	12	0.00485063	0.000229627	0	-7.93729e-05	-4.23269e-05	2.84458e-06	-6.26749	0.0123878	0.0123138	0.00135238	-6.54373	21.1363	20.9986	2.40872	0.0470313	0.00539503	0.0473397	6.54389	5.84396e+06	5.09448e+07	5.12789e+07	-83.4561	0.0000000E+000	0.0000000E+000	0.0000000E+000	83.4561	0.0000000E+000	0.0000000E+000	0.0000000E+000	-83.4561	0.0000000E+000	0.0000000E+000	0.0000000E+000	-6.54389	0.0000000E+000	0.0000000E+000	0.0000000E+000	6.54389	8.71751	83.4561	3.7909e-06	-1.66387e-06	2.8175e-10	-1.66416e-06	0.250004	37551.5	6.35872	37557.8
0.0999041	21.3322	2.9842	21.5399	-7.96352	79.2304	0.249956	-0.00514996	533838	10246.5	1	12	0.00485074	0.000225197	0	-4.85672e-05	-2.32329e-05	1.42168e-06	-8.23301	0.00631305	0.00624799	0.000904024	-7.96359	21.5463	21.3385	2.9851	0.0459777	0.00643189	0.0464254	7.96352	1.02465e+07	7.3246e+07	7.39592e+07	-82.0365	0.0000000E+000	0.0000000E+000	0.0000000E+000	82.0365	0.0000000E+000	0.0000000E+000	0.0000000E+000	-82.0365	0.0000000E+000	0.0000000E+000	0.0000000E+000	-7.96352	0.0000000E+000	0.0000000E+000	0.0000000E+000	7.96352	7.14839	82.0365	3.08057e-05	-1.28726e-06	1.19648e-10	-1.28738e-06	0.249979	48535.5	4.51127	48540
0.0680626	21.8385	3.75058	22.1583	-9.74498	110.158	0.249954	-0.0034677	623467	17862.3	1	12	0.00484736	0.000218761	0	-3.72491e-06	-0.000118703	2.82503e-06	5.39083	0.0129138	0.0128567	-0.00121324	-9.73626	22.1707	21.8514	3.74936	0.0444787	0.00763882	0.0451299	9.74498	1.78623e+07	1.04007e+08	1.0553e+08	-80.255	0.0000000E+000	0.0000000E+000	0.0000000E+000	80.255	0.0000000E+000	0.0000000E+000	0.0000000E+000	-80.255	0.0000000E+000	0.0000000E+000	0.0000000E+000	-9.74498	0.0000000E+000	0.0000000E+000	0.0000000E+000	9.74498	5.82272	80.255	4.48423e-05	-8.66765e-07	4.11627e-10	-8.67177e-07	0.250073	72080.7	34.2311	72114.9
0.0464052	22.5608	4.83977	23.0741	-12.1076	155.508	0.249957	-0.00139048	708645	31176.6	1	12	0.00484805	0.000210108	0	2.724e-05	-2.32329e-05	3.22269e-06	20.6916	0.0153383	0.0143489	-0.00541958	-12.087	23.087	22.5752	4.83435	0.0423746	0.00909024	0.0433386	12.1076	3.11766e+07	1.45331e+08	1.48638e+08	-77.8924	0.0000000E+000	0.0000000E+000	0.0000000E+000	77.8924	0.0000000E+000	0.0000000E+000	0.0000000E+000	-77.8924	0.0000000E+000	0.0000000E+000	0.0000000E+000	-12.1076	0.0000000E+000	0.0000000E+000	0.0000000E+000	12.1076	4.66155	77.8924	3.09649e-05	-3.47561e-07	3.23049e-11	-3.47593e-07	0.24998	179763	16.7085	179779
0.0315922	23.323	6.37234	24.1779	-15.2814	222.112	0.249954	-0.000904725	790572	54916.5	1	12	0.00484948	0.000200575	0	-4.18652e-05	0.00012952	3.51317e-06	22.2557	0.0175155	0.0162107	-0.00663382	-15.2562	24.1918	23.3392	6.3657	0.0398978	0.0109009	0.0413601	15.2814	5.49165e+07	2.00997e+08	2.08364e+08	-74.7186	0.0000000E+000	0.0000000E+000	0.0000000E+000	74.7186	0.0000000E+000	0.0000000E+000	0.0000000E+000	-74.7186	0.0000000E+000	0.0000000E+000	0.0000000E+000	-15.2814	0.0000000E+000	0.0000000E+000	0.0000000E+000	15.2814	3.66004	74.7186	-6.91052e-05	-2.2614e-07	-1.1718e-10	-2.26023e-07	0.249824	276276	143.159	276133
0.0215268	24.1772	8.23616	25.5416	-18.8118	319.85	0.249955	-0.00122736	897669	93340.4	1	12	0.00484689	0.000189764	0	-0.000287802	-2.32329e-05	2.59358e-06	-5.93428	0.0136674	0.0135941	0.00141304	-18.805	25.5549	24.1908	8.23757	0.0370604	0.0126249	0.0391518	18.8118	9.33404e+07	2.74001e+08	2.89463e+08	-71.1882	0.0000000E+000	0.0000000E+000	0.0000000E+000	71.1882	0.0000000E+000	0.0000000E+000	0.0000000E+000	-71.1882	0.0000000E+000	0.0000000E+000	0.0000000E+000	-18.8118	0.0000000E+000	0.0000000E+000	0.0000000E+000	18.8118	2.9355	71.1882	-0.000245937	-3.06784e-07	2.8515e-11	-3.06812e-07	0.249978	203653	18.9292	203672
0.0146812	25.4549	10.6943	27.6101	-22.7886	463.152	0.249952	-0.00174769	1.0137e+06	152081	1	12	0.00484865	0.000175611	0	-0.000706627	0.000148614	1.40741e-06	20.6992	0.00801433	0.007497	-0.00283276	-22.7771	27.6159	25.4624	10.6914	0.0333914	0.0140286	0.0362186	22.7886	1.52081e+08	3.61988e+08	3.92637e+08	-67.2114	0.0000000E+000	0.0000000E+000	0.0000000E+000	67.2114	0.0000000E+000	0.0000000E+000	0.0000000E+000	-67.2114	0.0000000E+000	0.0000000E+000	0.0000000E+000	-22.7886	0.0000000E+000	0.0000000E+000	0.0000000E+000	22.7886	2.38023	67.2114	-0.000418826	-4.36839e-07	-2.59731e-10	-4.36579e-07	0.249804	143019	85.0344	142934
0.0100092	27.2946	14.3071	30.817	-27.6623	673.334	0.249957	-0.00217867	1.1114e+06	239548	1	12	0.00484845	0.000157331	0	-0.00112865	-6.1421e-05	2.47284e-06	-10.3219	0.0157175	0.0154631	0.00281623	-27.6536	30.832	27.31	14.3099	0.0287406	0.0150651	0.0324497	27.6623	2.39548e+08	4.57002e+08	5.15979e+08	-62.3377	0.0000000E+000	0.0000000E+000	0.0000000E+000	62.3377	0.0000000E+000	0.0000000E+000	0.0000000E+000	-62.3377	0.0000000E+000	0.0000000E+000	0.0000000E+000	-27.6623	0.0000000E+000	0.0000000E+000	0.0000000E+000	27.6623	1.90777	62.3377	-0.000422027	-5.44574e-07	1.33816e-10	-5.44708e-07	0.250019	114730	28.192	114758