File: txt/18825_R307_UA701_4p38_SOC00_C04.mpt
EC-Lab ASCII FILE
Nb header lines : 65

Potentio Electrochemical Impedance Spectroscopy

Run on channel : 4 (SN 66756)
User :
CE vs. WE compliance from -10 V to 10 V
Electrode connection : standard
Potential control : Ewe
Ewe ctrl range : min = -10.00 V, max = 10.00 V
Safety Limits :
	Do not start on E overload
Acquisition started on : 11/03/2025 17:11:00.047
Technique started on : 11/03/2025 17:11:01.784
Loaded Setting File :  C:\Users\Celltest\OneDrive - store-dot.com\Documents\EC-Lab\Data\@Biologic Test Protocols\anode half cell EIS SOC00.mps
Saved on :
	File : 18825_R307_UA701_4p38_SOC00_C04.mpr
	Directory : C:\Users\Celltest\OneDrive - store-dot.com\Documents\EC-Lab\Data\Anna\
	Host : 169.254.61.224
Device : VMP-3e (SN .003165)
Address : USB
EC-LAB for windows v11.62 (software)
Internet server v27.00 (firmware)
Command interpretor v12.03 (firmware)
Electrode material :
Initial state :
Electrolyte :
Comments :
Electrode surface area : 0.001 cm²
Characteristic mass : 0.001 g
Equivalent Weight : 0.000 g/eq.
Density : 0.000 g/cm3
Volume (V) : 0.001 cm³
Record Ece
Cycle Definition : Charge/Discharge alternance
Mode                Single sine
E (V)               0.0000
vs.                 Eoc
tE (h:m:s)          0:00:0.0000
record              0
dI                  0.000
unit dI             mA
dt (s)              0.000
fi                  100.000
unit fi             kHz
ff                  10.000
unit ff             mHz
Nd                  6
Points              per decade
spacing             Logarithmic
Va (mV)             5.0
pw                  0.10
Na                  2
corr                0
E range min (V)     -10.000
E range max (V)     10.000
I Range             Auto
Bandwidth           5
nc cycles           0
goto Ns'            0
nr cycles           0
inc. cycle          0

freq/Hz	Re(Z)/Ohm	-Im(Z)/Ohm	|Z|/Ohm	Phase(Z)/deg	time/s	<Ewe>/V	<I>/mA	Cs/µF	Cp/µF	cycle number	I Range	|Ewe|/V	|I|/A	Ns	(Q-Qo)/mA.h	<Ece>/V	|Ece|/V	Phase(Zce)/deg	|Zce|/Ohm	Re(Zce)/Ohm	-Im(Zce)/Ohm	Phase(Zwe-ce)/deg	|Zwe-ce|/Ohm	Re(Zwe-ce)/Ohm	-Im(Zwe-ce)/Ohm	Re(Y)/Ohm-1	Im(Y)/Ohm-1	|Y|/Ohm-1	Phase(Y)/deg	Re(C)/nF	Im(C)/nF	|C|/nF	Phase(C)/deg	Re(M)	Im(M)	|M|	Phase(M)/deg	Re(Permittivity)	Im(Permittivity)	|Permittivity|	Phase(Permittivity)/deg	Re(Resistivity)/Ohm.cm	Im(Resistivity)/Ohm.cm	|Resistivity|/Ohm.cm	Phase(Resistivity)/deg	Re(Conductivity)/mS/cm	Im(Conductivity)/mS/cm	|Conductivity|/mS/cm	Phase(Conductivity)/deg	Tan(Delta)	Loss Angle(Delta)/deg	dq/mA.h	Pwe/W	Pce/W	Pwe-ce/W	<Ewe-Ece>/V	Rwe/Ohm	Rce/Ohm	Rwe-ce/Ohm		Ewe-Ece/V
100004	1.32337	0.451065	1.39813	-18.8214	1.73654	0.262659	-0.0164334	3.52829	0.367237	1	9	0.00492141	0.00351998	0	-5.15526e-06	-0.000340371	3.19592e-05	55.0711	0.00907936	0.00519847	-0.00744383	-18.4646	1.40068	1.32857	0.443621	0.676995	0.23075	0.715239	18.8214	367.237	1077.43	1138.3	-71.1786	0.0000000E+000	0.0000000E+000	0.0000000E+000	71.1786	0.0000000E+000	0.0000000E+000	0.0000000E+000	-71.1786	0.0000000E+000	0.0000000E+000	0.0000000E+000	-18.8214	0.0000000E+000	0.0000000E+000	0.0000000E+000	18.8214	2.93388	71.1786	-5.15526e-06	-4.31638e-06	5.59345e-09	-4.32197e-06	0.262999	15983.3	20.7122	16004
68132	1.43836	0.521869	1.5301	-19.942	2.11953	0.262672	-0.0172166	4.47618	0.520702	1	9	0.00539022	0.00352279	0	-1.73599e-05	-9.19415e-05	2.03385e-05	52.0664	0.00577343	0.00354921	-0.00455364	-19.7366	1.5319	1.4419	0.517315	0.614363	0.222905	0.653551	19.942	520.702	1435.14	1526.68	-70.058	0.0000000E+000	0.0000000E+000	0.0000000E+000	70.058	0.0000000E+000	0.0000000E+000	0.0000000E+000	-70.058	0.0000000E+000	0.0000000E+000	0.0000000E+000	-19.942	0.0000000E+000	0.0000000E+000	0.0000000E+000	19.942	2.75616	70.058	-1.22046e-05	-4.52232e-06	1.58292e-09	-4.5239e-06	0.262763	15256.8	5.34027	15262.2
46420.4	1.57264	0.589853	1.67962	-20.5597	2.50255	0.26267	-0.025422	5.81257	0.716859	1	9	0.00543777	0.0032375	0	-2.36227e-05	-0.000244821	1.07931e-05	-6.54435	0.00333378	0.00331205	0.000379958	-20.5322	1.68285	1.57595	0.590233	0.557452	0.209085	0.595373	20.5597	716.859	1911.26	2041.27	-69.4403	0.0000000E+000	0.0000000E+000	0.0000000E+000	69.4403	0.0000000E+000	0.0000000E+000	0.0000000E+000	-69.4403	0.0000000E+000	0.0000000E+000	0.0000000E+000	-20.5597	0.0000000E+000	0.0000000E+000	0.0000000E+000	20.5597	2.66615	69.4403	-6.26283e-06	-6.67761e-06	6.22386e-09	-6.68383e-06	0.262915	10332.4	9.63027	10342
31621.1	1.71674	0.648115	1.835	-20.6829	2.88553	0.262664	-0.0239302	7.76587	0.968771	1	9	0.00542231	0.00295493	0	-2.94598e-05	-0.000302151	1.57954e-05	23.0706	0.00534543	0.00491791	-0.00209469	-20.5677	1.83887	1.72165	0.646021	0.509835	0.192477	0.544958	20.6829	968.771	2566.09	2742.87	-69.3171	0.0000000E+000	0.0000000E+000	0.0000000E+000	69.3171	0.0000000E+000	0.0000000E+000	0.0000000E+000	-69.3171	0.0000000E+000	0.0000000E+000	0.0000000E+000	-20.6829	0.0000000E+000	0.0000000E+000	0.0000000E+000	20.6829	2.64881	69.3171	-5.83711e-06	-6.28558e-06	7.23052e-09	-6.29281e-06	0.262966	10976.3	12.6264	10988.9
21544.7	1.87047	0.713019	2.00176	-20.8668	3.27052	0.262657	-0.0273615	10.3605	1.31449	1	9	0.00543199	0.00271361	0	-2.667e-05	-0.000302151	9.84935e-06	30.0514	0.00362961	0.00314171	-0.00181763	-20.7862	2.00405	1.87361	0.711201	0.466795	0.177941	0.49956	20.8668	1314.49	3448.31	3690.35	-69.1332	0.0000000E+000	0.0000000E+000	0.0000000E+000	69.1332	0.0000000E+000	0.0000000E+000	0.0000000E+000	-69.1332	0.0000000E+000	0.0000000E+000	0.0000000E+000	-20.8668	0.0000000E+000	0.0000000E+000	0.0000000E+000	20.8668	2.62331	69.1332	2.78987e-06	-7.1867e-06	8.26731e-09	-7.19497e-06	0.262959	9599.51	11.0429	9610.56
14678.6	2.05049	0.786516	2.19616	-20.9856	3.65352	0.262672	-0.0264664	13.7857	1.76814	1	9	0.00542054	0.0024682	0	-2.64226e-05	-0.000455031	8.62908e-06	-130.962	0.00349611	-0.00229191	0.00264007	-21.0714	2.19496	2.04819	0.789156	0.425139	0.163073	0.455341	20.9856	1768.14	4609.63	4937.11	-69.0144	0.0000000E+000	0.0000000E+000	0.0000000E+000	69.0144	0.0000000E+000	0.0000000E+000	0.0000000E+000	-69.0144	0.0000000E+000	0.0000000E+000	0.0000000E+000	-20.9856	0.0000000E+000	0.0000000E+000	0.0000000E+000	20.9856	2.60705	69.0144	2.47365e-07	-6.95197e-06	1.2043e-08	-6.96401e-06	0.263127	9924.72	17.1928	9941.92
10002.2	2.22799	0.874927	2.39362	-21.4398	4.03654	0.262657	-0.0288161	18.1866	2.42987	1	9	0.00541586	0.00226262	0	-2.97275e-05	-0.000378591	5.13517e-06	-75.4818	0.00226957	0.000568954	0.00219709	-21.4838	2.39496	2.22856	0.877124	0.388867	0.152707	0.417776	21.4398	2429.87	6187.64	6647.64	-68.5602	0.0000000E+000	0.0000000E+000	0.0000000E+000	68.5602	0.0000000E+000	0.0000000E+000	0.0000000E+000	-68.5602	0.0000000E+000	0.0000000E+000	0.0000000E+000	-21.4398	0.0000000E+000	0.0000000E+000	0.0000000E+000	21.4398	2.54649	68.5602	-3.30489e-06	-7.56875e-06	1.09095e-08	-7.57966e-06	0.263035	9114.93	13.1382	9128.07
6810.42	2.42183	0.992389	2.61727	-22.2822	4.41955	0.262654	-0.0306437	23.5486	3.38556	1	9	0.00545124	0.00208279	0	-2.609e-05	-3.46116e-05	3.6069e-05	46.4971	0.0173176	0.0119213	-0.0125611	-21.9297	2.62359	2.43376	0.979828	0.353546	0.144872	0.382077	22.2822	3385.56	8262.14	8928.88	-67.7178	0.0000000E+000	0.0000000E+000	0.0000000E+000	67.7178	0.0000000E+000	0.0000000E+000	0.0000000E+000	-67.7178	0.0000000E+000	0.0000000E+000	0.0000000E+000	-22.2822	0.0000000E+000	0.0000000E+000	0.0000000E+000	22.2822	2.44041	67.7178	3.63746e-06	-8.04868e-06	1.06063e-09	-8.04974e-06	0.262688	8571.21	1.12949	8572.34
4646	2.64849	1.11001	2.87169	-22.7391	4.81364	0.262667	-0.0209837	30.8612	4.61098	1	9	0.00534329	0.00186068	0	-2.63494e-05	-0.000111051	1.40982e-05	100.777	0.00757694	-0.00141674	-0.00744331	-22.6129	2.86752	2.64707	1.10257	0.321161	0.134602	0.348227	22.7391	4610.98	11001.8	11929	-67.2609	0.0000000E+000	0.0000000E+000	0.0000000E+000	67.2609	0.0000000E+000	0.0000000E+000	0.0000000E+000	-67.2609	0.0000000E+000	0.0000000E+000	0.0000000E+000	-22.7391	0.0000000E+000	0.0000000E+000	0.0000000E+000	22.7391	2.386	67.2609	-2.59342e-07	-5.51174e-06	2.33027e-09	-5.51407e-06	0.262778	12517.7	5.29227	12523
3163.08	2.9039	1.25587	3.16383	-23.3874	5.36367	0.26266	-0.0311286	40.065	6.31289	1	9	0.00515063	0.00162797	0	-2.76304e-05	-0.000111051	6.39622e-06	-56.1235	0.00392895	0.00219001	0.00326197	-23.4258	3.16714	2.90609	1.25913	0.290105	0.125464	0.316073	23.3874	6312.89	14597	15903.6	-66.6126	0.0000000E+000	0.0000000E+000	0.0000000E+000	66.6126	0.0000000E+000	0.0000000E+000	0.0000000E+000	-66.6126	0.0000000E+000	0.0000000E+000	0.0000000E+000	-23.3874	0.0000000E+000	0.0000000E+000	0.0000000E+000	23.3874	2.31226	66.6126	-1.281e-06	-8.17625e-06	3.45687e-09	-8.1797e-06	0.262771	8437.92	3.56751	8441.49
2155.69	3.17437	1.44686	3.48856	-24.5032	6.02879	0.26267	-0.0260189	51.028	8.77743	1	9	0.00508746	0.00145833	0	-3.3032e-05	-0.000340371	1.14216e-05	-80.5247	0.00783202	0.00128932	0.00772516	-24.6097	3.49294	3.17566	1.45458	0.260835	0.118887	0.286651	24.5032	8777.43	19257.5	21163.5	-65.4968	0.0000000E+000	0.0000000E+000	0.0000000E+000	65.4968	0.0000000E+000	0.0000000E+000	0.0000000E+000	-65.4968	0.0000000E+000	0.0000000E+000	0.0000000E+000	-24.5032	0.0000000E+000	0.0000000E+000	0.0000000E+000	24.5032	2.19398	65.4968	-5.40159e-06	-6.83437e-06	8.85606e-09	-6.84323e-06	0.26301	10095.4	13.0817	10108.4
1468.59	3.50873	1.66465	3.88358	-25.3811	6.72609	0.262673	-0.0137293	65.1025	11.9612	1	10	0.00518663	0.00133553	0	-3.60594e-05	-0.000168381	1.28598e-05	133.086	0.009629	-0.00657756	-0.00703231	-25.3288	3.87463	3.50215	1.65761	0.23264	0.110371	0.257494	25.3811	11961.2	25211.8	27905.3	-64.6189	0.0000000E+000	0.0000000E+000	0.0000000E+000	64.6189	0.0000000E+000	0.0000000E+000	0.0000000E+000	-64.6189	0.0000000E+000	0.0000000E+000	0.0000000E+000	-25.3811	0.0000000E+000	0.0000000E+000	0.0000000E+000	25.3811	2.10779	64.6189	-3.02739e-06	-3.60631e-06	2.31175e-09	-3.60862e-06	0.262841	19132.3	12.2644	19144.6
1000.32	3.86935	1.94688	4.33154	-26.7095	7.17685	0.262668	-0.0138673	81.7224	16.5096	1	10	0.0051366	0.00118586	0	-3.6781e-05	-9.19415e-05	1.30262e-05	-59.1388	0.0109846	0.00563468	0.00942935	-26.7872	4.34082	3.87499	1.95631	0.206231	0.103766	0.230865	26.7095	16509.6	32812.1	36731.5	-63.2905	0.0000000E+000	0.0000000E+000	0.0000000E+000	63.2905	0.0000000E+000	0.0000000E+000	0.0000000E+000	-63.2905	0.0000000E+000	0.0000000E+000	0.0000000E+000	-26.7095	0.0000000E+000	0.0000000E+000	0.0000000E+000	26.7095	1.98746	63.2905	-7.21657e-07	-3.6425e-06	1.27498e-09	-3.64378e-06	0.26276	18941.6	6.6301	18948.2
681.09	4.27476	2.28261	4.84602	-28.1011	7.62755	0.262673	-0.0133973	102.373	22.7132	1	10	0.00502262	0.00103644	0	-3.88751e-05	-0.000359481	3.69586e-06	79.0805	0.00356591	0.000675487	-0.00350135	-28.0608	4.84496	4.27543	2.27911	0.18203	0.0971991	0.206355	28.1011	22713.2	42536.1	48220.4	-61.8989	0.0000000E+000	0.0000000E+000	0.0000000E+000	61.8989	0.0000000E+000	0.0000000E+000	0.0000000E+000	-61.8989	0.0000000E+000	0.0000000E+000	0.0000000E+000	-28.1011	0.0000000E+000	0.0000000E+000	0.0000000E+000	28.1011	1.87275	61.8989	-2.09409e-06	-3.51911e-06	4.81607e-09	-3.52393e-06	0.263033	19606.4	26.8324	19633.3
463.961	4.76964	2.71351	5.4875	-29.6361	8.07932	0.262677	-0.0135875	126.418	30.9116	1	10	0.00492567	0.000897616	0	-4.01836e-05	-3.46116e-05	6.16718e-06	-130.603	0.00687062	-0.00447153	0.0052164	-29.7065	5.48619	4.76517	2.71873	0.158393	0.0901121	0.182232	29.6361	30911.6	54334.6	62512.2	-60.3639	0.0000000E+000	0.0000000E+000	0.0000000E+000	60.3639	0.0000000E+000	0.0000000E+000	0.0000000E+000	-60.3639	0.0000000E+000	0.0000000E+000	0.0000000E+000	-29.6361	0.0000000E+000	0.0000000E+000	0.0000000E+000	29.6361	1.75774	60.3639	-1.30849e-06	-3.56914e-06	4.70287e-10	-3.56961e-06	0.262712	19332.2	2.54731	19334.8
316.316	5.38813	3.24954	6.29217	-31.0939	8.52707	0.262665	-0.0135652	154.838	41.2971	1	10	0.00484965	0.000770743	0	-4.22016e-05	-5.37216e-05	1.44643e-05	68.0629	0.0187667	0.00701104	-0.0174079	-30.9251	6.28921	5.39514	3.23213	0.136093	0.0820769	0.158928	31.0939	41297.1	68475.6	79964.8	-58.9061	0.0000000E+000	0.0000000E+000	0.0000000E+000	58.9061	0.0000000E+000	0.0000000E+000	0.0000000E+000	-58.9061	0.0000000E+000	0.0000000E+000	0.0000000E+000	-31.0939	0.0000000E+000	0.0000000E+000	0.0000000E+000	31.0939	1.65812	58.9061	-2.01797e-06	-3.5631e-06	7.28743e-10	-3.56383e-06	0.262719	19363.2	3.96026	19367.2
215.345	6.22481	3.88192	7.33605	-31.9486	8.97757	0.262662	-0.0131437	190.388	53.3101	1	10	0.00480798	0.000655391	0	-4.34e-05	-1.55017e-05	1.20669e-05	-73.8347	0.0184117	0.00512598	0.0176838	-32.0444	7.34976	6.22993	3.89961	0.115665	0.0721312	0.136313	31.9486	53310.1	85484.6	100745	-58.0514	0.0000000E+000	0.0000000E+000	0.0000000E+000	58.0514	0.0000000E+000	0.0000000E+000	0.0000000E+000	-58.0514	0.0000000E+000	0.0000000E+000	0.0000000E+000	-31.9486	0.0000000E+000	0.0000000E+000	0.0000000E+000	31.9486	1.60354	58.0515	-1.19845e-06	-3.45234e-06	2.03749e-10	-3.45255e-06	0.262678	19983.9	1.1794	19985.1
146.737	7.32439	4.54582	8.6204	-31.8254	9.42352	0.262641	-0.0144753	238.598	66.3494	1	10	0.00479058	0.000555726	0	-4.42846e-05	-0.000111051	1.00847e-05	-16.589	0.0181469	0.0173916	0.00518101	-31.7938	8.63791	7.34179	4.551	0.0985638	0.0611727	0.116004	31.8254	66349.4	106905	125821	-58.1746	0.0000000E+000	0.0000000E+000	0.0000000E+000	58.1746	0.0000000E+000	0.0000000E+000	0.0000000E+000	-58.1746	0.0000000E+000	0.0000000E+000	0.0000000E+000	-31.8254	0.0000000E+000	0.0000000E+000	0.0000000E+000	31.8254	1.61124	58.1746	-8.84567e-07	-3.80181e-06	1.60751e-09	-3.80342e-06	0.262752	18144	7.67177	18151.7
100.032	8.66316	5.06757	10.0365	-30.3257	9.8748	0.262671	-0.0122335	313.965	80.0422	1	10	0.0047601	0.000474281	0	-4.6454e-05	-0.000283041	6.1107e-06	35.2321	0.0128842	0.0105241	-0.00743273	-30.2588	10.0418	8.67368	5.06013	0.0860033	0.0503081	0.0996367	30.3257	80042.2	136835	158526	-59.6742	0.0000000E+000	0.0000000E+000	0.0000000E+000	59.6742	0.0000000E+000	0.0000000E+000	0.0000000E+000	-59.6742	0.0000000E+000	0.0000000E+000	0.0000000E+000	-30.3257	0.0000000E+000	0.0000000E+000	0.0000000E+000	30.3257	1.70953	59.6742	-2.16944e-06	-3.21338e-06	3.46258e-09	-3.21684e-06	0.262954	21471.4	23.1366	21494.6
68.104	10.203	5.45282	11.5687	-28.1216	10.3375	0.262668	-0.0125506	428.575	95.2144	1	10	0.00475113	0.00041069	0	-4.83698e-05	-0.000244821	6.15871e-06	101.201	0.014996	-0.00291302	-0.0147104	-28.0641	11.5592	10.2001	5.43811	0.0762361	0.0407432	0.0864404	28.1216	95214.4	178159	202006	-61.8784	0.0000000E+000	0.0000000E+000	0.0000000E+000	61.8784	0.0000000E+000	0.0000000E+000	0.0000000E+000	-61.8784	0.0000000E+000	0.0000000E+000	0.0000000E+000	-28.1216	0.0000000E+000	0.0000000E+000	0.0000000E+000	28.1216	1.87114	61.8784	-1.91576e-06	-3.29663e-06	3.07265e-09	-3.2997e-06	0.262913	20928.8	19.5068	20948.3
46.4415	11.8632	5.5633	13.1029	-25.1245	10.7746	0.262662	-0.0132183	616	111.048	1	10	0.00473886	0.000361666	0	-4.98197e-05	-9.19415e-05	6.32984e-06	7.13961	0.0175019	0.0173662	-0.00217527	-25.0837	13.1177	11.8805	5.56113	0.0690984	0.032404	0.0763191	25.1245	111048	236800	261545	-64.8755	0.0000000E+000	0.0000000E+000	0.0000000E+000	64.8755	0.0000000E+000	0.0000000E+000	0.0000000E+000	-64.8755	0.0000000E+000	0.0000000E+000	0.0000000E+000	-25.1245	0.0000000E+000	0.0000000E+000	0.0000000E+000	25.1245	2.1324	64.8755	-1.44989e-06	-3.47194e-06	1.21531e-09	-3.47316e-06	0.262754	19871.2	6.95564	19878.1
31.6296	13.5071	5.39217	14.5437	-21.7623	11.2046	0.262669	-0.013278	933.176	128.275	1	10	0.00474353	0.000326158	0	-5.11212e-05	-0.000302151	8.65673e-06	21.0619	0.0265415	0.0247684	-0.00953838	-21.6914	14.5631	13.5319	5.38263	0.0638581	0.0254927	0.0687585	21.7623	128275	321324	345982	-68.2377	0.0000000E+000	0.0000000E+000	0.0000000E+000	68.2377	0.0000000E+000	0.0000000E+000	0.0000000E+000	-68.2377	0.0000000E+000	0.0000000E+000	0.0000000E+000	-21.7623	0.0000000E+000	0.0000000E+000	0.0000000E+000	21.7623	2.50495	68.2377	-1.30157e-06	-3.48771e-06	4.01195e-09	-3.49172e-06	0.262971	19782.3	22.7558	19805.1
21.5517	14.9691	5.09185	15.8114	-18.7861	11.8574	0.26266	-0.0103707	1450.32	150.408	1	11	0.00473921	0.000299734	0	-5.31056e-05	-0.000168381	5.5349e-06	60.5354	0.0184661	0.00908319	-0.0160777	-18.7204	15.8148	14.9782	5.07577	0.0598762	0.0203673	0.0632455	18.7861	150408	442173	467055	-71.2139	0.0000000E+000	0.0000000E+000	0.0000000E+000	71.2139	0.0000000E+000	0.0000000E+000	0.0000000E+000	-71.2139	0.0000000E+000	0.0000000E+000	0.0000000E+000	-18.7861	0.0000000E+000	0.0000000E+000	0.0000000E+000	18.7861	2.93982	71.2139	-1.98432e-06	-2.72396e-06	1.74623e-09	-2.7257e-06	0.262828	25327.2	16.2363	25343.4
14.6852	16.2495	4.63704	16.8982	-15.9269	12.3182	0.262665	-0.00955886	2337.23	175.996	1	11	0.00473283	0.000280079	0	-5.51289e-05	4.18282e-05	1.1387e-05	-69.3841	0.0406564	0.0143152	0.0380528	-16.0375	16.9224	16.2638	4.67509	0.0569063	0.0162391	0.059178	15.9269	175996	616740	641360	-74.0731	0.0000000E+000	0.0000000E+000	0.0000000E+000	74.0731	0.0000000E+000	0.0000000E+000	0.0000000E+000	-74.0731	0.0000000E+000	0.0000000E+000	0.0000000E+000	-15.9269	0.0000000E+000	0.0000000E+000	0.0000000E+000	15.9269	3.50428	74.0731	-2.0233e-06	-2.51078e-06	-3.9983e-10	-2.51038e-06	0.262623	27478.7	4.37586	27474.3
10.0032	17.4102	4.18461	17.906	-13.5149	12.7688	0.262667	-0.00947976	3802.12	207.653	1	11	0.00475209	0.000265391	0	-5.71136e-05	-0.000187491	1.02154e-05	14.0889	0.038492	0.0373341	-0.00937002	-13.458	17.9401	17.4475	4.17524	0.0543007	0.0130514	0.0558472	13.5149	207653	863946	888551	-76.4851	0.0000000E+000	0.0000000E+000	0.0000000E+000	76.4851	0.0000000E+000	0.0000000E+000	0.0000000E+000	-76.4851	0.0000000E+000	0.0000000E+000	0.0000000E+000	-13.5149	0.0000000E+000	0.0000000E+000	0.0000000E+000	13.5149	4.16052	76.4851	-1.9847e-06	-2.49002e-06	1.77737e-09	-2.4918e-06	0.262854	27708.2	19.7781	27727.9
6.81719	18.3199	3.70803	18.6914	-11.4424	13.1085	0.262664	-0.0091675	6296.09	247.786	1	11	0.00472906	0.000253008	0	-5.82568e-05	-0.000206601	5.3381e-05	61.5674	0.210986	0.100455	-0.185536	-10.8259	18.7541	18.4203	3.5225	0.0524373	0.0106136	0.0535006	11.4424	247786	1.22421e+06	1.24903e+06	-78.5576	0.0000000E+000	0.0000000E+000	0.0000000E+000	78.5576	0.0000000E+000	0.0000000E+000	0.0000000E+000	-78.5576	0.0000000E+000	0.0000000E+000	0.0000000E+000	-11.4424	0.0000000E+000	0.0000000E+000	0.0000000E+000	11.4424	4.94059	78.5576	-1.14325e-06	-2.40797e-06	1.89402e-09	-2.40987e-06	0.262871	28651.6	22.5363	28674.2
4.63925	19.141	3.2926	19.4221	-9.76042	13.5924	0.26267	-0.00891604	10419.2	299.446	1	11	0.0047346	0.000243774	0	-5.66714e-05	-0.000493251	8.4238e-06	-63.1327	0.0345557	0.0156166	0.0308256	-9.84214	19.4427	19.1566	3.32343	0.0507425	0.00872865	0.0514877	9.76042	299446	1.74078e+06	1.76635e+06	-80.2396	0.0000000E+000	0.0000000E+000	0.0000000E+000	80.2396	0.0000000E+000	0.0000000E+000	0.0000000E+000	-80.2396	0.0000000E+000	0.0000000E+000	0.0000000E+000	-9.76042	0.0000000E+000	0.0000000E+000	0.0000000E+000	9.76042	5.81332	80.2396	1.5854e-06	-2.34198e-06	4.39784e-09	-2.34638e-06	0.263164	29460.4	55.3217	29515.7
3.1604	19.9028	2.92033	20.116	-8.34739	14.2854	0.262672	-0.00841873	17244.4	363.437	1	11	0.00473411	0.000235341	0	-5.83751e-05	3.60827e-06	7.53263e-06	25.507	0.0320073	0.0288876	-0.013783	-8.29667	20.1425	19.9317	2.90654	0.0491851	0.00721689	0.0497118	8.34739	363437	2.47692e+06	2.50344e+06	-81.6526	0.0000000E+000	0.0000000E+000	0.0000000E+000	81.6526	0.0000000E+000	0.0000000E+000	0.0000000E+000	-81.6526	0.0000000E+000	0.0000000E+000	0.0000000E+000	-8.34739	0.0000000E+000	0.0000000E+000	0.0000000E+000	8.34739	6.81528	81.6526	-1.70371e-06	-2.21136e-06	-3.03771e-11	-2.21133e-06	0.262668	31200.8	0.4286	31200.4
2.15577	20.5014	2.58205	20.6634	-7.1783	15.289	0.262673	-0.00754825	28592.6	446.456	1	11	0.00474436	0.000229602	0	-6.43542e-05	-5.37216e-05	3.77329e-06	78.7621	0.016434	0.00320272	-0.0161189	-7.13285	20.6646	20.5046	2.56593	0.0480154	0.00604729	0.0483947	7.1783	446456	3.54486e+06	3.57286e+06	-82.8217	0.0000000E+000	0.0000000E+000	0.0000000E+000	82.8217	0.0000000E+000	0.0000000E+000	0.0000000E+000	-82.8217	0.0000000E+000	0.0000000E+000	0.0000000E+000	-7.1783	0.0000000E+000	0.0000000E+000	0.0000000E+000	7.1783	7.93999	82.8217	-5.97904e-06	-1.98272e-06	4.05504e-10	-1.98312e-06	0.262726	34799.2	7.1171	34806.3
1.46631	21.0233	2.24835	21.1431	-6.10435	16.7505	0.262663	-0.00790033	48275.8	545.909	1	11	0.00474237	0.000224298	0	-7.19404e-05	-0.000130161	4.19679e-06	60.9487	0.0187108	0.00908581	-0.0163567	-6.05768	21.1504	21.0323	2.232	0.0470285	0.00502951	0.0472967	6.10435	545909	5.10452e+06	5.13363e+06	-83.8956	0.0000000E+000	0.0000000E+000	0.0000000E+000	83.8956	0.0000000E+000	0.0000000E+000	0.0000000E+000	-83.8956	0.0000000E+000	0.0000000E+000	0.0000000E+000	-6.10435	0.0000000E+000	0.0000000E+000	0.0000000E+000	6.10435	9.35051	83.8956	-7.58624e-06	-2.07512e-06	1.02832e-09	-2.07615e-06	0.262793	33247	16.4754	33263.5
1.00006	21.4425	2.05028	21.5403	-5.4619	19.925	0.262669	-0.0073334	77620.8	703.241	1	12	0.00474293	0.000220189	0	-7.88152e-05	4.18282e-05	3.10728e-06	-26.2706	0.0141119	0.0126543	0.00624607	-5.47522	21.5535	21.4551	2.05653	0.0462139	0.00441888	0.0464247	5.4619	703241	7.3547e+06	7.38825e+06	-84.5381	0.0000000E+000	0.0000000E+000	0.0000000E+000	84.5381	0.0000000E+000	0.0000000E+000	0.0000000E+000	-84.5381	0.0000000E+000	0.0000000E+000	0.0000000E+000	-5.4619	0.0000000E+000	0.0000000E+000	0.0000000E+000	5.4619	10.4583	84.5381	-6.8748e-06	-1.92626e-06	-3.06743e-10	-1.92595e-06	0.262627	35818.2	5.7038	35812.5
0.681362	21.785	1.92315	21.8697	-5.04491	23.0371	0.262671	-0.00750411	121459	939.224	1	12	0.00474303	0.000216877	0	-7.78003e-05	-0.000168381	2.90718e-06	38.4121	0.0134047	0.0105035	-0.00832854	-5.02077	21.8794	21.7955	1.91482	0.0455483	0.00402094	0.0457254	5.04491	939225	1.06393e+07	1.06807e+07	-84.9551	0.0000000E+000	0.0000000E+000	0.0000000E+000	84.9551	0.0000000E+000	0.0000000E+000	0.0000000E+000	-84.9551	0.0000000E+000	0.0000000E+000	0.0000000E+000	-5.04491	0.0000000E+000	0.0000000E+000	0.0000000E+000	5.04491	11.3278	84.9551	1.01495e-06	-1.97111e-06	1.26355e-09	-1.97238e-06	0.26284	35003.7	22.4386	35026.1
0.464091	22.0583	1.85344	22.136	-4.80299	27.5935	0.262669	-0.00673456	185028	1297.18	1	12	0.00473556	0.00021393	0	-7.28673e-05	-7.28316e-05	4.79838e-06	25.0632	0.0224297	0.0203177	-0.0095016	-4.77411	22.1554	22.0786	1.84394	0.0450167	0.00378252	0.0451753	4.80299	1.29718e+06	1.5438e+07	1.54924e+07	-85.197	0.0000000E+000	0.0000000E+000	0.0000000E+000	85.197	0.0000000E+000	0.0000000E+000	0.0000000E+000	-85.197	0.0000000E+000	0.0000000E+000	0.0000000E+000	-4.80299	0.0000000E+000	0.0000000E+000	0.0000000E+000	4.80299	11.9012	85.197	4.93296e-06	-1.76896e-06	4.90489e-10	-1.76945e-06	0.262742	39003.1	10.8146	39013.9
0.316193	22.3624	1.94635	22.447	-4.97429	34.2679	0.262673	-0.0052156	258611	1944.34	1	12	0.00474019	0.000211173	0	-7.00354e-05	-0.000302151	1.44439e-06	-9.81122	0.00683986	0.00673982	0.00116553	-4.97576	22.4538	22.3692	1.94752	0.0443817	0.00386283	0.0445494	4.97429	1.94435e+06	2.23394e+07	2.24238e+07	-85.0257	0.0000000E+000	0.0000000E+000	0.0000000E+000	85.0257	0.0000000E+000	0.0000000E+000	0.0000000E+000	-85.0257	0.0000000E+000	0.0000000E+000	0.0000000E+000	-4.97429	0.0000000E+000	0.0000000E+000	0.0000000E+000	4.97429	11.4894	85.0257	2.83194e-06	-1.36999e-06	1.5759e-09	-1.37157e-06	0.262975	50362.9	57.9322	50420.8
0.215268	22.6803	2.22545	22.7892	-5.60406	44.0615	0.262673	-0.0036597	332218	3168.1	1	12	0.00474149	0.000208058	0	-7.93283e-05	-0.000263931	3.58315e-06	-24.36	0.0172219	0.0156886	0.00710349	-5.61797	22.8055	22.696	2.23255	0.0436706	0.00428507	0.0438804	5.60406	3.1681e+06	3.22872e+07	3.24423e+07	-84.3959	0.0000000E+000	0.0000000E+000	0.0000000E+000	84.3959	0.0000000E+000	0.0000000E+000	0.0000000E+000	-84.3959	0.0000000E+000	0.0000000E+000	0.0000000E+000	-5.60406	0.0000000E+000	0.0000000E+000	0.0000000E+000	5.60406	10.1914	84.3959	-9.29298e-06	-9.61305e-07	9.65908e-10	-9.62271e-07	0.262937	71774.6	72.1183	71846.7
0.146929	23.0181	2.67779	23.1734	-6.63562	58.3999	0.262671	-0.00245494	404517	5401.47	1	12	0.00474098	0.000204588	0	-0.000113756	-0.000244821	4.32938e-06	10.9952	0.0211615	0.020773	-0.00403607	-6.61979	23.1935	23.0389	2.67376	0.0428639	0.00498653	0.043153	6.63562	5.40147e+06	4.64307e+07	4.67438e+07	-83.3644	0.0000000E+000	0.0000000E+000	0.0000000E+000	83.3644	0.0000000E+000	0.0000000E+000	0.0000000E+000	-83.3644	0.0000000E+000	0.0000000E+000	0.0000000E+000	-6.63562	0.0000000E+000	0.0000000E+000	0.0000000E+000	6.63562	8.59594	83.3644	-3.44272e-05	-6.44843e-07	6.01022e-10	-6.45444e-07	0.262916	106997	99.7258	107097
0.0999041	23.422	3.28779	23.6517	-7.99051	79.4771	0.262668	-0.00239973	484543	9363.07	1	12	0.00474475	0.00020061	0	-0.000182839	-0.000302151	2.28925e-06	-15.0738	0.0114115	0.0110188	0.00296771	-7.99392	23.663	23.433	3.29076	0.0418698	0.00587735	0.0422803	7.99051	9.36307e+06	6.67019e+07	6.73558e+07	-82.0095	0.0000000E+000	0.0000000E+000	0.0000000E+000	82.0095	0.0000000E+000	0.0000000E+000	0.0000000E+000	-82.0095	0.0000000E+000	0.0000000E+000	0.0000000E+000	-7.99051	0.0000000E+000	0.0000000E+000	0.0000000E+000	7.99051	7.12393	82.0095	-6.90836e-05	-6.30331e-07	7.2508e-10	-6.31056e-07	0.26297	109457	125.911	109583
0.0680626	24.0007	4.1075	24.3496	-9.71156	110.405	0.262671	-0.00238093	569290	16199.6	1	12	0.00474169	0.000194733	0	-0.000277237	-0.000225711	1.92697e-06	45.2811	0.00989543	0.00696272	-0.00703137	-9.6925	24.3553	24.0077	4.10047	0.0404798	0.00692775	0.0410684	9.71156	1.61996e+07	9.46564e+07	9.60326e+07	-80.2884	0.0000000E+000	0.0000000E+000	0.0000000E+000	80.2884	0.0000000E+000	0.0000000E+000	0.0000000E+000	-80.2884	0.0000000E+000	0.0000000E+000	0.0000000E+000	-9.71156	0.0000000E+000	0.0000000E+000	0.0000000E+000	9.71156	5.84314	80.2884	-9.43974e-05	-6.254e-07	5.37401e-10	-6.25937e-07	0.262897	110323	94.7998	110418
0.0464052	24.812	5.24643	25.3606	-11.9392	155.755	0.262671	-0.00339012	653717	27976.9	1	12	0.00474045	0.000186922	0	-0.000377795	-1.55017e-05	3.31402e-06	23.2306	0.0177294	0.016292	-0.00699306	-11.9161	25.3751	24.8282	5.23944	0.0385783	0.0081573	0.0394313	11.9392	2.79769e+07	1.32311e+08	1.35237e+08	-78.0608	0.0000000E+000	0.0000000E+000	0.0000000E+000	78.0608	0.0000000E+000	0.0000000E+000	0.0000000E+000	-78.0608	0.0000000E+000	0.0000000E+000	0.0000000E+000	-11.9392	0.0000000E+000	0.0000000E+000	0.0000000E+000	11.9392	4.7293	78.0608	-0.000100559	-8.90486e-07	5.25526e-11	-8.90539e-07	0.262686	77481.3	4.5726	77485.8
0.0315922	25.6971	6.87967	26.6021	-14.9878	222.359	0.262668	-0.00361357	732273	48975.3	1	12	0.00474143	0.000178235	0	-0.000417289	-0.000206601	2.96191e-06	9.35074	0.016618	0.0163972	-0.00270005	-14.9731	26.6172	25.7135	6.87697	0.0363122	0.00972158	0.0375911	14.9878	4.89753e+07	1.82934e+08	1.89376e+08	-75.0122	0.0000000E+000	0.0000000E+000	0.0000000E+000	75.0122	0.0000000E+000	0.0000000E+000	0.0000000E+000	-75.0122	0.0000000E+000	0.0000000E+000	0.0000000E+000	-14.9878	0.0000000E+000	0.0000000E+000	0.0000000E+000	14.9878	3.73522	75.0122	-3.94938e-05	-9.4917e-07	7.46568e-10	-9.49916e-07	0.262875	72689.4	57.1737	72746.6
0.0215268	26.6366	8.89237	28.0817	-18.4611	320.098	0.262667	-0.00300367	831426	83370.4	1	12	0.0047412	0.000168836	0	-0.000325983	4.18282e-05	3.22737e-06	13.7059	0.0191154	0.0185711	-0.00452916	-18.4403	28.0979	26.6551	8.88784	0.0337778	0.0112764	0.0356104	18.4611	8.33704e+07	2.49731e+08	2.6328e+08	-71.5389	0.0000000E+000	0.0000000E+000	0.0000000E+000	71.5389	0.0000000E+000	0.0000000E+000	0.0000000E+000	-71.5389	0.0000000E+000	0.0000000E+000	0.0000000E+000	-18.4611	0.0000000E+000	0.0000000E+000	0.0000000E+000	18.4611	2.99544	71.5389	9.13058e-05	-7.88966e-07	-1.25638e-10	-7.88841e-07	0.262625	87448.8	13.9257	87434.9
0.0146812	28.0063	11.435	30.2509	-22.2102	463.4	0.262672	-0.00214511	948035	135463	1	12	0.00473906	0.000156659	0	-0.000100782	0.000137378	2.34034e-06	1.30447	0.0149391	0.0149353	-0.000340094	-22.1989	30.2646	28.0213	11.4346	0.0306042	0.0124957	0.0330569	22.2102	1.35463e+08	3.31773e+08	3.58362e+08	-67.7898	0.0000000E+000	0.0000000E+000	0.0000000E+000	67.7898	0.0000000E+000	0.0000000E+000	0.0000000E+000	-67.7898	0.0000000E+000	0.0000000E+000	0.0000000E+000	-22.2102	0.0000000E+000	0.0000000E+000	0.0000000E+000	22.2102	2.44918	67.7898	0.000225202	-5.63461e-07	-2.94691e-10	-5.63166e-07	0.262535	122452	64.0424	122387
0.0100092	30.0264	15.1009	33.6098	-26.6988	673.582	0.262667	-0.00165482	1.05298e+06	212565	1	12	0.00474235	0.0001411	0	0.000106323	3.60827e-06	2.51588e-06	7.58308	0.0178305	0.0176745	-0.00235297	-26.6817	33.6246	30.044	15.0986	0.0265809	0.0133681	0.0297532	26.6988	2.12565e+08	4.22661e+08	4.73103e+08	-63.3012	0.0000000E+000	0.0000000E+000	0.0000000E+000	63.3012	0.0000000E+000	0.0000000E+000	0.0000000E+000	-63.3012	0.0000000E+000	0.0000000E+000	0.0000000E+000	-26.6988	0.0000000E+000	0.0000000E+000	0.0000000E+000	26.6988	1.98838	63.3012	0.000207104	-4.34667e-07	-5.97104e-12	-4.34661e-07	0.262664	158729	2.18046	158727