File: txt/18820_R307_UA701_3p84_SOC00_C07.mpt
EC-Lab ASCII FILE
Nb header lines : 65

Potentio Electrochemical Impedance Spectroscopy

Run on channel : 7 (SN 66126)
User :
CE vs. WE compliance from -10 V to 10 V
Electrode connection : standard
Potential control : Ewe
Ewe ctrl range : min = -10.00 V, max = 10.00 V
Safety Limits :
	Do not start on E overload
Acquisition started on : 11/03/2025 16:09:20.167
Technique started on : 11/03/2025 16:09:22.078
Loaded Setting File :  C:\Users\Celltest\OneDrive - store-dot.com\Documents\EC-Lab\Data\@Biologic Test Protocols\anode half cell EIS SOC00.mps
Saved on :
	File : 18820_R307_UA701_3p84_SOC00_C07.mpr
	Directory : C:\Users\Celltest\OneDrive - store-dot.com\Documents\EC-Lab\Data\Anna\
	Host : 169.254.61.224
Device : VMP-3e (SN .003165)
Address : USB
EC-LAB for windows v11.62 (software)
Internet server v27.00 (firmware)
Command interpretor v12.03 (firmware)
Electrode material :
Initial state :
Electrolyte :
Comments :
Electrode surface area : 0.001 cm²
Characteristic mass : 0.001 g
Equivalent Weight : 0.000 g/eq.
Density : 0.000 g/cm3
Volume (V) : 0.001 cm³
Record Ece
Cycle Definition : Charge/Discharge alternance
Mode                Single sine
E (V)               0.0000
vs.                 Eoc
tE (h:m:s)          0:00:0.0000
record              0
dI                  0.000
unit dI             mA
dt (s)              0.000
fi                  100.000
unit fi             kHz
ff                  10.000
unit ff             mHz
Nd                  6
Points              per decade
spacing             Logarithmic
Va (mV)             5.0
pw                  0.10
Na                  2
corr                0
E range min (V)     -10.000
E range max (V)     10.000
I Range             Auto
Bandwidth           5
nc cycles           0
goto Ns'            0
nr cycles           0
inc. cycle          0

freq/Hz	Re(Z)/Ohm	-Im(Z)/Ohm	|Z|/Ohm	Phase(Z)/deg	time/s	<Ewe>/V	<I>/mA	Cs/µF	Cp/µF	cycle number	I Range	|Ewe|/V	|I|/A	Ns	(Q-Qo)/mA.h	<Ece>/V	|Ece|/V	Phase(Zce)/deg	|Zce|/Ohm	Re(Zce)/Ohm	-Im(Zce)/Ohm	Phase(Zwe-ce)/deg	|Zwe-ce|/Ohm	Re(Zwe-ce)/Ohm	-Im(Zwe-ce)/Ohm	Re(Y)/Ohm-1	Im(Y)/Ohm-1	|Y|/Ohm-1	Phase(Y)/deg	Re(C)/nF	Im(C)/nF	|C|/nF	Phase(C)/deg	Re(M)	Im(M)	|M|	Phase(M)/deg	Re(Permittivity)	Im(Permittivity)	|Permittivity|	Phase(Permittivity)/deg	Re(Resistivity)/Ohm.cm	Im(Resistivity)/Ohm.cm	|Resistivity|/Ohm.cm	Phase(Resistivity)/deg	Re(Conductivity)/mS/cm	Im(Conductivity)/mS/cm	|Conductivity|/mS/cm	Phase(Conductivity)/deg	Tan(Delta)	Loss Angle(Delta)/deg	dq/mA.h	Pwe/W	Pce/W	Pwe-ce/W	<Ewe-Ece>/V	Rwe/Ohm	Rce/Ohm	Rwe-ce/Ohm		Ewe-Ece/V
100004	1.10589	0.424861	1.1847	-21.0157	1.91055	0.250371	0.0472972	3.74591	0.481765	1	9	0.00453376	0.00382693	0	3.9134e-06	-0.000307521	4.54225e-05	92.9309	0.0118692	-0.000606899	-0.0118536	-20.4889	1.17993	1.10529	0.413007	0.78795	0.302713	0.844097	21.0157	481.765	1254.01	1343.37	-68.9843	0.0000000E+000	0.0000000E+000	0.0000000E+000	68.9843	0.0000000E+000	0.0000000E+000	0.0000000E+000	-68.9843	0.0000000E+000	0.0000000E+000	0.0000000E+000	-21.0157	0.0000000E+000	0.0000000E+000	0.0000000E+000	21.0157	2.60296	68.9843	3.9134e-06	1.18418e-05	-1.45449e-08	1.18564e-05	0.250679	5293.57	6.50189	5300.08
68132	1.21925	0.474087	1.30818	-21.2479	2.41752	0.250383	0.0399617	4.92731	0.647134	1	9	0.00504674	0.00385784	0	-5.8087e-08	-0.000288445	3.06654e-05	88.3529	0.00794885	0.000228477	-0.00794557	-20.9192	1.30553	1.21948	0.466142	0.712458	0.277029	0.764423	21.2479	647.134	1664.29	1785.67	-68.7521	0.0000000E+000	0.0000000E+000	0.0000000E+000	68.7521	0.0000000E+000	0.0000000E+000	0.0000000E+000	-68.7521	0.0000000E+000	0.0000000E+000	0.0000000E+000	-21.2479	0.0000000E+000	0.0000000E+000	0.0000000E+000	21.2479	2.57178	68.7521	-3.97149e-06	1.00057e-05	-1.15268e-08	1.00172e-05	0.250671	6265.58	7.21805	6272.8
46420.4	1.33986	0.513757	1.43498	-20.9788	2.92456	0.250391	0.04443	6.67351	0.855411	1	9	0.00505266	0.00352106	0	2.36674e-05	-0.000116767	2.02372e-05	69.122	0.00574746	0.00204827	-0.00537009	-20.7493	1.43499	1.34191	0.508387	0.650678	0.249496	0.696872	20.9788	855.411	2230.89	2389.27	-69.0212	0.0000000E+000	0.0000000E+000	0.0000000E+000	69.0212	0.0000000E+000	0.0000000E+000	0.0000000E+000	-69.0212	0.0000000E+000	0.0000000E+000	0.0000000E+000	-20.9788	0.0000000E+000	0.0000000E+000	0.0000000E+000	20.9788	2.60797	69.0212	2.37255e-05	1.11249e-05	-5.18794e-09	1.11301e-05	0.250508	5635.64	2.6281	5638.27
31621.1	1.46999	0.560494	1.57322	-20.8714	3.43156	0.250396	0.0522868	8.97991	1.13982	1	9	0.0050744	0.00322549	0	3.26482e-05	-7.86157e-05	1.38005e-05	31.1279	0.00427859	0.00366254	-0.00221182	-20.7488	1.57586	1.47365	0.558282	0.59393	0.226461	0.63564	20.8714	1139.82	2989.36	3199.29	-69.1286	0.0000000E+000	0.0000000E+000	0.0000000E+000	69.1286	0.0000000E+000	0.0000000E+000	0.0000000E+000	-69.1286	0.0000000E+000	0.0000000E+000	0.0000000E+000	-20.8714	0.0000000E+000	0.0000000E+000	0.0000000E+000	20.8714	2.62266	69.1286	8.98075e-06	1.30924e-05	-4.11056e-09	1.30965e-05	0.250475	4788.9	1.50355	4790.4
21544.7	1.60315	0.612801	1.71628	-20.9193	3.81655	0.250391	0.0513559	12.0548	1.53683	1	9	0.0053467	0.00311529	0	3.81229e-05	-0.000173993	8.77098e-06	-100.669	0.00281546	-0.000521235	0.00276679	-21.0118	1.71678	1.60263	0.615568	0.544251	0.208039	0.582657	20.9193	1536.83	4020.49	4304.2	-69.0807	0.0000000E+000	0.0000000E+000	0.0000000E+000	69.0807	0.0000000E+000	0.0000000E+000	0.0000000E+000	-69.0807	0.0000000E+000	0.0000000E+000	0.0000000E+000	-20.9193	0.0000000E+000	0.0000000E+000	0.0000000E+000	20.9193	2.6161	69.0807	5.47473e-06	1.2859e-05	-8.93556e-09	1.2868e-05	0.250565	4875.6	3.38798	4878.99
14678.6	1.73857	0.669997	1.8632	-21.0753	4.20156	0.250391	0.0446534	16.1831	2.09262	1	9	0.00472639	0.0025367	0	4.35551e-05	-0.000326596	7.67135e-06	-85.7589	0.00302414	0.000223643	0.00301586	-21.1593	1.86449	1.73879	0.673013	0.50081	0.192999	0.536711	21.0753	2092.62	5430.11	5819.37	-68.9247	0.0000000E+000	0.0000000E+000	0.0000000E+000	68.9247	0.0000000E+000	0.0000000E+000	0.0000000E+000	-68.9247	0.0000000E+000	0.0000000E+000	0.0000000E+000	-21.0753	0.0000000E+000	0.0000000E+000	0.0000000E+000	21.0753	2.59489	68.9247	5.43222e-06	1.11808e-05	-1.45836e-08	1.11954e-05	0.250718	5607.44	7.31403	5614.75
10002.2	1.89228	0.733833	2.02959	-21.1965	4.58652	0.250399	0.0441321	21.6834	2.83469	1	9	0.0049729	0.0024502	0	4.88152e-05	-0.000441049	1.28825e-05	-42.6911	0.00525775	0.00386455	0.00356499	-21.2507	2.03448	1.89614	0.737398	0.459377	0.178148	0.492711	21.1965	2834.69	7309.58	7839.99	-68.8035	0.0000000E+000	0.0000000E+000	0.0000000E+000	68.8035	0.0000000E+000	0.0000000E+000	0.0000000E+000	-68.8035	0.0000000E+000	0.0000000E+000	0.0000000E+000	-21.1965	0.0000000E+000	0.0000000E+000	0.0000000E+000	21.1965	2.57862	68.8035	5.26006e-06	1.10506e-05	-1.94644e-08	1.10701e-05	0.25084	5673.86	9.99384	5683.85
6810.42	2.05673	0.815492	2.2125	-21.6283	4.84552	0.250399	0.035456	28.6567	3.89314	1	9	0.00466487	0.00210842	0	4.9921e-05	-2.31406e-06	1.74963e-05	101.494	0.00829829	-0.0016536	-0.00813187	-21.448	2.20797	2.05507	0.807361	0.420156	0.166592	0.451978	21.6283	3893.14	9818.76	10562.4	-68.3717	0.0000000E+000	0.0000000E+000	0.0000000E+000	68.3717	0.0000000E+000	0.0000000E+000	0.0000000E+000	-68.3717	0.0000000E+000	0.0000000E+000	0.0000000E+000	-21.6283	0.0000000E+000	0.0000000E+000	0.0000000E+000	21.6283	2.52207	68.3717	1.10578e-06	8.87816e-06	-8.20473e-11	8.87824e-06	0.250401	7062.24	0.0652655	7062.3
4646	2.23697	0.921793	2.41945	-22.3952	5.11159	0.250376	0.0207106	37.1627	5.39436	1	9	0.00451926	0.00186789	0	5.09238e-05	-5.95403e-05	1.12229e-05	-37.315	0.00600836	0.00477854	0.00364225	-22.4317	2.42526	2.24175	0.925436	0.382144	0.157471	0.413317	22.3952	5394.36	13090.8	14158.7	-67.6048	0.0000000E+000	0.0000000E+000	0.0000000E+000	67.6048	0.0000000E+000	0.0000000E+000	0.0000000E+000	-67.6048	0.0000000E+000	0.0000000E+000	0.0000000E+000	-22.3952	0.0000000E+000	0.0000000E+000	0.0000000E+000	22.3952	2.42676	67.6048	1.00286e-06	5.18543e-06	-1.23311e-09	5.18666e-06	0.250436	12089.3	2.87488	12092.2
3163.08	2.44269	1.0512	2.65928	-23.2844	5.66268	0.250143	-0.0483251	47.8658	7.47942	1	9	0.00496242	0.00186608	0	4.65446e-05	-0.000288445	4.22726e-06	-57.7261	0.00226532	0.0012096	0.00191534	-23.312	2.66114	2.4439	1.05311	0.345415	0.148648	0.376042	23.2844	7479.42	17380.1	18921.1	-66.7156	0.0000000E+000	0.0000000E+000	0.0000000E+000	66.7156	0.0000000E+000	0.0000000E+000	0.0000000E+000	-66.7156	0.0000000E+000	0.0000000E+000	0.0000000E+000	-23.2844	0.0000000E+000	0.0000000E+000	0.0000000E+000	23.2844	2.32372	66.7156	-4.37925e-06	-1.20882e-05	1.39392e-08	-1.21021e-05	0.250432	5176.25	5.96885	5182.22
2155.69	2.65767	1.20637	2.91865	-24.4144	6.11378	0.250328	0.0739954	61.2	10.4556	1	9	0.0049055	0.00168074	0	5.38036e-05	-0.000250295	5.65731e-06	114.839	0.00336596	-0.00141396	-0.00305457	-24.3712	2.9161	2.65625	1.20332	0.311986	0.141618	0.342624	24.4144	10455.6	23034	25296	-65.5856	0.0000000E+000	0.0000000E+000	0.0000000E+000	65.5856	0.0000000E+000	0.0000000E+000	0.0000000E+000	-65.5856	0.0000000E+000	0.0000000E+000	0.0000000E+000	-24.4144	0.0000000E+000	0.0000000E+000	0.0000000E+000	24.4144	2.20302	65.5856	7.25901e-06	1.85231e-05	-1.85206e-08	1.85416e-05	0.250578	3383.02	3.38257	3386.4
1468.59	2.91498	1.39156	3.23009	-25.519	6.56505	0.25033	0.067628	77.8787	14.4541	1	9	0.00488615	0.0015127	0	6.26778e-05	-0.000383823	1.20656e-05	-7.34843	0.00797618	0.00791067	0.00102018	-25.4749	3.23767	2.92289	1.39258	0.279386	0.133374	0.309588	25.519	14454.1	30277.8	33550.9	-64.481	0.0000000E+000	0.0000000E+000	0.0000000E+000	64.481	0.0000000E+000	0.0000000E+000	0.0000000E+000	-64.481	0.0000000E+000	0.0000000E+000	0.0000000E+000	-25.519	0.0000000E+000	0.0000000E+000	0.0000000E+000	25.519	2.09476	64.481	8.87422e-06	1.69293e-05	-2.59571e-08	1.69553e-05	0.250714	3701.58	5.6755	3707.25
1000.32	3.22412	1.65604	3.62456	-27.1869	7.26078	0.250318	-0.020024	96.0748	20.0559	1	10	0.00498142	0.00137435	0	6.67365e-05	3.58368e-05	7.56141e-06	-76.9164	0.00550181	0.00124546	0.00535898	-27.2532	3.62812	3.22537	1.6614	0.245415	0.126055	0.275896	27.1869	20055.9	39046.5	43896.1	-62.8131	0.0000000E+000	0.0000000E+000	0.0000000E+000	62.8131	0.0000000E+000	0.0000000E+000	0.0000000E+000	-62.8131	0.0000000E+000	0.0000000E+000	0.0000000E+000	-27.1869	0.0000000E+000	0.0000000E+000	0.0000000E+000	27.1869	1.94688	62.8131	4.05874e-06	-5.01235e-06	-7.17594e-10	-5.01163e-06	0.250282	12500.9	1.7897	12499.1
681.09	3.57418	1.97907	4.08552	-28.9739	7.71054	0.250324	-0.0195028	118.074	27.7066	1	10	0.00494084	0.00120935	0	6.48173e-05	-0.000135842	8.90927e-06	-27.1646	0.00736698	0.00655439	0.00336338	-28.9707	4.09289	3.58073	1.98244	0.214132	0.118568	0.244767	28.9739	27706.6	50037.6	57196.3	-61.0261	0.0000000E+000	0.0000000E+000	0.0000000E+000	61.0261	0.0000000E+000	0.0000000E+000	0.0000000E+000	-61.0261	0.0000000E+000	0.0000000E+000	0.0000000E+000	-28.9739	0.0000000E+000	0.0000000E+000	0.0000000E+000	28.9739	1.80599	61.0261	-1.91921e-06	-4.88201e-06	2.6493e-09	-4.88466e-06	0.25046	12835.3	6.96527	12842.3
463.961	4.01906	2.38615	4.67403	-30.698	8.16234	0.250314	-0.0198974	143.761	37.4675	1	10	0.0049103	0.00105055	0	6.20598e-05	-0.000288445	1.04288e-05	63.7711	0.00992703	0.00438733	-0.0089049	-30.5767	4.67327	4.02345	2.37725	0.183968	0.109223	0.213948	30.698	37467.5	63107.4	73391.8	-59.302	0.0000000E+000	0.0000000E+000	0.0000000E+000	59.302	0.0000000E+000	0.0000000E+000	0.0000000E+000	-59.302	0.0000000E+000	0.0000000E+000	0.0000000E+000	-30.698	0.0000000E+000	0.0000000E+000	0.0000000E+000	30.698	1.68432	59.302	-2.75749e-06	-4.9806e-06	5.73931e-09	-4.98634e-06	0.250603	12580.2	14.4966	12594.7
316.316	4.60048	2.86778	5.42112	-31.9379	8.61208	0.250324	-0.0195512	175.45	49.0982	1	10	0.00488758	0.00090158	0	6.03242e-05	-0.000326596	8.99921e-06	73.4502	0.00998159	0.00284324	-0.00956808	-31.8362	5.41848	4.60333	2.85821	0.15654	0.0975813	0.184464	31.9379	49098.2	78763.3	92813.2	-58.0621	0.0000000E+000	0.0000000E+000	0.0000000E+000	58.0621	0.0000000E+000	0.0000000E+000	0.0000000E+000	-58.0621	0.0000000E+000	0.0000000E+000	0.0000000E+000	-31.9379	0.0000000E+000	0.0000000E+000	0.0000000E+000	31.9379	1.6042	58.0621	-1.73567e-06	-4.89412e-06	6.38534e-09	-4.90051e-06	0.25065	12803.5	16.7047	12820.2
215.345	5.3821	3.38854	6.35997	-32.1943	9.06153	0.250325	-0.0188774	218.109	61.914	1	10	0.00487196	0.000766035	0	5.77165e-05	-0.000173993	1.03376e-05	-58.1297	0.0134949	0.00712529	0.0114605	-32.2474	6.37211	5.38923	3.4	0.133058	0.0837727	0.157233	32.1943	61914	98339.4	116207	-57.8057	0.0000000E+000	0.0000000E+000	0.0000000E+000	57.8057	0.0000000E+000	0.0000000E+000	0.0000000E+000	-57.8057	0.0000000E+000	0.0000000E+000	0.0000000E+000	-32.1943	0.0000000E+000	0.0000000E+000	0.0000000E+000	32.1943	1.58832	57.8057	-2.60765e-06	-4.72547e-06	3.28453e-09	-4.72876e-06	0.250499	13260.6	9.21701	13269.8
146.737	6.40724	3.84237	7.47105	-30.9507	9.50746	0.250324	-0.0215652	282.28	74.6646	1	10	0.0048716	0.000652064	0	5.49744e-05	-0.000364747	6.61407e-06	8.91875	0.0101433	0.0100206	-0.00157255	-30.9009	7.47884	6.41727	3.84079	0.114791	0.0688392	0.13385	30.9507	74664.6	124505	145177	-59.0493	0.0000000E+000	0.0000000E+000	0.0000000E+000	59.0493	0.0000000E+000	0.0000000E+000	0.0000000E+000	-59.0493	0.0000000E+000	0.0000000E+000	0.0000000E+000	-30.9507	0.0000000E+000	0.0000000E+000	0.0000000E+000	30.9507	1.66753	59.0493	-2.74214e-06	-5.39829e-06	7.86584e-09	-5.40616e-06	0.250689	11607.8	16.9137	11624.7
100.032	7.59545	4.15362	8.65699	-28.6723	9.95782	0.250319	-0.0198453	383.049	88.1808	1	10	0.00486802	0.000562323	0	5.27872e-05	-0.000173993	8.25924e-06	26.7914	0.0146877	0.013111	-0.00662039	-28.5923	8.66533	7.60857	4.147	0.101349	0.0554234	0.115514	28.6723	88180.8	161250	183787	-61.3277	0.0000000E+000	0.0000000E+000	0.0000000E+000	61.3277	0.0000000E+000	0.0000000E+000	0.0000000E+000	-61.3277	0.0000000E+000	0.0000000E+000	0.0000000E+000	-28.6723	0.0000000E+000	0.0000000E+000	0.0000000E+000	28.6723	1.82864	61.3277	-2.18721e-06	-4.96765e-06	3.45294e-09	-4.9711e-06	0.250493	12613.5	8.76747	12622.3
68.104	8.85663	4.26866	9.83165	-25.7328	10.4205	0.250319	-0.0165544	547.465	103.201	1	10	0.00485627	0.000493942	0	5.08597e-05	0.000226591	5.37898e-06	-103.773	0.0108899	-0.00259266	0.0105768	-25.7949	9.83391	8.85404	4.27923	0.0916253	0.0441609	0.101712	25.7328	103201	214123	237696	-64.2672	0.0000000E+000	0.0000000E+000	0.0000000E+000	64.2672	0.0000000E+000	0.0000000E+000	0.0000000E+000	-64.2672	0.0000000E+000	0.0000000E+000	0.0000000E+000	-25.7328	0.0000000E+000	0.0000000E+000	0.0000000E+000	25.7328	2.07481	64.2672	-1.92743e-06	-4.14387e-06	-3.75107e-09	-4.14012e-06	0.250092	15121	13.6877	15107.3
46.4415	10.1313	4.17616	10.9583	-22.4016	10.8567	0.250319	-0.0217699	820.61	119.181	1	10	0.00486193	0.000443677	0	4.81592e-05	-4.04649e-05	1.00877e-05	49.6492	0.0227367	0.0147212	-0.0173275	-22.2886	10.9653	10.146	4.15883	0.0843688	0.0347771	0.0912553	22.4016	119181	289131	312732	-67.5984	0.0000000E+000	0.0000000E+000	0.0000000E+000	67.5984	0.0000000E+000	0.0000000E+000	0.0000000E+000	-67.5984	0.0000000E+000	0.0000000E+000	0.0000000E+000	-22.4016	0.0000000E+000	0.0000000E+000	0.0000000E+000	22.4016	2.42599	67.5984	-2.70054e-06	-5.44944e-06	8.80919e-10	-5.45032e-06	0.25036	11498.4	1.85875	11500.2
31.6296	11.2606	3.89328	11.9146	-19.0725	11.2865	0.250312	-0.0240706	1292.44	138.001	1	10	0.00485962	0.000407871	0	4.63662e-05	1.67614e-05	3.67287e-06	9.19419	0.00900498	0.00888929	-0.00143882	-19.052	11.9225	11.2695	3.89184	0.0793232	0.0274256	0.0839306	19.0725	138001	399142	422325	-70.9275	0.0000000E+000	0.0000000E+000	0.0000000E+000	70.9275	0.0000000E+000	0.0000000E+000	0.0000000E+000	-70.9275	0.0000000E+000	0.0000000E+000	0.0000000E+000	-19.0725	0.0000000E+000	0.0000000E+000	0.0000000E+000	19.0725	2.89231	70.9275	-1.79301e-06	-6.02516e-06	-4.03456e-10	-6.02476e-06	0.250295	10399.1	0.696341	10398.4
21.5517	12.2386	3.53873	12.7399	-16.127	11.7074	0.250314	-0.0250348	2086.85	161.01	1	10	0.00485909	0.000381407	0	4.38281e-05	-0.000193068	8.95833e-06	168.517	0.0234876	-0.0230175	-0.00467586	-16.1356	12.7165	12.2155	3.53405	0.0754047	0.0218029	0.0784935	16.127	161010	556848	579658	-73.873	0.0000000E+000	0.0000000E+000	0.0000000E+000	73.873	0.0000000E+000	0.0000000E+000	0.0000000E+000	-73.873	0.0000000E+000	0.0000000E+000	0.0000000E+000	-16.127	0.0000000E+000	0.0000000E+000	0.0000000E+000	16.127	3.45846	73.873	-2.5381e-06	-6.26657e-06	4.83343e-09	-6.2714e-06	0.250507	9998.65	7.71199	10006.4
14.6852	13.066	3.20019	13.4522	-13.7623	12.1682	0.250331	-0.0174218	3386.61	191.66	1	10	0.00484931	0.000360485	0	4.27716e-05	-0.00051735	3.99594e-06	-140.574	0.0110849	-0.00856247	0.00703986	-13.8001	13.4456	13.0574	3.20723	0.0722031	0.0176844	0.0743373	13.7623	191660	782524	805653	-76.2377	0.0000000E+000	0.0000000E+000	0.0000000E+000	76.2377	0.0000000E+000	0.0000000E+000	0.0000000E+000	-76.2377	0.0000000E+000	0.0000000E+000	0.0000000E+000	-13.7623	0.0000000E+000	0.0000000E+000	0.0000000E+000	13.7623	4.08288	76.2377	-1.05654e-06	-4.36121e-06	9.01316e-09	-4.37022e-06	0.250848	14368.8	29.6956	14398.5
10.0032	13.8488	2.84296	14.1376	-11.6009	12.8638	0.25036	-0.00613889	5596.41	226.309	1	11	0.00486542	0.000344148	0	4.01017e-05	7.39876e-05	1.08764e-05	135.461	0.0316039	-0.0225265	-0.0221666	-11.5311	14.1111	13.8263	2.8208	0.0692885	0.014224	0.0707335	11.6009	226309	1.10241e+06	1.1254e+06	-78.3991	0.0000000E+000	0.0000000E+000	0.0000000E+000	78.3991	0.0000000E+000	0.0000000E+000	0.0000000E+000	-78.3991	0.0000000E+000	0.0000000E+000	0.0000000E+000	-11.6009	0.0000000E+000	0.0000000E+000	0.0000000E+000	11.6009	4.87125	78.3991	-2.66987e-06	-1.53693e-06	-4.54202e-10	-1.53648e-06	0.250286	40782.6	12.0523	40770.6
6.81719	14.4211	2.55643	14.6459	-10.0524	13.2035	0.250382	-0.00460769	9132.32	278.237	1	11	0.00484327	0.000330691	0	3.73573e-05	-0.000421973	8.56551e-06	10.5333	0.0259019	0.0254654	-0.00473506	-10.0168	14.6702	14.4466	2.55169	0.0672302	0.0119179	0.0682784	10.0524	278237	1.56956e+06	1.59404e+06	-79.9476	0.0000000E+000	0.0000000E+000	0.0000000E+000	79.9476	0.0000000E+000	0.0000000E+000	0.0000000E+000	-79.9476	0.0000000E+000	0.0000000E+000	0.0000000E+000	-10.0524	0.0000000E+000	0.0000000E+000	0.0000000E+000	10.0524	5.64111	79.9476	-2.74437e-06	-1.15368e-06	1.94432e-09	-1.15563e-06	0.250804	54340.1	91.5802	54431.6
4.63925	15.0042	2.27059	15.175	-8.60528	13.6874	0.250359	-0.00530881	15108.9	338.26	1	11	0.00485473	0.000319915	0	3.51613e-05	-0.000345672	2.60812e-05	52.8479	0.0815253	0.0492358	-0.0649785	-8.33558	15.2142	15.0535	2.20561	0.0651558	0.00986003	0.0658976	8.60528	338260	2.23525e+06	2.2607e+06	-81.3947	0.0000000E+000	0.0000000E+000	0.0000000E+000	81.3947	0.0000000E+000	0.0000000E+000	0.0000000E+000	-81.3947	0.0000000E+000	0.0000000E+000	0.0000000E+000	-8.60528	0.0000000E+000	0.0000000E+000	0.0000000E+000	8.60528	6.60808	81.3947	-2.19603e-06	-1.32911e-06	1.83511e-09	-1.33094e-06	0.250705	47159.2	65.1128	47224.3
3.1604	15.4766	1.9986	15.6051	-7.3583	14.3805	0.250372	-0.00512729	25197.2	413.307	1	11	0.00485813	0.000311317	0	3.78778e-05	-0.0004792	2.98174e-06	-25.5611	0.00957783	0.0086404	0.00413258	-7.36928	15.6142	15.4852	2.00274	0.063554	0.00820719	0.0640817	7.3583	413308	3.20052e+06	3.2271e+06	-82.6417	0.0000000E+000	0.0000000E+000	0.0000000E+000	82.6417	0.0000000E+000	0.0000000E+000	0.0000000E+000	-82.6417	0.0000000E+000	0.0000000E+000	0.0000000E+000	-7.3583	0.0000000E+000	0.0000000E+000	0.0000000E+000	7.3583	7.74369	82.6417	2.71654e-06	-1.28373e-06	2.45699e-09	-1.28619e-06	0.250851	48831.3	93.4607	48924.7
2.15577	15.8985	1.76011	15.9956	-6.31747	15.3841	0.250372	-0.00441881	41944.8	507.876	1	11	0.0048634	0.000304046	0	4.12006e-05	-0.000193068	2.24745e-06	12.6726	0.00739181	0.00721174	-0.00162161	-6.30886	16.0026	15.9057	1.75849	0.0621376	0.00687923	0.0625172	6.31747	507876	4.58746e+06	4.61549e+06	-83.6825	0.0000000E+000	0.0000000E+000	0.0000000E+000	83.6825	0.0000000E+000	0.0000000E+000	0.0000000E+000	-83.6825	0.0000000E+000	0.0000000E+000	0.0000000E+000	-6.31747	0.0000000E+000	0.0000000E+000	0.0000000E+000	6.31747	9.03264	83.6825	3.32273e-06	-1.10634e-06	8.53132e-10	-1.1072e-06	0.250565	56660.4	43.6924	56704.1
1.46631	16.2512	1.58306	16.3282	-5.56371	16.8455	0.250371	-0.00334529	68564.3	644.49	1	11	0.00486267	0.000297809	0	3.97027e-05	-9.76912e-05	1.98483e-06	8.9828	0.00666478	0.00658304	-0.00104062	-5.55784	16.3346	16.2578	1.58202	0.0609554	0.00593775	0.0612439	5.56371	644491	6.61617e+06	6.64748e+06	-84.4363	0.0000000E+000	0.0000000E+000	0.0000000E+000	84.4363	0.0000000E+000	0.0000000E+000	0.0000000E+000	-84.4363	0.0000000E+000	0.0000000E+000	0.0000000E+000	-5.56371	0.0000000E+000	0.0000000E+000	0.0000000E+000	5.56371	10.2657	84.4363	-1.49785e-06	-8.37565e-07	3.26805e-10	-8.37891e-07	0.250469	74843	29.2026	74872.2
1.00006	16.5249	1.46982	16.5901	-5.08286	20.0199	0.25037	-0.00314874	108275	849.884	1	12	0.00485835	0.000292846	0	2.86872e-05	-0.000383823	4.09128e-06	22.1239	0.0139708	0.0129421	-0.00526154	-5.06082	16.6025	16.5378	1.46456	0.0600399	0.00534032	0.0602769	5.08286	849884	9.55504e+06	9.59276e+06	-84.9171	0.0000000E+000	0.0000000E+000	0.0000000E+000	84.9171	0.0000000E+000	0.0000000E+000	0.0000000E+000	-84.9171	0.0000000E+000	0.0000000E+000	0.0000000E+000	-5.08286	0.0000000E+000	0.0000000E+000	0.0000000E+000	5.08286	11.2428	84.9171	-1.10155e-05	-7.88351e-07	1.20856e-09	-7.89559e-07	0.250754	79514.2	121.897	79636.1
0.681362	16.7712	1.42123	16.8314	-4.8438	23.132	0.250374	-0.0030297	164353	1171.84	1	12	0.00485868	0.000288668	0	1.37351e-05	-0.000307521	2.03197e-06	-17.8469	0.00703911	0.00670038	0.00215731	-4.84919	16.8382	16.7779	1.42339	0.0592007	0.0050168	0.0594129	4.8438	1.17184e+06	1.38283e+07	1.38779e+07	-85.1562	0.0000000E+000	0.0000000E+000	0.0000000E+000	85.1562	0.0000000E+000	0.0000000E+000	0.0000000E+000	-85.1562	0.0000000E+000	0.0000000E+000	0.0000000E+000	-4.8438	0.0000000E+000	0.0000000E+000	0.0000000E+000	4.8438	11.8005	85.1562	-1.49521e-05	-7.58558e-07	9.31696e-10	-7.5949e-07	0.250682	82639.9	101.502	82741.4
0.464091	17.0242	1.45678	17.0864	-4.89095	27.6885	0.250371	-0.00437944	235409	1711.23	1	12	0.00486073	0.000284479	0	-2.94438e-08	-0.000193068	2.5179e-06	-12.5755	0.00885092	0.00863858	0.00192707	-4.89492	17.0952	17.0329	1.45871	0.0583128	0.00498989	0.0585259	4.89095	1.71123e+06	1.99978e+07	2.00708e+07	-85.109	0.0000000E+000	0.0000000E+000	0.0000000E+000	85.109	0.0000000E+000	0.0000000E+000	0.0000000E+000	-85.109	0.0000000E+000	0.0000000E+000	0.0000000E+000	-4.89095	0.0000000E+000	0.0000000E+000	0.0000000E+000	4.89095	11.6862	85.109	-1.37645e-05	-1.09649e-06	8.45532e-10	-1.09733e-06	0.250564	57169.7	44.0851	57213.7
0.316193	17.2606	1.63678	17.338	-5.41703	34.3629	0.250368	-0.00548878	307522	2740.69	1	12	0.00486214	0.000280432	0	-3.56424e-06	-0.000154917	1.42676e-06	76.8955	0.00508773	0.00115353	-0.00495524	-5.40037	17.3387	17.2618	1.63183	0.0574191	0.00544492	0.0576766	5.41703	2.74069e+06	2.89017e+07	2.90314e+07	-84.583	0.0000000E+000	0.0000000E+000	0.0000000E+000	84.583	0.0000000E+000	0.0000000E+000	0.0000000E+000	-84.583	0.0000000E+000	0.0000000E+000	0.0000000E+000	-5.41703	0.0000000E+000	0.0000000E+000	0.0000000E+000	5.41703	10.5454	84.583	-3.53479e-06	-1.37422e-06	8.50307e-10	-1.37507e-06	0.250523	45614.6	28.2244	45642.8
0.215268	17.4859	1.92992	17.5921	-6.29824	44.1565	0.250375	-0.00496454	383090	4610.46	1	12	0.00485988	0.000276253	0	1.20769e-05	-9.76912e-05	1.24205e-06	54.1532	0.00449607	0.00263299	-0.00364445	-6.2855	17.5943	17.4886	1.92628	0.0565005	0.00623596	0.0568436	6.29824	4.61046e+06	4.17728e+07	4.20264e+07	-83.7018	0.0000000E+000	0.0000000E+000	0.0000000E+000	83.7018	0.0000000E+000	0.0000000E+000	0.0000000E+000	-83.7018	0.0000000E+000	0.0000000E+000	0.0000000E+000	-6.29824	0.0000000E+000	0.0000000E+000	0.0000000E+000	6.29824	9.06044	83.7018	1.56411e-05	-1.243e-06	4.84991e-10	-1.24348e-06	0.250473	50432.8	19.6778	50452.4
0.146929	17.8027	2.33826	17.9556	-7.48256	58.4948	0.250374	-0.003903	463255	7856.07	1	12	0.00486474	0.000270931	0	4.7692e-05	-5.95403e-05	3.15907e-06	-4.02988	0.0116601	0.0116312	0.000819431	-7.48032	17.9673	17.8143	2.33908	0.0552186	0.00725257	0.0556929	7.48256	7.85607e+06	5.98134e+07	6.03272e+07	-82.5174	0.0000000E+000	0.0000000E+000	0.0000000E+000	82.5174	0.0000000E+000	0.0000000E+000	0.0000000E+000	-82.5174	0.0000000E+000	0.0000000E+000	0.0000000E+000	-7.48256	0.0000000E+000	0.0000000E+000	0.0000000E+000	7.48256	7.61366	82.5174	3.56151e-05	-9.77211e-07	2.32386e-10	-9.77444e-07	0.250434	64149.1	15.255	64164.4
0.0999041	18.2632	2.92748	18.4964	-9.10667	79.571	0.250375	-0.00199488	544181	13631.9	1	12	0.00486025	0.000262768	0	8.93866e-05	-0.000173993	1.68272e-06	7.07094	0.00640382	0.00635512	-0.000788299	-9.10115	18.5025	18.2696	2.92669	0.0533832	0.00855698	0.0540647	9.10667	1.36319e+07	8.50436e+07	8.61292e+07	-80.8933	0.0000000E+000	0.0000000E+000	0.0000000E+000	80.8933	0.0000000E+000	0.0000000E+000	0.0000000E+000	-80.8933	0.0000000E+000	0.0000000E+000	0.0000000E+000	-9.10667	0.0000000E+000	0.0000000E+000	0.0000000E+000	9.10667	6.23856	80.8933	4.16945e-05	-4.99467e-07	3.47094e-10	-4.99814e-07	0.250549	125509	87.2198	125596
0.0680626	18.8319	3.80078	19.2116	-11.4106	110.499	0.250372	-0.000914828	615232	24080.1	1	12	0.00486009	0.000252977	0	0.000104302	-5.95403e-05	1.95334e-06	-25.2682	0.00772143	0.00698264	0.00329594	-11.4161	19.2191	18.8389	3.80408	0.0510231	0.0102978	0.0520519	11.4106	2.40801e+07	1.1931e+08	1.21716e+08	-78.5894	0.0000000E+000	0.0000000E+000	0.0000000E+000	78.5894	0.0000000E+000	0.0000000E+000	0.0000000E+000	-78.5894	0.0000000E+000	0.0000000E+000	0.0000000E+000	-11.4106	0.0000000E+000	0.0000000E+000	0.0000000E+000	11.4106	4.95474	78.5894	1.49158e-05	-2.29047e-07	5.44691e-11	-2.29101e-07	0.250431	273682	65.0836	273747
0.0464052	19.4466	4.97871	20.0738	-14.3604	155.85	0.250377	-0.000471879	688869	42375.2	1	12	0.00486402	0.000242307	0	3.02297e-05	-0.000135842	3.17693e-06	-2.88164	0.0131112	0.0130946	0.000659139	-14.353	20.0866	19.4597	4.97937	0.0482597	0.0123555	0.0498162	14.3604	4.23752e+07	1.65515e+08	1.70854e+08	-75.6396	0.0000000E+000	0.0000000E+000	0.0000000E+000	75.6396	0.0000000E+000	0.0000000E+000	0.0000000E+000	-75.6396	0.0000000E+000	0.0000000E+000	0.0000000E+000	-14.3604	0.0000000E+000	0.0000000E+000	0.0000000E+000	14.3604	3.90594	75.6396	-7.40726e-05	-1.18148e-07	6.4101e-11	-1.18212e-07	0.250513	530596	287.875	530884
0.0315922	20.1789	6.39236	21.1672	-17.5773	222.455	0.250377	-0.00125299	788096	71874.1	1	12	0.00485982	0.000229592	0	-0.000186965	-0.000250295	1.91766e-06	6.89819	0.0083525	0.00829204	-0.00100318	-17.568	21.1748	20.1872	6.39135	0.0450371	0.014267	0.0472428	17.5773	7.18741e+07	2.26887e+08	2.37999e+08	-72.4227	0.0000000E+000	0.0000000E+000	0.0000000E+000	72.4227	0.0000000E+000	0.0000000E+000	0.0000000E+000	-72.4227	0.0000000E+000	0.0000000E+000	0.0000000E+000	-17.5773	0.0000000E+000	0.0000000E+000	0.0000000E+000	17.5773	3.15673	72.4227	-0.000217194	-3.13719e-07	3.13615e-10	-3.14033e-07	0.250627	199824	199.759	200024
0.0215268	21.3072	8.2945	22.8647	-21.27	320.193	0.250376	-0.00223069	891356	117300	1	12	0.00485917	0.000212518	0	-0.000519811	-0.000288445	2.69811e-06	-58.2299	0.0126959	0.00668457	0.0107937	-21.2891	22.8749	21.3139	8.30529	0.0407562	0.0158656	0.0437355	21.27	1.173e+08	3.01325e+08	3.23351e+08	-68.73	0.0000000E+000	0.0000000E+000	0.0000000E+000	68.73	0.0000000E+000	0.0000000E+000	0.0000000E+000	-68.73	0.0000000E+000	0.0000000E+000	0.0000000E+000	-21.27	0.0000000E+000	0.0000000E+000	0.0000000E+000	21.27	2.56884	68.73	-0.000332846	-5.58512e-07	6.43432e-10	-5.59155e-07	0.250665	112242	129.308	112371
0.0146812	22.7977	11.0697	25.3431	-25.8994	463.496	0.250375	-0.00298276	979319	186842	1	12	0.00485963	0.000191754	0	-0.000820252	-9.76912e-05	1.67668e-06	32.9874	0.00874391	0.00733431	-0.00476067	-25.8825	25.3476	22.805	11.0649	0.0354954	0.0172352	0.0394585	25.8994	1.86842e+08	3.84796e+08	4.27759e+08	-64.1006	0.0000000E+000	0.0000000E+000	0.0000000E+000	64.1006	0.0000000E+000	0.0000000E+000	0.0000000E+000	-64.1006	0.0000000E+000	0.0000000E+000	0.0000000E+000	-25.8994	0.0000000E+000	0.0000000E+000	0.0000000E+000	25.8994	2.05947	64.1006	-0.000300441	-7.46807e-07	2.91389e-10	-7.47098e-07	0.250472	83940.7	32.752	83973.5
0.0100092	24.4097	14.7406	28.5152	-31.1272	673.678	0.250378	-0.00313674	1.07871e+06	288260	1	12	0.00485913	0.000170405	0	-0.000870323	-0.000193068	1.76411e-06	37.6081	0.0103525	0.00820127	-0.00631767	-31.1078	28.519	24.4179	14.7343	0.0300198	0.0181285	0.035069	31.1272	2.8826e+08	4.77343e+08	5.57629e+08	-58.8728	0.0000000E+000	0.0000000E+000	0.0000000E+000	58.8728	0.0000000E+000	0.0000000E+000	0.0000000E+000	-58.8728	0.0000000E+000	0.0000000E+000	0.0000000E+000	-31.1272	0.0000000E+000	0.0000000E+000	0.0000000E+000	31.1272	1.65594	58.8728	-5.00716e-05	-7.85372e-07	6.05606e-10	-7.85977e-07	0.250571	79821	61.5505	79882.5