File: txt/18826_R307_UA701_4p38_SOC00_C05.mpt
EC-Lab ASCII FILE
Nb header lines : 65

Potentio Electrochemical Impedance Spectroscopy

Run on channel : 5 (SN 65912)
User :
CE vs. WE compliance from -10 V to 10 V
Electrode connection : standard
Potential control : Ewe
Ewe ctrl range : min = -10.00 V, max = 10.00 V
Safety Limits :
	Do not start on E overload
Acquisition started on : 11/03/2025 17:11:05.636
Technique started on : 11/03/2025 17:11:07.690
Loaded Setting File :  C:\Users\Celltest\OneDrive - store-dot.com\Documents\EC-Lab\Data\@Biologic Test Protocols\anode half cell EIS SOC00.mps
Saved on :
	File : 18826_R307_UA701_4p38_SOC00_C05.mpr
	Directory : C:\Users\Celltest\OneDrive - store-dot.com\Documents\EC-Lab\Data\Anna\
	Host : 169.254.61.224
Device : VMP-3e (SN .003165)
Address : USB
EC-LAB for windows v11.62 (software)
Internet server v27.00 (firmware)
Command interpretor v12.03 (firmware)
Electrode material :
Initial state :
Electrolyte :
Comments :
Electrode surface area : 0.001 cm²
Characteristic mass : 0.001 g
Equivalent Weight : 0.000 g/eq.
Density : 0.000 g/cm3
Volume (V) : 0.001 cm³
Record Ece
Cycle Definition : Charge/Discharge alternance
Mode                Single sine
E (V)               0.0000
vs.                 Eoc
tE (h:m:s)          0:00:0.0000
record              0
dI                  0.000
unit dI             mA
dt (s)              0.000
fi                  100.000
unit fi             kHz
ff                  10.000
unit ff             mHz
Nd                  6
Points              per decade
spacing             Logarithmic
Va (mV)             5.0
pw                  0.10
Na                  2
corr                0
E range min (V)     -10.000
E range max (V)     10.000
I Range             Auto
Bandwidth           5
nc cycles           0
goto Ns'            0
nr cycles           0
inc. cycle          0

freq/Hz	Re(Z)/Ohm	-Im(Z)/Ohm	|Z|/Ohm	Phase(Z)/deg	time/s	<Ewe>/V	<I>/mA	Cs/µF	Cp/µF	cycle number	I Range	|Ewe|/V	|I|/A	Ns	(Q-Qo)/mA.h	<Ece>/V	|Ece|/V	Phase(Zce)/deg	|Zce|/Ohm	Re(Zce)/Ohm	-Im(Zce)/Ohm	Phase(Zwe-ce)/deg	|Zwe-ce|/Ohm	Re(Zwe-ce)/Ohm	-Im(Zwe-ce)/Ohm	Re(Y)/Ohm-1	Im(Y)/Ohm-1	|Y|/Ohm-1	Phase(Y)/deg	Re(C)/nF	Im(C)/nF	|C|/nF	Phase(C)/deg	Re(M)	Im(M)	|M|	Phase(M)/deg	Re(Permittivity)	Im(Permittivity)	|Permittivity|	Phase(Permittivity)/deg	Re(Resistivity)/Ohm.cm	Im(Resistivity)/Ohm.cm	|Resistivity|/Ohm.cm	Phase(Resistivity)/deg	Re(Conductivity)/mS/cm	Im(Conductivity)/mS/cm	|Conductivity|/mS/cm	Phase(Conductivity)/deg	Tan(Delta)	Loss Angle(Delta)/deg	dq/mA.h	Pwe/W	Pce/W	Pwe-ce/W	<Ewe-Ece>/V	Rwe/Ohm	Rce/Ohm	Rwe-ce/Ohm		Ewe-Ece/V
100004	1.31388	0.457225	1.39117	-19.1876	2.05352	0.255337	-0.0153271	3.48076	0.375989	1	9	0.00495831	0.00356414	0	-5.1161e-06	-6.05491e-05	4.22052e-05	79.3404	0.0118416	0.00219039	-0.0116373	-18.7047	1.38946	1.31608	0.445588	0.678888	0.236249	0.718821	19.1876	375.989	1080.44	1144	-70.8124	0.0000000E+000	0.0000000E+000	0.0000000E+000	70.8124	0.0000000E+000	0.0000000E+000	0.0000000E+000	-70.8124	0.0000000E+000	0.0000000E+000	0.0000000E+000	-19.1876	0.0000000E+000	0.0000000E+000	0.0000000E+000	19.1876	2.87361	70.8124	-5.1161e-06	-3.91357e-06	9.2804e-10	-3.9145e-06	0.255398	16659.2	3.95047	16663.2
68132	1.44345	0.50483	1.52919	-19.2766	2.56052	0.255319	-0.0142844	4.62726	0.504305	1	9	0.00506716	0.00331363	0	-1.45529e-05	0.000187637	3.43161e-05	77.051	0.010356	0.00232063	-0.0100927	-18.8907	1.52808	1.44577	0.494737	0.61728	0.215886	0.653943	19.2766	504.305	1441.95	1527.6	-70.7234	0.0000000E+000	0.0000000E+000	0.0000000E+000	70.7234	0.0000000E+000	0.0000000E+000	0.0000000E+000	-70.7234	0.0000000E+000	0.0000000E+000	0.0000000E+000	-19.2766	0.0000000E+000	0.0000000E+000	0.0000000E+000	19.2766	2.85929	70.7234	-9.43678e-06	-3.64707e-06	-2.68027e-09	-3.64439e-06	0.255132	17874.1	13.1358	17860.9
46420.4	1.57262	0.544343	1.66417	-19.0926	3.06756	0.255314	-0.0134278	6.29853	0.67389	1	9	0.00501594	0.00301408	0	-2.79239e-06	5.39982e-05	1.28677e-05	61.8995	0.00426919	0.00201087	-0.00376595	-18.9475	1.66484	1.57464	0.540577	0.567846	0.196552	0.600901	19.0926	673.89	1946.89	2060.22	-70.9074	0.0000000E+000	0.0000000E+000	0.0000000E+000	70.9074	0.0000000E+000	0.0000000E+000	0.0000000E+000	-70.9074	0.0000000E+000	0.0000000E+000	0.0000000E+000	-19.0926	0.0000000E+000	0.0000000E+000	0.0000000E+000	19.0926	2.88903	70.9074	1.17605e-05	-3.42832e-06	-7.2508e-10	-3.4276e-06	0.25526	19013.8	4.02136	19009.8
31621.1	1.70707	0.590534	1.80633	-19.0822	3.45055	0.255314	-0.0132044	8.5231	0.910949	1	9	0.00548913	0.00303883	0	-6.99683e-06	-0.000194188	1.40216e-05	22.5601	0.00461413	0.00426105	-0.00177022	-18.9852	1.80978	1.71133	0.588764	0.523188	0.180989	0.553609	19.0822	910.949	2633.3	2786.41	-70.9178	0.0000000E+000	0.0000000E+000	0.0000000E+000	70.9178	0.0000000E+000	0.0000000E+000	0.0000000E+000	-70.9178	0.0000000E+000	0.0000000E+000	0.0000000E+000	-19.0822	0.0000000E+000	0.0000000E+000	0.0000000E+000	19.0822	2.89073	70.9178	-4.20444e-06	-3.37127e-06	2.56413e-09	-3.37383e-06	0.255508	19335.5	14.7063	19350.2
21544.7	1.84616	0.642936	1.95491	-19.201	3.83356	0.255311	-0.0142471	11.4898	1.24278	1	9	0.00524999	0.00268554	0	-2.60056e-06	0.000149454	1.17136e-05	2.02964	0.00436174	0.00435901	-0.000154477	-19.1548	1.95898	1.85052	0.642782	0.483076	0.168234	0.511533	19.201	1242.78	3568.58	3778.79	-70.799	0.0000000E+000	0.0000000E+000	0.0000000E+000	70.799	0.0000000E+000	0.0000000E+000	0.0000000E+000	-70.799	0.0000000E+000	0.0000000E+000	0.0000000E+000	-19.201	0.0000000E+000	0.0000000E+000	0.0000000E+000	19.201	2.87145	70.799	4.39627e-06	-3.63744e-06	-2.12929e-09	-3.63531e-06	0.255161	17920.1	10.4901	17909.6
14678.6	1.98658	0.704186	2.10769	-19.518	4.21656	0.255299	-0.0140982	15.3974	1.71874	1	9	0.00505918	0.00240034	0	5.65343e-07	0.000149454	6.05093e-06	19.012	0.00252086	0.00238335	-0.000821211	-19.4754	2.10966	1.98896	0.703365	0.447189	0.158516	0.474453	19.518	1718.74	4848.72	5144.33	-70.482	0.0000000E+000	0.0000000E+000	0.0000000E+000	70.482	0.0000000E+000	0.0000000E+000	0.0000000E+000	-70.482	0.0000000E+000	0.0000000E+000	0.0000000E+000	-19.518	0.0000000E+000	0.0000000E+000	0.0000000E+000	19.518	2.82109	70.482	3.1659e-06	-3.59925e-06	-2.10703e-09	-3.59714e-06	0.255149	18108.7	10.601	18098.1
10002.2	2.14985	0.781573	2.28751	-19.9786	4.47554	0.255302	-0.0147313	20.3589	2.37666	1	9	0.00513947	0.00224675	0	1.21222e-06	-3.27544e-06	1.05539e-05	63.4629	0.0046974	0.00209869	-0.00420251	-19.8618	2.28805	2.15195	0.77737	0.410848	0.149363	0.437156	19.9786	2376.66	6537.4	6956.01	-70.0214	0.0000000E+000	0.0000000E+000	0.0000000E+000	70.0214	0.0000000E+000	0.0000000E+000	0.0000000E+000	-70.0214	0.0000000E+000	0.0000000E+000	0.0000000E+000	-19.9786	0.0000000E+000	0.0000000E+000	0.0000000E+000	19.9786	2.75067	70.0214	6.46879e-07	-3.76092e-06	4.82513e-11	-3.76097e-06	0.255305	17330.6	0.222346	17330.9
6810.42	2.33489	0.869639	2.49158	-20.428	4.73454	0.255308	-0.0200566	26.8724	3.27367	1	9	0.00507947	0.00203865	0	7.92956e-07	0.000225819	2.78282e-05	-155.203	0.0136503	-0.0123918	0.00572492	-20.6517	2.48199	2.3225	0.875364	0.376111	0.140084	0.401351	20.428	3273.67	8789.46	9379.31	-69.572	0.0000000E+000	0.0000000E+000	0.0000000E+000	69.572	0.0000000E+000	0.0000000E+000	0.0000000E+000	-69.572	0.0000000E+000	0.0000000E+000	0.0000000E+000	-20.428	0.0000000E+000	0.0000000E+000	0.0000000E+000	20.428	2.6849	69.572	-4.19265e-07	-5.1206e-06	-4.52916e-09	-5.11607e-06	0.255082	12729.4	11.2591	12718.1
4646	2.52624	0.995401	2.71528	-21.5056	4.99862	0.255275	-0.0451934	34.4146	4.62499	1	9	0.00497598	0.00183259	0	-3.36608e-06	-0.000194188	1.43488e-05	-80.0716	0.00782978	0.00134999	0.00771252	-21.6464	2.71937	2.52759	1.00311	0.342647	0.135011	0.368287	21.5056	4624.99	11737.8	12616.1	-68.4944	0.0000000E+000	0.0000000E+000	0.0000000E+000	68.4944	0.0000000E+000	0.0000000E+000	0.0000000E+000	-68.4944	0.0000000E+000	0.0000000E+000	0.0000000E+000	-21.5056	0.0000000E+000	0.0000000E+000	0.0000000E+000	21.5056	2.53792	68.4944	-4.15904e-06	-1.15367e-05	8.77601e-09	-1.15455e-05	0.255469	5648.49	4.29681	5652.79
3163.08	2.75077	1.12625	2.9724	-22.2658	5.37268	0.255137	-0.0700324	44.676	6.41403	1	9	0.00490364	0.00164972	0	-1.0304e-05	-0.00023237	6.5256e-06	24.326	0.00395557	0.00360438	-0.00162941	-22.2104	2.97512	2.75437	1.12462	0.311343	0.127474	0.336429	22.2658	6414.03	15665.7	16927.9	-67.7342	0.0000000E+000	0.0000000E+000	0.0000000E+000	67.7342	0.0000000E+000	0.0000000E+000	0.0000000E+000	-67.7342	0.0000000E+000	0.0000000E+000	0.0000000E+000	-22.2658	0.0000000E+000	0.0000000E+000	0.0000000E+000	22.2658	2.44241	67.7342	-6.93796e-06	-1.78678e-05	1.62734e-08	-1.78841e-05	0.255369	3643.12	3.31804	3646.44
2155.69	3.00954	1.30564	3.28055	-23.4529	5.82383	0.255236	-0.00080358	56.547	8.95704	1	9	0.00485392	0.00147961	0	-9.60944e-06	-2.23667e-05	8.64088e-06	-49.2931	0.00583998	0.00380877	0.00442703	-23.4973	3.28581	3.01335	1.31007	0.279644	0.12132	0.304827	23.4529	8957.04	20646.2	22505.4	-66.5471	0.0000000E+000	0.0000000E+000	0.0000000E+000	66.5471	0.0000000E+000	0.0000000E+000	0.0000000E+000	-66.5471	0.0000000E+000	0.0000000E+000	0.0000000E+000	-23.4529	0.0000000E+000	0.0000000E+000	0.0000000E+000	23.4529	2.30502	66.5471	6.94608e-07	-2.05103e-07	1.79734e-11	-2.05121e-07	0.255259	317624	27.8338	317652
1468.59	3.25817	1.49724	3.58572	-24.6805	6.5211	0.25525	-0.0162362	72.3814	12.62	1	10	0.00493221	0.00137551	0	-1.13709e-05	-2.23667e-05	9.33151e-06	-95.651	0.00678402	-0.000668019	0.00675105	-24.7829	3.58794	3.2575	1.50399	0.253408	0.11645	0.278884	24.6805	12620	27462.5	30223.4	-65.3195	0.0000000E+000	0.0000000E+000	0.0000000E+000	65.3195	0.0000000E+000	0.0000000E+000	0.0000000E+000	-65.3195	0.0000000E+000	0.0000000E+000	0.0000000E+000	-24.6805	0.0000000E+000	0.0000000E+000	0.0000000E+000	24.6805	2.17611	65.3195	-1.76151e-06	-4.14429e-06	3.63149e-10	-4.14465e-06	0.255272	15721	1.37758	15722.4
1000.32	3.56939	1.75936	3.97943	-26.2388	6.9718	0.255239	-0.0167984	90.433	17.6764	1	10	0.00487109	0.00122407	0	-1.23709e-05	9.21806e-05	5.76692e-06	6.81458	0.00471127	0.00467799	-0.000559024	-26.2018	3.98338	3.57406	1.7588	0.225399	0.1111	0.251292	26.2388	17676.4	35861.9	39981.6	-63.7612	0.0000000E+000	0.0000000E+000	0.0000000E+000	63.7612	0.0000000E+000	0.0000000E+000	0.0000000E+000	-63.7612	0.0000000E+000	0.0000000E+000	0.0000000E+000	-26.2388	0.0000000E+000	0.0000000E+000	0.0000000E+000	26.2388	2.0288	63.7612	-9.99987e-07	-4.28761e-06	-1.54849e-09	-4.28606e-06	0.255147	15194.2	5.48746	15188.7
681.09	3.94651	2.09957	4.47025	-28.0133	7.42156	0.255238	-0.0170404	111.298	24.5517	1	10	0.00484296	0.00108338	0	-1.50127e-05	-9.87315e-05	1.34071e-05	111.13	0.0123753	-0.00446122	-0.0115432	-27.9093	4.4609	3.94205	2.08802	0.197492	0.105067	0.223701	28.0133	24551.7	46149.3	52273.8	-61.9867	0.0000000E+000	0.0000000E+000	0.0000000E+000	61.9867	0.0000000E+000	0.0000000E+000	0.0000000E+000	-61.9867	0.0000000E+000	0.0000000E+000	0.0000000E+000	-28.0133	0.0000000E+000	0.0000000E+000	0.0000000E+000	28.0133	1.87968	61.9867	-2.64177e-06	-4.34937e-06	1.68243e-09	-4.35105e-06	0.255337	14978.4	5.79395	14984.1
463.961	4.37967	2.51779	5.05181	-29.8938	7.87337	0.255241	-0.0165341	136.244	33.8427	1	10	0.00479856	0.00094987	0	-1.73278e-05	0.000187637	5.39214e-06	26.3939	0.00567672	0.00508497	-0.00252353	-29.8403	5.05496	4.38475	2.51527	0.171612	0.0986566	0.197949	29.8938	33842.7	58868.9	67903.5	-60.1062	0.0000000E+000	0.0000000E+000	0.0000000E+000	60.1062	0.0000000E+000	0.0000000E+000	0.0000000E+000	-60.1062	0.0000000E+000	0.0000000E+000	0.0000000E+000	-29.8938	0.0000000E+000	0.0000000E+000	0.0000000E+000	29.8938	1.73949	60.1062	-2.31509e-06	-4.22017e-06	-3.1024e-09	-4.21706e-06	0.255053	15437.3	11.3485	15425.9
316.316	4.95524	3.05939	5.8236	-31.6914	8.32105	0.255236	-0.015324	164.461	45.3891	1	10	0.0047804	0.000820868	0	-1.85165e-05	0.000168545	1.0736e-05	-4.70713	0.0130788	0.0130347	0.00107328	-31.6331	5.83525	4.96827	3.06047	0.146111	0.0902096	0.171715	31.6914	45389.1	73515.9	86398.8	-58.3086	0.0000000E+000	0.0000000E+000	0.0000000E+000	58.3086	0.0000000E+000	0.0000000E+000	0.0000000E+000	-58.3086	0.0000000E+000	0.0000000E+000	0.0000000E+000	-31.6914	0.0000000E+000	0.0000000E+000	0.0000000E+000	31.6914	1.61968	58.3086	-1.18873e-06	-3.91122e-06	-2.58279e-09	-3.90864e-06	0.255067	16656	10.9988	16645
215.345	5.74316	3.66042	6.81048	-32.5115	8.77154	0.255236	-0.016508	201.909	58.326	1	10	0.00476715	0.000699972	0	-1.98959e-05	-9.87315e-05	5.79811e-06	29.7262	0.00828334	0.00719329	-0.00410734	-32.4499	6.81434	5.75036	3.65631	0.123822	0.0789179	0.146833	32.5115	58326	91512.9	108520	-57.4885	0.0000000E+000	0.0000000E+000	0.0000000E+000	57.4885	0.0000000E+000	0.0000000E+000	0.0000000E+000	-57.4885	0.0000000E+000	0.0000000E+000	0.0000000E+000	-32.5115	0.0000000E+000	0.0000000E+000	0.0000000E+000	32.5115	1.56899	57.4885	-1.37942e-06	-4.21344e-06	1.62986e-09	-4.21507e-06	0.255335	15461.3	5.98082	15467.3
146.737	6.74123	4.31023	8.0014	-32.5942	9.21755	0.255233	-0.0169213	251.639	73.0211	1	10	0.00475049	0.000593707	0	-2.22209e-05	0.000283093	1.00915e-05	-25.7995	0.0169975	0.0153032	0.00739771	-32.5798	8.01827	6.75654	4.31763	0.105295	0.0673239	0.124978	32.5942	73021.1	114206	135554	-57.4058	0.0000000E+000	0.0000000E+000	0.0000000E+000	57.4058	0.0000000E+000	0.0000000E+000	0.0000000E+000	-57.4058	0.0000000E+000	0.0000000E+000	0.0000000E+000	-32.5942	0.0000000E+000	0.0000000E+000	0.0000000E+000	32.5942	1.56401	57.4058	-2.32494e-06	-4.31888e-06	-4.79031e-09	-4.31409e-06	0.25495	15083.5	16.7299	15066.8
100.032	8.03523	4.86966	9.39566	-31.2175	9.66882	0.255239	-0.0155883	326.725	87.7658	1	10	0.00474624	0.000505152	0	-2.39696e-05	0.000206728	9.11169e-06	38.5869	0.0180375	0.0140992	-0.01125	-31.1143	9.40191	8.04932	4.85841	0.0910214	0.0551625	0.106432	31.2175	87765.8	144819	169338	-58.7825	0.0000000E+000	0.0000000E+000	0.0000000E+000	58.7825	0.0000000E+000	0.0000000E+000	0.0000000E+000	-58.7825	0.0000000E+000	0.0000000E+000	0.0000000E+000	-31.2175	0.0000000E+000	0.0000000E+000	0.0000000E+000	31.2175	1.65006	58.7825	-1.74875e-06	-3.97875e-06	-3.22255e-09	-3.97553e-06	0.255032	16373.7	13.2617	16360.4
68.104	9.53401	5.20681	10.8632	-28.6403	10.1314	0.255246	-0.014449	448.824	103.112	1	10	0.00473912	0.000436256	0	-2.5594e-05	-0.000194188	8.35255e-06	90.2236	0.019146	-7.47029e-05	-0.0191458	-28.5518	10.8539	9.53393	5.18767	0.0807911	0.0441225	0.0920543	28.6403	103112	188804	215125	-61.3597	0.0000000E+000	0.0000000E+000	0.0000000E+000	61.3597	0.0000000E+000	0.0000000E+000	0.0000000E+000	-61.3597	0.0000000E+000	0.0000000E+000	0.0000000E+000	-28.6403	0.0000000E+000	0.0000000E+000	0.0000000E+000	28.6403	1.83106	61.3597	-1.62433e-06	-3.68805e-06	2.80581e-09	-3.69085e-06	0.25544	17665.3	13.4395	17678.8
46.4415	11.1543	5.35063	12.3713	-25.6266	10.5677	0.255239	-0.0185187	640.484	119.809	1	10	0.00474685	0.000383699	0	-2.7893e-05	-0.000175096	9.19444e-06	-92.2716	0.0239626	-0.000949777	0.0239438	-25.7284	12.3808	11.1534	5.37457	0.072881	0.0349603	0.0808324	25.6266	119809	249763	277012	-64.3734	0.0000000E+000	0.0000000E+000	0.0000000E+000	64.3734	0.0000000E+000	0.0000000E+000	0.0000000E+000	-64.3734	0.0000000E+000	0.0000000E+000	0.0000000E+000	-25.6266	0.0000000E+000	0.0000000E+000	0.0000000E+000	25.6266	2.08468	64.3734	-2.29904e-06	-4.72668e-06	3.24255e-09	-4.72993e-06	0.255414	13782.8	9.45513	13792.2
31.6296	12.7045	5.21109	13.7317	-22.3023	10.9976	0.255232	-0.0205703	965.603	139.061	1	10	0.00474119	0.000345273	0	-2.94286e-05	0.00024491	1.04358e-05	-24.7642	0.0302248	0.0274453	0.0126607	-22.3077	13.7619	12.732	5.22375	0.0673764	0.0276362	0.0728241	22.3023	139061	339028	366439	-67.6977	0.0000000E+000	0.0000000E+000	0.0000000E+000	67.6977	0.0000000E+000	0.0000000E+000	0.0000000E+000	-67.6977	0.0000000E+000	0.0000000E+000	0.0000000E+000	-22.3023	0.0000000E+000	0.0000000E+000	0.0000000E+000	22.3023	2.43798	67.6977	-1.53558e-06	-5.25018e-06	-5.03787e-09	-5.24514e-06	0.254987	12407.8	11.906	12395.9
21.5517	14.142	4.87466	14.9586	-19.0187	11.4185	0.255231	-0.0216166	1514.94	160.88	1	10	0.00474431	0.000317163	0	-3.15725e-05	0.00024491	7.80614e-06	-41.7119	0.0246124	0.0183731	0.0163767	-19.055	14.9813	14.1604	4.89103	0.063202	0.0217853	0.0668513	19.0187	160880	466734	493683	-70.9813	0.0000000E+000	0.0000000E+000	0.0000000E+000	70.9813	0.0000000E+000	0.0000000E+000	0.0000000E+000	-70.9813	0.0000000E+000	0.0000000E+000	0.0000000E+000	-19.0187	0.0000000E+000	0.0000000E+000	0.0000000E+000	19.0187	2.90113	70.9813	-2.14396e-06	-5.51721e-06	-5.29412e-09	-5.51191e-06	0.254986	11807.2	11.3298	11795.9
14.6852	15.3585	4.49379	16.0024	-16.3091	12.1291	0.25526	-0.00583372	2411.73	190.189	1	11	0.00474292	0.000296388	0	-3.32529e-05	-0.000136914	1.1482e-05	12.9744	0.0387397	0.0377507	-0.00869765	-16.2414	16.0362	15.3962	4.4851	0.059976	0.0175486	0.0624906	16.3091	190189	650009	677262	-73.6908	0.0000000E+000	0.0000000E+000	0.0000000E+000	73.6908	0.0000000E+000	0.0000000E+000	0.0000000E+000	-73.6908	0.0000000E+000	0.0000000E+000	0.0000000E+000	-16.3091	0.0000000E+000	0.0000000E+000	0.0000000E+000	16.3091	3.41771	73.6908	-1.68033e-06	-1.48912e-06	7.98718e-10	-1.48992e-06	0.255397	43756	23.4694	43779.5
10.0032	16.43	4.06539	16.9255	-13.898	12.5798	0.255276	-0.0058259	3913.62	225.789	1	11	0.00474347	0.000280256	0	-3.32974e-05	1.58158e-05	1.39314e-05	-42.2947	0.0497096	0.0367699	0.0334518	-13.9778	16.9692	16.4667	4.09885	0.057353	0.0141913	0.0590826	13.898	225789	912508	940028	-76.102	0.0000000E+000	0.0000000E+000	0.0000000E+000	76.102	0.0000000E+000	0.0000000E+000	0.0000000E+000	-76.102	0.0000000E+000	0.0000000E+000	0.0000000E+000	-13.898	0.0000000E+000	0.0000000E+000	0.0000000E+000	13.898	4.04142	76.102	-4.45569e-08	-1.48722e-06	-9.21412e-11	-1.48712e-06	0.255261	43817.5	2.71473	43814.8
6.81719	17.3307	3.73934	17.7295	-12.1757	12.9195	0.255259	-0.00603626	6243.39	277.725	1	11	0.00474053	0.000267381	0	-3.56384e-05	-0.000194188	5.40616e-05	55.1081	0.20219	0.115659	-0.165843	-11.5756	17.8086	17.4464	3.57349	0.0551343	0.011896	0.0564031	12.1757	277725	1.28717e+06	1.31679e+06	-77.8243	0.0000000E+000	0.0000000E+000	0.0000000E+000	77.8243	0.0000000E+000	0.0000000E+000	0.0000000E+000	-77.8243	0.0000000E+000	0.0000000E+000	0.0000000E+000	-12.1757	0.0000000E+000	0.0000000E+000	0.0000000E+000	12.1757	4.63471	77.8243	-2.34101e-06	-1.54081e-06	1.17217e-09	-1.54198e-06	0.255453	42287.6	32.1702	42319.7
4.63925	18.1851	3.22198	18.4683	-10.0472	13.4034	0.25529	-0.00555039	10647.5	324.071	1	11	0.00474269	0.000256802	0	-3.37532e-05	0.000111272	6.03295e-06	-41.327	0.0234926	0.0176419	0.0155135	-10.085	18.4884	18.2027	3.23749	0.0533164	0.00944645	0.0541468	10.0472	324071	1.82908e+06	1.85757e+06	-79.9528	0.0000000E+000	0.0000000E+000	0.0000000E+000	79.9528	0.0000000E+000	0.0000000E+000	0.0000000E+000	-79.9528	0.0000000E+000	0.0000000E+000	0.0000000E+000	-10.0472	0.0000000E+000	0.0000000E+000	0.0000000E+000	10.0472	5.64407	79.9528	1.88521e-06	-1.41696e-06	-6.17602e-10	-1.41634e-06	0.255178	45994.9	20.0476	45974.9
3.1604	18.9199	2.82358	19.1294	-8.4881	14.0965	0.25528	-0.0049409	17835.2	388.575	1	11	0.00474925	0.000248269	0	-3.26327e-05	0.000378549	7.345e-06	63.7069	0.0295848	0.013105	-0.026524	-8.40378	19.1385	18.933	2.79706	0.0517029	0.00771608	0.0522755	8.4881	388575	2.60372e+06	2.63255e+06	-81.5119	0.0000000E+000	0.0000000E+000	0.0000000E+000	81.5119	0.0000000E+000	0.0000000E+000	0.0000000E+000	-81.5119	0.0000000E+000	0.0000000E+000	0.0000000E+000	-8.4881	0.0000000E+000	0.0000000E+000	0.0000000E+000	8.4881	6.70067	81.5119	1.1205e-06	-1.26131e-06	-1.87037e-09	-1.25944e-06	0.254902	51666.7	76.6154	51590.1
2.15577	19.5024	2.50041	19.662	-7.30607	15.1002	0.255277	-0.00431484	29526.2	477.501	1	11	0.00474607	0.000241383	0	-3.59707e-05	-0.000346917	1.25695e-06	-74.2202	0.0052073	0.00141608	0.00501106	-7.32002	19.664	19.5038	2.50542	0.0504466	0.00646779	0.0508595	7.30607	477501	3.72435e+06	3.75483e+06	-82.6939	0.0000000E+000	0.0000000E+000	0.0000000E+000	82.6939	0.0000000E+000	0.0000000E+000	0.0000000E+000	-82.6939	0.0000000E+000	0.0000000E+000	0.0000000E+000	-7.30607	0.0000000E+000	0.0000000E+000	0.0000000E+000	7.30607	7.79967	82.6939	-3.33795e-06	-1.10148e-06	1.49689e-09	-1.10298e-06	0.255624	59162.5	80.4009	59242.9
1.46631	19.9791	2.18553	20.0983	-6.2428	16.5605	0.255269	-0.00392706	49663.5	587.262	1	11	0.00474644	0.000236161	0	-4.32239e-05	-0.000136914	1.31338e-06	-36.1416	0.00556137	0.00449115	0.00328	-6.2507	20.1031	19.9836	2.18881	0.0494604	0.00541051	0.0497554	6.2428	587262	5.36848e+06	5.40051e+06	-83.7572	0.0000000E+000	0.0000000E+000	0.0000000E+000	83.7572	0.0000000E+000	0.0000000E+000	0.0000000E+000	-83.7572	0.0000000E+000	0.0000000E+000	0.0000000E+000	-6.2428	0.0000000E+000	0.0000000E+000	0.0000000E+000	6.2428	9.14154	83.7572	-7.25322e-06	-1.00246e-06	5.3767e-10	-1.003e-06	0.255406	65002.5	34.8642	65037.4
1.00006	20.3953	1.95704	20.489	-5.48107	19.735	0.255273	-0.00377701	81318.9	741.91	1	12	0.0047479	0.000231729	0	-5.18928e-05	-2.23667e-05	5.008e-06	-2.60201	0.0216115	0.0215892	0.000981118	-5.47803	20.5106	20.4169	1.95803	0.0485835	0.00466186	0.0488067	5.48107	741910	7.73181e+06	7.76732e+06	-84.5189	0.0000000E+000	0.0000000E+000	0.0000000E+000	84.5189	0.0000000E+000	0.0000000E+000	0.0000000E+000	-84.5189	0.0000000E+000	0.0000000E+000	0.0000000E+000	-5.48107	0.0000000E+000	0.0000000E+000	0.0000000E+000	5.48107	10.4215	84.5189	-8.66892e-06	-9.6417e-07	8.44792e-11	-9.64255e-07	0.255295	67586	5.92178	67591.9
0.681362	20.7357	1.79884	20.8136	-4.95806	22.8471	0.255277	-0.00447226	129852	969.933	1	12	0.00474715	0.000228079	0	-5.34837e-05	0.000302184	5.90764e-07	-3.22914	0.00259017	0.00258606	0.000145902	-4.95784	20.8162	20.7383	1.79899	0.0478658	0.00415241	0.0480455	4.95806	969933	1.11806e+07	1.12226e+07	-85.0419	0.0000000E+000	0.0000000E+000	0.0000000E+000	85.0419	0.0000000E+000	0.0000000E+000	0.0000000E+000	-85.0419	0.0000000E+000	0.0000000E+000	0.0000000E+000	-4.95806	0.0000000E+000	0.0000000E+000	0.0000000E+000	4.95806	11.5272	85.0419	-1.59084e-06	-1.14166e-06	-1.35144e-09	-1.14031e-06	0.254975	57080.1	67.5686	57012.6
0.464091	21.0044	1.78089	21.0798	-4.84632	27.4037	0.255268	-0.00477658	192566	1374.43	1	12	0.00474806	0.000225242	0	-4.74371e-05	0.000111272	2.78192e-06	-46.4534	0.0123508	0.00850899	0.00895202	-4.8686	21.089	21.0129	1.78984	0.0472692	0.00400779	0.0474388	4.84632	1.37443e+06	1.62105e+07	1.62686e+07	-85.1537	0.0000000E+000	0.0000000E+000	0.0000000E+000	85.1537	0.0000000E+000	0.0000000E+000	0.0000000E+000	-85.1537	0.0000000E+000	0.0000000E+000	0.0000000E+000	-4.84632	0.0000000E+000	0.0000000E+000	0.0000000E+000	4.84632	11.7943	85.1537	6.04651e-06	-1.21931e-06	-5.31499e-10	-1.21878e-06	0.255156	53441.5	23.2953	53418.2
0.316193	21.2416	1.84158	21.3212	-4.95499	34.0787	0.255265	-0.00399057	273323	2039.08	1	12	0.00474721	0.000222652	0	-3.51187e-05	-4.14579e-05	2.2498e-06	-56.2045	0.0101046	0.00562047	0.00839719	-4.97616	21.3276	21.2472	1.84998	0.0467263	0.00405103	0.0469016	4.95499	2.03908e+06	2.35196e+07	2.36078e+07	-85.045	0.0000000E+000	0.0000000E+000	0.0000000E+000	85.045	0.0000000E+000	0.0000000E+000	0.0000000E+000	-85.045	0.0000000E+000	0.0000000E+000	0.0000000E+000	-4.95499	0.0000000E+000	0.0000000E+000	0.0000000E+000	4.95499	11.5344	85.045	1.23185e-05	-1.01865e-06	1.65441e-10	-1.01882e-06	0.255307	63967.1	10.389	63977.4
0.215268	21.5223	2.06726	21.6213	-5.48656	43.8711	0.255268	-0.00231386	357640	3269.43	1	12	0.00474376	0.000219402	0	-2.31463e-05	-2.23667e-05	3.2836e-06	89.4291	0.0149662	0.00014913	-0.0149654	-5.44704	21.62	21.5224	2.0523	0.0460388	0.00442213	0.0462507	5.48656	3.26943e+06	3.40381e+07	3.41947e+07	-84.5134	0.0000000E+000	0.0000000E+000	0.0000000E+000	84.5134	0.0000000E+000	0.0000000E+000	0.0000000E+000	-84.5134	0.0000000E+000	0.0000000E+000	0.0000000E+000	-5.48656	0.0000000E+000	0.0000000E+000	0.0000000E+000	5.48656	10.411	84.5134	1.19724e-05	-5.90655e-07	5.17533e-11	-5.90707e-07	0.255291	110321	9.66638	110331
0.146929	21.8648	2.51404	22.0089	-6.55912	58.2095	0.255277	-0.000663365	430865	5621.98	1	12	0.00474313	0.00021551	0	-2.62734e-05	5.39982e-05	2.08694e-06	-52.0776	0.00968373	0.00595155	0.00763895	-6.5771	22.0157	21.8708	2.52168	0.0451388	0.00519011	0.0454362	6.55912	5.62198e+06	4.88949e+07	4.9217e+07	-83.4409	0.0000000E+000	0.0000000E+000	0.0000000E+000	83.4409	0.0000000E+000	0.0000000E+000	0.0000000E+000	-83.4409	0.0000000E+000	0.0000000E+000	0.0000000E+000	-6.55912	0.0000000E+000	0.0000000E+000	0.0000000E+000	6.55912	8.69709	83.4409	-3.12715e-06	-1.69342e-07	-3.58205e-11	-1.69306e-07	0.255223	384821	81.4004	384739
0.0999041	22.2357	3.17162	22.4607	-8.11771	79.2866	0.255265	-0.000302884	502292	10015.5	1	12	0.0047451	0.000211262	0	-6.48287e-05	-4.14579e-05	1.38959e-06	5.40727	0.00657756	0.00654829	-0.000619834	-8.11379	22.4671	22.2422	3.171	0.0440761	0.00628686	0.0445222	8.11771	1.00155e+07	7.02166e+07	7.09273e+07	-81.8823	0.0000000E+000	0.0000000E+000	0.0000000E+000	81.8823	0.0000000E+000	0.0000000E+000	0.0000000E+000	-81.8823	0.0000000E+000	0.0000000E+000	0.0000000E+000	-8.11771	0.0000000E+000	0.0000000E+000	0.0000000E+000	8.11771	7.01083	81.8823	-3.85553e-05	-7.73157e-08	1.25569e-11	-7.73283e-08	0.255306	842780	136.877	842916
0.0680626	22.7112	4.02111	23.0644	-10.0404	110.214	0.255276	-5.9424e-05	581521	17675.6	1	12	0.00474925	0.000205913	0	-0.000141754	7.30894e-05	8.22068e-07	61.7446	0.00399231	0.00188997	-0.00351661	-10.031	23.0656	22.7131	4.0176	0.0426928	0.00755896	0.0433569	10.0404	1.76756e+07	9.98313e+07	1.01384e+08	-79.9596	0.0000000E+000	0.0000000E+000	0.0000000E+000	79.9596	0.0000000E+000	0.0000000E+000	0.0000000E+000	-79.9596	0.0000000E+000	0.0000000E+000	0.0000000E+000	-10.0404	0.0000000E+000	0.0000000E+000	0.0000000E+000	10.0404	5.64798	79.9596	-7.69257e-05	-1.51695e-08	-4.34327e-12	-1.51652e-08	0.255203	4.29584e+06	1229.96	4.29461e+06
0.0464052	23.4074	5.03164	23.9421	-12.1316	155.565	0.255271	-0.0016024	681623	30104.9	1	12	0.00474639	0.000198244	0	-0.000274413	-0.000156005	1.62869e-06	29.4168	0.00821554	0.00715631	-0.00403513	-12.1186	23.9483	23.4146	5.0276	0.0408346	0.00877777	0.0417674	12.1316	3.01049e+07	1.4005e+08	1.43249e+08	-77.8684	0.0000000E+000	0.0000000E+000	0.0000000E+000	77.8684	0.0000000E+000	0.0000000E+000	0.0000000E+000	-77.8684	0.0000000E+000	0.0000000E+000	0.0000000E+000	-12.1316	0.0000000E+000	0.0000000E+000	0.0000000E+000	12.1316	4.65205	77.8684	-0.000132659	-4.09047e-07	2.49983e-10	-4.09297e-07	0.255427	159305	97.357	159403
0.0315922	24.3648	6.59395	25.2413	-15.1434	222.171	0.255266	-0.00255574	764002	52138.8	1	12	0.00474678	0.000188056	0	-0.000402207	-6.05491e-05	1.56995e-06	-27.2872	0.00834833	0.00741933	0.0038273	-15.1474	25.2495	24.3723	6.59778	0.0382418	0.0103495	0.0396175	15.1434	5.21388e+07	1.92654e+08	1.99585e+08	-74.8566	0.0000000E+000	0.0000000E+000	0.0000000E+000	74.8566	0.0000000E+000	0.0000000E+000	0.0000000E+000	-74.8566	0.0000000E+000	0.0000000E+000	0.0000000E+000	-15.1434	0.0000000E+000	0.0000000E+000	0.0000000E+000	15.1434	3.69503	74.8566	-0.000127794	-6.52393e-07	1.54748e-10	-6.52548e-07	0.255327	99879.6	23.6914	99903.3
0.0215268	25.3624	8.75827	26.832	-19.0511	319.909	0.255261	-0.00260303	844156	89939.8	1	12	0.00474494	0.000176838	0	-0.000424599	-4.14579e-05	1.95719e-06	29.4248	0.0110677	0.00963995	-0.00543732	-19.0334	26.8394	25.372	8.75283	0.0352276	0.012165	0.0372689	19.0511	8.99398e+07	2.6045e+08	2.75542e+08	-70.9489	0.0000000E+000	0.0000000E+000	0.0000000E+000	70.9489	0.0000000E+000	0.0000000E+000	0.0000000E+000	-70.9489	0.0000000E+000	0.0000000E+000	0.0000000E+000	-19.0511	0.0000000E+000	0.0000000E+000	0.0000000E+000	19.0511	2.89582	70.9489	-2.23913e-05	-6.64454e-07	1.07916e-10	-6.64562e-07	0.255303	98063.1	15.9268	98079.1
0.0146812	26.4911	11.4299	28.8517	-23.3384	463.212	0.255266	-0.00217416	948454	148853	1	12	0.00474677	0.000164523	0	-0.000246682	0.000149454	2.7478e-06	21.9591	0.0167016	0.01549	-0.00624549	-23.3148	28.8635	26.5066	11.4237	0.0318241	0.0137309	0.03466	23.3384	1.48853e+08	3.44997e+08	3.7574e+08	-66.6616	0.0000000E+000	0.0000000E+000	0.0000000E+000	66.6616	0.0000000E+000	0.0000000E+000	0.0000000E+000	-66.6616	0.0000000E+000	0.0000000E+000	0.0000000E+000	-23.3384	0.0000000E+000	0.0000000E+000	0.0000000E+000	23.3384	2.3177	66.6616	0.000177917	-5.54988e-07	-3.24938e-10	-5.54663e-07	0.255116	117409	68.7412	117340
0.0100092	28.2851	14.8689	31.9551	-27.7301	673.394	0.255266	-0.00161964	1.06941e+06	231537	1	12	0.00474575	0.000148513	0	9.89277e-05	-0.000251461	1.6621e-06	32.9381	0.0111916	0.00939263	-0.00608523	-27.7126	31.9606	28.2945	14.8628	0.0276998	0.0145612	0.0312939	27.7301	2.31537e+08	4.40452e+08	4.97601e+08	-62.2699	0.0000000E+000	0.0000000E+000	0.0000000E+000	62.2699	0.0000000E+000	0.0000000E+000	0.0000000E+000	-62.2699	0.0000000E+000	0.0000000E+000	0.0000000E+000	-27.7301	0.0000000E+000	0.0000000E+000	0.0000000E+000	27.7301	1.90229	62.2699	0.00034561	-4.1344e-07	4.07278e-10	-4.13847e-07	0.255518	157606	155.257	157762