File: txt/18822_R307_UA701_3p84_SOC00_C01.mpt
EC-Lab ASCII FILE
Nb header lines : 65

Potentio Electrochemical Impedance Spectroscopy

Run on channel : 1 (SN 66354)
User :
CE vs. WE compliance from -10 V to 10 V
Electrode connection : standard
Potential control : Ewe
Ewe ctrl range : min = -10.00 V, max = 10.00 V
Safety Limits :
	Do not start on E overload
Acquisition started on : 11/03/2025 17:10:35.419
Technique started on : 11/03/2025 17:10:37.331
Loaded Setting File :  C:\Users\Celltest\OneDrive - store-dot.com\Documents\EC-Lab\Data\@Biologic Test Protocols\anode half cell EIS SOC00.mps
Saved on :
	File : 18822_R307_UA701_3p84_SOC00_C01.mpr
	Directory : C:\Users\Celltest\OneDrive - store-dot.com\Documents\EC-Lab\Data\Anna\
	Host : 169.254.61.224
Device : VMP-3e (SN .003165)
Address : USB
EC-LAB for windows v11.62 (software)
Internet server v27.00 (firmware)
Command interpretor v12.03 (firmware)
Electrode material :
Initial state :
Electrolyte :
Comments :
Electrode surface area : 0.001 cm²
Characteristic mass : 0.001 g
Equivalent Weight : 0.000 g/eq.
Density : 0.000 g/cm3
Volume (V) : 0.001 cm³
Record Ece
Cycle Definition : Charge/Discharge alternance
Mode                Single sine
E (V)               0.0000
vs.                 Eoc
tE (h:m:s)          0:00:0.0000
record              0
dI                  0.000
unit dI             mA
dt (s)              0.000
fi                  100.000
unit fi             kHz
ff                  10.000
unit ff             mHz
Nd                  6
Points              per decade
spacing             Logarithmic
Va (mV)             5.0
pw                  0.10
Na                  2
corr                0
E range min (V)     -10.000
E range max (V)     10.000
I Range             Auto
Bandwidth           5
nc cycles           0
goto Ns'            0
nr cycles           0
inc. cycle          0

freq/Hz	Re(Z)/Ohm	-Im(Z)/Ohm	|Z|/Ohm	Phase(Z)/deg	time/s	<Ewe>/V	<I>/mA	Cs/µF	Cp/µF	cycle number	I Range	|Ewe|/V	|I|/A	Ns	(Q-Qo)/mA.h	<Ece>/V	|Ece|/V	Phase(Zce)/deg	|Zce|/Ohm	Re(Zce)/Ohm	-Im(Zce)/Ohm	Phase(Zwe-ce)/deg	|Zwe-ce|/Ohm	Re(Zwe-ce)/Ohm	-Im(Zwe-ce)/Ohm	Re(Y)/Ohm-1	Im(Y)/Ohm-1	|Y|/Ohm-1	Phase(Y)/deg	Re(C)/nF	Im(C)/nF	|C|/nF	Phase(C)/deg	Re(M)	Im(M)	|M|	Phase(M)/deg	Re(Permittivity)	Im(Permittivity)	|Permittivity|	Phase(Permittivity)/deg	Re(Resistivity)/Ohm.cm	Im(Resistivity)/Ohm.cm	|Resistivity|/Ohm.cm	Phase(Resistivity)/deg	Re(Conductivity)/mS/cm	Im(Conductivity)/mS/cm	|Conductivity|/mS/cm	Phase(Conductivity)/deg	Tan(Delta)	Loss Angle(Delta)/deg	dq/mA.h	Pwe/W	Pce/W	Pwe-ce/W	<Ewe-Ece>/V	Rwe/Ohm	Rce/Ohm	Rwe-ce/Ohm		Ewe-Ece/V
100004	1.14837	0.459586	1.23692	-21.8116	1.91153	0.253715	0.0686179	3.46288	0.478064	1	9	0.00479633	0.00387764	0	1.2871e-05	-7.39696e-05	4.12097e-05	97.2618	0.0106275	-0.00134335	-0.0105423	-21.3796	1.23179	1.14703	0.449043	0.750582	0.300388	0.808459	21.8116	478.064	1194.54	1286.65	-68.1884	0.0000000E+000	0.0000000E+000	0.0000000E+000	68.1884	0.0000000E+000	0.0000000E+000	0.0000000E+000	-68.1884	0.0000000E+000	0.0000000E+000	0.0000000E+000	-21.8116	0.0000000E+000	0.0000000E+000	0.0000000E+000	21.8116	2.49871	68.1884	1.2871e-05	1.74094e-05	-5.07564e-09	1.74145e-05	0.253789	3697.5	1.07799	3698.57
68132	1.27575	0.529008	1.38109	-22.522	2.41856	0.253705	0.0781178	4.41577	0.647872	1	9	0.00505536	0.00366043	0	8.63295e-06	2.1417e-05	3.44229e-05	71.2638	0.00940407	0.00302069	-0.00890572	-22.1325	1.3805	1.27878	0.520102	0.668845	0.277345	0.724068	22.522	647.872	1562.41	1691.41	-67.478	0.0000000E+000	0.0000000E+000	0.0000000E+000	67.478	0.0000000E+000	0.0000000E+000	0.0000000E+000	-67.478	0.0000000E+000	0.0000000E+000	0.0000000E+000	-22.522	0.0000000E+000	0.0000000E+000	0.0000000E+000	22.522	2.4116	67.478	-4.23802e-06	1.98189e-05	1.67304e-09	1.98172e-05	0.253684	3247.72	0.274162	3247.45
46420.4	1.41701	0.584897	1.53297	-22.4293	2.92552	0.253713	0.0616886	5.86182	0.853338	1	9	0.00506569	0.00330448	0	2.36385e-06	0.000269422	2.287e-05	70.7176	0.00692092	0.00228545	-0.00653267	-22.171	1.53261	1.41929	0.578365	0.602978	0.248891	0.652326	22.4293	853.338	2067.35	2236.54	-67.5706	0.0000000E+000	0.0000000E+000	0.0000000E+000	67.5706	0.0000000E+000	0.0000000E+000	0.0000000E+000	-67.5706	0.0000000E+000	0.0000000E+000	0.0000000E+000	-22.4293	0.0000000E+000	0.0000000E+000	0.0000000E+000	22.4293	2.42266	67.5706	-6.26909e-06	1.56512e-05	1.66203e-08	1.56346e-05	0.253443	4112.79	4.36745	4108.43
31621.1	1.557	0.662715	1.69217	-23.0564	3.43254	0.253712	0.0637003	7.59479	1.16488	1	9	0.00503672	0.00297649	0	1.12956e-05	0.000250345	1.66117e-05	35.7479	0.00558095	0.00452948	-0.0032605	-22.895	1.69507	1.56153	0.659454	0.543752	0.231441	0.590958	23.0564	1164.88	2736.8	2974.4	-66.9436	0.0000000E+000	0.0000000E+000	0.0000000E+000	66.9436	0.0000000E+000	0.0000000E+000	0.0000000E+000	-66.9436	0.0000000E+000	0.0000000E+000	0.0000000E+000	-23.0564	0.0000000E+000	0.0000000E+000	0.0000000E+000	23.0564	2.34942	66.9436	8.93177e-06	1.61616e-05	1.5947e-08	1.61456e-05	0.253462	3982.91	3.93004	3978.98
21544.7	1.72799	0.721331	1.87251	-22.6575	3.81556	0.253703	0.0660474	10.2411	1.51974	1	9	0.00510885	0.00272835	0	2.46617e-05	0.000345731	1.28097e-05	-55.7362	0.00469505	0.00264333	0.00388025	-22.7358	1.87644	1.73064	0.725212	0.492828	0.205726	0.534044	22.6575	1519.74	3640.62	3945.09	-67.3425	0.0000000E+000	0.0000000E+000	0.0000000E+000	67.3425	0.0000000E+000	0.0000000E+000	0.0000000E+000	-67.3425	0.0000000E+000	0.0000000E+000	0.0000000E+000	-22.6575	0.0000000E+000	0.0000000E+000	0.0000000E+000	22.6575	2.39556	67.3425	1.33661e-05	1.67564e-05	2.28346e-08	1.67335e-05	0.253357	3841.22	5.23459	3835.99
14678.6	1.8987	0.788474	2.05591	-22.5517	4.19852	0.253694	0.0540142	13.7514	2.02263	1	9	0.00483629	0.00235239	0	3.51967e-05	-5.48923e-05	8.431e-06	103.069	0.00358402	-0.000810456	-0.00349118	-22.4704	2.05382	1.89789	0.784983	0.44921	0.186544	0.486403	22.5517	2022.63	4870.63	5273.9	-67.4483	0.0000000E+000	0.0000000E+000	0.0000000E+000	67.4483	0.0000000E+000	0.0000000E+000	0.0000000E+000	-67.4483	0.0000000E+000	0.0000000E+000	0.0000000E+000	-22.5517	0.0000000E+000	0.0000000E+000	0.0000000E+000	22.5517	2.40807	67.4483	1.0535e-05	1.37031e-05	-2.96496e-09	1.37061e-05	0.253749	4696.8	1.01626	4697.82
10002.2	2.08115	0.873102	2.25687	-22.7595	4.58155	0.253695	0.0712257	18.2246	2.72756	1	9	0.00498811	0.00221018	0	4.09488e-05	-0.000150279	1.5361e-05	-66.7802	0.00695011	0.00274015	0.00638715	-22.8818	2.26188	2.08389	0.87949	0.40859	0.171416	0.443091	22.7595	2727.56	6501.47	7050.44	-67.2405	0.0000000E+000	0.0000000E+000	0.0000000E+000	67.2405	0.0000000E+000	0.0000000E+000	0.0000000E+000	-67.2405	0.0000000E+000	0.0000000E+000	0.0000000E+000	-22.7595	0.0000000E+000	0.0000000E+000	0.0000000E+000	22.7595	2.38362	67.2405	5.75209e-06	1.80696e-05	-1.07037e-08	1.80803e-05	0.253846	3561.85	2.1099	3563.96
6810.42	2.25979	0.957974	2.45445	-22.9732	4.84051	0.253704	0.0668297	24.3945	3.71612	1	9	0.00466881	0.00190218	0	4.7092e-05	-3.5815e-05	6.95738e-05	-61.5533	0.0365759	0.0174226	0.0321597	-23.4995	2.48315	2.27721	0.990134	0.375109	0.159017	0.407422	22.9732	3716.12	8766.04	9521.19	-67.0268	0.0000000E+000	0.0000000E+000	0.0000000E+000	67.0268	0.0000000E+000	0.0000000E+000	0.0000000E+000	-67.0268	0.0000000E+000	0.0000000E+000	0.0000000E+000	-22.9732	0.0000000E+000	0.0000000E+000	0.0000000E+000	22.9732	2.35892	67.0268	6.14319e-06	1.6955e-05	-2.3935e-09	1.69574e-05	0.25374	3796.28	0.535914	3796.82
4646	2.48049	1.09539	2.71158	-23.8263	5.10562	0.253678	0.0525985	31.2733	5.10344	1	9	0.00460113	0.00169684	0	5.23367e-05	0.000364808	8.05812e-06	-30.5821	0.00474889	0.00408833	0.00241611	-23.8381	2.7163	2.48457	1.0978	0.337358	0.148978	0.368788	23.8263	5103.44	11556.6	12633.3	-66.1737	0.0000000E+000	0.0000000E+000	0.0000000E+000	66.1737	0.0000000E+000	0.0000000E+000	0.0000000E+000	-66.1737	0.0000000E+000	0.0000000E+000	0.0000000E+000	-23.8263	0.0000000E+000	0.0000000E+000	0.0000000E+000	23.8263	2.26448	66.1737	5.24473e-06	1.33431e-05	1.91884e-08	1.33239e-05	0.253313	4822.91	6.93572	4815.98
3163.08	2.73854	1.26031	3.01463	-24.7124	5.47967	0.253471	0.0089737	39.924	6.97781	1	9	0.00453327	0.00150376	0	5.26369e-05	0.000269422	9.34139e-06	-22.5789	0.00621203	0.00573589	0.00238515	-24.708	3.02083	2.74428	1.26269	0.301337	0.138679	0.331716	24.7124	6977.81	15162.2	16690.8	-65.2876	0.0000000E+000	0.0000000E+000	0.0000000E+000	65.2876	0.0000000E+000	0.0000000E+000	0.0000000E+000	-65.2876	0.0000000E+000	0.0000000E+000	0.0000000E+000	-24.7124	0.0000000E+000	0.0000000E+000	0.0000000E+000	24.7124	2.17292	65.2876	3.00227e-07	2.27457e-06	2.41771e-09	2.27215e-06	0.253201	28246	30.0235	28216
2155.69	3.01239	1.44241	3.33992	-25.5863	6.14481	0.253675	0.125841	51.1852	9.54667	1	9	0.00499009	0.00149408	0	7.55476e-05	0.000116803	4.66066e-06	44.5016	0.00311943	0.00222487	-0.0021865	-25.536	3.34098	3.01461	1.44022	0.270047	0.129306	0.299409	25.5863	9546.67	19937.6	22105.4	-64.4137	0.0000000E+000	0.0000000E+000	0.0000000E+000	64.4137	0.0000000E+000	0.0000000E+000	0.0000000E+000	-64.4137	0.0000000E+000	0.0000000E+000	0.0000000E+000	-25.5863	0.0000000E+000	0.0000000E+000	0.0000000E+000	25.5863	2.08844	64.4137	2.29106e-05	3.19226e-05	1.46986e-08	3.19079e-05	0.253558	2015.84	0.928186	2014.91
1468.59	3.32582	1.67825	3.72526	-26.7761	6.84105	0.253637	-0.0159666	64.5748	13.1058	1	10	0.00511339	0.00137263	0	8.30626e-05	4.04943e-05	5.56016e-06	-88.2104	0.00405075	0.000126501	0.00404877	-26.8308	3.7272	3.32594	1.6823	0.239654	0.120932	0.268437	26.7761	13105.8	25971.9	29091.3	-63.2239	0.0000000E+000	0.0000000E+000	0.0000000E+000	63.2239	0.0000000E+000	0.0000000E+000	0.0000000E+000	-63.2239	0.0000000E+000	0.0000000E+000	0.0000000E+000	-26.7761	0.0000000E+000	0.0000000E+000	0.0000000E+000	26.7761	1.98172	63.2239	7.51508e-06	-4.04973e-06	-6.46557e-10	-4.04909e-06	0.253597	15885.4	2.53618	15882.9
1000.32	3.65671	1.96938	4.15331	-28.3054	7.2918	0.253627	-0.0146212	80.7888	18.1644	1	10	0.00505115	0.00121617	0	8.24546e-05	-0.000245665	8.25779e-06	-66.9416	0.00678998	0.00265942	0.0062475	-28.3638	4.15862	3.65937	1.97563	0.211983	0.114167	0.240772	28.3054	18164.4	33727.4	38307.7	-61.6946	0.0000000E+000	0.0000000E+000	0.0000000E+000	61.6946	0.0000000E+000	0.0000000E+000	0.0000000E+000	-61.6946	0.0000000E+000	0.0000000E+000	0.0000000E+000	-28.3054	0.0000000E+000	0.0000000E+000	0.0000000E+000	28.3054	1.85678	61.6946	-6.08086e-07	-3.70834e-06	3.59193e-09	-3.71193e-06	0.253873	17346.5	16.802	17363.3
681.09	4.03711	2.3596	4.6761	-30.3053	7.7426	0.253628	-0.0152026	99.0326	25.2165	1	10	0.00501091	0.0010716	0	7.97946e-05	0.000250345	1.32476e-05	12.5159	0.0123625	0.0120687	-0.00267908	-30.2025	4.68518	4.04918	2.35692	0.18463	0.107912	0.213853	30.3053	25216.5	43143.8	49972.6	-59.6947	0.0000000E+000	0.0000000E+000	0.0000000E+000	59.6947	0.0000000E+000	0.0000000E+000	0.0000000E+000	-59.6947	0.0000000E+000	0.0000000E+000	0.0000000E+000	-30.3053	0.0000000E+000	0.0000000E+000	0.0000000E+000	30.3053	1.71093	59.6947	-2.65995e-06	-3.85581e-06	-3.8059e-09	-3.85201e-06	0.253378	16683.2	16.4672	16666.7
463.961	4.50272	2.87321	5.34134	-32.5422	8.19431	0.253635	-0.0139317	119.391	34.5467	1	10	0.00498192	0.000932711	0	7.86673e-05	-0.000131202	5.56096e-06	81.6602	0.00596215	0.00086477	-0.0058991	-32.4838	5.33889	4.50359	2.86731	0.157825	0.100709	0.187219	32.5422	34546.7	54139.5	64222.8	-57.4578	0.0000000E+000	0.0000000E+000	0.0000000E+000	57.4578	0.0000000E+000	0.0000000E+000	0.0000000E+000	-57.4578	0.0000000E+000	0.0000000E+000	0.0000000E+000	-32.5422	0.0000000E+000	0.0000000E+000	0.0000000E+000	32.5422	1.56714	57.4578	-1.12726e-06	-3.53357e-06	1.82786e-09	-3.5354e-06	0.253766	18205.5	9.41746	18215
316.316	5.12106	3.54594	6.22889	-34.6996	8.642	0.253632	-0.0147889	141.895	45.9844	1	10	0.00496449	0.00079701	0	7.62893e-05	9.77262e-05	1.04376e-05	-9.53135	0.0130959	0.0129151	0.00216851	-34.6485	6.24074	5.13398	3.54811	0.13199	0.0913926	0.160542	34.6996	45984.4	66410.8	80777.2	-55.3004	0.0000000E+000	0.0000000E+000	0.0000000E+000	55.3004	0.0000000E+000	0.0000000E+000	0.0000000E+000	-55.3004	0.0000000E+000	0.0000000E+000	0.0000000E+000	-34.6996	0.0000000E+000	0.0000000E+000	0.0000000E+000	34.6996	1.4442	55.3004	-2.37805e-06	-3.75095e-06	-1.44527e-09	-3.74951e-06	0.253535	17150.1	6.60806	17143.5
215.345	5.9377	4.3718	7.37353	-36.3634	9.09155	0.253633	-0.0157058	169.054	59.4287	1	10	0.00494326	0.000670406	0	7.44509e-05	9.77262e-05	2.15189e-05	39.7277	0.0320982	0.0246865	-0.0205152	-36.1216	7.38131	5.96239	4.35129	0.109211	0.0804099	0.13562	36.3634	59428.7	80714.9	100233	-53.6366	0.0000000E+000	0.0000000E+000	0.0000000E+000	53.6366	0.0000000E+000	0.0000000E+000	0.0000000E+000	-53.6366	0.0000000E+000	0.0000000E+000	0.0000000E+000	-36.3634	0.0000000E+000	0.0000000E+000	0.0000000E+000	36.3634	1.35818	53.6366	-1.83844e-06	-3.98351e-06	-1.53486e-09	-3.98197e-06	0.253536	16149.1	6.22231	16142.8
146.737	7.10608	5.24527	8.83228	-36.4325	9.53755	0.253628	-0.0166189	206.781	72.9292	1	10	0.00493876	0.000559172	0	7.24594e-05	5.95716e-05	1.12242e-05	-56.4823	0.0200729	0.0110842	0.0167351	-36.477	8.85114	7.11716	5.26201	0.0910928	0.0672391	0.113221	36.4325	72929.2	98801.4	122802	-53.5675	0.0000000E+000	0.0000000E+000	0.0000000E+000	53.5675	0.0000000E+000	0.0000000E+000	0.0000000E+000	-53.5675	0.0000000E+000	0.0000000E+000	0.0000000E+000	-36.4325	0.0000000E+000	0.0000000E+000	0.0000000E+000	36.4325	1.35476	53.5675	-1.99142e-06	-4.21501e-06	-9.90012e-10	-4.21402e-06	0.253568	15261.4	3.58457	15257.9
100.032	8.6345	6.124	10.5857	-35.3461	9.98878	0.253642	-0.0146771	259.804	86.9508	1	10	0.00493983	0.00046665	0	7.08838e-05	0.000174035	1.22121e-05	98.6853	0.0261697	-0.00395181	-0.0258696	-35.2441	10.5676	8.63055	6.09813	0.0770538	0.0546503	0.0944666	35.3461	86950.8	122596	150300	-54.6539	0.0000000E+000	0.0000000E+000	0.0000000E+000	54.6539	0.0000000E+000	0.0000000E+000	0.0000000E+000	-54.6539	0.0000000E+000	0.0000000E+000	0.0000000E+000	-35.3461	0.0000000E+000	0.0000000E+000	0.0000000E+000	35.3461	1.40994	54.6539	-1.57568e-06	-3.72274e-06	-2.55434e-09	-3.72018e-06	0.253468	17281.4	11.8576	17269.6
68.104	10.5128	6.81801	12.5302	-32.9651	10.4514	0.253635	-0.0121279	342.76	101.483	1	10	0.00493078	0.000393513	0	6.94378e-05	0.00042204	2.67443e-06	0.507596	0.0067963	0.00679603	-6.02091e-05	-32.948	12.5358	10.5196	6.81795	0.0669586	0.0434255	0.0798074	32.9651	101483	156478	186505	-57.0349	0.0000000E+000	0.0000000E+000	0.0000000E+000	57.0349	0.0000000E+000	0.0000000E+000	0.0000000E+000	-57.0349	0.0000000E+000	0.0000000E+000	0.0000000E+000	-32.9651	0.0000000E+000	0.0000000E+000	0.0000000E+000	32.9651	1.54192	57.0349	-1.44599e-06	-3.07606e-06	-5.11847e-09	-3.07095e-06	0.253213	20913.3	34.7991	20878.5
46.4415	12.6651	7.20981	14.5734	-29.6514	10.8877	0.253631	-0.0179009	475.324	116.336	1	10	0.00493442	0.00033859	0	6.74699e-05	9.77262e-05	1.22431e-05	-19.799	0.036159	0.0340215	0.0122478	-29.6272	14.6091	12.6991	7.22206	0.0596325	0.0339468	0.0686179	29.6514	116336	204360	235153	-60.3486	0.0000000E+000	0.0000000E+000	0.0000000E+000	60.3486	0.0000000E+000	0.0000000E+000	0.0000000E+000	-60.3486	0.0000000E+000	0.0000000E+000	0.0000000E+000	-29.6514	0.0000000E+000	0.0000000E+000	0.0000000E+000	29.6514	1.75664	60.3486	-1.96788e-06	-4.54023e-06	-1.74939e-09	-4.53848e-06	0.253533	14168.6	5.45927	14163.1
31.6296	14.8761	7.22802	16.5391	-25.9143	11.3176	0.253626	-0.0196116	696.158	132.96	1	10	0.00493393	0.000298319	0	6.46618e-05	7.86489e-05	6.98333e-06	136.594	0.0234089	-0.0170067	-0.0160857	-25.8899	16.5168	14.8591	7.21194	0.0543831	0.0264237	0.0604627	25.9143	132960	273647	304239	-64.0857	0.0000000E+000	0.0000000E+000	0.0000000E+000	64.0857	0.0000000E+000	0.0000000E+000	0.0000000E+000	-64.0857	0.0000000E+000	0.0000000E+000	0.0000000E+000	-25.9143	0.0000000E+000	0.0000000E+000	0.0000000E+000	25.9143	2.05811	64.0857	-2.80806e-06	-4.97401e-06	-1.54243e-09	-4.97247e-06	0.253547	12932.4	4.01032	12928.4
21.5517	17.0843	6.82025	18.3954	-21.7624	11.9705	0.253685	-0.00495955	1082.77	148.841	1	11	0.00493958	0.000268523	0	6.21993e-05	0.000174035	1.3858e-05	80.9134	0.0516084	0.0081504	-0.0509607	-21.6055	18.3841	17.0925	6.76929	0.0504871	0.020155	0.0543615	21.7624	148841	372837	401448	-68.2376	0.0000000E+000	0.0000000E+000	0.0000000E+000	68.2376	0.0000000E+000	0.0000000E+000	0.0000000E+000	-68.2376	0.0000000E+000	0.0000000E+000	0.0000000E+000	-21.7624	0.0000000E+000	0.0000000E+000	0.0000000E+000	21.7624	2.50494	68.2376	-2.46251e-06	-1.25817e-06	-8.63137e-10	-1.2573e-06	0.253511	51150.9	35.091	51115.8
14.6852	18.8319	6.26326	19.8462	-18.3964	12.4311	0.253679	-0.00469403	1730.38	172.341	1	11	0.00493035	0.000248428	0	6.13189e-05	0.000345731	6.45255e-06	-24.24	0.0259735	0.0236835	0.0106637	-18.4041	19.872	18.8556	6.27392	0.0478125	0.0159018	0.0503876	18.3964	172341	518183	546091	-71.6036	0.0000000E+000	0.0000000E+000	0.0000000E+000	71.6036	0.0000000E+000	0.0000000E+000	0.0000000E+000	-71.6036	0.0000000E+000	0.0000000E+000	0.0000000E+000	-18.3964	0.0000000E+000	0.0000000E+000	0.0000000E+000	18.3964	3.00673	71.6036	-8.80425e-07	-1.19078e-06	-1.62287e-09	-1.18915e-06	0.253333	54042.8	73.6533	53969.2
10.0032	20.3726	5.57257	21.121	-15.2981	12.8829	0.253676	-0.00485155	2855.13	198.751	1	11	0.00494122	0.000233948	0	6.2557e-05	0.000574659	8.61616e-06	21.4897	0.0368293	0.0342691	-0.0134919	-15.2383	21.1505	20.4068	5.55908	0.0456687	0.0124919	0.0473463	15.2981	198751	726607	753299	-74.7019	0.0000000E+000	0.0000000E+000	0.0000000E+000	74.7019	0.0000000E+000	0.0000000E+000	0.0000000E+000	-74.7019	0.0000000E+000	0.0000000E+000	0.0000000E+000	-15.2981	0.0000000E+000	0.0000000E+000	0.0000000E+000	15.2981	3.65587	74.7019	1.23809e-06	-1.23072e-06	-2.78799e-09	-1.22794e-06	0.253102	52287.7	118.448	52169.2
6.81719	21.4389	4.68718	21.9453	-12.3325	13.2225	0.253665	-0.00338806	4980.84	227.218	1	11	0.00487994	0.000222368	0	6.08287e-05	-0.000131202	0.000113319	-74.066	0.509601	0.139901	0.490021	-13.4914	22.1912	21.5788	5.1772	0.0445163	0.00973257	0.0455678	12.3325	227218	1.03928e+06	1.06383e+06	-77.6675	0.0000000E+000	0.0000000E+000	0.0000000E+000	77.6675	0.0000000E+000	0.0000000E+000	0.0000000E+000	-77.6675	0.0000000E+000	0.0000000E+000	0.0000000E+000	-12.3325	0.0000000E+000	0.0000000E+000	0.0000000E+000	12.3325	4.57395	77.6675	-1.7283e-06	-8.59431e-07	4.44518e-10	-8.59876e-07	0.253796	74870.4	38.7247	74909.1
4.63925	22.6707	4.31516	23.0777	-10.7768	13.7065	0.25369	-0.00440915	7950.15	277.961	1	11	0.00494021	0.000214068	0	5.9018e-05	0.000269422	1.18441e-05	-33.1952	0.0553287	0.0462996	0.0302921	-10.8291	23.1289	22.717	4.34545	0.0425676	0.00810235	0.0433318	10.7768	277961	1.46033e+06	1.48655e+06	-79.2232	0.0000000E+000	0.0000000E+000	0.0000000E+000	79.2232	0.0000000E+000	0.0000000E+000	0.0000000E+000	-79.2232	0.0000000E+000	0.0000000E+000	0.0000000E+000	-10.7768	0.0000000E+000	0.0000000E+000	0.0000000E+000	10.7768	5.25373	79.2232	-1.81066e-06	-1.11856e-06	-1.18792e-09	-1.11737e-06	0.253421	57537.2	61.1051	57476.1
3.1604	23.538	3.9405	23.8656	-9.50377	14.3995	0.253682	-0.00376008	12779.9	348.407	1	11	0.004934	0.000206741	0	6.05692e-05	0.00021219	6.32317e-06	32.5262	0.030585	0.0257876	-0.0164451	-9.45466	23.8883	23.5638	3.92406	0.0413263	0.00691844	0.0419014	9.50377	348407	2.08116e+06	2.11012e+06	-80.4962	0.0000000E+000	0.0000000E+000	0.0000000E+000	80.4962	0.0000000E+000	0.0000000E+000	0.0000000E+000	-80.4962	0.0000000E+000	0.0000000E+000	0.0000000E+000	-9.50377	0.0000000E+000	0.0000000E+000	0.0000000E+000	9.50377	5.97335	80.4962	1.55122e-06	-9.53865e-07	-7.97851e-10	-9.53067e-07	0.25347	67467.4	56.4324	67411
2.15577	24.3771	3.52873	24.6311	-8.2367	15.403	0.253687	-0.00285721	20921.8	429.405	1	11	0.00493653	0.000200418	0	6.29812e-05	0.000154958	7.16736e-06	10.1621	0.035762	0.035201	-0.0063096	-8.21048	24.6651	24.4123	3.52242	0.0401802	0.00581633	0.040599	8.2367	429405	2.9664e+06	2.99732e+06	-81.7633	0.0000000E+000	0.0000000E+000	0.0000000E+000	81.7633	0.0000000E+000	0.0000000E+000	0.0000000E+000	-81.7633	0.0000000E+000	0.0000000E+000	0.0000000E+000	-8.2367	0.0000000E+000	0.0000000E+000	0.0000000E+000	8.2367	6.90817	81.7633	2.41193e-06	-7.24839e-07	-4.42748e-10	-7.24396e-07	0.253532	88788.4	54.234	88734.2
1.46631	25.1656	3.21797	25.3705	-7.28697	16.8646	0.253689	-0.00216065	33729.7	542.648	1	11	0.00493797	0.000194634	0	6.25441e-05	-0.000169356	4.01219e-06	36.0467	0.020614	0.0166672	-0.0121302	-7.25504	25.3855	25.1823	3.20584	0.0390975	0.00499947	0.0394158	7.28697	542648	4.24369e+06	4.27824e+06	-82.713	0.0000000E+000	0.0000000E+000	0.0000000E+000	82.713	0.0000000E+000	0.0000000E+000	0.0000000E+000	-82.713	0.0000000E+000	0.0000000E+000	0.0000000E+000	-7.28697	0.0000000E+000	0.0000000E+000	0.0000000E+000	7.28697	7.82033	82.713	-4.3705e-07	-5.48134e-07	3.65919e-10	-5.485e-07	0.253859	117413	78.382	117492
1.00006	25.8203	2.94895	25.9882	-6.51556	20.04	0.253693	-0.00251293	53966.5	694.879	1	12	0.00493736	0.000189985	0	5.55583e-05	0.000174035	2.01595e-06	111.78	0.0106111	-0.00393722	-0.00985365	-6.49495	25.9831	25.8164	2.9391	0.0382305	0.00436633	0.0384791	6.51556	694879	6.08419e+06	6.12374e+06	-83.4844	0.0000000E+000	0.0000000E+000	0.0000000E+000	83.4844	0.0000000E+000	0.0000000E+000	0.0000000E+000	-83.4844	0.0000000E+000	0.0000000E+000	0.0000000E+000	-6.51556	0.0000000E+000	0.0000000E+000	0.0000000E+000	6.51556	8.75575	83.4844	-6.98579e-06	-6.37513e-07	-4.37338e-10	-6.37076e-07	0.253519	100955	69.2561	100886
0.681362	26.4152	2.70096	26.5529	-5.83821	23.1509	0.253697	-0.00224892	86481.6	894.818	1	12	0.00493426	0.000185827	0	4.53566e-05	7.86489e-05	4.66301e-06	-7.95754	0.0250933	0.0248517	0.0034739	-5.84021	26.578	26.4401	2.70443	0.0374653	0.00383083	0.0376606	5.83821	894818	8.75126e+06	8.79689e+06	-84.1618	0.0000000E+000	0.0000000E+000	0.0000000E+000	84.1618	0.0000000E+000	0.0000000E+000	0.0000000E+000	-84.1618	0.0000000E+000	0.0000000E+000	0.0000000E+000	-5.83821	0.0000000E+000	0.0000000E+000	0.0000000E+000	5.83821	9.77994	84.1618	-1.02018e-05	-5.70543e-07	-1.76875e-10	-5.70366e-07	0.253618	112809	34.9719	112774
0.464091	26.9676	2.53629	27.0866	-5.37284	27.7075	0.25369	-0.00282662	135213	1185.51	1	12	0.00493796	0.000182303	0	3.51393e-05	-0.000207511	2.77073e-06	-6.85419	0.0151986	0.0150899	0.00181384	-5.37367	27.1018	26.9827	2.53811	0.0367564	0.00345692	0.0369186	5.37284	1.18552e+06	1.26052e+07	1.26608e+07	-84.6272	0.0000000E+000	0.0000000E+000	0.0000000E+000	84.6272	0.0000000E+000	0.0000000E+000	0.0000000E+000	-84.6272	0.0000000E+000	0.0000000E+000	0.0000000E+000	-5.37284	0.0000000E+000	0.0000000E+000	0.0000000E+000	5.37284	10.6327	84.6272	-1.02172e-05	-7.17086e-07	5.86555e-10	-7.17673e-07	0.253898	89750.3	73.413	89823.7
0.316193	27.4273	2.51346	27.5423	-5.236	34.3819	0.253693	-0.00337861	200261	1667.79	1	12	0.00493704	0.000179253	0	3.09578e-05	7.86489e-05	2.89032e-06	0.649416	0.0161242	0.0161232	-0.000182755	-5.23256	27.5583	27.4435	2.51328	0.0361563	0.00331339	0.0363078	5.236	1.66779e+06	1.81992e+07	1.82754e+07	-84.764	0.0000000E+000	0.0000000E+000	0.0000000E+000	84.764	0.0000000E+000	0.0000000E+000	0.0000000E+000	-84.764	0.0000000E+000	0.0000000E+000	0.0000000E+000	-5.236	0.0000000E+000	0.0000000E+000	0.0000000E+000	5.236	10.9122	84.764	-4.18154e-06	-8.57132e-07	-2.65724e-10	-8.56866e-07	0.253615	75088	23.2784	75064.7
0.215268	27.8213	2.62812	27.9451	-5.39639	44.1754	0.253688	-0.00366214	281317	2488.13	1	12	0.00493686	0.000176662	0	3.82518e-05	-5.48923e-05	2.85031e-06	24.3103	0.0161342	0.0147036	-0.00664212	-5.38001	27.9591	27.836	2.62148	0.0356258	0.00336537	0.0357844	5.39639	2.48813e+06	2.63394e+07	2.64566e+07	-84.6036	0.0000000E+000	0.0000000E+000	0.0000000E+000	84.6036	0.0000000E+000	0.0000000E+000	0.0000000E+000	-84.6036	0.0000000E+000	0.0000000E+000	0.0000000E+000	-5.39639	0.0000000E+000	0.0000000E+000	0.0000000E+000	5.39639	10.586	84.6036	7.29403e-06	-9.29042e-07	2.01023e-10	-9.29243e-07	0.253743	69273.3	14.9891	69288.2
0.146929	28.1813	2.90054	28.3301	-5.87645	58.5138	0.253687	-0.00302691	373451	3914.67	1	12	0.00493521	0.000174204	0	5.86915e-05	7.86489e-05	2.397e-06	26.5234	0.0137598	0.0123116	-0.00614459	-5.86154	28.3418	28.1936	2.8944	0.0351126	0.00361395	0.0352981	5.87645	3.91467e+06	3.80344e+07	3.82353e+07	-84.1235	0.0000000E+000	0.0000000E+000	0.0000000E+000	84.1235	0.0000000E+000	0.0000000E+000	0.0000000E+000	-84.1235	0.0000000E+000	0.0000000E+000	0.0000000E+000	-5.87645	0.0000000E+000	0.0000000E+000	0.0000000E+000	5.87645	9.71586	84.1235	2.04397e-05	-7.67888e-07	-2.38063e-10	-7.6765e-07	0.253608	83810.4	25.9832	83784.5
0.0999041	28.6424	3.40579	28.8442	-6.78104	79.59	0.253683	-0.00184762	467756	6521.36	1	12	0.00493462	0.000171078	0	8.62105e-05	0.000288499	1.38132e-06	-3.65667	0.00807419	0.00805775	0.000514952	-6.78017	28.8523	28.6505	3.40631	0.0344265	0.00409356	0.034669	6.78104	6.52136e+06	5.48441e+07	5.52304e+07	-83.219	0.0000000E+000	0.0000000E+000	0.0000000E+000	83.219	0.0000000E+000	0.0000000E+000	0.0000000E+000	-83.219	0.0000000E+000	0.0000000E+000	0.0000000E+000	-6.78104	0.0000000E+000	0.0000000E+000	0.0000000E+000	6.78104	8.40992	83.219	2.7519e-05	-4.68711e-07	-5.33038e-10	-4.68178e-07	0.253395	137303	156.146	137146
0.0680626	29.2193	4.26612	29.5291	-8.3067	110.517	0.253683	-0.000809743	548124	11440.5	1	12	0.00493813	0.000167229	0	0.000104183	-7.39696e-05	1.47335e-06	-24.5288	0.00881037	0.00801526	0.00365764	-8.31147	29.5375	29.2273	4.26978	0.0335097	0.00489253	0.0338649	8.3067	1.14405e+07	7.83577e+07	7.91884e+07	-81.6933	0.0000000E+000	0.0000000E+000	0.0000000E+000	81.6933	0.0000000E+000	0.0000000E+000	0.0000000E+000	-81.6933	0.0000000E+000	0.0000000E+000	0.0000000E+000	-8.3067	0.0000000E+000	0.0000000E+000	0.0000000E+000	8.3067	6.84914	81.6933	1.79723e-05	-2.05418e-07	5.98963e-11	-2.05478e-07	0.253757	313289	91.3495	313380
0.0464052	29.8549	5.57242	30.3705	-10.5726	155.869	0.253684	-0.000169445	615474	20720.1	1	12	0.00493658	0.000162545	0	7.29186e-05	-5.48923e-05	2.24409e-06	10.095	0.013806	0.0135922	-0.00241993	-10.5634	30.3835	29.8685	5.57	0.0323677	0.00604142	0.0329267	10.5726	2.07201e+07	1.11011e+08	1.12928e+08	-79.4274	0.0000000E+000	0.0000000E+000	0.0000000E+000	79.4274	0.0000000E+000	0.0000000E+000	0.0000000E+000	-79.4274	0.0000000E+000	0.0000000E+000	0.0000000E+000	-10.5726	0.0000000E+000	0.0000000E+000	0.0000000E+000	10.5726	5.35762	79.4274	-3.12642e-05	-4.29855e-08	9.3012e-12	-4.29948e-08	0.253739	1.49715e+06	323.954	1.49748e+06
0.0315922	30.5789	7.26334	31.4296	-13.3617	222.474	0.253684	-0.000363318	693592	37042.3	1	12	0.00493535	0.000157028	0	-5.25577e-05	0.000250345	1.20707e-06	48.1387	0.00768698	0.00512975	-0.00572497	-13.3494	31.4333	30.584	7.25762	0.0309558	0.00735288	0.0318171	13.3617	3.70423e+07	1.55949e+08	1.60288e+08	-76.6383	0.0000000E+000	0.0000000E+000	0.0000000E+000	76.6383	0.0000000E+000	0.0000000E+000	0.0000000E+000	-76.6383	0.0000000E+000	0.0000000E+000	0.0000000E+000	-13.3617	0.0000000E+000	0.0000000E+000	0.0000000E+000	13.3617	4.21003	76.6383	-0.000125476	-9.21679e-08	-9.09546e-11	-9.20769e-08	0.253434	698243	689.052	697554
0.0215268	31.8046	9.4278	33.1725	-16.5113	320.213	0.253683	-0.0010617	784207	63342.3	1	12	0.00493806	0.00014886	0	-0.000278709	0.00021219	2.96159e-06	-20.6358	0.0198951	0.0186187	0.00701156	-16.5138	33.1924	31.8232	9.43481	0.0289023	0.00856748	0.0301454	16.5113	6.33423e+07	2.13685e+08	2.22875e+08	-73.4887	0.0000000E+000	0.0000000E+000	0.0000000E+000	73.4887	0.0000000E+000	0.0000000E+000	0.0000000E+000	-73.4887	0.0000000E+000	0.0000000E+000	0.0000000E+000	-16.5113	0.0000000E+000	0.0000000E+000	0.0000000E+000	16.5113	3.37349	73.4887	-0.000226151	-2.69335e-07	-2.25282e-10	-2.6911e-07	0.253471	238941	199.859	238741
0.0146812	33.6073	12.5684	35.8805	-20.5047	463.515	0.253682	-0.00167602	862542	105833	1	12	0.00494063	0.000137697	0	-0.000526774	2.1417e-05	2.27362e-06	-10.3993	0.0165118	0.0162406	0.00298049	-20.5	35.8968	33.6235	12.5714	0.0261045	0.0097625	0.0278703	20.5047	1.05833e+08	2.82992e+08	3.02134e+08	-69.4953	0.0000000E+000	0.0000000E+000	0.0000000E+000	69.4953	0.0000000E+000	0.0000000E+000	0.0000000E+000	-69.4953	0.0000000E+000	0.0000000E+000	0.0000000E+000	-20.5047	0.0000000E+000	0.0000000E+000	0.0000000E+000	20.5047	2.67396	69.4953	-0.000248066	-4.25177e-07	-3.58952e-11	-4.25141e-07	0.253661	151360	12.7785	151347
0.0100092	35.76	16.888	39.5472	-25.2795	673.696	0.253676	-0.00200045	941549	171700	1	12	0.00493745	0.000124849	0	-0.000634235	9.77262e-05	2.95601e-06	-7.02116	0.0236766	0.023499	0.00289413	-25.2688	39.5697	35.7835	16.8909	0.0228647	0.0107981	0.0252862	25.2795	1.717e+08	3.6357e+08	4.02074e+08	-64.7205	0.0000000E+000	0.0000000E+000	0.0000000E+000	64.7205	0.0000000E+000	0.0000000E+000	0.0000000E+000	-64.7205	0.0000000E+000	0.0000000E+000	0.0000000E+000	-25.2795	0.0000000E+000	0.0000000E+000	0.0000000E+000	25.2795	2.11747	64.7205	-0.000107461	-5.07468e-07	-1.95497e-10	-5.07272e-07	0.253579	126809	48.852	126761