File: txt/18823_R307_UA701_3p84_SOC00_C02.mpt
EC-Lab ASCII FILE
Nb header lines : 65

Potentio Electrochemical Impedance Spectroscopy

Run on channel : 2 (SN 66139)
User :
CE vs. WE compliance from -10 V to 10 V
Electrode connection : standard
Potential control : Ewe
Ewe ctrl range : min = -10.00 V, max = 10.00 V
Safety Limits :
	Do not start on E overload
Acquisition started on : 11/03/2025 17:10:41.622
Technique started on : 11/03/2025 17:10:43.216
Loaded Setting File :  C:\Users\Celltest\OneDrive - store-dot.com\Documents\EC-Lab\Data\@Biologic Test Protocols\anode half cell EIS SOC00.mps
Saved on :
	File : 18823_R307_UA701_3p84_SOC00_C02.mpr
	Directory : C:\Users\Celltest\OneDrive - store-dot.com\Documents\EC-Lab\Data\Anna\
	Host : 169.254.61.224
Device : VMP-3e (SN .003165)
Address : USB
EC-LAB for windows v11.62 (software)
Internet server v27.00 (firmware)
Command interpretor v12.03 (firmware)
Electrode material :
Initial state :
Electrolyte :
Comments :
Electrode surface area : 0.001 cm²
Characteristic mass : 0.001 g
Equivalent Weight : 0.000 g/eq.
Density : 0.000 g/cm3
Volume (V) : 0.001 cm³
Record Ece
Cycle Definition : Charge/Discharge alternance
Mode                Single sine
E (V)               0.0000
vs.                 Eoc
tE (h:m:s)          0:00:0.0000
record              0
dI                  0.000
unit dI             mA
dt (s)              0.000
fi                  100.000
unit fi             kHz
ff                  10.000
unit ff             mHz
Nd                  6
Points              per decade
spacing             Logarithmic
Va (mV)             5.0
pw                  0.10
Na                  2
corr                0
E range min (V)     -10.000
E range max (V)     10.000
I Range             Auto
Bandwidth           5
nc cycles           0
goto Ns'            0
nr cycles           0
inc. cycle          0

freq/Hz	Re(Z)/Ohm	-Im(Z)/Ohm	|Z|/Ohm	Phase(Z)/deg	time/s	<Ewe>/V	<I>/mA	Cs/µF	Cp/µF	cycle number	I Range	|Ewe|/V	|I|/A	Ns	(Q-Qo)/mA.h	<Ece>/V	|Ece|/V	Phase(Zce)/deg	|Zce|/Ohm	Re(Zce)/Ohm	-Im(Zce)/Ohm	Phase(Zwe-ce)/deg	|Zwe-ce|/Ohm	Re(Zwe-ce)/Ohm	-Im(Zwe-ce)/Ohm	Re(Y)/Ohm-1	Im(Y)/Ohm-1	|Y|/Ohm-1	Phase(Y)/deg	Re(C)/nF	Im(C)/nF	|C|/nF	Phase(C)/deg	Re(M)	Im(M)	|M|	Phase(M)/deg	Re(Permittivity)	Im(Permittivity)	|Permittivity|	Phase(Permittivity)/deg	Re(Resistivity)/Ohm.cm	Im(Resistivity)/Ohm.cm	|Resistivity|/Ohm.cm	Phase(Resistivity)/deg	Re(Conductivity)/mS/cm	Im(Conductivity)/mS/cm	|Conductivity|/mS/cm	Phase(Conductivity)/deg	Tan(Delta)	Loss Angle(Delta)/deg	dq/mA.h	Pwe/W	Pce/W	Pwe-ce/W	<Ewe-Ece>/V	Rwe/Ohm	Rce/Ohm	Rwe-ce/Ohm		Ewe-Ece/V
100004	1.25113	0.404393	1.31486	-17.912	1.59351	0.255754	0.00164115	3.93551	0.372262	1	9	0.00556542	0.00423271	0	-6.43902e-06	1.94333e-05	1.28292e-05	5.41579	0.00303096	0.00301743	-0.00028607	-17.8598	1.31764	1.25415	0.404107	0.723674	0.233908	0.760537	17.912	372.262	1151.72	1210.39	-72.088	0.0000000E+000	0.0000000E+000	0.0000000E+000	72.088	0.0000000E+000	0.0000000E+000	0.0000000E+000	-72.088	0.0000000E+000	0.0000000E+000	0.0000000E+000	-17.912	0.0000000E+000	0.0000000E+000	0.0000000E+000	17.912	3.09384	72.088	-6.43902e-06	4.1973e-07	3.18929e-11	4.19698e-07	0.255735	155839	11.8413	155827
68132	1.32477	0.502143	1.41674	-20.7588	2.10054	0.255696	0.00279575	4.65201	0.584404	1	9	0.00549552	0.00387898	0	3.92496e-05	0.000153069	1.31981e-05	15.8059	0.00340246	0.00327381	-0.000926761	-20.677	1.41948	1.32804	0.501217	0.660021	0.250176	0.705844	20.7588	584.404	1541.79	1648.84	-69.2412	0.0000000E+000	0.0000000E+000	0.0000000E+000	69.2412	0.0000000E+000	0.0000000E+000	0.0000000E+000	-69.2412	0.0000000E+000	0.0000000E+000	0.0000000E+000	-20.7588	0.0000000E+000	0.0000000E+000	0.0000000E+000	20.7588	2.63823	69.2412	4.56887e-05	7.14863e-07	4.27943e-10	7.14435e-07	0.255543	91458.9	54.7507	91404.1
46420.4	1.45699	0.555238	1.5592	-20.8612	2.48354	0.255691	0.00517949	6.17494	0.783047	1	9	0.00550022	0.00352759	0	4.41938e-05	-0.000209657	1.12024e-05	25.9643	0.00317566	0.00285513	-0.00139034	-20.7762	1.56137	1.45984	0.553847	0.599312	0.228389	0.641355	20.8612	783.047	2054.78	2198.92	-69.1388	0.0000000E+000	0.0000000E+000	0.0000000E+000	69.1388	0.0000000E+000	0.0000000E+000	0.0000000E+000	-69.1388	0.0000000E+000	0.0000000E+000	0.0000000E+000	-20.8612	0.0000000E+000	0.0000000E+000	0.0000000E+000	20.8612	2.62408	69.1388	4.9442e-06	1.32435e-06	-1.08591e-09	1.32543e-06	0.255901	49366.1	40.4783	49406.6
31621.1	1.59104	0.609667	1.70385	-20.9663	2.86652	0.255688	0.000412004	8.25563	1.057	1	9	0.00545477	0.00320145	0	4.48736e-05	0.000153069	1.58444e-05	22.2445	0.00494912	0.00458079	-0.00187354	-20.8526	1.70746	1.59562	0.607793	0.548049	0.210006	0.586908	20.9663	1057	2758.43	2954.01	-69.0337	0.0000000E+000	0.0000000E+000	0.0000000E+000	69.0337	0.0000000E+000	0.0000000E+000	0.0000000E+000	-69.0337	0.0000000E+000	0.0000000E+000	0.0000000E+000	-20.9663	0.0000000E+000	0.0000000E+000	0.0000000E+000	20.9663	2.60968	69.0337	6.79796e-07	1.05345e-07	6.30652e-11	1.05282e-07	0.255535	620596	371.523	620224
21544.7	1.73592	0.666399	1.85944	-21.0012	3.24955	0.255679	-0.00822905	11.0853	1.4238	1	9	0.00542747	0.00291888	0	3.69037e-05	0.000305796	1.06951e-05	15.8097	0.00366411	0.0035255	-0.000998259	-20.9336	1.86237	1.73945	0.665401	0.502072	0.192739	0.537796	21.0012	1423.8	3708.91	3972.81	-68.9988	0.0000000E+000	0.0000000E+000	0.0000000E+000	68.9988	0.0000000E+000	0.0000000E+000	0.0000000E+000	-68.9988	0.0000000E+000	0.0000000E+000	0.0000000E+000	-21.0012	0.0000000E+000	0.0000000E+000	0.0000000E+000	21.0012	2.60493	68.9988	-7.96992e-06	-2.10399e-06	-2.51641e-09	-2.10148e-06	0.255373	31070.3	37.1606	31033.1
14678.6	1.8944	0.739248	2.03353	-21.3171	3.63253	0.25569	-0.00204623	14.6671	1.93831	1	9	0.00534	0.00262597	0	2.98477e-05	0.000133978	9.85562e-06	-79.8298	0.00375313	0.0006627	0.00369416	-21.4072	2.0355	1.89507	0.742943	0.45811	0.178767	0.491755	21.3171	1938.31	4967.13	5331.93	-68.6829	0.0000000E+000	0.0000000E+000	0.0000000E+000	68.6829	0.0000000E+000	0.0000000E+000	0.0000000E+000	-68.6829	0.0000000E+000	0.0000000E+000	0.0000000E+000	-21.3171	0.0000000E+000	0.0000000E+000	0.0000000E+000	21.3171	2.56261	68.6829	-7.05597e-06	-5.23201e-07	-2.74151e-10	-5.22927e-07	0.255556	124956	65.4757	124891
10002.2	2.059	0.819854	2.21623	-21.7114	4.01653	0.255686	0.00354065	19.4083	2.65602	1	9	0.00534503	0.00241177	0	2.54911e-05	0.000210342	9.05585e-06	-30.1527	0.00375486	0.00324679	0.00188609	-21.7257	2.21994	2.06225	0.82174	0.419207	0.16692	0.451217	21.7114	2656.02	6670.41	7179.75	-68.2886	0.0000000E+000	0.0000000E+000	0.0000000E+000	68.2886	0.0000000E+000	0.0000000E+000	0.0000000E+000	-68.2886	0.0000000E+000	0.0000000E+000	0.0000000E+000	-21.7114	0.0000000E+000	0.0000000E+000	0.0000000E+000	21.7114	2.51143	68.2886	-4.35663e-06	9.05293e-07	7.44746e-10	9.04548e-07	0.255475	72214.4	59.4077	72155
6810.42	2.24164	0.921308	2.42358	-22.3425	4.39954	0.255687	-0.00286566	25.3654	3.66551	1	9	0.00519364	0.00214296	0	2.34729e-05	0.000363069	1.29116e-05	3.52792	0.00602513	0.00601372	-0.000370756	-22.2805	2.42901	2.24765	0.920937	0.381636	0.156852	0.412612	22.3425	3665.52	8918.59	9642.47	-67.6575	0.0000000E+000	0.0000000E+000	0.0000000E+000	67.6575	0.0000000E+000	0.0000000E+000	0.0000000E+000	-67.6575	0.0000000E+000	0.0000000E+000	0.0000000E+000	-22.3425	0.0000000E+000	0.0000000E+000	0.0000000E+000	22.3425	2.43311	67.6575	-2.01821e-06	-7.32712e-07	-1.04043e-09	-7.31672e-07	0.255324	89224.3	126.696	89097.6
4646	2.45441	1.04351	2.66703	-23.0331	4.79264	0.25568	0.00111964	32.828	5.02552	1	9	0.00497563	0.00186561	0	2.18728e-05	0.000114888	1.08985e-05	-45.3714	0.00584178	0.0041039	0.00415745	-23.0807	2.67244	2.45852	1.04767	0.345057	0.146703	0.374949	23.0331	5025.52	11820.4	12844.4	-66.9669	0.0000000E+000	0.0000000E+000	0.0000000E+000	66.9669	0.0000000E+000	0.0000000E+000	0.0000000E+000	-66.9669	0.0000000E+000	0.0000000E+000	0.0000000E+000	-23.0331	0.0000000E+000	0.0000000E+000	0.0000000E+000	23.0331	2.35207	66.9669	-1.60011e-06	2.86269e-07	1.28633e-10	2.86141e-07	0.255565	228359	102.611	228257
3163.08	2.68278	1.18894	2.93443	-23.9017	5.16568	0.255638	-0.0207065	42.3205	6.94741	1	9	0.00500282	0.00170487	0	2.10373e-05	0.000191251	2.26026e-06	-12.5378	0.00132577	0.00129415	0.000287801	-23.8966	2.93573	2.68407	1.18923	0.311557	0.138074	0.340782	23.9017	6947.41	15676.4	17146.9	-66.0983	0.0000000E+000	0.0000000E+000	0.0000000E+000	66.0983	0.0000000E+000	0.0000000E+000	0.0000000E+000	-66.0983	0.0000000E+000	0.0000000E+000	0.0000000E+000	-23.9017	0.0000000E+000	0.0000000E+000	0.0000000E+000	23.9017	2.25645	66.0983	-8.35521e-07	-5.29336e-06	-3.96013e-09	-5.2894e-06	0.255447	12345.8	9.23629	12336.6
2155.69	2.9397	1.34127	3.23123	-24.5254	5.61678	0.255632	-0.0169446	55.045	9.48451	1	9	0.00493384	0.00152692	0	1.80361e-05	-0.000190566	4.32645e-06	15.5554	0.00283344	0.00272966	-0.000759847	-24.493	3.2334	2.94243	1.34051	0.281558	0.128464	0.30948	24.5254	9484.51	20787.5	22848.9	-65.4746	0.0000000E+000	0.0000000E+000	0.0000000E+000	65.4746	0.0000000E+000	0.0000000E+000	0.0000000E+000	-65.4746	0.0000000E+000	0.0000000E+000	0.0000000E+000	-24.5254	0.0000000E+000	0.0000000E+000	0.0000000E+000	24.5254	2.19173	65.4746	-3.00122e-06	-4.33159e-06	3.22907e-09	-4.33481e-06	0.255822	15086.3	11.2464	15097.5
1468.59	3.21946	1.566	3.58012	-25.9391	6.31302	0.255653	-0.024277	69.2034	13.2408	1	10	0.00495558	0.00138419	0	1.57087e-05	5.7615e-05	1.30762e-05	22.2983	0.00944685	0.00874042	-0.0035844	-25.8265	3.58642	3.2282	1.56242	0.251181	0.122179	0.27932	25.9391	13240.8	27221.2	30270.6	-64.0609	0.0000000E+000	0.0000000E+000	0.0000000E+000	64.0609	0.0000000E+000	0.0000000E+000	0.0000000E+000	-64.0609	0.0000000E+000	0.0000000E+000	0.0000000E+000	-25.9391	0.0000000E+000	0.0000000E+000	0.0000000E+000	25.9391	2.05585	64.0609	-2.32735e-06	-6.20649e-06	-1.39872e-09	-6.20509e-06	0.255595	10530.7	2.37324	10528.3
1000.32	3.55038	1.84526	4.00128	-27.4626	6.76382	0.255653	-0.0236176	86.2229	18.3376	1	10	0.00487989	0.00121958	0	1.38192e-05	0.000305796	4.96606e-06	49.8981	0.00407193	0.00262293	-0.00311462	-27.4057	4.00217	3.553	1.84215	0.221757	0.115256	0.24992	27.4626	18337.6	35282.5	39763.3	-62.5374	0.0000000E+000	0.0000000E+000	0.0000000E+000	62.5374	0.0000000E+000	0.0000000E+000	0.0000000E+000	-62.5374	0.0000000E+000	0.0000000E+000	0.0000000E+000	-27.4626	0.0000000E+000	0.0000000E+000	0.0000000E+000	27.4626	1.92405	62.5374	-1.88948e-06	-6.03793e-06	-7.22218e-09	-6.03071e-06	0.255348	10824.7	12.9478	10811.7
681.09	3.93084	2.18951	4.4995	-29.1182	7.21359	0.255648	-0.0228949	106.725	25.2717	1	10	0.00480586	0.00106809	0	1.09634e-05	9.57967e-05	1.22812e-05	75.0284	0.0114983	0.00297046	-0.011108	-28.9761	4.4967	3.93381	2.17841	0.194159	0.108148	0.222247	29.1182	25271.7	45370.4	51934	-60.8818	0.0000000E+000	0.0000000E+000	0.0000000E+000	60.8818	0.0000000E+000	0.0000000E+000	0.0000000E+000	-60.8818	0.0000000E+000	0.0000000E+000	0.0000000E+000	-29.1182	0.0000000E+000	0.0000000E+000	0.0000000E+000	29.1182	1.7953	60.8818	-2.85586e-06	-5.85304e-06	-2.19326e-09	-5.85085e-06	0.255552	11166.1	4.18419	11161.9
463.961	4.39717	2.64725	5.13255	-31.0494	7.66533	0.255654	-0.022135	129.582	34.4721	1	10	0.0047555	0.000926537	0	7.65897e-06	0.000420341	4.79547e-06	-131.169	0.00517569	-0.00340704	0.00389614	-31.1063	5.13164	4.39376	2.65115	0.16692	0.100491	0.194835	31.0494	34472.1	57259.3	66835.3	-58.9506	0.0000000E+000	0.0000000E+000	0.0000000E+000	58.9506	0.0000000E+000	0.0000000E+000	0.0000000E+000	-58.9506	0.0000000E+000	0.0000000E+000	0.0000000E+000	-31.0494	0.0000000E+000	0.0000000E+000	0.0000000E+000	31.0494	1.66103	58.9506	-3.3044e-06	-5.6589e-06	-9.30425e-09	-5.6496e-06	0.255234	11549.8	18.9899	11530.8
316.316	5.02023	3.20891	5.95817	-32.5866	8.11301	0.255648	-0.0232041	156.798	45.4811	1	10	0.0047265	0.00079328	0	5.54525e-06	1.94333e-05	1.04171e-05	-23.1902	0.0131317	0.0120707	0.00517105	-32.566	5.97113	5.0323	3.21408	0.141416	0.0903924	0.167837	32.5866	45481.1	71153.6	84447.4	-57.4134	0.0000000E+000	0.0000000E+000	0.0000000E+000	57.4134	0.0000000E+000	0.0000000E+000	0.0000000E+000	-57.4134	0.0000000E+000	0.0000000E+000	0.0000000E+000	-32.5866	0.0000000E+000	0.0000000E+000	0.0000000E+000	32.5866	1.56446	57.4134	-2.11372e-06	-5.9321e-06	-4.50934e-10	-5.93165e-06	0.255629	11017.4	0.837494	11016.5
215.345	5.83595	3.85501	6.99424	-33.4473	8.56257	0.255641	-0.0218519	191.717	58.2412	1	10	0.00469215	0.000670859	0	2.92542e-06	1.94333e-05	5.90282e-06	59.1588	0.00879889	0.00451084	-0.00755466	-33.3753	6.99385	5.84046	3.84746	0.119297	0.0788033	0.142975	33.4473	58241.2	88169.1	105668	-56.5527	0.0000000E+000	0.0000000E+000	0.0000000E+000	56.5527	0.0000000E+000	0.0000000E+000	0.0000000E+000	-56.5527	0.0000000E+000	0.0000000E+000	0.0000000E+000	-33.4473	0.0000000E+000	0.0000000E+000	0.0000000E+000	33.4473	1.51386	56.5527	-2.61983e-06	-5.58625e-06	-4.24655e-10	-5.58582e-06	0.255622	11698.8	0.88932	11697.9
146.737	6.93677	4.51005	8.27401	-33.0305	9.00853	0.255654	-0.0227757	240.491	71.4543	1	10	0.00468057	0.000565695	0	3.04991e-07	3.85242e-05	7.68378e-06	104.087	0.0135829	-0.00330592	-0.0131745	-32.9665	8.26406	6.93346	4.49687	0.101327	0.0658793	0.12086	33.0305	71454.3	109902	131088	-56.9695	0.0000000E+000	0.0000000E+000	0.0000000E+000	56.9695	0.0000000E+000	0.0000000E+000	0.0000000E+000	-56.9695	0.0000000E+000	0.0000000E+000	0.0000000E+000	-33.0305	0.0000000E+000	0.0000000E+000	0.0000000E+000	33.0305	1.53807	56.9695	-2.62043e-06	-5.82271e-06	-8.77417e-10	-5.82183e-06	0.255615	11224.8	1.69146	11223.1
100.032	8.313	5.05363	9.72858	-31.2962	9.4598	0.255652	-0.0221536	314.831	84.9545	1	10	0.00467351	0.00048039	0	-2.54775e-06	0.000363069	9.86779e-06	-64.2207	0.0205412	0.00893347	0.0184969	-31.3619	9.74582	8.32193	5.07213	0.0878333	0.0533956	0.10279	31.2962	84954.5	139746	163543	-58.7038	0.0000000E+000	0.0000000E+000	0.0000000E+000	58.7038	0.0000000E+000	0.0000000E+000	0.0000000E+000	-58.7038	0.0000000E+000	0.0000000E+000	0.0000000E+000	-31.2962	0.0000000E+000	0.0000000E+000	0.0000000E+000	31.2962	1.64495	58.7038	-2.85274e-06	-5.66362e-06	-8.04329e-09	-5.65557e-06	0.255289	11539.9	16.3887	11523.6
68.104	9.89206	5.41585	11.2776	-28.7004	9.92249	0.255651	-0.0203581	431.501	99.5132	1	10	0.00467042	0.000414132	0	-5.19304e-06	0.000248523	3.35818e-06	-3.09189	0.00810894	0.00809714	0.000437376	-28.6827	11.2849	9.90016	5.41628	0.0777774	0.0425827	0.0886713	28.7004	99513.2	181761	207220	-61.2996	0.0000000E+000	0.0000000E+000	0.0000000E+000	61.2996	0.0000000E+000	0.0000000E+000	0.0000000E+000	-61.2996	0.0000000E+000	0.0000000E+000	0.0000000E+000	-28.7004	0.0000000E+000	0.0000000E+000	0.0000000E+000	28.7004	1.8265	61.2996	-2.64529e-06	-5.20457e-06	-5.05946e-09	-5.19951e-06	0.255403	12557.7	12.2076	12545.5
46.4415	11.5542	5.45897	12.7789	-25.2892	10.3596	0.255641	-0.0229359	627.773	114.562	1	10	0.00467386	0.000365749	0	-8.12716e-06	0.000153069	5.48499e-06	111.968	0.0149966	-0.00561003	-0.0139078	-25.2435	12.7679	11.5486	5.44507	0.0707545	0.0334291	0.0782541	25.2892	114562	242475	268176	-64.7108	0.0000000E+000	0.0000000E+000	0.0000000E+000	64.7108	0.0000000E+000	0.0000000E+000	0.0000000E+000	-64.7108	0.0000000E+000	0.0000000E+000	0.0000000E+000	-25.2892	0.0000000E+000	0.0000000E+000	0.0000000E+000	25.2892	2.11655	64.7108	-2.93412e-06	-5.86337e-06	-3.51079e-09	-5.85986e-06	0.255488	11145.9	6.67377	11139.2
31.6296	13.1119	5.21291	14.1102	-21.6813	10.7895	0.255639	-0.0227981	965.265	131.748	1	10	0.00467061	0.00033101	0	-1.00593e-05	0.000286705	1.11769e-05	-20.0492	0.033766	0.0317198	0.0115759	-21.6774	14.1439	13.1437	5.22449	0.0658569	0.0261828	0.0708708	21.6813	131748	331382	356611	-68.3187	0.0000000E+000	0.0000000E+000	0.0000000E+000	68.3187	0.0000000E+000	0.0000000E+000	0.0000000E+000	-68.3187	0.0000000E+000	0.0000000E+000	0.0000000E+000	-21.6813	0.0000000E+000	0.0000000E+000	0.0000000E+000	21.6813	2.51528	68.3187	-1.93213e-06	-5.82809e-06	-6.53633e-09	-5.82155e-06	0.255352	11213.2	12.5758	11200.6
21.5517	14.4803	4.80245	15.2559	-18.3484	11.2105	0.255647	-0.0232898	1537.71	152.38	1	10	0.00466414	0.000305728	0	-1.25664e-05	1.94333e-05	4.13148e-06	78.8989	0.0135136	0.00260192	-0.0132608	-18.298	15.2542	14.4829	4.78919	0.062216	0.0206343	0.0655485	18.3484	152380	459452	484062	-71.6516	0.0000000E+000	0.0000000E+000	0.0000000E+000	71.6516	0.0000000E+000	0.0000000E+000	0.0000000E+000	-71.6516	0.0000000E+000	0.0000000E+000	0.0000000E+000	-18.3484	0.0000000E+000	0.0000000E+000	0.0000000E+000	18.3484	3.01518	71.6516	-2.50713e-06	-5.95398e-06	-4.52599e-10	-5.95353e-06	0.255628	10976.8	0.834412	10975.9
14.6852	15.6562	4.33973	16.2465	-15.4928	11.9212	0.255674	-0.0151803	2497.35	178.191	1	11	0.00466568	0.000287181	0	-1.66532e-05	-0.000171475	3.85907e-06	-54.7919	0.0134378	0.00774751	0.0109795	-15.5228	16.2569	15.6639	4.35071	0.0593152	0.0164416	0.0615517	15.4928	178191	642847	667086	-74.5072	0.0000000E+000	0.0000000E+000	0.0000000E+000	74.5072	0.0000000E+000	0.0000000E+000	0.0000000E+000	-74.5072	0.0000000E+000	0.0000000E+000	0.0000000E+000	-15.4928	0.0000000E+000	0.0000000E+000	0.0000000E+000	15.4928	3.60763	74.5072	-4.08681e-06	-3.8812e-06	2.60304e-09	-3.88381e-06	0.255846	16842.6	11.2959	16853.9
10.0032	16.6711	3.91127	17.1238	-13.2036	12.3718	0.255669	-0.0151829	4067.83	212.227	1	11	0.00466844	0.000272629	0	-1.72944e-05	-0.000190566	5.48809e-06	17.5754	0.0201302	0.0191906	-0.00607853	-13.1692	17.1411	16.6903	3.90519	0.0568546	0.0133389	0.0583984	13.2036	212227	904580	929142	-76.7964	0.0000000E+000	0.0000000E+000	0.0000000E+000	76.7964	0.0000000E+000	0.0000000E+000	0.0000000E+000	-76.7964	0.0000000E+000	0.0000000E+000	0.0000000E+000	-13.2036	0.0000000E+000	0.0000000E+000	0.0000000E+000	13.2036	4.26232	76.7964	-6.41228e-07	-3.88179e-06	2.89334e-09	-3.88468e-06	0.255859	16839.3	12.5514	16851.9
6.81719	17.5348	3.40073	17.8616	-10.9758	12.7115	0.255666	-0.0144342	6865.03	248.856	1	11	0.00466288	0.000261057	0	-2.07903e-05	0.000324887	8.30828e-05	77.1134	0.318256	0.0709781	-0.31024	-9.95616	17.875	17.6058	3.09049	0.0549621	0.0106594	0.0559862	10.9758	248856	1.28315e+06	1.30706e+06	-79.0242	0.0000000E+000	0.0000000E+000	0.0000000E+000	79.0242	0.0000000E+000	0.0000000E+000	0.0000000E+000	-79.0242	0.0000000E+000	0.0000000E+000	0.0000000E+000	-10.9758	0.0000000E+000	0.0000000E+000	0.0000000E+000	10.9758	5.15619	79.0242	-3.49581e-06	-3.69033e-06	-4.68947e-09	-3.68564e-06	0.255341	17712.5	22.5082	17690
4.63925	18.3551	3.0507	18.6069	-9.43657	13.1954	0.255674	-0.0145233	11245.3	302.291	1	11	0.00467949	0.000251492	0	-2.06854e-05	7.67059e-05	2.10808e-06	17.1408	0.0083823	0.00800998	-0.00247043	-9.42502	18.6144	18.3631	3.04823	0.0530163	0.00881155	0.0537435	9.43657	302291	1.81878e+06	1.84373e+06	-80.5634	0.0000000E+000	0.0000000E+000	0.0000000E+000	80.5634	0.0000000E+000	0.0000000E+000	0.0000000E+000	-80.5634	0.0000000E+000	0.0000000E+000	0.0000000E+000	-9.43657	0.0000000E+000	0.0000000E+000	0.0000000E+000	9.43657	6.01668	80.5634	1.04809e-07	-3.71323e-06	-1.11402e-09	-3.71212e-06	0.255597	17604.4	5.28158	17599.1
3.1604	18.9402	2.7026	19.132	-8.12079	13.8885	0.255673	-0.0136197	18633.6	371.824	1	11	0.00466753	0.000243964	0	-2.05309e-05	9.57967e-05	6.29843e-06	42.105	0.025817	0.0191541	-0.0173101	-8.06141	19.1486	18.9593	2.68529	0.0517442	0.00738345	0.0522683	8.12079	371824	2.6058e+06	2.63219e+06	-81.8792	0.0000000E+000	0.0000000E+000	0.0000000E+000	81.8792	0.0000000E+000	0.0000000E+000	0.0000000E+000	-81.8792	0.0000000E+000	0.0000000E+000	0.0000000E+000	-8.12079	0.0000000E+000	0.0000000E+000	0.0000000E+000	8.12079	7.00814	81.8792	1.54543e-07	-3.48218e-06	-1.30472e-09	-3.48088e-06	0.255577	18772.3	7.03369	18765.2
2.15577	19.5135	2.38301	19.6584	-6.96258	14.892	0.255671	-0.0125636	30980.7	455.247	1	11	0.00466889	0.000237501	0	-2.4962e-05	1.94333e-05	3.51479e-06	-15.709	0.0147991	0.0142463	0.00400688	-6.96913	19.6731	19.5277	2.38702	0.0504936	0.00616636	0.0508688	6.96258	455247	3.72782e+06	3.75551e+06	-83.0374	0.0000000E+000	0.0000000E+000	0.0000000E+000	83.0374	0.0000000E+000	0.0000000E+000	0.0000000E+000	-83.0374	0.0000000E+000	0.0000000E+000	0.0000000E+000	-6.96258	0.0000000E+000	0.0000000E+000	0.0000000E+000	6.96258	8.18856	83.0374	-4.43108e-06	-3.21214e-06	-2.44152e-10	-3.21189e-06	0.255651	20350.1	1.5468	20348.6
1.46631	19.9701	2.11586	20.0819	-6.04802	16.3534	0.255671	-0.011756	51298.7	569.474	1	11	0.00466867	0.000232482	0	-3.49566e-05	0.000229433	2.00261e-06	59.1358	0.00861403	0.00441904	-0.00739416	-6.02572	20.0855	19.9745	2.10847	0.049519	0.00524662	0.0497962	6.04802	569474	5.37485e+06	5.40493e+06	-83.952	0.0000000E+000	0.0000000E+000	0.0000000E+000	83.952	0.0000000E+000	0.0000000E+000	0.0000000E+000	-83.952	0.0000000E+000	0.0000000E+000	0.0000000E+000	-6.04802	0.0000000E+000	0.0000000E+000	0.0000000E+000	6.04802	9.43826	83.952	-9.99466e-06	-3.00566e-06	-2.69721e-09	-3.00296e-06	0.255441	21748.2	19.5162	21728.6
1.00006	20.3691	1.93856	20.4611	-5.43657	19.5268	0.255668	-0.0113083	82094.3	736.909	1	12	0.00466951	0.000228214	0	-5.16144e-05	-5.69301e-05	3.03875e-06	-34.1985	0.0133154	0.0110131	0.00748406	-5.4545	20.4728	20.3801	1.94605	0.0486534	0.00463043	0.0488732	5.43657	736909	7.74293e+06	7.77792e+06	-84.5634	0.0000000E+000	0.0000000E+000	0.0000000E+000	84.5634	0.0000000E+000	0.0000000E+000	0.0000000E+000	-84.5634	0.0000000E+000	0.0000000E+000	0.0000000E+000	-5.43657	0.0000000E+000	0.0000000E+000	0.0000000E+000	5.43657	10.5073	84.5634	-1.66578e-05	-2.89118e-06	6.43783e-10	-2.89182e-06	0.255725	22608.9	5.03435	22613.9
0.681362	20.734	1.81301	20.8131	-4.99729	22.6389	0.25567	-0.011217	128838	977.61	1	12	0.00467167	0.000224458	0	-6.2283e-05	0.000439432	3.48924e-06	15.8294	0.0155452	0.0149557	-0.00424033	-4.98209	20.8277	20.749	1.80876	0.0478639	0.00418527	0.0480466	4.99729	977610	1.11802e+07	1.12229e+07	-85.0027	0.0000000E+000	0.0000000E+000	0.0000000E+000	85.0027	0.0000000E+000	0.0000000E+000	0.0000000E+000	-85.0027	0.0000000E+000	0.0000000E+000	0.0000000E+000	-4.99729	0.0000000E+000	0.0000000E+000	0.0000000E+000	4.99729	11.4363	85.0027	-1.06686e-05	-2.86784e-06	-4.92909e-09	-2.86291e-06	0.255231	22793.2	39.1757	22754
0.464091	21.0037	1.84207	21.0843	-5.01213	27.1954	0.25567	-0.0108399	186171	1421.03	1	12	0.00466761	0.000221378	0	-6.72092e-05	0.00040125	3.17254e-06	2.47241	0.0143309	0.0143175	-0.000618208	-5.00706	21.0985	21.018	1.84145	0.0472472	0.00414368	0.0474286	5.01213	1.42103e+06	1.62029e+07	1.62651e+07	-84.9879	0.0000000E+000	0.0000000E+000	0.0000000E+000	84.9879	0.0000000E+000	0.0000000E+000	0.0000000E+000	-84.9879	0.0000000E+000	0.0000000E+000	0.0000000E+000	-5.01213	0.0000000E+000	0.0000000E+000	0.0000000E+000	5.01213	11.4022	84.9879	-4.92617e-06	-2.77145e-06	-4.34952e-09	-2.7671e-06	0.255269	23586	37.016	23549
0.316193	21.2665	1.96326	21.3569	-5.27444	33.87	0.25567	-0.00962808	256383	2166.55	1	12	0.00466859	0.000218599	0	-6.59899e-05	0.000114888	1.8164e-06	95.588	0.00830928	-0.000809118	-0.00826979	-5.25254	21.3553	21.2657	1.95499	0.046625	0.00430429	0.0468233	5.27444	2.16655e+06	2.34686e+07	2.35684e+07	-84.7256	0.0000000E+000	0.0000000E+000	0.0000000E+000	84.7256	0.0000000E+000	0.0000000E+000	0.0000000E+000	-84.7256	0.0000000E+000	0.0000000E+000	0.0000000E+000	-5.27444	0.0000000E+000	0.0000000E+000	0.0000000E+000	5.27444	10.8322	84.7256	1.21925e-06	-2.46161e-06	-1.10615e-09	-2.46051e-06	0.255555	26554.6	11.9325	26542.7
0.215268	21.5821	2.19917	21.6939	-5.81824	43.6634	0.255664	-0.00762947	336188	3454.83	1	12	0.00467267	0.000215391	0	-6.35966e-05	0.000210342	1.26425e-06	18.1809	0.00586954	0.00557651	-0.00183141	-5.81193	21.6992	21.5877	2.19734	0.0458585	0.00467289	0.046096	5.81824	3.45483e+06	3.39048e+07	3.40804e+07	-84.1818	0.0000000E+000	0.0000000E+000	0.0000000E+000	84.1818	0.0000000E+000	0.0000000E+000	0.0000000E+000	-84.1818	0.0000000E+000	0.0000000E+000	0.0000000E+000	-5.81824	0.0000000E+000	0.0000000E+000	0.0000000E+000	5.81824	9.81374	84.1818	2.39336e-06	-1.95058e-06	-1.6048e-09	-1.94898e-06	0.255454	33510.1	27.5696	33482.5
0.146929	21.9734	2.63095	22.1304	-6.82772	58.0018	0.255664	-0.00505797	411718	5819.01	1	12	0.00467342	0.000211177	0	-7.23869e-05	7.67059e-05	2.39972e-06	-37.1655	0.0113635	0.00905553	0.00686494	-6.84257	22.1402	21.9825	2.63782	0.0448663	0.005372	0.0451868	6.82772	5.81901e+06	4.85997e+07	4.89468e+07	-83.1723	0.0000000E+000	0.0000000E+000	0.0000000E+000	83.1723	0.0000000E+000	0.0000000E+000	0.0000000E+000	-83.1723	0.0000000E+000	0.0000000E+000	0.0000000E+000	-6.82772	0.0000000E+000	0.0000000E+000	0.0000000E+000	6.82772	8.35188	83.1723	-8.79035e-06	-1.29314e-06	-3.87976e-10	-1.29275e-06	0.255588	50546.9	15.1654	50531.7
0.0999041	22.4133	3.32028	22.6579	-8.42644	79.0781	0.255662	-0.00320421	479802	10303.2	1	12	0.00466987	0.000206103	0	-0.000112798	0.000248523	2.07465e-06	2.83261	0.0100661	0.0100538	-0.000497449	-8.42147	22.6678	22.4234	3.31978	0.0436583	0.00646748	0.0441347	8.42644	1.03032e+07	6.9551e+07	7.031e+07	-81.5736	0.0000000E+000	0.0000000E+000	0.0000000E+000	81.5736	0.0000000E+000	0.0000000E+000	0.0000000E+000	-81.5736	0.0000000E+000	0.0000000E+000	0.0000000E+000	-8.42644	0.0000000E+000	0.0000000E+000	0.0000000E+000	8.42644	6.75043	81.5736	-4.04106e-05	-8.19194e-07	-7.96321e-10	-8.18398e-07	0.255413	79789.5	77.5616	79711.9
0.0680626	22.9307	4.23274	23.3181	-10.4584	110.006	0.25566	-0.0021948	552446	18203.2	1	12	0.00467051	0.000200295	0	-0.000196151	0.00040125	1.44277e-06	5.66723	0.00720322	0.00716801	-0.000711322	-10.4535	23.325	22.9379	4.23203	0.0421727	0.0077846	0.0428852	10.4584	1.82032e+07	9.8615e+07	1.00281e+08	-79.5416	0.0000000E+000	0.0000000E+000	0.0000000E+000	79.5416	0.0000000E+000	0.0000000E+000	0.0000000E+000	-79.5416	0.0000000E+000	0.0000000E+000	0.0000000E+000	-10.4584	0.0000000E+000	0.0000000E+000	0.0000000E+000	10.4584	5.41746	79.5416	-8.3353e-05	-5.61124e-07	-8.80666e-10	-5.60244e-07	0.255259	116484	182.818	116302
0.0464052	23.6175	5.28241	24.201	-12.6076	155.357	0.255663	-0.00262076	649264	30932.8	1	12	0.00466959	0.00019295	0	-0.000348011	0.000114888	8.35392e-07	-28.1515	0.00432957	0.0038174	0.00204271	-12.6103	24.2052	23.6213	5.28446	0.0403243	0.00901915	0.0413206	12.6076	3.09328e+07	1.38299e+08	1.41716e+08	-77.3924	0.0000000E+000	0.0000000E+000	0.0000000E+000	77.3924	0.0000000E+000	0.0000000E+000	0.0000000E+000	-77.3924	0.0000000E+000	0.0000000E+000	0.0000000E+000	-12.6076	0.0000000E+000	0.0000000E+000	0.0000000E+000	12.6076	4.47096	77.3924	-0.00015186	-6.70031e-07	-3.01093e-10	-6.6973e-07	0.255548	97552.8	43.8375	97508.9
0.0315922	24.6279	6.83691	25.5592	-15.5151	221.963	0.25566	-0.00314093	736852	52723.5	1	12	0.00466888	0.000182669	0	-0.000527715	0.000248523	1.90218e-06	-27.548	0.0104133	0.00923268	0.00481606	-15.52	25.5694	24.6371	6.84173	0.0376991	0.0104656	0.0391248	15.5151	5.27235e+07	1.8992e+08	1.97103e+08	-74.4849	0.0000000E+000	0.0000000E+000	0.0000000E+000	74.4849	0.0000000E+000	0.0000000E+000	0.0000000E+000	-74.4849	0.0000000E+000	0.0000000E+000	0.0000000E+000	-15.5151	0.0000000E+000	0.0000000E+000	0.0000000E+000	15.5151	3.60219	74.4849	-0.000179704	-8.03009e-07	-7.80594e-10	-8.02228e-07	0.255411	81396.3	79.1243	81317.2
0.0215268	25.7996	9.11954	27.3639	-19.4673	319.7	0.255657	-0.00318499	810714	90044.4	1	12	0.00467008	0.000170665	0	-0.000639598	0.000153069	2.0134e-06	-7.34929	0.0117974	0.0117004	0.00150909	-19.4621	27.3755	25.8113	9.12105	0.0344553	0.0121791	0.0365444	19.4673	9.00444e+07	2.5474e+08	2.70186e+08	-70.5327	0.0000000E+000	0.0000000E+000	0.0000000E+000	70.5327	0.0000000E+000	0.0000000E+000	0.0000000E+000	-70.5327	0.0000000E+000	0.0000000E+000	0.0000000E+000	-19.4673	0.0000000E+000	0.0000000E+000	0.0000000E+000	19.4673	2.82905	70.5327	-0.000111884	-8.14264e-07	-4.87523e-10	-8.13776e-07	0.255504	80269.4	48.0596	80221.3
0.0146812	27.0182	11.9834	29.5565	-23.9187	463.003	0.255655	-0.00288059	904648	148708	1	12	0.0046691	0.000157972	0	-0.000567447	-0.000133293	1.90095e-06	3.03395	0.0120335	0.0120166	-0.000636903	-23.9082	29.5672	27.0302	11.9828	0.0309279	0.0137175	0.0338335	23.9187	1.48708e+08	3.35282e+08	3.66781e+08	-66.0813	0.0000000E+000	0.0000000E+000	0.0000000E+000	66.0813	0.0000000E+000	0.0000000E+000	0.0000000E+000	-66.0813	0.0000000E+000	0.0000000E+000	0.0000000E+000	-23.9187	0.0000000E+000	0.0000000E+000	0.0000000E+000	23.9187	2.25464	66.0813	7.21516e-05	-7.36437e-07	3.83963e-10	-7.36821e-07	0.255788	88751.1	46.273	88797.4
0.0100092	28.8132	15.5	32.7178	-28.2778	673.185	0.255652	-0.00229402	1.02587e+06	230242	1	12	0.00466985	0.000142731	0	-0.000287323	0.000286705	1.92783e-06	-25.0097	0.0135068	0.0122403	0.00571027	-28.2765	32.7312	28.8255	15.5057	0.0269169	0.0144798	0.0305644	28.2778	2.30242e+08	4.28003e+08	4.86002e+08	-61.7222	0.0000000E+000	0.0000000E+000	0.0000000E+000	61.7222	0.0000000E+000	0.0000000E+000	0.0000000E+000	-61.7222	0.0000000E+000	0.0000000E+000	0.0000000E+000	-28.2778	0.0000000E+000	0.0000000E+000	0.0000000E+000	28.2778	1.85892	61.7222	0.000280124	-5.8647e-07	-6.57706e-10	-5.85812e-07	0.255365	111443	124.98	111318