File: txt/18935_R306_UA703_SOC00_C02.mpt
EC-Lab ASCII FILE
Nb header lines : 65

Potentio Electrochemical Impedance Spectroscopy

Run on channel : 2 (SN 66139)
Grouped channel(s) : 1, 2, 3, 4, 5
User :
CE vs. WE compliance from -10 V to 10 V
Electrode connection : standard
Potential control : Ewe
Ewe ctrl range : min = -10.00 V, max = 10.00 V
Safety Limits :
	Do not start on E overload
Acquisition started on : 11/04/2025 15:05:27.163
Loaded Setting File :  C:\Users\Celltest\OneDrive - store-dot.com\Documents\EC-Lab\Data\@Biologic Test Protocols\anode half cell EIS SOC00.mps
Saved on :
	File : 18934_R306_UA703_SOC00_C02.mpr
	Directory : C:\Users\Celltest\OneDrive - store-dot.com\Documents\EC-Lab\Data\Charmaine\
	Host : 169.254.61.224
Device : VMP-3e (SN .003165)
Address : USB
EC-LAB for windows v11.62 (software)
Internet server v27.00 (firmware)
Command interpretor v12.03 (firmware)
Electrode material :
Initial state :
Electrolyte :
Comments :
Electrode surface area : 0.001 cm²
Characteristic mass : 0.001 g
Equivalent Weight : 0.000 g/eq.
Density : 0.000 g/cm3
Volume (V) : 0.001 cm³
Record Ece
Cycle Definition : Charge/Discharge alternance
Mode                Single sine
E (V)               0.0000
vs.                 Eoc
tE (h:m:s)          0:00:0.0000
record              0
dI                  0.000
unit dI             mA
dt (s)              0.000
fi                  100.000
unit fi             kHz
ff                  10.000
unit ff             mHz
Nd                  6
Points              per decade
spacing             Logarithmic
Va (mV)             5.0
pw                  0.10
Na                  2
corr                0
E range min (V)     -10.000
E range max (V)     10.000
I Range             Auto
Bandwidth           5
nc cycles           0
goto Ns'            0
nr cycles           0
inc. cycle          0

freq/Hz	Re(Z)/Ohm	-Im(Z)/Ohm	|Z|/Ohm	Phase(Z)/deg	time/s	<Ewe>/V	<I>/mA	Cs/µF	Cp/µF	cycle number	I Range	|Ewe|/V	|I|/A	Ns	(Q-Qo)/mA.h	<Ece>/V	|Ece|/V	Phase(Zce)/deg	|Zce|/Ohm	Re(Zce)/Ohm	-Im(Zce)/Ohm	Phase(Zwe-ce)/deg	|Zwe-ce|/Ohm	Re(Zwe-ce)/Ohm	-Im(Zwe-ce)/Ohm	Re(Y)/Ohm-1	Im(Y)/Ohm-1	|Y|/Ohm-1	Phase(Y)/deg	Re(C)/nF	Im(C)/nF	|C|/nF	Phase(C)/deg	Re(M)	Im(M)	|M|	Phase(M)/deg	Re(Permittivity)	Im(Permittivity)	|Permittivity|	Phase(Permittivity)/deg	Re(Resistivity)/Ohm.cm	Im(Resistivity)/Ohm.cm	|Resistivity|/Ohm.cm	Phase(Resistivity)/deg	Re(Conductivity)/mS/cm	Im(Conductivity)/mS/cm	|Conductivity|/mS/cm	Phase(Conductivity)/deg	Tan(Delta)	Loss Angle(Delta)/deg	dq/mA.h	Pwe/W	Pce/W	Pwe-ce/W	<Ewe-Ece>/V	Rwe/Ohm	Rce/Ohm	Rwe-ce/Ohm		Ewe-Ece/V
100004	1.62363	0.617426	1.73706	-20.8206	1.86853	0.246514	0.0153849	2.57762	0.325655	1	9	0.00495847	0.00285451	0	-7.70083e-06	-0.000109239	2.5057e-05	52.585	0.00877802	0.00533338	-0.006972	-20.5435	1.73959	1.62896	0.610454	0.538091	0.204623	0.575685	20.8206	325.655	856.367	916.196	-69.1794	0.0000000E+000	0.0000000E+000	0.0000000E+000	69.1794	0.0000000E+000	0.0000000E+000	0.0000000E+000	-69.1794	0.0000000E+000	0.0000000E+000	0.0000000E+000	-20.8206	0.0000000E+000	0.0000000E+000	0.0000000E+000	20.8206	2.62967	69.1794	-7.70083e-06	3.79258e-06	-1.68063e-09	3.79426e-06	0.246623	16023.2	7.10042	16030.3
68132	1.78548	0.727927	1.92817	-22.1803	2.25153	0.246521	0.0153476	3.20908	0.45737	1	9	0.00545021	0.00282663	0	-9.74937e-06	0.000291669	1.97254e-05	40.5577	0.00697844	0.00530188	-0.00453747	-21.9963	1.93137	1.79079	0.723389	0.480249	0.195794	0.518627	22.1803	457.37	1121.85	1211.5	-67.8197	0.0000000E+000	0.0000000E+000	0.0000000E+000	67.8197	0.0000000E+000	0.0000000E+000	0.0000000E+000	-67.8197	0.0000000E+000	0.0000000E+000	0.0000000E+000	-22.1803	0.0000000E+000	0.0000000E+000	0.0000000E+000	22.1803	2.45283	67.8197	-2.04853e-06	3.78351e-06	4.47642e-09	3.77903e-06	0.246229	16062.5	19.0042	16043.5
46420.4	1.98973	0.829186	2.15559	-22.6231	2.63455	0.246503	0.0151241	4.13485	0.611832	1	9	0.00546442	0.002535	0	-1.16554e-05	0.000234396	1.4833e-05	-15.8376	0.00585127	0.00562915	0.00159688	-22.6048	2.1614	1.99535	0.830783	0.428215	0.178452	0.463911	22.6231	611.832	1468.16	1590.55	-67.3769	0.0000000E+000	0.0000000E+000	0.0000000E+000	67.3769	0.0000000E+000	0.0000000E+000	0.0000000E+000	-67.3769	0.0000000E+000	0.0000000E+000	0.0000000E+000	-22.6231	0.0000000E+000	0.0000000E+000	0.0000000E+000	22.6231	2.39961	67.3769	-1.906e-06	3.72815e-06	3.54504e-09	3.7246e-06	0.246269	16298.7	15.4982	16283.2
31621.1	2.20702	0.923764	2.39255	-22.7121	3.01753	0.246514	0.0170237	5.44856	0.812237	1	9	0.00542286	0.00226657	0	-1.38397e-05	0.000291669	1.07916e-05	-7.17827	0.00476121	0.00472389	0.000594946	-22.6816	2.39713	2.21174	0.924359	0.385554	0.161376	0.417965	22.7121	812.237	1940.57	2103.69	-67.2879	0.0000000E+000	0.0000000E+000	0.0000000E+000	67.2879	0.0000000E+000	0.0000000E+000	0.0000000E+000	-67.2879	0.0000000E+000	0.0000000E+000	0.0000000E+000	-22.7121	0.0000000E+000	0.0000000E+000	0.0000000E+000	22.7121	2.38916	67.2879	-2.18435e-06	4.19657e-06	4.96527e-09	4.19161e-06	0.246223	14480.7	17.1331	14463.5
21544.7	2.43111	1.01028	2.63267	-22.5661	3.40051	0.246498	0.0148261	7.31201	1.07679	1	9	0.00537589	0.00204199	0	-1.92555e-05	0.000177124	6.17441e-06	-59.5608	0.00302372	0.00153189	0.00260696	-22.6056	2.63509	2.43264	1.01289	0.350761	0.145764	0.379843	22.5661	1076.79	2591.14	2805.97	-67.4339	0.0000000E+000	0.0000000E+000	0.0000000E+000	67.4339	0.0000000E+000	0.0000000E+000	0.0000000E+000	-67.4339	0.0000000E+000	0.0000000E+000	0.0000000E+000	-22.5661	0.0000000E+000	0.0000000E+000	0.0000000E+000	22.5661	2.40636	67.4339	-5.41579e-06	3.65462e-06	2.62606e-09	3.65199e-06	0.246321	16625.9	11.9467	16614
14678.6	2.67489	1.09698	2.89109	-22.2987	3.78355	0.246504	0.0166139	9.88409	1.42302	1	9	0.0052746	0.00182443	0	-2.18022e-05	0.00010076	3.06317e-06	-120.309	0.00167897	-0.000847321	0.00144948	-22.3316	2.89086	2.67405	1.09843	0.320024	0.131243	0.34589	22.2987	1423.02	3469.91	3750.36	-67.7013	0.0000000E+000	0.0000000E+000	0.0000000E+000	67.7013	0.0000000E+000	0.0000000E+000	0.0000000E+000	-67.7013	0.0000000E+000	0.0000000E+000	0.0000000E+000	-22.2987	0.0000000E+000	0.0000000E+000	0.0000000E+000	22.2987	2.43841	67.7013	-2.54675e-06	4.09541e-06	1.67403e-09	4.09373e-06	0.246404	14837.2	6.06481	14831.1
10002.2	2.93145	1.20305	3.16872	-22.313	4.16654	0.246492	0.00815912	13.2263	1.90652	1	9	0.0052092	0.00164395	0	-2.13488e-05	0.000196215	2.4956e-06	104.239	0.00151805	-0.000373388	-0.00147142	-22.2909	3.16781	2.93108	1.20158	0.291955	0.119817	0.315585	22.313	1906.52	4645.58	5021.58	-67.687	0.0000000E+000	0.0000000E+000	0.0000000E+000	67.687	0.0000000E+000	0.0000000E+000	0.0000000E+000	-67.687	0.0000000E+000	0.0000000E+000	0.0000000E+000	-22.313	0.0000000E+000	0.0000000E+000	0.0000000E+000	22.313	2.43668	67.687	4.53428e-07	2.01116e-06	1.60094e-09	2.00956e-06	0.246296	30210.6	24.0485	30186.6
6810.42	3.21928	1.33448	3.48491	-22.5153	4.54955	0.246492	0.00346613	17.512	2.56788	1	9	0.0051204	0.00146931	0	-2.3363e-05	6.25787e-05	1.9887e-05	118.007	0.013535	-0.00635571	-0.0119499	-22.3734	3.47447	3.21292	1.32253	0.26508	0.109883	0.286952	22.5153	2567.88	6194.73	6705.87	-67.4847	0.0000000E+000	0.0000000E+000	0.0000000E+000	67.4847	0.0000000E+000	0.0000000E+000	0.0000000E+000	-67.4847	0.0000000E+000	0.0000000E+000	0.0000000E+000	-22.5153	0.0000000E+000	0.0000000E+000	0.0000000E+000	22.5153	2.41239	67.4847	-2.01422e-06	8.54374e-07	2.16906e-10	8.54157e-07	0.246429	71114.5	18.0543	71096.4
4646	3.51088	1.49413	3.81559	-23.0532	4.8156	0.246481	0.00719072	22.9272	3.51566	1	9	0.0052362	0.00137232	0	-2.35109e-05	6.25787e-05	1.41183e-05	10.6505	0.0102879	0.0101107	-0.0019014	-22.9677	3.82415	3.52099	1.49223	0.241153	0.102628	0.262083	23.0532	3515.66	8261.02	8977.99	-66.9468	0.0000000E+000	0.0000000E+000	0.0000000E+000	66.9468	0.0000000E+000	0.0000000E+000	0.0000000E+000	-66.9468	0.0000000E+000	0.0000000E+000	0.0000000E+000	-23.0532	0.0000000E+000	0.0000000E+000	0.0000000E+000	23.0532	2.34978	66.9468	-1.47842e-07	1.77238e-06	4.49986e-10	1.77193e-06	0.246418	34277.6	8.7027	34268.9
3163.08	3.84825	1.65993	4.19099	-23.3327	5.39761	0.246451	-0.0133286	30.3125	4.75516	1	10	0.00525893	0.00125482	0	-2.57103e-05	2.4397e-05	1.2964e-05	20.3399	0.0103314	0.0096872	-0.00359107	-23.2354	4.19847	3.85794	1.65633	0.219094	0.094505	0.238607	23.3327	4755.16	11024	12005.9	-66.6673	0.0000000E+000	0.0000000E+000	0.0000000E+000	66.6673	0.0000000E+000	0.0000000E+000	0.0000000E+000	-66.6673	0.0000000E+000	0.0000000E+000	0.0000000E+000	-23.3327	0.0000000E+000	0.0000000E+000	0.0000000E+000	23.3327	2.31833	66.6673	-2.19938e-06	-3.28485e-06	-3.25177e-10	-3.28452e-06	0.246427	18490.5	1.83043	18488.6
2155.69	4.22783	1.87697	4.62575	-23.9391	5.84983	0.246459	-0.0112462	39.3348	6.47628	1	10	0.00521132	0.00112659	0	-2.69696e-05	0.000158033	8.07871e-06	-39.0218	0.00717095	0.00557116	0.00451494	-23.9621	4.63268	4.23341	1.88148	0.197585	0.0877186	0.216181	23.9391	6476.28	14587.7	15960.7	-66.0609	0.0000000E+000	0.0000000E+000	0.0000000E+000	66.0609	0.0000000E+000	0.0000000E+000	0.0000000E+000	-66.0609	0.0000000E+000	0.0000000E+000	0.0000000E+000	-23.9391	0.0000000E+000	0.0000000E+000	0.0000000E+000	23.9391	2.25248	66.0609	-1.25934e-06	-2.77173e-06	-1.77727e-09	-2.76995e-06	0.246301	21915	14.0521	21900.9
1468.59	4.64583	2.1382	5.11426	-24.7138	6.30006	0.246453	-0.011343	50.6841	8.85935	1	10	0.00513101	0.00100327	0	-2.91524e-05	-7.10572e-05	9.58752e-06	31.3268	0.00955622	0.00816308	-0.00496846	-24.6251	5.11961	4.654	2.13323	0.177622	0.0817489	0.195532	24.7138	8859.35	19249.4	21190.3	-65.2862	0.0000000E+000	0.0000000E+000	0.0000000E+000	65.2862	0.0000000E+000	0.0000000E+000	0.0000000E+000	-65.2862	0.0000000E+000	0.0000000E+000	0.0000000E+000	-24.7138	0.0000000E+000	0.0000000E+000	0.0000000E+000	24.7138	2.17278	65.2862	-2.18284e-06	-2.79553e-06	8.06005e-10	-2.79633e-06	0.246524	21727.3	6.26439	21733.5
1000.32	5.11827	2.43606	5.66843	-25.4523	6.75077	0.246459	-0.011466	65.3119	12.0627	1	10	0.00505777	0.00089227	0	-3.04994e-05	-9.01481e-05	6.39466e-06	-132.422	0.00716673	-0.00483455	0.00529048	-25.5216	5.66634	5.11344	2.44135	0.159293	0.0758163	0.176416	25.4523	12062.7	25344.2	28068.4	-64.5477	0.0000000E+000	0.0000000E+000	0.0000000E+000	64.5477	0.0000000E+000	0.0000000E+000	0.0000000E+000	-64.5477	0.0000000E+000	0.0000000E+000	0.0000000E+000	-25.4523	0.0000000E+000	0.0000000E+000	0.0000000E+000	25.4523	2.10104	64.5477	-1.34694e-06	-2.82589e-06	1.03364e-09	-2.82693e-06	0.246549	21494.8	7.86223	21502.7
681.09	5.63872	2.83562	6.31157	-26.6971	7.20053	0.24646	-0.0118124	82.4078	16.6337	1	10	0.0050053	0.000793036	0	-3.25242e-05	-7.10572e-05	4.57959e-06	-88.2252	0.00577475	0.000178849	0.00577198	-26.7431	6.31432	5.6389	2.84139	0.141549	0.0711825	0.158439	26.6971	16633.7	33076.7	37023.6	-63.3029	0.0000000E+000	0.0000000E+000	0.0000000E+000	63.3029	0.0000000E+000	0.0000000E+000	0.0000000E+000	-63.3029	0.0000000E+000	0.0000000E+000	0.0000000E+000	-26.6971	0.0000000E+000	0.0000000E+000	0.0000000E+000	26.6971	1.98853	63.3029	-2.02481e-06	-2.91129e-06	8.39358e-10	-2.91213e-06	0.246531	20864.4	6.01547	20870.5
463.961	6.24916	3.35434	7.0925	-28.2254	7.65233	0.246462	-0.010937	102.266	22.8742	1	10	0.00496812	0.000700475	0	-3.39608e-05	0.000138942	8.72144e-06	127.723	0.0124507	-0.00761797	-0.00984822	-28.1843	7.08114	6.24154	3.34449	0.124229	0.0666819	0.140994	28.2254	22874.2	42614.9	48365.9	-61.7746	0.0000000E+000	0.0000000E+000	0.0000000E+000	61.7746	0.0000000E+000	0.0000000E+000	0.0000000E+000	-61.7746	0.0000000E+000	0.0000000E+000	0.0000000E+000	-28.2254	0.0000000E+000	0.0000000E+000	0.0000000E+000	28.2254	1.86301	61.7746	-1.4366e-06	-2.69555e-06	-1.51961e-09	-2.69403e-06	0.246323	22534.7	12.7039	22522
316.316	7.033	3.96761	8.07497	-29.4291	8.10002	0.246459	-0.0120844	126.815	30.6159	1	10	0.00495727	0.000613906	0	-3.52209e-05	0.000138942	3.93363e-06	-65.0927	0.00640754	0.00269854	0.00581158	-29.4556	8.08017	7.0357	3.97342	0.10786	0.0608482	0.12384	29.4291	30615.9	54269.9	62310.1	-60.5709	0.0000000E+000	0.0000000E+000	0.0000000E+000	60.5709	0.0000000E+000	0.0000000E+000	0.0000000E+000	-60.5709	0.0000000E+000	0.0000000E+000	0.0000000E+000	-29.4291	0.0000000E+000	0.0000000E+000	0.0000000E+000	29.4291	1.77261	60.5709	-1.26012e-06	-2.9783e-06	-1.67903e-09	-2.97662e-06	0.24632	20394.8	11.4977	20383.4
215.345	8.01192	4.70466	9.2911	-30.4218	8.54957	0.246451	-0.0125873	157.094	40.2791	1	10	0.00493451	0.000531101	0	-3.60897e-05	-0.000223784	6.87398e-06	-55.5563	0.0129429	0.00732046	0.0106738	-30.4556	9.30282	8.01924	4.71533	0.0928115	0.0544996	0.10763	30.4218	40279.1	68594.3	79546.1	-59.5782	0.0000000E+000	0.0000000E+000	0.0000000E+000	59.5782	0.0000000E+000	0.0000000E+000	0.0000000E+000	-59.5782	0.0000000E+000	0.0000000E+000	0.0000000E+000	-30.4218	0.0000000E+000	0.0000000E+000	0.0000000E+000	30.4218	1.70298	59.5782	-8.68762e-07	-3.10214e-06	2.81683e-09	-3.10496e-06	0.246675	19579.4	17.7786	19597.1
146.737	9.30371	5.494	10.8048	-30.5626	8.99553	0.246458	-0.0124047	197.42	51.0431	1	10	0.00493158	0.000456427	0	-3.68467e-05	0.000138942	9.93875e-06	-34.1014	0.0217751	0.0180308	0.0122084	-30.5697	10.8265	9.32174	5.50621	0.0796939	0.0470606	0.0925517	30.5626	51043.1	86438	100384	-59.4374	0.0000000E+000	0.0000000E+000	0.0000000E+000	59.4374	0.0000000E+000	0.0000000E+000	0.0000000E+000	-59.4374	0.0000000E+000	0.0000000E+000	0.0000000E+000	-30.5626	0.0000000E+000	0.0000000E+000	0.0000000E+000	30.5626	1.69343	59.4374	-7.5698e-07	-3.05724e-06	-1.72354e-09	-3.05552e-06	0.246319	19868	11.2007	19856.8
100.032	10.8971	6.22534	12.55	-29.7387	9.44686	0.246456	-0.0110748	255.575	62.8868	1	10	0.00491775	0.000391854	0	-3.86693e-05	8.16695e-05	6.10853e-06	1.73193	0.0155888	0.0155817	-0.000471143	-29.7015	12.5633	10.9127	6.22487	0.0691873	0.0395256	0.0796816	29.7387	62886.8	110080	126777	-60.2613	0.0000000E+000	0.0000000E+000	0.0000000E+000	60.2613	0.0000000E+000	0.0000000E+000	0.0000000E+000	-60.2613	0.0000000E+000	0.0000000E+000	0.0000000E+000	-29.7387	0.0000000E+000	0.0000000E+000	0.0000000E+000	29.7387	1.75044	60.2613	-1.82268e-06	-2.72946e-06	-9.04477e-10	-2.72855e-06	0.246374	22253.6	7.37433	22246.3
68.104	12.7664	6.79054	14.4601	-28.0088	9.9095	0.246457	-0.0106539	344.146	75.8947	1	10	0.00491135	0.000339649	0	-4.02421e-05	0.000119851	3.27717e-06	-6.64686	0.00964869	0.00958384	0.00111683	-27.9948	14.469	12.776	6.79166	0.0610562	0.0324761	0.069156	28.0088	75894.7	142685	161613	-61.9912	0.0000000E+000	0.0000000E+000	0.0000000E+000	61.9912	0.0000000E+000	0.0000000E+000	0.0000000E+000	-61.9912	0.0000000E+000	0.0000000E+000	0.0000000E+000	-28.0088	0.0000000E+000	0.0000000E+000	0.0000000E+000	28.0088	1.88003	61.9912	-1.57279e-06	-2.62573e-06	-1.27688e-09	-2.62445e-06	0.246337	23133.1	11.2495	23121.8
46.4415	14.868	7.01167	16.4384	-25.2483	10.3456	0.24646	-0.010747	488.756	88.9233	1	10	0.00491232	0.000298832	0	-4.13597e-05	0.000291669	8.94875e-06	-140.965	0.0299458	-0.0232607	0.0188598	-25.3424	16.4254	14.8447	7.03053	0.0550216	0.0259479	0.0608331	25.2483	88923.3	188559	208475	-64.7517	0.0000000E+000	0.0000000E+000	0.0000000E+000	64.7517	0.0000000E+000	0.0000000E+000	0.0000000E+000	-64.7517	0.0000000E+000	0.0000000E+000	0.0000000E+000	-25.2483	0.0000000E+000	0.0000000E+000	0.0000000E+000	25.2483	2.12046	64.7517	-1.11755e-06	-2.64872e-06	-3.13457e-09	-2.64558e-06	0.246169	22932.9	27.1395	22905.8
31.6296	16.9522	6.91815	18.3095	-22.2003	11.0105	0.246473	-0.00654762	727.339	103.84	1	11	0.00491556	0.00026847	0	-4.2639e-05	8.16695e-05	1.11513e-05	39.3907	0.0415363	0.0321007	-0.0263591	-22.0861	18.3293	16.9843	6.89179	0.0505677	0.0206366	0.0546165	22.2003	103840	254449	274822	-67.7997	0.0000000E+000	0.0000000E+000	0.0000000E+000	67.7997	0.0000000E+000	0.0000000E+000	0.0000000E+000	-67.7997	0.0000000E+000	0.0000000E+000	0.0000000E+000	-22.2003	0.0000000E+000	0.0000000E+000	0.0000000E+000	22.2003	2.45039	67.7997	-1.27937e-06	-1.61381e-06	-5.34741e-10	-1.61328e-06	0.246391	37643.1	12.4732	37630.7
21.5517	18.8651	6.48782	19.9495	-18.9784	11.4315	0.246471	-0.00664978	1138.25	120.385	1	11	0.0049124	0.000246241	0	-4.3211e-05	0.000177124	1.10999e-06	-28.69	0.00450773	0.00395431	0.00216403	-18.9806	19.954	18.869	6.48998	0.0474017	0.0163017	0.0501265	18.9784	120385	350052	370174	-71.0216	0.0000000E+000	0.0000000E+000	0.0000000E+000	71.0216	0.0000000E+000	0.0000000E+000	0.0000000E+000	-71.0216	0.0000000E+000	0.0000000E+000	0.0000000E+000	-18.9784	0.0000000E+000	0.0000000E+000	0.0000000E+000	18.9784	2.90777	71.0216	-5.71971e-07	-1.63898e-06	-1.17783e-09	-1.6378e-06	0.246294	37064.5	26.636	37037.9
14.6852	20.5137	5.90248	21.346	-16.0523	11.8912	0.246474	-0.00601892	1836.14	140.392	1	11	0.00490996	0.000230018	0	-4.28837e-05	0.000138942	3.86845e-06	85.3627	0.0168181	0.00135971	-0.016763	-16.008	21.3427	20.5151	5.88572	0.0450205	0.0129539	0.0468471	16.0523	140392	487924	507720	-73.9477	0.0000000E+000	0.0000000E+000	0.0000000E+000	73.9477	0.0000000E+000	0.0000000E+000	0.0000000E+000	-73.9477	0.0000000E+000	0.0000000E+000	0.0000000E+000	-16.0523	0.0000000E+000	0.0000000E+000	0.0000000E+000	16.0523	3.47544	73.9477	3.27339e-07	-1.4835e-06	-8.36281e-10	-1.48267e-06	0.246335	40949.8	23.0842	40926.7
10.0032	21.9361	5.30877	22.5693	-13.6046	12.3418	0.246469	-0.00612518	2997	165.82	1	11	0.00491584	0.000217811	0	-4.50853e-05	-0.000147421	9.84052e-06	-55.0257	0.0451793	0.0258972	0.0370203	-13.6804	22.6032	21.962	5.34579	0.0430647	0.0104221	0.0443079	13.6046	165820	685177	704956	-76.3954	0.0000000E+000	0.0000000E+000	0.0000000E+000	76.3954	0.0000000E+000	0.0000000E+000	0.0000000E+000	-76.3954	0.0000000E+000	0.0000000E+000	0.0000000E+000	-13.6046	0.0000000E+000	0.0000000E+000	0.0000000E+000	13.6046	4.13205	76.3954	-2.20158e-06	-1.50967e-06	9.02978e-10	-1.51057e-06	0.246616	40238.7	24.068	40262.7
6.81719	23.0906	4.70262	23.5646	-11.5114	12.6815	0.246484	-0.00562817	4964.5	197.713	1	11	0.00490682	0.000208229	0	-4.36638e-05	0.000215305	8.21589e-06	-21.657	0.0394561	0.0366709	0.0145612	-11.5283	23.6034	23.1272	4.71718	0.041583	0.00846878	0.0424366	11.5114	197713	970802	990730	-78.4886	0.0000000E+000	0.0000000E+000	0.0000000E+000	78.4886	0.0000000E+000	0.0000000E+000	0.0000000E+000	-78.4886	0.0000000E+000	0.0000000E+000	0.0000000E+000	-11.5114	0.0000000E+000	0.0000000E+000	0.0000000E+000	11.5114	4.91015	78.4886	1.42144e-06	-1.38725e-06	-1.21178e-09	-1.38604e-06	0.246268	43794.6	38.255	43756.4
4.63925	24.1748	4.24695	24.545	-9.96385	13.1655	0.246476	-0.00538656	8077.84	241.837	1	11	0.00491208	0.000200125	0	-4.53279e-05	0.00032985	3.55202e-06	-75.0983	0.017749	0.00456436	0.017152	-10.0014	24.5525	24.1794	4.2641	0.040127	0.00704937	0.0407415	9.96385	241837	1.3766e+06	1.39768e+06	-80.0361	0.0000000E+000	0.0000000E+000	0.0000000E+000	80.0361	0.0000000E+000	0.0000000E+000	0.0000000E+000	-80.0361	0.0000000E+000	0.0000000E+000	0.0000000E+000	-9.96385	0.0000000E+000	0.0000000E+000	0.0000000E+000	9.96385	5.69228	80.0361	-1.66408e-06	-1.32766e-06	-1.77676e-09	-1.32588e-06	0.246146	45757.5	61.2358	45696.3
3.1604	25.0542	3.72985	25.3303	-8.46751	13.8585	0.246488	-0.00491136	13501.7	292.745	1	11	0.00491177	0.000193909	0	-4.88906e-05	0.000215305	6.63658e-06	-39.2144	0.0342252	0.0265172	0.021638	-8.50704	25.3597	25.0807	3.75148	0.0390481	0.00581314	0.0394784	8.46751	292745	1.96643e+06	1.9881e+06	-81.5325	0.0000000E+000	0.0000000E+000	0.0000000E+000	81.5325	0.0000000E+000	0.0000000E+000	0.0000000E+000	-81.5325	0.0000000E+000	0.0000000E+000	0.0000000E+000	-8.46751	0.0000000E+000	0.0000000E+000	0.0000000E+000	8.46751	6.71721	81.5325	-3.56268e-06	-1.21059e-06	-1.05744e-09	-1.20953e-06	0.246272	50187.3	43.8382	50143.4
2.15577	25.8742	3.33628	26.0884	-7.34732	14.8622	0.246486	-0.00483474	22128.7	361.897	1	11	0.00491197	0.000188282	0	-5.06896e-05	-3.28756e-05	3.00835e-06	-1.7295	0.0159779	0.0159706	0.000482227	-7.34388	26.1043	25.8902	3.33677	0.0380164	0.00490193	0.0383312	7.34732	361897	2.80666e+06	2.8299e+06	-82.6527	0.0000000E+000	0.0000000E+000	0.0000000E+000	82.6527	0.0000000E+000	0.0000000E+000	0.0000000E+000	-82.6527	0.0000000E+000	0.0000000E+000	0.0000000E+000	-7.34732	0.0000000E+000	0.0000000E+000	0.0000000E+000	7.34732	7.7554	82.6527	-1.79898e-06	-1.1917e-06	1.58945e-10	-1.19185e-06	0.246519	50982.2	6.79986	50989
1.46631	26.5275	2.99735	26.6963	-6.44651	16.3223	0.246486	-0.00489309	36212.4	456.486	1	11	0.00491093	0.000183955	0	-4.93727e-05	0.000196215	3.38303e-06	106.322	0.0183905	-0.0051684	-0.0176493	-6.4101	26.6892	26.5224	2.9797	0.0372215	0.00420565	0.0374583	6.44651	456486	4.04006e+06	4.06577e+06	-83.5535	0.0000000E+000	0.0000000E+000	0.0000000E+000	83.5535	0.0000000E+000	0.0000000E+000	0.0000000E+000	-83.5535	0.0000000E+000	0.0000000E+000	0.0000000E+000	-6.44651	0.0000000E+000	0.0000000E+000	0.0000000E+000	6.44651	8.85035	83.5535	1.31681e-06	-1.20608e-06	-9.60095e-10	-1.20512e-06	0.24629	50374.4	40.1004	50334.3
1.00006	27.1237	2.70007	27.2578	-5.68486	19.4958	0.246489	-0.004521	58941.1	578.344	1	12	0.00491658	0.000180373	0	-4.72057e-05	5.30614e-06	2.0071e-06	-58.9574	0.0111275	0.00573815	0.00953383	-5.7036	27.2644	27.1294	2.7096	0.0365064	0.00363407	0.0366868	5.68486	578344	5.8098e+06	5.83851e+06	-84.3151	0.0000000E+000	0.0000000E+000	0.0000000E+000	84.3151	0.0000000E+000	0.0000000E+000	0.0000000E+000	-84.3151	0.0000000E+000	0.0000000E+000	0.0000000E+000	-5.68486	0.0000000E+000	0.0000000E+000	0.0000000E+000	5.68486	10.0456	84.3151	2.16705e-06	-1.11438e-06	-2.3989e-11	-1.11435e-06	0.246484	54520.9	1.17366	54519.7
0.681362	27.6315	2.50275	27.7446	-5.1755	22.6079	0.246488	-0.00402308	93330.7	759.457	1	12	0.00491515	0.000177157	0	-4.73394e-05	-9.01481e-05	2.40788e-06	-45.3345	0.0135918	0.00955457	0.0096668	-5.1936	27.755	27.641	2.51242	0.0358961	0.00325133	0.0360431	5.1755	759457	8.38474e+06	8.41906e+06	-84.8245	0.0000000E+000	0.0000000E+000	0.0000000E+000	84.8245	0.0000000E+000	0.0000000E+000	0.0000000E+000	-84.8245	0.0000000E+000	0.0000000E+000	0.0000000E+000	-5.1755	0.0000000E+000	0.0000000E+000	0.0000000E+000	5.1755	11.0404	84.8245	-1.33733e-07	-9.9164e-07	3.62673e-10	-9.92003e-07	0.246578	61268.4	22.4077	61290.8
0.464091	28.0451	2.46769	28.1534	-5.02852	27.1645	0.246485	-0.0033024	138972	1067.69	1	12	0.00491368	0.000174532	0	-5.5311e-05	0.000234396	2.70551e-06	33.6565	0.0155015	0.0129031	-0.00859113	-5.00881	28.1655	28.058	2.4591	0.0353829	0.00311335	0.0355197	5.02852	1.06769e+06	1.21342e+07	1.21811e+07	-84.9715	0.0000000E+000	0.0000000E+000	0.0000000E+000	84.9715	0.0000000E+000	0.0000000E+000	0.0000000E+000	-84.9715	0.0000000E+000	0.0000000E+000	0.0000000E+000	-5.02852	0.0000000E+000	0.0000000E+000	0.0000000E+000	5.02852	11.3649	84.9715	-7.97161e-06	-8.13992e-07	-7.74071e-10	-8.13218e-07	0.24625	74638	70.9775	74567
0.316193	28.4151	2.53884	28.5283	-5.10573	33.839	0.246485	-0.00287591	198259	1570.19	1	12	0.00491251	0.000172198	0	-7.46364e-05	0.000138942	1.86152e-06	30.0591	0.0108104	0.00935648	-0.00541484	-5.09323	28.5371	28.4245	2.53343	0.0349138	0.00311949	0.0350529	5.10573	1.57019e+06	1.75738e+07	1.76438e+07	-84.8943	0.0000000E+000	0.0000000E+000	0.0000000E+000	84.8943	0.0000000E+000	0.0000000E+000	0.0000000E+000	-84.8943	0.0000000E+000	0.0000000E+000	0.0000000E+000	-5.10573	0.0000000E+000	0.0000000E+000	0.0000000E+000	5.10573	11.1921	84.8943	-1.93254e-05	-7.08868e-07	-3.99584e-10	-7.08468e-07	0.246346	85706.9	48.3124	85658.6
0.215268	28.8053	2.77278	28.9385	-5.4983	43.6324	0.246483	-0.00323571	266641	2447.96	1	12	0.00491089	0.000169701	0	-0.000105316	2.4397e-05	1.96996e-06	19.974	0.0116084	0.0109101	-0.00396535	-5.48842	28.949	28.8162	2.76881	0.0343971	0.00331103	0.0345561	5.4983	2.44796e+06	2.54309e+07	2.55485e+07	-84.5017	0.0000000E+000	0.0000000E+000	0.0000000E+000	84.5017	0.0000000E+000	0.0000000E+000	0.0000000E+000	-84.5017	0.0000000E+000	0.0000000E+000	0.0000000E+000	-5.4983	0.0000000E+000	0.0000000E+000	0.0000000E+000	5.4983	10.3886	84.5017	-3.06798e-05	-7.97547e-07	-7.89416e-11	-7.97468e-07	0.246458	76175.8	7.53992	76168.2
0.146929	29.2974	3.22643	29.4745	-6.28447	57.9708	0.246482	-0.00392171	335731	4022.92	1	12	0.00491458	0.00016674	0	-0.000141187	0.00010076	1.91558e-06	64.4411	0.0114884	0.00495656	-0.0103642	-6.2634	29.4783	29.3023	3.21606	0.0337237	0.00371389	0.0339276	6.28447	4.02293e+06	3.65299e+07	3.67508e+07	-83.7155	0.0000000E+000	0.0000000E+000	0.0000000E+000	83.7155	0.0000000E+000	0.0000000E+000	0.0000000E+000	-83.7155	0.0000000E+000	0.0000000E+000	0.0000000E+000	-6.28447	0.0000000E+000	0.0000000E+000	0.0000000E+000	6.28447	9.08045	83.7155	-3.58703e-05	-9.66628e-07	-3.95152e-10	-9.66233e-07	0.246381	62850.6	25.693	62824.9
0.0999041	29.8566	4.01496	30.1253	-7.6589	79.047	0.24648	-0.00466522	396786	7047.82	1	12	0.00491102	0.00016302	0	-0.000168981	8.16695e-05	1.99185e-06	-19.0536	0.0122185	0.0115491	0.00398874	-7.66349	30.1373	29.8681	4.01894	0.0328986	0.00442403	0.0331947	7.6589	7.04782e+06	5.241e+07	5.28817e+07	-82.3411	0.0000000E+000	0.0000000E+000	0.0000000E+000	82.3411	0.0000000E+000	0.0000000E+000	0.0000000E+000	-82.3411	0.0000000E+000	0.0000000E+000	0.0000000E+000	-7.6589	0.0000000E+000	0.0000000E+000	0.0000000E+000	7.6589	7.43633	82.3411	-2.77948e-05	-1.14988e-06	-3.81006e-10	-1.1495e-06	0.246398	52833.5	17.5061	52816
0.0680626	30.4892	5.09086	30.9113	-9.47937	109.975	0.246476	-0.00494771	459325	12458.5	1	12	0.0049143	0.000158981	0	-0.000177346	-0.000223784	1.4099e-06	12.2202	0.0088684	0.00866746	-0.00187717	-9.47329	30.9196	30.4979	5.08899	0.0319088	0.0053279	0.0323506	9.47937	1.24586e+07	7.46144e+07	7.56474e+07	-80.5206	0.0000000E+000	0.0000000E+000	0.0000000E+000	80.5206	0.0000000E+000	0.0000000E+000	0.0000000E+000	-80.5206	0.0000000E+000	0.0000000E+000	0.0000000E+000	-9.47937	0.0000000E+000	0.0000000E+000	0.0000000E+000	9.47937	5.98901	80.5206	-8.36503e-06	-1.21949e-06	1.10722e-09	-1.2206e-06	0.2467	49816.2	45.2298	49861.4
0.0464052	31.2153	6.36629	31.8578	-11.5273	155.326	0.246475	-0.00421629	538725	21513.3	1	12	0.00491315	0.000154221	0	-0.000141373	5.30614e-06	2.16653e-06	22.9827	0.0140482	0.0129331	-0.00548516	-11.513	31.8694	31.2282	6.3608	0.0307563	0.00627268	0.0313894	11.5273	2.15133e+07	1.05484e+08	1.07656e+08	-78.4727	0.0000000E+000	0.0000000E+000	0.0000000E+000	78.4727	0.0000000E+000	0.0000000E+000	0.0000000E+000	-78.4727	0.0000000E+000	0.0000000E+000	0.0000000E+000	-11.5273	0.0000000E+000	0.0000000E+000	0.0000000E+000	11.5273	4.90321	78.4727	3.59733e-05	-1.03921e-06	-2.23722e-11	-1.03919e-06	0.24647	58457.8	1.25849	58456.6
0.0315922	32.3702	8.09559	33.3672	-14.0413	221.932	0.246478	-0.00339988	622288	36631.1	1	12	0.00491304	0.000147242	0	-8.18057e-05	-0.000300147	2.61168e-06	9.41209	0.0177374	0.0174986	-0.00290066	-14.0292	33.3835	32.3877	8.09269	0.0290741	0.00727126	0.0299696	14.0413	3.66311e+07	1.46469e+08	1.5098e+08	-75.9587	0.0000000E+000	0.0000000E+000	0.0000000E+000	75.9587	0.0000000E+000	0.0000000E+000	0.0000000E+000	-75.9587	0.0000000E+000	0.0000000E+000	0.0000000E+000	-14.0413	0.0000000E+000	0.0000000E+000	0.0000000E+000	14.0413	3.9985	75.9587	5.95674e-05	-8.37995e-07	1.02047e-09	-8.39016e-07	0.246778	72496	88.2817	72584.3
0.0215268	33.8727	10.6822	35.5171	-17.5033	319.669	0.246487	-0.00288852	692121	62607.2	1	12	0.00491369	0.000138347	0	-7.43728e-05	-0.000147421	1.2089e-06	-48.061	0.00873818	0.00584007	0.00649996	-17.5105	35.5247	33.8785	10.6887	0.0268518	0.00846805	0.0281554	17.5033	6.26072e+07	1.98525e+08	2.08163e+08	-72.4967	0.0000000E+000	0.0000000E+000	0.0000000E+000	72.4967	0.0000000E+000	0.0000000E+000	0.0000000E+000	-72.4967	0.0000000E+000	0.0000000E+000	0.0000000E+000	-17.5033	0.0000000E+000	0.0000000E+000	0.0000000E+000	17.5033	3.17096	72.4967	7.43286e-06	-7.11982e-07	4.25828e-10	-7.12408e-07	0.246634	85333	51.0367	85384.1
0.0146812	35.5006	14.2141	38.2405	-21.8206	462.972	0.246482	-0.0030326	762678	105373	1	12	0.0049114	0.000128435	0	-0.000258072	5.30614e-06	1.94669e-06	-27.1599	0.0151571	0.0134858	0.00691885	-21.8227	38.2556	35.5141	14.221	0.0242767	0.00972011	0.0261503	21.8206	1.05373e+08	2.63177e+08	2.83489e+08	-68.1794	0.0000000E+000	0.0000000E+000	0.0000000E+000	68.1794	0.0000000E+000	0.0000000E+000	0.0000000E+000	-68.1794	0.0000000E+000	0.0000000E+000	0.0000000E+000	-21.8206	0.0000000E+000	0.0000000E+000	0.0000000E+000	21.8206	2.49757	68.1794	-0.000183699	-7.47482e-07	-1.60914e-11	-7.47466e-07	0.246477	81277.4	1.7497	81275.6
0.0100092	37.6028	18.4915	41.9035	-26.186	673.155	0.24648	-0.00349175	859906	167453	1	12	0.00491332	0.000117253	0	-0.000749733	0.000253487	1.62829e-06	18.1088	0.0138869	0.0131991	-0.00431638	-26.1727	41.9134	37.616	18.4871	0.0214151	0.010531	0.0238644	26.186	1.67453e+08	3.40519e+08	3.79465e+08	-63.814	0.0000000E+000	0.0000000E+000	0.0000000E+000	63.814	0.0000000E+000	0.0000000E+000	0.0000000E+000	-63.814	0.0000000E+000	0.0000000E+000	0.0000000E+000	-26.186	0.0000000E+000	0.0000000E+000	0.0000000E+000	26.186	2.03352	63.814	-0.000491661	-8.60646e-07	-8.85113e-10	-8.59761e-07	0.246226	70589.3	72.596	70516.7