File: txt/18939_R308_UA704_SOC00_C06.mpt
EC-Lab ASCII FILE
Nb header lines : 66

Potentio Electrochemical Impedance Spectroscopy

Run on channel : 6 (SN 65795)
Grouped channel(s) : 6, 7, 8
User :
CE vs. WE compliance from -10 V to 10 V
Electrode connection : standard
Potential control : Ewe
Ewe ctrl range : min = -10.00 V, max = 10.00 V
Safety Limits :
	Do not start on E overload
Acquisition started on : 11/04/2025 15:06:24.562
Loaded Setting File :  C:\Users\Celltest\OneDrive - store-dot.com\Documents\EC-Lab\Data\@Biologic Test Protocols\anode half cell EIS SOC00.mps
Saved on :
	File : 18939_R308_UA704_SOC00_C06.mpr
	Directory : C:\Users\Celltest\OneDrive - store-dot.com\Documents\EC-Lab\Data\Charmaine\
	Host : 169.254.61.224
Device : VMP-3e (SN .003165)
Address : USB
EC-LAB for windows v11.62 (software)
Internet server v27.00 (firmware)
Command interpretor v12.03 (firmware)
Electrode material :
Initial state :
Electrolyte :
Comments :
Electrode surface area : 0.001 cm²
Characteristic mass : 0.001 g
Equivalent Weight : 0.000 g/eq.
Density : 0.000 g/cm3
Volume (V) : 0.001 cm³
Record Ece
Cycle Definition : Charge/Discharge alternance
Mode                Single sine
E (V)               0.0000
vs.                 Eoc
tE (h:m:s)          0:00:0.0000
record              0
dI                  0.000
unit dI             mA
dt (s)              0.000
fi                  100.000
unit fi             kHz
ff                  10.000
unit ff             mHz
Nd                  6
Points              per decade
spacing             Logarithmic
Va (mV)             5.0
pw                  0.10
Na                  2
corr                0
E range min (V)     -10.000
E range max (V)     10.000
I Range             Auto
Bandwidth           5
nc cycles           0
goto Ns'            0
nr cycles           0
inc. cycle          0

freq/Hz	Re(Z)/Ohm	-Im(Z)/Ohm	|Z|/Ohm	Phase(Z)/deg	time/s	<Ewe>/V	<I>/mA	Cs/µF	Cp/µF	cycle number	I Range	|Ewe|/V	|I|/A	Ns	(Q-Qo)/mA.h	<Ece>/V	|Ece|/V	Phase(Zce)/deg	|Zce|/Ohm	Re(Zce)/Ohm	-Im(Zce)/Ohm	Phase(Zwe-ce)/deg	|Zwe-ce|/Ohm	Re(Zwe-ce)/Ohm	-Im(Zwe-ce)/Ohm	Re(Y)/Ohm-1	Im(Y)/Ohm-1	|Y|/Ohm-1	Phase(Y)/deg	Re(C)/nF	Im(C)/nF	|C|/nF	Phase(C)/deg	Re(M)	Im(M)	|M|	Phase(M)/deg	Re(Permittivity)	Im(Permittivity)	|Permittivity|	Phase(Permittivity)/deg	Re(Resistivity)/Ohm.cm	Im(Resistivity)/Ohm.cm	|Resistivity|/Ohm.cm	Phase(Resistivity)/deg	Re(Conductivity)/mS/cm	Im(Conductivity)/mS/cm	|Conductivity|/mS/cm	Phase(Conductivity)/deg	Tan(Delta)	Loss Angle(Delta)/deg	dq/mA.h	Pwe/W	Pce/W	Pwe-ce/W	<Ewe-Ece>/V	Rwe/Ohm	Rce/Ohm	Rwe-ce/Ohm		Ewe-Ece/V
100004	1.75192	0.648116	1.86796	-20.3017	1.72554	0.228466	-0.00384358	2.45557	0.295611	1	9	0.00455118	0.00243644	0	-2.25752e-06	-4.17831e-06	4.24689e-05	96.4997	0.0174307	-0.00197311	-0.0173187	-19.8225	1.86017	1.74995	0.630797	0.502086	0.185745	0.535343	20.3017	295.611	799.066	851.993	-69.6983	0.0000000E+000	0.0000000E+000	0.0000000E+000	69.6983	0.0000000E+000	0.0000000E+000	0.0000000E+000	-69.6983	0.0000000E+000	0.0000000E+000	0.0000000E+000	-20.3017	0.0000000E+000	0.0000000E+000	0.0000000E+000	20.3017	2.7031	69.6983	-2.25752e-06	-8.78126e-07	1.60597e-11	-8.78142e-07	0.22847	59440.8	1.08709	59441.9
68132	1.94258	0.751413	2.08284	-21.1471	2.23456	0.228479	0.00289866	3.10878	0.404609	1	9	0.0050695	0.00243394	0	1.16797e-05	-4.17831e-06	3.16996e-05	89.3916	0.013024	0.000138304	-0.0130232	-20.8109	2.07831	1.94271	0.738389	0.447781	0.173207	0.480114	21.1471	404.609	1046.01	1121.53	-68.8529	0.0000000E+000	0.0000000E+000	0.0000000E+000	68.8529	0.0000000E+000	0.0000000E+000	0.0000000E+000	-68.8529	0.0000000E+000	0.0000000E+000	0.0000000E+000	-21.1471	0.0000000E+000	0.0000000E+000	0.0000000E+000	21.1471	2.58523	68.8529	1.39373e-05	6.62283e-07	-1.21115e-11	6.62295e-07	0.228483	78822.1	1.44146	78823.5
46420.4	2.16627	0.846427	2.32576	-21.3421	2.74355	0.22846	0.00666089	4.05062	0.536503	1	9	0.00505062	0.0021716	0	1.7858e-05	1.49197e-05	1.82446e-05	57.4178	0.00840144	0.00452425	-0.00707922	-21.1393	2.32741	2.17079	0.839348	0.400482	0.156481	0.429967	21.3421	536.503	1373.08	1474.17	-68.6579	0.0000000E+000	0.0000000E+000	0.0000000E+000	68.6579	0.0000000E+000	0.0000000E+000	0.0000000E+000	-68.6579	0.0000000E+000	0.0000000E+000	0.0000000E+000	-21.3421	0.0000000E+000	0.0000000E+000	0.0000000E+000	21.3421	2.55931	68.6579	6.17827e-06	1.52175e-06	9.93787e-11	1.52165e-06	0.228445	34298.7	2.2399	34296.4
31621.1	2.39554	0.919082	2.5658	-20.99	3.24951	0.22849	0.0178359	5.47631	0.702672	1	9	0.00507979	0.00197981	0	1.75757e-05	0.000263194	1.68621e-05	43.5676	0.00851704	0.00617112	-0.00587003	-20.8185	2.56947	2.40171	0.913212	0.36388	0.139608	0.389742	20.99	702.671	1831.47	1961.64	-69.01	0.0000000E+000	0.0000000E+000	0.0000000E+000	69.01	0.0000000E+000	0.0000000E+000	0.0000000E+000	-69.01	0.0000000E+000	0.0000000E+000	0.0000000E+000	-20.99	0.0000000E+000	0.0000000E+000	0.0000000E+000	20.99	2.60645	69.01	-2.82337e-07	4.07532e-06	4.6943e-09	4.07062e-06	0.228227	12810.7	14.7564	12795.9
21544.7	2.63879	0.975212	2.81323	-20.2827	3.63455	0.228487	0.00956638	7.57497	0.910269	1	9	0.00496468	0.00176477	0	1.96903e-05	0.000339586	1.16853e-05	-52.6279	0.00662144	0.00401914	0.00526213	-20.3547	2.81882	2.64281	0.980475	0.333423	0.123222	0.355464	20.2827	910.269	2463.06	2625.88	-69.7173	0.0000000E+000	0.0000000E+000	0.0000000E+000	69.7173	0.0000000E+000	0.0000000E+000	0.0000000E+000	-69.7173	0.0000000E+000	0.0000000E+000	0.0000000E+000	-20.2827	0.0000000E+000	0.0000000E+000	0.0000000E+000	20.2827	2.70586	69.7173	2.11462e-06	2.1858e-06	3.24861e-09	2.18255e-06	0.228148	23884.4	35.4979	23848.9
14678.6	2.87258	1.01416	3.04635	-19.4455	4.01754	0.228483	0.0106466	10.6913	1.1849	1	9	0.00491976	0.00161497	0	1.86079e-05	0.000224998	1.4897e-05	-174.374	0.00922434	-0.00917991	0.000904347	-19.5192	3.038	2.8634	1.01507	0.309537	0.109282	0.328262	19.4455	1184.9	3356.2	3559.23	-70.5545	0.0000000E+000	0.0000000E+000	0.0000000E+000	70.5545	0.0000000E+000	0.0000000E+000	0.0000000E+000	-70.5545	0.0000000E+000	0.0000000E+000	0.0000000E+000	-19.4455	0.0000000E+000	0.0000000E+000	0.0000000E+000	19.4455	2.83247	70.5545	-1.08239e-06	2.43258e-06	2.39547e-09	2.43018e-06	0.228258	21460.6	21.1333	21439.5
10002.2	3.11688	1.07611	3.29742	-19.0474	4.27853	0.228483	0.00740588	14.7865	1.57483	1	9	0.00462939	0.00140395	0	1.92004e-05	0.000148606	3.65626e-06	-83.4401	0.00260428	0.000297517	0.00258723	-19.0882	3.29854	3.11718	1.0787	0.286663	0.0989714	0.303268	19.0474	1574.83	4561.37	4825.58	-70.9526	0.0000000E+000	0.0000000E+000	0.0000000E+000	70.9526	0.0000000E+000	0.0000000E+000	0.0000000E+000	-70.9526	0.0000000E+000	0.0000000E+000	0.0000000E+000	-19.0474	0.0000000E+000	0.0000000E+000	0.0000000E+000	19.0474	2.89643	70.9526	5.92464e-07	1.69212e-06	1.10056e-09	1.69102e-06	0.228334	30851.6	20.0659	30831.5
6810.42	3.3651	1.14331	3.55403	-18.7655	4.53752	0.228482	0.00219088	20.44	2.11529	1	9	0.00450384	0.00126725	0	1.95707e-05	-2.32763e-05	1.21529e-05	136.873	0.00958996	-0.00699911	-0.0065559	-18.7016	3.54529	3.35811	1.13676	0.266414	0.0905158	0.281371	18.7655	2115.29	6225.92	6575.45	-71.2345	0.0000000E+000	0.0000000E+000	0.0000000E+000	71.2345	0.0000000E+000	0.0000000E+000	0.0000000E+000	-71.2345	0.0000000E+000	0.0000000E+000	0.0000000E+000	-18.7655	0.0000000E+000	0.0000000E+000	0.0000000E+000	18.7655	2.94329	71.2345	3.70328e-07	5.00577e-07	-5.09958e-11	5.00628e-07	0.228505	104287	10.6242	104298
4646	3.62139	1.24369	3.829	-18.9539	4.92963	0.228419	-0.0182593	27.5441	2.90591	1	9	0.0049437	0.00129112	0	1.67281e-05	0.000282292	9.16716e-06	-33.3811	0.00710015	0.00592884	0.00390654	-18.9804	3.83587	3.62732	1.2476	0.247005	0.0848284	0.261165	18.9539	2905.91	8461.47	8946.55	-71.0461	0.0000000E+000	0.0000000E+000	0.0000000E+000	71.0461	0.0000000E+000	0.0000000E+000	0.0000000E+000	-71.0461	0.0000000E+000	0.0000000E+000	0.0000000E+000	-18.9539	0.0000000E+000	0.0000000E+000	0.0000000E+000	18.9539	2.91181	71.0461	-2.84261e-06	-4.17078e-06	-5.15447e-09	-4.16563e-06	0.228137	12509.7	15.4602	12494.2
3163.08	3.89726	1.38016	4.13443	-19.5009	5.51162	0.228399	-0.0300665	36.4568	4.06265	1	10	0.00500899	0.00121153	0	1.37453e-05	0.000435077	1.36666e-06	48.9898	0.00112804	0.000740213	-0.000851212	-19.4864	4.13485	3.898	1.37931	0.227997	0.0807419	0.241871	19.5009	4062.65	11472	12170.1	-70.4991	0.0000000E+000	0.0000000E+000	0.0000000E+000	70.4991	0.0000000E+000	0.0000000E+000	0.0000000E+000	-70.4991	0.0000000E+000	0.0000000E+000	0.0000000E+000	-19.5009	0.0000000E+000	0.0000000E+000	0.0000000E+000	19.5009	2.82377	70.4991	-2.98275e-06	-6.86718e-06	-1.30812e-08	-6.85409e-06	0.227964	7596.47	14.4705	7582
2155.69	4.20481	1.54833	4.48082	-20.2151	5.96277	0.228438	-0.0110052	47.6838	5.69354	1	10	0.00495776	0.00110644	0	1.29876e-05	-4.23744e-05	6.17313e-06	13.5219	0.00557927	0.00542462	-0.00130453	-20.1755	4.48546	4.21023	1.54702	0.209427	0.0771167	0.223174	20.2151	5693.54	15462	16476.9	-69.7849	0.0000000E+000	0.0000000E+000	0.0000000E+000	69.7849	0.0000000E+000	0.0000000E+000	0.0000000E+000	-69.7849	0.0000000E+000	0.0000000E+000	0.0000000E+000	-20.2151	0.0000000E+000	0.0000000E+000	0.0000000E+000	20.2151	2.71571	69.7849	-7.57742e-07	-2.514e-06	4.66338e-10	-2.51447e-06	0.22848	20757.3	3.8504	20761.2
1468.59	4.55659	1.73511	4.87577	-20.8464	6.41404	0.228443	-0.0111133	62.4586	7.90972	1	10	0.00491365	0.00100777	0	1.0834e-05	0.000282292	9.58848e-06	-103.658	0.00951455	-0.00224664	0.0092455	-20.9573	4.87697	4.55434	1.74436	0.19167	0.0729863	0.205096	20.8464	7909.72	20771.8	22226.8	-69.1536	0.0000000E+000	0.0000000E+000	0.0000000E+000	69.1536	0.0000000E+000	0.0000000E+000	0.0000000E+000	-69.1536	0.0000000E+000	0.0000000E+000	0.0000000E+000	-20.8464	0.0000000E+000	0.0000000E+000	0.0000000E+000	20.8464	2.62611	69.1536	-2.15357e-06	-2.53875e-06	-3.13719e-09	-2.53561e-06	0.228161	20555.9	25.4014	20530.5
1000.32	4.95851	1.98348	5.34051	-21.8021	6.86483	0.228432	-0.0116946	80.2147	11.0648	1	10	0.00488492	0.000914693	0	9.33201e-06	0.000415978	9.71402e-06	125.594	0.01062	-0.00618117	-0.0086358	-21.7406	5.33156	4.95233	1.97484	0.173855	0.0695444	0.187248	21.8021	11064.8	27661	29791.9	-68.1979	0.0000000E+000	0.0000000E+000	0.0000000E+000	68.1979	0.0000000E+000	0.0000000E+000	0.0000000E+000	-68.1979	0.0000000E+000	0.0000000E+000	0.0000000E+000	-21.8021	0.0000000E+000	0.0000000E+000	0.0000000E+000	21.8021	2.49991	68.1979	-1.50201e-06	-2.67142e-06	-4.8647e-09	-2.66655e-06	0.228016	19533.1	35.5701	19497.5
681.09	5.3977	2.28021	5.85957	-22.9012	7.31553	0.228427	-0.0126076	102.48	15.5189	1	10	0.00485691	0.000828886	0	7.47032e-06	0.000244096	3.94963e-06	43.7288	0.00476499	0.00344328	-0.00329378	-22.8584	5.86146	5.40114	2.27692	0.157209	0.0664116	0.170661	22.9012	15518.9	36736.1	39879.5	-67.0988	0.0000000E+000	0.0000000E+000	0.0000000E+000	67.0988	0.0000000E+000	0.0000000E+000	0.0000000E+000	-67.0988	0.0000000E+000	0.0000000E+000	0.0000000E+000	-22.9012	0.0000000E+000	0.0000000E+000	0.0000000E+000	22.9012	2.36719	67.0988	-1.86169e-06	-2.87991e-06	-3.07747e-09	-2.87684e-06	0.228183	18118.2	19.361	18098.8
463.961	5.94516	2.63663	6.50359	-23.9169	7.76737	0.22842	-0.0118176	130.104	21.3836	1	10	0.00484952	0.000745669	0	6.5098e-06	0.0002059	9.94261e-06	-43.071	0.0133338	0.00974045	0.00910573	-23.9553	6.51619	5.9549	2.64573	0.140558	0.0623365	0.153761	23.9169	21383.6	48216.5	52745.5	-66.0831	0.0000000E+000	0.0000000E+000	0.0000000E+000	66.0831	0.0000000E+000	0.0000000E+000	0.0000000E+000	-66.0831	0.0000000E+000	0.0000000E+000	0.0000000E+000	-23.9169	0.0000000E+000	0.0000000E+000	0.0000000E+000	23.9169	2.25483	66.0831	-9.60524e-07	-2.69938e-06	-2.43324e-09	-2.69694e-06	0.228214	19328.8	17.4232	19311.4
316.316	6.57594	3.05261	7.24992	-24.9012	8.21504	0.22843	-0.0116872	164.827	29.2216	1	10	0.00482646	0.000665725	0	4.65655e-06	0.000129508	4.6544e-06	44.301	0.00699147	0.00500366	-0.00488303	-24.8495	7.25241	6.58094	3.04773	0.12511	0.0580771	0.137932	24.9012	29221.6	62949.2	69401	-65.0988	0.0000000E+000	0.0000000E+000	0.0000000E+000	65.0988	0.0000000E+000	0.0000000E+000	0.0000000E+000	-65.0988	0.0000000E+000	0.0000000E+000	0.0000000E+000	-24.9012	0.0000000E+000	0.0000000E+000	0.0000000E+000	24.9012	2.1542	65.0988	-1.85324e-06	-2.6697e-06	-1.51358e-09	-2.66818e-06	0.2283	19545.4	11.0812	19534.3
215.345	7.4055	3.52343	8.20098	-25.4444	8.6646	0.228437	-0.00993568	209.759	38.7187	1	10	0.00482485	0.000588326	0	2.77713e-06	-2.32763e-05	3.29099e-06	-62.8243	0.00559382	0.00255481	0.00497631	-25.4681	8.20542	7.40806	3.52841	0.110109	0.0523883	0.121937	25.4444	38718.7	81378.5	90119.9	-64.5556	0.0000000E+000	0.0000000E+000	0.0000000E+000	64.5556	0.0000000E+000	0.0000000E+000	0.0000000E+000	-64.5556	0.0000000E+000	0.0000000E+000	0.0000000E+000	-25.4444	0.0000000E+000	0.0000000E+000	0.0000000E+000	25.4444	2.10179	64.5556	-1.87942e-06	-2.26968e-06	2.31266e-10	-2.26991e-06	0.22846	22991.6	2.3427	22993.9
146.737	8.43479	3.9351	9.30756	-25.0106	9.11054	0.228429	-0.0124623	275.628	49.2679	1	10	0.00481697	0.000517533	0	5.99094e-07	7.22138e-05	1.95163e-05	-83.5725	0.0377102	0.00422149	0.0374732	-25.2082	9.32728	8.43901	3.97257	0.0973649	0.0454239	0.10744	25.0106	49267.9	105604	116532	-64.9894	0.0000000E+000	0.0000000E+000	0.0000000E+000	64.9894	0.0000000E+000	0.0000000E+000	0.0000000E+000	-64.9894	0.0000000E+000	0.0000000E+000	0.0000000E+000	-25.0106	0.0000000E+000	0.0000000E+000	0.0000000E+000	25.0106	2.14347	64.9894	-2.17804e-06	-2.84674e-06	-8.9995e-10	-2.84584e-06	0.228356	18329.6	5.79459	18323.8
100.032	9.65901	4.19246	10.5296	-23.4631	9.56176	0.228429	-0.010763	379.501	60.1621	1	10	0.00481739	0.000457508	0	-1.67595e-07	-6.14724e-05	6.22619e-06	60.6444	0.0136089	0.00667149	-0.0118615	-23.3894	10.531	9.66569	4.18059	0.0871176	0.0378131	0.09497	23.4631	60162.1	138608	151101	-66.5369	0.0000000E+000	0.0000000E+000	0.0000000E+000	66.5369	0.0000000E+000	0.0000000E+000	0.0000000E+000	-66.5369	0.0000000E+000	0.0000000E+000	0.0000000E+000	-23.4631	0.0000000E+000	0.0000000E+000	0.0000000E+000	23.4631	2.3039	66.5369	-7.66689e-07	-2.45857e-06	6.61626e-10	-2.45923e-06	0.22849	21223.6	5.71147	21229.3
68.104	10.969	4.22708	11.7553	-21.075	10.0244	0.228431	-0.00881026	552.85	71.4862	1	10	0.00481302	0.000409435	0	-8.50521e-07	0.000129508	2.9518e-06	88.6457	0.00720945	0.0001704	-0.00720744	-21.0419	11.7528	10.9691	4.21987	0.079378	0.0305897	0.0850682	21.075	71486.2	185502	198799	-68.925	0.0000000E+000	0.0000000E+000	0.0000000E+000	68.925	0.0000000E+000	0.0000000E+000	0.0000000E+000	-68.925	0.0000000E+000	0.0000000E+000	0.0000000E+000	-21.075	0.0000000E+000	0.0000000E+000	0.0000000E+000	21.075	2.59493	68.925	-6.82926e-07	-2.01254e-06	-1.141e-09	-2.0114e-06	0.228302	25927.9	14.6997	25913.2
46.4415	12.2406	3.98744	12.8737	-18.0433	10.4607	0.228414	-0.0148026	859.447	82.4524	1	10	0.00481728	0.000374196	0	-2.74371e-06	5.31158e-05	1.03005e-05	106.316	0.027527	-0.00773308	-0.0264184	-17.9421	12.8582	12.2328	3.96102	0.0738579	0.0240597	0.0776779	18.0433	82452.4	253111	266202	-71.9567	0.0000000E+000	0.0000000E+000	0.0000000E+000	71.9567	0.0000000E+000	0.0000000E+000	0.0000000E+000	-71.9567	0.0000000E+000	0.0000000E+000	0.0000000E+000	-18.0433	0.0000000E+000	0.0000000E+000	0.0000000E+000	18.0433	3.06978	71.9567	-1.89319e-06	-3.38112e-06	-7.8625e-10	-3.38033e-06	0.228361	15430.7	3.58828	15427.1
31.6296	13.3624	3.56308	13.8293	-14.9305	10.8905	0.228413	-0.0166845	1412.22	93.7464	1	10	0.00481541	0.000348204	0	-4.73554e-06	3.40178e-05	1.31045e-05	1.97207	0.0376346	0.0376123	-0.00129509	-14.8853	13.8653	13.4	3.56179	0.0698691	0.0186306	0.0723104	14.9305	93746.4	351570	363854	-75.0695	0.0000000E+000	0.0000000E+000	0.0000000E+000	75.0695	0.0000000E+000	0.0000000E+000	0.0000000E+000	-75.0695	0.0000000E+000	0.0000000E+000	0.0000000E+000	-14.9305	0.0000000E+000	0.0000000E+000	0.0000000E+000	14.9305	3.75023	75.0695	-1.99182e-06	-3.81096e-06	-5.67569e-10	-3.81039e-06	0.228379	13690.2	2.03889	13688.1
21.5517	14.1875	3.04692	14.511	-12.1208	11.3115	0.228412	-0.0200011	2423.69	106.857	1	10	0.00480806	0.000331339	0	-6.69275e-06	0.000186802	9.13923e-06	31.8853	0.0275827	0.0234207	-0.0145697	-12.0452	14.5308	14.2109	3.03235	0.067377	0.0144699	0.0689133	12.1208	106857	497565	508910	-77.8792	0.0000000E+000	0.0000000E+000	0.0000000E+000	77.8792	0.0000000E+000	0.0000000E+000	0.0000000E+000	-77.8792	0.0000000E+000	0.0000000E+000	0.0000000E+000	-12.1208	0.0000000E+000	0.0000000E+000	0.0000000E+000	12.1208	4.65634	77.8792	-1.95721e-06	-4.5685e-06	-3.73625e-09	-4.56476e-06	0.228225	11420	9.33958	11410.6
14.6852	14.937	2.56381	15.1555	-9.7394	12.0211	0.228482	-0.00857598	4227.23	120.973	1	11	0.00481427	0.000317659	0	-5.09439e-06	0.000320488	9.84717e-06	0.791059	0.0309992	0.0309962	-0.000427979	-9.71802	15.1859	14.968	2.56338	0.0650318	0.0111621	0.0659828	9.7394	120973	704802	715109	-80.2606	0.0000000E+000	0.0000000E+000	0.0000000E+000	80.2606	0.0000000E+000	0.0000000E+000	0.0000000E+000	-80.2606	0.0000000E+000	0.0000000E+000	0.0000000E+000	-9.7394	0.0000000E+000	0.0000000E+000	0.0000000E+000	9.7394	5.82612	80.2606	1.59835e-06	-1.95945e-06	-2.7485e-09	-1.95671e-06	0.228161	26642	37.3705	26604.7
10.0032	15.4508	2.13695	15.5978	-7.87446	12.4719	0.228477	-0.00836446	7445.38	139.748	1	11	0.00481977	0.000309002	0	-8.40533e-06	0.000263194	7.62554e-06	-85.757	0.0246779	0.00182584	0.0246103	-7.96306	15.603	15.4526	2.16156	0.0635069	0.00878346	0.0641115	7.87446	139748	1.01042e+06	1.02004e+06	-82.1255	0.0000000E+000	0.0000000E+000	0.0000000E+000	82.1255	0.0000000E+000	0.0000000E+000	0.0000000E+000	-82.1255	0.0000000E+000	0.0000000E+000	0.0000000E+000	-7.87446	0.0000000E+000	0.0000000E+000	0.0000000E+000	7.87446	7.23029	82.1255	-3.31093e-06	-1.91108e-06	-2.20148e-09	-1.90888e-06	0.228213	27315.2	31.4658	27283.7
6.81719	15.8197	1.7752	15.919	-6.40263	12.8115	0.228474	-0.00860471	13151.2	163.542	1	11	0.00480789	0.000302022	0	-7.59023e-06	-4.23744e-05	5.94117e-06	-82.9034	0.0196713	0.00243023	0.0195206	-6.47146	15.9236	15.8222	1.79472	0.0624261	0.00700512	0.0628179	6.40263	163542	1.45741e+06	1.46656e+06	-83.5974	0.0000000E+000	0.0000000E+000	0.0000000E+000	83.5974	0.0000000E+000	0.0000000E+000	0.0000000E+000	-83.5974	0.0000000E+000	0.0000000E+000	0.0000000E+000	-6.40263	0.0000000E+000	0.0000000E+000	0.0000000E+000	6.40263	8.9115	83.5974	8.15095e-07	-1.96595e-06	3.64619e-10	-1.96632e-06	0.228516	26552.2	4.92456	26557.1
4.63925	16.1126	1.51994	16.1841	-5.38889	13.2965	0.228482	-0.00743367	22570.8	199.076	1	11	0.00480727	0.000297036	0	-6.54337e-06	5.31158e-05	1.36842e-05	34.6154	0.0460692	0.0379142	-0.0261703	-5.28427	16.2194	16.1505	1.49377	0.0615158	0.00580292	0.0617889	5.38889	199076	2.11037e+06	2.11974e+06	-84.6111	0.0000000E+000	0.0000000E+000	0.0000000E+000	84.6111	0.0000000E+000	0.0000000E+000	0.0000000E+000	-84.6111	0.0000000E+000	0.0000000E+000	0.0000000E+000	-5.38889	0.0000000E+000	0.0000000E+000	0.0000000E+000	5.38889	10.6008	84.6111	1.04686e-06	-1.69846e-06	-3.94845e-10	-1.69806e-06	0.228429	30736.1	7.1453	30728.9
3.1604	16.4018	1.31334	16.4543	-4.57808	13.9894	0.228476	-0.00713989	38344.3	244.285	1	11	0.00481518	0.000292639	0	-1.07428e-05	1.49197e-05	7.96031e-06	-15.3372	0.0272018	0.026233	0.00719483	-4.59573	16.481	16.428	1.32054	0.0605805	0.00485086	0.0607744	4.57808	244285	3.05078e+06	3.06055e+06	-85.4219	0.0000000E+000	0.0000000E+000	0.0000000E+000	85.4219	0.0000000E+000	0.0000000E+000	0.0000000E+000	-85.4219	0.0000000E+000	0.0000000E+000	0.0000000E+000	-4.57808	0.0000000E+000	0.0000000E+000	0.0000000E+000	4.57808	12.4886	85.4219	-4.19939e-06	-1.63129e-06	-1.06525e-10	-1.63119e-06	0.228461	32000	2.08963	31997.9
2.15577	16.613	1.14938	16.6527	-3.95773	14.993	0.228478	-0.00677429	64232.5	305.992	1	11	0.00481341	0.000289046	0	-1.74086e-05	5.31158e-05	2.04987e-06	138.831	0.00709183	-0.00533854	-0.0046684	-3.94297	16.6471	16.6077	1.14471	0.059907	0.00414469	0.0600502	3.95773	305992	4.42278e+06	4.43336e+06	-86.0423	0.0000000E+000	0.0000000E+000	0.0000000E+000	86.0423	0.0000000E+000	0.0000000E+000	0.0000000E+000	-86.0423	0.0000000E+000	0.0000000E+000	0.0000000E+000	-3.95773	0.0000000E+000	0.0000000E+000	0.0000000E+000	3.95773	14.4539	86.0423	-6.66587e-06	-1.54777e-06	-3.59822e-10	-1.54741e-06	0.228424	33727.2	7.8408	33719.3
1.46631	16.8125	1.06878	16.8465	-3.63743	16.4545	0.22848	-0.00724844	101556	408.758	1	11	0.0048116	0.000285615	0	-2.16808e-05	0.000224998	2.7125e-06	89.6896	0.00949705	5.14527e-05	-0.00949691	-3.60519	16.8459	16.8126	1.05929	0.0592401	0.00376593	0.0593597	3.63743	408758	6.42998e+06	6.44296e+06	-86.3626	0.0000000E+000	0.0000000E+000	0.0000000E+000	86.3626	0.0000000E+000	0.0000000E+000	0.0000000E+000	-86.3626	0.0000000E+000	0.0000000E+000	0.0000000E+000	-3.63743	0.0000000E+000	0.0000000E+000	0.0000000E+000	3.63743	15.7305	86.3626	-4.27212e-06	-1.65613e-06	-1.63089e-09	-1.6545e-06	0.228255	31521.3	31.0409	31490.3
1.00006	16.9678	1.03852	16.9995	-3.50245	19.6279	0.228482	-0.0073331	153242	571.918	1	12	0.00481291	0.00028312	0	-2.17194e-05	5.31158e-05	1.55531e-06	70.9035	0.00549348	0.00179725	-0.00519117	-3.48462	17.001	16.9696	1.03333	0.0587152	0.00359369	0.0588251	3.50245	571918	9.34422e+06	9.36171e+06	-86.4976	0.0000000E+000	0.0000000E+000	0.0000000E+000	86.4976	0.0000000E+000	0.0000000E+000	0.0000000E+000	-86.4976	0.0000000E+000	0.0000000E+000	0.0000000E+000	-3.50245	0.0000000E+000	0.0000000E+000	0.0000000E+000	3.50245	16.3384	86.4976	-3.8613e-08	-1.67548e-06	-3.89504e-10	-1.67509e-06	0.228428	31157.6	7.24329	31150.3
0.681362	17.1124	1.0727	17.146	-3.58691	22.7401	0.228482	-0.00735261	217753	852.303	1	12	0.00480867	0.000280454	0	-1.56736e-05	-9.96685e-05	7.26065e-07	-28.379	0.00258889	0.00227776	0.0012305	-3.59054	17.1483	17.1147	1.07393	0.0582084	0.00364882	0.0583226	3.58691	852303	1.35965e+07	1.36232e+07	-86.4131	0.0000000E+000	0.0000000E+000	0.0000000E+000	86.4131	0.0000000E+000	0.0000000E+000	0.0000000E+000	-86.4131	0.0000000E+000	0.0000000E+000	0.0000000E+000	-3.58691	0.0000000E+000	0.0000000E+000	0.0000000E+000	3.58691	15.9527	86.4131	6.04581e-06	-1.67994e-06	7.32824e-10	-1.68067e-06	0.228581	31074.9	13.5555	31088.5
0.464091	17.2665	1.17028	17.3061	-3.87743	27.2967	0.228468	-0.00648237	293042	1340.01	1	12	0.00481369	0.000278151	0	-1.27718e-05	7.22138e-05	1.9787e-06	-4.54791	0.00711377	0.00709137	0.000564069	-3.87771	17.3132	17.2735	1.17084	0.0576509	0.00390743	0.0577832	3.87743	1.34001e+06	1.97708e+07	1.98161e+07	-86.1226	0.0000000E+000	0.0000000E+000	0.0000000E+000	86.1226	0.0000000E+000	0.0000000E+000	0.0000000E+000	-86.1226	0.0000000E+000	0.0000000E+000	0.0000000E+000	-3.87743	0.0000000E+000	0.0000000E+000	0.0000000E+000	3.87743	14.7542	86.1226	2.90173e-06	-1.48101e-06	-4.68117e-10	-1.48054e-06	0.228396	35244.5	11.14	35233.4
0.316193	17.4323	1.39822	17.4883	-4.5858	33.9718	0.228462	-0.0047995	359990	2301.17	1	12	0.00481316	0.000275222	0	-2.33169e-05	0.000282292	6.27008e-07	75.9296	0.00227819	0.000553859	-0.00220984	-4.57844	17.4887	17.4329	1.39601	0.056998	0.00457174	0.0571811	4.5858	2.30117e+06	2.86898e+07	2.87819e+07	-85.4142	0.0000000E+000	0.0000000E+000	0.0000000E+000	85.4142	0.0000000E+000	0.0000000E+000	0.0000000E+000	-85.4142	0.0000000E+000	0.0000000E+000	0.0000000E+000	-4.5858	0.0000000E+000	0.0000000E+000	0.0000000E+000	4.5858	12.4675	85.4142	-1.0545e-05	-1.0965e-06	-1.35486e-09	-1.09515e-06	0.228179	47601.1	58.8171	47542.3
0.215268	17.5979	1.76043	17.6857	-5.71266	43.7642	0.228476	-0.00343277	419973	4161.16	1	12	0.00481545	0.000272279	0	-5.71606e-05	0.000167704	1.67064e-06	23.5503	0.00613576	0.00562471	-0.00245157	-5.70295	17.6911	17.6035	1.75798	0.0562619	0.00562824	0.0565427	5.71266	4.16115e+06	4.15964e+07	4.1804e+07	-84.2873	0.0000000E+000	0.0000000E+000	0.0000000E+000	84.2873	0.0000000E+000	0.0000000E+000	0.0000000E+000	-84.2873	0.0000000E+000	0.0000000E+000	0.0000000E+000	-5.71266	0.0000000E+000	0.0000000E+000	0.0000000E+000	5.71266	9.99635	84.2873	-3.38438e-05	-7.84307e-07	-5.75689e-10	-7.83732e-07	0.228309	66557.5	48.8538	66508.6
0.146929	17.8056	2.22383	17.9439	-7.11911	58.1025	0.228462	-0.00478743	487092	7481.37	1	12	0.00481685	0.000268439	0	-0.000126365	-6.14724e-05	1.44755e-06	-66.7486	0.00539247	0.00212877	0.0049545	-7.13396	17.9466	17.8077	2.22879	0.0552996	0.00690665	0.0557292	7.11911	7.48137e+06	5.99011e+07	6.03665e+07	-82.8809	0.0000000E+000	0.0000000E+000	0.0000000E+000	82.8809	0.0000000E+000	0.0000000E+000	0.0000000E+000	-82.8809	0.0000000E+000	0.0000000E+000	0.0000000E+000	-7.11911	0.0000000E+000	0.0000000E+000	0.0000000E+000	7.11911	8.00671	82.8809	-6.92043e-05	-1.09375e-06	2.94295e-10	-1.09404e-06	0.228524	47721.3	12.8404	47734.1
0.0999041	18.1482	2.88241	18.3757	-9.0247	79.1797	0.228476	-0.00602542	552689	13599	1	12	0.00481602	0.000262086	0	-0.000224313	1.49197e-05	3.63066e-06	67.4604	0.0138529	0.00531013	-0.0127947	-8.98271	18.3789	18.1535	2.86962	0.0537461	0.0085363	0.0544198	9.0247	1.3599e+07	8.56217e+07	8.66949e+07	-80.9753	0.0000000E+000	0.0000000E+000	0.0000000E+000	80.9753	0.0000000E+000	0.0000000E+000	0.0000000E+000	-80.9753	0.0000000E+000	0.0000000E+000	0.0000000E+000	-9.0247	0.0000000E+000	0.0000000E+000	0.0000000E+000	9.0247	6.29618	80.9753	-9.7948e-05	-1.37666e-06	-8.98976e-11	-1.37657e-06	0.228461	37918.6	2.47613	37916.1
0.0680626	18.6006	3.83092	18.991	-11.6377	110.106	0.228489	-0.00750536	610392	24838.2	1	12	0.00481463	0.000253522	0	-0.000328087	3.40178e-05	1.96048e-06	94.435	0.00773296	-0.000597969	-0.00770981	-11.6153	18.9888	18.6	3.82321	0.0515741	0.010622	0.0526566	11.6377	2.48382e+07	1.20599e+08	1.2313e+08	-78.3623	0.0000000E+000	0.0000000E+000	0.0000000E+000	78.3623	0.0000000E+000	0.0000000E+000	0.0000000E+000	-78.3623	0.0000000E+000	0.0000000E+000	0.0000000E+000	-11.6377	0.0000000E+000	0.0000000E+000	0.0000000E+000	11.6377	4.85539	78.3623	-0.000103774	-1.7149e-06	-2.55316e-10	-1.71464e-06	0.228455	30443.5	4.53246	30439
0.0464052	19.1292	5.19374	19.8218	-15.1901	155.457	0.228476	-0.00800284	660349	45336.6	1	12	0.00481086	0.000242706	0	-0.000390971	5.31158e-05	1.50259e-06	-18.4706	0.00619098	0.00587206	0.00196142	-15.1911	19.828	19.1351	5.1957	0.0486869	0.0132189	0.0504496	15.1901	4.53366e+07	1.66981e+08	1.73026e+08	-74.8099	0.0000000E+000	0.0000000E+000	0.0000000E+000	74.8099	0.0000000E+000	0.0000000E+000	0.0000000E+000	-74.8099	0.0000000E+000	0.0000000E+000	0.0000000E+000	-15.1901	0.0000000E+000	0.0000000E+000	0.0000000E+000	15.1901	3.68313	74.8099	-6.28836e-05	-1.82846e-06	-4.25077e-10	-1.82803e-06	0.228423	28549.4	6.63712	28542.8
0.0315922	19.7259	6.86093	20.885	-19.1784	222.063	0.228471	-0.00787709	734272	79242	1	12	0.00481692	0.000230641	0	-0.000357578	-4.17831e-06	2.63254e-06	13.3591	0.011414	0.0111052	-0.00263726	-19.1616	20.8946	19.737	6.8583	0.0452239	0.0157295	0.0478813	19.1784	7.92419e+07	2.27829e+08	2.41216e+08	-70.8216	0.0000000E+000	0.0000000E+000	0.0000000E+000	70.8216	0.0000000E+000	0.0000000E+000	0.0000000E+000	-70.8216	0.0000000E+000	0.0000000E+000	0.0000000E+000	-19.1784	0.0000000E+000	0.0000000E+000	0.0000000E+000	19.1784	2.8751	70.8216	3.33932e-05	-1.79968e-06	3.29129e-11	-1.79972e-06	0.228475	29004.4	0.530438	29005
0.0215268	20.7575	9.04779	22.6437	-23.5514	319.802	0.228468	-0.00777497	817144	130463	1	12	0.00481517	0.000212649	0	-0.000272901	0.000244096	1.22084e-06	33.8588	0.00574112	0.0047675	-0.00319865	-23.5392	22.6468	20.7623	9.04459	0.0404837	0.017646	0.0441624	23.5514	1.30463e+08	2.9931e+08	3.26508e+08	-66.4486	0.0000000E+000	0.0000000E+000	0.0000000E+000	66.4486	0.0000000E+000	0.0000000E+000	0.0000000E+000	-66.4486	0.0000000E+000	0.0000000E+000	0.0000000E+000	-23.5514	0.0000000E+000	0.0000000E+000	0.0000000E+000	23.5514	2.29421	66.4486	8.46764e-05	-1.77633e-06	-1.89784e-09	-1.77443e-06	0.228224	29385.1	31.3951	29353.7
0.0146812	22.3136	12.2969	25.4776	-28.8589	463.104	0.228469	-0.00772831	881585	205370	1	12	0.00481545	0.000189007	0	-0.000343578	0.000244096	9.53636e-07	-7.17693	0.0050455	0.00500597	0.000630354	-28.8547	25.4823	22.3186	12.2975	0.0343757	0.0189442	0.0392501	28.8589	2.0537e+08	3.72658e+08	4.25501e+08	-61.1411	0.0000000E+000	0.0000000E+000	0.0000000E+000	61.1411	0.0000000E+000	0.0000000E+000	0.0000000E+000	-61.1411	0.0000000E+000	0.0000000E+000	0.0000000E+000	-28.8589	0.0000000E+000	0.0000000E+000	0.0000000E+000	28.8589	1.81457	61.1411	-7.06766e-05	-1.76568e-06	-1.88645e-09	-1.76379e-06	0.228225	29562.7	31.5847	29531.1

0.0100092	24.1753	16.7278	29.3984	-34.6809	673.286	0.228465	-0.00817789	950567	307762	1	12	0.00481914	0.000163925	0	-0.000889378	-4.17831e-06	3.81241e-06	-26.9936	0.023257	0.0207233	0.0105561	-34.6748	29.4214	24.196	16.7384	0.0279721	0.019355	0.0340155	34.6809	3.07762e+08	4.44782e+08	5.40878e+08	-55.3191	0.0000000E+000	0.0000000E+000	0.0000000E+000	55.3191	0.0000000E+000	0.0000000E+000	0.0000000E+000	-55.3191	0.0000000E+000	0.0000000E+000	0.0000000E+000	-34.6809	0.0000000E+000	0.0000000E+000	0.0000000E+000	34.6809	1.44521	55.3191	-0.0005458	-1.86836e-06	3.41698e-11	-1.86839e-06	0.228469	27936.9	0.510928	27937.4