File: txt/18938_R306_UA703_SOC00_C05.mpt
EC-Lab ASCII FILE
Nb header lines : 65

Potentio Electrochemical Impedance Spectroscopy

Run on channel : 5 (SN 65912)
Grouped channel(s) : 1, 2, 3, 4, 5
User :
CE vs. WE compliance from -10 V to 10 V
Electrode connection : standard
Potential control : Ewe
Ewe ctrl range : min = -10.00 V, max = 10.00 V
Safety Limits :
	Do not start on E overload
Acquisition started on : 11/04/2025 15:05:27.163
Loaded Setting File :  C:\Users\Celltest\OneDrive - store-dot.com\Documents\EC-Lab\Data\@Biologic Test Protocols\anode half cell EIS SOC00.mps
Saved on :
	File : 18934_R306_UA703_SOC00_C05.mpr
	Directory : C:\Users\Celltest\OneDrive - store-dot.com\Documents\EC-Lab\Data\Charmaine\
	Host : 169.254.61.224
Device : VMP-3e (SN .003165)
Address : USB
EC-LAB for windows v11.62 (software)
Internet server v27.00 (firmware)
Command interpretor v12.03 (firmware)
Electrode material :
Initial state :
Electrolyte :
Comments :
Electrode surface area : 0.001 cm²
Characteristic mass : 0.001 g
Equivalent Weight : 0.000 g/eq.
Density : 0.000 g/cm3
Volume (V) : 0.001 cm³
Record Ece
Cycle Definition : Charge/Discharge alternance
Mode                Single sine
E (V)               0.0000
vs.                 Eoc
tE (h:m:s)          0:00:0.0000
record              0
dI                  0.000
unit dI             mA
dt (s)              0.000
fi                  100.000
unit fi             kHz
ff                  10.000
unit ff             mHz
Nd                  6
Points              per decade
spacing             Logarithmic
Va (mV)             5.0
pw                  0.10
Na                  2
corr                0
E range min (V)     -10.000
E range max (V)     10.000
I Range             Auto
Bandwidth           5
nc cycles           0
goto Ns'            0
nr cycles           0
inc. cycle          0

freq/Hz	Re(Z)/Ohm	-Im(Z)/Ohm	|Z|/Ohm	Phase(Z)/deg	time/s	<Ewe>/V	<I>/mA	Cs/µF	Cp/µF	cycle number	I Range	|Ewe|/V	|I|/A	Ns	(Q-Qo)/mA.h	<Ece>/V	|Ece|/V	Phase(Zce)/deg	|Zce|/Ohm	Re(Zce)/Ohm	-Im(Zce)/Ohm	Phase(Zwe-ce)/deg	|Zwe-ce|/Ohm	Re(Zwe-ce)/Ohm	-Im(Zwe-ce)/Ohm	Re(Y)/Ohm-1	Im(Y)/Ohm-1	|Y|/Ohm-1	Phase(Y)/deg	Re(C)/nF	Im(C)/nF	|C|/nF	Phase(C)/deg	Re(M)	Im(M)	|M|	Phase(M)/deg	Re(Permittivity)	Im(Permittivity)	|Permittivity|	Phase(Permittivity)/deg	Re(Resistivity)/Ohm.cm	Im(Resistivity)/Ohm.cm	|Resistivity|/Ohm.cm	Phase(Resistivity)/deg	Re(Conductivity)/mS/cm	Im(Conductivity)/mS/cm	|Conductivity|/mS/cm	Phase(Conductivity)/deg	Tan(Delta)	Loss Angle(Delta)/deg	dq/mA.h	Pwe/W	Pce/W	Pwe-ce/W	<Ewe-Ece>/V	Rwe/Ohm	Rce/Ohm	Rwe-ce/Ohm		Ewe-Ece/V
100004	1.45406	0.52269	1.54515	-19.772	1.86854	0.245809	-0.0062778	3.04481	0.348423	1	9	0.00485596	0.00314271	0	-5.70479e-06	-3.90715e-05	3.38968e-05	41.075	0.0107858	0.00813091	-0.00708679	-19.4239	1.55043	1.46219	0.515603	0.609033	0.218929	0.647187	19.772	348.423	969.269	1029.99	-70.228	0.0000000E+000	0.0000000E+000	0.0000000E+000	70.228	0.0000000E+000	0.0000000E+000	0.0000000E+000	-70.228	0.0000000E+000	0.0000000E+000	0.0000000E+000	-19.772	0.0000000E+000	0.0000000E+000	0.0000000E+000	19.772	2.78188	70.228	-5.70479e-06	-1.54314e-06	2.45283e-10	-1.54338e-06	0.245848	39155.2	6.22375	39161.4
68132	1.59855	0.600857	1.70774	-20.6001	2.25352	0.245788	-0.0159974	3.88774	0.481276	1	9	0.00540417	0.00316451	0	-8.42332e-06	0.000285479	2.03686e-05	66.9092	0.00643659	0.00252436	-0.00592092	-20.3844	1.70804	1.60107	0.594936	0.548126	0.206028	0.585568	20.6001	481.276	1280.41	1367.87	-69.3999	0.0000000E+000	0.0000000E+000	0.0000000E+000	69.3999	0.0000000E+000	0.0000000E+000	0.0000000E+000	-69.3999	0.0000000E+000	0.0000000E+000	0.0000000E+000	-20.6001	0.0000000E+000	0.0000000E+000	0.0000000E+000	20.6001	2.66045	69.3999	-2.71853e-06	-3.93197e-06	-4.56692e-09	-3.92741e-06	0.245503	15364.3	17.8454	15346.4
46420.4	1.76046	0.66556	1.88207	-20.7096	2.76251	0.24578	-0.00784188	5.15139	0.644211	1	9	0.00504999	0.00268321	0	-5.18043e-06	0.000170932	1.78426e-05	17.0552	0.00664971	0.00635727	-0.00195031	-20.586	1.88733	1.76681	0.663609	0.496998	0.187896	0.531331	20.7096	644.211	1703.99	1821.7	-69.2904	0.0000000E+000	0.0000000E+000	0.0000000E+000	69.2904	0.0000000E+000	0.0000000E+000	0.0000000E+000	-69.2904	0.0000000E+000	0.0000000E+000	0.0000000E+000	-20.7096	0.0000000E+000	0.0000000E+000	0.0000000E+000	20.7096	2.64508	69.2904	3.24289e-06	-1.92738e-06	-1.34043e-09	-1.92604e-06	0.245609	31342	21.7973	31320.2
31621.1	1.93665	0.731696	2.07026	-20.6974	3.14755	0.245777	0.000574318	6.87879	0.859258	1	9	0.00539999	0.00260836	0	-8.87602e-06	1.82022e-05	1.44827e-05	40.5899	0.00555241	0.00421642	-0.00361262	-20.5628	2.07293	1.94086	0.728083	0.451856	0.170719	0.483031	20.6974	859.258	2274.28	2431.18	-69.3026	0.0000000E+000	0.0000000E+000	0.0000000E+000	69.3026	0.0000000E+000	0.0000000E+000	0.0000000E+000	-69.3026	0.0000000E+000	0.0000000E+000	0.0000000E+000	-20.6974	0.0000000E+000	0.0000000E+000	0.0000000E+000	20.6974	2.64679	69.3026	-3.69559e-06	1.41154e-07	1.04538e-11	1.41144e-07	0.245759	427946	31.6935	427914
21544.7	2.1165	0.796063	2.26126	-20.6124	3.53051	0.245763	-0.00899632	9.27967	1.15008	1	9	0.00543368	0.00240295	0	-9.62546e-06	5.63846e-05	9.8975e-06	20.2501	0.0041189	0.00386431	-0.00142563	-20.5443	2.26437	2.12036	0.794638	0.413922	0.155686	0.442232	20.6124	1150.08	3057.73	3266.86	-69.3876	0.0000000E+000	0.0000000E+000	0.0000000E+000	69.3876	0.0000000E+000	0.0000000E+000	0.0000000E+000	-69.3876	0.0000000E+000	0.0000000E+000	0.0000000E+000	-20.6124	0.0000000E+000	0.0000000E+000	0.0000000E+000	20.6124	2.6587	69.3876	-7.49444e-07	-2.21096e-06	-5.07254e-10	-2.21045e-06	0.245706	27318.2	6.26752	27311.9
14678.6	2.3125	0.862426	2.46808	-20.4525	3.91356	0.245764	-0.0112307	12.5723	1.53511	1	9	0.00543059	0.00220033	0	-1.12687e-05	-0.000210892	7.70692e-06	54.1926	0.00350262	0.00204925	-0.00284059	-20.3742	2.46901	2.31455	0.859585	0.379632	0.14158	0.405173	20.4525	1535.11	4116.22	4393.15	-69.5475	0.0000000E+000	0.0000000E+000	0.0000000E+000	69.5475	0.0000000E+000	0.0000000E+000	0.0000000E+000	-69.5475	0.0000000E+000	0.0000000E+000	0.0000000E+000	-20.4525	0.0000000E+000	0.0000000E+000	0.0000000E+000	20.4525	2.68139	69.5475	-1.64322e-06	-2.7601e-06	2.36847e-09	-2.76247e-06	0.245975	21883.2	18.7782	21901.9
10002.2	2.50175	0.949401	2.67584	-20.7815	4.29652	0.245763	-0.0179339	16.76	2.10986	1	9	0.00543558	0.00203136	0	-1.58637e-05	0.000228206	1.33395e-05	-62.1734	0.0065668	0.00306537	0.00580744	-20.8743	2.68077	2.50481	0.955209	0.349401	0.132596	0.373715	20.7815	2109.86	5559.65	5946.53	-69.2185	0.0000000E+000	0.0000000E+000	0.0000000E+000	69.2185	0.0000000E+000	0.0000000E+000	0.0000000E+000	-69.2185	0.0000000E+000	0.0000000E+000	0.0000000E+000	-20.7815	0.0000000E+000	0.0000000E+000	0.0000000E+000	20.7815	2.63508	69.2185	-4.59497e-06	-4.40748e-06	-4.09261e-09	-4.40339e-06	0.245535	13703.8	12.7248	13691.1
6810.42	2.74135	1.05745	2.93823	-21.0935	4.68153	0.245758	-0.0178594	22.0998	2.86241	1	9	0.00530057	0.001804	0	-1.36973e-05	0.000190023	1.67687e-05	5.68103	0.00929528	0.00924963	-0.000920143	-21.0121	2.94653	2.7506	1.05653	0.317536	0.122486	0.340341	21.0935	2862.41	7420.6	7953.53	-68.9065	0.0000000E+000	0.0000000E+000	0.0000000E+000	68.9065	0.0000000E+000	0.0000000E+000	0.0000000E+000	-68.9065	0.0000000E+000	0.0000000E+000	0.0000000E+000	-21.0935	0.0000000E+000	0.0000000E+000	0.0000000E+000	21.0935	2.59243	68.9065	2.16641e-06	-4.3891e-06	-3.3937e-09	-4.38571e-06	0.245568	13760.7	10.6399	13750.1
4646	2.9686	1.18755	3.19732	-21.8032	5.07459	0.245757	-0.00873566	28.8463	3.97941	1	9	0.00516028	0.00161394	0	-1.28691e-05	0.000132749	5.96808e-06	-17.4537	0.00369783	0.00352758	0.00110911	-21.7982	3.20101	2.97213	1.18866	0.290388	0.116166	0.312762	21.8032	3979.41	9947.64	10714.1	-68.1968	0.0000000E+000	0.0000000E+000	0.0000000E+000	68.1968	0.0000000E+000	0.0000000E+000	0.0000000E+000	-68.1968	0.0000000E+000	0.0000000E+000	0.0000000E+000	-21.8032	0.0000000E+000	0.0000000E+000	0.0000000E+000	21.8032	2.49978	68.1968	8.28134e-07	-2.14685e-06	-1.15965e-09	-2.14569e-06	0.245624	28132.6	15.1963	28117.4
3163.08	3.24274	1.3494	3.5123	-22.5937	5.62563	0.245725	-0.0259404	37.2879	5.50387	1	9	0.00504805	0.00143725	0	-1.88189e-05	-8.89057e-07	6.55987e-06	-65.5366	0.00456419	0.00189009	0.00415444	-22.6444	3.51565	3.24463	1.35356	0.262862	0.109385	0.284713	22.5937	5503.87	13226.3	14325.8	-67.4063	0.0000000E+000	0.0000000E+000	0.0000000E+000	67.4063	0.0000000E+000	0.0000000E+000	0.0000000E+000	-67.4063	0.0000000E+000	0.0000000E+000	0.0000000E+000	-22.5937	0.0000000E+000	0.0000000E+000	0.0000000E+000	22.5937	2.40309	67.4063	-5.9498e-06	-6.37422e-06	2.30625e-11	-6.37425e-06	0.245726	9472.67	0.034273	9472.7
2155.69	3.5048	1.50899	3.81585	-23.2942	6.32185	0.245765	-0.0139463	48.9269	7.65134	1	10	0.00511967	0.00134169	0	-1.94468e-05	-0.00017271	5.35413e-06	-85.2739	0.0039906	0.000328796	0.00397703	-23.3471	3.81773	3.50513	1.51297	0.240703	0.103634	0.262065	23.2942	7651.34	17771.1	19348.3	-66.7058	0.0000000E+000	0.0000000E+000	0.0000000E+000	66.7058	0.0000000E+000	0.0000000E+000	0.0000000E+000	-66.7058	0.0000000E+000	0.0000000E+000	0.0000000E+000	-23.2942	0.0000000E+000	0.0000000E+000	0.0000000E+000	23.2942	2.32262	66.7058	-6.27897e-07	-3.42751e-06	2.40867e-09	-3.42991e-06	0.245937	17622.2	12.3839	17634.6
1468.59	3.8224	1.72839	4.19501	-24.3313	6.77309	0.24576	-0.0148176	62.7014	10.6438	1	10	0.00508799	0.00121287	0	-2.23337e-05	3.72934e-05	6.25186e-06	-40.9583	0.00515461	0.00389269	0.0033789	-24.3514	4.19995	3.82629	1.73177	0.217205	0.0982149	0.238379	24.3313	10643.8	23539.1	25833.7	-65.6687	0.0000000E+000	0.0000000E+000	0.0000000E+000	65.6687	0.0000000E+000	0.0000000E+000	0.0000000E+000	-65.6687	0.0000000E+000	0.0000000E+000	0.0000000E+000	-24.3313	0.0000000E+000	0.0000000E+000	0.0000000E+000	24.3313	2.21153	65.6687	-2.88685e-06	-3.64157e-06	-5.52597e-10	-3.64102e-06	0.245723	16585.7	2.51683	16583.2
1000.32	4.17877	2.01061	4.63731	-25.6945	7.2238	0.24576	-0.0146724	79.1322	14.8757	1	10	0.00500113	0.00107845	0	-2.39883e-05	-0.000134528	1.46393e-05	-101.746	0.0135743	-0.00276344	0.01329	-25.8572	4.6406	4.176	2.0239	0.194319	0.0934965	0.215642	25.6945	14875.7	30917	34309.5	-64.3055	0.0000000E+000	0.0000000E+000	0.0000000E+000	64.3055	0.0000000E+000	0.0000000E+000	0.0000000E+000	-64.3055	0.0000000E+000	0.0000000E+000	0.0000000E+000	-25.6945	0.0000000E+000	0.0000000E+000	0.0000000E+000	25.6945	2.07836	64.3055	-1.65468e-06	-3.60588e-06	1.97384e-09	-3.60786e-06	0.245895	16749.9	9.16878	16759
681.09	4.58772	2.39983	5.17748	-27.614	7.67357	0.245756	-0.0146277	97.3723	20.9199	1	10	0.00492926	0.000952057	0	-2.65484e-05	0.000151841	1.12408e-05	-59.3648	0.0118069	0.00601642	0.010159	-27.6826	5.18753	4.59373	2.40999	0.171143	0.0895247	0.193144	27.614	20919.9	39992.2	45133.3	-62.386	0.0000000E+000	0.0000000E+000	0.0000000E+000	62.386	0.0000000E+000	0.0000000E+000	0.0000000E+000	-62.386	0.0000000E+000	0.0000000E+000	0.0000000E+000	-27.614	0.0000000E+000	0.0000000E+000	0.0000000E+000	27.614	1.91168	62.386	-2.56006e-06	-3.59484e-06	-2.22108e-09	-3.59261e-06	0.245604	16800.7	10.3804	16790.3
463.961	5.08809	2.89234	5.85272	-29.6162	8.1253	0.245744	-0.0141325	118.601	28.9649	1	10	0.00486915	0.000831947	0	-2.82832e-05	0.000170932	1.21719e-05	72.404	0.0146306	0.00442286	-0.013946	-29.476	5.84969	5.09252	2.87839	0.148539	0.0844372	0.170861	29.6162	28964.9	50954.1	58611.3	-60.3839	0.0000000E+000	0.0000000E+000	0.0000000E+000	60.3839	0.0000000E+000	0.0000000E+000	0.0000000E+000	-60.3839	0.0000000E+000	0.0000000E+000	0.0000000E+000	-29.6162	0.0000000E+000	0.0000000E+000	0.0000000E+000	29.6162	1.75916	60.3839	-1.73478e-06	-3.47296e-06	-2.41569e-09	-3.47055e-06	0.245573	17388.6	12.095	17376.5
316.316	5.75097	3.50915	6.73705	-31.3909	8.57303	0.245756	-0.0141809	143.383	38.9011	1	10	0.00483045	0.000716998	0	-2.98272e-05	-1.99803e-05	4.74625e-06	-20.1152	0.00661962	0.00621584	0.00227655	-31.3799	6.74354	5.75719	3.51143	0.126707	0.0773148	0.148433	31.3909	38901.1	63753.1	74684.3	-58.6091	0.0000000E+000	0.0000000E+000	0.0000000E+000	58.6091	0.0000000E+000	0.0000000E+000	0.0000000E+000	-58.6091	0.0000000E+000	0.0000000E+000	0.0000000E+000	-31.3909	0.0000000E+000	0.0000000E+000	0.0000000E+000	31.3909	1.63885	58.6091	-1.54406e-06	-3.48504e-06	2.83338e-10	-3.48533e-06	0.245776	17330.1	1.40896	17331.5
215.345	6.64541	4.20903	7.86622	-32.3491	9.02352	0.245756	-0.0135367	175.592	50.2732	1	10	0.00480131	0.000610371	0	-3.08152e-05	9.4567e-05	5.77785e-06	33.7837	0.00946612	0.00786769	-0.00526373	-32.2861	7.87006	6.65328	4.20377	0.107396	0.0680221	0.127126	32.3491	50273.2	79373.5	93955	-57.6509	0.0000000E+000	0.0000000E+000	0.0000000E+000	57.6509	0.0000000E+000	0.0000000E+000	0.0000000E+000	-57.6509	0.0000000E+000	0.0000000E+000	0.0000000E+000	-32.3491	0.0000000E+000	0.0000000E+000	0.0000000E+000	32.3491	1.57884	57.6509	-9.87993e-07	-3.32674e-06	-1.28013e-09	-3.32546e-06	0.245661	18154.7	6.98595	18147.8
146.737	7.80463	4.949	9.24148	-32.3792	9.46953	0.245746	-0.0144229	219.16	62.8512	1	10	0.00477118	0.000516279	0	-3.23264e-05	5.63846e-05	1.83683e-05	-41.4194	0.0355781	0.0266796	0.0235373	-32.4137	9.27661	7.83131	4.97253	0.0913839	0.0579475	0.108208	32.3792	62851.2	99117.2	117365	-57.6208	0.0000000E+000	0.0000000E+000	0.0000000E+000	57.6208	0.0000000E+000	0.0000000E+000	0.0000000E+000	-57.6208	0.0000000E+000	0.0000000E+000	0.0000000E+000	-32.3792	0.0000000E+000	0.0000000E+000	0.0000000E+000	32.3792	1.57701	57.6208	-1.51121e-06	-3.54437e-06	-8.1323e-10	-3.54356e-06	0.245689	17038.6	3.90937	17034.7
100.032	9.29406	5.63797	10.8704	-31.2419	9.92086	0.245752	-0.0142852	282.201	75.912	1	10	0.00477494	0.00043926	0	-3.4274e-05	-0.000210892	9.85301e-06	89.2043	0.0224309	0.000311483	-0.0224288	-31.1398	10.8591	9.29438	5.61554	0.0786524	0.0477122	0.0919926	31.2419	75912	125139	146364	-58.7581	0.0000000E+000	0.0000000E+000	0.0000000E+000	58.7581	0.0000000E+000	0.0000000E+000	0.0000000E+000	-58.7581	0.0000000E+000	0.0000000E+000	0.0000000E+000	-31.2419	0.0000000E+000	0.0000000E+000	0.0000000E+000	31.2419	1.64848	58.7581	-1.94761e-06	-3.5106e-06	3.01263e-09	-3.51361e-06	0.245962	17203.3	14.7631	17218.1
68.104	11.0531	6.05097	12.601	-28.6982	10.3834	0.245746	-0.0133394	386.209	89.0553	1	10	0.0047658	0.000378207	0	-3.60567e-05	0.000113658	7.9631e-06	95.2951	0.0210549	-0.00194306	-0.020965	-28.6188	12.5893	11.0512	6.03001	0.0696102	0.0381076	0.0793585	28.6982	89055.3	162675	185456	-61.3018	0.0000000E+000	0.0000000E+000	0.0000000E+000	61.3018	0.0000000E+000	0.0000000E+000	0.0000000E+000	-61.3018	0.0000000E+000	0.0000000E+000	0.0000000E+000	-28.6982	0.0000000E+000	0.0000000E+000	0.0000000E+000	28.6982	1.82667	61.3018	-1.78267e-06	-3.27811e-06	-1.51613e-09	-3.27659e-06	0.245632	18422.6	8.52048	18414
46.4415	12.9327	6.19169	14.3385	-25.5833	10.8186	0.245745	-0.015041	553.483	103.208	1	10	0.00475602	0.000331696	0	-3.78314e-05	-7.72539e-05	8.8194e-06	-26.5707	0.0265888	0.0237806	0.0118932	-25.5851	14.3651	12.9565	6.20359	0.0629046	0.0301163	0.0697423	25.5833	103208	215574	239006	-64.4167	0.0000000E+000	0.0000000E+000	0.0000000E+000	64.4167	0.0000000E+000	0.0000000E+000	0.0000000E+000	-64.4167	0.0000000E+000	0.0000000E+000	0.0000000E+000	-25.5833	0.0000000E+000	0.0000000E+000	0.0000000E+000	25.5833	2.08872	64.4167	-1.77464e-06	-3.69625e-06	1.16198e-09	-3.69741e-06	0.245822	16338.3	5.13622	16343.4
31.6296	14.745	5.97612	15.91	-22.0626	11.2496	0.245739	-0.0151713	841.991	118.797	1	10	0.00475918	0.000299131	0	-3.89991e-05	-0.000153619	1.01865e-05	-32.3327	0.0340538	0.028774	0.0182132	-22.0845	15.9435	14.7738	5.99433	0.058251	0.023609	0.0628535	22.0626	118797	293110	316269	-67.9374	0.0000000E+000	0.0000000E+000	0.0000000E+000	67.9374	0.0000000E+000	0.0000000E+000	0.0000000E+000	-67.9374	0.0000000E+000	0.0000000E+000	0.0000000E+000	-22.0626	0.0000000E+000	0.0000000E+000	0.0000000E+000	22.0626	2.46732	67.9374	-1.16771e-06	-3.72819e-06	2.3306e-09	-3.73052e-06	0.245893	16197.6	10.1256	16207.7
21.5517	16.3432	5.53425	17.2548	-18.7075	11.9025	0.245752	-0.0109166	1334.38	137.27	1	11	0.00475749	0.00027572	0	-4.04952e-05	-0.000191801	4.55831e-06	140.099	0.0165324	-0.0126829	-0.0106049	-18.6876	17.2394	16.3305	5.52365	0.054893	0.0185882	0.0579548	18.7075	137270	405373	427984	-71.2925	0.0000000E+000	0.0000000E+000	0.0000000E+000	71.2925	0.0000000E+000	0.0000000E+000	0.0000000E+000	-71.2925	0.0000000E+000	0.0000000E+000	0.0000000E+000	-18.7075	0.0000000E+000	0.0000000E+000	0.0000000E+000	18.7075	2.9531	71.2925	-1.49615e-06	-2.68278e-06	2.09382e-09	-2.68488e-06	0.245944	22511.7	17.5696	22529.3
14.6852	17.7167	4.99699	18.408	-15.7511	12.3622	0.24576	-0.0102465	2168.87	159.823	1	11	0.00475449	0.000258284	0	-4.18367e-05	0.000209114	7.65532e-06	-49.0461	0.0296391	0.019427	0.0223846	-15.8016	18.4327	17.7362	5.01938	0.0522845	0.0147468	0.0543243	15.7511	159823	566649	588757	-74.2489	0.0000000E+000	0.0000000E+000	0.0000000E+000	74.2489	0.0000000E+000	0.0000000E+000	0.0000000E+000	-74.2489	0.0000000E+000	0.0000000E+000	0.0000000E+000	-15.7511	0.0000000E+000	0.0000000E+000	0.0000000E+000	15.7511	3.54548	74.2489	-1.34144e-06	-2.51817e-06	-2.14268e-09	-2.51603e-06	0.245551	23984.9	20.4084	23964.5
10.0032	18.9014	4.50031	19.4297	-13.3925	12.8128	0.245743	-0.0103798	3535.4	189.666	1	11	0.00475935	0.000244952	0	-4.47397e-05	1.82022e-05	6.95823e-06	-17.5174	0.0284065	0.0270892	0.00855024	-13.3985	19.458	18.9284	4.50886	0.050068	0.0119209	0.0514676	13.3925	189666	796602	818870	-76.6075	0.0000000E+000	0.0000000E+000	0.0000000E+000	76.6075	0.0000000E+000	0.0000000E+000	0.0000000E+000	-76.6075	0.0000000E+000	0.0000000E+000	0.0000000E+000	-13.3925	0.0000000E+000	0.0000000E+000	0.0000000E+000	13.3925	4.20001	76.6075	-2.903e-06	-2.55075e-06	-1.88934e-10	-2.55056e-06	0.245724	23675.2	1.75362	23673.4
6.81719	19.8995	4.00861	20.2992	-11.3894	13.1525	0.245752	-0.0108466	5824	227.117	1	11	0.00475118	0.000234057	0	-4.48023e-05	-0.000287257	1.39417e-05	-9.67582	0.0595651	0.0587178	0.0100113	-11.3844	20.3587	19.9582	4.01862	0.0482929	0.00972827	0.049263	11.3894	227117	1.12745e+06	1.1501e+06	-78.6106	0.0000000E+000	0.0000000E+000	0.0000000E+000	78.6106	0.0000000E+000	0.0000000E+000	0.0000000E+000	-78.6106	0.0000000E+000	0.0000000E+000	0.0000000E+000	-11.3894	0.0000000E+000	0.0000000E+000	0.0000000E+000	11.3894	4.96418	78.6106	-6.2641e-08	-2.66559e-06	3.11578e-09	-2.6687e-06	0.24604	22657	26.4835	22683.5
4.63925	20.7763	3.50992	21.0707	-9.58896	13.6364	0.245745	-0.00988382	9774.05	271.215	1	11	0.00475544	0.00022569	0	-4.41911e-05	0.000190023	3.34698e-06	27.8637	0.01483	0.0131106	-0.00693109	-9.56445	21.0824	20.7894	3.50299	0.0467963	0.00790572	0.0474593	9.58896	271215	1.6054e+06	1.62815e+06	-80.411	0.0000000E+000	0.0000000E+000	0.0000000E+000	80.411	0.0000000E+000	0.0000000E+000	0.0000000E+000	-80.411	0.0000000E+000	0.0000000E+000	0.0000000E+000	-9.58896	0.0000000E+000	0.0000000E+000	0.0000000E+000	9.58896	5.91929	80.411	6.11199e-07	-2.4289e-06	-1.87815e-09	-2.42702e-06	0.245555	24863.3	19.2257	24844.1
3.1604	21.5367	3.154	21.7664	-8.33163	14.3294	0.245745	-0.00953328	15966.8	335.249	1	11	0.00475853	0.000218618	0	-4.77121e-05	3.72934e-05	2.25495e-06	-4.50009	0.0103145	0.0102828	0.000809286	-8.32981	21.7767	21.5469	3.15481	0.0454575	0.00665716	0.0459424	8.33163	335249	2.2892e+06	2.31362e+06	-81.6684	0.0000000E+000	0.0000000E+000	0.0000000E+000	81.6684	0.0000000E+000	0.0000000E+000	0.0000000E+000	-81.6684	0.0000000E+000	0.0000000E+000	0.0000000E+000	-8.33163	0.0000000E+000	0.0000000E+000	0.0000000E+000	8.33163	6.82836	81.6684	-3.52097e-06	-2.34276e-06	-3.55528e-10	-2.3424e-06	0.245708	25777.6	3.91191	25773.7
2.15577	22.1746	2.78327	22.3486	-7.15411	15.333	0.24576	-0.00862314	26525.5	411.406	1	11	0.00475546	0.000212785	0	-5.39158e-05	0.000132749	2.8391e-06	-37.5152	0.0133426	0.0105832	0.00812525	-7.17139	22.3602	22.1852	2.79139	0.0443971	0.00557254	0.0447455	7.15411	411407	3.27773e+06	3.30345e+06	-82.8459	0.0000000E+000	0.0000000E+000	0.0000000E+000	82.8459	0.0000000E+000	0.0000000E+000	0.0000000E+000	-82.8459	0.0000000E+000	0.0000000E+000	0.0000000E+000	-7.15411	0.0000000E+000	0.0000000E+000	0.0000000E+000	7.15411	7.96713	82.8459	-6.20377e-06	-2.11923e-06	-1.14472e-09	-2.11808e-06	0.245628	28500.1	15.3946	28484.7
1.46631	22.7816	2.49947	22.9183	-6.26112	16.7945	0.245766	-0.00847471	43425.7	516.506	1	11	0.00475796	0.000207605	0	-5.93346e-05	-0.000191801	2.03274e-06	-48.9318	0.00979136	0.00643251	0.00738198	-6.2777	22.9255	22.7881	2.50685	0.0433729	0.00475862	0.0436332	6.26112	516506	4.70775e+06	4.736e+06	-83.7389	0.0000000E+000	0.0000000E+000	0.0000000E+000	83.7389	0.0000000E+000	0.0000000E+000	0.0000000E+000	-83.7389	0.0000000E+000	0.0000000E+000	0.0000000E+000	-6.26112	0.0000000E+000	0.0000000E+000	0.0000000E+000	6.26112	9.1146	83.7389	-5.41872e-06	-2.08279e-06	1.62546e-09	-2.08442e-06	0.245957	28999.9	22.6322	29022.5
1.00006	23.2271	2.28472	23.3392	-5.61781	19.9689	0.24577	-0.00785334	69656	667.506	1	12	0.00475942	0.000203924	0	-6.28042e-05	-9.63451e-05	1.26762e-06	-34.8326	0.00621614	0.00510236	0.00355054	-5.62526	23.3446	23.2322	2.28828	0.0426406	0.00419433	0.0428464	5.61781	667507	6.78603e+06	6.81878e+06	-84.3822	0.0000000E+000	0.0000000E+000	0.0000000E+000	84.3822	0.0000000E+000	0.0000000E+000	0.0000000E+000	-84.3822	0.0000000E+000	0.0000000E+000	0.0000000E+000	-5.61781	0.0000000E+000	0.0000000E+000	0.0000000E+000	5.61781	10.1662	84.3822	-3.4696e-06	-1.93011e-06	7.56631e-10	-1.93087e-06	0.245866	31294.9	12.2681	31307.2
0.681362	23.6022	2.14037	23.6991	-5.1817	23.081	0.24577	-0.00790942	109132	890.16	1	12	0.00475732	0.000200738	0	-6.07257e-05	0.000380935	1.65983e-06	-44.4992	0.00826864	0.0058977	0.00579548	-5.19436	23.7055	23.6081	2.14617	0.0420233	0.00381089	0.0421957	5.1817	890160	9.81594e+06	9.85622e+06	-84.8183	0.0000000E+000	0.0000000E+000	0.0000000E+000	84.8183	0.0000000E+000	0.0000000E+000	0.0000000E+000	-84.8183	0.0000000E+000	0.0000000E+000	0.0000000E+000	-5.1817	0.0000000E+000	0.0000000E+000	0.0000000E+000	5.1817	11.0272	84.8183	2.07849e-06	-1.9439e-06	-3.01298e-09	-1.94088e-06	0.245389	31073	48.1622	31024.9
0.464091	23.9603	2.07421	24.0499	-4.94768	27.6376	0.245758	-0.00716354	165335	1229.82	1	12	0.00475772	0.000197827	0	-5.99832e-05	-3.90715e-05	2.34589e-06	-32.9215	0.0118583	0.00995408	0.00644487	-4.96092	24.0604	23.9703	2.08065	0.0414253	0.00358612	0.0415802	4.94768	1.22982e+06	1.42064e+07	1.42595e+07	-85.0523	0.0000000E+000	0.0000000E+000	0.0000000E+000	85.0523	0.0000000E+000	0.0000000E+000	0.0000000E+000	-85.0523	0.0000000E+000	0.0000000E+000	0.0000000E+000	-4.94768	0.0000000E+000	0.0000000E+000	0.0000000E+000	4.94768	11.5515	85.0523	7.42497e-07	-1.7605e-06	2.7989e-10	-1.76078e-06	0.245797	34306.8	5.45421	34312.2
0.316193	24.3029	2.18418	24.4008	-5.13556	34.311	0.24576	-0.00562377	230451	1846.49	1	12	0.00476134	0.00019513	0	-6.78345e-05	0.000228206	2.20347e-06	35.7581	0.0112923	0.00916363	-0.00659885	-5.11821	24.4094	24.312	2.17758	0.0408177	0.00366842	0.0409822	5.13556	1.84649e+06	2.05455e+07	2.06283e+07	-84.8644	0.0000000E+000	0.0000000E+000	0.0000000E+000	84.8644	0.0000000E+000	0.0000000E+000	0.0000000E+000	-84.8644	0.0000000E+000	0.0000000E+000	0.0000000E+000	-5.13556	0.0000000E+000	0.0000000E+000	0.0000000E+000	5.13556	11.1268	84.8644	-7.85132e-06	-1.38209e-06	-1.28337e-09	-1.38081e-06	0.245531	43700.2	40.5788	43659.6
0.215268	24.6112	2.46317	24.7342	-5.7153	44.1046	0.245752	-0.00469165	300156	2976.73	1	12	0.00475985	0.00019244	0	-9.35319e-05	0.000170932	2.50861e-06	29.413	0.0130358	0.0113555	-0.00640188	-5.69793	24.7449	24.6226	2.45676	0.0402289	0.00402623	0.0404299	5.7153	2.97673e+06	2.97426e+07	2.98912e+07	-84.2847	0.0000000E+000	0.0000000E+000	0.0000000E+000	84.2847	0.0000000E+000	0.0000000E+000	0.0000000E+000	-84.2847	0.0000000E+000	0.0000000E+000	0.0000000E+000	-5.7153	0.0000000E+000	0.0000000E+000	0.0000000E+000	5.7153	9.99171	84.2847	-2.56974e-05	-1.15299e-06	-8.01953e-10	-1.15218e-06	0.245581	52380.7	36.4332	52344.3
0.146929	24.922	2.91438	25.0919	-6.66986	58.4429	0.245747	-0.00427628	371679	5014.1	1	12	0.00475833	0.000189636	0	-0.000145128	0.000285479	3.42626e-06	2.29191	0.0180675	0.0180531	-0.000722535	-6.66343	25.1097	24.9401	2.91365	0.0395838	0.00462892	0.0398536	6.66986	5.0141e+06	4.28776e+07	4.31698e+07	-83.3301	0.0000000E+000	0.0000000E+000	0.0000000E+000	83.3301	0.0000000E+000	0.0000000E+000	0.0000000E+000	-83.3301	0.0000000E+000	0.0000000E+000	0.0000000E+000	-6.66986	0.0000000E+000	0.0000000E+000	0.0000000E+000	6.66986	8.55142	83.3301	-5.15956e-05	-1.05089e-06	-1.22079e-09	-1.04966e-06	0.245462	57467.6	66.7588	57400.8
0.0999041	25.3827	3.55271	25.6302	-7.96769	79.52	0.245747	-0.00469807	448411	8615.78	1	12	0.00475951	0.0001857	0	-0.000221495	0.000247297	3.155e-06	-65.5973	0.0169898	0.00701929	0.015472	-7.99975	25.6393	25.3898	3.56819	0.0386399	0.00540826	0.0390165	7.96769	8.61578e+06	6.15563e+07	6.21564e+07	-82.0323	0.0000000E+000	0.0000000E+000	0.0000000E+000	82.0323	0.0000000E+000	0.0000000E+000	0.0000000E+000	-82.0323	0.0000000E+000	0.0000000E+000	0.0000000E+000	-7.96769	0.0000000E+000	0.0000000E+000	0.0000000E+000	7.96769	7.1446	82.0323	-7.63677e-05	-1.15454e-06	-1.16182e-09	-1.15338e-06	0.2455	52308.2	52.638	52255.6
0.0680626	25.9909	4.51713	26.3806	-9.85932	110.448	0.245751	-0.00522042	517665	15177.7	1	12	0.00476121	0.000180482	0	-0.000310608	-9.63451e-05	3.50679e-06	16.7273	0.0194302	0.018608	-0.00559233	-9.84044	26.3979	26.0096	4.51154	0.0373469	0.00649075	0.0379067	9.85932	1.51777e+07	8.73304e+07	8.86395e+07	-80.1407	0.0000000E+000	0.0000000E+000	0.0000000E+000	80.1407	0.0000000E+000	0.0000000E+000	0.0000000E+000	-80.1407	0.0000000E+000	0.0000000E+000	0.0000000E+000	-9.85932	0.0000000E+000	0.0000000E+000	0.0000000E+000	9.85932	5.75386	80.1407	-8.91125e-05	-1.28292e-06	5.02963e-10	-1.28343e-06	0.245847	47074.8	18.4554	47093.3
0.0464052	26.7392	5.92164	27.387	-12.4871	155.799	0.245766	-0.00532813	579177	27077.3	1	12	0.00476007	0.000173808	0	-0.000376473	0.000266388	1.63795e-06	-7.81243	0.00942394	0.00933647	0.001281	-12.4855	27.3964	26.7485	5.92292	0.0356499	0.00789501	0.0365137	12.4871	2.70773e+07	1.22268e+08	1.2523e+08	-77.5128	0.0000000E+000	0.0000000E+000	0.0000000E+000	77.5128	0.0000000E+000	0.0000000E+000	0.0000000E+000	-77.5128	0.0000000E+000	0.0000000E+000	0.0000000E+000	-12.4871	0.0000000E+000	0.0000000E+000	0.0000000E+000	12.4871	4.5155	77.5128	-6.58652e-05	-1.30947e-06	-1.41935e-09	-1.30805e-06	0.2455	46126.2	49.9966	46076.2
0.0315922	27.5065	7.71203	28.5672	-15.662	222.403	0.245757	-0.00510129	653238	47607.4	1	12	0.00476221	0.000166702	0	-0.000370645	0.00030457	2.92961e-06	2.61132	0.0175739	0.0175557	-0.000800675	-15.6509	28.5839	27.5241	7.71123	0.0337055	0.00945006	0.0350052	15.662	4.76074e+07	1.69801e+08	1.76349e+08	-74.338	0.0000000E+000	0.0000000E+000	0.0000000E+000	74.338	0.0000000E+000	0.0000000E+000	0.0000000E+000	-74.338	0.0000000E+000	0.0000000E+000	0.0000000E+000	-15.662	0.0000000E+000	0.0000000E+000	0.0000000E+000	15.662	3.5667	74.338	5.82836e-06	-1.25368e-06	-1.5537e-09	-1.25213e-06	0.245453	48175.5	59.7045	48115.8
0.0215268	28.6331	9.8934	30.2941	-19.0612	320.142	0.245752	-0.00454495	747301	79702.1	1	12	0.00475825	0.000157068	0	-0.000283387	-0.000210892	1.59546e-06	-19.638	0.0101578	0.00956694	0.00341379	-19.0614	30.3043	28.6427	9.89681	0.0311998	0.0107802	0.0330097	19.0612	7.97021e+07	2.30671e+08	2.44052e+08	-70.9388	0.0000000E+000	0.0000000E+000	0.0000000E+000	70.9388	0.0000000E+000	0.0000000E+000	0.0000000E+000	-70.9388	0.0000000E+000	0.0000000E+000	0.0000000E+000	-19.0612	0.0000000E+000	0.0000000E+000	0.0000000E+000	19.0612	2.89416	70.9388	8.72579e-05	-1.11693e-06	9.58495e-10	-1.11789e-06	0.245963	54071.6	46.4015	54118
0.0146812	30.4602	12.9728	33.1076	-23.0688	463.443	0.24575	-0.00406593	835655	128302	1	12	0.00475966	0.000143763	0	-0.000207722	3.72934e-05	1.82373e-06	-15.4709	0.0126857	0.012226	0.00338388	-23.0659	33.1202	30.4724	12.9761	0.0277892	0.0118352	0.0302045	23.0688	1.28302e+08	3.01256e+08	3.27439e+08	-66.9312	0.0000000E+000	0.0000000E+000	0.0000000E+000	66.9312	0.0000000E+000	0.0000000E+000	0.0000000E+000	-66.9312	0.0000000E+000	0.0000000E+000	0.0000000E+000	-23.0688	0.0000000E+000	0.0000000E+000	0.0000000E+000	23.0688	2.34801	66.9312	7.5665e-05	-9.99203e-07	-1.51632e-10	-9.99051e-07	0.245713	60441.2	9.17215	60432
0.0100092	32.7272	17.3085	37.0224	-27.8731	673.625	0.24575	-0.0039633	918676	200795	1	12	0.00475797	0.000128516	0	-0.000354772	0.000151841	7.0336e-07	56.4647	0.00547293	0.00302352	-0.00456194	-27.8647	37.0229	32.7302	17.3039	0.0238771	0.0126279	0.0270107	27.8731	2.00795e+08	3.79667e+08	4.29495e+08	-62.1269	0.0000000E+000	0.0000000E+000	0.0000000E+000	62.1269	0.0000000E+000	0.0000000E+000	0.0000000E+000	-62.1269	0.0000000E+000	0.0000000E+000	0.0000000E+000	-27.8731	0.0000000E+000	0.0000000E+000	0.0000000E+000	27.8731	1.89082	62.1269	-0.00014705	-9.73981e-07	-6.0179e-10	-9.7338e-07	0.245598	62006.4	38.3117	61968.1