File: txt/18934_R306_UA703_SOC00_C01.mpt
EC-Lab ASCII FILE
Nb header lines : 66

Potentio Electrochemical Impedance Spectroscopy

Run on channel : 1 (SN 66354)
Grouped channel(s) : 1, 2, 3, 4, 5
User :
CE vs. WE compliance from -10 V to 10 V
Electrode connection : standard
Potential control : Ewe
Ewe ctrl range : min = -10.00 V, max = 10.00 V
Safety Limits :
	Do not start on E overload
Acquisition started on : 11/04/2025 15:05:27.163
Technique started on : 11/04/2025 15:05:29.075
Loaded Setting File :  C:\Users\Celltest\OneDrive - store-dot.com\Documents\EC-Lab\Data\@Biologic Test Protocols\anode half cell EIS SOC00.mps
Saved on :
	File : 18934_R306_UA703_SOC00_C01.mpr
	Directory : C:\Users\Celltest\OneDrive - store-dot.com\Documents\EC-Lab\Data\Charmaine\
	Host : 169.254.61.224
Device : VMP-3e (SN .003165)
Address : USB
EC-LAB for windows v11.62 (software)
Internet server v27.00 (firmware)
Command interpretor v12.03 (firmware)
Electrode material :
Initial state :
Electrolyte :
Comments :
Electrode surface area : 0.001 cm²
Characteristic mass : 0.001 g
Equivalent Weight : 0.000 g/eq.
Density : 0.000 g/cm3
Volume (V) : 0.001 cm³
Record Ece
Cycle Definition : Charge/Discharge alternance
Mode                Single sine
E (V)               0.0000
vs.                 Eoc
tE (h:m:s)          0:00:0.0000
record              0
dI                  0.000
unit dI             mA
dt (s)              0.000
fi                  100.000
unit fi             kHz
ff                  10.000
unit ff             mHz
Nd                  6
Points              per decade
spacing             Logarithmic
Va (mV)             5.0
pw                  0.10
Na                  2
corr                0
E range min (V)     -10.000
E range max (V)     10.000
I Range             Auto
Bandwidth           5
nc cycles           0
goto Ns'            0
nr cycles           0
inc. cycle          0

freq/Hz	Re(Z)/Ohm	-Im(Z)/Ohm	|Z|/Ohm	Phase(Z)/deg	time/s	<Ewe>/V	<I>/mA	Cs/µF	Cp/µF	cycle number	I Range	|Ewe|/V	|I|/A	Ns	(Q-Qo)/mA.h	<Ece>/V	|Ece|/V	Phase(Zce)/deg	|Zce|/Ohm	Re(Zce)/Ohm	-Im(Zce)/Ohm	Phase(Zwe-ce)/deg	|Zwe-ce|/Ohm	Re(Zwe-ce)/Ohm	-Im(Zwe-ce)/Ohm	Re(Y)/Ohm-1	Im(Y)/Ohm-1	|Y|/Ohm-1	Phase(Y)/deg	Re(C)/nF	Im(C)/nF	|C|/nF	Phase(C)/deg	Re(M)	Im(M)	|M|	Phase(M)/deg	Re(Permittivity)	Im(Permittivity)	|Permittivity|	Phase(Permittivity)/deg	Re(Resistivity)/Ohm.cm	Im(Resistivity)/Ohm.cm	|Resistivity|/Ohm.cm	Phase(Resistivity)/deg	Re(Conductivity)/mS/cm	Im(Conductivity)/mS/cm	|Conductivity|/mS/cm	Phase(Conductivity)/deg	Tan(Delta)	Loss Angle(Delta)/deg	dq/mA.h	Pwe/W	Pce/W	Pwe-ce/W	<Ewe-Ece>/V	Rwe/Ohm	Rce/Ohm	Rwe-ce/Ohm		Ewe-Ece/V
100004	1.71093	0.656148	1.83244	-20.982	1.91156	0.250846	0.0578514	2.4255	0.310991	1	9	0.00455317	0.00248476	0	2.68316e-06	0.000315732	3.6489e-05	102.698	0.0146851	-0.00322798	-0.0143259	-20.5982	1.82433	1.70771	0.641822	0.509536	0.195409	0.545721	20.982	310.991	810.922	868.51	-69.018	0.0000000E+000	0.0000000E+000	0.0000000E+000	69.018	0.0000000E+000	0.0000000E+000	0.0000000E+000	-69.018	0.0000000E+000	0.0000000E+000	0.0000000E+000	-20.982	0.0000000E+000	0.0000000E+000	0.0000000E+000	20.982	2.60754	69.018	2.68316e-06	1.45118e-05	1.82655e-08	1.44935e-05	0.25053	4336.03	5.45764	4330.57
68132	1.89276	0.776981	2.04603	-22.3182	2.42053	0.250863	0.0609808	3.00648	0.433564	1	9	0.0050809	0.00248329	0	9.17103e-06	0.000277577	3.06016e-05	91.0533	0.012323	-0.000226518	-0.0123209	-22.0007	2.04118	1.89254	0.76466	0.452138	0.185603	0.488751	22.3182	433.564	1056.18	1141.71	-67.6818	0.0000000E+000	0.0000000E+000	0.0000000E+000	67.6818	0.0000000E+000	0.0000000E+000	0.0000000E+000	-67.6818	0.0000000E+000	0.0000000E+000	0.0000000E+000	-22.3182	0.0000000E+000	0.0000000E+000	0.0000000E+000	22.3182	2.43605	67.6818	6.48787e-06	1.52978e-05	1.69269e-08	1.52809e-05	0.250586	4113.81	4.55188	4109.25
46420.4	2.11465	0.893886	2.29582	-22.9143	2.92957	0.250863	0.0616141	3.83557	0.581459	1	9	0.00503693	0.00219396	0	3.02262e-05	-6.58141e-05	2.19033e-05	45.7176	0.00998343	0.00697038	-0.00714721	-22.6827	2.29947	2.12162	0.886739	0.401203	0.169593	0.435575	22.9143	581.459	1375.55	1493.39	-67.0857	0.0000000E+000	0.0000000E+000	0.0000000E+000	67.0857	0.0000000E+000	0.0000000E+000	0.0000000E+000	-67.0857	0.0000000E+000	0.0000000E+000	0.0000000E+000	-22.9143	0.0000000E+000	0.0000000E+000	0.0000000E+000	22.9143	2.36568	67.0857	2.10552e-05	1.54567e-05	-4.05508e-09	1.54608e-05	0.250929	4071.52	1.06817	4072.59
31621.1	2.34034	0.991012	2.54152	-22.9501	3.43657	0.250876	0.0673885	5.07883	0.772209	1	9	0.00495322	0.00194892	0	4.30901e-05	-8.58219e-06	1.30878e-05	13.6807	0.00671538	0.00652486	-0.00158826	-22.86	2.54691	2.34687	0.989424	0.362321	0.153424	0.393466	22.9501	772.209	1823.63	1980.38	-67.0499	0.0000000E+000	0.0000000E+000	0.0000000E+000	67.0499	0.0000000E+000	0.0000000E+000	0.0000000E+000	-67.0499	0.0000000E+000	0.0000000E+000	0.0000000E+000	-22.9501	0.0000000E+000	0.0000000E+000	0.0000000E+000	22.9501	2.36157	67.0499	1.28639e-05	1.69061e-05	-5.78341e-10	1.69067e-05	0.250884	3722.83	0.127354	3722.95
21544.7	2.5965	1.09402	2.81757	-22.8478	3.81955	0.250859	0.0587455	6.75235	1.01802	1	9	0.0049465	0.00175559	0	5.09459e-05	0.000163114	1.1306e-05	-119.118	0.00644002	-0.00313376	0.00562613	-22.978	2.81687	2.59337	1.09964	0.327069	0.137808	0.354916	22.8478	1018.02	2416.12	2621.83	-67.1522	0.0000000E+000	0.0000000E+000	0.0000000E+000	67.1522	0.0000000E+000	0.0000000E+000	0.0000000E+000	-67.1522	0.0000000E+000	0.0000000E+000	0.0000000E+000	-22.8478	0.0000000E+000	0.0000000E+000	0.0000000E+000	22.8478	2.37336	67.1522	7.85576e-06	1.47369e-05	9.58219e-09	1.47273e-05	0.250696	4270.27	2.77661	4267.5
14678.6	2.88042	1.19317	3.11777	-22.5011	4.20256	0.250873	0.0623219	9.08725	1.33092	1	9	0.0048524	0.00155637	0	5.6433e-05	0.000277577	1.04096e-05	15.7978	0.00668836	0.00643573	-0.00182086	-22.425	3.12302	2.88686	1.19135	0.296325	0.122748	0.320742	22.5011	1330.92	3212.95	3477.69	-67.4989	0.0000000E+000	0.0000000E+000	0.0000000E+000	67.4989	0.0000000E+000	0.0000000E+000	0.0000000E+000	-67.4989	0.0000000E+000	0.0000000E+000	0.0000000E+000	-22.5011	0.0000000E+000	0.0000000E+000	0.0000000E+000	22.5011	2.41409	67.4989	5.4871e-06	1.56349e-05	1.72992e-08	1.56176e-05	0.250596	4025.44	4.45393	4020.99
10002.2	3.16388	1.28701	3.41563	-22.1357	4.58552	0.250853	0.0623219	12.3635	1.75535	1	9	0.00490427	0.00143583	0	6.19774e-05	-8.58219e-06	9.94538e-06	-116.825	0.00692657	-0.00312579	0.00618117	-22.2515	3.41507	3.16076	1.2932	0.271192	0.110317	0.292771	22.1357	1755.35	4315.2	4658.56	-67.8643	0.0000000E+000	0.0000000E+000	0.0000000E+000	67.8643	0.0000000E+000	0.0000000E+000	0.0000000E+000	-67.8643	0.0000000E+000	0.0000000E+000	0.0000000E+000	-22.1357	0.0000000E+000	0.0000000E+000	0.0000000E+000	22.1357	2.45831	67.8643	5.54436e-06	1.56336e-05	-5.34858e-10	1.56342e-05	0.250861	4025.12	0.137707	4025.25
6810.42	3.45655	1.42211	3.73767	-22.3634	4.84456	0.250863	0.0580377	16.4329	2.37891	1	9	0.00475462	0.00127208	0	6.4674e-05	0.0002585	2.32939e-05	-20.8215	0.0183117	0.0171158	0.00650902	-22.3559	3.75597	3.47367	1.42862	0.247424	0.101796	0.267547	22.3634	2378.91	5782.13	6252.38	-67.6366	0.0000000E+000	0.0000000E+000	0.0000000E+000	67.6366	0.0000000E+000	0.0000000E+000	0.0000000E+000	-67.6366	0.0000000E+000	0.0000000E+000	0.0000000E+000	-22.3634	0.0000000E+000	0.0000000E+000	0.0000000E+000	22.3634	2.43058	67.6366	2.69669e-06	1.45595e-05	1.50027e-08	1.45445e-05	0.250604	4322.41	4.45401	4317.96
4646	3.79617	1.58593	4.11413	-22.6738	5.26761	0.250853	-0.0158511	21.6001	3.20973	1	10	0.00483816	0.00117599	0	6.42924e-05	1.04951e-05	6.90463e-06	-94.7236	0.00587135	-0.000483499	0.00585141	-22.7515	4.11595	3.79569	1.59178	0.224279	0.0936974	0.243064	22.6738	3209.73	7682.98	8326.5	-67.3262	0.0000000E+000	0.0000000E+000	0.0000000E+000	67.3262	0.0000000E+000	0.0000000E+000	0.0000000E+000	-67.3262	0.0000000E+000	0.0000000E+000	0.0000000E+000	-22.6738	0.0000000E+000	0.0000000E+000	0.0000000E+000	22.6738	2.39366	67.3262	-3.81688e-07	-3.9763e-06	-1.66359e-10	-3.97614e-06	0.250843	15825.6	0.662107	15824.9
3163.08	4.15567	1.77202	4.51771	-23.0939	5.64167	0.250792	-0.0184488	28.3949	4.36862	1	10	0.00477862	0.00105775	0	6.33866e-05	0.000239423	1.26484e-05	107.959	0.0119577	-0.00368702	-0.0113751	-22.9794	4.50986	4.15198	1.76065	0.203613	0.0868228	0.221351	23.0939	4368.62	10245.1	11137.6	-66.9061	0.0000000E+000	0.0000000E+000	0.0000000E+000	66.9061	0.0000000E+000	0.0000000E+000	0.0000000E+000	-66.9061	0.0000000E+000	0.0000000E+000	0.0000000E+000	-23.0939	0.0000000E+000	0.0000000E+000	0.0000000E+000	23.0939	2.34515	66.9061	-9.05737e-07	-4.62681e-06	-4.41706e-09	-4.62239e-06	0.250552	13593.9	12.9777	13581
2155.69	4.55072	1.99686	4.96956	-23.6919	6.09277	0.250804	-0.00799845	36.973	5.96961	1	10	0.00470663	0.000947091	0	6.24087e-05	6.7727e-05	7.39073e-06	49.8018	0.00780361	0.00503672	-0.00596052	-23.6057	4.97179	4.55576	1.9909	0.184265	0.080856	0.201225	23.6919	5969.61	13604.4	14856.5	-66.3081	0.0000000E+000	0.0000000E+000	0.0000000E+000	66.3081	0.0000000E+000	0.0000000E+000	0.0000000E+000	-66.3081	0.0000000E+000	0.0000000E+000	0.0000000E+000	-23.6919	0.0000000E+000	0.0000000E+000	0.0000000E+000	23.6919	2.27893	66.3081	-9.7788e-07	-2.00604e-06	-5.41711e-10	-2.0055e-06	0.250736	31356.6	8.46752	31348.1
1468.59	5.00115	2.27075	5.49252	-24.4202	6.54412	0.250798	-0.00889664	47.7255	8.15728	1	10	0.00466328	0.000849025	0	6.19111e-05	0.000277577	7.90632e-06	58.7182	0.00931224	0.00483536	-0.00795846	-24.3238	5.49364	5.00598	2.26279	0.165778	0.0752707	0.182066	24.4202	8157.28	17965.8	19731	-65.5798	0.0000000E+000	0.0000000E+000	0.0000000E+000	65.5798	0.0000000E+000	0.0000000E+000	0.0000000E+000	-65.5798	0.0000000E+000	0.0000000E+000	0.0000000E+000	-24.4202	0.0000000E+000	0.0000000E+000	0.0000000E+000	24.4202	2.20242	65.5798	-4.97629e-07	-2.23126e-06	-2.46951e-09	-2.22879e-06	0.25052	28190.2	31.2002	28159
1000.32	5.49579	2.58803	6.07466	-25.2163	6.99482	0.250798	-0.00830407	61.477	11.1585	1	10	0.00462795	0.000761845	0	6.0366e-05	0.000163114	9.9849e-06	-38.3601	0.0131062	0.0102769	0.00813373	-25.2443	6.08743	5.50606	2.59616	0.148931	0.0701333	0.164618	25.2163	11158.5	23695.5	26191.4	-64.7837	0.0000000E+000	0.0000000E+000	0.0000000E+000	64.7837	0.0000000E+000	0.0000000E+000	0.0000000E+000	-64.7837	0.0000000E+000	0.0000000E+000	0.0000000E+000	-25.2163	0.0000000E+000	0.0000000E+000	0.0000000E+000	25.2163	2.12354	64.7837	-1.54512e-06	-2.08265e-06	-1.35451e-09	-2.08129e-06	0.250635	30201.9	19.6426	30182.2
681.09	6.06817	2.99389	6.76654	-26.2606	7.44458	0.250803	-0.00827425	78.0512	15.2798	1	10	0.00461058	0.000681379	0	5.96522e-05	2.95724e-05	9.28727e-06	38.4915	0.0136301	0.0106683	-0.00848336	-26.1563	6.77237	6.07884	2.98541	0.132533	0.0653887	0.147786	26.2606	15279.8	30969.9	34534.2	-63.7394	0.0000000E+000	0.0000000E+000	0.0000000E+000	63.7394	0.0000000E+000	0.0000000E+000	0.0000000E+000	-63.7394	0.0000000E+000	0.0000000E+000	0.0000000E+000	-26.2606	0.0000000E+000	0.0000000E+000	0.0000000E+000	26.2606	2.02685	63.7394	-7.13814e-07	-2.0752e-06	-2.4469e-10	-2.07496e-06	0.250773	30311.2	3.57403	30307.6
463.961	6.69375	3.51159	7.55894	-27.6818	7.89631	0.250792	-0.00906809	97.6866	21.0825	1	10	0.0045943	0.000607796	0	5.88531e-05	-2.76595e-05	1.30242e-05	-35.9738	0.0214285	0.0173418	0.0125874	-27.7052	7.58014	6.71109	3.52418	0.117152	0.0614586	0.132294	27.6818	21082.5	40187.1	45381.4	-62.3182	0.0000000E+000	0.0000000E+000	0.0000000E+000	62.3182	0.0000000E+000	0.0000000E+000	0.0000000E+000	-62.3182	0.0000000E+000	0.0000000E+000	0.0000000E+000	-27.6818	0.0000000E+000	0.0000000E+000	0.0000000E+000	27.6818	1.90619	62.3182	-7.99087e-07	-2.27421e-06	2.50819e-10	-2.27446e-06	0.25082	27656.6	3.0502	27659.6
316.316	7.48526	4.17552	8.57112	-29.1542	8.34403	0.250796	-0.00828171	120.5	28.5979	1	10	0.00457597	0.000533883	0	5.73558e-05	0.000220346	7.12304e-06	-24.4787	0.0133419	0.0121427	0.0055283	-29.1469	8.58442	7.4974	4.18105	0.10189	0.0568376	0.116671	29.1542	28597.9	51266.2	58703.2	-60.8458	0.0000000E+000	0.0000000E+000	0.0000000E+000	60.8458	0.0000000E+000	0.0000000E+000	0.0000000E+000	-60.8458	0.0000000E+000	0.0000000E+000	0.0000000E+000	-29.1542	0.0000000E+000	0.0000000E+000	0.0000000E+000	29.1542	1.79265	60.8458	-1.49728e-06	-2.07702e-06	-1.82484e-09	-2.0752e-06	0.250576	30283.2	26.6063	30256.6
215.345	8.47836	4.95287	9.81904	-30.2925	8.79357	0.250786	-0.00991038	149.221	37.9669	1	10	0.00456838	0.000465258	0	5.5805e-05	0.000182191	1.20435e-05	43.5773	0.0258857	0.0187528	-0.0178439	-30.1475	9.82627	8.49712	4.93503	0.0879374	0.0513711	0.101843	30.2925	37966.9	64992	75269.2	-59.7075	0.0000000E+000	0.0000000E+000	0.0000000E+000	59.7075	0.0000000E+000	0.0000000E+000	0.0000000E+000	-59.7075	0.0000000E+000	0.0000000E+000	0.0000000E+000	-30.2925	0.0000000E+000	0.0000000E+000	0.0000000E+000	30.2925	1.71181	59.7075	-1.55078e-06	-2.48539e-06	-1.80558e-09	-2.48358e-06	0.250604	25305.4	18.3838	25287
146.737	9.79034	5.8294	11.3944	-30.7706	9.23847	0.250788	-0.00979858	186.061	48.6989	1	10	0.00457159	0.000401213	0	5.41815e-05	-2.76595e-05	1.1732e-05	-65.2687	0.0292412	0.0122335	0.0265592	-30.8537	11.4185	9.80257	5.85596	0.0754074	0.0448994	0.0877623	30.7706	48698.9	81788.6	95189.1	-59.2294	0.0000000E+000	0.0000000E+000	0.0000000E+000	59.2294	0.0000000E+000	0.0000000E+000	0.0000000E+000	-59.2294	0.0000000E+000	0.0000000E+000	0.0000000E+000	-30.7706	0.0000000E+000	0.0000000E+000	0.0000000E+000	30.7706	1.67948	59.2294	-1.62352e-06	-2.45736e-06	2.71024e-10	-2.45763e-06	0.250815	25594.3	2.82281	25597.1
100.032	11.3945	6.70637	13.2215	-30.4796	9.68979	0.250792	-0.00942961	237.243	61.0386	1	10	0.00456286	0.000345108	0	5.35033e-05	-8.58219e-06	1.10208e-05	-119.633	0.0319344	-0.0157896	0.0277577	-30.6179	13.222	11.3787	6.73413	0.0651823	0.038364	0.0756342	30.4796	61038.7	103708	120337	-59.5204	0.0000000E+000	0.0000000E+000	0.0000000E+000	59.5204	0.0000000E+000	0.0000000E+000	0.0000000E+000	-59.5204	0.0000000E+000	0.0000000E+000	0.0000000E+000	-30.4796	0.0000000E+000	0.0000000E+000	0.0000000E+000	30.4796	1.69905	59.5204	-6.78224e-07	-2.36487e-06	8.09267e-11	-2.36495e-06	0.250801	26596.2	0.910132	26597.1
68.104	13.3924	7.44235	15.3214	-29.0616	10.1525	0.250795	-0.00595238	314.005	74.0907	1	10	0.00456182	0.000297742	0	5.29921e-05	0.000124959	3.93723e-06	75.6804	0.0132236	0.00327061	-0.0128128	-29.0138	15.318	13.3956	7.42954	0.0570509	0.0317041	0.0652684	29.0616	74090.6	133325	152528	-60.9384	0.0000000E+000	0.0000000E+000	0.0000000E+000	60.9384	0.0000000E+000	0.0000000E+000	0.0000000E+000	-60.9384	0.0000000E+000	0.0000000E+000	0.0000000E+000	-29.0616	0.0000000E+000	0.0000000E+000	0.0000000E+000	29.0616	1.79948	60.9384	-5.1119e-07	-1.49283e-06	-7.43803e-10	-1.49208e-06	0.25067	42133.6	20.9931	42112.6
46.4415	15.6783	7.79333	17.5085	-26.4309	10.5887	0.250775	-0.0141144	439.735	87.1246	1	10	0.00455874	0.000260374	0	5.12593e-05	-0.000123046	6.46867e-06	-5.92297	0.0248438	0.0247111	0.00256366	-26.4024	17.5317	15.703	7.79589	0.0511451	0.025423	0.0571153	26.4309	87124.6	175274	195734	-63.5691	0.0000000E+000	0.0000000E+000	0.0000000E+000	63.5691	0.0000000E+000	0.0000000E+000	0.0000000E+000	-63.5691	0.0000000E+000	0.0000000E+000	0.0000000E+000	-26.4309	0.0000000E+000	0.0000000E+000	0.0000000E+000	26.4309	2.01176	63.5691	-1.73279e-06	-3.53953e-06	1.73672e-09	-3.54127e-06	0.250898	17767.3	8.71778	17776.1
31.6296	18.1197	7.87773	19.7581	-23.4975	11.2526	0.250845	-0.00610391	638.743	101.54	1	11	0.00456601	0.000231096	0	4.9495e-05	0.000277577	1.08922e-05	-41.2406	0.0471327	0.0354414	0.0310709	-23.5391	19.803	18.1551	7.9088	0.0464153	0.0201795	0.0506122	23.4975	101540	233554	254673	-66.5025	0.0000000E+000	0.0000000E+000	0.0000000E+000	66.5025	0.0000000E+000	0.0000000E+000	0.0000000E+000	-66.5025	0.0000000E+000	0.0000000E+000	0.0000000E+000	-23.4975	0.0000000E+000	0.0000000E+000	0.0000000E+000	23.4975	2.30012	66.5025	-1.76433e-06	-1.53114e-06	-1.69431e-09	-1.52944e-06	0.250568	41095.9	45.4754	41050.4
21.5517	20.3195	7.53407	21.6713	-20.3438	11.6744	0.250841	-0.00587191	980.185	118.468	1	11	0.00455433	0.000210155	0	4.86994e-05	4.86497e-05	6.40683e-06	130.196	0.0304862	-0.0196759	-0.0232866	-20.3041	21.6447	20.2998	7.51079	0.0432657	0.0160421	0.046144	20.3438	118468	319508	340764	-69.6562	0.0000000E+000	0.0000000E+000	0.0000000E+000	69.6562	0.0000000E+000	0.0000000E+000	0.0000000E+000	-69.6562	0.0000000E+000	0.0000000E+000	0.0000000E+000	-20.3438	0.0000000E+000	0.0000000E+000	0.0000000E+000	20.3438	2.69701	69.6562	-7.95587e-07	-1.47291e-06	-2.85667e-10	-1.47263e-06	0.250792	42718.8	8.28517	42710.5
14.6852	22.3472	7.0158	23.4226	-17.4295	12.1351	0.250843	-0.00528129	1544.77	138.596	1	11	0.00456191	0.000194765	0	4.72195e-05	0.000124959	1.33927e-06	6.29278	0.00687633	0.0068349	-0.000753709	-17.4227	23.4289	22.354	7.01505	0.0407336	0.0127881	0.0426938	17.4295	138596	441463	462708	-72.5705	0.0000000E+000	0.0000000E+000	0.0000000E+000	72.5705	0.0000000E+000	0.0000000E+000	0.0000000E+000	-72.5705	0.0000000E+000	0.0000000E+000	0.0000000E+000	-17.4295	0.0000000E+000	0.0000000E+000	0.0000000E+000	17.4295	3.18526	72.5705	-1.47987e-06	-1.32478e-06	-6.59945e-10	-1.32412e-06	0.250718	47496.6	23.6607	47472.9
10.0032	24.0653	6.3853	24.898	-14.86	12.5859	0.250849	-0.00528911	2491.72	163.882	1	11	0.00456118	0.000183195	0	4.66131e-05	0.000239423	1.27304e-05	95.6871	0.0694911	-0.00688624	-0.069149	-14.7101	24.8737	24.0584	6.31615	0.0388206	0.0103003	0.0401638	14.86	163882	617651	639023	-75.14	0.0000000E+000	0.0000000E+000	0.0000000E+000	75.14	0.0000000E+000	0.0000000E+000	0.0000000E+000	-75.14	0.0000000E+000	0.0000000E+000	0.0000000E+000	-14.86	0.0000000E+000	0.0000000E+000	0.0000000E+000	14.86	3.76887	75.14	-6.06386e-07	-1.32677e-06	-1.26633e-09	-1.3255e-06	0.25061	47427.4	45.2671	47382.2
6.81719	25.5743	5.7147	26.205	-12.5961	12.9255	0.250859	-0.00424754	4085.28	194.285	1	11	0.00455931	0.000173986	0	4.54173e-05	0.000430196	3.25762e-06	-81.984	0.0187235	0.00261099	0.0185405	-12.6344	26.2116	25.5769	5.73324	0.0372422	0.00832193	0.0381606	12.5961	194285	869460	890902	-77.4039	0.0000000E+000	0.0000000E+000	0.0000000E+000	77.4039	0.0000000E+000	0.0000000E+000	0.0000000E+000	-77.4039	0.0000000E+000	0.0000000E+000	0.0000000E+000	-12.5961	0.0000000E+000	0.0000000E+000	0.0000000E+000	12.5961	4.47518	77.4039	-1.19582e-06	-1.06553e-06	-1.82727e-09	-1.0637e-06	0.250429	59059.8	101.281	58958.5
4.63925	26.794	5.12858	27.2804	-10.8358	13.4094	0.250852	-0.00463743	6689.22	236.411	1	11	0.00455559	0.000166991	0	4.66652e-05	0.000182191	1.40893e-05	-107.124	0.0843715	-0.0248431	0.0806311	-11.012	27.2713	26.7692	5.20921	0.0360028	0.0068912	0.0366563	10.8358	236411	1.23512e+06	1.25754e+06	-79.1642	0.0000000E+000	0.0000000E+000	0.0000000E+000	79.1642	0.0000000E+000	0.0000000E+000	0.0000000E+000	-79.1642	0.0000000E+000	0.0000000E+000	0.0000000E+000	-10.8358	0.0000000E+000	0.0000000E+000	0.0000000E+000	10.8358	5.22445	79.1642	1.24791e-06	-1.16331e-06	-8.44898e-10	-1.16247e-06	0.25067	54093	39.287	54053.7
3.1604	28.0001	4.63731	28.3815	-9.40384	14.1024	0.250866	-0.00336292	10859.6	289.917	1	11	0.00456212	0.000160743	0	4.68316e-05	0.000315732	6.12933e-06	40.1433	0.0381313	0.0291489	-0.0245833	-9.34531	28.4062	28.0292	4.61273	0.0347607	0.00575699	0.0352342	9.40384	289918	1.75052e+06	1.77437e+06	-80.5962	0.0000000E+000	0.0000000E+000	0.0000000E+000	80.5962	0.0000000E+000	0.0000000E+000	0.0000000E+000	-80.5962	0.0000000E+000	0.0000000E+000	0.0000000E+000	-9.40384	0.0000000E+000	0.0000000E+000	0.0000000E+000	9.40384	6.038	80.5962	1.66418e-07	-8.43642e-07	-1.06178e-09	-8.4258e-07	0.25055	74597.6	93.8862	74503.7
2.15577	28.996	4.20307	29.2991	-8.24777	15.106	0.250861	-0.00283152	17565.1	361.474	1	11	0.00455847	0.000155584	0	4.40582e-05	0.000124959	4.87149e-06	1.84886	0.031311	0.0312947	-0.00101019	-8.23704	29.3299	29.0273	4.20206	0.0337778	0.0048962	0.0341308	8.24777	361474	2.49373e+06	2.51979e+06	-81.7522	0.0000000E+000	0.0000000E+000	0.0000000E+000	81.7522	0.0000000E+000	0.0000000E+000	0.0000000E+000	-81.7522	0.0000000E+000	0.0000000E+000	0.0000000E+000	-8.24777	0.0000000E+000	0.0000000E+000	0.0000000E+000	8.24777	6.89877	81.7522	-2.77347e-06	-7.10317e-07	-3.53824e-10	-7.09963e-07	0.250736	88595.8	44.1314	88551.7
1.46631	29.876	3.72103	30.1069	-7.09957	16.5675	0.250851	-0.00284865	29169.6	445.581	1	11	0.00456187	0.000151523	0	3.93362e-05	8.68044e-05	2.93215e-06	28.8362	0.0193512	0.0169517	-0.00933321	-7.07797	30.1225	29.893	3.7117	0.0329604	0.00410518	0.033215	7.09957	445581	3.57756e+06	3.6052e+06	-82.9004	0.0000000E+000	0.0000000E+000	0.0000000E+000	82.9004	0.0000000E+000	0.0000000E+000	0.0000000E+000	-82.9004	0.0000000E+000	0.0000000E+000	0.0000000E+000	-7.09957	0.0000000E+000	0.0000000E+000	0.0000000E+000	7.09957	8.02896	82.9004	-4.722e-06	-7.14586e-07	-2.47275e-10	-7.14339e-07	0.250764	88059.8	30.4721	88029.3
1.00006	30.6393	3.40015	30.8274	-6.3324	19.7419	0.250861	-0.00354055	46805.2	569.399	1	12	0.00456761	0.000148167	0	3.42512e-05	0.000201268	3.30495e-06	-12.4772	0.0223055	0.0217787	0.00481913	-6.33683	30.8496	30.6611	3.40497	0.0322408	0.00357787	0.0324387	6.3324	569399	5.13095e+06	5.16245e+06	-83.6676	0.0000000E+000	0.0000000E+000	0.0000000E+000	83.6676	0.0000000E+000	0.0000000E+000	0.0000000E+000	-83.6676	0.0000000E+000	0.0000000E+000	0.0000000E+000	-6.3324	0.0000000E+000	0.0000000E+000	0.0000000E+000	6.3324	9.01117	83.6676	-5.08494e-06	-8.88184e-07	-7.126e-10	-8.87472e-07	0.25066	70853.7	56.8466	70796.8
0.681362	31.297	3.13814	31.4539	-5.72589	22.8541	0.25086	-0.00408284	74433.8	740.909	1	12	0.00456691	0.000145194	0	3.37503e-05	0.000105882	3.15644e-06	-12.9745	0.0217395	0.0211845	0.00488091	-5.73089	31.4755	31.3181	3.14302	0.0316339	0.00317193	0.0317926	5.72589	740909	7.38916e+06	7.42622e+06	-84.2741	0.0000000E+000	0.0000000E+000	0.0000000E+000	84.2741	0.0000000E+000	0.0000000E+000	0.0000000E+000	-84.2741	0.0000000E+000	0.0000000E+000	0.0000000E+000	-5.72589	0.0000000E+000	0.0000000E+000	0.0000000E+000	5.72589	9.9731	84.2741	-5.00967e-07	-1.02422e-06	-4.32298e-10	-1.02379e-06	0.250754	61442.4	25.9333	61416.5
0.464091	31.8191	2.99687	31.9599	-5.38052	27.4096	0.250855	-0.00406359	114432	1006.18	1	12	0.00456577	0.00014286	0	3.731e-05	0.000353887	2.1085e-06	67.6486	0.0147593	0.00561274	-0.0136504	-5.35522	31.9642	31.8247	2.98322	0.0311514	0.00293399	0.0312892	5.38052	1.00618e+06	1.0683e+07	1.07303e+07	-84.6195	0.0000000E+000	0.0000000E+000	0.0000000E+000	84.6195	0.0000000E+000	0.0000000E+000	0.0000000E+000	-84.6195	0.0000000E+000	0.0000000E+000	0.0000000E+000	-5.38052	0.0000000E+000	0.0000000E+000	0.0000000E+000	5.38052	10.6174	84.6195	3.55978e-06	-1.01937e-06	-1.43805e-09	-1.01793e-06	0.250501	61732.4	87.0872	61645.3
0.316193	32.3155	2.99279	32.4538	-5.29117	34.084	0.250858	-0.0034778	168187	1430.26	1	12	0.00456608	0.000140695	0	4.25159e-05	-2.76595e-05	1.86319e-06	-24.9102	0.0132427	0.0120107	0.00557779	-5.29901	32.4662	32.3275	2.99837	0.0306818	0.00284149	0.0308131	5.29117	1.43026e+06	1.54436e+07	1.55097e+07	-84.7088	0.0000000E+000	0.0000000E+000	0.0000000E+000	84.7088	0.0000000E+000	0.0000000E+000	0.0000000E+000	-84.7088	0.0000000E+000	0.0000000E+000	0.0000000E+000	-5.29117	0.0000000E+000	0.0000000E+000	0.0000000E+000	5.29117	10.7978	84.7088	5.20585e-06	-8.72435e-07	9.61942e-11	-8.72531e-07	0.250886	72131.4	7.95316	72139.3
0.215268	32.8182	3.2198	32.9758	-5.60336	43.8775	0.250855	-0.00277314	229621	2189.17	1	12	0.0045665	0.00013848	0	4.30709e-05	0.000411119	2.6657e-06	-16.5295	0.0192497	0.0184541	0.00547671	-5.6097	32.9947	32.8366	3.22527	0.0301804	0.002961	0.0303253	5.60336	2.18917e+06	2.23134e+07	2.24205e+07	-84.3966	0.0000000E+000	0.0000000E+000	0.0000000E+000	84.3966	0.0000000E+000	0.0000000E+000	0.0000000E+000	-84.3966	0.0000000E+000	0.0000000E+000	0.0000000E+000	-5.60336	0.0000000E+000	0.0000000E+000	0.0000000E+000	5.60336	10.1926	84.3966	5.55029e-07	-6.95655e-07	-1.14009e-09	-6.94515e-07	0.250444	90458.7	148.25	90310.5
0.146929	33.3529	3.71457	33.5591	-6.35494	58.2159	0.250854	-0.00208716	291612	3572.74	1	12	0.00456554	0.000136045	0	2.90323e-05	0.000220346	2.62784e-06	27.4982	0.019316	0.0171338	-0.00891858	-6.33658	33.5751	33.37	3.70565	0.0296151	0.00329828	0.0297982	6.35494	3.57274e+06	3.20794e+07	3.22777e+07	-83.6451	0.0000000E+000	0.0000000E+000	0.0000000E+000	83.6451	0.0000000E+000	0.0000000E+000	0.0000000E+000	-83.6451	0.0000000E+000	0.0000000E+000	0.0000000E+000	-6.35494	0.0000000E+000	0.0000000E+000	0.0000000E+000	6.35494	8.97894	83.6451	-1.40386e-05	-5.23571e-07	-4.59895e-10	-5.23111e-07	0.250633	120189	105.572	120084
0.0999041	33.9075	4.46541	34.2003	-7.50232	79.293	0.250852	-0.00197069	356760	6081.89	1	12	0.00456697	0.000133536	0	-1.14643e-05	-8.58219e-06	2.27296e-06	-0.590518	0.0170213	0.0170204	0.000175427	-7.49889	34.2172	33.9245	4.46558	0.0289892	0.0038177	0.0292395	7.50232	6.08189e+06	4.61821e+07	4.65808e+07	-82.4977	0.0000000E+000	0.0000000E+000	0.0000000E+000	82.4977	0.0000000E+000	0.0000000E+000	0.0000000E+000	-82.4977	0.0000000E+000	0.0000000E+000	0.0000000E+000	-7.50232	0.0000000E+000	0.0000000E+000	0.0000000E+000	7.50232	7.59338	82.4977	-4.04966e-05	-4.94353e-07	1.69129e-11	-4.9437e-07	0.250861	127291	4.35491	127296
0.0680626	34.5995	5.49153	35.0326	-9.01858	110.22	0.250851	-0.0022398	425812	10463.1	1	12	0.00456563	0.000130325	0	-8.15139e-05	-6.58141e-05	2.1016e-06	1.91103	0.0161258	0.0161169	-0.000537759	-9.01359	35.0484	34.6156	5.49099	0.028192	0.00447454	0.0285448	9.01858	1.04631e+07	6.59229e+07	6.67481e+07	-80.9814	0.0000000E+000	0.0000000E+000	0.0000000E+000	80.9814	0.0000000E+000	0.0000000E+000	0.0000000E+000	-80.9814	0.0000000E+000	0.0000000E+000	0.0000000E+000	-9.01858	0.0000000E+000	0.0000000E+000	0.0000000E+000	9.01858	6.30052	80.9814	-7.00496e-05	-5.61857e-07	1.47411e-10	-5.62004e-07	0.250917	111997	29.3839	112026
0.0464052	35.6229	6.76949	36.2604	-10.7597	155.571	0.250853	-0.00334153	506638	17658.1	1	12	0.0045654	0.000125906	0	-0.000185803	1.04951e-05	2.62909e-06	-9.41279	0.0208814	0.0206002	0.00341507	-10.759	36.2813	35.6435	6.77291	0.0270934	0.00514861	0.0275783	10.7597	1.76581e+07	9.29217e+07	9.45846e+07	-79.2403	0.0000000E+000	0.0000000E+000	0.0000000E+000	79.2403	0.0000000E+000	0.0000000E+000	0.0000000E+000	-79.2403	0.0000000E+000	0.0000000E+000	0.0000000E+000	-10.7597	0.0000000E+000	0.0000000E+000	0.0000000E+000	10.7597	5.26228	79.2403	-0.000104289	-8.38233e-07	-3.50697e-11	-8.38198e-07	0.250843	75071.3	3.14081	75068.2
0.0315922	36.9074	8.75725	37.9321	-13.3481	222.177	0.250856	-0.00401036	575271	30661.6	1	12	0.00456286	0.00012029	0	-0.000289455	0.000372964	2.96854e-06	2.4207	0.0246781	0.0246561	-0.00104232	-13.338	37.9558	36.932	8.75621	0.0256507	0.00608631	0.0263629	13.3481	3.06616e+07	1.29223e+08	1.32811e+08	-76.6519	0.0000000E+000	0.0000000E+000	0.0000000E+000	76.6519	0.0000000E+000	0.0000000E+000	0.0000000E+000	-76.6519	0.0000000E+000	0.0000000E+000	0.0000000E+000	-13.3481	0.0000000E+000	0.0000000E+000	0.0000000E+000	13.3481	4.21449	76.6519	-0.000103652	-1.00602e-06	-1.49572e-09	-1.00452e-06	0.250483	62551.9	93.0002	62458.9
0.0215268	38.228	11.4284	39.8997	-16.6442	319.915	0.250852	-0.00429618	646929	53074.6	1	12	0.00456425	0.000114393	0	-0.000343506	0.000182191	1.3628e-06	1.23066	0.0119133	0.0119106	-0.000255866	-16.639	39.911	38.2399	11.4281	0.0240128	0.0071787	0.0250629	16.6442	5.30746e+07	1.77535e+08	1.85298e+08	-73.3558	0.0000000E+000	0.0000000E+000	0.0000000E+000	73.3558	0.0000000E+000	0.0000000E+000	0.0000000E+000	-73.3558	0.0000000E+000	0.0000000E+000	0.0000000E+000	-16.6442	0.0000000E+000	0.0000000E+000	0.0000000E+000	16.6442	3.345	73.3558	-5.4051e-05	-1.07771e-06	-7.82725e-10	-1.07692e-06	0.25067	58389.6	42.4077	58347.2
0.0146812	39.8937	14.6692	42.5052	-20.1888	463.218	0.250848	-0.00429758	739016	88020	1	12	0.00456364	0.000107367	0	-0.00031936	6.7727e-05	1.49661e-06	-12.9724	0.0139392	0.0135835	0.00312911	-20.1865	42.519	39.9073	14.6723	0.0220811	0.00811936	0.0235265	20.1888	8.802e+07	2.39376e+08	2.55045e+08	-69.8112	0.0000000E+000	0.0000000E+000	0.0000000E+000	69.8112	0.0000000E+000	0.0000000E+000	0.0000000E+000	-69.8112	0.0000000E+000	0.0000000E+000	0.0000000E+000	-20.1888	0.0000000E+000	0.0000000E+000	0.0000000E+000	20.1888	2.71956	69.8112	2.41457e-05	-1.07804e-06	-2.91062e-10	-1.07775e-06	0.250781	58369.7	15.7594	58354
0.0100092	42.5405	18.9253	46.5603	-23.9832	673.399	0.250854	-0.0041658	840194	138814	1	12	0.00456495	9.80438e-05	0	-0.000280103	-0.000199355	2.27036e-06	-8.14403	0.0231566	0.022923	0.0032804	-23.9754	46.5826	42.5634	18.9286	0.0196233	0.00872994	0.0214775	23.9832	1.38814e+08	3.12028e+08	3.41512e+08	-66.0168	0.0000000E+000	0.0000000E+000	0.0000000E+000	66.0168	0.0000000E+000	0.0000000E+000	0.0000000E+000	-66.0168	0.0000000E+000	0.0000000E+000	0.0000000E+000	-23.9832	0.0000000E+000	0.0000000E+000	0.0000000E+000	23.9832	2.24781	66.0168	3.92571e-05	-1.04501e-06	8.30475e-10	-1.04584e-06	0.251053	60217.4	47.8552	60265.3