File: txt/18937_R306_UA703_SOC00_C04.mpt
EC-Lab ASCII FILE
Nb header lines : 65

Potentio Electrochemical Impedance Spectroscopy

Run on channel : 4 (SN 66756)
Grouped channel(s) : 1, 2, 3, 4, 5
User :
CE vs. WE compliance from -10 V to 10 V
Electrode connection : standard
Potential control : Ewe
Ewe ctrl range : min = -10.00 V, max = 10.00 V
Safety Limits :
	Do not start on E overload
Acquisition started on : 11/04/2025 15:05:27.163
Loaded Setting File :  C:\Users\Celltest\OneDrive - store-dot.com\Documents\EC-Lab\Data\@Biologic Test Protocols\anode half cell EIS SOC00.mps
Saved on :
	File : 18934_R306_UA703_SOC00_C04.mpr
	Directory : C:\Users\Celltest\OneDrive - store-dot.com\Documents\EC-Lab\Data\Charmaine\
	Host : 169.254.61.224
Device : VMP-3e (SN .003165)
Address : USB
EC-LAB for windows v11.62 (software)
Internet server v27.00 (firmware)
Command interpretor v12.03 (firmware)
Electrode material :
Initial state :
Electrolyte :
Comments :
Electrode surface area : 0.001 cm²
Characteristic mass : 0.001 g
Equivalent Weight : 0.000 g/eq.
Density : 0.000 g/cm3
Volume (V) : 0.001 cm³
Record Ece
Cycle Definition : Charge/Discharge alternance
Mode                Single sine
E (V)               0.0000
vs.                 Eoc
tE (h:m:s)          0:00:0.0000
record              0
dI                  0.000
unit dI             mA
dt (s)              0.000
fi                  100.000
unit fi             kHz
ff                  10.000
unit ff             mHz
Nd                  6
Points              per decade
spacing             Logarithmic
Va (mV)             5.0
pw                  0.10
Na                  2
corr                0
E range min (V)     -10.000
E range max (V)     10.000
I Range             Auto
Bandwidth           5
nc cycles           0
goto Ns'            0
nr cycles           0
inc. cycle          0

freq/Hz	Re(Z)/Ohm	-Im(Z)/Ohm	|Z|/Ohm	Phase(Z)/deg	time/s	<Ewe>/V	<I>/mA	Cs/µF	Cp/µF	cycle number	I Range	|Ewe|/V	|I|/A	Ns	(Q-Qo)/mA.h	<Ece>/V	|Ece|/V	Phase(Zce)/deg	|Zce|/Ohm	Re(Zce)/Ohm	-Im(Zce)/Ohm	Phase(Zwe-ce)/deg	|Zwe-ce|/Ohm	Re(Zwe-ce)/Ohm	-Im(Zwe-ce)/Ohm	Re(Y)/Ohm-1	Im(Y)/Ohm-1	|Y|/Ohm-1	Phase(Y)/deg	Re(C)/nF	Im(C)/nF	|C|/nF	Phase(C)/deg	Re(M)	Im(M)	|M|	Phase(M)/deg	Re(Permittivity)	Im(Permittivity)	|Permittivity|	Phase(Permittivity)/deg	Re(Resistivity)/Ohm.cm	Im(Resistivity)/Ohm.cm	|Resistivity|/Ohm.cm	Phase(Resistivity)/deg	Re(Conductivity)/mS/cm	Im(Conductivity)/mS/cm	|Conductivity|/mS/cm	Phase(Conductivity)/deg	Tan(Delta)	Loss Angle(Delta)/deg	dq/mA.h	Pwe/W	Pce/W	Pwe-ce/W	<Ewe-Ece>/V	Rwe/Ohm	Rce/Ohm	Rwe-ce/Ohm		Ewe-Ece/V
100004	1.4025	0.50247	1.48979	-19.711	2.05354	0.246619	-0.012368	3.16733	0.360298	1	9	0.00483682	0.00324664	0	-1.06886e-06	-0.000190262	4.22192e-05	43.2708	0.013004	0.00946848	-0.00891354	-19.2672	1.49575	1.41197	0.493557	0.631904	0.226391	0.671234	19.711	360.298	1005.67	1068.26	-70.289	0.0000000E+000	0.0000000E+000	0.0000000E+000	70.289	0.0000000E+000	0.0000000E+000	0.0000000E+000	-70.289	0.0000000E+000	0.0000000E+000	0.0000000E+000	-19.711	0.0000000E+000	0.0000000E+000	0.0000000E+000	19.711	2.79121	70.289	-1.06886e-06	-3.05019e-06	2.35316e-09	-3.05254e-06	0.24681	19940.1	15.3834	19955.5
68132	1.53888	0.597065	1.65065	-21.2056	2.43855	0.246616	-0.0130766	3.91243	0.511895	1	9	0.00544175	0.00329674	0	-9.16608e-06	-0.000209372	1.4988e-05	46.2902	0.00454633	0.00314154	-0.00328631	-21.0599	1.65239	1.54202	0.593779	0.564801	0.219135	0.605822	21.2056	511.895	1319.36	1415.19	-68.7944	0.0000000E+000	0.0000000E+000	0.0000000E+000	68.7944	0.0000000E+000	0.0000000E+000	0.0000000E+000	-68.7944	0.0000000E+000	0.0000000E+000	0.0000000E+000	-21.2056	0.0000000E+000	0.0000000E+000	0.0000000E+000	21.2056	2.57741	68.7944	-8.09723e-06	-3.22491e-06	2.73788e-09	-3.22765e-06	0.246826	18859.3	16.0112	18875.3
46420.4	1.70293	0.67814	1.83299	-21.7134	2.94555	0.246603	-0.0106523	5.05582	0.692007	1	9	0.00507138	0.00276673	0	-1.04241e-05	-0.000247592	1.77115e-05	1.25547	0.00640163	0.00640009	-0.000140262	-21.6356	1.83889	1.70933	0.678	0.506847	0.201836	0.545556	21.7134	692.007	1737.76	1870.47	-68.2866	0.0000000E+000	0.0000000E+000	0.0000000E+000	68.2866	0.0000000E+000	0.0000000E+000	0.0000000E+000	-68.2866	0.0000000E+000	0.0000000E+000	0.0000000E+000	-21.7134	0.0000000E+000	0.0000000E+000	0.0000000E+000	21.7134	2.51118	68.2866	-1.25802e-06	-2.62689e-06	2.63743e-09	-2.62953e-06	0.246851	23150.1	23.243	23173.4
31621.1	1.87655	0.747685	2.02002	-21.7241	3.32856	0.246609	-0.0112118	6.73169	0.922253	1	9	0.00543105	0.00268861	0	-1.08187e-05	-3.73825e-05	1.11489e-05	5.51923	0.00414671	0.00412749	-0.00039883	-21.6704	2.02371	1.88068	0.747286	0.459885	0.183235	0.495045	21.7241	922.253	2314.69	2491.65	-68.2759	0.0000000E+000	0.0000000E+000	0.0000000E+000	68.2759	0.0000000E+000	0.0000000E+000	0.0000000E+000	-68.2759	0.0000000E+000	0.0000000E+000	0.0000000E+000	-21.7241	0.0000000E+000	0.0000000E+000	0.0000000E+000	21.7241	2.50982	68.2759	-3.94602e-07	-2.76492e-06	4.19125e-10	-2.76534e-06	0.246646	21995.5	3.33421	21998.8
21544.7	2.0689	0.820349	2.22561	-21.629	3.83556	0.246617	-0.0123307	9.00495	1.22344	1	9	0.0050739	0.00227978	0	-9.84332e-06	-5.64925e-05	9.18876e-06	-12.0158	0.00403055	0.00394224	0.000839084	-21.6117	2.22958	2.07285	0.821188	0.417679	0.165616	0.449315	21.629	1223.44	3085.48	3319.18	-68.371	0.0000000E+000	0.0000000E+000	0.0000000E+000	68.371	0.0000000E+000	0.0000000E+000	0.0000000E+000	-68.371	0.0000000E+000	0.0000000E+000	0.0000000E+000	-21.629	0.0000000E+000	0.0000000E+000	0.0000000E+000	21.629	2.52198	68.371	9.75382e-07	-3.04097e-06	6.96592e-10	-3.04166e-06	0.246674	20000.2	4.58144	20004.8
14678.6	2.2594	0.898633	2.43155	-21.6893	4.21856	0.246595	-0.0149788	12.0657	1.64798	1	9	0.00542353	0.00223049	0	-9.97149e-06	-5.64925e-05	5.3654e-06	-32.5786	0.00240548	0.00202699	0.00129525	-21.7	2.43391	2.26142	0.899929	0.382144	0.151991	0.411261	21.6893	1647.98	4143.46	4459.16	-68.3107	0.0000000E+000	0.0000000E+000	0.0000000E+000	68.3107	0.0000000E+000	0.0000000E+000	0.0000000E+000	-68.3107	0.0000000E+000	0.0000000E+000	0.0000000E+000	-21.6893	0.0000000E+000	0.0000000E+000	0.0000000E+000	21.6893	2.51426	68.3107	-1.28167e-07	-3.69371e-06	8.4619e-10	-3.69455e-06	0.246652	16462.9	3.77149	16466.7
10002.2	2.47129	0.992667	2.6632	-21.8843	4.60152	0.246586	-0.0141956	16.0295	2.22699	1	9	0.00542931	0.00203864	0	-1.35646e-05	-9.47124e-05	1.18657e-05	-53.0801	0.00582038	0.00349629	0.00465326	-21.9491	2.66818	2.47479	0.99732	0.348429	0.139957	0.375488	21.8843	2226.99	5544.19	5974.74	-68.1157	0.0000000E+000	0.0000000E+000	0.0000000E+000	68.1157	0.0000000E+000	0.0000000E+000	0.0000000E+000	-68.1157	0.0000000E+000	0.0000000E+000	0.0000000E+000	-21.8843	0.0000000E+000	0.0000000E+000	0.0000000E+000	21.8843	2.48954	68.1157	-3.59309e-06	-3.50043e-06	1.3445e-09	-3.50178e-06	0.246681	17370.6	6.67196	17377.3
6810.42	2.69133	1.09992	2.90742	-22.2294	4.98455	0.246598	-0.0148297	21.2464	3.04083	1	9	0.00543836	0.00187051	0	-1.33401e-05	-0.000190262	1.99562e-05	0.202259	0.0106689	0.0106688	-3.76619e-05	-22.1494	2.91728	2.702	1.09988	0.318385	0.130121	0.343948	22.2294	3040.83	7440.43	8037.83	-67.7706	0.0000000E+000	0.0000000E+000	0.0000000E+000	67.7706	0.0000000E+000	0.0000000E+000	0.0000000E+000	-67.7706	0.0000000E+000	0.0000000E+000	0.0000000E+000	-22.2294	0.0000000E+000	0.0000000E+000	0.0000000E+000	22.2294	2.44684	67.7706	2.24452e-07	-3.65696e-06	2.82152e-09	-3.65978e-06	0.246788	16628.7	12.8298	16641.5
4646	2.94847	1.21511	3.18904	-22.3972	5.37864	0.246592	-0.0197156	28.192	4.09294	1	9	0.0052869	0.00165783	0	-1.4977e-05	0.000153717	1.40461e-05	-86.1166	0.00847255	0.00057382	0.00845309	-22.5336	3.1928	2.94905	1.22356	0.289919	0.11948	0.313574	22.3972	4092.94	9931.57	10741.9	-67.6028	0.0000000E+000	0.0000000E+000	0.0000000E+000	67.6028	0.0000000E+000	0.0000000E+000	0.0000000E+000	-67.6028	0.0000000E+000	0.0000000E+000	0.0000000E+000	-22.3972	0.0000000E+000	0.0000000E+000	0.0000000E+000	22.3972	2.42651	67.6028	-1.6369e-06	-4.86171e-06	-3.03062e-09	-4.85868e-06	0.246438	12507.5	7.79672	12499.7
3163.08	3.22359	1.38602	3.50893	-23.2659	5.92866	0.246594	-0.0216178	36.3028	5.66408	1	9	0.00510433	0.00145467	0	-1.82053e-05	-0.000362252	9.73602e-06	6.69041	0.00669296	0.00664738	-0.00077976	-23.2114	3.51473	3.23024	1.38524	0.261812	0.112569	0.284987	23.2659	5664.08	13173.5	14339.5	-66.7341	0.0000000E+000	0.0000000E+000	0.0000000E+000	66.7341	0.0000000E+000	0.0000000E+000	0.0000000E+000	-66.7341	0.0000000E+000	0.0000000E+000	0.0000000E+000	-23.2659	0.0000000E+000	0.0000000E+000	0.0000000E+000	23.2659	2.32579	66.7341	-3.2283e-06	-5.33081e-06	7.83108e-09	-5.33864e-06	0.246956	11407	16.7571	11423.8
2155.69	3.53601	1.58783	3.87616	-24.1822	6.62477	0.246588	-0.00665686	46.4975	7.80252	1	10	0.0053576	0.00138219	0	-2.16502e-05	-0.000132932	6.33134e-06	-2.06705	0.00458064	0.00457766	0.000165219	-24.1568	3.8804	3.54059	1.588	0.235348	0.105682	0.257987	24.1822	7802.52	17375.8	19047.3	-65.8177	0.0000000E+000	0.0000000E+000	0.0000000E+000	65.8177	0.0000000E+000	0.0000000E+000	0.0000000E+000	-65.8177	0.0000000E+000	0.0000000E+000	0.0000000E+000	-24.1822	0.0000000E+000	0.0000000E+000	0.0000000E+000	24.1822	2.22695	65.8177	-3.4449e-06	-1.6415e-06	8.84912e-10	-1.64238e-06	0.246721	37042.6	19.9692	37062.6
1468.59	3.87697	1.82015	4.28297	-25.149	7.07611	0.246597	-0.00548932	59.5405	10.7532	1	10	0.00543089	0.00126802	0	-2.11683e-05	-0.000171152	6.44628e-06	-81.4531	0.00508374	0.000755541	0.00502728	-25.2056	4.28579	3.87772	1.82518	0.21135	0.0992241	0.233483	25.149	10753.2	22904.6	25303.2	-64.851	0.0000000E+000	0.0000000E+000	0.0000000E+000	64.851	0.0000000E+000	0.0000000E+000	0.0000000E+000	-64.851	0.0000000E+000	0.0000000E+000	0.0000000E+000	-25.149	0.0000000E+000	0.0000000E+000	0.0000000E+000	25.149	2.13003	64.851	4.81882e-07	-1.35365e-06	9.39509e-10	-1.35459e-06	0.246768	44923.1	31.1791	44954.3
1000.32	4.24743	2.11376	4.74432	-26.4575	7.52686	0.246601	-0.00578773	75.2708	14.9413	1	10	0.00533528	0.00112456	0	-2.1941e-05	-0.000132932	3.84133e-06	-85.7045	0.00341584	0.000255847	0.00340625	-26.4929	4.74607	4.24768	2.11716	0.188702	0.0939088	0.210778	26.4575	14941.3	30023.3	33535.7	-63.5425	0.0000000E+000	0.0000000E+000	0.0000000E+000	63.5425	0.0000000E+000	0.0000000E+000	0.0000000E+000	-63.5425	0.0000000E+000	0.0000000E+000	0.0000000E+000	-26.4575	0.0000000E+000	0.0000000E+000	0.0000000E+000	26.4575	2.00942	63.5425	-7.7267e-07	-1.42726e-06	7.69376e-10	-1.42803e-06	0.246734	42607.5	22.9679	42630.5
681.09	4.68034	2.50256	5.30739	-28.1332	7.97654	0.24659	-0.00640694	93.3752	20.7605	1	10	0.00523561	0.000986476	0	-2.19789e-05	8.3741e-07	5.1733e-06	-22.6228	0.00524423	0.00484073	0.00201726	-28.1278	5.31261	4.68518	2.50457	0.166156	0.0888428	0.188417	28.1332	20760.5	38826.8	44028.6	-61.8668	0.0000000E+000	0.0000000E+000	0.0000000E+000	61.8668	0.0000000E+000	0.0000000E+000	0.0000000E+000	-61.8668	0.0000000E+000	0.0000000E+000	0.0000000E+000	-28.1332	0.0000000E+000	0.0000000E+000	0.0000000E+000	28.1332	1.87022	61.8668	-3.78641e-08	-1.57989e-06	-5.36524e-12	-1.57988e-06	0.246589	38488	0.130704	38487.8
463.961	5.20625	2.99125	6.00439	-29.8795	8.42837	0.246597	-0.00661957	114.679	28.4613	1	10	0.00515134	0.000857929	0	-2.2612e-05	-5.64925e-05	1.83227e-06	23.103	0.00213569	0.00196441	-0.000838012	-29.8633	6.00567	5.20822	2.99042	0.144407	0.082969	0.166545	29.8795	28461.3	49536.7	57130.8	-60.1205	0.0000000E+000	0.0000000E+000	0.0000000E+000	60.1205	0.0000000E+000	0.0000000E+000	0.0000000E+000	-60.1205	0.0000000E+000	0.0000000E+000	0.0000000E+000	-29.8795	0.0000000E+000	0.0000000E+000	0.0000000E+000	29.8795	1.74049	60.1205	-6.33144e-07	-1.63237e-06	3.73956e-10	-1.63274e-06	0.246654	37252.8	8.53416	37261.3
316.316	5.87806	3.65286	6.92062	-31.8585	8.87605	0.246594	-0.00596307	137.742	38.3745	1	10	0.00509927	0.000736824	0	-2.3525e-05	-0.000400472	5.39655e-06	42.0231	0.00732408	0.00544087	-0.00490296	-31.8002	6.92265	5.8835	3.64796	0.122728	0.0762682	0.144496	31.8585	38374.5	61750.9	72703.3	-58.1415	0.0000000E+000	0.0000000E+000	0.0000000E+000	58.1415	0.0000000E+000	0.0000000E+000	0.0000000E+000	-58.1415	0.0000000E+000	0.0000000E+000	0.0000000E+000	-31.8585	0.0000000E+000	0.0000000E+000	0.0000000E+000	31.8585	1.60917	58.1415	-9.13018e-07	-1.47046e-06	2.38804e-09	-1.47285e-06	0.246994	41353.5	67.1586	41420.6
215.345	6.79121	4.38486	8.08378	-32.849	9.3256	0.246591	-0.00620553	168.551	49.5921	1	10	0.00504734	0.000624379	0	-2.50234e-05	-3.73825e-05	5.23956e-06	-73.3968	0.00839164	0.00239785	0.00804176	-32.8876	8.09016	6.79361	4.3929	0.103925	0.0671006	0.123704	32.849	49592.1	76807.6	91426.4	-57.151	0.0000000E+000	0.0000000E+000	0.0000000E+000	57.151	0.0000000E+000	0.0000000E+000	0.0000000E+000	-57.151	0.0000000E+000	0.0000000E+000	0.0000000E+000	-32.849	0.0000000E+000	0.0000000E+000	0.0000000E+000	32.849	1.54879	57.151	-1.49839e-06	-1.53023e-06	2.31978e-10	-1.53046e-06	0.246629	39737.3	6.02406	39743.3
146.737	7.9603	5.18089	9.49779	-33.0577	9.77255	0.246599	-0.00542966	209.351	62.2929	1	10	0.00500355	0.000526812	0	-2.60056e-05	1.99474e-05	2.66235e-05	89.7613	0.0505371	0.000210523	-0.0505366	-32.8008	9.47049	7.96051	5.13035	0.0882439	0.0574327	0.105288	33.0577	62292.9	95711.5	114198	-56.9423	0.0000000E+000	0.0000000E+000	0.0000000E+000	56.9423	0.0000000E+000	0.0000000E+000	0.0000000E+000	-56.9423	0.0000000E+000	0.0000000E+000	0.0000000E+000	-33.0577	0.0000000E+000	0.0000000E+000	0.0000000E+000	33.0577	1.53647	56.9423	-9.82205e-07	-1.33895e-06	-1.08307e-10	-1.33884e-06	0.246579	45417.1	3.67378	45413.4
100.032	9.51629	5.90865	11.2014	-31.8361	10.2238	0.246602	-0.00577284	269.273	74.9243	1	10	0.00500453	0.000446776	0	-2.64203e-05	3.90573e-05	2.86162e-06	-84.2387	0.00640504	0.000642965	0.00637269	-31.862	11.2053	9.51693	5.91502	0.075844	0.0470914	0.0892744	31.8361	74924.3	120671	142039	-58.1639	0.0000000E+000	0.0000000E+000	0.0000000E+000	58.1639	0.0000000E+000	0.0000000E+000	0.0000000E+000	-58.1639	0.0000000E+000	0.0000000E+000	0.0000000E+000	-31.8361	0.0000000E+000	0.0000000E+000	0.0000000E+000	31.8361	1.61057	58.1639	-4.14647e-07	-1.42359e-06	-2.25472e-10	-1.42337e-06	0.246563	42717.6	6.76571	42710.8
68.104	11.3593	6.416	13.046	-29.4587	10.6865	0.24661	-0.00534014	364.237	88.0955	1	10	0.00500561	0.000383688	0	-2.69125e-05	-0.000324032	1.12697e-05	-22.5306	0.0293721	0.0271303	0.0112547	-29.4432	13.0752	11.3865	6.42725	0.0667413	0.037697	0.0766516	29.4587	88095.5	155970	179130	-60.5413	0.0000000E+000	0.0000000E+000	0.0000000E+000	60.5413	0.0000000E+000	0.0000000E+000	0.0000000E+000	-60.5413	0.0000000E+000	0.0000000E+000	0.0000000E+000	-29.4587	0.0000000E+000	0.0000000E+000	0.0000000E+000	29.4587	1.77047	60.5413	-4.92215e-07	-1.31693e-06	1.73038e-09	-1.31866e-06	0.246934	46180.5	60.6785	46241.2
46.4415	13.3236	6.57189	14.8563	-26.2549	11.1237	0.246587	-0.00710825	521.462	102.043	1	10	0.00499087	0.000335943	0	-2.76113e-05	-0.000247592	6.45437e-06	-44.6053	0.0192127	0.0136787	0.0134915	-26.2782	14.8745	13.3373	6.58538	0.0603674	0.0297763	0.0673116	26.2549	102043	206879	230677	-63.7451	0.0000000E+000	0.0000000E+000	0.0000000E+000	63.7451	0.0000000E+000	0.0000000E+000	0.0000000E+000	-63.7451	0.0000000E+000	0.0000000E+000	0.0000000E+000	-26.2549	0.0000000E+000	0.0000000E+000	0.0000000E+000	26.2549	2.02737	63.7451	-6.98832e-07	-1.7528e-06	1.75994e-09	-1.75456e-06	0.246835	34690.3	34.8317	34725.2
31.6296	15.249	6.45284	16.5582	-22.9363	11.5535	0.246594	-0.00708213	779.787	118.428	1	10	0.00499089	0.000301416	0	-2.90601e-05	-0.000228482	6.26125e-06	34.0413	0.0207728	0.0172131	-0.0116284	-22.8761	16.5695	15.2663	6.44121	0.0556184	0.0235357	0.0603932	22.9363	118428	279863	303889	-67.0637	0.0000000E+000	0.0000000E+000	0.0000000E+000	67.0637	0.0000000E+000	0.0000000E+000	0.0000000E+000	-67.0637	0.0000000E+000	0.0000000E+000	0.0000000E+000	-22.9363	0.0000000E+000	0.0000000E+000	0.0000000E+000	22.9363	2.36315	67.0637	-1.44881e-06	-1.74641e-06	1.61814e-09	-1.74803e-06	0.246822	34819.1	32.2618	34851.4
21.5517	17.0859	6.0342	18.1201	-19.4516	12.2065	0.246595	-0.0027901	1223.82	135.718	1	11	0.0049919	0.00027549	0	-3.06075e-05	-0.000209372	9.28596e-06	91.5139	0.0337071	-0.000890552	-0.0336954	-19.3521	18.1081	17.085	6.00051	0.0520373	0.018378	0.0551873	19.4516	135718	384285	407546	-70.5484	0.0000000E+000	0.0000000E+000	0.0000000E+000	70.5484	0.0000000E+000	0.0000000E+000	0.0000000E+000	-70.5484	0.0000000E+000	0.0000000E+000	0.0000000E+000	-19.4516	0.0000000E+000	0.0000000E+000	0.0000000E+000	19.4516	2.8315	70.5484	-1.54734e-06	-6.88024e-07	5.84169e-10	-6.88609e-07	0.246804	88382.1	75.0411	88457.2
14.6852	18.6145	5.48075	19.4046	-16.4062	12.6662	0.246605	-0.0026196	1977.43	157.751	1	11	0.00499821	0.000257579	0	-3.11837e-05	1.99474e-05	5.05146e-06	36.5599	0.0196113	0.0157525	-0.0116817	-16.36	19.4164	18.6303	5.46906	0.0494358	0.0145556	0.0515341	16.4062	157751	535776	558517	-73.5938	0.0000000E+000	0.0000000E+000	0.0000000E+000	73.5938	0.0000000E+000	0.0000000E+000	0.0000000E+000	-73.5938	0.0000000E+000	0.0000000E+000	0.0000000E+000	-16.4062	0.0000000E+000	0.0000000E+000	0.0000000E+000	16.4062	3.39635	73.5938	-5.76239e-07	-6.46008e-07	-5.22542e-11	-6.45956e-07	0.246585	94138.4	7.61465	94130.8
10.0032	19.8646	4.94033	20.4697	-13.9662	13.1168	0.246605	-0.00249126	3220.51	187.592	1	11	0.00499075	0.000243812	0	-2.96149e-05	-0.000247592	9.84971e-06	100.376	0.0403988	-0.00727634	-0.0397381	-13.863	20.4531	19.8573	4.90059	0.0474086	0.0117905	0.0488527	13.9662	187592	754289	777266	-76.0339	0.0000000E+000	0.0000000E+000	0.0000000E+000	76.0339	0.0000000E+000	0.0000000E+000	0.0000000E+000	-76.0339	0.0000000E+000	0.0000000E+000	0.0000000E+000	-13.9662	0.0000000E+000	0.0000000E+000	0.0000000E+000	13.9662	4.0209	76.0339	1.56883e-06	-6.14358e-07	6.16817e-10	-6.14975e-07	0.246853	98987.9	99.3841	99087.3
6.81719	20.9968	4.38955	21.4507	-11.8081	13.4565	0.246607	-0.00164326	5318.56	222.716	1	11	0.0049902	0.000232636	0	-3.11535e-05	-0.000304922	8.35696e-06	123.451	0.035923	-0.0198017	-0.0299725	-11.7405	21.4252	20.977	4.35958	0.045632	0.00953974	0.0466185	11.8081	222716	1.06533e+06	1.08836e+06	-78.1919	0.0000000E+000	0.0000000E+000	0.0000000E+000	78.1919	0.0000000E+000	0.0000000E+000	0.0000000E+000	-78.1919	0.0000000E+000	0.0000000E+000	0.0000000E+000	-11.8081	0.0000000E+000	0.0000000E+000	0.0000000E+000	11.8081	4.78335	78.1919	-1.53862e-06	-4.05239e-07	5.01065e-10	-4.0574e-07	0.246912	150072	185.559	150258
4.63925	21.9862	3.89543	22.3286	-10.0472	13.9404	0.246605	-0.0018962	8806.78	268.042	1	11	0.00499166	0.000223554	0	-3.28461e-05	-0.000190262	1.61803e-05	66.9918	0.0723776	0.0282897	-0.0666199	-9.86632	22.345	22.0145	3.82881	0.0440988	0.00781324	0.0447856	10.0472	268042	1.51286e+06	1.53642e+06	-79.9528	0.0000000E+000	0.0000000E+000	0.0000000E+000	79.9528	0.0000000E+000	0.0000000E+000	0.0000000E+000	-79.9528	0.0000000E+000	0.0000000E+000	0.0000000E+000	-10.0472	0.0000000E+000	0.0000000E+000	0.0000000E+000	10.0472	5.6441	79.9528	-1.69261e-06	-4.67612e-07	3.60776e-10	-4.67973e-07	0.246795	130052	100.338	130152
3.1604	22.7878	3.46802	23.0502	-8.6533	14.6334	0.246613	-0.0017951	14521	328.709	1	11	0.00498879	0.000216432	0	-3.09505e-05	-0.000228482	2.68471e-06	69.2225	0.0124044	0.00440033	-0.0115977	-8.62316	23.0528	22.7922	3.45642	0.0428898	0.00652728	0.0433836	8.6533	328709	2.15989e+06	2.18476e+06	-81.3467	0.0000000E+000	0.0000000E+000	0.0000000E+000	81.3467	0.0000000E+000	0.0000000E+000	0.0000000E+000	-81.3467	0.0000000E+000	0.0000000E+000	0.0000000E+000	-8.6533	0.0000000E+000	0.0000000E+000	0.0000000E+000	8.6533	6.57084	81.3467	1.89563e-06	-4.42695e-07	4.10148e-10	-4.43105e-07	0.246841	137381	127.281	137508
2.15577	23.5065	3.07905	23.7073	-7.46251	15.6371	0.246618	-0.00131989	23977.4	404.454	1	11	0.00498991	0.000210479	0	-2.78536e-05	-0.000247592	5.23004e-06	1.22478	0.0248482	0.0248425	-0.000531127	-7.45345	23.7319	23.5314	3.07852	0.0418238	0.00547837	0.042181	7.46251	404454	3.08774e+06	3.11412e+06	-82.5375	0.0000000E+000	0.0000000E+000	0.0000000E+000	82.5375	0.0000000E+000	0.0000000E+000	0.0000000E+000	-82.5375	0.0000000E+000	0.0000000E+000	0.0000000E+000	-7.46251	0.0000000E+000	0.0000000E+000	0.0000000E+000	7.46251	7.63435	82.5375	3.09692e-06	-3.2551e-07	3.26795e-10	-3.25836e-07	0.246866	186848	187.585	187035
1.46631	24.174	2.76695	24.3318	-6.52965	17.0966	0.24662	-0.000804261	39227.7	507.279	1	11	0.00499127	0.000205134	0	-2.74717e-05	-0.000152042	3.05119e-06	-19.5772	0.0148742	0.0140143	0.00498398	-6.53755	24.3463	24.188	2.77193	0.0408319	0.00467361	0.0410985	6.52965	507279	4.43194e+06	4.46087e+06	-83.4704	0.0000000E+000	0.0000000E+000	0.0000000E+000	83.4704	0.0000000E+000	0.0000000E+000	0.0000000E+000	-83.4704	0.0000000E+000	0.0000000E+000	0.0000000E+000	-6.52965	0.0000000E+000	0.0000000E+000	0.0000000E+000	6.52965	8.73669	83.4704	3.81875e-07	-1.98346e-07	1.22282e-10	-1.98469e-07	0.246772	306641	189.046	306830
1.00006	24.6864	2.52032	24.8147	-5.82933	20.2726	0.246622	-0.000473774	63144.6	651.372	1	12	0.00499559	0.000201315	0	-3.27097e-05	1.99474e-05	3.68375e-06	-47.0886	0.0182984	0.0124588	0.0134019	-5.85718	24.8285	24.6989	2.53372	0.0400902	0.00409295	0.0402986	5.82933	651372	6.38015e+06	6.41332e+06	-84.1707	0.0000000E+000	0.0000000E+000	0.0000000E+000	84.1707	0.0000000E+000	0.0000000E+000	0.0000000E+000	-84.1707	0.0000000E+000	0.0000000E+000	0.0000000E+000	-5.82933	0.0000000E+000	0.0000000E+000	0.0000000E+000	5.82933	9.79494	84.1707	-5.23797e-06	-1.16843e-07	-9.45054e-12	-1.16833e-07	0.246602	520547	42.1032	520505
0.681362	25.106	2.33551	25.2144	-5.31471	23.3838	0.246618	-0.000594644	100014	858.081	1	12	0.00498846	0.000197842	0	-4.19724e-05	-3.73825e-05	2.40164e-06	54.4026	0.0121392	0.00706604	-0.0098707	-5.2909	25.2205	25.113	2.32564	0.0394895	0.00367355	0.03966	5.31471	858081	9.22408e+06	9.26391e+06	-84.6853	0.0000000E+000	0.0000000E+000	0.0000000E+000	84.6853	0.0000000E+000	0.0000000E+000	0.0000000E+000	-84.6853	0.0000000E+000	0.0000000E+000	0.0000000E+000	-5.31471	0.0000000E+000	0.0000000E+000	0.0000000E+000	5.31471	10.7497	84.6853	-9.26274e-06	-1.4665e-07	2.22293e-11	-1.46672e-07	0.246656	414733	62.8653	414795
0.464091	25.5385	2.26711	25.6389	-5.07299	27.9404	0.246611	-0.0016095	151267	1182.75	1	12	0.00499128	0.000194676	0	-5.14335e-05	-0.000113822	3.12776e-06	-15.3872	0.0160665	0.0154906	0.00426308	-5.07941	25.6547	25.554	2.27138	0.0388504	0.00344885	0.0390032	5.07299	1.18275e+06	1.33233e+07	1.33757e+07	-84.927	0.0000000E+000	0.0000000E+000	0.0000000E+000	84.927	0.0000000E+000	0.0000000E+000	0.0000000E+000	-84.927	0.0000000E+000	0.0000000E+000	0.0000000E+000	-5.07299	0.0000000E+000	0.0000000E+000	0.0000000E+000	5.07299	11.2648	84.927	-9.46106e-06	-3.96919e-07	1.83197e-10	-3.97102e-07	0.246724	153222	70.7192	153293
0.316193	25.9115	2.36251	26.019	-5.20961	34.6149	0.246615	-0.00248488	213056	1756.55	1	12	0.00499202	0.000191861	0	-5.45369e-05	8.3741e-07	3.68582e-06	4.93993	0.019211	0.0191396	-0.00165428	-5.20216	26.0379	25.9307	2.36086	0.0382747	0.00348974	0.0384335	5.20961	1.75655e+06	1.92655e+07	1.93454e+07	-84.7904	0.0000000E+000	0.0000000E+000	0.0000000E+000	84.7904	0.0000000E+000	0.0000000E+000	0.0000000E+000	-84.7904	0.0000000E+000	0.0000000E+000	0.0000000E+000	-5.20961	0.0000000E+000	0.0000000E+000	0.0000000E+000	5.20961	10.9678	84.7904	-3.1034e-06	-6.12809e-07	-2.08086e-12	-6.12807e-07	0.246614	99246.3	0.337002	99246
0.215268	26.2497	2.64395	26.3825	-5.75162	44.4083	0.246608	-0.00309156	279633	2808.42	1	12	0.00499505	0.000189332	0	-4.50828e-05	-1.82725e-05	2.90464e-06	16.588	0.0153415	0.014703	-0.0043798	-5.73896	26.3967	26.2644	2.63957	0.0377131	0.00379858	0.0379039	5.75162	2.80843e+06	2.78826e+07	2.80237e+07	-84.2484	0.0000000E+000	0.0000000E+000	0.0000000E+000	84.2484	0.0000000E+000	0.0000000E+000	0.0000000E+000	-84.2484	0.0000000E+000	0.0000000E+000	0.0000000E+000	-5.75162	0.0000000E+000	0.0000000E+000	0.0000000E+000	5.75162	9.9282	84.2484	9.45405e-06	-7.62403e-07	5.64907e-11	-7.62459e-07	0.246626	79768	5.91046	79773.9
0.146929	26.595	3.06228	26.7707	-6.56839	58.7466	0.246607	-0.00285876	353727	4628.48	1	12	0.00499346	0.000186527	0	-2.06446e-05	0.000134607	1.7212e-06	26.4352	0.00922762	0.00826276	-0.00410801	-6.55764	26.7785	26.6033	3.05817	0.0371091	0.00427292	0.0373542	6.56839	4.62848e+06	4.0197e+07	4.04625e+07	-83.4316	0.0000000E+000	0.0000000E+000	0.0000000E+000	83.4316	0.0000000E+000	0.0000000E+000	0.0000000E+000	-83.4316	0.0000000E+000	0.0000000E+000	0.0000000E+000	-6.56839	0.0000000E+000	0.0000000E+000	0.0000000E+000	6.56839	8.6847	83.4316	2.44383e-05	-7.04992e-07	-3.8481e-10	-7.04607e-07	0.246473	86263.6	47.0858	86216.5
0.0999041	27.1097	3.71124	27.3626	-7.79517	79.8229	0.246602	-0.00204717	429257	7896.64	1	12	0.00499406	0.000182514	0	1.12244e-05	1.99474e-05	3.67523e-06	46.7713	0.0201367	0.0137919	-0.0146721	-7.76083	27.3743	27.1235	3.69657	0.0362085	0.00495684	0.0365463	7.79517	7.89663e+06	5.7683e+07	5.8221e+07	-82.2048	0.0000000E+000	0.0000000E+000	0.0000000E+000	82.2048	0.0000000E+000	0.0000000E+000	0.0000000E+000	-82.2048	0.0000000E+000	0.0000000E+000	0.0000000E+000	-7.79517	0.0000000E+000	0.0000000E+000	0.0000000E+000	7.79517	7.30476	82.2048	3.1869e-05	-5.04836e-07	-4.08356e-11	-5.04795e-07	0.246582	120460	9.74389	120451
0.0680626	27.7649	4.7091	28.1614	-9.6261	110.749	0.246607	-0.00135734	496563	13884.8	1	12	0.00499111	0.000177232	0	2.86824e-05	-0.000304922	2.91675e-06	2.81059	0.0164573	0.0164375	-0.000806972	-9.6189	28.1775	27.7813	4.70829	0.0350096	0.00593784	0.0355096	9.6261	1.38848e+07	8.1865e+07	8.30342e+07	-80.3739	0.0000000E+000	0.0000000E+000	0.0000000E+000	80.3739	0.0000000E+000	0.0000000E+000	0.0000000E+000	-80.3739	0.0000000E+000	0.0000000E+000	0.0000000E+000	-9.6261	0.0000000E+000	0.0000000E+000	0.0000000E+000	9.6261	5.89602	80.3739	1.74579e-05	-3.3473e-07	4.13883e-10	-3.35144e-07	0.246912	181684	224.646	181908
0.0464052	28.5044	6.15932	29.1623	-12.1932	156.101	0.246608	-0.00122089	556828	24839.5	1	12	0.00498993	0.000171109	0	-1.29025e-05	5.81673e-05	2.40328e-06	-1.20593	0.0140453	0.0140422	0.000295597	-12.1879	29.1761	28.5184	6.15961	0.0335173	0.00724252	0.0342909	12.1932	2.48395e+07	1.14954e+08	1.17607e+08	-77.8068	0.0000000E+000	0.0000000E+000	0.0000000E+000	77.8068	0.0000000E+000	0.0000000E+000	0.0000000E+000	-77.8068	0.0000000E+000	0.0000000E+000	0.0000000E+000	-12.1932	0.0000000E+000	0.0000000E+000	0.0000000E+000	12.1932	4.62785	77.8068	-4.15849e-05	-3.01081e-07	-7.10157e-11	-3.0101e-07	0.24655	201991	47.6434	201943
0.0315922	29.3319	7.90831	30.3793	-15.089	222.706	0.246608	-0.00168096	637025	43168.5	1	12	0.00498668	0.000164147	0	-0.000167168	3.90573e-05	2.12408e-06	12.32	0.0129401	0.0126421	-0.00276105	-15.0777	30.3908	29.3446	7.90555	0.0317822	0.00856894	0.0329171	15.089	4.31685e+07	1.60112e+08	1.6583e+08	-74.911	0.0000000E+000	0.0000000E+000	0.0000000E+000	74.911	0.0000000E+000	0.0000000E+000	0.0000000E+000	-74.911	0.0000000E+000	0.0000000E+000	0.0000000E+000	-15.089	0.0000000E+000	0.0000000E+000	0.0000000E+000	15.089	3.709	74.911	-0.000154266	-4.14538e-07	-6.56539e-11	-4.14473e-07	0.246568	146706	23.2351	146683
0.0215268	30.6108	10.1094	32.237	-18.2761	320.445	0.246614	-0.00274037	731333	71921.5	1	12	0.00499162	0.000154841	0	-0.000447264	-0.000247592	3.12467e-06	15.3707	0.0201798	0.019458	-0.0053489	-18.2563	32.2538	30.6303	10.1041	0.0294555	0.00972788	0.0310203	18.2761	7.19215e+07	2.17775e+08	2.29344e+08	-71.7239	0.0000000E+000	0.0000000E+000	0.0000000E+000	71.7239	0.0000000E+000	0.0000000E+000	0.0000000E+000	-71.7239	0.0000000E+000	0.0000000E+000	0.0000000E+000	-18.2761	0.0000000E+000	0.0000000E+000	0.0000000E+000	18.2761	3.02795	71.7239	-0.000280096	-6.75814e-07	6.78494e-10	-6.76493e-07	0.246862	89993	90.3498	90083.3
0.0146812	32.5164	13.3179	35.1381	-22.2727	463.746	0.246614	-0.00370113	813999	116933	1	12	0.00499351	0.000142111	0	-0.000779633	-5.64925e-05	2.3185e-06	-11.2645	0.0163147	0.0160004	0.00318688	-22.2677	35.1541	32.5324	13.3211	0.0263358	0.0107865	0.0284592	22.2727	1.16933e+08	2.855e+08	3.08519e+08	-67.7273	0.0000000E+000	0.0000000E+000	0.0000000E+000	67.7273	0.0000000E+000	0.0000000E+000	0.0000000E+000	-67.7273	0.0000000E+000	0.0000000E+000	0.0000000E+000	-22.2727	0.0000000E+000	0.0000000E+000	0.0000000E+000	22.2727	2.44156	67.7273	-0.000332369	-9.1275e-07	2.09086e-10	-9.12959e-07	0.24667	66631.9	15.2636	66647.2
0.0100092	34.7729	17.7161	39.0258	-26.998	673.928	0.246615	-0.00423969	897539	184964	1	12	0.00499142	0.0001279	0	-0.00101573	-0.000113822	2.55555e-06	0.0680611	0.0199808	0.0199808	-2.3735e-05	-26.9846	39.0436	34.7929	17.7161	0.0228316	0.0116323	0.0256241	26.998	1.84964e+08	3.63043e+08	4.07446e+08	-63.002	0.0000000E+000	0.0000000E+000	0.0000000E+000	63.002	0.0000000E+000	0.0000000E+000	0.0000000E+000	-63.002	0.0000000E+000	0.0000000E+000	0.0000000E+000	-26.998	0.0000000E+000	0.0000000E+000	0.0000000E+000	26.998	1.96278	63.002	-0.000236094	-1.04557e-06	4.82571e-10	-1.04606e-06	0.246729	58168.3	26.8468	58195.1