File: txt/18936_R306_UA703_SOC00_C03.mpt
EC-Lab ASCII FILE
Nb header lines : 65

Potentio Electrochemical Impedance Spectroscopy

Run on channel : 3 (SN 65921)
Grouped channel(s) : 1, 2, 3, 4, 5
User :
CE vs. WE compliance from -10 V to 10 V
Electrode connection : standard
Potential control : Ewe
Ewe ctrl range : min = -10.00 V, max = 10.00 V
Safety Limits :
	Do not start on E overload
Acquisition started on : 11/04/2025 15:05:27.163
Loaded Setting File :  C:\Users\Celltest\OneDrive - store-dot.com\Documents\EC-Lab\Data\@Biologic Test Protocols\anode half cell EIS SOC00.mps
Saved on :
	File : 18934_R306_UA703_SOC00_C03.mpr
	Directory : C:\Users\Celltest\OneDrive - store-dot.com\Documents\EC-Lab\Data\Charmaine\
	Host : 169.254.61.224
Device : VMP-3e (SN .003165)
Address : USB
EC-LAB for windows v11.62 (software)
Internet server v27.00 (firmware)
Command interpretor v12.03 (firmware)
Electrode material :
Initial state :
Electrolyte :
Comments :
Electrode surface area : 0.001 cm²
Characteristic mass : 0.001 g
Equivalent Weight : 0.000 g/eq.
Density : 0.000 g/cm3
Volume (V) : 0.001 cm³
Record Ece
Cycle Definition : Charge/Discharge alternance
Mode                Single sine
E (V)               0.0000
vs.                 Eoc
tE (h:m:s)          0:00:0.0000
record              0
dI                  0.000
unit dI             mA
dt (s)              0.000
fi                  100.000
unit fi             kHz
ff                  10.000
unit ff             mHz
Nd                  6
Points              per decade
spacing             Logarithmic
Va (mV)             5.0
pw                  0.10
Na                  2
corr                0
E range min (V)     -10.000
E range max (V)     10.000
I Range             Auto
Bandwidth           5
nc cycles           0
goto Ns'            0
nr cycles           0
inc. cycle          0

freq/Hz	Re(Z)/Ohm	-Im(Z)/Ohm	|Z|/Ohm	Phase(Z)/deg	time/s	<Ewe>/V	<I>/mA	Cs/µF	Cp/µF	cycle number	I Range	|Ewe|/V	|I|/A	Ns	(Q-Qo)/mA.h	<Ece>/V	|Ece|/V	Phase(Zce)/deg	|Zce|/Ohm	Re(Zce)/Ohm	-Im(Zce)/Ohm	Phase(Zwe-ce)/deg	|Zwe-ce|/Ohm	Re(Zwe-ce)/Ohm	-Im(Zwe-ce)/Ohm	Re(Y)/Ohm-1	Im(Y)/Ohm-1	|Y|/Ohm-1	Phase(Y)/deg	Re(C)/nF	Im(C)/nF	|C|/nF	Phase(C)/deg	Re(M)	Im(M)	|M|	Phase(M)/deg	Re(Permittivity)	Im(Permittivity)	|Permittivity|	Phase(Permittivity)/deg	Re(Resistivity)/Ohm.cm	Im(Resistivity)/Ohm.cm	|Resistivity|/Ohm.cm	Phase(Resistivity)/deg	Re(Conductivity)/mS/cm	Im(Conductivity)/mS/cm	|Conductivity|/mS/cm	Phase(Conductivity)/deg	Tan(Delta)	Loss Angle(Delta)/deg	dq/mA.h	Pwe/W	Pce/W	Pwe-ce/W	<Ewe-Ece>/V	Rwe/Ohm	Rce/Ohm	Rwe-ce/Ohm		Ewe-Ece/V
100004	1.52891	0.578298	1.63462	-20.7188	1.72652	0.251561	0.00200747	2.75202	0.344447	1	9	0.00471608	0.00288512	0	3.90296e-06	-0.000127916	3.87211e-05	95.148	0.013421	-0.00120426	-0.0133668	-20.294	1.62881	1.5277	0.564931	0.572199	0.21643	0.611763	20.7188	344.447	910.649	973.615	-69.2812	0.0000000E+000	0.0000000E+000	0.0000000E+000	69.2812	0.0000000E+000	0.0000000E+000	0.0000000E+000	-69.2812	0.0000000E+000	0.0000000E+000	0.0000000E+000	-20.7188	0.0000000E+000	0.0000000E+000	0.0000000E+000	20.7188	2.6438	69.2812	3.90296e-06	5.05e-07	-2.56787e-10	5.05257e-07	0.251689	125313	63.72	125376
68132	1.6935	0.689568	1.82851	-22.1554	2.23355	0.251566	0.00954076	3.3876	0.481782	1	9	0.00507148	0.00277356	0	1.23904e-05	-8.97277e-05	2.58446e-05	71.6226	0.00931822	0.00293779	-0.00884299	-21.864	1.82792	1.69644	0.680725	0.506513	0.206244	0.546893	22.1554	481.782	1183.2	1277.53	-67.8446	0.0000000E+000	0.0000000E+000	0.0000000E+000	67.8446	0.0000000E+000	0.0000000E+000	0.0000000E+000	-67.8446	0.0000000E+000	0.0000000E+000	0.0000000E+000	-22.1554	0.0000000E+000	0.0000000E+000	0.0000000E+000	22.1554	2.45589	67.8446	8.48743e-06	2.40013e-06	-8.56071e-10	2.40098e-06	0.251655	26367.5	9.40467	26376.9
46420.4	1.88046	0.781654	2.03644	-22.5713	2.74052	0.251556	0.00946616	4.38629	0.646223	1	9	0.00510266	0.00250567	0	3.02584e-06	-1.33515e-05	1.09368e-05	56.4985	0.00436483	0.0024092	-0.0036397	-22.4508	2.03727	1.88286	0.778014	0.453439	0.188482	0.491053	22.5713	646.223	1554.64	1683.6	-67.4287	0.0000000E+000	0.0000000E+000	0.0000000E+000	67.4287	0.0000000E+000	0.0000000E+000	0.0000000E+000	-67.4287	0.0000000E+000	0.0000000E+000	0.0000000E+000	-22.5713	0.0000000E+000	0.0000000E+000	0.0000000E+000	22.5713	2.40574	67.4287	-9.36455e-06	2.38127e-06	-1.26387e-10	2.3814e-06	0.25157	26574.3	1.41044	26575.7
31621.1	2.08727	0.881149	2.26564	-22.8873	3.24754	0.251578	0.0134566	5.71206	0.863995	1	9	0.00506018	0.00223344	0	1.46618e-05	-3.24455e-05	1.01015e-05	50.8401	0.00452282	0.0028561	-0.00350693	-22.7775	2.26691	2.09012	0.877642	0.406628	0.17166	0.441377	22.8873	863.995	2046.63	2221.53	-67.1127	0.0000000E+000	0.0000000E+000	0.0000000E+000	67.1127	0.0000000E+000	0.0000000E+000	0.0000000E+000	-67.1127	0.0000000E+000	0.0000000E+000	0.0000000E+000	-22.8873	0.0000000E+000	0.0000000E+000	0.0000000E+000	22.8873	2.3688	67.1127	1.16359e-05	3.38538e-06	-4.36605e-10	3.38582e-06	0.251611	18695.6	2.41113	18698
21544.7	2.31652	0.967404	2.5104	-22.666	3.63252	0.251568	0.0100628	7.63611	1.13397	1	9	0.00516683	0.00205817	0	2.11117e-05	-0.000204292	4.54482e-06	4.0066	0.00220819	0.00220279	-0.000154289	-22.6434	2.51238	2.31872	0.96725	0.367577	0.153504	0.398342	22.666	1133.97	2715.37	2942.64	-67.334	0.0000000E+000	0.0000000E+000	0.0000000E+000	67.334	0.0000000E+000	0.0000000E+000	0.0000000E+000	-67.334	0.0000000E+000	0.0000000E+000	0.0000000E+000	-22.666	0.0000000E+000	0.0000000E+000	0.0000000E+000	22.666	2.39457	67.334	6.44995e-06	2.53149e-06	-2.05576e-09	2.53354e-06	0.251772	24999.7	20.3016	25020
14678.6	2.55156	1.05441	2.76084	-22.4524	3.89154	0.251576	0.0110325	10.2831	1.4999	1	9	0.00479722	0.0017376	0	2.12026e-05	-0.000204292	1.71499e-05	-88.6399	0.00986989	0.00023427	0.00986711	-22.6396	2.76484	2.55179	1.06428	0.334752	0.138333	0.362209	22.4524	1499.9	3629.6	3927.3	-67.5476	0.0000000E+000	0.0000000E+000	0.0000000E+000	67.5476	0.0000000E+000	0.0000000E+000	0.0000000E+000	-67.5476	0.0000000E+000	0.0000000E+000	0.0000000E+000	-22.4524	0.0000000E+000	0.0000000E+000	0.0000000E+000	22.4524	2.41989	67.5476	9.08269e-08	2.7755e-06	-2.25384e-09	2.77776e-06	0.25178	22803.2	18.5174	22821.8
10002.2	2.80411	1.16446	3.03628	-22.5516	4.27456	0.25157	0.00506549	13.6647	2.00985	1	9	0.00491009	0.00161714	0	2.45413e-05	-5.15396e-05	7.29434e-06	-26.0973	0.00451065	0.00405078	0.00198422	-22.5568	3.04079	2.80816	1.16644	0.304166	0.126311	0.32935	22.5516	2009.85	4839.88	5240.6	-67.4484	0.0000000E+000	0.0000000E+000	0.0000000E+000	67.4484	0.0000000E+000	0.0000000E+000	0.0000000E+000	-67.4484	0.0000000E+000	0.0000000E+000	0.0000000E+000	-22.5516	0.0000000E+000	0.0000000E+000	0.0000000E+000	22.5516	2.40808	67.4484	3.33874e-06	1.27432e-06	-2.61073e-10	1.27459e-06	0.251621	49663.5	10.1747	49673.7
6810.42	3.07044	1.24929	3.31487	-22.1402	4.53356	0.251573	0.0158433	18.7061	2.65691	1	9	0.00472625	0.00142577	0	2.51388e-05	0.000234871	8.71858e-06	-70.9022	0.00611498	0.00200072	0.00577842	-22.2196	3.3189	3.07244	1.25507	0.279427	0.113692	0.301671	22.1402	2656.91	6530.03	7049.86	-67.8598	0.0000000E+000	0.0000000E+000	0.0000000E+000	67.8598	0.0000000E+000	0.0000000E+000	0.0000000E+000	-67.8598	0.0000000E+000	0.0000000E+000	0.0000000E+000	-22.1402	0.0000000E+000	0.0000000E+000	0.0000000E+000	22.1402	2.45776	67.8598	5.97466e-07	3.98575e-06	3.72114e-09	3.98203e-06	0.251338	15878.8	14.8246	15864
4646	3.35674	1.40075	3.63728	-22.6504	4.79863	0.251531	-0.00757704	24.4558	3.62699	1	9	0.004636	0.00127458	0	2.43665e-05	8.21189e-05	7.18757e-06	16.9883	0.00563917	0.00539311	-0.00164763	-22.5938	3.64163	3.36214	1.3991	0.253726	0.105878	0.274931	22.6504	3626.99	8691.71	9418.11	-67.3496	0.0000000E+000	0.0000000E+000	0.0000000E+000	67.3496	0.0000000E+000	0.0000000E+000	0.0000000E+000	-67.3496	0.0000000E+000	0.0000000E+000	0.0000000E+000	-22.6504	0.0000000E+000	0.0000000E+000	0.0000000E+000	22.6504	2.3964	67.3496	-7.72272e-07	-1.90586e-06	-6.22218e-10	-1.90524e-06	0.251449	33196.4	10.8379	33185.6
3163.08	3.65306	1.57861	3.97956	-23.3708	5.38068	0.251479	-0.0273072	31.8738	5.01552	1	10	0.00472198	0.00118656	0	2.2298e-05	-0.000166104	6.99261e-06	-61.1157	0.00589319	0.00284666	0.00516006	-23.4227	3.98422	3.65591	1.58377	0.230668	0.0996795	0.251284	23.3708	5015.52	11606.4	12643.7	-66.6292	0.0000000E+000	0.0000000E+000	0.0000000E+000	66.6292	0.0000000E+000	0.0000000E+000	0.0000000E+000	-66.6292	0.0000000E+000	0.0000000E+000	0.0000000E+000	-23.3708	0.0000000E+000	0.0000000E+000	0.0000000E+000	23.3708	2.31409	66.6292	-2.06844e-06	-6.86719e-06	4.53584e-09	-6.87173e-06	0.251645	9209.25	6.08279	9215.33
2155.69	4.01571	1.79031	4.39672	-24.0286	5.83178	0.251517	-0.0127086	41.2388	6.83762	1	10	0.00465982	0.00105984	0	2.16864e-05	-0.000108822	1.05525e-05	-82.8311	0.0099567	0.00124255	0.00987886	-24.1394	4.40188	4.01695	1.80019	0.207733	0.0926128	0.227442	24.0286	6837.62	15336.9	16792.1	-65.9714	0.0000000E+000	0.0000000E+000	0.0000000E+000	65.9714	0.0000000E+000	0.0000000E+000	0.0000000E+000	-65.9714	0.0000000E+000	0.0000000E+000	0.0000000E+000	-24.0286	0.0000000E+000	0.0000000E+000	0.0000000E+000	24.0286	2.24303	65.9714	-6.11676e-07	-3.19644e-06	1.38298e-09	-3.19783e-06	0.251626	19791	8.56281	19799.6
1468.59	4.41007	2.05329	4.86463	-24.9663	6.28304	0.251531	-0.00944588	52.78	9.40306	1	10	0.00460233	0.00094608	0	1.99767e-05	-0.000108822	7.27047e-06	36.3954	0.00768484	0.00618585	-0.00455983	-24.8869	4.86832	4.41625	2.04873	0.186357	0.086766	0.205565	24.9663	9403.06	20195.9	22277.7	-65.0337	0.0000000E+000	0.0000000E+000	0.0000000E+000	65.0337	0.0000000E+000	0.0000000E+000	0.0000000E+000	-65.0337	0.0000000E+000	0.0000000E+000	0.0000000E+000	-24.9663	0.0000000E+000	0.0000000E+000	0.0000000E+000	24.9663	2.14781	65.0337	-1.70965e-06	-2.37594e-06	1.02792e-09	-2.37696e-06	0.25164	26628.7	11.5206	26640.2
1000.32	4.83517	2.34765	5.37497	-25.8982	6.73383	0.251517	-0.0111761	67.7716	12.9289	1	10	0.00454836	0.000846211	0	1.8201e-05	4.39307e-05	4.53261e-06	5.42691	0.00535636	0.00533235	-0.000506582	-25.8686	5.37955	4.8405	2.34714	0.167363	0.0812607	0.186047	25.8982	12928.9	26628.1	29600.9	-64.1018	0.0000000E+000	0.0000000E+000	0.0000000E+000	64.1018	0.0000000E+000	0.0000000E+000	0.0000000E+000	-64.1018	0.0000000E+000	0.0000000E+000	0.0000000E+000	-25.8982	0.0000000E+000	0.0000000E+000	0.0000000E+000	25.8982	2.05958	64.1018	-1.77574e-06	-2.81098e-06	-4.90973e-10	-2.81049e-06	0.251473	22505	3.93078	22501
681.09	5.35366	2.75253	6.01981	-27.2095	7.18359	0.251527	-0.0119517	84.8953	17.7493	1	10	0.00453028	0.000752562	0	1.65176e-05	0.000311248	5.13444e-06	-21.1733	0.00682261	0.00636204	0.00246426	-27.2027	6.0266	5.36003	2.75499	0.147736	0.0759567	0.166118	27.2095	17749.3	34522.4	38818	-62.7905	0.0000000E+000	0.0000000E+000	0.0000000E+000	62.7905	0.0000000E+000	0.0000000E+000	0.0000000E+000	-62.7905	0.0000000E+000	0.0000000E+000	0.0000000E+000	-27.2095	0.0000000E+000	0.0000000E+000	0.0000000E+000	27.2095	1.945	62.7905	-1.68337e-06	-3.00618e-06	-3.71994e-09	-3.00246e-06	0.251216	21045.3	26.0421	21019.3
463.961	5.92507	3.25524	6.7604	-28.7845	7.63532	0.25152	-0.0104229	105.379	24.4331	1	10	0.00450322	0.000666117	0	1.55884e-05	-0.000204292	7.99026e-06	9.18796	0.0119953	0.0118414	-0.00191533	-28.722	6.76986	5.93691	3.25333	0.129643	0.071226	0.14792	28.7845	24433.1	44472.1	50741.9	-61.2155	0.0000000E+000	0.0000000E+000	0.0000000E+000	61.2155	0.0000000E+000	0.0000000E+000	0.0000000E+000	-61.2155	0.0000000E+000	0.0000000E+000	0.0000000E+000	-28.7845	0.0000000E+000	0.0000000E+000	0.0000000E+000	28.7845	1.82016	61.2155	-9.29247e-07	-2.62156e-06	2.12931e-09	-2.62369e-06	0.251725	24131.6	19.6004	24151.2
316.316	6.64198	3.93287	7.71903	-30.6307	8.29604	0.251527	-0.00963979	127.935	33.2111	1	10	0.00499432	0.000647015	0	1.25331e-05	6.30248e-05	1.06431e-05	30.7323	0.0164495	0.0141394	-0.00840615	-30.5237	7.72692	6.65612	3.92446	0.111474	0.0660061	0.12955	30.6307	33211.1	56088.2	65183.3	-59.3693	0.0000000E+000	0.0000000E+000	0.0000000E+000	59.3693	0.0000000E+000	0.0000000E+000	0.0000000E+000	-59.3693	0.0000000E+000	0.0000000E+000	0.0000000E+000	-30.6307	0.0000000E+000	0.0000000E+000	0.0000000E+000	30.6307	1.68884	59.3693	-3.05526e-06	-2.42467e-06	-6.07546e-10	-2.42406e-06	0.251464	26092.5	6.53798	26086
215.345	7.60873	4.70284	8.9448	-31.7196	8.7456	0.251529	-0.0111649	157.154	43.4415	1	10	0.00498762	0.0005576	0	1.15739e-05	-0.000185198	4.2722e-06	28.0327	0.00766177	0.00676289	-0.00360084	-31.6772	8.94867	7.61549	4.69924	0.0950978	0.0587785	0.111797	31.7196	43441.5	70284.1	82625.8	-58.2804	0.0000000E+000	0.0000000E+000	0.0000000E+000	58.2804	0.0000000E+000	0.0000000E+000	0.0000000E+000	-58.2804	0.0000000E+000	0.0000000E+000	0.0000000E+000	-31.7196	0.0000000E+000	0.0000000E+000	0.0000000E+000	31.7196	1.6179	58.2804	-9.59166e-07	-2.8083e-06	2.06772e-09	-2.81037e-06	0.251714	22528.5	16.5875	22545.1
146.737	8.83975	5.55905	10.4424	-32.1645	9.19147	0.251525	-0.0102551	195.11	55.2939	1	10	0.00496236	0.000475212	0	1.06576e-05	-0.000185198	9.94224e-06	97.9961	0.0209217	-0.00291033	-0.0207183	-32.0767	10.4289	8.83684	5.53833	0.0810657	0.0509798	0.0957632	32.1645	55293.9	87925.9	103867	-57.8355	0.0000000E+000	0.0000000E+000	0.0000000E+000	57.8355	0.0000000E+000	0.0000000E+000	0.0000000E+000	-57.8355	0.0000000E+000	0.0000000E+000	0.0000000E+000	-32.1645	0.0000000E+000	0.0000000E+000	0.0000000E+000	32.1645	1.59015	57.8355	-9.16373e-07	-2.5794e-06	1.89922e-09	-2.5813e-06	0.25171	24526.9	18.0592	24545
100.032	10.4569	6.37386	12.2464	-31.3638	9.64284	0.251531	-0.0107622	249.62	67.6192	1	10	0.00497651	0.000406367	0	9.07777e-06	-5.15396e-05	4.2732e-06	33.9155	0.0105156	0.00872651	-0.0058674	-31.3191	12.2508	10.4656	6.36799	0.0697253	0.0425	0.081657	31.3638	67619.2	110936	129920	-58.6362	0.0000000E+000	0.0000000E+000	0.0000000E+000	58.6362	0.0000000E+000	0.0000000E+000	0.0000000E+000	-58.6362	0.0000000E+000	0.0000000E+000	0.0000000E+000	-31.3638	0.0000000E+000	0.0000000E+000	0.0000000E+000	31.3638	1.64059	58.6362	-1.57979e-06	-2.70702e-06	5.54679e-10	-2.70757e-06	0.251582	23371.7	4.78895	23376.5
68.104	12.3729	6.99417	14.213	-29.4786	10.1054	0.251537	-0.00797299	334.127	80.9124	1	10	0.00496925	0.000349628	0	7.91319e-06	-0.00014701	9.22142e-06	-79.2271	0.0263749	0.00492994	0.0259101	-29.5596	14.23	12.3779	7.02008	0.0612497	0.0346232	0.0703584	29.4786	80912.4	143137	164423	-60.5214	0.0000000E+000	0.0000000E+000	0.0000000E+000	60.5214	0.0000000E+000	0.0000000E+000	0.0000000E+000	-60.5214	0.0000000E+000	0.0000000E+000	0.0000000E+000	-29.4786	0.0000000E+000	0.0000000E+000	0.0000000E+000	29.4786	1.76904	60.5214	-1.16458e-06	-2.0055e-06	1.17211e-09	-2.00668e-06	0.251684	31548.7	18.4385	31567.1
46.4415	14.5334	7.30552	16.2663	-26.6873	10.5417	0.251531	-0.0117466	469.097	94.6212	1	10	0.00497254	0.000305696	0	6.45988e-06	6.30248e-05	4.17903e-06	106.751	0.0136705	-0.00394007	-0.0130904	-26.6523	16.2569	14.5295	7.29243	0.0549278	0.0276105	0.0614769	26.6873	94621.1	188237	210681	-63.3127	0.0000000E+000	0.0000000E+000	0.0000000E+000	63.3127	0.0000000E+000	0.0000000E+000	0.0000000E+000	-63.3127	0.0000000E+000	0.0000000E+000	0.0000000E+000	-26.6873	0.0000000E+000	0.0000000E+000	0.0000000E+000	26.6873	1.98938	63.3127	-1.45331e-06	-2.95464e-06	-7.40328e-10	-2.9539e-06	0.251468	21413.1	5.36536	21407.7
31.6296	16.7952	7.31386	18.3186	-23.5319	11.2066	0.251563	-0.00682081	687.987	109.671	1	11	0.00497984	0.000271847	0	4.88683e-06	-0.000204292	5.24944e-06	-111.196	0.0193103	-0.00698196	0.0180039	-23.5922	18.3194	16.7882	7.33186	0.0500496	0.0217953	0.0545894	23.5319	109671	251842	274685	-66.4681	0.0000000E+000	0.0000000E+000	0.0000000E+000	66.4681	0.0000000E+000	0.0000000E+000	0.0000000E+000	-66.4681	0.0000000E+000	0.0000000E+000	0.0000000E+000	-23.5319	0.0000000E+000	0.0000000E+000	0.0000000E+000	23.5319	2.29635	66.4681	-1.57304e-06	-1.71586e-06	1.39344e-09	-1.71725e-06	0.251767	36881.7	29.9513	36911.6
21.5517	18.7738	7.00078	20.0367	-20.4505	11.6274	0.251554	-0.00731789	1054.85	128.776	1	11	0.00496661	0.000247876	0	4.13026e-06	4.39307e-05	1.13986e-05	-93.5226	0.045985	-0.00282546	0.0458982	-20.5762	20.0501	18.771	7.04668	0.046763	0.0174379	0.0499085	20.4505	128776	345335	368564	-69.5495	0.0000000E+000	0.0000000E+000	0.0000000E+000	69.5495	0.0000000E+000	0.0000000E+000	0.0000000E+000	-69.5495	0.0000000E+000	0.0000000E+000	0.0000000E+000	-20.4505	0.0000000E+000	0.0000000E+000	0.0000000E+000	20.4505	2.68168	69.5495	-7.56579e-07	-1.84084e-06	-3.2148e-10	-1.84052e-06	0.25151	34375.2	6.0032	34369.2
14.6852	20.6037	6.4266	21.5827	-17.3235	12.0882	0.251561	-0.00649042	1686.4	149.524	1	11	0.00496727	0.00023015	0	3.8095e-06	-7.06337e-05	1.48326e-05	-53.8856	0.0644474	0.0379853	0.0520633	-17.4252	21.6345	20.6417	6.47867	0.0442317	0.0137965	0.0463334	17.3235	149524	479374	502153	-72.6765	0.0000000E+000	0.0000000E+000	0.0000000E+000	72.6765	0.0000000E+000	0.0000000E+000	0.0000000E+000	-72.6765	0.0000000E+000	0.0000000E+000	0.0000000E+000	-17.3235	0.0000000E+000	0.0000000E+000	0.0000000E+000	17.3235	3.206	72.6765	-3.20754e-07	-1.63273e-06	4.58442e-10	-1.63319e-06	0.251631	38758.8	10.8828	38769.7
10.0032	22.1722	5.87522	22.9374	-14.8412	12.5398	0.251563	-0.00658886	2708.05	177.671	1	11	0.0049677	0.000216576	0	3.97621e-06	-8.97277e-05	8.32541e-06	-67.3708	0.038441	0.0147908	0.0354816	-14.9173	22.9608	22.187	5.9107	0.0421424	0.0111669	0.0435969	14.8412	177671	670503	693644	-75.1588	0.0000000E+000	0.0000000E+000	0.0000000E+000	75.1588	0.0000000E+000	0.0000000E+000	0.0000000E+000	-75.1588	0.0000000E+000	0.0000000E+000	0.0000000E+000	-14.8412	0.0000000E+000	0.0000000E+000	0.0000000E+000	14.8412	3.77386	75.1588	1.66713e-07	-1.65752e-06	5.91204e-10	-1.65811e-06	0.251653	38180.1	13.6181	38193.7
6.81719	23.5778	5.24341	24.1538	-12.5379	12.8795	0.251562	-0.00624244	4452.47	209.826	1	11	0.00496927	0.000205735	0	3.25219e-06	6.30248e-05	6.89691e-06	-63.4735	0.0335233	0.0149719	0.0299943	-12.5995	24.1749	23.5927	5.2734	0.0404141	0.0089876	0.0414014	12.5379	209826	943512	966562	-77.4622	0.0000000E+000	0.0000000E+000	0.0000000E+000	77.4622	0.0000000E+000	0.0000000E+000	0.0000000E+000	-77.4622	0.0000000E+000	0.0000000E+000	0.0000000E+000	-12.5379	0.0000000E+000	0.0000000E+000	0.0000000E+000	12.5379	4.49665	77.4622	-7.24024e-07	-1.57036e-06	-3.93428e-10	-1.56997e-06	0.251499	40298.7	10.0962	40288.6
4.63925	24.751	4.75865	25.2043	-10.8829	13.3645	0.251565	-0.00601982	7209.22	256.985	1	11	0.00497862	0.000197531	0	3.61938e-07	5.74261e-06	7.06736e-06	-33.76	0.0357785	0.0297453	0.0198827	-10.9145	25.2373	24.7807	4.77853	0.0389622	0.00749091	0.0396758	10.8829	256984	1.33664e+06	1.36112e+06	-79.1171	0.0000000E+000	0.0000000E+000	0.0000000E+000	79.1171	0.0000000E+000	0.0000000E+000	0.0000000E+000	-79.1171	0.0000000E+000	0.0000000E+000	0.0000000E+000	-10.8829	0.0000000E+000	0.0000000E+000	0.0000000E+000	10.8829	5.20126	79.1171	-2.89025e-06	-1.51437e-06	-3.45694e-11	-1.51434e-06	0.251559	41789.4	0.95395	41788.4
3.1604	25.8165	4.27755	26.1684	-9.40791	14.0575	0.251562	-0.00623759	11772.9	314.571	1	11	0.00496637	0.000189785	0	-1.88781e-07	-0.000127916	1.30058e-06	91.0505	0.00685293	-0.000125641	-0.00685178	-9.39316	26.1672	25.8163	4.2707	0.0377	0.00624654	0.038214	9.40791	314571	1.89854e+06	1.92442e+06	-80.5921	0.0000000E+000	0.0000000E+000	0.0000000E+000	80.5921	0.0000000E+000	0.0000000E+000	0.0000000E+000	-80.5921	0.0000000E+000	0.0000000E+000	0.0000000E+000	-9.40791	0.0000000E+000	0.0000000E+000	0.0000000E+000	9.40791	6.03534	80.5921	-5.50719e-07	-1.56914e-06	7.97887e-10	-1.56994e-06	0.25169	40330	20.5072	40350.5
2.15577	26.7078	3.83607	26.9819	-8.17355	15.0612	0.251567	-0.00560767	19245.6	389.009	1	11	0.0049703	0.000184209	0	1.55167e-06	4.39307e-05	3.85344e-06	-45.4177	0.0209189	0.0146836	0.0148993	-8.20042	26.9985	26.7225	3.85097	0.0366854	0.00526917	0.0370619	8.17355	389010	2.70839e+06	2.73619e+06	-81.8264	0.0000000E+000	0.0000000E+000	0.0000000E+000	81.8264	0.0000000E+000	0.0000000E+000	0.0000000E+000	-81.8264	0.0000000E+000	0.0000000E+000	0.0000000E+000	-8.17355	0.0000000E+000	0.0000000E+000	0.0000000E+000	8.17355	6.96228	81.8264	1.74045e-06	-1.41071e-06	-2.46349e-10	-1.41046e-06	0.251523	44861.3	7.83405	44853.5
1.46631	27.5091	3.40519	27.7191	-7.0564	16.5215	0.251568	-0.00492342	31875.2	481.035	1	11	0.00496573	0.000179145	0	2.53634e-06	-0.000108822	3.25877e-06	39.9695	0.0181907	0.0139411	-0.0116853	-7.0289	27.7315	27.5231	3.3935	0.035803	0.00443183	0.0360762	7.0564	481036	3.88609e+06	3.91575e+06	-82.9436	0.0000000E+000	0.0000000E+000	0.0000000E+000	82.9436	0.0000000E+000	0.0000000E+000	0.0000000E+000	-82.9436	0.0000000E+000	0.0000000E+000	0.0000000E+000	-7.0564	0.0000000E+000	0.0000000E+000	0.0000000E+000	7.0564	8.0786	82.9436	9.84678e-07	-1.23857e-06	5.35775e-10	-1.23911e-06	0.251677	51096.1	22.1029	51118.2
1.00006	28.1888	3.1019	28.359	-6.27957	19.696	0.251566	-0.00466536	51305.6	613.817	1	12	0.00496886	0.000175213	0	-2.45999e-06	0.000158495	5.00455e-06	47.3275	0.0285627	0.01936	-0.0210004	-6.23314	28.3759	28.2082	3.0809	0.0350506	0.00385698	0.0352622	6.27957	613817	5.57813e+06	5.6118e+06	-83.7204	0.0000000E+000	0.0000000E+000	0.0000000E+000	83.7204	0.0000000E+000	0.0000000E+000	0.0000000E+000	-83.7204	0.0000000E+000	0.0000000E+000	0.0000000E+000	-6.27957	0.0000000E+000	0.0000000E+000	0.0000000E+000	6.27957	9.0876	83.7204	-4.99633e-06	-1.17364e-06	-7.39437e-10	-1.1729e-06	0.251407	53922	33.9727	53888
0.681362	28.7473	2.86094	28.8894	-5.68337	22.8082	0.251565	-0.00412826	81645.7	800.71	1	12	0.0049682	0.000171974	0	-1.2856e-05	-0.00024248	1.70649e-06	-2.54184	0.00992296	0.00991319	0.000440072	-5.68229	28.8993	28.7573	2.86138	0.0344447	0.00342794	0.0346148	5.68337	800710	8.0457e+06	8.08545e+06	-84.3166	0.0000000E+000	0.0000000E+000	0.0000000E+000	84.3166	0.0000000E+000	0.0000000E+000	0.0000000E+000	-84.3166	0.0000000E+000	0.0000000E+000	0.0000000E+000	-5.68337	0.0000000E+000	0.0000000E+000	0.0000000E+000	5.68337	10.0482	84.3166	-1.0396e-05	-1.03852e-06	1.00102e-09	-1.03953e-06	0.251807	60937.3	58.7367	60996
0.464091	29.2314	2.72934	29.3585	-5.33425	27.3648	0.251563	-0.00432131	125649	1085.94	1	12	0.00496908	0.000169255	0	-2.86223e-05	0.000234871	2.68209e-06	15.9947	0.0158465	0.015233	-0.00436646	-5.323	29.3733	29.2466	2.72497	0.0339142	0.00316657	0.0340617	5.33425	1.08594e+06	1.16305e+07	1.16811e+07	-84.6658	0.0000000E+000	0.0000000E+000	0.0000000E+000	84.6658	0.0000000E+000	0.0000000E+000	0.0000000E+000	-84.6658	0.0000000E+000	0.0000000E+000	0.0000000E+000	-5.33425	0.0000000E+000	0.0000000E+000	0.0000000E+000	5.33425	10.7101	84.6658	-1.57663e-05	-1.08708e-06	-1.01495e-09	-1.08607e-06	0.251328	58214.5	54.3519	58160.1
0.316193	29.7184	2.78615	29.8487	-5.35592	34.0397	0.25157	-0.00451038	180660	1574.06	1	12	0.00496783	0.000166434	0	-4.51142e-05	-5.15396e-05	2.27587e-06	-9.24814	0.0136743	0.0134966	0.00219761	-5.3577	29.8624	29.7319	2.78835	0.033356	0.00312718	0.0335023	5.35592	1.57406e+06	1.67897e+07	1.68633e+07	-84.6441	0.0000000E+000	0.0000000E+000	0.0000000E+000	84.6441	0.0000000E+000	0.0000000E+000	0.0000000E+000	-84.6441	0.0000000E+000	0.0000000E+000	0.0000000E+000	-5.35592	0.0000000E+000	0.0000000E+000	0.0000000E+000	5.35592	10.6665	84.6441	-1.64919e-05	-1.13468e-06	2.32463e-10	-1.13491e-06	0.251621	55775.8	11.4269	55787.2
0.215268	30.1692	3.07902	30.3259	-5.82734	43.8321	0.251556	-0.0052006	240120	2475.29	1	12	0.00497013	0.00016389	0	-5.60048e-05	-1.33515e-05	2.33207e-06	-17.0633	0.0142294	0.0136031	0.00417531	-5.83258	30.3399	30.1828	3.0832	0.0328047	0.003348	0.0329751	5.82734	2.47529e+06	2.42536e+07	2.43796e+07	-84.1727	0.0000000E+000	0.0000000E+000	0.0000000E+000	84.1727	0.0000000E+000	0.0000000E+000	0.0000000E+000	-84.1727	0.0000000E+000	0.0000000E+000	0.0000000E+000	-5.82734	0.0000000E+000	0.0000000E+000	0.0000000E+000	5.82734	9.7983	84.1727	-1.08905e-05	-1.30824e-06	6.94356e-11	-1.30831e-06	0.251569	48370.5	2.56729	48373.1
0.146929	30.5862	3.58391	30.7954	-6.68311	58.1703	0.251555	-0.00521623	302243	4093.53	1	12	0.00497055	0.000161405	0	-5.39001e-05	-0.000166104	2.16844e-06	-32.6363	0.0134348	0.0113136	0.00724542	-6.69405	30.8075	30.5975	3.59116	0.0322517	0.00377907	0.0324724	6.68311	4.09353e+06	3.49354e+07	3.51744e+07	-83.3169	0.0000000E+000	0.0000000E+000	0.0000000E+000	83.3169	0.0000000E+000	0.0000000E+000	0.0000000E+000	-83.3169	0.0000000E+000	0.0000000E+000	0.0000000E+000	-6.68311	0.0000000E+000	0.0000000E+000	0.0000000E+000	6.68311	8.5343	83.3169	2.10468e-06	-1.31217e-06	8.66437e-10	-1.31304e-06	0.251721	48225.5	31.8437	48257.3
0.0999041	31.1012	4.27098	31.3931	-7.81924	79.2474	0.251551	-0.00448693	373001	6903.92	1	12	0.00496541	0.000158169	0	-3.63897e-05	-0.000261574	2.32082e-06	27.8442	0.014673	0.0129742	-0.00685331	-7.80363	31.405	31.1142	4.26412	0.031558	0.0043337	0.0318541	7.81924	6.90392e+06	5.02743e+07	5.07461e+07	-82.1808	0.0000000E+000	0.0000000E+000	0.0000000E+000	82.1808	0.0000000E+000	0.0000000E+000	0.0000000E+000	-82.1808	0.0000000E+000	0.0000000E+000	0.0000000E+000	-7.81924	0.0000000E+000	0.0000000E+000	0.0000000E+000	7.81924	7.28199	82.1808	1.75104e-05	-1.12869e-06	1.17367e-09	-1.12986e-06	0.251812	56063	58.297	56121.3
0.0680626	31.8645	5.26372	32.2964	-9.38001	110.175	0.251558	-0.00379359	444241	11800.4	1	12	0.00496824	0.000153833	0	-1.66713e-05	-3.24455e-05	1.06975e-06	-34.6387	0.00695401	0.00572143	0.00395265	-9.38527	32.3027	31.8703	5.26767	0.0305492	0.00504644	0.0309632	9.38001	1.18004e+07	7.14351e+07	7.24032e+07	-80.62	0.0000000E+000	0.0000000E+000	0.0000000E+000	80.62	0.0000000E+000	0.0000000E+000	0.0000000E+000	-80.62	0.0000000E+000	0.0000000E+000	0.0000000E+000	-9.38001	0.0000000E+000	0.0000000E+000	0.0000000E+000	9.38001	6.05362	80.62	1.97183e-05	-9.54309e-07	1.23085e-10	-9.54432e-07	0.251591	66311.5	8.55273	66320
0.0464052	32.9065	6.69709	33.5811	-11.5037	155.525	0.251552	-0.00269194	512115	20368.1	1	12	0.0049689	0.000147967	0	-2.0689e-05	0.000101213	1.83025e-06	-16.3195	0.0123693	0.0118709	0.00347569	-11.5054	33.5934	32.9184	6.70057	0.0291805	0.00593877	0.0297787	11.5037	2.03681e+07	1.0008e+08	1.02131e+08	-78.4963	0.0000000E+000	0.0000000E+000	0.0000000E+000	78.4963	0.0000000E+000	0.0000000E+000	0.0000000E+000	-78.4963	0.0000000E+000	0.0000000E+000	0.0000000E+000	-11.5037	0.0000000E+000	0.0000000E+000	0.0000000E+000	11.5037	4.91355	78.4963	-4.01761e-06	-6.77163e-07	-2.72459e-10	-6.76891e-07	0.251451	93446.4	37.5985	93408.8
0.0315922	33.9672	8.6873	35.0605	-14.3462	222.13	0.251562	-0.00238995	579903	35603.1	1	12	0.0049699	0.000141752	0	-0.000109854	-5.15396e-05	2.61637e-06	42.5686	0.0184574	0.0135933	-0.0124859	-14.3209	35.0706	33.9808	8.67481	0.0276327	0.0070672	0.0285221	14.3462	3.56031e+07	1.39208e+08	1.43688e+08	-75.6538	0.0000000E+000	0.0000000E+000	0.0000000E+000	75.6538	0.0000000E+000	0.0000000E+000	0.0000000E+000	-75.6538	0.0000000E+000	0.0000000E+000	0.0000000E+000	-14.3462	0.0000000E+000	0.0000000E+000	0.0000000E+000	14.3462	3.90999	75.6538	-8.91647e-05	-6.01221e-07	1.23177e-10	-6.01345e-07	0.251614	105258	21.5651	105280
0.0215268	35.1967	11.0506	36.8907	-17.4305	319.869	0.251565	-0.00292184	669047	60033.2	1	12	0.00496945	0.000134708	0	-0.000344401	4.39307e-05	2.93952e-06	19.129	0.0218215	0.0206166	-0.00715085	-17.4103	36.9082	35.2173	11.0434	0.0258624	0.0081199	0.0271071	17.4305	6.00332e+07	1.9121e+08	2.00412e+08	-72.5695	0.0000000E+000	0.0000000E+000	0.0000000E+000	72.5695	0.0000000E+000	0.0000000E+000	0.0000000E+000	-72.5695	0.0000000E+000	0.0000000E+000	0.0000000E+000	-17.4305	0.0000000E+000	0.0000000E+000	0.0000000E+000	17.4305	3.18506	72.5695	-0.000234547	-7.3503e-07	-1.28358e-10	-7.34902e-07	0.251521	86098.1	15.0353	86083.1
0.0146812	37.102	14.1466	39.7075	-20.8713	463.171	0.251558	-0.00364899	766315	97267.1	1	12	0.00496917	0.000125144	0	-0.000730677	-0.000204292	1.94621e-06	60.177	0.0155517	0.00773423	-0.0134921	-20.8491	39.7099	37.1098	14.1331	0.0235316	0.00897236	0.0251841	20.8713	9.72671e+07	2.55101e+08	2.73015e+08	-69.1287	0.0000000E+000	0.0000000E+000	0.0000000E+000	69.1287	0.0000000E+000	0.0000000E+000	0.0000000E+000	-69.1287	0.0000000E+000	0.0000000E+000	0.0000000E+000	-20.8713	0.0000000E+000	0.0000000E+000	0.0000000E+000	20.8713	2.62268	69.1287	-0.000386277	-9.17933e-07	7.45461e-10	-9.18679e-07	0.251762	68939	55.9859	68994.9
0.0100092	39.788	18.615	43.9272	-25.0728	673.352	0.251559	-0.00429534	854199	153397	1	12	0.00496997	0.000113141	0	-0.00117856	0.000215777	1.87062e-06	38.1488	0.0165335	0.0130021	-0.0102129	-25.0535	43.9347	39.801	18.6048	0.0206198	0.00964707	0.0227649	25.0728	1.53397e+08	3.27874e+08	3.61983e+08	-64.9272	0.0000000E+000	0.0000000E+000	0.0000000E+000	64.9272	0.0000000E+000	0.0000000E+000	0.0000000E+000	-64.9272	0.0000000E+000	0.0000000E+000	0.0000000E+000	-25.0728	0.0000000E+000	0.0000000E+000	0.0000000E+000	25.0728	2.13741	64.9272	-0.000447882	-1.08053e-06	-9.26837e-10	-1.0796e-06	0.251343	58565.5	50.2352	58515.2