File: txt/18940_R308_UA704_SOC00_C07.mpt
EC-Lab ASCII FILE
Nb header lines : 65

Potentio Electrochemical Impedance Spectroscopy

Run on channel : 7 (SN 66126)
Grouped channel(s) : 6, 7, 8
User :
CE vs. WE compliance from -10 V to 10 V
Electrode connection : standard
Potential control : Ewe
Ewe ctrl range : min = -10.00 V, max = 10.00 V
Safety Limits :
	Do not start on E overload
Acquisition started on : 11/04/2025 15:06:24.562
Loaded Setting File :  C:\Users\Celltest\OneDrive - store-dot.com\Documents\EC-Lab\Data\@Biologic Test Protocols\anode half cell EIS SOC00.mps
Saved on :
	File : 18939_R308_UA704_SOC00_C07.mpr
	Directory : C:\Users\Celltest\OneDrive - store-dot.com\Documents\EC-Lab\Data\Charmaine\
	Host : 169.254.61.224
Device : VMP-3e (SN .003165)
Address : USB
EC-LAB for windows v11.62 (software)
Internet server v27.00 (firmware)
Command interpretor v12.03 (firmware)
Electrode material :
Initial state :
Electrolyte :
Comments :
Electrode surface area : 0.001 cm²
Characteristic mass : 0.001 g
Equivalent Weight : 0.000 g/eq.
Density : 0.000 g/cm3
Volume (V) : 0.001 cm³
Record Ece
Cycle Definition : Charge/Discharge alternance
Mode                Single sine
E (V)               0.0000
vs.                 Eoc
tE (h:m:s)          0:00:0.0000
record              0
dI                  0.000
unit dI             mA
dt (s)              0.000
fi                  100.000
unit fi             kHz
ff                  10.000
unit ff             mHz
Nd                  6
Points              per decade
spacing             Logarithmic
Va (mV)             5.0
pw                  0.10
Na                  2
corr                0
E range min (V)     -10.000
E range max (V)     10.000
I Range             Auto
Bandwidth           5
nc cycles           0
goto Ns'            0
nr cycles           0
inc. cycle          0

freq/Hz	Re(Z)/Ohm	-Im(Z)/Ohm	|Z|/Ohm	Phase(Z)/deg	time/s	<Ewe>/V	<I>/mA	Cs/µF	Cp/µF	cycle number	I Range	|Ewe|/V	|I|/A	Ns	(Q-Qo)/mA.h	<Ece>/V	|Ece|/V	Phase(Zce)/deg	|Zce|/Ohm	Re(Zce)/Ohm	-Im(Zce)/Ohm	Phase(Zwe-ce)/deg	|Zwe-ce|/Ohm	Re(Zwe-ce)/Ohm	-Im(Zwe-ce)/Ohm	Re(Y)/Ohm-1	Im(Y)/Ohm-1	|Y|/Ohm-1	Phase(Y)/deg	Re(C)/nF	Im(C)/nF	|C|/nF	Phase(C)/deg	Re(M)	Im(M)	|M|	Phase(M)/deg	Re(Permittivity)	Im(Permittivity)	|Permittivity|	Phase(Permittivity)/deg	Re(Resistivity)/Ohm.cm	Im(Resistivity)/Ohm.cm	|Resistivity|/Ohm.cm	Phase(Resistivity)/deg	Re(Conductivity)/mS/cm	Im(Conductivity)/mS/cm	|Conductivity|/mS/cm	Phase(Conductivity)/deg	Tan(Delta)	Loss Angle(Delta)/deg	dq/mA.h	Pwe/W	Pce/W	Pwe-ce/W	<Ewe-Ece>/V	Rwe/Ohm	Rce/Ohm	Rwe-ce/Ohm		Ewe-Ece/V
100004	1.44486	0.535369	1.54086	-20.3313	1.72652	0.237706	0.0612607	2.9727	0.358865	1	9	0.00464977	0.00301764	0	-3.89445e-07	-0.0002244	3.43025e-05	101.737	0.0113673	-0.00231241	-0.0111296	-19.9717	1.53485	1.44255	0.52424	0.608556	0.22549	0.648988	20.3313	358.865	968.51	1032.86	-69.6687	0.0000000E+000	0.0000000E+000	0.0000000E+000	69.6687	0.0000000E+000	0.0000000E+000	0.0000000E+000	-69.6687	0.0000000E+000	0.0000000E+000	0.0000000E+000	-20.3313	0.0000000E+000	0.0000000E+000	0.0000000E+000	20.3313	2.69881	69.6687	-3.89445e-07	1.4562e-05	-1.37469e-08	1.45758e-05	0.237931	3880.24	3.66303	3883.9
68132	1.59389	0.606906	1.70553	-20.8453	2.23354	0.237711	0.0522868	3.849	0.487385	1	9	0.00506653	0.00297065	0	9.70186e-06	-0.00047238	2.70212e-05	78.9394	0.00909606	0.00174506	-0.00892709	-20.5439	1.70401	1.59564	0.597978	0.54795	0.208643	0.586329	20.8453	487.385	1280	1369.65	-69.1547	0.0000000E+000	0.0000000E+000	0.0000000E+000	69.1547	0.0000000E+000	0.0000000E+000	0.0000000E+000	-69.1547	0.0000000E+000	0.0000000E+000	0.0000000E+000	-20.8453	0.0000000E+000	0.0000000E+000	0.0000000E+000	20.8453	2.62626	69.1547	1.00913e-05	1.24291e-05	-2.46992e-08	1.24538e-05	0.238183	4546.29	9.03441	4555.32
46420.4	1.77072	0.672946	1.89428	-20.8088	2.74054	0.237714	0.0586914	5.09485	0.642987	1	9	0.00507393	0.00267855	0	3.16463e-06	-0.000129022	2.35467e-05	82.9493	0.00879085	0.00107906	-0.00872437	-20.5503	1.89221	1.7718	0.664221	0.49347	0.187539	0.527904	20.8088	642.987	1691.89	1809.95	-69.1912	0.0000000E+000	0.0000000E+000	0.0000000E+000	69.1912	0.0000000E+000	0.0000000E+000	0.0000000E+000	-69.1912	0.0000000E+000	0.0000000E+000	0.0000000E+000	-20.8088	0.0000000E+000	0.0000000E+000	0.0000000E+000	20.8088	2.6313	69.1912	-6.53724e-06	1.39518e-05	-7.57251e-09	1.39593e-05	0.237843	4050.23	2.19832	4052.43
31621.1	1.94277	0.745082	2.08075	-20.9825	3.24757	0.237733	0.0579467	6.75521	0.866178	1	9	0.0050991	0.00245061	0	1.93648e-05	-0.000338852	9.21888e-06	39.6987	0.00376187	0.00289444	-0.00240289	-20.8923	2.08259	1.94567	0.742679	0.448728	0.172094	0.480596	20.9825	866.178	2258.53	2418.93	-69.0175	0.0000000E+000	0.0000000E+000	0.0000000E+000	69.0175	0.0000000E+000	0.0000000E+000	0.0000000E+000	-69.0175	0.0000000E+000	0.0000000E+000	0.0000000E+000	-20.9825	0.0000000E+000	0.0000000E+000	0.0000000E+000	20.9825	2.60746	69.0175	1.62002e-05	1.37758e-05	-1.96353e-08	1.37955e-05	0.238072	4102.62	5.84766	4108.47
21544.7	2.13493	0.807575	2.28257	-20.72	3.50652	0.237722	0.0506111	9.14739	1.14503	1	9	0.00501897	0.00219883	0	2.45332e-05	-0.000357928	7.57256e-06	27.8327	0.00344391	0.0030455	-0.00160793	-20.6552	2.28485	2.13798	0.805967	0.409767	0.155001	0.438103	20.72	1145.03	3027.03	3236.36	-69.28	0.0000000E+000	0.0000000E+000	0.0000000E+000	69.28	0.0000000E+000	0.0000000E+000	0.0000000E+000	-69.28	0.0000000E+000	0.0000000E+000	0.0000000E+000	-20.72	0.0000000E+000	0.0000000E+000	0.0000000E+000	20.72	2.64363	69.28	5.16834e-06	1.20314e-05	-1.81151e-08	1.20495e-05	0.23808	4697.03	7.07211	4704.11
14678.6	2.32467	0.873847	2.48348	-20.6013	3.89156	0.237721	0.0631597	12.408	1.5362	1	9	0.00483901	0.00194848	0	2.86684e-05	-0.000453305	1.3373e-05	-64.4473	0.0068633	0.00296043	0.00619199	-20.7108	2.48844	2.32763	0.880039	0.376911	0.141681	0.40266	20.6013	1536.2	4086.71	4365.91	-69.3987	0.0000000E+000	0.0000000E+000	0.0000000E+000	69.3987	0.0000000E+000	0.0000000E+000	0.0000000E+000	-69.3987	0.0000000E+000	0.0000000E+000	0.0000000E+000	-20.6013	0.0000000E+000	0.0000000E+000	0.0000000E+000	20.6013	2.66027	69.3987	4.13521e-06	1.50144e-05	-2.86306e-08	1.5043e-05	0.238174	3763.81	7.17712	3770.98
10002.2	2.51478	0.943165	2.68583	-20.5585	4.27652	0.237709	0.0553029	16.8708	2.08043	1	9	0.00493776	0.00183845	0	3.49594e-05	-0.000453305	1.00442e-05	-87.7616	0.00546341	0.000213388	0.00545924	-20.6658	2.68795	2.515	0.948624	0.348612	0.130746	0.372324	20.5585	2080.43	5547.1	5924.4	-69.4415	0.0000000E+000	0.0000000E+000	0.0000000E+000	69.4415	0.0000000E+000	0.0000000E+000	0.0000000E+000	-69.4415	0.0000000E+000	0.0000000E+000	0.0000000E+000	-20.5585	0.0000000E+000	0.0000000E+000	0.0000000E+000	20.5585	2.66632	69.4415	6.291e-06	1.3146e-05	-2.5069e-08	1.3171e-05	0.238162	4298.31	8.19677	4306.51
6810.42	2.7309	1.02547	2.91709	-20.5815	4.53556	0.237725	0.0453981	22.7888	2.81624	1	9	0.00470832	0.00161404	0	3.95584e-05	-3.36454e-05	2.5899e-05	-71.7154	0.016046	0.00503423	0.0152358	-20.8261	2.92719	2.73594	1.04071	0.320927	0.12051	0.342807	20.5815	2816.24	7499.84	8011.17	-69.4185	0.0000000E+000	0.0000000E+000	0.0000000E+000	69.4185	0.0000000E+000	0.0000000E+000	0.0000000E+000	-69.4185	0.0000000E+000	0.0000000E+000	0.0000000E+000	-20.5815	0.0000000E+000	0.0000000E+000	0.0000000E+000	20.5815	2.66306	69.4185	4.59906e-06	1.07922e-05	-1.52743e-09	1.07938e-05	0.237758	5236.45	0.741119	5237.19
4646	2.95053	1.14345	3.16435	-21.1834	4.8006	0.237662	0.0227585	29.9587	3.91192	1	9	0.00461443	0.00145826	0	4.23201e-05	-0.00026255	9.70452e-06	-48.2335	0.00665489	0.0044328	0.00496365	-21.2381	3.17028	2.95496	1.14842	0.294667	0.114196	0.316021	21.1834	3911.92	10094.2	10825.7	-68.8166	0.0000000E+000	0.0000000E+000	0.0000000E+000	68.8166	0.0000000E+000	0.0000000E+000	0.0000000E+000	-68.8166	0.0000000E+000	0.0000000E+000	0.0000000E+000	-21.1834	0.0000000E+000	0.0000000E+000	0.0000000E+000	21.1834	2.58037	68.8166	2.76168e-06	5.40884e-06	-5.97526e-09	5.41481e-06	0.237925	10442.8	11.5364	10454.3
3163.08	3.22495	1.31033	3.48098	-22.1124	5.17466	0.237533	0.0123696	38.3999	5.44109	1	9	0.00455053	0.00130725	0	4.3322e-05	0.000157109	7.49974e-06	-129.47	0.00573702	-0.00364689	0.00442872	-22.2026	3.47928	3.2213	1.31476	0.266145	0.108137	0.287275	22.1124	5441.09	13391.5	14454.7	-67.8876	0.0000000E+000	0.0000000E+000	0.0000000E+000	67.8876	0.0000000E+000	0.0000000E+000	0.0000000E+000	-67.8876	0.0000000E+000	0.0000000E+000	0.0000000E+000	-22.1124	0.0000000E+000	0.0000000E+000	0.0000000E+000	22.1124	2.46118	67.8876	1.00189e-06	2.9382e-06	1.94338e-09	2.93625e-06	0.237376	19202.9	12.7012	19190.2
2155.69	3.54203	1.48321	3.84003	-22.7213	5.87083	0.237633	-0.0123365	49.7773	7.42619	1	10	0.0046611	0.00121382	0	4.67307e-05	-0.000453305	5.09896e-06	-68.4524	0.00420077	0.00154283	0.00390719	-22.7661	3.84297	3.54357	1.48712	0.240205	0.100585	0.260414	22.7213	7426.19	17734.4	19226.4	-67.2787	0.0000000E+000	0.0000000E+000	0.0000000E+000	67.2787	0.0000000E+000	0.0000000E+000	0.0000000E+000	-67.2787	0.0000000E+000	0.0000000E+000	0.0000000E+000	-22.7213	0.0000000E+000	0.0000000E+000	0.0000000E+000	22.7213	2.38808	67.2787	3.40873e-06	-2.93155e-06	5.59218e-09	-2.93714e-06	0.238086	19262.6	36.7451	19299.4
1468.59	3.87302	1.6763	4.22022	-23.4036	6.3221	0.237642	-0.0121801	64.65	10.2	1	10	0.00460338	0.00109079	0	4.63145e-05	-0.0002244	8.08933e-06	-76.6702	0.00741602	0.00170981	0.00721622	-23.4842	4.22466	3.87473	1.68351	0.21746	0.0941197	0.236954	23.4036	10200	23566.7	25679.4	-66.5964	0.0000000E+000	0.0000000E+000	0.0000000E+000	66.5964	0.0000000E+000	0.0000000E+000	0.0000000E+000	-66.5964	0.0000000E+000	0.0000000E+000	0.0000000E+000	-23.4036	0.0000000E+000	0.0000000E+000	0.0000000E+000	23.4036	2.31046	66.5964	-4.1623e-07	-2.8945e-06	2.73321e-09	-2.89724e-06	0.237866	19510.7	18.4234	19529.1
1000.32	4.24034	1.92527	4.65695	-24.4198	6.77286	0.237637	-0.0124519	82.6396	14.1244	1	10	0.00456135	0.000979472	0	4.47938e-05	-9.08716e-05	1.19836e-05	13.289	0.0122347	0.0119071	-0.00281231	-24.3279	4.66664	4.25225	1.92246	0.195523	0.0887747	0.214733	24.4198	14124.4	31108.5	34164.8	-65.5802	0.0000000E+000	0.0000000E+000	0.0000000E+000	65.5802	0.0000000E+000	0.0000000E+000	0.0000000E+000	-65.5802	0.0000000E+000	0.0000000E+000	0.0000000E+000	-24.4198	0.0000000E+000	0.0000000E+000	0.0000000E+000	24.4198	2.20246	65.5802	-1.52067e-06	-2.95902e-06	1.13152e-09	-2.96015e-06	0.237727	19084.4	7.29783	19091.7
681.09	4.66233	2.2378	5.17157	-25.6398	7.22252	0.237638	-0.0125673	104.423	19.5521	1	10	0.00453572	0.00087705	0	4.39825e-05	2.35809e-05	2.43434e-06	-55.8814	0.0027756	0.00155686	0.00229786	-25.6553	5.17396	4.66389	2.2401	0.174325	0.0836714	0.193365	25.6398	19552.1	40735.7	45184.9	-64.3602	0.0000000E+000	0.0000000E+000	0.0000000E+000	64.3602	0.0000000E+000	0.0000000E+000	0.0000000E+000	-64.3602	0.0000000E+000	0.0000000E+000	0.0000000E+000	-25.6398	0.0000000E+000	0.0000000E+000	0.0000000E+000	25.6398	2.08345	64.3602	-8.11305e-07	-2.98646e-06	-2.96348e-10	-2.98617e-06	0.237615	18909.3	1.87637	18907.4
463.961	5.1622	2.62643	5.79193	-26.9661	7.67435	0.237636	-0.0108399	130.609	26.857	1	10	0.00451532	0.000779589	0	4.26598e-05	-5.27208e-05	9.40903e-06	87.0411	0.0120692	0.000623018	-0.0120531	-26.857	5.78703	5.16282	2.61438	0.153882	0.0782924	0.172654	26.9661	26857	52787.1	59226.5	-63.0339	0.0000000E+000	0.0000000E+000	0.0000000E+000	63.0339	0.0000000E+000	0.0000000E+000	0.0000000E+000	-63.0339	0.0000000E+000	0.0000000E+000	0.0000000E+000	-26.9661	0.0000000E+000	0.0000000E+000	0.0000000E+000	26.9661	1.96548	63.0339	-1.3227e-06	-2.57595e-06	5.71489e-10	-2.57652e-06	0.237688	21922.3	4.86358	21927.1
316.316	5.78764	3.12674	6.57824	-28.3799	8.33507	0.237626	-0.0121429	160.919	36.3556	1	10	0.00500338	0.000760595	0	4.12987e-05	-0.000205324	6.38379e-06	-93.2658	0.00839316	-0.000478141	0.00837953	-28.4461	6.58181	5.78716	3.13512	0.133746	0.0722558	0.152016	28.3799	36355.6	67294.7	76487.3	-61.6201	0.0000000E+000	0.0000000E+000	0.0000000E+000	61.6201	0.0000000E+000	0.0000000E+000	0.0000000E+000	-61.6201	0.0000000E+000	0.0000000E+000	0.0000000E+000	-28.3799	0.0000000E+000	0.0000000E+000	0.0000000E+000	28.3799	1.85101	61.6201	-1.36113e-06	-2.88547e-06	2.49323e-09	-2.88796e-06	0.237832	19569.2	16.909	19586.1
215.345	6.64126	3.66795	7.58685	-28.9118	8.78556	0.237639	-0.0111191	201.494	47.0964	1	10	0.00499424	0.000658275	0	4.02781e-05	4.26563e-05	6.0108e-06	-44.2018	0.00913114	0.00654601	0.00636612	-28.9299	7.59566	6.64781	3.67432	0.115379	0.0637237	0.131807	28.9118	47096.4	85273.5	97414.8	-61.0882	0.0000000E+000	0.0000000E+000	0.0000000E+000	61.0882	0.0000000E+000	0.0000000E+000	0.0000000E+000	-61.0882	0.0000000E+000	0.0000000E+000	0.0000000E+000	-28.9118	0.0000000E+000	0.0000000E+000	0.0000000E+000	28.9118	1.81062	61.0882	-1.02057e-06	-2.64234e-06	-4.74301e-10	-2.64186e-06	0.237596	21372.1	3.8363	21368.2
146.737	7.71241	4.18768	8.77599	-28.5011	9.23148	0.237632	-0.01288	259.003	58.9741	1	10	0.00498732	0.000568292	0	3.96251e-05	-0.000109947	1.0773e-05	6.23599	0.0189568	0.0188446	-0.00205916	-28.4307	8.79157	7.73126	4.18563	0.100138	0.0543728	0.113947	28.5011	58974.1	108612	123590	-61.4989	0.0000000E+000	0.0000000E+000	0.0000000E+000	61.4989	0.0000000E+000	0.0000000E+000	0.0000000E+000	-61.4989	0.0000000E+000	0.0000000E+000	0.0000000E+000	-28.5011	0.0000000E+000	0.0000000E+000	0.0000000E+000	28.5011	1.84169	61.4989	-6.53012e-07	-3.0607e-06	1.41612e-09	-3.06212e-06	0.237742	18449.7	8.53626	18458.2
100.032	8.99858	4.53052	10.0747	-26.7239	9.68286	0.237633	-0.0114393	351.183	71.0171	1	10	0.00497906	0.000494213	0	3.7596e-05	-5.27208e-05	4.18138e-06	-27.0459	0.00846068	0.00753544	0.0038471	-26.7242	10.0832	9.00611	4.53436	0.0886559	0.0446356	0.0992583	26.7239	71017.1	141055	157924	-63.2761	0.0000000E+000	0.0000000E+000	0.0000000E+000	63.2761	0.0000000E+000	0.0000000E+000	0.0000000E+000	-63.2761	0.0000000E+000	0.0000000E+000	0.0000000E+000	-26.7239	0.0000000E+000	0.0000000E+000	0.0000000E+000	26.7239	1.98621	63.2761	-2.02913e-06	-2.71836e-06	6.03089e-10	-2.71896e-06	0.237686	20773.4	4.60874	20778
68.104	10.4705	4.63129	11.449	-23.8607	10.1455	0.23764	-0.0100693	504.598	82.5686	1	10	0.0049784	0.000434833	0	3.59995e-05	-0.000186249	1.09297e-05	-83.7408	0.0251354	0.00274044	0.0249856	-23.9694	11.4616	10.4732	4.65628	0.0798787	0.0353319	0.0873439	23.8607	82568.6	186672	204117	-66.1393	0.0000000E+000	0.0000000E+000	0.0000000E+000	66.1393	0.0000000E+000	0.0000000E+000	0.0000000E+000	-66.1393	0.0000000E+000	0.0000000E+000	0.0000000E+000	-23.8607	0.0000000E+000	0.0000000E+000	0.0000000E+000	23.8607	2.26081	66.1393	-1.59652e-06	-2.39287e-06	1.8754e-09	-2.39474e-06	0.237826	23600.4	18.4967	23618.8
46.4415	11.9039	4.3893	12.6874	-20.2403	10.5827	0.237625	-0.0155716	780.761	93.4467	1	10	0.00498162	0.000392643	0	3.4426e-05	-0.000319777	7.7387e-06	-54.6654	0.0197092	0.0113988	0.0160785	-20.2905	12.7037	11.9153	4.40538	0.0739514	0.0272678	0.0788184	20.2403	93446.7	253431	270110	-69.7597	0.0000000E+000	0.0000000E+000	0.0000000E+000	69.7597	0.0000000E+000	0.0000000E+000	0.0000000E+000	-69.7597	0.0000000E+000	0.0000000E+000	0.0000000E+000	-20.2403	0.0000000E+000	0.0000000E+000	0.0000000E+000	20.2403	2.71204	69.7597	-1.57344e-06	-3.70019e-06	4.97942e-09	-3.70517e-06	0.237945	15260.2	20.5359	15280.7
31.6296	13.1024	3.91685	13.6753	-16.6436	11.0126	0.23762	-0.0164762	1284.67	105.387	1	10	0.00497774	0.000363994	0	3.27835e-05	-0.000186249	5.58646e-06	-52.1276	0.0153477	0.00942201	0.0121151	-16.6809	13.6878	13.1118	3.92896	0.0700609	0.0209441	0.0731244	16.6436	105387	352535	367950	-73.3564	0.0000000E+000	0.0000000E+000	0.0000000E+000	73.3564	0.0000000E+000	0.0000000E+000	0.0000000E+000	-73.3564	0.0000000E+000	0.0000000E+000	0.0000000E+000	-16.6436	0.0000000E+000	0.0000000E+000	0.0000000E+000	16.6436	3.34514	73.3564	-1.64251e-06	-3.91507e-06	3.06867e-09	-3.91814e-06	0.237806	14422	11.3041	14433.3
21.5517	14.1103	3.37134	14.5075	-13.4376	11.4335	0.237628	-0.0172468	2190.46	118.292	1	10	0.00498077	0.000343324	0	3.07842e-05	-0.000167173	6.85441e-06	93.9622	0.0199649	-0.00137955	-0.0199171	-13.3623	14.5015	14.109	3.35143	0.0670428	0.0160183	0.0689298	13.4376	118292	495097	509032	-76.5624	0.0000000E+000	0.0000000E+000	0.0000000E+000	76.5624	0.0000000E+000	0.0000000E+000	0.0000000E+000	-76.5624	0.0000000E+000	0.0000000E+000	0.0000000E+000	-13.4376	0.0000000E+000	0.0000000E+000	0.0000000E+000	13.4376	4.18538	76.5624	-1.99932e-06	-4.09832e-06	2.88321e-09	-4.1012e-06	0.237795	13778.1	9.693	13787.8
14.6852	14.8756	2.84665	15.1456	-10.8333	12.1432	0.237692	-0.00394086	3807.22	134.494	1	11	0.00497566	0.000328522	0	2.62632e-05	2.35809e-05	4.98173e-06	30.0771	0.0151641	0.0131223	-0.00759969	-10.7958	15.157	14.8888	2.83905	0.0648492	0.0124097	0.0660259	10.8333	134494	702824	715577	-79.1667	0.0000000E+000	0.0000000E+000	0.0000000E+000	79.1667	0.0000000E+000	0.0000000E+000	0.0000000E+000	-79.1667	0.0000000E+000	0.0000000E+000	0.0000000E+000	-10.8333	0.0000000E+000	0.0000000E+000	0.0000000E+000	10.8333	5.22567	79.1667	-4.52099e-06	-9.3671e-07	-9.29291e-11	-9.36617e-07	0.237668	60314.6	5.98369	60308.6
10.0032	15.4513	2.34019	15.6275	-8.61231	12.5939	0.237677	-0.00430652	6798.77	152.458	1	11	0.00497786	0.000318532	0	2.82924e-05	-0.00026255	1.03225e-05	-43.2452	0.0324066	0.0236059	0.0222025	-8.67972	15.6542	15.4749	2.36239	0.0632681	0.00958231	0.0639896	8.61231	152458	1.00662e+06	1.0181e+06	-81.3877	0.0000000E+000	0.0000000E+000	0.0000000E+000	81.3877	0.0000000E+000	0.0000000E+000	0.0000000E+000	-81.3877	0.0000000E+000	0.0000000E+000	0.0000000E+000	-8.61231	0.0000000E+000	0.0000000E+000	0.0000000E+000	8.61231	6.60259	81.3877	2.02915e-06	-1.02356e-06	1.13068e-09	-1.02469e-06	0.23794	55190	60.9658	55251
6.81719	15.8792	1.97507	16.0015	-7.0901	12.9335	0.237693	-0.00289571	11820.4	180.083	1	11	0.00497821	0.000311108	0	2.58965e-05	-0.000434229	8.23198e-06	-9.97751	0.0264602	0.02606	0.00458454	-7.09487	16.028	15.9052	1.97966	0.0620161	0.00771363	0.062494	7.0901	180083	1.44784e+06	1.45899e+06	-82.9099	0.0000000E+000	0.0000000E+000	0.0000000E+000	82.9099	0.0000000E+000	0.0000000E+000	0.0000000E+000	-82.9099	0.0000000E+000	0.0000000E+000	0.0000000E+000	-7.0901	0.0000000E+000	0.0000000E+000	0.0000000E+000	7.0901	8.0398	82.9099	-2.39584e-06	-6.88291e-07	1.2574e-09	-6.89548e-07	0.238127	82084.5	149.956	82234.5
4.63925	16.2015	1.6463	16.285	-5.80214	13.4174	0.237687	-0.00371685	20838.3	212.965	1	11	0.00497352	0.000305406	0	2.38765e-05	-0.0002244	1.31814e-05	68.7772	0.0431603	0.0156238	-0.0402332	-5.65586	16.2965	16.2172	1.60607	0.0610918	0.00620778	0.0614064	5.80214	212965	2.09582e+06	2.10662e+06	-84.1979	0.0000000E+000	0.0000000E+000	0.0000000E+000	84.1979	0.0000000E+000	0.0000000E+000	0.0000000E+000	-84.1979	0.0000000E+000	0.0000000E+000	0.0000000E+000	-5.80214	0.0000000E+000	0.0000000E+000	0.0000000E+000	5.80214	9.84116	84.1979	-2.02006e-06	-8.83446e-07	8.3406e-10	-8.8428e-07	0.237911	63948.4	60.3736	64008.7
3.1604	16.4921	1.41351	16.5526	-4.89875	14.1104	0.237689	-0.00343544	35627	259.804	1	11	0.00498012	0.000300866	0	2.66901e-05	-7.17962e-05	6.1066e-06	-98.3289	0.0202967	-0.00294008	0.0200827	-4.96888	16.5514	16.4892	1.43359	0.0601928	0.00515902	0.0604135	4.89875	259804	3.03126e+06	3.04237e+06	-85.1013	0.0000000E+000	0.0000000E+000	0.0000000E+000	85.1013	0.0000000E+000	0.0000000E+000	0.0000000E+000	-85.1013	0.0000000E+000	0.0000000E+000	0.0000000E+000	-4.89875	0.0000000E+000	0.0000000E+000	0.0000000E+000	4.89875	11.6675	85.1013	2.81359e-06	-8.16567e-07	2.46651e-10	-8.16813e-07	0.237761	69187.6	20.8987	69208.5
2.15577	16.7231	1.24747	16.7695	-4.26611	15.114	0.23769	-0.00287148	59182	327.495	1	11	0.00498001	0.000296967	0	3.04148e-05	-0.000129022	5.24041e-06	4.02631	0.0176464	0.0176029	-0.00123903	-4.25742	16.787	16.7407	1.24623	0.0594667	0.00443595	0.0596319	4.26611	327495	4.39028e+06	4.40248e+06	-85.7339	0.0000000E+000	0.0000000E+000	0.0000000E+000	85.7339	0.0000000E+000	0.0000000E+000	0.0000000E+000	-85.7339	0.0000000E+000	0.0000000E+000	0.0000000E+000	-4.26611	0.0000000E+000	0.0000000E+000	0.0000000E+000	4.26611	13.4056	85.7339	3.72473e-06	-6.82523e-07	3.70486e-10	-6.82894e-07	0.237819	82776	44.9323	82821
1.46631	16.9394	1.1552	16.9787	-3.90131	16.5755	0.237686	-0.00192895	93958.8	434.952	1	11	0.00498145	0.000293394	0	2.9664e-05	-0.000510531	1.9207e-06	-49.933	0.00654651	0.00421388	0.00500999	-3.9172	16.9833	16.9436	1.16021	0.0587608	0.00400726	0.0588973	3.90131	434952	6.37796e+06	6.39278e+06	-86.0987	0.0000000E+000	0.0000000E+000	0.0000000E+000	86.0987	0.0000000E+000	0.0000000E+000	0.0000000E+000	-86.0987	0.0000000E+000	0.0000000E+000	0.0000000E+000	-3.90131	0.0000000E+000	0.0000000E+000	0.0000000E+000	3.90131	14.6636	86.0987	-7.5075e-07	-4.58485e-07	9.84789e-10	-4.59469e-07	0.238197	123220	264.668	123485
1.00006	17.1183	1.11385	17.1545	-3.72286	19.7499	0.237689	-0.00187305	142878	602.37	1	12	0.00498236	0.000290441	0	2.0099e-05	-7.17962e-05	3.12759e-06	5.80013	0.0107684	0.0107133	-0.00108824	-3.71691	17.1651	17.129	1.11276	0.0581708	0.00378504	0.0582938	3.72286	602370	9.25758e+06	9.27715e+06	-86.2771	0.0000000E+000	0.0000000E+000	0.0000000E+000	86.2771	0.0000000E+000	0.0000000E+000	0.0000000E+000	-86.2771	0.0000000E+000	0.0000000E+000	0.0000000E+000	-3.72286	0.0000000E+000	0.0000000E+000	0.0000000E+000	3.72286	15.3686	86.2771	-9.56507e-06	-4.45203e-07	1.34478e-10	-4.45338e-07	0.23776	126899	38.3311	126937
0.681362	17.265	1.11345	17.3008	-3.69	22.8621	0.23769	-0.00180365	209784	868.917	1	12	0.00497573	0.000287601	0	6.31788e-06	9.98826e-05	2.002e-06	-90.5072	0.00696103	-6.1626e-05	0.00696076	-3.71301	17.3012	17.2649	1.12041	0.0576809	0.00371994	0.0578007	3.69	868916	1.34733e+07	1.35013e+07	-86.31	0.0000000E+000	0.0000000E+000	0.0000000E+000	86.31	0.0000000E+000	0.0000000E+000	0.0000000E+000	-86.31	0.0000000E+000	0.0000000E+000	0.0000000E+000	-3.69	0.0000000E+000	0.0000000E+000	0.0000000E+000	3.69	15.5058	86.31	-1.37811e-05	-4.28709e-07	-1.80153e-10	-4.28529e-07	0.23759	131782	55.378	131727
0.464091	17.4518	1.2112	17.4937	-3.97012	27.4187	0.237683	-0.00331928	283140	1357.28	1	12	0.00498047	0.0002847	0	-6.26573e-06	4.26563e-05	3.32473e-06	0.81048	0.011678	0.0116769	-0.000165187	-3.96694	17.5054	17.4634	1.21104	0.0570261	0.00395777	0.0571633	3.97012	1.35728e+06	1.95565e+07	1.96035e+07	-86.0299	0.0000000E+000	0.0000000E+000	0.0000000E+000	86.0299	0.0000000E+000	0.0000000E+000	0.0000000E+000	-86.0299	0.0000000E+000	0.0000000E+000	0.0000000E+000	-3.97012	0.0000000E+000	0.0000000E+000	0.0000000E+000	3.97012	14.4086	86.0299	-1.25836e-05	-7.88935e-07	-1.41588e-10	-7.88793e-07	0.23764	71606.7	12.8511	71593.8
0.316193	17.6208	1.43118	17.6788	-4.64345	34.0938	0.237684	-0.00483198	351700	2304.93	1	12	0.00497941	0.00028166	0	-8.92092e-06	4.50547e-06	9.76793e-07	-15.9855	0.00346798	0.00333388	0.000955064	-4.64566	17.6822	17.6241	1.43214	0.0563793	0.00457921	0.056565	4.64345	2.30493e+06	2.83784e+07	2.84718e+07	-85.3565	0.0000000E+000	0.0000000E+000	0.0000000E+000	85.3565	0.0000000E+000	0.0000000E+000	0.0000000E+000	-85.3565	0.0000000E+000	0.0000000E+000	0.0000000E+000	-4.64345	0.0000000E+000	0.0000000E+000	0.0000000E+000	4.64345	12.312	85.3565	-2.65519e-06	-1.14848e-06	-2.17703e-11	-1.14846e-06	0.237679	49189.8	0.932428	49188.8
0.215268	17.7802	1.7508	17.8662	-5.62373	43.8863	0.237688	-0.00477151	422284	4055.22	1	12	0.00498003	0.000278741	0	7.59937e-06	-0.000453305	2.63386e-06	67.0514	0.00944915	0.00368428	-0.00870129	-5.59481	17.869	17.7839	1.7421	0.0557023	0.00548496	0.0559717	5.62373	4.05522e+06	4.11826e+07	4.13818e+07	-84.3763	0.0000000E+000	0.0000000E+000	0.0000000E+000	84.3763	0.0000000E+000	0.0000000E+000	0.0000000E+000	-84.3763	0.0000000E+000	0.0000000E+000	0.0000000E+000	-5.62373	0.0000000E+000	0.0000000E+000	0.0000000E+000	5.62373	10.1555	84.3763	1.65203e-05	-1.13413e-06	2.16295e-09	-1.13629e-06	0.238142	49814.1	95.0024	49909.1
0.146929	17.9871	2.19146	18.1201	-6.94639	58.2248	0.237685	-0.00365132	494288	7229.76	1	12	0.00497816	0.000274731	0	4.4688e-05	-9.08716e-05	1.58592e-06	-18.7889	0.00577265	0.00546503	0.00185927	-6.95014	18.1258	17.9926	2.19332	0.0547821	0.00667438	0.0551872	6.94639	7.22976e+06	5.93406e+07	5.97794e+07	-83.0536	0.0000000E+000	0.0000000E+000	0.0000000E+000	83.0536	0.0000000E+000	0.0000000E+000	0.0000000E+000	-83.0536	0.0000000E+000	0.0000000E+000	0.0000000E+000	-6.94639	0.0000000E+000	0.0000000E+000	0.0000000E+000	6.94639	8.20783	83.0536	3.70886e-05	-8.67864e-07	3.31801e-10	-8.68196e-07	0.237776	65095.8	24.8874	65120.7
0.0999041	18.3292	2.85035	18.5495	-8.8392	79.3009	0.237693	-0.00154584	558905	13196.9	1	12	0.00498241	0.0002686	0	9.02165e-05	-0.000434229	4.07869e-06	44.3032	0.015185	0.0108672	-0.010606	-8.80169	18.5586	18.3401	2.83975	0.0532695	0.00828388	0.0539098	8.8392	1.31969e+07	8.48624e+07	8.58824e+07	-81.1608	0.0000000E+000	0.0000000E+000	0.0000000E+000	81.1608	0.0000000E+000	0.0000000E+000	0.0000000E+000	-81.1608	0.0000000E+000	0.0000000E+000	0.0000000E+000	-8.8392	0.0000000E+000	0.0000000E+000	0.0000000E+000	8.8392	6.4305	81.1608	4.55285e-05	-3.67435e-07	6.71249e-10	-3.68106e-07	0.238127	153763	280.902	154044
0.0680626	18.7604	3.81643	19.1446	-11.4988	110.229	0.23769	-0.000837844	612710	24348.6	1	12	0.00497898	0.000260072	0	0.000109085	-0.000357928	1.79173e-06	28.4792	0.00688936	0.00605568	-0.00328512	-11.4855	19.1499	18.7664	3.81314	0.0511855	0.0104127	0.0522339	11.4988	2.43486e+07	1.1969e+08	1.22142e+08	-78.5012	0.0000000E+000	0.0000000E+000	0.0000000E+000	78.5012	0.0000000E+000	0.0000000E+000	0.0000000E+000	-78.5012	0.0000000E+000	0.0000000E+000	0.0000000E+000	-11.4988	0.0000000E+000	0.0000000E+000	0.0000000E+000	11.4988	4.9157	78.5012	1.88685e-05	-1.99147e-07	2.99887e-10	-1.99447e-07	0.238048	283693	427.201	284120
0.0464052	19.2001	5.1694	19.8838	-15.0689	155.58	0.237689	-0.00102681	663458	44843	1	12	0.00498254	0.000250583	0	2.74562e-05	4.50547e-06	2.9725e-06	18.1726	0.0118624	0.0112707	-0.00369965	-15.0502	19.8937	19.2114	5.1657	0.0485628	0.013075	0.0502922	15.0689	4.4843e+07	1.66555e+08	1.72486e+08	-74.9311	0.0000000E+000	0.0000000E+000	0.0000000E+000	74.9311	0.0000000E+000	0.0000000E+000	0.0000000E+000	-74.9311	0.0000000E+000	0.0000000E+000	0.0000000E+000	-15.0689	0.0000000E+000	0.0000000E+000	0.0000000E+000	15.0689	3.71418	74.9311	-8.16288e-05	-2.44062e-07	-4.62626e-12	-2.44057e-07	0.237685	231483	4.38784	231479
0.0315922	19.7803	6.81675	20.9219	-19.0152	222.186	0.237695	-0.00194846	739032	78453.8	1	12	0.00497868	0.000237965	0	-0.00021362	2.35809e-05	2.57295e-06	17.6408	0.0108123	0.0103039	-0.00327666	-18.9975	20.9306	19.7906	6.81347	0.0451886	0.0155731	0.0477968	19.0152	7.84538e+07	2.27651e+08	2.4079e+08	-70.9848	0.0000000E+000	0.0000000E+000	0.0000000E+000	70.9848	0.0000000E+000	0.0000000E+000	0.0000000E+000	-70.9848	0.0000000E+000	0.0000000E+000	0.0000000E+000	-19.0152	0.0000000E+000	0.0000000E+000	0.0000000E+000	19.0152	2.90172	70.9848	-0.000241076	-4.63139e-07	-4.59465e-11	-4.63094e-07	0.237671	121991	12.1023	121979
0.0215268	20.8575	9.07413	22.7459	-23.5116	319.924	0.237693	-0.00307761	814772	129670	1	12	0.00497841	0.000218871	0	-0.000580441	-0.000281626	2.90578e-06	5.87535	0.0132762	0.0132065	-0.00135902	-23.4952	22.7574	20.8707	9.07277	0.0403141	0.0175388	0.043964	23.5116	1.2967e+08	2.98056e+08	3.25041e+08	-66.4884	0.0000000E+000	0.0000000E+000	0.0000000E+000	66.4884	0.0000000E+000	0.0000000E+000	0.0000000E+000	-66.4884	0.0000000E+000	0.0000000E+000	0.0000000E+000	-23.5116	0.0000000E+000	0.0000000E+000	0.0000000E+000	23.5116	2.29857	66.4884	-0.000366821	-7.31526e-07	8.66735e-10	-7.32393e-07	0.237974	77232.8	91.5079	77324.3
0.0146812	22.3648	12.3924	25.5686	-28.991	463.227	0.237687	-0.00401718	874791	205494	1	12	0.00497922	0.000194739	0	-0.000903641	-0.0002244	1.79684e-06	29.1213	0.0092269	0.00806054	-0.00449037	-28.9734	25.5735	22.3728	12.3879	0.0342097	0.0189557	0.0391104	28.991	2.05494e+08	3.70859e+08	4.23986e+08	-61.009	0.0000000E+000	0.0000000E+000	0.0000000E+000	61.009	0.0000000E+000	0.0000000E+000	0.0000000E+000	-61.009	0.0000000E+000	0.0000000E+000	0.0000000E+000	-28.991	0.0000000E+000	0.0000000E+000	0.0000000E+000	28.991	1.80472	61.009	-0.0003232	-9.5483e-07	9.01453e-10	-9.55731e-07	0.237911	59167.7	55.86	59223.5
0.0100092	24.1986	16.6941	29.3984	-34.601	673.41	0.237695	-0.00440769	952485	307141	1	12	0.0049759	0.000169257	0	-0.000978124	-0.000319777	1.6304e-06	34.1318	0.00963265	0.00797342	-0.00540486	-34.5835	29.4019	24.2066	16.6887	0.027999	0.0193159	0.0340154	34.601	3.07141e+08	4.4521e+08	5.40876e+08	-55.399	0.0000000E+000	0.0000000E+000	0.0000000E+000	55.399	0.0000000E+000	0.0000000E+000	0.0000000E+000	-55.399	0.0000000E+000	0.0000000E+000	0.0000000E+000	-34.601	0.0000000E+000	0.0000000E+000	0.0000000E+000	34.601	1.44953	55.399	-7.44833e-05	-1.04768e-06	1.40948e-09	-1.04909e-06	0.238014	53927.3	72.5497	53999.8