File: txt/18943_R308_UA704_SOC00_C08.mpt
EC-Lab ASCII FILE
Nb header lines : 65

Potentio Electrochemical Impedance Spectroscopy

Run on channel : 8 (SN 65398)
Grouped channel(s) : 7, 8
User :
CE vs. WE compliance from -10 V to 10 V
Electrode connection : standard
Potential control : Ewe
Ewe ctrl range : min = -10.00 V, max = 10.00 V
Safety Limits :
	Do not start on E overload
Acquisition started on : 11/04/2025 15:28:53.628
Loaded Setting File :  C:\Users\Celltest\OneDrive - store-dot.com\Documents\EC-Lab\Data\@Biologic Test Protocols\anode half cell EIS SOC00.mps
Saved on :
	File : 18942_R308_UA704_SOC00_C08.mpr
	Directory : C:\Users\Celltest\OneDrive - store-dot.com\Documents\EC-Lab\Data\Charmaine\
	Host : 169.254.61.224
Device : VMP-3e (SN .003165)
Address : USB
EC-LAB for windows v11.62 (software)
Internet server v27.00 (firmware)
Command interpretor v12.03 (firmware)
Electrode material :
Initial state :
Electrolyte :
Comments :
Electrode surface area : 0.001 cm²
Characteristic mass : 0.001 g
Equivalent Weight : 0.000 g/eq.
Density : 0.000 g/cm3
Volume (V) : 0.001 cm³
Record Ece
Cycle Definition : Charge/Discharge alternance
Mode                Single sine
E (V)               0.0000
vs.                 Eoc
tE (h:m:s)          0:00:0.0000
record              0
dI                  0.000
unit dI             mA
dt (s)              0.000
fi                  100.000
unit fi             kHz
ff                  10.000
unit ff             mHz
Nd                  6
Points              per decade
spacing             Logarithmic
Va (mV)             5.0
pw                  0.10
Na                  2
corr                0
E range min (V)     -10.000
E range max (V)     10.000
I Range             Auto
Bandwidth           5
nc cycles           0
goto Ns'            0
nr cycles           0
inc. cycle          0

freq/Hz	Re(Z)/Ohm	-Im(Z)/Ohm	|Z|/Ohm	Phase(Z)/deg	time/s	<Ewe>/V	<I>/mA	Cs/µF	Cp/µF	cycle number	I Range	|Ewe|/V	|I|/A	Ns	(Q-Qo)/mA.h	<Ece>/V	|Ece|/V	Phase(Zce)/deg	|Zce|/Ohm	Re(Zce)/Ohm	-Im(Zce)/Ohm	Phase(Zwe-ce)/deg	|Zwe-ce|/Ohm	Re(Zwe-ce)/Ohm	-Im(Zwe-ce)/Ohm	Re(Y)/Ohm-1	Im(Y)/Ohm-1	|Y|/Ohm-1	Phase(Y)/deg	Re(C)/nF	Im(C)/nF	|C|/nF	Phase(C)/deg	Re(M)	Im(M)	|M|	Phase(M)/deg	Re(Permittivity)	Im(Permittivity)	|Permittivity|	Phase(Permittivity)/deg	Re(Resistivity)/Ohm.cm	Im(Resistivity)/Ohm.cm	|Resistivity|/Ohm.cm	Phase(Resistivity)/deg	Re(Conductivity)/mS/cm	Im(Conductivity)/mS/cm	|Conductivity|/mS/cm	Phase(Conductivity)/deg	Tan(Delta)	Loss Angle(Delta)/deg	dq/mA.h	Pwe/W	Pce/W	Pwe-ce/W	<Ewe-Ece>/V	Rwe/Ohm	Rce/Ohm	Rwe-ce/Ohm		Ewe-Ece/V
100004	1.49526	0.515409	1.5816	-19.0188	1.91153	0.242882	-0.0184499	3.08782	0.327916	1	9	0.00468796	0.00296406	0	-7.23135e-06	0.000305037	4.54026e-05	99.1615	0.0153177	-0.00243884	-0.0151223	-18.5274	1.57443	1.49283	0.500287	0.597756	0.206043	0.632271	19.0188	327.916	951.323	1006.25	-70.9812	0.0000000E+000	0.0000000E+000	0.0000000E+000	70.9812	0.0000000E+000	0.0000000E+000	0.0000000E+000	-70.9812	0.0000000E+000	0.0000000E+000	0.0000000E+000	-19.0188	0.0000000E+000	0.0000000E+000	0.0000000E+000	19.0188	2.90112	70.9812	-7.23135e-06	-4.48115e-06	-5.62791e-09	-4.47552e-06	0.242577	13164.4	16.5333	13147.9
68132	1.6465	0.594286	1.75047	-19.8465	2.41853	0.242878	-0.0124231	3.93073	0.453061	1	9	0.00504556	0.00288241	0	-7.749e-06	0.000190509	3.712e-05	82.7802	0.0128781	0.00161847	-0.012776	-19.4345	1.7477	1.64812	0.58151	0.537346	0.193949	0.571276	19.8465	453.061	1255.23	1334.49	-70.1535	0.0000000E+000	0.0000000E+000	0.0000000E+000	70.1535	0.0000000E+000	0.0000000E+000	0.0000000E+000	-70.1535	0.0000000E+000	0.0000000E+000	0.0000000E+000	-19.8465	0.0000000E+000	0.0000000E+000	0.0000000E+000	19.8465	2.77055	70.1535	-5.17654e-07	-3.01731e-06	-2.36672e-09	-3.01494e-06	0.242688	19550.5	15.335	19535.2
46420.4	1.81586	0.646269	1.92744	-19.5908	2.92556	0.242874	-0.00710321	5.30516	0.596437	1	9	0.00505731	0.00262385	0	5.44538e-06	-0.000133988	1.57986e-05	72.2738	0.00602113	0.00183325	-0.00573526	-19.4119	1.92725	1.81769	0.640533	0.48879	0.173961	0.518824	19.5908	596.437	1675.85	1778.82	-70.4092	0.0000000E+000	0.0000000E+000	0.0000000E+000	70.4092	0.0000000E+000	0.0000000E+000	0.0000000E+000	-70.4092	0.0000000E+000	0.0000000E+000	0.0000000E+000	-19.5908	0.0000000E+000	0.0000000E+000	0.0000000E+000	19.5908	2.80976	70.4092	1.31944e-05	-1.72519e-06	9.51745e-10	-1.72614e-06	0.243008	34192.2	18.863	34211.1
31621.1	1.98244	0.702854	2.10335	-19.5214	3.43256	0.242878	-0.017185	7.16107	0.799624	1	9	0.00512806	0.00243805	0	5.4955e-06	0.000190509	1.34961e-05	4.76373	0.00553563	0.0055165	-0.000459718	-19.4596	2.10839	1.98796	0.702394	0.448103	0.15887	0.475433	19.5214	799.624	2255.38	2392.94	-70.4786	0.0000000E+000	0.0000000E+000	0.0000000E+000	70.4786	0.0000000E+000	0.0000000E+000	0.0000000E+000	-70.4786	0.0000000E+000	0.0000000E+000	0.0000000E+000	-19.5214	0.0000000E+000	0.0000000E+000	0.0000000E+000	19.5214	2.82056	70.4786	5.01211e-08	-4.17387e-06	-3.2739e-09	-4.1706e-06	0.242688	14133.1	11.0858	14122
21544.7	2.15909	0.758327	2.28839	-19.3525	3.69156	0.242865	-0.0160318	9.74144	1.06973	1	9	0.00460143	0.00201077	0	4.27726e-06	-0.000191252	6.99762e-06	-87.2288	0.00348007	0.000168251	0.003476	-19.4332	2.28971	2.15926	0.761803	0.412297	0.144809	0.436988	19.3525	1069.73	3045.72	3228.12	-70.6475	0.0000000E+000	0.0000000E+000	0.0000000E+000	70.6475	0.0000000E+000	0.0000000E+000	0.0000000E+000	-70.6475	0.0000000E+000	0.0000000E+000	0.0000000E+000	-19.3525	0.0000000E+000	0.0000000E+000	0.0000000E+000	19.3525	2.84718	70.6475	-1.21824e-06	-3.89356e-06	3.06611e-09	-3.89662e-06	0.243056	15149	11.9296	15160.9
14678.6	2.34568	0.795695	2.47697	-18.7378	4.07652	0.242866	-0.0141345	13.6266	1.40618	1	9	0.00487095	0.0019665	0	2.9337e-06	-1.94596e-05	1.75803e-05	-21.7562	0.0089399	0.00830311	0.00331365	-18.7487	2.48589	2.35399	0.799009	0.382322	0.12969	0.40372	18.7378	1406.18	4145.39	4377.39	-71.2622	0.0000000E+000	0.0000000E+000	0.0000000E+000	71.2622	0.0000000E+000	0.0000000E+000	0.0000000E+000	-71.2622	0.0000000E+000	0.0000000E+000	0.0000000E+000	-18.7378	0.0000000E+000	0.0000000E+000	0.0000000E+000	18.7378	2.94797	71.2622	-1.34356e-06	-3.43278e-06	2.75051e-10	-3.43305e-06	0.242885	17182.5	1.37675	17183.9
10002.2	2.52091	0.854939	2.66194	-18.7338	4.45955	0.242877	-0.0104142	18.6118	1.91983	1	9	0.00488449	0.00183494	0	1.03329e-06	0.00038139	1.30011e-05	-116.657	0.00708528	-0.00317881	0.00633217	-18.8849	2.66097	2.51773	0.861271	0.355764	0.120654	0.375667	18.7338	1919.83	5660.9	5977.59	-71.2662	0.0000000E+000	0.0000000E+000	0.0000000E+000	71.2662	0.0000000E+000	0.0000000E+000	0.0000000E+000	-71.2662	0.0000000E+000	0.0000000E+000	0.0000000E+000	-18.7338	0.0000000E+000	0.0000000E+000	0.0000000E+000	18.7338	2.94864	71.2662	-1.90042e-06	-2.52938e-06	-3.97188e-09	-2.5254e-06	0.242495	23321.6	36.6219	23285
6810.42	2.68969	0.915029	2.84108	-18.7882	4.71854	0.242863	-0.0201612	25.5394	2.6492	1	9	0.0046459	0.00163526	0	8.50617e-07	7.59807e-05	5.94162e-05	-40.2024	0.0363344	0.0277511	0.0234535	-19.0526	2.87493	2.71744	0.938482	0.333224	0.113362	0.351979	18.7882	2649.2	7787.22	8225.52	-71.2118	0.0000000E+000	0.0000000E+000	0.0000000E+000	71.2118	0.0000000E+000	0.0000000E+000	0.0000000E+000	-71.2118	0.0000000E+000	0.0000000E+000	0.0000000E+000	-18.7882	0.0000000E+000	0.0000000E+000	0.0000000E+000	18.7882	2.93946	71.2118	-1.82671e-07	-4.89641e-06	-1.53186e-09	-4.89488e-06	0.242787	12046	3.76865	12042.2
4646	2.9146	1.02454	3.08943	-19.3676	4.9826	0.242822	-0.0431522	33.4359	3.67717	1	9	0.00460308	0.00148995	0	-2.18626e-06	-0.000172164	1.97604e-05	-65.1945	0.0132625	0.00556412	0.0120388	-19.5435	3.09868	2.92016	1.03658	0.305368	0.107343	0.323685	19.3676	3677.17	10460.8	11088.3	-70.6324	0.0000000E+000	0.0000000E+000	0.0000000E+000	70.6324	0.0000000E+000	0.0000000E+000	0.0000000E+000	-70.6324	0.0000000E+000	0.0000000E+000	0.0000000E+000	-19.3676	0.0000000E+000	0.0000000E+000	0.0000000E+000	19.3676	2.84479	70.6324	-3.03688e-06	-1.04783e-05	7.42926e-09	-1.04857e-05	0.242994	5627.11	3.98969	5631.1
3163.08	3.15781	1.17855	3.37057	-20.4664	5.35768	0.242643	-0.0335168	42.6936	5.21976	1	9	0.00455243	0.00135064	0	-4.49565e-06	0.000305037	3.6979e-06	-56.1443	0.00273788	0.00152528	0.00227366	-20.4935	3.37279	3.15934	1.18082	0.277958	0.103739	0.296686	20.4664	5219.76	13985.9	14928.2	-69.5336	0.0000000E+000	0.0000000E+000	0.0000000E+000	69.5336	0.0000000E+000	0.0000000E+000	0.0000000E+000	-69.5336	0.0000000E+000	0.0000000E+000	0.0000000E+000	-20.4664	0.0000000E+000	0.0000000E+000	0.0000000E+000	20.4664	2.67941	69.5336	-2.30939e-06	-8.13261e-06	-1.02239e-08	-8.12239e-06	0.242338	7239.43	9.10102	7230.32
2155.69	3.41671	1.31313	3.66036	-21.023	6.05379	0.242797	-0.0174129	56.2246	7.23593	1	10	0.00464524	0.00126907	0	-5.60931e-08	-3.85477e-05	6.33033e-06	23.6351	0.00498817	0.00456975	-0.00199981	-20.9682	3.66391	3.42128	1.31113	0.255012	0.0980078	0.273198	21.023	7235.93	18827.6	20170.2	-68.977	0.0000000E+000	0.0000000E+000	0.0000000E+000	68.977	0.0000000E+000	0.0000000E+000	0.0000000E+000	-68.977	0.0000000E+000	0.0000000E+000	0.0000000E+000	-21.023	0.0000000E+000	0.0000000E+000	0.0000000E+000	21.023	2.60196	68.977	4.43956e-06	-4.2278e-06	6.71227e-10	-4.22847e-06	0.242836	13943.5	2.21374	13945.7
1468.59	3.71167	1.50023	4.0034	-22.0082	6.50503	0.242801	-0.017491	72.2372	10.1443	1	10	0.00459919	0.00114882	0	-2.19563e-06	-9.58119e-05	5.18429e-06	16.3878	0.00451271	0.00432937	-0.0012732	-21.9682	4.00694	3.716	1.49896	0.231586	0.0936055	0.249788	22.0082	10144.3	25097.6	27070.2	-67.9918	0.0000000E+000	0.0000000E+000	0.0000000E+000	67.9918	0.0000000E+000	0.0000000E+000	0.0000000E+000	-67.9918	0.0000000E+000	0.0000000E+000	0.0000000E+000	-22.0082	0.0000000E+000	0.0000000E+000	0.0000000E+000	22.0082	2.47406	67.9918	-2.13954e-06	-4.24684e-06	1.67585e-09	-4.24851e-06	0.242897	13881.5	5.47778	13887
1000.32	4.04294	1.72709	4.39638	-23.1316	6.95686	0.242798	-0.018793	92.1224	14.2169	1	10	0.00456387	0.0010381	0	-5.19226e-06	0.000190509	6.19141e-06	26.6134	0.0059642	0.00533229	-0.00267177	-23.0723	4.40024	4.04827	1.72442	0.209173	0.0893562	0.22746	23.1316	14216.9	33280.3	36189.8	-66.8684	0.0000000E+000	0.0000000E+000	0.0000000E+000	66.8684	0.0000000E+000	0.0000000E+000	0.0000000E+000	-66.8684	0.0000000E+000	0.0000000E+000	0.0000000E+000	-23.1316	0.0000000E+000	0.0000000E+000	0.0000000E+000	23.1316	2.34089	66.8684	-2.99662e-06	-4.56291e-06	-3.58024e-09	-4.55933e-06	0.242608	12919.6	10.1372	12909.5
681.09	4.41947	2.02833	4.8627	-24.653	7.40756	0.242796	-0.0168995	115.206	20.0447	1	10	0.00453972	0.00093358	0	-6.78203e-06	9.50687e-05	7.54859e-06	-49.6175	0.00808565	0.00523859	0.00615913	-24.6931	4.87003	4.42471	2.03449	0.186903	0.0857797	0.205647	24.653	20044.7	43674.8	48055	-65.347	0.0000000E+000	0.0000000E+000	0.0000000E+000	65.347	0.0000000E+000	0.0000000E+000	0.0000000E+000	-65.347	0.0000000E+000	0.0000000E+000	0.0000000E+000	-24.653	0.0000000E+000	0.0000000E+000	0.0000000E+000	24.653	2.17887	65.347	-1.58977e-06	-4.10314e-06	-1.60662e-09	-4.10153e-06	0.242701	14367	5.62552	14361.4
463.961	4.88638	2.37398	5.43254	-25.9122	7.85935	0.242805	-0.0168326	144.498	27.5937	1	10	0.00452112	0.000832229	0	-9.01043e-06	-3.71572e-07	7.35351e-06	-1.14483	0.00883592	0.00883415	0.00017654	-25.8732	5.44057	4.89522	2.37416	0.16557	0.0804398	0.184076	25.9122	27593.7	56796.3	63144.5	-64.0878	0.0000000E+000	0.0000000E+000	0.0000000E+000	64.0878	0.0000000E+000	0.0000000E+000	0.0000000E+000	-64.0878	0.0000000E+000	0.0000000E+000	0.0000000E+000	-25.9122	0.0000000E+000	0.0000000E+000	0.0000000E+000	25.9122	2.05831	64.0878	-2.2284e-06	-4.08704e-06	6.25452e-12	-4.08705e-06	0.242806	14424.7	0.0220746	14424.8
316.316	5.46501	2.81102	6.14558	-27.2198	8.30709	0.242811	-0.0178593	178.993	37.4487	1	10	0.00450576	0.000733172	0	-1.11121e-05	0.000171421	1.01127e-05	95.8028	0.0137931	-0.00139454	-0.0137224	-27.1118	6.13807	5.46361	2.7973	0.144699	0.0744283	0.162719	27.2198	37448.7	72805.5	81872.2	-62.7802	0.0000000E+000	0.0000000E+000	0.0000000E+000	62.7802	0.0000000E+000	0.0000000E+000	0.0000000E+000	-62.7802	0.0000000E+000	0.0000000E+000	0.0000000E+000	-27.2198	0.0000000E+000	0.0000000E+000	0.0000000E+000	27.2198	1.94414	62.7802	-2.10171e-06	-4.33643e-06	-3.06146e-09	-4.33337e-06	0.242639	13595.8	9.59841	13586.2
215.345	6.24987	3.28957	7.06273	-27.7598	8.96961	0.242821	-0.0168103	224.671	48.7395	1	10	0.00501896	0.000710626	0	-1.44018e-05	0.000133245	8.31813e-06	-30.3688	0.0117054	0.0100993	0.0059178	-27.7641	7.07442	6.25997	3.29549	0.125293	0.0659469	0.141588	27.7598	48739.5	92600.2	104644	-62.2402	0.0000000E+000	0.0000000E+000	0.0000000E+000	62.2402	0.0000000E+000	0.0000000E+000	0.0000000E+000	-62.2402	0.0000000E+000	0.0000000E+000	0.0000000E+000	-27.7598	0.0000000E+000	0.0000000E+000	0.0000000E+000	27.7598	1.8999	62.2402	-3.28962e-06	-4.08189e-06	-2.23988e-09	-4.07965e-06	0.242688	14444.8	7.92639	14436.9
146.737	7.23406	3.73102	8.13954	-27.2827	9.41647	0.24281	-0.0178593	290.705	61.0811	1	10	0.00501307	0.000615891	0	-1.74063e-05	0.000114157	1.77311e-05	31.1664	0.0287893	0.0246341	-0.0148992	-27.1104	8.15464	7.25869	3.71612	0.10919	0.0563155	0.122857	27.2827	61081.1	118430	133254	-62.7173	0.0000000E+000	0.0000000E+000	0.0000000E+000	62.7173	0.0000000E+000	0.0000000E+000	0.0000000E+000	-62.7173	0.0000000E+000	0.0000000E+000	0.0000000E+000	-27.2827	0.0000000E+000	0.0000000E+000	0.0000000E+000	27.2827	1.9389	62.7173	-3.00455e-06	-4.33642e-06	-2.03876e-09	-4.33438e-06	0.242696	13595.7	6.39201	13589.3
100.032	8.40022	3.97395	9.29279	-25.3178	9.86682	0.242806	-0.0178221	400.367	73.2169	1	10	0.00500409	0.000538491	0	-1.88057e-05	3.78045e-05	4.56188e-06	76.2434	0.00847159	0.00201452	-0.00822858	-25.2666	9.2911	8.40223	3.96572	0.0972743	0.0460183	0.10761	25.3178	73216.9	154767	171212	-64.6822	0.0000000E+000	0.0000000E+000	0.0000000E+000	64.6822	0.0000000E+000	0.0000000E+000	0.0000000E+000	-64.6822	0.0000000E+000	0.0000000E+000	0.0000000E+000	-25.3178	0.0000000E+000	0.0000000E+000	0.0000000E+000	25.3178	2.11382	64.6822	-1.39942e-06	-4.32732e-06	-6.73756e-10	-4.32665e-06	0.242769	13623.9	2.12122	13621.8
68.104	9.65491	3.98518	10.445	-22.429	10.3285	0.242807	-0.0138231	586.408	85.3639	1	10	0.00500818	0.000479479	0	-1.99434e-05	-7.67238e-05	1.85154e-05	-19.9844	0.0386156	0.0362904	0.0131974	-22.42	10.4836	9.6912	3.99837	0.0884968	0.0365281	0.0957392	22.429	85364	206812	223737	-67.571	0.0000000E+000	0.0000000E+000	0.0000000E+000	67.571	0.0000000E+000	0.0000000E+000	0.0000000E+000	-67.571	0.0000000E+000	0.0000000E+000	0.0000000E+000	-22.429	0.0000000E+000	0.0000000E+000	0.0000000E+000	22.429	2.42271	67.571	-1.13764e-06	-3.35636e-06	1.06056e-09	-3.35742e-06	0.242884	17565.3	5.55039	17570.8
46.4415	10.8631	3.79687	11.5075	-19.2655	10.7657	0.242786	-0.0220182	902.585	98.2596	1	10	0.00500574	0.000434997	0	-2.26831e-05	3.78045e-05	4.04338e-06	-15.9979	0.0092952	0.00893521	0.00256177	-19.2629	11.5168	10.872	3.79943	0.0820333	0.0286722	0.0868997	19.2655	98259.7	281128	297805	-70.7345	0.0000000E+000	0.0000000E+000	0.0000000E+000	70.7345	0.0000000E+000	0.0000000E+000	0.0000000E+000	-70.7345	0.0000000E+000	0.0000000E+000	0.0000000E+000	-19.2655	0.0000000E+000	0.0000000E+000	0.0000000E+000	19.2655	2.86107	70.7345	-2.73968e-06	-5.34572e-06	-8.32389e-10	-5.34488e-06	0.242748	11026.6	1.71697	11024.9
31.6296	11.8864	3.37266	12.3556	-15.8408	11.1956	0.242782	-0.025024	1491.95	111.166	1	10	0.00500134	0.000404783	0	-2.53647e-05	1.87165e-05	6.98093e-06	-29.0439	0.0172461	0.0150774	0.00837265	-15.859	12.3724	11.9015	3.38103	0.0778613	0.0220924	0.0809349	15.8408	111166	391786	407252	-74.1592	0.0000000E+000	0.0000000E+000	0.0000000E+000	74.1592	0.0000000E+000	0.0000000E+000	0.0000000E+000	-74.1592	0.0000000E+000	0.0000000E+000	0.0000000E+000	-15.8408	0.0000000E+000	0.0000000E+000	0.0000000E+000	15.8408	3.52434	74.1592	-2.68165e-06	-6.07536e-06	-4.68361e-10	-6.07489e-06	0.242763	9701.97	0.747943	9701.23
21.5517	12.7012	2.89887	13.0278	-12.8567	11.6164	0.242772	-0.0271815	2547.47	126.131	1	10	0.00500271	0.000384002	0	-2.80992e-05	0.000152333	1.82085e-05	-68.1929	0.0474177	0.0176149	0.0440245	-13.0279	13.0549	12.7188	2.94289	0.0748344	0.0170799	0.0767588	12.8567	126131	552636	566848	-77.1433	0.0000000E+000	0.0000000E+000	0.0000000E+000	77.1433	0.0000000E+000	0.0000000E+000	0.0000000E+000	-77.1433	0.0000000E+000	0.0000000E+000	0.0000000E+000	-12.8567	0.0000000E+000	0.0000000E+000	0.0000000E+000	12.8567	4.38143	77.1433	-2.7345e-06	-6.59891e-06	-4.14064e-09	-6.59477e-06	0.242619	8931.49	5.60428	8925.89
14.6852	13.2746	2.49925	13.5078	-10.6624	12.0762	0.242813	-0.0144965	4336.42	148.45	1	10	0.00497326	0.000368176	0	-2.82349e-05	0.000133245	2.38406e-05	-5.85197	0.0647532	0.0644158	0.00660215	-10.6395	13.5724	13.339	2.50585	0.0727529	0.0136974	0.0740311	10.6624	148450	788482	802335	-79.3376	0.0000000E+000	0.0000000E+000	0.0000000E+000	79.3376	0.0000000E+000	0.0000000E+000	0.0000000E+000	-79.3376	0.0000000E+000	0.0000000E+000	0.0000000E+000	-10.6624	0.0000000E+000	0.0000000E+000	0.0000000E+000	10.6624	5.31144	79.3376	-1.35666e-07	-3.51992e-06	-1.93158e-09	-3.51799e-06	0.242679	16749.8	9.19154	16740.6
10.0032	13.8518	2.08264	14.0075	-8.55046	12.7719	0.242853	-0.00654649	7639.53	168.878	1	11	0.00499436	0.000356549	0	-3.16183e-05	3.78045e-05	6.75598e-06	40.3957	0.0189482	0.0144307	-0.0122796	-8.49206	14.02	13.8662	2.07036	0.0705968	0.0106143	0.0713903	8.55046	168878	1.12322e+06	1.13585e+06	-81.4495	0.0000000E+000	0.0000000E+000	0.0000000E+000	81.4495	0.0000000E+000	0.0000000E+000	0.0000000E+000	-81.4495	0.0000000E+000	0.0000000E+000	0.0000000E+000	-8.55046	0.0000000E+000	0.0000000E+000	0.0000000E+000	8.55046	6.65108	81.4495	-3.3834e-06	-1.58984e-06	-2.47487e-10	-1.58959e-06	0.242815	37096.7	5.77478	37090.9
6.81719	14.2566	1.72992	14.3612	-6.91853	13.1115	0.242857	-0.00607561	13495.5	195.821	1	11	0.00500061	0.000348204	0	-3.47203e-05	7.59807e-05	5.20257e-06	-42.2798	0.0149412	0.0110545	0.0100517	-6.953	14.3734	14.2677	1.73997	0.0691252	0.00838775	0.0696322	6.91853	195821	1.6138e+06	1.62564e+06	-83.0815	0.0000000E+000	0.0000000E+000	0.0000000E+000	83.0815	0.0000000E+000	0.0000000E+000	0.0000000E+000	-83.0815	0.0000000E+000	0.0000000E+000	0.0000000E+000	-6.91853	0.0000000E+000	0.0000000E+000	0.0000000E+000	6.91853	8.24121	83.0815	-3.10203e-06	-1.47551e-06	-4.61629e-10	-1.47505e-06	0.242781	39972.5	12.5058	39960
4.63925	14.5537	1.48582	14.6293	-5.82926	13.5955	0.242859	-0.00606407	23089.1	238.171	1	11	0.00499326	0.000341319	0	-3.22603e-05	-3.71572e-07	1.0161e-05	88.9541	0.0297698	0.000543406	-0.0297649	-5.71305	14.6269	14.5542	1.45605	0.0680024	0.00694252	0.0683559	5.82926	238171	2.3329e+06	2.34503e+06	-84.1707	0.0000000E+000	0.0000000E+000	0.0000000E+000	84.1707	0.0000000E+000	0.0000000E+000	0.0000000E+000	-84.1707	0.0000000E+000	0.0000000E+000	0.0000000E+000	-5.82926	0.0000000E+000	0.0000000E+000	0.0000000E+000	5.82926	9.79506	84.1707	2.46e-06	-1.47271e-06	2.25324e-12	-1.47272e-06	0.242859	40048.8	0.0612744	40048.9
3.1604	14.8131	1.24376	14.8653	-4.7995	14.2885	0.242855	-0.00511077	40489.3	283.447	1	11	0.00499447	0.000335983	0	-3.01704e-05	-1.94596e-05	6.65344e-06	-24.5614	0.0198029	0.0180111	0.00823145	-4.82528	14.8839	14.8311	1.252	0.0670351	0.0056285	0.0672709	4.7995	283447	3.37583e+06	3.38771e+06	-85.2005	0.0000000E+000	0.0000000E+000	0.0000000E+000	85.2005	0.0000000E+000	0.0000000E+000	0.0000000E+000	-85.2005	0.0000000E+000	0.0000000E+000	0.0000000E+000	-4.7995	0.0000000E+000	0.0000000E+000	0.0000000E+000	4.7995	11.9099	85.2005	2.08988e-06	-1.24118e-06	9.94538e-11	-1.24128e-06	0.242875	47518.3	3.80757	47522.1
2.15577	15.0487	1.11321	15.0898	-4.23068	15.2921	0.24286	-0.00388118	66319.6	360.935	1	11	0.00499942	0.000331312	0	-3.37949e-05	0.000114157	5.97726e-06	-19.5234	0.0180412	0.0170039	0.00602922	-4.24873	15.1072	15.0657	1.11924	0.0660894	0.00488889	0.06627	4.23068	360935	4.87922e+06	4.89255e+06	-85.7693	0.0000000E+000	0.0000000E+000	0.0000000E+000	85.7693	0.0000000E+000	0.0000000E+000	0.0000000E+000	-85.7693	0.0000000E+000	0.0000000E+000	0.0000000E+000	-4.23068	0.0000000E+000	0.0000000E+000	0.0000000E+000	4.23068	13.5183	85.7693	-3.62452e-06	-9.42586e-07	-4.43063e-10	-9.42143e-07	0.242746	62573.8	29.4129	62544.4
1.46631	15.2289	1.02128	15.2631	-3.8366	16.7526	0.242851	-0.00401168	106280	475.828	1	11	0.00500176	0.000327702	0	-4.31163e-05	0.000114157	4.36086e-06	0.509727	0.0133074	0.0133069	-0.000118387	-3.83282	15.2764	15.2422	1.02116	0.0653705	0.00438385	0.0655173	3.8366	475828	7.09539e+06	7.11132e+06	-86.1634	0.0000000E+000	0.0000000E+000	0.0000000E+000	86.1634	0.0000000E+000	0.0000000E+000	0.0000000E+000	-86.1634	0.0000000E+000	0.0000000E+000	0.0000000E+000	-3.8366	0.0000000E+000	0.0000000E+000	0.0000000E+000	3.8366	14.9117	86.1634	-9.32134e-06	-9.7424e-07	-4.5796e-10	-9.73782e-07	0.242737	60536.1	28.4561	60507.6
1.00006	15.3881	0.955566	15.4178	-3.55337	18.8837	0.242861	-0.00359763	166545	639.749	1	11	0.00499775	0.000324155	0	-5.32382e-05	9.50687e-05	2.78292e-06	20.1132	0.00858516	0.00806159	-0.00295224	-3.54057	15.4256	15.3962	0.952614	0.0647355	0.00401992	0.0648602	3.55337	639749	1.03023e+07	1.03222e+07	-86.4466	0.0000000E+000	0.0000000E+000	0.0000000E+000	86.4466	0.0000000E+000	0.0000000E+000	0.0000000E+000	-86.4466	0.0000000E+000	0.0000000E+000	0.0000000E+000	-3.55337	0.0000000E+000	0.0000000E+000	0.0000000E+000	3.55337	16.1037	86.4466	-1.01219e-05	-8.73725e-07	-3.42022e-10	-8.73382e-07	0.242766	67506	26.4254	67479.6
0.681362	15.532	0.980807	15.5629	-3.61329	21.9959	0.242868	-0.00449755	238154	945.897	1	11	0.00499891	0.000321207	0	-5.86697e-05	7.59807e-05	4.0847e-06	-29.4554	0.0127167	0.011073	0.00625339	-3.63369	15.5744	15.543	0.98706	0.0641276	0.0040495	0.0642553	3.61329	945898	1.49791e+07	1.5009e+07	-86.3867	0.0000000E+000	0.0000000E+000	0.0000000E+000	86.3867	0.0000000E+000	0.0000000E+000	0.0000000E+000	-86.3867	0.0000000E+000	0.0000000E+000	0.0000000E+000	-3.61329	0.0000000E+000	0.0000000E+000	0.0000000E+000	3.61329	15.8359	86.3867	-5.43155e-06	-1.09231e-06	-3.41727e-10	-1.09197e-06	0.242792	54000.1	16.8938	53983.2
0.464091	15.666	1.08534	15.7036	-3.96312	26.5526	0.242857	-0.00580875	315973	1509.34	1	11	0.00499994	0.000318395	0	-5.36626e-05	-5.76357e-05	3.79273e-06	-1.11444	0.011912	0.0119098	0.000231681	-3.96097	15.7155	15.6779	1.08558	0.0635275	0.00440119	0.0636798	3.96312	1.50934e+06	2.17861e+07	2.18383e+07	-86.0369	0.0000000E+000	0.0000000E+000	0.0000000E+000	86.0369	0.0000000E+000	0.0000000E+000	0.0000000E+000	-86.0369	0.0000000E+000	0.0000000E+000	0.0000000E+000	-3.96312	0.0000000E+000	0.0000000E+000	0.0000000E+000	3.96312	14.4342	86.0369	5.00714e-06	-1.41069e-06	3.34792e-10	-1.41103e-06	0.242914	41808.8	9.92223	41818.7
0.316193	15.7873	1.27222	15.8384	-4.60726	33.225	0.242852	-0.00547352	395643	2552.74	1	11	0.00500091	0.000315746	0	-3.58578e-05	0.000324125	2.88702e-06	47.4022	0.0091435	0.00618875	-0.00673074	-4.5812	15.8441	15.7934	1.26549	0.0629335	0.00507153	0.0631376	4.60726	2.55274e+06	3.16774e+07	3.17801e+07	-85.3927	0.0000000E+000	0.0000000E+000	0.0000000E+000	85.3927	0.0000000E+000	0.0000000E+000	0.0000000E+000	-85.3927	0.0000000E+000	0.0000000E+000	0.0000000E+000	-4.60726	0.0000000E+000	0.0000000E+000	0.0000000E+000	4.60726	12.4092	85.3927	1.78048e-05	-1.32925e-06	-1.77411e-09	-1.32748e-06	0.242528	44368.5	59.217	44309.3
0.215268	15.9528	1.56574	16.0294	-5.60555	47.7147	0.242852	-0.00339226	472194	4505.32	1	12	0.0050009	0.000311982	0	-1.38673e-05	0.000190509	2.08587e-06	40.9224	0.00668587	0.00505183	-0.00437948	-5.58821	16.034	15.9578	1.56136	0.0620869	0.00609374	0.0623852	5.60555	4.50532e+06	4.5903e+07	4.61235e+07	-84.3944	0.0000000E+000	0.0000000E+000	0.0000000E+000	84.3944	0.0000000E+000	0.0000000E+000	0.0000000E+000	-84.3944	0.0000000E+000	0.0000000E+000	0.0000000E+000	-5.60555	0.0000000E+000	0.0000000E+000	0.0000000E+000	5.60555	10.1886	84.3944	2.19906e-05	-8.23816e-07	-6.46256e-10	-8.2317e-07	0.242661	71589.9	56.1599	71533.7
0.146929	16.2063	2.01863	16.3315	-7.10012	62.052	0.242857	-0.000648066	536606	8198.17	1	12	0.00500398	0.0003064	0	-9.1423e-07	-0.000191252	2.86622e-06	11.6495	0.00935452	0.00916183	-0.0018889	-7.08957	16.3404	16.2155	2.01675	0.0607617	0.0075684	0.0612313	7.10012	8.19818e+06	6.58178e+07	6.63264e+07	-82.8999	0.0000000E+000	0.0000000E+000	0.0000000E+000	82.8999	0.0000000E+000	0.0000000E+000	0.0000000E+000	-82.8999	0.0000000E+000	0.0000000E+000	0.0000000E+000	-7.10012	0.0000000E+000	0.0000000E+000	0.0000000E+000	7.10012	8.02835	82.8999	1.2953e-05	-1.57387e-07	1.23944e-10	-1.57511e-07	0.243048	374741	295.112	375036
0.0999041	16.4563	2.71773	16.6792	-9.37768	83.1293	0.242852	8.89411e-05	586179	15563	1	12	0.00499091	0.00029923	0	-3.18713e-05	5.68926e-05	3.00111e-06	44.2563	0.0100294	0.00718334	-0.00699923	-9.34995	16.6851	16.4635	2.71073	0.0591537	0.00976916	0.059955	9.37768	1.5563e+07	9.42365e+07	9.55129e+07	-80.6223	0.0000000E+000	0.0000000E+000	0.0000000E+000	80.6223	0.0000000E+000	0.0000000E+000	0.0000000E+000	-80.6223	0.0000000E+000	0.0000000E+000	0.0000000E+000	-9.37768	0.0000000E+000	0.0000000E+000	0.0000000E+000	9.37768	6.05515	80.6223	-3.0957e-05	2.15995e-08	5.06009e-12	2.15945e-08	0.242795	2.73048e+06	639.666	2.72984e+06
0.0680626	16.758	3.62729	17.1461	-12.2133	114.057	0.242845	-0.000728109	644657	28851.2	1	12	0.00499454	0.000291293	0	-0.000130391	0.000114157	3.40691e-06	-49.7488	0.0116958	0.00755712	0.00892645	-12.2371	17.1554	16.7656	3.63622	0.0570023	0.0123382	0.0583223	12.2133	2.88512e+07	1.33292e+08	1.36379e+08	-77.7867	0.0000000E+000	0.0000000E+000	0.0000000E+000	77.7867	0.0000000E+000	0.0000000E+000	0.0000000E+000	-77.7867	0.0000000E+000	0.0000000E+000	0.0000000E+000	-12.2133	0.0000000E+000	0.0000000E+000	0.0000000E+000	12.2133	4.61998	77.7867	-9.85194e-05	-1.76818e-07	-8.31185e-11	-1.76734e-07	0.242731	333528	156.785	333372
0.0464052	17.241	4.71102	17.873	-15.2827	159.407	0.242841	-0.002626	728012	50579.1	1	12	0.00500137	0.000279827	0	-0.000335265	0.000133245	2.17447e-06	-3.53753	0.00777077	0.00775597	0.000479475	-15.2777	17.8807	17.2488	4.7115	0.0539716	0.0147475	0.0559502	15.2827	5.05791e+07	1.85105e+08	1.91891e+08	-74.7173	0.0000000E+000	0.0000000E+000	0.0000000E+000	74.7173	0.0000000E+000	0.0000000E+000	0.0000000E+000	-74.7173	0.0000000E+000	0.0000000E+000	0.0000000E+000	-15.2827	0.0000000E+000	0.0000000E+000	0.0000000E+000	15.2827	3.65972	74.7173	-0.000204875	-6.377e-07	-3.49901e-10	-6.3735e-07	0.242708	92475.5	50.7406	92424.7
0.0315922	18.0169	6.39642	19.1186	-19.5461	226.013	0.242842	-0.00369597	787595	88158.4	1	12	0.00500112	0.000261584	0	-0.000563098	0.000209597	2.44796e-06	-10.0536	0.00935822	0.00921452	0.00163366	-19.5415	19.1279	18.0261	6.39806	0.0492908	0.0174994	0.052305	19.5461	8.81584e+07	2.48317e+08	2.63502e+08	-70.4539	0.0000000E+000	0.0000000E+000	0.0000000E+000	70.4539	0.0000000E+000	0.0000000E+000	0.0000000E+000	-70.4539	0.0000000E+000	0.0000000E+000	0.0000000E+000	-19.5461	0.0000000E+000	0.0000000E+000	0.0000000E+000	19.5461	2.81671	70.4539	-0.000227833	-8.97537e-07	-7.74665e-10	-8.96763e-07	0.242632	65704.4	56.7096	65647.7
0.0215268	18.8883	8.81951	20.8459	-25.0292	323.751	0.24284	-0.00402593	838295	150052	1	12	0.00500428	0.00024006	0	-0.000657944	0.000114157	2.77533e-06	23.9969	0.011561	0.0105617	-0.0047017	-25.0052	20.8535	18.8989	8.8148	0.0434661	0.0202956	0.047971	25.0292	1.50052e+08	3.2136e+08	3.54666e+08	-64.9708	0.0000000E+000	0.0000000E+000	0.0000000E+000	64.9708	0.0000000E+000	0.0000000E+000	0.0000000E+000	-64.9708	0.0000000E+000	0.0000000E+000	0.0000000E+000	-25.0292	0.0000000E+000	0.0000000E+000	0.0000000E+000	25.0292	2.14165	64.9708	-9.4846e-05	-9.77659e-07	-4.59588e-10	-9.77199e-07	0.242726	60319	28.3553	60290.6
0.0146812	20.0027	11.815	23.2314	-30.5691	467.054	0.24284	-0.00395596	917545	237323	1	12	0.00500133	0.000215283	0	-0.00048831	-0.000191252	2.75662e-06	35.6922	0.0128047	0.0103995	-0.00747063	-30.5402	23.2366	20.013	11.8075	0.0370626	0.0218917	0.0430451	30.5691	2.37323e+08	4.01786e+08	4.66642e+08	-59.4309	0.0000000E+000	0.0000000E+000	0.0000000E+000	59.4309	0.0000000E+000	0.0000000E+000	0.0000000E+000	-59.4309	0.0000000E+000	0.0000000E+000	0.0000000E+000	-30.5691	0.0000000E+000	0.0000000E+000	0.0000000E+000	30.5691	1.69299	59.4309	0.000169634	-9.60666e-07	7.56586e-10	-9.61423e-07	0.243031	61385.9	48.3453	61434.3
0.0100092	21.9209	15.6054	26.9083	-35.4469	677.236	0.24284	-0.00363636	1.01894e+06	342709	1	12	0.00500212	0.000185895	0	-0.000133119	0.000133245	3.41235e-06	-1.25767	0.0183563	0.0183519	0.000402897	-35.425	26.9235	21.9393	15.6058	0.0302752	0.0215528	0.0371633	35.4469	3.42709e+08	4.81403e+08	5.9093e+08	-54.5531	0.0000000E+000	0.0000000E+000	0.0000000E+000	54.5531	0.0000000E+000	0.0000000E+000	0.0000000E+000	-54.5531	0.0000000E+000	0.0000000E+000	0.0000000E+000	-35.4469	0.0000000E+000	0.0000000E+000	0.0000000E+000	35.4469	1.4047	54.5531	0.000355191	-8.83054e-07	-4.84526e-10	-8.82569e-07	0.242707	66781	36.6423	66744.4