File: txt/18945_R308_UA705_SOC00_C02.mpt
EC-Lab ASCII FILE
Nb header lines : 65

Potentio Electrochemical Impedance Spectroscopy

Run on channel : 2 (SN 66139)
Grouped channel(s) : 1, 2, 3, 4, 5
User :
CE vs. WE compliance from -10 V to 10 V
Electrode connection : standard
Potential control : Ewe
Ewe ctrl range : min = -10.00 V, max = 10.00 V
Safety Limits :
	Do not start on E overload
Acquisition started on : 11/04/2025 15:30:07.703
Loaded Setting File :  C:\Users\Celltest\OneDrive - store-dot.com\Documents\EC-Lab\Data\@Biologic Test Protocols\anode half cell EIS SOC00.mps
Saved on :
	File : 18944_R308_UA705_SOC00_C02.mpr
	Directory : C:\Users\Celltest\OneDrive - store-dot.com\Documents\EC-Lab\Data\Charmaine\
	Host : 169.254.61.224
Device : VMP-3e (SN .003165)
Address : USB
EC-LAB for windows v11.62 (software)
Internet server v27.00 (firmware)
Command interpretor v12.03 (firmware)
Electrode material :
Initial state :
Electrolyte :
Comments :
Electrode surface area : 0.001 cm²
Characteristic mass : 0.001 g
Equivalent Weight : 0.000 g/eq.
Density : 0.000 g/cm3
Volume (V) : 0.001 cm³
Record Ece
Cycle Definition : Charge/Discharge alternance
Mode                Single sine
E (V)               0.0000
vs.                 Eoc
tE (h:m:s)          0:00:0.0000
record              0
dI                  0.000
unit dI             mA
dt (s)              0.000
fi                  100.000
unit fi             kHz
ff                  10.000
unit ff             mHz
Nd                  6
Points              per decade
spacing             Logarithmic
Va (mV)             5.0
pw                  0.10
Na                  2
corr                0
E range min (V)     -10.000
E range max (V)     10.000
I Range             Auto
Bandwidth           5
nc cycles           0
goto Ns'            0
nr cycles           0
inc. cycle          0

freq/Hz	Re(Z)/Ohm	-Im(Z)/Ohm	|Z|/Ohm	Phase(Z)/deg	time/s	<Ewe>/V	<I>/mA	Cs/µF	Cp/µF	cycle number	I Range	|Ewe|/V	|I|/A	Ns	(Q-Qo)/mA.h	<Ece>/V	|Ece|/V	Phase(Zce)/deg	|Zce|/Ohm	Re(Zce)/Ohm	-Im(Zce)/Ohm	Phase(Zwe-ce)/deg	|Zwe-ce|/Ohm	Re(Zwe-ce)/Ohm	-Im(Zwe-ce)/Ohm	Re(Y)/Ohm-1	Im(Y)/Ohm-1	|Y|/Ohm-1	Phase(Y)/deg	Re(C)/nF	Im(C)/nF	|C|/nF	Phase(C)/deg	Re(M)	Im(M)	|M|	Phase(M)/deg	Re(Permittivity)	Im(Permittivity)	|Permittivity|	Phase(Permittivity)/deg	Re(Resistivity)/Ohm.cm	Im(Resistivity)/Ohm.cm	|Resistivity|/Ohm.cm	Phase(Resistivity)/deg	Re(Conductivity)/mS/cm	Im(Conductivity)/mS/cm	|Conductivity|/mS/cm	Phase(Conductivity)/deg	Tan(Delta)	Loss Angle(Delta)/deg	dq/mA.h	Pwe/W	Pce/W	Pwe-ce/W	<Ewe-Ece>/V	Rwe/Ohm	Rce/Ohm	Rwe-ce/Ohm		Ewe-Ece/V
100004	2.04152	1.43385	2.49474	-35.082	1.58353	0.200469	-0.0302042	1.10994	0.366654	1	9	0.00462274	0.00185299	0	-1.13476e-05	0.000387123	2.6737e-05	87.9776	0.0144291	0.000509206	-0.0144201	-34.8034	2.4869	2.04203	1.41943	0.328022	0.230384	0.400843	35.082	366.654	522.044	637.939	-54.918	0.0000000E+000	0.0000000E+000	0.0000000E+000	54.918	0.0000000E+000	0.0000000E+000	0.0000000E+000	-54.918	0.0000000E+000	0.0000000E+000	0.0000000E+000	-35.082	0.0000000E+000	0.0000000E+000	0.0000000E+000	35.082	1.42381	54.918	-1.13476e-05	-6.05501e-06	-1.16927e-08	-6.04332e-06	0.200082	6637.14	12.8169	6624.33
68132	2.39733	1.78094	2.98646	-36.6081	2.09256	0.200428	-0.0418621	1.31165	0.466449	1	9	0.00511463	0.00171261	0	-1.83264e-05	-0.000147421	1.60551e-05	100.229	0.00937464	-0.00166484	-0.00922563	-36.4848	2.97963	2.39567	1.77171	0.268791	0.199681	0.334845	36.6081	466.449	627.89	782.19	-53.3919	0.0000000E+000	0.0000000E+000	0.0000000E+000	53.3919	0.0000000E+000	0.0000000E+000	0.0000000E+000	-53.3919	0.0000000E+000	0.0000000E+000	0.0000000E+000	-36.6081	0.0000000E+000	0.0000000E+000	0.0000000E+000	36.6081	1.34611	53.3919	-6.97882e-06	-8.39034e-06	6.17134e-09	-8.39651e-06	0.200575	4787.8	3.52157	4791.33
46420.4	2.84902	2.23934	3.62375	-38.1675	2.59956	0.200446	-0.043501	1.53106	0.584676	1	9	0.00536885	0.00148157	0	-2.87478e-05	2.4397e-05	1.53588e-05	6.76475	0.0103666	0.0102944	-0.00122111	-38.052	3.6311	2.85932	2.23812	0.216959	0.170531	0.275957	38.1675	584.676	743.858	946.135	-51.8325	0.0000000E+000	0.0000000E+000	0.0000000E+000	51.8325	0.0000000E+000	0.0000000E+000	0.0000000E+000	-51.8325	0.0000000E+000	0.0000000E+000	0.0000000E+000	-38.1675	0.0000000E+000	0.0000000E+000	0.0000000E+000	38.1675	1.27226	51.8325	-1.04215e-05	-8.71958e-06	-1.06129e-09	-8.71852e-06	0.200421	4607.85	0.560838	4607.29
31621.1	3.43104	2.65855	4.3405	-37.7705	2.98255	0.200439	-0.0402233	1.8932	0.710246	1	9	0.00480341	0.00110665	0	-3.44092e-05	0.000177124	2.36361e-06	-58.7021	0.00213583	0.00110954	0.00182502	-37.7805	4.34249	3.43215	2.66038	0.182115	0.141113	0.230388	37.7705	710.246	916.619	1159.59	-52.2295	0.0000000E+000	0.0000000E+000	0.0000000E+000	52.2295	0.0000000E+000	0.0000000E+000	0.0000000E+000	-52.2295	0.0000000E+000	0.0000000E+000	0.0000000E+000	-37.7705	0.0000000E+000	0.0000000E+000	0.0000000E+000	37.7705	1.29056	52.2295	-5.66135e-06	-8.06234e-06	-7.12451e-09	-8.05522e-06	0.200262	4983.16	4.40351	4978.76
21544.7	4.16612	3.05796	5.16794	-36.2789	3.64452	0.200566	-0.0364324	2.41573	0.845816	1	10	0.00487888	0.000944066	0	-3.88576e-05	0.000291669	1.58835e-05	-87.4344	0.0168246	0.000753115	0.0168077	-36.4239	5.17851	4.16687	3.07477	0.15599	0.114497	0.193501	36.2789	845.816	1152.33	1429.43	-53.7211	0.0000000E+000	0.0000000E+000	0.0000000E+000	53.7211	0.0000000E+000	0.0000000E+000	0.0000000E+000	-53.7211	0.0000000E+000	0.0000000E+000	0.0000000E+000	-36.2789	0.0000000E+000	0.0000000E+000	0.0000000E+000	36.2789	1.36239	53.7211	-4.44844e-06	-7.30708e-06	-1.06262e-08	-7.29646e-06	0.200274	5505.14	8.00576	5497.14
14678.6	4.98026	3.4577	6.0629	-34.7715	3.90354	0.200553	-0.0359593	3.1358	1.01991	1	10	0.00539729	0.000890216	0	-4.19675e-05	0.000138942	6.89353e-06	-95.2606	0.00774366	-0.000709978	0.00771104	-34.8352	6.06671	4.97955	3.46541	0.135485	0.0940648	0.164938	34.7715	1019.91	1469.02	1788.36	-55.2285	0.0000000E+000	0.0000000E+000	0.0000000E+000	55.2285	0.0000000E+000	0.0000000E+000	0.0000000E+000	-55.2285	0.0000000E+000	0.0000000E+000	0.0000000E+000	-34.7715	0.0000000E+000	0.0000000E+000	0.0000000E+000	34.7715	1.44034	55.2285	-3.10991e-06	-7.21173e-06	-4.99626e-09	-7.20673e-06	0.200414	5577.21	3.86387	5573.35
10002.2	5.90437	3.82959	7.03756	-32.9675	4.16256	0.200573	-0.0358736	4.15501	1.23036	1	10	0.00532482	0.000756628	0	-4.41747e-05	4.34878e-05	1.17592e-05	-34.6911	0.0155416	0.0127788	0.00884553	-32.9713	7.0531	5.91715	3.83843	0.119214	0.0773227	0.142095	32.9675	1230.36	1896.93	2261	-57.0325	0.0000000E+000	0.0000000E+000	0.0000000E+000	57.0325	0.0000000E+000	0.0000000E+000	0.0000000E+000	-57.0325	0.0000000E+000	0.0000000E+000	0.0000000E+000	-32.9675	0.0000000E+000	0.0000000E+000	0.0000000E+000	32.9675	1.54178	57.0325	-2.20719e-06	-7.19529e-06	-1.56007e-09	-7.19373e-06	0.20053	5591.11	1.21225	5589.89
6810.42	6.86305	4.15078	8.02063	-31.1656	4.42152	0.200564	-0.035773	5.6301	1.50785	1	10	0.00513112	0.000639741	0	-4.623e-05	0.000253487	2.31721e-05	-80.8753	0.036221	0.00574409	0.0357627	-31.3624	8.0441	6.8688	4.18654	0.106684	0.0645228	0.124679	31.1656	1507.85	2493.14	2913.65	-58.8344	0.0000000E+000	0.0000000E+000	0.0000000E+000	58.8344	0.0000000E+000	0.0000000E+000	0.0000000E+000	-58.8344	0.0000000E+000	0.0000000E+000	0.0000000E+000	-31.1656	0.0000000E+000	0.0000000E+000	0.0000000E+000	31.1656	1.65344	58.8344	-2.05529e-06	-7.17476e-06	-9.068e-09	-7.1657e-06	0.20031	5606.56	7.08598	5599.47
4646	7.86687	4.50275	9.06434	-29.7855	4.68764	0.200518	-0.0441287	7.60787	1.87735	1	10	0.00499996	0.000551608	0	-4.95483e-05	0.00032985	8.05991e-06	-27.8127	0.0146117	0.0129237	0.00681755	-29.7823	9.07895	7.87979	4.50956	0.0957479	0.054803	0.110322	29.7855	1877.35	3279.97	3779.24	-60.2146	0.0000000E+000	0.0000000E+000	0.0000000E+000	60.2146	0.0000000E+000	0.0000000E+000	0.0000000E+000	-60.2146	0.0000000E+000	0.0000000E+000	0.0000000E+000	-29.7855	0.0000000E+000	0.0000000E+000	0.0000000E+000	29.7855	1.74713	60.2146	-3.31826e-06	-8.8486e-06	-1.45559e-08	-8.83404e-06	0.200188	4543.94	7.47474	4536.46
3163.08	8.96647	4.92776	10.2313	-28.7922	5.06064	0.200435	-0.0174859	10.2108	2.36861	1	10	0.00492018	0.000480893	0	-5.14276e-05	-3.28756e-05	7.80725e-06	-82.2848	0.0162349	0.00217952	0.0160879	-28.8652	10.241	8.96865	4.94385	0.0856557	0.0470744	0.0977389	28.7922	2368.61	4309.89	4917.88	-61.2078	0.0000000E+000	0.0000000E+000	0.0000000E+000	61.2078	0.0000000E+000	0.0000000E+000	0.0000000E+000	-61.2078	0.0000000E+000	0.0000000E+000	0.0000000E+000	-28.7922	0.0000000E+000	0.0000000E+000	0.0000000E+000	28.7922	1.81958	61.2078	-1.87931e-06	-3.50479e-06	5.7486e-10	-3.50537e-06	0.200468	11462.6	1.88011	11464.5
2155.69	10.1187	5.40155	11.4702	-28.0941	5.51179	0.200502	-0.00271545	13.6683	3.03117	1	10	0.004878	0.000425276	0	-5.21351e-05	0.00010076	9.06892e-06	-75.88	0.0213248	0.00520225	0.0206805	-28.1729	11.4845	10.1239	5.42223	0.0769102	0.041056	0.0871825	28.0941	3031.17	5678.3	6436.7	-61.9059	0.0000000E+000	0.0000000E+000	0.0000000E+000	61.9059	0.0000000E+000	0.0000000E+000	0.0000000E+000	-61.9059	0.0000000E+000	0.0000000E+000	0.0000000E+000	-28.0941	0.0000000E+000	0.0000000E+000	0.0000000E+000	28.0941	1.8733	61.9059	-7.07533e-07	-5.44453e-07	-2.7361e-10	-5.44179e-07	0.200401	73837.4	37.1063	73800.3
1468.59	11.316	6.00062	12.8085	-27.936	5.96306	0.200508	-0.00206727	18.0602	3.96384	1	10	0.00483764	0.000377688	0	-5.25485e-05	8.16695e-05	3.91434e-06	-78.9327	0.010364	0.00198948	0.0101712	-27.972	12.8151	11.318	6.01079	0.0689751	0.036576	0.0780729	27.936	3963.84	7475.02	8460.96	-62.064	0.0000000E+000	0.0000000E+000	0.0000000E+000	62.064	0.0000000E+000	0.0000000E+000	0.0000000E+000	-62.064	0.0000000E+000	0.0000000E+000	0.0000000E+000	-27.936	0.0000000E+000	0.0000000E+000	0.0000000E+000	27.936	1.8858	62.064	-4.13425e-07	-4.14503e-07	-1.68833e-10	-4.14334e-07	0.200426	96991.9	39.5061	96952.3
1000.32	12.6287	6.74565	14.3174	-28.109	6.4138	0.200509	-0.0014228	23.5862	5.23573	1	10	0.0048241	0.00033694	0	-5.2557e-05	0.000520759	3.16701e-06	-73.9182	0.00939933	0.00260371	0.00903151	-28.136	14.3239	12.6313	6.75468	0.0616071	0.0329076	0.0698451	28.109	5235.73	9801.93	11112.6	-61.891	0.0000000E+000	0.0000000E+000	0.0000000E+000	61.891	0.0000000E+000	0.0000000E+000	0.0000000E+000	-61.891	0.0000000E+000	0.0000000E+000	0.0000000E+000	-28.109	0.0000000E+000	0.0000000E+000	0.0000000E+000	28.109	1.87212	61.891	-8.50595e-09	-2.85285e-07	-7.40938e-10	-2.84544e-07	0.199988	140925	366.009	140559
681.09	14.1562	7.70317	16.1163	-28.5531	6.8646	0.200495	-0.00432475	30.3352	6.93031	1	10	0.00481523	0.000298779	0	-5.3265e-05	-1.37847e-05	4.33249e-06	-32.6677	0.0145006	0.0122069	0.00782695	-28.5568	16.1308	14.1684	7.71099	0.0545021	0.0296577	0.0620489	28.5531	6930.31	12735.9	14499.4	-61.4469	0.0000000E+000	0.0000000E+000	0.0000000E+000	61.4469	0.0000000E+000	0.0000000E+000	0.0000000E+000	-61.4469	0.0000000E+000	0.0000000E+000	0.0000000E+000	-28.5531	0.0000000E+000	0.0000000E+000	0.0000000E+000	28.5531	1.83771	61.4469	-7.07991e-07	-8.6709e-07	5.96154e-11	-8.6715e-07	0.200509	46359.9	3.1874	46363.1
463.961	15.9107	8.91112	18.2362	-29.2519	7.3163	0.200506	-0.00281976	38.4952	9.19183	1	10	0.00480185	0.000263314	0	-5.35299e-05	0.000463486	8.30971e-06	7.95245	0.0315582	0.0312547	-0.00436611	-29.192	18.2614	15.942	8.90675	0.0478433	0.0267956	0.0548359	29.2519	9191.83	16411.9	18810.7	-60.7481	0.0000000E+000	0.0000000E+000	0.0000000E+000	60.7481	0.0000000E+000	0.0000000E+000	0.0000000E+000	-60.7481	0.0000000E+000	0.0000000E+000	0.0000000E+000	-29.2519	0.0000000E+000	0.0000000E+000	0.0000000E+000	29.2519	1.78549	60.7481	-2.64891e-07	-5.6538e-07	-1.30692e-09	-5.64073e-07	0.200043	71107.6	164.371	70943.2
316.316	18.0774	10.3787	20.8449	-29.8613	7.76403	0.200497	-0.00184375	48.4791	12.0183	1	10	0.00479536	0.000230049	0	-5.39894e-05	-0.000109239	7.49719e-06	-62.5381	0.0325895	0.0150289	0.0289173	-29.9096	20.8724	18.0925	10.4076	0.041604	0.023886	0.0479733	29.8613	12018.3	20933.2	24137.8	-60.1387	0.0000000E+000	0.0000000E+000	0.0000000E+000	60.1387	0.0000000E+000	0.0000000E+000	0.0000000E+000	-60.1387	0.0000000E+000	0.0000000E+000	0.0000000E+000	-29.8613	0.0000000E+000	0.0000000E+000	0.0000000E+000	29.8613	1.74178	60.1387	-4.59472e-07	-3.69666e-07	2.0141e-10	-3.69868e-07	0.200606	108744	59.2481	108803
215.345	20.9168	11.8244	24.0277	-29.4797	8.21453	0.200504	-0.00197786	62.5038	15.137	1	10	0.00479196	0.000199435	0	-5.42135e-05	0.000234396	1.14169e-05	48.8007	0.0572463	0.037707	-0.0430735	-29.3461	24.0394	20.9545	11.7813	0.0362302	0.0204812	0.0416186	29.4797	15137	26776.7	30759.1	-60.5203	0.0000000E+000	0.0000000E+000	0.0000000E+000	60.5203	0.0000000E+000	0.0000000E+000	0.0000000E+000	-60.5203	0.0000000E+000	0.0000000E+000	0.0000000E+000	-29.4797	0.0000000E+000	0.0000000E+000	0.0000000E+000	29.4797	1.76895	60.5203	-2.24119e-07	-3.96571e-07	-4.63604e-10	-3.96107e-07	0.20027	101374	118.51	101256
146.737	24.4821	13.2014	27.8146	-28.3347	8.90454	0.200534	-0.0106676	82.1597	18.5078	1	11	0.00480108	0.00017261	0	-5.56307e-05	0.000348941	3.54443e-05	70.1396	0.205343	0.0697611	-0.19313	-27.9159	27.7851	24.5519	13.0083	0.0316449	0.0170638	0.0359524	28.3347	18507.8	34322.8	38994.8	-61.6653	0.0000000E+000	0.0000000E+000	0.0000000E+000	61.6653	0.0000000E+000	0.0000000E+000	0.0000000E+000	-61.6653	0.0000000E+000	0.0000000E+000	0.0000000E+000	-28.3347	0.0000000E+000	0.0000000E+000	0.0000000E+000	28.3347	1.85451	61.6653	-1.41715e-06	-2.13923e-06	-3.72238e-09	-2.13551e-06	0.200186	18798.4	32.7103	18765.7
100.032	28.7907	14.2738	32.1348	-26.3713	9.35583	0.200533	-0.0104245	111.466	21.9923	1	11	0.00480729	0.000149598	0	-5.69106e-05	6.25787e-05	5.25576e-06	-18.7464	0.0351326	0.0332689	0.0112909	-26.363	32.1696	28.8239	14.2851	0.0278805	0.0138226	0.0311189	26.3713	21992.3	44359	49511.5	-63.6287	0.0000000E+000	0.0000000E+000	0.0000000E+000	63.6287	0.0000000E+000	0.0000000E+000	0.0000000E+000	-63.6287	0.0000000E+000	0.0000000E+000	0.0000000E+000	-26.3713	0.0000000E+000	0.0000000E+000	0.0000000E+000	26.3713	2.01702	63.6287	-1.27997e-06	-2.09047e-06	-6.52354e-10	-2.08982e-06	0.200471	19236.7	6.00302	19230.7
68.104	33.3262	14.1454	36.204	-22.999	9.81848	0.200535	-0.0100192	165.208	25.2203	1	11	0.00479308	0.000132391	0	-5.81965e-05	0.00031076	6.10535e-06	78.7358	0.0461162	0.00900802	-0.0452278	-22.9275	36.1947	33.3352	14.1002	0.0254257	0.010792	0.0276213	22.999	25220.3	59418.3	64549.2	-67.001	0.0000000E+000	0.0000000E+000	0.0000000E+000	67.001	0.0000000E+000	0.0000000E+000	0.0000000E+000	-67.001	0.0000000E+000	0.0000000E+000	0.0000000E+000	-22.999	0.0000000E+000	0.0000000E+000	0.0000000E+000	22.999	2.35597	67.001	-1.28582e-06	-2.00921e-06	-3.11358e-09	-2.00609e-06	0.200224	20014.9	31.0163	19983.9
46.4415	37.6728	13.0494	39.8689	-19.1054	10.2536	0.200531	-0.0103846	262.618	28.1342	1	11	0.004791	0.000120169	0	-5.93598e-05	-0.000491056	4.77739e-06	20.6657	0.0397556	0.0371976	-0.0140304	-19.0689	39.8995	37.71	13.0353	0.0237006	0.00820957	0.0250822	19.1054	28134.2	81222	85956.6	-70.8946	0.0000000E+000	0.0000000E+000	0.0000000E+000	70.8946	0.0000000E+000	0.0000000E+000	0.0000000E+000	-70.8946	0.0000000E+000	0.0000000E+000	0.0000000E+000	-19.1054	0.0000000E+000	0.0000000E+000	0.0000000E+000	19.1054	2.88695	70.8946	-1.1633e-06	-2.08245e-06	5.09944e-09	-2.08755e-06	0.201022	19310.4	47.2867	19357.7
31.6296	41.2619	11.2197	42.7601	-15.2118	10.6836	0.200536	-0.0101867	448.482	30.8767	1	11	0.00479076	0.000112038	0	-6.07976e-05	4.34878e-05	1.02028e-05	13.2195	0.0910657	0.0886526	-0.0208251	-15.1538	42.8402	41.3506	11.1989	0.0225669	0.00613627	0.0233863	15.2118	30876.7	113553	117676	-74.7882	0.0000000E+000	0.0000000E+000	0.0000000E+000	74.7882	0.0000000E+000	0.0000000E+000	0.0000000E+000	-74.7882	0.0000000E+000	0.0000000E+000	0.0000000E+000	-15.2118	0.0000000E+000	0.0000000E+000	0.0000000E+000	15.2118	3.67762	74.7882	-1.4378e-06	-2.04279e-06	-4.42996e-10	-2.04235e-06	0.200492	19686.1	4.2691	19681.9
21.5517	43.8867	9.26445	44.8539	-11.9201	11.1054	0.200534	-0.0104529	797.11	34.0062	1	11	0.00479137	0.000106822	0	-6.20442e-05	4.34878e-05	7.6562e-06	-11.4635	0.0716727	0.070243	0.0142445	-11.9194	44.9256	43.9569	9.2787	0.0218139	0.00460489	0.0222946	11.9201	34006.1	161091	164641	-78.0799	0.0000000E+000	0.0000000E+000	0.0000000E+000	78.0799	0.0000000E+000	0.0000000E+000	0.0000000E+000	-78.0799	0.0000000E+000	0.0000000E+000	0.0000000E+000	-11.9201	0.0000000E+000	0.0000000E+000	0.0000000E+000	11.9201	4.73711	78.0799	-1.24663e-06	-2.09615e-06	-4.54573e-10	-2.0957e-06	0.20049	19184.5	4.16037	19180.4
14.6852	45.5951	7.33188	46.1808	-9.1352	11.5652	0.200538	-0.00952783	1478.18	37.2592	1	11	0.00478546	0.000103624	0	-6.35506e-05	0.00031076	7.36317e-06	1.10921	0.0710563	0.071043	-0.00137551	-9.11954	46.2508	45.6661	7.33051	0.0213794	0.00343789	0.021654	9.1352	37259.2	231705	234682	-80.8648	0.0000000E+000	0.0000000E+000	0.0000000E+000	80.8648	0.0000000E+000	0.0000000E+000	0.0000000E+000	-80.8648	0.0000000E+000	0.0000000E+000	0.0000000E+000	-9.1352	0.0000000E+000	0.0000000E+000	0.0000000E+000	9.1352	6.21874	80.8648	-1.50637e-06	-1.91069e-06	-2.96086e-09	-1.90773e-06	0.200227	21047.6	32.616	21015
10.0032	46.7734	5.72023	47.1218	-6.97246	12.0158	0.200537	-0.00990068	2781.43	40.9874	1	11	0.00479446	0.000101746	0	-6.39043e-05	0.00031076	4.94401e-06	78.1892	0.0485917	0.00994578	-0.047563	-6.9136	47.126	46.7833	5.67267	0.0210646	0.00257614	0.0212216	6.97246	40987.4	335147	337644	-83.0275	0.0000000E+000	0.0000000E+000	0.0000000E+000	83.0275	0.0000000E+000	0.0000000E+000	0.0000000E+000	-83.0275	0.0000000E+000	0.0000000E+000	0.0000000E+000	-6.97246	0.0000000E+000	0.0000000E+000	0.0000000E+000	6.97246	8.17683	83.0275	-3.53786e-07	-1.98545e-06	-3.07673e-09	-1.98237e-06	0.200226	20254.8	31.3877	20223.4
6.81719	47.6164	4.60686	47.8387	-5.52613	12.3555	0.200564	-0.00869451	5067.69	46.9959	1	11	0.00479093	0.000100148	0	-6.55471e-05	0.000158033	2.86698e-06	33.7863	0.0286276	0.0237929	-0.0159197	-5.50442	47.8609	47.6402	4.59094	0.0208064	0.00201301	0.0209036	5.52613	46995.9	485749	488017	-84.4739	0.0000000E+000	0.0000000E+000	0.0000000E+000	84.4739	0.0000000E+000	0.0000000E+000	0.0000000E+000	-84.4739	0.0000000E+000	0.0000000E+000	0.0000000E+000	-5.52613	0.0000000E+000	0.0000000E+000	0.0000000E+000	5.52613	10.336	84.4739	-1.64273e-06	-1.7438e-06	-1.37402e-09	-1.74243e-06	0.200406	23067.8	18.1762	23049.7
4.63925	48.0733	3.70051	48.2155	-4.40175	12.8394	0.200537	-0.00911247	9270.66	54.6086	1	11	0.00478685	9.92804e-05	0	-6.69008e-05	0.000177124	5.57557e-06	13.827	0.0561599	0.0545325	-0.0134217	-4.38089	48.2688	48.1278	3.68709	0.0206791	0.0015918	0.0207402	4.40175	54608.6	709419	711518	-85.5983	0.0000000E+000	0.0000000E+000	0.0000000E+000	85.5983	0.0000000E+000	0.0000000E+000	0.0000000E+000	-85.5983	0.0000000E+000	0.0000000E+000	0.0000000E+000	-4.40175	0.0000000E+000	0.0000000E+000	0.0000000E+000	4.40175	12.991	85.5983	-1.35377e-06	-1.82739e-06	-1.61404e-09	-1.82578e-06	0.20036	22006.9	19.4375	21987.5
3.1604	48.7042	3.24721	48.8123	-3.81438	13.5324	0.200556	-0.00831942	15508.4	68.6325	1	11	0.00479002	9.81313e-05	0	-6.71679e-05	0.000138942	5.01272e-06	-6.89437	0.0510818	0.0507124	0.00613182	-3.8176	48.8634	48.7549	3.25334	0.0204412	0.00136286	0.0204866	3.81438	68632.5	1.0294e+06	1.03169e+06	-86.1856	0.0000000E+000	0.0000000E+000	0.0000000E+000	86.1856	0.0000000E+000	0.0000000E+000	0.0000000E+000	-86.1856	0.0000000E+000	0.0000000E+000	0.0000000E+000	-3.81438	0.0000000E+000	0.0000000E+000	0.0000000E+000	3.81438	14.9988	86.1856	-2.67103e-07	-1.66851e-06	-1.15592e-09	-1.66735e-06	0.200417	24107	16.7009	24090.3
2.15577	49.1385	3.05504	49.2334	-3.55762	14.536	0.200557	-0.00730172	24165.8	93.0499	1	11	0.00478196	9.71284e-05	0	-6.80918e-05	0.000272578	4.16384e-06	23.5414	0.0428695	0.0393016	-0.0171226	-3.53491	49.2716	49.1778	3.03792	0.0202723	0.00126037	0.0203114	3.55762	93049.9	1.49665e+06	1.49954e+06	-86.4424	0.0000000E+000	0.0000000E+000	0.0000000E+000	86.4424	0.0000000E+000	0.0000000E+000	0.0000000E+000	-86.4424	0.0000000E+000	0.0000000E+000	0.0000000E+000	-3.55762	0.0000000E+000	0.0000000E+000	0.0000000E+000	3.55762	16.0844	86.4424	-9.23897e-07	-1.46441e-06	-1.99029e-09	-1.46242e-06	0.200284	27467.1	37.3307	27429.7
1.46631	49.6644	3.0422	49.7575	-3.50528	16.7243	0.200553	-0.00663177	35678.5	133.372	1	12	0.00479104	9.62879e-05	0	-7.31447e-05	0.000291669	6.12963e-06	-43.975	0.0636594	0.045812	0.0442016	-3.55281	49.8059	49.7102	3.0864	0.0200599	0.00122877	0.0200975	3.50528	133372	2.17732e+06	2.1814e+06	-86.4947	0.0000000E+000	0.0000000E+000	0.0000000E+000	86.4947	0.0000000E+000	0.0000000E+000	0.0000000E+000	-86.4947	0.0000000E+000	0.0000000E+000	0.0000000E+000	-3.50528	0.0000000E+000	0.0000000E+000	0.0000000E+000	3.50528	16.3252	86.4947	-5.05285e-06	-1.33002e-06	-1.93428e-09	-1.32809e-06	0.200262	30241.3	43.9805	30197.3
1.00006	50.2347	3.12696	50.3319	-3.5619	18.8518	0.200554	-0.00635293	50894.4	196.439	1	12	0.00479094	9.51869e-05	0	-8.00159e-05	4.34878e-05	3.4648e-06	87.7066	0.0364	0.00145663	-0.0363708	-3.52047	50.3311	50.2361	3.09059	0.0198297	0.00123434	0.0198681	3.5619	196440	3.1558e+06	3.16191e+06	-86.4381	0.0000000E+000	0.0000000E+000	0.0000000E+000	86.4381	0.0000000E+000	0.0000000E+000	0.0000000E+000	-86.4381	0.0000000E+000	0.0000000E+000	0.0000000E+000	-3.5619	0.0000000E+000	0.0000000E+000	0.0000000E+000	3.5619	16.065	86.4381	-6.87122e-06	-1.27411e-06	-2.76275e-10	-1.27383e-06	0.200511	31568.8	6.84532	31562
0.681362	50.9325	3.31051	51.04	-3.71888	21.9639	0.200559	-0.00608164	70558.1	296.836	1	12	0.00478953	9.38388e-05	0	-8.84107e-05	-9.01481e-05	1.51364e-06	-20.0085	0.0161302	0.0151566	0.00551911	-3.72396	51.0555	50.9477	3.31603	0.0195512	0.00127079	0.0195925	3.71888	296836	4.56684e+06	4.57648e+06	-86.2811	0.0000000E+000	0.0000000E+000	0.0000000E+000	86.2811	0.0000000E+000	0.0000000E+000	0.0000000E+000	-86.2811	0.0000000E+000	0.0000000E+000	0.0000000E+000	-3.71888	0.0000000E+000	0.0000000E+000	0.0000000E+000	3.71888	15.3851	86.2811	-8.39482e-06	-1.21972e-06	5.48248e-10	-1.22027e-06	0.200649	32977.7	14.823	32992.6
0.464091	51.7111	3.67029	51.8412	-4.05986	26.5204	0.200561	-0.00601518	93436.7	468.347	1	12	0.00479018	9.24011e-05	0	-9.63204e-05	-0.000242875	1.76177e-06	-5.45549	0.0190666	0.0189802	0.0018127	-4.06037	51.8602	51.7301	3.6721	0.0192413	0.00136568	0.0192897	4.05986	468347	6.59859e+06	6.61519e+06	-85.9401	0.0000000E+000	0.0000000E+000	0.0000000E+000	85.9401	0.0000000E+000	0.0000000E+000	0.0000000E+000	-85.9401	0.0000000E+000	0.0000000E+000	0.0000000E+000	-4.05986	0.0000000E+000	0.0000000E+000	0.0000000E+000	4.05986	14.0891	85.9401	-7.90967e-06	-1.20641e-06	1.46094e-09	-1.20787e-06	0.200804	33342.4	40.377	33382.8
0.316193	52.4598	4.07132	52.6175	-4.43775	33.1949	0.200546	-0.00595357	123632	740.19	1	12	0.00478944	9.10238e-05	0	-0.000101955	0.000196215	1.82441e-06	-59.9359	0.0200432	0.010041	0.0173467	-4.45573	52.6289	52.4698	4.08867	0.0189481	0.00147053	0.0190051	4.43775	740189	9.53748e+06	9.56616e+06	-85.5623	0.0000000E+000	0.0000000E+000	0.0000000E+000	85.5623	0.0000000E+000	0.0000000E+000	0.0000000E+000	-85.5623	0.0000000E+000	0.0000000E+000	0.0000000E+000	-4.43775	0.0000000E+000	0.0000000E+000	0.0000000E+000	4.43775	12.8852	85.5623	-5.63498e-06	-1.19396e-06	-1.16818e-09	-1.1928e-06	0.20035	33685	32.9575	33652.1
0.215268	53.1842	4.50527	53.3747	-4.842	42.9884	0.200549	-0.00537487	164105	1169.2	1	12	0.00479044	8.9751e-05	0	-0.000105254	0.000158033	2.26457e-06	1.65323	0.0252317	0.0252212	-0.000727939	-4.83893	53.3998	53.2095	4.50454	0.0186686	0.00158143	0.0187355	4.842	1.1692e+06	1.38023e+07	1.38518e+07	-85.158	0.0000000E+000	0.0000000E+000	0.0000000E+000	85.158	0.0000000E+000	0.0000000E+000	0.0000000E+000	-85.158	0.0000000E+000	0.0000000E+000	0.0000000E+000	-4.842	0.0000000E+000	0.0000000E+000	0.0000000E+000	4.842	11.8049	85.158	-3.29879e-06	-1.07793e-06	-8.49407e-10	-1.07708e-06	0.200391	37312.4	29.4022	37283
0.146929	53.9652	5.10656	54.2063	-5.40563	57.3267	0.200549	-0.00448468	212121	1882.53	1	12	0.00478898	8.83473e-05	0	-0.000109171	-1.37847e-05	1.75675e-06	-58.4746	0.0198845	0.0103971	0.0169497	-5.42243	54.2183	53.9756	5.12351	0.018366	0.00173792	0.018448	5.40563	1.88253e+06	1.98943e+07	1.99831e+07	-84.5944	0.0000000E+000	0.0000000E+000	0.0000000E+000	84.5944	0.0000000E+000	0.0000000E+000	0.0000000E+000	-84.5944	0.0000000E+000	0.0000000E+000	0.0000000E+000	-5.40563	0.0000000E+000	0.0000000E+000	0.0000000E+000	5.40563	10.5678	84.5944	-3.91644e-06	-8.99399e-07	6.182e-11	-8.99461e-07	0.200563	44718.7	3.07373	44721.8
0.0999041	54.9121	6.13807	55.2541	-6.37804	78.403	0.200542	-0.00358841	259541	3202.87	1	12	0.00479223	8.67308e-05	0	-0.000121999	-0.000109239	1.58936e-06	-17.7471	0.0183251	0.0174531	0.00558579	-6.38178	55.2721	54.9296	6.14365	0.0179862	0.00201049	0.0180982	6.37804	3.20287e+06	2.86534e+07	2.88318e+07	-83.622	0.0000000E+000	0.0000000E+000	0.0000000E+000	83.622	0.0000000E+000	0.0000000E+000	0.0000000E+000	-83.622	0.0000000E+000	0.0000000E+000	0.0000000E+000	-6.37804	0.0000000E+000	0.0000000E+000	0.0000000E+000	6.37804	8.94616	83.622	-1.28286e-05	-7.19628e-07	3.91994e-10	-7.2002e-07	0.200651	55886	30.4421	55916.5
0.0680626	55.8528	7.76283	56.3897	-7.9127	109.331	0.20054	-0.00290026	301225	5708.64	1	12	0.00479009	8.49463e-05	0	-0.000154216	0.000501668	1.4071e-06	0.966883	0.0165645	0.0165622	-0.000279518	-7.9101	56.406	55.8693	7.76255	0.0175649	0.0024413	0.0177338	7.9127	5.70864e+06	4.10731e+07	4.14679e+07	-82.0873	0.0000000E+000	0.0000000E+000	0.0000000E+000	82.0873	0.0000000E+000	0.0000000E+000	0.0000000E+000	-82.0873	0.0000000E+000	0.0000000E+000	0.0000000E+000	-7.9127	0.0000000E+000	0.0000000E+000	0.0000000E+000	7.9127	7.1949	82.0873	-3.22173e-05	-5.8162e-07	-1.45497e-09	-5.80165e-07	0.200039	69145.5	172.973	68972.5
0.0464052	56.7429	10.0708	57.6297	-10.0641	154.682	0.200549	-0.00273606	340557	10399.8	1	12	0.00479101	8.31343e-05	0	-0.000228084	0.000348941	1.73714e-06	-55.3436	0.0208956	0.0118823	0.0171882	-10.0789	57.6444	56.7548	10.088	0.0170852	0.0030323	0.0173522	10.0641	1.03998e+07	5.85967e+07	5.95124e+07	-79.9359	0.0000000E+000	0.0000000E+000	0.0000000E+000	79.9359	0.0000000E+000	0.0000000E+000	0.0000000E+000	-79.9359	0.0000000E+000	0.0000000E+000	0.0000000E+000	-10.0641	0.0000000E+000	0.0000000E+000	0.0000000E+000	10.0641	5.6344	79.9359	-7.38676e-05	-5.48714e-07	-9.54725e-10	-5.47759e-07	0.2002	73298.4	127.534	73170.9
0.0315922	58.1245	13.0275	59.5666	-12.6329	221.288	0.200548	-0.00300195	386706	18496.7	1	12	0.00479097	8.04305e-05	0	-0.000356247	0.000234396	1.5882e-06	-34.5456	0.0197462	0.0162644	0.0111973	-12.64	59.5849	58.1408	13.0387	0.0163815	0.00367159	0.0167879	12.6329	1.84967e+07	8.25267e+07	8.45741e+07	-77.3671	0.0000000E+000	0.0000000E+000	0.0000000E+000	77.3671	0.0000000E+000	0.0000000E+000	0.0000000E+000	-77.3671	0.0000000E+000	0.0000000E+000	0.0000000E+000	-12.6329	0.0000000E+000	0.0000000E+000	0.0000000E+000	12.6329	4.4617	77.3671	-0.000128163	-6.02037e-07	-7.03647e-10	-6.01333e-07	0.200314	66805.9	78.0812	66727.8
0.0215268	60.416	17.3749	62.8648	-16.0446	319.026	0.200548	-0.00334075	425519	32504.8	1	12	0.00478706	7.61485e-05	0	-0.000523423	0.00010076	1.97703e-06	-46.7303	0.0259628	0.0177958	0.0189044	-16.0566	62.8871	60.4338	17.3938	0.0152875	0.00439649	0.0159071	16.0446	3.25048e+07	1.13026e+08	1.17607e+08	-73.9554	0.0000000E+000	0.0000000E+000	0.0000000E+000	73.9554	0.0000000E+000	0.0000000E+000	0.0000000E+000	-73.9554	0.0000000E+000	0.0000000E+000	0.0000000E+000	-16.0446	0.0000000E+000	0.0000000E+000	0.0000000E+000	16.0446	3.47721	73.9554	-0.000167177	-6.69981e-07	-3.36615e-10	-6.69645e-07	0.200448	60030.9	30.161	60000.8
0.0146812	63.4396	23.6899	67.7185	-20.4769	462.329	0.200538	-0.00360975	457611	56002.6	1	12	0.0047892	7.07222e-05	0	-0.000683036	0.000215305	8.84218e-07	35.1792	0.0125027	0.0102191	-0.00720325	-20.4681	67.7255	63.4498	23.6827	0.0138339	0.00516593	0.014767	20.4769	5.60026e+07	1.4997e+08	1.60086e+08	-69.5231	0.0000000E+000	0.0000000E+000	0.0000000E+000	69.5231	0.0000000E+000	0.0000000E+000	0.0000000E+000	-69.5231	0.0000000E+000	0.0000000E+000	0.0000000E+000	-20.4769	0.0000000E+000	0.0000000E+000	0.0000000E+000	20.4769	2.67792	69.5231	-0.000159613	-7.23893e-07	-7.77199e-10	-7.23116e-07	0.200323	55554.6	59.6455	55495
0.0100092	67.1262	31.5448	74.1687	-25.1704	672.511	0.200541	-0.00371359	504073	91181.9	1	12	0.00479003	6.45829e-05	0	-0.000785879	4.34878e-05	7.23797e-07	66.7158	0.0112073	0.00443014	-0.0102945	-25.1617	74.1684	67.1306	31.5345	0.0122025	0.00573438	0.0134828	25.1704	9.11819e+07	1.94032e+08	2.14388e+08	-64.8296	0.0000000E+000	0.0000000E+000	0.0000000E+000	64.8296	0.0000000E+000	0.0000000E+000	0.0000000E+000	-64.8296	0.0000000E+000	0.0000000E+000	0.0000000E+000	-25.1704	0.0000000E+000	0.0000000E+000	0.0000000E+000	25.1704	2.12796	64.8296	-0.000102843	-7.44725e-07	-1.61496e-10	-7.44564e-07	0.200497	54001.9	11.7105	53990.2