File: txt/18942_R308_UA704_SOC00_C07.mpt
EC-Lab ASCII FILE
Nb header lines : 66

Potentio Electrochemical Impedance Spectroscopy

Run on channel : 7 (SN 66126)
Grouped channel(s) : 7, 8
User :
CE vs. WE compliance from -10 V to 10 V
Electrode connection : standard
Potential control : Ewe
Ewe ctrl range : min = -10.00 V, max = 10.00 V
Safety Limits :
	Do not start on E overload
Acquisition started on : 11/04/2025 15:28:53.628
Loaded Setting File :  C:\Users\Celltest\OneDrive - store-dot.com\Documents\EC-Lab\Data\@Biologic Test Protocols\anode half cell EIS SOC00.mps
Saved on :
	File : 18942_R308_UA704_SOC00_C07.mpr
	Directory : C:\Users\Celltest\OneDrive - store-dot.com\Documents\EC-Lab\Data\Charmaine\
	Host : 169.254.61.224
Device : VMP-3e (SN .003165)
Address : USB
EC-LAB for windows v11.62 (software)
Internet server v27.00 (firmware)
Command interpretor v12.03 (firmware)
Electrode material :
Initial state :
Electrolyte :
Comments :
Electrode surface area : 0.001 cm²
Characteristic mass : 0.001 g
Equivalent Weight : 0.000 g/eq.
Density : 0.000 g/cm3
Volume (V) : 0.001 cm³
Record Ece
Cycle Definition : Charge/Discharge alternance
Mode                Single sine
E (V)               0.0000
vs.                 Eoc
tE (h:m:s)          0:00:0.0000
record              0
dI                  0.000
unit dI             mA
dt (s)              0.000
fi                  100.000
unit fi             kHz
ff                  10.000
unit ff             mHz
Nd                  6
Points              per decade
spacing             Logarithmic
Va (mV)             5.0
pw                  0.10
Na                  2
corr                0
E range min (V)     -10.000
E range max (V)     10.000
I Range             Auto
Bandwidth           5
nc cycles           0
goto Ns'            0
nr cycles           0
inc. cycle          0

freq/Hz	Re(Z)/Ohm	-Im(Z)/Ohm	|Z|/Ohm	Phase(Z)/deg	time/s	<Ewe>/V	<I>/mA	Cs/µF	Cp/µF	cycle number	I Range	|Ewe|/V	|I|/A	Ns	(Q-Qo)/mA.h	<Ece>/V	|Ece|/V	Phase(Zce)/deg	|Zce|/Ohm	Re(Zce)/Ohm	-Im(Zce)/Ohm	Phase(Zwe-ce)/deg	|Zwe-ce|/Ohm	Re(Zwe-ce)/Ohm	-Im(Zwe-ce)/Ohm	Re(Y)/Ohm-1	Im(Y)/Ohm-1	|Y|/Ohm-1	Phase(Y)/deg	Re(C)/nF	Im(C)/nF	|C|/nF	Phase(C)/deg	Re(M)	Im(M)	|M|	Phase(M)/deg	Re(Permittivity)	Im(Permittivity)	|Permittivity|	Phase(Permittivity)/deg	Re(Resistivity)/Ohm.cm	Im(Resistivity)/Ohm.cm	|Resistivity|/Ohm.cm	Phase(Resistivity)/deg	Re(Conductivity)/mS/cm	Im(Conductivity)/mS/cm	|Conductivity|/mS/cm	Phase(Conductivity)/deg	Tan(Delta)	Loss Angle(Delta)/deg	dq/mA.h	Pwe/W	Pce/W	Pwe-ce/W	<Ewe-Ece>/V	Rwe/Ohm	Rce/Ohm	Rwe-ce/Ohm		Ewe-Ece/V
100004	1.4471	0.533532	1.54232	-20.2385	1.86953	0.240757	0.0642023	2.98294	0.356957	1	9	0.00494889	0.00320873	0	1.3265e-05	-0.000256923	4.15062e-05	57.834	0.0129354	0.00688648	-0.0109499	-19.7691	1.54505	1.45399	0.522582	0.608344	0.224291	0.648374	20.2385	356.957	968.174	1031.88	-69.7615	0.0000000E+000	0.0000000E+000	0.0000000E+000	69.7615	0.0000000E+000	0.0000000E+000	0.0000000E+000	-69.7615	0.0000000E+000	0.0000000E+000	0.0000000E+000	-20.2385	0.0000000E+000	0.0000000E+000	0.0000000E+000	20.2385	2.7123	69.7615	1.3265e-05	1.54572e-05	-1.64951e-08	1.54737e-05	0.241014	3749.97	4.00178	3753.98
68132	1.5961	0.61042	1.70885	-20.929	2.25255	0.240755	0.0647609	3.82684	0.488305	1	9	0.00545745	0.00319365	0	9.43455e-06	-0.000371376	2.84005e-05	56.7972	0.00889282	0.00486975	-0.00744095	-20.638	1.71076	1.60097	0.602979	0.546581	0.209037	0.58519	20.929	488.305	1276.8	1366.99	-69.071	0.0000000E+000	0.0000000E+000	0.0000000E+000	69.071	0.0000000E+000	0.0000000E+000	0.0000000E+000	-69.071	0.0000000E+000	0.0000000E+000	0.0000000E+000	-20.929	0.0000000E+000	0.0000000E+000	0.0000000E+000	20.929	2.61476	69.071	-3.83048e-06	1.55915e-05	-2.40506e-08	1.56155e-05	0.241126	3717.6	5.73457	3723.33
46420.4	1.75967	0.680203	1.88656	-21.1341	2.63554	0.240759	0.0610373	5.04049	0.65525	1	9	0.00545509	0.00289155	0	1.59597e-05	-0.000237848	2.15714e-05	32.435	0.00746014	0.00629636	-0.00400119	-20.9522	1.891	1.76597	0.676202	0.494412	0.191115	0.530064	21.1341	655.25	1695.12	1817.36	-68.866	0.0000000E+000	0.0000000E+000	0.0000000E+000	68.866	0.0000000E+000	0.0000000E+000	0.0000000E+000	-68.866	0.0000000E+000	0.0000000E+000	0.0000000E+000	-21.1341	0.0000000E+000	0.0000000E+000	0.0000000E+000	21.1341	2.58698	68.866	6.52514e-06	1.46952e-05	-1.45176e-08	1.47098e-05	0.240996	3944.45	3.89676	3948.35
31621.1	1.94604	0.731805	2.07909	-20.6087	3.01853	0.240764	0.0648726	6.87776	0.852105	1	9	0.00543901	0.00261606	0	2.88285e-05	-2.80181e-05	1.21603e-05	41.5628	0.00464831	0.003478	-0.00308388	-20.4955	2.08126	1.94952	0.728721	0.450201	0.169297	0.480981	20.6087	852.105	2265.94	2420.86	-69.3913	0.0000000E+000	0.0000000E+000	0.0000000E+000	69.3913	0.0000000E+000	0.0000000E+000	0.0000000E+000	-69.3913	0.0000000E+000	0.0000000E+000	0.0000000E+000	-20.6087	0.0000000E+000	0.0000000E+000	0.0000000E+000	20.6087	2.65923	69.3913	1.28688e-05	1.5619e-05	-1.81761e-09	1.56208e-05	0.240792	3711.33	0.431895	3711.76
21544.7	2.12406	0.789133	2.26591	-20.3811	3.40152	0.240761	0.0579839	9.36116	1.13539	1	9	0.00541351	0.00238911	0	3.33654e-05	-0.00010432	1.01913e-05	32.8815	0.00426573	0.00358234	-0.00231588	-20.2948	2.26846	2.12764	0.786818	0.413695	0.153697	0.441324	20.3811	1135.39	3056.05	3260.15	-69.6189	0.0000000E+000	0.0000000E+000	0.0000000E+000	69.6189	0.0000000E+000	0.0000000E+000	0.0000000E+000	-69.6189	0.0000000E+000	0.0000000E+000	0.0000000E+000	-20.3811	0.0000000E+000	0.0000000E+000	0.0000000E+000	20.3811	2.69163	69.6189	4.53684e-06	1.39602e-05	-6.04887e-09	1.39663e-05	0.240865	4152.2	1.79912	4154
14678.6	2.3155	0.837618	2.46234	-19.8873	3.78453	0.240768	0.0701973	12.9446	1.49791	1	9	0.00536828	0.00218015	0	4.06878e-05	-0.000256923	4.04156e-06	-83.0686	0.0018538	0.000223719	0.00184025	-19.9258	2.46318	2.31572	0.839458	0.381898	0.13815	0.406118	19.8873	1497.91	4140.79	4403.39	-70.1127	0.0000000E+000	0.0000000E+000	0.0000000E+000	70.1127	0.0000000E+000	0.0000000E+000	0.0000000E+000	-70.1127	0.0000000E+000	0.0000000E+000	0.0000000E+000	-19.8873	0.0000000E+000	0.0000000E+000	0.0000000E+000	19.8873	2.76438	70.1127	7.32244e-06	1.69013e-05	-1.80353e-08	1.69193e-05	0.241025	3429.88	3.66002	3433.54
10002.2	2.50848	0.918979	2.67151	-20.1203	4.16754	0.240763	0.0625267	17.3148	2.04887	1	9	0.00523017	0.00195775	0	4.47044e-05	-0.000314149	1.19024e-05	-30.2904	0.00607962	0.00524963	0.00306646	-20.1432	2.6775	2.51373	0.922045	0.351476	0.128763	0.37432	20.1203	2048.87	5592.67	5956.16	-69.8797	0.0000000E+000	0.0000000E+000	0.0000000E+000	69.8797	0.0000000E+000	0.0000000E+000	0.0000000E+000	-69.8797	0.0000000E+000	0.0000000E+000	0.0000000E+000	-20.1203	0.0000000E+000	0.0000000E+000	0.0000000E+000	20.1203	2.72964	69.8797	4.0166e-06	1.50541e-05	-1.96427e-08	1.50738e-05	0.241078	3850.57	5.02425	3855.6
6810.42	2.71949	0.983747	2.89195	-19.8871	4.55054	0.240746	0.0519144	23.7554	2.74883	1	9	0.00510856	0.00176648	0	4.89324e-05	-0.000218772	5.68952e-05	-103.413	0.0322083	-0.00747143	0.0313298	-20.5203	2.89576	2.71202	1.01508	0.325166	0.117626	0.345787	19.8871	2748.83	7598.92	8080.82	-70.1129	0.0000000E+000	0.0000000E+000	0.0000000E+000	70.1129	0.0000000E+000	0.0000000E+000	0.0000000E+000	-70.1129	0.0000000E+000	0.0000000E+000	0.0000000E+000	-19.8871	0.0000000E+000	0.0000000E+000	0.0000000E+000	19.8871	2.76442	70.1129	4.22796e-06	1.24982e-05	-1.13574e-08	1.25095e-05	0.240965	4637.37	4.2141	4641.59
4646	2.92928	1.08813	3.12485	-20.3785	4.94261	0.240756	0.0572391	31.4817	3.81738	1	9	0.00502467	0.00160797	0	5.28701e-05	6.7359e-05	1.8977e-05	-41.4027	0.0118018	0.00885232	0.00780512	-20.4558	3.13587	2.93813	1.09594	0.299987	0.111436	0.320015	20.3785	3817.38	10276.4	10962.5	-69.6215	0.0000000E+000	0.0000000E+000	0.0000000E+000	69.6215	0.0000000E+000	0.0000000E+000	0.0000000E+000	-69.6215	0.0000000E+000	0.0000000E+000	0.0000000E+000	-20.3785	0.0000000E+000	0.0000000E+000	0.0000000E+000	20.3785	2.69202	69.6215	3.93774e-06	1.37807e-05	3.85557e-09	1.37768e-05	0.240689	4206.15	1.1768	4204.97
3163.08	3.18149	1.21087	3.40412	-20.8367	5.31767	0.240709	0.0476695	41.554	5.2577	1	9	0.00513227	0.00150766	0	5.85283e-05	-0.000409527	1.16509e-05	22.836	0.00772781	0.0071221	-0.00299913	-20.7471	3.40972	3.18861	1.20787	0.274549	0.104493	0.293761	20.8367	5257.7	13814.3	14781	-69.1633	0.0000000E+000	0.0000000E+000	0.0000000E+000	69.1633	0.0000000E+000	0.0000000E+000	0.0000000E+000	-69.1633	0.0000000E+000	0.0000000E+000	0.0000000E+000	-20.8367	0.0000000E+000	0.0000000E+000	0.0000000E+000	20.8367	2.62744	69.1633	5.65824e-06	1.14745e-05	-1.95219e-08	1.1494e-05	0.241119	5049.55	8.59096	5058.14
2155.69	3.46757	1.39617	3.73809	-21.9314	6.01381	0.240725	-0.0102405	52.8807	7.37684	1	10	0.00516074	0.00138058	0	6.16381e-05	-0.000237848	1.36653e-05	-40.4947	0.00989823	0.00752727	0.00642768	-21.9796	3.74748	3.4751	1.40259	0.248156	0.0999163	0.267516	21.9314	7376.84	18321.4	19750.8	-68.0686	0.0000000E+000	0.0000000E+000	0.0000000E+000	68.0686	0.0000000E+000	0.0000000E+000	0.0000000E+000	-68.0686	0.0000000E+000	0.0000000E+000	0.0000000E+000	-21.9314	0.0000000E+000	0.0000000E+000	0.0000000E+000	21.9314	2.48364	68.0686	3.10979e-06	-2.46515e-06	2.43569e-09	-2.46759e-06	0.240962	23507	23.2261	23530.2
1468.59	3.78614	1.58679	4.10521	-22.7388	6.46509	0.240721	-0.0104267	68.2967	10.204	1	10	0.00511527	0.00124604	0	5.94786e-05	-0.000390451	5.32863e-06	80.8679	0.00427644	0.000678716	-0.00422223	-22.6808	4.1042	3.78681	1.58257	0.22466	0.0941564	0.243593	22.7388	10204	24347	26398.8	-67.2612	0.0000000E+000	0.0000000E+000	0.0000000E+000	67.2612	0.0000000E+000	0.0000000E+000	0.0000000E+000	-67.2612	0.0000000E+000	0.0000000E+000	0.0000000E+000	-22.7388	0.0000000E+000	0.0000000E+000	0.0000000E+000	22.7388	2.38603	67.2612	-2.15957e-06	-2.50992e-06	4.07111e-09	-2.51399e-06	0.241111	23087	37.4473	23124.4
1000.32	4.12649	1.81673	4.50871	-23.7619	6.91584	0.240723	-0.0100842	87.5773	14.2189	1	10	0.00503582	0.00111691	0	5.77531e-05	-0.000161546	6.26142e-06	104.591	0.00560602	-0.00141224	-0.00542522	-23.706	4.50523	4.12508	1.8113	0.202991	0.0893686	0.221793	23.7619	14218.9	32296.7	35288.2	-66.2381	0.0000000E+000	0.0000000E+000	0.0000000E+000	66.2381	0.0000000E+000	0.0000000E+000	0.0000000E+000	-66.2381	0.0000000E+000	0.0000000E+000	0.0000000E+000	-23.7619	0.0000000E+000	0.0000000E+000	0.0000000E+000	23.7619	2.27139	66.2381	-1.72549e-06	-2.4275e-06	1.62906e-09	-2.42913e-06	0.240884	23871.3	16.0197	23887.3
681.09	4.52644	2.1094	4.99382	-24.9863	7.36654	0.240725	-0.00948856	110.779	19.7655	1	10	0.00497762	0.000996756	0	5.60392e-05	-0.000275999	3.59488e-06	-76.9818	0.00360658	0.000812422	0.00351388	-25.0189	4.99604	4.52726	2.11291	0.181506	0.0845849	0.200247	24.9863	19765.5	42413.8	46793.2	-65.0137	0.0000000E+000	0.0000000E+000	0.0000000E+000	65.0137	0.0000000E+000	0.0000000E+000	0.0000000E+000	-65.0137	0.0000000E+000	0.0000000E+000	0.0000000E+000	-24.9863	0.0000000E+000	0.0000000E+000	0.0000000E+000	24.9863	2.14585	65.0137	-1.71389e-06	-2.28413e-06	2.61883e-09	-2.28675e-06	0.241001	25370	29.0875	25399.1
463.961	4.99957	2.47272	5.57763	-26.3164	7.81836	0.240728	-0.00964864	138.728	27.2655	1	10	0.00493321	0.000884463	0	5.51691e-05	-0.000314149	7.53462e-06	29.9561	0.00851886	0.00738081	-0.00425378	-26.2437	5.58237	5.00695	2.46847	0.160706	0.0794831	0.179287	26.3164	27265.5	55127.9	61501.9	-63.6836	0.0000000E+000	0.0000000E+000	0.0000000E+000	63.6836	0.0000000E+000	0.0000000E+000	0.0000000E+000	-63.6836	0.0000000E+000	0.0000000E+000	0.0000000E+000	-26.3164	0.0000000E+000	0.0000000E+000	0.0000000E+000	26.3164	2.02189	63.6836	-8.70053e-07	-2.3227e-06	3.03111e-09	-2.32573e-06	0.241042	24949.4	32.559	24982
316.316	5.59898	2.9247	6.31683	-27.5809	8.26604	0.240715	-0.00986829	172.035	36.8792	1	10	0.00490601	0.000776657	0	5.36055e-05	-0.000256923	1.31014e-05	-62.8882	0.0168689	0.00768763	0.0150153	-27.6691	6.33061	5.60666	2.93971	0.140317	0.0732963	0.158307	27.5809	36879.2	70600.7	79652.5	-62.4191	0.0000000E+000	0.0000000E+000	0.0000000E+000	62.4191	0.0000000E+000	0.0000000E+000	0.0000000E+000	-62.4191	0.0000000E+000	0.0000000E+000	0.0000000E+000	-27.5809	0.0000000E+000	0.0000000E+000	0.0000000E+000	27.5809	1.91438	62.4191	-1.56365e-06	-2.37544e-06	2.53539e-09	-2.37798e-06	0.240972	24392.7	26.0352	24418.8
215.345	6.38138	3.42072	7.2404	-28.1934	8.71653	0.240715	-0.00805159	216.057	48.2257	1	10	0.00488049	0.000674064	0	5.18216e-05	-4.70936e-05	3.56766e-06	109.528	0.00529276	-0.00176918	-0.00498832	-28.1652	7.23648	6.37961	3.41573	0.121728	0.0652518	0.138114	28.1934	48225.7	89965.5	102076	-61.8066	0.0000000E+000	0.0000000E+000	0.0000000E+000	61.8066	0.0000000E+000	0.0000000E+000	0.0000000E+000	-61.8066	0.0000000E+000	0.0000000E+000	0.0000000E+000	-28.1934	0.0000000E+000	0.0000000E+000	0.0000000E+000	28.1934	1.86551	61.8066	-1.78387e-06	-1.93814e-06	3.79178e-10	-1.93852e-06	0.240762	29896.6	5.84898	29902.5
146.737	7.40106	3.88782	8.36008	-27.7132	9.16249	0.240711	-0.00924287	278.98	60.3345	1	10	0.00486419	0.000581836	0	5.0622e-05	-0.000180622	8.26779e-06	6.75385	0.0142098	0.0141112	-0.00167114	-27.6582	8.37179	7.41517	3.88615	0.105895	0.0556271	0.119616	27.7132	60334.5	114856	129739	-62.2868	0.0000000E+000	0.0000000E+000	0.0000000E+000	62.2868	0.0000000E+000	0.0000000E+000	0.0000000E+000	-62.2868	0.0000000E+000	0.0000000E+000	0.0000000E+000	-27.7132	0.0000000E+000	0.0000000E+000	0.0000000E+000	27.7132	1.90365	62.2868	-1.19963e-06	-2.22486e-06	1.66946e-09	-2.22653e-06	0.240892	26042.9	19.5417	26062.4
100.032	8.62124	4.22527	9.60098	-26.1095	9.61377	0.240728	-0.00882592	376.553	72.9298	1	10	0.00486575	0.000506797	0	4.97358e-05	8.64344e-05	9.58677e-06	146.222	0.0189164	-0.0157233	-0.010517	-26.0944	9.58223	8.60552	4.21476	0.0935274	0.0458378	0.104156	26.1095	72929.8	148806	165716	-63.8905	0.0000000E+000	0.0000000E+000	0.0000000E+000	63.8905	0.0000000E+000	0.0000000E+000	0.0000000E+000	-63.8905	0.0000000E+000	0.0000000E+000	0.0000000E+000	-26.1095	0.0000000E+000	0.0000000E+000	0.0000000E+000	26.1095	2.0404	63.8905	-8.86183e-07	-2.12465e-06	-7.62863e-10	-2.12389e-06	0.240642	27275.2	9.79324	27265.4
68.104	10.0012	4.27397	10.8761	-23.1393	10.0765	0.240715	-0.00741127	546.784	84.4367	1	10	0.00486776	0.000447564	0	4.8919e-05	-6.6169e-05	2.45351e-05	-6.36518	0.0548192	0.0544812	0.00607753	-23.0564	10.9286	10.0556	4.28005	0.0845478	0.0361313	0.0919445	23.1393	84436.7	197583	214869	-66.8607	0.0000000E+000	0.0000000E+000	0.0000000E+000	66.8607	0.0000000E+000	0.0000000E+000	0.0000000E+000	-66.8607	0.0000000E+000	0.0000000E+000	0.0000000E+000	-23.1393	0.0000000E+000	0.0000000E+000	0.0000000E+000	23.1393	2.34001	66.8607	-8.16771e-07	-1.784e-06	4.90396e-10	-1.78449e-06	0.240781	32479.5	8.92816	32488.5
46.4415	11.2632	4.09435	11.9843	-19.977	10.5126	0.240715	-0.0103374	837.006	97.6955	1	10	0.00485549	0.000405155	0	4.78398e-05	-0.000142471	9.76793e-06	43.1598	0.0241091	0.0175864	-0.0164915	-19.8743	11.9952	11.2808	4.07786	0.0784219	0.0285076	0.0834427	19.977	97695.5	268752	285958	-70.023	0.0000000E+000	0.0000000E+000	0.0000000E+000	70.023	0.0000000E+000	0.0000000E+000	0.0000000E+000	-70.023	0.0000000E+000	0.0000000E+000	0.0000000E+000	-19.977	0.0000000E+000	0.0000000E+000	0.0000000E+000	19.977	2.75091	70.023	-1.07918e-06	-2.48836e-06	1.47277e-09	-2.48983e-06	0.240858	23285.9	13.7821	23299.7
31.6296	12.4217	3.68476	12.9567	-16.5223	10.9425	0.24072	-0.0100284	1365.58	110.445	1	10	0.00485581	0.000374771	0	4.59525e-05	-0.000142471	6.82492e-06	75.5052	0.0182109	0.00455805	-0.0176313	-16.4419	12.9561	12.4263	3.66713	0.073993	0.0219491	0.0771799	16.5223	110444	372321	388357	-73.4777	0.0000000E+000	0.0000000E+000	0.0000000E+000	73.4777	0.0000000E+000	0.0000000E+000	0.0000000E+000	-73.4777	0.0000000E+000	0.0000000E+000	0.0000000E+000	-16.5223	0.0000000E+000	0.0000000E+000	0.0000000E+000	16.5223	3.37112	73.4777	-1.88729e-06	-2.41403e-06	1.42875e-09	-2.41546e-06	0.240862	24003.9	14.2068	24018.1
21.5517	13.3339	3.1794	13.7077	-13.4115	11.3635	0.240716	-0.0095258	2322.7	124.955	1	10	0.00485465	0.000354155	0	4.47749e-05	-0.000371376	7.45779e-06	27.0696	0.021058	0.0187512	-0.00958291	-13.3544	13.7237	13.3526	3.16982	0.0709623	0.0169206	0.0729517	13.4115	124955	524041	538733	-76.5885	0.0000000E+000	0.0000000E+000	0.0000000E+000	76.5885	0.0000000E+000	0.0000000E+000	0.0000000E+000	-76.5885	0.0000000E+000	0.0000000E+000	0.0000000E+000	-13.4115	0.0000000E+000	0.0000000E+000	0.0000000E+000	13.4115	4.19383	76.5885	-1.17763e-06	-2.29302e-06	3.53765e-09	-2.29656e-06	0.241088	25269.9	38.9863	25308.9
14.6852	14.0804	2.69065	14.3352	-10.8183	12.0732	0.240741	-0.00783447	4027.96	141.903	1	11	0.00486252	0.000339202	0	4.52584e-05	-0.000504904	1.71074e-05	86.3189	0.0504343	0.00323804	-0.0503302	-10.6182	14.329	14.0836	2.64032	0.0685187	0.0130934	0.0697585	10.8183	141903	742593	756030	-79.1817	0.0000000E+000	0.0000000E+000	0.0000000E+000	79.1817	0.0000000E+000	0.0000000E+000	0.0000000E+000	-79.1817	0.0000000E+000	0.0000000E+000	0.0000000E+000	-10.8183	0.0000000E+000	0.0000000E+000	0.0000000E+000	10.8183	5.23309	79.1817	4.83465e-07	-1.88608e-06	3.95565e-09	-1.89004e-06	0.241246	30728.4	64.4464	30792.9
10.0032	14.5922	2.26107	14.7663	-8.80798	12.5238	0.240744	-0.00771967	7036.68	164.987	1	11	0.00485159	0.000328558	0	4.21979e-05	-0.00010432	7.51856e-06	91.9072	0.0228835	-0.000761588	-0.0228708	-8.72071	14.7621	14.5914	2.2382	0.0669231	0.0103698	0.0677217	8.80798	164987	1.06477e+06	1.07748e+06	-81.192	0.0000000E+000	0.0000000E+000	0.0000000E+000	81.192	0.0000000E+000	0.0000000E+000	0.0000000E+000	-81.192	0.0000000E+000	0.0000000E+000	0.0000000E+000	-8.80798	0.0000000E+000	0.0000000E+000	0.0000000E+000	8.80798	6.45366	81.192	-3.0605e-06	-1.85846e-06	8.05315e-10	-1.85927e-06	0.240848	31185.7	13.5135	31199.2
6.81719	15.0181	1.92057	15.1404	-7.28767	12.8635	0.240753	-0.00712217	12155.8	195.601	1	11	0.00485164	0.000320444	0	4.45257e-05	1.01327e-05	9.46389e-06	69.5096	0.0295337	0.0103383	-0.0276651	-7.1789	15.1472	15.0284	1.89291	0.065515	0.00837833	0.0660485	7.28767	195601	1.52952e+06	1.54198e+06	-82.7123	0.0000000E+000	0.0000000E+000	0.0000000E+000	82.7123	0.0000000E+000	0.0000000E+000	0.0000000E+000	-82.7123	0.0000000E+000	0.0000000E+000	0.0000000E+000	-7.28767	0.0000000E+000	0.0000000E+000	0.0000000E+000	7.28767	7.81958	82.7123	2.3278e-06	-1.71469e-06	-7.21668e-11	-1.71461e-06	0.240743	33803.3	1.4227	33801.9
4.63925	15.34	1.62111	15.4254	-6.03254	13.3475	0.240749	-0.00696786	21162.1	233.727	1	11	0.00483935	0.000313725	0	4.19884e-05	-0.0003523	5.45771e-06	118.248	0.0173965	-0.00823352	-0.0153247	-5.97912	15.4157	15.3318	1.60579	0.0644689	0.00681298	0.0648279	6.03254	233727	2.21168e+06	2.224e+06	-83.9675	0.0000000E+000	0.0000000E+000	0.0000000E+000	83.9675	0.0000000E+000	0.0000000E+000	0.0000000E+000	-83.9675	0.0000000E+000	0.0000000E+000	0.0000000E+000	-6.03254	0.0000000E+000	0.0000000E+000	0.0000000E+000	6.03254	9.46266	83.9675	-2.5373e-06	-1.6775e-06	2.45478e-09	-1.67996e-06	0.241101	34551.3	50.5608	34601.9
3.1604	15.6473	1.38515	15.7085	-5.05884	14.0405	0.240753	-0.00636887	36356.4	282.688	1	11	0.00485208	0.000308883	0	3.66963e-05	-0.000428602	8.25198e-06	-94.1956	0.0267156	-0.00195457	0.026644	-5.15627	15.7089	15.6453	1.4118	0.0634119	0.00561344	0.0636598	5.05884	282688	3.19337e+06	3.20586e+06	-84.9412	0.0000000E+000	0.0000000E+000	0.0000000E+000	84.9412	0.0000000E+000	0.0000000E+000	0.0000000E+000	-84.9412	0.0000000E+000	0.0000000E+000	0.0000000E+000	-5.05884	0.0000000E+000	0.0000000E+000	0.0000000E+000	5.05884	11.2964	84.9412	-5.29211e-06	-1.53333e-06	2.72971e-09	-1.53606e-06	0.241182	37801.6	67.2964	37868.9
2.15577	15.8905	1.21265	15.9367	-4.36394	15.0442	0.240754	-0.00616508	60881.1	352.497	1	11	0.00485253	0.000304487	0	3.45765e-05	-0.000543055	5.06467e-06	14.2664	0.0166334	0.0161205	-0.004099	-4.34486	15.9525	15.9067	1.20855	0.0625662	0.0047746	0.0627481	4.36394	352497	4.61911e+06	4.63254e+06	-85.6361	0.0000000E+000	0.0000000E+000	0.0000000E+000	85.6361	0.0000000E+000	0.0000000E+000	0.0000000E+000	-85.6361	0.0000000E+000	0.0000000E+000	0.0000000E+000	-4.36394	0.0000000E+000	0.0000000E+000	0.0000000E+000	4.36394	13.104	85.6361	-2.11981e-06	-1.48427e-06	3.34797e-09	-1.48762e-06	0.241297	39051.2	88.0856	39139.3
1.46631	16.0992	1.1055	16.1371	-3.92822	16.5043	0.240745	-0.00672179	98182.8	460.789	1	11	0.00485647	0.000300951	0	3.75536e-05	6.7359e-05	3.10126e-06	41.3312	0.0103049	0.007738	-0.00680546	-3.90225	16.1444	16.1069	1.09869	0.0618234	0.00424529	0.061969	3.92822	460789	6.71038e+06	6.72618e+06	-86.0718	0.0000000E+000	0.0000000E+000	0.0000000E+000	86.0718	0.0000000E+000	0.0000000E+000	0.0000000E+000	-86.0718	0.0000000E+000	0.0000000E+000	0.0000000E+000	-3.92822	0.0000000E+000	0.0000000E+000	0.0000000E+000	3.92822	14.5628	86.0718	2.97711e-06	-1.61824e-06	-4.52772e-10	-1.61778e-06	0.240678	35815.7	10.021	35805.6
1.00006	16.2711	1.04836	16.3049	-3.68651	19.6779	0.240747	-0.00644359	151804	627.578	1	12	0.00485756	0.000297921	0	4.17765e-05	-0.000142471	1.99819e-06	-24.3462	0.00670712	0.00611066	0.00276501	-3.69482	16.3112	16.2772	1.05112	0.0612044	0.00394344	0.0613314	3.68651	627578	9.74037e+06	9.76056e+06	-86.3135	0.0000000E+000	0.0000000E+000	0.0000000E+000	86.3135	0.0000000E+000	0.0000000E+000	0.0000000E+000	-86.3135	0.0000000E+000	0.0000000E+000	0.0000000E+000	-3.68651	0.0000000E+000	0.0000000E+000	0.0000000E+000	3.68651	15.5206	86.3135	4.22294e-06	-1.55128e-06	9.18022e-10	-1.55219e-06	0.24089	37362.3	22.1105	37384.4
0.681362	16.4385	1.05211	16.4722	-3.66208	22.7901	0.240749	-0.00516554	222014	905.735	1	12	0.00485509	0.000294745	0	4.17854e-05	2.92081e-05	3.16859e-06	91.3698	0.0107503	-0.000256994	-0.0107472	-3.62483	16.4712	16.4383	1.04136	0.0605845	0.00387757	0.0607085	3.66208	905736	1.41515e+07	1.41805e+07	-86.3379	0.0000000E+000	0.0000000E+000	0.0000000E+000	86.3379	0.0000000E+000	0.0000000E+000	0.0000000E+000	-86.3379	0.0000000E+000	0.0000000E+000	0.0000000E+000	-3.66208	0.0000000E+000	0.0000000E+000	0.0000000E+000	3.66208	15.6244	86.3379	8.86048e-09	-1.2436e-06	-1.50876e-10	-1.24345e-06	0.24072	46606.8	5.65442	46601.2
0.464091	16.5859	1.15975	16.6264	-3.99983	27.3456	0.24075	-0.00328162	295700	1438.75	1	12	0.00485545	0.000292032	0	2.98514e-05	-8.52444e-05	2.40026e-06	-22.4483	0.00821918	0.00759637	0.00313848	-4.00879	16.6342	16.5935	1.16289	0.0599987	0.00419534	0.0601452	3.99983	1.43875e+06	2.05759e+07	2.06262e+07	-86.0002	0.0000000E+000	0.0000000E+000	0.0000000E+000	86.0002	0.0000000E+000	0.0000000E+000	0.0000000E+000	-86.0002	0.0000000E+000	0.0000000E+000	0.0000000E+000	-3.99983	0.0000000E+000	0.0000000E+000	0.0000000E+000	3.99983	14.3013	86.0002	-1.1934e-05	-7.90049e-07	2.7974e-10	-7.90329e-07	0.240835	73363.2	25.9763	73389.2
0.316193	16.7267	1.34985	16.7811	-4.6138	34.02	0.240753	-0.00231655	372891	2412.77	1	12	0.00485615	0.000289383	0	1.28109e-06	-8.94272e-06	2.52174e-06	-3.19281	0.0087142	0.00870067	0.000485347	-4.61307	16.7898	16.7354	1.35034	0.0593979	0.00479345	0.059591	4.6138	2.41277e+06	2.98978e+07	2.9995e+07	-85.3862	0.0000000E+000	0.0000000E+000	0.0000000E+000	85.3862	0.0000000E+000	0.0000000E+000	0.0000000E+000	-85.3862	0.0000000E+000	0.0000000E+000	0.0000000E+000	-4.6138	0.0000000E+000	0.0000000E+000	0.0000000E+000	4.6138	12.3915	85.3862	-2.85703e-05	-5.57716e-07	2.07162e-11	-5.57737e-07	0.240762	103928	3.86037	103932
0.215268	16.9135	1.63437	16.9923	-5.51942	43.8136	0.240751	-0.0033068	452366	4184.93	1	12	0.00485787	0.000285887	0	-4.32912e-05	6.7359e-05	2.71547e-06	-25.6151	0.00949842	0.0085649	0.00410639	-5.53042	17.0012	16.9221	1.63848	0.0585774	0.0056604	0.0588502	5.51942	4.18493e+06	4.33083e+07	4.351e+07	-84.4806	0.0000000E+000	0.0000000E+000	0.0000000E+000	84.4806	0.0000000E+000	0.0000000E+000	0.0000000E+000	-84.4806	0.0000000E+000	0.0000000E+000	0.0000000E+000	-5.51942	0.0000000E+000	0.0000000E+000	0.0000000E+000	5.51942	10.3486	84.4806	-4.45723e-05	-7.96115e-07	-2.22742e-10	-7.95892e-07	0.240684	72804.9	20.3698	72784.5
0.146929	17.1783	2.08643	17.3045	-6.92506	58.1519	0.240751	-0.0048703	519171	7547.39	1	12	0.00485615	0.000280629	0	-9.24294e-05	-8.94272e-06	3.14045e-06	51.0363	0.0111908	0.00703706	-0.00870132	-6.89367	17.3105	17.1853	2.07772	0.0573668	0.00696761	0.0577884	6.92506	7.54739e+06	6.21403e+07	6.2597e+07	-83.0749	0.0000000E+000	0.0000000E+000	0.0000000E+000	83.0749	0.0000000E+000	0.0000000E+000	0.0000000E+000	-83.0749	0.0000000E+000	0.0000000E+000	0.0000000E+000	-6.92506	0.0000000E+000	0.0000000E+000	0.0000000E+000	6.92506	8.23335	83.0749	-4.91383e-05	-1.17253e-06	4.35537e-11	-1.17257e-06	0.24076	49432.5	1.83618	49434.4
0.0999041	17.4961	2.80138	17.7189	-9.09669	79.2292	0.240749	-0.00562819	568676	14214.6	1	12	0.00485289	0.000273882	0	-0.000119898	-0.000409527	2.58142e-06	-71.4252	0.00942529	0.00300236	0.00893432	-9.12367	17.7233	17.4991	2.81031	0.055727	0.00892272	0.0564368	9.09669	1.42146e+07	8.87775e+07	8.99083e+07	-80.9033	0.0000000E+000	0.0000000E+000	0.0000000E+000	80.9033	0.0000000E+000	0.0000000E+000	0.0000000E+000	-80.9033	0.0000000E+000	0.0000000E+000	0.0000000E+000	-9.09669	0.0000000E+000	0.0000000E+000	0.0000000E+000	9.09669	6.24552	80.9033	-2.74687e-05	-1.35498e-06	2.30489e-09	-1.35729e-06	0.241159	42775.6	72.7635	42848.4
0.0680626	17.8422	3.73856	18.2297	-11.8342	110.157	0.240746	-0.00539859	625471	26306.1	1	12	0.00485421	0.00026628	0	-0.000102666	-0.000142471	8.23807e-07	-31.2023	0.00309376	0.00264622	0.00160276	-11.8374	18.2326	17.8449	3.74016	0.0536896	0.0112498	0.0548555	11.8342	2.63061e+07	1.25546e+08	1.28272e+08	-78.1658	0.0000000E+000	0.0000000E+000	0.0000000E+000	78.1658	0.0000000E+000	0.0000000E+000	0.0000000E+000	-78.1658	0.0000000E+000	0.0000000E+000	0.0000000E+000	-11.8342	0.0000000E+000	0.0000000E+000	0.0000000E+000	11.8342	4.77249	78.1658	1.72326e-05	-1.29969e-06	7.69141e-10	-1.30046e-06	0.240888	44594.1	26.3904	44620.5
0.0464052	18.2851	4.85151	18.9178	-14.8597	155.508	0.240744	-0.00362177	706930	46493.2	1	12	0.00485586	0.000256683	0	6.31046e-06	-8.94272e-06	1.86846e-06	-21.5743	0.00727925	0.00676928	0.00267664	-14.8622	18.925	18.2919	4.85419	0.0510925	0.0135561	0.0528603	14.8597	4.64932e+07	1.75231e+08	1.81294e+08	-75.1403	0.0000000E+000	0.0000000E+000	0.0000000E+000	75.1403	0.0000000E+000	0.0000000E+000	0.0000000E+000	-75.1403	0.0000000E+000	0.0000000E+000	0.0000000E+000	-14.8597	0.0000000E+000	0.0000000E+000	0.0000000E+000	14.8597	3.76895	75.1403	0.000108976	-8.71918e-07	3.23885e-11	-8.7195e-07	0.240753	66471.3	2.46916	66473.8
0.0315922	19.0621	6.44527	20.1223	-18.6814	222.114	0.240747	-0.00234006	781626	80191.4	1	12	0.00485505	0.000241278	0	0.000157419	-0.000161546	2.5033e-06	34.1734	0.0103752	0.0085838	-0.00582773	-18.6579	20.1285	19.0707	6.43944	0.0470779	0.015918	0.0496962	18.6814	8.01914e+07	2.37169e+08	2.50359e+08	-71.3186	0.0000000E+000	0.0000000E+000	0.0000000E+000	71.3186	0.0000000E+000	0.0000000E+000	0.0000000E+000	-71.3186	0.0000000E+000	0.0000000E+000	0.0000000E+000	-18.6814	0.0000000E+000	0.0000000E+000	0.0000000E+000	18.6814	2.95753	71.3186	0.000151109	-5.63361e-07	3.78027e-10	-5.63739e-07	0.240908	102881	69.0352	102950
0.0215268	20.0676	8.84431	21.9302	-23.7843	319.852	0.240748	-0.0019239	835944	135963	1	12	0.00485438	0.000221356	0	0.000199805	-0.000218772	2.33983e-06	18.0623	0.0105704	0.0100495	-0.00327738	-23.7659	21.938	20.0777	8.84103	0.0417266	0.0183899	0.0455993	23.7843	1.35963e+08	3.08499e+08	3.37131e+08	-66.2157	0.0000000E+000	0.0000000E+000	0.0000000E+000	66.2157	0.0000000E+000	0.0000000E+000	0.0000000E+000	-66.2157	0.0000000E+000	0.0000000E+000	0.0000000E+000	-23.7843	0.0000000E+000	0.0000000E+000	0.0000000E+000	23.7843	2.26899	66.2157	4.23855e-05	-4.63177e-07	4.20897e-10	-4.63598e-07	0.240967	125135	113.713	125249
0.0146812	21.2065	11.9929	24.3628	-29.4893	463.154	0.240751	-0.00198581	903934	219042	1	12	0.00485402	0.000199239	0	-6.58186e-05	-0.000371376	1.74816e-06	29.5862	0.00877418	0.00763015	-0.0043321	-29.4716	24.3673	21.2142	11.9885	0.0357286	0.0202055	0.0410462	29.4893	2.19042e+08	3.87324e+08	4.44972e+08	-60.5107	0.0000000E+000	0.0000000E+000	0.0000000E+000	60.5107	0.0000000E+000	0.0000000E+000	0.0000000E+000	-60.5107	0.0000000E+000	0.0000000E+000	0.0000000E+000	-29.4893	0.0000000E+000	0.0000000E+000	0.0000000E+000	29.4893	1.76826	60.5107	-0.000265623	-4.78086e-07	7.37483e-10	-4.78823e-07	0.241122	121235	187.014	121422

0.0100092	22.9887	15.8377	27.9162	-34.5643	673.337	0.240751	-0.00248609	1.00399e+06	323149	1	12	0.00485606	0.000173951	0	-0.000711384	-0.000142471	2.38182e-06	-7.95434	0.0136925	0.0135607	0.00189482	-34.5517	27.9284	23.0023	15.8396	0.0294986	0.0203227	0.0358215	34.5643	3.23149e+08	4.69055e+08	5.69595e+08	-55.4357	0.0000000E+000	0.0000000E+000	0.0000000E+000	55.4357	0.0000000E+000	0.0000000E+000	0.0000000E+000	-55.4357	0.0000000E+000	0.0000000E+000	0.0000000E+000	-34.5643	0.0000000E+000	0.0000000E+000	0.0000000E+000	34.5643	1.45152	55.4357	-0.000645565	-5.98529e-07	3.54195e-10	-5.98883e-07	0.240894	96839.4	57.3072	96896.7