File: txt/18941_R308_UA704_SOC00_C08.mpt
EC-Lab ASCII FILE
Nb header lines : 65

Potentio Electrochemical Impedance Spectroscopy

Run on channel : 8 (SN 65398)
Grouped channel(s) : 6, 7, 8
User :
CE vs. WE compliance from -10 V to 10 V
Electrode connection : standard
Potential control : Ewe
Ewe ctrl range : min = -10.00 V, max = 10.00 V
Safety Limits :
	Do not start on E overload
Acquisition started on : 11/04/2025 15:06:24.562
Loaded Setting File :  C:\Users\Celltest\OneDrive - store-dot.com\Documents\EC-Lab\Data\@Biologic Test Protocols\anode half cell EIS SOC00.mps
Saved on :
	File : 18939_R308_UA704_SOC00_C08.mpr
	Directory : C:\Users\Celltest\OneDrive - store-dot.com\Documents\EC-Lab\Data\Charmaine\
	Host : 169.254.61.224
Device : VMP-3e (SN .003165)
Address : USB
EC-LAB for windows v11.62 (software)
Internet server v27.00 (firmware)
Command interpretor v12.03 (firmware)
Electrode material :
Initial state :
Electrolyte :
Comments :
Electrode surface area : 0.001 cm²
Characteristic mass : 0.001 g
Equivalent Weight : 0.000 g/eq.
Density : 0.000 g/cm3
Volume (V) : 0.001 cm³
Record Ece
Cycle Definition : Charge/Discharge alternance
Mode                Single sine
E (V)               0.0000
vs.                 Eoc
tE (h:m:s)          0:00:0.0000
record              0
dI                  0.000
unit dI             mA
dt (s)              0.000
fi                  100.000
unit fi             kHz
ff                  10.000
unit ff             mHz
Nd                  6
Points              per decade
spacing             Logarithmic
Va (mV)             5.0
pw                  0.10
Na                  2
corr                0
E range min (V)     -10.000
E range max (V)     10.000
I Range             Auto
Bandwidth           5
nc cycles           0
goto Ns'            0
nr cycles           0
inc. cycle          0

freq/Hz	Re(Z)/Ohm	-Im(Z)/Ohm	|Z|/Ohm	Phase(Z)/deg	time/s	<Ewe>/V	<I>/mA	Cs/µF	Cp/µF	cycle number	I Range	|Ewe|/V	|I|/A	Ns	(Q-Qo)/mA.h	<Ece>/V	|Ece|/V	Phase(Zce)/deg	|Zce|/Ohm	Re(Zce)/Ohm	-Im(Zce)/Ohm	Phase(Zwe-ce)/deg	|Zwe-ce|/Ohm	Re(Zwe-ce)/Ohm	-Im(Zwe-ce)/Ohm	Re(Y)/Ohm-1	Im(Y)/Ohm-1	|Y|/Ohm-1	Phase(Y)/deg	Re(C)/nF	Im(C)/nF	|C|/nF	Phase(C)/deg	Re(M)	Im(M)	|M|	Phase(M)/deg	Re(Permittivity)	Im(Permittivity)	|Permittivity|	Phase(Permittivity)/deg	Re(Resistivity)/Ohm.cm	Im(Resistivity)/Ohm.cm	|Resistivity|/Ohm.cm	Phase(Resistivity)/deg	Re(Conductivity)/mS/cm	Im(Conductivity)/mS/cm	|Conductivity|/mS/cm	Phase(Conductivity)/deg	Tan(Delta)	Loss Angle(Delta)/deg	dq/mA.h	Pwe/W	Pce/W	Pwe-ce/W	<Ewe-Ece>/V	Rwe/Ohm	Rce/Ohm	Rwe-ce/Ohm		Ewe-Ece/V
100004	1.34531	0.519184	1.44202	-21.1026	1.72656	0.240733	-0.027304	3.06537	0.39736	1	9	0.00482362	0.00334505	0	-5.50573e-06	0.000167699	4.85097e-05	92.41	0.0145019	-0.000609799	-0.0144891	-20.5721	1.43629	1.3447	0.504694	0.646966	0.249678	0.693473	21.1026	397.36	1029.64	1103.66	-68.8974	0.0000000E+000	0.0000000E+000	0.0000000E+000	68.8974	0.0000000E+000	0.0000000E+000	0.0000000E+000	-68.8974	0.0000000E+000	0.0000000E+000	0.0000000E+000	-21.1026	0.0000000E+000	0.0000000E+000	0.0000000E+000	21.1026	2.59121	68.8974	-5.50573e-06	-6.57299e-06	-4.57885e-09	-6.56841e-06	0.240565	8816.77	6.1419	8810.62
68132	1.49544	0.589334	1.60737	-21.5088	2.23352	0.240754	-0.00937255	3.96376	0.53284	1	9	0.00504796	0.0031405	0	-7.40751e-06	0.000244051	3.74533e-05	74.382	0.0119259	0.00321072	-0.0114856	-21.0856	1.60619	1.49865	0.577849	0.578808	0.228101	0.622133	21.5088	532.84	1352.08	1453.29	-68.4912	0.0000000E+000	0.0000000E+000	0.0000000E+000	68.4912	0.0000000E+000	0.0000000E+000	0.0000000E+000	-68.4912	0.0000000E+000	0.0000000E+000	0.0000000E+000	-21.5088	0.0000000E+000	0.0000000E+000	0.0000000E+000	21.5088	2.5375	68.4912	-1.90178e-06	-2.25648e-06	-2.28738e-09	-2.25419e-06	0.24051	25687.1	26.0389	25661.1
46420.4	1.66781	0.648401	1.78942	-21.2447	2.74055	0.240744	-0.00814487	5.28772	0.694272	1	9	0.00506725	0.00283178	0	6.19743e-06	3.40823e-05	2.16037e-05	74.8881	0.007629	0.00198892	-0.00736518	-21.0017	1.78862	1.6698	0.641035	0.520862	0.202497	0.55884	21.2447	694.272	1785.81	1916.02	-68.7553	0.0000000E+000	0.0000000E+000	0.0000000E+000	68.7553	0.0000000E+000	0.0000000E+000	0.0000000E+000	-68.7553	0.0000000E+000	0.0000000E+000	0.0000000E+000	-21.2447	0.0000000E+000	0.0000000E+000	0.0000000E+000	21.2447	2.5722	68.7553	1.36049e-05	-1.96083e-06	-2.77596e-10	-1.96055e-06	0.24071	29557.8	4.18451	29553.6
31621.1	1.83984	0.701875	1.96917	-20.8812	3.24751	0.240738	-0.0163294	7.17105	0.911036	1	9	0.00511049	0.00259525	0	1.17498e-05	0.000110435	1.60694e-05	22.7125	0.00619184	0.00571169	-0.00239071	-20.7573	1.97366	1.84555	0.699485	0.474474	0.181006	0.507828	20.8812	911.036	2388.12	2555.99	-69.1188	0.0000000E+000	0.0000000E+000	0.0000000E+000	69.1188	0.0000000E+000	0.0000000E+000	0.0000000E+000	-69.1188	0.0000000E+000	0.0000000E+000	0.0000000E+000	-20.8812	0.0000000E+000	0.0000000E+000	0.0000000E+000	20.8812	2.62132	69.1188	5.55232e-06	-3.9311e-06	-1.80333e-09	-3.9293e-06	0.240627	14742.6	6.76294	14735.9
21544.7	2.01111	0.753817	2.14774	-20.5473	3.63255	0.240725	-0.0178175	9.79972	1.20721	1	9	0.00502088	0.00233775	0	9.97967e-06	-4.09384e-06	6.53949e-06	-58.3236	0.00279735	0.00146895	0.00238062	-20.593	2.14995	2.01258	0.756198	0.435984	0.163419	0.465605	20.5473	1207.21	3220.71	3439.52	-69.4527	0.0000000E+000	0.0000000E+000	0.0000000E+000	69.4527	0.0000000E+000	0.0000000E+000	0.0000000E+000	-69.4527	0.0000000E+000	0.0000000E+000	0.0000000E+000	-20.5473	0.0000000E+000	0.0000000E+000	0.0000000E+000	20.5473	2.6679	69.4527	-1.77009e-06	-4.28912e-06	7.29418e-11	-4.28919e-06	0.24073	13510.6	0.229765	13510.9
14678.6	2.19916	0.802581	2.34103	-20.0495	4.01553	0.240734	-0.0196776	13.5097	1.58785	1	9	0.00479286	0.00204733	0	1.13844e-05	-4.09384e-06	1.4892e-05	-78.4885	0.0072739	0.00145162	0.00712758	-20.201	2.34485	2.20061	0.809709	0.401275	0.146445	0.427162	20.0495	1587.85	4350.88	4631.57	-69.9505	0.0000000E+000	0.0000000E+000	0.0000000E+000	69.9505	0.0000000E+000	0.0000000E+000	0.0000000E+000	-69.9505	0.0000000E+000	0.0000000E+000	0.0000000E+000	-20.0495	0.0000000E+000	0.0000000E+000	0.0000000E+000	20.0495	2.74011	69.9505	1.40476e-06	-4.73706e-06	8.05568e-11	-4.73714e-06	0.240738	12233.9	0.208046	12234.1
10002.2	2.37271	0.854205	2.52179	-19.7995	4.39756	0.240746	-0.0277133	18.6278	2.13732	1	9	0.00505208	0.00200337	0	1.07355e-05	-0.000214062	8.60916e-06	-22.5908	0.00429733	0.00396761	0.0016508	-19.8043	2.52608	2.37667	0.855856	0.373102	0.134322	0.396544	19.7995	2137.32	5936.78	6309.79	-70.2005	0.0000000E+000	0.0000000E+000	0.0000000E+000	70.2005	0.0000000E+000	0.0000000E+000	0.0000000E+000	-70.2005	0.0000000E+000	0.0000000E+000	0.0000000E+000	-19.7995	0.0000000E+000	0.0000000E+000	0.0000000E+000	19.7995	2.77768	70.2005	-6.48954e-07	-6.67186e-06	5.93237e-09	-6.67779e-06	0.24096	8687.02	7.72419	8694.75
6810.42	2.56892	0.921183	2.72909	-19.7272	4.65652	0.240733	-0.0176687	25.3688	2.8904	1	9	0.00484848	0.0017766	0	1.09529e-05	0.000263139	2.40856e-05	6.6953	0.0135572	0.0134647	-0.00158062	-19.6011	2.74123	2.58238	0.919603	0.344918	0.123683	0.366423	19.7272	2890.4	8060.49	8563.06	-70.2728	0.0000000E+000	0.0000000E+000	0.0000000E+000	70.2728	0.0000000E+000	0.0000000E+000	0.0000000E+000	-70.2728	0.0000000E+000	0.0000000E+000	0.0000000E+000	-19.7272	0.0000000E+000	0.0000000E+000	0.0000000E+000	19.7272	2.78871	70.2728	2.17379e-07	-4.25344e-06	-4.64932e-09	-4.24879e-06	0.24047	13624.9	14.893	13610
4646	2.76908	1.02376	2.95227	-20.2898	4.92164	0.240694	-0.0457564	33.4614	4.0237	1	9	0.00474398	0.00160689	0	7.45702e-06	0.000148611	1.76155e-05	48.396	0.0109624	0.00727883	-0.00819717	-20.0919	2.95627	2.77636	1.01556	0.317705	0.117459	0.338722	20.2898	4023.7	10883.4	11603.4	-69.7102	0.0000000E+000	0.0000000E+000	0.0000000E+000	69.7102	0.0000000E+000	0.0000000E+000	0.0000000E+000	-69.7102	0.0000000E+000	0.0000000E+000	0.0000000E+000	-20.2898	0.0000000E+000	0.0000000E+000	0.0000000E+000	20.2898	2.70483	69.7102	-3.49584e-06	-1.10133e-05	-6.79988e-09	-1.10065e-05	0.240546	5260.34	3.24787	5257.1
3163.08	2.99327	1.1646	3.21185	-21.2597	5.29468	0.240503	-0.0392832	43.2048	5.68038	1	9	0.00467311	0.00145496	0	4.40292e-06	0.000186787	1.07731e-05	-145.972	0.0074044	-0.00613648	0.00414352	-21.3684	3.20764	2.98714	1.16875	0.290159	0.112893	0.311347	21.2597	5680.38	14599.8	15665.9	-68.7403	0.0000000E+000	0.0000000E+000	0.0000000E+000	68.7403	0.0000000E+000	0.0000000E+000	0.0000000E+000	-68.7403	0.0000000E+000	0.0000000E+000	0.0000000E+000	-21.2597	0.0000000E+000	0.0000000E+000	0.0000000E+000	21.2597	2.57021	68.7403	-3.05409e-06	-9.44773e-06	-7.33758e-09	-9.44039e-06	0.240316	6122.29	4.75488	6117.54
2155.69	3.24241	1.31058	3.49726	-22.0086	5.74582	0.24081	0.0973978	56.3338	7.91119	1	9	0.00464418	0.00132795	0	1.53488e-05	9.13464e-05	3.72117e-06	-25.5189	0.0028022	0.00252883	0.00120721	-22.0114	3.50006	3.24494	1.31179	0.265101	0.107154	0.285938	22.0086	7911.19	19572.4	21110.8	-67.9914	0.0000000E+000	0.0000000E+000	0.0000000E+000	67.9914	0.0000000E+000	0.0000000E+000	0.0000000E+000	-67.9914	0.0000000E+000	0.0000000E+000	0.0000000E+000	-22.0086	0.0000000E+000	0.0000000E+000	0.0000000E+000	22.0086	2.47402	67.9914	1.09458e-05	2.34543e-05	8.89694e-09	2.34455e-05	0.240718	2472.44	0.93787	2471.5
1468.59	3.56695	1.49895	3.86911	-22.7937	6.44311	0.240665	-0.0131684	72.2992	10.8514	1	10	0.00474947	0.00122753	0	2.02165e-05	-0.000156798	8.44014e-06	-64.5187	0.00687568	0.00295804	0.00620685	-22.8614	3.87424	3.56991	1.50515	0.238273	0.10013	0.258457	22.7937	10851.4	25822.3	28009.7	-67.2063	0.0000000E+000	0.0000000E+000	0.0000000E+000	67.2063	0.0000000E+000	0.0000000E+000	0.0000000E+000	-67.2063	0.0000000E+000	0.0000000E+000	0.0000000E+000	-22.7937	0.0000000E+000	0.0000000E+000	0.0000000E+000	22.7937	2.37964	67.2063	4.86778e-06	-3.16918e-06	2.06478e-09	-3.17125e-06	0.240822	18276	11.9072	18287.9
1000.32	3.88115	1.72672	4.24793	-23.9843	6.89377	0.240673	-0.0149614	92.1422	15.2247	1	10	0.0046965	0.0011056	0	1.81504e-05	0.000186787	9.97167e-06	-38.0066	0.00901925	0.00710663	0.00555362	-24.0137	4.25668	3.88825	1.73228	0.215083	0.0956904	0.235409	23.9843	15224.7	34220.6	37454.5	-66.0157	0.0000000E+000	0.0000000E+000	0.0000000E+000	66.0157	0.0000000E+000	0.0000000E+000	0.0000000E+000	-66.0157	0.0000000E+000	0.0000000E+000	0.0000000E+000	-23.9843	0.0000000E+000	0.0000000E+000	0.0000000E+000	23.9843	2.2477	66.0157	-2.06609e-06	-3.60081e-06	-2.7946e-09	-3.59802e-06	0.240486	16086.2	12.4845	16073.7
681.09	4.26196	2.00966	4.71201	-25.2455	7.34354	0.240679	-0.0136148	116.277	21.1508	1	10	0.00466839	0.000990744	0	1.61116e-05	-0.000118622	5.83231e-06	83.4012	0.0058868	0.000676487	-0.0058478	-25.1777	4.71013	4.26263	2.00381	0.191954	0.090513	0.212224	25.2455	21150.8	44855.2	49591.8	-64.7545	0.0000000E+000	0.0000000E+000	0.0000000E+000	64.7545	0.0000000E+000	0.0000000E+000	0.0000000E+000	-64.7545	0.0000000E+000	0.0000000E+000	0.0000000E+000	-25.2455	0.0000000E+000	0.0000000E+000	0.0000000E+000	25.2455	2.12073	64.7545	-2.03881e-06	-3.2768e-06	1.61502e-09	-3.27841e-06	0.240797	17677.7	8.71273	17686.4
463.961	4.73404	2.37216	5.29512	-26.6148	7.79533	0.240664	-0.0156534	144.609	29.0223	1	10	0.0046596	0.00087998	0	1.4623e-05	0.000129523	1.30308e-05	-15.8338	0.0148081	0.0142463	0.00404035	-26.5849	5.30967	4.74829	2.3762	0.168842	0.0846043	0.188853	26.6148	29022.3	57918.8	64783.3	-63.3852	0.0000000E+000	0.0000000E+000	0.0000000E+000	63.3852	0.0000000E+000	0.0000000E+000	0.0000000E+000	-63.3852	0.0000000E+000	0.0000000E+000	0.0000000E+000	-26.6148	0.0000000E+000	0.0000000E+000	0.0000000E+000	26.6148	1.99567	63.3852	-1.48868e-06	-3.76721e-06	-2.02746e-09	-3.76518e-06	0.240535	15374.6	8.27443	15366.4
316.316	5.30517	2.80892	6.0029	-27.8999	8.24306	0.240661	-0.0149056	179.126	39.2208	1	10	0.00463621	0.000772328	0	1.25497e-05	5.31703e-05	8.35242e-06	61.4344	0.0108146	0.00517116	-0.00949815	-27.7966	6.00304	5.31034	2.79943	0.147223	0.0779502	0.166586	27.8999	39220.8	74075.7	83818.1	-62.1001	0.0000000E+000	0.0000000E+000	0.0000000E+000	62.1001	0.0000000E+000	0.0000000E+000	0.0000000E+000	-62.1001	0.0000000E+000	0.0000000E+000	0.0000000E+000	-27.8999	0.0000000E+000	0.0000000E+000	0.0000000E+000	27.8999	1.88868	62.1001	-2.0733e-06	-3.58721e-06	-7.92538e-10	-3.58641e-06	0.240608	16145.6	3.56713	16142
215.345	6.05859	3.26883	6.88417	-28.3485	8.69355	0.240662	-0.0145746	226.096	50.9771	1	10	0.00462405	0.000671693	0	1.13747e-05	0.000224963	1.34936e-05	-31.5299	0.020089	0.0171232	0.0105054	-28.3577	6.90423	6.07572	3.27934	0.12784	0.0689746	0.145261	28.3485	50977.1	94483.2	107358	-61.6515	0.0000000E+000	0.0000000E+000	0.0000000E+000	61.6515	0.0000000E+000	0.0000000E+000	0.0000000E+000	-61.6515	0.0000000E+000	0.0000000E+000	0.0000000E+000	-28.3485	0.0000000E+000	0.0000000E+000	0.0000000E+000	28.3485	1.85344	61.6515	-1.17497e-06	-3.50754e-06	-3.27874e-09	-3.50426e-06	0.240437	16512.4	15.4353	16497
146.737	7.03439	3.69717	7.9468	-27.7257	9.13951	0.240664	-0.0154822	293.366	63.4985	1	10	0.00461781	0.00058109	0	1.02836e-05	0.000148611	9.4682e-06	21.1487	0.0162939	0.0151964	-0.00587865	-27.6374	7.95753	7.04958	3.69129	0.111389	0.0585443	0.125837	27.7257	63498.5	120815	136486	-62.2743	0.0000000E+000	0.0000000E+000	0.0000000E+000	62.2743	0.0000000E+000	0.0000000E+000	0.0000000E+000	-62.2743	0.0000000E+000	0.0000000E+000	0.0000000E+000	-27.7257	0.0000000E+000	0.0000000E+000	0.0000000E+000	27.7257	1.90264	62.2743	-1.09103e-06	-3.72602e-06	-2.30083e-09	-3.72372e-06	0.240515	15544.5	9.59878	15534.9
100.032	8.2105	3.9751	9.12216	-25.8338	9.59079	0.240663	-0.0143439	400.252	76.0035	1	10	0.0046207	0.000506535	0	7.8883e-06	-0.000443119	8.20565e-06	77.8896	0.0161996	0.00339861	-0.0158391	-25.7349	9.11833	8.2139	3.95926	0.0986676	0.0477697	0.109623	25.8338	76003.5	156984	174415	-64.1662	0.0000000E+000	0.0000000E+000	0.0000000E+000	64.1662	0.0000000E+000	0.0000000E+000	0.0000000E+000	-64.1662	0.0000000E+000	0.0000000E+000	0.0000000E+000	-25.8338	0.0000000E+000	0.0000000E+000	0.0000000E+000	25.8338	2.06549	64.1662	-2.39534e-06	-3.45205e-06	6.35607e-09	-3.45841e-06	0.241106	16778	30.8924	16808.9
68.104	9.46307	4.02021	10.2816	-23.0173	10.0534	0.240673	-0.0117214	581.297	88.8737	1	10	0.0046133	0.000448693	0	6.08057e-06	-0.000156798	5.72899e-06	128.038	0.0127682	-0.00786751	-0.0100563	-22.9829	10.2705	9.4552	4.01016	0.0895176	0.0380299	0.0972609	23.0173	88873.7	209197	227293	-66.9827	0.0000000E+000	0.0000000E+000	0.0000000E+000	66.9827	0.0000000E+000	0.0000000E+000	0.0000000E+000	-66.9827	0.0000000E+000	0.0000000E+000	0.0000000E+000	-23.0173	0.0000000E+000	0.0000000E+000	0.0000000E+000	23.0173	2.35387	66.9827	-1.80773e-06	-2.82101e-06	1.83789e-09	-2.82285e-06	0.240829	20532.8	13.3771	20546.2
46.4415	10.6792	3.82962	11.3451	-19.7281	10.4896	0.240648	-0.020121	894.867	101.966	1	10	0.00461046	0.000406384	0	4.00402e-06	0.000282227	8.51912e-06	-37.4647	0.0209632	0.0166391	0.0127513	-19.7603	11.365	10.6958	3.84237	0.0829703	0.0297536	0.0881439	19.7281	101966	284339	302069	-70.2719	0.0000000E+000	0.0000000E+000	0.0000000E+000	70.2719	0.0000000E+000	0.0000000E+000	0.0000000E+000	-70.2719	0.0000000E+000	0.0000000E+000	0.0000000E+000	-19.7281	0.0000000E+000	0.0000000E+000	0.0000000E+000	19.7281	2.78858	70.2719	-2.07655e-06	-4.8421e-06	-5.6787e-09	-4.83642e-06	0.240366	11960	14.0265	11946
31.6296	11.7018	3.3897	12.1828	-16.1549	10.9196	0.240646	-0.0214677	1484.45	114.919	1	10	0.00460772	0.000378215	0	1.5723e-06	5.31703e-05	9.0308e-06	-85.9227	0.0238774	0.00169772	0.023817	-16.2602	12.1911	11.7035	3.41352	0.0788415	0.0228384	0.0820827	16.1549	114919	396718	413027	-73.8451	0.0000000E+000	0.0000000E+000	0.0000000E+000	73.8451	0.0000000E+000	0.0000000E+000	0.0000000E+000	-73.8451	0.0000000E+000	0.0000000E+000	0.0000000E+000	-16.1549	0.0000000E+000	0.0000000E+000	0.0000000E+000	16.1549	3.45215	73.8451	-2.43172e-06	-5.16612e-06	-1.14144e-09	-5.16497e-06	0.240593	11209.7	2.47676	11207.2
21.5517	12.5794	2.94149	12.9187	-13.1612	11.3404	0.240637	-0.025236	2510.56	130.157	1	10	0.00461772	0.000357444	0	-1.36142e-06	-2.31819e-05	5.64771e-06	-24.7837	0.0158003	0.014345	0.00662338	-13.1753	12.9342	12.5937	2.94811	0.0753739	0.017625	0.0774071	13.1612	130157	556620	571635	-76.8388	0.0000000E+000	0.0000000E+000	0.0000000E+000	76.8388	0.0000000E+000	0.0000000E+000	0.0000000E+000	-76.8388	0.0000000E+000	0.0000000E+000	0.0000000E+000	-13.1612	0.0000000E+000	0.0000000E+000	0.0000000E+000	13.1612	4.27653	76.8388	-2.93373e-06	-6.07272e-06	5.85018e-10	-6.07331e-06	0.240661	9535.48	0.918604	9536.4
14.6852	13.1721	2.50393	13.408	-10.7631	11.8012	0.240671	-0.011978	4328.32	150.951	1	10	0.00460952	0.000343789	0	-4.18578e-06	3.40823e-05	6.53197e-06	57.1127	0.0189999	0.0103167	-0.015955	-10.688	13.4152	13.1824	2.48798	0.0732703	0.0139282	0.0745824	10.7631	150951	794090	808310	-79.2369	0.0000000E+000	0.0000000E+000	0.0000000E+000	79.2369	0.0000000E+000	0.0000000E+000	0.0000000E+000	-79.2369	0.0000000E+000	0.0000000E+000	0.0000000E+000	-10.7631	0.0000000E+000	0.0000000E+000	0.0000000E+000	10.7631	5.26057	79.2369	-2.82436e-06	-2.88277e-06	-4.08239e-10	-2.88236e-06	0.240637	20092.7	2.8454	20089.8
10.0032	13.7355	2.08299	13.8925	-8.62325	12.4968	0.24071	-0.0033501	7638.24	171.715	1	11	0.00460955	0.000331801	0	-4.13299e-06	0.000224963	1.27818e-05	-50.4919	0.0385224	0.0245075	0.0297214	-8.72907	13.9212	13.76	2.11272	0.0711675	0.0107926	0.0719812	8.62325	171715	1.1323e+06	1.14525e+06	-81.3768	0.0000000E+000	0.0000000E+000	0.0000000E+000	81.3768	0.0000000E+000	0.0000000E+000	0.0000000E+000	-81.3768	0.0000000E+000	0.0000000E+000	0.0000000E+000	-8.62325	0.0000000E+000	0.0000000E+000	0.0000000E+000	8.62325	6.5941	81.3768	5.27857e-08	-8.06403e-07	-7.53647e-10	-8.05649e-07	0.240485	71851.8	67.1512	71784.6
6.81719	14.1484	1.7744	14.2593	-7.14831	12.8365	0.240703	-0.0035753	13157.2	203.738	1	11	0.00461376	0.000323562	0	-2.48208e-06	3.40823e-05	6.07137e-06	95.2592	0.0187642	-0.00171996	-0.0186852	-7.07466	14.2552	14.1467	1.75571	0.0695847	0.00872683	0.0701298	7.14831	203738	1.62453e+06	1.63726e+06	-82.8517	0.0000000E+000	0.0000000E+000	0.0000000E+000	82.8517	0.0000000E+000	0.0000000E+000	0.0000000E+000	-82.8517	0.0000000E+000	0.0000000E+000	0.0000000E+000	-7.14831	0.0000000E+000	0.0000000E+000	0.0000000E+000	7.14831	7.97366	82.8517	1.65092e-06	-8.60584e-07	-1.21854e-10	-8.60462e-07	0.240669	67323.8	9.5327	67314.2
4.63925	14.4047	1.52195	14.4849	-6.0313	13.3205	0.240731	-0.00271878	22540.9	248.853	1	11	0.00459065	0.000316927	0	-6.17457e-06	0.000186787	9.58805e-06	64.6158	0.0302532	0.0129691	-0.0273323	-5.91847	14.4949	14.4177	1.49462	0.0686554	0.00725389	0.0690375	6.0313	248853	2.3553e+06	2.36841e+06	-83.9687	0.0000000E+000	0.0000000E+000	0.0000000E+000	83.9687	0.0000000E+000	0.0000000E+000	0.0000000E+000	-83.9687	0.0000000E+000	0.0000000E+000	0.0000000E+000	-6.0313	0.0000000E+000	0.0000000E+000	0.0000000E+000	6.0313	9.46463	83.9687	-3.69249e-06	-6.54495e-07	-5.07833e-10	-6.53988e-07	0.240544	88543.6	68.7023	88474.9
3.1604	14.7404	1.29465	14.7972	-5.01942	14.0134	0.240717	-0.00292649	38897.8	297.766	1	11	0.00461179	0.000311667	0	-8.93539e-06	1.49942e-05	6.16456e-06	60.3453	0.0197793	0.00978625	-0.0171887	-4.94984	14.8054	14.7502	1.27747	0.0673213	0.00591285	0.0675805	5.01942	297766	3.39025e+06	3.4033e+06	-84.9806	0.0000000E+000	0.0000000E+000	0.0000000E+000	84.9806	0.0000000E+000	0.0000000E+000	0.0000000E+000	-84.9806	0.0000000E+000	0.0000000E+000	0.0000000E+000	-5.01942	0.0000000E+000	0.0000000E+000	0.0000000E+000	5.01942	11.3856	84.9806	-2.76083e-06	-7.04457e-07	-4.38805e-11	-7.04413e-07	0.240702	82254.5	5.12362	82249.4
2.15577	14.9567	1.14156	15.0002	-4.3646	15.0171	0.240714	-0.00330655	64672.4	374.561	1	11	0.00461026	0.000307347	0	-6.57185e-06	0.000244051	4.6936e-06	-64.1065	0.0152714	0.00666899	0.0137382	-4.41496	15.0079	14.9634	1.1553	0.0664724	0.00507346	0.0666657	4.3646	374561	4.90749e+06	4.92176e+06	-85.6354	0.0000000E+000	0.0000000E+000	0.0000000E+000	85.6354	0.0000000E+000	0.0000000E+000	0.0000000E+000	-85.6354	0.0000000E+000	0.0000000E+000	0.0000000E+000	-4.3646	0.0000000E+000	0.0000000E+000	0.0000000E+000	4.3646	13.102	85.6354	2.36355e-06	-7.95933e-07	-8.06966e-10	-7.95126e-07	0.24047	72799.3	73.8084	72725.5
1.46631	15.1417	1.03426	15.177	-3.90752	16.4785	0.240723	-0.0028297	104946	487.36	1	11	0.00461313	0.000303955	0	-5.70411e-07	0.000263139	2.71416e-06	-4.46583	0.00892949	0.00890238	0.00069529	-3.90785	15.1859	15.1506	1.03495	0.0657359	0.00449009	0.0658891	3.90752	487359	7.13505e+06	7.15168e+06	-86.0925	0.0000000E+000	0.0000000E+000	0.0000000E+000	86.0925	0.0000000E+000	0.0000000E+000	0.0000000E+000	-86.0925	0.0000000E+000	0.0000000E+000	0.0000000E+000	-3.90752	0.0000000E+000	0.0000000E+000	0.0000000E+000	3.90752	14.6402	86.0925	6.00143e-06	-6.81175e-07	-7.44605e-10	-6.80431e-07	0.24046	85070.1	92.9917	84977.1
1.00006	15.3143	0.986502	15.3461	-3.68572	18.6079	0.240719	-0.0020437	161322	666.645	1	11	0.00461448	0.000300694	0	4.16344e-06	0.000396755	3.81489e-06	57.9123	0.0126869	0.00673952	-0.0107488	-3.64407	15.3521	15.3211	0.975753	0.0650284	0.00418892	0.0651632	3.68572	666646	1.03489e+07	1.03704e+07	-86.3143	0.0000000E+000	0.0000000E+000	0.0000000E+000	86.3143	0.0000000E+000	0.0000000E+000	0.0000000E+000	-86.3143	0.0000000E+000	0.0000000E+000	0.0000000E+000	-3.68572	0.0000000E+000	0.0000000E+000	0.0000000E+000	3.68572	15.5239	86.3143	4.73385e-06	-4.91958e-07	-8.10851e-10	-4.91147e-07	0.240322	117785	194.135	117591
0.681362	15.4509	1.00666	15.4837	-3.72767	21.72	0.240714	-0.000892842	232038	980.79	1	11	0.00461442	0.000298018	0	2.53059e-06	0.000129523	1.97433e-06	12.2425	0.00662487	0.00647421	-0.0014048	-3.72093	15.4901	15.4574	1.00526	0.0644474	0.00419888	0.0645841	3.72767	980789	1.50538e+07	1.50858e+07	-86.2723	0.0000000E+000	0.0000000E+000	0.0000000E+000	86.2723	0.0000000E+000	0.0000000E+000	0.0000000E+000	-86.2723	0.0000000E+000	0.0000000E+000	0.0000000E+000	-3.72767	0.0000000E+000	0.0000000E+000	0.0000000E+000	3.72767	15.3487	86.2723	-1.63285e-06	-2.14919e-07	-1.15643e-10	-2.14804e-07	0.240584	269604	145.068	269459
0.464091	15.5629	1.12914	15.6038	-4.14973	26.2766	0.240712	-0.000296614	303717	1590.4	1	11	0.0046127	0.000295614	0	-1.17266e-05	-0.000118622	3.23874e-06	9.61898	0.010956	0.010802	-0.0018307	-4.14016	15.6144	15.5737	1.12731	0.063919	0.00463754	0.064087	4.14973	1.5904e+06	2.19203e+07	2.1978e+07	-85.8503	0.0000000E+000	0.0000000E+000	0.0000000E+000	85.8503	0.0000000E+000	0.0000000E+000	0.0000000E+000	-85.8503	0.0000000E+000	0.0000000E+000	0.0000000E+000	-4.14973	0.0000000E+000	0.0000000E+000	0.0000000E+000	4.14973	13.783	85.8503	-1.42572e-05	-7.13986e-08	3.5185e-11	-7.14338e-08	0.240831	811533	399.921	811933
0.316193	15.6939	1.32759	15.75	-4.83531	32.9501	0.240712	-0.000916164	379142	2693.85	1	11	0.00461289	0.000292883	0	-3.99585e-05	0.000148611	4.68187e-06	-10.234	0.0159855	0.0157312	0.00284011	-4.84077	15.7659	15.7096	1.33043	0.0632663	0.00535188	0.0634922	4.83531	2.69385e+06	3.18449e+07	3.19586e+07	-85.1647	0.0000000E+000	0.0000000E+000	0.0000000E+000	85.1647	0.0000000E+000	0.0000000E+000	0.0000000E+000	-85.1647	0.0000000E+000	0.0000000E+000	0.0000000E+000	-4.83531	0.0000000E+000	0.0000000E+000	0.0000000E+000	4.83531	11.8213	85.1647	-2.82319e-05	-2.20531e-07	-1.36152e-10	-2.20395e-07	0.240563	262739	162.21	262576
0.215268	15.8657	1.63071	15.9493	-5.86839	42.7436	0.24072	-0.00243218	453382	4739.55	1	11	0.00461227	0.000289184	0	-7.51968e-05	-4.09384e-06	3.85086e-06	-4.32179	0.0133163	0.0132784	0.00100349	-5.8671	15.9626	15.879	1.63171	0.0623702	0.00641056	0.0626988	5.86839	4.73955e+06	4.61125e+07	4.63554e+07	-84.1316	0.0000000E+000	0.0000000E+000	0.0000000E+000	84.1316	0.0000000E+000	0.0000000E+000	0.0000000E+000	-84.1316	0.0000000E+000	0.0000000E+000	0.0000000E+000	-5.86839	0.0000000E+000	0.0000000E+000	0.0000000E+000	5.86839	9.7293	84.1316	-3.52383e-05	-5.85474e-07	9.95695e-12	-5.85484e-07	0.240724	98972.8	1.6832	98974.5
0.146929	16.0716	2.13569	16.2129	-7.56944	63.9431	0.240717	-0.003755	507196	8800.95	1	12	0.00461089	0.000284397	0	-0.000109156	0.000282227	1.39614e-06	-18.2651	0.00490912	0.00466178	0.00153859	-7.57266	16.2177	16.0763	2.13723	0.0611418	0.00812487	0.0616793	7.56944	8.80094e+06	6.62295e+07	6.68117e+07	-82.4306	0.0000000E+000	0.0000000E+000	0.0000000E+000	82.4306	0.0000000E+000	0.0000000E+000	0.0000000E+000	-82.4306	0.0000000E+000	0.0000000E+000	0.0000000E+000	-7.56944	0.0000000E+000	0.0000000E+000	0.0000000E+000	7.56944	7.52527	82.4306	-3.39594e-05	-9.03893e-07	-1.05976e-09	-9.02833e-07	0.240435	64105.8	75.1604	64030.7
0.0999041	16.3652	2.86192	16.6136	-9.91949	85.0204	0.24072	-0.00466793	556646	16518.5	1	12	0.00461232	0.000277624	0	-9.62173e-05	0.000129523	2.52916e-06	-29.8346	0.00911001	0.00790262	0.00453221	-9.93019	16.6221	16.3731	2.86645	0.059292	0.0103689	0.0601918	9.91949	1.65185e+07	9.44567e+07	9.58902e+07	-80.0805	0.0000000E+000	0.0000000E+000	0.0000000E+000	80.0805	0.0000000E+000	0.0000000E+000	0.0000000E+000	-80.0805	0.0000000E+000	0.0000000E+000	0.0000000E+000	-9.91949	0.0000000E+000	0.0000000E+000	0.0000000E+000	9.91949	5.71826	80.0805	1.29389e-05	-1.12366e-06	-6.04603e-10	-1.12306e-06	0.24059	51568.8	27.7473	51541.1
0.0680626	16.698	3.78387	17.1213	-12.768	115.948	0.240716	-0.00470509	617981	30183.7	1	12	0.00461415	0.000269497	0	-3.89344e-05	-0.000252239	2.32545e-06	-23.5336	0.00862885	0.00791115	0.00344538	-12.7734	17.1298	16.7059	3.78732	0.0569624	0.0129081	0.0584067	12.768	3.01837e+07	1.33199e+08	1.36576e+08	-77.232	0.0000000E+000	0.0000000E+000	0.0000000E+000	77.232	0.0000000E+000	0.0000000E+000	0.0000000E+000	-77.232	0.0000000E+000	0.0000000E+000	0.0000000E+000	-12.768	0.0000000E+000	0.0000000E+000	0.0000000E+000	12.768	4.41293	77.232	5.72829e-05	-1.13259e-06	1.18681e-09	-1.13378e-06	0.240968	51160.8	53.6097	51214.4
0.0464052	17.2508	4.91623	17.9376	-15.9068	161.298	0.24071	-0.0027939	697623	52403	1	12	0.00461024	0.000257015	0	7.82002e-05	0.000415843	2.41251e-06	4.02211	0.00938666	0.00936354	-0.000658394	-15.8966	17.9465	17.2601	4.91558	0.053614	0.0152793	0.0557487	15.9068	5.2403e+07	1.83879e+08	1.912e+08	-74.0932	0.0000000E+000	0.0000000E+000	0.0000000E+000	74.0932	0.0000000E+000	0.0000000E+000	0.0000000E+000	-74.0932	0.0000000E+000	0.0000000E+000	0.0000000E+000	-15.9068	0.0000000E+000	0.0000000E+000	0.0000000E+000	15.9068	3.50894	74.0932	0.000117135	-6.72519e-07	-1.16182e-09	-6.71357e-07	0.240294	86155.5	148.84	86006.6
0.0315922	18.0531	6.66317	19.2435	-20.2584	227.904	0.240702	-0.00217601	756065	90646.5	1	12	0.00461168	0.000239648	0	0.000154505	-8.04461e-05	2.13703e-06	36.7556	0.00891734	0.00714453	-0.00533617	-20.2362	19.2484	18.0603	6.65784	0.0487509	0.0179933	0.0519655	20.2584	9.06465e+07	2.45597e+08	2.61791e+08	-69.7416	0.0000000E+000	0.0000000E+000	0.0000000E+000	69.7416	0.0000000E+000	0.0000000E+000	0.0000000E+000	-69.7416	0.0000000E+000	0.0000000E+000	0.0000000E+000	-20.2584	0.0000000E+000	0.0000000E+000	0.0000000E+000	20.2584	2.70939	69.7416	7.63052e-05	-5.2377e-07	1.75051e-10	-5.23945e-07	0.240782	110616	36.9695	110653
0.0215268	18.932	9.10036	21.0056	-25.673	325.641	0.240704	-0.00240424	812423	152485	1	12	0.00461395	0.000219653	0	2.96749e-05	0.000205875	2.4316e-06	3.12434	0.0110702	0.0110537	-0.000603359	-25.6584	21.0154	18.9431	9.09976	0.0429066	0.0206246	0.0476062	25.673	1.52485e+08	3.17223e+08	3.51969e+08	-64.327	0.0000000E+000	0.0000000E+000	0.0000000E+000	64.327	0.0000000E+000	0.0000000E+000	0.0000000E+000	-64.327	0.0000000E+000	0.0000000E+000	0.0000000E+000	-25.673	0.0000000E+000	0.0000000E+000	0.0000000E+000	25.673	2.08036	64.327	-0.000124831	-5.78709e-07	-4.94972e-10	-5.78214e-07	0.240498	100117	85.63	100031
0.0146812	20.1052	12.0663	23.4481	-30.9704	468.944	0.240704	-0.00294806	898434	237912	1	12	0.00461508	0.000196821	0	-0.000420159	0.000110435	3.03992e-06	37.1767	0.0154451	0.0123063	-0.00933309	-30.9353	23.4539	20.1175	12.0569	0.0365673	0.0219461	0.0426473	30.9704	2.37912e+08	3.96417e+08	4.62329e+08	-59.0296	0.0000000E+000	0.0000000E+000	0.0000000E+000	59.0296	0.0000000E+000	0.0000000E+000	0.0000000E+000	-59.0296	0.0000000E+000	0.0000000E+000	0.0000000E+000	-30.9704	0.0000000E+000	0.0000000E+000	0.0000000E+000	30.9704	1.66623	59.0296	-0.000449833	-7.09609e-07	-3.25567e-10	-7.09284e-07	0.240593	81648.3	37.4601	81610.8
0.0100092	22.0785	15.8829	27.1979	-35.7307	679.126	0.240703	-0.00378405	1.00113e+06	341414	1	12	0.00461607	0.000169721	0	-0.00114121	-0.000118622	2.42318e-06	-49.6568	0.0142774	0.00924267	0.010882	-35.7379	27.2118	22.0877	15.8938	0.0298468	0.0214714	0.0367675	35.7307	3.41414e+08	4.74592e+08	5.84637e+08	-54.2693	0.0000000E+000	0.0000000E+000	0.0000000E+000	54.2693	0.0000000E+000	0.0000000E+000	0.0000000E+000	-54.2693	0.0000000E+000	0.0000000E+000	0.0000000E+000	-35.7307	0.0000000E+000	0.0000000E+000	0.0000000E+000	35.7307	1.39008	54.2693	-0.000721055	-9.1083e-07	4.48872e-10	-9.11279e-07	0.240821	63609.8	31.3479	63641.1