File: txt/18946_R308_UA705_SOC00_C03.mpt
EC-Lab ASCII FILE
Nb header lines : 65

Potentio Electrochemical Impedance Spectroscopy

Run on channel : 3 (SN 65921)
Grouped channel(s) : 1, 2, 3, 4, 5
User :
CE vs. WE compliance from -10 V to 10 V
Electrode connection : standard
Potential control : Ewe
Ewe ctrl range : min = -10.00 V, max = 10.00 V
Safety Limits :
	Do not start on E overload
Acquisition started on : 11/04/2025 15:30:07.703
Loaded Setting File :  C:\Users\Celltest\OneDrive - store-dot.com\Documents\EC-Lab\Data\@Biologic Test Protocols\anode half cell EIS SOC00.mps
Saved on :
	File : 18944_R308_UA705_SOC00_C03.mpr
	Directory : C:\Users\Celltest\OneDrive - store-dot.com\Documents\EC-Lab\Data\Charmaine\
	Host : 169.254.61.224
Device : VMP-3e (SN .003165)
Address : USB
EC-LAB for windows v11.62 (software)
Internet server v27.00 (firmware)
Command interpretor v12.03 (firmware)
Electrode material :
Initial state :
Electrolyte :
Comments :
Electrode surface area : 0.001 cm²
Characteristic mass : 0.001 g
Equivalent Weight : 0.000 g/eq.
Density : 0.000 g/cm3
Volume (V) : 0.001 cm³
Record Ece
Cycle Definition : Charge/Discharge alternance
Mode                Single sine
E (V)               0.0000
vs.                 Eoc
tE (h:m:s)          0:00:0.0000
record              0
dI                  0.000
unit dI             mA
dt (s)              0.000
fi                  100.000
unit fi             kHz
ff                  10.000
unit ff             mHz
Nd                  6
Points              per decade
spacing             Logarithmic
Va (mV)             5.0
pw                  0.10
Na                  2
corr                0
E range min (V)     -10.000
E range max (V)     10.000
I Range             Auto
Bandwidth           5
nc cycles           0
goto Ns'            0
nr cycles           0
inc. cycle          0

freq/Hz	Re(Z)/Ohm	-Im(Z)/Ohm	|Z|/Ohm	Phase(Z)/deg	time/s	<Ewe>/V	<I>/mA	Cs/µF	Cp/µF	cycle number	I Range	|Ewe|/V	|I|/A	Ns	(Q-Qo)/mA.h	<Ece>/V	|Ece|/V	Phase(Zce)/deg	|Zce|/Ohm	Re(Zce)/Ohm	-Im(Zce)/Ohm	Phase(Zwe-ce)/deg	|Zwe-ce|/Ohm	Re(Zwe-ce)/Ohm	-Im(Zwe-ce)/Ohm	Re(Y)/Ohm-1	Im(Y)/Ohm-1	|Y|/Ohm-1	Phase(Y)/deg	Re(C)/nF	Im(C)/nF	|C|/nF	Phase(C)/deg	Re(M)	Im(M)	|M|	Phase(M)/deg	Re(Permittivity)	Im(Permittivity)	|Permittivity|	Phase(Permittivity)/deg	Re(Resistivity)/Ohm.cm	Im(Resistivity)/Ohm.cm	|Resistivity|/Ohm.cm	Phase(Resistivity)/deg	Re(Conductivity)/mS/cm	Im(Conductivity)/mS/cm	|Conductivity|/mS/cm	Phase(Conductivity)/deg	Tan(Delta)	Loss Angle(Delta)/deg	dq/mA.h	Pwe/W	Pce/W	Pwe-ce/W	<Ewe-Ece>/V	Rwe/Ohm	Rce/Ohm	Rwe-ce/Ohm		Ewe-Ece/V
100004	2.14599	1.47405	2.60347	-34.4847	1.72654	0.192661	-0.031072	1.07967	0.346106	1	9	0.0046494	0.00178585	0	-9.60472e-06	-0.000223386	3.2751e-05	95.1282	0.0183392	-0.00163925	-0.0182658	-34.1724	2.59182	2.14435	1.45578	0.316607	0.217473	0.384102	34.4847	346.106	503.877	611.295	-55.5153	0.0000000E+000	0.0000000E+000	0.0000000E+000	55.5153	0.0000000E+000	0.0000000E+000	0.0000000E+000	-55.5153	0.0000000E+000	0.0000000E+000	0.0000000E+000	-34.4847	0.0000000E+000	0.0000000E+000	0.0000000E+000	34.4847	1.45584	55.5153	-9.60472e-06	-5.98637e-06	6.94105e-09	-5.99331e-06	0.192885	6200.49	7.18931	6207.68
68132	2.53845	1.82021	3.1236	-35.6427	2.23355	0.192676	-0.0208908	1.28335	0.435792	1	9	0.00508197	0.00162696	0	-8.86147e-06	-7.06337e-05	2.48385e-05	74.0274	0.0152668	0.00420108	-0.0146774	-35.3786	3.1185	2.54265	1.80553	0.26017	0.186557	0.320143	35.6427	435.792	607.751	747.848	-54.3573	0.0000000E+000	0.0000000E+000	0.0000000E+000	54.3573	0.0000000E+000	0.0000000E+000	0.0000000E+000	-54.3573	0.0000000E+000	0.0000000E+000	0.0000000E+000	-35.6427	0.0000000E+000	0.0000000E+000	0.0000000E+000	35.6427	1.39459	54.3573	7.43257e-07	-4.02516e-06	1.4756e-09	-4.02664e-06	0.192747	9222.99	3.38108	9226.37
46420.4	3.04522	2.21213	3.76389	-35.9956	2.74056	0.192662	-0.0264476	1.54989	0.535363	1	9	0.00514481	0.00136689	0	-1.49163e-05	-3.24455e-05	1.3959e-05	46.0446	0.0102123	0.00708832	-0.00735161	-35.8417	3.76532	3.05231	2.20478	0.214954	0.156148	0.265683	35.9956	535.363	736.981	910.909	-54.0044	0.0000000E+000	0.0000000E+000	0.0000000E+000	54.0044	0.0000000E+000	0.0000000E+000	0.0000000E+000	-54.0044	0.0000000E+000	0.0000000E+000	0.0000000E+000	-35.9956	0.0000000E+000	0.0000000E+000	0.0000000E+000	35.9956	1.3766	54.0044	-6.05484e-06	-5.09545e-06	8.58106e-10	-5.09631e-06	0.192695	7284.68	1.22679	7285.91
31621.1	3.64822	2.52607	4.4374	-34.6991	3.12357	0.192668	-0.0337571	1.9925	0.645699	1	9	0.0050156	0.0011303	0	-1.7643e-05	2.48367e-05	1.69048e-05	-64.3462	0.014956	0.00647494	0.0134818	-34.7944	4.45041	3.6547	2.53955	0.185278	0.128288	0.225357	34.6991	645.698	932.537	1134.26	-55.3009	0.0000000E+000	0.0000000E+000	0.0000000E+000	55.3009	0.0000000E+000	0.0000000E+000	0.0000000E+000	-55.3009	0.0000000E+000	0.0000000E+000	0.0000000E+000	-34.6991	0.0000000E+000	0.0000000E+000	0.0000000E+000	34.6991	1.44423	55.3009	-2.72667e-06	-6.5039e-06	-8.38415e-10	-6.50307e-06	0.192643	5707.46	0.735746	5706.73
21544.7	4.32726	2.80244	5.15547	-32.9281	3.78552	0.192748	-0.0353989	2.63599	0.778897	1	10	0.00486165	0.000943008	0	-2.24088e-05	-0.000223386	1.38493e-05	-43.7707	0.0146863	0.0106051	0.0101596	-32.9587	5.16989	4.33786	2.8126	0.162809	0.105439	0.193969	32.9281	778.897	1202.7	1432.89	-57.0719	0.0000000E+000	0.0000000E+000	0.0000000E+000	57.0719	0.0000000E+000	0.0000000E+000	0.0000000E+000	-57.0719	0.0000000E+000	0.0000000E+000	0.0000000E+000	-32.9281	0.0000000E+000	0.0000000E+000	0.0000000E+000	32.9281	1.54411	57.0719	-4.76581e-06	-6.82307e-06	7.90762e-09	-6.83098e-06	0.192972	5445.03	6.31054	5451.34
14678.6	5.07726	3.04503	5.92037	-30.9528	4.16856	0.19273	-0.037681	3.56077	0.941954	1	10	0.00516231	0.000871958	0	-2.71171e-05	-0.000166104	9.9658e-06	-101.73	0.0114292	-0.0023235	0.0111905	-31.0571	5.92414	5.07493	3.05622	0.144854	0.0868749	0.168908	30.9528	941.955	1570.61	1831.42	-59.0472	0.0000000E+000	0.0000000E+000	0.0000000E+000	59.0472	0.0000000E+000	0.0000000E+000	0.0000000E+000	-59.0472	0.0000000E+000	0.0000000E+000	0.0000000E+000	-30.9528	0.0000000E+000	0.0000000E+000	0.0000000E+000	30.9528	1.66739	59.0472	-4.70828e-06	-7.26224e-06	6.25896e-09	-7.2685e-06	0.192896	5114.77	4.40817	5119.18
10002.2	5.8709	3.26095	6.71575	-29.0497	4.42752	0.192744	-0.037241	4.87955	1.15048	1	10	0.00526174	0.000783493	0	-2.89535e-05	-3.24455e-05	1.28363e-05	-88.6742	0.0163834	0.000379078	0.016379	-29.1701	6.72404	5.87128	3.27733	0.130172	0.0723029	0.148904	29.0497	1150.48	2071.28	2369.35	-60.9503	0.0000000E+000	0.0000000E+000	0.0000000E+000	60.9503	0.0000000E+000	0.0000000E+000	0.0000000E+000	-60.9503	0.0000000E+000	0.0000000E+000	0.0000000E+000	-29.0497	0.0000000E+000	0.0000000E+000	0.0000000E+000	29.0497	1.80036	60.9503	-1.83639e-06	-7.17796e-06	1.2083e-09	-7.17916e-06	0.192776	5175.58	0.871232	5176.45
6810.42	6.67585	3.45079	7.51498	-27.3347	4.68653	0.192759	-0.0353579	6.77216	1.42794	1	10	0.00515795	0.000686355	0	-3.18275e-05	5.74261e-06	1.9237e-05	-71.8046	0.0280278	0.00875189	0.0266263	-27.484	7.53501	6.6846	3.47742	0.118209	0.061103	0.133067	27.3347	1427.94	2762.46	3109.7	-62.6653	0.0000000E+000	0.0000000E+000	0.0000000E+000	62.6653	0.0000000E+000	0.0000000E+000	0.0000000E+000	-62.6653	0.0000000E+000	0.0000000E+000	0.0000000E+000	-27.3347	0.0000000E+000	0.0000000E+000	0.0000000E+000	27.3347	1.93458	62.6653	-2.87404e-06	-6.81555e-06	-2.03046e-10	-6.81534e-06	0.192753	5451.65	0.162414	5451.49
4646	7.49557	3.66896	8.34535	-26.081	4.95263	0.192706	-0.0436025	9.33678	1.80466	1	10	0.00504833	0.000604927	0	-3.50437e-05	-0.000204292	9.76665e-06	-11.9356	0.0161452	0.0157961	0.00333902	-26.054	8.36101	7.51137	3.6723	0.107626	0.052681	0.119827	26.081	1804.66	3686.86	4104.84	-63.919	0.0000000E+000	0.0000000E+000	0.0000000E+000	63.919	0.0000000E+000	0.0000000E+000	0.0000000E+000	-63.919	0.0000000E+000	0.0000000E+000	0.0000000E+000	-26.081	0.0000000E+000	0.0000000E+000	0.0000000E+000	26.081	2.04297	63.919	-3.21624e-06	-8.40247e-06	8.90764e-09	-8.41137e-06	0.192911	4419.62	4.68534	4424.31
3163.08	8.35469	3.93938	9.23686	-25.2447	5.32562	0.192606	-0.0220532	12.7727	2.32322	1	10	0.00498244	0.000539409	0	-3.67302e-05	5.74261e-06	3.10874e-06	81.0471	0.00576323	0.000896887	-0.00569301	-25.2104	9.23524	8.35559	3.93369	0.0979223	0.0461721	0.108262	25.2447	2323.22	4927.1	5447.35	-64.7553	0.0000000E+000	0.0000000E+000	0.0000000E+000	64.7553	0.0000000E+000	0.0000000E+000	0.0000000E+000	-64.7553	0.0000000E+000	0.0000000E+000	0.0000000E+000	-25.2447	0.0000000E+000	0.0000000E+000	0.0000000E+000	25.2447	2.12081	64.7553	-1.68647e-06	-4.24759e-06	-1.26643e-10	-4.24746e-06	0.1926	8733.68	0.260397	8733.42
2155.69	9.21934	4.30938	10.1768	-25.0527	5.77683	0.192704	0.000998706	17.1324	3.07205	1	10	0.00493977	0.000485396	0	-3.67742e-05	-0.00024248	1.11667e-05	78.9479	0.0230054	0.00441016	-0.0225787	-24.927	10.1712	9.22375	4.2868	0.0890181	0.0416096	0.0982629	25.0527	3072.05	6572.22	7254.76	-64.9473	0.0000000E+000	0.0000000E+000	0.0000000E+000	64.9473	0.0000000E+000	0.0000000E+000	0.0000000E+000	-64.9473	0.0000000E+000	0.0000000E+000	0.0000000E+000	-25.0527	0.0000000E+000	0.0000000E+000	0.0000000E+000	25.0527	2.13936	64.9473	-4.40229e-08	1.92455e-07	-2.42166e-10	1.92697e-07	0.192947	192954	242.794	193197
1468.59	10.1259	4.76644	11.1917	-25.2071	6.22808	0.192702	-0.000280303	22.7366	4.12406	1	10	0.00489618	0.000437485	0	-3.63863e-05	2.48367e-05	8.62581e-06	-32.0922	0.0197168	0.016704	0.0104752	-25.2192	11.2112	10.1426	4.77691	0.0808436	0.0380544	0.0893523	25.2071	4124.06	8761.23	9683.34	-64.7929	0.0000000E+000	0.0000000E+000	0.0000000E+000	64.7929	0.0000000E+000	0.0000000E+000	0.0000000E+000	-64.7929	0.0000000E+000	0.0000000E+000	0.0000000E+000	-25.2071	0.0000000E+000	0.0000000E+000	0.0000000E+000	25.2071	2.12442	64.7929	3.87949e-07	-5.40151e-08	-6.9618e-12	-5.40082e-08	0.192678	687479	88.6064	687390
1000.32	11.1027	5.42275	12.3562	-26.0317	6.67878	0.192703	0.00077124	29.3401	5.65106	1	10	0.00486865	0.000394024	0	-3.62147e-05	-1.33515e-05	8.92366e-06	23.8531	0.0226475	0.020713	-0.0091585	-25.9515	12.3708	11.1234	5.41359	0.0727207	0.0355181	0.080931	26.0317	5651.06	11570.1	12876.4	-63.9683	0.0000000E+000	0.0000000E+000	0.0000000E+000	63.9683	0.0000000E+000	0.0000000E+000	0.0000000E+000	-63.9683	0.0000000E+000	0.0000000E+000	0.0000000E+000	-26.0317	0.0000000E+000	0.0000000E+000	0.0000000E+000	26.0317	2.04743	63.9683	1.71606e-07	1.4862e-07	-1.02972e-11	1.48631e-07	0.192716	249861	17.3117	249878
681.09	12.31	6.27868	13.8187	-27.0237	7.12853	0.192705	0.000648187	37.2175	7.68329	1	10	0.0048594	0.000351653	0	-3.58926e-05	0.000120307	5.446e-06	-57.1285	0.0154869	0.00840559	0.0130073	-27.0559	13.8321	12.3184	6.29169	0.0644645	0.03288	0.0723655	27.0237	7683.29	15063.9	16910.1	-62.9763	0.0000000E+000	0.0000000E+000	0.0000000E+000	62.9763	0.0000000E+000	0.0000000E+000	0.0000000E+000	-62.9763	0.0000000E+000	0.0000000E+000	0.0000000E+000	-27.0237	0.0000000E+000	0.0000000E+000	0.0000000E+000	27.0237	1.9606	62.9763	3.22104e-07	1.24909e-07	7.79814e-11	1.24831e-07	0.192584	297298	185.605	297112
463.961	13.7305	7.41545	15.605	-28.3722	7.58033	0.192709	0.000980057	46.2596	10.446	1	10	0.00484777	0.000310655	0	-3.5807e-05	-3.24455e-05	4.42981e-06	-11.5605	0.0142596	0.0139703	0.00285765	-28.3571	15.6186	13.7445	7.4183	0.0563845	0.0304516	0.0640821	28.3722	10446	19341.9	21982.4	-61.6278	0.0000000E+000	0.0000000E+000	0.0000000E+000	61.6278	0.0000000E+000	0.0000000E+000	0.0000000E+000	-61.6278	0.0000000E+000	0.0000000E+000	0.0000000E+000	-28.3722	0.0000000E+000	0.0000000E+000	0.0000000E+000	28.3722	1.85161	61.6278	8.55912e-08	1.88865e-07	-3.17985e-11	1.88897e-07	0.192741	196630	33.1058	196663
316.316	15.5993	8.73073	17.8764	-29.2352	8.02806	0.192707	0.00100243	57.63	13.7465	1	10	0.00484472	0.000271012	0	-3.58627e-05	6.30248e-05	8.24527e-06	-75.2873	0.0304239	0.00772682	0.0294264	-29.3053	17.8975	15.607	8.76016	0.0488143	0.0273207	0.0559398	29.2352	13746.5	24561	28146.2	-60.7648	0.0000000E+000	0.0000000E+000	0.0000000E+000	60.7648	0.0000000E+000	0.0000000E+000	0.0000000E+000	-60.7648	0.0000000E+000	0.0000000E+000	0.0000000E+000	-29.2352	0.0000000E+000	0.0000000E+000	0.0000000E+000	29.2352	1.78671	60.7648	-5.5726e-08	1.93176e-07	6.3178e-11	1.93113e-07	0.192644	192240	62.872	192177
215.345	18.0123	10.16	20.6801	-29.4255	8.47751	0.192703	-0.00033624	72.7435	17.5579	1	10	0.00483737	0.000233914	0	-3.61157e-05	5.74261e-06	6.76143e-06	-90.8651	0.0289056	-0.000436446	0.0289023	-29.4958	20.6939	18.0118	10.1889	0.0421175	0.0237567	0.0483557	29.4255	17557.9	31127.9	35738.3	-60.5745	0.0000000E+000	0.0000000E+000	0.0000000E+000	60.5745	0.0000000E+000	0.0000000E+000	0.0000000E+000	-60.5745	0.0000000E+000	0.0000000E+000	0.0000000E+000	-29.4255	0.0000000E+000	0.0000000E+000	0.0000000E+000	29.4255	1.77287	60.5745	-2.53038e-07	-6.47945e-08	-1.93089e-12	-6.47926e-08	0.192697	573112	17.0789	573095
146.737	20.9445	11.1927	23.7476	-28.1199	8.92247	0.192688	-0.00163389	96.905	21.5266	1	10	0.00486632	0.000204919	0	-3.62477e-05	-5.15396e-05	4.45866e-05	32.0669	0.217582	0.184385	-0.115516	-27.6665	23.8565	21.1289	11.0771	0.0371391	0.019847	0.0421096	28.1199	21526.6	40282	45673.1	-61.8801	0.0000000E+000	0.0000000E+000	0.0000000E+000	61.8801	0.0000000E+000	0.0000000E+000	0.0000000E+000	-61.8801	0.0000000E+000	0.0000000E+000	0.0000000E+000	-28.1199	0.0000000E+000	0.0000000E+000	0.0000000E+000	28.1199	1.87127	61.8801	-1.31944e-07	-3.14831e-07	8.42101e-11	-3.14915e-07	0.192739	117932	31.5441	117963
100.032	24.8013	12.1137	27.6016	-26.0323	9.61781	0.192734	-0.0108493	131.342	25.2982	1	11	0.00484766	0.00017563	0	-3.75202e-05	-0.00014701	1.05515e-05	-11.8054	0.0600784	0.0588076	0.0122914	-26.0017	27.6599	24.8602	12.126	0.0325541	0.0159004	0.0362298	26.0323	25298.2	51794.9	57643	-63.9677	0.0000000E+000	0.0000000E+000	0.0000000E+000	63.9677	0.0000000E+000	0.0000000E+000	0.0000000E+000	-63.9677	0.0000000E+000	0.0000000E+000	0.0000000E+000	-26.0323	0.0000000E+000	0.0000000E+000	0.0000000E+000	26.0323	2.04738	63.9677	-1.27247e-06	-2.09103e-06	1.59495e-09	-2.09262e-06	0.192881	17764.7	13.5502	17778.3
68.104	28.7357	11.9349	31.1156	-22.5546	10.0805	0.192731	-0.010319	195.808	28.8076	1	11	0.00483861	0.000155504	0	-3.87461e-05	-0.00014701	7.11855e-06	81.2524	0.0457773	0.00696194	-0.0452448	-22.4728	31.1048	28.7427	11.8896	0.0296801	0.0123271	0.0321382	22.5546	28807.6	69360.5	75105	-67.4454	0.0000000E+000	0.0000000E+000	0.0000000E+000	67.4454	0.0000000E+000	0.0000000E+000	0.0000000E+000	-67.4454	0.0000000E+000	0.0000000E+000	0.0000000E+000	-22.5546	0.0000000E+000	0.0000000E+000	0.0000000E+000	22.5546	2.40772	67.4454	-1.22593e-06	-1.98879e-06	1.517e-09	-1.99031e-06	0.192878	18677.3	14.2465	18691.5
46.4415	32.3665	10.8571	34.1389	-18.5436	10.5167	0.192725	-0.0109802	315.646	31.9247	1	11	0.00483775	0.000141708	0	-4.00402e-05	-0.000127916	4.32082e-06	82.7359	0.0304911	0.00385539	-0.0302464	-18.4934	34.133	32.3703	10.8268	0.0277713	0.00931566	0.0292921	18.5436	31924.7	95172.1	100384	-71.4564	0.0000000E+000	0.0000000E+000	0.0000000E+000	71.4564	0.0000000E+000	0.0000000E+000	0.0000000E+000	-71.4564	0.0000000E+000	0.0000000E+000	0.0000000E+000	-18.5436	0.0000000E+000	0.0000000E+000	0.0000000E+000	18.5436	2.98114	71.4564	-1.2941e-06	-2.11615e-06	1.40454e-09	-2.11755e-06	0.192853	17552.1	11.6497	17563.7
31.6296	35.2935	9.17633	36.467	-14.5742	10.9466	0.192715	-0.0109537	548.35	34.7214	1	11	0.00483992	0.000132721	0	-4.15105e-05	0.000196683	7.13305e-06	-39.7562	0.0537449	0.0413176	0.0343711	-14.6101	36.5156	35.3349	9.2107	0.0265397	0.00690033	0.0274221	14.5742	34721.4	133544	137984	-75.4258	0.0000000E+000	0.0000000E+000	0.0000000E+000	75.4258	0.0000000E+000	0.0000000E+000	0.0000000E+000	-75.4258	0.0000000E+000	0.0000000E+000	0.0000000E+000	-14.5742	0.0000000E+000	0.0000000E+000	0.0000000E+000	14.5742	3.84615	75.4258	-1.47031e-06	-2.11094e-06	-2.15441e-09	-2.10879e-06	0.192519	17593.7	17.9559	17575.7
21.5517	37.3262	7.43283	38.059	-11.2621	11.3675	0.192717	-0.0112524	993.537	37.8946	1	11	0.00483557	0.000127054	0	-4.27682e-05	-3.24455e-05	1.40611e-05	-87.3816	0.11067	0.00505588	0.110554	-11.4237	38.0857	37.3312	7.54338	0.025769	0.00513143	0.026275	11.2621	37894.6	190299	194035	-78.7379	0.0000000E+000	0.0000000E+000	0.0000000E+000	78.7379	0.0000000E+000	0.0000000E+000	0.0000000E+000	-78.7379	0.0000000E+000	0.0000000E+000	0.0000000E+000	-11.2621	0.0000000E+000	0.0000000E+000	0.0000000E+000	11.2621	5.0218	78.7379	-1.25776e-06	-2.16853e-06	3.65089e-10	-2.16889e-06	0.19275	17126.8	2.88344	17129.7
14.6852	38.674	5.79852	39.1063	-8.52704	11.8282	0.19273	-0.0101579	1869.06	41.0929	1	11	0.00483261	0.000123576	0	-4.38832e-05	5.74261e-06	9.35698e-06	-48.0338	0.0757181	0.0506322	0.0562994	-8.5975	39.1647	38.7246	5.85482	0.0252887	0.00379162	0.0255714	8.52704	41092.9	274074	277138	-81.473	0.0000000E+000	0.0000000E+000	0.0000000E+000	81.473	0.0000000E+000	0.0000000E+000	0.0000000E+000	-81.473	0.0000000E+000	0.0000000E+000	0.0000000E+000	-8.52704	0.0000000E+000	0.0000000E+000	0.0000000E+000	8.52704	6.66963	81.473	-1.11496e-06	-1.95773e-06	-5.83329e-11	-1.95768e-06	0.192724	18973.4	0.565333	18972.8
10.0032	39.5953	4.62324	39.8643	-6.65983	12.2788	0.192734	-0.0101635	3441.4	46.287	1	11	0.00482827	0.000121118	0	-4.44028e-05	0.000101213	5.55978e-06	-83.6513	0.045904	0.005076	0.0456224	-6.7241	39.8746	39.6004	4.66886	0.0249158	0.00290923	0.0250851	6.65983	46287.1	396421	399114	-83.3402	0.0000000E+000	0.0000000E+000	0.0000000E+000	83.3402	0.0000000E+000	0.0000000E+000	0.0000000E+000	-83.3402	0.0000000E+000	0.0000000E+000	0.0000000E+000	-6.65983	0.0000000E+000	0.0000000E+000	0.0000000E+000	6.65983	8.5644	83.3402	-5.19589e-07	-1.95885e-06	-1.02868e-09	-1.95783e-06	0.192633	18963.3	9.95847	18953.4
6.81719	40.3411	3.61269	40.5025	-5.11739	12.6185	0.192736	-0.0102907	6462.25	51.414	1	11	0.00483794	0.000119448	0	-4.56834e-05	5.74261e-06	8.44924e-06	-105.451	0.0707358	-0.0188448	0.0681794	-5.21587	40.4899	40.3223	3.68087	0.0245914	0.00220225	0.0246898	5.11739	51414	574114	576411	-84.8826	0.0000000E+000	0.0000000E+000	0.0000000E+000	84.8826	0.0000000E+000	0.0000000E+000	0.0000000E+000	-84.8826	0.0000000E+000	0.0000000E+000	0.0000000E+000	-5.11739	0.0000000E+000	0.0000000E+000	0.0000000E+000	5.11739	11.1665	84.8826	-1.28059e-06	-1.98338e-06	-5.90952e-11	-1.98332e-06	0.19273	18729.2	0.55804	18728.6
4.63925	40.6838	3.04005	40.7973	-4.27342	13.1024	0.192733	-0.00980552	11284.7	62.6601	1	11	0.00482905	0.000118367	0	-4.80633e-05	8.21189e-05	1.15308e-05	-71.9683	0.0974159	0.0301544	0.0926314	-4.39988	40.8343	40.714	3.13268	0.0244433	0.0018265	0.0245115	4.27342	62660.2	838556	840894	-85.7266	0.0000000E+000	0.0000000E+000	0.0000000E+000	85.7266	0.0000000E+000	0.0000000E+000	0.0000000E+000	-85.7266	0.0000000E+000	0.0000000E+000	0.0000000E+000	-4.27342	0.0000000E+000	0.0000000E+000	0.0000000E+000	4.27342	13.3826	85.7266	-2.37996e-06	-1.88985e-06	-8.05218e-10	-1.88904e-06	0.192651	19655.6	8.37476	19647.2
3.1604	41.1805	2.68952	41.2683	-3.73671	13.7955	0.192734	-0.00946748	18724.2	79.5283	1	11	0.00483794	0.000117231	0	-4.90808e-05	0.000101213	5.78536e-06	-79.6578	0.0493499	0.00885968	0.0485481	-3.80315	41.2803	41.1894	2.73807	0.0241802	0.00157922	0.0242317	3.73671	79528.2	1.21769e+06	1.22029e+06	-86.2633	0.0000000E+000	0.0000000E+000	0.0000000E+000	86.2633	0.0000000E+000	0.0000000E+000	0.0000000E+000	-86.2633	0.0000000E+000	0.0000000E+000	0.0000000E+000	-3.73671	0.0000000E+000	0.0000000E+000	0.0000000E+000	3.73671	15.3115	86.2633	-1.01749e-06	-1.82471e-06	-9.58232e-10	-1.82375e-06	0.192633	20357.5	10.6906	20346.8
2.15577	41.5284	2.50773	41.604	-3.45566	14.7992	0.192743	-0.00843194	29440	106.962	1	11	0.00483754	0.000116276	0	-4.93353e-05	0.000196683	5.62691e-06	56.7321	0.0483928	0.0265461	-0.040462	-3.39787	41.6281	41.5549	2.46727	0.0239924	0.0014488	0.0240361	3.45566	106962	1.7713e+06	1.77453e+06	-86.5443	0.0000000E+000	0.0000000E+000	0.0000000E+000	86.5443	0.0000000E+000	0.0000000E+000	0.0000000E+000	-86.5443	0.0000000E+000	0.0000000E+000	0.0000000E+000	-3.45566	0.0000000E+000	0.0000000E+000	0.0000000E+000	3.45566	16.5602	86.5443	-2.54456e-07	-1.6252e-06	-1.65842e-09	-1.62354e-06	0.192547	22858.7	23.326	22835.4
1.46631	41.9388	2.45981	42.0109	-3.35669	16.9864	0.192742	-0.00785794	44125.8	151.277	1	12	0.00483925	0.00011519	0	-5.29725e-05	0.000120307	3.68322e-06	-43.9363	0.031975	0.0230256	0.0221861	-3.38504	42.0352	41.9618	2.482	0.0237625	0.00139373	0.0238034	3.35669	151277	2.57921e+06	2.58364e+06	-86.6433	0.0000000E+000	0.0000000E+000	0.0000000E+000	86.6433	0.0000000E+000	0.0000000E+000	0.0000000E+000	-86.6433	0.0000000E+000	0.0000000E+000	0.0000000E+000	-3.35669	0.0000000E+000	0.0000000E+000	0.0000000E+000	3.35669	17.0496	86.6433	-3.63718e-06	-1.51455e-06	-9.45365e-10	-1.51361e-06	0.192621	24528.3	15.3102	24513
1.00006	42.3787	2.57176	42.4567	-3.47275	19.115	0.192748	-0.00716478	61881.6	227.055	1	12	0.00483558	0.000113894	0	-5.99675e-05	-0.00024248	2.48177e-06	32.885	0.0217901	0.0182985	-0.011831	-3.45532	42.4743	42.397	2.55993	0.0235102	0.00142672	0.0235534	3.47275	227055	3.74152e+06	3.7484e+06	-86.5273	0.0000000E+000	0.0000000E+000	0.0000000E+000	86.5273	0.0000000E+000	0.0000000E+000	0.0000000E+000	-86.5273	0.0000000E+000	0.0000000E+000	0.0000000E+000	-3.47275	0.0000000E+000	0.0000000E+000	0.0000000E+000	3.47275	16.4785	86.5273	-6.99504e-06	-1.381e-06	1.73732e-09	-1.38273e-06	0.192991	26902.2	33.8434	26936
0.681362	42.9215	2.74958	43.0095	-3.66539	22.2261	0.192746	-0.00673223	84952.5	347.199	1	12	0.0048365	0.000112452	0	-7.08865e-05	-7.06337e-05	2.93108e-06	-40.3188	0.0260652	0.0198736	0.0168652	-3.68611	43.0304	42.9414	2.76644	0.0232031	0.0014864	0.0232507	3.66539	347199	5.41986e+06	5.43097e+06	-86.3346	0.0000000E+000	0.0000000E+000	0.0000000E+000	86.3346	0.0000000E+000	0.0000000E+000	0.0000000E+000	-86.3346	0.0000000E+000	0.0000000E+000	0.0000000E+000	-3.66539	0.0000000E+000	0.0000000E+000	0.0000000E+000	3.66539	15.6102	86.3346	-1.0919e-05	-1.29761e-06	4.75522e-10	-1.29808e-06	0.192816	28630.3	10.4919	28640.8
0.464091	43.535	2.99512	43.6379	-3.93564	26.7828	0.192749	-0.00651398	114499	539.392	1	12	0.00483713	0.000110847	0	-8.44957e-05	0.000120307	3.48007e-06	-4.19547	0.0313953	0.0313111	0.00229686	-3.93582	43.6693	43.5663	2.99742	0.0228618	0.00157285	0.0229159	3.93564	539392	7.84022e+06	7.85876e+06	-86.0644	0.0000000E+000	0.0000000E+000	0.0000000E+000	86.0644	0.0000000E+000	0.0000000E+000	0.0000000E+000	-86.0644	0.0000000E+000	0.0000000E+000	0.0000000E+000	-3.93564	0.0000000E+000	0.0000000E+000	0.0000000E+000	3.93564	14.5353	86.0644	-1.36091e-05	-1.25557e-06	-7.83677e-10	-1.25478e-06	0.192629	29590.1	18.469	29571.6
0.316193	44.1921	3.39846	44.3225	-4.39751	33.4577	0.192745	-0.00657842	148110	870.765	1	12	0.0048381	0.000109157	0	-9.76133e-05	4.39307e-05	2.07682e-06	-23.9435	0.0190261	0.0173888	0.00772145	-4.40574	44.3405	44.2094	3.40618	0.0224955	0.00172995	0.0225619	4.39751	870766	1.1323e+07	1.13565e+07	-85.6025	0.0000000E+000	0.0000000E+000	0.0000000E+000	85.6025	0.0000000E+000	0.0000000E+000	0.0000000E+000	-85.6025	0.0000000E+000	0.0000000E+000	0.0000000E+000	-4.39751	0.0000000E+000	0.0000000E+000	0.0000000E+000	4.39751	13.0035	85.6025	-1.31176e-05	-1.26796e-06	-2.88995e-10	-1.26767e-06	0.192701	29299.6	6.678	29292.9
0.215268	44.7895	3.95579	44.9638	-5.04725	43.2501	0.192744	-0.0062989	186899	1446.6	1	12	0.00483811	0.0001076	0	-0.000106709	-8.97277e-05	2.32926e-06	34.0518	0.0216474	0.0179356	-0.0121213	-5.02986	44.9806	44.8074	3.94367	0.0221539	0.00195662	0.0222401	5.04725	1.4466e+06	1.63791e+07	1.64429e+07	-84.9528	0.0000000E+000	0.0000000E+000	0.0000000E+000	84.9528	0.0000000E+000	0.0000000E+000	0.0000000E+000	-84.9528	0.0000000E+000	0.0000000E+000	0.0000000E+000	-5.04725	0.0000000E+000	0.0000000E+000	0.0000000E+000	5.04725	11.3225	84.9528	-9.09581e-06	-1.21407e-06	5.65186e-10	-1.21464e-06	0.192834	30599.6	14.245	30613.9
0.146929	45.3584	4.61898	45.5929	-5.81456	57.5884	0.192744	-0.00563133	234513	2406.93	1	12	0.00483797	0.000106112	0	-0.000110063	-5.15396e-05	4.68727e-06	17.2591	0.0441727	0.0421838	-0.0131058	-5.79282	45.6336	45.4005	4.60587	0.0218204	0.00222203	0.0219332	5.81456	2.40693e+06	2.36361e+07	2.37583e+07	-84.1854	0.0000000E+000	0.0000000E+000	0.0000000E+000	84.1854	0.0000000E+000	0.0000000E+000	0.0000000E+000	-84.1854	0.0000000E+000	0.0000000E+000	0.0000000E+000	-5.81456	0.0000000E+000	0.0000000E+000	0.0000000E+000	5.81456	9.82	84.1854	-3.35346e-06	-1.08541e-06	2.90237e-10	-1.0857e-06	0.192796	34227.1	9.15229	34236.2
0.0999041	46.0704	5.59018	46.4083	-6.91845	78.6654	0.192744	-0.00446639	284978	4134.97	1	12	0.00483777	0.000104244	0	-0.000110679	-0.00014701	1.30408e-06	81.2637	0.0125099	0.00190009	-0.0123648	-6.90302	46.4087	46.0723	5.57782	0.021391	0.00259558	0.0215479	6.91845	4.13497e+06	3.40775e+07	3.43274e+07	-83.0815	0.0000000E+000	0.0000000E+000	0.0000000E+000	83.0815	0.0000000E+000	0.0000000E+000	0.0000000E+000	-83.0815	0.0000000E+000	0.0000000E+000	0.0000000E+000	-6.91845	0.0000000E+000	0.0000000E+000	0.0000000E+000	6.91845	8.2413	83.0815	-6.16193e-07	-8.60869e-07	6.56603e-10	-8.61525e-07	0.192891	43154.3	32.9147	43187.3
0.0680626	46.9841	7.08843	47.5158	-8.57944	109.593	0.192743	-0.00359442	329884	7341.52	1	12	0.00483756	0.00010181	0	-0.000120618	-0.000204292	3.17984e-06	8.7305	0.0312332	0.0308713	-0.00474079	-8.56824	47.5456	47.0149	7.08369	0.0208101	0.0031396	0.0210456	8.57944	7.34152e+06	4.86616e+07	4.92123e+07	-81.4206	0.0000000E+000	0.0000000E+000	0.0000000E+000	81.4206	0.0000000E+000	0.0000000E+000	0.0000000E+000	-81.4206	0.0000000E+000	0.0000000E+000	0.0000000E+000	-8.57944	0.0000000E+000	0.0000000E+000	0.0000000E+000	8.57944	6.62828	81.4206	-9.93892e-06	-6.92801e-07	7.34312e-10	-6.93535e-07	0.192948	53622.9	56.8359	53679.7
0.0464052	48.0237	9.44978	48.9446	-11.1321	154.943	0.192741	-0.0029266	362938	13529	1	12	0.00483522	9.87896e-05	0	-0.000164579	-0.000166104	1.88574e-06	14.9005	0.0190885	0.0184466	-0.00490842	-11.1222	48.9618	48.0421	9.44487	0.0200468	0.00394468	0.0204313	11.1321	1.3529e+07	6.87543e+07	7.00727e+07	-78.8679	0.0000000E+000	0.0000000E+000	0.0000000E+000	78.8679	0.0000000E+000	0.0000000E+000	0.0000000E+000	-78.8679	0.0000000E+000	0.0000000E+000	0.0000000E+000	-11.1321	0.0000000E+000	0.0000000E+000	0.0000000E+000	11.1321	5.08199	78.8679	-4.39617e-05	-5.64076e-07	4.8612e-10	-5.64563e-07	0.192907	65858.3	56.7566	65915.1
0.0315922	49.1557	12.5506	50.7327	-14.3229	221.548	0.192746	-0.0029207	401399	24565.7	1	12	0.004841	9.54218e-05	0	-0.000280347	-0.000185198	2.97065e-06	25.7195	0.0311318	0.0280476	-0.0135101	-14.3003	50.7565	49.1838	12.5371	0.0190985	0.00487628	0.0197112	14.3229	2.45657e+07	9.62142e+07	9.93007e+07	-75.6771	0.0000000E+000	0.0000000E+000	0.0000000E+000	75.6771	0.0000000E+000	0.0000000E+000	0.0000000E+000	-75.6771	0.0000000E+000	0.0000000E+000	0.0000000E+000	-14.3229	0.0000000E+000	0.0000000E+000	0.0000000E+000	14.3229	3.91661	75.6771	-0.000115767	-5.62952e-07	5.40908e-10	-5.63493e-07	0.192931	65993	63.4088	66056.4
0.0215268	50.9973	16.4229	53.5765	-17.8503	319.287	0.192748	-0.0032038	450185	42300.2	1	12	0.00483329	9.02128e-05	0	-0.000488763	4.39307e-05	2.34369e-06	-31.0987	0.0259795	0.0222457	0.0134188	-17.8567	53.6018	51.0196	16.4363	0.0177664	0.00572138	0.0186649	17.8503	4.23002e+07	1.31353e+08	1.37996e+08	-72.1497	0.0000000E+000	0.0000000E+000	0.0000000E+000	72.1497	0.0000000E+000	0.0000000E+000	0.0000000E+000	-72.1497	0.0000000E+000	0.0000000E+000	0.0000000E+000	-17.8503	0.0000000E+000	0.0000000E+000	0.0000000E+000	17.8503	3.10526	72.1497	-0.000208416	-6.17527e-07	-1.40745e-10	-6.17386e-07	0.192704	60162.4	13.7121	60148.7
0.0146812	54.2135	21.8576	58.4539	-21.9582	462.589	0.192742	-0.00361627	495971	69348.2	1	12	0.00483629	8.27367e-05	0	-0.000760606	-3.24455e-05	6.96828e-07	18.4298	0.00842223	0.00799027	-0.00266263	-21.9528	58.4604	54.2215	21.855	0.0158665	0.00639699	0.0171075	21.9582	6.93482e+07	1.72004e+08	1.85458e+08	-68.0418	0.0000000E+000	0.0000000E+000	0.0000000E+000	68.0418	0.0000000E+000	0.0000000E+000	0.0000000E+000	-68.0418	0.0000000E+000	0.0000000E+000	0.0000000E+000	-21.9582	0.0000000E+000	0.0000000E+000	0.0000000E+000	21.9582	2.4803	68.0418	-0.000271843	-6.97007e-07	1.17332e-10	-6.97124e-07	0.192775	53298.7	8.97211	53307.6
0.0100092	58.2716	29.333	65.238	-26.72	672.77	0.192747	-0.00392047	542083	109591	1	12	0.00483639	7.41345e-05	0	-0.00101791	5.74261e-06	2.03072e-06	-24.1712	0.0273924	0.0249908	0.0112162	-26.7189	65.2654	58.2966	29.3442	0.0136916	0.00689215	0.0153285	26.72	1.09591e+08	2.17709e+08	2.43737e+08	-63.2801	0.0000000E+000	0.0000000E+000	0.0000000E+000	63.2801	0.0000000E+000	0.0000000E+000	0.0000000E+000	-63.2801	0.0000000E+000	0.0000000E+000	0.0000000E+000	-26.72	0.0000000E+000	0.0000000E+000	0.0000000E+000	26.72	1.98656	63.2801	-0.000257309	-7.55658e-07	-2.25137e-11	-7.55636e-07	0.192741	49164.3	1.46478	49162.8