File: txt/18948_R308_UA705_SOC00_C05.mpt
EC-Lab ASCII FILE
Nb header lines : 65

Potentio Electrochemical Impedance Spectroscopy

Run on channel : 5 (SN 65912)
Grouped channel(s) : 1, 2, 3, 4, 5
User :
CE vs. WE compliance from -10 V to 10 V
Electrode connection : standard
Potential control : Ewe
Ewe ctrl range : min = -10.00 V, max = 10.00 V
Safety Limits :
	Do not start on E overload
Acquisition started on : 11/04/2025 15:30:07.703
Loaded Setting File :  C:\Users\Celltest\OneDrive - store-dot.com\Documents\EC-Lab\Data\@Biologic Test Protocols\anode half cell EIS SOC00.mps
Saved on :
	File : 18944_R308_UA705_SOC00_C05.mpr
	Directory : C:\Users\Celltest\OneDrive - store-dot.com\Documents\EC-Lab\Data\Charmaine\
	Host : 169.254.61.224
Device : VMP-3e (SN .003165)
Address : USB
EC-LAB for windows v11.62 (software)
Internet server v27.00 (firmware)
Command interpretor v12.03 (firmware)
Electrode material :
Initial state :
Electrolyte :
Comments :
Electrode surface area : 0.001 cm²
Characteristic mass : 0.001 g
Equivalent Weight : 0.000 g/eq.
Density : 0.000 g/cm3
Volume (V) : 0.001 cm³
Record Ece
Cycle Definition : Charge/Discharge alternance
Mode                Single sine
E (V)               0.0000
vs.                 Eoc
tE (h:m:s)          0:00:0.0000
record              0
dI                  0.000
unit dI             mA
dt (s)              0.000
fi                  100.000
unit fi             kHz
ff                  10.000
unit ff             mHz
Nd                  6
Points              per decade
spacing             Logarithmic
Va (mV)             5.0
pw                  0.10
Na                  2
corr                0
E range min (V)     -10.000
E range max (V)     10.000
I Range             Auto
Bandwidth           5
nc cycles           0
goto Ns'            0
nr cycles           0
inc. cycle          0

freq/Hz	Re(Z)/Ohm	-Im(Z)/Ohm	|Z|/Ohm	Phase(Z)/deg	time/s	<Ewe>/V	<I>/mA	Cs/µF	Cp/µF	cycle number	I Range	|Ewe|/V	|I|/A	Ns	(Q-Qo)/mA.h	<Ece>/V	|Ece|/V	Phase(Zce)/deg	|Zce|/Ohm	Re(Zce)/Ohm	-Im(Zce)/Ohm	Phase(Zwe-ce)/deg	|Zwe-ce|/Ohm	Re(Zwe-ce)/Ohm	-Im(Zwe-ce)/Ohm	Re(Y)/Ohm-1	Im(Y)/Ohm-1	|Y|/Ohm-1	Phase(Y)/deg	Re(C)/nF	Im(C)/nF	|C|/nF	Phase(C)/deg	Re(M)	Im(M)	|M|	Phase(M)/deg	Re(Permittivity)	Im(Permittivity)	|Permittivity|	Phase(Permittivity)/deg	Re(Resistivity)/Ohm.cm	Im(Resistivity)/Ohm.cm	|Resistivity|/Ohm.cm	Phase(Resistivity)/deg	Re(Conductivity)/mS/cm	Im(Conductivity)/mS/cm	|Conductivity|/mS/cm	Phase(Conductivity)/deg	Tan(Delta)	Loss Angle(Delta)/deg	dq/mA.h	Pwe/W	Pce/W	Pwe-ce/W	<Ewe-Ece>/V	Rwe/Ohm	Rce/Ohm	Rwe-ce/Ohm		Ewe-Ece/V
100004	2.50524	1.74088	3.05072	-34.7952	2.18456	0.19797	-0.02851	0.914189	0.297693	1	9	0.00450821	0.00147775	0	-4.41963e-06	-3.90715e-05	3.37459e-05	66.8341	0.022836	0.00898354	-0.0209947	-34.3745	3.0462	2.51422	1.71988	0.269182	0.187053	0.327792	34.7952	297.693	428.4	521.677	-55.2048	0.0000000E+000	0.0000000E+000	0.0000000E+000	55.2048	0.0000000E+000	0.0000000E+000	0.0000000E+000	-55.2048	0.0000000E+000	0.0000000E+000	0.0000000E+000	-34.7952	0.0000000E+000	0.0000000E+000	0.0000000E+000	34.7952	1.43907	55.2048	-4.41963e-06	-5.64412e-06	1.11393e-09	-5.64524e-06	0.198009	6943.88	1.37045	6945.25
68132	2.93312	2.1556	3.64003	-36.3129	2.69152	0.197948	-0.0353621	1.08368	0.380039	1	9	0.00506723	0.00139209	0	-1.3633e-05	0.000113658	2.31089e-05	36.4987	0.0166002	0.0133444	-0.00987389	-36.0636	3.64497	2.94646	2.14573	0.221371	0.16269	0.274723	36.3129	380.039	517.117	641.747	-53.6871	0.0000000E+000	0.0000000E+000	0.0000000E+000	53.6871	0.0000000E+000	0.0000000E+000	0.0000000E+000	-53.6871	0.0000000E+000	0.0000000E+000	0.0000000E+000	-36.3129	0.0000000E+000	0.0000000E+000	0.0000000E+000	36.3129	1.36069	53.6871	-9.21342e-06	-6.99985e-06	-4.0192e-09	-6.99583e-06	0.197834	5597.73	3.21412	5594.52
46420.4	3.5019	2.60288	4.36328	-36.6225	3.19857	0.197953	-0.0365166	1.31722	0.468747	1	9	0.00506705	0.00116129	0	-1.42643e-05	-3.90715e-05	2.36702e-05	7.88901	0.0203826	0.0201897	-0.00279761	-36.4355	4.37784	3.52208	2.60008	0.18394	0.136718	0.229185	36.6225	468.747	630.65	785.775	-53.3775	0.0000000E+000	0.0000000E+000	0.0000000E+000	53.3775	0.0000000E+000	0.0000000E+000	0.0000000E+000	-53.3775	0.0000000E+000	0.0000000E+000	0.0000000E+000	-36.6225	0.0000000E+000	0.0000000E+000	0.0000000E+000	36.6225	1.34539	53.3775	-6.31226e-07	-7.22856e-06	1.42676e-09	-7.22998e-06	0.197992	5420.91	1.06997	5421.98
31621.1	4.1285	3.04699	5.13115	-36.4287	3.86252	0.198017	-0.0237612	1.65185	0.582485	1	10	0.00470269	0.000916499	0	-1.78139e-05	3.72934e-05	1.17948e-05	-33.6275	0.0128694	0.0107158	0.00712694	-36.4217	5.144	4.13922	3.05412	0.156806	0.115729	0.194888	36.4287	582.485	789.234	980.908	-53.5713	0.0000000E+000	0.0000000E+000	0.0000000E+000	53.5713	0.0000000E+000	0.0000000E+000	0.0000000E+000	-53.5713	0.0000000E+000	0.0000000E+000	0.0000000E+000	-36.4287	0.0000000E+000	0.0000000E+000	0.0000000E+000	36.4287	1.35494	53.5713	-3.54964e-06	-4.70511e-06	-8.86136e-10	-4.70423e-06	0.197979	8333.61	1.56951	8332.04
21544.7	4.92223	3.52417	6.05377	-35.6015	4.24551	0.198006	-0.0229421	2.09616	0.710371	1	10	0.00524606	0.000866578	0	-1.95307e-05	0.000170932	8.17544e-06	-40.3739	0.00943416	0.00718726	0.0061112	-35.6089	6.06317	4.92942	3.53028	0.134311	0.0961623	0.165186	35.6015	710.37	992.18	1220.27	-54.3985	0.0000000E+000	0.0000000E+000	0.0000000E+000	54.3985	0.0000000E+000	0.0000000E+000	0.0000000E+000	-54.3985	0.0000000E+000	0.0000000E+000	0.0000000E+000	-35.6015	0.0000000E+000	0.0000000E+000	0.0000000E+000	35.6015	1.39671	54.3985	-1.71684e-06	-4.54267e-06	-3.92153e-09	-4.53875e-06	0.197835	8630.7	7.45059	8623.25
14678.6	5.8212	3.97542	7.04914	-34.33	4.62855	0.198015	-0.0212032	2.72742	0.867455	1	10	0.00522912	0.000741811	0	-2.20515e-05	-0.000134528	1.02066e-05	-10.9139	0.0137591	0.0135102	0.00260506	-34.2856	7.06176	5.83471	3.97803	0.11715	0.080004	0.141861	34.33	867.455	1270.21	1538.15	-55.67	0.0000000E+000	0.0000000E+000	0.0000000E+000	55.67	0.0000000E+000	0.0000000E+000	0.0000000E+000	-55.67	0.0000000E+000	0.0000000E+000	0.0000000E+000	-34.33	0.0000000E+000	0.0000000E+000	0.0000000E+000	34.33	1.4643	55.67	-2.52075e-06	-4.19856e-06	2.85242e-09	-4.20141e-06	0.198149	9338.89	6.34467	9345.24
10002.2	6.8135	4.47252	8.15029	-33.2817	5.01055	0.197998	-0.0219032	3.55772	1.07135	1	10	0.00499894	0.000613345	0	-2.48999e-05	-5.81627e-05	9.94936e-06	-59.4485	0.0162215	0.00824558	0.0139695	-33.3319	8.16485	6.82174	4.48649	0.102571	0.0673297	0.122695	33.2817	1071.35	1632.1	1952.32	-56.7183	0.0000000E+000	0.0000000E+000	0.0000000E+000	56.7183	0.0000000E+000	0.0000000E+000	0.0000000E+000	-56.7183	0.0000000E+000	0.0000000E+000	0.0000000E+000	-33.2817	0.0000000E+000	0.0000000E+000	0.0000000E+000	33.2817	1.52341	56.7183	-2.84845e-06	-4.33681e-06	1.27395e-09	-4.33808e-06	0.198057	9039.69	2.65544	9042.34
6810.42	7.86335	4.96117	9.29761	-32.2488	5.26956	0.198004	-0.0220038	4.71044	1.34118	1	10	0.00489503	0.000526483	0	-2.59018e-05	-0.000134528	1.99808e-05	-2.42754	0.0379515	0.0379175	0.00160747	-32.1329	9.33056	7.90127	4.96278	0.0909631	0.0573907	0.107555	32.2488	1341.18	2125.75	2513.48	-57.7512	0.0000000E+000	0.0000000E+000	0.0000000E+000	57.7512	0.0000000E+000	0.0000000E+000	0.0000000E+000	-57.7512	0.0000000E+000	0.0000000E+000	0.0000000E+000	-32.2488	0.0000000E+000	0.0000000E+000	0.0000000E+000	32.2488	1.58498	57.7512	-1.00189e-06	-4.35685e-06	2.96012e-09	-4.35981e-06	0.198139	8998.65	6.11384	9004.77
4646	9.06236	5.5261	10.6143	-31.3743	5.53461	0.197978	-0.0271123	6.199	1.68025	1	10	0.00477395	0.000449765	0	-2.73524e-05	-0.000115436	7.92946e-06	-97.5798	0.0176302	-0.00232556	0.0174762	-31.4613	10.6215	9.06004	5.54358	0.0804369	0.0490493	0.0942121	31.3743	1680.25	2755.47	3227.36	-58.6257	0.0000000E+000	0.0000000E+000	0.0000000E+000	58.6257	0.0000000E+000	0.0000000E+000	0.0000000E+000	-58.6257	0.0000000E+000	0.0000000E+000	0.0000000E+000	-31.3743	0.0000000E+000	0.0000000E+000	0.0000000E+000	31.3743	1.63992	58.6257	-1.45059e-06	-5.36765e-06	3.12975e-09	-5.37078e-06	0.198094	7302.15	4.25771	7306.41
3163.08	10.3816	6.1979	12.0909	-30.8376	5.90962	0.197877	-0.0143671	8.11831	2.13321	1	10	0.00467757	0.000386866	0	-2.91258e-05	0.000132749	4.68884e-06	-30.8372	0.0121201	0.0104066	0.00621275	-30.8376	12.1031	10.392	6.20411	0.0710138	0.042396	0.0827066	30.8376	2133.21	3573.16	4161.5	-59.1624	0.0000000E+000	0.0000000E+000	0.0000000E+000	59.1624	0.0000000E+000	0.0000000E+000	0.0000000E+000	-59.1624	0.0000000E+000	0.0000000E+000	0.0000000E+000	-30.8376	0.0000000E+000	0.0000000E+000	0.0000000E+000	30.8376	1.67501	59.1624	-1.77338e-06	-2.84291e-06	-1.90722e-09	-2.841e-06	0.197744	13772.9	9.23984	13763.7
2155.69	11.7739	6.95749	13.6759	-30.5799	6.36084	0.197951	0.000943595	10.6116	2.74645	1	10	0.00460962	0.000337061	0	-2.91554e-05	-8.89057e-07	6.6784e-06	-126.448	0.0198136	-0.0117711	0.015938	-30.6625	13.6739	11.7621	6.97343	0.0629515	0.0371996	0.0731211	30.5799	2746.45	4647.72	5398.54	-59.4201	0.0000000E+000	0.0000000E+000	0.0000000E+000	59.4201	0.0000000E+000	0.0000000E+000	0.0000000E+000	-59.4201	0.0000000E+000	0.0000000E+000	0.0000000E+000	-30.5799	0.0000000E+000	0.0000000E+000	0.0000000E+000	30.5799	1.69226	59.4201	-2.95827e-08	1.86785e-07	-8.3891e-13	1.86786e-07	0.197952	209784	0.942201	209784
1468.59	13.3229	7.88643	15.4821	-30.6233	6.81211	0.197952	0.000705297	13.7417	3.56567	1	10	0.0045568	0.000294327	0	-2.91828e-05	0.000170932	1.04277e-05	23.1131	0.0354291	0.0325853	-0.0139076	-30.5177	15.5031	13.3555	7.87253	0.0555826	0.0329019	0.0645908	30.6233	3565.67	6023.63	6999.87	-59.3767	0.0000000E+000	0.0000000E+000	0.0000000E+000	59.3767	0.0000000E+000	0.0000000E+000	0.0000000E+000	-59.3767	0.0000000E+000	0.0000000E+000	0.0000000E+000	-30.6233	0.0000000E+000	0.0000000E+000	0.0000000E+000	30.6233	1.68934	59.3767	-2.74036e-08	1.39615e-07	1.20558e-10	1.39494e-07	0.197781	280664	242.355	280422
1000.32	15.1154	9.07066	17.6281	-30.9677	7.26286	0.19795	0.000824446	17.5405	4.64415	1	10	0.00452982	0.000256965	0	-2.89162e-05	0.000132749	7.26537e-06	27.7734	0.0282738	0.0250166	-0.0131749	-30.8893	17.6428	15.1404	9.05748	0.0486414	0.0291894	0.0567275	30.9677	4644.15	7739.04	9025.57	-59.0323	0.0000000E+000	0.0000000E+000	0.0000000E+000	59.0323	0.0000000E+000	0.0000000E+000	0.0000000E+000	-59.0323	0.0000000E+000	0.0000000E+000	0.0000000E+000	-30.9677	0.0000000E+000	0.0000000E+000	0.0000000E+000	30.9677	1.6664	59.0323	2.66567e-07	1.63199e-07	1.09445e-10	1.6309e-07	0.197817	240101	161.016	239940
681.09	17.2187	10.4535	20.1435	-31.2621	7.71356	0.197951	0.000239868	22.3539	6.02019	1	10	0.00452471	0.000224624	0	-2.90595e-05	0.000190023	1.13626e-05	69.2104	0.0505851	0.0179546	-0.0472915	-31.1205	20.1343	17.2366	10.4062	0.0424357	0.0257629	0.0496439	31.2621	6020.19	9916.25	11600.6	-58.7379	0.0000000E+000	0.0000000E+000	0.0000000E+000	58.7379	0.0000000E+000	0.0000000E+000	0.0000000E+000	-58.7379	0.0000000E+000	0.0000000E+000	0.0000000E+000	-31.2621	0.0000000E+000	0.0000000E+000	0.0000000E+000	31.2621	1.64717	58.7379	-1.43309e-07	4.74822e-08	4.55805e-11	4.74366e-08	0.197761	825248	792.198	824456
463.961	19.7809	12.1628	23.221	-31.5864	8.16529	0.197965	0.000496782	28.2037	7.73766	1	10	0.00451611	0.000194484	0	-2.88419e-05	0.000209114	7.01902e-06	-29.475	0.0360905	0.0314194	0.0177581	-31.5831	23.2571	19.8123	12.1806	0.0366845	0.0225564	0.0430644	31.5864	7737.66	12584.1	14772.6	-58.4136	0.0000000E+000	0.0000000E+000	0.0000000E+000	58.4136	0.0000000E+000	0.0000000E+000	0.0000000E+000	-58.4136	0.0000000E+000	0.0000000E+000	0.0000000E+000	-31.5864	0.0000000E+000	0.0000000E+000	0.0000000E+000	31.5864	1.62634	58.4136	2.17627e-07	9.83454e-08	1.03884e-10	9.82415e-08	0.197756	398495	420.938	398074
316.316	23.0305	14.0157	26.9601	-31.3235	8.82608	0.197948	6.85893e-05	35.8991	9.70225	1	10	0.00499697	0.000185347	0	-2.91603e-05	-0.000363622	7.34726e-06	-50.404	0.0396405	0.0252657	0.0305453	-31.351	26.9975	23.0558	14.0463	0.0316856	0.019283	0.0370919	31.3235	9702.25	15942.7	18662.9	-58.6765	0.0000000E+000	0.0000000E+000	0.0000000E+000	58.6765	0.0000000E+000	0.0000000E+000	0.0000000E+000	-58.6765	0.0000000E+000	0.0000000E+000	0.0000000E+000	-31.3235	0.0000000E+000	0.0000000E+000	0.0000000E+000	31.3235	1.64319	58.6765	-3.18415e-07	1.35771e-08	-2.49406e-11	1.3602e-08	0.198311	2.88598e+06	5301.44	2.89128e+06
215.345	26.8101	16.0027	31.2229	-30.8325	9.52152	0.197993	-0.00362922	46.1843	12.132	1	11	0.00502201	0.000160844	0	-2.93692e-05	-5.81627e-05	1.07667e-05	79.8615	0.0669386	0.0117831	-0.0658934	-30.7175	31.1993	26.8219	15.9368	0.0275013	0.0164152	0.0320278	30.8325	12132	20325.4	23670.8	-59.1675	0.0000000E+000	0.0000000E+000	0.0000000E+000	59.1675	0.0000000E+000	0.0000000E+000	0.0000000E+000	-59.1675	0.0000000E+000	0.0000000E+000	0.0000000E+000	-30.8325	0.0000000E+000	0.0000000E+000	0.0000000E+000	30.8325	1.67535	59.1675	-2.08839e-07	-7.18559e-07	2.11085e-10	-7.1877e-07	0.198051	54555.2	16.0262	54571.3
146.737	31.818	17.6701	36.3953	-29.0455	9.96753	0.197993	-0.00363964	61.382	14.4686	1	11	0.00502983	0.0001382	0	-2.9601e-05	0.000132749	3.66474e-05	41.0828	0.265176	0.19988	-0.17426	-28.6539	36.4863	32.0179	17.4958	0.0240205	0.0133398	0.0274761	29.0455	14468.6	26053.3	29801.2	-60.9545	0.0000000E+000	0.0000000E+000	0.0000000E+000	60.9545	0.0000000E+000	0.0000000E+000	0.0000000E+000	-60.9545	0.0000000E+000	0.0000000E+000	0.0000000E+000	-29.0455	0.0000000E+000	0.0000000E+000	0.0000000E+000	29.0455	1.80067	60.9545	-2.31812e-07	-7.20625e-07	-4.8316e-10	-7.20142e-07	0.197861	54399.1	36.4732	54362.7
100.032	37.2576	18.5509	41.6205	-26.4692	10.4189	0.197996	-0.00352608	85.7661	17.0386	1	11	0.00499533	0.000120021	0	-3.01724e-05	0.000247297	4.89911e-06	57.7234	0.0408188	0.0217976	-0.0345115	-26.4133	41.6246	37.2794	18.5164	0.021508	0.0107091	0.0240266	26.4692	17038.6	34220.1	38227.4	-63.5308	0.0000000E+000	0.0000000E+000	0.0000000E+000	63.5308	0.0000000E+000	0.0000000E+000	0.0000000E+000	-63.5308	0.0000000E+000	0.0000000E+000	0.0000000E+000	-26.4692	0.0000000E+000	0.0000000E+000	0.0000000E+000	26.4692	2.00839	63.5308	-5.71379e-07	-6.98151e-07	-8.71989e-10	-6.97279e-07	0.197749	56151.9	70.1335	56081.7
68.104	43.1416	18.2382	46.8383	-22.9163	10.8814	0.197982	-0.00354172	128.135	19.4279	1	11	0.0049916	0.000106571	0	-3.06968e-05	7.54758e-05	8.10251e-06	-57.2517	0.0760293	0.041128	0.0639448	-22.9687	46.9012	43.1828	18.3021	0.019665	0.00831339	0.02135	22.9163	19427.9	45955.9	49893.7	-67.0837	0.0000000E+000	0.0000000E+000	0.0000000E+000	67.0837	0.0000000E+000	0.0000000E+000	0.0000000E+000	-67.0837	0.0000000E+000	0.0000000E+000	0.0000000E+000	-22.9163	0.0000000E+000	0.0000000E+000	0.0000000E+000	22.9163	2.36546	67.0837	-5.24428e-07	-7.01199e-07	-2.67314e-10	-7.00931e-07	0.197907	55900.1	21.3105	55878.7
46.4415	48.6443	16.5169	51.3719	-18.7546	11.3176	0.19798	-0.00397399	207.484	21.4482	1	11	0.0049899	9.71328e-05	0	-3.11166e-05	9.4567e-05	5.45561e-06	-134.977	0.0561665	-0.0396995	0.0397319	-18.8109	51.3471	48.6046	16.5566	0.0184323	0.0062586	0.0194659	18.7546	21448.2	63167.5	66709.5	-71.2454	0.0000000E+000	0.0000000E+000	0.0000000E+000	71.2454	0.0000000E+000	0.0000000E+000	0.0000000E+000	-71.2454	0.0000000E+000	0.0000000E+000	0.0000000E+000	-18.7546	0.0000000E+000	0.0000000E+000	0.0000000E+000	18.7546	2.94512	71.2454	-4.19848e-07	-7.8677e-07	-3.75808e-10	-7.86394e-07	0.197886	49819.1	23.7965	49795.3
31.6296	53.0909	14.006	54.9073	-14.7785	11.7475	0.197984	-0.00405925	359.264	23.3765	1	11	0.00499614	9.09922e-05	0	-3.15411e-05	0.000209114	7.22352e-06	22.3221	0.0793861	0.0734372	-0.0301518	-14.7286	54.9706	53.1643	13.9758	0.01761	0.00464572	0.0182125	14.7785	23376.5	88610.9	91642.5	-75.2215	0.0000000E+000	0.0000000E+000	0.0000000E+000	75.2215	0.0000000E+000	0.0000000E+000	0.0000000E+000	-75.2215	0.0000000E+000	0.0000000E+000	0.0000000E+000	-14.7785	0.0000000E+000	0.0000000E+000	0.0000000E+000	14.7785	3.79059	75.2215	-4.24424e-07	-8.03666e-07	-8.48847e-10	-8.02817e-07	0.197775	48773.6	51.5155	48722.1
21.5517	56.2611	11.3731	57.3991	-11.4283	12.1685	0.197977	-0.00424503	649.319	25.4923	1	11	0.00499622	8.70435e-05	0	-3.20666e-05	0.000247297	1.3998e-05	-31.1376	0.160816	0.137647	0.0831573	-11.4823	57.5505	56.3987	11.4563	0.0170765	0.003452	0.0174219	11.4283	25492.3	126106	128657	-78.5717	0.0000000E+000	0.0000000E+000	0.0000000E+000	78.5717	0.0000000E+000	0.0000000E+000	0.0000000E+000	-78.5717	0.0000000E+000	0.0000000E+000	0.0000000E+000	-11.4283	0.0000000E+000	0.0000000E+000	0.0000000E+000	11.4283	4.94684	78.5717	-5.25536e-07	-8.40419e-07	-1.04978e-09	-8.39369e-07	0.19773	46637.3	58.2555	46579
14.6852	58.3184	8.91881	58.9965	-8.69504	12.6282	0.197976	-0.00361246	1215.16	27.7713	1	11	0.0049998	8.47474e-05	0	-3.28272e-05	0.000285479	1.57292e-05	-68.555	0.185601	0.067857	0.172751	-8.85067	59.0899	58.3863	9.09156	0.0167554	0.00256245	0.0169502	8.69504	27771.3	181591	183703	-81.305	0.0000000E+000	0.0000000E+000	0.0000000E+000	81.305	0.0000000E+000	0.0000000E+000	0.0000000E+000	-81.305	0.0000000E+000	0.0000000E+000	0.0000000E+000	-8.69504	0.0000000E+000	0.0000000E+000	0.0000000E+000	8.69504	6.53881	81.305	-7.6063e-07	-7.15181e-07	-1.03128e-09	-7.1415e-07	0.197691	54803.7	79.0262	54724.6
10.0032	59.6568	7.03223	60.0698	-6.7229	13.0788	0.197983	-0.00377442	2262.5	31.0072	1	11	0.00499074	8.30824e-05	0	-3.33722e-05	0.000228206	7.53673e-06	-49.3564	0.0907139	0.0590866	0.0688316	-6.78144	60.1366	59.7158	7.10107	0.0165328	0.00194886	0.0166473	6.7229	31007.2	263044	264865	-83.2771	0.0000000E+000	0.0000000E+000	0.0000000E+000	83.2771	0.0000000E+000	0.0000000E+000	0.0000000E+000	-83.2771	0.0000000E+000	0.0000000E+000	0.0000000E+000	-6.7229	0.0000000E+000	0.0000000E+000	0.0000000E+000	6.7229	8.48333	83.2771	-5.45018e-07	-7.47271e-07	-8.61344e-10	-7.4641e-07	0.197755	52453.8	60.4611	52393.4
6.81719	60.6305	5.6446	60.8927	-5.31881	13.4185	0.197987	-0.00406707	4136.01	35.54	1	11	0.00498503	8.18658e-05	0	-3.40063e-05	-7.72539e-05	9.00192e-06	56.4543	0.109959	0.0607639	-0.0916452	-5.22773	60.9448	60.6913	5.55295	0.0163516	0.00152231	0.0164223	5.31881	35540	381747	383398	-84.6812	0.0000000E+000	0.0000000E+000	0.0000000E+000	84.6812	0.0000000E+000	0.0000000E+000	0.0000000E+000	-84.6812	0.0000000E+000	0.0000000E+000	0.0000000E+000	-5.31881	0.0000000E+000	0.0000000E+000	0.0000000E+000	5.31881	10.7413	84.6812	-6.34078e-07	-8.05226e-07	3.14197e-10	-8.0554e-07	0.198064	48680.5	18.995	48699.5
4.63925	61.128	4.61755	61.3022	-4.31986	13.9024	0.197988	-0.00347322	7429.52	42.1534	1	11	0.00498587	8.13328e-05	0	-3.35423e-05	7.54758e-05	8.59221e-06	139.617	0.105643	-0.0804711	-0.0684453	-4.26166	61.2168	61.0475	4.54911	0.0162663	0.00122874	0.0163126	4.31986	42153.4	558034	559624	-85.6801	0.0000000E+000	0.0000000E+000	0.0000000E+000	85.6801	0.0000000E+000	0.0000000E+000	0.0000000E+000	-85.6801	0.0000000E+000	0.0000000E+000	0.0000000E+000	-4.31986	0.0000000E+000	0.0000000E+000	0.0000000E+000	4.31986	13.2382	85.6801	4.64052e-07	-6.87655e-07	-2.62144e-10	-6.87392e-07	0.197912	57004.2	21.7308	56982.5
3.1604	62.0382	4.23376	62.1825	-3.90406	14.5955	0.197994	-0.00303388	11894.7	55.1402	1	11	0.00499357	8.03051e-05	0	-3.38975e-05	5.63846e-05	4.40582e-06	-102.676	0.0548635	-0.0120393	0.0535263	-3.95403	62.1742	62.0262	4.28728	0.0160444	0.00109494	0.0160817	3.90406	55140.2	807981	809861	-86.0959	0.0000000E+000	0.0000000E+000	0.0000000E+000	86.0959	0.0000000E+000	0.0000000E+000	0.0000000E+000	-86.0959	0.0000000E+000	0.0000000E+000	0.0000000E+000	-3.90406	0.0000000E+000	0.0000000E+000	0.0000000E+000	3.90406	14.6532	86.0959	-3.55263e-07	-6.00688e-07	-1.71064e-10	-6.00517e-07	0.197937	65260.9	18.585	65242.3
2.15577	62.5859	4.09407	62.7196	-3.74269	16.108	0.197994	-0.00179521	18032.8	76.8364	1	12	0.0049952	7.96433e-05	0	-3.60958e-05	0.000209114	5.91112e-06	-57.4413	0.07422	0.0399425	0.0625556	-3.79729	62.7636	62.6258	4.15663	0.01591	0.00104076	0.015944	3.74269	76836.4	1.17459e+06	1.1771e+06	-86.2573	0.0000000E+000	0.0000000E+000	0.0000000E+000	86.2573	0.0000000E+000	0.0000000E+000	0.0000000E+000	-86.2573	0.0000000E+000	0.0000000E+000	0.0000000E+000	-3.74269	0.0000000E+000	0.0000000E+000	0.0000000E+000	3.74269	15.2869	86.2573	-2.19829e-06	-3.55442e-07	-3.75404e-10	-3.55066e-07	0.197785	110290	116.484	110174
1.46631	63.2921	4.14269	63.4275	-3.74487	17.5693	0.197996	-0.00193429	26200.6	111.769	1	12	0.00499081	7.86853e-05	0	-3.78618e-05	0.000342753	4.07052e-06	-51.2075	0.0517317	0.03241	0.0403207	-3.77928	63.4625	63.3245	4.18301	0.0157324	0.00102974	0.015766	3.74487	111769	1.70761e+06	1.71126e+06	-86.2551	0.0000000E+000	0.0000000E+000	0.0000000E+000	86.2551	0.0000000E+000	0.0000000E+000	0.0000000E+000	-86.2551	0.0000000E+000	0.0000000E+000	0.0000000E+000	-3.74487	0.0000000E+000	0.0000000E+000	0.0000000E+000	3.74487	15.278	86.2551	-1.76594e-06	-3.82983e-07	-6.62985e-10	-3.8232e-07	0.197654	102361	177.198	102184
1.00006	64.1463	4.50177	64.304	-4.01442	19.6968	0.198	-0.00197376	35351.6	173.26	1	12	0.00499025	7.76039e-05	0	-3.82316e-05	0.000170932	2.54331e-06	-56.3124	0.0327729	0.018178	0.0272695	-4.03752	64.3241	64.1644	4.52904	0.015513	0.0010887	0.0155511	4.01442	173261	2.46881e+06	2.47488e+06	-85.9856	0.0000000E+000	0.0000000E+000	0.0000000E+000	85.9856	0.0000000E+000	0.0000000E+000	0.0000000E+000	-85.9856	0.0000000E+000	0.0000000E+000	0.0000000E+000	-4.01442	0.0000000E+000	0.0000000E+000	0.0000000E+000	4.01442	14.2491	85.9856	-3.69868e-07	-3.90803e-07	-3.37378e-10	-3.90465e-07	0.197829	100316	86.6023	100230
0.681362	65.134	4.92555	65.32	-4.32457	22.8089	0.19799	-0.00211522	47422.8	269.652	1	12	0.00499514	7.64717e-05	0	-3.70438e-05	1.82022e-05	3.22613e-06	-54.9799	0.0421872	0.0242097	0.0345493	-4.35318	65.3468	65.1582	4.9601	0.0152657	0.00115442	0.0153092	4.32457	269652	3.5658e+06	3.57599e+06	-85.6754	0.0000000E+000	0.0000000E+000	0.0000000E+000	85.6754	0.0000000E+000	0.0000000E+000	0.0000000E+000	-85.6754	0.0000000E+000	0.0000000E+000	0.0000000E+000	-4.32457	0.0000000E+000	0.0000000E+000	0.0000000E+000	4.32457	13.2237	85.6754	1.1878e-06	-4.18793e-07	-3.85015e-11	-4.18754e-07	0.197972	93602.9	8.60534	93594.3
0.464091	66.296	5.29136	66.5068	-4.56334	27.3654	0.197992	-0.00200964	64811.2	410.253	1	12	0.00499403	7.50904e-05	0	-3.49406e-05	5.63846e-05	2.24389e-06	-6.12488	0.0298826	0.029712	0.00318834	-4.56404	66.5367	66.3257	5.29455	0.0149884	0.00119629	0.0150361	4.56334	410253	5.14011e+06	5.15646e+06	-85.4367	0.0000000E+000	0.0000000E+000	0.0000000E+000	85.4367	0.0000000E+000	0.0000000E+000	0.0000000E+000	-85.4367	0.0000000E+000	0.0000000E+000	0.0000000E+000	-4.56334	0.0000000E+000	0.0000000E+000	0.0000000E+000	4.56334	12.5291	85.4367	2.10321e-06	-3.97893e-07	-1.13313e-10	-3.9778e-07	0.197936	98521.1	28.057	98493
0.316193	67.6119	5.80864	67.8609	-4.91031	34.0399	0.197984	-0.00179077	86655	634.896	1	12	0.00499198	7.3562e-05	0	-3.47523e-05	-3.90715e-05	1.79019e-06	-67.4713	0.0243358	0.00932417	0.0224787	-4.92854	67.8721	67.6212	5.83111	0.0146819	0.00126135	0.014736	4.91031	634896	7.39011e+06	7.41734e+06	-85.0897	0.0000000E+000	0.0000000E+000	0.0000000E+000	85.0897	0.0000000E+000	0.0000000E+000	0.0000000E+000	-85.0897	0.0000000E+000	0.0000000E+000	0.0000000E+000	-4.91031	0.0000000E+000	0.0000000E+000	0.0000000E+000	4.91031	11.6399	85.0897	1.88365e-07	-3.54544e-07	6.99681e-11	-3.54614e-07	0.198023	110558	21.8183	110580
0.215268	68.9273	6.42541	69.2261	-5.32573	43.8333	0.197992	-0.00138355	115064	991.294	1	12	0.00499514	7.21569e-05	0	-4.00767e-05	0.000323662	3.05158e-06	-51.2591	0.042291	0.0264657	0.0329863	-5.35087	69.2555	68.9537	6.4584	0.0143831	0.00134079	0.0144454	5.32573	991294	1.06339e+07	1.068e+07	-84.6743	0.0000000E+000	0.0000000E+000	0.0000000E+000	84.6743	0.0000000E+000	0.0000000E+000	0.0000000E+000	-84.6743	0.0000000E+000	0.0000000E+000	0.0000000E+000	-5.32573	0.0000000E+000	0.0000000E+000	0.0000000E+000	5.32573	10.7273	84.6743	-5.32449e-06	-2.73932e-07	-4.47801e-10	-2.73484e-07	0.197669	143105	233.936	142871
0.146929	70.1023	7.12803	70.4637	-5.80591	58.1717	0.197985	-0.00132727	151965	1555.08	1	12	0.00499065	7.08258e-05	0	-5.55469e-05	0.00030457	2.21967e-06	67.6702	0.0313399	0.0119072	-0.0289898	-5.78148	70.4727	70.1142	7.09904	0.0141189	0.00143562	0.0141917	5.80591	1.55508e+06	1.52937e+07	1.53726e+07	-84.1941	0.0000000E+000	0.0000000E+000	0.0000000E+000	84.1941	0.0000000E+000	0.0000000E+000	0.0000000E+000	-84.1941	0.0000000E+000	0.0000000E+000	0.0000000E+000	-5.80591	0.0000000E+000	0.0000000E+000	0.0000000E+000	5.80591	9.83473	84.1941	-1.54701e-05	-2.62779e-07	-4.04247e-10	-2.62375e-07	0.19768	149167	229.471	148937
0.0999041	71.3054	8.23823	71.7798	-6.59041	79.2478	0.197988	-0.00151292	193376	2547.22	1	12	0.00499341	6.95657e-05	0	-8.35426e-05	0.000113658	2.43693e-06	-15.528	0.0350307	0.033752	0.00937801	-6.59475	71.8144	71.3392	8.24761	0.0138394	0.00159893	0.0139315	6.59041	2.54722e+06	2.20473e+07	2.2194e+07	-83.4096	0.0000000E+000	0.0000000E+000	0.0000000E+000	83.4096	0.0000000E+000	0.0000000E+000	0.0000000E+000	-83.4096	0.0000000E+000	0.0000000E+000	0.0000000E+000	-6.59041	0.0000000E+000	0.0000000E+000	0.0000000E+000	6.59041	8.65543	83.4096	-2.79957e-05	-2.9954e-07	-1.71956e-10	-2.99368e-07	0.197875	130865	75.1251	130790
0.0680626	72.6444	9.89962	73.3159	-7.76018	110.174	0.197996	-0.00184363	236207	4306.6	1	12	0.00499066	6.80707e-05	0	-0.000122567	-3.90715e-05	1.29234e-06	22.1362	0.0189852	0.0175858	-0.00715381	-7.75279	73.3323	72.662	9.89247	0.0135147	0.00184172	0.0136396	7.76018	4.30659e+06	3.16022e+07	3.18943e+07	-82.2398	0.0000000E+000	0.0000000E+000	0.0000000E+000	82.2398	0.0000000E+000	0.0000000E+000	0.0000000E+000	-82.2398	0.0000000E+000	0.0000000E+000	0.0000000E+000	-7.76018	0.0000000E+000	0.0000000E+000	0.0000000E+000	7.76018	7.3381	82.2398	-3.90247e-05	-3.65031e-07	7.20333e-11	-3.65103e-07	0.198035	107395	21.1927	107416
0.0464052	74.3741	12.515	75.4198	-9.55175	155.525	0.197999	-0.00238268	274045	7545.97	1	12	0.00499141	6.61818e-05	0	-0.000166224	-0.000191801	2.80318e-06	18.9794	0.0423559	0.0400532	-0.0137753	-9.53639	75.457	74.4142	12.5013	0.0130753	0.0022002	0.0132591	9.55175	7.54597e+06	4.48441e+07	4.54746e+07	-80.4483	0.0000000E+000	0.0000000E+000	0.0000000E+000	80.4483	0.0000000E+000	0.0000000E+000	0.0000000E+000	-80.4483	0.0000000E+000	0.0000000E+000	0.0000000E+000	-9.55175	0.0000000E+000	0.0000000E+000	0.0000000E+000	9.55175	5.94278	80.4483	-4.36567e-05	-4.71768e-07	4.57e-10	-4.72225e-07	0.198191	83099.5	80.4982	83180
0.0315922	76.1773	16.5724	77.9591	-12.2735	222.131	0.197996	-0.0026856	303986	13737	1	12	0.00499756	6.41049e-05	0	-0.000195922	0.000285479	1.75112e-06	25.9506	0.0273165	0.0245622	-0.0119536	-12.2611	77.9805	76.2018	16.5605	0.0125341	0.0027268	0.0128272	12.2735	1.3737e+07	6.3144e+07	6.4621e+07	-77.7265	0.0000000E+000	0.0000000E+000	0.0000000E+000	77.7265	0.0000000E+000	0.0000000E+000	0.0000000E+000	-77.7265	0.0000000E+000	0.0000000E+000	0.0000000E+000	-12.2735	0.0000000E+000	0.0000000E+000	0.0000000E+000	12.2735	4.59663	77.7265	-2.96985e-05	-5.31738e-07	-7.66682e-10	-5.30971e-07	0.197711	73725.2	106.3	73618.9
0.0215268	78.4603	21.6173	81.3838	-15.4039	319.87	0.19799	-0.00283198	342010	24130.5	1	12	0.00499306	6.1352e-05	0	-0.000199823	-5.81627e-05	1.74357e-06	35.7735	0.0284191	0.0230574	-0.0166133	-15.3883	81.4016	78.4834	21.6007	0.0118461	0.00326381	0.0122875	15.4039	2.41305e+07	8.7582e+07	9.08454e+07	-74.5961	0.0000000E+000	0.0000000E+000	0.0000000E+000	74.5961	0.0000000E+000	0.0000000E+000	0.0000000E+000	-74.5961	0.0000000E+000	0.0000000E+000	0.0000000E+000	-15.4039	0.0000000E+000	0.0000000E+000	0.0000000E+000	15.4039	3.62951	74.5961	-3.90039e-06	-5.60703e-07	1.64716e-10	-5.60868e-07	0.198048	69912.1	20.5378	69932.6
0.0146812	82.499	28.088	87.1494	-18.8019	463.172	0.197991	-0.00287192	385957	40091.3	1	12	0.00499249	5.72866e-05	0	-0.000197974	-1.99803e-05	2.16636e-06	2.86279	0.0378161	0.0377689	-0.0018887	-18.7927	87.1846	82.5368	28.0861	0.0108622	0.00369821	0.0114745	18.8019	4.00913e+07	1.17755e+08	1.24393e+08	-71.1981	0.0000000E+000	0.0000000E+000	0.0000000E+000	71.1981	0.0000000E+000	0.0000000E+000	0.0000000E+000	-71.1981	0.0000000E+000	0.0000000E+000	0.0000000E+000	-18.8019	0.0000000E+000	0.0000000E+000	0.0000000E+000	18.8019	2.93717	71.1981	1.84919e-06	-5.68614e-07	5.73818e-11	-5.68671e-07	0.198011	68940.2	6.95711	68947.1
0.0100092	88.4813	37.1897	95.9792	-22.7976	673.354	0.197991	-0.00297898	427562	64193.4	1	12	0.00499441	5.20363e-05	0	-0.000271191	0.000151841	2.53273e-06	16.2747	0.0486724	0.046722	-0.0136401	-22.7793	96.017	88.528	37.1761	0.00960499	0.00403709	0.0104189	22.7976	6.41934e+07	1.52728e+08	1.6567e+08	-67.2024	0.0000000E+000	0.0000000E+000	0.0000000E+000	67.2024	0.0000000E+000	0.0000000E+000	0.0000000E+000	-67.2024	0.0000000E+000	0.0000000E+000	0.0000000E+000	-22.7976	0.0000000E+000	0.0000000E+000	0.0000000E+000	22.7976	2.37919	67.2024	-7.32174e-05	-5.89813e-07	-4.52331e-10	-5.89361e-07	0.19784	66462.7	50.9706	66411.8