File: txt/18947_R308_UA705_SOC00_C04.mpt
EC-Lab ASCII FILE
Nb header lines : 65

Potentio Electrochemical Impedance Spectroscopy

Run on channel : 4 (SN 66756)
Grouped channel(s) : 1, 2, 3, 4, 5
User :
CE vs. WE compliance from -10 V to 10 V
Electrode connection : standard
Potential control : Ewe
Ewe ctrl range : min = -10.00 V, max = 10.00 V
Safety Limits :
	Do not start on E overload
Acquisition started on : 11/04/2025 15:30:07.703
Loaded Setting File :  C:\Users\Celltest\OneDrive - store-dot.com\Documents\EC-Lab\Data\@Biologic Test Protocols\anode half cell EIS SOC00.mps
Saved on :
	File : 18944_R308_UA705_SOC00_C04.mpr
	Directory : C:\Users\Celltest\OneDrive - store-dot.com\Documents\EC-Lab\Data\Charmaine\
	Host : 169.254.61.224
Device : VMP-3e (SN .003165)
Address : USB
EC-LAB for windows v11.62 (software)
Internet server v27.00 (firmware)
Command interpretor v12.03 (firmware)
Electrode material :
Initial state :
Electrolyte :
Comments :
Electrode surface area : 0.001 cm²
Characteristic mass : 0.001 g
Equivalent Weight : 0.000 g/eq.
Density : 0.000 g/cm3
Volume (V) : 0.001 cm³
Record Ece
Cycle Definition : Charge/Discharge alternance
Mode                Single sine
E (V)               0.0000
vs.                 Eoc
tE (h:m:s)          0:00:0.0000
record              0
dI                  0.000
unit dI             mA
dt (s)              0.000
fi                  100.000
unit fi             kHz
ff                  10.000
unit ff             mHz
Nd                  6
Points              per decade
spacing             Logarithmic
Va (mV)             5.0
pw                  0.10
Na                  2
corr                0
E range min (V)     -10.000
E range max (V)     10.000
I Range             Auto
Bandwidth           5
nc cycles           0
goto Ns'            0
nr cycles           0
inc. cycle          0

freq/Hz	Re(Z)/Ohm	-Im(Z)/Ohm	|Z|/Ohm	Phase(Z)/deg	time/s	<Ewe>/V	<I>/mA	Cs/µF	Cp/µF	cycle number	I Range	|Ewe|/V	|I|/A	Ns	(Q-Qo)/mA.h	<Ece>/V	|Ece|/V	Phase(Zce)/deg	|Zce|/Ohm	Re(Zce)/Ohm	-Im(Zce)/Ohm	Phase(Zwe-ce)/deg	|Zwe-ce|/Ohm	Re(Zwe-ce)/Ohm	-Im(Zwe-ce)/Ohm	Re(Y)/Ohm-1	Im(Y)/Ohm-1	|Y|/Ohm-1	Phase(Y)/deg	Re(C)/nF	Im(C)/nF	|C|/nF	Phase(C)/deg	Re(M)	Im(M)	|M|	Phase(M)/deg	Re(Permittivity)	Im(Permittivity)	|Permittivity|	Phase(Permittivity)/deg	Re(Resistivity)/Ohm.cm	Im(Resistivity)/Ohm.cm	|Resistivity|/Ohm.cm	Phase(Resistivity)/deg	Re(Conductivity)/mS/cm	Im(Conductivity)/mS/cm	|Conductivity|/mS/cm	Phase(Conductivity)/deg	Tan(Delta)	Loss Angle(Delta)/deg	dq/mA.h	Pwe/W	Pce/W	Pwe-ce/W	<Ewe-Ece>/V	Rwe/Ohm	Rce/Ohm	Rwe-ce/Ohm		Ewe-Ece/V
100004	2.24347	1.46245	2.67805	-33.0991	2.04152	0.201508	-0.0727897	1.08824	0.324526	1	9	0.00464366	0.00173397	0	-1.32529e-05	3.90573e-05	2.72542e-05	101.408	0.0157178	-0.00310888	-0.0154073	-32.8583	2.66705	2.24036	1.44704	0.312813	0.203913	0.373407	33.0991	324.526	497.839	594.273	-56.9009	0.0000000E+000	0.0000000E+000	0.0000000E+000	56.9009	0.0000000E+000	0.0000000E+000	0.0000000E+000	-56.9009	0.0000000E+000	0.0000000E+000	0.0000000E+000	-33.0991	0.0000000E+000	0.0000000E+000	0.0000000E+000	33.0991	1.53405	56.9009	-1.32529e-05	-1.46677e-05	-2.84297e-09	-1.46649e-05	0.201469	2768.37	0.536578	2767.83
68132	2.62126	1.76644	3.1609	-33.9756	2.55057	0.201537	-0.0649572	1.32242	0.412995	1	9	0.00514491	0.00162767	0	-2.80301e-05	-0.000209372	1.60563e-05	69.9622	0.00986458	0.00337999	-0.00926744	-33.8019	3.15854	2.62464	1.75717	0.262354	0.176797	0.316365	33.9756	412.995	612.853	739.022	-56.0244	0.0000000E+000	0.0000000E+000	0.0000000E+000	56.0244	0.0000000E+000	0.0000000E+000	0.0000000E+000	-56.0244	0.0000000E+000	0.0000000E+000	0.0000000E+000	-33.9756	0.0000000E+000	0.0000000E+000	0.0000000E+000	33.9756	1.48392	56.0244	-1.47773e-05	-1.30913e-05	1.36002e-08	-1.31049e-05	0.201746	3102.6	3.22323	3105.83
46420.4	3.08573	2.14403	3.75747	-34.7923	3.05752	0.201503	-0.0795032	1.59912	0.520656	1	9	0.00508576	0.00135351	0	-4.13295e-05	-0.000228482	1.45839e-05	20.3492	0.0107749	0.0101025	-0.00374687	-34.6577	3.76364	3.09583	2.14028	0.218558	0.151858	0.266137	34.7923	520.656	749.34	912.465	-55.2077	0.0000000E+000	0.0000000E+000	0.0000000E+000	55.2077	0.0000000E+000	0.0000000E+000	0.0000000E+000	-55.2077	0.0000000E+000	0.0000000E+000	0.0000000E+000	-34.7923	0.0000000E+000	0.0000000E+000	0.0000000E+000	34.7923	1.43922	55.2077	-1.32993e-05	-1.60201e-05	1.81651e-08	-1.60383e-05	0.201732	2534.53	2.87387	2537.4
31621.1	3.65302	2.51296	4.4339	-34.5246	3.44054	0.201547	-0.0740951	2.00289	0.643362	1	9	0.00487427	0.00109932	0	-4.9025e-05	-0.000381362	1.08067e-05	-27.5215	0.00983037	0.00871794	0.00454243	-34.5092	4.44366	3.66174	2.5175	0.185814	0.127824	0.225535	34.5246	643.362	935.237	1135.16	-55.4754	0.0000000E+000	0.0000000E+000	0.0000000E+000	55.4754	0.0000000E+000	0.0000000E+000	0.0000000E+000	-55.4754	0.0000000E+000	0.0000000E+000	0.0000000E+000	-34.5246	0.0000000E+000	0.0000000E+000	0.0000000E+000	34.5246	1.45367	55.4754	-7.69557e-06	-1.49336e-05	2.8257e-08	-1.49619e-05	0.201928	2720.11	5.14692	2725.26
21544.7	4.32663	2.87452	5.19448	-33.5992	4.10255	0.201623	-0.0270796	2.56989	0.786976	1	10	0.00482993	0.000929821	0	-5.58843e-05	-0.000266702	1.10392e-05	-54.7004	0.0118723	0.00686045	0.00968952	-33.6462	5.20556	4.33349	2.88421	0.160349	0.106532	0.192512	33.5992	786.976	1184.53	1422.13	-56.4008	0.0000000E+000	0.0000000E+000	0.0000000E+000	56.4008	0.0000000E+000	0.0000000E+000	0.0000000E+000	-56.4008	0.0000000E+000	0.0000000E+000	0.0000000E+000	-33.5992	0.0000000E+000	0.0000000E+000	0.0000000E+000	33.5992	1.50517	56.4008	-6.85926e-06	-5.45986e-06	7.22218e-09	-5.46708e-06	0.201889	7445.56	9.84882	7455.41
14678.6	5.07831	3.21704	6.01154	-32.3537	4.36151	0.201622	-0.0289223	3.37038	0.965208	1	10	0.00547178	0.000910214	0	-5.84132e-05	-0.000171152	4.38399e-06	81.8079	0.00481644	0.000686306	-0.00476729	-32.3118	6.00957	5.079	3.21227	0.140523	0.0890196	0.166347	32.3537	965.208	1523.65	1803.64	-57.6463	0.0000000E+000	0.0000000E+000	0.0000000E+000	57.6463	0.0000000E+000	0.0000000E+000	0.0000000E+000	-57.6463	0.0000000E+000	0.0000000E+000	0.0000000E+000	-32.3537	0.0000000E+000	0.0000000E+000	0.0000000E+000	32.3537	1.57857	57.6463	-2.52889e-06	-5.83137e-06	4.95011e-09	-5.83632e-06	0.201793	6971.16	5.91766	6977.08
10002.2	5.90234	3.55088	6.88813	-31.0313	4.62053	0.201619	-0.0293625	4.48113	1.19085	1	10	0.00548077	0.000795683	0	-6.03013e-05	1.99474e-05	6.23369e-06	-118.123	0.00783439	-0.00369288	0.00690944	-31.0964	6.88853	5.89865	3.55778	0.1244	0.0748398	0.145177	31.0313	1190.85	1979.45	2310.05	-58.9687	0.0000000E+000	0.0000000E+000	0.0000000E+000	58.9687	0.0000000E+000	0.0000000E+000	0.0000000E+000	-58.9687	0.0000000E+000	0.0000000E+000	0.0000000E+000	-31.0313	0.0000000E+000	0.0000000E+000	0.0000000E+000	31.0313	1.66222	58.9687	-1.88811e-06	-5.92004e-06	-5.85704e-10	-5.91945e-06	0.201599	6866.56	0.679349	6865.88
6810.42	6.77576	3.83571	7.78612	-29.5139	4.87955	0.201631	-0.0286463	6.09256	1.4786	1	10	0.0053247	0.000683871	0	-6.27166e-05	-0.000438692	3.26026e-05	-127.957	0.0476736	-0.029323	0.0375891	-29.8612	7.77926	6.74644	3.8733	0.111768	0.0632709	0.128434	29.5139	1478.6	2611.93	3001.41	-60.4861	0.0000000E+000	0.0000000E+000	0.0000000E+000	60.4861	0.0000000E+000	0.0000000E+000	0.0000000E+000	-60.4861	0.0000000E+000	0.0000000E+000	0.0000000E+000	-29.5139	0.0000000E+000	0.0000000E+000	0.0000000E+000	29.5139	1.76649	60.4861	-2.41536e-06	-5.77598e-06	1.25669e-08	-5.78855e-06	0.20207	7038.65	15.3141	7053.96
4646	7.70805	4.22397	8.78954	-28.7225	5.14361	0.2016	-0.0365393	8.10998	1.87296	1	10	0.00521184	0.000592959	0	-6.47813e-05	-3.73825e-05	9.75476e-06	-45.4574	0.016451	0.0115394	0.0117251	-28.7533	8.80529	7.71959	4.23569	0.0997729	0.054675	0.113772	28.7225	1872.96	3417.85	3897.4	-61.2775	0.0000000E+000	0.0000000E+000	0.0000000E+000	61.2775	0.0000000E+000	0.0000000E+000	0.0000000E+000	-61.2775	0.0000000E+000	0.0000000E+000	0.0000000E+000	-28.7225	0.0000000E+000	0.0000000E+000	0.0000000E+000	28.7225	1.82484	61.2775	-2.0647e-06	-7.36633e-06	1.36593e-09	-7.3677e-06	0.201638	5517.35	1.02308	5518.37
3163.08	8.7083	4.61742	9.85673	-27.934	5.51767	0.201528	-0.0131325	10.8971	2.39135	1	10	0.00513765	0.000521233	0	-6.62537e-05	-9.47124e-05	8.80599e-06	-102.779	0.0168945	-0.00373692	0.0164761	-28.0287	9.86116	8.70457	4.6339	0.089633	0.0475263	0.101454	27.934	2391.36	4510.01	5104.78	-62.066	0.0000000E+000	0.0000000E+000	0.0000000E+000	62.066	0.0000000E+000	0.0000000E+000	0.0000000E+000	-62.066	0.0000000E+000	0.0000000E+000	0.0000000E+000	-27.934	0.0000000E+000	0.0000000E+000	0.0000000E+000	27.934	1.88597	62.066	-1.47239e-06	-2.64656e-06	1.24381e-09	-2.64781e-06	0.201623	15345.8	7.21207	15353
2155.69	9.74716	5.09864	11.0001	-27.6136	5.96877	0.20158	0.000367034	14.4804	3.11094	1	10	0.00508066	0.000461872	0	-6.65557e-05	-0.000209372	6.59287e-06	6.64431	0.0142742	0.0141784	-0.0016516	-27.5718	11.0119	9.76134	5.09699	0.0805529	0.0421364	0.0909079	27.6136	3110.94	5947.23	6711.74	-62.3864	0.0000000E+000	0.0000000E+000	0.0000000E+000	62.3864	0.0000000E+000	0.0000000E+000	0.0000000E+000	-62.3864	0.0000000E+000	0.0000000E+000	0.0000000E+000	-27.6136	0.0000000E+000	0.0000000E+000	0.0000000E+000	27.6136	1.91172	62.3864	-3.01988e-07	7.39866e-08	-7.68466e-11	7.40635e-08	0.201789	549214	570.444	549785
1468.59	10.8772	5.68956	12.2754	-27.6127	6.42002	0.201577	0.000669176	19.0476	4.09193	1	10	0.00505267	0.00041161	0	-6.67652e-05	-1.82725e-05	1.27759e-05	49.4019	0.0310389	0.0201985	-0.0235676	-27.4716	12.2824	10.8974	5.66599	0.0721852	0.0377579	0.0814638	27.6127	4091.93	7822.9	8828.45	-62.3873	0.0000000E+000	0.0000000E+000	0.0000000E+000	62.3873	0.0000000E+000	0.0000000E+000	0.0000000E+000	-62.3873	0.0000000E+000	0.0000000E+000	0.0000000E+000	-27.6127	0.0000000E+000	0.0000000E+000	0.0000000E+000	27.6127	1.91179	62.3873	-2.09523e-07	1.34891e-07	-1.22276e-11	1.34903e-07	0.201596	301232	27.306	301259
1000.32	12.1348	6.45529	13.745	-28.0113	6.87086	0.201578	0.000758698	24.6471	5.43635	1	10	0.00502702	0.000365734	0	-6.65772e-05	8.3741e-07	6.01954e-06	-30.9528	0.0164588	0.0141149	0.00846527	-28.0148	13.7614	12.149	6.46375	0.064231	0.0341685	0.0727537	28.0113	5436.35	10219.4	11575.4	-61.9887	0.0000000E+000	0.0000000E+000	0.0000000E+000	61.9887	0.0000000E+000	0.0000000E+000	0.0000000E+000	-61.9887	0.0000000E+000	0.0000000E+000	0.0000000E+000	-28.0113	0.0000000E+000	0.0000000E+000	0.0000000E+000	28.0113	1.87983	61.9887	1.88002e-07	1.52937e-07	6.35341e-13	1.52936e-07	0.201577	265689	1.10375	265688
681.09	13.597	7.41521	15.4875	-28.6061	7.3206	0.201571	-0.000397658	31.5132	7.22396	1	10	0.00501241	0.000323642	0	-6.68584e-05	-0.000171152	9.66502e-06	36.6309	0.0298633	0.0239652	-0.0178182	-28.5059	15.5001	13.6209	7.39739	0.0566864	0.0309143	0.0645681	28.6061	7223.96	13246.3	15088.1	-61.3939	0.0000000E+000	0.0000000E+000	0.0000000E+000	61.3939	0.0000000E+000	0.0000000E+000	0.0000000E+000	-61.3939	0.0000000E+000	0.0000000E+000	0.0000000E+000	-28.6061	0.0000000E+000	0.0000000E+000	0.0000000E+000	28.6061	1.83366	61.3939	-2.8119e-07	-8.0156e-08	6.806e-11	-8.02241e-08	0.201742	506895	430.401	507325
463.961	15.3565	8.60274	17.602	-29.2576	7.77228	0.201577	1.47164e-06	39.8751	9.52475	1	10	0.00500946	0.000284597	0	-6.68988e-05	-0.000457802	1.3679e-05	34.0154	0.0480644	0.03984	-0.026888	-29.1181	17.6236	15.3963	8.57585	0.0495644	0.0277661	0.0568119	29.2576	9524.75	17002.3	19488.5	-60.7424	0.0000000E+000	0.0000000E+000	0.0000000E+000	60.7424	0.0000000E+000	0.0000000E+000	0.0000000E+000	-60.7424	0.0000000E+000	0.0000000E+000	0.0000000E+000	-29.2576	0.0000000E+000	0.0000000E+000	0.0000000E+000	29.2576	1.78507	60.7424	-4.0417e-08	2.96649e-10	-6.7372e-13	2.97323e-10	0.202035	1.36974e+08	311082	1.37285e+08
316.316	17.5284	10.0061	20.1834	-29.7199	8.22006	0.201579	-0.000569248	50.2845	12.3588	1	10	0.00500592	0.000248022	0	-6.68785e-05	-0.000152042	5.38275e-06	131.222	0.0217027	-0.0143017	-0.0163239	-29.6997	20.1629	17.5141	9.98978	0.0430285	0.0245628	0.0495457	29.7199	12358.8	21649.9	24929	-60.2801	0.0000000E+000	0.0000000E+000	0.0000000E+000	60.2801	0.0000000E+000	0.0000000E+000	0.0000000E+000	-60.2801	0.0000000E+000	0.0000000E+000	0.0000000E+000	-29.7199	0.0000000E+000	0.0000000E+000	0.0000000E+000	29.7199	1.75177	60.2801	2.03337e-08	-1.14748e-07	8.65497e-11	-1.14835e-07	0.201731	354114	267.093	354381
215.345	20.3408	11.461	23.3474	-29.3989	8.6696	0.20158	9.47232e-05	64.486	15.5392	1	10	0.00500443	0.000214346	0	-6.67297e-05	-0.000266702	7.05859e-06	34.6962	0.0329308	0.0270751	-0.018745	-29.3263	23.3618	20.3679	11.4422	0.0373156	0.0210253	0.0428313	29.3989	15539.2	27578.9	31655.4	-60.6011	0.0000000E+000	0.0000000E+000	0.0000000E+000	60.6011	0.0000000E+000	0.0000000E+000	0.0000000E+000	-60.6011	0.0000000E+000	0.0000000E+000	0.0000000E+000	-29.3989	0.0000000E+000	0.0000000E+000	0.0000000E+000	29.3989	1.77479	60.6011	1.48787e-07	1.90943e-08	-2.52629e-11	1.91196e-08	0.201847	2.1281e+06	2815.59	2.13091e+06
146.737	23.9487	12.7659	27.1387	-28.06	9.35948	0.201601	-0.00384106	84.9624	18.7999	1	11	0.0050231	0.00018509	0	-6.73913e-05	-0.000228482	1.54403e-05	78.7184	0.0834203	0.0163196	-0.0818084	-27.8913	27.1147	23.965	12.6841	0.0325165	0.0173331	0.0368478	28.06	18799.9	35268.2	39966	-61.94	0.0000000E+000	0.0000000E+000	0.0000000E+000	61.94	0.0000000E+000	0.0000000E+000	0.0000000E+000	-61.94	0.0000000E+000	0.0000000E+000	0.0000000E+000	-28.06	0.0000000E+000	0.0000000E+000	0.0000000E+000	28.06	1.87598	61.94	-6.6156e-07	-7.74362e-07	8.77614e-10	-7.7524e-07	0.20183	52485.8	59.4841	52545.3
100.032	27.9874	13.3332	31.0011	-25.4731	9.80985	0.201619	-0.00361983	119.329	22.073	1	11	0.00499938	0.000161265	0	-6.77169e-05	-0.000171152	5.75097e-06	11.198	0.0356617	0.0349827	-0.00692551	-25.4338	31.0297	28.0224	13.3263	0.0291211	0.0138733	0.0322569	25.4731	22073	46332.9	51322.1	-64.5269	0.0000000E+000	0.0000000E+000	0.0000000E+000	64.5269	0.0000000E+000	0.0000000E+000	0.0000000E+000	-64.5269	0.0000000E+000	0.0000000E+000	0.0000000E+000	-25.4731	0.0000000E+000	0.0000000E+000	0.0000000E+000	25.4731	2.09908	64.5269	-3.25647e-07	-7.29826e-07	6.19541e-10	-7.30446e-07	0.20179	55698.5	47.2819	55745.8
68.104	32.3112	12.993	34.8257	-21.9061	10.2725	0.201626	-0.00324526	179.861	25.0356	1	11	0.00500118	0.000143606	0	-6.80548e-05	3.90573e-05	8.67947e-06	-86.1556	0.0604395	0.0040523	0.0603035	-21.9956	34.852	32.3152	13.0533	0.0266411	0.010713	0.0287144	21.9061	25035.6	62258.8	67103.9	-68.0939	0.0000000E+000	0.0000000E+000	0.0000000E+000	68.0939	0.0000000E+000	0.0000000E+000	0.0000000E+000	-68.0939	0.0000000E+000	0.0000000E+000	0.0000000E+000	-21.9061	0.0000000E+000	0.0000000E+000	0.0000000E+000	21.9061	2.48681	68.0939	-3.37892e-07	-6.54329e-07	-1.26751e-10	-6.54202e-07	0.201587	62129.4	12.0352	62117.4
46.4415	36.1642	11.7803	38.0346	-18.0427	10.7097	0.201603	-0.00393471	290.91	27.9069	1	11	0.00499914	0.000131437	0	-6.84878e-05	-0.000209372	4.79972e-06	0.961507	0.0365173	0.0365122	-0.000612785	-18.0248	38.0691	36.2008	11.7797	0.024999	0.00814327	0.0262919	18.0427	27906.9	85671.4	90102.1	-71.9573	0.0000000E+000	0.0000000E+000	0.0000000E+000	71.9573	0.0000000E+000	0.0000000E+000	0.0000000E+000	-71.9573	0.0000000E+000	0.0000000E+000	0.0000000E+000	-18.0427	0.0000000E+000	0.0000000E+000	0.0000000E+000	18.0427	3.0699	71.9573	-4.32953e-07	-7.93249e-07	8.23818e-10	-7.94073e-07	0.201812	51237.1	53.2116	51290.3
31.6296	39.1801	9.9505	40.424	-14.25	11.1396	0.20161	-0.00392836	505.688	30.6404	1	11	0.00498953	0.00012343	0	-6.9186e-05	-0.000209372	4.06559e-06	-102.984	0.0329384	-0.00740067	0.0320962	-14.2967	40.4247	39.1727	9.98259	0.0239766	0.0060893	0.0247378	14.25	30640.4	120647	124477	-75.75	0.0000000E+000	0.0000000E+000	0.0000000E+000	75.75	0.0000000E+000	0.0000000E+000	0.0000000E+000	-75.75	0.0000000E+000	0.0000000E+000	0.0000000E+000	-14.25	0.0000000E+000	0.0000000E+000	0.0000000E+000	14.25	3.93751	75.75	-6.98216e-07	-7.91996e-07	8.2249e-10	-7.92818e-07	0.201819	51321.5	53.2975	51374.8
21.5517	41.4247	8.0531	42.2002	-11.0013	11.5604	0.2016	-0.00424548	917.012	33.3943	1	11	0.00499433	0.000118348	0	-6.96748e-05	-0.000171152	4.71728e-06	-45.8748	0.0398593	0.0277511	0.0286118	-11.0322	42.2329	41.4524	8.08171	0.0232611	0.00452203	0.0236966	11.0013	33394.3	171778	174994	-78.9987	0.0000000E+000	0.0000000E+000	0.0000000E+000	78.9987	0.0000000E+000	0.0000000E+000	0.0000000E+000	-78.9987	0.0000000E+000	0.0000000E+000	0.0000000E+000	-11.0013	0.0000000E+000	0.0000000E+000	0.0000000E+000	11.0013	5.14395	78.9987	-4.88804e-07	-8.55888e-07	7.26623e-10	-8.56614e-07	0.201771	47485.8	40.314	47526.1
14.6852	42.9357	6.36686	43.4052	-8.43482	12.0212	0.201609	-0.00360378	1702.22	36.6255	1	11	0.00500437	0.000115294	0	-7.01139e-05	0.000134607	1.01594e-05	-117.103	0.0881175	-0.0401452	0.0784415	-8.54509	43.377	42.8955	6.4453	0.0227895	0.00337942	0.0230387	8.43482	36625.5	246989	249689	-81.5652	0.0000000E+000	0.0000000E+000	0.0000000E+000	81.5652	0.0000000E+000	0.0000000E+000	0.0000000E+000	-81.5652	0.0000000E+000	0.0000000E+000	0.0000000E+000	-8.43482	0.0000000E+000	0.0000000E+000	0.0000000E+000	8.43482	6.74362	81.5652	-4.39078e-07	-7.26556e-07	-4.85095e-10	-7.26071e-07	0.201475	55943.7	37.3516	55906.4
10.0032	43.8427	5.23102	44.1537	-6.80399	12.4718	0.201609	-0.00384032	3041.55	42.6907	1	11	0.00499011	0.000113017	0	-6.9757e-05	-0.000190262	1.06455e-05	-32.6714	0.0941936	0.0792903	0.0508476	-6.85721	44.2385	43.922	5.28187	0.0224887	0.0026832	0.0226482	6.80399	42690.7	357804	360341	-83.196	0.0000000E+000	0.0000000E+000	0.0000000E+000	83.196	0.0000000E+000	0.0000000E+000	0.0000000E+000	-83.196	0.0000000E+000	0.0000000E+000	0.0000000E+000	-6.80399	0.0000000E+000	0.0000000E+000	0.0000000E+000	6.80399	8.38129	83.196	3.56914e-07	-7.74242e-07	7.30667e-10	-7.74972e-07	0.201799	52498	49.5434	52547.5
6.81719	44.6649	4.25197	44.8668	-5.43801	12.8115	0.201626	-0.00279794	5490.66	49.3122	1	11	0.00499271	0.000111279	0	-7.0563e-05	-0.000304922	7.5819e-06	82.0266	0.0681344	0.0094512	-0.0674757	-5.35109	44.8699	44.6743	4.18449	0.0221879	0.00211222	0.0222882	5.43801	49312.2	518001	520343	-84.562	0.0000000E+000	0.0000000E+000	0.0000000E+000	84.562	0.0000000E+000	0.0000000E+000	0.0000000E+000	-84.562	0.0000000E+000	0.0000000E+000	0.0000000E+000	-5.43801	0.0000000E+000	0.0000000E+000	0.0000000E+000	5.43801	10.5045	84.562	-8.05998e-07	-5.64138e-07	8.53152e-10	-5.64991e-07	0.201931	72062.6	108.981	72171.6
4.63925	45.1751	3.64372	45.3218	-4.61137	13.2965	0.201611	-0.00331316	9415.14	60.856	1	11	0.00498752	0.000110047	0	-7.17879e-05	3.90573e-05	7.13198e-06	46.4782	0.0648085	0.0446291	-0.0469935	-4.54767	45.3625	45.2197	3.59673	0.021993	0.00177391	0.0220644	4.61137	60855.9	754496	756946	-85.3886	0.0000000E+000	0.0000000E+000	0.0000000E+000	85.3886	0.0000000E+000	0.0000000E+000	0.0000000E+000	-85.3886	0.0000000E+000	0.0000000E+000	0.0000000E+000	-4.61137	0.0000000E+000	0.0000000E+000	0.0000000E+000	4.61137	12.3981	85.3886	-1.22496e-06	-6.6797e-07	-1.29403e-10	-6.67841e-07	0.201572	60851.7	11.7886	60840
3.1604	45.8058	3.40381	45.9321	-4.24981	13.9895	0.201626	-0.00254462	14794.9	81.2477	1	11	0.00499143	0.00010867	0	-7.12418e-05	0.000153717	2.91152e-06	-19.4003	0.0267923	0.0252711	0.00889948	-4.25854	45.958	45.8311	3.41271	0.0217114	0.00161337	0.0217713	4.24981	81247.8	1.09337e+06	1.09638e+06	-85.7502	0.0000000E+000	0.0000000E+000	0.0000000E+000	85.7502	0.0000000E+000	0.0000000E+000	0.0000000E+000	-85.7502	0.0000000E+000	0.0000000E+000	0.0000000E+000	-4.24981	0.0000000E+000	0.0000000E+000	0.0000000E+000	4.24981	13.4572	85.7502	5.46091e-07	-5.1306e-07	-3.91151e-10	-5.12669e-07	0.201472	79236.2	60.4087	79175.8
2.15577	46.3786	3.27954	46.4944	-4.04478	14.9932	0.201623	-0.00203434	22511.6	112.003	1	11	0.0049912	0.000107351	0	-6.99841e-05	8.3741e-07	1.61618e-06	105.741	0.0150551	-0.00408417	-0.0144906	-4.02732	46.4893	46.3745	3.26505	0.0214544	0.00151709	0.021508	4.04478	112003	1.58392e+06	1.58788e+06	-85.9552	0.0000000E+000	0.0000000E+000	0.0000000E+000	85.9552	0.0000000E+000	0.0000000E+000	0.0000000E+000	-85.9552	0.0000000E+000	0.0000000E+000	0.0000000E+000	-4.04478	0.0000000E+000	0.0000000E+000	0.0000000E+000	4.04478	14.1418	85.9552	1.25775e-06	-4.10171e-07	-1.70358e-12	-4.10169e-07	0.201623	99110	0.411637	99109.6
1.46631	47.0213	3.33119	47.1391	-4.05231	17.1803	0.201629	-0.00134029	32583.3	162.716	1	12	0.00499398	0.000105941	0	-7.05342e-05	-0.000247592	4.40212e-06	20.1482	0.0415524	0.0390096	-0.0143127	-4.03163	47.177	47.0603	3.31688	0.0211608	0.00149912	0.0212138	4.05231	162716	2.29681e+06	2.30257e+06	-85.9477	0.0000000E+000	0.0000000E+000	0.0000000E+000	85.9477	0.0000000E+000	0.0000000E+000	0.0000000E+000	-85.9477	0.0000000E+000	0.0000000E+000	0.0000000E+000	-4.05231	0.0000000E+000	0.0000000E+000	0.0000000E+000	4.05231	14.1154	85.9477	-5.50101e-07	-2.70241e-07	3.31844e-10	-2.70572e-07	0.201877	150437	184.731	150622
1.00006	47.7235	3.43134	47.8467	-4.11251	19.3078	0.201635	-0.00107593	46379.8	238.535	1	12	0.00499428	0.000104381	0	-7.41615e-05	-0.000324032	5.06474e-06	33.1683	0.0485217	0.0406159	-0.0265462	-4.07735	47.8853	47.7641	3.40479	0.0208463	0.00149886	0.0209001	4.11251	238535	3.31758e+06	3.32614e+06	-85.8875	0.0000000E+000	0.0000000E+000	0.0000000E+000	85.8875	0.0000000E+000	0.0000000E+000	0.0000000E+000	-85.8875	0.0000000E+000	0.0000000E+000	0.0000000E+000	-4.11251	0.0000000E+000	0.0000000E+000	0.0000000E+000	4.11251	13.9081	85.8875	-3.62737e-06	-2.16946e-07	3.48636e-10	-2.17294e-07	0.201959	187405	301.164	187706
0.681362	48.5229	3.5445	48.6522	-4.17792	22.4199	0.20163	-0.00120205	65900.2	349.778	1	12	0.00500009	0.000102772	0	-7.96485e-05	-0.000496021	1.96986e-06	18.0338	0.0191673	0.0182257	-0.00593378	-4.16939	48.67	48.5412	3.53857	0.0204994	0.00149744	0.020554	4.17792	349777	4.78833e+06	4.80108e+06	-85.8221	0.0000000E+000	0.0000000E+000	0.0000000E+000	85.8221	0.0000000E+000	0.0000000E+000	0.0000000E+000	-85.8221	0.0000000E+000	0.0000000E+000	0.0000000E+000	-4.17792	0.0000000E+000	0.0000000E+000	0.0000000E+000	4.17792	13.6896	85.8221	-5.48696e-06	-2.42369e-07	5.96243e-10	-2.42966e-07	0.202126	167738	412.646	168151
0.464091	49.3443	3.72359	49.4846	-4.31544	26.9764	0.201629	-0.00156003	92099.1	521.482	1	12	0.00499925	0.000101026	0	-8.51392e-05	0.000191937	1.86658e-06	28.981	0.0184762	0.0161626	-0.00895204	-4.3037	49.5	49.3604	3.71464	0.020151	0.00152063	0.0202083	4.31544	521483	6.91058e+06	6.93023e+06	-85.6846	0.0000000E+000	0.0000000E+000	0.0000000E+000	85.6846	0.0000000E+000	0.0000000E+000	0.0000000E+000	-85.6846	0.0000000E+000	0.0000000E+000	0.0000000E+000	-4.31544	0.0000000E+000	0.0000000E+000	0.0000000E+000	4.31544	13.2518	85.6846	-5.49067e-06	-3.14547e-07	-2.99427e-10	-3.14248e-07	0.201437	129247	123.034	129124
0.316193	50.148	4.01328	50.3083	-4.57556	33.6508	0.201623	-0.00215516	125420	798.156	1	12	0.00499843	9.93559e-05	0	-8.7465e-05	-0.000190262	3.69624e-06	21.3956	0.037202	0.0346382	-0.0135715	-4.55702	50.3418	50.1826	3.99971	0.0198141	0.0015857	0.0198774	4.57556	798155	9.97336e+06	1.00052e+07	-85.4244	0.0000000E+000	0.0000000E+000	0.0000000E+000	85.4244	0.0000000E+000	0.0000000E+000	0.0000000E+000	-85.4244	0.0000000E+000	0.0000000E+000	0.0000000E+000	-4.57556	0.0000000E+000	0.0000000E+000	0.0000000E+000	4.57556	12.4955	85.4244	-2.32581e-06	-4.3453e-07	4.10046e-10	-4.3494e-07	0.201813	93553.7	88.2821	93641.9
0.215268	50.854	4.44058	51.0475	-4.99041	43.4443	0.201625	-0.00233078	166495	1259.88	1	12	0.00499755	9.79e-05	0	-8.38424e-05	-0.000190262	3.75524e-06	29.3474	0.0383579	0.0334352	-0.0187994	-4.96614	51.0792	50.8875	4.42178	0.0195153	0.00170408	0.0195896	4.99041	1.25989e+06	1.44284e+07	1.44833e+07	-85.0096	0.0000000E+000	0.0000000E+000	0.0000000E+000	85.0096	0.0000000E+000	0.0000000E+000	0.0000000E+000	-85.0096	0.0000000E+000	0.0000000E+000	0.0000000E+000	-4.99041	0.0000000E+000	0.0000000E+000	0.0000000E+000	4.99041	11.4521	85.0096	3.62259e-06	-4.69944e-07	4.43459e-10	-4.70388e-07	0.201816	86505.5	81.6302	86587.1
0.146929	51.5465	5.01368	51.7897	-5.55541	57.7827	0.201626	-0.00221761	216051	2024.8	1	12	0.00499706	9.64874e-05	0	-7.41197e-05	-0.000553351	4.25169e-06	22.4743	0.0440647	0.040718	-0.0168446	-5.53252	51.8286	51.5872	4.99684	0.0192182	0.00186926	0.0193089	5.55541	2.0248e+06	2.08173e+07	2.09156e+07	-84.4446	0.0000000E+000	0.0000000E+000	0.0000000E+000	84.4446	0.0000000E+000	0.0000000E+000	0.0000000E+000	-84.4446	0.0000000E+000	0.0000000E+000	0.0000000E+000	-5.55541	0.0000000E+000	0.0000000E+000	0.0000000E+000	5.55541	10.2812	84.4446	9.72274e-06	-4.47127e-07	1.22712e-09	-4.48354e-07	0.202179	90920.4	249.526	91169.9
0.0999041	52.3483	5.98284	52.6891	-6.51999	78.8588	0.201633	-0.00164134	266274	3433.23	1	12	0.00499522	9.48056e-05	0	-6.2794e-05	5.81673e-05	2.41225e-06	-15.6555	0.0254442	0.0245002	0.00686617	-6.52438	52.7142	52.3728	5.98971	0.0188565	0.00215509	0.0189793	6.51999	3.43323e+06	3.00399e+07	3.02354e+07	-83.48	0.0000000E+000	0.0000000E+000	0.0000000E+000	83.48	0.0000000E+000	0.0000000E+000	0.0000000E+000	-83.48	0.0000000E+000	0.0000000E+000	0.0000000E+000	-6.51999	0.0000000E+000	0.0000000E+000	0.0000000E+000	6.51999	8.74975	83.48	1.13256e-05	-3.30949e-07	-9.54725e-11	-3.30854e-07	0.201575	122846	35.4388	122811
0.0680626	53.2829	7.63828	53.8276	-8.15797	109.785	0.201624	-0.00137799	306137	6164.5	1	12	0.00499622	9.28189e-05	0	-6.19385e-05	-7.56024e-05	1.66649e-06	-17.1651	0.0179542	0.0171545	0.00529875	-8.16096	53.8453	53.3	7.64358	0.0183898	0.00263625	0.0185778	8.15797	6.1645e+06	4.30021e+07	4.34417e+07	-81.842	0.0000000E+000	0.0000000E+000	0.0000000E+000	81.842	0.0000000E+000	0.0000000E+000	0.0000000E+000	-81.842	0.0000000E+000	0.0000000E+000	0.0000000E+000	-8.15797	0.0000000E+000	0.0000000E+000	0.0000000E+000	8.15797	6.97577	81.842	8.55516e-07	-2.77836e-07	1.0418e-10	-2.7794e-07	0.201699	146317	54.8641	146372
0.0464052	54.2801	10.155	55.2218	-10.5966	155.137	0.201631	-0.00129776	337735	11421.2	1	12	0.00499755	9.04996e-05	0	-9.52546e-05	7.72772e-05	2.9187e-06	-10.4717	0.032251	0.0317138	0.00586163	-10.5966	55.2541	54.3118	10.1608	0.0178	0.00333009	0.0181088	10.5966	1.14212e+07	6.10482e+07	6.21073e+07	-79.4034	0.0000000E+000	0.0000000E+000	0.0000000E+000	79.4034	0.0000000E+000	0.0000000E+000	0.0000000E+000	-79.4034	0.0000000E+000	0.0000000E+000	0.0000000E+000	-10.5966	0.0000000E+000	0.0000000E+000	0.0000000E+000	10.5966	5.34518	79.4034	-3.33161e-05	-2.6167e-07	-1.00288e-10	-2.61569e-07	0.201554	155368	59.5465	155309
0.0315922	55.3677	13.3378	56.9516	-13.5442	221.742	0.201622	-0.00184843	377708	20716.3	1	12	0.00499416	8.76913e-05	0	-0.000195075	-0.000209372	2.24895e-06	8.80296	0.0256462	0.0253441	-0.00392482	-13.5344	56.9753	55.3931	13.3339	0.0170705	0.00411218	0.0175588	13.5442	2.07163e+07	8.59974e+07	8.84574e+07	-76.4558	0.0000000E+000	0.0000000E+000	0.0000000E+000	76.4558	0.0000000E+000	0.0000000E+000	0.0000000E+000	-76.4558	0.0000000E+000	0.0000000E+000	0.0000000E+000	-13.5442	0.0000000E+000	0.0000000E+000	0.0000000E+000	13.5442	4.1512	76.4558	-9.98206e-05	-3.72683e-07	3.87009e-10	-3.7307e-07	0.201831	109077	113.27	109191
0.0215268	57.4155	17.4983	60.0227	-16.9495	319.481	0.201624	-0.00243508	422517	35909.3	1	12	0.00499483	8.32156e-05	0	-0.000368829	3.90573e-05	1.972e-06	-2.01496	0.0236974	0.0236828	0.000833213	-16.9437	60.0456	57.4392	17.4992	0.0159367	0.00485697	0.0166604	16.9495	3.59093e+07	1.17825e+08	1.23176e+08	-73.0505	0.0000000E+000	0.0000000E+000	0.0000000E+000	73.0505	0.0000000E+000	0.0000000E+000	0.0000000E+000	-73.0505	0.0000000E+000	0.0000000E+000	0.0000000E+000	-16.9495	0.0000000E+000	0.0000000E+000	0.0000000E+000	16.9495	3.28119	73.0505	-0.000173754	-4.9097e-07	-9.51077e-11	-4.90875e-07	0.201585	82799.6	16.0394	82783.6
0.0146812	60.744	23.53	65.1422	-21.1746	462.782	0.201623	-0.00297226	460720	60111.5	1	12	0.00499489	7.66768e-05	0	-0.000579149	0.000306597	2.33716e-06	-1.36801	0.0304806	0.0304719	0.000727693	-21.1655	65.1708	60.7745	23.5308	0.0143146	0.00554496	0.015351	21.1746	6.01115e+07	1.55181e+08	1.66417e+08	-68.8254	0.0000000E+000	0.0000000E+000	0.0000000E+000	68.8254	0.0000000E+000	0.0000000E+000	0.0000000E+000	-68.8254	0.0000000E+000	0.0000000E+000	0.0000000E+000	-21.1746	0.0000000E+000	0.0000000E+000	0.0000000E+000	21.1746	2.58155	68.8254	-0.00021032	-5.99275e-07	-9.11284e-10	-5.98364e-07	0.201316	67835	103.153	67731.8
0.0100092	64.7647	31.7234	72.1168	-26.0968	672.964	0.201624	-0.00332439	501237	96990.3	1	12	0.00499469	6.92584e-05	0	-0.000752553	-5.64925e-05	3.4233e-06	3.58857	0.049428	0.049331	-0.00309377	-26.0773	72.1598	64.814	31.7203	0.0124527	0.00609967	0.0138664	26.0968	9.69903e+07	1.9801e+08	2.20488e+08	-63.9032	0.0000000E+000	0.0000000E+000	0.0000000E+000	63.9032	0.0000000E+000	0.0000000E+000	0.0000000E+000	-63.9032	0.0000000E+000	0.0000000E+000	0.0000000E+000	-26.0968	0.0000000E+000	0.0000000E+000	0.0000000E+000	26.0968	2.04154	63.9032	-0.000173404	-6.70278e-07	1.87803e-10	-6.70466e-07	0.201681	60650.1	16.9933	60667.1