File: txt/18949_R308_UA706_SOC00_C06.mpt
EC-Lab ASCII FILE
Nb header lines : 65

Potentio Electrochemical Impedance Spectroscopy

Run on channel : 6 (SN 65795)
User :
CE vs. WE compliance from -10 V to 10 V
Electrode connection : standard
Potential control : Ewe
Ewe ctrl range : min = -10.00 V, max = 10.00 V
Safety Limits :
	Do not start on E overload
Acquisition started on : 11/04/2025 15:30:36.441
Technique started on : 11/04/2025 15:30:38.352
Loaded Setting File :  C:\Users\Celltest\OneDrive - store-dot.com\Documents\EC-Lab\Data\@Biologic Test Protocols\anode half cell EIS SOC00.mps
Saved on :
	File : 18949_R308_UA706_SOC00_C06.mpr
	Directory : C:\Users\Celltest\OneDrive - store-dot.com\Documents\EC-Lab\Data\Charmaine\
	Host : 169.254.61.224
Device : VMP-3e (SN .003165)
Address : USB
EC-LAB for windows v11.62 (software)
Internet server v27.00 (firmware)
Command interpretor v12.03 (firmware)
Electrode material :
Initial state :
Electrolyte :
Comments :
Electrode surface area : 0.001 cm²
Characteristic mass : 0.001 g
Equivalent Weight : 0.000 g/eq.
Density : 0.000 g/cm3
Volume (V) : 0.001 cm³
Record Ece
Cycle Definition : Charge/Discharge alternance
Mode                Single sine
E (V)               0.0000
vs.                 Eoc
tE (h:m:s)          0:00:0.0000
record              0
dI                  0.000
unit dI             mA
dt (s)              0.000
fi                  100.000
unit fi             kHz
ff                  10.000
unit ff             mHz
Nd                  6
Points              per decade
spacing             Logarithmic
Va (mV)             5.0
pw                  0.10
Na                  2
corr                0
E range min (V)     -10.000
E range max (V)     10.000
I Range             Auto
Bandwidth           5
nc cycles           0
goto Ns'            0
nr cycles           0
inc. cycle          0

freq/Hz	Re(Z)/Ohm	-Im(Z)/Ohm	|Z|/Ohm	Phase(Z)/deg	time/s	<Ewe>/V	<I>/mA	Cs/µF	Cp/µF	cycle number	I Range	|Ewe|/V	|I|/A	Ns	(Q-Qo)/mA.h	<Ece>/V	|Ece|/V	Phase(Zce)/deg	|Zce|/Ohm	Re(Zce)/Ohm	-Im(Zce)/Ohm	Phase(Zwe-ce)/deg	|Zwe-ce|/Ohm	Re(Zwe-ce)/Ohm	-Im(Zwe-ce)/Ohm	Re(Y)/Ohm-1	Im(Y)/Ohm-1	|Y|/Ohm-1	Phase(Y)/deg	Re(C)/nF	Im(C)/nF	|C|/nF	Phase(C)/deg	Re(M)	Im(M)	|M|	Phase(M)/deg	Re(Permittivity)	Im(Permittivity)	|Permittivity|	Phase(Permittivity)/deg	Re(Resistivity)/Ohm.cm	Im(Resistivity)/Ohm.cm	|Resistivity|/Ohm.cm	Phase(Resistivity)/deg	Re(Conductivity)/mS/cm	Im(Conductivity)/mS/cm	|Conductivity|/mS/cm	Phase(Conductivity)/deg	Tan(Delta)	Loss Angle(Delta)/deg	dq/mA.h	Pwe/W	Pce/W	Pwe-ce/W	<Ewe-Ece>/V	Rwe/Ohm	Rce/Ohm	Rwe-ce/Ohm		Ewe-Ece/V
100004	2.01465	0.965501	2.23406	-25.6056	1.91052	0.212835	0.0128071	1.64836	0.307871	1	9	0.00459901	0.00205859	0	-5.31178e-07	0.000129508	3.33509e-05	80.1555	0.0162008	0.00276992	-0.0159623	-25.205	2.22971	2.01742	0.949539	0.403656	0.193448	0.447616	25.6056	307.871	642.415	712.377	-64.3944	0.0000000E+000	0.0000000E+000	0.0000000E+000	64.3944	0.0000000E+000	0.0000000E+000	0.0000000E+000	-64.3944	0.0000000E+000	0.0000000E+000	0.0000000E+000	-25.6056	0.0000000E+000	0.0000000E+000	0.0000000E+000	25.6056	2.08664	64.3944	-5.31178e-07	2.72581e-06	1.65863e-09	2.72415e-06	0.212706	16618.5	10.1122	16608.4
68132	2.28166	1.16773	2.56311	-27.1029	2.41755	0.212813	0.00450039	2.00044	0.415217	1	9	0.00506549	0.0019763	0	-4.45334e-06	5.31158e-05	2.47927e-05	57.0492	0.012545	0.00682344	-0.010527	-26.8241	2.56442	2.28848	1.1572	0.347308	0.177749	0.39015	27.1029	415.217	811.303	911.382	-62.8971	0.0000000E+000	0.0000000E+000	0.0000000E+000	62.8971	0.0000000E+000	0.0000000E+000	0.0000000E+000	-62.8971	0.0000000E+000	0.0000000E+000	0.0000000E+000	-27.1029	0.0000000E+000	0.0000000E+000	0.0000000E+000	27.1029	1.95393	62.8971	-3.92216e-06	9.57742e-07	2.39042e-10	9.57503e-07	0.21276	47287.7	11.8025	47275.9
46420.4	2.62189	1.35232	2.9501	-27.2839	2.92455	0.212807	0.00271239	2.53531	0.532746	1	9	0.00512433	0.001737	0	-1.96233e-06	-0.000137865	1.7992e-05	20.6968	0.0103581	0.00968958	-0.00366077	-27.1348	2.95704	2.63158	1.34866	0.30126	0.155385	0.338972	27.2839	532.746	1032.89	1162.19	-62.7161	0.0000000E+000	0.0000000E+000	0.0000000E+000	62.7161	0.0000000E+000	0.0000000E+000	0.0000000E+000	-62.7161	0.0000000E+000	0.0000000E+000	0.0000000E+000	-27.2839	0.0000000E+000	0.0000000E+000	0.0000000E+000	27.2839	1.9388	62.7161	2.49101e-06	5.77215e-07	-3.73943e-10	5.77589e-07	0.212945	78457.2	50.8277	78508
31621.1	3.01252	1.51238	3.37084	-26.658	3.30754	0.212805	0.00308489	3.328	0.669925	1	9	0.00534453	0.00158552	0	-3.02041e-07	7.22138e-05	8.3163e-06	-0.874393	0.00524516	0.00524455	8.00434e-05	-26.6193	3.37556	3.01776	1.51246	0.265127	0.133102	0.296662	26.658	669.925	1334.43	1493.15	-63.342	0.0000000E+000	0.0000000E+000	0.0000000E+000	63.342	0.0000000E+000	0.0000000E+000	0.0000000E+000	-63.342	0.0000000E+000	0.0000000E+000	0.0000000E+000	-26.658	0.0000000E+000	0.0000000E+000	0.0000000E+000	26.658	1.99191	63.342	1.66029e-06	6.56478e-07	2.22771e-10	6.56255e-07	0.212732	68983	23.4089	68959.6
21544.7	3.43646	1.62805	3.8026	-25.3496	3.69053	0.212805	-0.000640112	4.53747	0.831736	1	9	0.00496918	0.00130678	0	8.47486e-07	0.000224998	1.00118e-05	-75.1915	0.00766144	0.00195818	0.00740697	-25.4377	3.80755	3.43842	1.63545	0.237656	0.112591	0.262978	25.3496	831.736	1755.62	1942.67	-64.6504	0.0000000E+000	0.0000000E+000	0.0000000E+000	64.6504	0.0000000E+000	0.0000000E+000	0.0000000E+000	-64.6504	0.0000000E+000	0.0000000E+000	0.0000000E+000	-25.3496	0.0000000E+000	0.0000000E+000	0.0000000E+000	25.3496	2.11079	64.6504	1.14953e-06	-1.36219e-07	-1.44024e-10	-1.36075e-07	0.21258	332449	351.498	332097
14678.6	3.89458	1.69972	4.24933	-23.578	3.95153	0.212818	0.00565512	6.37907	1.02064	1	9	0.00476143	0.00112051	0	1.25127e-06	1.49197e-05	8.78961e-06	-30.1057	0.00784428	0.0067861	0.00393467	-23.59	4.25713	3.90137	1.70366	0.215685	0.0941318	0.235331	23.578	1020.64	2338.59	2551.61	-66.422	0.0000000E+000	0.0000000E+000	0.0000000E+000	66.422	0.0000000E+000	0.0000000E+000	0.0000000E+000	-66.422	0.0000000E+000	0.0000000E+000	0.0000000E+000	-23.578	0.0000000E+000	0.0000000E+000	0.0000000E+000	23.578	2.2913	66.422	4.0378e-07	1.20351e-06	8.43729e-11	1.20343e-06	0.212803	37632.8	2.63827	37630.2
10002.2	4.31931	1.71927	4.64891	-21.7046	4.49055	0.212852	-0.0148883	9.25507	1.2658	1	10	0.00492375	0.00105912	0	-4.03928e-07	-0.000176061	6.59133e-06	-47.4874	0.00622341	0.00420548	0.00458745	-21.7379	4.65451	4.32352	1.72386	0.199854	0.0795502	0.215104	21.7046	1265.8	3180.07	3422.73	-68.2954	0.0000000E+000	0.0000000E+000	0.0000000E+000	68.2954	0.0000000E+000	0.0000000E+000	0.0000000E+000	-68.2954	0.0000000E+000	0.0000000E+000	0.0000000E+000	-21.7046	0.0000000E+000	0.0000000E+000	0.0000000E+000	21.7046	2.5123	68.2954	-1.65519e-06	-3.169e-06	2.62124e-09	-3.17162e-06	0.213028	14296.7	11.8255	14308.5
6810.42	4.7197	1.76207	5.0379	-20.4728	4.74956	0.212867	-0.0134349	13.2624	1.62245	1	10	0.00511852	0.001016	0	-8.49664e-07	-9.96685e-05	3.46292e-05	-70.8421	0.0340838	0.0111853	0.0321962	-20.7701	5.05971	4.73088	1.79427	0.185958	0.0694263	0.198495	20.4728	1622.45	4345.72	4638.7	-69.5272	0.0000000E+000	0.0000000E+000	0.0000000E+000	69.5272	0.0000000E+000	0.0000000E+000	0.0000000E+000	-69.5272	0.0000000E+000	0.0000000E+000	0.0000000E+000	-20.4728	0.0000000E+000	0.0000000E+000	0.0000000E+000	20.4728	2.6785	69.5272	-4.45736e-07	-2.85984e-06	1.33904e-09	-2.86118e-06	0.212966	15844.3	7.41862	15851.7
4646	5.12555	1.83072	5.44268	-19.6555	5.01563	0.212836	-0.0206234	18.7119	2.11708	1	10	0.00514414	0.000945149	0	-2.97427e-06	0.000148606	8.84785e-06	-68.7838	0.00936133	0.00338776	0.00872683	-19.7299	5.44881	5.12894	1.83945	0.173027	0.0618011	0.183733	19.6555	2117.08	5927.28	6294.02	-70.3445	0.0000000E+000	0.0000000E+000	0.0000000E+000	70.3445	0.0000000E+000	0.0000000E+000	0.0000000E+000	-70.3445	0.0000000E+000	0.0000000E+000	0.0000000E+000	-19.6555	0.0000000E+000	0.0000000E+000	0.0000000E+000	19.6555	2.79974	70.3445	-2.12461e-06	-4.38941e-06	-3.06477e-09	-4.38635e-06	0.212688	10320.1	7.20569	10312.9
3163.08	5.50024	1.94494	5.83399	-19.4741	5.38868	0.212746	-0.0171503	25.8705	2.87531	1	10	0.00510245	0.000874607	0	-4.3374e-06	5.31158e-05	7.71474e-06	-22.4754	0.00882081	0.00815082	0.00337208	-19.4786	5.8428	5.50839	1.94831	0.161603	0.0571444	0.171409	19.4741	2875.3	8131.31	8624.71	-70.5259	0.0000000E+000	0.0000000E+000	0.0000000E+000	70.5259	0.0000000E+000	0.0000000E+000	0.0000000E+000	-70.5259	0.0000000E+000	0.0000000E+000	0.0000000E+000	-19.4741	0.0000000E+000	0.0000000E+000	0.0000000E+000	19.4741	2.82798	70.5259	-1.36313e-06	-3.64865e-06	-9.10951e-10	-3.64774e-06	0.212693	12404.8	3.09708	12401.7
2155.69	5.88849	2.11473	6.25671	-19.7547	5.83978	0.212805	0.000528505	34.9124	3.98838	1	10	0.00506169	0.000809002	0	-4.93884e-06	3.40178e-05	1.74201e-06	117.336	0.00215328	-0.000988798	-0.00191282	-19.7413	6.25513	5.8875	2.11281	0.150422	0.054021	0.159829	19.7547	3988.38	11105.7	11800.2	-70.2453	0.0000000E+000	0.0000000E+000	0.0000000E+000	70.2453	0.0000000E+000	0.0000000E+000	0.0000000E+000	-70.2453	0.0000000E+000	0.0000000E+000	0.0000000E+000	-19.7547	0.0000000E+000	0.0000000E+000	0.0000000E+000	19.7547	2.78452	70.2453	-6.01438e-07	1.12469e-07	1.79785e-11	1.12451e-07	0.212771	402656	64.3661	402591
1468.59	6.29268	2.39539	6.73318	-20.84	6.29106	0.21281	-0.000768341	45.2422	5.72606	1	10	0.00502361	0.000746098	0	-4.45606e-06	0.000129508	5.1022e-06	151.325	0.00683851	-0.0059998	-0.00328141	-20.832	6.7264	6.28668	2.39211	0.138802	0.0528368	0.148518	20.84	5726.06	15042.3	16095.3	-69.16	0.0000000E+000	0.0000000E+000	0.0000000E+000	69.16	0.0000000E+000	0.0000000E+000	0.0000000E+000	-69.16	0.0000000E+000	0.0000000E+000	0.0000000E+000	-20.84	0.0000000E+000	0.0000000E+000	0.0000000E+000	20.84	2.62699	69.16	4.82777e-07	-1.6351e-07	-9.95063e-11	-1.63411e-07	0.21268	276973	168.555	276804
1000.32	6.74298	2.78348	7.2949	-22.4307	6.74283	0.212797	-0.00122299	57.1601	8.32205	1	10	0.0049941	0.000684602	0	-4.20083e-06	0.000167704	7.92272e-06	96.9358	0.0115727	-0.00139749	-0.0114881	-22.3514	7.28923	6.74158	2.77199	0.126711	0.0523057	0.137082	22.4307	8322.05	20160.2	21810.3	-67.5693	0.0000000E+000	0.0000000E+000	0.0000000E+000	67.5693	0.0000000E+000	0.0000000E+000	0.0000000E+000	-67.5693	0.0000000E+000	0.0000000E+000	0.0000000E+000	-22.4307	0.0000000E+000	0.0000000E+000	0.0000000E+000	22.4307	2.4225	67.5693	2.55234e-07	-2.60248e-07	-2.051e-10	-2.60043e-07	0.212629	173998	137.127	173861
681.09	7.29664	3.3216	8.01711	-24.4761	7.19354	0.212794	-0.000693814	70.3507	12.0761	1	10	0.00497031	0.000619963	0	-3.89116e-06	0.00011041	8.47876e-06	64.2123	0.0136762	0.00594967	-0.0123142	-24.3784	8.01743	7.30259	3.30929	0.113524	0.0516788	0.124733	24.4761	12076.1	26527.9	29147.3	-65.5239	0.0000000E+000	0.0000000E+000	0.0000000E+000	65.5239	0.0000000E+000	0.0000000E+000	0.0000000E+000	-65.5239	0.0000000E+000	0.0000000E+000	0.0000000E+000	-24.4761	0.0000000E+000	0.0000000E+000	0.0000000E+000	24.4761	2.19672	65.5239	3.09668e-07	-1.47639e-07	-7.66039e-11	-1.47563e-07	0.212683	306701	159.135	306542
463.961	8.00963	4.03669	8.96934	-26.7472	7.64537	0.212791	0.000502406	84.9793	17.2125	1	10	0.00496214	0.000553234	0	-3.89226e-06	-9.96685e-05	4.55105e-06	-13.6478	0.00822627	0.007994	0.00194102	-26.7353	8.97736	8.01763	4.03864	0.0995615	0.050177	0.111491	26.7472	17212.5	34153.1	38245.3	-63.2528	0.0000000E+000	0.0000000E+000	0.0000000E+000	63.2528	0.0000000E+000	0.0000000E+000	0.0000000E+000	-63.2528	0.0000000E+000	0.0000000E+000	0.0000000E+000	-26.7472	0.0000000E+000	0.0000000E+000	0.0000000E+000	26.7472	1.98421	63.2528	-1.0965e-09	1.06908e-07	-5.00741e-11	1.06958e-07	0.212891	423544	198.382	423742
316.316	8.96331	4.93801	10.2335	-28.851	8.09304	0.212812	-0.000339793	101.894	23.7247	1	10	0.00494569	0.000483284	0	-3.67049e-06	0.000167704	1.04083e-05	-53.9685	0.0215366	0.0126685	0.0174165	-28.9021	10.253	8.97598	4.95543	0.0855891	0.0471522	0.0977181	28.851	23724.7	43064.3	49167	-61.149	0.0000000E+000	0.0000000E+000	0.0000000E+000	61.149	0.0000000E+000	0.0000000E+000	0.0000000E+000	-61.149	0.0000000E+000	0.0000000E+000	0.0000000E+000	-28.851	0.0000000E+000	0.0000000E+000	0.0000000E+000	28.851	1.81517	61.149	2.21769e-07	-7.2312e-08	-5.69847e-11	-7.2255e-08	0.212644	626298	493.547	625804
215.345	10.2979	5.94734	11.8919	-30.0076	8.54354	0.212814	-0.000555936	124.269	31.0816	1	10	0.00493302	0.000414821	0	-3.22865e-06	7.22138e-05	4.27836e-06	-117.06	0.0103138	-0.00469199	0.00918471	-30.0573	11.8925	10.2932	5.95653	0.072819	0.042055	0.0840906	30.0076	31081.7	53818.4	62148.9	-59.9924	0.0000000E+000	0.0000000E+000	0.0000000E+000	59.9924	0.0000000E+000	0.0000000E+000	0.0000000E+000	-59.9924	0.0000000E+000	0.0000000E+000	0.0000000E+000	-30.0076	0.0000000E+000	0.0000000E+000	0.0000000E+000	30.0076	1.73152	59.9924	4.41841e-07	-1.18311e-07	-4.01462e-11	-1.18271e-07	0.212742	382803	129.896	382673
146.737	12.1427	6.84105	13.9372	-29.3964	8.9895	0.212809	-0.000671463	158.546	38.1991	1	10	0.00493942	0.000354406	0	-3.33141e-06	0.000167704	5.00458e-06	1.67042	0.014121	0.014115	-0.00041163	-29.3665	13.9493	12.1568	6.84064	0.0625123	0.0352187	0.0717506	29.3964	38199.1	67802.4	77822.5	-60.6036	0.0000000E+000	0.0000000E+000	0.0000000E+000	60.6036	0.0000000E+000	0.0000000E+000	0.0000000E+000	-60.6036	0.0000000E+000	0.0000000E+000	0.0000000E+000	-29.3964	0.0000000E+000	0.0000000E+000	0.0000000E+000	29.3964	1.77497	60.6036	-1.02762e-07	-1.42894e-07	-1.12607e-10	-1.42781e-07	0.212642	316934	249.759	316684
100.032	14.4407	7.44319	16.2461	-27.268	9.44085	0.212807	-0.000157198	213.758	44.8688	1	10	0.00493516	0.000303776	0	-3.39265e-06	5.31158e-05	6.84681e-06	-13.1758	0.022539	0.0219457	0.00513751	-27.2487	16.2679	14.4626	7.44833	0.0547132	0.0282009	0.0615534	27.268	44868.8	87050.8	97933.9	-62.732	0.0000000E+000	0.0000000E+000	0.0000000E+000	62.732	0.0000000E+000	0.0000000E+000	0.0000000E+000	-62.732	0.0000000E+000	0.0000000E+000	0.0000000E+000	-27.268	0.0000000E+000	0.0000000E+000	0.0000000E+000	27.268	1.94012	62.732	-6.12467e-08	-3.34528e-08	-8.3497e-12	-3.34445e-08	0.212754	1.35375e+06	337.891	1.35341e+06
68.104	16.9715	7.50302	18.5561	-23.8499	9.90344	0.212821	0.00273088	311.466	50.9226	1	10	0.00493667	0.00026604	0	-3.15331e-06	0.00030139	9.21065e-06	19.2345	0.0346213	0.0326886	-0.0114055	-23.777	18.5814	17.0042	7.49162	0.0492888	0.0217903	0.0538906	23.8499	50922.6	115185	125939	-66.1501	0.0000000E+000	0.0000000E+000	0.0000000E+000	66.1501	0.0000000E+000	0.0000000E+000	0.0000000E+000	-66.1501	0.0000000E+000	0.0000000E+000	0.0000000E+000	-23.8499	0.0000000E+000	0.0000000E+000	0.0000000E+000	23.8499	2.26196	66.1501	2.39343e-07	5.8119e-07	8.23061e-10	5.80367e-07	0.21252	77931.4	110.364	77821
46.4415	19.3536	6.88162	20.5406	-19.574	10.5797	0.212865	-0.00285808	497.993	55.8954	1	11	0.0049341	0.000240212	0	-4.25175e-06	9.13119e-05	7.43333e-06	112.131	0.0309449	-0.0116579	-0.028665	-19.5095	20.5201	19.3419	6.85295	0.0458705	0.0163103	0.048684	19.574	55895.4	157198	166840	-70.426	0.0000000E+000	0.0000000E+000	0.0000000E+000	70.426	0.0000000E+000	0.0000000E+000	0.0000000E+000	-70.426	0.0000000E+000	0.0000000E+000	0.0000000E+000	-19.574	0.0000000E+000	0.0000000E+000	0.0000000E+000	19.574	2.81236	70.426	-1.09844e-06	-6.08384e-07	-2.60977e-10	-6.08123e-07	0.212773	74478.1	31.9487	74446.2
31.6296	21.2624	5.86911	22.0576	-15.4312	11.0085	0.212843	-0.00344267	857.343	60.6994	1	11	0.00492938	0.000223478	0	-4.20308e-06	5.31158e-05	4.15401e-06	-45.9548	0.018588	0.0129229	0.0133609	-15.4557	22.0736	21.2753	5.88247	0.0437016	0.0120631	0.0453359	15.4312	60699.4	219900	228123	-74.5688	0.0000000E+000	0.0000000E+000	0.0000000E+000	74.5688	0.0000000E+000	0.0000000E+000	0.0000000E+000	-74.5688	0.0000000E+000	0.0000000E+000	0.0000000E+000	-15.4312	0.0000000E+000	0.0000000E+000	0.0000000E+000	15.4312	3.62276	74.5688	4.8666e-08	-7.32749e-07	-1.8286e-10	-7.32566e-07	0.21279	61825.2	15.4287	61809.7
21.5517	22.65	4.74758	23.1422	-11.8382	11.4295	0.212833	-0.00366128	1555.49	65.4637	1	11	0.00493448	0.000213224	0	-4.4441e-06	-6.14724e-05	3.90284e-06	10.5626	0.0183039	0.0179938	-0.0033553	-11.8209	23.1591	22.668	4.74422	0.042292	0.00886467	0.0432111	11.8382	65463.7	312318	319105	-78.1618	0.0000000E+000	0.0000000E+000	0.0000000E+000	78.1618	0.0000000E+000	0.0000000E+000	0.0000000E+000	-78.1618	0.0000000E+000	0.0000000E+000	0.0000000E+000	-11.8382	0.0000000E+000	0.0000000E+000	0.0000000E+000	11.8382	4.77085	78.1618	-2.41018e-07	-7.7924e-07	2.25068e-10	-7.79465e-07	0.212894	58130.6	16.7899	58147.4
14.6852	23.5419	3.67599	23.8272	-8.87488	11.8902	0.212843	-0.00286703	2948.27	70.1732	1	11	0.00493319	0.00020704	0	-3.88354e-06	-0.000156963	1.05587e-05	-39.8243	0.0509981	0.0391672	0.032661	-8.93784	23.8709	23.5811	3.70865	0.0414664	0.00647485	0.0419689	8.87488	70173.2	449405	454851	-81.1251	0.0000000E+000	0.0000000E+000	0.0000000E+000	81.1251	0.0000000E+000	0.0000000E+000	0.0000000E+000	-81.1251	0.0000000E+000	0.0000000E+000	0.0000000E+000	-8.87488	0.0000000E+000	0.0000000E+000	0.0000000E+000	8.87488	6.40423	81.1251	5.60556e-07	-6.10228e-07	4.50017e-10	-6.10678e-07	0.213	74238	54.7474	74292.7
10.0032	24.1316	2.77513	24.2907	-6.56018	12.3408	0.212839	-0.00294165	5733.21	74.8316	1	11	0.0049322	0.000203049	0	-5.66197e-06	0.000244096	7.87411e-06	-14.9956	0.0387793	0.0374587	0.0100339	-6.57357	24.329	24.1691	2.78516	0.0408985	0.00470331	0.0411681	6.56018	74831.6	650712	655000	-83.4398	0.0000000E+000	0.0000000E+000	0.0000000E+000	83.4398	0.0000000E+000	0.0000000E+000	0.0000000E+000	-83.4398	0.0000000E+000	0.0000000E+000	0.0000000E+000	-6.56018	0.0000000E+000	0.0000000E+000	0.0000000E+000	6.56018	8.69568	83.4398	-1.77842e-06	-6.26098e-07	-7.18045e-10	-6.2538e-07	0.212595	72353.8	82.9794	72270.8
6.81719	24.484	2.13311	24.5768	-4.97918	12.6805	0.212845	-0.00328113	10944.7	82.4476	1	11	0.00492816	0.000200521	0	-4.07559e-06	0.000244096	4.34935e-06	-50.6683	0.0216902	0.0137475	0.0167772	-5.01534	24.5919	24.4978	2.14988	0.0405353	0.00353153	0.0406888	4.97918	82447.6	946342	949927	-85.0208	0.0000000E+000	0.0000000E+000	0.0000000E+000	85.0208	0.0000000E+000	0.0000000E+000	0.0000000E+000	-85.0208	0.0000000E+000	0.0000000E+000	0.0000000E+000	-4.97918	0.0000000E+000	0.0000000E+000	0.0000000E+000	4.97918	11.4781	85.0208	1.58637e-06	-6.98371e-07	-8.00912e-10	-6.9757e-07	0.2126	64869.2	74.3939	64794.8
4.63925	24.7208	1.65315	24.776	-3.82584	13.1644	0.212837	-0.00262902	20752	92.3896	1	11	0.00492301	0.000198701	0	-5.26398e-06	0.0002059	6.99769e-06	-34.9078	0.0352172	0.0288807	0.0201533	-3.86784	24.8061	24.7496	1.6733	0.0402717	0.00269309	0.0403617	3.82584	92389.6	1.38157e+06	1.38465e+06	-86.1742	0.0000000E+000	0.0000000E+000	0.0000000E+000	86.1742	0.0000000E+000	0.0000000E+000	0.0000000E+000	-86.1742	0.0000000E+000	0.0000000E+000	0.0000000E+000	-3.82584	0.0000000E+000	0.0000000E+000	0.0000000E+000	3.82584	14.9537	86.1742	-1.18839e-06	-5.59553e-07	-5.41316e-10	-5.59011e-07	0.212631	80956.6	78.3181	80878.3
3.1604	24.9186	1.36535	24.956	-3.13625	13.8574	0.212843	-0.00240705	36883.6	110.402	1	11	0.0049329	0.000197664	0	-8.37102e-06	0.000148606	4.14197e-06	56.5246	0.0209546	0.0115581	-0.0174787	-3.09475	24.9666	24.9301	1.34788	0.0400106	0.00219228	0.0400706	3.13625	110401	2.0149e+06	2.01792e+06	-86.8638	0.0000000E+000	0.0000000E+000	0.0000000E+000	86.8638	0.0000000E+000	0.0000000E+000	0.0000000E+000	-86.8638	0.0000000E+000	0.0000000E+000	0.0000000E+000	-3.13625	0.0000000E+000	0.0000000E+000	0.0000000E+000	3.13625	18.2506	86.8638	-3.10703e-06	-5.12323e-07	-3.57702e-10	-5.11965e-07	0.212694	88424.6	61.7378	88362.9
2.15577	25.0662	1.1679	25.0934	-2.66763	14.861	0.212844	-0.00222668	63213.9	136.932	1	11	0.00493261	0.00019657	0	-9.51859e-06	0.000339586	3.04871e-06	-34.7289	0.0155095	0.0127466	0.00883569	-2.68642	25.1065	25.079	1.17674	0.0398079	0.00185475	0.0398511	2.66763	136932	2.93892e+06	2.94211e+06	-87.3324	0.0000000E+000	0.0000000E+000	0.0000000E+000	87.3324	0.0000000E+000	0.0000000E+000	0.0000000E+000	-87.3324	0.0000000E+000	0.0000000E+000	0.0000000E+000	-2.66763	0.0000000E+000	0.0000000E+000	0.0000000E+000	2.66763	21.4626	87.3324	-1.14757e-06	-4.73935e-07	-7.56149e-10	-4.73179e-07	0.212504	95588.2	152.508	95435.7
1.46631	25.1848	1.08904	25.2083	-2.47605	16.3225	0.212842	-0.00243521	99666.5	186.017	1	11	0.00493062	0.000195595	0	-7.05583e-06	0.000167704	4.47633e-06	-67.6476	0.0228857	0.00870348	0.0211661	-2.52324	25.2179	25.1935	1.11021	0.0396324	0.00171379	0.0396694	2.47605	186017	4.30175e+06	4.30577e+06	-87.5239	0.0000000E+000	0.0000000E+000	0.0000000E+000	87.5239	0.0000000E+000	0.0000000E+000	0.0000000E+000	-87.5239	0.0000000E+000	0.0000000E+000	0.0000000E+000	-2.47605	0.0000000E+000	0.0000000E+000	0.0000000E+000	2.47605	23.1256	87.5239	2.46277e-06	-5.18315e-07	-4.08395e-10	-5.17906e-07	0.212674	87401.7	68.8663	87332.8
1.00006	25.3206	1.08477	25.3438	-2.45313	19.497	0.21284	-0.00249451	146709	268.774	1	12	0.00493456	0.000194705	0	-2.49964e-06	0.000167704	3.04263e-06	60.175	0.0156269	0.00777205	-0.0135571	-2.42177	25.351	25.3283	1.07121	0.0394213	0.00168886	0.0394574	2.45313	268774	6.27369e+06	6.27944e+06	-87.5469	0.0000000E+000	0.0000000E+000	0.0000000E+000	87.5469	0.0000000E+000	0.0000000E+000	0.0000000E+000	-87.5469	0.0000000E+000	0.0000000E+000	0.0000000E+000	-2.45313	0.0000000E+000	0.0000000E+000	0.0000000E+000	2.45313	23.3419	87.5469	4.55619e-06	-5.30932e-07	-4.1834e-10	-5.30513e-07	0.212672	85323.3	67.2292	85256
0.681362	25.4818	1.17535	25.5089	-2.6409	22.6092	0.212838	-0.00198953	198735	421.917	1	12	0.00493418	0.00019343	0	-7.97254e-07	-4.23744e-05	2.88762e-06	19.0916	0.0149285	0.0141074	-0.00488281	-2.62849	25.5227	25.4959	1.17047	0.0391604	0.00180628	0.039202	2.6409	421916	9.14722e+06	9.15695e+06	-87.3591	0.0000000E+000	0.0000000E+000	0.0000000E+000	87.3591	0.0000000E+000	0.0000000E+000	0.0000000E+000	-87.3591	0.0000000E+000	0.0000000E+000	0.0000000E+000	-2.6409	0.0000000E+000	0.0000000E+000	0.0000000E+000	2.6409	21.6802	87.3591	1.70238e-06	-4.23448e-07	8.4305e-11	-4.23532e-07	0.212881	106979	21.2987	107001
0.464091	25.6464	1.40524	25.6849	-3.13626	27.1657	0.212843	-0.000944621	244044	730.486	1	12	0.00493298	0.000192058	0	-6.4247e-06	0.000244096	3.13655e-06	63.2118	0.0163313	0.00736042	-0.0145786	-3.1029	25.6914	25.6538	1.39066	0.0388751	0.00213007	0.0389334	3.13626	730487	1.33318e+07	1.33518e+07	-86.8637	0.0000000E+000	0.0000000E+000	0.0000000E+000	86.8637	0.0000000E+000	0.0000000E+000	0.0000000E+000	-86.8637	0.0000000E+000	0.0000000E+000	0.0000000E+000	-3.13626	0.0000000E+000	0.0000000E+000	0.0000000E+000	3.13626	18.2506	86.8637	-5.62745e-06	-2.01056e-07	-2.30578e-10	-2.00825e-07	0.212599	225321	258.406	225062
0.316193	25.8393	1.69421	25.8947	-3.75136	33.8419	0.212843	-0.000607756	297099	1271.78	1	12	0.0049329	0.000190498	0	-2.31663e-05	-0.000156963	3.47303e-06	11.4878	0.0182313	0.0178661	-0.00363095	-3.74076	25.9123	25.8571	1.69058	0.0385351	0.00252664	0.0386179	3.75136	1.27178e+06	1.93966e+07	1.94382e+07	-86.2486	0.0000000E+000	0.0000000E+000	0.0000000E+000	86.2486	0.0000000E+000	0.0000000E+000	0.0000000E+000	-86.2486	0.0000000E+000	0.0000000E+000	0.0000000E+000	-3.75136	0.0000000E+000	0.0000000E+000	0.0000000E+000	3.75136	15.2515	86.2486	-1.67416e-05	-1.29357e-07	9.53949e-11	-1.29452e-07	0.213	350211	258.266	350470
0.215268	26.0973	2.1106	26.1825	-4.62369	43.6353	0.212845	-0.00126641	350297	2276.28	1	12	0.00493338	0.000188423	0	-5.02903e-05	0.000129508	3.35518e-06	-19.7664	0.0178066	0.0167575	0.00602195	-4.63386	26.1996	26.114	2.11662	0.0380692	0.00307882	0.0381935	4.62369	2.27628e+06	2.81459e+07	2.82378e+07	-85.3763	0.0000000E+000	0.0000000E+000	0.0000000E+000	85.3763	0.0000000E+000	0.0000000E+000	0.0000000E+000	-85.3763	0.0000000E+000	0.0000000E+000	0.0000000E+000	-4.62369	0.0000000E+000	0.0000000E+000	0.0000000E+000	4.62369	12.3649	85.3763	-2.71241e-05	-2.6955e-07	-1.6401e-10	-2.69386e-07	0.212716	168070	102.264	167967
0.146929	26.453	2.70001	26.5905	-5.82788	57.9737	0.212841	-0.0026363	401189	4136.43	1	12	0.00493137	0.000185456	0	-8.14684e-05	-4.23744e-05	1.49042e-06	-63.2029	0.00803651	0.00362312	0.00717346	-5.84246	26.5948	26.4567	2.70718	0.0374131	0.00381867	0.0376075	5.82788	4.13643e+06	4.05263e+07	4.07368e+07	-84.1721	0.0000000E+000	0.0000000E+000	0.0000000E+000	84.1721	0.0000000E+000	0.0000000E+000	0.0000000E+000	-84.1721	0.0000000E+000	0.0000000E+000	0.0000000E+000	-5.82788	0.0000000E+000	0.0000000E+000	0.0000000E+000	5.82788	9.7974	84.1721	-3.1178e-05	-5.61112e-07	1.11712e-10	-5.61224e-07	0.212883	80734.7	16.0734	80750.7
0.0999041	26.902	3.60427	27.1424	-7.63091	79.0498	0.212848	-0.00332005	441997	7793.95	1	12	0.00492899	0.000181597	0	-9.95442e-05	7.22138e-05	1.36441e-06	17.6727	0.00751337	0.00715878	-0.00228091	-7.62414	27.1492	26.9092	3.60199	0.0365164	0.00489239	0.0368427	7.63091	7.79395e+06	5.81735e+07	5.86933e+07	-82.3691	0.0000000E+000	0.0000000E+000	0.0000000E+000	82.3691	0.0000000E+000	0.0000000E+000	0.0000000E+000	-82.3691	0.0000000E+000	0.0000000E+000	0.0000000E+000	-7.63091	0.0000000E+000	0.0000000E+000	0.0000000E+000	7.63091	7.46393	82.3691	-1.80759e-05	-7.06666e-07	-2.39754e-10	-7.06426e-07	0.212776	64109.8	21.7508	64088
0.0680626	27.3501	4.84388	27.7758	-10.0433	109.976	0.212851	-0.00362061	482745	14681.6	1	12	0.00492985	0.000177488	0	-8.88775e-05	0.000358684	2.57192e-06	40.1848	0.0144907	0.0110704	-0.00935021	-10.0203	27.785	27.3612	4.83453	0.0354509	0.00627858	0.0360026	10.0433	1.46816e+07	8.2897e+07	8.41871e+07	-79.9567	0.0000000E+000	0.0000000E+000	0.0000000E+000	79.9567	0.0000000E+000	0.0000000E+000	0.0000000E+000	-79.9567	0.0000000E+000	0.0000000E+000	0.0000000E+000	-10.0433	0.0000000E+000	0.0000000E+000	0.0000000E+000	10.0433	5.64632	79.9567	1.06668e-05	-7.70651e-07	-1.29866e-09	-7.69353e-07	0.212493	58788.8	99.0674	58689.7
0.0464052	27.8877	6.33423	28.598	-12.7967	155.327	0.212854	-0.00263335	541451	26562.9	1	12	0.00493316	0.0001725	0	-2.0867e-05	-0.000176061	3.02581e-06	18.5116	0.0175409	0.0166334	-0.00556918	-12.7784	28.613	27.9044	6.32866	0.0340989	0.007745	0.0349674	12.7967	2.65629e+07	1.16948e+08	1.19927e+08	-77.2033	0.0000000E+000	0.0000000E+000	0.0000000E+000	77.2033	0.0000000E+000	0.0000000E+000	0.0000000E+000	-77.2033	0.0000000E+000	0.0000000E+000	0.0000000E+000	-12.7967	0.0000000E+000	0.0000000E+000	0.0000000E+000	12.7967	4.4027	77.2033	6.80105e-05	-5.6052e-07	4.6363e-10	-5.60983e-07	0.21303	80830.1	66.858	80897
0.0315922	28.8867	8.42682	30.0908	-16.263	221.933	0.212843	-0.00205121	597828	46885.4	1	12	0.00493135	0.000163883	0	7.76569e-05	0.000320488	1.68782e-06	-14.2921	0.010299	0.00998021	0.00254247	-16.2623	30.1011	28.8967	8.42937	0.031903	0.00930674	0.0332328	16.263	4.68854e+07	1.60721e+08	1.6742e+08	-73.737	0.0000000E+000	0.0000000E+000	0.0000000E+000	73.737	0.0000000E+000	0.0000000E+000	0.0000000E+000	-73.737	0.0000000E+000	0.0000000E+000	0.0000000E+000	-16.263	0.0000000E+000	0.0000000E+000	0.0000000E+000	16.263	3.42795	73.737	9.85239e-05	-4.36586e-07	-6.57388e-10	-4.35929e-07	0.212523	103765	156.244	103609
0.0215268	30.2657	11.5953	32.4109	-20.9627	319.672	0.212838	-0.00188945	637615	81609.8	1	12	0.00492889	0.000152075	0	0.000105409	0.00030139	1.24167e-06	-110.333	0.00816482	-0.00283713	0.00765605	-20.9771	32.4109	30.2629	11.603	0.0288118	0.0110383	0.0308539	20.9627	8.16098e+07	2.13015e+08	2.28113e+08	-69.0373	0.0000000E+000	0.0000000E+000	0.0000000E+000	69.0373	0.0000000E+000	0.0000000E+000	0.0000000E+000	-69.0373	0.0000000E+000	0.0000000E+000	0.0000000E+000	-20.9627	0.0000000E+000	0.0000000E+000	0.0000000E+000	20.9627	2.61017	69.0373	2.77521e-05	-4.02148e-07	-5.69463e-10	-4.01578e-07	0.212537	112645	159.512	112486
0.0146812	31.8822	15.8134	35.5885	-26.3811	462.974	0.21284	-0.00200936	685544	135352	1	12	0.004934	0.00013864	0	-7.8621e-05	0.000186802	2.46382e-06	38.5983	0.0177713	0.013889	-0.0110868	-26.3552	35.596	31.8961	15.8023	0.0251727	0.0124855	0.028099	26.3811	1.35352e+08	2.72891e+08	3.04614e+08	-63.6189	0.0000000E+000	0.0000000E+000	0.0000000E+000	63.6189	0.0000000E+000	0.0000000E+000	0.0000000E+000	-63.6189	0.0000000E+000	0.0000000E+000	0.0000000E+000	-26.3811	0.0000000E+000	0.0000000E+000	0.0000000E+000	26.3811	2.01616	63.6189	-0.00018403	-4.27672e-07	-3.75352e-10	-4.27296e-07	0.212653	105924	92.966	105831
0.0100092	34.2413	20.8749	40.1028	-31.3682	673.156	0.212837	-0.00254956	761723	206395	1	12	0.00493036	0.000122943	0	-0.000560096	-0.000137865	6.87753e-07	-48.2019	0.00559407	0.00372849	0.00417037	-31.3705	40.1081	34.2451	20.8791	0.0212913	0.0129801	0.0249359	31.3682	2.06395e+08	3.38551e+08	3.96504e+08	-58.6318	0.0000000E+000	0.0000000E+000	0.0000000E+000	58.6318	0.0000000E+000	0.0000000E+000	0.0000000E+000	-58.6318	0.0000000E+000	0.0000000E+000	0.0000000E+000	-31.3682	0.0000000E+000	0.0000000E+000	0.0000000E+000	31.3682	1.64031	58.6318	-0.000481476	-5.4264e-07	3.51494e-10	-5.42991e-07	0.212975	83479.9	54.0739	83534