File: txt/18944_R308_UA705_SOC00_C01.mpt
EC-Lab ASCII FILE
Nb header lines : 66

Potentio Electrochemical Impedance Spectroscopy

Run on channel : 1 (SN 66354)
Grouped channel(s) : 1, 2, 3, 4, 5
User :
CE vs. WE compliance from -10 V to 10 V
Electrode connection : standard
Potential control : Ewe
Ewe ctrl range : min = -10.00 V, max = 10.00 V
Safety Limits :
	Do not start on E overload
Acquisition started on : 11/04/2025 15:30:07.703
Loaded Setting File :  C:\Users\Celltest\OneDrive - store-dot.com\Documents\EC-Lab\Data\@Biologic Test Protocols\anode half cell EIS SOC00.mps
Saved on :
	File : 18944_R308_UA705_SOC00_C01.mpr
	Directory : C:\Users\Celltest\OneDrive - store-dot.com\Documents\EC-Lab\Data\Charmaine\
	Host : 169.254.61.224
Device : VMP-3e (SN .003165)
Address : USB
EC-LAB for windows v11.62 (software)
Internet server v27.00 (firmware)
Command interpretor v12.03 (firmware)
Electrode material :
Initial state :
Electrolyte :
Comments :
Electrode surface area : 0.001 cm²
Characteristic mass : 0.001 g
Equivalent Weight : 0.000 g/eq.
Density : 0.000 g/cm3
Volume (V) : 0.001 cm³
Record Ece
Cycle Definition : Charge/Discharge alternance
Mode                Single sine
E (V)               0.0000
vs.                 Eoc
tE (h:m:s)          0:00:0.0000
record              0
dI                  0.000
unit dI             mA
dt (s)              0.000
fi                  100.000
unit fi             kHz
ff                  10.000
unit ff             mHz
Nd                  6
Points              per decade
spacing             Logarithmic
Va (mV)             5.0
pw                  0.10
Na                  2
corr                0
E range min (V)     -10.000
E range max (V)     10.000
I Range             Auto
Bandwidth           5
nc cycles           0
goto Ns'            0
nr cycles           0
inc. cycle          0

freq/Hz	Re(Z)/Ohm	-Im(Z)/Ohm	|Z|/Ohm	Phase(Z)/deg	time/s	<Ewe>/V	<I>/mA	Cs/µF	Cp/µF	cycle number	I Range	|Ewe|/V	|I|/A	Ns	(Q-Qo)/mA.h	<Ece>/V	|Ece|/V	Phase(Zce)/deg	|Zce|/Ohm	Re(Zce)/Ohm	-Im(Zce)/Ohm	Phase(Zwe-ce)/deg	|Zwe-ce|/Ohm	Re(Zwe-ce)/Ohm	-Im(Zwe-ce)/Ohm	Re(Y)/Ohm-1	Im(Y)/Ohm-1	|Y|/Ohm-1	Phase(Y)/deg	Re(C)/nF	Im(C)/nF	|C|/nF	Phase(C)/deg	Re(M)	Im(M)	|M|	Phase(M)/deg	Re(Permittivity)	Im(Permittivity)	|Permittivity|	Phase(Permittivity)/deg	Re(Resistivity)/Ohm.cm	Im(Resistivity)/Ohm.cm	|Resistivity|/Ohm.cm	Phase(Resistivity)/deg	Re(Conductivity)/mS/cm	Im(Conductivity)/mS/cm	|Conductivity|/mS/cm	Phase(Conductivity)/deg	Tan(Delta)	Loss Angle(Delta)/deg	dq/mA.h	Pwe/W	Pce/W	Pwe-ce/W	<Ewe-Ece>/V	Rwe/Ohm	Rce/Ohm	Rwe-ce/Ohm		Ewe-Ece/V
100004	2.08966	1.47456	2.55754	-35.2085	1.76856	0.197459	0.0444398	1.0793	0.358774	1	9	0.00455245	0.00178001	0	3.7256e-06	2.95724e-05	3.38665e-05	102.626	0.019026	-0.00415883	-0.0185659	-34.9208	2.54347	2.0855	1.45599	0.319471	0.225433	0.391001	35.2085	358.774	508.435	622.274	-54.7915	0.0000000E+000	0.0000000E+000	0.0000000E+000	54.7915	0.0000000E+000	0.0000000E+000	0.0000000E+000	-54.7915	0.0000000E+000	0.0000000E+000	0.0000000E+000	-35.2085	0.0000000E+000	0.0000000E+000	0.0000000E+000	35.2085	1.41714	54.7915	3.7256e-06	8.77503e-06	1.31419e-09	8.77372e-06	0.197429	4443.28	0.665449	4442.62
68132	2.47273	1.80626	3.06218	-36.1472	2.27555	0.19743	0.0345674	1.29326	0.449974	1	9	0.00509188	0.00166283	0	1.33498e-05	0.000239423	2.33746e-05	71.3034	0.0140571	0.00450611	-0.0133153	-35.8959	3.058	2.47723	1.79295	0.263702	0.192628	0.326564	36.1472	449.974	616.002	762.847	-53.8528	0.0000000E+000	0.0000000E+000	0.0000000E+000	53.8528	0.0000000E+000	0.0000000E+000	0.0000000E+000	-53.8528	0.0000000E+000	0.0000000E+000	0.0000000E+000	-36.1472	0.0000000E+000	0.0000000E+000	0.0000000E+000	36.1472	1.36897	53.8528	9.62416e-06	6.82466e-06	8.27623e-09	6.81638e-06	0.197191	5711.45	6.92625	5704.53
46420.4	2.98325	2.20736	3.7111	-36.4983	2.78256	0.197436	0.0400066	1.55324	0.549516	1	9	0.00524381	0.00141301	0	1.68283e-05	0.000144036	2.67399e-05	5.18741	0.0189241	0.0188466	-0.001711	-36.3048	3.72525	3.0021	2.20565	0.216614	0.160276	0.269462	36.4983	549.516	742.673	923.867	-53.5017	0.0000000E+000	0.0000000E+000	0.0000000E+000	53.5017	0.0000000E+000	0.0000000E+000	0.0000000E+000	-53.5017	0.0000000E+000	0.0000000E+000	0.0000000E+000	-36.4983	0.0000000E+000	0.0000000E+000	0.0000000E+000	36.4983	1.3515	53.5017	3.47856e-06	7.89875e-06	5.7624e-09	7.89298e-06	0.197292	4935.1	3.60032	4931.5
31621.1	3.56435	2.53134	4.37176	-35.3817	3.16753	0.197423	0.0368399	1.98835	0.666624	1	9	0.00497238	0.00113739	0	2.16574e-05	-2.76595e-05	7.67343e-06	-27.3407	0.00674655	0.00599291	0.00309856	-35.3694	4.37844	3.57034	2.53444	0.186495	0.132446	0.228741	35.3817	666.624	938.665	1151.29	-54.6183	0.0000000E+000	0.0000000E+000	0.0000000E+000	54.6183	0.0000000E+000	0.0000000E+000	0.0000000E+000	-54.6183	0.0000000E+000	0.0000000E+000	0.0000000E+000	-35.3817	0.0000000E+000	0.0000000E+000	0.0000000E+000	35.3817	1.40809	54.6183	4.82906e-06	7.27303e-06	-1.01897e-09	7.27405e-06	0.19745	5358.93	0.750802	5359.68
21544.7	4.28107	2.88669	5.16338	-33.9914	3.83152	0.197532	-0.0148635	2.55906	0.799855	1	10	0.00497841	0.000964176	0	2.18418e-05	0.000277577	8.40095e-06	-33.0249	0.00871309	0.00730535	0.00474866	-33.9898	5.17209	4.28837	2.89143	0.160577	0.108276	0.193672	33.9914	799.855	1186.22	1430.69	-56.0086	0.0000000E+000	0.0000000E+000	0.0000000E+000	56.0086	0.0000000E+000	0.0000000E+000	0.0000000E+000	-56.0086	0.0000000E+000	0.0000000E+000	0.0000000E+000	-33.9914	0.0000000E+000	0.0000000E+000	0.0000000E+000	33.9914	1.48304	56.0086	1.84408e-07	-2.93601e-06	-4.12576e-09	-2.93189e-06	0.197255	13289.8	18.6751	13271.1
14678.6	5.06979	3.18143	5.98534	-32.1093	4.21452	0.197557	-0.0138237	3.40811	0.962898	1	10	0.00498976	0.000833663	0	2.04268e-05	0.000353887	5.72579e-06	-94.6987	0.00686824	-0.00056262	0.00684515	-32.1677	5.98851	5.06923	3.18827	0.141518	0.0888064	0.167075	32.1093	962.898	1534.43	1811.54	-57.8907	0.0000000E+000	0.0000000E+000	0.0000000E+000	57.8907	0.0000000E+000	0.0000000E+000	0.0000000E+000	-57.8907	0.0000000E+000	0.0000000E+000	0.0000000E+000	-32.1093	0.0000000E+000	0.0000000E+000	0.0000000E+000	32.1093	1.59356	57.8907	-1.41501e-06	-2.73096e-06	-4.89201e-09	-2.72607e-06	0.197203	14291.2	25.6001	14265.6
10002.2	5.90703	3.43925	6.83531	-30.2093	4.47353	0.197559	-0.0136485	4.62658	1.17131	1	10	0.00500103	0.000731646	0	2.00275e-05	-8.48914e-05	5.55013e-06	-70.6012	0.00758581	0.00251956	0.00715516	-30.2504	6.84109	5.90955	3.4464	0.126431	0.0736119	0.146299	30.2093	1171.31	2011.76	2327.91	-59.7907	0.0000000E+000	0.0000000E+000	0.0000000E+000	59.7907	0.0000000E+000	0.0000000E+000	0.0000000E+000	-59.7907	0.0000000E+000	0.0000000E+000	0.0000000E+000	-30.2093	0.0000000E+000	0.0000000E+000	0.0000000E+000	30.2093	1.71753	59.7907	-3.99254e-07	-2.69638e-06	1.15864e-09	-2.69754e-06	0.197644	14474.8	6.21984	14481
6810.42	6.79538	3.64237	7.71	-28.1916	4.73254	0.197534	-0.0151728	6.41597	1.43193	1	10	0.00487524	0.000632327	0	1.91034e-05	0.000487428	1.8198e-05	-145.406	0.0287794	-0.0236911	0.0163397	-28.3821	7.69688	6.77169	3.65871	0.114316	0.0612739	0.129702	28.1916	1431.93	2671.48	3031.04	-61.8084	0.0000000E+000	0.0000000E+000	0.0000000E+000	61.8084	0.0000000E+000	0.0000000E+000	0.0000000E+000	-61.8084	0.0000000E+000	0.0000000E+000	0.0000000E+000	-28.1916	0.0000000E+000	0.0000000E+000	0.0000000E+000	28.1916	1.86565	61.8084	-9.24158e-07	-2.99714e-06	-7.39565e-09	-2.98975e-06	0.197046	13018.9	32.1251	12986.8
4646	7.66241	3.89851	8.59715	-26.9663	4.9976	0.197503	-0.0242293	8.78703	1.80689	1	10	0.00476499	0.000554252	0	1.71301e-05	0.000392041	6.54999e-06	-23.1826	0.0118177	0.0108635	0.00465219	-26.9611	8.60894	7.67327	3.90316	0.103671	0.0527461	0.116318	26.9663	1806.89	3551.38	3984.62	-63.0337	0.0000000E+000	0.0000000E+000	0.0000000E+000	63.0337	0.0000000E+000	0.0000000E+000	0.0000000E+000	-63.0337	0.0000000E+000	0.0000000E+000	0.0000000E+000	-26.9663	0.0000000E+000	0.0000000E+000	0.0000000E+000	26.9663	1.96547	63.0337	-1.97327e-06	-4.78536e-06	-9.49888e-09	-4.77586e-06	0.197111	8151.43	16.1805	8135.25
3163.08	8.58332	4.18636	9.54982	-26	5.37168	0.197411	-0.00347768	12.0191	2.30971	1	10	0.00470448	0.000492625	0	1.68695e-05	6.7727e-05	8.38477e-06	-43.0318	0.0170206	0.0124416	0.0116149	-26.0298	9.56609	8.59576	4.19798	0.0941164	0.0459036	0.104714	26	2309.71	4735.6	5268.84	-64	0.0000000E+000	0.0000000E+000	0.0000000E+000	64	0.0000000E+000	0.0000000E+000	0.0000000E+000	-64	0.0000000E+000	0.0000000E+000	0.0000000E+000	-26	0.0000000E+000	0.0000000E+000	0.0000000E+000	26	2.05031	64	-2.60652e-07	-6.86531e-07	-2.35533e-10	-6.86296e-07	0.197343	56764.9	19.4748	56745.5
2155.69	9.51653	4.53846	10.5433	-25.4966	5.82283	0.197472	0.0104163	16.2677	3.0143	1	10	0.00464859	0.000440903	0	1.8455e-05	0.000124959	5.26257e-06	78.5849	0.0119359	0.00236229	-0.0116998	-25.4337	10.5404	9.51889	4.52676	0.0856096	0.0408274	0.0948466	25.4966	3014.29	6320.57	7002.54	-64.5034	0.0000000E+000	0.0000000E+000	0.0000000E+000	64.5034	0.0000000E+000	0.0000000E+000	0.0000000E+000	-64.5034	0.0000000E+000	0.0000000E+000	0.0000000E+000	-25.4966	0.0000000E+000	0.0000000E+000	0.0000000E+000	25.4966	2.09687	64.5034	1.58559e-06	2.05694e-06	1.30162e-09	2.05564e-06	0.197347	18957.9	11.9964	18945.9
1468.59	10.4746	4.96716	11.5927	-25.3707	6.27408	0.19746	0.00908582	21.8178	4.00551	1	10	0.0046159	0.000398173	0	1.91681e-05	-0.000161201	4.70572e-06	79.8688	0.0118183	0.00207887	-0.011634	-25.3143	11.5896	10.4767	4.95552	0.0779417	0.0369606	0.0862612	25.3707	4005.51	8446.75	9348.35	-64.6293	0.0000000E+000	0.0000000E+000	0.0000000E+000	64.6293	0.0000000E+000	0.0000000E+000	0.0000000E+000	-64.6293	0.0000000E+000	0.0000000E+000	0.0000000E+000	-25.3707	0.0000000E+000	0.0000000E+000	0.0000000E+000	25.3707	2.10878	64.6293	7.13103e-07	1.79409e-06	-1.46464e-09	1.79555e-06	0.197621	21732.8	17.742	21750.5
1000.32	11.5465	5.62293	12.8428	-25.9653	6.72478	0.197455	0.0104499	28.2956	5.42403	1	10	0.00460231	0.000358356	0	2.02533e-05	0.000182191	8.95487e-06	93.8372	0.0249887	-0.00167231	-0.0249327	-25.8685	12.8304	11.5448	5.598	0.0700048	0.0340911	0.0778644	25.9653	5424.03	11138	12388.5	-64.0347	0.0000000E+000	0.0000000E+000	0.0000000E+000	64.0347	0.0000000E+000	0.0000000E+000	0.0000000E+000	-64.0347	0.0000000E+000	0.0000000E+000	0.0000000E+000	-25.9653	0.0000000E+000	0.0000000E+000	0.0000000E+000	25.9653	2.05346	64.0347	1.08516e-06	2.06339e-06	1.90387e-09	2.06148e-06	0.197273	18895.5	17.4347	18878
681.09	12.7181	6.4282	14.2503	-26.8137	7.17556	0.197462	0.00997656	36.3519	7.39698	1	10	0.00458704	0.00032189	0	2.1278e-05	0.000201268	8.72776e-06	17.2479	0.0271141	0.0258948	-0.00803951	-26.738	14.2698	12.744	6.42016	0.0626286	0.0316547	0.0701738	26.8137	7396.98	14634.8	16398	-63.1863	0.0000000E+000	0.0000000E+000	0.0000000E+000	63.1863	0.0000000E+000	0.0000000E+000	0.0000000E+000	-63.1863	0.0000000E+000	0.0000000E+000	0.0000000E+000	-26.8137	0.0000000E+000	0.0000000E+000	0.0000000E+000	26.8137	1.97849	63.1863	1.02472e-06	1.96999e-06	2.00796e-09	1.96798e-06	0.19726	19792.5	20.1741	19772.4
463.961	14.1516	7.50108	16.0166	-27.926	7.62736	0.19745	0.0103194	45.7315	10.0304	1	10	0.0045776	0.000285803	0	2.25109e-05	0.000105882	7.25759e-06	-21.4093	0.0253937	0.0236414	0.00926943	-27.9157	16.0419	14.1752	7.51035	0.0551647	0.0292402	0.0624351	27.926	10030.4	18923.4	21417.4	-62.074	0.0000000E+000	0.0000000E+000	0.0000000E+000	62.074	0.0000000E+000	0.0000000E+000	0.0000000E+000	-62.074	0.0000000E+000	0.0000000E+000	0.0000000E+000	-27.926	0.0000000E+000	0.0000000E+000	0.0000000E+000	27.926	1.8866	62.074	1.23291e-06	2.03757e-06	1.09264e-09	2.03648e-06	0.197344	19133.8	10.2604	19123.5
316.316	15.9822	8.85677	18.2722	-28.9936	8.075	0.197449	0.00982748	56.8099	13.3473	1	10	0.00456453	0.000249807	0	2.34807e-05	0.000411119	4.17859e-06	-36.8837	0.0167272	0.0133794	0.0100396	-29.0008	18.2888	15.9956	8.86681	0.047869	0.0265273	0.0547279	28.9936	13347.3	24085.4	27536.4	-61.0064	0.0000000E+000	0.0000000E+000	0.0000000E+000	61.0064	0.0000000E+000	0.0000000E+000	0.0000000E+000	-61.0064	0.0000000E+000	0.0000000E+000	0.0000000E+000	-28.9936	0.0000000E+000	0.0000000E+000	0.0000000E+000	28.9936	1.80452	61.0064	9.69781e-07	1.94043e-06	4.04026e-09	1.93639e-06	0.197038	20091.5	41.8336	20049.7
215.345	18.4209	10.3702	21.1393	-29.3776	8.52455	0.19745	0.00952932	71.2688	17.151	1	10	0.00457037	0.000216202	0	2.43038e-05	-8.58219e-06	4.84154e-06	-119.209	0.0223936	-0.0109282	0.019546	-29.4383	21.1394	18.41	10.3897	0.041222	0.0232062	0.0473052	29.3776	17151	30466	34961.9	-60.6224	0.0000000E+000	0.0000000E+000	0.0000000E+000	60.6224	0.0000000E+000	0.0000000E+000	0.0000000E+000	-60.6224	0.0000000E+000	0.0000000E+000	0.0000000E+000	-29.3776	0.0000000E+000	0.0000000E+000	0.0000000E+000	29.3776	1.77634	60.6224	8.23133e-07	1.88157e-06	-8.17825e-11	1.88165e-06	0.197459	20720.3	0.900608	20721.2
146.737	21.5211	11.7788	24.5336	-28.6924	9.21451	0.197492	-0.00174767	92.083	21.2254	1	11	0.00457342	0.000186415	0	2.45352e-05	-6.58141e-05	2.24405e-05	-148.851	0.12038	-0.103024	0.0622681	-28.9361	24.4734	21.4181	11.841	0.0357554	0.0195694	0.0407604	28.6924	21225.4	38781.2	44209.7	-61.3076	0.0000000E+000	0.0000000E+000	0.0000000E+000	61.3076	0.0000000E+000	0.0000000E+000	0.0000000E+000	-61.3076	0.0000000E+000	0.0000000E+000	0.0000000E+000	-28.6924	0.0000000E+000	0.0000000E+000	0.0000000E+000	28.6924	1.82711	61.3076	2.31389e-07	-3.45152e-07	1.15022e-10	-3.45267e-07	0.197558	113003	37.6581	113041
100.032	25.421	12.5045	28.33	-26.1925	9.66584	0.197493	-0.00176145	127.237	24.7888	1	11	0.00457538	0.000161503	0	2.43961e-05	0.000277577	8.24317e-06	-6.39769	0.0510404	0.0507225	0.00568738	-26.1576	28.378	25.4717	12.5102	0.0316737	0.0155802	0.0352983	26.1925	24788.8	50394.2	56161	-63.8075	0.0000000E+000	0.0000000E+000	0.0000000E+000	63.8075	0.0000000E+000	0.0000000E+000	0.0000000E+000	-63.8075	0.0000000E+000	0.0000000E+000	0.0000000E+000	-26.1925	0.0000000E+000	0.0000000E+000	0.0000000E+000	26.1925	2.03294	63.8075	-1.39119e-07	-3.47874e-07	-4.8894e-10	-3.47385e-07	0.197215	112119	157.584	111962
68.104	29.4354	12.5213	31.9879	-23.0441	10.1284	0.197496	-0.00166165	186.637	28.5973	1	11	0.00456409	0.000142682	0	2.42524e-05	-0.00023751	1.70242e-05	-71.9087	0.119316	0.0370515	0.113417	-23.2046	32.0665	29.4725	12.6347	0.0287672	0.0122371	0.0312618	23.0441	28597.3	67227.3	73057	-66.9559	0.0000000E+000	0.0000000E+000	0.0000000E+000	66.9559	0.0000000E+000	0.0000000E+000	0.0000000E+000	-66.9559	0.0000000E+000	0.0000000E+000	0.0000000E+000	-23.0441	0.0000000E+000	0.0000000E+000	0.0000000E+000	23.0441	2.35083	66.9559	-1.43662e-07	-3.2817e-07	3.94659e-10	-3.28565e-07	0.197734	118855	142.936	118998
46.4415	33.3336	11.5605	35.2814	-19.1271	10.5647	0.197494	-0.00193089	296.441	31.8271	1	11	0.00456235	0.000129313	0	2.39797e-05	6.7727e-05	5.14494e-06	-15.3152	0.0397866	0.0383737	0.0105088	-19.1228	35.3211	33.372	11.571	0.0267788	0.00928717	0.0283436	19.1271	31827.1	91770.9	97133.2	-70.8729	0.0000000E+000	0.0000000E+000	0.0000000E+000	70.8729	0.0000000E+000	0.0000000E+000	0.0000000E+000	-70.8729	0.0000000E+000	0.0000000E+000	0.0000000E+000	-19.1271	0.0000000E+000	0.0000000E+000	0.0000000E+000	19.1271	2.88342	70.8729	-2.72762e-07	-3.8134e-07	-1.30774e-10	-3.81209e-07	0.197426	102281	35.0755	102246
31.6296	36.4846	9.91296	37.8074	-15.2004	10.9945	0.197487	-0.00207389	507.603	34.8962	1	11	0.00456085	0.000120634	0	2.40134e-05	-0.000123046	1.20148e-05	-21.6617	0.0995969	0.0925633	0.0367639	-15.2174	37.9063	36.5772	9.94972	0.0255245	0.00693507	0.0264499	15.2004	34896.2	128435	133092	-74.7996	0.0000000E+000	0.0000000E+000	0.0000000E+000	74.7996	0.0000000E+000	0.0000000E+000	0.0000000E+000	-74.7996	0.0000000E+000	0.0000000E+000	0.0000000E+000	-15.2004	0.0000000E+000	0.0000000E+000	0.0000000E+000	15.2004	3.6805	74.7996	3.3764e-08	-4.09566e-07	2.55184e-10	-4.09821e-07	0.19761	95225.3	59.331	95284.7
21.5517	38.8864	8.06633	39.7142	-11.7189	11.4154	0.197492	-0.00243176	915.509	37.7679	1	11	0.0045714	0.000115108	0	2.38274e-05	0.000239423	3.76098e-05	44.5123	0.326736	0.232996	-0.229062	-11.3288	39.8967	39.1193	7.83726	0.0246551	0.00511429	0.0251799	11.7189	37767.9	182073	185949	-78.2811	0.0000000E+000	0.0000000E+000	0.0000000E+000	78.2811	0.0000000E+000	0.0000000E+000	0.0000000E+000	-78.2811	0.0000000E+000	0.0000000E+000	0.0000000E+000	-11.7189	0.0000000E+000	0.0000000E+000	0.0000000E+000	11.7189	4.82083	78.2811	-1.86033e-07	-4.80252e-07	-5.82218e-10	-4.7967e-07	0.197252	81213.5	98.4567	81115.1
14.6852	40.3554	6.37515	40.8559	-8.97712	11.8761	0.197499	-0.00176369	1700.01	41.3926	1	11	0.00456732	0.000111791	0	2.40003e-05	0.000411119	1.23391e-05	-23.7256	0.110376	0.101048	0.0444107	-9.01642	40.9626	40.4565	6.41956	0.0241765	0.00381928	0.0244763	8.97712	41392.6	262020	265269	-81.0229	0.0000000E+000	0.0000000E+000	0.0000000E+000	81.0229	0.0000000E+000	0.0000000E+000	0.0000000E+000	-81.0229	0.0000000E+000	0.0000000E+000	0.0000000E+000	-8.97712	0.0000000E+000	0.0000000E+000	0.0000000E+000	8.97712	6.33011	81.0229	1.72923e-07	-3.48327e-07	-7.25085e-10	-3.47602e-07	0.197088	111981	233.102	111748
10.0032	41.4004	4.94945	41.6952	-6.81739	12.3268	0.197494	-0.001916	3214.58	45.2965	1	11	0.00456733	0.000109541	0	2.29254e-05	-0.000123046	1.16788e-05	31.2	0.106616	0.0911957	-0.0552301	-6.72734	41.7793	41.4916	4.89422	0.023814	0.00284698	0.0239836	6.81739	45296.5	378890	381588	-83.1826	0.0000000E+000	0.0000000E+000	0.0000000E+000	83.1826	0.0000000E+000	0.0000000E+000	0.0000000E+000	-83.1826	0.0000000E+000	0.0000000E+000	0.0000000E+000	-6.81739	0.0000000E+000	0.0000000E+000	0.0000000E+000	6.81739	8.36466	83.1826	-1.07495e-06	-3.78398e-07	2.35756e-10	-3.78634e-07	0.197617	103076	64.2204	103141
6.81719	42.1204	4.03947	42.3136	-5.47808	12.6665	0.197527	-0.000725834	5779.5	52.6719	1	11	0.00456714	0.000107935	0	2.38519e-05	-6.58141e-05	7.47797e-06	-149.534	0.0692819	-0.0597164	0.0351275	-5.53322	42.2575	42.0606	4.0746	0.0235251	0.00225613	0.0236331	5.47808	52671.8	549220	551740	-84.5219	0.0000000E+000	0.0000000E+000	0.0000000E+000	84.5219	0.0000000E+000	0.0000000E+000	0.0000000E+000	-84.5219	0.0000000E+000	0.0000000E+000	0.0000000E+000	-5.47808	0.0000000E+000	0.0000000E+000	0.0000000E+000	5.47808	10.4272	84.5219	9.26473e-07	-1.43371e-07	4.77701e-11	-1.43419e-07	0.197592	272138	90.6738	272228
4.63925	42.6089	3.40053	42.7444	-4.56299	13.1504	0.197519	-0.000759349	10088.5	63.85	1	11	0.00456869	0.000106884	0	2.37079e-05	8.68044e-05	1.14203e-05	-10.5949	0.106847	0.105026	0.0196454	-4.578	42.8507	42.714	3.42018	0.0233207	0.00186118	0.0233949	4.56299	63849.9	800045	802588	-85.437	0.0000000E+000	0.0000000E+000	0.0000000E+000	85.437	0.0000000E+000	0.0000000E+000	0.0000000E+000	-85.437	0.0000000E+000	0.0000000E+000	0.0000000E+000	-4.56299	0.0000000E+000	0.0000000E+000	0.0000000E+000	4.56299	12.5301	85.437	-1.44004e-07	-1.49986e-07	-6.59148e-11	-1.4992e-07	0.197433	260117	114.314	260002
3.1604	43.0293	2.90925	43.1276	-3.86794	13.8435	0.197535	0.000149286	17310	78.7682	1	11	0.00456591	0.00010587	0	2.23007e-05	2.95724e-05	4.57077e-06	38.5466	0.0431735	0.0337661	-0.0269036	-3.82928	43.1594	43.0631	2.88235	0.0231342	0.00156413	0.023187	3.86794	78768.1	1.16502e+06	1.16768e+06	-86.1321	0.0000000E+000	0.0000000E+000	0.0000000E+000	86.1321	0.0000000E+000	0.0000000E+000	0.0000000E+000	-86.1321	0.0000000E+000	0.0000000E+000	0.0000000E+000	-3.86794	0.0000000E+000	0.0000000E+000	0.0000000E+000	3.86794	14.7905	86.1321	-1.40717e-06	2.94891e-08	4.41474e-12	2.94847e-08	0.197505	1.3232e+06	198.093	1.323e+06
2.15577	43.4453	2.69618	43.5289	-3.55117	14.8471	0.197534	0.000578932	27382.3	105.054	1	11	0.00456355	0.00010484	0	2.15529e-05	6.7727e-05	6.55511e-06	5.31749	0.0625251	0.062256	-0.00579448	-3.5385	43.5907	43.5076	2.69038	0.0229291	0.00142296	0.0229732	3.55117	105054	1.6928e+06	1.69606e+06	-86.4488	0.0000000E+000	0.0000000E+000	0.0000000E+000	86.4488	0.0000000E+000	0.0000000E+000	0.0000000E+000	-86.4488	0.0000000E+000	0.0000000E+000	0.0000000E+000	-3.55117	0.0000000E+000	0.0000000E+000	0.0000000E+000	3.55117	16.1137	86.4488	-7.47818e-07	1.14359e-07	3.92094e-11	1.1432e-07	0.197466	341204	116.986	341087
1.46631	43.9059	2.66936	43.987	-3.47915	17.0346	0.197525	-0.000156315	40661.9	149.745	1	12	0.00456741	0.000103836	0	2.31516e-05	8.68044e-05	3.39277e-06	43.4949	0.0326744	0.0237032	-0.0224895	-3.44805	44.0093	43.9296	2.64687	0.0226921	0.00137962	0.022734	3.47915	149746	2.46303e+06	2.46758e+06	-86.5209	0.0000000E+000	0.0000000E+000	0.0000000E+000	86.5209	0.0000000E+000	0.0000000E+000	0.0000000E+000	-86.5209	0.0000000E+000	0.0000000E+000	0.0000000E+000	-3.47915	0.0000000E+000	0.0000000E+000	0.0000000E+000	3.47915	16.4481	86.5209	1.59869e-06	-3.08761e-08	-1.35688e-11	-3.08625e-08	0.197438	1.26363e+06	555.317	1.26308e+06
1.00006	44.3849	2.77213	44.4714	-3.57385	19.1646	0.197527	-0.000163044	57408.9	223.071	1	12	0.00456388	0.000102625	0	2.63667e-05	-4.67368e-05	3.6622e-06	59.5837	0.0356852	0.0180667	-0.0307739	-3.53284	44.4875	44.403	2.74135	0.0224426	0.00140169	0.0224864	3.57385	223071	3.57163e+06	3.57859e+06	-86.4261	0.0000000E+000	0.0000000E+000	0.0000000E+000	86.4261	0.0000000E+000	0.0000000E+000	0.0000000E+000	-86.4261	0.0000000E+000	0.0000000E+000	0.0000000E+000	-3.57385	0.0000000E+000	0.0000000E+000	0.0000000E+000	3.57385	16.0111	86.4261	3.21509e-06	-3.22055e-08	7.62015e-12	-3.22131e-08	0.197573	1.21149e+06	286.652	1.21178e+06
0.681362	45.0233	3.01547	45.1242	-3.83171	22.2749	0.197528	-0.000103914	77461.7	345.922	1	12	0.00456361	0.000101135	0	2.89918e-05	0.000296655	3.0262e-06	-1.1429	0.0299225	0.0299166	0.000596836	-3.82992	45.154	45.0532	3.01607	0.0221115	0.00148094	0.0221611	3.83171	345922	5.16489e+06	5.17646e+06	-86.1683	0.0000000E+000	0.0000000E+000	0.0000000E+000	86.1683	0.0000000E+000	0.0000000E+000	0.0000000E+000	-86.1683	0.0000000E+000	0.0000000E+000	0.0000000E+000	-3.83171	0.0000000E+000	0.0000000E+000	0.0000000E+000	3.83171	14.9308	86.1683	2.62513e-06	-2.0526e-08	-3.08266e-11	-2.04952e-08	0.197232	1.90088e+06	2854.81	1.89803e+06
0.464091	45.703	3.3147	45.8231	-4.14822	26.8316	0.197523	0.000152094	103460	541.369	1	12	0.00456744	9.96756e-05	0	2.81536e-05	0.0002585	3.26513e-06	17.1749	0.0327576	0.0312968	-0.00967299	-4.13334	45.8536	45.7343	3.30503	0.0217659	0.00157861	0.0218231	4.14822	541369	7.46438e+06	7.48399e+06	-85.8518	0.0000000E+000	0.0000000E+000	0.0000000E+000	85.8518	0.0000000E+000	0.0000000E+000	0.0000000E+000	-85.8518	0.0000000E+000	0.0000000E+000	0.0000000E+000	-4.14822	0.0000000E+000	0.0000000E+000	0.0000000E+000	4.14822	13.788	85.8518	-8.38163e-07	3.0042e-08	3.93162e-11	3.00027e-08	0.197265	1.2987e+06	1699.61	1.297e+06
0.316193	46.36	3.67765	46.5056	-4.53567	33.505	0.197523	0.000222902	136866	855.909	1	12	0.00456559	9.81729e-05	0	2.15489e-05	0.000144036	2.69763e-06	1.01845	0.0274784	0.027474	-0.000488409	-4.5324	46.533	46.3875	3.67717	0.0214354	0.00170043	0.0215028	4.53567	855909	1.07895e+07	1.08234e+07	-85.4643	0.0000000E+000	0.0000000E+000	0.0000000E+000	85.4643	0.0000000E+000	0.0000000E+000	0.0000000E+000	-85.4643	0.0000000E+000	0.0000000E+000	0.0000000E+000	-4.53567	0.0000000E+000	0.0000000E+000	0.0000000E+000	4.53567	12.6059	85.4643	-6.60471e-06	4.40284e-08	3.2106e-11	4.39963e-08	0.197379	886144	646.186	885498
0.215268	47.0265	4.07645	47.2029	-4.95425	43.2983	0.19753	2.23797e-05	181367	1352.65	1	12	0.00456382	9.66852e-05	0	8.87463e-06	-0.00023751	4.63577e-06	81.6962	0.047947	0.00692464	-0.0474444	-4.89615	47.2057	47.0334	4.02901	0.021106	0.00182955	0.0211852	4.95425	1.35265e+06	1.56044e+07	1.56629e+07	-85.0458	0.0000000E+000	0.0000000E+000	0.0000000E+000	85.0458	0.0000000E+000	0.0000000E+000	0.0000000E+000	-85.0458	0.0000000E+000	0.0000000E+000	0.0000000E+000	-4.95425	0.0000000E+000	0.0000000E+000	0.0000000E+000	4.95425	11.5361	85.0458	-1.26743e-05	4.42067e-09	-5.3154e-12	4.42599e-09	0.197768	8.82632e+06	10612.7	8.83694e+06
0.146929	47.784	4.66841	48.0115	-5.57998	57.6366	0.197523	-0.000829874	232030	2193.77	1	12	0.00456396	9.50597e-05	0	-7.57122e-06	0.000182191	2.75002e-06	10.4496	0.0289294	0.0284496	-0.00524694	-5.57045	48.0393	47.8125	4.66316	0.0207296	0.00202525	0.0208283	5.57998	2.19377e+06	2.24546e+07	2.25615e+07	-84.42	0.0000000E+000	0.0000000E+000	0.0000000E+000	84.42	0.0000000E+000	0.0000000E+000	0.0000000E+000	-84.42	0.0000000E+000	0.0000000E+000	0.0000000E+000	-5.57998	0.0000000E+000	0.0000000E+000	0.0000000E+000	5.57998	10.2356	84.42	-1.64459e-05	-1.63919e-07	-1.51195e-10	-1.63768e-07	0.19734	238015	219.541	237796
0.0999041	48.6293	5.65338	48.9568	-6.63113	78.7137	0.197516	-0.00159776	281792	3757.67	1	12	0.00456587	9.32633e-05	0	-2.10801e-05	-0.000123046	2.02807e-06	24.2682	0.0217456	0.019824	-0.00893763	-6.61807	48.9755	48.6491	5.64444	0.0202895	0.00235875	0.0204262	6.63113	3.75767e+06	3.23228e+07	3.25405e+07	-83.3689	0.0000000E+000	0.0000000E+000	0.0000000E+000	83.3689	0.0000000E+000	0.0000000E+000	0.0000000E+000	-83.3689	0.0000000E+000	0.0000000E+000	0.0000000E+000	-6.63113	0.0000000E+000	0.0000000E+000	0.0000000E+000	6.63113	8.60181	83.3689	-1.35089e-05	-3.15583e-07	1.96598e-10	-3.15779e-07	0.197639	123620	77.0115	123697
0.0680626	49.4217	7.20854	49.9446	-8.29852	109.64	0.197522	-0.0019729	324388	6757.42	1	12	0.00456577	9.14166e-05	0	-2.41392e-05	-8.58219e-06	3.04127e-06	-11.9463	0.0332683	0.0325478	0.00688634	-8.30094	49.9778	49.4542	7.21542	0.0198125	0.00288981	0.0200222	8.29852	6.75742e+06	4.63288e+07	4.68191e+07	-81.7015	0.0000000E+000	0.0000000E+000	0.0000000E+000	81.7015	0.0000000E+000	0.0000000E+000	0.0000000E+000	-81.7015	0.0000000E+000	0.0000000E+000	0.0000000E+000	-8.29852	0.0000000E+000	0.0000000E+000	0.0000000E+000	8.29852	6.85599	81.7015	-3.05907e-06	-3.89691e-07	1.69318e-11	-3.89708e-07	0.197531	100118	4.35005	100122
0.0464052	50.2046	9.26529	51.0524	-10.4563	154.991	0.197521	-0.00197283	370164	12192.1	1	12	0.00456431	8.94043e-05	0	-6.27263e-07	-0.000199355	2.53575e-06	-24.3339	0.0283627	0.025843	0.0116869	-10.4639	51.0799	50.2305	9.27698	0.0192624	0.00355489	0.0195877	10.4563	1.21921e+07	6.6064e+07	6.71796e+07	-79.5437	0.0000000E+000	0.0000000E+000	0.0000000E+000	79.5437	0.0000000E+000	0.0000000E+000	0.0000000E+000	-79.5437	0.0000000E+000	0.0000000E+000	0.0000000E+000	-10.4563	0.0000000E+000	0.0000000E+000	0.0000000E+000	10.4563	5.41857	79.5437	2.35119e-05	-3.89675e-07	3.93294e-10	-3.90069e-07	0.197721	100121	101.051	100222
0.0315922	51.5734	11.9976	52.9505	-13.0958	221.597	0.197523	-0.00185207	419901	21557.2	1	12	0.00456471	8.62071e-05	0	4.31581e-05	0.000372964	2.76024e-06	-23.0678	0.0320187	0.0294586	0.0125456	-13.1018	52.982	51.6028	12.0101	0.0183944	0.0042791	0.0188856	13.0958	2.15572e+07	9.26671e+07	9.51415e+07	-76.9042	0.0000000E+000	0.0000000E+000	0.0000000E+000	76.9042	0.0000000E+000	0.0000000E+000	0.0000000E+000	-76.9042	0.0000000E+000	0.0000000E+000	0.0000000E+000	-13.0958	0.0000000E+000	0.0000000E+000	0.0000000E+000	13.0958	4.29866	76.9042	4.37854e-05	-3.65825e-07	-6.90754e-10	-3.65134e-07	0.19715	106650	201.377	106449
0.0215268	53.7264	16.1902	56.1128	-16.7699	319.334	0.197519	-0.00184658	456656	38016.2	1	12	0.00456498	8.13536e-05	0	6.37132e-05	0.000144036	2.71604e-06	0.295553	0.0333856	0.0333852	-0.000172214	-16.7599	56.1447	53.7597	16.19	0.0170633	0.00514195	0.0178213	16.7699	3.80162e+07	1.26155e+08	1.31759e+08	-73.2301	0.0000000E+000	0.0000000E+000	0.0000000E+000	73.2301	0.0000000E+000	0.0000000E+000	0.0000000E+000	-73.2301	0.0000000E+000	0.0000000E+000	0.0000000E+000	-16.7699	0.0000000E+000	0.0000000E+000	0.0000000E+000	16.7699	3.31846	73.2301	2.05551e-05	-3.64734e-07	-2.65974e-10	-3.64468e-07	0.197375	106965	78.0016	106887
0.0146812	56.3784	22.0595	60.5404	-21.3692	462.637	0.197514	-0.00207153	491432	65247.6	1	12	0.00456462	7.53979e-05	0	-2.55737e-05	1.04951e-05	2.88478e-06	-2.51723	0.0382608	0.0382238	0.0016804	-21.3575	60.5766	56.4166	22.0612	0.0153823	0.00601873	0.0165179	21.3692	6.52476e+07	1.66756e+08	1.79066e+08	-68.6308	0.0000000E+000	0.0000000E+000	0.0000000E+000	68.6308	0.0000000E+000	0.0000000E+000	0.0000000E+000	-68.6308	0.0000000E+000	0.0000000E+000	0.0000000E+000	-21.3692	0.0000000E+000	0.0000000E+000	0.0000000E+000	21.3692	2.55574	68.6308	-8.92869e-05	-4.09156e-07	-2.17409e-11	-4.09135e-07	0.197504	95347.2	5.06637	95342.1

0.0100092	59.757	29.1001	66.4659	-25.9648	672.818	0.19752	-0.00242733	546422	104741	1	12	0.00456621	6.87001e-05	0	-0.000310458	8.68044e-05	2.22339e-06	12.2541	0.0323638	0.0316264	-0.00686913	-25.9476	66.4913	59.7886	29.0932	0.0135267	0.00658713	0.0150453	25.9648	1.04741e+08	2.15087e+08	2.39234e+08	-64.0352	0.0000000E+000	0.0000000E+000	0.0000000E+000	64.0352	0.0000000E+000	0.0000000E+000	0.0000000E+000	-64.0352	0.0000000E+000	0.0000000E+000	0.0000000E+000	-25.9648	0.0000000E+000	0.0000000E+000	0.0000000E+000	25.9648	2.0535	64.0352	-0.000284884	-4.79446e-07	-2.10703e-10	-4.79235e-07	0.197433	81373.2	35.7612	81337.5