File: txt/18950_R308_UA706_SOC00_C05.mpt
EC-Lab ASCII FILE
Nb header lines : 66

Potentio Electrochemical Impedance Spectroscopy

Run on channel : 5 (SN 65912)
Grouped channel(s) : 5, 6, 7, 8
User :
CE vs. WE compliance from -10 V to 10 V
Electrode connection : standard
Potential control : Ewe
Ewe ctrl range : min = -10.00 V, max = 10.00 V
Safety Limits :
	Do not start on E overload
Acquisition started on : 11/04/2025 15:53:30.548
Technique started on : 11/04/2025 15:53:32.275
Loaded Setting File :  C:\Users\Celltest\OneDrive - store-dot.com\Documents\EC-Lab\Data\@Biologic Test Protocols\anode half cell EIS SOC00.mps
Saved on :
	File : 18950_R308_UA706_SOC00_C05.mpr
	Directory : C:\Users\Celltest\OneDrive - store-dot.com\Documents\EC-Lab\Data\Charmaine\
	Host : 169.254.61.224
Device : VMP-3e (SN .003165)
Address : USB
EC-LAB for windows v11.62 (software)
Internet server v27.00 (firmware)
Command interpretor v12.03 (firmware)
Electrode material :
Initial state :
Electrolyte :
Comments :
Electrode surface area : 0.001 cm²
Characteristic mass : 0.001 g
Equivalent Weight : 0.000 g/eq.
Density : 0.000 g/cm3
Volume (V) : 0.001 cm³
Record Ece
Cycle Definition : Charge/Discharge alternance
Mode                Single sine
E (V)               0.0000
vs.                 Eoc
tE (h:m:s)          0:00:0.0000
record              0
dI                  0.000
unit dI             mA
dt (s)              0.000
fi                  100.000
unit fi             kHz
ff                  10.000
unit ff             mHz
Nd                  6
Points              per decade
spacing             Logarithmic
Va (mV)             5.0
pw                  0.10
Na                  2
corr                0
E range min (V)     -10.000
E range max (V)     10.000
I Range             Auto
Bandwidth           5
nc cycles           0
goto Ns'            0
nr cycles           0
inc. cycle          0

freq/Hz	Re(Z)/Ohm	-Im(Z)/Ohm	|Z|/Ohm	Phase(Z)/deg	time/s	<Ewe>/V	<I>/mA	Cs/µF	Cp/µF	cycle number	I Range	|Ewe|/V	|I|/A	Ns	(Q-Qo)/mA.h	<Ece>/V	|Ece|/V	Phase(Zce)/deg	|Zce|/Ohm	Re(Zce)/Ohm	-Im(Zce)/Ohm	Phase(Zwe-ce)/deg	|Zwe-ce|/Ohm	Re(Zwe-ce)/Ohm	-Im(Zwe-ce)/Ohm	Re(Y)/Ohm-1	Im(Y)/Ohm-1	|Y|/Ohm-1	Phase(Y)/deg	Re(C)/nF	Im(C)/nF	|C|/nF	Phase(C)/deg	Re(M)	Im(M)	|M|	Phase(M)/deg	Re(Permittivity)	Im(Permittivity)	|Permittivity|	Phase(Permittivity)/deg	Re(Resistivity)/Ohm.cm	Im(Resistivity)/Ohm.cm	|Resistivity|/Ohm.cm	Phase(Resistivity)/deg	Re(Conductivity)/mS/cm	Im(Conductivity)/mS/cm	|Conductivity|/mS/cm	Phase(Conductivity)/deg	Tan(Delta)	Loss Angle(Delta)/deg	dq/mA.h	Pwe/W	Pce/W	Pwe-ce/W	<Ewe-Ece>/V	Rwe/Ohm	Rce/Ohm	Rwe-ce/Ohm		Ewe-Ece/V
100004	2.02635	1.02708	2.27178	-26.8788	1.72654	0.218597	-0.0549503	1.54952	0.316721	1	9	0.00458683	0.00201905	0	-6.97126e-06	0.000121199	3.2891e-05	90.0053	0.0162904	-1.51739e-06	-0.0162904	-26.5112	2.26446	2.02635	1.01079	0.392628	0.199009	0.440183	26.8788	316.721	624.863	700.547	-63.1212	0.0000000E+000	0.0000000E+000	0.0000000E+000	63.1212	0.0000000E+000	0.0000000E+000	0.0000000E+000	-63.1212	0.0000000E+000	0.0000000E+000	0.0000000E+000	-26.8788	0.0000000E+000	0.0000000E+000	0.0000000E+000	26.8788	1.97291	63.1212	-6.97126e-06	-1.2012e-05	-6.65993e-09	-1.20053e-05	0.218476	3978.09	2.20562	3975.88
68132	2.3085	1.23235	2.61684	-28.0946	2.23354	0.218571	-0.0545779	1.89555	0.420384	1	9	0.00506972	0.00193734	0	-6.82149e-06	4.48344e-05	2.57114e-05	69.844	0.0132715	0.00457306	-0.0124587	-27.8066	2.61504	2.31308	1.21989	0.337113	0.179961	0.38214	28.0946	420.384	787.488	892.67	-61.9054	0.0000000E+000	0.0000000E+000	0.0000000E+000	61.9054	0.0000000E+000	0.0000000E+000	0.0000000E+000	-61.9054	0.0000000E+000	0.0000000E+000	0.0000000E+000	-28.0946	0.0000000E+000	0.0000000E+000	0.0000000E+000	28.0946	1.87326	61.9054	1.49763e-07	-1.19291e-05	-2.44697e-09	-1.19267e-05	0.218526	4004.75	0.821476	4003.93
46420.4	2.69352	1.45144	3.05969	-28.3187	2.74055	0.218574	-0.0628823	2.36217	0.531564	1	9	0.00516032	0.00168655	0	-1.00528e-05	4.48344e-05	1.20992e-05	15.2024	0.00717392	0.00692287	-0.00188122	-28.2263	3.0649	2.70044	1.44956	0.287716	0.15504	0.32683	28.3187	531.564	986.451	1120.56	-61.6813	0.0000000E+000	0.0000000E+000	0.0000000E+000	61.6813	0.0000000E+000	0.0000000E+000	0.0000000E+000	-61.6813	0.0000000E+000	0.0000000E+000	0.0000000E+000	-28.3187	0.0000000E+000	0.0000000E+000	0.0000000E+000	28.3187	1.85575	61.6813	-3.2313e-06	-1.37444e-05	-2.81929e-09	-1.37416e-05	0.218529	3475.91	0.712989	3475.2
31621.1	3.09923	1.60753	3.49133	-27.4151	3.12356	0.218586	-0.0394213	3.13101	0.663773	1	9	0.00516188	0.00147849	0	-1.19282e-05	0.000102108	1.45305e-05	-38.1824	0.00982796	0.00772524	0.00607531	-27.4452	3.50099	3.10696	1.6136	0.254257	0.131879	0.286424	27.4151	663.773	1279.72	1441.62	-62.5849	0.0000000E+000	0.0000000E+000	0.0000000E+000	62.5849	0.0000000E+000	0.0000000E+000	0.0000000E+000	-62.5849	0.0000000E+000	0.0000000E+000	0.0000000E+000	-27.4151	0.0000000E+000	0.0000000E+000	0.0000000E+000	27.4151	1.92795	62.5849	-1.87536e-06	-8.61695e-06	-4.02523e-09	-8.61292e-06	0.218484	5544.88	2.59018	5542.29
21544.7	3.57014	1.72069	3.96317	-25.7325	3.50654	0.218574	-0.0473906	4.29316	0.809279	1	9	0.00488524	0.00123266	0	-1.60682e-05	-5.06217e-05	6.57888e-06	-57.3051	0.00533713	0.00288294	0.00449151	-25.7729	3.96771	3.57302	1.72518	0.227301	0.109551	0.252324	25.7325	809.279	1679.12	1863.97	-64.2675	0.0000000E+000	0.0000000E+000	0.0000000E+000	64.2675	0.0000000E+000	0.0000000E+000	0.0000000E+000	-64.2675	0.0000000E+000	0.0000000E+000	0.0000000E+000	-25.7325	0.0000000E+000	0.0000000E+000	0.0000000E+000	25.7325	2.07483	64.2675	-4.14009e-06	-1.03584e-05	2.39899e-09	-1.03608e-05	0.218625	4612.19	1.06818	4613.25
14678.6	4.03474	1.80045	4.41822	-24.0482	3.88955	0.218568	-0.0565888	6.0222	1.00005	1	9	0.00493413	0.00111677	0	-2.00154e-05	-0.000165169	9.15265e-06	-112.994	0.00819566	-0.0032015	0.00754449	-24.1545	4.41838	4.03153	1.80799	0.20669	0.0922327	0.226335	24.0482	1000.05	2241.07	2454.08	-65.9518	0.0000000E+000	0.0000000E+000	0.0000000E+000	65.9518	0.0000000E+000	0.0000000E+000	0.0000000E+000	-65.9518	0.0000000E+000	0.0000000E+000	0.0000000E+000	-24.0482	0.0000000E+000	0.0000000E+000	0.0000000E+000	24.0482	2.24096	65.9518	-3.94712e-06	-1.23685e-05	9.34672e-09	-1.23779e-05	0.218733	3862.39	2.91876	3865.31
10002.2	4.48056	1.81773	4.83524	-22.082	4.30453	0.218614	-0.0252022	8.75375	1.23713	1	10	0.00464061	0.000959748	0	-2.38047e-05	4.48344e-05	1.01238e-05	-106.874	0.0105485	-0.00306193	0.0100943	-22.2065	4.83621	4.4775	1.82782	0.191644	0.0777486	0.206815	22.082	1237.13	3049.44	3290.83	-67.918	0.0000000E+000	0.0000000E+000	0.0000000E+000	67.918	0.0000000E+000	0.0000000E+000	0.0000000E+000	-67.918	0.0000000E+000	0.0000000E+000	0.0000000E+000	-22.082	0.0000000E+000	0.0000000E+000	0.0000000E+000	22.082	2.46492	67.918	-3.78937e-06	-5.50954e-06	-1.12992e-09	-5.50841e-06	0.218569	8674.4	1.77899	8672.62
6810.42	4.94938	1.8822	5.29519	-20.8213	4.56553	0.218619	-0.0238729	12.4159	1.56873	1	10	0.00474869	0.000896794	0	-2.48479e-05	0.000560297	7.70406e-05	11.4209	0.0859067	0.0842057	-0.0170108	-20.3322	5.36805	5.03359	1.86519	0.176517	0.0671279	0.188851	20.8213	1568.73	4125.09	4413.31	-69.1787	0.0000000E+000	0.0000000E+000	0.0000000E+000	69.1787	0.0000000E+000	0.0000000E+000	0.0000000E+000	-69.1787	0.0000000E+000	0.0000000E+000	0.0000000E+000	-20.8213	0.0000000E+000	0.0000000E+000	0.0000000E+000	20.8213	2.62957	69.1787	-1.04315e-06	-5.21908e-06	-1.33759e-08	-5.20571e-06	0.218059	9157.63	23.47	9134.16
4646	5.32288	1.90049	5.65199	-19.6487	4.83163	0.218593	-0.0327756	18.025	2.038	1	10	0.00466874	0.000826036	0	-2.7551e-05	-0.000165169	1.09038e-05	-39.5496	0.0132001	0.0101782	0.00840512	-19.6942	5.6644	5.33306	1.9089	0.166627	0.0594928	0.176929	19.6487	2038	5708.02	6060.94	-70.3513	0.0000000E+000	0.0000000E+000	0.0000000E+000	70.3513	0.0000000E+000	0.0000000E+000	0.0000000E+000	-70.3513	0.0000000E+000	0.0000000E+000	0.0000000E+000	-19.6487	0.0000000E+000	0.0000000E+000	0.0000000E+000	19.6487	2.80079	70.3513	-2.70312e-06	-7.1645e-06	5.41351e-09	-7.16991e-06	0.218758	6669.37	5.03939	6674.41
3163.08	5.72299	1.99895	6.06205	-19.2535	5.20468	0.218517	-0.0210766	25.1714	2.73699	1	10	0.00462507	0.000762955	0	-3.01184e-05	0.000102108	1.28029e-05	-2.38995	0.0167806	0.016766	0.000699759	-19.2076	6.07811	5.73976	1.99965	0.155734	0.0543956	0.164961	19.2535	2736.99	7836	8300.24	-70.7465	0.0000000E+000	0.0000000E+000	0.0000000E+000	70.7465	0.0000000E+000	0.0000000E+000	0.0000000E+000	-70.7465	0.0000000E+000	0.0000000E+000	0.0000000E+000	-19.2535	0.0000000E+000	0.0000000E+000	0.0000000E+000	19.2535	2.863	70.7465	-2.56739e-06	-4.6056e-06	-2.1521e-09	-4.60345e-06	0.218415	10367.7	4.84461	10362.9
2155.69	6.14308	2.16347	6.51292	-19.4013	5.65579	0.218582	-0.00269045	34.1257	3.7656	1	10	0.00458805	0.000704453	0	-3.08065e-05	0.000159382	4.72128e-06	-49.5026	0.00670205	0.0043524	0.00509648	-19.4308	6.51872	6.14744	2.16857	0.144822	0.0510036	0.153541	19.4013	3765.6	10692.2	11336	-70.5987	0.0000000E+000	0.0000000E+000	0.0000000E+000	70.5987	0.0000000E+000	0.0000000E+000	0.0000000E+000	-70.5987	0.0000000E+000	0.0000000E+000	0.0000000E+000	-19.4013	0.0000000E+000	0.0000000E+000	0.0000000E+000	19.4013	2.83945	70.5987	-6.88082e-07	-5.88084e-07	-4.28808e-10	-5.87655e-07	0.218423	81243.9	59.2399	81184.7
1468.59	6.5757	2.42548	7.00876	-20.2467	6.10706	0.218586	-0.00136119	44.681	5.35099	1	10	0.00456907	0.000651909	0	-3.11721e-05	-5.06217e-05	7.9813e-06	-37.5335	0.012243	0.00970864	0.00745873	-20.2764	7.02045	6.58541	2.43294	0.133863	0.0493758	0.142679	20.2467	5350.99	14507	15462.4	-69.7533	0.0000000E+000	0.0000000E+000	0.0000000E+000	69.7533	0.0000000E+000	0.0000000E+000	0.0000000E+000	-69.7533	0.0000000E+000	0.0000000E+000	0.0000000E+000	-20.2467	0.0000000E+000	0.0000000E+000	0.0000000E+000	20.2467	2.7111	69.7533	-3.6558e-07	-2.97537e-07	6.89057e-11	-2.97606e-07	0.218637	160585	37.1893	160622
1000.32	7.05257	2.80368	7.58943	-21.6798	6.55781	0.218578	-0.00285055	56.7482	7.74447	1	10	0.00454602	0.000598994	0	-3.11238e-05	0.000178473	6.87548e-06	33.4205	0.0114784	0.00958044	-0.00632205	-21.6088	7.596	7.06215	2.79736	0.122442	0.0486755	0.131762	21.6798	7744.48	19481	20963.9	-68.3202	0.0000000E+000	0.0000000E+000	0.0000000E+000	68.3202	0.0000000E+000	0.0000000E+000	0.0000000E+000	-68.3202	0.0000000E+000	0.0000000E+000	0.0000000E+000	-21.6798	0.0000000E+000	0.0000000E+000	0.0000000E+000	21.6798	2.51547	68.3202	4.82294e-08	-6.23068e-07	-5.08747e-10	-6.22559e-07	0.218399	76679	62.6099	76616.4
681.09	7.62815	3.27729	8.30237	-23.2499	7.00851	0.218591	-0.00145055	71.3018	11.1103	1	10	0.00453372	0.000546075	0	-3.17304e-05	0.00014029	5.97896e-06	34.2754	0.010949	0.00904757	-0.00616614	-23.1862	8.30826	7.6372	3.27112	0.110666	0.0475456	0.120448	23.2499	11110.3	25860.1	28145.8	-66.7501	0.0000000E+000	0.0000000E+000	0.0000000E+000	66.7501	0.0000000E+000	0.0000000E+000	0.0000000E+000	-66.7501	0.0000000E+000	0.0000000E+000	0.0000000E+000	-23.2499	0.0000000E+000	0.0000000E+000	0.0000000E+000	23.2499	2.32758	66.7501	-6.0656e-07	-3.17078e-07	-2.03499e-10	-3.16874e-07	0.218451	150695	96.7151	150598
463.961	8.32455	3.91345	9.19854	-25.1786	7.46034	0.218589	-0.00352077	87.6556	15.8657	1	10	0.00451448	0.000490782	0	-3.18087e-05	0.000102108	1.00761e-05	24.0243	0.0205306	0.0187521	-0.00835851	-25.082	9.21197	8.3433	3.90509	0.0983836	0.046251	0.108713	25.1786	15865.7	33749.1	37292.4	-64.8214	0.0000000E+000	0.0000000E+000	0.0000000E+000	64.8214	0.0000000E+000	0.0000000E+000	0.0000000E+000	-64.8214	0.0000000E+000	0.0000000E+000	0.0000000E+000	-25.1786	0.0000000E+000	0.0000000E+000	0.0000000E+000	25.1786	2.12717	64.8214	-7.83096e-08	-7.69602e-07	-3.59499e-10	-7.69242e-07	0.218487	62085.5	29.0016	62056.5
316.316	9.27301	4.72798	10.4088	-27.0154	7.90802	0.218575	-0.00259364	106.42	21.9571	1	10	0.00450973	0.000433262	0	-3.2345e-05	0.000235747	5.50448e-06	6.99549	0.0127047	0.0126102	-0.00154732	-26.9763	10.4193	9.28562	4.72643	0.0855897	0.0436392	0.0960728	27.0154	21957.1	43064.6	48339.2	-62.9846	0.0000000E+000	0.0000000E+000	0.0000000E+000	62.9846	0.0000000E+000	0.0000000E+000	0.0000000E+000	-62.9846	0.0000000E+000	0.0000000E+000	0.0000000E+000	-27.0154	0.0000000E+000	0.0000000E+000	0.0000000E+000	27.0154	1.96131	62.9846	-5.36314e-07	-5.66904e-07	-6.11442e-10	-5.66293e-07	0.218339	84273.2	90.894	84182.4
215.345	10.585	5.61103	11.9802	-27.9277	8.35851	0.218574	-0.00231066	131.718	28.8934	1	10	0.00450378	0.000375934	0	-3.23077e-05	6.65197e-06	7.13163e-06	36.1535	0.0189704	0.0153175	-0.0111916	-27.8462	11.9885	10.6003	5.59984	0.0737497	0.0390942	0.0834708	27.9277	28893.4	54506.3	61690.9	-62.0723	0.0000000E+000	0.0000000E+000	0.0000000E+000	62.0723	0.0000000E+000	0.0000000E+000	0.0000000E+000	-62.0723	0.0000000E+000	0.0000000E+000	0.0000000E+000	-27.9277	0.0000000E+000	0.0000000E+000	0.0000000E+000	27.9277	1.88646	62.0723	3.73506e-08	-5.05052e-07	-1.53705e-11	-5.05037e-07	0.218568	94593.7	2.87881	94590.9
146.737	12.3368	6.43404	13.9138	-27.5436	8.80447	0.218573	-0.00498408	168.576	36.0474	1	10	0.00450872	0.000324047	0	-3.23282e-05	0.000102108	1.35436e-05	-63.9016	0.0417951	0.0183863	0.0375336	-27.6453	13.9474	12.3552	6.47158	0.0637253	0.0332349	0.0718713	27.5436	36047.4	69118	77953.3	-62.4564	0.0000000E+000	0.0000000E+000	0.0000000E+000	62.4564	0.0000000E+000	0.0000000E+000	0.0000000E+000	-62.4564	0.0000000E+000	0.0000000E+000	0.0000000E+000	-27.5436	0.0000000E+000	0.0000000E+000	0.0000000E+000	27.5436	1.91742	62.4564	-2.0581e-08	-1.08938e-06	-5.08914e-10	-1.08887e-06	0.21847	43854.2	20.4869	43833.7
100.032	14.4596	6.88502	16.0151	-25.4616	9.46985	0.218583	-0.0023479	231.087	42.7095	1	10	0.00487571	0.000304444	0	-3.30099e-05	8.30168e-05	9.75523e-06	-34.8464	0.0320427	0.0262971	0.0183085	-25.4803	16.0468	14.4859	6.90332	0.0563762	0.0268438	0.0624409	25.4616	42709.5	89696.9	99346	-64.5384	0.0000000E+000	0.0000000E+000	0.0000000E+000	64.5384	0.0000000E+000	0.0000000E+000	0.0000000E+000	-64.5384	0.0000000E+000	0.0000000E+000	0.0000000E+000	-25.4616	0.0000000E+000	0.0000000E+000	0.0000000E+000	25.4616	2.10016	64.5384	-6.81667e-07	-5.13211e-07	-1.94915e-10	-5.13016e-07	0.2185	93097.1	35.3579	93061.8
68.104	16.6895	6.91596	18.0657	-22.5087	9.93244	0.218605	0.0019936	337.905	49.5213	1	10	0.00486099	0.000269073	0	-3.26769e-05	0.00014029	1.32894e-05	-0.0666763	0.0493897	0.0493896	5.74758e-05	-22.449	18.1113	16.7388	6.91602	0.0511368	0.0211907	0.0553536	22.5087	49521.3	119504	129358	-67.4913	0.0000000E+000	0.0000000E+000	0.0000000E+000	67.4913	0.0000000E+000	0.0000000E+000	0.0000000E+000	-67.4913	0.0000000E+000	0.0000000E+000	0.0000000E+000	-22.5087	0.0000000E+000	0.0000000E+000	0.0000000E+000	22.5087	2.41318	67.4913	3.3303e-07	4.35811e-07	2.79683e-10	4.35531e-07	0.218465	109654	70.3705	109583
46.4415	18.8793	6.27984	19.8963	-18.3987	10.6087	0.218617	-0.00481468	545.714	54.3645	1	11	0.004874	0.00024497	0	-3.36464e-05	0.000121199	6.08678e-06	113.67	0.0248471	-0.00997518	-0.0227568	-18.3456	19.8797	18.8693	6.25708	0.0476914	0.0158636	0.0502605	18.3987	54364.5	163438	172243	-71.6013	0.0000000E+000	0.0000000E+000	0.0000000E+000	71.6013	0.0000000E+000	0.0000000E+000	0.0000000E+000	-71.6013	0.0000000E+000	0.0000000E+000	0.0000000E+000	-18.3987	0.0000000E+000	0.0000000E+000	0.0000000E+000	18.3987	3.00633	71.6013	-9.69482e-07	-1.05257e-06	-5.83536e-10	-1.05199e-06	0.218496	45406.3	25.1729	45381.1
31.6296	20.6276	5.35935	21.3125	-14.5643	11.0385	0.218618	-0.00498707	938.89	59.3707	1	11	0.0048768	0.000228824	0	-3.42789e-05	0.000197564	6.77212e-06	-57.9192	0.0295954	0.0157185	0.0250762	-14.6188	21.334	20.6433	5.38443	0.0454131	0.011799	0.0469209	14.5643	59370.7	228512	236099	-75.4357	0.0000000E+000	0.0000000E+000	0.0000000E+000	75.4357	0.0000000E+000	0.0000000E+000	0.0000000E+000	-75.4357	0.0000000E+000	0.0000000E+000	0.0000000E+000	-14.5643	0.0000000E+000	0.0000000E+000	0.0000000E+000	14.5643	3.8489	75.4357	-6.32502e-07	-1.09026e-06	-9.85265e-10	-1.08928e-06	0.21842	43837	39.6153	43797.4
21.5517	21.8535	4.29736	22.272	-11.1249	11.4594	0.218623	-0.00472458	1718.45	63.9765	1	11	0.00487509	0.000218888	0	-3.47114e-05	2.57432e-05	4.11341e-06	66.502	0.0187923	0.00749282	-0.0172339	-11.0777	22.2761	21.861	4.28013	0.0440557	0.00866328	0.0448994	11.1249	63976.5	325342	331572	-78.8751	0.0000000E+000	0.0000000E+000	0.0000000E+000	78.8751	0.0000000E+000	0.0000000E+000	0.0000000E+000	-78.8751	0.0000000E+000	0.0000000E+000	0.0000000E+000	-11.1249	0.0000000E+000	0.0000000E+000	0.0000000E+000	11.1249	5.08533	78.8751	-4.32508e-07	-1.0329e-06	-1.21626e-10	-1.03278e-06	0.218598	46273.6	5.44878	46268.2
14.6852	22.702	3.39605	22.9546	-8.50791	11.9192	0.218626	-0.00456672	3191.3	69.8512	1	11	0.00488394	0.000212765	0	-3.44022e-05	0.000159382	1.20287e-05	85.2491	0.0565351	0.00468249	-0.0563408	-8.36708	22.951	22.7067	3.33971	0.0430848	0.00644514	0.0435642	8.50791	69851.2	466945	472140	-81.4921	0.0000000E+000	0.0000000E+000	0.0000000E+000	81.4921	0.0000000E+000	0.0000000E+000	0.0000000E+000	-81.4921	0.0000000E+000	0.0000000E+000	0.0000000E+000	-8.50791	0.0000000E+000	0.0000000E+000	0.0000000E+000	8.50791	6.68484	81.4921	3.09188e-07	-9.98403e-07	-7.27851e-10	-9.97676e-07	0.218467	47873.8	34.9007	47838.9
10.0032	23.1342	2.55419	23.2748	-6.30036	12.3699	0.218609	-0.00514642	6229.14	75.0175	1	11	0.00486209	0.000208899	0	-3.4889e-05	0.000197564	1.31175e-05	50.2495	0.0627933	0.0401529	-0.0482777	-6.17157	23.3095	23.1744	2.50591	0.0427054	0.004715	0.0429649	6.30036	75017.4	679461	683590	-83.6996	0.0000000E+000	0.0000000E+000	0.0000000E+000	83.6996	0.0000000E+000	0.0000000E+000	0.0000000E+000	-83.6996	0.0000000E+000	0.0000000E+000	0.0000000E+000	-6.30036	0.0000000E+000	0.0000000E+000	0.0000000E+000	6.30036	9.05737	83.6996	-4.86785e-07	-1.12505e-06	-1.01675e-09	-1.12404e-06	0.218412	42477.9	38.3887	42439.5
6.81719	23.5747	1.96313	23.6562	-4.76021	12.7095	0.218615	-0.0050377	11892.3	81.8979	1	11	0.0048801	0.000206292	0	-3.45223e-05	0.000159382	8.66059e-06	0.902661	0.0419822	0.0419769	-0.000661376	-4.7502	23.698	23.6166	1.96247	0.0421263	0.00350799	0.0422721	4.76021	81897.8	983486	986890	-85.2398	0.0000000E+000	0.0000000E+000	0.0000000E+000	85.2398	0.0000000E+000	0.0000000E+000	0.0000000E+000	-85.2398	0.0000000E+000	0.0000000E+000	0.0000000E+000	-4.76021	0.0000000E+000	0.0000000E+000	0.0000000E+000	4.76021	12.0087	85.2398	3.66632e-07	-1.10132e-06	-8.02917e-10	-1.10051e-06	0.218455	43395.8	31.6378	43364.1
4.63925	23.6901	1.52052	23.7389	-3.67241	13.1945	0.218622	-0.00448071	22562.2	92.5642	1	11	0.00485724	0.000204611	0	-3.74133e-05	-0.000203351	9.9582e-06	25.6028	0.0486689	0.0438902	-0.0210313	-3.61507	23.7814	23.734	1.49949	0.0420385	0.00269818	0.042125	3.67241	92564.2	1.44218e+06	1.44515e+06	-86.3276	0.0000000E+000	0.0000000E+000	0.0000000E+000	86.3276	0.0000000E+000	0.0000000E+000	0.0000000E+000	-86.3276	0.0000000E+000	0.0000000E+000	0.0000000E+000	-3.67241	0.0000000E+000	0.0000000E+000	0.0000000E+000	3.67241	15.5803	86.3276	-2.89101e-06	-9.79581e-07	9.11159e-10	-9.80492e-07	0.218825	48791.8	45.3838	48837.2
3.1604	23.9186	1.24173	23.9508	-2.97183	13.8875	0.21861	-0.00463671	40555.7	109.009	1	11	0.00487185	0.00020341	0	-3.90103e-05	-8.88041e-05	3.7849e-06	52.0993	0.0186072	0.0114303	-0.0146825	-2.93535	23.9615	23.9301	1.22705	0.041696	0.00216464	0.0417522	2.97183	109009	2.09978e+06	2.1026e+06	-87.0282	0.0000000E+000	0.0000000E+000	0.0000000E+000	87.0282	0.0000000E+000	0.0000000E+000	0.0000000E+000	-87.0282	0.0000000E+000	0.0000000E+000	0.0000000E+000	-2.97183	0.0000000E+000	0.0000000E+000	0.0000000E+000	2.97183	19.2624	87.0282	-1.59692e-06	-1.01363e-06	4.11759e-10	-1.01404e-06	0.218699	47147.7	19.1524	47166.9
2.15577	24.0644	1.09422	24.0892	-2.60348	14.8912	0.218624	-0.00385047	67470.3	139.212	1	11	0.00487376	0.000202321	0	-3.7208e-05	0.00014029	2.33778e-06	14.7705	0.0115548	0.011173	-0.00294587	-2.59528	24.1003	24.0755	1.09128	0.0414695	0.00188564	0.0415123	2.60348	139212	3.06159e+06	3.06475e+06	-87.3965	0.0000000E+000	0.0000000E+000	0.0000000E+000	87.3965	0.0000000E+000	0.0000000E+000	0.0000000E+000	-87.3965	0.0000000E+000	0.0000000E+000	0.0000000E+000	-2.60348	0.0000000E+000	0.0000000E+000	0.0000000E+000	2.60348	21.9922	87.3965	1.80222e-06	-8.41805e-07	-5.40184e-10	-8.41264e-07	0.218484	56778.6	36.4347	56742.2
1.46631	24.1967	1.01371	24.2179	-2.39897	16.3516	0.218616	-0.00378571	107073	187.6	1	11	0.00487622	0.000201348	0	-3.41909e-05	0.000102108	3.34246e-06	35.4491	0.0166005	0.0135233	-0.00962792	-2.37489	24.231	24.2102	1.00408	0.0412555	0.00172838	0.0412917	2.39897	187600	4.47792e+06	4.48185e+06	-87.601	0.0000000E+000	0.0000000E+000	0.0000000E+000	87.601	0.0000000E+000	0.0000000E+000	0.0000000E+000	-87.601	0.0000000E+000	0.0000000E+000	0.0000000E+000	-2.39897	0.0000000E+000	0.0000000E+000	0.0000000E+000	2.39897	23.8695	87.601	3.01716e-06	-8.27618e-07	-3.86551e-10	-8.27231e-07	0.218514	57747.9	26.972	57720.9
1.00006	24.3231	1.0421	24.3454	-2.45329	19.5269	0.218626	-0.0023866	152715	279.814	1	12	0.00487559	0.000200267	0	-3.4712e-05	-0.000165169	2.85584e-06	-0.409531	0.0142601	0.0142598	0.000101926	-2.45209	24.3597	24.3374	1.04221	0.0410378	0.00175823	0.0410755	2.45329	279814	6.53096e+06	6.53695e+06	-87.5467	0.0000000E+000	0.0000000E+000	0.0000000E+000	87.5467	0.0000000E+000	0.0000000E+000	0.0000000E+000	-87.5467	0.0000000E+000	0.0000000E+000	0.0000000E+000	-2.45329	0.0000000E+000	0.0000000E+000	0.0000000E+000	2.45329	23.3404	87.5467	-5.21101e-07	-5.21774e-07	3.94193e-10	-5.22168e-07	0.218791	91605.5	69.2067	91674.7
0.681362	24.5003	1.15774	24.5276	-2.70545	22.639	0.21862	-0.00192832	201758	449.512	1	12	0.00487508	0.000198759	0	-4.16746e-05	-0.000146078	2.39142e-06	30.2814	0.0120318	0.0103902	-0.00606699	-2.69015	24.5377	24.5107	1.15167	0.0407249	0.00192442	0.0407704	2.70545	449512	9.51267e+06	9.52328e+06	-87.2946	0.0000000E+000	0.0000000E+000	0.0000000E+000	87.2946	0.0000000E+000	0.0000000E+000	0.0000000E+000	-87.2946	0.0000000E+000	0.0000000E+000	0.0000000E+000	-2.70545	0.0000000E+000	0.0000000E+000	0.0000000E+000	2.70545	21.1622	87.2946	-6.9626e-06	-4.2157e-07	2.81685e-10	-4.21851e-07	0.218766	113373	75.7539	113449
0.464091	24.6733	1.3311	24.7092	-3.08805	27.1955	0.218624	-0.00165223	257636	747.67	1	12	0.00487546	0.000197313	0	-5.61778e-05	-0.000107895	1.69033e-06	-11.8761	0.00856674	0.00838337	0.001763	-3.09109	24.7177	24.6817	1.33286	0.0404119	0.00218018	0.0404707	3.08805	747670	1.38588e+07	1.3879e+07	-86.9119	0.0000000E+000	0.0000000E+000	0.0000000E+000	86.9119	0.0000000E+000	0.0000000E+000	0.0000000E+000	-86.9119	0.0000000E+000	0.0000000E+000	0.0000000E+000	-3.08805	0.0000000E+000	0.0000000E+000	0.0000000E+000	3.08805	18.5361	86.9119	-1.45032e-05	-3.61217e-07	1.78268e-10	-3.61395e-07	0.218732	132321	65.3029	132386
0.316193	24.9083	1.59836	24.9595	-3.67162	33.8698	0.218626	-0.00238649	314916	1291.43	1	12	0.00487687	0.000195392	0	-7.5062e-05	0.000235747	1.32711e-06	-38.3868	0.00679204	0.00532385	0.00421763	-3.6805	24.9651	24.9136	1.60257	0.0399827	0.00256568	0.0400649	3.67162	1.29143e+06	2.01252e+07	2.01666e+07	-86.3284	0.0000000E+000	0.0000000E+000	0.0000000E+000	86.3284	0.0000000E+000	0.0000000E+000	0.0000000E+000	-86.3284	0.0000000E+000	0.0000000E+000	0.0000000E+000	-3.67162	0.0000000E+000	0.0000000E+000	0.0000000E+000	3.67162	15.5837	86.3284	-1.88842e-05	-5.21748e-07	-5.62607e-10	-5.21186e-07	0.21839	91609.8	98.7838	91511.1
0.215268	25.2231	2.02775	25.3044	-4.59627	43.6622	0.218618	-0.003583	364609	2341.32	1	12	0.0048768	0.000192725	0	-9.1194e-05	2.57432e-05	2.43932e-06	-19.0722	0.012657	0.0119622	0.00413578	-4.60343	25.3167	25.235	2.03188	0.0393917	0.00316679	0.0395187	4.59627	2.34132e+06	2.91236e+07	2.92176e+07	-85.4037	0.0000000E+000	0.0000000E+000	0.0000000E+000	85.4037	0.0000000E+000	0.0000000E+000	0.0000000E+000	-85.4037	0.0000000E+000	0.0000000E+000	0.0000000E+000	-4.59627	0.0000000E+000	0.0000000E+000	0.0000000E+000	4.59627	12.439	85.4037	-1.6132e-05	-7.83308e-07	-9.22379e-11	-7.83216e-07	0.218592	61015.2	7.18481	61008.1
0.146929	25.5546	2.66375	25.6931	-5.95089	57.9994	0.218618	-0.00405502	406649	4370.94	1	12	0.00487192	0.00018962	0	-9.29981e-05	-5.06217e-05	1.42255e-06	-58.5503	0.00750211	0.00391423	0.00640004	-5.96417	25.6976	25.5585	2.67015	0.0387113	0.00403517	0.038921	5.95089	4.37094e+06	4.19325e+07	4.21597e+07	-84.0491	0.0000000E+000	0.0000000E+000	0.0000000E+000	84.0491	0.0000000E+000	0.0000000E+000	0.0000000E+000	-84.0491	0.0000000E+000	0.0000000E+000	0.0000000E+000	-5.95089	0.0000000E+000	0.0000000E+000	0.0000000E+000	5.95089	9.59346	84.0491	-1.80408e-06	-8.865e-07	2.05272e-10	-8.86705e-07	0.218668	53912.9	12.4837	53925.3
0.0999041	25.9433	3.46532	26.1738	-7.60812	79.0764	0.218615	-0.00371883	459720	8058.39	1	12	0.00487348	0.000186197	0	-6.91643e-05	4.48344e-05	2.81427e-06	-28.795	0.0151145	0.0132456	0.0072803	-7.62007	26.1878	25.9566	3.4726	0.0378699	0.00505838	0.0382062	7.60812	8.05839e+06	6.03296e+07	6.08654e+07	-82.3919	0.0000000E+000	0.0000000E+000	0.0000000E+000	82.3919	0.0000000E+000	0.0000000E+000	0.0000000E+000	-82.3919	0.0000000E+000	0.0000000E+000	0.0000000E+000	-7.60812	0.0000000E+000	0.0000000E+000	0.0000000E+000	7.60812	7.48656	82.3919	2.38338e-05	-8.12993e-07	-1.66732e-10	-8.12826e-07	0.21857	58786	12.056	58774
0.0680626	26.4738	4.53214	26.859	-9.71448	110.004	0.218608	-0.00313125	515950	14690.5	1	12	0.00487306	0.000181431	0	-2.54612e-05	-0.000146078	1.6174e-06	-7.4913	0.00891464	0.00883855	0.00116225	-9.71374	26.8679	26.4827	4.5333	0.0366976	0.00628238	0.0372315	9.71448	1.46905e+07	8.58123e+07	8.70607e+07	-80.2855	0.0000000E+000	0.0000000E+000	0.0000000E+000	80.2855	0.0000000E+000	0.0000000E+000	0.0000000E+000	-80.2855	0.0000000E+000	0.0000000E+000	0.0000000E+000	-9.71448	0.0000000E+000	0.0000000E+000	0.0000000E+000	9.71448	5.84135	80.2855	4.37031e-05	-6.84517e-07	4.57406e-10	-6.84974e-07	0.218754	69814.9	46.6515	69861.5
0.0464052	27.3317	5.99686	27.9819	-12.3752	155.354	0.218615	-0.00163013	571912	26267.8	1	12	0.00487621	0.000174263	0	2.81137e-05	0.000197564	2.0168e-06	19.465	0.0115733	0.0109118	-0.00385656	-12.3627	27.9917	27.3426	5.99301	0.0349071	0.00765898	0.0357374	12.3752	2.62679e+07	1.1972e+08	1.22568e+08	-77.6248	0.0000000E+000	0.0000000E+000	0.0000000E+000	77.6248	0.0000000E+000	0.0000000E+000	0.0000000E+000	-77.6248	0.0000000E+000	0.0000000E+000	0.0000000E+000	-12.3752	0.0000000E+000	0.0000000E+000	0.0000000E+000	12.3752	4.55767	77.6248	5.35749e-05	-3.5637e-07	-3.22055e-10	-3.56048e-07	0.218418	134109	121.196	133988
0.0315922	28.2974	8.25547	29.477	-16.264	221.958	0.218607	-0.00136154	610237	47864.6	1	12	0.00487411	0.000165353	0	1.27529e-05	6.65197e-06	7.99148e-07	-14.2795	0.004833	0.00468368	0.00119207	-16.2637	29.4819	28.3021	8.25666	0.0325671	0.0095011	0.0339247	16.264	4.78646e+07	1.64066e+08	1.70906e+08	-73.736	0.0000000E+000	0.0000000E+000	0.0000000E+000	73.736	0.0000000E+000	0.0000000E+000	0.0000000E+000	-73.736	0.0000000E+000	0.0000000E+000	0.0000000E+000	-16.264	0.0000000E+000	0.0000000E+000	0.0000000E+000	16.264	3.42772	73.736	-1.53608e-05	-2.97642e-07	-9.05689e-12	-2.97632e-07	0.218601	160559	4.88564	160554
0.0215268	29.3707	11.1719	31.4237	-20.8256	319.697	0.218612	-0.00153352	661780	83647.6	1	12	0.00487695	0.0001552	0	-0.000161015	-3.15305e-05	2.04066e-06	11.5091	0.0131486	0.0128842	-0.00262346	-20.8128	31.4348	29.3836	11.1693	0.029744	0.0113139	0.0318231	20.8256	8.36476e+07	2.19908e+08	2.35279e+08	-69.1744	0.0000000E+000	0.0000000E+000	0.0000000E+000	69.1744	0.0000000E+000	0.0000000E+000	0.0000000E+000	-69.1744	0.0000000E+000	0.0000000E+000	0.0000000E+000	-20.8256	0.0000000E+000	0.0000000E+000	0.0000000E+000	20.8256	2.62898	69.1744	-0.000173768	-3.35245e-07	4.83525e-11	-3.35293e-07	0.218643	142556	20.5609	142577
0.0146812	31.051	14.8038	34.3994	-25.4898	462.998	0.21861	-0.0021488	732296	135622	1	12	0.00487652	0.000141762	0	-0.0005308	-3.15305e-05	1.09203e-06	66.855	0.00770326	0.00302784	-0.00708325	-25.477	34.3991	31.0541	14.7967	0.0262406	0.0125104	0.0290703	25.4898	1.35622e+08	2.84468e+08	3.15144e+08	-64.5102	0.0000000E+000	0.0000000E+000	0.0000000E+000	64.5102	0.0000000E+000	0.0000000E+000	0.0000000E+000	-64.5102	0.0000000E+000	0.0000000E+000	0.0000000E+000	-25.4898	0.0000000E+000	0.0000000E+000	0.0000000E+000	25.4898	2.0975	64.5102	-0.000369786	-4.69749e-07	6.77528e-11	-4.69817e-07	0.218641	101735	14.6735	101750
0.0100092	33.7373	19.8968	39.1674	-30.5303	673.18	0.218615	-0.00267475	799168	206232	1	12	0.00487598	0.000124491	0	-0.000992071	-0.000146078	2.42421e-06	13.8798	0.019473	0.0189045	-0.00467131	-30.5104	39.1814	33.7562	19.8922	0.0219917	0.0129698	0.0255314	30.5303	2.06232e+08	3.49689e+08	4.05973e+08	-59.4697	0.0000000E+000	0.0000000E+000	0.0000000E+000	59.4697	0.0000000E+000	0.0000000E+000	0.0000000E+000	-59.4697	0.0000000E+000	0.0000000E+000	0.0000000E+000	-30.5303	0.0000000E+000	0.0000000E+000	0.0000000E+000	30.5303	1.69561	59.4697	-0.000461271	-5.84739e-07	3.90721e-10	-5.8513e-07	0.218761	81732.8	54.6136	81787.4