File: txt/18953_R308_UA706_SOC00_C08.mpt
EC-Lab ASCII FILE
Nb header lines : 65

Potentio Electrochemical Impedance Spectroscopy

Run on channel : 8 (SN 65398)
Grouped channel(s) : 5, 6, 7, 8
User :
CE vs. WE compliance from -10 V to 10 V
Electrode connection : standard
Potential control : Ewe
Ewe ctrl range : min = -10.00 V, max = 10.00 V
Safety Limits :
	Do not start on E overload
Acquisition started on : 11/04/2025 15:53:30.548
Loaded Setting File :  C:\Users\Celltest\OneDrive - store-dot.com\Documents\EC-Lab\Data\@Biologic Test Protocols\anode half cell EIS SOC00.mps
Saved on :
	File : 18950_R308_UA706_SOC00_C08.mpr
	Directory : C:\Users\Celltest\OneDrive - store-dot.com\Documents\EC-Lab\Data\Charmaine\
	Host : 169.254.61.224
Device : VMP-3e (SN .003165)
Address : USB
EC-LAB for windows v11.62 (software)
Internet server v27.00 (firmware)
Command interpretor v12.03 (firmware)
Electrode material :
Initial state :
Electrolyte :
Comments :
Electrode surface area : 0.001 cm²
Characteristic mass : 0.001 g
Equivalent Weight : 0.000 g/eq.
Density : 0.000 g/cm3
Volume (V) : 0.001 cm³
Record Ece
Cycle Definition : Charge/Discharge alternance
Mode                Single sine
E (V)               0.0000
vs.                 Eoc
tE (h:m:s)          0:00:0.0000
record              0
dI                  0.000
unit dI             mA
dt (s)              0.000
fi                  100.000
unit fi             kHz
ff                  10.000
unit ff             mHz
Nd                  6
Points              per decade
spacing             Logarithmic
Va (mV)             5.0
pw                  0.10
Na                  2
corr                0
E range min (V)     -10.000
E range max (V)     10.000
I Range             Auto
Bandwidth           5
nc cycles           0
goto Ns'            0
nr cycles           0
inc. cycle          0

freq/Hz	Re(Z)/Ohm	-Im(Z)/Ohm	|Z|/Ohm	Phase(Z)/deg	time/s	<Ewe>/V	<I>/mA	Cs/µF	Cp/µF	cycle number	I Range	|Ewe|/V	|I|/A	Ns	(Q-Qo)/mA.h	<Ece>/V	|Ece|/V	Phase(Zce)/deg	|Zce|/Ohm	Re(Zce)/Ohm	-Im(Zce)/Ohm	Phase(Zwe-ce)/deg	|Zwe-ce|/Ohm	Re(Zwe-ce)/Ohm	-Im(Zwe-ce)/Ohm	Re(Y)/Ohm-1	Im(Y)/Ohm-1	|Y|/Ohm-1	Phase(Y)/deg	Re(C)/nF	Im(C)/nF	|C|/nF	Phase(C)/deg	Re(M)	Im(M)	|M|	Phase(M)/deg	Re(Permittivity)	Im(Permittivity)	|Permittivity|	Phase(Permittivity)/deg	Re(Resistivity)/Ohm.cm	Im(Resistivity)/Ohm.cm	|Resistivity|/Ohm.cm	Phase(Resistivity)/deg	Re(Conductivity)/mS/cm	Im(Conductivity)/mS/cm	|Conductivity|/mS/cm	Phase(Conductivity)/deg	Tan(Delta)	Loss Angle(Delta)/deg	dq/mA.h	Pwe/W	Pce/W	Pwe-ce/W	<Ewe-Ece>/V	Rwe/Ohm	Rce/Ohm	Rwe-ce/Ohm		Ewe-Ece/V
100004	1.68771	0.865141	1.89653	-27.1403	1.91056	0.199765	0.0186779	1.83957	0.3828	1	9	0.00475829	0.00250895	0	7.20234e-06	-4.92848e-05	3.9514e-05	68.7079	0.0157492	0.00571891	-0.0146742	-26.6666	1.89499	1.69343	0.850467	0.469221	0.240529	0.527279	27.1403	382.8	746.761	839.159	-62.8597	0.0000000E+000	0.0000000E+000	0.0000000E+000	62.8597	0.0000000E+000	0.0000000E+000	0.0000000E+000	-62.8597	0.0000000E+000	0.0000000E+000	0.0000000E+000	-27.1403	0.0000000E+000	0.0000000E+000	0.0000000E+000	27.1403	1.95079	62.8597	7.20234e-06	3.7312e-06	-9.20538e-10	3.73212e-06	0.199815	10695.3	2.63867	10697.9
68132	1.93225	1.04333	2.19594	-28.367	2.41755	0.199756	0.0225098	2.23897	0.505417	1	9	0.00522008	0.00237715	0	9.91832e-06	-0.000106549	2.55028e-05	49.2157	0.0107283	0.00700785	-0.00812317	-28.0939	2.19827	1.93926	1.03521	0.400705	0.216362	0.455387	28.367	505.417	936.037	1063.77	-61.633	0.0000000E+000	0.0000000E+000	0.0000000E+000	61.633	0.0000000E+000	0.0000000E+000	0.0000000E+000	-61.633	0.0000000E+000	0.0000000E+000	0.0000000E+000	-28.367	0.0000000E+000	0.0000000E+000	0.0000000E+000	28.367	1.85201	61.633	2.71598e-06	4.49645e-06	-2.39839e-09	4.49885e-06	0.199862	8874.19	4.73346	8878.92
46420.4	2.22549	1.18428	2.52098	-28.0193	2.92456	0.199752	0.0148833	2.89506	0.638893	1	9	0.00517163	0.00205144	0	7.08225e-06	-3.01967e-05	1.6798e-05	44.0394	0.00818837	0.00588631	-0.00569217	-27.8425	2.52351	2.23138	1.17859	0.350178	0.186344	0.396672	28.0193	638.893	1200.6	1360.01	-61.9807	0.0000000E+000	0.0000000E+000	0.0000000E+000	61.9807	0.0000000E+000	0.0000000E+000	0.0000000E+000	-61.9807	0.0000000E+000	0.0000000E+000	0.0000000E+000	-28.0193	0.0000000E+000	0.0000000E+000	0.0000000E+000	28.0193	1.8792	61.9807	-2.83607e-06	2.97296e-06	-4.49427e-10	2.97341e-06	0.199782	13421.2	2.0289	13423.2
31621.1	2.56372	1.30419	2.87638	-26.9629	3.43154	0.199755	0.0159249	3.85925	0.793397	1	9	0.00510999	0.00177654	0	1.17226e-05	-4.92848e-05	1.14664e-05	-6.07466	0.00645437	0.00641813	0.00068303	-26.9171	2.88241	2.57013	1.30487	0.309869	0.157633	0.34766	26.9629	793.397	1559.63	1749.83	-63.0371	0.0000000E+000	0.0000000E+000	0.0000000E+000	63.0371	0.0000000E+000	0.0000000E+000	0.0000000E+000	-63.0371	0.0000000E+000	0.0000000E+000	0.0000000E+000	-26.9629	0.0000000E+000	0.0000000E+000	0.0000000E+000	26.9629	1.96576	63.0371	4.64037e-06	3.18108e-06	-7.84857e-10	3.18187e-06	0.199804	12543.5	3.09482	12546.6
21544.7	2.92942	1.36512	3.23188	-24.9857	3.81452	0.199748	0.0149205	5.41138	0.965473	1	9	0.00522488	0.00161667	0	1.3993e-05	-1.11087e-05	1.41571e-05	47.0802	0.00875696	0.00596326	-0.00641279	-24.8381	3.23459	2.93539	1.35871	0.28046	0.130695	0.309417	24.9857	965.473	2071.81	2285.73	-65.0143	0.0000000E+000	0.0000000E+000	0.0000000E+000	65.0143	0.0000000E+000	0.0000000E+000	0.0000000E+000	-65.0143	0.0000000E+000	0.0000000E+000	0.0000000E+000	-24.9857	0.0000000E+000	0.0000000E+000	0.0000000E+000	24.9857	2.1459	65.0143	2.27036e-06	2.98033e-06	-1.65747e-10	2.9805e-06	0.199759	13387.5	0.744527	13388.2
14678.6	3.29401	1.41548	3.58526	-23.2539	4.19952	0.199746	0.0119815	7.66004	1.19398	1	9	0.00536343	0.00149597	0	1.16105e-05	-4.92848e-05	1.11532e-05	-32.5848	0.0074555	0.00628197	0.00401514	-23.2732	3.59262	3.30029	1.4195	0.256261	0.110119	0.27892	23.2539	1193.98	2778.56	3024.23	-66.7461	0.0000000E+000	0.0000000E+000	0.0000000E+000	66.7461	0.0000000E+000	0.0000000E+000	0.0000000E+000	-66.7461	0.0000000E+000	0.0000000E+000	0.0000000E+000	-23.2539	0.0000000E+000	0.0000000E+000	0.0000000E+000	23.2539	2.32713	66.7461	-2.38246e-06	2.39326e-06	-5.90506e-10	2.39385e-06	0.199795	16671.2	4.11341	16675.3
10002.2	3.63059	1.43306	3.90318	-21.54	4.58255	0.199746	0.00178808	11.1035	1.49675	1	9	0.00511257	0.00130985	0	9.88965e-06	-0.000182901	6.82542e-06	-39.9658	0.00521086	0.00399374	0.00334709	-21.5642	3.90813	3.63458	1.4364	0.238309	0.0940645	0.256201	21.54	1496.75	3791.95	4076.66	-68.46	0.0000000E+000	0.0000000E+000	0.0000000E+000	68.46	0.0000000E+000	0.0000000E+000	0.0000000E+000	-68.46	0.0000000E+000	0.0000000E+000	0.0000000E+000	-21.54	0.0000000E+000	0.0000000E+000	0.0000000E+000	21.54	2.53346	68.46	-1.72087e-06	3.57163e-07	-3.27043e-10	3.5749e-07	0.199929	111710	102.289	111812
6810.42	3.98511	1.49476	4.25622	-20.5604	4.99955	0.199739	-0.0108695	15.6341	1.92828	1	10	0.00492434	0.00115697	0	9.15981e-06	0.000217948	2.97498e-05	106.364	0.0257135	-0.00724441	-0.0246719	-20.2827	4.24082	3.97786	1.47009	0.219984	0.0825134	0.23495	20.5604	1928.28	5140.89	5490.63	-69.4396	0.0000000E+000	0.0000000E+000	0.0000000E+000	69.4396	0.0000000E+000	0.0000000E+000	0.0000000E+000	-69.4396	0.0000000E+000	0.0000000E+000	0.0000000E+000	-20.5604	0.0000000E+000	0.0000000E+000	0.0000000E+000	20.5604	2.66605	69.4396	-7.29842e-07	-2.17106e-06	-2.36898e-09	-2.16869e-06	0.199521	18376.2	20.0514	18356.1
4646	4.30545	1.53095	4.56954	-19.5746	5.26563	0.199735	-0.0151958	22.3758	2.51164	1	10	0.00518432	0.00113454	0	8.57812e-06	6.52435e-05	1.92899e-05	-96.4482	0.0170025	-0.00190947	0.0168949	-19.7821	4.57343	4.30354	1.54785	0.206193	0.073319	0.21884	19.5746	2511.64	7063.4	7496.66	-70.4254	0.0000000E+000	0.0000000E+000	0.0000000E+000	70.4254	0.0000000E+000	0.0000000E+000	0.0000000E+000	-70.4254	0.0000000E+000	0.0000000E+000	0.0000000E+000	-19.5746	0.0000000E+000	0.0000000E+000	0.0000000E+000	19.5746	2.81227	70.4254	-5.81685e-07	-3.03513e-06	-9.91427e-10	-3.03414e-06	0.19967	13144.1	4.29353	13139.8
3163.08	4.614	1.64224	4.89755	-19.592	5.63864	0.199652	-0.0174054	30.6388	3.44501	1	10	0.00522375	0.00106661	0	7.15482e-06	0.000122508	8.14797e-06	8.00315	0.00763916	0.00756476	-0.00106358	-19.5506	4.90432	4.62156	1.64118	0.192363	0.0684669	0.204184	19.592	3445.01	9679	10273.8	-70.408	0.0000000E+000	0.0000000E+000	0.0000000E+000	70.408	0.0000000E+000	0.0000000E+000	0.0000000E+000	-70.408	0.0000000E+000	0.0000000E+000	0.0000000E+000	-19.592	0.0000000E+000	0.0000000E+000	0.0000000E+000	19.592	2.80957	70.408	-1.4233e-06	-3.47504e-06	-2.1323e-09	-3.47291e-06	0.19953	11470.7	7.03847	11463.6
2155.69	4.92042	1.80617	5.24145	-20.157	6.08985	0.199665	-0.00719415	40.8767	4.85388	1	10	0.00517542	0.000987402	0	6.93943e-06	8.43316e-05	8.16645e-06	75.7193	0.00827065	0.00204015	-0.00801507	-20.067	5.24061	4.92246	1.79815	0.179102	0.0657439	0.190787	20.157	4853.88	13223.1	14085.8	-69.843	0.0000000E+000	0.0000000E+000	0.0000000E+000	69.843	0.0000000E+000	0.0000000E+000	0.0000000E+000	-69.843	0.0000000E+000	0.0000000E+000	0.0000000E+000	-20.157	0.0000000E+000	0.0000000E+000	0.0000000E+000	20.157	2.72423	69.843	-2.15388e-07	-1.43642e-06	-6.06694e-10	-1.43582e-06	0.199581	27753.8	11.7222	27742.1
1468.59	5.25821	2.06997	5.65098	-21.4878	6.54109	0.199663	-0.00625672	52.3546	7.02484	1	10	0.00512238	0.000906458	0	6.70018e-06	0.000141596	3.81662e-06	-13.5039	0.00421048	0.00409408	0.000983198	-21.4819	5.65515	5.26231	2.07096	0.164661	0.0648212	0.17696	21.4878	7024.85	17844.7	19177.7	-68.5122	0.0000000E+000	0.0000000E+000	0.0000000E+000	68.5122	0.0000000E+000	0.0000000E+000	0.0000000E+000	-68.5122	0.0000000E+000	0.0000000E+000	0.0000000E+000	-21.4878	0.0000000E+000	0.0000000E+000	0.0000000E+000	21.4878	2.54023	68.5122	-2.3925e-07	-1.24923e-06	-8.85925e-10	-1.24835e-06	0.199521	31911.7	22.631	31889.1
1000.32	5.65467	2.422	6.15153	-23.1864	6.99282	0.199669	-0.00663244	65.6911	10.1833	1	10	0.00507815	0.000825509	0	5.31861e-06	0.000561533	6.19227e-06	170.173	0.00750116	-0.0073911	-0.00128028	-23.2025	6.14424	5.64728	2.42072	0.149431	0.0640041	0.162561	23.1864	10183.3	23775	25864.1	-66.8136	0.0000000E+000	0.0000000E+000	0.0000000E+000	66.8136	0.0000000E+000	0.0000000E+000	0.0000000E+000	-66.8136	0.0000000E+000	0.0000000E+000	0.0000000E+000	-23.1864	0.0000000E+000	0.0000000E+000	0.0000000E+000	23.1864	2.33471	66.8136	-1.38157e-06	-1.32429e-06	-3.72433e-09	-1.32057e-06	0.199107	30104.9	84.6646	30020.2
681.09	6.12637	2.93857	6.79467	-25.6251	7.44259	0.19967	-0.00657665	79.5207	14.8735	1	10	0.00504258	0.000742138	0	4.96413e-06	8.43316e-05	3.57379e-06	12.7656	0.00481554	0.00469651	-0.00106405	-25.5999	6.79845	6.13106	2.9375	0.132699	0.06365	0.147174	25.6251	14873.5	31008.6	34391.2	-64.3749	0.0000000E+000	0.0000000E+000	0.0000000E+000	64.3749	0.0000000E+000	0.0000000E+000	0.0000000E+000	-64.3749	0.0000000E+000	0.0000000E+000	0.0000000E+000	-25.6251	0.0000000E+000	0.0000000E+000	0.0000000E+000	25.6251	2.08482	64.3749	-3.54481e-07	-1.31316e-06	-5.54619e-10	-1.31261e-06	0.199586	30360.5	12.8229	30347.7
463.961	6.76846	3.62281	7.67703	-28.1579	7.89429	0.199667	-0.00447115	94.6875	21.0862	1	10	0.00502927	0.000655106	0	4.84206e-06	-0.000106549	1.36527e-05	27.4366	0.0208404	0.0184963	-0.00960259	-28.0298	7.68883	6.78696	3.61321	0.114843	0.0614695	0.130259	28.1579	21086.2	39395.1	44683.3	-61.8421	0.0000000E+000	0.0000000E+000	0.0000000E+000	61.8421	0.0000000E+000	0.0000000E+000	0.0000000E+000	-61.8421	0.0000000E+000	0.0000000E+000	0.0000000E+000	-28.1579	0.0000000E+000	0.0000000E+000	0.0000000E+000	28.1579	1.86829	61.8421	-1.22076e-07	-8.92743e-07	4.76396e-10	-8.93219e-07	0.199774	44656.9	23.8303	44680.7
316.316	7.64487	4.46142	8.85146	-30.2671	8.34202	0.199668	-0.00629393	112.778	28.6512	1	10	0.00501128	0.000566153	0	3.69365e-06	-3.01967e-05	8.08108e-06	-4.24434	0.0142737	0.0142345	0.00105639	-30.2267	8.86429	7.6591	4.46248	0.0975754	0.0569434	0.112976	30.2671	28651.2	49095.3	56844	-59.7329	0.0000000E+000	0.0000000E+000	0.0000000E+000	59.7329	0.0000000E+000	0.0000000E+000	0.0000000E+000	-59.7329	0.0000000E+000	0.0000000E+000	0.0000000E+000	-30.2671	0.0000000E+000	0.0000000E+000	0.0000000E+000	30.2671	1.71355	59.7329	-1.1484e-06	-1.2567e-06	1.90056e-10	-1.25689e-06	0.199698	31723.9	4.79776	31728.7
215.345	8.91877	5.33469	10.3925	-30.8854	8.79157	0.199668	-0.00562434	138.54	36.5055	1	10	0.00500965	0.000482046	0	2.7233e-06	0.000313388	6.74992e-06	72.5794	0.0140026	0.00419217	-0.0133604	-30.8103	10.3892	8.92296	5.32133	0.0825786	0.0493938	0.0962235	30.8854	36505.5	61031.4	71116	-59.1146	0.0000000E+000	0.0000000E+000	0.0000000E+000	59.1146	0.0000000E+000	0.0000000E+000	0.0000000E+000	-59.1146	0.0000000E+000	0.0000000E+000	0.0000000E+000	-30.8854	0.0000000E+000	0.0000000E+000	0.0000000E+000	30.8854	1.67184	59.1146	-9.70357e-07	-1.123e-06	-1.7626e-09	-1.12124e-06	0.199354	35500.6	55.72	35444.9
146.737	10.6007	6.15996	12.2605	-30.1603	9.23749	0.199665	-0.00637577	176.077	44.4465	1	10	0.00500683	0.000408369	0	1.55209e-06	0.000351564	9.66364e-06	-6.74547	0.023664	0.0235002	0.00277954	-30.1165	12.2823	10.6242	6.16274	0.0705208	0.0409787	0.0815625	30.1603	44446.5	76488.5	88464.6	-59.8397	0.0000000E+000	0.0000000E+000	0.0000000E+000	59.8397	0.0000000E+000	0.0000000E+000	0.0000000E+000	-59.8397	0.0000000E+000	0.0000000E+000	0.0000000E+000	-30.1603	0.0000000E+000	0.0000000E+000	0.0000000E+000	30.1603	1.72091	59.8397	-1.1712e-06	-1.27302e-06	-2.2415e-09	-1.27078e-06	0.199313	31316.2	55.1407	31261
100.032	12.7186	6.60073	14.3294	-27.4285	9.68882	0.199673	-0.00607818	241.04	51.1466	1	10	0.00499932	0.000348885	0	1.22379e-06	-0.000316518	5.98193e-06	-26.7031	0.0171458	0.0153172	0.00770479	-27.4277	14.3466	12.7339	6.60843	0.0619415	0.0321466	0.0697865	27.4285	51146.5	98551.5	111033	-62.5715	0.0000000E+000	0.0000000E+000	0.0000000E+000	62.5715	0.0000000E+000	0.0000000E+000	0.0000000E+000	-62.5715	0.0000000E+000	0.0000000E+000	0.0000000E+000	-27.4285	0.0000000E+000	0.0000000E+000	0.0000000E+000	27.4285	1.92685	62.5715	-3.283e-07	-1.21365e-06	1.92385e-09	-1.21557e-06	0.19999	32850.8	52.0744	32902.9
68.104	14.851	6.52399	16.2208	-23.7157	10.1515	0.199684	-0.00194158	358.207	57.9449	1	10	0.0049897	0.000307611	0	1.14532e-06	-0.000163813	1.54534e-05	-32.3722	0.0502368	0.0424294	0.0268976	-23.7423	16.2705	14.8934	6.55089	0.056443	0.0247952	0.0616492	23.7157	57944.9	131904	144070	-66.2843	0.0000000E+000	0.0000000E+000	0.0000000E+000	66.2843	0.0000000E+000	0.0000000E+000	0.0000000E+000	-66.2843	0.0000000E+000	0.0000000E+000	0.0000000E+000	-23.7157	0.0000000E+000	0.0000000E+000	0.0000000E+000	23.7157	2.27637	66.2843	-7.84703e-08	-3.87702e-07	3.18056e-10	-3.8802e-07	0.199848	102846	84.3711	102930
46.4415	16.905	5.82825	17.8815	-19.0224	10.5877	0.199621	-0.0128485	587.997	62.4664	1	10	0.00499682	0.000279441	0	-2.43396e-07	0.0002943	4.52454e-06	28.2609	0.0161914	0.0142614	-0.00766641	-18.9843	17.8924	16.9192	5.82059	0.0528699	0.0182277	0.0559239	19.0224	62466.4	181185	191651	-70.9776	0.0000000E+000	0.0000000E+000	0.0000000E+000	70.9776	0.0000000E+000	0.0000000E+000	0.0000000E+000	-70.9776	0.0000000E+000	0.0000000E+000	0.0000000E+000	-19.0224	0.0000000E+000	0.0000000E+000	0.0000000E+000	19.0224	2.90052	70.9776	-1.38872e-06	-2.56483e-06	-3.78132e-09	-2.56105e-06	0.199327	15536.5	22.9054	15513.6
31.6296	18.4846	4.89049	19.1206	-14.8192	11.2526	0.199728	-0.00240238	1028.9	67.3093	1	11	0.0049918	0.000261069	0	-2.29759e-06	-0.000163813	5.28727e-06	41.5323	0.0202524	0.0151606	-0.0134282	-14.7688	19.1319	18.4998	4.87707	0.0505599	0.0133767	0.0522995	14.8192	67309.3	254410	263163	-75.1808	0.0000000E+000	0.0000000E+000	0.0000000E+000	75.1808	0.0000000E+000	0.0000000E+000	0.0000000E+000	-75.1808	0.0000000E+000	0.0000000E+000	0.0000000E+000	-14.8192	0.0000000E+000	0.0000000E+000	0.0000000E+000	14.8192	3.77971	75.1808	-2.05419e-06	-4.79825e-07	3.93542e-10	-4.80218e-07	0.199892	83137.6	68.1877	83205.8
21.5517	19.6868	3.87901	20.0653	-11.1466	11.6735	0.199712	-0.0026194	1903.78	71.1491	1	11	0.00502123	0.000250245	0	-2.74178e-06	-0.000182901	2.50444e-05	14.185	0.10008	0.0970281	-0.0245248	-11.0249	20.1558	19.7838	3.85449	0.0488972	0.00963454	0.0498374	11.1466	71149.1	361096	368038	-78.8534	0.0000000E+000	0.0000000E+000	0.0000000E+000	78.8534	0.0000000E+000	0.0000000E+000	0.0000000E+000	-78.8534	0.0000000E+000	0.0000000E+000	0.0000000E+000	-11.1466	0.0000000E+000	0.0000000E+000	0.0000000E+000	11.1466	5.0752	78.8534	-4.44191e-07	-5.23126e-07	4.79091e-10	-5.23605e-07	0.199895	76243.5	69.8257	76313.3
14.6852	20.2094	2.98868	20.4292	-8.41227	12.1332	0.199733	-0.001595	3626.28	77.6104	1	11	0.0049805	0.000243793	0	-3.86905e-06	-0.000201989	1.92855e-05	-22.0104	0.079106	0.0733404	0.029647	-8.46424	20.5061	20.2827	3.01833	0.048423	0.00716108	0.0489496	8.41227	77610.4	524799	530507	-81.5877	0.0000000E+000	0.0000000E+000	0.0000000E+000	81.5877	0.0000000E+000	0.0000000E+000	0.0000000E+000	-81.5877	0.0000000E+000	0.0000000E+000	0.0000000E+000	-8.41227	0.0000000E+000	0.0000000E+000	0.0000000E+000	8.41227	6.76197	81.5877	-1.12727e-06	-3.18574e-07	3.22174e-10	-3.18897e-07	0.199935	125224	126.639	125351
10.0032	20.6579	2.32334	20.7881	-6.41696	12.5838	0.199713	-0.00194751	6848.06	85.539	1	11	0.00498448	0.000239775	0	-4.36281e-06	-8.74609e-05	2.33763e-05	-87.9516	0.0974925	0.00348482	0.0974302	-6.68255	20.8027	20.6614	2.42077	0.047803	0.00537629	0.0481044	6.41696	85538.9	760565	765360	-83.583	0.0000000E+000	0.0000000E+000	0.0000000E+000	83.583	0.0000000E+000	0.0000000E+000	0.0000000E+000	-83.583	0.0000000E+000	0.0000000E+000	0.0000000E+000	-6.41696	0.0000000E+000	0.0000000E+000	0.0000000E+000	6.41696	8.89144	83.583	-4.93761e-07	-3.88943e-07	1.70331e-10	-3.89113e-07	0.1998	102548	44.9091	102593
6.81719	20.9404	1.75025	21.0134	-4.77781	12.9225	0.199732	-0.00203759	13338.8	92.5383	1	11	0.00498186	0.00023708	0	-5.33131e-06	8.43316e-05	5.15601e-06	116.585	0.021748	-0.00973268	-0.0194486	-4.72715	21.0021	20.9306	1.7308	0.0474233	0.00396376	0.0475887	4.77781	92538.4	1.10715e+06	1.11101e+06	-85.2222	0.0000000E+000	0.0000000E+000	0.0000000E+000	85.2222	0.0000000E+000	0.0000000E+000	0.0000000E+000	-85.2222	0.0000000E+000	0.0000000E+000	0.0000000E+000	-4.77781	0.0000000E+000	0.0000000E+000	0.0000000E+000	4.77781	11.9642	85.2222	-9.68505e-07	-4.06973e-07	-1.71833e-10	-4.06802e-07	0.199648	98023.7	41.3879	97982.4
4.63925	21.1279	1.38006	21.173	-3.7372	13.4064	0.199732	-0.0011982	24858.5	105.61	1	11	0.00498523	0.000235453	0	-2.8191e-06	-0.000182901	1.28168e-05	25.3596	0.0544347	0.0491892	-0.0233142	-3.66573	21.2205	21.1771	1.35674	0.0471296	0.00307846	0.0472301	3.7372	105610	1.61684e+06	1.62028e+06	-86.2628	0.0000000E+000	0.0000000E+000	0.0000000E+000	86.2628	0.0000000E+000	0.0000000E+000	0.0000000E+000	-86.2628	0.0000000E+000	0.0000000E+000	0.0000000E+000	-3.7372	0.0000000E+000	0.0000000E+000	0.0000000E+000	3.7372	15.3095	86.2628	2.51222e-06	-2.39319e-07	2.19152e-10	-2.39538e-07	0.199915	166693	152.647	166846
3.1604	21.3024	1.1481	21.3333	-3.085	14.0995	0.19973	-0.00101264	43862.9	127.041	1	11	0.00499293	0.000234044	0	-2.406e-06	0.00010342	2.62132e-06	-81.6389	0.0112001	0.00162862	0.0110811	-3.11448	21.3355	21.304	1.15918	0.0468071	0.00252269	0.046875	3.085	127041	2.35717e+06	2.36059e+06	-86.915	0.0000000E+000	0.0000000E+000	0.0000000E+000	86.915	0.0000000E+000	0.0000000E+000	0.0000000E+000	-86.915	0.0000000E+000	0.0000000E+000	0.0000000E+000	-3.085	0.0000000E+000	0.0000000E+000	0.0000000E+000	3.085	18.5544	86.915	4.13101e-07	-2.02255e-07	-1.04727e-10	-2.0215e-07	0.199627	197237	102.129	197135
2.15577	21.4429	1.01692	21.467	-2.7152	15.103	0.199736	-0.000182459	72598.9	162.916	1	11	0.00499359	0.000232617	0	-5.88287e-06	8.43316e-05	5.90693e-06	14.0796	0.0253934	0.0246305	-0.00617744	-2.69564	21.4913	21.4675	1.01075	0.0465309	0.00220672	0.0465832	2.7152	162916	3.43526e+06	3.43912e+06	-87.2848	0.0000000E+000	0.0000000E+000	0.0000000E+000	87.2848	0.0000000E+000	0.0000000E+000	0.0000000E+000	-87.2848	0.0000000E+000	0.0000000E+000	0.0000000E+000	-2.7152	0.0000000E+000	0.0000000E+000	0.0000000E+000	2.7152	21.086	87.2848	-3.47687e-06	-3.64436e-08	-1.53871e-11	-3.64282e-08	0.199652	1.09469e+06	462.195	1.09423e+06
1.46631	21.5409	0.937397	21.5613	-2.49177	16.5646	0.19973	-0.000478163	115790	218.861	1	11	0.00499205	0.000231528	0	-1.10757e-05	4.61555e-05	2.98356e-06	6.98971	0.0128864	0.0127906	-0.00156816	-2.48614	21.574	21.5537	0.935829	0.0463356	0.00201639	0.0463794	2.49177	218861	5.02931e+06	5.03407e+06	-87.5082	0.0000000E+000	0.0000000E+000	0.0000000E+000	87.5082	0.0000000E+000	0.0000000E+000	0.0000000E+000	-87.5082	0.0000000E+000	0.0000000E+000	0.0000000E+000	-2.49177	0.0000000E+000	0.0000000E+000	0.0000000E+000	2.49177	22.9795	87.5082	-5.19286e-06	-9.55035e-08	-2.20698e-11	-9.54814e-08	0.199684	417703	96.5266	417606
1.00006	21.6751	0.981806	21.6973	-2.59352	19.7386	0.199743	-0.000431676	162094	331.898	1	12	0.00499111	0.000230033	0	-1.34851e-05	-1.11087e-05	4.21316e-06	10.5237	0.0183154	0.0180074	-0.00334515	-2.58255	21.7152	21.6931	0.978461	0.0460414	0.00208551	0.0460886	2.59352	331898	7.32724e+06	7.33476e+06	-87.4065	0.0000000E+000	0.0000000E+000	0.0000000E+000	87.4065	0.0000000E+000	0.0000000E+000	0.0000000E+000	-87.4065	0.0000000E+000	0.0000000E+000	0.0000000E+000	-2.59352	0.0000000E+000	0.0000000E+000	0.0000000E+000	2.59352	22.0768	87.4065	-2.40932e-06	-8.62241e-08	4.79536e-12	-8.62289e-08	0.199754	462714	25.7339	462740
0.681362	21.8258	1.09024	21.853	-2.85964	22.8515	0.199747	-0.00118861	214250	533.26	1	12	0.00499571	0.000228605	0	-7.69409e-06	-3.01967e-05	2.44531e-06	44.0767	0.0106967	0.00768458	-0.00744082	-2.83916	21.8603	21.8335	1.0828	0.0457032	0.00228295	0.0457602	2.85964	533260	1.06755e+07	1.06888e+07	-87.1404	0.0000000E+000	0.0000000E+000	0.0000000E+000	87.1404	0.0000000E+000	0.0000000E+000	0.0000000E+000	-87.1404	0.0000000E+000	0.0000000E+000	0.0000000E+000	-2.85964	0.0000000E+000	0.0000000E+000	0.0000000E+000	2.85964	20.0194	87.1404	5.79097e-06	-2.37421e-07	3.58921e-11	-2.37457e-07	0.199777	168051	25.4052	168077
0.464091	21.9642	1.2511	21.9998	-3.26009	27.4072	0.199744	-0.00136302	274111	886.485	1	12	0.00499357	0.000226983	0	5.10472e-06	0.000141596	3.7877e-06	-39.6243	0.0166872	0.0128532	0.0106423	-3.28584	22.0132	21.977	1.26174	0.0453814	0.00258496	0.045455	3.26009	886485	1.55631e+07	1.55883e+07	-86.7399	0.0000000E+000	0.0000000E+000	0.0000000E+000	86.7399	0.0000000E+000	0.0000000E+000	0.0000000E+000	-86.7399	0.0000000E+000	0.0000000E+000	0.0000000E+000	-3.26009	0.0000000E+000	0.0000000E+000	0.0000000E+000	3.26009	17.556	86.7399	1.27988e-05	-2.72255e-07	-1.92998e-10	-2.72062e-07	0.199603	146546	103.884	146442
0.316193	22.1685	1.50366	22.2194	-3.88034	34.0816	0.199735	-0.000792263	334749	1533.03	1	12	0.00499139	0.000224641	0	1.94887e-05	4.61555e-05	1.97344e-06	-5.49809	0.00878485	0.00874443	0.000841698	-3.88098	22.2282	22.1772	1.5045	0.0449025	0.00304567	0.0450057	3.88034	1.53303e+06	2.26015e+07	2.26535e+07	-86.1197	0.0000000E+000	0.0000000E+000	0.0000000E+000	86.1197	0.0000000E+000	0.0000000E+000	0.0000000E+000	-86.1197	0.0000000E+000	0.0000000E+000	0.0000000E+000	-3.88034	0.0000000E+000	0.0000000E+000	0.0000000E+000	3.88034	14.7431	86.1197	1.4384e-05	-1.58243e-07	-3.65673e-11	-1.58206e-07	0.199689	252107	58.2578	252049
0.215268	22.4019	1.90178	22.4824	-4.85242	43.8741	0.199735	0.000569216	388760	2781.72	1	12	0.00499362	0.000222112	0	2.66467e-05	6.52435e-05	3.28711e-06	49.9964	0.0147993	0.00951354	-0.0113363	-4.82159	22.491	22.4114	1.89044	0.0443197	0.00376247	0.0444792	4.85242	2.78172e+06	3.27671e+07	3.2885e+07	-85.1476	0.0000000E+000	0.0000000E+000	0.0000000E+000	85.1476	0.0000000E+000	0.0000000E+000	0.0000000E+000	-85.1476	0.0000000E+000	0.0000000E+000	0.0000000E+000	-4.85242	0.0000000E+000	0.0000000E+000	0.0000000E+000	4.85242	11.7794	85.1476	7.15796e-06	1.13692e-07	3.71376e-11	1.13655e-07	0.19967	350895	114.62	350780
0.146929	22.6491	2.48037	22.7845	-6.24973	58.2125	0.199722	0.000918618	436713	5175.47	1	12	0.00499173	0.000219084	0	1.07989e-05	-8.74609e-05	2.4973e-06	-2.01729	0.0113988	0.0113918	0.000401252	-6.24761	22.7959	22.6605	2.48077	0.0436286	0.00477789	0.0438894	6.24973	5.17547e+06	4.7259e+07	4.75415e+07	-83.7503	0.0000000E+000	0.0000000E+000	0.0000000E+000	83.7503	0.0000000E+000	0.0000000E+000	0.0000000E+000	-83.7503	0.0000000E+000	0.0000000E+000	0.0000000E+000	-6.24973	0.0000000E+000	0.0000000E+000	0.0000000E+000	6.24973	9.13134	83.7503	-1.58478e-05	1.83468e-07	-8.03432e-11	1.83549e-07	0.19981	217416	95.2093	217511
0.0999041	22.9129	3.25133	23.1425	-8.0763	79.2896	0.199725	0.00040974	489978	9671.15	1	12	0.00499721	0.000215932	0	-4.11359e-05	-0.000182901	4.20402e-06	9.30119	0.0194692	0.0192132	-0.00314669	-8.06192	23.1611	22.9322	3.24818	0.042782	0.00607073	0.0432106	8.0763	9.67114e+06	6.81551e+07	6.88378e+07	-81.9237	0.0000000E+000	0.0000000E+000	0.0000000E+000	81.9237	0.0000000E+000	0.0000000E+000	0.0000000E+000	-81.9237	0.0000000E+000	0.0000000E+000	0.0000000E+000	-8.0763	0.0000000E+000	0.0000000E+000	0.0000000E+000	8.0763	7.04726	81.9237	-5.19348e-05	8.18352e-08	-7.4942e-11	8.19102e-08	0.199908	487442	446.383	487888
0.0680626	23.3105	4.24573	23.694	-10.3226	110.217	0.19972	-0.000674348	550756	17684.2	1	12	0.00499397	0.000210769	0	-0.000126997	6.52435e-05	2.14495e-06	17.1828	0.0101768	0.00972258	-0.00300644	-10.3112	23.7031	23.3203	4.24272	0.0415216	0.00756265	0.0422047	10.3226	1.76842e+07	9.70925e+07	9.86898e+07	-79.6774	0.0000000E+000	0.0000000E+000	0.0000000E+000	79.6774	0.0000000E+000	0.0000000E+000	0.0000000E+000	-79.6774	0.0000000E+000	0.0000000E+000	0.0000000E+000	-10.3226	0.0000000E+000	0.0000000E+000	0.0000000E+000	10.3226	5.49035	79.6774	-8.58613e-05	-1.34681e-07	-4.39969e-11	-1.34637e-07	0.199655	296168	96.7505	296071
0.0464052	24.0079	5.67285	24.669	-13.2946	155.569	0.199719	-0.00233664	604578	31970.7	1	12	0.00499342	0.000202417	0	-0.00023406	0.000160684	2.47055e-06	-11.222	0.0122052	0.0119719	0.00237527	-13.2936	24.6812	24.0198	5.67522	0.0394504	0.00932178	0.0405367	13.2946	3.19707e+07	1.35302e+08	1.39028e+08	-76.7054	0.0000000E+000	0.0000000E+000	0.0000000E+000	76.7054	0.0000000E+000	0.0000000E+000	0.0000000E+000	-76.7054	0.0000000E+000	0.0000000E+000	0.0000000E+000	-13.2946	0.0000000E+000	0.0000000E+000	0.0000000E+000	13.2946	4.23206	76.7054	-0.000107063	-4.66672e-07	-3.7546e-10	-4.66297e-07	0.199559	85472.8	68.767	85404
0.0315922	24.7889	7.86623	26.007	-17.6058	222.174	0.199718	-0.00272724	640432	58590.3	1	12	0.00499145	0.000191927	0	-0.000278114	-0.000144725	1.52767e-06	-13.9884	0.00795964	0.00772359	0.00192405	-17.6047	26.015	24.7966	7.86816	0.0366501	0.0116302	0.0384512	17.6058	5.85903e+07	1.84636e+08	1.93709e+08	-72.3942	0.0000000E+000	0.0000000E+000	0.0000000E+000	72.3942	0.0000000E+000	0.0000000E+000	0.0000000E+000	-72.3942	0.0000000E+000	0.0000000E+000	0.0000000E+000	-17.6058	0.0000000E+000	0.0000000E+000	0.0000000E+000	17.6058	3.1513	72.3942	-4.40545e-05	-5.44678e-07	3.94699e-10	-5.45072e-07	0.199863	73230.9	53.0666	73284
0.0215268	25.7061	10.6135	27.811	-22.4347	319.913	0.199716	-0.00257192	696599	101454	1	12	0.0049935	0.000179552	0	-0.00017217	-0.000259253	2.8731e-06	0.732284	0.0160016	0.0160002	-0.000204507	-22.4217	27.8257	25.7221	10.6133	0.0332356	0.0137223	0.035957	22.4347	1.01454e+08	2.45723e+08	2.65843e+08	-67.5653	0.0000000E+000	0.0000000E+000	0.0000000E+000	67.5653	0.0000000E+000	0.0000000E+000	0.0000000E+000	-67.5653	0.0000000E+000	0.0000000E+000	0.0000000E+000	-22.4347	0.0000000E+000	0.0000000E+000	0.0000000E+000	22.4347	2.42202	67.5653	0.000105945	-5.13654e-07	6.66778e-10	-5.14321e-07	0.199976	77652.8	100.802	77753.6
0.0146812	27.3053	14.0518	30.7088	-27.2312	463.216	0.199713	-0.00217488	771485	161534	1	12	0.00499369	0.000162614	0	7.72858e-05	0.000141596	1.8118e-06	6.82769	0.0111417	0.0110627	-0.00132457	-27.2195	30.7181	27.3164	14.0505	0.0289548	0.0149007	0.0325639	27.2312	1.61534e+08	3.13892e+08	3.53017e+08	-62.7688	0.0000000E+000	0.0000000E+000	0.0000000E+000	62.7688	0.0000000E+000	0.0000000E+000	0.0000000E+000	-62.7688	0.0000000E+000	0.0000000E+000	0.0000000E+000	-27.2312	0.0000000E+000	0.0000000E+000	0.0000000E+000	27.2312	1.94319	62.7688	0.000249456	-4.34352e-07	-3.07953e-10	-4.34044e-07	0.199572	91827.3	65.1051	91762.2
0.0100092	29.8762	18.8303	35.3152	-32.2223	673.397	0.199716	-0.00192021	844434	240079	1	12	0.00499237	0.000141366	0	0.000291068	0.00019886	2.07411e-06	-4.22083	0.0146719	0.0146322	0.00107987	-32.2111	35.3282	29.8908	18.8313	0.0239553	0.0150985	0.0283164	32.2223	2.40079e+08	3.80911e+08	4.50257e+08	-57.7777	0.0000000E+000	0.0000000E+000	0.0000000E+000	57.7777	0.0000000E+000	0.0000000E+000	0.0000000E+000	-57.7777	0.0000000E+000	0.0000000E+000	0.0000000E+000	-32.2223	0.0000000E+000	0.0000000E+000	0.0000000E+000	32.2223	1.5866	57.7777	0.000213782	-3.83498e-07	-3.81853e-10	-3.83116e-07	0.199518	104007	103.561	103904