File: txt/18952_R308_UA706_SOC00_C07.mpt
EC-Lab ASCII FILE
Nb header lines : 65

Potentio Electrochemical Impedance Spectroscopy

Run on channel : 7 (SN 66126)
Grouped channel(s) : 5, 6, 7, 8
User :
CE vs. WE compliance from -10 V to 10 V
Electrode connection : standard
Potential control : Ewe
Ewe ctrl range : min = -10.00 V, max = 10.00 V
Safety Limits :
	Do not start on E overload
Acquisition started on : 11/04/2025 15:53:30.548
Loaded Setting File :  C:\Users\Celltest\OneDrive - store-dot.com\Documents\EC-Lab\Data\@Biologic Test Protocols\anode half cell EIS SOC00.mps
Saved on :
	File : 18950_R308_UA706_SOC00_C07.mpr
	Directory : C:\Users\Celltest\OneDrive - store-dot.com\Documents\EC-Lab\Data\Charmaine\
	Host : 169.254.61.224
Device : VMP-3e (SN .003165)
Address : USB
EC-LAB for windows v11.62 (software)
Internet server v27.00 (firmware)
Command interpretor v12.03 (firmware)
Electrode material :
Initial state :
Electrolyte :
Comments :
Electrode surface area : 0.001 cm²
Characteristic mass : 0.001 g
Equivalent Weight : 0.000 g/eq.
Density : 0.000 g/cm3
Volume (V) : 0.001 cm³
Record Ece
Cycle Definition : Charge/Discharge alternance
Mode                Single sine
E (V)               0.0000
vs.                 Eoc
tE (h:m:s)          0:00:0.0000
record              0
dI                  0.000
unit dI             mA
dt (s)              0.000
fi                  100.000
unit fi             kHz
ff                  10.000
unit ff             mHz
Nd                  6
Points              per decade
spacing             Logarithmic
Va (mV)             5.0
pw                  0.10
Na                  2
corr                0
E range min (V)     -10.000
E range max (V)     10.000
I Range             Auto
Bandwidth           5
nc cycles           0
goto Ns'            0
nr cycles           0
inc. cycle          0

freq/Hz	Re(Z)/Ohm	-Im(Z)/Ohm	|Z|/Ohm	Phase(Z)/deg	time/s	<Ewe>/V	<I>/mA	Cs/µF	Cp/µF	cycle number	I Range	|Ewe|/V	|I|/A	Ns	(Q-Qo)/mA.h	<Ece>/V	|Ece|/V	Phase(Zce)/deg	|Zce|/Ohm	Re(Zce)/Ohm	-Im(Zce)/Ohm	Phase(Zwe-ce)/deg	|Zwe-ce|/Ohm	Re(Zwe-ce)/Ohm	-Im(Zwe-ce)/Ohm	Re(Y)/Ohm-1	Im(Y)/Ohm-1	|Y|/Ohm-1	Phase(Y)/deg	Re(C)/nF	Im(C)/nF	|C|/nF	Phase(C)/deg	Re(M)	Im(M)	|M|	Phase(M)/deg	Re(Permittivity)	Im(Permittivity)	|Permittivity|	Phase(Permittivity)/deg	Re(Resistivity)/Ohm.cm	Im(Resistivity)/Ohm.cm	|Resistivity|/Ohm.cm	Phase(Resistivity)/deg	Re(Conductivity)/mS/cm	Im(Conductivity)/mS/cm	|Conductivity|/mS/cm	Phase(Conductivity)/deg	Tan(Delta)	Loss Angle(Delta)/deg	dq/mA.h	Pwe/W	Pce/W	Pwe-ce/W	<Ewe-Ece>/V	Rwe/Ohm	Rce/Ohm	Rwe-ce/Ohm		Ewe-Ece/V
100004	1.80139	0.982524	2.05192	-28.6091	1.76555	0.212819	0.0551167	1.6198	0.371387	1	9	0.00472399	0.00230223	0	2.08985e-06	-0.000149242	4.51237e-05	83.6202	0.0196	0.00217792	-0.0194786	-28.1007	2.04459	1.80357	0.963045	0.427847	0.233358	0.487348	28.6091	371.387	680.914	775.61	-61.3909	0.0000000E+000	0.0000000E+000	0.0000000E+000	61.3909	0.0000000E+000	0.0000000E+000	0.0000000E+000	-61.3909	0.0000000E+000	0.0000000E+000	0.0000000E+000	-28.6091	0.0000000E+000	0.0000000E+000	0.0000000E+000	28.6091	1.83344	61.3909	2.08985e-06	1.17299e-05	-8.22575e-09	1.17381e-05	0.212969	3861.25	2.70775	3863.96
68132	2.08828	1.17983	2.39853	-29.4655	2.27256	0.212803	0.043648	1.97992	0.479071	1	9	0.00508791	0.00212126	0	1.78233e-06	-0.000301846	2.54251e-05	96.6414	0.0119858	-0.00138622	-0.0119054	-29.2335	2.39148	2.0869	1.16793	0.362994	0.205084	0.416922	29.4655	479.071	847.947	973.921	-60.5345	0.0000000E+000	0.0000000E+000	0.0000000E+000	60.5345	0.0000000E+000	0.0000000E+000	0.0000000E+000	-60.5345	0.0000000E+000	0.0000000E+000	0.0000000E+000	-29.4655	0.0000000E+000	0.0000000E+000	0.0000000E+000	29.4655	1.76998	60.5345	-3.07516e-07	9.28841e-06	-1.3175e-08	9.30159e-06	0.213105	4875.43	6.91546	4882.35
46420.4	2.42968	1.35711	2.783	-29.1858	2.78154	0.212819	0.0509835	2.52636	0.60076	1	9	0.00517594	0.00185984	0	-5.27054e-06	-0.000168318	1.70997e-05	52.8209	0.00919419	0.00555612	-0.00732548	-28.9985	2.7843	2.43524	1.34979	0.313705	0.175222	0.359324	29.1858	600.76	1075.56	1231.96	-60.8142	0.0000000E+000	0.0000000E+000	0.0000000E+000	60.8142	0.0000000E+000	0.0000000E+000	0.0000000E+000	-60.8142	0.0000000E+000	0.0000000E+000	0.0000000E+000	-29.1858	0.0000000E+000	0.0000000E+000	0.0000000E+000	29.1858	1.79033	60.8142	-7.05287e-06	1.08502e-05	-8.58143e-09	1.08588e-05	0.212987	4174.27	3.30142	4177.57
31621.1	2.82221	1.50461	3.19824	-28.0635	3.16452	0.212811	0.04618	3.34518	0.740364	1	9	0.00528643	0.00165292	0	1.59938e-06	-0.000187393	6.56859e-06	-100.58	0.00397393	-0.000729647	0.00390637	-28.1314	3.19943	2.82148	1.50852	0.27591	0.147097	0.312672	28.0635	740.364	1388.71	1573.74	-61.9365	0.0000000E+000	0.0000000E+000	0.0000000E+000	61.9365	0.0000000E+000	0.0000000E+000	0.0000000E+000	-61.9365	0.0000000E+000	0.0000000E+000	0.0000000E+000	-28.0635	0.0000000E+000	0.0000000E+000	0.0000000E+000	28.0635	1.87571	61.9365	6.86993e-06	9.8276e-06	-8.65383e-09	9.83625e-06	0.212998	4608.28	4.05789	4612.34
21544.7	3.23498	1.59883	3.60851	-26.3001	3.54753	0.212808	0.0462172	4.62038	0.90704	1	9	0.00494637	0.00137075	0	7.518e-06	-0.000683354	1.26157e-05	-88.8842	0.00920352	0.000179228	0.00920178	-26.4296	3.61276	3.23516	1.60803	0.248436	0.122785	0.277122	26.3001	907.039	1835.25	2047.16	-63.6999	0.0000000E+000	0.0000000E+000	0.0000000E+000	63.6999	0.0000000E+000	0.0000000E+000	0.0000000E+000	-63.6999	0.0000000E+000	0.0000000E+000	0.0000000E+000	-26.3001	0.0000000E+000	0.0000000E+000	0.0000000E+000	26.3001	2.02334	63.6999	5.91861e-06	9.83538e-06	-3.15828e-08	9.86696e-06	0.213491	4604.51	14.7857	4619.29
14678.6	3.68671	1.64486	4.03701	-24.0445	3.93255	0.212786	0.0348602	6.59183	1.09432	1	9	0.00491212	0.00121677	0	1.0821e-05	7.96626e-05	6.93621e-06	-57.5524	0.0057005	0.00305848	0.00481055	-24.0891	4.04176	3.68977	1.64967	0.226215	0.100928	0.247708	24.0445	1094.32	2452.77	2685.82	-65.9555	0.0000000E+000	0.0000000E+000	0.0000000E+000	65.9555	0.0000000E+000	0.0000000E+000	0.0000000E+000	-65.9555	0.0000000E+000	0.0000000E+000	0.0000000E+000	-24.0445	0.0000000E+000	0.0000000E+000	0.0000000E+000	24.0445	2.24135	65.9555	3.30303e-06	7.41779e-06	2.77706e-09	7.41501e-06	0.212707	6103.99	2.2852	6101.7
10002.2	4.11362	1.6913	4.44774	-22.3498	4.34753	0.21276	-0.013632	9.40813	1.36039	1	10	0.00453514	0.00101965	0	1.10761e-05	2.24364e-05	9.77547e-06	46.5159	0.00958709	0.00659739	-0.00695605	-22.2347	4.45121	4.12022	1.68434	0.207944	0.0854951	0.224833	22.3498	1360.39	3308.79	3577.54	-67.6502	0.0000000E+000	0.0000000E+000	0.0000000E+000	67.6502	0.0000000E+000	0.0000000E+000	0.0000000E+000	-67.6502	0.0000000E+000	0.0000000E+000	0.0000000E+000	-22.3498	0.0000000E+000	0.0000000E+000	0.0000000E+000	22.3498	2.43223	67.6502	2.55042e-07	-2.90034e-06	-3.05853e-10	-2.90003e-06	0.212737	15607.4	1.64586	15605.7
6810.42	4.4703	1.76388	4.80572	-21.5331	4.60655	0.212762	-0.0129619	13.2488	1.78484	1	10	0.00455414	0.000947651	0	1.0241e-05	2.24364e-05	8.43673e-05	-59.3557	0.0890279	0.0453782	0.0765949	-22.1746	4.87635	4.51568	1.84048	0.193562	0.0763755	0.208086	21.5331	1784.84	4523.42	4862.82	-68.4669	0.0000000E+000	0.0000000E+000	0.0000000E+000	68.4669	0.0000000E+000	0.0000000E+000	0.0000000E+000	-68.4669	0.0000000E+000	0.0000000E+000	0.0000000E+000	-21.5331	0.0000000E+000	0.0000000E+000	0.0000000E+000	21.5331	2.53435	68.4669	-8.3506e-07	-2.7578e-06	-2.90818e-10	-2.7575e-06	0.212739	16414.4	1.73095	16412.7
4646	4.88858	1.76357	5.19697	-19.8371	4.87159	0.212739	-0.0239552	19.4244	2.23684	1	10	0.00453399	0.00087243	0	8.89204e-06	-0.000225544	1.64256e-05	-27.753	0.0188274	0.0166616	0.00876721	-19.8656	5.21561	4.90525	1.77234	0.181002	0.0652971	0.19242	19.8371	2236.84	6200.46	6591.6	-70.1629	0.0000000E+000	0.0000000E+000	0.0000000E+000	70.1629	0.0000000E+000	0.0000000E+000	0.0000000E+000	-70.1629	0.0000000E+000	0.0000000E+000	0.0000000E+000	-19.8371	0.0000000E+000	0.0000000E+000	0.0000000E+000	19.8371	2.77197	70.1629	-1.34897e-06	-5.09619e-06	5.40295e-09	-5.1016e-06	0.212964	8880.69	9.41525	8890.1
3163.08	5.26447	1.86249	5.58422	-19.483	5.42269	0.212656	-0.017768	27.0157	3.00523	1	10	0.00487377	0.000872776	0	6.39297e-06	-0.000111092	1.15469e-05	-59.4347	0.0132301	0.00672778	0.0113918	-19.57	5.59437	5.2712	1.87388	0.168822	0.0597266	0.179076	19.483	3005.23	8494.53	9010.46	-70.517	0.0000000E+000	0.0000000E+000	0.0000000E+000	70.517	0.0000000E+000	0.0000000E+000	0.0000000E+000	-70.517	0.0000000E+000	0.0000000E+000	0.0000000E+000	-19.483	0.0000000E+000	0.0000000E+000	0.0000000E+000	19.483	2.82658	70.517	-2.49907e-06	-3.77847e-06	1.97387e-09	-3.78044e-06	0.212767	11968.5	6.25235	11974.8
2155.69	5.64443	2.02196	5.99566	-19.7087	5.87379	0.212681	-0.00524834	36.5141	4.15272	1	10	0.0048351	0.000806433	0	5.15385e-06	6.05872e-05	3.66679e-06	-65.8324	0.00454692	0.00186154	0.00414839	-19.74	5.99882	5.6463	2.02611	0.157017	0.056247	0.166787	19.7087	4152.72	11592.6	12313.9	-70.2913	0.0000000E+000	0.0000000E+000	0.0000000E+000	70.2913	0.0000000E+000	0.0000000E+000	0.0000000E+000	-70.2913	0.0000000E+000	0.0000000E+000	0.0000000E+000	-19.7087	0.0000000E+000	0.0000000E+000	0.0000000E+000	19.7087	2.79156	70.2913	-1.23911e-06	-1.11622e-06	-3.17982e-10	-1.1159e-06	0.21262	40523.4	11.5441	40511.9
1468.59	6.043	2.25373	6.44958	-20.4529	6.32503	0.212693	-0.00578442	48.0859	5.87162	1	10	0.00480563	0.000745107	0	4.45221e-06	-5.38653e-05	8.62939e-06	-65.3852	0.0115814	0.00482385	0.010529	-20.5255	6.45779	6.04782	2.26426	0.145274	0.0541799	0.155049	20.4529	5871.62	15743.8	16803	-69.5471	0.0000000E+000	0.0000000E+000	0.0000000E+000	69.5471	0.0000000E+000	0.0000000E+000	0.0000000E+000	-69.5471	0.0000000E+000	0.0000000E+000	0.0000000E+000	-20.4529	0.0000000E+000	0.0000000E+000	0.0000000E+000	20.4529	2.68134	69.5471	-7.01643e-07	-1.2303e-06	3.1158e-10	-1.23062e-06	0.212746	36769.9	9.31213	36779.2
1000.32	6.48097	2.59443	6.98098	-21.817	6.77583	0.212684	-0.00439584	61.3252	8.47015	1	10	0.00478045	0.000684783	0	4.42136e-06	-1.57145e-05	6.68598e-06	31.4865	0.00976365	0.00832609	-0.00509953	-21.7528	6.98681	6.48929	2.58933	0.132987	0.0532366	0.143246	21.817	8470.15	21158.7	22791.1	-68.183	0.0000000E+000	0.0000000E+000	0.0000000E+000	68.183	0.0000000E+000	0.0000000E+000	0.0000000E+000	-68.183	0.0000000E+000	0.0000000E+000	0.0000000E+000	-21.817	0.0000000E+000	0.0000000E+000	0.0000000E+000	21.817	2.49803	68.183	-3.0853e-08	-9.34923e-07	6.90782e-11	-9.34992e-07	0.212699	48383	3.57485	48386.6
681.09	7.01303	3.06821	7.65483	-23.6294	7.2256	0.212691	-0.00571742	76.1607	12.2357	1	10	0.00477303	0.000623531	0	3.62789e-06	-0.000187393	9.07196e-06	-8.9301	0.0145493	0.014373	0.00225848	-23.6019	7.66891	7.0274	3.07047	0.119683	0.0523616	0.130636	23.6294	12235.7	27967.3	30526.7	-66.3706	0.0000000E+000	0.0000000E+000	0.0000000E+000	66.3706	0.0000000E+000	0.0000000E+000	0.0000000E+000	-66.3706	0.0000000E+000	0.0000000E+000	0.0000000E+000	-23.6294	0.0000000E+000	0.0000000E+000	0.0000000E+000	23.6294	2.28571	66.3706	-7.93465e-07	-1.21605e-06	1.07141e-09	-1.21712e-06	0.212879	37200.6	32.7759	37233.4
463.961	7.69025	3.70912	8.538	-25.7487	7.67729	0.212688	-0.00446285	92.4842	17.4541	1	10	0.00475772	0.00055724	0	2.70966e-06	-0.000359072	6.08934e-06	-44.1121	0.0109277	0.00784585	0.00760637	-25.7718	8.54838	7.69809	3.71673	0.105494	0.0508813	0.117123	25.7487	17454.1	36188.2	40177.5	-64.2513	0.0000000E+000	0.0000000E+000	0.0000000E+000	64.2513	0.0000000E+000	0.0000000E+000	0.0000000E+000	-64.2513	0.0000000E+000	0.0000000E+000	0.0000000E+000	-25.7487	0.0000000E+000	0.0000000E+000	0.0000000E+000	25.7487	2.07333	64.2513	-9.18232e-07	-9.49196e-07	1.60248e-09	-9.50798e-07	0.213048	47657.6	80.4581	47738
316.316	8.58592	4.42859	9.66076	-27.2845	8.12503	0.212689	-0.00572114	113.615	23.8749	1	10	0.00474504	0.000491166	0	2.41953e-06	-0.000301846	8.93328e-06	-10.6963	0.0181879	0.0178719	0.00337572	-27.2538	9.6782	8.60379	4.43196	0.0919949	0.0474507	0.103511	27.2845	23874.9	46287.4	52082	-62.7155	0.0000000E+000	0.0000000E+000	0.0000000E+000	62.7155	0.0000000E+000	0.0000000E+000	0.0000000E+000	-62.7155	0.0000000E+000	0.0000000E+000	0.0000000E+000	-27.2845	0.0000000E+000	0.0000000E+000	0.0000000E+000	27.2845	1.93875	62.7155	-2.90128e-07	-1.21682e-06	1.7269e-09	-1.21855e-06	0.212991	37176	52.7597	37228.8
215.345	9.85994	5.27901	11.1842	-28.1646	8.57458	0.212689	-0.00497287	140.002	31.191	1	10	0.00475134	0.000424826	0	1.94001e-06	-0.000149242	1.426e-05	5.18551	0.0335667	0.0334294	-0.00303379	-28.0703	11.2123	9.89337	5.27597	0.0788251	0.0422029	0.0894118	28.1646	31190.9	58257.3	66081.7	-61.8354	0.0000000E+000	0.0000000E+000	0.0000000E+000	61.8354	0.0000000E+000	0.0000000E+000	0.0000000E+000	-61.8354	0.0000000E+000	0.0000000E+000	0.0000000E+000	-28.1646	0.0000000E+000	0.0000000E+000	0.0000000E+000	28.1646	1.86776	61.8354	-4.79525e-07	-1.05767e-06	7.42163e-10	-1.05842e-06	0.212838	42769.9	30.0113	42799.9
146.737	11.4849	6.02459	12.9692	-27.6799	9.02049	0.212689	-0.00582166	180.033	38.8493	1	10	0.00474484	0.000365856	0	1.4254e-06	-0.000359072	5.53791e-06	49.5333	0.0151369	0.00982393	-0.0115159	-27.6147	12.9725	11.4947	6.01307	0.0682817	0.0358182	0.077106	27.6799	38849.3	74060	83631	-62.3201	0.0000000E+000	0.0000000E+000	0.0000000E+000	62.3201	0.0000000E+000	0.0000000E+000	0.0000000E+000	-62.3201	0.0000000E+000	0.0000000E+000	0.0000000E+000	-27.6799	0.0000000E+000	0.0000000E+000	0.0000000E+000	27.6799	1.90634	62.3201	-5.14608e-07	-1.23821e-06	2.0904e-09	-1.2403e-06	0.213049	36534.2	61.6786	36595.8
100.032	13.4959	6.38065	14.9282	-25.3041	9.47183	0.212686	-0.00601524	249.354	45.5544	1	10	0.00474031	0.00031754	0	6.12401e-07	-0.000473525	7.829e-06	144.348	0.0246552	-0.020034	-0.0143706	-25.287	14.904	13.4759	6.36627	0.06056	0.0286318	0.0669872	25.3041	45554.4	96353.3	106579	-64.6959	0.0000000E+000	0.0000000E+000	0.0000000E+000	64.6959	0.0000000E+000	0.0000000E+000	0.0000000E+000	-64.6959	0.0000000E+000	0.0000000E+000	0.0000000E+000	-25.3041	0.0000000E+000	0.0000000E+000	0.0000000E+000	25.3041	2.11513	64.6959	-8.13e-07	-1.27936e-06	2.84837e-09	-1.28221e-06	0.21316	35357.9	78.7208	35436.6
68.104	15.6167	6.21553	16.8082	-21.7028	9.93446	0.21271	-0.00116449	375.984	51.4144	1	10	0.00474691	0.000282417	0	3.00446e-07	-0.000149242	1.82223e-05	29.7495	0.0645229	0.056019	-0.0320168	-21.5312	16.8485	15.6727	6.18351	0.0552776	0.0220007	0.0594949	21.7028	51414.4	129180	139036	-68.2972	0.0000000E+000	0.0000000E+000	0.0000000E+000	68.2972	0.0000000E+000	0.0000000E+000	0.0000000E+000	-68.2972	0.0000000E+000	0.0000000E+000	0.0000000E+000	-21.7028	0.0000000E+000	0.0000000E+000	0.0000000E+000	21.7028	2.51253	68.2972	-3.11955e-07	-2.47699e-07	1.73792e-10	-2.47872e-07	0.212859	182663	128.161	182791
46.4415	17.5522	5.67323	18.4462	-17.9119	10.3706	0.212677	-0.00866213	604.064	57.1384	1	10	0.00474626	0.000257302	0	-6.23788e-07	-0.000320921	4.20687e-06	25.9111	0.0163499	0.0147063	-0.00714452	-17.8768	18.458	17.5669	5.66609	0.051584	0.016673	0.0542116	17.9119	57138.4	176778	185783	-72.0881	0.0000000E+000	0.0000000E+000	0.0000000E+000	72.0881	0.0000000E+000	0.0000000E+000	0.0000000E+000	-72.0881	0.0000000E+000	0.0000000E+000	0.0000000E+000	-17.9119	0.0000000E+000	0.0000000E+000	0.0000000E+000	17.9119	3.09385	72.0881	-9.24233e-07	-1.84223e-06	2.77986e-09	-1.84501e-06	0.212998	24552.5	37.0488	24589.5
31.6296	19.0764	4.72249	19.6523	-13.9044	11.0355	0.212736	-0.00648517	1065.51	61.5281	1	11	0.00473909	0.000241148	0	-1.81968e-06	-1.57145e-05	1.96735e-06	44.5474	0.00815829	0.00581417	-0.00572304	-13.8842	19.6565	19.0822	4.71677	0.0493937	0.0122277	0.0508847	13.9044	61528.1	248541	256044	-76.0956	0.0000000E+000	0.0000000E+000	0.0000000E+000	76.0956	0.0000000E+000	0.0000000E+000	0.0000000E+000	-76.0956	0.0000000E+000	0.0000000E+000	0.0000000E+000	-13.9044	0.0000000E+000	0.0000000E+000	0.0000000E+000	13.9044	4.03948	76.0956	-1.19589e-06	-1.37963e-06	1.01911e-10	-1.37973e-06	0.212752	32803.5	2.42314	32805.9
21.5517	20.1169	3.7582	20.465	-10.5819	11.4564	0.212738	-0.00688512	1964.98	66.2669	1	11	0.00473292	0.00023127	0	-2.4952e-06	-0.00028277	6.34139e-06	46.6141	0.0274199	0.018835	-0.0199272	-10.5174	20.4798	20.1358	3.73828	0.048033	0.00897342	0.048864	10.5819	66266.9	354713	360850	-79.4181	0.0000000E+000	0.0000000E+000	0.0000000E+000	79.4181	0.0000000E+000	0.0000000E+000	0.0000000E+000	-79.4181	0.0000000E+000	0.0000000E+000	0.0000000E+000	-10.5819	0.0000000E+000	0.0000000E+000	0.0000000E+000	10.5819	5.3528	79.4181	-6.75525e-07	-1.46472e-06	1.94691e-09	-1.46667e-06	0.213021	30898.2	41.0698	30939.3
14.6852	20.7528	2.8574	20.9486	-7.83963	11.9172	0.212743	-0.00610908	3792.89	70.5673	1	11	0.00472081	0.000225352	0	-2.63876e-06	-0.000111092	1.72832e-05	-112.452	0.0766943	-0.0292898	0.070881	-8.04279	20.9294	20.7235	2.92829	0.0472897	0.00651121	0.0477359	7.83963	70567.3	512517	517353	-82.1604	0.0000000E+000	0.0000000E+000	0.0000000E+000	82.1604	0.0000000E+000	0.0000000E+000	0.0000000E+000	-82.1604	0.0000000E+000	0.0000000E+000	0.0000000E+000	-7.83963	0.0000000E+000	0.0000000E+000	0.0000000E+000	7.83963	7.26282	82.1604	-1.43553e-07	-1.29967e-06	6.78667e-10	-1.30034e-06	0.212854	34824.1	18.1847	34842.3
10.0032	21.2576	2.25755	21.3772	-6.06207	12.3678	0.212734	-0.00640093	7047.63	78.5994	1	11	0.00473806	0.000221641	0	-2.51862e-06	-0.000130167	2.08315e-05	-16.4467	0.0939875	0.0901419	0.0266101	-6.10729	21.4696	21.3478	2.28416	0.0465173	0.00494012	0.0467789	6.06207	78599.4	740109	744271	-83.9379	0.0000000E+000	0.0000000E+000	0.0000000E+000	83.9379	0.0000000E+000	0.0000000E+000	0.0000000E+000	-83.9379	0.0000000E+000	0.0000000E+000	0.0000000E+000	-6.06207	0.0000000E+000	0.0000000E+000	0.0000000E+000	6.06207	9.41622	83.9379	1.20134e-07	-1.3617e-06	8.3319e-10	-1.36253e-06	0.212864	33234.9	20.3356	33255.2
6.81719	21.501	1.616	21.5616	-4.29822	12.7075	0.21275	-0.00527713	14446.9	81.1508	1	11	0.00472732	0.000219247	0	-3.00066e-06	-9.20161e-05	5.24817e-06	3.78149	0.0239372	0.0238851	-0.0015787	-4.28929	21.5853	21.5248	1.61442	0.0462483	0.00347599	0.0463787	4.29822	81150.8	1.07972e+06	1.08276e+06	-85.7018	0.0000000E+000	0.0000000E+000	0.0000000E+000	85.7018	0.0000000E+000	0.0000000E+000	0.0000000E+000	-85.7018	0.0000000E+000	0.0000000E+000	0.0000000E+000	-4.29822	0.0000000E+000	0.0000000E+000	0.0000000E+000	4.29822	13.3051	85.7018	-4.82041e-07	-1.12271e-06	4.85581e-10	-1.1232e-06	0.212843	40315.6	17.4368	40333
4.63925	21.6771	1.33691	21.7182	-3.5292	13.1914	0.212745	-0.00534422	25660.7	97.2358	1	11	0.00472504	0.000217561	0	-6.03108e-06	-1.57145e-05	1.33852e-05	93.2951	0.0615241	-0.00353629	-0.0614223	-3.36798	21.711	21.6735	1.27549	0.0459569	0.00283435	0.0460442	3.5292	97235.8	1.57661e+06	1.5796e+06	-86.4708	0.0000000E+000	0.0000000E+000	0.0000000E+000	86.4708	0.0000000E+000	0.0000000E+000	0.0000000E+000	-86.4708	0.0000000E+000	0.0000000E+000	0.0000000E+000	-3.5292	0.0000000E+000	0.0000000E+000	0.0000000E+000	3.5292	16.2143	86.4708	-3.03042e-06	-1.13696e-06	8.39816e-11	-1.13704e-06	0.212761	39808.5	2.94046	39811.4
3.1604	21.8964	1.10871	21.9245	-2.89866	13.8844	0.212745	-0.00490365	45421.3	116.155	1	11	0.0047464	0.000216489	0	-6.45474e-06	-0.000130167	3.25934e-06	-110.01	0.0150555	-0.00515167	0.0141466	-2.93628	21.9201	21.8913	1.12286	0.0455527	0.00230654	0.0456111	2.89866	116155	2.294e+06	2.29694e+06	-87.1013	0.0000000E+000	0.0000000E+000	0.0000000E+000	87.1013	0.0000000E+000	0.0000000E+000	0.0000000E+000	-87.1013	0.0000000E+000	0.0000000E+000	0.0000000E+000	-2.89866	0.0000000E+000	0.0000000E+000	0.0000000E+000	2.89866	19.7494	87.1013	-4.23666e-07	-1.04323e-06	6.38293e-10	-1.04387e-06	0.212876	43385.2	26.5449	43411.7
2.15577	21.9565	0.947423	21.977	-2.47078	14.8881	0.212753	-0.00467171	77924.6	144.819	1	11	0.00473469	0.000215439	0	-3.97764e-06	-0.000130167	5.36014e-06	50.3289	0.0248801	0.015883	-0.0191507	-2.41914	21.992	21.9724	0.928272	0.0454599	0.00196159	0.0455022	2.47078	144819	3.35619e+06	3.35931e+06	-87.5292	0.0000000E+000	0.0000000E+000	0.0000000E+000	87.5292	0.0000000E+000	0.0000000E+000	0.0000000E+000	-87.5292	0.0000000E+000	0.0000000E+000	0.0000000E+000	-2.47078	0.0000000E+000	0.0000000E+000	0.0000000E+000	2.47078	23.175	87.5292	2.47711e-06	-9.93918e-07	6.08103e-10	-9.94527e-07	0.212883	45540.6	27.8628	45568.5
1.46631	22.0883	0.909523	22.107	-2.35792	16.3495	0.212749	-0.00411046	119339	201.999	1	11	0.00473898	0.000214366	0	-1.98178e-06	-0.00028277	2.11314e-06	-6.59452	0.00985765	0.00979243	0.00113207	-2.35981	22.1168	22.0981	0.910655	0.0451963	0.00186104	0.0452346	2.35792	201999	4.90565e+06	4.90981e+06	-87.6421	0.0000000E+000	0.0000000E+000	0.0000000E+000	87.6421	0.0000000E+000	0.0000000E+000	0.0000000E+000	-87.6421	0.0000000E+000	0.0000000E+000	0.0000000E+000	-2.35792	0.0000000E+000	0.0000000E+000	0.0000000E+000	2.35792	24.2856	87.6421	1.99586e-06	-8.74495e-07	1.16232e-09	-8.75658e-07	0.213032	51758	68.7929	51826.8
1.00006	22.2251	0.950969	22.2454	-2.45008	19.5229	0.212749	-0.00363973	167350	305.827	1	12	0.00474167	0.000213152	0	-6.08101e-06	-0.000320921	3.88136e-06	93.3197	0.0182093	-0.00105446	-0.0181788	-2.40341	22.2436	22.2241	0.93279	0.0449119	0.00192169	0.044953	2.45008	305828	7.1475e+06	7.15404e+06	-87.5499	0.0000000E+000	0.0000000E+000	0.0000000E+000	87.5499	0.0000000E+000	0.0000000E+000	0.0000000E+000	-87.5499	0.0000000E+000	0.0000000E+000	0.0000000E+000	-2.45008	0.0000000E+000	0.0000000E+000	0.0000000E+000	2.45008	23.371	87.5499	-4.09924e-06	-7.74349e-07	1.16807e-09	-7.75517e-07	0.21307	58451.8	88.1717	58540
0.681362	22.3481	1.04744	22.3727	-2.68346	22.635	0.212758	-0.00264818	223003	488.807	1	12	0.00473902	0.000211822	0	-1.66963e-05	-0.000206469	7.5973e-07	19.7628	0.00358665	0.0033754	-0.00121275	-2.67995	22.376	22.3515	1.04623	0.0446484	0.00209264	0.0446974	2.68346	488807	1.04291e+07	1.04406e+07	-87.3165	0.0000000E+000	0.0000000E+000	0.0000000E+000	87.3165	0.0000000E+000	0.0000000E+000	0.0000000E+000	-87.3165	0.0000000E+000	0.0000000E+000	0.0000000E+000	-2.68346	0.0000000E+000	0.0000000E+000	0.0000000E+000	2.68346	21.3359	87.3165	-1.06153e-05	-5.63423e-07	5.46767e-10	-5.63969e-07	0.212965	80341.3	77.9662	80419.2
0.464091	22.5219	1.21237	22.5545	-3.08129	27.1915	0.212756	-0.0029949	282867	817.306	1	12	0.00473666	0.000210009	0	-3.33002e-05	-5.38653e-05	1.77547e-06	-111.029	0.00845424	-0.00303371	0.00789118	-3.10173	22.5519	22.5189	1.22026	0.0442729	0.00238324	0.044337	3.08129	817306	1.51829e+07	1.52049e+07	-86.9187	0.0000000E+000	0.0000000E+000	0.0000000E+000	86.9187	0.0000000E+000	0.0000000E+000	0.0000000E+000	-86.9187	0.0000000E+000	0.0000000E+000	0.0000000E+000	-3.08129	0.0000000E+000	0.0000000E+000	0.0000000E+000	3.08129	18.5768	86.9187	-1.66039e-05	-6.37183e-07	1.61321e-10	-6.37345e-07	0.21281	71039.5	17.9857	71057.5
0.316193	22.7436	1.48798	22.7923	-3.7432	33.8661	0.212757	-0.00374458	338275	1441.76	1	12	0.00473494	0.000207744	0	-5.01081e-05	-9.20161e-05	1.73252e-06	44.0541	0.00833971	0.00599361	-0.00579891	-3.72767	22.7979	22.7496	1.48218	0.043781	0.00286433	0.0438746	3.7432	1.44175e+06	2.2037e+07	2.20841e+07	-86.2568	0.0000000E+000	0.0000000E+000	0.0000000E+000	86.2568	0.0000000E+000	0.0000000E+000	0.0000000E+000	-86.2568	0.0000000E+000	0.0000000E+000	0.0000000E+000	-3.7432	0.0000000E+000	0.0000000E+000	0.0000000E+000	3.7432	15.2849	86.2568	-1.68079e-05	-7.96686e-07	3.44561e-10	-7.97031e-07	0.212849	56817.5	24.5732	56842.1
0.215268	22.9926	1.91422	23.0722	-4.7591	43.6595	0.212757	-0.00460112	386233	2658.61	1	12	0.00473623	0.000205279	0	-5.83693e-05	4.15118e-05	1.47815e-06	-9.06861	0.00720069	0.00711069	0.00113495	-4.76045	23.0794	22.9998	1.91535	0.0431928	0.00359595	0.0433422	4.7591	2.65861e+06	3.19339e+07	3.20444e+07	-85.2409	0.0000000E+000	0.0000000E+000	0.0000000E+000	85.2409	0.0000000E+000	0.0000000E+000	0.0000000E+000	-85.2409	0.0000000E+000	0.0000000E+000	0.0000000E+000	-4.7591	0.0000000E+000	0.0000000E+000	0.0000000E+000	4.7591	12.0115	85.2409	-8.26122e-06	-9.78921e-07	-1.91001e-10	-9.7873e-07	0.212715	46240.2	9.02211	46231.2
0.146929	23.2557	2.48584	23.3881	-6.10129	57.9978	0.212749	-0.00452928	435752	4922.61	1	12	0.00473534	0.000202468	0	-4.78542e-05	-9.20161e-05	2.6252e-06	-32.9638	0.012966	0.0108787	0.00705493	-6.11564	23.3997	23.2665	2.4929	0.0425145	0.00454446	0.0427567	6.10129	4.92261e+06	4.60522e+07	4.63146e+07	-83.8987	0.0000000E+000	0.0000000E+000	0.0000000E+000	83.8987	0.0000000E+000	0.0000000E+000	0.0000000E+000	-83.8987	0.0000000E+000	0.0000000E+000	0.0000000E+000	-6.10129	0.0000000E+000	0.0000000E+000	0.0000000E+000	6.10129	9.35524	83.8987	1.05151e-05	-9.63599e-07	4.16767e-10	-9.64015e-07	0.212841	46971.8	20.3158	46992.1
0.0999041	23.603	3.21199	23.8206	-7.74943	79.0741	0.212751	-0.00332412	495978	9017.94	1	12	0.00473965	0.000198973	0	-1.32634e-05	0.000117813	2.18628e-06	-51.908	0.0109878	0.00677867	0.00864766	-7.76784	23.8284	23.6098	3.22064	0.0415972	0.00566071	0.0419806	7.74943	9.01794e+06	6.62675e+07	6.68783e+07	-82.2506	0.0000000E+000	0.0000000E+000	0.0000000E+000	82.2506	0.0000000E+000	0.0000000E+000	0.0000000E+000	-82.2506	0.0000000E+000	0.0000000E+000	0.0000000E+000	-7.74943	0.0000000E+000	0.0000000E+000	0.0000000E+000	7.74943	7.3484	82.2506	3.45908e-05	-7.07211e-07	-3.91627e-10	-7.0682e-07	0.212633	64002.2	35.442	63966.8
0.0680626	24.1141	4.22867	24.482	-9.94631	110.002	0.212748	-0.0024186	552978	16497.6	1	12	0.00473712	0.000193494	0	3.08993e-05	-0.000397223	1.87038e-06	-58.9368	0.00966638	0.00498769	0.00828021	-9.96338	24.4884	24.1191	4.23695	0.0402323	0.00705518	0.0408463	9.94631	1.64976e+07	9.40777e+07	9.55133e+07	-80.0537	0.0000000E+000	0.0000000E+000	0.0000000E+000	80.0537	0.0000000E+000	0.0000000E+000	0.0000000E+000	-80.0537	0.0000000E+000	0.0000000E+000	0.0000000E+000	-9.94631	0.0000000E+000	0.0000000E+000	0.0000000E+000	9.94631	5.70252	80.0537	4.41627e-05	-5.14554e-07	9.60724e-10	-5.15514e-07	0.213146	87963.4	164.237	88127.6
0.0464052	24.8584	5.71252	25.5064	-12.942	155.353	0.21275	-0.00113596	600379	30115.1	1	12	0.00473733	0.000185731	0	5.47138e-05	-1.57145e-05	1.80141e-06	-11.9937	0.00969899	0.00948727	0.00201549	-12.9416	25.516	24.8679	5.71454	0.03821	0.00878074	0.0392059	12.942	3.01151e+07	1.31048e+08	1.34464e+08	-77.058	0.0000000E+000	0.0000000E+000	0.0000000E+000	77.058	0.0000000E+000	0.0000000E+000	0.0000000E+000	-77.058	0.0000000E+000	0.0000000E+000	0.0000000E+000	-12.942	0.0000000E+000	0.0000000E+000	0.0000000E+000	12.942	4.35157	77.058	2.38145e-05	-2.41676e-07	1.7851e-11	-2.41694e-07	0.212766	187287	13.8336	187300
0.0315922	25.6235	7.83521	26.7947	-17.0027	221.959	0.212749	-0.00110721	642968	54978.7	1	12	0.00474063	0.000176924	0	-2.46525e-05	-0.000130167	2.59137e-06	18.083	0.0146468	0.0139233	-0.00454628	-16.9847	26.8066	25.6374	7.83066	0.0356896	0.0109133	0.0373209	17.0027	5.49787e+07	1.79797e+08	1.88015e+08	-72.9973	0.0000000E+000	0.0000000E+000	0.0000000E+000	72.9973	0.0000000E+000	0.0000000E+000	0.0000000E+000	-72.9973	0.0000000E+000	0.0000000E+000	0.0000000E+000	-17.0027	0.0000000E+000	0.0000000E+000	0.0000000E+000	17.0027	3.2703	72.9973	-7.93662e-05	-2.35558e-07	1.44122e-10	-2.35702e-07	0.212879	192148	117.563	192266
0.0215268	26.6187	10.432	28.5899	-21.4006	319.697	0.212753	-0.00159875	708715	94359.5	1	12	0.00473645	0.000165669	0	-0.000271736	-0.000187393	2.04907e-06	-16.5953	0.0123685	0.0118533	0.00353254	-21.3985	28.6022	26.6305	10.4356	0.0325658	0.0127628	0.0349774	21.4006	9.43595e+07	2.4077e+08	2.586e+08	-68.5994	0.0000000E+000	0.0000000E+000	0.0000000E+000	68.5994	0.0000000E+000	0.0000000E+000	0.0000000E+000	-68.5994	0.0000000E+000	0.0000000E+000	0.0000000E+000	-21.4006	0.0000000E+000	0.0000000E+000	0.0000000E+000	21.4006	2.55163	68.5994	-0.000247083	-3.40139e-07	2.99595e-10	-3.40438e-07	0.212941	133075	117.212	133192
0.0146812	28.387	13.8989	31.6069	-26.0874	463	0.212751	-0.00222347	779971	150826	1	12	0.0047375	0.000149888	0	-0.000653233	-0.000301846	4.03866e-06	65.8603	0.0269446	0.0110193	-0.0245883	-26.0386	31.606	28.398	13.8743	0.0284154	0.0139128	0.0316386	26.0874	1.50826e+08	3.08044e+08	3.42986e+08	-63.9126	0.0000000E+000	0.0000000E+000	0.0000000E+000	63.9126	0.0000000E+000	0.0000000E+000	0.0000000E+000	-63.9126	0.0000000E+000	0.0000000E+000	0.0000000E+000	-26.0874	0.0000000E+000	0.0000000E+000	0.0000000E+000	26.0874	2.04239	63.9126	-0.000381497	-4.73046e-07	6.71146e-10	-4.73718e-07	0.213053	95684.3	135.754	95820
0.0100092	30.8927	18.9087	36.2202	-31.4699	673.183	0.212744	-0.00276865	840929	229184	1	12	0.0047387	0.00013083	0	-0.00100736	2.24364e-05	3.66038e-06	-17.7475	0.027978	0.0266465	0.00852837	-31.4594	36.2473	30.9194	18.9173	0.0235481	0.0144133	0.0276089	31.4699	2.29184e+08	3.74436e+08	4.39007e+08	-58.5301	0.0000000E+000	0.0000000E+000	0.0000000E+000	58.5301	0.0000000E+000	0.0000000E+000	0.0000000E+000	-58.5301	0.0000000E+000	0.0000000E+000	0.0000000E+000	-31.4699	0.0000000E+000	0.0000000E+000	0.0000000E+000	31.4699	1.63378	58.5301	-0.00035413	-5.89016e-07	-6.21186e-11	-5.88954e-07	0.212722	76840.4	8.10371	76832.3