File: txt/18951_R308_UA706_SOC00_C06.mpt
EC-Lab ASCII FILE
Nb header lines : 65

Potentio Electrochemical Impedance Spectroscopy

Run on channel : 6 (SN 65795)
Grouped channel(s) : 5, 6, 7, 8
User :
CE vs. WE compliance from -10 V to 10 V
Electrode connection : standard
Potential control : Ewe
Ewe ctrl range : min = -10.00 V, max = 10.00 V
Safety Limits :
	Do not start on E overload
Acquisition started on : 11/04/2025 15:53:30.548
Loaded Setting File :  C:\Users\Celltest\OneDrive - store-dot.com\Documents\EC-Lab\Data\@Biologic Test Protocols\anode half cell EIS SOC00.mps
Saved on :
	File : 18950_R308_UA706_SOC00_C06.mpr
	Directory : C:\Users\Celltest\OneDrive - store-dot.com\Documents\EC-Lab\Data\Charmaine\
	Host : 169.254.61.224
Device : VMP-3e (SN .003165)
Address : USB
EC-LAB for windows v11.62 (software)
Internet server v27.00 (firmware)
Command interpretor v12.03 (firmware)
Electrode material :
Initial state :
Electrolyte :
Comments :
Electrode surface area : 0.001 cm²
Characteristic mass : 0.001 g
Equivalent Weight : 0.000 g/eq.
Density : 0.000 g/cm3
Volume (V) : 0.001 cm³
Record Ece
Cycle Definition : Charge/Discharge alternance
Mode                Single sine
E (V)               0.0000
vs.                 Eoc
tE (h:m:s)          0:00:0.0000
record              0
dI                  0.000
unit dI             mA
dt (s)              0.000
fi                  100.000
unit fi             kHz
ff                  10.000
unit ff             mHz
Nd                  6
Points              per decade
spacing             Logarithmic
Va (mV)             5.0
pw                  0.10
Na                  2
corr                0
E range min (V)     -10.000
E range max (V)     10.000
I Range             Auto
Bandwidth           5
nc cycles           0
goto Ns'            0
nr cycles           0
inc. cycle          0

freq/Hz	Re(Z)/Ohm	-Im(Z)/Ohm	|Z|/Ohm	Phase(Z)/deg	time/s	<Ewe>/V	<I>/mA	Cs/µF	Cp/µF	cycle number	I Range	|Ewe|/V	|I|/A	Ns	(Q-Qo)/mA.h	<Ece>/V	|Ece|/V	Phase(Zce)/deg	|Zce|/Ohm	Re(Zce)/Ohm	-Im(Zce)/Ohm	Phase(Zwe-ce)/deg	|Zwe-ce|/Ohm	Re(Zwe-ce)/Ohm	-Im(Zwe-ce)/Ohm	Re(Y)/Ohm-1	Im(Y)/Ohm-1	|Y|/Ohm-1	Phase(Y)/deg	Re(C)/nF	Im(C)/nF	|C|/nF	Phase(C)/deg	Re(M)	Im(M)	|M|	Phase(M)/deg	Re(Permittivity)	Im(Permittivity)	|Permittivity|	Phase(Permittivity)/deg	Re(Resistivity)/Ohm.cm	Im(Resistivity)/Ohm.cm	|Resistivity|/Ohm.cm	Phase(Resistivity)/deg	Re(Conductivity)/mS/cm	Im(Conductivity)/mS/cm	|Conductivity|/mS/cm	Phase(Conductivity)/deg	Tan(Delta)	Loss Angle(Delta)/deg	dq/mA.h	Pwe/W	Pce/W	Pwe-ce/W	<Ewe-Ece>/V	Rwe/Ohm	Rce/Ohm	Rwe-ce/Ohm		Ewe-Ece/V
100004	2.11609	0.997928	2.33959	-25.2482	1.91054	0.21686	0.00457489	1.5948	0.290151	1	9	0.00466469	0.00199381	0	-4.20351e-06	0.000213539	3.05738e-05	83.7507	0.0153344	0.00166922	-0.0152432	-24.8923	2.33464	2.11775	0.982684	0.386593	0.182314	0.427425	25.2482	290.151	615.259	680.244	-64.7518	0.0000000E+000	0.0000000E+000	0.0000000E+000	64.7518	0.0000000E+000	0.0000000E+000	0.0000000E+000	-64.7518	0.0000000E+000	0.0000000E+000	0.0000000E+000	-25.2482	0.0000000E+000	0.0000000E+000	0.0000000E+000	25.2482	2.12048	64.7518	-4.20351e-06	9.92109e-07	9.76919e-10	9.91132e-07	0.216646	47402.1	46.6763	47355.4
68132	2.39862	1.15785	2.66346	-25.7673	2.41652	0.216873	0.00327115	2.01751	0.381267	1	9	0.00510935	0.00191831	0	6.21267e-06	9.8951e-05	2.21905e-05	59.913	0.0115677	0.00579907	-0.0100092	-25.5192	2.66435	2.40442	1.14784	0.338119	0.163215	0.375452	25.7673	381.267	789.84	877.047	-64.2327	0.0000000E+000	0.0000000E+000	0.0000000E+000	64.2327	0.0000000E+000	0.0000000E+000	0.0000000E+000	-64.2327	0.0000000E+000	0.0000000E+000	0.0000000E+000	-25.7673	0.0000000E+000	0.0000000E+000	0.0000000E+000	25.7673	2.07162	64.2327	1.04162e-05	7.09425e-07	3.23683e-10	7.09101e-07	0.216775	66298.9	30.2497	66268.7
46420.4	2.7378	1.32269	3.04056	-25.7861	2.92352	0.216845	-0.00596685	2.59212	0.490524	1	9	0.0050874	0.00167318	0	-1.5738e-06	6.0755e-05	1.21128e-05	9.80935	0.00723942	0.00713358	-0.00123338	-25.7069	3.04645	2.74493	1.32145	0.296137	0.14307	0.328886	25.7861	490.524	1015.32	1127.61	-64.2139	0.0000000E+000	0.0000000E+000	0.0000000E+000	64.2139	0.0000000E+000	0.0000000E+000	0.0000000E+000	-64.2139	0.0000000E+000	0.0000000E+000	0.0000000E+000	-25.7861	0.0000000E+000	0.0000000E+000	0.0000000E+000	25.7861	2.06988	64.2139	-7.78647e-06	-1.29388e-06	-3.62516e-10	-1.29352e-06	0.216785	36341.7	10.1821	36331.5
31621.1	3.09886	1.43807	3.41629	-24.8943	3.30853	0.216846	0.00569238	3.49996	0.620175	1	9	0.00526399	0.00154085	0	2.44398e-06	0.000137147	9.60076e-06	61.7718	0.00623081	0.00294708	-0.00548978	-24.79	3.41665	3.10181	1.43258	0.265518	0.123217	0.292716	24.8943	620.175	1336.4	1473.29	-65.1057	0.0000000E+000	0.0000000E+000	0.0000000E+000	65.1057	0.0000000E+000	0.0000000E+000	0.0000000E+000	-65.1057	0.0000000E+000	0.0000000E+000	0.0000000E+000	-24.8943	0.0000000E+000	0.0000000E+000	0.0000000E+000	24.8943	2.15488	65.1057	4.01779e-06	1.23437e-06	7.80694e-10	1.23359e-06	0.216709	38094.1	24.0931	38070
21544.7	3.50454	1.54332	3.82932	-23.7676	3.56753	0.21682	-0.0083136	4.78655	0.777489	1	9	0.0048552	0.0012679	0	1.79886e-06	0.00040452	6.97936e-06	-51.7142	0.00550466	0.0034106	0.00432077	-23.8062	3.83418	3.50796	1.54765	0.238995	0.105248	0.261143	23.7676	777.489	1765.5	1929.12	-66.2324	0.0000000E+000	0.0000000E+000	0.0000000E+000	66.2324	0.0000000E+000	0.0000000E+000	0.0000000E+000	-66.2324	0.0000000E+000	0.0000000E+000	0.0000000E+000	-23.7676	0.0000000E+000	0.0000000E+000	0.0000000E+000	23.7676	2.27078	66.2324	-6.45127e-07	-1.80256e-06	-3.36302e-09	-1.79919e-06	0.216416	26080.2	48.6576	26031.5
14678.6	3.89157	1.59662	4.20637	-22.3072	3.95052	0.216843	-0.000491117	6.791	0.978415	1	9	0.0050391	0.00119797	0	4.20505e-07	2.25589e-05	5.89389e-06	37.0306	0.0049199	0.00392762	-0.00296297	-22.2496	4.20888	3.8955	1.59366	0.219943	0.0902375	0.237735	22.3072	978.414	2384.77	2577.68	-67.6928	0.0000000E+000	0.0000000E+000	0.0000000E+000	67.6928	0.0000000E+000	0.0000000E+000	0.0000000E+000	-67.6928	0.0000000E+000	0.0000000E+000	0.0000000E+000	-22.3072	0.0000000E+000	0.0000000E+000	0.0000000E+000	22.3072	2.43738	67.6928	-1.37835e-06	-1.06495e-07	-1.10791e-11	-1.06484e-07	0.216821	441530	45.9338	441484
10002.2	4.29662	1.63604	4.59756	-20.8455	4.36753	0.216886	-0.0221066	9.7259	1.23158	1	10	0.00459086	0.000998543	0	-6.08157e-07	2.25589e-05	7.20099e-06	-31.6651	0.0072115	0.00613793	0.0037857	-20.8624	4.60464	4.30275	1.63982	0.20327	0.0773997	0.217507	20.8455	1231.58	3234.42	3460.96	-69.1545	0.0000000E+000	0.0000000E+000	0.0000000E+000	69.1545	0.0000000E+000	0.0000000E+000	0.0000000E+000	-69.1545	0.0000000E+000	0.0000000E+000	0.0000000E+000	-20.8455	0.0000000E+000	0.0000000E+000	0.0000000E+000	20.8455	2.62623	69.1545	-1.02866e-06	-4.7946e-06	-4.98701e-10	-4.79411e-06	0.216863	9810.9	1.02046	9809.88
6810.42	4.61837	1.61809	4.89363	-19.3084	4.62655	0.21688	-0.0225836	14.4425	1.57902	1	10	0.00467853	0.000956046	0	-2.44779e-06	0.000137147	8.10345e-05	-77.51	0.08476	0.0183309	0.0827541	-20.1442	4.93882	4.6367	1.70085	0.192853	0.067568	0.204347	19.3084	1579.02	4506.85	4775.46	-70.6916	0.0000000E+000	0.0000000E+000	0.0000000E+000	70.6916	0.0000000E+000	0.0000000E+000	0.0000000E+000	-70.6916	0.0000000E+000	0.0000000E+000	0.0000000E+000	-19.3084	0.0000000E+000	0.0000000E+000	0.0000000E+000	19.3084	2.85421	70.6916	-1.83963e-06	-4.89794e-06	-3.09728e-09	-4.89484e-06	0.216743	9603.44	6.07286	9597.36
4646	5.02947	1.79486	5.34014	-19.6399	4.89259	0.216866	-0.0292504	19.0858	2.15608	1	10	0.00474938	0.000889373	0	-4.96124e-06	-9.20293e-05	1.21073e-05	40.288	0.0136133	0.0103843	-0.00880276	-19.5136	5.34698	5.03986	1.78606	0.176367	0.0629397	0.187261	19.6399	2156.09	6041.68	6414.87	-70.3601	0.0000000E+000	0.0000000E+000	0.0000000E+000	70.3601	0.0000000E+000	0.0000000E+000	0.0000000E+000	-70.3601	0.0000000E+000	0.0000000E+000	0.0000000E+000	-19.6399	0.0000000E+000	0.0000000E+000	0.0000000E+000	19.6399	2.80215	70.3601	-2.51345e-06	-6.34341e-06	2.6919e-09	-6.34611e-06	0.216958	7414.11	3.14626	7417.26
3163.08	5.40615	1.9142	5.73503	-19.4979	5.26665	0.216789	-0.0233252	26.2859	2.92836	1	10	0.00472011	0.000823031	0	-7.15233e-06	0.000251735	5.54208e-06	96.2294	0.00673374	-0.000730678	-0.00669398	-19.4373	5.73212	5.40542	1.90751	0.164368	0.058199	0.174367	19.4979	2928.36	8270.39	8773.52	-70.5021	0.0000000E+000	0.0000000E+000	0.0000000E+000	70.5021	0.0000000E+000	0.0000000E+000	0.0000000E+000	-70.5021	0.0000000E+000	0.0000000E+000	0.0000000E+000	-19.4979	0.0000000E+000	0.0000000E+000	0.0000000E+000	19.4979	2.82424	70.5021	-2.19109e-06	-5.05664e-06	-5.87177e-09	-5.05077e-06	0.216537	9294.2	10.7924	9283.41
2155.69	5.77934	2.11075	6.15273	-20.0634	5.7178	0.216843	-0.0043272	34.9781	4.11657	1	10	0.00468024	0.000760677	0	-7.31663e-06	9.8951e-05	5.96292e-06	-30.8288	0.00783896	0.00673134	0.00401726	-20.077	6.16043	5.78607	2.11477	0.152666	0.0557573	0.16253	20.0634	4116.57	11271.4	11999.6	-69.9366	0.0000000E+000	0.0000000E+000	0.0000000E+000	69.9366	0.0000000E+000	0.0000000E+000	0.0000000E+000	-69.9366	0.0000000E+000	0.0000000E+000	0.0000000E+000	-20.0634	0.0000000E+000	0.0000000E+000	0.0000000E+000	20.0634	2.73805	69.9366	-1.64301e-07	-9.38322e-07	-4.28181e-10	-9.37894e-07	0.216744	50111.5	22.8672	50088.6
1468.59	6.18156	2.41254	6.63566	-21.3197	6.16904	0.216859	-0.00417069	44.9205	5.9378	1	10	0.00464632	0.000700204	0	-7.33364e-06	6.0755e-05	8.25955e-06	21.972	0.0117959	0.0109391	-0.00441347	-21.25	6.64425	6.1925	2.40813	0.140388	0.0547906	0.150701	21.3197	5937.8	15214.2	16331.8	-68.6803	0.0000000E+000	0.0000000E+000	0.0000000E+000	68.6803	0.0000000E+000	0.0000000E+000	0.0000000E+000	-68.6803	0.0000000E+000	0.0000000E+000	0.0000000E+000	-21.3197	0.0000000E+000	0.0000000E+000	0.0000000E+000	21.3197	2.56226	68.6803	-1.70069e-08	-9.04451e-07	-2.5339e-10	-9.04197e-07	0.216798	51995.8	14.5671	51981.2
1000.32	6.64555	2.83496	7.22497	-23.1029	6.61979	0.21684	-0.00590354	56.1222	8.64082	1	10	0.00462693	0.000640407	0	-8.47339e-06	-0.000111127	1.06706e-05	-6.39876	0.0166622	0.0165584	0.00185696	-23.065	7.24094	6.6621	2.83681	0.127309	0.0543093	0.138409	23.1029	8640.82	20255.3	22021.4	-66.8971	0.0000000E+000	0.0000000E+000	0.0000000E+000	66.8971	0.0000000E+000	0.0000000E+000	0.0000000E+000	-66.8971	0.0000000E+000	0.0000000E+000	0.0000000E+000	-23.1029	0.0000000E+000	0.0000000E+000	0.0000000E+000	23.1029	2.34414	66.8971	-1.13975e-06	-1.28013e-06	6.56045e-10	-1.28078e-06	0.216951	36730.5	18.8238	36749.4
681.09	7.19655	3.41078	7.9639	-25.3584	7.06955	0.216842	-0.00444646	68.5113	12.5666	1	10	0.00460659	0.000578434	0	-8.66701e-06	6.0755e-05	1.06027e-05	46.0073	0.0183301	0.0127314	-0.0131872	-25.2336	7.96978	7.20928	3.39759	0.113468	0.0537777	0.125567	25.3584	12566.6	26514.8	29342	-64.6416	0.0000000E+000	0.0000000E+000	0.0000000E+000	64.6416	0.0000000E+000	0.0000000E+000	0.0000000E+000	-64.6416	0.0000000E+000	0.0000000E+000	0.0000000E+000	-25.3584	0.0000000E+000	0.0000000E+000	0.0000000E+000	25.3584	2.10994	64.6416	-1.93619e-07	-9.64179e-07	-2.70145e-10	-9.63909e-07	0.216781	48767.3	13.6637	48753.7
463.961	7.90381	4.1912	8.9463	-27.936	7.52137	0.216844	-0.00530357	81.8465	17.9635	1	10	0.00459188	0.000513271	0	-9.03753e-06	0.000194441	9.89383e-06	-0.837484	0.019276	0.019274	0.000281745	-27.8798	8.96347	7.92308	4.19148	0.0987527	0.0523662	0.111778	27.936	17963.5	33875.7	38343.8	-62.064	0.0000000E+000	0.0000000E+000	0.0000000E+000	62.064	0.0000000E+000	0.0000000E+000	0.0000000E+000	-62.064	0.0000000E+000	0.0000000E+000	0.0000000E+000	-27.936	0.0000000E+000	0.0000000E+000	0.0000000E+000	27.936	1.88581	62.064	-3.70526e-07	-1.15005e-06	-1.03123e-09	-1.14902e-06	0.216649	40886.4	36.6623	40849.7
316.316	8.85824	5.15471	10.2489	-30.1956	7.96906	0.216855	-0.00355954	97.6101	24.6917	1	10	0.00458116	0.000446991	0	-9.74343e-06	7.9853e-05	9.60624e-06	11.3789	0.0214909	0.0210685	-0.00424008	-30.116	10.265	8.87931	5.15047	0.0843325	0.0490741	0.0975717	30.1956	24691.7	42432.1	49093.4	-59.8044	0.0000000E+000	0.0000000E+000	0.0000000E+000	59.8044	0.0000000E+000	0.0000000E+000	0.0000000E+000	-59.8044	0.0000000E+000	0.0000000E+000	0.0000000E+000	-30.1956	0.0000000E+000	0.0000000E+000	0.0000000E+000	30.1956	1.71847	59.8044	-7.05894e-07	-7.71904e-07	-2.8424e-10	-7.71619e-07	0.216775	60922.2	22.4335	60899.7
215.345	10.2846	6.27411	12.0473	-31.3853	8.41955	0.216841	-0.0051955	117.797	31.9493	1	10	0.00458168	0.000380308	0	-1.06528e-05	0.000270833	9.99511e-06	-59.5049	0.0262816	0.013337	0.0226461	-31.4441	12.0705	10.2979	6.29675	0.0708612	0.043229	0.0830064	31.3853	31949.3	52371.5	61347.6	-58.6147	0.0000000E+000	0.0000000E+000	0.0000000E+000	58.6147	0.0000000E+000	0.0000000E+000	0.0000000E+000	-58.6147	0.0000000E+000	0.0000000E+000	0.0000000E+000	-31.3853	0.0000000E+000	0.0000000E+000	0.0000000E+000	31.3853	1.63921	58.6147	-9.09387e-07	-1.1266e-06	-1.40712e-09	-1.12519e-06	0.21657	41736.3	52.1284	41684.2
146.737	12.1932	7.33066	14.2272	-31.0146	8.86551	0.216838	-0.00515451	147.957	39.2811	1	10	0.00457208	0.000321362	0	-1.11796e-05	7.9853e-05	1.13737e-05	11.1979	0.0353922	0.0347184	-0.00687314	-30.919	14.2534	12.2279	7.32379	0.0602392	0.0362163	0.0702879	31.0146	39281.1	65336.9	76235.9	-58.9854	0.0000000E+000	0.0000000E+000	0.0000000E+000	58.9854	0.0000000E+000	0.0000000E+000	0.0000000E+000	-58.9854	0.0000000E+000	0.0000000E+000	0.0000000E+000	-31.0146	0.0000000E+000	0.0000000E+000	0.0000000E+000	31.0146	1.66332	58.9854	-5.26806e-07	-1.11769e-06	-4.11603e-10	-1.11728e-06	0.216758	42067.6	15.4919	42052.1
100.032	14.6062	8.08836	16.6962	-28.976	9.31679	0.216849	-0.00288131	196.707	46.1643	1	10	0.00457061	0.000273752	0	-1.16402e-05	0.000251735	8.42939e-06	-2.4038	0.0307921	0.030765	0.00129148	-28.9288	16.7238	14.637	8.08965	0.0523965	0.0290152	0.0598938	28.976	46164.3	83364.9	95293.5	-61.024	0.0000000E+000	0.0000000E+000	0.0000000E+000	61.024	0.0000000E+000	0.0000000E+000	0.0000000E+000	-61.024	0.0000000E+000	0.0000000E+000	0.0000000E+000	-28.976	0.0000000E+000	0.0000000E+000	0.0000000E+000	28.976	1.80583	61.024	-4.60618e-07	-6.24811e-07	-7.25328e-10	-6.24086e-07	0.216598	75260.6	87.3683	75173.3
68.104	17.3615	8.15358	19.1807	-25.1565	9.77948	0.216849	-0.00274343	286.615	51.7923	1	10	0.00457096	0.00023831	0	-1.19209e-05	0.000309029	1.05486e-05	13.4911	0.0442641	0.0430427	-0.0103266	-25.0741	19.2153	17.4045	8.14325	0.0471906	0.0221624	0.0521356	25.1565	51792.3	110282	121838	-64.8435	0.0000000E+000	0.0000000E+000	0.0000000E+000	64.8435	0.0000000E+000	0.0000000E+000	0.0000000E+000	-64.8435	0.0000000E+000	0.0000000E+000	0.0000000E+000	-25.1565	0.0000000E+000	0.0000000E+000	0.0000000E+000	25.1565	2.1293	64.8435	-2.80651e-07	-5.9491e-07	-8.47801e-10	-5.94062e-07	0.21654	79042.9	112.643	78930.3
46.4415	20.0762	7.7096	21.5057	-21.0076	10.4566	0.216883	-0.00734861	444.51	57.1268	1	11	0.00457736	0.000212845	0	-1.2763e-05	7.9853e-05	7.58775e-06	3.40515	0.0356493	0.0355863	-0.00211743	-20.9684	21.5381	20.1118	7.70748	0.0434087	0.0166696	0.0464994	21.0076	57126.8	148761	159353	-68.9924	0.0000000E+000	0.0000000E+000	0.0000000E+000	68.9924	0.0000000E+000	0.0000000E+000	0.0000000E+000	-68.9924	0.0000000E+000	0.0000000E+000	0.0000000E+000	-21.0076	0.0000000E+000	0.0000000E+000	0.0000000E+000	21.0076	2.60406	68.9924	-8.42125e-07	-1.59379e-06	-5.86809e-10	-1.5932e-06	0.216803	29513.4	10.8664	29502.6
31.6296	22.252	6.64062	23.2217	-16.6166	10.8856	0.216888	-0.00730273	757.737	61.965	1	11	0.0045695	0.000196777	0	-1.37597e-05	0.000442716	1.05502e-05	-52.9731	0.0536151	0.0322865	0.0428038	-16.6949	23.2649	22.2843	6.68342	0.0412648	0.0123146	0.0430631	16.6166	61965	207638	216687	-73.3834	0.0000000E+000	0.0000000E+000	0.0000000E+000	73.3834	0.0000000E+000	0.0000000E+000	0.0000000E+000	-73.3834	0.0000000E+000	0.0000000E+000	0.0000000E+000	-16.6166	0.0000000E+000	0.0000000E+000	0.0000000E+000	16.6166	3.35089	73.3834	-9.96642e-07	-1.58387e-06	-3.23303e-09	-1.58064e-06	0.216445	29699.5	60.6233	29638.9
21.5517	23.8277	5.38386	24.4283	-12.7322	11.3075	0.216888	-0.00703674	1371.65	66.626	1	11	0.00456495	0.000186871	0	-1.47216e-05	0.000175343	6.81906e-06	6.23013	0.0364908	0.0362753	-0.00396006	-12.7044	24.4629	23.864	5.3799	0.0399295	0.00902206	0.0409361	12.7322	66626	294871	302304	-77.2678	0.0000000E+000	0.0000000E+000	0.0000000E+000	77.2678	0.0000000E+000	0.0000000E+000	0.0000000E+000	-77.2678	0.0000000E+000	0.0000000E+000	0.0000000E+000	-12.7322	0.0000000E+000	0.0000000E+000	0.0000000E+000	12.7322	4.42576	77.2678	-9.61912e-07	-1.52619e-06	-1.23384e-09	-1.52495e-06	0.216713	30822.3	24.9183	30797.4
14.6852	24.9851	4.15009	25.3274	-9.43088	11.7672	0.216906	-0.00606342	2611.46	70.116	1	11	0.00458179	0.000180902	0	-1.63834e-05	4.16569e-05	1.20039e-05	-69.1166	0.0663559	0.0236537	0.0619969	-9.56029	25.361	25.0088	4.21209	0.0389492	0.00646957	0.0394829	9.43088	70116	422124	427908	-80.5691	0.0000000E+000	0.0000000E+000	0.0000000E+000	80.5691	0.0000000E+000	0.0000000E+000	0.0000000E+000	-80.5691	0.0000000E+000	0.0000000E+000	0.0000000E+000	-9.43088	0.0000000E+000	0.0000000E+000	0.0000000E+000	9.43088	6.02037	80.5691	-1.66179e-06	-1.31519e-06	-2.52584e-10	-1.31494e-06	0.216864	35772.9	6.8702	35766
10.0032	25.6285	3.22132	25.8302	-7.16409	12.2178	0.216903	-0.0064626	4939.09	76.8174	1	11	0.00457484	0.000177112	0	-1.65247e-05	6.0755e-05	1.24054e-05	-108.346	0.0700427	-0.0220457	0.0664828	-7.31659	25.8167	25.6065	3.2878	0.0384121	0.00482813	0.0387144	7.16409	76817.4	611153	615961	-82.8359	0.0000000E+000	0.0000000E+000	0.0000000E+000	82.8359	0.0000000E+000	0.0000000E+000	0.0000000E+000	-82.8359	0.0000000E+000	0.0000000E+000	0.0000000E+000	-7.16409	0.0000000E+000	0.0000000E+000	0.0000000E+000	7.16409	7.95591	82.8359	-1.41318e-07	-1.40176e-06	-3.92635e-10	-1.40136e-06	0.216842	33562.8	9.40102	33553.4
6.81719	25.9894	2.42853	26.1026	-5.3384	12.5575	0.216885	-0.00680768	9613.26	83.213	1	11	0.00456086	0.000174728	0	-1.8481e-05	0.000118049	6.35958e-06	54.2726	0.036397	0.0212533	-0.0295472	-5.26954	26.121	26.0106	2.39899	0.0381442	0.00356432	0.0383103	5.3384	83212.9	890518	894398	-84.6616	0.0000000E+000	0.0000000E+000	0.0000000E+000	84.6616	0.0000000E+000	0.0000000E+000	0.0000000E+000	-84.6616	0.0000000E+000	0.0000000E+000	0.0000000E+000	-5.3384	0.0000000E+000	0.0000000E+000	0.0000000E+000	5.3384	10.7017	84.6616	-1.95633e-06	-1.47648e-06	-8.0364e-10	-1.47568e-06	0.216767	31858.8	17.3406	31841.5
4.63925	26.3435	1.99706	26.4191	-4.33521	13.0425	0.21689	-0.0061205	17178.4	98.1583	1	11	0.00457064	0.000173005	0	-1.77104e-05	7.9853e-05	7.48579e-06	-29.1313	0.0432691	0.0377959	0.0210639	-4.3745	26.4584	26.3813	2.01812	0.0377431	0.00286125	0.0378514	4.33521	98158.3	1.29482e+06	1.29854e+06	-85.6648	0.0000000E+000	0.0000000E+000	0.0000000E+000	85.6648	0.0000000E+000	0.0000000E+000	0.0000000E+000	-85.6648	0.0000000E+000	0.0000000E+000	0.0000000E+000	-4.33521	0.0000000E+000	0.0000000E+000	0.0000000E+000	4.33521	13.1912	85.6648	7.70612e-07	-1.32747e-06	-4.8874e-10	-1.32699e-06	0.21681	35436.7	13.0468	35423.6
3.1604	26.5483	1.56853	26.5946	-3.38124	13.7354	0.216889	-0.00572785	32105.9	111.683	1	11	0.00457124	0.000171886	0	-1.71075e-05	0.000213539	3.15498e-06	21.7905	0.0183551	0.0170436	-0.00681366	-3.36443	26.6112	26.5653	1.56172	0.0375362	0.00221773	0.0376016	3.38124	111683	1.89029e+06	1.89359e+06	-86.6188	0.0000000E+000	0.0000000E+000	0.0000000E+000	86.6188	0.0000000E+000	0.0000000E+000	0.0000000E+000	-86.6188	0.0000000E+000	0.0000000E+000	0.0000000E+000	-3.38124	0.0000000E+000	0.0000000E+000	0.0000000E+000	3.38124	16.9255	86.6188	6.02934e-07	-1.24231e-06	-1.22312e-09	-1.24109e-06	0.216676	37865.7	37.2809	37828.4
2.15577	26.6978	1.38368	26.7336	-2.96684	14.7391	0.216899	-0.00462425	53356	142.935	1	11	0.00456649	0.000170815	0	-1.95051e-05	0.000194441	2.6603e-06	35.549	0.0155742	0.0126714	-0.0090548	-2.94606	26.7458	26.7104	1.37462	0.037356	0.00193607	0.0374061	2.96684	142935	2.7579e+06	2.7616e+06	-87.0332	0.0000000E+000	0.0000000E+000	0.0000000E+000	87.0332	0.0000000E+000	0.0000000E+000	0.0000000E+000	-87.0332	0.0000000E+000	0.0000000E+000	0.0000000E+000	-2.96684	0.0000000E+000	0.0000000E+000	0.0000000E+000	2.96684	19.2948	87.0332	-2.3976e-06	-1.003e-06	-8.99144e-10	-1.0021e-06	0.216705	46904.8	42.0482	46862.8
1.46631	26.8594	1.26903	26.8893	-2.70505	16.2004	0.216894	-0.00437389	85531.1	190.504	1	11	0.00456735	0.000169857	0	-2.5211e-05	7.9853e-05	3.07588e-06	20.6393	0.0181086	0.0169464	-0.00638298	-2.68976	26.9059	26.8763	1.26264	0.0371481	0.00175514	0.0371895	2.70505	190505	4.03209e+06	4.03659e+06	-87.295	0.0000000E+000	0.0000000E+000	0.0000000E+000	87.295	0.0000000E+000	0.0000000E+000	0.0000000E+000	-87.295	0.0000000E+000	0.0000000E+000	0.0000000E+000	-2.70505	0.0000000E+000	0.0000000E+000	0.0000000E+000	2.70505	21.1653	87.295	-5.70596e-06	-9.4867e-07	-3.49268e-10	-9.4832e-07	0.216814	49588.4	18.2568	49570.1
1.00006	27.0371	1.27835	27.0673	-2.707	19.374	0.216899	-0.00413996	124493	277.685	1	12	0.00456496	0.000168652	0	-3.34544e-05	0.000309029	3.32279e-06	66.3221	0.019702	0.00791222	-0.0180435	-2.66807	27.0743	27.045	1.2603	0.0369038	0.00174486	0.036945	2.707	277685	5.87304e+06	5.8796e+06	-87.293	0.0000000E+000	0.0000000E+000	0.0000000E+000	87.293	0.0000000E+000	0.0000000E+000	0.0000000E+000	-87.293	0.0000000E+000	0.0000000E+000	0.0000000E+000	-2.707	0.0000000E+000	0.0000000E+000	0.0000000E+000	2.707	21.15	87.293	-8.24335e-06	-8.97954e-07	-1.27937e-09	-8.96675e-07	0.21659	52391.6	74.6455	52317
0.681362	27.2551	1.38179	27.2901	-2.90232	22.4862	0.216906	-0.00431741	169044	433.386	1	12	0.00457316	0.000167576	0	-3.63993e-05	2.25589e-05	2.39563e-06	53.9694	0.0142958	0.00840904	-0.011561	-2.8772	27.2979	27.2635	1.37023	0.0365964	0.00185538	0.0366434	2.90232	433387	8.5483e+06	8.55928e+06	-87.0977	0.0000000E+000	0.0000000E+000	0.0000000E+000	87.0977	0.0000000E+000	0.0000000E+000	0.0000000E+000	-87.0977	0.0000000E+000	0.0000000E+000	0.0000000E+000	-2.90232	0.0000000E+000	0.0000000E+000	0.0000000E+000	2.90232	19.7244	87.0977	-2.9449e-06	-9.36473e-07	-9.7396e-11	-9.36376e-07	0.216884	50239.9	5.2251	50234.7
0.464091	27.4379	1.56821	27.4827	-3.27117	27.0428	0.21691	-0.004393	218682	712.038	1	12	0.00456916	0.000166256	0	-3.36954e-05	0.000137147	1.62458e-06	-4.67067	0.00977153	0.00973908	0.000795679	-3.27167	27.4924	27.4476	1.569	0.0363273	0.00207628	0.0363866	3.27117	712038	1.24581e+07	1.24784e+07	-86.7288	0.0000000E+000	0.0000000E+000	0.0000000E+000	86.7288	0.0000000E+000	0.0000000E+000	0.0000000E+000	-86.7288	0.0000000E+000	0.0000000E+000	0.0000000E+000	-3.27117	0.0000000E+000	0.0000000E+000	0.0000000E+000	3.27117	17.4963	86.7288	2.70386e-06	-9.52885e-07	-6.02487e-10	-9.52282e-07	0.216773	49376.2	31.2195	49345
0.316193	27.6592	1.81983	27.719	-3.76434	33.7189	0.216895	-0.00440323	276590	1192.19	1	12	0.00456587	0.00016472	0	-2.67807e-05	-7.29313e-05	1.6531e-06	5.68953	0.0100358	0.00998638	-0.000994931	-3.76093	27.7289	27.6692	1.81884	0.0359985	0.00236852	0.0360764	3.76434	1.19219e+06	1.81198e+07	1.81589e+07	-86.2357	0.0000000E+000	0.0000000E+000	0.0000000E+000	86.2357	0.0000000E+000	0.0000000E+000	0.0000000E+000	-86.2357	0.0000000E+000	0.0000000E+000	0.0000000E+000	-3.76434	0.0000000E+000	0.0000000E+000	0.0000000E+000	3.76434	15.1988	86.2357	6.91473e-06	-9.55039e-07	3.21133e-10	-9.5536e-07	0.216968	49258.1	16.5631	49274.7
0.215268	27.9526	2.20453	28.0394	-4.50939	43.5122	0.216896	-0.00297239	335371	2073.1	1	12	0.00457132	0.000163032	0	-1.99097e-05	0.000251735	2.37946e-06	-22.9184	0.0145951	0.0134429	0.0056836	-4.51881	28.0532	27.966	2.21021	0.0355537	0.002804	0.0356641	4.50939	2.0731e+06	2.62861e+07	2.63677e+07	-85.4906	0.0000000E+000	0.0000000E+000	0.0000000E+000	85.4906	0.0000000E+000	0.0000000E+000	0.0000000E+000	-85.4906	0.0000000E+000	0.0000000E+000	0.0000000E+000	-4.50939	0.0000000E+000	0.0000000E+000	0.0000000E+000	4.50939	12.6796	85.4906	6.871e-06	-6.447e-07	-7.48256e-10	-6.43952e-07	0.216644	72970.3	84.6912	72885.6
0.146929	28.3097	2.81696	28.4495	-5.68252	57.8496	0.21689	-0.00162745	384532	3770.04	1	12	0.00456844	0.000160581	0	-2.41306e-05	2.25589e-05	2.03273e-06	-3.34119	0.0126586	0.0126371	0.000737764	-5.68148	28.4621	28.3223	2.8177	0.0349773	0.00348043	0.0351501	5.68252	3.77004e+06	3.78878e+07	3.80749e+07	-84.3175	0.0000000E+000	0.0000000E+000	0.0000000E+000	84.3175	0.0000000E+000	0.0000000E+000	0.0000000E+000	-84.3175	0.0000000E+000	0.0000000E+000	0.0000000E+000	-5.68252	0.0000000E+000	0.0000000E+000	0.0000000E+000	5.68252	10.0497	84.3175	-4.22096e-06	-3.52977e-07	-3.67135e-11	-3.5294e-07	0.216867	133270	13.8615	133256
0.0999041	28.6596	3.68261	28.8952	-7.32209	78.9277	0.21689	-0.00102399	432595	7026.53	1	12	0.00457171	0.000158217	0	-5.35833e-05	9.8951e-05	1.78158e-06	56.802	0.0112603	0.00616541	-0.00942246	-7.30201	28.9001	28.6657	3.67319	0.0343256	0.00441066	0.0346078	7.32209	7.02653e+06	5.46833e+07	5.51329e+07	-82.6779	0.0000000E+000	0.0000000E+000	0.0000000E+000	82.6779	0.0000000E+000	0.0000000E+000	0.0000000E+000	-82.6779	0.0000000E+000	0.0000000E+000	0.0000000E+000	-7.32209	0.0000000E+000	0.0000000E+000	0.0000000E+000	7.32209	7.78241	82.6779	-2.94527e-05	-2.22094e-07	-1.01325e-10	-2.21992e-07	0.216791	211808	96.6326	211711
0.0680626	29.0783	4.8392	29.4782	-9.44856	109.854	0.216882	-0.00123847	483212	13022.2	1	12	0.00456805	0.000154964	0	-0.000119049	0.000232637	2.48244e-06	9.3197	0.0160195	0.0158081	-0.00259425	-9.43854	29.4934	29.0941	4.8366	0.0334631	0.00556893	0.0339234	9.44856	1.30222e+07	7.82489e+07	7.93251e+07	-80.5514	0.0000000E+000	0.0000000E+000	0.0000000E+000	80.5514	0.0000000E+000	0.0000000E+000	0.0000000E+000	-80.5514	0.0000000E+000	0.0000000E+000	0.0000000E+000	-9.44856	0.0000000E+000	0.0000000E+000	0.0000000E+000	9.44856	6.0089	80.5514	-6.54659e-05	-2.68602e-07	-2.88115e-10	-2.68314e-07	0.216649	175120	187.842	174932
0.0464052	29.7454	6.26589	30.3982	-11.8955	155.205	0.216881	-0.00226426	547357	23256.2	1	12	0.00456807	0.000150274	0	-0.000235361	4.16569e-05	1.79954e-06	-8.2657	0.011975	0.0118506	0.00172158	-11.894	30.4102	29.7573	6.26761	0.0321902	0.00678088	0.0328966	11.8955	2.32562e+07	1.10402e+08	1.12825e+08	-78.1045	0.0000000E+000	0.0000000E+000	0.0000000E+000	78.1045	0.0000000E+000	0.0000000E+000	0.0000000E+000	-78.1045	0.0000000E+000	0.0000000E+000	0.0000000E+000	-11.8955	0.0000000E+000	0.0000000E+000	0.0000000E+000	11.8955	4.7472	78.1045	-0.000116312	-4.91076e-07	-9.43222e-11	-4.90982e-07	0.21684	95784.7	18.3976	95766.3
0.0315922	30.7818	8.51357	31.9375	-15.4603	221.811	0.21688	-0.00276882	591737	42048.6	1	12	0.00456768	0.00014302	0	-0.000361901	0.000366324	1.45681e-06	-7.63798	0.0101861	0.0100957	0.00135387	-15.4578	31.9475	30.7919	8.51492	0.0301782	0.00834663	0.0313112	15.4603	4.20486e+07	1.52032e+08	1.57739e+08	-74.5397	0.0000000E+000	0.0000000E+000	0.0000000E+000	74.5397	0.0000000E+000	0.0000000E+000	0.0000000E+000	-74.5397	0.0000000E+000	0.0000000E+000	0.0000000E+000	-15.4603	0.0000000E+000	0.0000000E+000	0.0000000E+000	15.4603	3.61562	74.5397	-0.00012654	-6.00504e-07	-1.01429e-09	-5.99489e-07	0.216514	78329.5	132.303	78197.2
0.0215268	31.9493	11.7809	34.0522	-20.2408	319.548	0.216884	-0.00278624	627569	75115.8	1	12	0.00456901	0.000134177	0	-0.000416582	0.000156245	2.68449e-06	12.83	0.0200071	0.0195076	-0.00444276	-20.2225	34.0689	31.9688	11.7765	0.0275532	0.0101599	0.0293667	20.2408	7.51158e+07	2.03711e+08	2.17118e+08	-69.7592	0.0000000E+000	0.0000000E+000	0.0000000E+000	69.7592	0.0000000E+000	0.0000000E+000	0.0000000E+000	-69.7592	0.0000000E+000	0.0000000E+000	0.0000000E+000	-20.2408	0.0000000E+000	0.0000000E+000	0.0000000E+000	20.2408	2.71195	69.7592	-5.4681e-05	-6.04291e-07	-4.35337e-10	-6.03855e-07	0.216727	77840.9	56.0773	77784.8
0.0146812	33.4369	15.8077	36.9853	-25.303	462.851	0.216881	-0.00267073	685788	125277	1	12	0.00456717	0.000123486	0	-0.000328945	0.000328127	9.52377e-07	-3.27169	0.00771241	0.00769984	0.000440153	-25.2986	36.9924	33.4446	15.8082	0.0244438	0.0115561	0.0270378	25.303	1.25277e+08	2.64989e+08	2.9311e+08	-64.697	0.0000000E+000	0.0000000E+000	0.0000000E+000	64.697	0.0000000E+000	0.0000000E+000	0.0000000E+000	-64.697	0.0000000E+000	0.0000000E+000	0.0000000E+000	-25.303	0.0000000E+000	0.0000000E+000	0.0000000E+000	25.303	2.11523	64.697	8.76371e-05	-5.79232e-07	-8.76341e-10	-5.78356e-07	0.216553	81206.6	122.86	81083.7
0.0100092	36.0587	20.9122	41.6839	-30.1115	673.032	0.216885	-0.00240618	760366	191374	1	12	0.00456594	0.000109537	0	-0.000141248	0.000194441	2.32834e-06	24.2571	0.0212562	0.0193795	-0.00873272	-30.0878	41.6963	36.0781	20.9035	0.0207526	0.0120354	0.0239901	30.1115	1.91374e+08	3.29986e+08	3.81464e+08	-59.8885	0.0000000E+000	0.0000000E+000	0.0000000E+000	59.8885	0.0000000E+000	0.0000000E+000	0.0000000E+000	-59.8885	0.0000000E+000	0.0000000E+000	0.0000000E+000	-30.1115	0.0000000E+000	0.0000000E+000	0.0000000E+000	30.1115	1.72429	59.8885	0.000187696	-5.21863e-07	-4.6786e-10	-5.21395e-07	0.21669	90136.6	80.8092	90055.8