File: txt/18999_R309_UA707_SOC00_C02.mpt
EC-Lab ASCII FILE
Nb header lines : 65

Potentio Electrochemical Impedance Spectroscopy

Run on channel : 2 (SN 66139)
Grouped channel(s) : 1, 2, 3, 4
User :
CE vs. WE compliance from -10 V to 10 V
Electrode connection : standard
Potential control : Ewe
Ewe ctrl range : min = -10.00 V, max = 10.00 V
Safety Limits :
	Do not start on E overload
Acquisition started on : 11/04/2025 15:54:15.751
Loaded Setting File :  C:\Users\Celltest\OneDrive - store-dot.com\Documents\EC-Lab\Data\@Biologic Test Protocols\anode half cell EIS SOC00.mps
Saved on :
	File : 18998_R309_UA707_SOC00_C02.mpr
	Directory : C:\Users\Celltest\OneDrive - store-dot.com\Documents\EC-Lab\Data\Charmaine\
	Host : 169.254.61.224
Device : VMP-3e (SN .003165)
Address : USB
EC-LAB for windows v11.62 (software)
Internet server v27.00 (firmware)
Command interpretor v12.03 (firmware)
Electrode material :
Initial state :
Electrolyte :
Comments :
Electrode surface area : 0.001 cm²
Characteristic mass : 0.001 g
Equivalent Weight : 0.000 g/eq.
Density : 0.000 g/cm3
Volume (V) : 0.001 cm³
Record Ece
Cycle Definition : Charge/Discharge alternance
Mode                Single sine
E (V)               0.0000
vs.                 Eoc
tE (h:m:s)          0:00:0.0000
record              0
dI                  0.000
unit dI             mA
dt (s)              0.000
fi                  100.000
unit fi             kHz
ff                  10.000
unit ff             mHz
Nd                  6
Points              per decade
spacing             Logarithmic
Va (mV)             5.0
pw                  0.10
Na                  2
corr                0
E range min (V)     -10.000
E range max (V)     10.000
I Range             Auto
Bandwidth           5
nc cycles           0
goto Ns'            0
nr cycles           0
inc. cycle          0

freq/Hz	Re(Z)/Ohm	-Im(Z)/Ohm	|Z|/Ohm	Phase(Z)/deg	time/s	<Ewe>/V	<I>/mA	Cs/µF	Cp/µF	cycle number	I Range	|Ewe|/V	|I|/A	Ns	(Q-Qo)/mA.h	<Ece>/V	|Ece|/V	Phase(Zce)/deg	|Zce|/Ohm	Re(Zce)/Ohm	-Im(Zce)/Ohm	Phase(Zwe-ce)/deg	|Zwe-ce|/Ohm	Re(Zwe-ce)/Ohm	-Im(Zwe-ce)/Ohm	Re(Y)/Ohm-1	Im(Y)/Ohm-1	|Y|/Ohm-1	Phase(Y)/deg	Re(C)/nF	Im(C)/nF	|C|/nF	Phase(C)/deg	Re(M)	Im(M)	|M|	Phase(M)/deg	Re(Permittivity)	Im(Permittivity)	|Permittivity|	Phase(Permittivity)/deg	Re(Resistivity)/Ohm.cm	Im(Resistivity)/Ohm.cm	|Resistivity|/Ohm.cm	Phase(Resistivity)/deg	Re(Conductivity)/mS/cm	Im(Conductivity)/mS/cm	|Conductivity|/mS/cm	Phase(Conductivity)/deg	Tan(Delta)	Loss Angle(Delta)/deg	dq/mA.h	Pwe/W	Pce/W	Pwe-ce/W	<Ewe-Ece>/V	Rwe/Ohm	Rce/Ohm	Rwe-ce/Ohm		Ewe-Ece/V
100004	1.67697	0.563368	1.76907	-18.5695	1.72454	0.246764	-0.0134807	2.82496	0.286489	1	9	0.00463458	0.00261978	0	-8.48704e-06	-3.13005e-05	2.02387e-05	91.4452	0.00772535	-0.000194836	-0.00772289	-18.3341	1.76644	1.67677	0.555645	0.535841	0.180013	0.56527	18.5695	286.489	852.785	899.621	-71.4305	0.0000000E+000	0.0000000E+000	0.0000000E+000	71.4305	0.0000000E+000	0.0000000E+000	0.0000000E+000	-71.4305	0.0000000E+000	0.0000000E+000	0.0000000E+000	-18.5695	0.0000000E+000	0.0000000E+000	0.0000000E+000	18.5695	2.97668	71.4305	-8.48704e-06	-3.32656e-06	4.21953e-10	-3.32698e-06	0.246795	18304.9	2.32187	18307.3
68132	1.84159	0.609028	1.93969	-18.2994	2.23156	0.246742	-0.0123634	3.83558	0.378132	1	9	0.0050549	0.00260604	0	-1.2613e-05	0.000293244	1.51188e-05	57.6736	0.00580143	0.00310227	-0.0049023	-18.1333	1.9411	1.8447	0.604125	0.489475	0.161873	0.515547	18.2994	378.132	1143.4	1204.31	-71.7006	0.0000000E+000	0.0000000E+000	0.0000000E+000	71.7006	0.0000000E+000	0.0000000E+000	0.0000000E+000	-71.7006	0.0000000E+000	0.0000000E+000	0.0000000E+000	-18.2994	0.0000000E+000	0.0000000E+000	0.0000000E+000	18.2994	3.02383	71.7006	-4.12598e-06	-3.05056e-06	-3.62548e-09	-3.04694e-06	0.246449	19957.6	23.7188	19933.8
46420.4	2.01413	0.643213	2.11434	-17.7109	2.73856	0.246744	-0.0100541	5.33037	0.493306	1	9	0.00505567	0.00239113	0	-9.55916e-06	0.000274153	5.51394e-06	-2.71521	0.002306	0.00230341	0.000109239	-17.6947	2.11657	2.01643	0.643322	0.450544	0.143881	0.472961	17.7109	493.306	1544.72	1621.57	-72.2891	0.0000000E+000	0.0000000E+000	0.0000000E+000	72.2891	0.0000000E+000	0.0000000E+000	0.0000000E+000	-72.2891	0.0000000E+000	0.0000000E+000	0.0000000E+000	-17.7109	0.0000000E+000	0.0000000E+000	0.0000000E+000	17.7109	3.13136	72.2891	3.05385e-06	-2.48079e-06	-2.75637e-09	-2.47804e-06	0.24647	24541.6	27.2677	24514.4
31621.1	2.16369	0.677813	2.26737	-17.3941	3.24552	0.246741	-0.00610605	7.42562	0.663601	1	9	0.00510962	0.00225355	0	-1.33908e-05	0.000235971	7.41394e-06	-75.4369	0.0032899	0.000827234	0.0031842	-17.4646	2.26911	2.16451	0.680997	0.420871	0.131845	0.441039	17.3941	663.601	2118.32	2219.83	-72.6059	0.0000000E+000	0.0000000E+000	0.0000000E+000	72.6059	0.0000000E+000	0.0000000E+000	0.0000000E+000	-72.6059	0.0000000E+000	0.0000000E+000	0.0000000E+000	-17.3941	0.0000000E+000	0.0000000E+000	0.0000000E+000	17.3941	3.19216	72.6059	-3.83162e-06	-1.50662e-06	-1.44085e-09	-1.50517e-06	0.246505	40409.3	38.6455	40370.7
21544.7	2.32703	0.709619	2.43283	-16.9589	3.62856	0.24677	-0.000481931	10.4101	0.885692	1	9	0.00507224	0.00208492	0	-1.4998e-05	0.000255062	9.48887e-06	21.0197	0.0045512	0.00424835	-0.00163246	-16.893	2.43642	2.33128	0.707986	0.39317	0.119895	0.411044	16.9589	885.691	2904.43	3036.47	-73.0412	0.0000000E+000	0.0000000E+000	0.0000000E+000	73.0412	0.0000000E+000	0.0000000E+000	0.0000000E+000	-73.0412	0.0000000E+000	0.0000000E+000	0.0000000E+000	-16.9589	0.0000000E+000	0.0000000E+000	0.0000000E+000	16.9589	3.27927	73.0412	-1.60719e-06	-1.18926e-07	-1.22922e-10	-1.18803e-07	0.246515	512044	529.25	511515
14678.6	2.48943	0.759358	2.60267	-16.9635	3.88752	0.246736	-0.0112088	14.2787	1.21547	1	9	0.00464874	0.00178615	0	-1.54365e-05	0.000388698	1.43701e-05	-168.764	0.00804531	-0.00789111	0.00156762	-17.0474	2.59558	2.48153	0.760926	0.367504	0.112101	0.384222	16.9635	1215.47	3984.72	4165.98	-73.0365	0.0000000E+000	0.0000000E+000	0.0000000E+000	73.0365	0.0000000E+000	0.0000000E+000	0.0000000E+000	-73.0365	0.0000000E+000	0.0000000E+000	0.0000000E+000	-16.9635	0.0000000E+000	0.0000000E+000	0.0000000E+000	16.9635	3.27833	73.0365	-4.38484e-07	-2.7656e-06	-4.35682e-09	-2.76125e-06	0.246347	22012.8	34.6781	21978.1
10002.2	2.65746	0.807237	2.77736	-16.8968	4.27054	0.246737	-0.00532391	19.7116	1.66517	1	9	0.00491914	0.00177116	0	-1.76139e-05	0.000216881	6.20875e-06	13.9331	0.00350548	0.00340234	-0.000844078	-16.8598	2.78037	2.66086	0.806393	0.34451	0.104649	0.360054	16.8968	1665.17	5481.83	5729.16	-73.1032	0.0000000E+000	0.0000000E+000	0.0000000E+000	73.1032	0.0000000E+000	0.0000000E+000	0.0000000E+000	-73.1032	0.0000000E+000	0.0000000E+000	0.0000000E+000	-16.8968	0.0000000E+000	0.0000000E+000	0.0000000E+000	16.8968	3.29205	73.1032	-2.17744e-06	-1.31361e-06	-1.15465e-09	-1.31245e-06	0.246521	46345.2	40.7371	46304.5
6810.42	2.81016	0.89108	2.94805	-17.5934	4.52956	0.246746	-0.0160507	26.2259	2.39603	1	9	0.00472615	0.00160315	0	-1.8088e-05	0.000274153	4.45744e-05	0.53917	0.0278043	0.0278031	-0.000261643	-17.4267	2.97449	2.83796	0.890818	0.323341	0.102529	0.339207	17.5934	2396.03	7556.26	7927.04	-72.4066	0.0000000E+000	0.0000000E+000	0.0000000E+000	72.4066	0.0000000E+000	0.0000000E+000	0.0000000E+000	-72.4066	0.0000000E+000	0.0000000E+000	0.0000000E+000	-17.5934	0.0000000E+000	0.0000000E+000	0.0000000E+000	17.5934	3.15365	72.4066	-4.74126e-07	-3.96045e-06	-4.40036e-09	-3.95604e-06	0.246471	15372.9	17.0804	15355.8
4646	3.031	0.984652	3.18693	-17.9969	4.7966	0.246706	-0.0325879	34.7903	3.32108	1	9	0.00467755	0.00146773	0	-1.91583e-05	0.000140517	1.07784e-05	-119.719	0.00734358	-0.0036405	0.00637769	-18.1263	3.18544	3.02736	0.991029	0.29843	0.096948	0.313782	17.9969	3321.08	10223.1	10749	-72.0031	0.0000000E+000	0.0000000E+000	0.0000000E+000	72.0031	0.0000000E+000	0.0000000E+000	0.0000000E+000	-72.0031	0.0000000E+000	0.0000000E+000	0.0000000E+000	-17.9969	0.0000000E+000	0.0000000E+000	0.0000000E+000	17.9969	3.07824	72.0031	-1.07028e-06	-8.03962e-06	-4.57916e-09	-8.03504e-06	0.246565	7570.47	4.31194	7566.16
3163.08	3.25222	1.10375	3.43441	-18.7463	5.17066	0.246615	-0.0222708	45.5869	4.70842	1	9	0.00461915	0.00134496	0	-2.06752e-05	0.000235971	1.10391e-05	-69.5443	0.00820774	0.00286847	0.00769018	-18.8523	3.43961	3.25509	1.11144	0.275724	0.0935761	0.291171	18.7463	4708.42	13873.5	14650.7	-71.2537	0.0000000E+000	0.0000000E+000	0.0000000E+000	71.2537	0.0000000E+000	0.0000000E+000	0.0000000E+000	-71.2537	0.0000000E+000	0.0000000E+000	0.0000000E+000	-18.7463	0.0000000E+000	0.0000000E+000	0.0000000E+000	18.7463	2.94652	71.2537	-1.51688e-06	-5.49231e-06	-5.25527e-09	-5.48705e-06	0.246379	11073.5	10.5956	11062.9
2155.69	3.48959	1.25763	3.70929	-19.8189	5.86678	0.246684	-0.0213564	58.7058	6.74845	1	10	0.00471204	0.00127033	0	-2.30742e-05	0.000121426	2.59128e-06	102.705	0.00203984	-0.000448639	-0.00198989	-19.7923	3.7082	3.48914	1.25564	0.253625	0.091405	0.269593	19.8189	6748.45	18725.2	19904.1	-70.1811	0.0000000E+000	0.0000000E+000	0.0000000E+000	70.1811	0.0000000E+000	0.0000000E+000	0.0000000E+000	-70.1811	0.0000000E+000	0.0000000E+000	0.0000000E+000	-19.8189	0.0000000E+000	0.0000000E+000	0.0000000E+000	19.8189	2.77474	70.1811	-2.39901e-06	-5.2683e-06	-2.59323e-09	-5.2657e-06	0.246563	11550.8	5.68571	11545.1
1468.59	3.7593	1.44286	4.02668	-20.9973	6.31802	0.246707	-0.0209355	75.1098	9.64381	1	10	0.00466153	0.00115766	0	-2.46026e-05	0.000331426	6.81474e-06	-169.506	0.00588664	-0.00578819	0.00107212	-21.0411	4.02166	3.75351	1.44393	0.231853	0.0889875	0.248344	20.9973	9643.81	25126.5	26913.7	-69.0027	0.0000000E+000	0.0000000E+000	0.0000000E+000	69.0027	0.0000000E+000	0.0000000E+000	0.0000000E+000	-69.0027	0.0000000E+000	0.0000000E+000	0.0000000E+000	-20.9973	0.0000000E+000	0.0000000E+000	0.0000000E+000	20.9973	2.60545	69.0027	-1.52844e-06	-5.16494e-06	-6.93855e-09	-5.158e-06	0.246376	11784.2	15.8308	11768.3
1000.32	4.0775	1.68451	4.41175	-22.4467	6.7688	0.246716	-0.0233271	94.4511	13.77	1	10	0.00462935	0.00104932	0	-2.68476e-05	0.000216881	8.47e-06	-58.7616	0.00807187	0.00418608	0.00690159	-22.5087	4.41826	4.08168	1.69141	0.209494	0.086547	0.226667	22.4467	13770	33331.3	36063.7	-67.5533	0.0000000E+000	0.0000000E+000	0.0000000E+000	67.5533	0.0000000E+000	0.0000000E+000	0.0000000E+000	-67.5533	0.0000000E+000	0.0000000E+000	0.0000000E+000	-22.4467	0.0000000E+000	0.0000000E+000	0.0000000E+000	22.4467	2.42058	67.5533	-2.245e-06	-5.75515e-06	-5.05919e-09	-5.75009e-06	0.246499	10576.4	9.29738	10567.1
681.09	4.45112	1.96802	4.86678	-23.8521	7.21856	0.246702	-0.0213937	118.737	19.4161	1	10	0.00460215	0.000945626	0	-2.89085e-05	0.000140517	7.04484e-06	-27.2583	0.00744992	0.00662262	0.00341208	-23.8573	4.87422	4.45774	1.97143	0.187926	0.0830894	0.205475	23.8521	19416.1	43913.9	48014.7	-66.1479	0.0000000E+000	0.0000000E+000	0.0000000E+000	66.1479	0.0000000E+000	0.0000000E+000	0.0000000E+000	-66.1479	0.0000000E+000	0.0000000E+000	0.0000000E+000	-23.8521	0.0000000E+000	0.0000000E+000	0.0000000E+000	23.8521	2.26173	66.1479	-2.06086e-06	-5.27787e-06	-3.00618e-09	-5.27486e-06	0.246562	11531.6	6.56816	11525
463.961	4.90036	2.33018	5.42616	-25.4317	7.67035	0.246698	-0.0200414	147.214	27.1484	1	10	0.00458304	0.000844619	0	-3.15945e-05	-3.13005e-05	5.79689e-06	19.693	0.00686331	0.00646189	-0.0023128	-25.3804	5.43101	4.90682	2.32787	0.166434	0.0791416	0.184292	25.4317	27148.3	57092.7	63218.8	-64.5683	0.0000000E+000	0.0000000E+000	0.0000000E+000	64.5683	0.0000000E+000	0.0000000E+000	0.0000000E+000	-64.5683	0.0000000E+000	0.0000000E+000	0.0000000E+000	-25.4317	0.0000000E+000	0.0000000E+000	0.0000000E+000	25.4317	2.10299	64.5683	-2.68597e-06	-4.94419e-06	6.27306e-10	-4.94481e-06	0.24673	12309.4	1.56179	12311
316.316	5.46588	2.75212	6.11964	-26.7257	8.11804	0.246701	-0.0206188	182.823	36.9755	1	10	0.00456176	0.000745429	0	-3.37936e-05	0.000178699	6.03768e-06	-134.581	0.00809959	-0.00568527	0.00576898	-26.7979	6.11716	5.4602	2.75789	0.145951	0.0734878	0.163408	26.7257	36975.5	73435.7	82219.1	-63.2743	0.0000000E+000	0.0000000E+000	0.0000000E+000	63.2743	0.0000000E+000	0.0000000E+000	0.0000000E+000	-63.2743	0.0000000E+000	0.0000000E+000	0.0000000E+000	-26.7257	0.0000000E+000	0.0000000E+000	0.0000000E+000	26.7257	1.98606	63.2743	-2.19916e-06	-5.08669e-06	-3.68456e-09	-5.083e-06	0.246522	11964.8	8.66677	11956.2
215.345	6.21876	3.2472	7.0155	-27.5718	8.56758	0.246705	-0.0202314	227.603	48.7616	1	10	0.00455531	0.000649321	0	-3.66785e-05	0.000235971	5.43553e-06	110.861	0.0083711	-0.00298099	-0.00782234	-27.5264	7.00924	6.21577	3.23937	0.126353	0.0659769	0.142542	27.5718	48761.6	93384.1	105348	-62.4282	0.0000000E+000	0.0000000E+000	0.0000000E+000	62.4282	0.0000000E+000	0.0000000E+000	0.0000000E+000	-62.4282	0.0000000E+000	0.0000000E+000	0.0000000E+000	-27.5718	0.0000000E+000	0.0000000E+000	0.0000000E+000	27.5718	1.91512	62.4282	-2.88491e-06	-4.9912e-06	-4.77404e-09	-4.98642e-06	0.246469	12194.2	11.6636	12182.5
146.737	7.1703	3.66908	8.05452	-27.0991	9.01355	0.246706	-0.0215501	295.612	61.3418	1	10	0.00455359	0.000565345	0	-3.96789e-05	0.000255062	4.0519e-06	27.5437	0.00716713	0.00635479	-0.00331426	-27.0575	8.05867	7.17666	3.66577	0.110524	0.0565558	0.124154	27.0991	61341.8	119877	134660	-62.9009	0.0000000E+000	0.0000000E+000	0.0000000E+000	62.9009	0.0000000E+000	0.0000000E+000	0.0000000E+000	-62.9009	0.0000000E+000	0.0000000E+000	0.0000000E+000	-27.0991	0.0000000E+000	0.0000000E+000	0.0000000E+000	27.0991	1.95425	62.9009	-3.00035e-06	-5.31656e-06	-5.49663e-09	-5.31106e-06	0.246451	11448	11.8358	11436.2
100.032	8.30532	3.96648	9.20388	-25.5284	9.46478	0.246696	-0.0206226	401.121	74.4981	1	10	0.00454907	0.000494256	0	-4.17949e-05	0.000235971	6.57961e-06	-2.67103	0.0133122	0.0132977	0.000620364	-25.4962	9.21615	8.31862	3.9671	0.0980426	0.0468235	0.10865	25.5284	74498.1	155990	172866	-64.4716	0.0000000E+000	0.0000000E+000	0.0000000E+000	64.4716	0.0000000E+000	0.0000000E+000	0.0000000E+000	-64.4716	0.0000000E+000	0.0000000E+000	0.0000000E+000	-25.5284	0.0000000E+000	0.0000000E+000	0.0000000E+000	25.5284	2.09387	64.4716	-2.11597e-06	-5.08751e-06	-4.86634e-09	-5.08264e-06	0.24646	11962.4	11.4424	11951
68.104	9.5856	4.04717	10.405	-22.8901	9.92747	0.246705	-0.0173593	577.426	87.361	1	10	0.00455365	0.000437642	0	-4.37503e-05	0.000102335	8.48425e-06	102.711	0.0193863	-0.00426574	-0.0189111	-22.8032	10.3937	9.58134	4.02826	0.0885397	0.0373826	0.0961079	22.8901	87361	206912	224598	-67.1099	0.0000000E+000	0.0000000E+000	0.0000000E+000	67.1099	0.0000000E+000	0.0000000E+000	0.0000000E+000	-67.1099	0.0000000E+000	0.0000000E+000	0.0000000E+000	-22.8901	0.0000000E+000	0.0000000E+000	0.0000000E+000	22.8901	2.36847	67.1099	-1.95549e-06	-4.28262e-06	-1.77647e-09	-4.28085e-06	0.246603	14211.7	5.89514	14205.8
46.4415	10.7684	3.86823	11.4421	-19.7593	10.3637	0.246702	-0.0219935	885.934	101.255	1	10	0.004541	0.000396868	0	-4.65979e-05	0.000216881	1.13114e-05	-39.0458	0.0285016	0.0221356	0.0179543	-19.8064	11.469	10.7905	3.88618	0.0822508	0.0295462	0.0873966	19.7593	101255	281873	299508	-70.2407	0.0000000E+000	0.0000000E+000	0.0000000E+000	70.2407	0.0000000E+000	0.0000000E+000	0.0000000E+000	-70.2407	0.0000000E+000	0.0000000E+000	0.0000000E+000	-19.7593	0.0000000E+000	0.0000000E+000	0.0000000E+000	19.7593	2.7838	70.2407	-2.84757e-06	-5.42583e-06	-4.76995e-09	-5.42106e-06	0.246485	11217.1	9.86114	11207.2
31.6296	11.8739	3.46604	12.3695	-16.2727	10.7935	0.246691	-0.0238523	1451.75	113.988	1	10	0.00454836	0.000367709	0	-4.83656e-05	0.000274153	7.81459e-06	-68.5369	0.0212521	0.00777618	0.0197783	-16.3505	12.3825	11.8817	3.48582	0.0776055	0.0226534	0.0808443	16.2727	113988	390499	406796	-73.7273	0.0000000E+000	0.0000000E+000	0.0000000E+000	73.7273	0.0000000E+000	0.0000000E+000	0.0000000E+000	-73.7273	0.0000000E+000	0.0000000E+000	0.0000000E+000	-16.2727	0.0000000E+000	0.0000000E+000	0.0000000E+000	16.2727	3.42579	73.7273	-1.76767e-06	-5.88416e-06	-6.53919e-09	-5.87763e-06	0.246417	10342.4	11.4938	10330.9
21.5517	12.7206	3.01813	13.0737	-13.3474	11.2145	0.246689	-0.0250444	2446.81	130.4	1	10	0.00454034	0.000347288	0	-5.07909e-05	8.32446e-05	3.07927e-06	-44.1402	0.00886662	0.00636303	0.00617486	-13.3673	13.0813	12.7269	3.0243	0.0744232	0.0176579	0.0764893	13.3474	130400	549600	564857	-76.6526	0.0000000E+000	0.0000000E+000	0.0000000E+000	76.6526	0.0000000E+000	0.0000000E+000	0.0000000E+000	-76.6526	0.0000000E+000	0.0000000E+000	0.0000000E+000	-13.3474	0.0000000E+000	0.0000000E+000	0.0000000E+000	13.3474	4.21473	76.6526	-2.42529e-06	-6.17818e-06	-2.08481e-09	-6.17609e-06	0.246606	9850.06	3.32388	9846.73
14.6852	13.4114	2.61563	13.6641	-11.0358	11.9242	0.246716	-0.00948233	4143.48	151.829	1	11	0.00453907	0.000332189	0	-5.22031e-05	-3.13005e-05	1.15995e-05	-38.3345	0.0349183	0.0273901	0.0216582	-11.1028	13.6952	13.4388	2.63729	0.071831	0.0140092	0.0731843	11.0358	151829	778491	793158	-78.9642	0.0000000E+000	0.0000000E+000	0.0000000E+000	78.9642	0.0000000E+000	0.0000000E+000	0.0000000E+000	-78.9642	0.0000000E+000	0.0000000E+000	0.0000000E+000	-11.0358	0.0000000E+000	0.0000000E+000	0.0000000E+000	11.0358	5.12743	78.9642	-1.41226e-06	-2.33944e-06	2.96801e-10	-2.33974e-06	0.246747	26018.5	3.30092	26021.8
10.0032	13.9557	2.28061	14.1408	-9.28112	12.3748	0.246741	-0.00894767	6976.37	181.461	1	11	0.00454559	0.000321452	0	-5.30699e-05	0.00019779	2.25215e-05	69.707	0.0700617	0.0242989	-0.0657131	-9.00273	14.1544	13.98	2.2149	0.0697915	0.0114052	0.0707172	9.28112	181461	1.11041e+06	1.12514e+06	-80.7189	0.0000000E+000	0.0000000E+000	0.0000000E+000	80.7189	0.0000000E+000	0.0000000E+000	0.0000000E+000	-80.7189	0.0000000E+000	0.0000000E+000	0.0000000E+000	-9.28112	0.0000000E+000	0.0000000E+000	0.0000000E+000	9.28112	6.11928	80.7189	-8.66721e-07	-2.20776e-06	-1.76976e-09	-2.20599e-06	0.246544	27576.1	22.1052	27554
6.81719	14.3682	1.87799	14.4905	-7.4466	12.7145	0.246743	-0.00857668	12431.4	208.807	1	11	0.00453551	0.000313	0	-5.55185e-05	8.32446e-05	1.23677e-05	61.6791	0.0395134	0.0187455	-0.0347838	-7.30076	14.5046	14.387	1.84321	0.0684289	0.00894396	0.069011	7.4466	208807	1.59755e+06	1.61114e+06	-82.5534	0.0000000E+000	0.0000000E+000	0.0000000E+000	82.5534	0.0000000E+000	0.0000000E+000	0.0000000E+000	-82.5534	0.0000000E+000	0.0000000E+000	0.0000000E+000	-7.4466	0.0000000E+000	0.0000000E+000	0.0000000E+000	7.4466	7.65085	82.5534	-2.44867e-06	-2.11624e-06	-7.13962e-10	-2.11552e-06	0.24666	28769.1	9.70593	28759.4
4.63925	14.7427	1.56376	14.8254	-6.05471	13.1984	0.246745	-0.00880188	21938.3	244.077	1	11	0.00454815	0.000306781	0	-5.32866e-05	0.000293244	1.59856e-05	-54.3617	0.0521075	0.0303613	0.0423483	-6.20473	14.8601	14.7731	1.6061	0.0670754	0.00711467	0.0674517	6.05471	244077	2.3011e+06	2.31401e+06	-83.9453	0.0000000E+000	0.0000000E+000	0.0000000E+000	83.9453	0.0000000E+000	0.0000000E+000	0.0000000E+000	-83.9453	0.0000000E+000	0.0000000E+000	0.0000000E+000	-6.05471	0.0000000E+000	0.0000000E+000	0.0000000E+000	6.05471	9.42776	83.9453	2.23195e-06	-2.17182e-06	-2.5811e-09	-2.16924e-06	0.246451	28033.2	33.316	27999.8
3.1604	15.0475	1.38356	15.1109	-5.25338	13.8914	0.246741	-0.00762852	36398.2	305.137	1	11	0.00454975	0.00030109	0	-5.30453e-05	6.41538e-05	8.8078e-06	49.5742	0.0292531	0.0189695	-0.0222688	-5.16282	15.1278	15.0664	1.36129	0.0658993	0.00605922	0.0661773	5.25338	305137	3.31863e+06	3.33263e+06	-84.7466	0.0000000E+000	0.0000000E+000	0.0000000E+000	84.7466	0.0000000E+000	0.0000000E+000	0.0000000E+000	-84.7466	0.0000000E+000	0.0000000E+000	0.0000000E+000	-5.25338	0.0000000E+000	0.0000000E+000	0.0000000E+000	5.25338	10.8759	84.7466	2.4131e-07	-1.88226e-06	-4.89398e-10	-1.88178e-06	0.246676	32344.5	8.40973	32336.1
2.15577	15.2631	1.20019	15.3102	-4.49611	14.8951	0.246751	-0.00639074	61513.3	378.012	1	11	0.00454367	0.000296774	0	-5.84522e-05	0.000178699	4.7628e-06	-18.5622	0.0160486	0.0152137	0.00510882	-4.51069	15.3258	15.2783	1.2053	0.0651149	0.0051202	0.0653159	4.49611	378012	4.80727e+06	4.82211e+06	-85.5039	0.0000000E+000	0.0000000E+000	0.0000000E+000	85.5039	0.0000000E+000	0.0000000E+000	0.0000000E+000	-85.5039	0.0000000E+000	0.0000000E+000	0.0000000E+000	-4.49611	0.0000000E+000	0.0000000E+000	0.0000000E+000	4.49611	12.7173	85.5039	-5.4069e-06	-1.57692e-06	-1.14202e-09	-1.57578e-06	0.246572	38610.7	27.9621	38582.7
1.46631	15.4644	1.06581	15.501	-3.94261	16.3555	0.246751	-0.00602363	101839	481.451	1	11	0.004545	0.000293206	0	-6.77915e-05	-1.22096e-05	2.82047e-06	13.8155	0.0096194	0.00934111	-0.00229707	-3.93178	15.5102	15.4737	1.06351	0.0643591	0.00443566	0.0645118	3.94261	481451	6.98561e+06	7.00218e+06	-86.0574	0.0000000E+000	0.0000000E+000	0.0000000E+000	86.0574	0.0000000E+000	0.0000000E+000	0.0000000E+000	-86.0574	0.0000000E+000	0.0000000E+000	0.0000000E+000	-3.94261	0.0000000E+000	0.0000000E+000	0.0000000E+000	3.94261	14.5095	86.0574	-9.33937e-06	-1.48634e-06	7.35462e-11	-1.48641e-06	0.246763	40963.8	2.02695	40965.8
1.00006	15.6309	1.00119	15.6629	-3.66492	18.4849	0.246747	-0.00643435	158955	649.48	1	11	0.00454443	0.00029014	0	-7.63292e-05	0.000255062	4.01657e-06	-52.2165	0.0138436	0.00848167	0.010941	-3.70286	15.6721	15.6394	1.01214	0.0637145	0.00408106	0.0638451	3.66492	649480	1.01398e+07	1.01606e+07	-86.3351	0.0000000E+000	0.0000000E+000	0.0000000E+000	86.3351	0.0000000E+000	0.0000000E+000	0.0000000E+000	-86.3351	0.0000000E+000	0.0000000E+000	0.0000000E+000	-3.66492	0.0000000E+000	0.0000000E+000	0.0000000E+000	3.66492	15.6122	86.3351	-8.53764e-06	-1.58765e-06	-1.64116e-09	-1.58601e-06	0.246492	38348.4	39.6407	38308.7
0.681362	15.7832	1.02738	15.8166	-3.72431	21.597	0.246752	-0.00698385	227359	959.283	1	11	0.0045479	0.00028754	0	-8.00903e-05	-5.03913e-05	2.30276e-06	48.7079	0.00800848	0.00528478	-0.00601721	-3.70132	15.8215	15.7884	1.02136	0.0630913	0.00410681	0.0632248	3.72431	959282	1.47371e+07	1.47683e+07	-86.2757	0.0000000E+000	0.0000000E+000	0.0000000E+000	86.2757	0.0000000E+000	0.0000000E+000	0.0000000E+000	-86.2757	0.0000000E+000	0.0000000E+000	0.0000000E+000	-3.72431	0.0000000E+000	0.0000000E+000	0.0000000E+000	3.72431	15.3626	86.2757	-3.76112e-06	-1.72328e-06	3.51925e-10	-1.72363e-06	0.246802	35331.8	7.2154	35339
0.464091	15.8988	1.13349	15.9392	-4.07795	26.1537	0.246747	-0.0071426	302551	1530.04	1	11	0.00454656	0.000285244	0	-7.44398e-05	0.000255062	3.27621e-06	-10.2718	0.0114856	0.0113015	0.0020481	-4.0824	15.9506	15.9101	1.13554	0.0625796	0.00446156	0.0627384	4.07795	1.53004e+06	2.1461e+07	2.15155e+07	-85.922	0.0000000E+000	0.0000000E+000	0.0000000E+000	85.922	0.0000000E+000	0.0000000E+000	0.0000000E+000	-85.922	0.0000000E+000	0.0000000E+000	0.0000000E+000	-4.07795	0.0000000E+000	0.0000000E+000	0.0000000E+000	4.07795	14.0264	85.922	5.65053e-06	-1.76242e-06	-1.82181e-09	-1.7606e-06	0.246492	34545.8	35.71	34510.1
0.316193	16.0254	1.31991	16.0797	-4.70845	36.037	0.246752	-0.00536075	381351	2569.55	1	12	0.00454753	0.000282813	0	-6.44265e-05	0.000121426	2.41624e-06	0.864386	0.00854362	0.00854265	-0.000128887	-4.70549	16.0882	16.0339	1.31978	0.0619805	0.00510492	0.0621903	4.70845	2.56955e+06	3.11977e+07	3.13033e+07	-85.2916	0.0000000E+000	0.0000000E+000	0.0000000E+000	85.2916	0.0000000E+000	0.0000000E+000	0.0000000E+000	-85.2916	0.0000000E+000	0.0000000E+000	0.0000000E+000	-4.70845	0.0000000E+000	0.0000000E+000	0.0000000E+000	4.70845	12.1413	85.2916	1.00133e-05	-1.32278e-06	-6.50937e-10	-1.32213e-06	0.246631	46029.4	22.651	46006.7
0.215268	16.216	1.63421	16.2981	-5.75472	45.8304	0.246752	-0.00305756	452410	4548.56	1	12	0.00454591	0.000278922	0	-5.11955e-05	0.000369607	3.50799e-06	17.7302	0.012577	0.0119796	-0.00383013	-5.73711	16.3097	16.228	1.63038	0.0610475	0.00615224	0.0613567	5.75472	4.54856e+06	4.51345e+07	4.53631e+07	-84.2453	0.0000000E+000	0.0000000E+000	0.0000000E+000	84.2453	0.0000000E+000	0.0000000E+000	0.0000000E+000	-84.2453	0.0000000E+000	0.0000000E+000	0.0000000E+000	-5.75472	0.0000000E+000	0.0000000E+000	0.0000000E+000	5.75472	9.92281	84.2453	1.3231e-05	-7.5446e-07	-1.1301e-09	-7.5333e-07	0.246383	80702.4	120.883	80581.6
0.146929	16.4571	2.15912	16.5981	-7.47431	60.1687	0.246751	-0.00115649	501692	8489.26	1	12	0.00455096	0.000274185	0	-5.83058e-05	0.000216881	2.13841e-06	-36.726	0.00779917	0.00625106	0.00466382	-7.48746	16.605	16.4634	2.16378	0.0597358	0.00783712	0.0602477	7.47431	8.48926e+06	6.47065e+07	6.5261e+07	-82.5257	0.0000000E+000	0.0000000E+000	0.0000000E+000	82.5257	0.0000000E+000	0.0000000E+000	0.0000000E+000	-82.5257	0.0000000E+000	0.0000000E+000	0.0000000E+000	-7.47431	0.0000000E+000	0.0000000E+000	0.0000000E+000	7.47431	7.62216	82.5257	-7.11038e-06	-2.85365e-07	-2.5082e-10	-2.85114e-07	0.246534	213363	187.534	213175
0.0999041	16.6971	2.87511	16.9429	-9.77004	81.245	0.246743	-0.000975894	554093	15955.8	1	12	0.00454792	0.000268427	0	-0.000113267	-0.000126755	1.95919e-06	-50.9758	0.00729876	0.00459565	0.00567027	-9.7863	16.9484	16.7017	2.88078	0.0581659	0.0100157	0.0590219	9.77004	1.59558e+07	9.26628e+07	9.40265e+07	-80.23	0.0000000E+000	0.0000000E+000	0.0000000E+000	80.23	0.0000000E+000	0.0000000E+000	0.0000000E+000	-80.23	0.0000000E+000	0.0000000E+000	0.0000000E+000	-9.77004	0.0000000E+000	0.0000000E+000	0.0000000E+000	9.77004	5.80749	80.23	-5.4961e-05	-2.40796e-07	1.23699e-10	-2.40919e-07	0.24687	252838	129.886	252968
0.0680626	17.0396	3.79224	17.4565	-12.547	112.172	0.246747	-0.00154034	616618	29100.1	1	12	0.00454884	0.000260582	0	-0.000223487	0.000102335	2.20887e-06	15.0463	0.00847669	0.00818608	-0.00220055	-12.5341	17.464	17.0477	3.79004	0.0559173	0.0124447	0.0572854	12.547	2.91001e+07	1.30755e+08	1.33954e+08	-77.453	0.0000000E+000	0.0000000E+000	0.0000000E+000	77.453	0.0000000E+000	0.0000000E+000	0.0000000E+000	-77.453	0.0000000E+000	0.0000000E+000	0.0000000E+000	-12.547	0.0000000E+000	0.0000000E+000	0.0000000E+000	12.547	4.49327	77.453	-0.00011022	-3.80073e-07	-1.57631e-10	-3.79916e-07	0.246644	160190	66.437	160123
0.0464052	17.6449	4.94582	18.325	-15.658	157.524	0.246745	-0.00326535	693450	50513.2	1	12	0.00454692	0.000248127	0	-0.000403832	6.88124e-06	2.01369e-06	20.9004	0.00811555	0.00758157	-0.00289517	-15.6429	18.3315	17.6525	4.94293	0.0525452	0.0147283	0.0545703	15.658	5.05132e+07	1.80213e+08	1.87159e+08	-74.342	0.0000000E+000	0.0000000E+000	0.0000000E+000	74.342	0.0000000E+000	0.0000000E+000	0.0000000E+000	-74.342	0.0000000E+000	0.0000000E+000	0.0000000E+000	-15.658	0.0000000E+000	0.0000000E+000	0.0000000E+000	15.658	3.56764	74.342	-0.000180345	-8.05709e-07	-2.24696e-11	-8.05686e-07	0.246738	75564.8	2.10735	75562.7
0.0315922	18.464	6.77607	19.6681	-20.1525	224.129	0.246741	-0.00376661	743468	88245.5	1	12	0.0045482	0.000231247	0	-0.000555865	6.88124e-06	4.00164e-06	-10.6086	0.0173046	0.0170088	0.00318577	-20.1442	19.6852	18.481	6.77926	0.047731	0.0175167	0.0508437	20.1525	8.82455e+07	2.40459e+08	2.5614e+08	-69.8475	0.0000000E+000	0.0000000E+000	0.0000000E+000	69.8475	0.0000000E+000	0.0000000E+000	0.0000000E+000	-69.8475	0.0000000E+000	0.0000000E+000	0.0000000E+000	-20.1525	0.0000000E+000	0.0000000E+000	0.0000000E+000	20.1525	2.72489	69.8475	-0.000152033	-9.29376e-07	-2.5919e-11	-9.2935e-07	0.246734	65507.3	1.8269	65505.5
0.0215268	19.2899	9.22335	21.3816	-25.5545	321.867	0.246739	-0.00372453	801590	149160	1	12	0.00454856	0.000212733	0	-0.000551231	6.41538e-05	1.56314e-06	15.1935	0.00734792	0.00709108	-0.00192573	-25.5417	21.3871	19.297	9.22142	0.0421941	0.0201748	0.0467693	25.5545	1.4916e+08	3.11955e+08	3.45781e+08	-64.4455	0.0000000E+000	0.0000000E+000	0.0000000E+000	64.4455	0.0000000E+000	0.0000000E+000	0.0000000E+000	-64.4455	0.0000000E+000	0.0000000E+000	0.0000000E+000	-25.5545	0.0000000E+000	0.0000000E+000	0.0000000E+000	25.5545	2.09142	64.4455	4.63418e-06	-9.18985e-07	-2.38942e-10	-9.18746e-07	0.246675	66247	17.2247	66229.8
0.0146812	20.4761	12.2108	23.8406	-30.8095	465.17	0.246737	-0.00350097	887801	232900	1	12	0.00454507	0.000190644	0	-0.000330905	4.50629e-05	1.85337e-06	-13.0384	0.00972163	0.009471	0.00219324	-30.8023	23.8498	20.4856	12.213	0.0360258	0.0214837	0.0419453	30.8095	2.329e+08	3.90546e+08	4.54718e+08	-59.1905	0.0000000E+000	0.0000000E+000	0.0000000E+000	59.1905	0.0000000E+000	0.0000000E+000	0.0000000E+000	-59.1905	0.0000000E+000	0.0000000E+000	0.0000000E+000	-30.8095	0.0000000E+000	0.0000000E+000	0.0000000E+000	30.8095	1.67689	59.1905	0.000220326	-8.63819e-07	-1.57764e-10	-8.63661e-07	0.246692	70476.6	12.8715	70463.7
0.0100092	22.5043	16.2477	27.7566	-35.8287	675.352	0.246741	-0.00325006	978653	335337	1	12	0.00454926	0.000163898	0	-4.73077e-05	0.000140517	3.63089e-06	0.476115	0.0221534	0.0221526	-0.000184087	-35.8017	27.7745	22.5264	16.2476	0.02921	0.0210892	0.0360274	35.8287	3.35337e+08	4.64465e+08	5.72869e+08	-54.1713	0.0000000E+000	0.0000000E+000	0.0000000E+000	54.1713	0.0000000E+000	0.0000000E+000	0.0000000E+000	-54.1713	0.0000000E+000	0.0000000E+000	0.0000000E+000	-35.8287	0.0000000E+000	0.0000000E+000	0.0000000E+000	35.8287	1.38507	54.1713	0.000283597	-8.01921e-07	-4.56688e-10	-8.01465e-07	0.2466	75919	43.2353	75875.7