File: txt/18998_R309_UA707_SOC00_C01.mpt
EC-Lab ASCII FILE
Nb header lines : 66

Potentio Electrochemical Impedance Spectroscopy

Run on channel : 1 (SN 66354)
Grouped channel(s) : 1, 2, 3, 4
User :
CE vs. WE compliance from -10 V to 10 V
Electrode connection : standard
Potential control : Ewe
Ewe ctrl range : min = -10.00 V, max = 10.00 V
Safety Limits :
	Do not start on E overload
Acquisition started on : 11/04/2025 15:54:15.751
Loaded Setting File :  C:\Users\Celltest\OneDrive - store-dot.com\Documents\EC-Lab\Data\@Biologic Test Protocols\anode half cell EIS SOC00.mps
Saved on :
	File : 18998_R309_UA707_SOC00_C01.mpr
	Directory : C:\Users\Celltest\OneDrive - store-dot.com\Documents\EC-Lab\Data\Charmaine\
	Host : 169.254.61.224
Device : VMP-3e (SN .003165)
Address : USB
EC-LAB for windows v11.62 (software)
Internet server v27.00 (firmware)
Command interpretor v12.03 (firmware)
Electrode material :
Initial state :
Electrolyte :
Comments :
Electrode surface area : 0.001 cm²
Characteristic mass : 0.001 g
Equivalent Weight : 0.000 g/eq.
Density : 0.000 g/cm3
Volume (V) : 0.001 cm³
Record Ece
Cycle Definition : Charge/Discharge alternance
Mode                Single sine
E (V)               0.0000
vs.                 Eoc
tE (h:m:s)          0:00:0.0000
record              0
dI                  0.000
unit dI             mA
dt (s)              0.000
fi                  100.000
unit fi             kHz
ff                  10.000
unit ff             mHz
Nd                  6
Points              per decade
spacing             Logarithmic
Va (mV)             5.0
pw                  0.10
Na                  2
corr                0
E range min (V)     -10.000
E range max (V)     10.000
I Range             Auto
Bandwidth           5
nc cycles           0
goto Ns'            0
nr cycles           0
inc. cycle          0

freq/Hz	Re(Z)/Ohm	-Im(Z)/Ohm	|Z|/Ohm	Phase(Z)/deg	time/s	<Ewe>/V	<I>/mA	Cs/µF	Cp/µF	cycle number	I Range	|Ewe|/V	|I|/A	Ns	(Q-Qo)/mA.h	<Ece>/V	|Ece|/V	Phase(Zce)/deg	|Zce|/Ohm	Re(Zce)/Ohm	-Im(Zce)/Ohm	Phase(Zwe-ce)/deg	|Zwe-ce|/Ohm	Re(Zwe-ce)/Ohm	-Im(Zwe-ce)/Ohm	Re(Y)/Ohm-1	Im(Y)/Ohm-1	|Y|/Ohm-1	Phase(Y)/deg	Re(C)/nF	Im(C)/nF	|C|/nF	Phase(C)/deg	Re(M)	Im(M)	|M|	Phase(M)/deg	Re(Permittivity)	Im(Permittivity)	|Permittivity|	Phase(Permittivity)/deg	Re(Resistivity)/Ohm.cm	Im(Resistivity)/Ohm.cm	|Resistivity|/Ohm.cm	Phase(Resistivity)/deg	Re(Conductivity)/mS/cm	Im(Conductivity)/mS/cm	|Conductivity|/mS/cm	Phase(Conductivity)/deg	Tan(Delta)	Loss Angle(Delta)/deg	dq/mA.h	Pwe/W	Pce/W	Pwe-ce/W	<Ewe-Ece>/V	Rwe/Ohm	Rce/Ohm	Rwe-ce/Ohm		Ewe-Ece/V
100004	1.9049	0.589962	1.99417	-17.2081	1.72556	0.245538	0.0670905	2.69762	0.236104	1	9	0.00466451	0.00233908	0	5.95011e-06	0.000183002	3.53427e-05	85.0141	0.0151097	0.00131319	-0.0150525	-16.7832	1.99103	1.90622	0.574909	0.479015	0.148354	0.501462	17.2081	236.104	762.347	798.072	-72.7919	0.0000000E+000	0.0000000E+000	0.0000000E+000	72.7919	0.0000000E+000	0.0000000E+000	0.0000000E+000	-72.7919	0.0000000E+000	0.0000000E+000	0.0000000E+000	-17.2081	0.0000000E+000	0.0000000E+000	0.0000000E+000	17.2081	3.22886	72.7919	5.95011e-06	1.64733e-05	1.22777e-08	1.6461e-05	0.245355	3659.81	2.72768	3657.08
68132	2.07315	0.648656	2.17226	-17.3741	2.23252	0.24555	0.0576279	3.60126	0.321114	1	9	0.00505411	0.00232666	0	1.36898e-05	0.000679012	2.88911e-05	54.7123	0.0124174	0.00717331	-0.0101358	-17.063	2.17611	2.08032	0.63852	0.439347	0.137465	0.46035	17.3741	321.114	1026.3	1075.37	-72.6259	0.0000000E+000	0.0000000E+000	0.0000000E+000	72.6259	0.0000000E+000	0.0000000E+000	0.0000000E+000	-72.6259	0.0000000E+000	0.0000000E+000	0.0000000E+000	-17.3741	0.0000000E+000	0.0000000E+000	0.0000000E+000	17.3741	3.19607	72.6259	7.73967e-06	1.41505e-05	3.913e-08	1.41114e-05	0.244871	4260.96	11.7827	4249.18
46420.4	2.24192	0.694709	2.34709	-17.2167	2.73952	0.245533	0.0637748	4.93525	0.432369	1	9	0.0050214	0.00213942	0	2.2355e-05	0.000106692	1.6937e-05	57.9068	0.00791665	0.0042061	-0.00670687	-17.0301	2.34914	2.24613	0.688002	0.406968	0.126108	0.426059	17.2167	432.369	1395.31	1460.77	-72.7833	0.0000000E+000	0.0000000E+000	0.0000000E+000	72.7833	0.0000000E+000	0.0000000E+000	0.0000000E+000	-72.7833	0.0000000E+000	0.0000000E+000	0.0000000E+000	-17.2167	0.0000000E+000	0.0000000E+000	0.0000000E+000	17.2167	3.22714	72.7833	8.66519e-06	1.56588e-05	6.8043e-09	1.5652e-05	0.245426	3850	1.67296	3848.32
31621.1	2.41575	0.76383	2.53363	-17.5463	3.12254	0.245523	0.0504751	6.5894	0.598898	1	9	0.00545578	0.00215334	0	3.43203e-05	8.76152e-05	8.0185e-06	-35.7864	0.00372374	0.00302071	0.00217751	-17.5726	2.53717	2.41877	0.766008	0.376327	0.11899	0.39469	17.5463	598.898	1894.12	1986.55	-72.4537	0.0000000E+000	0.0000000E+000	0.0000000E+000	72.4537	0.0000000E+000	0.0000000E+000	0.0000000E+000	-72.4537	0.0000000E+000	0.0000000E+000	0.0000000E+000	-17.5463	0.0000000E+000	0.0000000E+000	0.0000000E+000	17.5463	3.16268	72.4537	1.19653e-05	1.23928e-05	4.42238e-09	1.23884e-05	0.245436	4864.25	1.73581	4862.52
21544.7	2.59269	0.823793	2.72042	-17.627	3.50556	0.245515	0.0557279	8.9673	0.822294	1	9	0.00508583	0.0018695	0	4.39844e-05	0.000106692	1.15897e-05	6.54872	0.00619932	0.00615887	-0.000707021	-17.5736	2.72608	2.59885	0.823086	0.350331	0.111313	0.367591	17.627	822.293	2587.97	2715.47	-72.373	0.0000000E+000	0.0000000E+000	0.0000000E+000	72.373	0.0000000E+000	0.0000000E+000	0.0000000E+000	-72.373	0.0000000E+000	0.0000000E+000	0.0000000E+000	-17.627	0.0000000E+000	0.0000000E+000	0.0000000E+000	17.627	3.14726	72.373	9.66419e-06	1.3682e-05	5.94575e-09	1.36761e-05	0.245408	4405.6	1.91453	4403.68
14678.6	2.76399	0.868085	2.8971	-17.4359	3.76457	0.245532	0.0628435	12.4903	1.12143	1	9	0.00472291	0.00163022	0	4.85448e-05	1.1306e-05	4.29219e-06	-96.6632	0.00263289	-0.000305504	0.0026151	-17.4871	2.89759	2.76368	0.8707	0.329313	0.103427	0.345173	17.4359	1121.43	3570.63	3742.59	-72.5641	0.0000000E+000	0.0000000E+000	0.0000000E+000	72.5641	0.0000000E+000	0.0000000E+000	0.0000000E+000	-72.5641	0.0000000E+000	0.0000000E+000	0.0000000E+000	-17.4359	0.0000000E+000	0.0000000E+000	0.0000000E+000	17.4359	3.18401	72.5641	4.56039e-06	1.54301e-05	7.10505e-10	1.54294e-05	0.24552	3907.04	0.179907	3906.86
10002.2	2.98564	0.958581	3.13575	-17.7999	4.02352	0.245535	0.0606455	16.5995	1.5512	1	9	0.00450673	0.00143721	0	5.17361e-05	0.000163924	1.30641e-05	-95.9992	0.00908993	-0.000950024	0.00904015	-17.9624	3.13762	2.98469	0.967621	0.303637	0.0974867	0.318903	17.7999	1551.2	4831.46	5074.37	-72.2001	0.0000000E+000	0.0000000E+000	0.0000000E+000	72.2001	0.0000000E+000	0.0000000E+000	0.0000000E+000	-72.2001	0.0000000E+000	0.0000000E+000	0.0000000E+000	-17.7999	0.0000000E+000	0.0000000E+000	0.0000000E+000	17.7999	3.11465	72.2001	3.19123e-06	1.48906e-05	9.94127e-09	1.48806e-05	0.245371	4048.7	2.703	4045.99
6810.42	3.19757	1.06845	3.37136	-18.4767	4.40852	0.245533	0.0518534	21.8722	2.1968	1	9	0.0049069	0.00145547	0	5.59649e-05	-0.000351163	5.73189e-05	87.4543	0.0393817	0.00174919	-0.0393429	-17.8311	3.36076	3.19932	1.0291	0.281327	0.0940034	0.296616	18.4767	2196.8	6574.41	6931.72	-71.5233	0.0000000E+000	0.0000000E+000	0.0000000E+000	71.5233	0.0000000E+000	0.0000000E+000	0.0000000E+000	-71.5233	0.0000000E+000	0.0000000E+000	0.0000000E+000	-18.4767	0.0000000E+000	0.0000000E+000	0.0000000E+000	18.4767	2.99273	71.5233	4.22884e-06	1.27318e-05	-1.8209e-08	1.275e-05	0.245885	4735.14	6.77222	4741.92
4646	3.42843	1.18972	3.62899	-19.1376	4.67364	0.245482	0.03494	28.7935	3.09467	1	9	0.00481502	0.00132682	0	5.89885e-05	0.000240234	1.88597e-05	-7.05925	0.0142142	0.0141065	0.00174686	-19.0909	3.64289	3.44254	1.19147	0.26033	0.0903387	0.275559	19.1376	3094.67	8917.93	9439.63	-70.8624	0.0000000E+000	0.0000000E+000	0.0000000E+000	70.8624	0.0000000E+000	0.0000000E+000	0.0000000E+000	-70.8624	0.0000000E+000	0.0000000E+000	0.0000000E+000	-19.1376	0.0000000E+000	0.0000000E+000	0.0000000E+000	19.1376	2.8817	70.8624	3.02355e-06	8.57712e-06	8.39375e-09	8.56873e-06	0.245242	7025.82	6.87561	7018.94
3163.08	3.71757	1.34508	3.95342	-19.8909	5.25668	0.245483	-0.0200141	37.4079	4.33023	1	10	0.00488126	0.00123469	0	6.04694e-05	0.000183002	8.40433e-06	41.7782	0.00680681	0.00507604	-0.00453503	-19.8042	3.95666	3.72264	1.34054	0.237855	0.0860599	0.252945	19.8909	4330.23	11968	12727.3	-70.1091	0.0000000E+000	0.0000000E+000	0.0000000E+000	70.1091	0.0000000E+000	0.0000000E+000	0.0000000E+000	-70.1091	0.0000000E+000	0.0000000E+000	0.0000000E+000	-19.8909	0.0000000E+000	0.0000000E+000	0.0000000E+000	19.8909	2.76383	70.1091	1.48099e-06	-4.91312e-06	-3.66261e-09	-4.90945e-06	0.2453	12265.5	9.14364	12256.3
2155.69	4.03728	1.52911	4.31715	-20.7441	5.70778	0.245453	-0.0163654	48.2831	6.05729	1	10	0.00485014	0.00112346	0	5.80385e-05	0.000469161	6.91303e-06	-41.0694	0.00615335	0.0046391	0.00404258	-20.7724	4.32292	4.04192	1.53315	0.216618	0.0820435	0.231634	20.7441	6057.29	15992.9	17101.6	-69.2559	0.0000000E+000	0.0000000E+000	0.0000000E+000	69.2559	0.0000000E+000	0.0000000E+000	0.0000000E+000	-69.2559	0.0000000E+000	0.0000000E+000	0.0000000E+000	-20.7441	0.0000000E+000	0.0000000E+000	0.0000000E+000	20.7441	2.64028	69.2559	-2.4309e-06	-4.01694e-06	-7.67802e-09	-4.00926e-06	0.244984	14998.3	28.6678	14969.6
1468.59	4.37552	1.73778	4.70798	-21.661	6.15911	0.245485	-0.0139541	62.3626	8.49662	1	10	0.00479482	0.00101845	0	5.73245e-05	6.85379e-05	8.21714e-06	-64.0602	0.00806831	0.00352929	0.00725546	-21.7271	4.71394	4.37905	1.74504	0.197406	0.0784019	0.212405	21.661	8496.62	21393.4	23018.9	-68.339	0.0000000E+000	0.0000000E+000	0.0000000E+000	68.339	0.0000000E+000	0.0000000E+000	0.0000000E+000	-68.339	0.0000000E+000	0.0000000E+000	0.0000000E+000	-21.661	0.0000000E+000	0.0000000E+000	0.0000000E+000	21.661	2.51788	68.339	-7.14059e-07	-3.42553e-06	-9.56384e-10	-3.42457e-06	0.245417	17592.3	4.91167	17587.4
1000.32	4.77321	1.98455	5.16933	-22.5759	6.60982	0.245508	-0.0161157	80.1714	11.8161	1	10	0.00476548	0.000921876	0	5.55975e-05	0.00033562	4.39223e-06	0.952063	0.00476445	0.00476379	-7.91655e-05	-22.5549	5.1737	4.77798	1.98447	0.178625	0.0742664	0.193449	22.5759	11816.1	28419.9	30778.4	-67.424	0.0000000E+000	0.0000000E+000	0.0000000E+000	67.424	0.0000000E+000	0.0000000E+000	0.0000000E+000	-67.424	0.0000000E+000	0.0000000E+000	0.0000000E+000	-22.5759	0.0000000E+000	0.0000000E+000	0.0000000E+000	22.5759	2.40519	67.424	-1.72704e-06	-3.95653e-06	-5.40876e-09	-3.95113e-06	0.245172	15234.1	20.8256	15213.2
681.09	5.21219	2.30449	5.69891	-23.8519	7.06052	0.245481	-0.0135367	101.401	16.5809	1	10	0.00473441	0.000830756	0	5.45573e-05	-0.00016039	8.41199e-06	142.005	0.0101257	-0.0079797	-0.00623333	-23.827	5.6891	5.20421	2.29826	0.160486	0.0709563	0.175472	23.8519	16580.9	37501.8	41003.8	-66.1481	0.0000000E+000	0.0000000E+000	0.0000000E+000	66.1481	0.0000000E+000	0.0000000E+000	0.0000000E+000	-66.1481	0.0000000E+000	0.0000000E+000	0.0000000E+000	-23.8519	0.0000000E+000	0.0000000E+000	0.0000000E+000	23.8519	2.26175	66.1481	-1.04012e-06	-3.323e-06	2.17115e-09	-3.32517e-06	0.245642	18134.5	11.8485	18146.4
463.961	5.7468	2.689	6.3448	-25.0755	7.51235	0.245482	-0.0132944	127.57	22.9136	1	10	0.00471975	0.000743877	0	5.25976e-05	0.000259311	5.88736e-06	-26.9218	0.00791443	0.00705671	0.00358344	-25.0778	6.35271	5.75386	2.69259	0.142755	0.0667967	0.157609	25.0755	22913.6	48969.9	54065.6	-64.9245	0.0000000E+000	0.0000000E+000	0.0000000E+000	64.9245	0.0000000E+000	0.0000000E+000	0.0000000E+000	-64.9245	0.0000000E+000	0.0000000E+000	0.0000000E+000	-25.0755	0.0000000E+000	0.0000000E+000	0.0000000E+000	25.0755	2.13715	64.9245	-1.95978e-06	-3.26355e-06	-3.44739e-09	-3.2601e-06	0.245223	18465	19.5052	18445.5
316.316	6.42003	3.12783	7.14144	-25.9753	7.96004	0.245475	-0.014856	160.863	30.8582	1	10	0.00470934	0.000659439	0	5.1358e-05	-4.5926e-05	1.09681e-05	18.9803	0.0166325	0.0157282	-0.00540961	-25.8811	7.15322	6.43576	3.12242	0.125883	0.0613299	0.140028	25.9753	30858.2	63338.1	70455.3	-64.0247	0.0000000E+000	0.0000000E+000	0.0000000E+000	64.0247	0.0000000E+000	0.0000000E+000	0.0000000E+000	-64.0247	0.0000000E+000	0.0000000E+000	0.0000000E+000	-25.9753	0.0000000E+000	0.0000000E+000	0.0000000E+000	25.9753	2.05255	64.0247	-1.23951e-06	-3.64678e-06	6.82278e-10	-3.64746e-06	0.245521	16523.6	3.0914	16526.7
215.345	7.28232	3.61104	8.12845	-26.3752	8.40952	0.245483	-0.0114981	204.67	40.3927	1	10	0.00470478	0.000578804	0	5.03551e-05	-0.000236699	7.47557e-06	-120.482	0.0129156	-0.00655174	0.0111304	-26.466	8.12754	7.27576	3.62217	0.110218	0.0546533	0.123025	26.3752	40392.7	81459.2	90924	-63.6248	0.0000000E+000	0.0000000E+000	0.0000000E+000	63.6248	0.0000000E+000	0.0000000E+000	0.0000000E+000	-63.6248	0.0000000E+000	0.0000000E+000	0.0000000E+000	-26.3752	0.0000000E+000	0.0000000E+000	0.0000000E+000	26.3752	2.01668	63.6248	-1.00295e-06	-2.82258e-06	2.72158e-09	-2.8253e-06	0.24572	21350	20.586	21370.5
146.737	8.37335	4.02734	9.29152	-25.6862	8.85548	0.245481	-0.0133243	269.315	50.5969	1	10	0.00470692	0.000506583	0	4.84364e-05	0.000278388	1.22452e-05	-39.4427	0.0241721	0.0186671	0.0153567	-25.7216	9.315	8.39201	4.0427	0.0969896	0.0466493	0.107625	25.6862	50596.9	105197	116733	-64.3138	0.0000000E+000	0.0000000E+000	0.0000000E+000	64.3138	0.0000000E+000	0.0000000E+000	0.0000000E+000	-64.3138	0.0000000E+000	0.0000000E+000	0.0000000E+000	-25.6862	0.0000000E+000	0.0000000E+000	0.0000000E+000	25.6862	2.07913	64.3138	-1.91866e-06	-3.27085e-06	-3.70932e-09	-3.26714e-06	0.245202	18423.6	20.8933	18402.7
100.032	9.58743	4.30406	10.5092	-24.1766	9.30676	0.245475	-0.0132721	369.66	62.0038	1	10	0.00468469	0.00044577	0	4.69199e-05	6.85379e-05	8.05233e-06	25.3263	0.0180639	0.0163277	-0.00772723	-24.1018	10.521	9.60376	4.29633	0.0868083	0.0389706	0.0951545	24.1766	62003.8	138115	151395	-65.8234	0.0000000E+000	0.0000000E+000	0.0000000E+000	65.8234	0.0000000E+000	0.0000000E+000	0.0000000E+000	-65.8234	0.0000000E+000	0.0000000E+000	0.0000000E+000	-24.1766	0.0000000E+000	0.0000000E+000	0.0000000E+000	24.1766	2.22753	65.8234	-1.51651e-06	-3.25797e-06	-9.0964e-10	-3.25706e-06	0.245407	18495.6	5.16406	18490.4
68.104	10.9815	4.3312	11.8048	-21.5246	9.76946	0.24548	-0.0105141	539.56	72.6335	1	10	0.00469239	0.000397498	0	4.5843e-05	0.000240234	1.22656e-05	24.671	0.030857	0.0280404	-0.0128799	-21.4167	11.8262	11.0096	4.31832	0.0788034	0.0310806	0.0847112	21.5246	72633.5	184159	197965	-68.4754	0.0000000E+000	0.0000000E+000	0.0000000E+000	68.4754	0.0000000E+000	0.0000000E+000	0.0000000E+000	-68.4754	0.0000000E+000	0.0000000E+000	0.0000000E+000	-21.5246	0.0000000E+000	0.0000000E+000	0.0000000E+000	21.5246	2.53545	68.4754	-1.07691e-06	-2.58102e-06	-2.52585e-09	-2.57849e-06	0.24524	23347.6	22.8486	23324.8
46.4415	12.2396	4.09962	12.908	-18.5181	10.2057	0.245477	-0.0150647	835.931	84.322	1	10	0.00468764	0.000363159	0	4.39112e-05	0.000278388	4.25887e-06	6.63378	0.0117273	0.0116488	-0.00135477	-18.496	12.9186	12.2513	4.09826	0.0734603	0.0246052	0.0774715	18.5181	84322	251748	265494	-71.4819	0.0000000E+000	0.0000000E+000	0.0000000E+000	71.4819	0.0000000E+000	0.0000000E+000	0.0000000E+000	-71.4819	0.0000000E+000	0.0000000E+000	0.0000000E+000	-18.5181	0.0000000E+000	0.0000000E+000	0.0000000E+000	18.5181	2.98556	71.4819	-1.93186e-06	-3.69806e-06	-4.19385e-09	-3.69386e-06	0.245199	16294.8	18.4795	16276.4
31.6296	13.4054	3.66625	13.8977	-15.2958	10.6355	0.245468	-0.0184712	1372.48	95.5132	1	10	0.004697	0.00033797	0	4.27229e-05	0.000450084	1.0508e-05	-15.2586	0.0310916	0.0299956	0.00818259	-15.2957	13.9288	13.4354	3.67443	0.0694055	0.0189817	0.0719543	15.2958	95513.1	349237	362063	-74.7042	0.0000000E+000	0.0000000E+000	0.0000000E+000	74.7042	0.0000000E+000	0.0000000E+000	0.0000000E+000	-74.7042	0.0000000E+000	0.0000000E+000	0.0000000E+000	-15.2958	0.0000000E+000	0.0000000E+000	0.0000000E+000	15.2958	3.65643	74.7042	-1.18821e-06	-4.53408e-06	-8.31358e-09	-4.52577e-06	0.245018	13289.3	24.3668	13264.9
21.5517	14.2737	3.16853	14.6211	-12.5158	11.0565	0.24546	-0.0174574	2330.67	109.455	1	10	0.00469478	0.000321096	0	4.10047e-05	0.00012577	1.74734e-05	-74.294	0.0544181	0.014731	0.0523863	-12.7034	14.6469	14.2884	3.22091	0.0667689	0.0148216	0.0683942	12.5158	109455	493074	505077	-77.4842	0.0000000E+000	0.0000000E+000	0.0000000E+000	77.4842	0.0000000E+000	0.0000000E+000	0.0000000E+000	-77.4842	0.0000000E+000	0.0000000E+000	0.0000000E+000	-12.5158	0.0000000E+000	0.0000000E+000	0.0000000E+000	12.5158	4.50483	77.4842	-1.71824e-06	-4.2851e-06	-2.19562e-09	-4.28291e-06	0.245334	14060.5	7.20437	14053.3
14.6852	15.0309	2.68969	15.2697	-10.1453	11.7662	0.245535	-0.00802135	4029.39	125.021	1	11	0.00469567	0.000307516	0	3.92003e-05	-0.000351163	7.04047e-06	-9.62473	0.0228947	0.0225724	0.00382786	-10.1445	15.2926	15.0535	2.69352	0.0644652	0.0115356	0.0654892	10.1453	125021	698662	709759	-79.8547	0.0000000E+000	0.0000000E+000	0.0000000E+000	79.8547	0.0000000E+000	0.0000000E+000	0.0000000E+000	-79.8547	0.0000000E+000	0.0000000E+000	0.0000000E+000	-10.1453	0.0000000E+000	0.0000000E+000	0.0000000E+000	10.1453	5.58836	79.8547	-1.80442e-06	-1.96952e-06	2.8168e-09	-1.97234e-06	0.245886	30610.2	43.7785	30654
10.0032	15.5804	2.2763	15.7458	-8.3121	12.2178	0.245522	-0.00830623	6989.6	146.076	1	11	0.0047018	0.000298607	0	3.90638e-05	0.000373775	1.95607e-05	158.35	0.0655067	-0.0608855	-0.0241678	-8.25688	15.6821	15.5195	2.25213	0.0628418	0.00918118	0.0635089	8.3121	146076	999838	1.01045e+06	-81.6879	0.0000000E+000	0.0000000E+000	0.0000000E+000	81.6879	0.0000000E+000	0.0000000E+000	0.0000000E+000	-81.6879	0.0000000E+000	0.0000000E+000	0.0000000E+000	-8.3121	0.0000000E+000	0.0000000E+000	0.0000000E+000	8.3121	6.84463	81.6879	-1.36524e-07	-2.03936e-06	-3.10466e-09	-2.03625e-06	0.245148	29558.7	44.9993	29513.7
6.81719	15.9479	1.89952	16.0607	-6.79236	12.5575	0.245543	-0.00716671	12290.5	171.922	1	11	0.00468361	0.00029162	0	3.63305e-05	0.000259311	1.71393e-05	-31.0318	0.0587726	0.0503612	0.0302981	-6.87815	16.1143	15.9983	1.92982	0.0618269	0.00736405	0.0622639	6.79236	171922	1.44342e+06	1.45362e+06	-83.2076	0.0000000E+000	0.0000000E+000	0.0000000E+000	83.2076	0.0000000E+000	0.0000000E+000	0.0000000E+000	-83.2076	0.0000000E+000	0.0000000E+000	0.0000000E+000	-6.79236	0.0000000E+000	0.0000000E+000	0.0000000E+000	6.79236	8.39578	83.2076	-2.73331e-06	-1.75974e-06	-1.85841e-09	-1.75788e-06	0.245284	34261.6	36.1827	34225.4
4.63925	16.2974	1.59114	16.3749	-5.57619	13.0414	0.245533	-0.00787723	21560.8	203.574	1	11	0.00468412	0.000286055	0	3.80557e-05	3.03833e-05	1.09945e-05	-97.2455	0.0384349	-0.00484745	0.038128	-5.71062	16.3738	16.2926	1.62927	0.0607801	0.00593403	0.061069	5.57619	203574	2.08513e+06	2.09504e+06	-84.4238	0.0000000E+000	0.0000000E+000	0.0000000E+000	84.4238	0.0000000E+000	0.0000000E+000	0.0000000E+000	-84.4238	0.0000000E+000	0.0000000E+000	0.0000000E+000	-5.57619	0.0000000E+000	0.0000000E+000	0.0000000E+000	5.57619	10.2426	84.4238	1.7252e-06	-1.93412e-06	-2.39336e-10	-1.93388e-06	0.245502	31169.9	3.8571	31166.1
3.1604	16.5738	1.37587	16.6308	-4.74553	13.7345	0.245541	-0.00638562	36601.7	250.514	1	11	0.00468616	0.000281777	0	3.93226e-05	-2.68487e-05	6.43741e-06	8.29824	0.0228458	0.0226066	-0.00329724	-4.72779	16.653	16.5964	1.37257	0.0599234	0.00497454	0.0601295	4.74553	250514	3.01769e+06	3.02807e+06	-85.2545	0.0000000E+000	0.0000000E+000	0.0000000E+000	85.2545	0.0000000E+000	0.0000000E+000	0.0000000E+000	-85.2545	0.0000000E+000	0.0000000E+000	0.0000000E+000	-4.74553	0.0000000E+000	0.0000000E+000	0.0000000E+000	4.74553	12.046	85.2545	1.26698e-06	-1.56793e-06	1.71445e-10	-1.5681e-06	0.245567	38452.1	4.20455	38456.3
2.15577	16.8263	1.21573	16.8702	-4.13255	14.7381	0.245541	-0.00517805	60726.7	315.368	1	11	0.00468791	0.000277881	0	3.55923e-05	0.000202079	6.96414e-06	-43.7923	0.0250616	0.0180908	0.0173438	-4.18681	16.8895	16.8444	1.23308	0.0591221	0.00427168	0.0592762	4.13255	315368	4.36484e+06	4.37621e+06	-85.8674	0.0000000E+000	0.0000000E+000	0.0000000E+000	85.8674	0.0000000E+000	0.0000000E+000	0.0000000E+000	-85.8674	0.0000000E+000	0.0000000E+000	0.0000000E+000	-4.13255	0.0000000E+000	0.0000000E+000	0.0000000E+000	4.13255	13.8405	85.8674	-3.73033e-06	-1.27142e-06	-1.04637e-09	-1.27037e-06	0.245339	47419.5	39.0261	47380.5
1.46631	17.0042	1.10335	17.0399	-3.71256	16.1996	0.245539	-0.00438643	98373.9	412.452	1	11	0.00468794	0.000275115	0	2.72563e-05	-0.000103158	3.02417e-06	30.4081	0.0109924	0.00948032	-0.00556387	-3.69184	17.049	17.0137	1.09779	0.0585625	0.00379996	0.0586857	3.71256	412451	6.35644e+06	6.36981e+06	-86.2874	0.0000000E+000	0.0000000E+000	0.0000000E+000	86.2874	0.0000000E+000	0.0000000E+000	0.0000000E+000	-86.2874	0.0000000E+000	0.0000000E+000	0.0000000E+000	-3.71256	0.0000000E+000	0.0000000E+000	0.0000000E+000	3.71256	15.4114	86.2874	-8.33598e-06	-1.07704e-06	4.52495e-10	-1.07749e-06	0.245642	55977	23.5175	56000.5
1.00006	17.1839	1.0465	17.2158	-3.485	19.3746	0.245535	-0.00567379	152073	561.924	1	12	0.0046896	0.000272401	0	1.61264e-05	0.000240234	3.11312e-06	1.1034	0.0114284	0.0114263	-0.000220075	-3.48196	17.2272	17.1954	1.04628	0.0579788	0.0035309	0.0580862	3.485	561924	9.22702e+06	9.24412e+06	-86.515	0.0000000E+000	0.0000000E+000	0.0000000E+000	86.515	0.0000000E+000	0.0000000E+000	0.0000000E+000	-86.515	0.0000000E+000	0.0000000E+000	0.0000000E+000	-3.485	0.0000000E+000	0.0000000E+000	0.0000000E+000	3.485	16.4204	86.515	-1.11299e-05	-1.39312e-06	-1.36304e-09	-1.39175e-06	0.245295	43275.3	42.3409	43233
0.681362	17.3471	1.08082	17.3807	-3.56523	22.4865	0.245537	-0.00645128	216117	835.717	1	12	0.0046905	0.000269868	0	1.28387e-05	-2.68487e-05	2.18303e-06	79.7032	0.00808922	0.00144593	-0.00795895	-3.53875	17.3817	17.3485	1.07286	0.0574237	0.00357781	0.057535	3.56523	835717	1.34132e+07	1.34392e+07	-86.4348	0.0000000E+000	0.0000000E+000	0.0000000E+000	86.4348	0.0000000E+000	0.0000000E+000	0.0000000E+000	-86.4348	0.0000000E+000	0.0000000E+000	0.0000000E+000	-3.56523	0.0000000E+000	0.0000000E+000	0.0000000E+000	3.56523	16.05	86.4348	-3.28774e-06	-1.58403e-06	1.73208e-10	-1.5842e-06	0.245564	38060.2	4.16176	38064.4
0.464091	17.4764	1.2035	17.5178	-3.93943	27.042	0.245536	-0.00662478	284951	1344.95	1	12	0.00469047	0.000267755	0	1.83401e-05	0.000450084	1.9357e-06	0.241073	0.00722937	0.0072293	-3.04176e-05	-3.9377	17.525	17.4836	1.20347	0.0569499	0.00392183	0.0570848	3.93943	1.34495e+06	1.95304e+07	1.95766e+07	-86.0606	0.0000000E+000	0.0000000E+000	0.0000000E+000	86.0606	0.0000000E+000	0.0000000E+000	0.0000000E+000	-86.0606	0.0000000E+000	0.0000000E+000	0.0000000E+000	-3.93943	0.0000000E+000	0.0000000E+000	0.0000000E+000	3.93943	14.5213	86.0606	5.50144e-06	-1.62662e-06	-2.98171e-09	-1.62364e-06	0.245086	37063.3	67.9395	36995.4
0.316193	17.609	1.39885	17.6644	-4.54203	33.718	0.245542	-0.00513695	359829	2256.53	1	12	0.00468927	0.000265464	0	3.21631e-05	0.000221156	3.48609e-06	-10.0658	0.0131321	0.0129299	0.0022952	-4.54613	17.6775	17.6219	1.40115	0.0564331	0.00448304	0.0566109	4.54203	2.25653e+06	2.84055e+07	2.8495e+07	-85.458	0.0000000E+000	0.0000000E+000	0.0000000E+000	85.458	0.0000000E+000	0.0000000E+000	0.0000000E+000	-85.458	0.0000000E+000	0.0000000E+000	0.0000000E+000	-4.54203	0.0000000E+000	0.0000000E+000	0.0000000E+000	4.54203	12.5881	85.458	1.3823e-05	-1.26134e-06	-1.13607e-09	-1.2602e-06	0.245321	47799.2	43.0521	47756.2
0.215268	17.8118	1.72828	17.8954	-5.54207	43.5114	0.24554	-0.00320354	427786	3989.98	1	12	0.00468799	0.000261966	0	4.5943e-05	6.85379e-05	2.22449e-06	19.2739	0.00849151	0.00801557	-0.00280291	-5.53067	17.9031	17.8198	1.72548	0.055619	0.00539672	0.0558802	5.54207	3.98998e+06	4.1121e+07	4.13142e+07	-84.4579	0.0000000E+000	0.0000000E+000	0.0000000E+000	84.4579	0.0000000E+000	0.0000000E+000	0.0000000E+000	-84.4579	0.0000000E+000	0.0000000E+000	0.0000000E+000	-5.54207	0.0000000E+000	0.0000000E+000	0.0000000E+000	5.54207	10.3061	84.4579	1.37799e-05	-7.86596e-07	-2.19564e-10	-7.86376e-07	0.245471	76646.5	21.3944	76625.1
0.146929	18.0857	2.25955	18.2263	-7.12137	57.8498	0.24554	-0.00139667	479393	7367.77	1	12	0.00468864	0.000257246	0	4.22295e-05	-7.77136e-06	2.09138e-06	8.78697	0.00812989	0.00803447	-0.00124193	-7.11437	18.2342	18.0938	2.2583	0.0544424	0.00680178	0.0548657	7.12137	7.36777e+06	5.89727e+07	5.94311e+07	-82.8786	0.0000000E+000	0.0000000E+000	0.0000000E+000	82.8786	0.0000000E+000	0.0000000E+000	0.0000000E+000	-82.8786	0.0000000E+000	0.0000000E+000	0.0000000E+000	-7.12137	0.0000000E+000	0.0000000E+000	0.0000000E+000	7.12137	8.00414	82.8786	-3.7135e-06	-3.42938e-07	1.0854e-11	-3.42949e-07	0.245548	175804	5.56421	175810
0.0999041	18.3589	3.01287	18.6045	-9.31969	78.926	0.24553	-0.00105464	528758	13867	1	12	0.00468882	0.000252026	0	-4.71344e-06	0.000183002	2.94724e-06	20.1829	0.0116942	0.0109761	-0.00403471	-9.30197	18.6147	18.3699	3.00883	0.0530409	0.00870451	0.0537504	9.31969	1.3867e+07	8.44983e+07	8.56286e+07	-80.6803	0.0000000E+000	0.0000000E+000	0.0000000E+000	80.6803	0.0000000E+000	0.0000000E+000	0.0000000E+000	-80.6803	0.0000000E+000	0.0000000E+000	0.0000000E+000	-9.31969	0.0000000E+000	0.0000000E+000	0.0000000E+000	9.31969	6.0935	80.6803	-4.69429e-05	-2.58945e-07	-1.93e-10	-2.58752e-07	0.245347	232810	173.521	232637
0.0680626	18.7295	3.96211	19.144	-11.9445	109.853	0.245539	-0.00119434	590181	25279.8	1	12	0.00469272	0.000245128	0	-0.000104055	0.000144847	2.33223e-06	18.9237	0.00951434	0.0090001	-0.00308559	-11.9299	19.1521	18.7385	3.95902	0.0511048	0.0108109	0.0522358	11.9445	2.52798e+07	1.19501e+08	1.22146e+08	-78.0555	0.0000000E+000	0.0000000E+000	0.0000000E+000	78.0555	0.0000000E+000	0.0000000E+000	0.0000000E+000	-78.0555	0.0000000E+000	0.0000000E+000	0.0000000E+000	-11.9445	0.0000000E+000	0.0000000E+000	0.0000000E+000	11.9445	4.72715	78.0555	-9.93419e-05	-2.93256e-07	-1.72996e-10	-2.93083e-07	0.245394	205585	121.278	205464
0.0464052	19.358	5.13428	20.0273	-14.8544	155.205	0.24554	-0.00276754	667996	43902.2	1	12	0.00469021	0.00023419	0	-0.00027521	-0.000122235	2.16483e-06	3.52269	0.00924388	0.00922641	-0.000567979	-14.8461	20.0361	19.3673	5.13371	0.048263	0.0128007	0.0499317	14.8544	4.39022e+07	1.65527e+08	1.7125e+08	-75.1456	0.0000000E+000	0.0000000E+000	0.0000000E+000	75.1456	0.0000000E+000	0.0000000E+000	0.0000000E+000	-75.1456	0.0000000E+000	0.0000000E+000	0.0000000E+000	-14.8544	0.0000000E+000	0.0000000E+000	0.0000000E+000	14.8544	3.77035	75.1456	-0.000171155	-6.79542e-07	3.38291e-10	-6.79881e-07	0.245662	88721.2	44.1674	88765.3
0.0315922	20.2537	6.96623	21.4183	-18.9805	221.809	0.245536	-0.00356511	723173	76501.3	1	12	0.00469091	0.000219014	0	-0.00043572	0.00033562	2.43726e-06	-3.54894	0.0111283	0.011107	0.000688856	-18.9726	21.429	20.2648	6.96692	0.0441506	0.0151855	0.0466891	18.9805	7.65013e+07	2.22421e+08	2.3521e+08	-71.0195	0.0000000E+000	0.0000000E+000	0.0000000E+000	71.0195	0.0000000E+000	0.0000000E+000	0.0000000E+000	-71.0195	0.0000000E+000	0.0000000E+000	0.0000000E+000	-18.9805	0.0000000E+000	0.0000000E+000	0.0000000E+000	18.9805	2.90742	71.0195	-0.000160509	-8.75363e-07	-1.19652e-09	-8.74166e-07	0.2452	68871.9	94.1402	68777.7
0.0215268	21.1951	9.48966	23.2225	-24.1194	319.548	0.245534	-0.003608	779095	130099	1	12	0.00469111	0.000202007	0	-0.000461655	0.000221156	3.11794e-06	-10.7216	0.0154348	0.0151653	0.00287143	-24.1106	23.2375	21.2103	9.49253	0.0393022	0.0175967	0.0430616	24.1194	1.30099e+08	2.90574e+08	3.1837e+08	-65.8806	0.0000000E+000	0.0000000E+000	0.0000000E+000	65.8806	0.0000000E+000	0.0000000E+000	0.0000000E+000	-65.8806	0.0000000E+000	0.0000000E+000	0.0000000E+000	-24.1194	0.0000000E+000	0.0000000E+000	0.0000000E+000	24.1194	2.2335	65.8806	-2.5935e-05	-8.85887e-07	-7.97933e-10	-8.85089e-07	0.245313	68052.6	61.2961	67991.3
0.0146812	22.4651	12.555	25.7353	-29.1993	462.85	0.245533	-0.00340459	863464	205501	1	12	0.0046876	0.000182146	0	-0.000275237	0.000259311	3.30873e-06	19.6262	0.0181652	0.0171099	-0.00610139	-29.1689	25.7473	22.4822	12.5488	0.0339194	0.0189564	0.0388571	29.1993	2.05501e+08	3.67712e+08	4.2124e+08	-60.8007	0.0000000E+000	0.0000000E+000	0.0000000E+000	60.8007	0.0000000E+000	0.0000000E+000	0.0000000E+000	-60.8007	0.0000000E+000	0.0000000E+000	0.0000000E+000	-29.1993	0.0000000E+000	0.0000000E+000	0.0000000E+000	29.1993	1.78934	60.8007	0.000186418	-8.35939e-07	-8.82846e-10	-8.35056e-07	0.245274	72118.4	76.1652	72042.2

0.0100092	24.6399	16.5694	29.6929	-33.9194	673.032	0.245534	-0.00313647	959656	298830	1	12	0.00469056	0.000157969	0	1.29852e-05	0.000278388	3.16609e-06	11.7904	0.0200425	0.0196196	-0.00409531	-33.8917	29.7069	24.6595	16.5653	0.0279469	0.0187932	0.0336781	33.9194	2.9883e+08	4.44381e+08	5.35513e+08	-56.0806	0.0000000E+000	0.0000000E+000	0.0000000E+000	56.0806	0.0000000E+000	0.0000000E+000	0.0000000E+000	-56.0806	0.0000000E+000	0.0000000E+000	0.0000000E+000	-33.9194	0.0000000E+000	0.0000000E+000	0.0000000E+000	33.9194	1.48707	56.0806	0.000288222	-7.7011e-07	-8.73155e-10	-7.69237e-07	0.245256	78283.8	88.7586	78195