File: txt/19009_R308_UA709_SOC00_C08.mpt
EC-Lab ASCII FILE
Nb header lines : 65

Potentio Electrochemical Impedance Spectroscopy

Run on channel : 8 (SN 65398)
Grouped channel(s) : 7, 8
User :
CE vs. WE compliance from -10 V to 10 V
Electrode connection : standard
Potential control : Ewe
Ewe ctrl range : min = -10.00 V, max = 10.00 V
Safety Limits :
	Do not start on E overload
Acquisition started on : 11/04/2025 16:09:03.172
Loaded Setting File :  C:\Users\Celltest\OneDrive - store-dot.com\Documents\EC-Lab\Data\@Biologic Test Protocols\anode half cell EIS SOC00.mps
Saved on :
	File : 19008_R308_UA709_SOC00_C08.mpr
	Directory : C:\Users\Celltest\OneDrive - store-dot.com\Documents\EC-Lab\Data\Charmaine\
	Host : 169.254.61.224
Device : VMP-3e (SN .003165)
Address : USB
EC-LAB for windows v11.62 (software)
Internet server v27.00 (firmware)
Command interpretor v12.03 (firmware)
Electrode material :
Initial state :
Electrolyte :
Comments :
Electrode surface area : 0.001 cm²
Characteristic mass : 0.001 g
Equivalent Weight : 0.000 g/eq.
Density : 0.000 g/cm3
Volume (V) : 0.001 cm³
Record Ece
Cycle Definition : Charge/Discharge alternance
Mode                Single sine
E (V)               0.0000
vs.                 Eoc
tE (h:m:s)          0:00:0.0000
record              0
dI                  0.000
unit dI             mA
dt (s)              0.000
fi                  100.000
unit fi             kHz
ff                  10.000
unit ff             mHz
Nd                  6
Points              per decade
spacing             Logarithmic
Va (mV)             5.0
pw                  0.10
Na                  2
corr                0
E range min (V)     -10.000
E range max (V)     10.000
I Range             Auto
Bandwidth           5
nc cycles           0
goto Ns'            0
nr cycles           0
inc. cycle          0

freq/Hz	Re(Z)/Ohm	-Im(Z)/Ohm	|Z|/Ohm	Phase(Z)/deg	time/s	<Ewe>/V	<I>/mA	Cs/µF	Cp/µF	cycle number	I Range	|Ewe|/V	|I|/A	Ns	(Q-Qo)/mA.h	<Ece>/V	|Ece|/V	Phase(Zce)/deg	|Zce|/Ohm	Re(Zce)/Ohm	-Im(Zce)/Ohm	Phase(Zwe-ce)/deg	|Zwe-ce|/Ohm	Re(Zwe-ce)/Ohm	-Im(Zwe-ce)/Ohm	Re(Y)/Ohm-1	Im(Y)/Ohm-1	|Y|/Ohm-1	Phase(Y)/deg	Re(C)/nF	Im(C)/nF	|C|/nF	Phase(C)/deg	Re(M)	Im(M)	|M|	Phase(M)/deg	Re(Permittivity)	Im(Permittivity)	|Permittivity|	Phase(Permittivity)/deg	Re(Resistivity)/Ohm.cm	Im(Resistivity)/Ohm.cm	|Resistivity|/Ohm.cm	Phase(Resistivity)/deg	Re(Conductivity)/mS/cm	Im(Conductivity)/mS/cm	|Conductivity|/mS/cm	Phase(Conductivity)/deg	Tan(Delta)	Loss Angle(Delta)/deg	dq/mA.h	Pwe/W	Pce/W	Pwe-ce/W	<Ewe-Ece>/V	Rwe/Ohm	Rce/Ohm	Rwe-ce/Ohm		Ewe-Ece/V
100004	2.17156	0.867015	2.33824	-21.7648	1.86952	0.242273	0.0292061	1.8356	0.252378	1	9	0.00492496	0.00210626	0	-1.79695e-06	-0.000373782	4.89115e-05	53.7746	0.023222	0.0137233	-0.0187331	-21.2152	2.34415	2.18528	0.848282	0.397184	0.15858	0.427671	21.7648	252.378	632.115	680.635	-68.2352	0.0000000E+000	0.0000000E+000	0.0000000E+000	68.2352	0.0000000E+000	0.0000000E+000	0.0000000E+000	-68.2352	0.0000000E+000	0.0000000E+000	0.0000000E+000	-21.7648	0.0000000E+000	0.0000000E+000	0.0000000E+000	21.7648	2.50464	68.2352	-1.79695e-06	7.07585e-06	-1.09167e-08	7.08676e-06	0.242646	8295.26	12.7981	8308.06
68132	2.42218	0.981699	2.61356	-22.0625	2.25256	0.242231	0.0196824	2.37952	0.335725	1	9	0.0053389	0.00204277	0	-1.84428e-06	0.000217948	2.68916e-05	49.4804	0.0131643	0.00855292	-0.0100073	-21.7892	2.61775	2.43073	0.971692	0.354603	0.143719	0.382621	22.0625	335.725	828.345	893.793	-67.9375	0.0000000E+000	0.0000000E+000	0.0000000E+000	67.9375	0.0000000E+000	0.0000000E+000	0.0000000E+000	-67.9375	0.0000000E+000	0.0000000E+000	0.0000000E+000	-22.0625	0.0000000E+000	0.0000000E+000	0.0000000E+000	22.0625	2.46733	67.9375	-4.73296e-08	4.76768e-06	4.28973e-09	4.76339e-06	0.242013	12307	11.0733	12295.9
46420.4	2.67789	1.05136	2.87689	-21.4353	2.63555	0.242216	0.0144369	3.26107	0.43553	1	9	0.00537729	0.00186913	0	4.51087e-06	-8.74609e-05	1.70899e-05	4.14081	0.00914321	0.00911934	-0.000660212	-21.357	2.88514	2.68701	1.0507	0.323555	0.12703	0.347598	21.4353	435.53	1109.33	1191.76	-68.5647	0.0000000E+000	0.0000000E+000	0.0000000E+000	68.5647	0.0000000E+000	0.0000000E+000	0.0000000E+000	-68.5647	0.0000000E+000	0.0000000E+000	0.0000000E+000	-21.4353	0.0000000E+000	0.0000000E+000	0.0000000E+000	21.4353	2.54707	68.5647	6.35515e-06	3.49683e-06	-1.26266e-09	3.49809e-06	0.242303	16777.6	6.05817	16783.6
31621.1	2.97053	1.10591	3.16971	-20.42	3.02055	0.242213	0.0106422	4.55117	0.554017	1	9	0.0053637	0.00169217	0	4.36949e-06	0.000313388	1.87387e-05	37.3051	0.0110738	0.00880829	-0.00671136	-20.2511	3.17564	2.97934	1.0992	0.295661	0.110073	0.315486	20.42	554.017	1488.12	1587.9	-69.58	0.0000000E+000	0.0000000E+000	0.0000000E+000	69.58	0.0000000E+000	0.0000000E+000	0.0000000E+000	-69.58	0.0000000E+000	0.0000000E+000	0.0000000E+000	-20.42	0.0000000E+000	0.0000000E+000	0.0000000E+000	20.42	2.68605	69.58	-1.41381e-07	2.57768e-06	3.33515e-09	2.57435e-06	0.2419	22759.6	29.4476	22730.2
21544.7	3.27187	1.15233	3.46886	-19.402	3.40352	0.242226	0.0263788	6.41065	0.707432	1	9	0.00538379	0.00155203	0	1.02016e-05	0.000351564	6.52752e-06	76.6358	0.00420579	0.000972126	-0.00409189	-19.3329	3.46842	3.27284	1.14824	0.271908	0.0957645	0.288279	19.402	707.432	2008.64	2129.58	-70.598	0.0000000E+000	0.0000000E+000	0.0000000E+000	70.598	0.0000000E+000	0.0000000E+000	0.0000000E+000	-70.598	0.0000000E+000	0.0000000E+000	0.0000000E+000	-19.402	0.0000000E+000	0.0000000E+000	0.0000000E+000	19.402	2.83934	70.598	5.83214e-06	6.38963e-06	9.27383e-09	6.38035e-06	0.241875	9182.62	13.3276	9169.29
14678.6	3.5468	1.16268	3.73251	-18.1498	3.78656	0.242241	0.00223451	9.32553	0.904891	1	9	0.00536688	0.00143788	0	1.50049e-05	0.000122508	9.05814e-06	89.5292	0.00629967	5.17648e-05	-0.00629945	-18.0576	3.7306	3.54685	1.15639	0.254586	0.0834566	0.267917	18.1498	904.891	2760.39	2904.93	-71.8502	0.0000000E+000	0.0000000E+000	0.0000000E+000	71.8502	0.0000000E+000	0.0000000E+000	0.0000000E+000	-71.8502	0.0000000E+000	0.0000000E+000	0.0000000E+000	-18.1498	0.0000000E+000	0.0000000E+000	0.0000000E+000	18.1498	3.05052	71.8502	4.80325e-06	5.41292e-07	2.73745e-10	5.41018e-07	0.242119	108409	54.8252	108354
10002.2	3.7989	1.2178	3.98932	-17.7741	4.16952	0.242231	0.0105678	13.0661	1.21759	1	9	0.00523847	0.00131312	0	1.58407e-05	0.000217948	3.66519e-06	-39.1492	0.00279119	0.00216458	0.0017622	-17.7887	3.99192	3.80106	1.21956	0.238704	0.0765206	0.250669	17.7741	1217.59	3798.25	3988.64	-72.2259	0.0000000E+000	0.0000000E+000	0.0000000E+000	72.2259	0.0000000E+000	0.0000000E+000	0.0000000E+000	-72.2259	0.0000000E+000	0.0000000E+000	0.0000000E+000	-17.7741	0.0000000E+000	0.0000000E+000	0.0000000E+000	17.7741	3.11947	72.2259	8.35842e-07	2.55985e-06	2.30323e-09	2.55754e-06	0.242013	22921.6	20.6238	22900.9
6810.42	4.12841	1.1949	4.29785	-16.1423	4.83154	0.242225	-0.0135702	19.5575	1.51173	1	10	0.00510173	0.00118704	0	1.68946e-05	7.97936e-06	0.000100337	-79.8109	0.0845269	0.0149527	0.0831938	-17.1434	4.33601	4.14336	1.2781	0.223501	0.0646888	0.232674	16.1423	1511.73	5223.07	5437.44	-73.8577	0.0000000E+000	0.0000000E+000	0.0000000E+000	73.8577	0.0000000E+000	0.0000000E+000	0.0000000E+000	-73.8577	0.0000000E+000	0.0000000E+000	0.0000000E+000	-16.1423	0.0000000E+000	0.0000000E+000	0.0000000E+000	16.1423	3.45502	73.8577	1.05386e-06	-3.28703e-06	-1.08281e-10	-3.28692e-06	0.242217	17849.8	0.588008	17849.2
4646	4.37881	1.32088	4.5737	-16.7861	5.22362	0.242229	-0.0134846	25.9345	2.16306	1	10	0.0052065	0.00113836	0	1.66077e-05	0.0002943	7.83598e-06	30.9528	0.00688359	0.00590331	-0.00354045	-16.7223	4.57833	4.38471	1.31734	0.209325	0.0631434	0.218641	16.7861	2163.06	7170.71	7489.85	-73.2139	0.0000000E+000	0.0000000E+000	0.0000000E+000	73.2139	0.0000000E+000	0.0000000E+000	0.0000000E+000	-73.2139	0.0000000E+000	0.0000000E+000	0.0000000E+000	-16.7861	0.0000000E+000	0.0000000E+000	0.0000000E+000	16.7861	3.31507	73.2139	-2.8686e-07	-3.26637e-06	-3.96852e-09	-3.2624e-06	0.241935	17963.4	21.8249	17941.6
3163.08	4.6607	1.4333	4.87611	-17.0941	5.77462	0.242201	-0.0152702	35.1054	3.03318	1	10	0.00509685	0.00104527	0	1.39124e-05	-0.000316518	9.09273e-06	-65.8598	0.00869894	0.00355761	0.00793819	-17.1709	4.88185	4.66426	1.44124	0.196021	0.0602821	0.205081	17.0941	3033.18	9863.11	10319	-72.9059	0.0000000E+000	0.0000000E+000	0.0000000E+000	72.9059	0.0000000E+000	0.0000000E+000	0.0000000E+000	-72.9059	0.0000000E+000	0.0000000E+000	0.0000000E+000	-17.0941	0.0000000E+000	0.0000000E+000	0.0000000E+000	17.0941	3.25174	72.9059	-2.69534e-06	-3.69845e-06	4.83328e-09	-3.70328e-06	0.242517	15861	20.7278	15881.7
2155.69	4.96038	1.55189	5.19747	-17.3727	6.22583	0.242214	-0.0111001	47.5743	4.24141	1	10	0.00529579	0.00101892	0	1.32149e-05	7.97936e-06	6.60946e-06	43.1289	0.00648675	0.00473415	-0.00443461	-17.3105	5.20067	4.96511	1.54746	0.183624	0.0574482	0.192401	17.3727	4241.41	13557	14205	-72.6273	0.0000000E+000	0.0000000E+000	0.0000000E+000	72.6273	0.0000000E+000	0.0000000E+000	0.0000000E+000	-72.6273	0.0000000E+000	0.0000000E+000	0.0000000E+000	-17.3727	0.0000000E+000	0.0000000E+000	0.0000000E+000	17.3727	3.19635	72.6273	-6.97484e-07	-2.6886e-06	-8.85719e-11	-2.68851e-06	0.242206	21820.8	0.718854	21820.1
1468.59	5.29346	1.74583	5.57392	-18.253	6.67707	0.242215	-0.0114721	62.0753	6.08974	1	10	0.00532933	0.000956118	0	1.1164e-05	0.00010342	9.57529e-06	-4.2306	0.0100147	0.00998746	0.000738797	-18.2281	5.58364	5.30345	1.74657	0.17038	0.0561926	0.179407	18.253	6089.74	18464.5	19442.8	-71.747	0.0000000E+000	0.0000000E+000	0.0000000E+000	71.747	0.0000000E+000	0.0000000E+000	0.0000000E+000	-71.747	0.0000000E+000	0.0000000E+000	0.0000000E+000	-18.253	0.0000000E+000	0.0000000E+000	0.0000000E+000	18.253	3.03207	71.747	-2.05087e-06	-2.77872e-06	-1.18644e-09	-2.77753e-06	0.242112	21113.4	9.01488	21104.4
1000.32	5.65949	2.00852	6.00533	-19.5395	7.12777	0.242219	-0.0105719	79.2145	8.86102	1	10	0.00530166	0.000882826	0	9.2042e-06	-8.74609e-05	9.04246e-06	38.7374	0.0102426	0.00798948	-0.00640935	-19.4564	6.01072	5.66748	2.00211	0.156929	0.0556932	0.166519	19.5395	8861.02	24968	26493.8	-70.4605	0.0000000E+000	0.0000000E+000	0.0000000E+000	70.4605	0.0000000E+000	0.0000000E+000	0.0000000E+000	-70.4605	0.0000000E+000	0.0000000E+000	0.0000000E+000	-19.5395	0.0000000E+000	0.0000000E+000	0.0000000E+000	19.5395	2.81774	70.4605	-1.95982e-06	-2.56071e-06	9.24626e-10	-2.56164e-06	0.242307	22911.6	8.27298	22919.9
681.09	6.08305	2.34295	6.51866	-21.0647	7.57857	0.242221	-0.0110852	99.736	12.8844	1	10	0.00525396	0.000805988	0	7.82525e-06	-1.11087e-05	9.97712e-06	-43.7604	0.0123788	0.0089404	0.00856169	-21.1066	6.53009	6.09199	2.35152	0.143154	0.0551375	0.153406	21.0647	12884.4	33451.9	35847.4	-68.9353	0.0000000E+000	0.0000000E+000	0.0000000E+000	68.9353	0.0000000E+000	0.0000000E+000	0.0000000E+000	-68.9353	0.0000000E+000	0.0000000E+000	0.0000000E+000	-21.0647	0.0000000E+000	0.0000000E+000	0.0000000E+000	21.0647	2.59632	68.9353	-1.37895e-06	-2.68507e-06	1.23143e-10	-2.6852e-06	0.242232	21850.7	1.00212	21851.7
463.961	6.60965	2.77192	7.16736	-22.752	8.03035	0.242216	-0.01142	123.754	18.5098	1	10	0.00521036	0.000726956	0	6.40356e-06	-0.000125637	1.15186e-05	-26.2184	0.015845	0.0142148	0.00700023	-22.7596	7.18318	6.62387	2.77892	0.128665	0.0539588	0.139521	22.752	18509.8	44136.6	47860.8	-67.248	0.0000000E+000	0.0000000E+000	0.0000000E+000	67.248	0.0000000E+000	0.0000000E+000	0.0000000E+000	-67.248	0.0000000E+000	0.0000000E+000	0.0000000E+000	-22.752	0.0000000E+000	0.0000000E+000	0.0000000E+000	22.752	2.3845	67.248	-1.4217e-06	-2.76611e-06	1.43478e-09	-2.76755e-06	0.242341	21209.7	11.0015	21220.7
316.316	7.29765	3.27379	7.99834	-24.1614	8.478	0.242213	-0.0104529	153.691	25.7484	1	10	0.0051793	0.000647547	0	4.93121e-06	0.00010342	7.89234e-06	56.0302	0.0121881	0.00681015	-0.0101079	-24.0754	8.00042	7.30446	3.26368	0.114073	0.0511742	0.125026	24.1614	25748.4	57396.1	62907.1	-65.8386	0.0000000E+000	0.0000000E+000	0.0000000E+000	65.8386	0.0000000E+000	0.0000000E+000	0.0000000E+000	-65.8386	0.0000000E+000	0.0000000E+000	0.0000000E+000	-24.1614	0.0000000E+000	0.0000000E+000	0.0000000E+000	24.1614	2.22911	65.8386	-1.47235e-06	-2.53182e-06	-1.08103e-09	-2.53074e-06	0.24211	23172	9.89392	23162.1
215.345	8.20191	3.82131	9.04841	-24.981	8.92756	0.242217	-0.0100623	193.408	34.4948	1	10	0.00515277	0.000569467	0	3.09868e-06	0.000160684	3.86525e-06	22.0319	0.00678749	0.00629183	-0.00254615	-24.9496	9.05304	8.2082	3.81876	0.100178	0.0466732	0.110517	24.981	34494.8	74038.3	81679.7	-65.019	0.0000000E+000	0.0000000E+000	0.0000000E+000	65.019	0.0000000E+000	0.0000000E+000	0.0000000E+000	-65.019	0.0000000E+000	0.0000000E+000	0.0000000E+000	-24.981	0.0000000E+000	0.0000000E+000	0.0000000E+000	24.981	2.14636	65.019	-1.83253e-06	-2.43724e-06	-1.61684e-09	-2.43563e-06	0.242056	24071.8	15.969	24055.8
146.737	9.35599	4.31578	10.3034	-24.7632	9.37347	0.242217	-0.0103822	251.316	44.0937	1	10	0.00514059	0.000498921	0	1.18984e-06	-0.000201989	3.97191e-06	5.27255	0.00796101	0.00792733	-0.000731565	-24.7411	10.3103	9.36391	4.31505	0.0881306	0.0406534	0.0970552	24.7632	44093.7	95588.6	105268	-65.2368	0.0000000E+000	0.0000000E+000	0.0000000E+000	65.2368	0.0000000E+000	0.0000000E+000	0.0000000E+000	-65.2368	0.0000000E+000	0.0000000E+000	0.0000000E+000	-24.7632	0.0000000E+000	0.0000000E+000	0.0000000E+000	24.7632	2.16785	65.2368	-1.90884e-06	-2.51474e-06	2.09709e-09	-2.51684e-06	0.242419	23330.1	19.4554	23349.5
100.032	10.7471	4.60927	11.6938	-23.2138	9.82485	0.242204	-0.0107467	345.182	53.6293	1	10	0.00513124	0.0004388	0	4.24395e-07	0.00019886	7.92747e-06	-15.0332	0.0180663	0.017448	0.00468599	-23.2013	11.7117	10.7645	4.61396	0.0785921	0.0337071	0.0855154	23.2138	53629.3	125043	136058	-66.7862	0.0000000E+000	0.0000000E+000	0.0000000E+000	66.7862	0.0000000E+000	0.0000000E+000	0.0000000E+000	-66.7862	0.0000000E+000	0.0000000E+000	0.0000000E+000	-23.2138	0.0000000E+000	0.0000000E+000	0.0000000E+000	23.2138	2.33162	66.7862	-7.65449e-07	-2.6029e-06	-2.13709e-09	-2.60076e-06	0.242005	22537.4	18.5042	22518.9
68.104	12.2259	4.61739	13.0688	-20.6901	10.2875	0.242217	-0.00937407	506.117	63.179	1	10	0.00512793	0.000392379	0	-4.3246e-07	0.000370652	8.65326e-06	90.8451	0.0220533	-0.000325284	-0.0220509	-20.6002	13.0607	12.2256	4.59534	0.0715831	0.0270349	0.0765181	20.6901	63179	167285	178818	-69.3099	0.0000000E+000	0.0000000E+000	0.0000000E+000	69.3099	0.0000000E+000	0.0000000E+000	0.0000000E+000	-69.3099	0.0000000E+000	0.0000000E+000	0.0000000E+000	-20.6901	0.0000000E+000	0.0000000E+000	0.0000000E+000	20.6901	2.6478	69.3099	-8.56855e-07	-2.27056e-06	-3.47452e-09	-2.26708e-06	0.241846	25839	39.5402	25799.5
46.4415	13.6225	4.29585	14.2838	-17.5027	10.7247	0.242203	-0.0107207	797.745	72.1567	1	10	0.00512132	0.000358541	0	-1.96208e-06	0.000122508	1.02829e-05	86.5776	0.0286798	0.00171206	-0.0286287	-17.391	14.2768	13.6242	4.26722	0.0667683	0.0210554	0.0700095	17.5027	72156.7	228815	239922	-72.4973	0.0000000E+000	0.0000000E+000	0.0000000E+000	72.4973	0.0000000E+000	0.0000000E+000	0.0000000E+000	-72.4973	0.0000000E+000	0.0000000E+000	0.0000000E+000	-17.5027	0.0000000E+000	0.0000000E+000	0.0000000E+000	17.5027	3.17108	72.4973	-1.52962e-06	-2.59658e-06	-1.31337e-09	-2.59527e-06	0.24208	22592.1	11.4272	22580.6
31.6296	14.8345	3.75539	15.3025	-14.2061	11.1546	0.242198	-0.0111634	1339.9	80.6971	1	10	0.0051242	0.000334861	0	-3.13986e-06	0.000256124	6.00528e-06	40.8351	0.0179337	0.0135685	-0.0117266	-14.1511	15.3128	14.8481	3.74366	0.0633504	0.0160373	0.0653489	14.2061	80697.1	318769	328825	-75.7939	0.0000000E+000	0.0000000E+000	0.0000000E+000	75.7939	0.0000000E+000	0.0000000E+000	0.0000000E+000	-75.7939	0.0000000E+000	0.0000000E+000	0.0000000E+000	-14.2061	0.0000000E+000	0.0000000E+000	0.0000000E+000	14.2061	3.9502	75.7939	-1.17779e-06	-2.70374e-06	-2.85921e-09	-2.70088e-06	0.241941	21695.7	22.9433	21672.8
21.5517	15.7126	3.15524	16.0262	-11.3545	11.8074	0.242214	-0.00994948	2340.49	90.7207	1	11	0.00511607	0.000319231	0	-4.2785e-06	0.000275212	1.61616e-05	-58.5624	0.0506267	0.0264054	0.0431952	-11.4871	16.0607	15.739	3.19843	0.0611764	0.0122848	0.0623976	11.3545	90720.7	451775	460794	-78.6455	0.0000000E+000	0.0000000E+000	0.0000000E+000	78.6455	0.0000000E+000	0.0000000E+000	0.0000000E+000	-78.6455	0.0000000E+000	0.0000000E+000	0.0000000E+000	-11.3545	0.0000000E+000	0.0000000E+000	0.0000000E+000	11.3545	4.97984	78.6455	-1.13863e-06	-2.4099e-06	-2.73822e-09	-2.40717e-06	0.241939	24344.4	27.661	24316.8
14.6852	16.385	2.55693	16.5833	-8.86965	12.2672	0.242234	-0.00889084	4238.61	100.767	1	11	0.00512114	0.000308813	0	-3.90388e-06	0.000427917	1.53496e-05	17.1241	0.0497052	0.0475018	-0.0146353	-8.79459	16.628	16.4325	2.54229	0.0595806	0.00929774	0.0603017	8.86965	100767	645723	653538	-81.1303	0.0000000E+000	0.0000000E+000	0.0000000E+000	81.1303	0.0000000E+000	0.0000000E+000	0.0000000E+000	-81.1303	0.0000000E+000	0.0000000E+000	0.0000000E+000	-8.86965	0.0000000E+000	0.0000000E+000	0.0000000E+000	8.86965	6.40807	81.1303	3.74616e-07	-2.15366e-06	-3.80454e-09	-2.14986e-06	0.241806	27245.3	48.1301	27197.2
10.0032	16.8303	2.03807	16.9532	-6.90464	12.7178	0.242225	-0.00912386	7806.61	112.823	1	11	0.00510896	0.000301356	0	-5.63467e-06	0.0002943	1.71649e-05	-10.5654	0.0569587	0.055993	0.0104438	-6.91689	17.0101	16.8863	2.04851	0.0585581	0.00709112	0.0589859	6.90464	112823	931682	938489	-83.0954	0.0000000E+000	0.0000000E+000	0.0000000E+000	83.0954	0.0000000E+000	0.0000000E+000	0.0000000E+000	-83.0954	0.0000000E+000	0.0000000E+000	0.0000000E+000	-6.90464	0.0000000E+000	0.0000000E+000	0.0000000E+000	6.90464	8.25795	83.0954	-1.73079e-06	-2.21002e-06	-2.68515e-09	-2.20734e-06	0.24193	26548.5	32.2561	26516.2
6.81719	17.202	1.64812	17.2808	-5.47279	13.0575	0.242226	-0.00927834	14165.3	128.848	1	11	0.00511851	0.000296196	0	-4.58214e-06	0.000237036	7.48407e-06	-58.4504	0.0252673	0.0132208	0.0215325	-5.53962	17.296	17.2153	1.66966	0.0576039	0.00551902	0.0578676	5.47279	128848	1.34483e+06	1.35098e+06	-84.5272	0.0000000E+000	0.0000000E+000	0.0000000E+000	84.5272	0.0000000E+000	0.0000000E+000	0.0000000E+000	-84.5272	0.0000000E+000	0.0000000E+000	0.0000000E+000	-5.47279	0.0000000E+000	0.0000000E+000	0.0000000E+000	5.47279	10.4373	84.5272	1.05253e-06	-2.24746e-06	-2.1993e-09	-2.24526e-06	0.241989	26106.6	25.5473	26081.1
4.63925	17.359	1.35237	17.4116	-4.45467	13.5414	0.242223	-0.00864479	25367.5	153.034	1	11	0.00509248	0.000292476	0	-8.71517e-06	0.00010342	2.85046e-05	-49.5208	0.0974596	0.063268	0.0741318	-4.68081	17.4806	17.4223	1.4265	0.0572595	0.00446084	0.057433	4.45467	153034	1.96435e+06	1.9703e+06	-85.5453	0.0000000E+000	0.0000000E+000	0.0000000E+000	85.5453	0.0000000E+000	0.0000000E+000	0.0000000E+000	-85.5453	0.0000000E+000	0.0000000E+000	0.0000000E+000	-4.45467	0.0000000E+000	0.0000000E+000	0.0000000E+000	4.45467	12.836	85.5453	-4.13303e-06	-2.09397e-06	-8.94041e-10	-2.09307e-06	0.24212	28019.6	11.9632	28007.6
3.1604	17.6675	1.12564	17.7033	-3.64553	14.2344	0.24222	-0.00858989	44738.2	180.871	1	11	0.00512414	0.000289445	0	-1.24973e-05	0.000256124	6.6152e-06	17.0957	0.0228548	0.0218449	-0.00671857	-3.61937	17.7247	17.6894	1.11892	0.0563723	0.00359162	0.0564866	3.64553	180871	2.83886e+06	2.84462e+06	-86.3545	0.0000000E+000	0.0000000E+000	0.0000000E+000	86.3545	0.0000000E+000	0.0000000E+000	0.0000000E+000	-86.3545	0.0000000E+000	0.0000000E+000	0.0000000E+000	-3.64553	0.0000000E+000	0.0000000E+000	0.0000000E+000	3.64553	15.6955	86.3545	-3.78213e-06	-2.08064e-06	-2.20008e-09	-2.07844e-06	0.241964	28198.3	29.8169	28168.4
2.15577	17.8245	0.970043	17.8509	-3.11507	15.238	0.242223	-0.0085106	76107.5	224.745	1	11	0.00512512	0.000287108	0	-1.19406e-05	-1.11087e-05	4.14999e-06	-1.97864	0.0144545	0.0144459	0.000499069	-3.11415	17.8653	17.8389	0.970542	0.0559369	0.00304419	0.0560196	3.11507	224745	4.12968e+06	4.13579e+06	-86.8849	0.0000000E+000	0.0000000E+000	0.0000000E+000	86.8849	0.0000000E+000	0.0000000E+000	0.0000000E+000	-86.8849	0.0000000E+000	0.0000000E+000	0.0000000E+000	-3.11507	0.0000000E+000	0.0000000E+000	0.0000000E+000	3.11507	18.375	86.8849	5.56652e-07	-2.06146e-06	9.45416e-11	-2.06155e-06	0.242234	28461.3	1.30528	28462.6
1.46631	17.9361	0.893646	17.9584	-2.85234	16.6995	0.242231	-0.00780806	121459	300.764	1	11	0.00512323	0.000285284	0	-8.36284e-06	-0.000259253	6.07835e-06	22.9687	0.0213063	0.0196171	-0.00831434	-2.82276	17.9775	17.9557	0.885331	0.0556154	0.00277097	0.0556844	2.85234	300764	6.03656e+06	6.04404e+06	-87.1477	0.0000000E+000	0.0000000E+000	0.0000000E+000	87.1477	0.0000000E+000	0.0000000E+000	0.0000000E+000	-87.1477	0.0000000E+000	0.0000000E+000	0.0000000E+000	-2.85234	0.0000000E+000	0.0000000E+000	0.0000000E+000	2.85234	20.0707	87.1477	3.5778e-06	-1.89135e-06	2.02427e-09	-1.89338e-06	0.24249	31023.2	33.2033	31056.4
1.00006	18.0616	0.876683	18.0829	-2.77887	19.8746	0.242243	-0.00595416	181530	426.678	1	12	0.00512596	0.00028347	0	-8.26816e-06	0.000313388	3.08955e-06	10.532	0.010899	0.0107154	-0.00199217	-2.77092	18.0935	18.0723	0.874691	0.0552359	0.00268107	0.0553009	2.77887	426678	8.7905e+06	8.80085e+06	-87.2211	0.0000000E+000	0.0000000E+000	0.0000000E+000	87.2211	0.0000000E+000	0.0000000E+000	0.0000000E+000	-87.2211	0.0000000E+000	0.0000000E+000	0.0000000E+000	-2.77887	0.0000000E+000	0.0000000E+000	0.0000000E+000	2.77887	20.6022	87.2211	9.46839e-08	-1.44236e-06	-1.86596e-09	-1.44049e-06	0.24193	40684.7	52.6335	40632.1
0.681362	18.1799	0.928814	18.2036	-2.92471	22.9864	0.242228	-0.00489839	251486	654.719	1	12	0.00512727	0.000281662	0	-1.66349e-05	-3.01967e-05	2.09793e-06	-18.2354	0.00744841	0.00707434	0.00233077	-2.93089	18.2108	18.187	0.931145	0.0548626	0.00280294	0.0549341	2.92471	654719	1.2815e+07	1.28317e+07	-87.0753	0.0000000E+000	0.0000000E+000	0.0000000E+000	87.0753	0.0000000E+000	0.0000000E+000	0.0000000E+000	-87.0753	0.0000000E+000	0.0000000E+000	0.0000000E+000	-2.92471	0.0000000E+000	0.0000000E+000	0.0000000E+000	2.92471	19.5733	87.0753	-8.3667e-06	-1.18652e-06	1.47915e-10	-1.18667e-06	0.242258	49450.4	6.16463	49456.6
0.464091	18.2746	1.07428	18.3061	-3.36428	27.543	0.242241	-0.00368853	319228	1099.36	1	12	0.00512592	0.000280011	0	-3.73784e-05	0.00019886	4.79599e-06	14.6108	0.0171279	0.016574	-0.00432053	-3.34775	18.3224	18.2912	1.06996	0.0545324	0.0032057	0.0546265	3.36428	1.09936e+06	1.87013e+07	1.87336e+07	-86.6357	0.0000000E+000	0.0000000E+000	0.0000000E+000	86.6357	0.0000000E+000	0.0000000E+000	0.0000000E+000	-86.6357	0.0000000E+000	0.0000000E+000	0.0000000E+000	-3.36428	0.0000000E+000	0.0000000E+000	0.0000000E+000	3.36428	17.0111	86.6357	-2.07435e-05	-8.93511e-07	-7.33501e-10	-8.92778e-07	0.242042	65674	53.9131	65620.1
0.316193	18.4056	1.2953	18.4512	-4.02557	34.219	0.242226	-0.00438404	388594	1915.1	1	12	0.00512139	0.000277564	0	-7.01158e-05	-6.83729e-05	4.4281e-06	-22.3528	0.0159534	0.0147547	0.00606723	-4.04114	18.4663	18.4204	1.30137	0.0540634	0.00380473	0.0541971	4.02557	1.9151e+06	2.72127e+07	2.728e+07	-85.9744	0.0000000E+000	0.0000000E+000	0.0000000E+000	85.9744	0.0000000E+000	0.0000000E+000	0.0000000E+000	-85.9744	0.0000000E+000	0.0000000E+000	0.0000000E+000	-4.02557	0.0000000E+000	0.0000000E+000	0.0000000E+000	4.02557	14.2095	85.9744	-3.27374e-05	-1.06193e-06	2.99749e-10	-1.06223e-06	0.242294	55251.7	15.5959	55267.3
0.215268	18.6001	1.65893	18.6739	-5.09671	44.0123	0.242231	-0.00565976	445668	3517.22	1	12	0.00512538	0.000274468	0	-0.000104945	-1.11087e-05	2.30999e-06	-1.76521	0.00841626	0.00841227	0.000259253	-5.09521	18.6823	18.6085	1.65919	0.0533389	0.00475728	0.0535507	5.09671	3.51723e+06	3.94353e+07	3.95919e+07	-84.9033	0.0000000E+000	0.0000000E+000	0.0000000E+000	84.9033	0.0000000E+000	0.0000000E+000	0.0000000E+000	-84.9033	0.0000000E+000	0.0000000E+000	0.0000000E+000	-5.09671	0.0000000E+000	0.0000000E+000	0.0000000E+000	5.09671	11.2121	84.9033	-3.48289e-05	-1.37097e-06	6.28726e-11	-1.37103e-06	0.242242	42798.7	1.96275	42800.7
0.146929	18.8314	2.23359	18.9634	-6.76423	58.3506	0.242229	-0.00637905	484964	6727.95	1	12	0.00513217	0.000270635	0	-0.000125611	0.000160684	4.40175e-06	13.1007	0.0162645	0.0158412	-0.00368658	-6.74755	18.9787	18.8473	2.2299	0.052366	0.00621112	0.0527331	6.76423	6.72796e+06	5.67235e+07	5.71211e+07	-83.2358	0.0000000E+000	0.0000000E+000	0.0000000E+000	83.2358	0.0000000E+000	0.0000000E+000	0.0000000E+000	-83.2358	0.0000000E+000	0.0000000E+000	0.0000000E+000	-6.76423	0.0000000E+000	0.0000000E+000	0.0000000E+000	6.76423	8.43101	83.2358	-2.06664e-05	-1.54519e-06	-1.02501e-09	-1.54416e-06	0.242068	37972.5	25.1893	37947.4
0.0999041	19.0719	2.99842	19.3062	-8.93471	79.4268	0.242237	-0.0056189	531306	12815.5	1	12	0.00511873	0.000265134	0	-0.000107167	-0.000106549	2.46482e-06	-24.9386	0.00929651	0.0084297	0.00391985	-8.94231	19.3151	19.0803	3.00234	0.0511684	0.00804451	0.0517969	8.93471	1.28155e+07	8.15152e+07	8.25164e+07	-81.0653	0.0000000E+000	0.0000000E+000	0.0000000E+000	81.0653	0.0000000E+000	0.0000000E+000	0.0000000E+000	-81.0653	0.0000000E+000	0.0000000E+000	0.0000000E+000	-8.93471	0.0000000E+000	0.0000000E+000	0.0000000E+000	8.93471	6.36066	81.0653	1.84445e-05	-1.36111e-06	5.98688e-10	-1.36171e-06	0.242344	43111.2	18.9626	43130.1
0.0680626	19.4188	3.9625	19.8189	-11.5332	110.353	0.242234	-0.00452922	590123	23589.6	1	12	0.00512478	0.00025858	0	-4.85941e-05	-3.01967e-05	2.46166e-06	-6.81762	0.00951993	0.00945261	0.0011301	-11.5309	19.8284	19.4282	3.96363	0.049438	0.0100881	0.0504568	11.5332	2.35896e+07	1.15604e+08	1.17986e+08	-78.4668	0.0000000E+000	0.0000000E+000	0.0000000E+000	78.4668	0.0000000E+000	0.0000000E+000	0.0000000E+000	-78.4668	0.0000000E+000	0.0000000E+000	0.0000000E+000	-11.5332	0.0000000E+000	0.0000000E+000	0.0000000E+000	11.5332	4.90064	78.4668	5.85725e-05	-1.09713e-06	1.36768e-10	-1.09727e-06	0.242264	53482.5	6.66709	53489.2
0.0464052	20.0443	5.19563	20.7068	-14.5316	155.705	0.242228	-0.00250356	660109	41559.1	1	12	0.00512512	0.00024751	0	5.37406e-05	6.52435e-05	2.10235e-06	-8.65167	0.00849404	0.00839738	0.00127773	-14.5292	20.7152	20.0527	5.1969	0.0467484	0.0121175	0.0482934	14.5316	4.15591e+07	1.60332e+08	1.65631e+08	-75.4684	0.0000000E+000	0.0000000E+000	0.0000000E+000	75.4684	0.0000000E+000	0.0000000E+000	0.0000000E+000	-75.4684	0.0000000E+000	0.0000000E+000	0.0000000E+000	-14.5316	0.0000000E+000	0.0000000E+000	0.0000000E+000	14.5316	3.85793	75.4684	0.000102335	-6.06432e-07	-1.63341e-10	-6.06269e-07	0.242163	96753.6	26.0603	96727.5
0.0315922	20.8762	7.11824	22.0564	-18.8281	222.309	0.242232	-0.00156141	707730	73713.1	1	12	0.00512179	0.000232214	0	9.71684e-05	-1.11087e-05	3.25209e-06	7.7701	0.0140047	0.0138762	-0.00189342	-18.8118	22.0689	20.89	7.11634	0.0429124	0.014632	0.0453384	18.8281	7.37131e+07	2.16184e+08	2.28405e+08	-71.1719	0.0000000E+000	0.0000000E+000	0.0000000E+000	71.1719	0.0000000E+000	0.0000000E+000	0.0000000E+000	-71.1719	0.0000000E+000	0.0000000E+000	0.0000000E+000	-18.8281	0.0000000E+000	0.0000000E+000	0.0000000E+000	18.8281	2.93277	71.1719	4.34278e-05	-3.78224e-07	1.73452e-11	-3.78241e-07	0.242243	155137	7.11452	155144
0.0215268	21.7807	9.68175	23.8356	-23.9656	320.048	0.242231	-0.00156323	763637	125992	1	12	0.00512106	0.000214849	0	-6.30638e-05	0.00010342	2.53905e-06	14.4504	0.0118178	0.0114439	-0.00294904	-23.948	23.8449	21.7922	9.6788	0.0383371	0.0170412	0.041954	23.9656	1.25992e+08	2.8344e+08	3.10181e+08	-66.0344	0.0000000E+000	0.0000000E+000	0.0000000E+000	66.0344	0.0000000E+000	0.0000000E+000	0.0000000E+000	-66.0344	0.0000000E+000	0.0000000E+000	0.0000000E+000	-23.9656	0.0000000E+000	0.0000000E+000	0.0000000E+000	23.9656	2.24967	66.0344	-0.000160232	-3.78662e-07	-1.61668e-10	-3.78501e-07	0.242128	154956	66.1578	154890
0.0146812	23.1393	12.7792	26.4336	-28.9107	463.351	0.242231	-0.0020313	848313	198267	1	12	0.00512608	0.000193923	0	-0.000510671	0.00010342	4.57196e-06	32.122	0.0235762	0.0199671	-0.012536	-28.866	26.445	23.1592	12.7667	0.033116	0.0182891	0.0378307	28.9107	1.98267e+08	3.59002e+08	4.10113e+08	-61.0893	0.0000000E+000	0.0000000E+000	0.0000000E+000	61.0893	0.0000000E+000	0.0000000E+000	0.0000000E+000	-61.0893	0.0000000E+000	0.0000000E+000	0.0000000E+000	-28.9107	0.0000000E+000	0.0000000E+000	0.0000000E+000	28.9107	1.8107	61.0893	-0.000447607	-4.92044e-07	-2.10076e-10	-4.91834e-07	0.242128	119249	50.913	119198
0.0100092	25.3628	16.9111	30.4837	-33.6942	673.532	0.242234	-0.00273754	940262	289374	1	12	0.00512356	0.000168075	0	-0.00114598	0.00019886	1.14475e-06	-18.746	0.00681096	0.00644966	0.00218886	-33.6909	30.4903	25.3692	16.9133	0.0272936	0.0181986	0.0328044	33.6942	2.89374e+08	4.33993e+08	5.2162e+08	-56.3058	0.0000000E+000	0.0000000E+000	0.0000000E+000	56.3058	0.0000000E+000	0.0000000E+000	0.0000000E+000	-56.3058	0.0000000E+000	0.0000000E+000	0.0000000E+000	-33.6942	0.0000000E+000	0.0000000E+000	0.0000000E+000	33.6942	1.49977	56.3058	-0.000635305	-6.63125e-07	-5.44387e-10	-6.62581e-07	0.242035	88485.9	72.6418	88413.2