File: txt/19003_R309_UA708_SOC00_C02.mpt
EC-Lab ASCII FILE
Nb header lines : 66

Potentio Electrochemical Impedance Spectroscopy

Run on channel : 2 (SN 66139)
Grouped channel(s) : 2, 3, 4, 5, 6
User :
CE vs. WE compliance from -10 V to 10 V
Electrode connection : standard
Potential control : Ewe
Ewe ctrl range : min = -10.00 V, max = 10.00 V
Safety Limits :
	Do not start on E overload
Acquisition started on : 11/04/2025 16:08:38.802
Loaded Setting File :  C:\Users\Celltest\OneDrive - store-dot.com\Documents\EC-Lab\Data\@Biologic Test Protocols\anode half cell EIS SOC00.mps
Saved on :
	File : 19003_R309_UA708_SOC00_C02.mpr
	Directory : C:\Users\Celltest\OneDrive - store-dot.com\Documents\EC-Lab\Data\Charmaine\
	Host : 169.254.61.224
Device : VMP-3e (SN .003165)
Address : USB
EC-LAB for windows v11.62 (software)
Internet server v27.00 (firmware)
Command interpretor v12.03 (firmware)
Electrode material :
Initial state :
Electrolyte :
Comments :
Electrode surface area : 0.001 cm²
Characteristic mass : 0.001 g
Equivalent Weight : 0.000 g/eq.
Density : 0.000 g/cm3
Volume (V) : 0.001 cm³
Record Ece
Cycle Definition : Charge/Discharge alternance
Mode                Single sine
E (V)               0.0000
vs.                 Eoc
tE (h:m:s)          0:00:0.0000
record              0
dI                  0.000
unit dI             mA
dt (s)              0.000
fi                  100.000
unit fi             kHz
ff                  10.000
unit ff             mHz
Nd                  6
Points              per decade
spacing             Logarithmic
Va (mV)             5.0
pw                  0.10
Na                  2
corr                0
E range min (V)     -10.000
E range max (V)     10.000
I Range             Auto
Bandwidth           5
nc cycles           0
goto Ns'            0
nr cycles           0
inc. cycle          0

freq/Hz	Re(Z)/Ohm	-Im(Z)/Ohm	|Z|/Ohm	Phase(Z)/deg	time/s	<Ewe>/V	<I>/mA	Cs/µF	Cp/µF	cycle number	I Range	|Ewe|/V	|I|/A	Ns	(Q-Qo)/mA.h	<Ece>/V	|Ece|/V	Phase(Zce)/deg	|Zce|/Ohm	Re(Zce)/Ohm	-Im(Zce)/Ohm	Phase(Zwe-ce)/deg	|Zwe-ce|/Ohm	Re(Zwe-ce)/Ohm	-Im(Zwe-ce)/Ohm	Re(Y)/Ohm-1	Im(Y)/Ohm-1	|Y|/Ohm-1	Phase(Y)/deg	Re(C)/nF	Im(C)/nF	|C|/nF	Phase(C)/deg	Re(M)	Im(M)	|M|	Phase(M)/deg	Re(Permittivity)	Im(Permittivity)	|Permittivity|	Phase(Permittivity)/deg	Re(Resistivity)/Ohm.cm	Im(Resistivity)/Ohm.cm	|Resistivity|/Ohm.cm	Phase(Resistivity)/deg	Re(Conductivity)/mS/cm	Im(Conductivity)/mS/cm	|Conductivity|/mS/cm	Phase(Conductivity)/deg	Tan(Delta)	Loss Angle(Delta)/deg	dq/mA.h	Pwe/W	Pce/W	Pwe-ce/W	<Ewe-Ece>/V	Rwe/Ohm	Rce/Ohm	Rwe-ce/Ohm		Ewe-Ece/V
100004	1.96544	0.686037	2.08173	-19.2416	1.86755	0.250425	-0.0379885	2.31983	0.251943	1	9	0.00497053	0.00238769	0	-8.75617e-06	-1.72211e-05	2.32527e-05	77.3634	0.00973856	0.00213048	-0.00950266	-18.9752	2.08063	1.96757	0.676535	0.453535	0.158307	0.48037	19.2416	251.943	721.797	764.504	-70.7584	0.0000000E+000	0.0000000E+000	0.0000000E+000	70.7584	0.0000000E+000	0.0000000E+000	0.0000000E+000	-70.7584	0.0000000E+000	0.0000000E+000	0.0000000E+000	-19.2416	0.0000000E+000	0.0000000E+000	0.0000000E+000	19.2416	2.86492	70.7584	-8.75617e-06	-9.51327e-06	6.54203e-10	-9.51392e-06	0.250442	6592.11	0.453322	6592.56
68132	2.1637	0.759563	2.29315	-19.3435	2.37456	0.250436	-0.0390314	3.07542	0.337418	1	9	0.00505142	0.00220283	0	-1.07044e-05	0.00023096	1.01454e-05	55.2264	0.00460562	0.00262675	-0.00378311	-19.2327	2.29438	2.16633	0.75578	0.411465	0.144444	0.436082	19.3435	337.418	961.172	1018.68	-70.6565	0.0000000E+000	0.0000000E+000	0.0000000E+000	70.6565	0.0000000E+000	0.0000000E+000	0.0000000E+000	-70.6565	0.0000000E+000	0.0000000E+000	0.0000000E+000	-19.3435	0.0000000E+000	0.0000000E+000	0.0000000E+000	19.3435	2.84861	70.6565	-1.94826e-06	-9.77488e-06	-9.0147e-09	-9.76587e-06	0.250205	6416.27	5.91728	6410.35
46420.4	2.37037	0.809632	2.50483	-18.8583	2.75953	0.250446	-0.00822907	4.23471	0.442428	1	9	0.0054837	0.00218925	0	-1.25177e-05	0.000211869	1.15774e-05	19.9811	0.0052883	0.00496997	-0.00180707	-18.7825	2.50895	2.37534	0.807825	0.377798	0.129042	0.399229	18.8583	442.428	1295.3	1368.78	-71.1417	0.0000000E+000	0.0000000E+000	0.0000000E+000	71.1417	0.0000000E+000	0.0000000E+000	0.0000000E+000	-71.1417	0.0000000E+000	0.0000000E+000	0.0000000E+000	-18.8583	0.0000000E+000	0.0000000E+000	0.0000000E+000	18.8583	2.92772	71.1417	-1.8133e-06	-2.06094e-06	-1.74349e-09	-2.05919e-06	0.250234	30434.3	25.7464	30408.5
31621.1	2.58773	0.866131	2.72883	-18.5057	3.14254	0.250387	-0.0550472	5.81111	0.585426	1	9	0.00541081	0.00198283	0	-1.48223e-05	-0.000131766	1.19048e-05	-4.22786	0.00600395	0.00598761	0.00044263	-18.4747	2.73465	2.59372	0.866573	0.347508	0.116313	0.366457	18.5057	585.426	1749.07	1844.44	-71.4943	0.0000000E+000	0.0000000E+000	0.0000000E+000	71.4943	0.0000000E+000	0.0000000E+000	0.0000000E+000	-71.4943	0.0000000E+000	0.0000000E+000	0.0000000E+000	-18.5057	0.0000000E+000	0.0000000E+000	0.0000000E+000	18.5057	2.98769	71.4943	-2.30456e-06	-1.37831e-05	7.25336e-09	-1.37904e-05	0.250519	4548.6	2.39369	4550.99
21544.7	2.79836	0.896277	2.93839	-17.7595	3.52555	0.250442	-0.027001	8.2421	0.766836	1	9	0.00524411	0.00178469	0	-2.04151e-05	1.86979e-06	4.46317e-06	-44.4846	0.00250082	0.00178418	0.00175237	-17.7815	2.94063	2.80015	0.898029	0.324104	0.103806	0.340322	17.7595	766.836	2394.22	2514.03	-72.2405	0.0000000E+000	0.0000000E+000	0.0000000E+000	72.2405	0.0000000E+000	0.0000000E+000	0.0000000E+000	-72.2405	0.0000000E+000	0.0000000E+000	0.0000000E+000	-17.7595	0.0000000E+000	0.0000000E+000	0.0000000E+000	17.7595	3.12221	72.2405	-5.59285e-06	-6.76218e-06	-5.04863e-11	-6.76213e-06	0.25044	9275.26	0.0692489	9275.19
14678.6	3.00747	0.939868	3.15091	-17.3546	3.90855	0.250447	-0.0224943	11.5364	1.02644	1	9	0.00517907	0.00164368	0	-2.53796e-05	0.000269142	6.13093e-06	-21.0656	0.00373001	0.00348073	0.00134071	-17.359	3.15463	3.01095	0.941209	0.302921	0.0946664	0.317369	17.3546	1026.44	3284.47	3441.12	-72.6454	0.0000000E+000	0.0000000E+000	0.0000000E+000	72.6454	0.0000000E+000	0.0000000E+000	0.0000000E+000	-72.6454	0.0000000E+000	0.0000000E+000	0.0000000E+000	-17.3546	0.0000000E+000	0.0000000E+000	0.0000000E+000	17.3546	3.19988	72.6454	-4.96443e-06	-5.63363e-06	-6.05414e-09	-5.62757e-06	0.250178	11133.8	11.9649	11121.9
10002.2	3.21043	1.00723	3.36472	-17.4186	4.16756	0.250428	-0.00320089	15.7977	1.41565	1	9	0.0053755	0.00159761	0	-2.76039e-05	-7.44936e-05	9.06141e-06	-145.459	0.00567187	-0.00467201	0.00321596	-17.4948	3.36123	3.20575	1.01045	0.283573	0.0889675	0.297201	17.4186	1415.65	4512.19	4729.05	-72.5814	0.0000000E+000	0.0000000E+000	0.0000000E+000	72.5814	0.0000000E+000	0.0000000E+000	0.0000000E+000	-72.5814	0.0000000E+000	0.0000000E+000	0.0000000E+000	-17.4186	0.0000000E+000	0.0000000E+000	0.0000000E+000	17.4186	3.18737	72.5814	-2.22434e-06	-8.01593e-07	2.38445e-10	-8.01831e-07	0.250503	78237.2	23.2728	78260.5
6810.42	3.45075	1.0779	3.61518	-17.347	4.42656	0.250472	0.0210462	21.6805	1.92736	1	9	0.00538908	0.00149068	0	-2.84417e-05	2.09606e-05	3.04694e-05	-122.241	0.0204399	-0.0109044	0.0172883	-17.6605	3.60998	3.43985	1.09518	0.26403	0.0824737	0.276611	17.347	1927.36	6170.2	6464.21	-72.653	0.0000000E+000	0.0000000E+000	0.0000000E+000	72.653	0.0000000E+000	0.0000000E+000	0.0000000E+000	-72.653	0.0000000E+000	0.0000000E+000	0.0000000E+000	-17.347	0.0000000E+000	0.0000000E+000	0.0000000E+000	17.347	3.20138	72.653	-8.37836e-07	5.27148e-06	4.41142e-10	5.27104e-06	0.250451	11901.1	0.995934	11900.1
4646	3.68772	1.19536	3.87662	-17.9599	4.6946	0.250387	-0.0410427	28.6577	2.72479	1	9	0.00533741	0.00137682	0	-3.22796e-05	-1.72211e-05	8.61717e-06	18.3262	0.00625874	0.00594131	-0.00196792	-17.9052	3.88167	3.69367	1.19339	0.245387	0.0795413	0.257957	17.9599	2724.79	8406.06	8836.64	-72.0401	0.0000000E+000	0.0000000E+000	0.0000000E+000	72.0401	0.0000000E+000	0.0000000E+000	0.0000000E+000	-72.0401	0.0000000E+000	0.0000000E+000	0.0000000E+000	-17.9599	0.0000000E+000	0.0000000E+000	0.0000000E+000	17.9599	3.08503	72.0401	-3.83782e-06	-1.02766e-05	7.06799e-10	-1.02773e-05	0.250404	6100.63	0.419588	6101.05
3163.08	3.95623	1.33072	4.17404	-18.5909	5.27767	0.250373	-0.0339141	37.8114	3.84313	1	10	0.00537042	0.00128662	0	-3.62245e-05	0.000192778	5.15465e-06	-14.7949	0.00400634	0.00387351	0.00102306	-18.5873	4.17804	3.9601	1.33175	0.227075	0.0763792	0.239576	18.5909	3843.13	11425.6	12054.6	-71.4091	0.0000000E+000	0.0000000E+000	0.0000000E+000	71.4091	0.0000000E+000	0.0000000E+000	0.0000000E+000	-71.4091	0.0000000E+000	0.0000000E+000	0.0000000E+000	-18.5909	0.0000000E+000	0.0000000E+000	0.0000000E+000	18.5909	2.97299	71.4091	-3.9449e-06	-8.49118e-06	-6.5379e-09	-8.48464e-06	0.25018	7382.56	5.68431	7376.88
2155.69	4.25163	1.49557	4.50701	-19.3801	5.72882	0.250386	-0.0272795	49.3658	5.43582	1	10	0.00534051	0.00118494	0	-3.92637e-05	0.00023096	7.54289e-06	53.6086	0.00636566	0.00377673	-0.00512425	-19.3027	4.50887	4.25541	1.49045	0.209305	0.073626	0.221877	19.3801	5435.82	15453	16381.2	-70.6199	0.0000000E+000	0.0000000E+000	0.0000000E+000	70.6199	0.0000000E+000	0.0000000E+000	0.0000000E+000	-70.6199	0.0000000E+000	0.0000000E+000	0.0000000E+000	-19.3801	0.0000000E+000	0.0000000E+000	0.0000000E+000	19.3801	2.84281	70.6199	-3.03921e-06	-6.83041e-06	-6.30048e-09	-6.82411e-06	0.250155	9178.54	8.46642	9170.07
1468.59	4.58842	1.70166	4.8938	-20.3477	6.17907	0.250381	-0.027164	63.6866	7.70016	1	10	0.00530318	0.00108365	0	-4.2608e-05	0.000288232	1.58768e-05	-7.00641	0.0146512	0.0145418	0.00178716	-20.3083	4.90805	4.60296	1.70344	0.191589	0.0710526	0.20434	20.3477	7700.16	20763	22144.9	-69.6523	0.0000000E+000	0.0000000E+000	0.0000000E+000	69.6523	0.0000000E+000	0.0000000E+000	0.0000000E+000	-69.6523	0.0000000E+000	0.0000000E+000	0.0000000E+000	-20.3477	0.0000000E+000	0.0000000E+000	0.0000000E+000	20.3477	2.69644	69.6523	-3.34432e-06	-6.80135e-06	-7.82956e-09	-6.79352e-06	0.250093	9217.36	10.6108	9206.75
1000.32	4.96067	1.94402	5.32799	-21.3995	6.62982	0.250381	-0.0269778	81.8429	10.8957	1	10	0.0052497	0.000985307	0	-4.67329e-05	0.000250051	5.1598e-06	21.2184	0.00523674	0.00488173	-0.0018953	-21.3614	5.33184	4.96555	1.94212	0.174749	0.0684816	0.187688	21.3995	10895.7	27803.2	29861.9	-68.6005	0.0000000E+000	0.0000000E+000	0.0000000E+000	68.6005	0.0000000E+000	0.0000000E+000	0.0000000E+000	-68.6005	0.0000000E+000	0.0000000E+000	0.0000000E+000	-21.3995	0.0000000E+000	0.0000000E+000	0.0000000E+000	21.3995	2.55176	68.6005	-4.1249e-06	-6.75473e-06	-6.74581e-09	-6.74798e-06	0.250131	9281.02	9.26877	9271.75
681.09	5.38155	2.25202	5.83376	-22.7078	7.07959	0.250379	-0.0279054	103.763	15.4629	1	10	0.00521258	0.000893521	0	-4.98346e-05	0.000135506	6.55539e-06	27.6603	0.00733658	0.00649813	-0.00340585	-22.6524	5.83844	5.38805	2.24861	0.158129	0.0661722	0.171416	22.7078	15462.9	36951.1	40056	-67.2922	0.0000000E+000	0.0000000E+000	0.0000000E+000	67.2922	0.0000000E+000	0.0000000E+000	0.0000000E+000	-67.2922	0.0000000E+000	0.0000000E+000	0.0000000E+000	-22.7078	0.0000000E+000	0.0000000E+000	0.0000000E+000	22.7078	2.38966	67.2922	-3.10171e-06	-6.98693e-06	-3.78134e-09	-6.98315e-06	0.250244	8972.45	4.8559	8967.59
463.961	5.90244	2.63914	6.46559	-24.0907	7.53132	0.250375	-0.0254244	129.98	21.6564	1	10	0.00519293	0.000803164	0	-5.25029e-05	0.000326414	8.01854e-06	137.786	0.00998369	-0.00739429	-0.00670809	-24.0632	6.4561	5.89504	2.63243	0.141194	0.0631316	0.154665	24.0907	21656.4	48434.4	53055.6	-65.9093	0.0000000E+000	0.0000000E+000	0.0000000E+000	65.9093	0.0000000E+000	0.0000000E+000	0.0000000E+000	-65.9093	0.0000000E+000	0.0000000E+000	0.0000000E+000	-24.0907	0.0000000E+000	0.0000000E+000	0.0000000E+000	24.0907	2.2365	65.9093	-2.66826e-06	-6.36563e-06	-8.29887e-09	-6.35734e-06	0.250049	9847.84	12.8386	9835.01
316.316	6.55125	3.09324	7.24479	-25.2748	7.97908	0.250374	-0.0267021	162.662	29.6525	1	10	0.00518094	0.000715126	0	-5.62784e-05	-1.72211e-05	6.08999e-06	-12.554	0.00851596	0.00831236	0.00185102	-25.26	7.2531	6.55956	3.09509	0.124817	0.0589335	0.13803	25.2748	29652.5	62801.7	69450.1	-64.7252	0.0000000E+000	0.0000000E+000	0.0000000E+000	64.7252	0.0000000E+000	0.0000000E+000	0.0000000E+000	-64.7252	0.0000000E+000	0.0000000E+000	0.0000000E+000	-25.2748	0.0000000E+000	0.0000000E+000	0.0000000E+000	25.2748	2.11792	64.7252	-3.7755e-06	-6.68551e-06	4.59839e-10	-6.68597e-06	0.250391	9376.54	0.644932	9377.19
215.345	7.38118	3.59203	8.20881	-25.9498	8.42957	0.250376	-0.0257745	205.753	39.3973	1	10	0.00516663	0.000629401	0	-5.95778e-05	-0.000246311	7.0269e-06	10.3737	0.0111644	0.0109819	-0.00201036	-25.9037	8.21781	7.39216	3.59002	0.109538	0.0533065	0.12182	25.9498	39397.3	80956.5	90033.9	-64.0502	0.0000000E+000	0.0000000E+000	0.0000000E+000	64.0502	0.0000000E+000	0.0000000E+000	0.0000000E+000	-64.0502	0.0000000E+000	0.0000000E+000	0.0000000E+000	-25.9498	0.0000000E+000	0.0000000E+000	0.0000000E+000	25.9498	2.05487	64.0502	-3.29944e-06	-6.45332e-06	6.34856e-09	-6.45966e-06	0.250622	9714.06	9.55638	9723.62
146.737	8.42281	4.06487	9.35237	-25.7621	8.87549	0.250364	-0.025931	266.829	50.406	1	10	0.00515815	0.000551534	0	-6.20344e-05	0.000135506	9.18322e-06	-34.3722	0.0166503	0.013743	0.00940021	-25.7773	9.36884	8.43655	4.07427	0.0962971	0.0464733	0.106925	25.7621	50406	104446	115973	-64.2379	0.0000000E+000	0.0000000E+000	0.0000000E+000	64.2379	0.0000000E+000	0.0000000E+000	0.0000000E+000	-64.2379	0.0000000E+000	0.0000000E+000	0.0000000E+000	-25.7621	0.0000000E+000	0.0000000E+000	0.0000000E+000	25.7621	2.0721	64.2379	-2.45665e-06	-6.4922e-06	-3.5138e-09	-6.48869e-06	0.250229	9655.02	5.22562	9649.79
100.032	9.69081	4.39911	10.6426	-24.4155	9.32677	0.250364	-0.025674	361.673	61.7951	1	10	0.00516336	0.000485161	0	-6.56136e-05	9.7324e-05	9.19811e-06	-131.157	0.0189589	-0.0124772	0.0142744	-24.5133	10.6371	9.67833	4.41339	0.0855595	0.0388395	0.0939624	24.4155	61795.1	136129	149498	-65.5845	0.0000000E+000	0.0000000E+000	0.0000000E+000	65.5845	0.0000000E+000	0.0000000E+000	0.0000000E+000	-65.5845	0.0000000E+000	0.0000000E+000	0.0000000E+000	-24.4155	0.0000000E+000	0.0000000E+000	0.0000000E+000	24.4155	2.2029	65.5845	-3.57916e-06	-6.42784e-06	-2.49869e-09	-6.42534e-06	0.250267	9751.67	3.79077	9747.88
68.104	11.0604	4.5267	11.9509	-22.2579	9.78941	0.250377	-0.0233979	516.257	74.0681	1	10	0.00516307	0.000432025	0	-6.8906e-05	-1.72211e-05	7.82958e-06	68.1195	0.018123	0.00675394	-0.0168175	-22.171	11.9507	11.0671	4.50988	0.0774412	0.0316945	0.083676	22.2579	74068.1	180975	195546	-67.7421	0.0000000E+000	0.0000000E+000	0.0000000E+000	67.7421	0.0000000E+000	0.0000000E+000	0.0000000E+000	-67.7421	0.0000000E+000	0.0000000E+000	0.0000000E+000	-22.2579	0.0000000E+000	0.0000000E+000	0.0000000E+000	22.2579	2.44337	67.7421	-3.29238e-06	-5.85828e-06	4.02936e-10	-5.85868e-06	0.250394	10700.8	0.73601	10701.6
46.4415	12.4501	4.32961	13.1815	-19.1755	10.2257	0.25037	-0.0261471	791.525	85.3956	1	10	0.00515169	0.000390829	0	-7.17708e-05	0.000173687	6.35914e-06	-98.4698	0.0162709	-0.00239651	0.0160935	-19.2449	13.1845	12.4477	4.3457	0.071655	0.0249185	0.0758642	19.1755	85395.6	245561	259986	-70.8245	0.0000000E+000	0.0000000E+000	0.0000000E+000	70.8245	0.0000000E+000	0.0000000E+000	0.0000000E+000	-70.8245	0.0000000E+000	0.0000000E+000	0.0000000E+000	-19.1755	0.0000000E+000	0.0000000E+000	0.0000000E+000	19.1755	2.87557	70.8245	-2.86485e-06	-6.54644e-06	-4.54142e-09	-6.5419e-06	0.250196	9575.44	6.64271	9568.8
31.6296	13.6851	3.89262	14.2279	-15.878	10.6555	0.250364	-0.027626	1292.66	96.7577	1	10	0.00515829	0.000362547	0	-7.56327e-05	0.000440959	7.83271e-06	23.5186	0.0216047	0.01981	-0.0086213	-15.8229	14.2446	13.7049	3.884	0.0676027	0.0192291	0.0702843	15.878	96757.7	340166	353659	-74.122	0.0000000E+000	0.0000000E+000	0.0000000E+000	74.122	0.0000000E+000	0.0000000E+000	0.0000000E+000	-74.122	0.0000000E+000	0.0000000E+000	0.0000000E+000	-15.878	0.0000000E+000	0.0000000E+000	0.0000000E+000	15.878	3.51565	74.122	-3.86186e-06	-6.91656e-06	-1.21819e-08	-6.90438e-06	0.249923	9062.63	15.9618	9046.67
21.5517	14.6831	3.37227	15.0654	-12.9348	11.0765	0.25036	-0.0300511	2189.86	109.724	1	10	0.00515893	0.000342436	0	-7.92328e-05	-1.72211e-05	9.19351e-06	-22.6728	0.0268473	0.0247726	0.0103488	-12.9521	15.0918	14.7079	3.38262	0.0646931	0.0148581	0.0663774	12.9348	109724	477745	490183	-77.0652	0.0000000E+000	0.0000000E+000	0.0000000E+000	77.0652	0.0000000E+000	0.0000000E+000	0.0000000E+000	-77.0652	0.0000000E+000	0.0000000E+000	0.0000000E+000	-12.9348	0.0000000E+000	0.0000000E+000	0.0000000E+000	12.9348	4.35407	77.0652	-3.60007e-06	-7.52361e-06	5.17512e-10	-7.52412e-06	0.250378	8331.15	0.573059	8331.73
14.6852	15.4362	2.85363	15.6978	-10.4738	11.7862	0.25042	-0.0159707	3797.9	125.505	1	11	0.00516221	0.000328849	0	-8.4237e-05	-0.000189039	1.2561e-05	53.7868	0.0381967	0.0225663	-0.0308181	-10.3483	15.7144	15.4588	2.82281	0.0626418	0.0115803	0.0637032	10.4738	125505	678900	690403	-79.5262	0.0000000E+000	0.0000000E+000	0.0000000E+000	79.5262	0.0000000E+000	0.0000000E+000	0.0000000E+000	-79.5262	0.0000000E+000	0.0000000E+000	0.0000000E+000	-10.4738	0.0000000E+000	0.0000000E+000	0.0000000E+000	10.4738	5.40934	79.5262	-5.00424e-06	-3.99938e-06	3.01908e-09	-4.00239e-06	0.250609	15679.9	11.8366	15691.8
10.0032	16.0082	2.37068	16.1828	-8.42383	12.2368	0.250418	-0.0158902	6711.31	144.029	1	11	0.00515888	0.000318789	0	-8.56892e-05	7.82332e-05	6.88304e-06	18.6197	0.0215913	0.0204611	-0.00689377	-8.38911	16.202	16.0286	2.36379	0.0611275	0.0090525	0.0617941	8.42383	144029	972563	983170	-81.5762	0.0000000E+000	0.0000000E+000	0.0000000E+000	81.5762	0.0000000E+000	0.0000000E+000	0.0000000E+000	-81.5762	0.0000000E+000	0.0000000E+000	0.0000000E+000	-8.42383	0.0000000E+000	0.0000000E+000	0.0000000E+000	8.42383	6.75255	81.5762	-1.45222e-06	-3.97918e-06	-1.24314e-09	-3.97794e-06	0.25034	15759.3	4.92337	15754.4
6.81719	16.4194	1.91618	16.5308	-6.65646	12.5765	0.250429	-0.015124	12183.7	163.706	1	11	0.00514584	0.000311289	0	-8.61912e-05	0.000116415	7.90687e-06	-0.113764	0.0254005	0.0254004	5.04338e-05	-6.64645	16.556	16.4447	1.91623	0.0600854	0.00701213	0.0604932	6.65646	163706	1.40276e+06	1.41228e+06	-83.3435	0.0000000E+000	0.0000000E+000	0.0000000E+000	83.3435	0.0000000E+000	0.0000000E+000	0.0000000E+000	-83.3435	0.0000000E+000	0.0000000E+000	0.0000000E+000	-6.65646	0.0000000E+000	0.0000000E+000	0.0000000E+000	6.65646	8.56878	83.3435	-5.01937e-07	-3.78748e-06	-1.76065e-09	-3.78572e-06	0.250313	16558.5	7.69738	16550.8
4.63925	16.8936	1.73924	16.9829	-5.87803	13.0605	0.250427	-0.0150632	19724.9	206.875	1	11	0.00519912	0.000306139	0	-9.16551e-05	0.000192778	2.70288e-05	109.311	0.0882895	-0.0291972	-0.083322	-5.60789	16.9455	16.8644	1.65591	0.0585732	0.00603025	0.0588828	5.87803	206875	2.00942e+06	2.02004e+06	-84.122	0.0000000E+000	0.0000000E+000	0.0000000E+000	84.122	0.0000000E+000	0.0000000E+000	0.0000000E+000	-84.122	0.0000000E+000	0.0000000E+000	0.0000000E+000	-5.87803	0.0000000E+000	0.0000000E+000	0.0000000E+000	5.87803	9.71323	84.122	-5.46397e-06	-3.77222e-06	-2.90385e-09	-3.76932e-06	0.250234	16625.1	12.798	16612.3
3.1604	17.0586	1.37312	17.1138	-4.60207	13.7534	0.250417	-0.0148175	36674.9	236.1	1	11	0.00515566	0.000301258	0	-9.49915e-05	0.000192778	5.18503e-06	49.196	0.0172113	0.0112471	-0.0130281	-4.5556	17.1239	17.0698	1.36009	0.0582441	0.00468832	0.0584325	4.60207	236100	2.93312e+06	2.94261e+06	-85.3979	0.0000000E+000	0.0000000E+000	0.0000000E+000	85.3979	0.0000000E+000	0.0000000E+000	0.0000000E+000	-85.3979	0.0000000E+000	0.0000000E+000	0.0000000E+000	-4.60207	0.0000000E+000	0.0000000E+000	0.0000000E+000	4.60207	12.4232	85.3979	-3.33636e-06	-3.71055e-06	-2.85649e-09	-3.70769e-06	0.250224	16900.1	13.0102	16887.1
2.15577	17.2478	1.20726	17.29	-4.0039	14.756	0.250419	-0.0144434	61152.8	298.146	1	11	0.00515622	0.000298219	0	-9.45699e-05	0.000326414	2.04019e-06	-7.45489	0.00684123	0.0067834	0.000887619	-4.00526	17.2968	17.2546	1.20815	0.0576957	0.00403842	0.0578369	4.0039	298147	4.25953e+06	4.26995e+06	-85.9961	0.0000000E+000	0.0000000E+000	0.0000000E+000	85.9961	0.0000000E+000	0.0000000E+000	0.0000000E+000	-85.9961	0.0000000E+000	0.0000000E+000	0.0000000E+000	-4.0039	0.0000000E+000	0.0000000E+000	0.0000000E+000	4.0039	14.2867	85.9961	4.21629e-07	-3.61691e-06	-4.71453e-09	-3.61219e-06	0.250093	17338	22.5995	17315.4
1.46631	17.4581	1.09035	17.4921	-3.57378	16.2174	0.250421	-0.0140052	99547.2	386.792	1	11	0.00515832	0.000294895	0	-9.40652e-05	7.82332e-05	1.46173e-06	-56.5908	0.00495679	0.00272928	0.00413773	-3.58675	17.495	17.4608	1.09449	0.0570576	0.00356355	0.0571688	3.57378	386792	6.1931e+06	6.20516e+06	-86.4262	0.0000000E+000	0.0000000E+000	0.0000000E+000	86.4262	0.0000000E+000	0.0000000E+000	0.0000000E+000	-86.4262	0.0000000E+000	0.0000000E+000	0.0000000E+000	-3.57378	0.0000000E+000	0.0000000E+000	0.0000000E+000	3.57378	16.0114	86.4262	5.04639e-07	-3.50719e-06	-1.09567e-09	-3.5061e-06	0.250342	17880.5	5.58601	17874.9
1.00006	17.6373	1.02094	17.6668	-3.31287	19.3909	0.250417	-0.0130123	155881	520.564	1	12	0.0051579	0.000291954	0	-0.000103241	-0.000150857	2.12892e-06	-41.4874	0.00729196	0.00546242	0.0048306	-3.32749	17.6725	17.6427	1.02577	0.0565087	0.00327101	0.0566033	3.31287	520564	8.99307e+06	9.00812e+06	-86.6871	0.0000000E+000	0.0000000E+000	0.0000000E+000	86.6871	0.0000000E+000	0.0000000E+000	0.0000000E+000	-86.6871	0.0000000E+000	0.0000000E+000	0.0000000E+000	-3.31287	0.0000000E+000	0.0000000E+000	0.0000000E+000	3.31287	17.2756	86.6871	-9.17593e-06	-3.25849e-06	1.96299e-09	-3.26045e-06	0.250568	19244.7	11.5935	19256.3
0.681362	17.7853	1.03188	17.8152	-3.32051	22.5031	0.250419	-0.00874603	226366	759.433	1	12	0.00516236	0.000289772	0	-0.000120088	0.000116415	3.73527e-06	-26.2306	0.0128904	0.0115629	0.00569735	-3.33664	17.8271	17.7969	1.03758	0.0560375	0.00325123	0.0561318	3.32051	759433	1.30894e+07	1.31114e+07	-86.6795	0.0000000E+000	0.0000000E+000	0.0000000E+000	86.6795	0.0000000E+000	0.0000000E+000	0.0000000E+000	-86.6795	0.0000000E+000	0.0000000E+000	0.0000000E+000	-3.32051	0.0000000E+000	0.0000000E+000	0.0000000E+000	3.32051	17.2358	86.6795	-1.68472e-05	-2.19017e-06	-1.01817e-09	-2.18915e-06	0.250303	28632.3	13.3106	28619
0.464091	17.8882	1.13042	17.9239	-3.61592	27.0586	0.250419	-0.00794972	303372	1206.68	1	12	0.00515762	0.00028775	0	-0.000149636	0.000116415	2.69629e-06	8.99858	0.00937022	0.00925489	-0.0014656	-3.60938	17.9331	17.8975	1.12896	0.0556803	0.00351864	0.0557913	3.61592	1.20668e+06	1.9095e+07	1.9133e+07	-86.3841	0.0000000E+000	0.0000000E+000	0.0000000E+000	86.3841	0.0000000E+000	0.0000000E+000	0.0000000E+000	-86.3841	0.0000000E+000	0.0000000E+000	0.0000000E+000	-3.61592	0.0000000E+000	0.0000000E+000	0.0000000E+000	3.61592	15.8244	86.3841	-2.95472e-05	-1.99076e-06	-9.25466e-10	-1.98983e-06	0.250302	31500.3	14.6439	31485.7
0.316193	18.0582	1.33035	18.1071	-4.21337	33.733	0.250418	-0.00853461	378358	2042.37	1	12	0.00515881	0.000284906	0	-0.000184959	-5.54027e-05	2.94631e-06	-0.479968	0.0103414	0.010341	8.66288e-05	-4.21124	18.1174	18.0685	1.33043	0.0550777	0.00405758	0.055227	4.21337	2.04237e+06	2.77232e+07	2.77983e+07	-85.7866	0.0000000E+000	0.0000000E+000	0.0000000E+000	85.7866	0.0000000E+000	0.0000000E+000	0.0000000E+000	-85.7866	0.0000000E+000	0.0000000E+000	0.0000000E+000	-4.21337	0.0000000E+000	0.0000000E+000	0.0000000E+000	4.21337	13.574	85.7866	-3.53234e-05	-2.13722e-06	4.72841e-10	-2.13769e-06	0.250473	29341.4	6.49154	29347.9
0.215268	18.0799	2.0885	18.2001	-6.58932	43.5265	0.25042	-0.0167866	354002	4661.51	1	12	0.00515738	0.00028337	0	-0.000237313	1.86979e-06	1.48767e-06	-44.5685	0.00524993	0.00374011	0.0036842	-6.59949	18.2043	18.0837	2.09219	0.0545817	0.006305	0.0549446	6.58932	4.6615e+06	4.03541e+07	4.06224e+07	-83.4107	0.0000000E+000	0.0000000E+000	0.0000000E+000	83.4107	0.0000000E+000	0.0000000E+000	0.0000000E+000	-83.4107	0.0000000E+000	0.0000000E+000	0.0000000E+000	-6.58932	0.0000000E+000	0.0000000E+000	0.0000000E+000	6.58932	8.65688	83.4107	-5.2354e-05	-4.2037e-06	-3.13874e-11	-4.20367e-06	0.250418	14917.8	0.111386	14917.7
0.146929	18.4518	2.21861	18.5847	-6.85622	57.8649	0.250413	-0.00707612	488238	6957.95	1	12	0.00515534	0.000277396	0	-0.000236898	0.000211869	2.28379e-06	30.944	0.00823296	0.00706116	-0.00423339	-6.84067	18.5913	18.4589	2.21438	0.0534228	0.00642345	0.0538076	6.85622	6.95795e+06	5.78682e+07	5.8285e+07	-83.1438	0.0000000E+000	0.0000000E+000	0.0000000E+000	83.1438	0.0000000E+000	0.0000000E+000	0.0000000E+000	-83.1438	0.0000000E+000	0.0000000E+000	0.0000000E+000	-6.85622	0.0000000E+000	0.0000000E+000	0.0000000E+000	6.85622	8.31683	83.1438	4.14442e-07	-1.77195e-06	-1.49921e-09	-1.77045e-06	0.250201	35388.4	29.9414	35358.5
0.0999041	18.7208	2.92041	18.9472	-8.86658	78.9422	0.25042	-0.00637124	545497	12959.6	1	12	0.00515834	0.000272248	0	-0.000204343	-9.35844e-05	2.56643e-06	-23.671	0.00942684	0.00863372	0.00378472	-8.87386	18.9563	18.7294	2.9242	0.0521475	0.00813492	0.0527782	8.86658	1.29595e+07	8.3075e+07	8.40797e+07	-81.1334	0.0000000E+000	0.0000000E+000	0.0000000E+000	81.1334	0.0000000E+000	0.0000000E+000	0.0000000E+000	-81.1334	0.0000000E+000	0.0000000E+000	0.0000000E+000	-8.86658	0.0000000E+000	0.0000000E+000	0.0000000E+000	8.86658	6.41033	81.1334	3.25552e-05	-1.59549e-06	5.96249e-10	-1.59608e-06	0.250513	39304.7	14.6886	39319.4
0.0680626	19.124	3.82677	19.5031	-11.3156	109.87	0.250422	-0.00460376	611054	23525.4	1	12	0.0051576	0.000264451	0	-0.000144627	0.00023096	2.95242e-06	-1.18035	0.0111643	0.011162	0.00022998	-11.3099	19.5141	19.1351	3.827	0.0502773	0.0100606	0.051274	11.3156	2.35254e+07	1.17566e+08	1.19897e+08	-78.6844	0.0000000E+000	0.0000000E+000	0.0000000E+000	78.6844	0.0000000E+000	0.0000000E+000	0.0000000E+000	-78.6844	0.0000000E+000	0.0000000E+000	0.0000000E+000	-11.3156	0.0000000E+000	0.0000000E+000	0.0000000E+000	11.3156	4.99742	78.6844	5.97165e-05	-1.15288e-06	-1.06329e-09	-1.15182e-06	0.250191	54395.1	50.1676	54344.9
0.0464052	19.7418	5.09174	20.3879	-14.4623	155.22	0.250418	-0.00237659	673577	42012.2	1	12	0.00515711	0.00025295	0	-8.51832e-05	-9.35844e-05	1.72087e-06	-20.7415	0.00680322	0.00636229	0.00240938	-14.4644	20.3946	19.7482	5.09415	0.0474945	0.0122496	0.0490487	14.4623	4.20122e+07	1.62891e+08	1.68221e+08	-75.5377	0.0000000E+000	0.0000000E+000	0.0000000E+000	75.5377	0.0000000E+000	0.0000000E+000	0.0000000E+000	-75.5377	0.0000000E+000	0.0000000E+000	0.0000000E+000	-14.4623	0.0000000E+000	0.0000000E+000	0.0000000E+000	14.4623	3.87723	75.5377	5.94436e-05	-5.95141e-07	2.22412e-10	-5.95364e-07	0.250511	105368	39.3775	105408
0.0315922	20.4672	7.01034	21.6345	-18.9071	221.826	0.250416	-0.00186468	718623	75454.7	1	12	0.00515852	0.00023844	0	-0.000139337	9.7324e-05	2.43258e-06	2.85908	0.0102021	0.0101894	-0.000508877	-18.8971	21.644	20.4774	7.00983	0.0437286	0.0149777	0.0462225	18.9071	7.54547e+07	2.20295e+08	2.32859e+08	-71.0928	0.0000000E+000	0.0000000E+000	0.0000000E+000	71.0928	0.0000000E+000	0.0000000E+000	0.0000000E+000	-71.0928	0.0000000E+000	0.0000000E+000	0.0000000E+000	-18.9071	0.0000000E+000	0.0000000E+000	0.0000000E+000	18.9071	2.91957	71.0928	-5.41541e-05	-4.66947e-07	-1.81478e-10	-4.66765e-07	0.250319	134294	52.1934	134242
0.0215268	21.2811	9.38026	23.2568	-23.7868	319.564	0.250412	-0.0021475	788181	128221	1	12	0.00515912	0.000221833	0	-0.000424775	-5.54027e-05	1.50028e-06	-14.7914	0.00676311	0.00653899	0.00172662	-23.7842	23.2634	21.2877	9.38199	0.0393457	0.0173427	0.0429983	23.7868	1.28221e+08	2.90896e+08	3.17901e+08	-66.2132	0.0000000E+000	0.0000000E+000	0.0000000E+000	66.2132	0.0000000E+000	0.0000000E+000	0.0000000E+000	-66.2132	0.0000000E+000	0.0000000E+000	0.0000000E+000	-23.7868	0.0000000E+000	0.0000000E+000	0.0000000E+000	23.7868	2.26872	66.2132	-0.000285438	-5.37761e-07	1.18978e-10	-5.3788e-07	0.250468	116606	25.7987	116632
0.0146812	22.7363	12.4317	25.913	-28.669	462.866	0.250406	-0.00261823	872022	200703	1	12	0.00515977	0.000199119	0	-0.000941615	0.000116415	1.25741e-06	-14.1186	0.00631486	0.0061241	0.00154038	-28.6655	25.9192	22.7424	12.4333	0.0338596	0.0185138	0.0385906	28.669	2.00703e+08	3.67064e+08	4.18351e+08	-61.331	0.0000000E+000	0.0000000E+000	0.0000000E+000	61.331	0.0000000E+000	0.0000000E+000	0.0000000E+000	-61.331	0.0000000E+000	0.0000000E+000	0.0000000E+000	-28.669	0.0000000E+000	0.0000000E+000	0.0000000E+000	28.669	1.82889	61.331	-0.00051684	-6.55623e-07	-3.04801e-10	-6.55318e-07	0.25029	95639.4	44.4631	95595

0.0100092	24.9894	16.782	30.1016	-33.8839	673.049	0.250402	-0.00318409	947500	294501	1	12	0.00515827	0.000171362	0	-0.0014914	0.000250051	2.42383e-06	64.9893	0.0141445	0.00598011	-0.0128181	-33.8573	30.0994	24.9954	16.7691	0.0275789	0.018521	0.0332209	33.8839	2.94501e+08	4.3853e+08	5.28242e+08	-56.1161	0.0000000E+000	0.0000000E+000	0.0000000E+000	56.1161	0.0000000E+000	0.0000000E+000	0.0000000E+000	-56.1161	0.0000000E+000	0.0000000E+000	0.0000000E+000	-33.8839	0.0000000E+000	0.0000000E+000	0.0000000E+000	33.8839	1.48906	56.1161	-0.000549783	-7.97302e-07	-7.96184e-10	-7.96506e-07	0.250152	78641.7	78.5314	78563.1