File: txt/19000_R309_UA707_SOC00_C03.mpt
EC-Lab ASCII FILE
Nb header lines : 65

Potentio Electrochemical Impedance Spectroscopy

Run on channel : 3 (SN 65921)
Grouped channel(s) : 1, 2, 3, 4
User :
CE vs. WE compliance from -10 V to 10 V
Electrode connection : standard
Potential control : Ewe
Ewe ctrl range : min = -10.00 V, max = 10.00 V
Safety Limits :
	Do not start on E overload
Acquisition started on : 11/04/2025 15:54:15.751
Loaded Setting File :  C:\Users\Celltest\OneDrive - store-dot.com\Documents\EC-Lab\Data\@Biologic Test Protocols\anode half cell EIS SOC00.mps
Saved on :
	File : 18998_R309_UA707_SOC00_C03.mpr
	Directory : C:\Users\Celltest\OneDrive - store-dot.com\Documents\EC-Lab\Data\Charmaine\
	Host : 169.254.61.224
Device : VMP-3e (SN .003165)
Address : USB
EC-LAB for windows v11.62 (software)
Internet server v27.00 (firmware)
Command interpretor v12.03 (firmware)
Electrode material :
Initial state :
Electrolyte :
Comments :
Electrode surface area : 0.001 cm²
Characteristic mass : 0.001 g
Equivalent Weight : 0.000 g/eq.
Density : 0.000 g/cm3
Volume (V) : 0.001 cm³
Record Ece
Cycle Definition : Charge/Discharge alternance
Mode                Single sine
E (V)               0.0000
vs.                 Eoc
tE (h:m:s)          0:00:0.0000
record              0
dI                  0.000
unit dI             mA
dt (s)              0.000
fi                  100.000
unit fi             kHz
ff                  10.000
unit ff             mHz
Nd                  6
Points              per decade
spacing             Logarithmic
Va (mV)             5.0
pw                  0.10
Na                  2
corr                0
E range min (V)     -10.000
E range max (V)     10.000
I Range             Auto
Bandwidth           5
nc cycles           0
goto Ns'            0
nr cycles           0
inc. cycle          0

freq/Hz	Re(Z)/Ohm	-Im(Z)/Ohm	|Z|/Ohm	Phase(Z)/deg	time/s	<Ewe>/V	<I>/mA	Cs/µF	Cp/µF	cycle number	I Range	|Ewe|/V	|I|/A	Ns	(Q-Qo)/mA.h	<Ece>/V	|Ece|/V	Phase(Zce)/deg	|Zce|/Ohm	Re(Zce)/Ohm	-Im(Zce)/Ohm	Phase(Zwe-ce)/deg	|Zwe-ce|/Ohm	Re(Zwe-ce)/Ohm	-Im(Zwe-ce)/Ohm	Re(Y)/Ohm-1	Im(Y)/Ohm-1	|Y|/Ohm-1	Phase(Y)/deg	Re(C)/nF	Im(C)/nF	|C|/nF	Phase(C)/deg	Re(M)	Im(M)	|M|	Phase(M)/deg	Re(Permittivity)	Im(Permittivity)	|Permittivity|	Phase(Permittivity)/deg	Re(Resistivity)/Ohm.cm	Im(Resistivity)/Ohm.cm	|Resistivity|/Ohm.cm	Phase(Resistivity)/deg	Re(Conductivity)/mS/cm	Im(Conductivity)/mS/cm	|Conductivity|/mS/cm	Phase(Conductivity)/deg	Tan(Delta)	Loss Angle(Delta)/deg	dq/mA.h	Pwe/W	Pce/W	Pwe-ce/W	<Ewe-Ece>/V	Rwe/Ohm	Rce/Ohm	Rwe-ce/Ohm		Ewe-Ece/V
100004	1.82182	0.610658	1.92144	-18.5307	1.72656	0.243807	-0.00138627	2.60619	0.263237	1	9	0.00450756	0.00234592	0	-3.40041e-06	-6.32348e-05	3.605e-05	88.6009	0.0153671	0.000375204	-0.0153625	-18.0917	1.91697	1.8222	0.595295	0.493459	0.165403	0.520442	18.5307	263.237	785.336	828.279	-71.4693	0.0000000E+000	0.0000000E+000	0.0000000E+000	71.4693	0.0000000E+000	0.0000000E+000	0.0000000E+000	-71.4693	0.0000000E+000	0.0000000E+000	0.0000000E+000	-18.5307	0.0000000E+000	0.0000000E+000	0.0000000E+000	18.5307	2.98338	71.4693	-3.40041e-06	-3.37982e-07	8.76603e-11	-3.3807e-07	0.24387	175873	45.6151	175919
68132	1.99908	0.66276	2.10608	-18.3421	2.23351	0.243823	3.0888e-05	3.52462	0.349042	1	9	0.00505769	0.00240148	0	-6.28349e-06	-2.50466e-05	2.32835e-05	71.1571	0.0096955	0.0031314	-0.0091759	-18.0783	2.10618	2.00221	0.653584	0.450694	0.14942	0.474817	18.3421	349.042	1052.81	1109.16	-71.6579	0.0000000E+000	0.0000000E+000	0.0000000E+000	71.6579	0.0000000E+000	0.0000000E+000	0.0000000E+000	-71.6579	0.0000000E+000	0.0000000E+000	0.0000000E+000	-18.3421	0.0000000E+000	0.0000000E+000	0.0000000E+000	18.3421	3.01629	71.6579	-2.88308e-06	7.53118e-09	-7.73639e-13	7.53196e-09	0.243848	7.89378e+06	810.887	7.89459e+06
46420.4	2.17913	0.704887	2.2903	-17.925	2.74052	0.243808	0.00323813	4.86398	0.460731	1	9	0.00507098	0.00221411	0	3.11323e-06	1.31415e-05	1.41327e-05	25.3675	0.00638301	0.00576755	-0.00273463	-17.8157	2.29495	2.18489	0.702153	0.415431	0.13438	0.436625	17.925	460.731	1424.33	1496.99	-72.075	0.0000000E+000	0.0000000E+000	0.0000000E+000	72.075	0.0000000E+000	0.0000000E+000	0.0000000E+000	-72.075	0.0000000E+000	0.0000000E+000	0.0000000E+000	-17.925	0.0000000E+000	0.0000000E+000	0.0000000E+000	17.925	3.09145	72.075	9.39672e-06	7.89483e-07	4.25539e-11	7.8944e-07	0.243795	75292.9	4.05836	75288.8
31621.1	2.3615	0.741914	2.4753	-17.4412	3.12354	0.243807	0.00200744	6.78405	0.609451	1	9	0.00537523	0.00217154	0	4.6563e-06	-5.95257e-06	1.36122e-05	-0.274207	0.00626847	0.0062684	2.99997e-05	-17.3984	2.48129	2.36777	0.741944	0.385417	0.121087	0.403991	17.4412	609.451	1939.88	2033.36	-72.5588	0.0000000E+000	0.0000000E+000	0.0000000E+000	72.5588	0.0000000E+000	0.0000000E+000	0.0000000E+000	-72.5588	0.0000000E+000	0.0000000E+000	0.0000000E+000	-17.4412	0.0000000E+000	0.0000000E+000	0.0000000E+000	17.4412	3.18299	72.5588	1.54306e-06	4.89428e-07	-1.19494e-11	4.8944e-07	0.243813	121452	2.96526	121455
21544.7	2.54924	0.773799	2.66409	-16.8852	3.50652	0.243819	0.0068183	9.54666	0.805396	1	9	0.00520735	0.00195464	0	6.6512e-06	-2.50466e-05	7.01014e-06	8.27141	0.00358641	0.0035491	-0.00051595	-16.8524	2.66734	2.55279	0.773283	0.35918	0.109026	0.375362	16.8852	805.395	2653.33	2772.88	-73.1148	0.0000000E+000	0.0000000E+000	0.0000000E+000	73.1148	0.0000000E+000	0.0000000E+000	0.0000000E+000	-73.1148	0.0000000E+000	0.0000000E+000	0.0000000E+000	-16.8852	0.0000000E+000	0.0000000E+000	0.0000000E+000	16.8852	3.29445	73.1148	1.9949e-06	1.66243e-06	-1.70775e-10	1.6626e-06	0.243844	35759.6	3.67344	35763.2
14678.6	2.72003	0.817194	2.84013	-16.7222	3.76554	0.243808	0.00972719	13.2682	1.09846	1	9	0.00527738	0.00185815	0	8.76668e-06	-0.000196893	1.2235e-05	-79.3397	0.00658451	0.00121804	0.00647087	-16.84	2.84317	2.72124	0.823665	0.337207	0.101309	0.352096	16.7222	1098.46	3656.22	3817.66	-73.2778	0.0000000E+000	0.0000000E+000	0.0000000E+000	73.2778	0.0000000E+000	0.0000000E+000	0.0000000E+000	-73.2778	0.0000000E+000	0.0000000E+000	0.0000000E+000	-16.7222	0.0000000E+000	0.0000000E+000	0.0000000E+000	16.7222	3.3285	73.2778	2.11548e-06	2.37157e-06	-1.91522e-09	2.37348e-06	0.244005	25064.6	20.2415	25084.8
10002.2	2.90269	0.872511	3.03099	-16.7301	4.02452	0.243811	0.00748957	18.237	1.51121	1	9	0.00516118	0.0017028	0	8.02015e-06	-6.32348e-05	6.58344e-06	-3.55819	0.00386624	0.00385879	0.000239948	-16.7134	3.03476	2.90655	0.872751	0.31596	0.0949733	0.329925	16.7301	1511.21	5027.54	5249.75	-73.2699	0.0000000E+000	0.0000000E+000	0.0000000E+000	73.2699	0.0000000E+000	0.0000000E+000	0.0000000E+000	-73.2699	0.0000000E+000	0.0000000E+000	0.0000000E+000	-16.7301	0.0000000E+000	0.0000000E+000	0.0000000E+000	16.7301	3.32683	73.2699	-7.4653e-07	1.82604e-06	-4.73601e-10	1.82651e-06	0.243874	32553.4	8.44304	32561.8
6810.42	3.10659	0.926729	3.24187	-16.6104	4.28353	0.243808	0.00394668	25.217	2.06067	1	9	0.00508473	0.00156846	0	6.77835e-06	-0.000235081	3.68896e-05	-133.664	0.0235197	-0.0162386	0.0170142	-16.9818	3.23124	3.09035	0.943743	0.295592	0.0881784	0.308464	16.6104	2060.67	6907.79	7208.6	-73.3896	0.0000000E+000	0.0000000E+000	0.0000000E+000	73.3896	0.0000000E+000	0.0000000E+000	0.0000000E+000	-73.3896	0.0000000E+000	0.0000000E+000	0.0000000E+000	-16.6104	0.0000000E+000	0.0000000E+000	0.0000000E+000	16.6104	3.35221	73.3896	-1.24179e-06	9.62231e-07	-9.2779e-10	9.63159e-07	0.244043	61775.5	59.5644	61835
4646	3.31161	1.03464	3.46947	-17.3503	4.54963	0.24376	-0.0135067	33.1094	2.94445	1	9	0.0050009	0.0014414	0	7.11167e-06	-8.23288e-05	9.82034e-06	56.9404	0.00681305	0.0037166	-0.00571004	-17.242	3.47132	3.31532	1.02893	0.275114	0.0859534	0.288228	17.3503	2944.45	9424.39	9873.65	-72.6497	0.0000000E+000	0.0000000E+000	0.0000000E+000	72.6497	0.0000000E+000	0.0000000E+000	0.0000000E+000	-72.6497	0.0000000E+000	0.0000000E+000	0.0000000E+000	-17.3503	0.0000000E+000	0.0000000E+000	0.0000000E+000	17.3503	3.20073	72.6497	3.33315e-07	-3.2924e-06	1.11199e-09	-3.29351e-06	0.243842	18047.3	6.0954	18053.4
3163.08	3.52882	1.16569	3.71637	-18.2801	4.92362	0.243692	-0.0054886	43.1647	4.24671	1	9	0.00494069	0.00132944	0	5.39805e-06	-5.95257e-06	8.78047e-06	68.928	0.00660464	0.00237464	-0.00616298	-18.1784	3.7167	3.5312	1.15952	0.2555	0.0844001	0.26908	18.2801	4246.71	12855.9	13539.1	-71.7199	0.0000000E+000	0.0000000E+000	0.0000000E+000	71.7199	0.0000000E+000	0.0000000E+000	0.0000000E+000	-71.7199	0.0000000E+000	0.0000000E+000	0.0000000E+000	-18.2801	0.0000000E+000	0.0000000E+000	0.0000000E+000	18.2801	3.02725	71.7199	-1.71362e-06	-1.33753e-06	3.26713e-11	-1.33756e-06	0.243698	44399.7	1.08453	44400.8
2155.69	3.77217	1.30746	3.99233	-19.1167	5.62082	0.24377	-0.0183542	56.4683	6.05632	1	10	0.00500669	0.00125408	0	7.00052e-06	1.31415e-05	9.41702e-06	13.9246	0.00750913	0.00728846	-0.00180703	-19.058	3.99863	3.77946	1.30566	0.236667	0.0820305	0.25048	19.1167	6056.32	17473.2	18493	-70.8833	0.0000000E+000	0.0000000E+000	0.0000000E+000	70.8833	0.0000000E+000	0.0000000E+000	0.0000000E+000	-70.8833	0.0000000E+000	0.0000000E+000	0.0000000E+000	-19.1167	0.0000000E+000	0.0000000E+000	0.0000000E+000	19.1167	2.88511	70.8833	1.60247e-06	-4.4742e-06	-2.41201e-10	-4.47396e-06	0.243757	13281.5	0.715995	13280.8
1468.59	4.05756	1.49735	4.32503	-20.2554	6.07205	0.243772	-0.0176345	72.3763	8.67491	1	10	0.00496741	0.00114853	0	4.13582e-06	5.13296e-05	6.59874e-06	77.2751	0.0057454	0.00126554	-0.00560428	-20.18	4.32428	4.05883	1.49175	0.216914	0.080047	0.231212	20.2554	8674.91	23507.5	25057.1	-69.7446	0.0000000E+000	0.0000000E+000	0.0000000E+000	69.7446	0.0000000E+000	0.0000000E+000	0.0000000E+000	-69.7446	0.0000000E+000	0.0000000E+000	0.0000000E+000	-20.2554	0.0000000E+000	0.0000000E+000	0.0000000E+000	20.2554	2.70983	69.7446	-2.86471e-06	-4.29879e-06	-9.05172e-10	-4.29789e-06	0.24372	13823.6	2.91075	13820.7
1000.32	4.3871	1.73076	4.71616	-21.5298	6.52285	0.243789	-0.0150206	91.927	12.3806	1	10	0.00493124	0.00104561	0	2.16823e-06	-8.23288e-05	2.69175e-06	-35.6344	0.00257434	0.0020923	0.00149984	-21.5375	4.71866	4.38919	1.73226	0.197242	0.0778145	0.212037	21.5298	12380.6	31382	33735.9	-68.4702	0.0000000E+000	0.0000000E+000	0.0000000E+000	68.4702	0.0000000E+000	0.0000000E+000	0.0000000E+000	-68.4702	0.0000000E+000	0.0000000E+000	0.0000000E+000	-21.5298	0.0000000E+000	0.0000000E+000	0.0000000E+000	21.5298	2.53477	68.4702	-1.96759e-06	-3.66184e-06	1.23662e-09	-3.66308e-06	0.243871	16230.3	5.48108	16235.8
681.09	4.76526	2.03114	5.18008	-23.0856	6.9726	0.243777	-0.0169857	115.047	17.6882	1	10	0.00490467	0.000946832	0	-5.38375e-07	0.000204082	4.19301e-06	-52.5655	0.00442847	0.00269186	0.00351642	-23.1097	5.18394	4.76795	2.03466	0.177588	0.075695	0.193047	23.0856	17688.2	41498.2	45110.6	-66.9144	0.0000000E+000	0.0000000E+000	0.0000000E+000	66.9144	0.0000000E+000	0.0000000E+000	0.0000000E+000	-66.9144	0.0000000E+000	0.0000000E+000	0.0000000E+000	-23.0856	0.0000000E+000	0.0000000E+000	0.0000000E+000	23.0856	2.3461	66.9144	-2.7066e-06	-4.14072e-06	-3.46647e-09	-4.13725e-06	0.243573	14351.9	12.015	14339.9
463.961	5.22658	2.40202	5.75211	-24.6824	7.4243	0.243776	-0.0167023	142.811	24.9035	1	10	0.00488507	0.000849265	0	-2.21174e-06	-0.000101423	6.03669e-06	-43.6732	0.00710813	0.00514124	0.00490848	-24.7054	5.75884	5.23172	2.40692	0.157966	0.0725974	0.173849	24.6824	24903.5	54187.8	59636.4	-65.3176	0.0000000E+000	0.0000000E+000	0.0000000E+000	65.3176	0.0000000E+000	0.0000000E+000	0.0000000E+000	-65.3176	0.0000000E+000	0.0000000E+000	0.0000000E+000	-24.6824	0.0000000E+000	0.0000000E+000	0.0000000E+000	24.6824	2.17591	65.3176	-1.67336e-06	-4.07161e-06	1.69399e-09	-4.07331e-06	0.243877	14595.4	6.0724	14601.4
316.316	5.81835	2.8214	6.46633	-25.8694	7.872	0.243782	-0.0148229	178.334	33.9506	1	10	0.00486452	0.000752284	0	-4.3048e-06	3.22356e-05	6.72866e-06	-50.3783	0.00894431	0.00570392	0.00688955	-25.9022	6.47447	5.82405	2.82829	0.13915	0.0674758	0.154647	25.8694	33950.6	70013.6	77811	-64.1306	0.0000000E+000	0.0000000E+000	0.0000000E+000	64.1306	0.0000000E+000	0.0000000E+000	0.0000000E+000	-64.1306	0.0000000E+000	0.0000000E+000	0.0000000E+000	-25.8694	0.0000000E+000	0.0000000E+000	0.0000000E+000	25.8694	2.06222	64.1306	-2.09307e-06	-3.61357e-06	-4.77826e-10	-3.61309e-06	0.24375	16446.3	2.17471	16444.1
215.345	6.5907	3.29572	7.3688	-26.5676	8.32154	0.243779	-0.0152406	224.252	44.8584	1	10	0.00486399	0.00066008	0	-5.70686e-06	0.000108612	7.51612e-06	-27.6501	0.0113867	0.0100863	0.00528422	-26.5693	7.38018	6.60079	3.301	0.121378	0.0606956	0.135707	26.5676	44858.4	89706.7	100297	-63.4324	0.0000000E+000	0.0000000E+000	0.0000000E+000	63.4324	0.0000000E+000	0.0000000E+000	0.0000000E+000	-63.4324	0.0000000E+000	0.0000000E+000	0.0000000E+000	-26.5676	0.0000000E+000	0.0000000E+000	0.0000000E+000	26.5676	1.99978	63.4324	-1.40206e-06	-3.71533e-06	-1.65531e-09	-3.71367e-06	0.24367	15995.4	7.12649	15988.3
146.737	7.56343	3.72077	8.42909	-26.1945	8.76754	0.243776	-0.0157514	291.505	56.8003	1	10	0.00484578	0.000574887	0	-7.09018e-06	-2.50466e-05	8.84058e-06	78.1831	0.0153779	0.00314917	-0.015052	-26.0932	8.42529	7.56658	3.70572	0.106453	0.0523686	0.118637	26.1945	56800.3	115461	128676	-63.8055	0.0000000E+000	0.0000000E+000	0.0000000E+000	63.8055	0.0000000E+000	0.0000000E+000	0.0000000E+000	-63.8055	0.0000000E+000	0.0000000E+000	0.0000000E+000	-26.1945	0.0000000E+000	0.0000000E+000	0.0000000E+000	26.1945	2.03276	63.8055	-1.38332e-06	-3.83983e-06	3.9452e-10	-3.84022e-06	0.243801	15476.5	1.59012	15478
100.032	8.72831	4.04494	9.62003	-24.8643	9.21877	0.243781	-0.0127161	393.341	69.541	1	10	0.00485144	0.000504307	0	-8.94939e-06	-0.00046421	7.80645e-06	19.1236	0.0154796	0.0146253	-0.00507121	-24.8004	9.63117	8.74294	4.03987	0.0943143	0.0437079	0.10395	24.8643	69541	150058	165388	-65.1357	0.0000000E+000	0.0000000E+000	0.0000000E+000	65.1357	0.0000000E+000	0.0000000E+000	0.0000000E+000	-65.1357	0.0000000E+000	0.0000000E+000	0.0000000E+000	-24.8643	0.0000000E+000	0.0000000E+000	0.0000000E+000	24.8643	2.15783	65.1357	-1.85922e-06	-3.09995e-06	5.90295e-09	-3.10585e-06	0.244245	19171	36.5056	19207.5
68.104	10.0041	4.10902	10.8151	-22.3295	9.68142	0.243791	-0.0101395	568.734	82.0963	1	10	0.00485231	0.00044866	0	-1.05105e-05	-0.000292364	7.93048e-06	-53.5705	0.0176759	0.0104966	0.0142218	-22.378	10.8302	10.0146	4.12324	0.0855297	0.0351298	0.0924632	22.3295	82096.3	199878	216081	-67.6705	0.0000000E+000	0.0000000E+000	0.0000000E+000	67.6705	0.0000000E+000	0.0000000E+000	0.0000000E+000	-67.6705	0.0000000E+000	0.0000000E+000	0.0000000E+000	-22.3295	0.0000000E+000	0.0000000E+000	0.0000000E+000	22.3295	2.43468	67.6705	-1.56115e-06	-2.47191e-06	2.96441e-09	-2.47488e-06	0.244084	24043.8	28.8342	24072.6
46.4415	11.2274	3.923	11.8931	-19.26	10.1177	0.243775	-0.017243	873.564	95.048	1	10	0.00484672	0.000407524	0	-1.23243e-05	5.13296e-05	3.68921e-06	-31.2091	0.00905273	0.00774264	0.00469079	-19.269	11.9019	11.2352	3.9277	0.0793765	0.0277351	0.0840824	19.26	95048	272023	288150	-70.74	0.0000000E+000	0.0000000E+000	0.0000000E+000	70.74	0.0000000E+000	0.0000000E+000	0.0000000E+000	-70.74	0.0000000E+000	0.0000000E+000	0.0000000E+000	-19.26	0.0000000E+000	0.0000000E+000	0.0000000E+000	19.26	2.86195	70.74	-1.81378e-06	-4.20342e-06	-8.85076e-10	-4.20253e-06	0.243724	14137.7	2.97684	14134.7
31.6296	12.3253	3.56252	12.8299	-16.1214	10.5475	0.243764	-0.0194468	1412.44	108.903	1	10	0.00484159	0.000377369	0	-1.52838e-05	0.000299552	1.09668e-05	-2.024	0.0290612	0.0290431	0.00102639	-16.0899	12.8581	12.3544	3.56355	0.074878	0.0216428	0.0779431	16.1214	108903	376774	392197	-73.8786	0.0000000E+000	0.0000000E+000	0.0000000E+000	73.8786	0.0000000E+000	0.0000000E+000	0.0000000E+000	-73.8786	0.0000000E+000	0.0000000E+000	0.0000000E+000	-16.1214	0.0000000E+000	0.0000000E+000	0.0000000E+000	16.1214	3.45972	73.8786	-2.95943e-06	-4.74041e-06	-5.82532e-09	-4.73459e-06	0.243464	12534.9	15.4037	12519.5
21.5517	13.2224	3.08677	13.5779	-13.1404	10.9685	0.243757	-0.0213187	2392.4	123.645	1	10	0.00483798	0.000356313	0	-1.77814e-05	-0.000120517	1.18731e-05	103.64	0.033322	-0.00785825	-0.0323822	-13.0147	13.5629	13.2145	3.05439	0.0717207	0.0167433	0.0736492	13.1404	123646	529642	543884	-76.8596	0.0000000E+000	0.0000000E+000	0.0000000E+000	76.8596	0.0000000E+000	0.0000000E+000	0.0000000E+000	-76.8596	0.0000000E+000	0.0000000E+000	0.0000000E+000	-13.1404	0.0000000E+000	0.0000000E+000	0.0000000E+000	13.1404	4.28356	76.8596	-2.49765e-06	-5.19657e-06	2.56926e-09	-5.19914e-06	0.243877	11434	5.65312	11439.6
14.6852	13.9053	2.63376	14.1525	-10.7252	11.6782	0.24381	-0.0104327	4114.95	142.511	1	11	0.00483412	0.000341572	0	-2.01378e-05	0.000127706	1.54427e-05	-21.955	0.0452107	0.0419319	0.0169033	-10.7607	14.1969	13.9472	2.65067	0.0694243	0.0131495	0.0706587	10.7252	142511	752408	765785	-79.2748	0.0000000E+000	0.0000000E+000	0.0000000E+000	79.2748	0.0000000E+000	0.0000000E+000	0.0000000E+000	-79.2748	0.0000000E+000	0.0000000E+000	0.0000000E+000	-10.7252	0.0000000E+000	0.0000000E+000	0.0000000E+000	10.7252	5.27963	79.2748	-2.35642e-06	-2.54361e-06	-1.33232e-09	-2.54228e-06	0.243683	23369.7	12.2409	23357.5
10.0032	14.4856	2.2288	14.656	-8.74713	12.1298	0.24381	-0.0103179	7138.55	165.089	1	11	0.00484707	0.000330721	0	-2.20549e-05	-0.000254175	1.36812e-05	-103.366	0.0413677	-0.00956269	0.0402472	-8.90836	14.6528	14.476	2.26905	0.0674376	0.0103762	0.0682312	8.74713	165089	1.07296e+06	1.08559e+06	-81.2529	0.0000000E+000	0.0000000E+000	0.0000000E+000	81.2529	0.0000000E+000	0.0000000E+000	0.0000000E+000	-81.2529	0.0000000E+000	0.0000000E+000	0.0000000E+000	-8.74713	0.0000000E+000	0.0000000E+000	0.0000000E+000	8.74713	6.49927	81.2529	-1.91706e-06	-2.5156e-06	2.62255e-09	-2.51823e-06	0.244064	23629.9	24.6345	23654.5
6.81719	14.8822	1.90047	15.0031	-7.2773	12.4695	0.243817	-0.0103839	12284.4	197.112	1	11	0.0048351	0.000322274	0	-2.0952e-05	-0.000177799	1.28616e-05	-20.4324	0.0399088	0.037398	0.0139323	-7.3119	15.042	14.9196	1.9144	0.066116	0.00844304	0.0666529	7.2773	197112	1.54355e+06	1.55609e+06	-82.7227	0.0000000E+000	0.0000000E+000	0.0000000E+000	82.7227	0.0000000E+000	0.0000000E+000	0.0000000E+000	-82.7227	0.0000000E+000	0.0000000E+000	0.0000000E+000	-7.2773	0.0000000E+000	0.0000000E+000	0.0000000E+000	7.2773	7.83083	82.7227	1.10288e-06	-2.53177e-06	1.84625e-09	-2.53361e-06	0.243995	23480.3	17.1226	23497.4
4.63925	15.2489	1.60918	15.3336	-6.02399	12.9534	0.243814	-0.00972758	21319	234.795	1	11	0.00483763	0.000315492	0	-2.54974e-05	3.22356e-05	1.06946e-05	98.7373	0.0338982	-0.00514928	-0.0335048	-5.90143	15.325	15.2438	1.57568	0.0648562	0.00684411	0.0652163	6.02399	234795	2.22497e+06	2.23732e+06	-83.976	0.0000000E+000	0.0000000E+000	0.0000000E+000	83.976	0.0000000E+000	0.0000000E+000	0.0000000E+000	-83.976	0.0000000E+000	0.0000000E+000	0.0000000E+000	-6.02399	0.0000000E+000	0.0000000E+000	0.0000000E+000	6.02399	9.4762	83.976	-4.54536e-06	-2.37172e-06	-3.13574e-10	-2.3714e-06	0.243782	25064.2	3.31383	25060.9
3.1604	15.5655	1.3806	15.6266	-5.06867	13.6464	0.243808	-0.00960769	36476.3	284.722	1	11	0.00484263	0.000309898	0	-2.96216e-05	0.000165894	4.61179e-06	-46.3787	0.0148817	0.0102667	0.0107731	-5.10467	15.6377	15.5757	1.39137	0.0637434	0.00565382	0.0639936	5.06867	284721	3.21006e+06	3.22267e+06	-84.9313	0.0000000E+000	0.0000000E+000	0.0000000E+000	84.9313	0.0000000E+000	0.0000000E+000	0.0000000E+000	-84.9313	0.0000000E+000	0.0000000E+000	0.0000000E+000	-5.06867	0.0000000E+000	0.0000000E+000	0.0000000E+000	5.06867	11.2744	84.9313	-4.12427e-06	-2.34243e-06	-1.59386e-09	-2.34084e-06	0.243642	25376.3	17.2668	25359
2.15577	15.797	1.22123	15.8441	-4.42061	14.65	0.243817	-0.00932979	60453.6	359.153	1	11	0.00484192	0.000305598	0	-2.90669e-05	1.31415e-05	6.61614e-06	46.5174	0.0216498	0.014898	-0.0157088	-4.35987	15.8578	15.8119	1.20552	0.0629272	0.00486475	0.063115	4.42061	359153	4.64576e+06	4.65962e+06	-85.5794	0.0000000E+000	0.0000000E+000	0.0000000E+000	85.5794	0.0000000E+000	0.0000000E+000	0.0000000E+000	-85.5794	0.0000000E+000	0.0000000E+000	0.0000000E+000	-4.42061	0.0000000E+000	0.0000000E+000	0.0000000E+000	4.42061	12.9353	85.5794	5.54745e-07	-2.27476e-06	-1.22607e-10	-2.27464e-06	0.243804	26133.2	1.40855	26131.8
1.46631	15.9999	1.09018	16.037	-3.89792	16.1115	0.24382	-0.00877723	99562.8	460.094	1	11	0.00484404	0.000302054	0	-2.54259e-05	-0.000177799	3.08455e-06	27.4643	0.0102119	0.009061	-0.00470968	-3.87894	16.0457	16.0089	1.08547	0.0622117	0.00423889	0.0623559	3.89792	460095	6.75253e+06	6.76818e+06	-86.1021	0.0000000E+000	0.0000000E+000	0.0000000E+000	86.1021	0.0000000E+000	0.0000000E+000	0.0000000E+000	-86.1021	0.0000000E+000	0.0000000E+000	0.0000000E+000	-3.89792	0.0000000E+000	0.0000000E+000	0.0000000E+000	3.89792	14.6764	86.1021	3.64096e-06	-2.14007e-06	1.56058e-09	-2.14163e-06	0.243998	27778.7	20.2569	27799
1.00006	16.1561	1.03562	16.1893	-3.66769	19.287	0.243819	-0.00746155	153671	628.837	1	12	0.00484346	0.000299177	0	-2.6198e-05	5.13296e-05	3.73226e-06	64.1226	0.0124751	0.00544471	-0.0112242	-3.62683	16.194	16.1616	1.0244	0.0616427	0.00395135	0.0617692	3.66769	628836	9.81012e+06	9.83025e+06	-86.3323	0.0000000E+000	0.0000000E+000	0.0000000E+000	86.3323	0.0000000E+000	0.0000000E+000	0.0000000E+000	-86.3323	0.0000000E+000	0.0000000E+000	0.0000000E+000	-3.66769	0.0000000E+000	0.0000000E+000	0.0000000E+000	3.66769	15.6004	86.3323	-7.72052e-07	-1.81927e-06	-3.82998e-10	-1.81888e-06	0.243768	32676.7	6.87922	32669.8
0.681362	16.3145	1.04883	16.3482	-3.67836	22.399	0.243823	-0.00538785	222709	916.654	1	12	0.00484684	0.000296475	0	-3.53196e-05	-4.41407e-05	2.23282e-06	-28.4871	0.00753122	0.00661938	0.0035921	-3.68943	16.3551	16.3212	1.05242	0.0610427	0.00392431	0.0611687	3.67836	916654	1.42586e+07	1.4288e+07	-86.3216	0.0000000E+000	0.0000000E+000	0.0000000E+000	86.3216	0.0000000E+000	0.0000000E+000	0.0000000E+000	-86.3216	0.0000000E+000	0.0000000E+000	0.0000000E+000	-3.67836	0.0000000E+000	0.0000000E+000	0.0000000E+000	3.67836	15.555	86.3216	-9.12166e-06	-1.31368e-06	2.37824e-10	-1.31392e-06	0.243867	45254.1	8.19263	45262.3
0.464091	16.4323	1.15892	16.4731	-4.03421	26.9556	0.243822	-0.00440627	295913	1464.6	1	12	0.00484443	0.00029408	0	-5.78024e-05	5.13296e-05	2.4257e-06	-21.938	0.00824843	0.00765115	0.00308164	-4.04302	16.481	16.44	1.162	0.0605545	0.00427071	0.0607049	4.03421	1.46459e+06	2.07665e+07	2.08181e+07	-85.9658	0.0000000E+000	0.0000000E+000	0.0000000E+000	85.9658	0.0000000E+000	0.0000000E+000	0.0000000E+000	-85.9658	0.0000000E+000	0.0000000E+000	0.0000000E+000	-4.03421	0.0000000E+000	0.0000000E+000	0.0000000E+000	4.03421	14.179	85.9658	-2.24828e-05	-1.07435e-06	-2.26172e-10	-1.07412e-06	0.243771	55335.3	11.6492	55323.7
0.316193	16.5794	1.35746	16.6349	-4.68073	33.6289	0.243832	-0.00477877	370801	2469.2	1	12	0.00484655	0.000291349	0	-9.20495e-05	-2.50466e-05	3.25555e-06	-1.7603	0.011174	0.0111688	0.000343246	-4.67877	16.646	16.5905	1.3578	0.0599142	0.00490556	0.0601147	4.68073	2.4692e+06	3.01577e+07	3.02586e+07	-85.3193	0.0000000E+000	0.0000000E+000	0.0000000E+000	85.3193	0.0000000E+000	0.0000000E+000	0.0000000E+000	-85.3193	0.0000000E+000	0.0000000E+000	0.0000000E+000	-4.68073	0.0000000E+000	0.0000000E+000	0.0000000E+000	4.68073	12.2135	85.3193	-3.42471e-05	-1.16521e-06	1.19692e-10	-1.16533e-06	0.243857	51024	5.24123	51029.2
0.215268	16.7699	1.68558	16.8544	-5.73964	43.4224	0.243829	-0.00608239	438624	4386.96	1	12	0.00484548	0.00028749	0	-0.00012985	3.22356e-05	2.92701e-06	-3.65383	0.0101812	0.0101606	0.000648832	-5.73838	16.8646	16.7801	1.68623	0.0590343	0.00593365	0.0593317	5.73964	4.38696e+06	4.36461e+07	4.3866e+07	-84.2604	0.0000000E+000	0.0000000E+000	0.0000000E+000	84.2604	0.0000000E+000	0.0000000E+000	0.0000000E+000	-84.2604	0.0000000E+000	0.0000000E+000	0.0000000E+000	-5.73964	0.0000000E+000	0.0000000E+000	0.0000000E+000	5.73964	9.94905	84.2604	-3.78007e-05	-1.48306e-06	-1.96069e-10	-1.48287e-06	0.243797	40087.7	5.29982	40082.4
0.146929	17.0088	2.22665	17.1539	-7.45828	57.7607	0.243826	-0.00689753	486476	8196.69	1	12	0.00484488	0.000282436	0	-0.00015277	0.000280458	1.66829e-06	8.14646	0.00590679	0.00584718	-0.000837015	-7.45297	17.1596	17.0146	2.22581	0.0578025	0.00756702	0.0582957	7.45828	8.19669e+06	6.26123e+07	6.31466e+07	-82.5417	0.0000000E+000	0.0000000E+000	0.0000000E+000	82.5417	0.0000000E+000	0.0000000E+000	0.0000000E+000	-82.5417	0.0000000E+000	0.0000000E+000	0.0000000E+000	-7.45828	0.0000000E+000	0.0000000E+000	0.0000000E+000	7.45828	7.63873	82.5417	-2.29203e-05	-1.6818e-06	-1.93447e-09	-1.67986e-06	0.243545	35349.7	40.6607	35309
0.0999041	17.2432	2.973	17.4976	-9.78252	78.8368	0.243823	-0.00599979	535848	15469.4	1	12	0.00484546	0.000276921	0	-0.000136078	8.95178e-05	2.389e-06	39.3982	0.00862701	0.00666656	-0.00547562	-9.76115	17.5033	17.2499	2.96753	0.0563196	0.0097104	0.0571506	9.78252	1.54694e+07	8.97215e+07	9.10454e+07	-80.2175	0.0000000E+000	0.0000000E+000	0.0000000E+000	80.2175	0.0000000E+000	0.0000000E+000	0.0000000E+000	-80.2175	0.0000000E+000	0.0000000E+000	0.0000000E+000	-9.78252	0.0000000E+000	0.0000000E+000	0.0000000E+000	9.78252	5.79993	80.2175	1.66926e-05	-1.46289e-06	-5.37088e-10	-1.46235e-06	0.243733	40638.6	14.9201	40623.6
0.0680626	17.5883	3.91582	18.0189	-12.5515	109.763	0.243822	-0.00487511	597157	28201.9	1	12	0.00484592	0.000268935	0	-7.66423e-05	-0.000158705	2.94571e-06	14.7511	0.0109532	0.0105922	-0.00278892	-12.5356	18.0286	17.5989	3.91303	0.054171	0.0120605	0.0554973	12.5515	2.82018e+07	1.26671e+08	1.29773e+08	-77.4485	0.0000000E+000	0.0000000E+000	0.0000000E+000	77.4485	0.0000000E+000	0.0000000E+000	0.0000000E+000	-77.4485	0.0000000E+000	0.0000000E+000	0.0000000E+000	-12.5515	0.0000000E+000	0.0000000E+000	0.0000000E+000	12.5515	4.49159	77.4485	5.94355e-05	-1.18866e-06	7.73704e-10	-1.18943e-06	0.24398	50013.6	32.5542	50046.2
0.0464052	18.2025	5.11796	18.9083	-15.7043	155.114	0.243829	-0.0026025	670126	49095.7	1	12	0.00484466	0.000256218	0	2.96389e-05	-0.000196893	2.86696e-06	-6.9376	0.0111895	0.0111076	0.00135157	-15.6991	18.9194	18.2136	5.11931	0.0509125	0.014315	0.0528867	15.7043	4.90957e+07	1.74614e+08	1.81384e+08	-74.2957	0.0000000E+000	0.0000000E+000	0.0000000E+000	74.2957	0.0000000E+000	0.0000000E+000	0.0000000E+000	-74.2957	0.0000000E+000	0.0000000E+000	0.0000000E+000	-15.7043	0.0000000E+000	0.0000000E+000	0.0000000E+000	15.7043	3.5566	74.2957	0.000106281	-6.34564e-07	5.12414e-10	-6.35077e-07	0.244026	93690.3	75.6554	93765.9
0.0315922	19.0457	7.0078	20.294	-20.201	221.72	0.243822	-0.00185465	718884	85720.9	1	12	0.00484634	0.000238806	0	7.03183e-05	3.22356e-05	3.44511e-06	4.91922	0.0144264	0.0143732	-0.00123708	-20.1837	20.3071	19.06	7.00656	0.0462446	0.0170156	0.0492757	20.201	8.57209e+07	2.32971e+08	2.48241e+08	-69.799	0.0000000E+000	0.0000000E+000	0.0000000E+000	69.799	0.0000000E+000	0.0000000E+000	0.0000000E+000	-69.799	0.0000000E+000	0.0000000E+000	0.0000000E+000	-20.201	0.0000000E+000	0.0000000E+000	0.0000000E+000	20.201	2.71778	69.799	4.06793e-05	-4.52204e-07	-5.97856e-11	-4.52144e-07	0.24379	131465	17.381	131448
0.0215268	19.9014	9.53077	22.0659	-25.5897	319.458	0.24382	-0.00206797	775734	144720	1	12	0.00484712	0.000219666	0	-0.000104639	0.000223176	1.85561e-06	6.3878	0.00844742	0.00839498	-0.000939837	-25.5781	22.073	19.9098	9.52983	0.0408736	0.0195743	0.0453189	25.5897	1.4472e+08	3.02192e+08	3.35058e+08	-64.4103	0.0000000E+000	0.0000000E+000	0.0000000E+000	64.4103	0.0000000E+000	0.0000000E+000	0.0000000E+000	-64.4103	0.0000000E+000	0.0000000E+000	0.0000000E+000	-25.5897	0.0000000E+000	0.0000000E+000	0.0000000E+000	25.5897	2.08812	64.4103	-0.000174958	-5.04212e-07	-4.61521e-10	-5.03751e-07	0.243597	117903	107.921	117796
0.0146812	21.1636	12.6115	24.6363	-30.7911	462.759	0.243823	-0.00249943	859590	225256	1	12	0.00484552	0.000196682	0	-0.000580031	0.000204082	1.87888e-06	56.7932	0.00955286	0.00523174	-0.00799287	-30.7689	24.6367	21.1688	12.6035	0.0348689	0.0207786	0.0405905	30.7911	2.25256e+08	3.78005e+08	4.40032e+08	-59.2089	0.0000000E+000	0.0000000E+000	0.0000000E+000	59.2089	0.0000000E+000	0.0000000E+000	0.0000000E+000	-59.2089	0.0000000E+000	0.0000000E+000	0.0000000E+000	-30.7911	0.0000000E+000	0.0000000E+000	0.0000000E+000	30.7911	1.67811	59.2089	-0.000475392	-6.09419e-07	-5.10089e-10	-6.08909e-07	0.243619	97551.5	81.6514	97469.9
0.0100092	23.2624	16.7541	28.6678	-35.7624	672.939	0.243818	-0.00317802	949073	324158	1	12	0.00484421	0.000168978	0	-0.00123767	-2.50466e-05	1.55266e-06	-32.2005	0.00918856	0.00777525	0.00489643	-35.7612	28.6769	23.2702	16.759	0.0283052	0.0203861	0.0348824	35.7624	3.24158e+08	4.50079e+08	5.54662e+08	-54.2376	0.0000000E+000	0.0000000E+000	0.0000000E+000	54.2376	0.0000000E+000	0.0000000E+000	0.0000000E+000	-54.2376	0.0000000E+000	0.0000000E+000	0.0000000E+000	-35.7624	0.0000000E+000	0.0000000E+000	0.0000000E+000	35.7624	1.38846	54.2376	-0.000657638	-7.74857e-07	7.95986e-11	-7.74937e-07	0.243843	76720.1	7.88121	76728