File: txt/19008_R308_UA709_SOC00_C07.mpt
EC-Lab ASCII FILE
Nb header lines : 66

Potentio Electrochemical Impedance Spectroscopy

Run on channel : 7 (SN 66126)
Grouped channel(s) : 7, 8
User :
CE vs. WE compliance from -10 V to 10 V
Electrode connection : standard
Potential control : Ewe
Ewe ctrl range : min = -10.00 V, max = 10.00 V
Safety Limits :
	Do not start on E overload
Acquisition started on : 11/04/2025 16:09:03.172
Technique started on : 11/04/2025 16:09:04.899
Loaded Setting File :  C:\Users\Celltest\OneDrive - store-dot.com\Documents\EC-Lab\Data\@Biologic Test Protocols\anode half cell EIS SOC00.mps
Saved on :
	File : 19008_R308_UA709_SOC00_C07.mpr
	Directory : C:\Users\Celltest\OneDrive - store-dot.com\Documents\EC-Lab\Data\Charmaine\
	Host : 169.254.61.224
Device : VMP-3e (SN .003165)
Address : USB
EC-LAB for windows v11.62 (software)
Internet server v27.00 (firmware)
Command interpretor v12.03 (firmware)
Electrode material :
Initial state :
Electrolyte :
Comments :
Electrode surface area : 0.001 cm²
Characteristic mass : 0.001 g
Equivalent Weight : 0.000 g/eq.
Density : 0.000 g/cm3
Volume (V) : 0.001 cm³
Record Ece
Cycle Definition : Charge/Discharge alternance
Mode                Single sine
E (V)               0.0000
vs.                 Eoc
tE (h:m:s)          0:00:0.0000
record              0
dI                  0.000
unit dI             mA
dt (s)              0.000
fi                  100.000
unit fi             kHz
ff                  10.000
unit ff             mHz
Nd                  6
Points              per decade
spacing             Logarithmic
Va (mV)             5.0
pw                  0.10
Na                  2
corr                0
E range min (V)     -10.000
E range max (V)     10.000
I Range             Auto
Bandwidth           5
nc cycles           0
goto Ns'            0
nr cycles           0
inc. cycle          0

freq/Hz	Re(Z)/Ohm	-Im(Z)/Ohm	|Z|/Ohm	Phase(Z)/deg	time/s	<Ewe>/V	<I>/mA	Cs/µF	Cp/µF	cycle number	I Range	|Ewe|/V	|I|/A	Ns	(Q-Qo)/mA.h	<Ece>/V	|Ece|/V	Phase(Zce)/deg	|Zce|/Ohm	Re(Zce)/Ohm	-Im(Zce)/Ohm	Phase(Zwe-ce)/deg	|Zwe-ce|/Ohm	Re(Zwe-ce)/Ohm	-Im(Zwe-ce)/Ohm	Re(Y)/Ohm-1	Im(Y)/Ohm-1	|Y|/Ohm-1	Phase(Y)/deg	Re(C)/nF	Im(C)/nF	|C|/nF	Phase(C)/deg	Re(M)	Im(M)	|M|	Phase(M)/deg	Re(Permittivity)	Im(Permittivity)	|Permittivity|	Phase(Permittivity)/deg	Re(Resistivity)/Ohm.cm	Im(Resistivity)/Ohm.cm	|Resistivity|/Ohm.cm	Phase(Resistivity)/deg	Re(Conductivity)/mS/cm	Im(Conductivity)/mS/cm	|Conductivity|/mS/cm	Phase(Conductivity)/deg	Tan(Delta)	Loss Angle(Delta)/deg	dq/mA.h	Pwe/W	Pce/W	Pwe-ce/W	<Ewe-Ece>/V	Rwe/Ohm	Rce/Ohm	Rwe-ce/Ohm		Ewe-Ece/V
100004	2.24823	0.943762	2.43828	-22.7717	1.72654	0.241651	0.0215297	1.68633	0.252638	1	9	0.00453374	0.0018594	0	2.46373e-06	-5.38653e-05	3.91912e-05	59.4699	0.0210773	0.0107071	-0.0181552	-22.2816	2.44121	2.25893	0.925607	0.378158	0.158743	0.410125	22.7717	252.638	601.834	652.71	-67.2283	0.0000000E+000	0.0000000E+000	0.0000000E+000	67.2283	0.0000000E+000	0.0000000E+000	0.0000000E+000	-67.2283	0.0000000E+000	0.0000000E+000	0.0000000E+000	-22.7717	0.0000000E+000	0.0000000E+000	0.0000000E+000	22.7717	2.3822	67.2283	2.46373e-06	5.20269e-06	-1.15971e-09	5.20385e-06	0.241705	11224.1	2.5019	11226.6
68132	2.52393	1.0796	2.74513	-23.1586	2.10954	0.241643	0.0404829	2.16375	0.33466	1	9	0.00547154	0.00199318	0	4.57129e-06	-0.000225544	2.78466e-05	28.6697	0.013971	0.0122581	-0.00670271	-22.93	2.75379	2.53619	1.0729	0.334927	0.143263	0.364281	23.1586	334.66	782.382	850.952	-66.8414	0.0000000E+000	0.0000000E+000	0.0000000E+000	66.8414	0.0000000E+000	0.0000000E+000	0.0000000E+000	-66.8414	0.0000000E+000	0.0000000E+000	0.0000000E+000	-23.1586	0.0000000E+000	0.0000000E+000	0.0000000E+000	23.1586	2.33784	66.8414	2.10756e-06	9.7824e-06	-9.13068e-09	9.79153e-06	0.241868	5969.01	5.57134	5974.58
46420.4	2.83227	1.19965	3.07586	-22.9558	2.61852	0.241682	0.0382487	2.85796	0.434744	1	9	0.00502261	0.00163291	0	1.19363e-05	-0.000359072	8.74804e-06	40.6581	0.00535732	0.00406412	-0.00349053	-22.8665	3.07825	2.83633	1.19616	0.299365	0.126801	0.325112	22.9558	434.744	1026.39	1114.67	-67.0442	0.0000000E+000	0.0000000E+000	0.0000000E+000	67.0442	0.0000000E+000	0.0000000E+000	0.0000000E+000	-67.0442	0.0000000E+000	0.0000000E+000	0.0000000E+000	-22.9558	0.0000000E+000	0.0000000E+000	0.0000000E+000	22.9558	2.36091	67.0442	7.36505e-06	9.24402e-06	-1.37341e-08	9.25776e-06	0.242041	6318.69	9.38782	6328.08
31621.1	3.1626	1.26484	3.40615	-21.7982	3.00152	0.241692	0.0539251	3.97931	0.548719	1	9	0.00532583	0.00156359	0	1.73428e-05	-0.000301846	1.29803e-05	36.8136	0.00830159	0.00664616	-0.00497443	-21.6792	3.41048	3.16925	1.25986	0.272594	0.10902	0.293587	21.7982	548.719	1372.02	1477.68	-68.2018	0.0000000E+000	0.0000000E+000	0.0000000E+000	68.2018	0.0000000E+000	0.0000000E+000	0.0000000E+000	-68.2018	0.0000000E+000	0.0000000E+000	0.0000000E+000	-21.7982	0.0000000E+000	0.0000000E+000	0.0000000E+000	21.7982	2.5004	68.2018	5.40651e-06	1.30333e-05	-1.62771e-08	1.30496e-05	0.241994	4482	5.5975	4487.6
21544.7	3.52728	1.31054	3.76288	-20.3822	3.38653	0.241684	0.0510207	5.63676	0.683738	1	9	0.00531771	0.0014132	0	2.41639e-05	-0.00028277	8.16995e-06	34.0522	0.00578116	0.00478985	-0.00323715	-20.3107	3.76624	3.53207	1.3073	0.249115	0.0925571	0.265754	20.3822	683.738	1840.26	1963.18	-69.6178	0.0000000E+000	0.0000000E+000	0.0000000E+000	69.6178	0.0000000E+000	0.0000000E+000	0.0000000E+000	-69.6178	0.0000000E+000	0.0000000E+000	0.0000000E+000	-20.3822	0.0000000E+000	0.0000000E+000	0.0000000E+000	20.3822	2.69148	69.6178	6.82101e-06	1.23309e-05	-1.44271e-08	1.23453e-05	0.241967	4736.99	5.54227	4742.53
14678.6	3.85525	1.34145	4.08196	-19.1856	3.76952	0.241683	0.0532176	8.08276	0.872917	1	9	0.00511149	0.00125221	0	3.16047e-05	-0.000359072	1.73477e-05	-89.2383	0.0138537	0.000184172	0.0138524	-19.3682	4.08671	3.85543	1.35531	0.231374	0.0805077	0.24498	19.1856	872.917	2508.7	2656.23	-70.8144	0.0000000E+000	0.0000000E+000	0.0000000E+000	70.8144	0.0000000E+000	0.0000000E+000	0.0000000E+000	-70.8144	0.0000000E+000	0.0000000E+000	0.0000000E+000	-19.1856	0.0000000E+000	0.0000000E+000	0.0000000E+000	19.1856	2.87393	70.8144	7.44081e-06	1.28618e-05	-1.9109e-08	1.28809e-05	0.242042	4541.41	6.74724	4548.15
10002.2	4.18699	1.34084	4.39645	-17.7572	4.43157	0.241688	-0.0071246	11.8671	1.10382	1	10	0.0048984	0.00111417	0	3.28391e-05	-0.000187393	5.27732e-06	36.8152	0.00473654	0.00379194	-0.0028383	-17.7069	4.39919	4.19078	1.338	0.21662	0.0693704	0.227456	17.7572	1103.82	3446.84	3619.28	-72.2428	0.0000000E+000	0.0000000E+000	0.0000000E+000	72.2428	0.0000000E+000	0.0000000E+000	0.0000000E+000	-72.2428	0.0000000E+000	0.0000000E+000	0.0000000E+000	-17.7572	0.0000000E+000	0.0000000E+000	0.0000000E+000	17.7572	3.12266	72.2428	1.23444e-06	-1.72193e-06	1.3351e-09	-1.72326e-06	0.241875	33923	26.3023	33949.3
6810.42	4.46617	1.34459	4.66418	-16.7549	4.69053	0.241672	-0.00854297	17.3803	1.44439	1	10	0.00552757	0.00118511	0	3.14965e-05	-5.38653e-05	7.08575e-05	-70.8242	0.0597898	0.019639	0.0564724	-17.3452	4.69952	4.48581	1.40106	0.205298	0.0618069	0.2144	16.7549	1444.39	4797.67	5010.38	-73.2451	0.0000000E+000	0.0000000E+000	0.0000000E+000	73.2451	0.0000000E+000	0.0000000E+000	0.0000000E+000	-73.2451	0.0000000E+000	0.0000000E+000	0.0000000E+000	-16.7549	0.0000000E+000	0.0000000E+000	0.0000000E+000	16.7549	3.3216	73.2451	-1.34261e-06	-2.0646e-06	4.6017e-10	-2.06506e-06	0.241726	28289	6.30522	28295.3
4646	4.79048	1.40375	4.99192	-16.3321	5.08264	0.241661	-0.0130922	24.4034	1.92973	1	10	0.00507753	0.00101715	0	3.10479e-05	-0.00028277	8.29791e-06	70.5277	0.008158	0.00271948	-0.00769138	-16.2386	4.99237	4.7932	1.39606	0.19224	0.056332	0.200324	16.3321	1929.73	6585.45	6862.36	-73.6679	0.0000000E+000	0.0000000E+000	0.0000000E+000	73.6679	0.0000000E+000	0.0000000E+000	0.0000000E+000	-73.6679	0.0000000E+000	0.0000000E+000	0.0000000E+000	-16.3321	0.0000000E+000	0.0000000E+000	0.0000000E+000	16.3321	3.41263	73.6679	-4.48567e-07	-3.16387e-06	3.70208e-09	-3.16757e-06	0.241943	18458.4	21.5984	18480
3163.08	5.0925	1.47592	5.30207	-16.1628	5.45461	0.24164	-0.0119158	34.0915	2.6417	1	10	0.00512802	0.000967174	0	2.941e-05	-7.29407e-05	4.64412e-06	-46.9095	0.00480174	0.00328032	0.00350659	-16.1893	5.30619	5.09578	1.47943	0.181151	0.0525017	0.188606	16.1628	2641.7	9114.88	9489.97	-73.8372	0.0000000E+000	0.0000000E+000	0.0000000E+000	73.8372	0.0000000E+000	0.0000000E+000	0.0000000E+000	-73.8372	0.0000000E+000	0.0000000E+000	0.0000000E+000	-16.1628	0.0000000E+000	0.0000000E+000	0.0000000E+000	16.1628	3.45038	73.8372	-1.63793e-06	-2.87933e-06	8.69147e-10	-2.8802e-06	0.241713	20279	6.12135	20285.1
2155.69	5.39357	1.60164	5.62635	-16.5389	5.90678	0.241624	-0.00932475	46.0967	3.73545	1	10	0.00510927	0.000908095	0	2.79376e-05	4.15118e-05	6.36726e-06	11.5687	0.00701167	0.00686922	-0.00140613	-16.5053	5.63254	5.40044	1.60023	0.170381	0.0505952	0.177735	16.5389	3735.45	12579.3	13122.2	-73.4611	0.0000000E+000	0.0000000E+000	0.0000000E+000	73.4611	0.0000000E+000	0.0000000E+000	0.0000000E+000	-73.4611	0.0000000E+000	0.0000000E+000	0.0000000E+000	-16.5389	0.0000000E+000	0.0000000E+000	0.0000000E+000	16.5389	3.36754	73.4611	-1.47238e-06	-2.25308e-06	-3.87087e-10	-2.25269e-06	0.241582	25912.1	4.45179	25907.6
1468.59	5.71789	1.78441	5.98986	-17.3319	6.35811	0.241632	-0.00700921	60.7329	5.38992	1	10	0.00508206	0.000848444	0	2.65412e-05	7.96626e-05	7.0585e-06	-58.2713	0.00831934	0.00437512	0.007076	-17.384	5.99614	5.72226	1.79149	0.159369	0.0497351	0.166949	17.3319	5389.92	17271.2	18092.7	-72.6681	0.0000000E+000	0.0000000E+000	0.0000000E+000	72.6681	0.0000000E+000	0.0000000E+000	0.0000000E+000	-72.6681	0.0000000E+000	0.0000000E+000	0.0000000E+000	-17.3319	0.0000000E+000	0.0000000E+000	0.0000000E+000	17.3319	3.20435	72.6681	-1.39646e-06	-1.69365e-06	-5.58372e-10	-1.69309e-06	0.241552	34473.5	11.3654	34462.1
1000.32	6.08208	2.05342	6.41936	-18.6556	6.80882	0.241632	-0.00684913	77.4824	7.92821	1	10	0.0050599	0.000788224	0	2.6414e-05	-0.000473525	7.22164e-06	-38.708	0.00916191	0.00714943	0.00572942	-18.6836	6.42797	6.08923	2.05915	0.147594	0.0498303	0.155779	18.6556	7928.21	23482.8	24785	-71.3444	0.0000000E+000	0.0000000E+000	0.0000000E+000	71.3444	0.0000000E+000	0.0000000E+000	0.0000000E+000	-71.3444	0.0000000E+000	0.0000000E+000	0.0000000E+000	-18.6556	0.0000000E+000	0.0000000E+000	0.0000000E+000	18.6556	2.96193	71.3444	-1.27184e-07	-1.65497e-06	3.24323e-09	-1.65821e-06	0.242105	35279.2	69.1365	35348.3
681.09	6.51011	2.41379	6.94319	-20.3435	7.25953	0.241631	-0.00760113	96.8092	11.7003	1	10	0.00503411	0.000725042	0	2.50442e-05	3.36096e-06	4.11006e-07	89.0722	0.000566872	9.17949e-06	-0.000566798	-20.3391	6.943	6.51012	2.41322	0.135042	0.0500704	0.144026	20.3435	11700.3	31556.3	33655.5	-69.6565	0.0000000E+000	0.0000000E+000	0.0000000E+000	69.6565	0.0000000E+000	0.0000000E+000	0.0000000E+000	-69.6565	0.0000000E+000	0.0000000E+000	0.0000000E+000	-20.3435	0.0000000E+000	0.0000000E+000	0.0000000E+000	20.3435	2.69705	69.6565	-1.36977e-06	-1.83667e-06	-2.55471e-11	-1.83664e-06	0.241627	31788.8	0.442166	31788.4
463.961	7.04834	2.87777	7.61319	-22.2097	7.71136	0.241634	-0.00667789	119.202	17.0319	1	10	0.00501907	0.00065926	0	2.44788e-05	-9.20161e-05	1.26295e-05	66.9931	0.019157	0.00748737	-0.0176332	-22.0656	7.61348	7.05582	2.86014	0.121606	0.0496505	0.131351	22.2097	17031.9	41715	45058.1	-67.7903	0.0000000E+000	0.0000000E+000	0.0000000E+000	67.7903	0.0000000E+000	0.0000000E+000	0.0000000E+000	-67.7903	0.0000000E+000	0.0000000E+000	0.0000000E+000	-22.2097	0.0000000E+000	0.0000000E+000	0.0000000E+000	22.2097	2.44923	67.7903	-5.65392e-07	-1.6136e-06	6.14474e-10	-1.61422e-06	0.241726	36184.1	13.7792	36197.9
316.316	7.75229	3.42174	8.47386	-23.8159	8.15909	0.241638	-0.00740755	147.046	23.9764	1	10	0.00500035	0.000590091	0	2.33665e-05	-5.38653e-05	1.12933e-05	-40.7134	0.0191382	0.0145064	0.0124834	-23.8535	8.49218	7.7668	3.43423	0.107961	0.0476524	0.11801	23.8159	23976.4	54320.8	59376.9	-66.1841	0.0000000E+000	0.0000000E+000	0.0000000E+000	66.1841	0.0000000E+000	0.0000000E+000	0.0000000E+000	-66.1841	0.0000000E+000	0.0000000E+000	0.0000000E+000	-23.8159	0.0000000E+000	0.0000000E+000	0.0000000E+000	23.8159	2.2656	66.1841	-1.11236e-06	-1.78994e-06	3.9901e-10	-1.79034e-06	0.241691	32620.5	7.27168	32627.7
215.345	8.6565	4.01076	9.5405	-24.8594	8.60855	0.241628	-0.00719907	184.272	32.5665	1	10	0.00498551	0.000522563	0	2.27846e-05	-0.000206469	4.87565e-06	-70.877	0.00933026	0.00305657	0.00881539	-24.8997	9.54698	8.65955	4.01958	0.0951042	0.0440641	0.104816	24.8594	32566.5	70288.8	77466.7	-65.1406	0.0000000E+000	0.0000000E+000	0.0000000E+000	65.1406	0.0000000E+000	0.0000000E+000	0.0000000E+000	-65.1406	0.0000000E+000	0.0000000E+000	0.0000000E+000	-24.8594	0.0000000E+000	0.0000000E+000	0.0000000E+000	24.8594	2.15832	65.1406	-5.81846e-07	-1.7395e-06	1.48638e-09	-1.74098e-06	0.241834	33563.8	28.6799	33592.4
146.737	9.88011	4.55902	10.8812	-24.7702	9.05447	0.241622	-0.00729587	237.907	41.7633	1	10	0.00497647	0.000457344	0	2.22499e-05	-0.00024462	8.73011e-06	-140.659	0.0190887	-0.0147629	0.012101	-24.8607	10.8729	9.86535	4.57112	0.083446	0.0385048	0.0919013	24.7702	41763.3	90507.5	99678.4	-65.2298	0.0000000E+000	0.0000000E+000	0.0000000E+000	65.2298	0.0000000E+000	0.0000000E+000	0.0000000E+000	-65.2298	0.0000000E+000	0.0000000E+000	0.0000000E+000	-24.7702	0.0000000E+000	0.0000000E+000	0.0000000E+000	24.7702	2.16716	65.2298	-5.34688e-07	-1.76284e-06	1.78471e-09	-1.76462e-06	0.241866	33117.6	33.5285	33151.1
100.032	11.3803	4.9193	12.398	-23.3771	9.50584	0.241627	-0.00697944	323.428	50.9191	1	10	0.0049845	0.00040204	0	2.1266e-05	-7.29407e-05	7.49872e-06	32.4707	0.0186516	0.0157358	-0.0100135	-23.3059	12.4085	11.396	4.90929	0.0740371	0.0320037	0.0806581	23.3771	50919.1	117796	128330	-66.6229	0.0000000E+000	0.0000000E+000	0.0000000E+000	66.6229	0.0000000E+000	0.0000000E+000	0.0000000E+000	-66.6229	0.0000000E+000	0.0000000E+000	0.0000000E+000	-23.3771	0.0000000E+000	0.0000000E+000	0.0000000E+000	23.3771	2.3134	66.6229	-9.83939e-07	-1.68642e-06	5.09085e-10	-1.68693e-06	0.2417	34619.9	10.4508	34630.3
68.104	12.9327	4.95946	13.851	-20.981	9.96844	0.241632	-0.00597057	471.209	60.4115	1	10	0.00497209	0.00035897	0	2.04411e-05	-0.000301846	6.04069e-06	-15.5584	0.0168278	0.0162112	0.00451356	-20.9744	13.8678	12.9489	4.96397	0.0674103	0.0258507	0.072197	20.981	60411.5	157534	168720	-69.019	0.0000000E+000	0.0000000E+000	0.0000000E+000	69.019	0.0000000E+000	0.0000000E+000	0.0000000E+000	-69.019	0.0000000E+000	0.0000000E+000	0.0000000E+000	-20.981	0.0000000E+000	0.0000000E+000	0.0000000E+000	20.981	2.60768	69.019	-8.24846e-07	-1.44268e-06	1.80219e-09	-1.44449e-06	0.241934	40470.6	50.5556	40521.1
46.4415	14.4735	4.62802	15.1954	-17.7321	10.4046	0.241624	-0.00906418	740.489	68.6881	1	10	0.00498796	0.000328254	0	1.95432e-05	2.24364e-05	5.76381e-06	-18.4568	0.017559	0.0166558	0.00555899	-17.7329	15.213	14.4902	4.63357	0.0626827	0.0200432	0.0658092	17.7321	68688.1	214813	225528	-72.268	0.0000000E+000	0.0000000E+000	0.0000000E+000	72.268	0.0000000E+000	0.0000000E+000	0.0000000E+000	-72.268	0.0000000E+000	0.0000000E+000	0.0000000E+000	-17.7321	0.0000000E+000	0.0000000E+000	0.0000000E+000	17.7321	3.12737	72.268	-8.97955e-07	-2.19013e-06	-2.03367e-10	-2.18992e-06	0.241602	26657	2.47528	26654.6
31.6296	15.7055	4.07575	16.2257	-14.548	10.8346	0.241623	-0.00930616	1234.58	77.8978	1	10	0.00497582	0.000306662	0	1.78212e-05	-0.000301846	6.21052e-06	-147.828	0.020252	-0.0171424	0.0107834	-14.6001	16.2119	15.6884	4.08653	0.0596545	0.015481	0.0616305	14.548	77897.9	300172	310115	-75.452	0.0000000E+000	0.0000000E+000	0.0000000E+000	75.452	0.0000000E+000	0.0000000E+000	0.0000000E+000	-75.452	0.0000000E+000	0.0000000E+000	0.0000000E+000	-14.548	0.0000000E+000	0.0000000E+000	0.0000000E+000	14.548	3.8534	75.452	-1.72195e-06	-2.24858e-06	2.80903e-09	-2.25139e-06	0.241925	25963.8	32.435	25996.2
21.5517	16.7522	3.40737	17.0952	-11.497	11.4875	0.241654	-0.00676398	2167.3	86.1009	1	11	0.00497191	0.000290836	0	1.53671e-05	-5.38653e-05	5.78571e-06	-50.9638	0.0198934	0.0125291	0.0154521	-11.5394	17.1106	16.7647	3.42282	0.0573221	0.0116592	0.0584959	11.497	86100.9	423312	431980	-78.503	0.0000000E+000	0.0000000E+000	0.0000000E+000	78.503	0.0000000E+000	0.0000000E+000	0.0000000E+000	-78.503	0.0000000E+000	0.0000000E+000	0.0000000E+000	-11.497	0.0000000E+000	0.0000000E+000	0.0000000E+000	11.497	4.91646	78.503	-2.4541e-06	-1.63454e-06	3.64344e-10	-1.63491e-06	0.241708	35726.7	7.96356	35734.6
14.6852	17.4517	2.77545	17.671	-9.03642	11.9481	0.241664	-0.0062947	3904.89	96.3279	1	11	0.00496919	0.000281206	0	1.36276e-05	-0.000187393	8.611e-06	34.6492	0.0306217	0.0251909	-0.01741	-8.96793	17.6932	17.4769	2.75804	0.0558875	0.00888813	0.0565899	9.03642	96328	605698	613310	-80.9636	0.0000000E+000	0.0000000E+000	0.0000000E+000	80.9636	0.0000000E+000	0.0000000E+000	0.0000000E+000	-80.9636	0.0000000E+000	0.0000000E+000	0.0000000E+000	-9.03642	0.0000000E+000	0.0000000E+000	0.0000000E+000	9.03642	6.28788	80.9636	-1.73957e-06	-1.5212e-06	1.17958e-09	-1.52238e-06	0.241852	38391.7	29.77	38421.5
10.0032	18.0265	2.2371	18.1648	-7.07427	12.3988	0.24167	-0.00647399	7112.06	107.871	1	11	0.00498975	0.000274693	0	1.50734e-05	-0.0004926	1.09823e-05	4.07347	0.0399801	0.0398791	-0.00284001	-7.04994	18.204	18.0664	2.23426	0.0546324	0.00677991	0.0550515	7.07427	107871	869223	875891	-82.9257	0.0000000E+000	0.0000000E+000	0.0000000E+000	82.9257	0.0000000E+000	0.0000000E+000	0.0000000E+000	-82.9257	0.0000000E+000	0.0000000E+000	0.0000000E+000	-7.07427	0.0000000E+000	0.0000000E+000	0.0000000E+000	7.07427	8.05798	82.9257	1.44582e-06	-1.56457e-06	3.18909e-09	-1.56775e-06	0.242162	37329.3	76.0891	37405.4
6.81719	18.3788	1.81718	18.4684	-5.64668	12.7385	0.241672	-0.00533639	12847.5	124.38	1	11	0.00498152	0.000269731	0	1.21248e-05	3.36096e-06	6.40044e-06	133.888	0.023729	-0.0164502	-0.0171013	-5.59885	18.4504	18.3624	1.80008	0.0538837	0.00532766	0.0541464	5.64668	124380	1.25797e+06	1.26411e+06	-84.3533	0.0000000E+000	0.0000000E+000	0.0000000E+000	84.3533	0.0000000E+000	0.0000000E+000	0.0000000E+000	-84.3533	0.0000000E+000	0.0000000E+000	0.0000000E+000	-5.64668	0.0000000E+000	0.0000000E+000	0.0000000E+000	5.64668	10.1139	84.3533	-2.94853e-06	-1.28966e-06	-1.79354e-11	-1.28964e-06	0.241669	45287.6	0.629819	45287
4.63925	18.5922	1.43025	18.6471	-4.39894	13.2225	0.241672	-0.00606994	23986.2	141.11	1	11	0.00496248	0.000266125	0	1.14711e-05	-0.000111092	2.26302e-05	-31.939	0.0850358	0.0721624	0.0449853	-4.51926	18.7226	18.6644	1.47523	0.0534696	0.00411326	0.0536275	4.39894	141110	1.83434e+06	1.83976e+06	-85.6011	0.0000000E+000	0.0000000E+000	0.0000000E+000	85.6011	0.0000000E+000	0.0000000E+000	0.0000000E+000	-85.6011	0.0000000E+000	0.0000000E+000	0.0000000E+000	-4.39894	0.0000000E+000	0.0000000E+000	0.0000000E+000	4.39894	12.9993	85.6011	-6.53714e-07	-1.46693e-06	6.74319e-10	-1.46761e-06	0.241783	39814.5	18.3019	39832.8
3.1604	18.8257	1.20246	18.864	-3.65471	13.9154	0.241676	-0.00540405	41880.2	170.169	1	11	0.004974	0.000263677	0	1.40697e-05	-0.000168318	8.295e-06	-114.72	0.031459	-0.0131558	0.0285761	-3.74393	18.8527	18.8125	1.23103	0.0529032	0.0033791	0.053011	3.65471	170169	2.66416e+06	2.66959e+06	-86.3453	0.0000000E+000	0.0000000E+000	0.0000000E+000	86.3453	0.0000000E+000	0.0000000E+000	0.0000000E+000	-86.3453	0.0000000E+000	0.0000000E+000	0.0000000E+000	-3.65471	0.0000000E+000	0.0000000E+000	0.0000000E+000	3.65471	15.656	86.3453	2.59857e-06	-1.30603e-06	9.09597e-10	-1.30694e-06	0.241845	44721.4	31.1466	44752.5
2.15577	19.0094	1.0411	19.0379	-3.13484	14.919	0.241671	-0.00467404	70912.7	212.068	1	11	0.00497656	0.000261403	0	1.50167e-05	-0.000359072	2.11258e-06	-122.531	0.00808171	-0.00434597	0.0068137	-3.15603	19.0339	19.005	1.04792	0.0524482	0.00287248	0.0525268	3.13484	212068	3.87212e+06	3.87793e+06	-86.8652	0.0000000E+000	0.0000000E+000	0.0000000E+000	86.8652	0.0000000E+000	0.0000000E+000	0.0000000E+000	-86.8652	0.0000000E+000	0.0000000E+000	0.0000000E+000	-3.13484	0.0000000E+000	0.0000000E+000	0.0000000E+000	3.13484	18.2589	86.8652	9.46959e-07	-1.12958e-06	1.67832e-09	-1.13126e-06	0.24203	51705	76.8226	51781.8
1.46631	19.148	0.959807	19.172	-2.86959	16.3805	0.241668	-0.00384979	113086	283.428	1	11	0.00497685	0.000259589	0	1.04972e-05	-0.000301846	3.12294e-06	8.18776	0.0120303	0.0119077	-0.00171333	-2.8627	19.1838	19.1599	0.958093	0.052094	0.00261125	0.0521594	2.86959	283428	5.65434e+06	5.66144e+06	-87.1304	0.0000000E+000	0.0000000E+000	0.0000000E+000	87.1304	0.0000000E+000	0.0000000E+000	0.0000000E+000	-87.1304	0.0000000E+000	0.0000000E+000	0.0000000E+000	-2.86959	0.0000000E+000	0.0000000E+000	0.0000000E+000	2.86959	19.9498	87.1304	-4.51947e-06	-9.3037e-07	1.16204e-09	-9.31532e-07	0.24197	62774.3	78.4058	62852.7
1.00006	19.2679	0.925456	19.2901	-2.74986	19.5539	0.241676	-0.00345018	171964	395.803	1	12	0.00497544	0.000257927	0	-1.28629e-06	-0.000301846	2.13118e-06	-9.72799	0.00826272	0.00814391	0.00139616	-2.75284	19.2983	19.276	0.926852	0.0517804	0.00248706	0.0518401	2.74986	395803	8.24058e+06	8.25008e+06	-87.2501	0.0000000E+000	0.0000000E+000	0.0000000E+000	87.2501	0.0000000E+000	0.0000000E+000	0.0000000E+000	-87.2501	0.0000000E+000	0.0000000E+000	0.0000000E+000	-2.74986	0.0000000E+000	0.0000000E+000	0.0000000E+000	2.74986	20.8199	87.2501	-1.17835e-05	-8.33826e-07	1.04142e-09	-8.34868e-07	0.241978	70047.5	87.487	70135
0.681362	19.395	0.966634	19.4191	-2.85322	22.666	0.24168	-0.00368402	241646	598.751	1	12	0.00497529	0.000256206	0	-1.24504e-05	-0.000339997	1.72631e-06	-36.8437	0.00673799	0.00539224	0.00404033	-2.86433	19.4247	19.4004	0.970674	0.0514319	0.00256333	0.0514957	2.85322	598751	1.20136e+07	1.20285e+07	-87.1468	0.0000000E+000	0.0000000E+000	0.0000000E+000	87.1468	0.0000000E+000	0.0000000E+000	0.0000000E+000	-87.1468	0.0000000E+000	0.0000000E+000	0.0000000E+000	-2.85322	0.0000000E+000	0.0000000E+000	0.0000000E+000	2.85322	20.0645	87.1468	-1.11641e-05	-8.90351e-07	1.25255e-09	-8.91604e-07	0.24202	65602.2	92.2897	65694.5
0.464091	19.5243	1.12507	19.5567	-3.29797	27.2225	0.241676	-0.00482863	304816	1008.8	1	12	0.00497454	0.000254364	0	-1.8346e-05	-0.000263695	2.29991e-06	-32.2372	0.0090418	0.00764798	0.00482312	-3.31078	19.5646	19.532	1.12989	0.0510486	0.00294163	0.0511333	3.29797	1.0088e+06	1.75066e+07	1.75356e+07	-86.702	0.0000000E+000	0.0000000E+000	0.0000000E+000	86.702	0.0000000E+000	0.0000000E+000	0.0000000E+000	-86.702	0.0000000E+000	0.0000000E+000	0.0000000E+000	-3.29797	0.0000000E+000	0.0000000E+000	0.0000000E+000	3.29797	17.3539	86.702	-5.89562e-06	-1.16696e-06	1.27329e-09	-1.16824e-06	0.24194	50050.6	54.6107	50105.2
0.316193	19.6619	1.39098	19.7111	-4.04664	33.8969	0.241672	-0.00529752	361865	1802.05	1	12	0.0049779	0.000252543	0	-1.29358e-05	-0.000206469	2.49912e-06	-24.4921	0.0098958	0.00900536	0.00410248	-4.05668	19.7204	19.6709	1.39508	0.0506064	0.00358014	0.0507329	4.04664	1.80205e+06	2.54726e+07	2.55363e+07	-85.9534	0.0000000E+000	0.0000000E+000	0.0000000E+000	85.9534	0.0000000E+000	0.0000000E+000	0.0000000E+000	-85.9534	0.0000000E+000	0.0000000E+000	0.0000000E+000	-4.04664	0.0000000E+000	0.0000000E+000	0.0000000E+000	4.04664	14.1353	85.9534	5.41025e-06	-1.28026e-06	1.09377e-09	-1.28136e-06	0.241879	45619.9	38.9746	45658.9
0.215268	19.7967	1.73809	19.8728	-5.01753	43.6905	0.241678	-0.00421392	425372	3253.82	1	12	0.00497541	0.000250362	0	7.52619e-06	9.87381e-05	2.99363e-06	7.91918	0.0119572	0.0118432	-0.00164742	-5.00981	19.8845	19.8085	1.73644	0.0501271	0.00440101	0.0503199	5.01753	3.25381e+06	3.70607e+07	3.72033e+07	-84.9825	0.0000000E+000	0.0000000E+000	0.0000000E+000	84.9825	0.0000000E+000	0.0000000E+000	0.0000000E+000	-84.9825	0.0000000E+000	0.0000000E+000	0.0000000E+000	-5.01753	0.0000000E+000	0.0000000E+000	0.0000000E+000	5.01753	11.3899	84.9825	2.0462e-05	-1.01841e-06	-4.16074e-10	-1.018e-06	0.24158	57352.4	23.4314	57329
0.146929	20.043	2.23548	20.1673	-6.36412	58.0288	0.241682	-0.00226608	484555	5953.7	1	12	0.00497468	0.00024667	0	3.72769e-05	7.96626e-05	1.20858e-06	-72.2811	0.00489959	0.00149117	0.00466716	-6.37682	20.1693	20.0445	2.24014	0.0492796	0.00549634	0.0495852	6.36412	5.9537e+06	5.33802e+07	5.37112e+07	-83.6359	0.0000000E+000	0.0000000E+000	0.0000000E+000	83.6359	0.0000000E+000	0.0000000E+000	0.0000000E+000	-83.6359	0.0000000E+000	0.0000000E+000	0.0000000E+000	-6.36412	0.0000000E+000	0.0000000E+000	0.0000000E+000	6.36412	8.96589	83.6359	2.97507e-05	-5.47671e-07	-1.80522e-10	-5.47491e-07	0.241602	106652	35.1544	106617
0.0999041	20.4184	3.00542	20.6384	-8.37334	79.1049	0.241686	-0.000596804	530069	11240.6	1	12	0.0049829	0.000241439	0	5.57028e-05	-0.000225544	3.11808e-06	3.17367	0.0129146	0.0128948	-0.000714986	-8.36616	20.651	20.4313	3.0047	0.0479369	0.00705591	0.0484534	8.37334	1.12406e+07	7.63672e+07	7.719e+07	-81.6267	0.0000000E+000	0.0000000E+000	0.0000000E+000	81.6267	0.0000000E+000	0.0000000E+000	0.0000000E+000	-81.6267	0.0000000E+000	0.0000000E+000	0.0000000E+000	-8.37334	0.0000000E+000	0.0000000E+000	0.0000000E+000	8.37334	6.79386	81.6267	1.84259e-05	-1.44239e-07	1.34606e-10	-1.44374e-07	0.241911	404966	377.92	405344
0.0680626	20.811	4.09784	21.2106	-11.1395	110.031	0.241683	-0.000106125	570632	21299.1	1	12	0.00497742	0.000234666	0	3.18626e-05	-0.000320921	1.63291e-06	76.3347	0.00695843	0.00164393	-0.00676146	-11.1207	21.2109	20.8126	4.09108	0.046258	0.00910855	0.0471462	11.1395	2.12991e+07	1.08168e+08	1.10245e+08	-78.8605	0.0000000E+000	0.0000000E+000	0.0000000E+000	78.8605	0.0000000E+000	0.0000000E+000	0.0000000E+000	-78.8605	0.0000000E+000	0.0000000E+000	0.0000000E+000	-11.1395	0.0000000E+000	0.0000000E+000	0.0000000E+000	11.1395	5.07853	78.8605	-2.38402e-05	-2.56485e-08	3.40576e-11	-2.56826e-08	0.242004	2.27735e+06	3024	2.28038e+06
0.0464052	21.2383	5.45445	21.9275	-14.4035	155.383	0.241679	-0.0011288	628786	38906.8	1	12	0.00497569	0.000226916	0	-9.47151e-05	7.96626e-05	1.47677e-06	-28.7697	0.006508	0.00570466	0.00313224	-14.4077	21.9338	21.244	5.45758	0.0441714	0.0113442	0.0456048	14.4035	3.89068e+07	1.51494e+08	1.5641e+08	-75.5965	0.0000000E+000	0.0000000E+000	0.0000000E+000	75.5965	0.0000000E+000	0.0000000E+000	0.0000000E+000	-75.5965	0.0000000E+000	0.0000000E+000	0.0000000E+000	-14.4035	0.0000000E+000	0.0000000E+000	0.0000000E+000	14.4035	3.89375	75.5965	-0.000126578	-2.72808e-07	-8.99234e-11	-2.72718e-07	0.241599	214102	70.5727	214032
0.0315922	21.9975	7.201	23.1461	-18.1261	221.989	0.241686	-0.00196709	699596	67713.6	1	12	0.00497652	0.000215004	0	-0.000328248	6.05872e-05	2.18636e-06	11.8019	0.0101689	0.00995393	-0.00207983	-18.1136	23.155	22.0074	7.19892	0.0410597	0.0134411	0.0432037	18.1261	6.77136e+07	2.0685e+08	2.17651e+08	-71.8739	0.0000000E+000	0.0000000E+000	0.0000000E+000	71.8739	0.0000000E+000	0.0000000E+000	0.0000000E+000	-71.8739	0.0000000E+000	0.0000000E+000	0.0000000E+000	-18.1261	0.0000000E+000	0.0000000E+000	0.0000000E+000	18.1261	3.05478	71.8739	-0.000233533	-4.75417e-07	-1.1918e-10	-4.75297e-07	0.241625	122865	30.8005	122834
0.0215268	23.206	9.79414	25.1881	-22.8823	319.727	0.241685	-0.00272596	754874	114134	1	12	0.00497521	0.000197522	0	-0.000582812	-0.000187393	1.30304e-06	37.0878	0.00659694	0.00526246	-0.00397821	-22.8693	25.1914	23.2112	9.79016	0.036577	0.0154374	0.0397013	22.8823	1.14134e+08	2.70426e+08	2.93525e+08	-67.1177	0.0000000E+000	0.0000000E+000	0.0000000E+000	67.1177	0.0000000E+000	0.0000000E+000	0.0000000E+000	-67.1177	0.0000000E+000	0.0000000E+000	0.0000000E+000	-22.8823	0.0000000E+000	0.0000000E+000	0.0000000E+000	22.8823	2.36937	67.1177	-0.000254563	-6.58823e-07	5.10827e-10	-6.59334e-07	0.241872	88660.3	68.7439	88729.1
0.0146812	24.6343	13.4529	28.0682	-28.6391	463.03	0.241684	-0.00307155	805832	185116	1	12	0.0049773	0.000177329	0	-0.000685199	-0.0004926	1.94383e-06	29.7078	0.0109617	0.00952098	-0.00543238	-28.6201	28.074	24.6438	13.4474	0.0312687	0.0170759	0.0356275	28.6391	1.85116e+08	3.38976e+08	3.86228e+08	-61.3609	0.0000000E+000	0.0000000E+000	0.0000000E+000	61.3609	0.0000000E+000	0.0000000E+000	0.0000000E+000	-61.3609	0.0000000E+000	0.0000000E+000	0.0000000E+000	-28.6391	0.0000000E+000	0.0000000E+000	0.0000000E+000	28.6391	1.83115	61.3609	-0.000102388	-7.42343e-07	1.51304e-09	-7.43856e-07	0.242176	78684.6	160.375	78845
0.0100092	26.5459	17.9268	32.0321	-34.0317	673.213	0.241679	-0.00314683	886992	277814	1	12	0.00497701	0.000155376	0	-0.000519072	-0.00028277	2.19794e-06	1.6564	0.014146	0.01414	-0.000408899	-34.0169	32.0436	26.56	17.9264	0.0258718	0.0174716	0.0312187	34.0317	2.77814e+08	4.11386e+08	4.96406e+08	-55.9683	0.0000000E+000	0.0000000E+000	0.0000000E+000	55.9683	0.0000000E+000	0.0000000E+000	0.0000000E+000	-55.9683	0.0000000E+000	0.0000000E+000	0.0000000E+000	-34.0317	0.0000000E+000	0.0000000E+000	0.0000000E+000	34.0317	1.48079	55.9683	0.000166127	-7.60523e-07	8.8983e-10	-7.61412e-07	0.241962	76800.8	89.8588	76890.7