File: txt/19007_R309_UA708_SOC00_C06.mpt
EC-Lab ASCII FILE
Nb header lines : 65

Potentio Electrochemical Impedance Spectroscopy

Run on channel : 6 (SN 65795)
Grouped channel(s) : 2, 3, 4, 5, 6
User :
CE vs. WE compliance from -10 V to 10 V
Electrode connection : standard
Potential control : Ewe
Ewe ctrl range : min = -10.00 V, max = 10.00 V
Safety Limits :
	Do not start on E overload
Acquisition started on : 11/04/2025 16:08:38.802
Loaded Setting File :  C:\Users\Celltest\OneDrive - store-dot.com\Documents\EC-Lab\Data\@Biologic Test Protocols\anode half cell EIS SOC00.mps
Saved on :
	File : 19003_R309_UA708_SOC00_C06.mpr
	Directory : C:\Users\Celltest\OneDrive - store-dot.com\Documents\EC-Lab\Data\Charmaine\
	Host : 169.254.61.224
Device : VMP-3e (SN .003165)
Address : USB
EC-LAB for windows v11.62 (software)
Internet server v27.00 (firmware)
Command interpretor v12.03 (firmware)
Electrode material :
Initial state :
Electrolyte :
Comments :
Electrode surface area : 0.001 cm²
Characteristic mass : 0.001 g
Equivalent Weight : 0.000 g/eq.
Density : 0.000 g/cm3
Volume (V) : 0.001 cm³
Record Ece
Cycle Definition : Charge/Discharge alternance
Mode                Single sine
E (V)               0.0000
vs.                 Eoc
tE (h:m:s)          0:00:0.0000
record              0
dI                  0.000
unit dI             mA
dt (s)              0.000
fi                  100.000
unit fi             kHz
ff                  10.000
unit ff             mHz
Nd                  6
Points              per decade
spacing             Logarithmic
Va (mV)             5.0
pw                  0.10
Na                  2
corr                0
E range min (V)     -10.000
E range max (V)     10.000
I Range             Auto
Bandwidth           5
nc cycles           0
goto Ns'            0
nr cycles           0
inc. cycle          0

freq/Hz	Re(Z)/Ohm	-Im(Z)/Ohm	|Z|/Ohm	Phase(Z)/deg	time/s	<Ewe>/V	<I>/mA	Cs/µF	Cp/µF	cycle number	I Range	|Ewe|/V	|I|/A	Ns	(Q-Qo)/mA.h	<Ece>/V	|Ece|/V	Phase(Zce)/deg	|Zce|/Ohm	Re(Zce)/Ohm	-Im(Zce)/Ohm	Phase(Zwe-ce)/deg	|Zwe-ce|/Ohm	Re(Zwe-ce)/Ohm	-Im(Zwe-ce)/Ohm	Re(Y)/Ohm-1	Im(Y)/Ohm-1	|Y|/Ohm-1	Phase(Y)/deg	Re(C)/nF	Im(C)/nF	|C|/nF	Phase(C)/deg	Re(M)	Im(M)	|M|	Phase(M)/deg	Re(Permittivity)	Im(Permittivity)	|Permittivity|	Phase(Permittivity)/deg	Re(Resistivity)/Ohm.cm	Im(Resistivity)/Ohm.cm	|Resistivity|/Ohm.cm	Phase(Resistivity)/deg	Re(Conductivity)/mS/cm	Im(Conductivity)/mS/cm	|Conductivity|/mS/cm	Phase(Conductivity)/deg	Tan(Delta)	Loss Angle(Delta)/deg	dq/mA.h	Pwe/W	Pce/W	Pwe-ce/W	<Ewe-Ece>/V	Rwe/Ohm	Rce/Ohm	Rwe-ce/Ohm		Ewe-Ece/V
100004	1.52266	0.537672	1.6148	-19.4488	1.86754	0.23659	-0.00134781	2.95996	0.328159	1	9	0.00493774	0.0030578	0	-7.40933e-06	8.26222e-05	4.42632e-05	69.337	0.0144755	0.00510799	-0.0135443	-18.9355	1.61517	1.52777	0.524128	0.583935	0.206196	0.619271	19.4488	328.159	929.327	985.565	-70.5512	0.0000000E+000	0.0000000E+000	0.0000000E+000	70.5512	0.0000000E+000	0.0000000E+000	0.0000000E+000	-70.5512	0.0000000E+000	0.0000000E+000	0.0000000E+000	-19.4488	0.0000000E+000	0.0000000E+000	0.0000000E+000	19.4488	2.83195	70.5512	-7.40933e-06	-3.18878e-07	-1.11359e-10	-3.18766e-07	0.236507	175536	61.3011	175475
68132	1.67943	0.61305	1.78783	-20.0538	2.25052	0.236633	0.0470399	3.81042	0.448036	1	9	0.00548862	0.00306999	0	-8.59652e-06	0.000159014	3.47563e-05	62.3519	0.0113213	0.00525353	-0.0100286	-19.6944	1.78936	1.68469	0.603021	0.525426	0.191798	0.559338	20.0538	448.036	1227.38	1306.6	-69.9462	0.0000000E+000	0.0000000E+000	0.0000000E+000	69.9462	0.0000000E+000	0.0000000E+000	0.0000000E+000	-69.9462	0.0000000E+000	0.0000000E+000	0.0000000E+000	-20.0538	0.0000000E+000	0.0000000E+000	0.0000000E+000	20.0538	2.73948	69.9462	-1.1872e-06	1.11312e-05	7.48001e-09	1.11237e-05	0.236474	5030.48	3.38042	5027.1
46420.4	1.84938	0.675099	1.96874	-20.0542	2.63352	0.23662	0.0215609	5.0786	0.597174	1	9	0.00549779	0.00279254	0	-5.47243e-06	6.23004e-06	1.26386e-05	19.8901	0.00452585	0.00425587	-0.00153977	-19.9698	1.97222	1.85363	0.673559	0.477141	0.174176	0.507938	20.0542	597.174	1635.91	1741.5	-69.9458	0.0000000E+000	0.0000000E+000	0.0000000E+000	69.9458	0.0000000E+000	0.0000000E+000	0.0000000E+000	-69.9458	0.0000000E+000	0.0000000E+000	0.0000000E+000	-20.0542	0.0000000E+000	0.0000000E+000	0.0000000E+000	20.0542	2.73942	69.9458	3.12409e-06	5.10174e-06	1.34325e-10	5.10161e-06	0.236614	10974.5	0.288951	10974.2
31621.1	2.03398	0.718186	2.15705	-19.4479	3.01653	0.236528	-0.0251505	7.00819	0.776892	1	9	0.00541337	0.00250962	0	-7.64479e-06	0.000139916	1.35069e-05	1.96286	0.00538204	0.00537888	-0.000184344	-19.3958	2.16206	2.03935	0.718001	0.437146	0.154354	0.463597	19.4479	776.892	2200.24	2333.37	-70.5521	0.0000000E+000	0.0000000E+000	0.0000000E+000	70.5521	0.0000000E+000	0.0000000E+000	0.0000000E+000	-70.5521	0.0000000E+000	0.0000000E+000	0.0000000E+000	-19.4479	0.0000000E+000	0.0000000E+000	0.0000000E+000	19.4479	2.8321	70.5521	-2.17236e-06	-5.94881e-06	-3.51897e-09	-5.94529e-06	0.236388	9404.49	5.56315	9398.92
21544.7	2.22055	0.764081	2.34833	-18.9881	3.39953	0.236556	0.0299794	9.66809	1.02353	1	9	0.00539789	0.00229861	0	-8.47824e-06	0.000330897	8.61006e-06	-111.802	0.00374577	-0.0013912	0.00347784	-19.0794	2.34815	2.21916	0.767559	0.402663	0.138555	0.425835	18.9881	1023.53	2974.56	3145.73	-71.0119	0.0000000E+000	0.0000000E+000	0.0000000E+000	71.0119	0.0000000E+000	0.0000000E+000	0.0000000E+000	-71.0119	0.0000000E+000	0.0000000E+000	0.0000000E+000	-18.9881	0.0000000E+000	0.0000000E+000	0.0000000E+000	18.9881	2.90617	71.0119	-8.33449e-07	7.0918e-06	9.92007e-09	7.08188e-06	0.236225	7890.63	11.0375	7879.59
14678.6	2.39935	0.797287	2.52835	-18.3813	3.78252	0.236573	0.0205179	13.5994	1.35231	1	9	0.00530325	0.00209751	0	-5.15902e-06	-8.92602e-05	5.92613e-06	-28.301	0.00282531	0.0024876	0.00133949	-18.3923	2.53113	2.40184	0.798626	0.375336	0.124721	0.395515	18.3813	1352.31	4069.64	4288.44	-71.6187	0.0000000E+000	0.0000000E+000	0.0000000E+000	71.6187	0.0000000E+000	0.0000000E+000	0.0000000E+000	-71.6187	0.0000000E+000	0.0000000E+000	0.0000000E+000	-18.3813	0.0000000E+000	0.0000000E+000	0.0000000E+000	18.3813	3.00939	71.6187	3.31922e-06	4.85398e-06	-1.83143e-09	4.85581e-06	0.236662	11530.1	4.35036	11534.5
10002.2	2.58206	0.84009	2.71528	-18.0227	4.16655	0.236608	0.0480456	18.9408	1.81309	1	9	0.00523316	0.0019273	0	-4.49212e-06	0.000216308	9.80257e-06	-8.15365	0.00508617	0.00503476	0.000721363	-18.0043	2.72029	2.58709	0.840812	0.350215	0.113945	0.368286	18.0227	1813.09	5572.61	5860.15	-71.9773	0.0000000E+000	0.0000000E+000	0.0000000E+000	71.9773	0.0000000E+000	0.0000000E+000	0.0000000E+000	-71.9773	0.0000000E+000	0.0000000E+000	0.0000000E+000	-18.0227	0.0000000E+000	0.0000000E+000	0.0000000E+000	18.0227	3.07355	71.9773	6.66898e-07	1.1368e-05	1.03927e-08	1.13576e-05	0.236392	4924.67	4.50215	4920.16
6810.42	2.79723	0.901002	2.93876	-17.854	4.54956	0.236613	0.0557936	25.937	2.43805	1	9	0.00508936	0.0017318	0	-4.489e-06	0.000178112	9.59277e-05	-54.9525	0.0553918	0.031809	0.0453479	-18.4957	2.98313	2.82904	0.94635	0.323892	0.104327	0.340279	17.854	2438.05	7569.13	7952.1	-72.146	0.0000000E+000	0.0000000E+000	0.0000000E+000	72.146	0.0000000E+000	0.0000000E+000	0.0000000E+000	-72.146	0.0000000E+000	0.0000000E+000	0.0000000E+000	-17.854	0.0000000E+000	0.0000000E+000	0.0000000E+000	17.854	3.10458	72.146	3.1251e-09	1.32015e-05	9.93753e-09	1.31915e-05	0.236435	4240.86	3.19235	4237.67
4646	2.95756	1.00489	3.12362	-18.7662	4.81462	0.236563	0.0165321	34.0896	3.52812	1	9	0.00525437	0.00168214	0	-4.3814e-06	-0.000127456	1.18906e-05	31.5735	0.00706871	0.00602232	-0.00370112	-18.6665	3.12813	2.96359	1.00119	0.303123	0.102992	0.320142	18.7662	3528.12	10383.9	10966.9	-71.2338	0.0000000E+000	0.0000000E+000	0.0000000E+000	71.2338	0.0000000E+000	0.0000000E+000	0.0000000E+000	-71.2338	0.0000000E+000	0.0000000E+000	0.0000000E+000	-18.7662	0.0000000E+000	0.0000000E+000	0.0000000E+000	18.7662	2.94317	71.2338	1.07592e-07	3.9109e-06	-2.10712e-09	3.913e-06	0.236691	14309.3	7.70961	14317
3163.08	3.16625	1.11571	3.35707	-19.4112	5.18661	0.236492	-0.0110701	45.0982	4.98125	1	9	0.00528407	0.00157401	0	-6.32233e-06	-7.01621e-05	5.68179e-06	164.302	0.00360975	-0.0034751	-0.000976708	-19.4152	3.35347	3.16277	1.11473	0.280946	0.0989985	0.297878	19.4112	4981.26	14136.2	14988.2	-70.5888	0.0000000E+000	0.0000000E+000	0.0000000E+000	70.5888	0.0000000E+000	0.0000000E+000	0.0000000E+000	-70.5888	0.0000000E+000	0.0000000E+000	0.0000000E+000	-19.4112	0.0000000E+000	0.0000000E+000	0.0000000E+000	19.4112	2.83788	70.5888	-1.94093e-06	-2.61799e-06	7.76701e-10	-2.61876e-06	0.236562	21363.1	6.33799	21369.5
2155.69	3.41123	1.25971	3.6364	-20.2684	5.88386	0.236534	-0.0208135	58.6087	7.03336	1	10	0.00531467	0.00146152	0	-7.0171e-06	-0.00018475	1.16302e-05	-126.168	0.00795761	-0.00469622	0.00642411	-20.389	3.63423	3.40654	1.26614	0.25797	0.0952641	0.274997	20.2684	7033.36	19045.9	20303.1	-69.7316	0.0000000E+000	0.0000000E+000	0.0000000E+000	69.7316	0.0000000E+000	0.0000000E+000	0.0000000E+000	-69.7316	0.0000000E+000	0.0000000E+000	0.0000000E+000	-20.2684	0.0000000E+000	0.0000000E+000	0.0000000E+000	20.2684	2.70794	69.7316	-6.94768e-07	-4.92309e-06	3.8453e-09	-4.92694e-06	0.236719	11364.5	8.87647	11373.3
1468.59	3.67107	1.45274	3.94807	-21.59	6.33503	0.23652	-0.0212756	74.5988	10.1004	1	10	0.00527036	0.00133492	0	-1.06799e-05	4.44261e-05	1.59549e-05	-20.609	0.011952	0.0111871	0.00420696	-21.587	3.96002	3.68226	1.45695	0.235518	0.0932006	0.253288	21.59	10100.4	25523.7	27449.5	-68.41	0.0000000E+000	0.0000000E+000	0.0000000E+000	68.41	0.0000000E+000	0.0000000E+000	0.0000000E+000	-68.41	0.0000000E+000	0.0000000E+000	0.0000000E+000	-21.59	0.0000000E+000	0.0000000E+000	0.0000000E+000	21.59	2.527	68.41	-3.66283e-06	-5.0321e-06	-9.45191e-10	-5.03116e-06	0.236476	11117	2.08813	11114.9
1000.32	3.97582	1.7021	4.32485	-23.1763	6.78685	0.236527	-0.0202098	93.4753	14.4785	1	10	0.00522047	0.00120709	0	-1.22706e-05	8.26222e-05	7.22998e-06	-134.49	0.0059896	-0.00419744	0.00427279	-23.2503	4.32267	3.97163	1.70637	0.212562	0.0910003	0.231222	23.1763	14478.5	33819.5	36788.4	-66.8237	0.0000000E+000	0.0000000E+000	0.0000000E+000	66.8237	0.0000000E+000	0.0000000E+000	0.0000000E+000	-66.8237	0.0000000E+000	0.0000000E+000	0.0000000E+000	-23.1763	0.0000000E+000	0.0000000E+000	0.0000000E+000	23.1763	2.33584	66.8237	-1.59064e-06	-4.78017e-06	-1.66978e-09	-4.7785e-06	0.236445	11703.6	4.08823	11699.5
681.09	4.32694	2.0122	4.77194	-24.9403	7.23651	0.236539	-0.0191626	116.13	20.6489	1	10	0.00516259	0.00108186	0	-1.53702e-05	0.000178112	8.19946e-06	-22.2749	0.00757901	0.00701343	0.00287283	-24.9361	4.77951	4.33395	2.01507	0.190017	0.0883653	0.209559	24.9403	20648.9	44402.5	48969	-65.0597	0.0000000E+000	0.0000000E+000	0.0000000E+000	65.0597	0.0000000E+000	0.0000000E+000	0.0000000E+000	-65.0597	0.0000000E+000	0.0000000E+000	0.0000000E+000	-24.9403	0.0000000E+000	0.0000000E+000	0.0000000E+000	24.9403	2.15035	65.0597	-3.09966e-06	-4.5327e-06	-3.4131e-09	-4.52929e-06	0.236361	12343.8	9.29478	12334.5
463.961	4.78083	2.43543	5.36541	-26.995	7.6883	0.236534	-0.0192073	140.852	29.0207	1	10	0.00513125	0.000956358	0	-1.82431e-05	0.000426387	1.25364e-05	92.9185	0.0131085	-0.000667418	-0.0130915	-26.8735	5.35888	4.78016	2.42233	0.166072	0.0845998	0.186379	26.995	29020.7	56968.7	63934.6	-63.005	0.0000000E+000	0.0000000E+000	0.0000000E+000	63.005	0.0000000E+000	0.0000000E+000	0.0000000E+000	-63.005	0.0000000E+000	0.0000000E+000	0.0000000E+000	-26.995	0.0000000E+000	0.0000000E+000	0.0000000E+000	26.995	1.96304	63.005	-2.87282e-06	-4.5432e-06	-8.18976e-09	-4.53501e-06	0.236108	12314.8	22.1992	12292.6
316.316	5.36491	2.92978	6.11277	-28.6389	8.13608	0.236522	-0.0198558	171.737	39.451	1	10	0.00510055	0.00083441	0	-2.01512e-05	0.00010172	4.28447e-06	-4.15662	0.00513472	0.00512122	0.00037218	-28.619	6.11744	5.37004	2.93015	0.143578	0.0784078	0.163592	28.6389	39451	72241.4	82311.7	-61.3611	0.0000000E+000	0.0000000E+000	0.0000000E+000	61.3611	0.0000000E+000	0.0000000E+000	0.0000000E+000	-61.3611	0.0000000E+000	0.0000000E+000	0.0000000E+000	-28.6389	0.0000000E+000	0.0000000E+000	0.0000000E+000	28.6389	1.83117	61.3611	-1.90816e-06	-4.69632e-06	-2.01973e-09	-4.6943e-06	0.23642	11912	5.12296	11906.9
215.345	6.17628	3.47707	7.08777	-29.3783	8.58657	0.236519	-0.018667	212.556	51.1541	1	10	0.00507985	0.000716707	0	-2.16595e-05	0.000139916	1.23695e-05	-106.102	0.0172588	-0.00478672	0.0165817	-29.514	7.09175	6.1715	3.49365	0.122944	0.069214	0.141088	29.3783	51154.1	90864.5	104274	-60.6217	0.0000000E+000	0.0000000E+000	0.0000000E+000	60.6217	0.0000000E+000	0.0000000E+000	0.0000000E+000	-60.6217	0.0000000E+000	0.0000000E+000	0.0000000E+000	-29.3783	0.0000000E+000	0.0000000E+000	0.0000000E+000	29.3783	1.77629	60.6217	-1.50825e-06	-4.4151e-06	-2.61182e-09	-4.41249e-06	0.236379	12670.4	7.49538	12662.9
146.737	7.23941	3.96599	8.25458	-28.7154	9.03248	0.23651	-0.0195241	273.481	63.1307	1	10	0.00506712	0.000613856	0	-2.41418e-05	0.000120818	7.83315e-06	-57.9716	0.0127606	0.00676743	0.0108182	-28.7586	8.26572	7.24618	3.97681	0.106246	0.0582052	0.121145	28.7154	63130.7	115237	131397	-61.2846	0.0000000E+000	0.0000000E+000	0.0000000E+000	61.2846	0.0000000E+000	0.0000000E+000	0.0000000E+000	-61.2846	0.0000000E+000	0.0000000E+000	0.0000000E+000	-28.7154	0.0000000E+000	0.0000000E+000	0.0000000E+000	28.7154	1.82537	61.2846	-2.48238e-06	-4.61765e-06	-2.35887e-09	-4.61529e-06	0.236389	12113.8	6.18816	12107.6
100.032	8.50707	4.2941	9.5294	-26.7832	9.48382	0.236519	-0.0195502	370.518	75.2354	1	10	0.00506475	0.000531486	0	-2.644e-05	-0.00018475	9.62246e-06	111.486	0.0181048	-0.00663138	-0.0168466	-26.7106	9.5159	8.50044	4.27725	0.0936804	0.0472869	0.104938	26.7832	75235.4	149049	166961	-63.2168	0.0000000E+000	0.0000000E+000	0.0000000E+000	63.2168	0.0000000E+000	0.0000000E+000	0.0000000E+000	-63.2168	0.0000000E+000	0.0000000E+000	0.0000000E+000	-26.7832	0.0000000E+000	0.0000000E+000	0.0000000E+000	26.7832	1.98111	63.2168	-2.29816e-06	-4.62399e-06	3.61191e-09	-4.6276e-06	0.236704	12098	9.45005	12107.5
68.104	9.90849	4.3518	10.822	-23.7111	9.94646	0.236525	-0.0168484	537.005	86.8359	1	10	0.00506086	0.000467644	0	-2.86025e-05	-1.2868e-05	3.51039e-06	-64.1491	0.00750654	0.00327308	0.00675538	-23.7368	10.8277	9.91177	4.35856	0.0846038	0.0371579	0.0924041	23.7111	86835.9	197714	215943	-66.2889	0.0000000E+000	0.0000000E+000	0.0000000E+000	66.2889	0.0000000E+000	0.0000000E+000	0.0000000E+000	-66.2889	0.0000000E+000	0.0000000E+000	0.0000000E+000	-23.7111	0.0000000E+000	0.0000000E+000	0.0000000E+000	23.7111	2.27687	66.2889	-2.16252e-06	-3.98508e-06	2.16806e-10	-3.98529e-06	0.236538	14038.4	0.76375	14039.1
46.4415	11.2218	4.09036	11.944	-20.0269	10.3827	0.236515	-0.0192148	837.823	98.2599	1	10	0.00505425	0.000423163	0	-3.09658e-05	0.000254505	1.1434e-05	74.2963	0.0270204	0.00731343	-0.0260119	-19.8977	11.942	11.2291	4.06435	0.0786615	0.0286723	0.0837241	20.0269	98259.9	269573	286922	-69.9731	0.0000000E+000	0.0000000E+000	0.0000000E+000	69.9731	0.0000000E+000	0.0000000E+000	0.0000000E+000	-69.9731	0.0000000E+000	0.0000000E+000	0.0000000E+000	-20.0269	0.0000000E+000	0.0000000E+000	0.0000000E+000	20.0269	2.74346	69.9731	-2.36329e-06	-4.5446e-06	-4.89026e-09	-4.5397e-06	0.236261	12309	13.2452	12295.8
31.6296	12.3542	3.65065	12.8823	-16.4623	10.8125	0.2365	-0.0198521	1378.34	110.69	1	10	0.00505562	0.000392446	0	-3.24417e-05	-0.000108358	6.68837e-06	-155.282	0.0170428	-0.0154812	0.00712658	-16.5123	12.8695	12.3388	3.65778	0.0744435	0.0219979	0.0776257	16.4623	110690	374588	390600	-73.5377	0.0000000E+000	0.0000000E+000	0.0000000E+000	73.5377	0.0000000E+000	0.0000000E+000	0.0000000E+000	-73.5377	0.0000000E+000	0.0000000E+000	0.0000000E+000	-16.4623	0.0000000E+000	0.0000000E+000	0.0000000E+000	16.4623	3.38412	73.5377	-1.47586e-06	-4.695e-06	2.15113e-09	-4.69715e-06	0.236608	11913.1	5.45829	11918.6
21.5517	13.2219	3.11181	13.5832	-13.2437	11.2335	0.236497	-0.0219799	2373.15	124.551	1	10	0.00505444	0.00037211	0	-3.47466e-05	0.000273603	1.12492e-05	-99.3808	0.0302307	-0.00492747	0.0298264	-13.3709	13.5853	13.217	3.14164	0.0716625	0.0168659	0.0736204	13.2437	124551	529212	543672	-76.7563	0.0000000E+000	0.0000000E+000	0.0000000E+000	76.7563	0.0000000E+000	0.0000000E+000	0.0000000E+000	-76.7563	0.0000000E+000	0.0000000E+000	0.0000000E+000	-13.2437	0.0000000E+000	0.0000000E+000	0.0000000E+000	13.2437	4.24895	76.7563	-2.30494e-06	-5.19819e-06	-6.01376e-09	-5.19217e-06	0.236224	10759.7	12.4478	10747.2
14.6852	13.9182	2.5813	14.1555	-10.5069	11.9432	0.236543	-0.0142346	4198.58	139.614	1	11	0.00505369	0.000357012	0	-3.85441e-05	0.000254505	5.93334e-06	67.1278	0.0166194	0.00645958	-0.0153127	-10.4412	14.1591	13.9246	2.56599	0.0694593	0.0128821	0.0706438	10.5069	139614	752787	765624	-79.4931	0.0000000E+000	0.0000000E+000	0.0000000E+000	79.4931	0.0000000E+000	0.0000000E+000	0.0000000E+000	-79.4931	0.0000000E+000	0.0000000E+000	0.0000000E+000	-10.5069	0.0000000E+000	0.0000000E+000	0.0000000E+000	10.5069	5.39192	79.4931	-3.79744e-06	-3.36709e-06	-3.62276e-09	-3.36347e-06	0.236289	16617.5	17.8793	16599.7
10.0032	14.4066	2.13721	14.5642	-8.43827	12.3938	0.236544	-0.0140365	7444.47	160.307	1	11	0.00505198	0.000346876	0	-3.86321e-05	0.000235406	7.88527e-06	-4.607	0.0227323	0.0226588	0.00182587	-8.43231	14.5869	14.4292	2.13904	0.0679181	0.0100756	0.0686614	8.43827	160307	1.0806e+06	1.09243e+06	-81.5617	0.0000000E+000	0.0000000E+000	0.0000000E+000	81.5617	0.0000000E+000	0.0000000E+000	0.0000000E+000	-81.5617	0.0000000E+000	0.0000000E+000	0.0000000E+000	-8.43827	0.0000000E+000	0.0000000E+000	0.0000000E+000	8.43827	6.74083	81.5617	-8.80018e-08	-3.32025e-06	-3.30428e-09	-3.31694e-06	0.236309	16852.1	16.7711	16835.3
6.81719	14.8217	1.80958	14.9317	-6.96082	12.7335	0.236523	-0.0146837	12901.4	189.484	1	11	0.00506322	0.000339091	0	-4.28037e-05	6.35241e-05	8.81506e-06	128.847	0.0259961	-0.0163058	-0.0202465	-6.8912	14.9131	14.8054	1.78934	0.0664779	0.00811631	0.0669715	6.96082	189484	1.552e+06	1.56352e+06	-83.0392	0.0000000E+000	0.0000000E+000	0.0000000E+000	83.0392	0.0000000E+000	0.0000000E+000	0.0000000E+000	-83.0392	0.0000000E+000	0.0000000E+000	0.0000000E+000	-6.96082	0.0000000E+000	0.0000000E+000	0.0000000E+000	6.96082	8.19065	83.0392	-4.17168e-06	-3.47305e-06	-9.32772e-10	-3.47211e-06	0.23646	16107.9	4.32616	16103.5
4.63925	15.1257	1.5732	15.2073	-5.93789	13.2175	0.236543	-0.0141629	21806.6	233.373	1	11	0.0050573	0.000332557	0	-4.20249e-05	0.000254505	3.38226e-05	96.3516	0.101705	-0.0112515	-0.101081	-5.56296	15.186	15.1145	1.47212	0.0654049	0.00680266	0.0657577	5.93789	233373	2.24379e+06	2.2559e+06	-84.0621	0.0000000E+000	0.0000000E+000	0.0000000E+000	84.0621	0.0000000E+000	0.0000000E+000	0.0000000E+000	-84.0621	0.0000000E+000	0.0000000E+000	0.0000000E+000	-5.93789	0.0000000E+000	0.0000000E+000	0.0000000E+000	5.93789	9.61461	84.0621	7.78822e-07	-3.35014e-06	-3.60453e-09	-3.34654e-06	0.236289	16701.6	17.9698	16683.6
3.1604	15.3986	1.32211	15.4552	-4.90732	13.9104	0.236544	-0.0128376	38090.1	278.737	1	11	0.00505529	0.000327092	0	-4.0854e-05	0.000349995	2.47734e-06	11.7665	0.00757382	0.00741467	-0.00154448	-4.89927	15.4625	15.406	1.32056	0.0644659	0.00553497	0.064703	4.90732	278736	3.24645e+06	3.25839e+06	-85.0927	0.0000000E+000	0.0000000E+000	0.0000000E+000	85.0927	0.0000000E+000	0.0000000E+000	0.0000000E+000	-85.0927	0.0000000E+000	0.0000000E+000	0.0000000E+000	-4.90732	0.0000000E+000	0.0000000E+000	0.0000000E+000	4.90732	11.647	85.0927	1.17096e-06	-3.03667e-06	-4.49311e-09	-3.03218e-06	0.236194	18425.8	27.2632	18398.6
2.15577	15.6427	1.20125	15.6887	-4.39132	14.9141	0.236555	-0.0108378	61458.8	360.311	1	11	0.0050568	0.000322321	0	-4.51915e-05	0.00010172	3.32379e-06	82.3051	0.010312	0.00138076	-0.0102192	-4.35372	15.6893	15.644	1.19103	0.0635529	0.00488044	0.0637401	4.39132	360311	4.69196e+06	4.70577e+06	-85.6087	0.0000000E+000	0.0000000E+000	0.0000000E+000	85.6087	0.0000000E+000	0.0000000E+000	0.0000000E+000	-85.6087	0.0000000E+000	0.0000000E+000	0.0000000E+000	-4.39132	0.0000000E+000	0.0000000E+000	0.0000000E+000	4.39132	13.022	85.6087	-4.33752e-06	-2.56373e-06	-1.10242e-09	-2.56263e-06	0.236454	21827	9.38573	21817.6
1.46631	15.8485	1.08738	15.8858	-3.92498	16.3755	0.236561	-0.00932925	99818.5	467.693	1	11	0.00505697	0.000318333	0	-5.61788e-05	0.000292701	3.82067e-06	33.3805	0.0120021	0.0100222	-0.00660352	-3.89876	15.8953	15.8585	1.08078	0.0628018	0.0043089	0.0629494	3.92498	467693	6.81658e+06	6.8326e+06	-86.075	0.0000000E+000	0.0000000E+000	0.0000000E+000	86.075	0.0000000E+000	0.0000000E+000	0.0000000E+000	-86.075	0.0000000E+000	0.0000000E+000	0.0000000E+000	-3.92498	0.0000000E+000	0.0000000E+000	0.0000000E+000	3.92498	14.5749	86.075	-1.09873e-05	-2.20694e-06	-2.73068e-09	-2.20421e-06	0.236268	25356.9	31.3745	25325.6
1.00006	16.0405	1.02697	16.0733	-3.66329	19.5509	0.236547	-0.00958303	154966	632.615	1	12	0.00506101	0.000314871	0	-7.36586e-05	0.000139916	3.59865e-06	-44.9802	0.011429	0.00808431	0.00807873	-3.69017	16.0819	16.0485	1.03505	0.0620879	0.00397509	0.062215	3.66329	632615	9.88096e+06	9.90119e+06	-86.3367	0.0000000E+000	0.0000000E+000	0.0000000E+000	86.3367	0.0000000E+000	0.0000000E+000	0.0000000E+000	-86.3367	0.0000000E+000	0.0000000E+000	0.0000000E+000	-3.66329	0.0000000E+000	0.0000000E+000	0.0000000E+000	3.66329	15.6192	86.3367	-1.74798e-05	-2.26684e-06	-1.34082e-09	-2.2655e-06	0.236407	24683.9	14.6004	24669.3
0.681362	16.1937	1.03196	16.2266	-3.64628	22.663	0.236548	-0.0100941	226350	915.482	1	12	0.0050592	0.000311785	0	-8.30228e-05	0.000235406	3.12037e-06	-30.1231	0.0100081	0.00865647	0.00502265	-3.66203	16.2355	16.2024	1.03698	0.0615026	0.00391929	0.0616273	3.64628	915483	1.4366e+07	1.43951e+07	-86.3537	0.0000000E+000	0.0000000E+000	0.0000000E+000	86.3537	0.0000000E+000	0.0000000E+000	0.0000000E+000	-86.3537	0.0000000E+000	0.0000000E+000	0.0000000E+000	-3.64628	0.0000000E+000	0.0000000E+000	0.0000000E+000	3.64628	15.6923	86.3537	-9.36421e-06	-2.38774e-06	-2.37622e-09	-2.38537e-06	0.236313	23434.3	23.3212	23411
0.464091	16.3175	1.12265	16.3561	-3.93576	27.2195	0.236549	-0.0100176	305474	1439.14	1	12	0.00505658	0.000309156	0	-8.24168e-05	4.44261e-05	3.07041e-06	-17.6273	0.00993157	0.00946525	0.00300752	-3.94399	16.3657	16.327	1.12565	0.0609952	0.00419648	0.0611394	3.93576	1.43914e+06	2.09177e+07	2.09671e+07	-86.0642	0.0000000E+000	0.0000000E+000	0.0000000E+000	86.0642	0.0000000E+000	0.0000000E+000	0.0000000E+000	-86.0642	0.0000000E+000	0.0000000E+000	0.0000000E+000	-3.93576	0.0000000E+000	0.0000000E+000	0.0000000E+000	3.93576	14.5348	86.0642	6.05987e-07	-2.36965e-06	-4.45044e-10	-2.36921e-06	0.236504	23613.2	4.43479	23608.8
0.316193	16.4281	1.30867	16.4802	-4.55457	33.8939	0.236545	-0.00903794	384626	2425.34	1	12	0.00505889	0.000306968	0	-7.13654e-05	0.000139916	9.084e-07	-45.6138	0.00295926	0.00206998	0.00211481	-4.56133	16.4824	16.4302	1.31078	0.0604874	0.00481843	0.060679	4.55457	2.42534e+06	3.04462e+07	3.05426e+07	-85.4454	0.0000000E+000	0.0000000E+000	0.0000000E+000	85.4454	0.0000000E+000	0.0000000E+000	0.0000000E+000	-85.4454	0.0000000E+000	0.0000000E+000	0.0000000E+000	-4.55457	0.0000000E+000	0.0000000E+000	0.0000000E+000	4.55457	12.5533	85.4454	1.10515e-05	-2.13788e-06	-1.26455e-09	-2.13662e-06	0.236405	26172.5	15.481	26157
0.215268	16.5832	1.59562	16.6598	-5.49602	43.6873	0.236536	-0.00611166	463352	4250.41	1	12	0.00506193	0.000303841	0	-5.70292e-05	0.00010172	2.8964e-06	-20.3569	0.0095326	0.00893722	0.00331608	-5.50443	16.669	16.5922	1.59894	0.0597488	0.00574897	0.0600247	5.49602	4.25041e+06	4.41743e+07	4.43784e+07	-84.504	0.0000000E+000	0.0000000E+000	0.0000000E+000	84.504	0.0000000E+000	0.0000000E+000	0.0000000E+000	-84.504	0.0000000E+000	0.0000000E+000	0.0000000E+000	-5.49602	0.0000000E+000	0.0000000E+000	0.0000000E+000	5.49602	10.393	84.504	1.43362e-05	-1.44563e-06	-6.21679e-10	-1.44501e-06	0.236434	38702.4	16.6436	38685.8
0.146929	16.8112	2.06292	16.9373	-6.99586	58.0256	0.236527	-0.00353201	525085	7789.47	1	12	0.00505697	0.00029857	0	-5.44051e-05	0.000273603	2.11698e-06	15.5962	0.00709041	0.00682934	-0.00190629	-6.98665	16.9439	16.818	2.06102	0.0586017	0.00719109	0.0590413	6.99586	7.78947e+06	6.3478e+07	6.39542e+07	-83.0041	0.0000000E+000	0.0000000E+000	0.0000000E+000	83.0041	0.0000000E+000	0.0000000E+000	0.0000000E+000	-83.0041	0.0000000E+000	0.0000000E+000	0.0000000E+000	-6.99586	0.0000000E+000	0.0000000E+000	0.0000000E+000	6.99586	8.14921	83.0041	2.62412e-06	-8.35417e-07	-9.66366e-10	-8.3445e-07	0.236254	66966.9	77.4638	66889.4
0.0999041	17.068	2.79429	17.2952	-9.2977	79.1017	0.236535	-0.00134976	570120	14881.8	1	12	0.00506436	0.000292819	0	-9.43379e-05	0.000273603	1.71467e-06	-12.167	0.00585572	0.00572419	0.00123416	-9.29867	17.3011	17.0737	2.79552	0.0570599	0.00934156	0.0578195	9.2977	1.48818e+07	9.09008e+07	9.21109e+07	-80.7023	0.0000000E+000	0.0000000E+000	0.0000000E+000	80.7023	0.0000000E+000	0.0000000E+000	0.0000000E+000	-80.7023	0.0000000E+000	0.0000000E+000	0.0000000E+000	-9.2977	0.0000000E+000	0.0000000E+000	0.0000000E+000	9.2977	6.10817	80.7023	-3.99328e-05	-3.19264e-07	-3.69297e-10	-3.18895e-07	0.236261	175242	202.705	175040
0.0680626	17.3554	3.7466	17.7552	-12.1818	110.028	0.236542	-0.00118168	624128	27790.7	1	12	0.00506616	0.000285334	0	-0.000197952	0.000407289	1.6049e-06	60.5668	0.00562462	0.00276398	-0.00489864	-12.1645	17.7568	17.3581	3.7417	0.0550534	0.0118847	0.0563216	12.1818	2.77907e+07	1.28735e+08	1.317e+08	-77.8182	0.0000000E+000	0.0000000E+000	0.0000000E+000	77.8182	0.0000000E+000	0.0000000E+000	0.0000000E+000	-77.8182	0.0000000E+000	0.0000000E+000	0.0000000E+000	-12.1818	0.0000000E+000	0.0000000E+000	0.0000000E+000	12.1818	4.6323	77.8182	-0.000103614	-2.79518e-07	-4.81286e-10	-2.79037e-07	0.236135	200174	344.669	199830
0.0464052	17.8309	4.89384	18.4903	-15.3474	155.379	0.236539	-0.00294379	700815	49092.4	1	12	0.00505727	0.000273509	0	-0.000403649	0.000120818	1.90408e-06	5.858	0.00696168	0.00692533	-0.000710533	-15.3396	18.4968	17.8379	4.89313	0.0521537	0.014314	0.0540823	15.3474	4.90924e+07	1.7887e+08	1.85485e+08	-74.6526	0.0000000E+000	0.0000000E+000	0.0000000E+000	74.6526	0.0000000E+000	0.0000000E+000	0.0000000E+000	-74.6526	0.0000000E+000	0.0000000E+000	0.0000000E+000	-15.3474	0.0000000E+000	0.0000000E+000	0.0000000E+000	15.3474	3.64355	74.6526	-0.000205698	-6.96321e-07	-3.55664e-10	-6.95965e-07	0.236418	80351.6	41.0417	80310.5
0.0315922	18.5958	6.67184	19.7564	-19.7371	221.985	0.236532	-0.00363611	755083	86113.2	1	12	0.00505599	0.000255916	0	-0.000631608	0.000311799	1.82269e-06	-1.7162	0.00712223	0.00711903	0.000213303	-19.7307	19.7632	18.6029	6.67205	0.0476429	0.0170934	0.0506165	19.7371	8.61132e+07	2.40015e+08	2.54995e+08	-70.2629	0.0000000E+000	0.0000000E+000	0.0000000E+000	70.2629	0.0000000E+000	0.0000000E+000	0.0000000E+000	-70.2629	0.0000000E+000	0.0000000E+000	0.0000000E+000	-19.7371	0.0000000E+000	0.0000000E+000	0.0000000E+000	19.7371	2.7872	70.2629	-0.000227959	-8.60057e-07	-1.13373e-09	-8.58923e-07	0.23622	65050.8	85.7506	64965.1
0.0215268	19.4675	9.23449	21.5467	-25.3775	319.722	0.236524	-0.00366396	800623	147060	1	12	0.00506072	0.000234873	0	-0.000723401	0.000311799	2.06757e-06	77.8848	0.00880292	0.00184754	-0.00860686	-25.3548	21.5446	19.4693	9.22588	0.0419324	0.0198908	0.0464109	25.3775	1.4706e+08	3.10021e+08	3.43132e+08	-64.6225	0.0000000E+000	0.0000000E+000	0.0000000E+000	64.6225	0.0000000E+000	0.0000000E+000	0.0000000E+000	-64.6225	0.0000000E+000	0.0000000E+000	0.0000000E+000	-25.3775	0.0000000E+000	0.0000000E+000	0.0000000E+000	25.3775	2.10813	64.6225	-9.17934e-05	-8.66614e-07	-1.14242e-09	-8.65472e-07	0.236212	64554.2	85.0988	64469.1
0.0146812	20.6152	12.4206	24.0678	-31.0688	463.025	0.236525	-0.00348791	872803	232450	1	12	0.0050572	0.000210123	0	-0.000544081	6.35241e-05	1.31914e-06	3.97585	0.00627795	0.00626284	-0.000435288	-31.0603	24.073	20.6215	12.4202	0.0355889	0.0214422	0.0415493	31.0688	2.3245e+08	3.85811e+08	4.50425e+08	-58.9312	0.0000000E+000	0.0000000E+000	0.0000000E+000	58.9312	0.0000000E+000	0.0000000E+000	0.0000000E+000	-58.9312	0.0000000E+000	0.0000000E+000	0.0000000E+000	-31.0688	0.0000000E+000	0.0000000E+000	0.0000000E+000	31.0688	1.65976	58.9312	0.000179321	-8.24978e-07	-2.21567e-10	-8.24757e-07	0.236462	67812.8	18.2127	67794.6
0.0100092	22.5861	16.485	27.9623	-36.1247	673.206	0.236523	-0.00323547	964568	335248	1	12	0.00505458	0.000180764	0	-0.000178336	0.00010172	1.9727e-06	44.3544	0.0109131	0.0078032	-0.00762929	-36.1026	27.9641	22.5939	16.4774	0.0288866	0.0210836	0.0357625	36.1247	3.35248e+08	4.59324e+08	5.68656e+08	-53.8753	0.0000000E+000	0.0000000E+000	0.0000000E+000	53.8753	0.0000000E+000	0.0000000E+000	0.0000000E+000	-53.8753	0.0000000E+000	0.0000000E+000	0.0000000E+000	-36.1247	0.0000000E+000	0.0000000E+000	0.0000000E+000	36.1247	1.3701	53.8753	0.000365745	-7.65262e-07	-3.29112e-10	-7.64933e-07	0.236421	73103.1	31.4391	73071.7