File: txt/19005_R309_UA708_SOC00_C04.mpt
EC-Lab ASCII FILE
Nb header lines : 65

Potentio Electrochemical Impedance Spectroscopy

Run on channel : 4 (SN 66756)
Grouped channel(s) : 2, 3, 4, 5, 6
User :
CE vs. WE compliance from -10 V to 10 V
Electrode connection : standard
Potential control : Ewe
Ewe ctrl range : min = -10.00 V, max = 10.00 V
Safety Limits :
	Do not start on E overload
Acquisition started on : 11/04/2025 16:08:38.802
Loaded Setting File :  C:\Users\Celltest\OneDrive - store-dot.com\Documents\EC-Lab\Data\@Biologic Test Protocols\anode half cell EIS SOC00.mps
Saved on :
	File : 19003_R309_UA708_SOC00_C04.mpr
	Directory : C:\Users\Celltest\OneDrive - store-dot.com\Documents\EC-Lab\Data\Charmaine\
	Host : 169.254.61.224
Device : VMP-3e (SN .003165)
Address : USB
EC-LAB for windows v11.62 (software)
Internet server v27.00 (firmware)
Command interpretor v12.03 (firmware)
Electrode material :
Initial state :
Electrolyte :
Comments :
Electrode surface area : 0.001 cm²
Characteristic mass : 0.001 g
Equivalent Weight : 0.000 g/eq.
Density : 0.000 g/cm3
Volume (V) : 0.001 cm³
Record Ece
Cycle Definition : Charge/Discharge alternance
Mode                Single sine
E (V)               0.0000
vs.                 Eoc
tE (h:m:s)          0:00:0.0000
record              0
dI                  0.000
unit dI             mA
dt (s)              0.000
fi                  100.000
unit fi             kHz
ff                  10.000
unit ff             mHz
Nd                  6
Points              per decade
spacing             Logarithmic
Va (mV)             5.0
pw                  0.10
Na                  2
corr                0
E range min (V)     -10.000
E range max (V)     10.000
I Range             Auto
Bandwidth           5
nc cycles           0
goto Ns'            0
nr cycles           0
inc. cycle          0

freq/Hz	Re(Z)/Ohm	-Im(Z)/Ohm	|Z|/Ohm	Phase(Z)/deg	time/s	<Ewe>/V	<I>/mA	Cs/µF	Cp/µF	cycle number	I Range	|Ewe|/V	|I|/A	Ns	(Q-Qo)/mA.h	<Ece>/V	|Ece|/V	Phase(Zce)/deg	|Zce|/Ohm	Re(Zce)/Ohm	-Im(Zce)/Ohm	Phase(Zwe-ce)/deg	|Zwe-ce|/Ohm	Re(Zwe-ce)/Ohm	-Im(Zwe-ce)/Ohm	Re(Y)/Ohm-1	Im(Y)/Ohm-1	|Y|/Ohm-1	Phase(Y)/deg	Re(C)/nF	Im(C)/nF	|C|/nF	Phase(C)/deg	Re(M)	Im(M)	|M|	Phase(M)/deg	Re(Permittivity)	Im(Permittivity)	|Permittivity|	Phase(Permittivity)/deg	Re(Resistivity)/Ohm.cm	Im(Resistivity)/Ohm.cm	|Resistivity|/Ohm.cm	Phase(Resistivity)/deg	Re(Conductivity)/mS/cm	Im(Conductivity)/mS/cm	|Conductivity|/mS/cm	Phase(Conductivity)/deg	Tan(Delta)	Loss Angle(Delta)/deg	dq/mA.h	Pwe/W	Pce/W	Pwe-ce/W	<Ewe-Ece>/V	Rwe/Ohm	Rce/Ohm	Rwe-ce/Ohm		Ewe-Ece/V
100004	1.66252	0.612323	1.77169	-20.2193	1.86856	0.240788	-0.0122188	2.5991	0.310461	1	9	0.00491226	0.00277264	0	-4.08285e-06	-0.000336214	3.32901e-05	54.9687	0.0120066	0.0068921	-0.00983151	-19.8446	1.7748	1.66941	0.602491	0.52965	0.195076	0.564432	20.2193	310.461	842.932	898.288	-69.7807	0.0000000E+000	0.0000000E+000	0.0000000E+000	69.7807	0.0000000E+000	0.0000000E+000	0.0000000E+000	-69.7807	0.0000000E+000	0.0000000E+000	0.0000000E+000	-20.2193	0.0000000E+000	0.0000000E+000	0.0000000E+000	20.2193	2.7151	69.7807	-4.08285e-06	-2.94214e-06	4.10814e-09	-2.94625e-06	0.241124	19706.3	27.5161	19733.9
68132	1.8366	0.680276	1.95854	-20.3246	2.25152	0.240657	-0.086515	3.43387	0.414275	1	9	0.00539631	0.00275527	0	-2.69231e-06	2.68747e-05	2.79751e-05	34.2962	0.0101533	0.008388	-0.00572109	-20.0832	1.96444	1.84499	0.674555	0.478795	0.177346	0.510584	20.3246	414.275	1118.46	1192.71	-69.6754	0.0000000E+000	0.0000000E+000	0.0000000E+000	69.6754	0.0000000E+000	0.0000000E+000	0.0000000E+000	-69.6754	0.0000000E+000	0.0000000E+000	0.0000000E+000	-20.3246	0.0000000E+000	0.0000000E+000	0.0000000E+000	20.3246	2.69979	69.6754	1.39053e-06	-2.08205e-05	-2.32507e-09	-2.08182e-05	0.240631	2781.68	0.310636	2781.37
46420.4	2.02412	0.738924	2.15478	-20.0551	2.63452	0.240796	0.00799631	4.63994	0.545641	1	9	0.00543409	0.00252188	0	-1.07488e-05	-0.000145115	1.73685e-05	13.9631	0.00688712	0.00668361	-0.00166184	-19.9529	2.16049	2.0308	0.737262	0.435944	0.159146	0.464085	20.0551	545.641	1494.66	1591.14	-69.9449	0.0000000E+000	0.0000000E+000	0.0000000E+000	69.9449	0.0000000E+000	0.0000000E+000	0.0000000E+000	-69.9449	0.0000000E+000	0.0000000E+000	0.0000000E+000	-20.0551	0.0000000E+000	0.0000000E+000	0.0000000E+000	20.0551	2.73928	69.9449	-8.05644e-06	1.92548e-06	-1.16038e-09	1.92664e-06	0.240941	30113.3	18.1477	30131.5
31621.1	2.22437	0.794333	2.36195	-19.6519	3.01956	0.24078	-0.00774315	6.33636	0.716646	1	9	0.00541751	0.00229366	0	-1.45966e-05	4.59847e-05	7.76341e-06	33.4139	0.00338472	0.00282527	-0.00186391	-19.5863	2.36398	2.2272	0.792469	0.398719	0.142384	0.42338	19.6519	716.646	2006.83	2130.95	-70.3481	0.0000000E+000	0.0000000E+000	0.0000000E+000	70.3481	0.0000000E+000	0.0000000E+000	0.0000000E+000	-70.3481	0.0000000E+000	0.0000000E+000	0.0000000E+000	-19.6519	0.0000000E+000	0.0000000E+000	0.0000000E+000	19.6519	2.8003	70.3481	-3.84788e-06	-1.86439e-06	-3.56066e-10	-1.86404e-06	0.240734	31095.9	5.93876	31090
21544.7	2.41387	0.821114	2.54971	-18.7865	3.40255	0.240747	-0.0333664	8.99656	0.933045	1	9	0.00539824	0.0021172	0	-2.14947e-05	6.50946e-05	5.78563e-06	-65.6425	0.00273268	0.00112704	0.00248944	-18.8313	2.55158	2.415	0.823603	0.371307	0.126306	0.392202	18.7865	933.045	2742.92	2897.27	-71.2135	0.0000000E+000	0.0000000E+000	0.0000000E+000	71.2135	0.0000000E+000	0.0000000E+000	0.0000000E+000	-71.2135	0.0000000E+000	0.0000000E+000	0.0000000E+000	-18.7865	0.0000000E+000	0.0000000E+000	0.0000000E+000	18.7865	2.93975	71.2135	-6.89811e-06	-8.03286e-06	-2.17197e-09	-8.03069e-06	0.240682	7215.26	1.9509	7213.31
14678.6	2.60452	0.849155	2.73945	-18.0576	3.78555	0.24074	-0.0250864	12.7688	1.22686	1	9	0.00535359	0.00195426	0	-2.84001e-05	2.68747e-05	9.25118e-06	1.13045	0.00473386	0.00473294	-9.33936e-05	-18.0251	2.74393	2.60926	0.849061	0.347057	0.113151	0.365036	18.0576	1226.86	3763.02	3957.96	-71.9424	0.0000000E+000	0.0000000E+000	0.0000000E+000	71.9424	0.0000000E+000	0.0000000E+000	0.0000000E+000	-71.9424	0.0000000E+000	0.0000000E+000	0.0000000E+000	-18.0576	0.0000000E+000	0.0000000E+000	0.0000000E+000	18.0576	3.0672	71.9424	-6.90534e-06	-6.03929e-06	-6.7419e-10	-6.03862e-06	0.240713	9596.42	1.07129	9595.34
10002.2	2.79799	0.896082	2.93797	-17.7582	4.16856	0.240717	-0.0661134	17.7572	1.65187	1	9	0.00535293	0.00182198	0	-3.26864e-05	8.42046e-05	6.67458e-06	-89.794	0.00366337	1.31713e-05	0.00366334	-17.8261	2.93911	2.798	0.899746	0.324153	0.103813	0.340371	17.7582	1651.87	5157.9	5415.96	-72.2418	0.0000000E+000	0.0000000E+000	0.0000000E+000	72.2418	0.0000000E+000	0.0000000E+000	0.0000000E+000	-72.2418	0.0000000E+000	0.0000000E+000	0.0000000E+000	-17.7582	0.0000000E+000	0.0000000E+000	0.0000000E+000	17.7582	3.12246	72.2418	-4.28627e-06	-1.59146e-05	-5.56705e-09	-1.5909e-05	0.240632	3640.96	1.27364	3639.69
6810.42	2.96846	0.99423	3.13053	-18.5173	4.55151	0.24074	-0.0214686	23.5049	2.37081	1	9	0.00506027	0.00161642	0	-3.564e-05	-6.86751e-05	0.000108318	-16.599	0.0670106	0.0642181	0.0191431	-18.4771	3.19751	3.03268	1.01337	0.302896	0.10145	0.319434	18.5173	2370.81	7078.48	7464.96	-71.4827	0.0000000E+000	0.0000000E+000	0.0000000E+000	71.4827	0.0000000E+000	0.0000000E+000	0.0000000E+000	-71.4827	0.0000000E+000	0.0000000E+000	0.0000000E+000	-18.5173	0.0000000E+000	0.0000000E+000	0.0000000E+000	18.5173	2.98569	71.4827	-2.9536e-06	-5.16835e-06	1.47436e-09	-5.16983e-06	0.240809	11213.6	3.19886	11216.8
4646	3.20953	1.04614	3.37572	-18.0533	4.94362	0.240738	-0.0288907	32.7453	3.14485	1	9	0.00509423	0.00150908	0	-3.84573e-05	-0.000221555	1.01249e-05	-64.9473	0.00670934	0.00284108	0.00607811	-18.1364	3.38031	3.21237	1.05222	0.281649	0.0918034	0.296233	18.0533	3144.85	9648.27	10147.9	-71.9466	0.0000000E+000	0.0000000E+000	0.0000000E+000	71.9466	0.0000000E+000	0.0000000E+000	0.0000000E+000	-71.9466	0.0000000E+000	0.0000000E+000	0.0000000E+000	-18.0533	0.0000000E+000	0.0000000E+000	0.0000000E+000	18.0533	3.06796	71.9466	-2.81737e-06	-6.95511e-06	6.40088e-09	-6.96151e-06	0.24096	8332.71	7.66871	8340.38
3163.08	3.42833	1.16621	3.62125	-18.7866	5.31666	0.240692	-0.0422432	43.1454	4.47474	1	9	0.00532048	0.00146924	0	-4.20147e-05	-0.000202445	3.98711e-06	-11.3677	0.00271373	0.00266049	0.00053489	-18.7811	3.62395	3.43099	1.16674	0.261435	0.0889319	0.276147	18.7866	4474.74	13154.5	13894.8	-71.2134	0.0000000E+000	0.0000000E+000	0.0000000E+000	71.2134	0.0000000E+000	0.0000000E+000	0.0000000E+000	-71.2134	0.0000000E+000	0.0000000E+000	0.0000000E+000	-18.7866	0.0000000E+000	0.0000000E+000	0.0000000E+000	18.7866	2.93973	71.2134	-3.55738e-06	-1.01676e-05	8.55191e-09	-1.01762e-05	0.240895	5697.77	4.79237	5702.57
2155.69	3.70986	1.31581	3.9363	-19.5286	6.0128	0.240707	-0.0149863	56.1099	6.26978	1	10	0.00537467	0.00136541	0	-4.50457e-05	4.59847e-05	7.23666e-06	79.6807	0.00529998	0.000949404	-0.00521425	-19.4524	3.93545	3.71081	1.3106	0.239432	0.0849217	0.254046	19.5286	6269.78	17677.3	18756.3	-70.4714	0.0000000E+000	0.0000000E+000	0.0000000E+000	70.4714	0.0000000E+000	0.0000000E+000	0.0000000E+000	-70.4714	0.0000000E+000	0.0000000E+000	0.0000000E+000	-19.5286	0.0000000E+000	0.0000000E+000	0.0000000E+000	19.5286	2.81944	70.4714	-3.03099e-06	-3.60732e-06	-6.89142e-10	-3.60663e-06	0.240661	16061.7	3.06844	16058.7
1468.59	3.98825	1.49898	4.26064	-20.5986	6.46404	0.240719	-0.0139792	72.2978	8.94878	1	10	0.00536114	0.00125829	0	-4.79265e-05	-4.95651e-05	8.67159e-06	-62.2114	0.00689155	0.00321292	0.00609677	-20.6601	4.2658	3.99147	1.50507	0.219701	0.0825742	0.234706	20.5986	8948.78	23809.6	25435.7	-69.4014	0.0000000E+000	0.0000000E+000	0.0000000E+000	69.4014	0.0000000E+000	0.0000000E+000	0.0000000E+000	-69.4014	0.0000000E+000	0.0000000E+000	0.0000000E+000	-20.5986	0.0000000E+000	0.0000000E+000	0.0000000E+000	20.5986	2.66065	69.4014	-2.88078e-06	-3.36507e-06	6.92881e-10	-3.36576e-06	0.240769	17219.8	3.54563	17223.4
1000.32	4.30412	1.74038	4.64267	-22.016	6.91483	0.240705	-0.0143522	91.419	12.8466	1	10	0.00530776	0.00114326	0	-5.01655e-05	-3.04551e-05	9.48108e-06	-75.7295	0.00829306	0.00204424	0.00803716	-22.0985	4.64759	4.30617	1.74842	0.199686	0.0807436	0.215393	22.016	12846.6	31770.9	34269.9	-67.9839	0.0000000E+000	0.0000000E+000	0.0000000E+000	67.9839	0.0000000E+000	0.0000000E+000	0.0000000E+000	-67.9839	0.0000000E+000	0.0000000E+000	0.0000000E+000	-22.016	0.0000000E+000	0.0000000E+000	0.0000000E+000	22.016	2.47309	67.9839	-2.23906e-06	-3.45465e-06	4.37099e-10	-3.45508e-06	0.240735	16771.3	2.12198	16773.4
681.09	4.68527	2.04264	5.11118	-23.5558	7.36552	0.240709	-0.0139643	114.4	18.2711	1	10	0.00525502	0.00102814	0	-5.25704e-05	-0.000126005	8.83885e-06	4.62893	0.00859691	0.00856887	-0.000693789	-23.5103	5.11875	4.69384	2.04194	0.179347	0.0781898	0.19565	23.5558	18271.1	41909.1	45718.8	-66.4442	0.0000000E+000	0.0000000E+000	0.0000000E+000	66.4442	0.0000000E+000	0.0000000E+000	0.0000000E+000	-66.4442	0.0000000E+000	0.0000000E+000	0.0000000E+000	-23.5558	0.0000000E+000	0.0000000E+000	0.0000000E+000	23.5558	2.29373	66.4442	-2.40489e-06	-3.36133e-06	1.75957e-09	-3.36309e-06	0.240835	17237.5	9.02337	17246.5
463.961	5.15965	2.42755	5.70219	-25.1964	7.81735	0.240706	-0.0146842	141.309	25.6108	1	10	0.00521949	0.000915347	0	-5.39805e-05	6.50946e-05	9.29042e-06	43.5709	0.0101496	0.00735362	-0.00699564	-25.1014	5.70587	5.167	2.42055	0.158685	0.0746594	0.175371	25.1964	25610.8	54434.7	60158.5	-64.8036	0.0000000E+000	0.0000000E+000	0.0000000E+000	64.8036	0.0000000E+000	0.0000000E+000	0.0000000E+000	-64.8036	0.0000000E+000	0.0000000E+000	0.0000000E+000	-25.1964	0.0000000E+000	0.0000000E+000	0.0000000E+000	25.1964	2.12546	64.8036	-1.41007e-06	-3.53457e-06	-9.55863e-10	-3.53362e-06	0.240641	16392.2	4.43297	16387.7
316.316	5.76109	2.88556	6.44334	-26.605	8.26509	0.240723	-0.0147141	174.369	34.971	1	10	0.00518503	0.000804712	0	-5.62726e-05	-0.000202445	5.21473e-06	-30.7521	0.00648025	0.00556904	0.00331351	-26.6091	6.4498	5.76666	2.88888	0.138766	0.0695038	0.155199	26.605	34971	69820.3	78088.7	-63.395	0.0000000E+000	0.0000000E+000	0.0000000E+000	63.395	0.0000000E+000	0.0000000E+000	0.0000000E+000	-63.395	0.0000000E+000	0.0000000E+000	0.0000000E+000	-26.605	0.0000000E+000	0.0000000E+000	0.0000000E+000	26.605	1.99652	63.395	-2.29212e-06	-3.54201e-06	2.97878e-09	-3.54499e-06	0.240925	16360	13.7586	16373.8
215.345	6.55354	3.37635	7.37216	-27.2573	8.71454	0.240705	-0.0151729	218.896	45.914	1	10	0.00515544	0.000699312	0	-5.88117e-05	-1.13452e-05	8.0109e-06	-107.167	0.0114554	-0.00338122	0.010945	-27.3449	7.37417	6.55016	3.3873	0.120583	0.0621239	0.135646	27.2573	45914	89119.6	100252	-62.7427	0.0000000E+000	0.0000000E+000	0.0000000E+000	62.7427	0.0000000E+000	0.0000000E+000	0.0000000E+000	-62.7427	0.0000000E+000	0.0000000E+000	0.0000000E+000	-27.2573	0.0000000E+000	0.0000000E+000	0.0000000E+000	27.2573	1.94101	62.7427	-2.53903e-06	-3.65219e-06	1.72139e-10	-3.65236e-06	0.240716	15864.2	0.747729	15864.9
146.737	7.56961	3.8298	8.4833	-26.8369	9.1605	0.240711	-0.0148558	283.206	57.72	1	10	0.00513857	0.000605728	0	-6.14888e-05	-3.04551e-05	3.50393e-06	-14.5571	0.00578466	0.00559896	0.00145394	-26.8286	8.48895	7.57521	3.83126	0.105183	0.0532166	0.117879	26.8369	57720	114084	127854	-63.1631	0.0000000E+000	0.0000000E+000	0.0000000E+000	63.1631	0.0000000E+000	0.0000000E+000	0.0000000E+000	-63.1631	0.0000000E+000	0.0000000E+000	0.0000000E+000	-26.8369	0.0000000E+000	0.0000000E+000	0.0000000E+000	26.8369	1.9765	63.1631	-2.67717e-06	-3.57596e-06	4.52436e-10	-3.57641e-06	0.240742	16203.2	2.05005	16205.2
100.032	8.78898	4.07718	9.68863	-24.8864	9.61181	0.240713	-0.0145014	390.231	69.1061	1	10	0.00513217	0.000529711	0	-6.24322e-05	-0.000164225	1.04027e-05	-8.05838	0.0196385	0.0194446	0.00275297	-24.8529	9.70742	8.80842	4.07993	0.0936298	0.0434345	0.103214	24.8864	69106.1	148969	164217	-65.1136	0.0000000E+000	0.0000000E+000	0.0000000E+000	65.1136	0.0000000E+000	0.0000000E+000	0.0000000E+000	-65.1136	0.0000000E+000	0.0000000E+000	0.0000000E+000	-24.8864	0.0000000E+000	0.0000000E+000	0.0000000E+000	24.8864	2.15565	65.1136	-9.43399e-07	-3.49069e-06	2.3815e-09	-3.49307e-06	0.240877	16599.2	11.3247	16610.6
68.104	10.1164	4.06138	10.9012	-21.8738	10.0744	0.240717	-0.0135279	575.405	79.8685	1	10	0.00512941	0.000470538	0	-6.37096e-05	-0.000297995	7.94479e-06	32.6918	0.0168845	0.0142098	-0.00911965	-21.8016	10.911	10.1306	4.05226	0.0851291	0.0341765	0.0917333	21.8738	79868.4	198942	214375	-68.1262	0.0000000E+000	0.0000000E+000	0.0000000E+000	68.1262	0.0000000E+000	0.0000000E+000	0.0000000E+000	-68.1262	0.0000000E+000	0.0000000E+000	0.0000000E+000	-21.8738	0.0000000E+000	0.0000000E+000	0.0000000E+000	21.8738	2.49087	68.1262	-1.27742e-06	-3.25639e-06	4.03123e-09	-3.26042e-06	0.241015	17794.1	22.0282	17816.2
46.4415	11.3046	3.78202	11.9204	-18.498	10.5107	0.240716	-0.0150088	906.128	91.212	1	10	0.00512665	0.000430072	0	-6.57232e-05	2.68747e-05	1.0071e-05	-55.4232	0.0234171	0.0132894	0.0192808	-18.5655	11.9392	11.3179	3.8013	0.0795553	0.0266157	0.0838895	18.498	91212	272636	287489	-71.502	0.0000000E+000	0.0000000E+000	0.0000000E+000	71.502	0.0000000E+000	0.0000000E+000	0.0000000E+000	-71.502	0.0000000E+000	0.0000000E+000	0.0000000E+000	-18.498	0.0000000E+000	0.0000000E+000	0.0000000E+000	18.498	2.98903	71.502	-2.0136e-06	-3.61285e-06	-4.03356e-10	-3.61245e-06	0.240689	16038.4	1.7906	16036.6
31.6296	12.3289	3.33895	12.773	-15.1535	10.9406	0.24072	-0.0151095	1507.01	102.979	1	10	0.00512579	0.000401298	0	-6.76814e-05	-1.13452e-05	7.72121e-06	56.1906	0.0192406	0.0107061	-0.0159869	-15.0718	12.7792	12.3396	3.32296	0.0755677	0.0204655	0.07829	15.1535	102979	380245	393943	-74.8465	0.0000000E+000	0.0000000E+000	0.0000000E+000	74.8465	0.0000000E+000	0.0000000E+000	0.0000000E+000	-74.8465	0.0000000E+000	0.0000000E+000	0.0000000E+000	-15.1535	0.0000000E+000	0.0000000E+000	0.0000000E+000	15.1535	3.69245	74.8465	-1.95816e-06	-3.63715e-06	1.7142e-10	-3.63732e-06	0.240731	15931.7	0.750866	15932.5
21.5517	13.1041	2.85059	13.4106	-12.2726	11.3615	0.240716	-0.0159189	2590.62	117.052	1	10	0.00511162	0.000381163	0	-6.92529e-05	-0.000183335	6.32127e-06	21.2265	0.0165842	0.015459	-0.0060044	-12.2335	13.4244	13.1196	2.84459	0.072864	0.0158504	0.074568	12.2726	117052	538085	550669	-77.7274	0.0000000E+000	0.0000000E+000	0.0000000E+000	77.7274	0.0000000E+000	0.0000000E+000	0.0000000E+000	-77.7274	0.0000000E+000	0.0000000E+000	0.0000000E+000	-12.2726	0.0000000E+000	0.0000000E+000	0.0000000E+000	12.2726	4.59698	77.7274	-1.57152e-06	-3.83193e-06	2.91849e-09	-3.83485e-06	0.240899	15121.3	11.5168	15132.9
14.6852	13.7469	2.36235	13.9484	-9.75078	12.0712	0.240723	-0.00742223	4587.73	131.593	1	11	0.00511125	0.000366439	0	-6.72104e-05	4.59847e-05	1.04925e-05	40.9253	0.0286337	0.0216346	-0.0187572	-9.65991	13.9666	13.7686	2.34359	0.0706569	0.0121421	0.0716926	9.75078	131593	765766	776990	-80.2492	0.0000000E+000	0.0000000E+000	0.0000000E+000	80.2492	0.0000000E+000	0.0000000E+000	0.0000000E+000	-80.2492	0.0000000E+000	0.0000000E+000	0.0000000E+000	-9.75078	0.0000000E+000	0.0000000E+000	0.0000000E+000	9.75078	5.81918	80.2492	2.04251e-06	-1.7867e-06	-3.41309e-10	-1.78636e-06	0.240677	32432.7	6.19553	32426.5
10.0032	14.2124	1.96703	14.3478	-7.87983	12.5218	0.240729	-0.00673913	8088.54	152.026	1	11	0.00512267	0.000357034	0	-7.08245e-05	-1.13452e-05	4.28994e-06	46.0808	0.0120155	0.00833446	-0.00865498	-7.84105	14.3549	14.2207	1.95837	0.0690388	0.00955515	0.0696969	7.87983	152026	1.09843e+06	1.1089e+06	-82.1202	0.0000000E+000	0.0000000E+000	0.0000000E+000	82.1202	0.0000000E+000	0.0000000E+000	0.0000000E+000	-82.1202	0.0000000E+000	0.0000000E+000	0.0000000E+000	-7.87983	0.0000000E+000	0.0000000E+000	0.0000000E+000	7.87983	7.2253	82.1202	-3.61405e-06	-1.6223e-06	7.64567e-11	-1.62238e-06	0.24074	35721	1.68348	35722.7
6.81719	14.5554	1.60637	14.6438	-6.29781	12.8615	0.240746	-0.0061963	14533.5	174.885	1	11	0.0051112	0.000349035	0	-6.92983e-05	-0.000489094	4.20827e-06	-40.3117	0.0120569	0.0091938	0.00780014	-6.32418	14.6538	14.5646	1.61417	0.0678762	0.00749097	0.0682883	6.29781	174885	1.58465e+06	1.59427e+06	-83.7022	0.0000000E+000	0.0000000E+000	0.0000000E+000	83.7022	0.0000000E+000	0.0000000E+000	0.0000000E+000	-83.7022	0.0000000E+000	0.0000000E+000	0.0000000E+000	-6.29781	0.0000000E+000	0.0000000E+000	0.0000000E+000	6.29781	9.06107	83.7022	1.52616e-06	-1.49174e-06	3.03057e-09	-1.49477e-06	0.241235	38853.2	78.9333	38932.2
4.63925	14.8066	1.3925	14.872	-5.37261	13.3455	0.24075	-0.00575607	24636.4	215.988	1	11	0.0051082	0.000343478	0	-6.80335e-05	-0.000202445	3.38746e-05	25.3622	0.0986223	0.0891169	-0.0422437	-5.17953	14.9568	14.8958	1.35026	0.0669452	0.0062959	0.0672406	5.37261	215988	2.29663e+06	2.30677e+06	-84.6274	0.0000000E+000	0.0000000E+000	0.0000000E+000	84.6274	0.0000000E+000	0.0000000E+000	0.0000000E+000	-84.6274	0.0000000E+000	0.0000000E+000	0.0000000E+000	-5.37261	0.0000000E+000	0.0000000E+000	0.0000000E+000	5.37261	10.6331	84.6274	1.26483e-06	-1.38578e-06	1.16529e-09	-1.38694e-06	0.240953	41825.5	35.1707	41860.7
3.1604	15.0598	1.13425	15.1025	-4.30718	14.0385	0.240748	-0.00499144	44398.6	250.434	1	11	0.00512236	0.000339174	0	-7.26041e-05	-4.95651e-05	3.3225e-06	-10.3532	0.00979587	0.00963638	0.00176048	-4.31109	15.1122	15.0694	1.13601	0.0660274	0.00497295	0.0662144	4.30718	250434	3.32509e+06	3.3345e+06	-85.6928	0.0000000E+000	0.0000000E+000	0.0000000E+000	85.6928	0.0000000E+000	0.0000000E+000	0.0000000E+000	-85.6928	0.0000000E+000	0.0000000E+000	0.0000000E+000	-4.30718	0.0000000E+000	0.0000000E+000	0.0000000E+000	4.30718	13.2773	85.6928	-4.57063e-06	-1.20168e-06	2.47401e-10	-1.20193e-06	0.240797	48232.1	9.93001	48242
2.15577	15.239	0.999284	15.2717	-3.75175	15.0421	0.240755	-0.00449469	73880.4	316.324	1	11	0.0051223	0.000335411	0	-7.91699e-05	-0.000259775	2.68702e-06	-20.8106	0.00801111	0.00748846	0.00284619	-3.76057	15.2794	15.2465	1.00213	0.0653403	0.00428464	0.0654806	3.75175	316324	4.82391e+06	4.83427e+06	-86.2482	0.0000000E+000	0.0000000E+000	0.0000000E+000	86.2482	0.0000000E+000	0.0000000E+000	0.0000000E+000	-86.2482	0.0000000E+000	0.0000000E+000	0.0000000E+000	-3.75175	0.0000000E+000	0.0000000E+000	0.0000000E+000	3.75175	15.2499	86.2482	-6.56579e-06	-1.08212e-06	1.16761e-09	-1.08329e-06	0.241015	53564.3	57.7959	53622.1
1.46631	15.396	0.906872	15.4227	-3.371	16.5036	0.240753	-0.00512842	119687	413.827	1	11	0.0051214	0.000332069	0	-8.1992e-05	2.68747e-05	5.91921e-06	24.839	0.0178253	0.0161763	-0.00748786	-3.33972	15.4384	15.4122	0.899384	0.0647272	0.00381262	0.0648394	3.371	413826	7.02557e+06	7.03774e+06	-86.629	0.0000000E+000	0.0000000E+000	0.0000000E+000	86.629	0.0000000E+000	0.0000000E+000	0.0000000E+000	-86.629	0.0000000E+000	0.0000000E+000	0.0000000E+000	-3.371	0.0000000E+000	0.0000000E+000	0.0000000E+000	3.371	16.9771	86.629	-2.82211e-06	-1.23468e-06	-1.37825e-10	-1.23454e-06	0.240726	46944.8	5.24035	46939.6
1.00006	15.5286	0.893738	15.5543	-3.29399	18.6336	0.240736	-0.00639614	178066	587.9	1	11	0.00512377	0.000329412	0	-7.80372e-05	0.000198864	1.99152e-06	-24.1368	0.00604567	0.00551711	0.00247217	-3.30191	15.5599	15.5341	0.89621	0.0641848	0.00369412	0.0642911	3.29399	587900	1.02147e+07	1.02316e+07	-86.706	0.0000000E+000	0.0000000E+000	0.0000000E+000	86.706	0.0000000E+000	0.0000000E+000	0.0000000E+000	-86.706	0.0000000E+000	0.0000000E+000	0.0000000E+000	-3.29399	0.0000000E+000	0.0000000E+000	0.0000000E+000	3.29399	17.3748	86.706	3.95484e-06	-1.53978e-06	-1.27196e-09	-1.53851e-06	0.240537	37637.7	31.0913	37606.6
0.681362	15.6286	0.93628	15.6566	-3.42839	21.7454	0.24074	-0.00644743	249480	892.183	1	11	0.00512301	0.000327212	0	-6.90985e-05	2.68747e-05	6.6853e-06	31.4298	0.0204311	0.0174334	-0.0106539	-3.38571	15.6733	15.646	0.925626	0.0637566	0.00381955	0.0638709	3.42839	892183	1.48925e+07	1.49192e+07	-86.5716	0.0000000E+000	0.0000000E+000	0.0000000E+000	86.5716	0.0000000E+000	0.0000000E+000	0.0000000E+000	-86.5716	0.0000000E+000	0.0000000E+000	0.0000000E+000	-3.42839	0.0000000E+000	0.0000000E+000	0.0000000E+000	3.42839	16.6922	86.5716	8.93867e-06	-1.55216e-06	-1.73273e-10	-1.55198e-06	0.240713	37338.9	4.16828	37334.7
0.464091	15.7551	1.03353	15.7889	-3.75324	26.3019	0.240742	-0.0039643	331812	1421.8	1	11	0.00512787	0.000324777	0	-5.90185e-05	-0.000221555	1.59898e-06	-71.0882	0.00492332	0.00159571	0.00465756	-3.76972	15.7908	15.7566	1.03819	0.0631997	0.00414592	0.0633356	3.75324	1.4218e+06	2.16737e+07	2.17203e+07	-86.2468	0.0000000E+000	0.0000000E+000	0.0000000E+000	86.2468	0.0000000E+000	0.0000000E+000	0.0000000E+000	-86.2468	0.0000000E+000	0.0000000E+000	0.0000000E+000	-3.75324	0.0000000E+000	0.0000000E+000	0.0000000E+000	3.75324	15.2439	86.2468	1.008e-05	-9.54373e-07	8.7831e-10	-9.55251e-07	0.240963	60727.4	55.8874	60783.3
0.316193	15.8986	1.25667	15.9482	-4.51942	32.9779	0.240739	-0.00153033	400539	2486.94	1	11	0.00512074	0.000321085	0	-5.8367e-05	-4.95651e-05	2.96253e-06	-10.0225	0.00922661	0.00908581	0.00160575	-4.5226	15.9574	15.9077	1.25828	0.0625079	0.0049408	0.0627029	4.51942	2.48694e+06	3.14632e+07	3.15613e+07	-85.4806	0.0000000E+000	0.0000000E+000	0.0000000E+000	85.4806	0.0000000E+000	0.0000000E+000	0.0000000E+000	-85.4806	0.0000000E+000	0.0000000E+000	0.0000000E+000	-4.51942	0.0000000E+000	0.0000000E+000	0.0000000E+000	4.51942	12.6514	85.4806	6.51483e-07	-3.68411e-07	7.58511e-11	-3.68487e-07	0.240789	157312	32.3885	157344
0.215268	16.0394	1.60309	16.1193	-5.70759	47.4674	0.240748	-0.000787376	461193	4561.49	1	12	0.00512273	0.000317801	0	-8.31994e-05	6.50946e-05	2.35777e-06	-7.46065	0.00741902	0.00735621	0.000963324	-5.7084	16.1267	16.0467	1.60405	0.0617299	0.00616972	0.0620374	5.70759	4.56148e+06	4.5639e+07	4.58664e+07	-84.2924	0.0000000E+000	0.0000000E+000	0.0000000E+000	84.2924	0.0000000E+000	0.0000000E+000	0.0000000E+000	-84.2924	0.0000000E+000	0.0000000E+000	0.0000000E+000	-5.70759	0.0000000E+000	0.0000000E+000	0.0000000E+000	5.70759	10.0053	84.2924	-2.48324e-05	-1.89559e-07	-5.1254e-11	-1.89508e-07	0.240683	305760	82.6728	305677
0.146929	16.2275	2.08267	16.3606	-7.31348	61.8058	0.240743	-0.0010584	520107	8428.22	1	12	0.00512559	0.000313289	0	-0.000145217	0.000141534	2.86062e-06	2.84125	0.00913093	0.00911971	-0.00045261	-7.30785	16.3696	16.2366	2.08222	0.0606253	0.00778078	0.0611225	7.31348	8.42823e+06	6.567e+07	6.62086e+07	-82.6865	0.0000000E+000	0.0000000E+000	0.0000000E+000	82.6865	0.0000000E+000	0.0000000E+000	0.0000000E+000	-82.6865	0.0000000E+000	0.0000000E+000	0.0000000E+000	-7.31348	0.0000000E+000	0.0000000E+000	0.0000000E+000	7.31348	7.79168	82.6865	-6.20171e-05	-2.54802e-07	-1.498e-10	-2.54652e-07	0.240602	227460	133.725	227326
0.0999041	16.5249	2.71914	16.7471	-9.34418	82.8819	0.240744	-0.00269797	585875	15445	1	12	0.00512467	0.000306003	0	-0.00023819	-0.000202445	1.7385e-06	-12.3338	0.0056813	0.00555018	0.00121356	-9.3452	16.7528	16.5304	2.72036	0.0589194	0.00969509	0.0597118	9.34418	1.5445e+07	9.38632e+07	9.51255e+07	-80.6558	0.0000000E+000	0.0000000E+000	0.0000000E+000	80.6558	0.0000000E+000	0.0000000E+000	0.0000000E+000	-80.6558	0.0000000E+000	0.0000000E+000	0.0000000E+000	-9.34418	0.0000000E+000	0.0000000E+000	0.0000000E+000	9.34418	6.07725	80.6558	-9.29739e-05	-6.4952e-07	5.46189e-10	-6.50067e-07	0.240947	89231.7	75.036	89306.8
0.0680626	16.9515	3.66568	17.3433	-12.2021	113.808	0.240743	-0.00370818	637906	28497.3	1	12	0.00512166	0.000295311	0	-0.000330812	-0.000126005	1.36481e-06	16.4873	0.00462162	0.00443159	-0.00131163	-12.1948	17.3473	16.9559	3.66437	0.0563566	0.0121869	0.0576592	12.2021	2.84973e+07	1.31782e+08	1.34828e+08	-77.7979	0.0000000E+000	0.0000000E+000	0.0000000E+000	77.7979	0.0000000E+000	0.0000000E+000	0.0000000E+000	-77.7979	0.0000000E+000	0.0000000E+000	0.0000000E+000	-12.2021	0.0000000E+000	0.0000000E+000	0.0000000E+000	12.2021	4.62437	77.7979	-9.26217e-05	-8.9272e-07	4.67249e-10	-8.93187e-07	0.240869	64922.2	33.9802	64956.1
0.0464052	17.4426	5.02601	18.1522	-16.0741	159.159	0.240745	-0.00396787	682386	52313.8	1	12	0.00512191	0.000282164	0	-0.000352327	-0.000221555	2.4216e-06	-26.2262	0.00858224	0.00769875	0.00379263	-16.0789	18.1607	17.4503	5.0298	0.0529359	0.0152533	0.0550896	16.0741	5.23138e+07	1.81553e+08	1.8894e+08	-73.9259	0.0000000E+000	0.0000000E+000	0.0000000E+000	73.9259	0.0000000E+000	0.0000000E+000	0.0000000E+000	-73.9259	0.0000000E+000	0.0000000E+000	0.0000000E+000	-16.0741	0.0000000E+000	0.0000000E+000	0.0000000E+000	16.0741	3.47046	73.9259	-2.1515e-05	-9.55246e-07	8.791e-10	-9.56125e-07	0.240967	60673.7	55.8372	60729.5
0.0315922	17.9761	6.71751	19.1902	-20.4903	225.765	0.240744	-0.00336365	749949	91894.2	1	12	0.00512096	0.000266852	0	-0.000218285	-0.000317104	2.76806e-06	-2.11645	0.010373	0.0103659	0.000383083	-20.4805	19.2001	17.9865	6.7179	0.0488129	0.018241	0.0521098	20.4903	9.18942e+07	2.45909e+08	2.62518e+08	-69.5097	0.0000000E+000	0.0000000E+000	0.0000000E+000	69.5097	0.0000000E+000	0.0000000E+000	0.0000000E+000	-69.5097	0.0000000E+000	0.0000000E+000	0.0000000E+000	-20.4903	0.0000000E+000	0.0000000E+000	0.0000000E+000	20.4903	2.67601	69.5097	0.000134042	-8.09779e-07	1.06663e-09	-8.10845e-07	0.241061	71572.1	94.2738	71666.4
0.0215268	18.9526	8.90344	20.9397	-25.163	323.504	0.240742	-0.00266815	830392	150127	1	12	0.00512131	0.000244574	0	5.36805e-05	0.000141534	1.63041e-06	-26.6076	0.00666632	0.00596032	0.0029857	-25.1634	20.9464	18.9585	8.90642	0.0432242	0.0203056	0.0477562	25.163	1.50127e+08	3.19572e+08	3.53078e+08	-64.8371	0.0000000E+000	0.0000000E+000	0.0000000E+000	64.8371	0.0000000E+000	0.0000000E+000	0.0000000E+000	-64.8371	0.0000000E+000	0.0000000E+000	0.0000000E+000	-25.163	0.0000000E+000	0.0000000E+000	0.0000000E+000	25.163	2.12868	64.8371	0.000271965	-6.42335e-07	-3.77635e-10	-6.41957e-07	0.2406	90228.2	53.046	90175.2
0.0146812	20.5181	12.0876	23.8139	-30.5031	466.806	0.240744	-0.00203001	896852	231067	1	12	0.0051213	0.000215056	0	0.000265578	6.50946e-05	2.40758e-06	10.0437	0.0111952	0.0110236	-0.00195243	-30.4856	23.8224	20.5291	12.0856	0.0361807	0.0213147	0.0419923	30.5031	2.31067e+08	3.92226e+08	4.55228e+08	-59.4969	0.0000000E+000	0.0000000E+000	0.0000000E+000	59.4969	0.0000000E+000	0.0000000E+000	0.0000000E+000	-59.4969	0.0000000E+000	0.0000000E+000	0.0000000E+000	-30.5031	0.0000000E+000	0.0000000E+000	0.0000000E+000	30.5031	1.69745	59.4969	0.000211898	-4.88714e-07	-1.32143e-10	-4.88582e-07	0.240679	118592	32.0661	118560
0.0100092	22.4121	16.3993	27.7713	-36.1936	676.988	0.240739	-0.00205138	969607	338110	1	12	0.00512336	0.000184484	0	0.000110128	-3.04551e-05	2.6135e-06	-66.2194	0.0141665	0.00571244	0.0129637	-36.2082	27.7835	22.4179	16.4123	0.0290598	0.0212635	0.0360085	36.1936	3.3811e+08	4.62077e+08	5.72567e+08	-53.8064	0.0000000E+000	0.0000000E+000	0.0000000E+000	53.8064	0.0000000E+000	0.0000000E+000	0.0000000E+000	-53.8064	0.0000000E+000	0.0000000E+000	0.0000000E+000	-36.1936	0.0000000E+000	0.0000000E+000	0.0000000E+000	36.1936	1.36665	53.8064	-0.00015545	-4.93847e-07	6.24751e-11	-4.93909e-07	0.240769	117355	14.8462	117370