File: txt/19004_R309_UA708_SOC00_C03.mpt
EC-Lab ASCII FILE
Nb header lines : 65

Potentio Electrochemical Impedance Spectroscopy

Run on channel : 3 (SN 65921)
Grouped channel(s) : 2, 3, 4, 5, 6
User :
CE vs. WE compliance from -10 V to 10 V
Electrode connection : standard
Potential control : Ewe
Ewe ctrl range : min = -10.00 V, max = 10.00 V
Safety Limits :
	Do not start on E overload
Acquisition started on : 11/04/2025 16:08:38.802
Loaded Setting File :  C:\Users\Celltest\OneDrive - store-dot.com\Documents\EC-Lab\Data\@Biologic Test Protocols\anode half cell EIS SOC00.mps
Saved on :
	File : 19003_R309_UA708_SOC00_C03.mpr
	Directory : C:\Users\Celltest\OneDrive - store-dot.com\Documents\EC-Lab\Data\Charmaine\
	Host : 169.254.61.224
Device : VMP-3e (SN .003165)
Address : USB
EC-LAB for windows v11.62 (software)
Internet server v27.00 (firmware)
Command interpretor v12.03 (firmware)
Electrode material :
Initial state :
Electrolyte :
Comments :
Electrode surface area : 0.001 cm²
Characteristic mass : 0.001 g
Equivalent Weight : 0.000 g/eq.
Density : 0.000 g/cm3
Volume (V) : 0.001 cm³
Record Ece
Cycle Definition : Charge/Discharge alternance
Mode                Single sine
E (V)               0.0000
vs.                 Eoc
tE (h:m:s)          0:00:0.0000
record              0
dI                  0.000
unit dI             mA
dt (s)              0.000
fi                  100.000
unit fi             kHz
ff                  10.000
unit ff             mHz
Nd                  6
Points              per decade
spacing             Logarithmic
Va (mV)             5.0
pw                  0.10
Na                  2
corr                0
E range min (V)     -10.000
E range max (V)     10.000
I Range             Auto
Bandwidth           5
nc cycles           0
goto Ns'            0
nr cycles           0
inc. cycle          0

freq/Hz	Re(Z)/Ohm	-Im(Z)/Ohm	|Z|/Ohm	Phase(Z)/deg	time/s	<Ewe>/V	<I>/mA	Cs/µF	Cp/µF	cycle number	I Range	|Ewe|/V	|I|/A	Ns	(Q-Qo)/mA.h	<Ece>/V	|Ece|/V	Phase(Zce)/deg	|Zce|/Ohm	Re(Zce)/Ohm	-Im(Zce)/Ohm	Phase(Zwe-ce)/deg	|Zwe-ce|/Ohm	Re(Zwe-ce)/Ohm	-Im(Zwe-ce)/Ohm	Re(Y)/Ohm-1	Im(Y)/Ohm-1	|Y|/Ohm-1	Phase(Y)/deg	Re(C)/nF	Im(C)/nF	|C|/nF	Phase(C)/deg	Re(M)	Im(M)	|M|	Phase(M)/deg	Re(Permittivity)	Im(Permittivity)	|Permittivity|	Phase(Permittivity)/deg	Re(Resistivity)/Ohm.cm	Im(Resistivity)/Ohm.cm	|Resistivity|/Ohm.cm	Phase(Resistivity)/deg	Re(Conductivity)/mS/cm	Im(Conductivity)/mS/cm	|Conductivity|/mS/cm	Phase(Conductivity)/deg	Tan(Delta)	Loss Angle(Delta)/deg	dq/mA.h	Pwe/W	Pce/W	Pwe-ce/W	<Ewe-Ece>/V	Rwe/Ohm	Rce/Ohm	Rwe-ce/Ohm		Ewe-Ece/V
100004	1.84133	0.689765	1.96628	-20.5361	1.86852	0.249894	-0.0463623	2.30729	0.283932	1	9	0.00493873	0.00251171	0	-9.19406e-06	7.2142e-05	3.361e-05	63.6667	0.0133813	0.00593584	-0.0119927	-20.1484	1.96768	1.84726	0.677773	0.476255	0.178406	0.508574	20.5361	283.932	757.955	809.391	-69.4639	0.0000000E+000	0.0000000E+000	0.0000000E+000	69.4639	0.0000000E+000	0.0000000E+000	0.0000000E+000	-69.4639	0.0000000E+000	0.0000000E+000	0.0000000E+000	-20.5361	0.0000000E+000	0.0000000E+000	0.0000000E+000	20.5361	2.6695	69.4639	-9.19406e-06	-1.15857e-05	-3.34467e-09	-1.15823e-05	0.249822	5390.02	1.55605	5388.47
68132	2.04309	0.770641	2.1836	-20.6661	2.25151	0.249956	0.00883218	3.03121	0.37755	1	9	0.00548323	0.00251109	0	-1.55593e-05	-0.000252457	2.87508e-05	49.3385	0.0114495	0.00746038	-0.00868528	-20.3843	2.18754	2.05055	0.761956	0.428491	0.161624	0.457959	20.6661	377.549	1000.94	1069.78	-69.3339	0.0000000E+000	0.0000000E+000	0.0000000E+000	69.3339	0.0000000E+000	0.0000000E+000	0.0000000E+000	-69.3339	0.0000000E+000	0.0000000E+000	0.0000000E+000	-20.6661	0.0000000E+000	0.0000000E+000	0.0000000E+000	20.6661	2.65116	69.3339	-6.36527e-06	2.20766e-06	-2.22975e-09	2.20989e-06	0.250209	28300.6	28.5838	28329.2
46420.4	2.26387	0.827083	2.41023	-20.0693	2.63454	0.250008	0.0294928	4.14536	0.488141	1	9	0.00545446	0.00226305	0	-1.56365e-05	5.30479e-05	1.54398e-05	21.5757	0.00682255	0.00634451	-0.00250886	-19.9617	2.41533	2.27022	0.824574	0.389706	0.142375	0.414899	20.0693	488.141	1336.13	1422.51	-69.9307	0.0000000E+000	0.0000000E+000	0.0000000E+000	69.9307	0.0000000E+000	0.0000000E+000	0.0000000E+000	-69.9307	0.0000000E+000	0.0000000E+000	0.0000000E+000	-20.0693	0.0000000E+000	0.0000000E+000	0.0000000E+000	20.0693	2.73718	69.9307	-7.71949e-08	7.37345e-06	1.56453e-09	7.37188e-06	0.249955	8476.93	1.79867	8475.13
31621.1	2.47645	0.869251	2.62458	-19.3414	3.01752	0.249974	0.0543303	5.79025	0.635141	1	9	0.00539356	0.00205502	0	-1.35618e-05	-2.33283e-05	1.37973e-05	116.887	0.00671396	-0.00303631	-0.00598816	-19.2399	2.61973	2.47341	0.863263	0.35951	0.126191	0.381014	19.3414	635.14	1809.48	1917.71	-70.6586	0.0000000E+000	0.0000000E+000	0.0000000E+000	70.6586	0.0000000E+000	0.0000000E+000	0.0000000E+000	-70.6586	0.0000000E+000	0.0000000E+000	0.0000000E+000	-19.3414	0.0000000E+000	0.0000000E+000	0.0000000E+000	19.3414	2.84894	70.6586	2.07471e-06	1.35812e-05	-1.26744e-09	1.35825e-05	0.249998	4601.01	0.42938	4601.44
21544.7	2.70057	0.903356	2.84765	-18.4954	3.40254	0.249956	0.0144262	8.17751	0.822934	1	9	0.00530991	0.00186466	0	-6.59176e-06	-0.000195175	7.35351e-06	-115.982	0.00394361	-0.00172768	0.00354503	-18.5741	2.84714	2.69884	0.906901	0.333028	0.1114	0.351166	18.4954	822.934	2460.15	2594.14	-71.5046	0.0000000E+000	0.0000000E+000	0.0000000E+000	71.5046	0.0000000E+000	0.0000000E+000	0.0000000E+000	-71.5046	0.0000000E+000	0.0000000E+000	0.0000000E+000	-18.4954	0.0000000E+000	0.0000000E+000	0.0000000E+000	18.4954	2.98949	71.5046	6.97005e-06	3.60591e-06	-2.81563e-09	3.60872e-06	0.250151	17326.5	13.5292	17340.1
14678.6	2.92967	0.942075	3.07742	-17.8259	3.78755	0.249944	0.00707935	11.5093	1.07857	1	9	0.00528658	0.00171786	0	-9.97334e-06	-6.15165e-05	8.32182e-06	-59.074	0.00484429	0.00248963	0.00415558	-17.8853	3.08106	2.93216	0.946231	0.309347	0.0994747	0.324948	17.8259	1078.57	3354.15	3523.3	-72.1741	0.0000000E+000	0.0000000E+000	0.0000000E+000	72.1741	0.0000000E+000	0.0000000E+000	0.0000000E+000	-72.1741	0.0000000E+000	0.0000000E+000	0.0000000E+000	-17.8259	0.0000000E+000	0.0000000E+000	0.0000000E+000	17.8259	3.10981	72.1741	-3.38158e-06	1.76944e-06	-4.35496e-10	1.76987e-06	0.250005	35306.1	8.68957	35314.8
10002.2	3.12245	0.983458	3.27366	-17.4825	4.17055	0.249948	-0.011381	16.1796	1.4602	1	9	0.00506913	0.00154846	0	-9.59122e-06	-0.000271551	4.25287e-06	40.6847	0.00274652	0.00208271	-0.00179045	-17.4417	3.27511	3.12453	0.981668	0.291358	0.0917672	0.305468	17.4825	1460.19	4636.08	4860.59	-72.5175	0.0000000E+000	0.0000000E+000	0.0000000E+000	72.5175	0.0000000E+000	0.0000000E+000	0.0000000E+000	-72.5175	0.0000000E+000	0.0000000E+000	0.0000000E+000	-17.4825	0.0000000E+000	0.0000000E+000	0.0000000E+000	17.4825	3.17497	72.5175	3.82122e-07	-2.84465e-06	3.09052e-09	-2.84774e-06	0.25022	21961.9	23.8601	21985.8
6810.42	3.30484	1.08472	3.47831	-18.171	4.55555	0.249896	-0.0382697	21.544	2.09522	1	9	0.00498726	0.00143382	0	-1.0427e-05	-0.000195175	8.83318e-05	35.2489	0.061606	0.0503107	-0.0355547	-17.3647	3.51537	3.35515	1.04917	0.273159	0.0896569	0.287496	18.171	2095.22	6383.54	6718.59	-71.829	0.0000000E+000	0.0000000E+000	0.0000000E+000	71.829	0.0000000E+000	0.0000000E+000	0.0000000E+000	-71.829	0.0000000E+000	0.0000000E+000	0.0000000E+000	-18.171	0.0000000E+000	0.0000000E+000	0.0000000E+000	18.171	3.04671	71.829	-8.35768e-07	-9.56342e-06	7.46928e-09	-9.57089e-06	0.250091	6529.87	5.09999	6534.97
4646	3.59498	1.14493	3.77289	-17.6656	4.82259	0.249955	0.00752685	29.9201	2.75531	1	9	0.00515028	0.00136508	0	-9.52672e-06	-4.24224e-05	1.19909e-05	128.605	0.00878403	-0.00548081	-0.00686439	-17.5914	3.76559	3.5895	1.13806	0.25255	0.0804321	0.265049	17.6656	2755.31	8651.43	9079.59	-72.3344	0.0000000E+000	0.0000000E+000	0.0000000E+000	72.3344	0.0000000E+000	0.0000000E+000	0.0000000E+000	-72.3344	0.0000000E+000	0.0000000E+000	0.0000000E+000	-17.6656	0.0000000E+000	0.0000000E+000	0.0000000E+000	17.6656	3.13991	72.3344	9.0027e-07	1.88137e-06	-3.19307e-10	1.88169e-06	0.249997	33208.4	5.63614	33214
3163.08	3.81015	1.26409	4.01437	-18.3543	5.40563	0.249916	-0.0276577	39.8044	3.94688	1	10	0.00515963	0.00128529	0	-1.11622e-05	-0.000156987	6.12128e-06	-48.8278	0.00476257	0.00313532	0.00358495	-18.3887	4.01848	3.81329	1.26768	0.236432	0.0784412	0.249105	18.3543	3946.88	11896.4	12534.1	-71.6457	0.0000000E+000	0.0000000E+000	0.0000000E+000	71.6457	0.0000000E+000	0.0000000E+000	0.0000000E+000	-71.6457	0.0000000E+000	0.0000000E+000	0.0000000E+000	-18.3543	0.0000000E+000	0.0000000E+000	0.0000000E+000	18.3543	3.01414	71.6457	-1.63553e-06	-6.91211e-06	4.3419e-09	-6.91645e-06	0.250073	9036.03	5.67606	9041.7
2155.69	4.08934	1.41507	4.32725	-19.0876	5.85679	0.249932	-0.0210725	52.1743	5.57939	1	10	0.00517972	0.001197	0	-1.29906e-05	-0.000156987	1.54607e-05	-57.3608	0.0129162	0.0069663	0.0108765	-19.1933	4.3374	4.09631	1.42594	0.218388	0.0755706	0.231094	19.0876	5579.39	16123.6	17061.7	-70.9124	0.0000000E+000	0.0000000E+000	0.0000000E+000	70.9124	0.0000000E+000	0.0000000E+000	0.0000000E+000	-70.9124	0.0000000E+000	0.0000000E+000	0.0000000E+000	-19.0876	0.0000000E+000	0.0000000E+000	0.0000000E+000	19.0876	2.88985	70.9124	-1.82832e-06	-5.2667e-06	3.30811e-09	-5.27001e-06	0.250089	11860.6	7.44983	11868
1468.59	4.3867	1.60316	4.67047	-20.0753	6.30803	0.249937	-0.0197562	67.5992	7.96482	1	10	0.00512515	0.00109735	0	-1.59523e-05	-0.000252457	2.32499e-05	-65.7543	0.0211873	0.00870057	0.0193185	-20.2607	4.6853	4.3954	1.62248	0.201102	0.0734948	0.214111	20.0753	7964.82	21794	23203.8	-69.9247	0.0000000E+000	0.0000000E+000	0.0000000E+000	69.9247	0.0000000E+000	0.0000000E+000	0.0000000E+000	-69.9247	0.0000000E+000	0.0000000E+000	0.0000000E+000	-20.0753	0.0000000E+000	0.0000000E+000	0.0000000E+000	20.0753	2.73628	69.9247	-2.96179e-06	-4.93781e-06	4.9876e-09	-4.9428e-06	0.250189	12651	12.7786	12663.8
1000.32	4.74313	1.86123	5.09524	-21.4253	6.75876	0.249943	-0.0182796	85.4835	11.4065	1	10	0.00509329	0.000999617	0	-1.88773e-05	0.000263083	8.22682e-06	-74.2512	0.00822998	0.00223378	0.00792103	-21.4989	5.10022	4.74537	1.86915	0.182699	0.0716919	0.196262	21.4253	11406.5	29068.1	31226	-68.5747	0.0000000E+000	0.0000000E+000	0.0000000E+000	68.5747	0.0000000E+000	0.0000000E+000	0.0000000E+000	-68.5747	0.0000000E+000	0.0000000E+000	0.0000000E+000	-21.4253	0.0000000E+000	0.0000000E+000	0.0000000E+000	21.4253	2.54839	68.5747	-2.92494e-06	-4.56885e-06	-4.80905e-09	-4.56404e-06	0.24968	13673.3	14.3921	13658.9
681.09	5.14738	2.16948	5.58589	-22.8541	7.20853	0.249934	-0.0187308	107.711	16.2475	1	10	0.00505853	0.000905591	0	-2.12029e-05	-4.23428e-06	1.39464e-05	-13.6352	0.0154003	0.0149663	0.00363045	-22.8288	5.60109	5.16235	2.17311	0.164969	0.0695298	0.179023	22.8541	16247.5	38549.4	41833.4	-67.1459	0.0000000E+000	0.0000000E+000	0.0000000E+000	67.1459	0.0000000E+000	0.0000000E+000	0.0000000E+000	-67.1459	0.0000000E+000	0.0000000E+000	0.0000000E+000	-22.8541	0.0000000E+000	0.0000000E+000	0.0000000E+000	22.8541	2.37263	67.1459	-2.32565e-06	-4.68146e-06	7.93114e-11	-4.68154e-06	0.249938	13343.5	0.22606	13343.7
463.961	5.64296	2.56637	6.19913	-24.4556	7.66035	0.249938	-0.0185593	133.666	22.9085	1	10	0.005028	0.000811081	0	-2.30057e-05	-0.000118799	6.25292e-06	-75.2136	0.00770936	0.00196756	0.00745406	-24.5108	6.20401	5.64493	2.57382	0.14684	0.0667816	0.161313	24.4556	22908.5	50371.4	55336	-65.5444	0.0000000E+000	0.0000000E+000	0.0000000E+000	65.5444	0.0000000E+000	0.0000000E+000	0.0000000E+000	-65.5444	0.0000000E+000	0.0000000E+000	0.0000000E+000	-24.4556	0.0000000E+000	0.0000000E+000	0.0000000E+000	24.4556	2.19881	65.5444	-1.80274e-06	-4.63866e-06	2.20482e-09	-4.64086e-06	0.250056	13467	6.40104	13473.4
316.316	6.27639	3.04039	6.97403	-25.8463	8.10809	0.249941	-0.017243	165.489	31.4529	1	10	0.00501456	0.000719034	0	-2.54462e-05	-0.000233363	6.29262e-06	63.783	0.00875149	0.00386616	-0.0078512	-25.7744	6.97409	6.28026	3.03254	0.129045	0.0625117	0.143389	25.8463	31452.9	64929.5	72146.5	-64.1537	0.0000000E+000	0.0000000E+000	0.0000000E+000	64.1537	0.0000000E+000	0.0000000E+000	0.0000000E+000	-64.1537	0.0000000E+000	0.0000000E+000	0.0000000E+000	-25.8463	0.0000000E+000	0.0000000E+000	0.0000000E+000	25.8463	2.06434	64.1537	-2.44058e-06	-4.30973e-06	4.02388e-09	-4.31375e-06	0.250174	14495.2	13.5338	14508.8
215.345	7.07451	3.55941	7.91948	-26.7084	8.55857	0.249936	-0.0186413	207.639	41.9442	1	10	0.00499159	0.000630293	0	-2.73747e-05	-8.06105e-05	7.7485e-06	-18.2984	0.0122935	0.0116719	0.00385973	-26.6954	7.93164	7.08618	3.56327	0.112799	0.0567525	0.126271	26.7084	41944.2	83366.1	93323.2	-63.2916	0.0000000E+000	0.0000000E+000	0.0000000E+000	63.2916	0.0000000E+000	0.0000000E+000	0.0000000E+000	-63.2916	0.0000000E+000	0.0000000E+000	0.0000000E+000	-26.7084	0.0000000E+000	0.0000000E+000	0.0000000E+000	26.7084	1.98755	63.2916	-1.92846e-06	-4.65914e-06	1.50269e-09	-4.66064e-06	0.250017	13407.7	4.3243	13412
146.737	8.11034	4.06261	9.07096	-26.6071	9.00453	0.249943	-0.0178955	266.977	53.5522	1	10	0.00498254	0.000549284	0	-2.87395e-05	-9.97046e-05	9.3524e-06	43.1529	0.0170265	0.0124214	-0.0116453	-26.5062	9.07687	8.12276	4.05096	0.0985672	0.049374	0.110242	26.6071	53552.2	106908	119571	-63.3929	0.0000000E+000	0.0000000E+000	0.0000000E+000	63.3929	0.0000000E+000	0.0000000E+000	0.0000000E+000	-63.3929	0.0000000E+000	0.0000000E+000	0.0000000E+000	-26.6071	0.0000000E+000	0.0000000E+000	0.0000000E+000	26.6071	1.99634	63.3929	-1.36482e-06	-4.47286e-06	1.78427e-09	-4.47464e-06	0.250042	13966.8	5.57148	13972.3
100.032	9.38544	4.43112	10.3789	-25.2733	9.45585	0.249946	-0.0163033	359.06	65.4476	1	10	0.00498202	0.000480015	0	-3.13949e-05	-0.000290645	9.34026e-06	35.9153	0.0194583	0.015759	-0.011414	-25.1793	10.3883	9.40119	4.41971	0.0871271	0.0411351	0.0963495	25.2733	65447.6	138623	153296	-64.7267	0.0000000E+000	0.0000000E+000	0.0000000E+000	64.7267	0.0000000E+000	0.0000000E+000	0.0000000E+000	-64.7267	0.0000000E+000	0.0000000E+000	0.0000000E+000	-25.2733	0.0000000E+000	0.0000000E+000	0.0000000E+000	25.2733	2.11807	64.7267	-2.65535e-06	-4.07494e-06	4.73848e-09	-4.07968e-06	0.250236	15331	17.8274	15348.8
68.104	10.7703	4.53692	11.6869	-22.843	9.9185	0.249942	-0.0161281	515.094	77.6271	1	10	0.00497278	0.000425502	0	-3.37841e-05	0.00011033	1.08885e-05	-44.4655	0.0255898	0.0182628	0.0179252	-22.8891	11.7107	10.7885	4.55485	0.0788554	0.0332174	0.0855662	22.843	77627.1	184280	199963	-67.157	0.0000000E+000	0.0000000E+000	0.0000000E+000	67.157	0.0000000E+000	0.0000000E+000	0.0000000E+000	-67.157	0.0000000E+000	0.0000000E+000	0.0000000E+000	-22.843	0.0000000E+000	0.0000000E+000	0.0000000E+000	22.843	2.37392	67.157	-2.38924e-06	-4.03108e-06	-1.77941e-09	-4.0293e-06	0.249832	15497.3	6.84088	15490.5
46.4415	12.1709	4.35944	12.9281	-19.7068	10.3557	0.249924	-0.0188278	786.108	89.3872	1	10	0.00497062	0.000384482	0	-3.57292e-05	-2.33283e-05	6.47979e-06	-2.58325	0.0168533	0.0168362	0.000759595	-19.6848	12.9442	12.1877	4.3602	0.0728205	0.0260833	0.0773509	19.7068	89387.2	249556	265081	-70.2932	0.0000000E+000	0.0000000E+000	0.0000000E+000	70.2932	0.0000000E+000	0.0000000E+000	0.0000000E+000	-70.2932	0.0000000E+000	0.0000000E+000	0.0000000E+000	-19.7068	0.0000000E+000	0.0000000E+000	0.0000000E+000	19.7068	2.79185	70.2932	-1.94509e-06	-4.70552e-06	4.3922e-10	-4.70595e-06	0.249948	13274.2	1.23904	13275.5
31.6296	13.4282	3.98534	14.0071	-16.5303	10.7856	0.249928	-0.0194132	1262.59	102.21	1	10	0.00496964	0.000354794	0	-3.78842e-05	-0.000233363	3.1965e-06	-25.7197	0.00900947	0.00811688	0.00390983	-16.5362	14.016	13.4363	3.98925	0.0684415	0.0203127	0.0713922	16.5303	102210	344387	359234	-73.4697	0.0000000E+000	0.0000000E+000	0.0000000E+000	73.4697	0.0000000E+000	0.0000000E+000	0.0000000E+000	-73.4697	0.0000000E+000	0.0000000E+000	0.0000000E+000	-16.5303	0.0000000E+000	0.0000000E+000	0.0000000E+000	16.5303	3.3694	73.4697	-2.15498e-06	-4.85191e-06	4.53032e-09	-4.85644e-06	0.250162	12874.1	12.0208	12886.2
21.5517	14.4262	3.46895	14.8374	-13.5207	11.2064	0.249931	-0.019361	2128.83	116.364	1	10	0.00496799	0.000334828	0	-4.02737e-05	0.000129424	7.03126e-06	-6.78264	0.0209996	0.0208527	0.00248012	-13.5112	14.8583	14.4471	3.47143	0.0655292	0.0157572	0.0673971	13.5207	116364	483919	497713	-76.4793	0.0000000E+000	0.0000000E+000	0.0000000E+000	76.4793	0.0000000E+000	0.0000000E+000	0.0000000E+000	-76.4793	0.0000000E+000	0.0000000E+000	0.0000000E+000	-13.5207	0.0000000E+000	0.0000000E+000	0.0000000E+000	13.5207	4.15868	76.4793	-2.38955e-06	-4.8389e-06	-2.50578e-09	-4.8364e-06	0.249801	12909	6.68479	12902.3
14.6852	15.1754	2.90959	15.4518	-10.8537	11.9161	0.249973	-0.0141916	3724.86	132.074	1	11	0.00495983	0.000320988	0	-4.61875e-05	0.000186706	1.06252e-05	22.5196	0.0331016	0.0305776	-0.0126779	-10.7863	15.4794	15.2059	2.89691	0.0635598	0.0121864	0.0647175	10.8537	132074	688849	701396	-79.1463	0.0000000E+000	0.0000000E+000	0.0000000E+000	79.1463	0.0000000E+000	0.0000000E+000	0.0000000E+000	-79.1463	0.0000000E+000	0.0000000E+000	0.0000000E+000	-10.8537	0.0000000E+000	0.0000000E+000	0.0000000E+000	10.8537	5.21564	79.1463	-5.91377e-06	-3.54752e-06	-2.64966e-09	-3.54487e-06	0.249786	17614.2	13.1561	17601
10.0032	15.7765	2.40664	15.959	-8.67334	12.3668	0.249961	-0.0142729	6611.06	150.341	1	11	0.0049638	0.000311034	0	-4.56577e-05	-8.06105e-05	1.19453e-05	-28.2057	0.038405	0.0338447	0.0181517	-8.71934	15.9952	15.8104	2.42479	0.0619439	0.00944925	0.0626605	8.67334	150341	985552	996953	-81.3267	0.0000000E+000	0.0000000E+000	0.0000000E+000	81.3267	0.0000000E+000	0.0000000E+000	0.0000000E+000	-81.3267	0.0000000E+000	0.0000000E+000	0.0000000E+000	-8.67334	0.0000000E+000	0.0000000E+000	0.0000000E+000	8.67334	6.55543	81.3267	5.29864e-07	-3.56767e-06	1.15054e-09	-3.56882e-06	0.250042	17513	5.64781	17518.7
6.81719	16.2641	1.9787	16.384	-6.93657	12.7065	0.249964	-0.0136363	11798.7	172.09	1	11	0.00497201	0.000303467	0	-4.85299e-05	-0.000386116	1.97216e-05	-56.5594	0.0649874	0.0358127	0.0542292	-7.10926	16.4262	16.2999	2.03293	0.0605885	0.00737125	0.0610352	6.93657	172090	1.41451e+06	1.42494e+06	-83.0634	0.0000000E+000	0.0000000E+000	0.0000000E+000	83.0634	0.0000000E+000	0.0000000E+000	0.0000000E+000	-83.0634	0.0000000E+000	0.0000000E+000	0.0000000E+000	-6.93657	0.0000000E+000	0.0000000E+000	0.0000000E+000	6.93657	8.21956	83.0634	-2.87222e-06	-3.40859e-06	5.2652e-09	-3.41386e-06	0.25035	18330.7	28.3152	18359
4.63925	16.6015	1.69283	16.6876	-5.82224	13.1904	0.249966	-0.0133541	20265.6	208.544	1	11	0.00496798	0.000297705	0	-5.23644e-05	-4.24224e-05	3.03481e-05	-76.2005	0.10194	0.0243153	0.0989976	-6.15124	16.7221	16.6258	1.79183	0.0596156	0.00607892	0.0599248	5.82224	208544	2.04518e+06	2.05579e+06	-84.1778	0.0000000E+000	0.0000000E+000	0.0000000E+000	84.1778	0.0000000E+000	0.0000000E+000	0.0000000E+000	-84.1778	0.0000000E+000	0.0000000E+000	0.0000000E+000	-5.82224	0.0000000E+000	0.0000000E+000	0.0000000E+000	5.82224	9.80695	84.1778	-3.83454e-06	-3.33806e-06	5.66511e-10	-3.33862e-06	0.250008	18718.4	3.17674	18721.5
3.1604	16.887	1.42066	16.9466	-4.80882	13.8834	0.249964	-0.0135752	35447.8	249.116	1	11	0.0049699	0.000293268	0	-5.21085e-05	-0.000176081	7.23332e-06	40.0064	0.0246646	0.0188924	-0.0158562	-4.7501	16.9641	16.9059	1.4048	0.0588011	0.00494678	0.0590088	4.80882	249116	2.96117e+06	2.97163e+06	-85.1912	0.0000000E+000	0.0000000E+000	0.0000000E+000	85.1912	0.0000000E+000	0.0000000E+000	0.0000000E+000	-85.1912	0.0000000E+000	0.0000000E+000	0.0000000E+000	-4.80882	0.0000000E+000	0.0000000E+000	0.0000000E+000	4.80882	11.8867	85.1912	2.55935e-07	-3.39331e-06	2.39033e-09	-3.3957e-06	0.25014	18413.3	12.9708	18426.3
2.15577	17.1109	1.21334	17.1539	-4.05609	14.8871	0.249967	-0.0124438	60846.3	304.423	1	11	0.00496991	0.000289725	0	-5.07222e-05	-9.97046e-05	2.14442e-06	47.4484	0.00740158	0.00500535	-0.00545251	-4.03674	17.1585	17.1159	1.20789	0.0581498	0.00412344	0.0582958	4.05609	304423	4.29306e+06	4.30384e+06	-85.9439	0.0000000E+000	0.0000000E+000	0.0000000E+000	85.9439	0.0000000E+000	0.0000000E+000	0.0000000E+000	-85.9439	0.0000000E+000	0.0000000E+000	0.0000000E+000	-4.05609	0.0000000E+000	0.0000000E+000	0.0000000E+000	4.05609	14.1023	85.9439	1.38625e-06	-3.11054e-06	1.2407e-09	-3.11178e-06	0.250067	20087.7	8.01239	20095.7
1.46631	17.3073	1.0881	17.3415	-3.5974	16.3475	0.249965	-0.0110781	99753.1	392.725	1	11	0.00497126	0.000286668	0	-5.38273e-05	7.2142e-05	3.38467e-06	-119.8	0.0118069	-0.00586767	0.0102457	-3.63241	17.3363	17.3015	1.09834	0.0575515	0.00361821	0.0576651	3.5974	392725	6.2467e+06	6.25904e+06	-86.4026	0.0000000E+000	0.0000000E+000	0.0000000E+000	86.4026	0.0000000E+000	0.0000000E+000	0.0000000E+000	-86.4026	0.0000000E+000	0.0000000E+000	0.0000000E+000	-3.5974	0.0000000E+000	0.0000000E+000	0.0000000E+000	3.5974	15.9061	86.4026	-3.1051e-06	-2.76913e-06	-7.99196e-10	-2.76834e-06	0.249893	22563.9	6.51213	22557.4
1.00006	17.4517	1.03644	17.4824	-3.39877	19.5219	0.249971	-0.00951998	153549	539.679	1	12	0.00496913	0.000284236	0	-6.89497e-05	0.000167612	3.15336e-06	-34.18	0.0110942	0.00917795	0.00623265	-3.41737	17.4919	17.4608	1.04268	0.0570997	0.00339112	0.0572004	3.39877	539680	9.08713e+06	9.10314e+06	-86.6012	0.0000000E+000	0.0000000E+000	0.0000000E+000	86.6012	0.0000000E+000	0.0000000E+000	0.0000000E+000	-86.6012	0.0000000E+000	0.0000000E+000	0.0000000E+000	-3.39877	0.0000000E+000	0.0000000E+000	0.0000000E+000	3.39877	16.838	86.6012	-1.51224e-05	-2.37972e-06	-1.59567e-09	-2.37812e-06	0.249804	26257.5	17.6064	26239.9
0.681362	17.5935	1.04755	17.6246	-3.40747	22.6341	0.249968	-0.00862237	222981	787.727	1	12	0.00496914	0.000281943	0	-8.90274e-05	-9.97046e-05	2.9452e-06	55.7561	0.0104461	0.00587818	-0.00863526	-3.37832	17.63	17.5993	1.03891	0.0566385	0.00337236	0.0567388	3.40747	787727	1.32298e+07	1.32532e+07	-86.5925	0.0000000E+000	0.0000000E+000	0.0000000E+000	86.5925	0.0000000E+000	0.0000000E+000	0.0000000E+000	-86.5925	0.0000000E+000	0.0000000E+000	0.0000000E+000	-3.40747	0.0000000E+000	0.0000000E+000	0.0000000E+000	3.40747	16.7949	86.5925	-2.00777e-05	-2.15531e-06	8.5969e-10	-2.15617e-06	0.250067	28990.6	11.5635	29002.1
0.464091	17.7489	1.14086	17.7856	-3.67777	27.1906	0.249969	-0.0089232	300598	1236.84	1	12	0.00497107	0.0002795	0	-0.000111894	-6.15165e-05	3.87644e-06	14.0071	0.0138692	0.0134568	-0.00335693	-3.6642	17.7988	17.7624	1.1375	0.0561096	0.00360658	0.0562254	3.67777	1.23684e+06	1.92422e+07	1.92819e+07	-86.3222	0.0000000E+000	0.0000000E+000	0.0000000E+000	86.3222	0.0000000E+000	0.0000000E+000	0.0000000E+000	-86.3222	0.0000000E+000	0.0000000E+000	0.0000000E+000	-3.67777	0.0000000E+000	0.0000000E+000	0.0000000E+000	3.67777	15.5576	86.3222	-2.2867e-05	-2.23052e-06	5.48924e-10	-2.23107e-06	0.250031	28013.4	6.89399	28020.3
0.316193	17.9057	1.36465	17.9576	-4.35828	33.8641	0.249968	-0.00945329	368846	2130.06	1	12	0.00497296	0.000276927	0	-0.000128981	5.30479e-05	2.54165e-06	-28.7909	0.00917806	0.00804349	0.00442029	-4.37038	17.966	17.9138	1.36907	0.0555256	0.00423179	0.0556866	4.35828	2.13006e+06	2.79486e+07	2.80297e+07	-85.6417	0.0000000E+000	0.0000000E+000	0.0000000E+000	85.6417	0.0000000E+000	0.0000000E+000	0.0000000E+000	-85.6417	0.0000000E+000	0.0000000E+000	0.0000000E+000	-4.35828	0.0000000E+000	0.0000000E+000	0.0000000E+000	4.35828	13.1211	85.6417	-1.70863e-05	-2.36302e-06	-5.01477e-10	-2.36252e-06	0.249915	26442.5	5.61158	26436.8
0.215268	18.0475	1.73392	18.1306	-5.48788	43.6573	0.249962	-0.0092652	426395	3899.85	1	12	0.004971	0.000274178	0	-0.00013105	-4.23428e-06	1.59116e-06	25.7475	0.00580338	0.0052272	-0.00252102	-5.47837	18.1355	18.0527	1.7314	0.0549027	0.00527481	0.0551555	5.48788	3.89984e+06	4.05914e+07	4.07784e+07	-84.5121	0.0000000E+000	0.0000000E+000	0.0000000E+000	84.5121	0.0000000E+000	0.0000000E+000	0.0000000E+000	-84.5121	0.0000000E+000	0.0000000E+000	0.0000000E+000	-5.48788	0.0000000E+000	0.0000000E+000	0.0000000E+000	5.48788	10.4085	84.5121	-2.0691e-06	-2.31595e-06	3.92314e-11	-2.31599e-06	0.249967	26978.6	0.457009	26979.1
0.146929	18.2367	2.20003	18.3689	-6.87878	57.9956	0.249959	-0.00737808	492363	7062.78	1	12	0.00497183	0.000270666	0	-0.000111042	-0.000252457	1.62492e-06	2.93691	0.0060034	0.00599552	-0.000307593	-6.87559	18.3748	18.2427	2.19972	0.054048	0.00652022	0.0544399	6.87878	7.06278e+06	5.85454e+07	5.89699e+07	-83.1212	0.0000000E+000	0.0000000E+000	0.0000000E+000	83.1212	0.0000000E+000	0.0000000E+000	0.0000000E+000	-83.1212	0.0000000E+000	0.0000000E+000	0.0000000E+000	-6.87878	0.0000000E+000	0.0000000E+000	0.0000000E+000	6.87878	8.28929	83.1212	2.00077e-05	-1.84421e-06	1.86265e-09	-1.84608e-06	0.250211	33878.6	34.2172	33912.8
0.0999041	18.5557	2.84091	18.7719	-8.70451	79.0726	0.24996	-0.00449005	560762	12843.4	1	12	0.00497106	0.000264814	0	-7.53387e-05	-8.06105e-05	2.00504e-06	3.02756	0.00757149	0.00756092	-0.000399898	-8.69982	18.7793	18.5632	2.84051	0.0526576	0.00806199	0.0532711	8.70451	1.28434e+07	8.38876e+07	8.48651e+07	-81.2955	0.0000000E+000	0.0000000E+000	0.0000000E+000	81.2955	0.0000000E+000	0.0000000E+000	0.0000000E+000	-81.2955	0.0000000E+000	0.0000000E+000	0.0000000E+000	-8.70451	0.0000000E+000	0.0000000E+000	0.0000000E+000	8.70451	6.53159	81.2955	3.57033e-05	-1.12233e-06	3.61945e-10	-1.1227e-06	0.250041	55669.9	17.9532	55687.8
0.0680626	19.0011	3.80849	19.379	-11.3339	109.999	0.249954	-0.00274439	613986	23713.9	1	12	0.00497079	0.000256504	0	-5.50085e-05	-0.000195175	1.47704e-06	-27.4454	0.00575834	0.00511024	0.00265403	-11.3387	19.3845	19.0062	3.81115	0.050596	0.0101413	0.0516023	11.3339	2.37139e+07	1.18312e+08	1.20665e+08	-78.6661	0.0000000E+000	0.0000000E+000	0.0000000E+000	78.6661	0.0000000E+000	0.0000000E+000	0.0000000E+000	-78.6661	0.0000000E+000	0.0000000E+000	0.0000000E+000	-11.3339	0.0000000E+000	0.0000000E+000	0.0000000E+000	11.3339	4.98913	78.6661	2.03302e-05	-6.85972e-07	5.35637e-10	-6.86508e-07	0.250149	91078	71.1177	91149.1
0.0464052	19.5023	5.19895	20.1834	-14.9268	155.35	0.249958	-0.00177414	659688	43770.3	1	12	0.00497243	0.000246362	0	-0.000115569	1.48598e-05	1.53787e-06	-0.913526	0.00624233	0.00624154	9.95238e-05	-14.9225	20.1895	19.5086	5.19905	0.0478737	0.0127622	0.0495456	14.9268	4.37703e+07	1.64192e+08	1.69926e+08	-75.0732	0.0000000E+000	0.0000000E+000	0.0000000E+000	75.0732	0.0000000E+000	0.0000000E+000	0.0000000E+000	-75.0732	0.0000000E+000	0.0000000E+000	0.0000000E+000	-14.9268	0.0000000E+000	0.0000000E+000	0.0000000E+000	14.9268	3.75121	75.0732	-6.05602e-05	-4.43461e-07	-2.63633e-11	-4.43434e-07	0.249943	140890	8.37578	140882
0.0315922	20.0459	6.92458	21.2082	-19.0568	221.955	0.249969	-0.00211368	727523	77558.2	1	12	0.00497033	0.000234359	0	-0.00033468	-0.000195175	2.35557e-06	8.77036	0.0100511	0.00993358	-0.00153254	-19.0441	21.217	20.0558	6.92305	0.0445675	0.0153953	0.0471517	19.0568	7.75582e+07	2.24522e+08	2.3754e+08	-70.9432	0.0000000E+000	0.0000000E+000	0.0000000E+000	70.9432	0.0000000E+000	0.0000000E+000	0.0000000E+000	-70.9432	0.0000000E+000	0.0000000E+000	0.0000000E+000	-19.0568	0.0000000E+000	0.0000000E+000	0.0000000E+000	19.0568	2.89488	70.9432	-0.000219111	-5.28356e-07	4.12538e-10	-5.28768e-07	0.250165	118262	92.3388	118355
0.0215268	21.0751	9.15325	22.9769	-23.4761	319.692	0.249959	-0.00280239	807729	128183	1	12	0.00497353	0.000216457	0	-0.000708761	-0.000118799	2.48982e-06	13.0128	0.0115026	0.0112072	-0.00259003	-23.4591	22.9862	21.0863	9.15066	0.0399194	0.0173377	0.0435219	23.4761	1.28183e+08	2.95138e+08	3.21772e+08	-66.5239	0.0000000E+000	0.0000000E+000	0.0000000E+000	66.5239	0.0000000E+000	0.0000000E+000	0.0000000E+000	-66.5239	0.0000000E+000	0.0000000E+000	0.0000000E+000	-23.4761	0.0000000E+000	0.0000000E+000	0.0000000E+000	23.4761	2.30247	66.5239	-0.000374081	-7.00482e-07	3.3292e-10	-7.00815e-07	0.250078	89195.1	42.392	89237.5
0.0146812	22.6358	12.499	25.8574	-28.9066	462.994	0.249961	-0.00330371	867329	202659	1	12	0.00497258	0.000192308	0	-0.001084	-0.000176081	1.72498e-06	15.4103	0.00896986	0.00864737	-0.00238356	-28.8927	25.8638	22.6444	12.4966	0.0338553	0.0186942	0.0386737	28.9066	2.02659e+08	3.67017e+08	4.19252e+08	-61.0934	0.0000000E+000	0.0000000E+000	0.0000000E+000	61.0934	0.0000000E+000	0.0000000E+000	0.0000000E+000	-61.0934	0.0000000E+000	0.0000000E+000	0.0000000E+000	-28.9066	0.0000000E+000	0.0000000E+000	0.0000000E+000	28.9066	1.811	61.0934	-0.000375241	-8.25798e-07	5.8172e-10	-8.26379e-07	0.250137	75660.5	53.2979	75713.8
0.0100092	24.5607	17.0138	29.878	-34.7114	673.175	0.249958	-0.00360434	934588	303054	1	12	0.00497079	0.000166369	0	-0.00123042	0.000129424	3.71369e-06	2.26029	0.022322	0.0223046	-0.000880363	-34.6857	29.8959	24.583	17.0129	0.0275129	0.0190589	0.0334694	34.7114	3.03054e+08	4.3748e+08	5.32194e+08	-55.2886	0.0000000E+000	0.0000000E+000	0.0000000E+000	55.2886	0.0000000E+000	0.0000000E+000	0.0000000E+000	-55.2886	0.0000000E+000	0.0000000E+000	0.0000000E+000	-34.7114	0.0000000E+000	0.0000000E+000	0.0000000E+000	34.7114	1.44357	55.2886	-0.000146415	-9.00932e-07	-4.66488e-10	-9.00466e-07	0.249828	69349.2	35.9079	69313.3