File: txt/19001_R309_UA707_SOC00_C04.mpt
EC-Lab ASCII FILE
Nb header lines : 65

Potentio Electrochemical Impedance Spectroscopy

Run on channel : 4 (SN 66756)
Grouped channel(s) : 1, 2, 3, 4
User :
CE vs. WE compliance from -10 V to 10 V
Electrode connection : standard
Potential control : Ewe
Ewe ctrl range : min = -10.00 V, max = 10.00 V
Safety Limits :
	Do not start on E overload
Acquisition started on : 11/04/2025 15:54:15.751
Loaded Setting File :  C:\Users\Celltest\OneDrive - store-dot.com\Documents\EC-Lab\Data\@Biologic Test Protocols\anode half cell EIS SOC00.mps
Saved on :
	File : 18998_R309_UA707_SOC00_C04.mpr
	Directory : C:\Users\Celltest\OneDrive - store-dot.com\Documents\EC-Lab\Data\Charmaine\
	Host : 169.254.61.224
Device : VMP-3e (SN .003165)
Address : USB
EC-LAB for windows v11.62 (software)
Internet server v27.00 (firmware)
Command interpretor v12.03 (firmware)
Electrode material :
Initial state :
Electrolyte :
Comments :
Electrode surface area : 0.001 cm²
Characteristic mass : 0.001 g
Equivalent Weight : 0.000 g/eq.
Density : 0.000 g/cm3
Volume (V) : 0.001 cm³
Record Ece
Cycle Definition : Charge/Discharge alternance
Mode                Single sine
E (V)               0.0000
vs.                 Eoc
tE (h:m:s)          0:00:0.0000
record              0
dI                  0.000
unit dI             mA
dt (s)              0.000
fi                  100.000
unit fi             kHz
ff                  10.000
unit ff             mHz
Nd                  6
Points              per decade
spacing             Logarithmic
Va (mV)             5.0
pw                  0.10
Na                  2
corr                0
E range min (V)     -10.000
E range max (V)     10.000
I Range             Auto
Bandwidth           5
nc cycles           0
goto Ns'            0
nr cycles           0
inc. cycle          0

freq/Hz	Re(Z)/Ohm	-Im(Z)/Ohm	|Z|/Ohm	Phase(Z)/deg	time/s	<Ewe>/V	<I>/mA	Cs/µF	Cp/µF	cycle number	I Range	|Ewe|/V	|I|/A	Ns	(Q-Qo)/mA.h	<Ece>/V	|Ece|/V	Phase(Zce)/deg	|Zce|/Ohm	Re(Zce)/Ohm	-Im(Zce)/Ohm	Phase(Zwe-ce)/deg	|Zwe-ce|/Ohm	Re(Zwe-ce)/Ohm	-Im(Zwe-ce)/Ohm	Re(Y)/Ohm-1	Im(Y)/Ohm-1	|Y|/Ohm-1	Phase(Y)/deg	Re(C)/nF	Im(C)/nF	|C|/nF	Phase(C)/deg	Re(M)	Im(M)	|M|	Phase(M)/deg	Re(Permittivity)	Im(Permittivity)	|Permittivity|	Phase(Permittivity)/deg	Re(Resistivity)/Ohm.cm	Im(Resistivity)/Ohm.cm	|Resistivity|/Ohm.cm	Phase(Resistivity)/deg	Re(Conductivity)/mS/cm	Im(Conductivity)/mS/cm	|Conductivity|/mS/cm	Phase(Conductivity)/deg	Tan(Delta)	Loss Angle(Delta)/deg	dq/mA.h	Pwe/W	Pce/W	Pwe-ce/W	<Ewe-Ece>/V	Rwe/Ohm	Rce/Ohm	Rwe-ce/Ohm		Ewe-Ece/V
100004	1.61324	0.302435	1.64134	-10.6181	1.59451	0.24477	-0.0262799	5.26225	0.178665	1	9	0.00221563	0.00134989	0	-8.96732e-06	-3.27484e-05	2.44711e-05	59.1673	0.0181282	0.00929129	-0.0155661	-10.0265	1.64769	1.62253	0.286869	0.598826	0.112263	0.609259	10.6181	178.665	953.026	969.629	-79.3819	0.0000000E+000	0.0000000E+000	0.0000000E+000	79.3819	0.0000000E+000	0.0000000E+000	0.0000000E+000	-79.3819	0.0000000E+000	0.0000000E+000	0.0000000E+000	-10.6181	0.0000000E+000	0.0000000E+000	0.0000000E+000	10.6181	5.33415	79.3819	-8.96732e-06	-6.43254e-06	8.60626e-10	-6.43341e-06	0.244803	9313.96	1.24614	9315.2
68132	0.00505946	-0.400851	0.400883	89.2769	1.97952	0.244771	-0.0256086	-5.82754	-5.82661	1	9	0.000100887	0.000251663	0	-1.19682e-05	5.4715e-06	1.47993e-05	86.3863	0.0588059	0.00370651	-0.058689	88.9072	0.459624	0.00876597	-0.45954	0.0314824	-2.49429	2.49449	-89.2769	-5826.61	73.543	5827.08	-179.277	0.0000000E+000	0.0000000E+000	0.0000000E+000	179.277	0.0000000E+000	0.0000000E+000	0.0000000E+000	-179.277	0.0000000E+000	0.0000000E+000	0.0000000E+000	89.2769	0.0000000E+000	0.0000000E+000	0.0000000E+000	-89.2769	0.0126218	0.723137	-3.00084e-06	-6.26825e-06	-1.40117e-10	-6.26811e-06	0.244766	9558.16	0.213658	9557.95
46420.4	0.166561	-0.590957	0.613981	74.2595	2.36452	0.244788	-0.031427	-5.80171	-5.37474	1	9	0.000152915	0.000249056	0	-1.48609e-05	-3.27484e-05	7.69231e-06	66.9072	0.0308859	0.0121141	-0.028411	73.9082	0.644625	0.178675	-0.619368	0.441839	-1.56764	1.62872	-74.2595	-5374.74	1514.87	5584.15	-164.26	0.0000000E+000	0.0000000E+000	0.0000000E+000	164.26	0.0000000E+000	0.0000000E+000	0.0000000E+000	-164.26	0.0000000E+000	0.0000000E+000	0.0000000E+000	74.2595	0.0000000E+000	0.0000000E+000	0.0000000E+000	-74.2595	0.28185	15.7405	-2.89276e-06	-7.69294e-06	1.02918e-09	-7.69397e-06	0.24482	7789.09	1.04205	7790.13
31621.1	1.89973	0.664984	2.01276	-19.2921	3.11955	0.244792	-0.047241	7.56888	0.826174	1	9	0.00508815	0.00252795	0	3.90272e-05	-0.000242958	1.18824e-05	15.7648	0.00470039	0.00452359	-0.00127704	-19.2154	2.01661	1.90426	0.663706	0.468932	0.164145	0.496831	19.2921	826.174	2360.22	2500.64	-70.7079	0.0000000E+000	0.0000000E+000	0.0000000E+000	70.7079	0.0000000E+000	0.0000000E+000	0.0000000E+000	-70.7079	0.0000000E+000	0.0000000E+000	0.0000000E+000	-19.2921	0.0000000E+000	0.0000000E+000	0.0000000E+000	19.2921	2.85681	70.7079	5.38881e-05	-1.15642e-05	1.14776e-08	-1.15757e-05	0.245035	5181.78	5.14295	5186.92
21544.7	2.06699	0.698262	2.18175	-18.6658	3.50253	0.244766	-0.0573858	10.5794	1.08365	1	9	0.00510344	0.00233915	0	3.32211e-05	5.4715e-06	1.01986e-05	12.4249	0.00435994	0.00425783	-0.000938085	-18.6067	2.18548	2.07125	0.697324	0.43424	0.146693	0.458348	18.6658	1083.65	3207.82	3385.91	-71.3342	0.0000000E+000	0.0000000E+000	0.0000000E+000	71.3342	0.0000000E+000	0.0000000E+000	0.0000000E+000	-71.3342	0.0000000E+000	0.0000000E+000	0.0000000E+000	-18.6658	0.0000000E+000	0.0000000E+000	0.0000000E+000	18.6658	2.96019	71.3342	-5.80605e-06	-1.40461e-05	-3.13986e-10	-1.40458e-05	0.244761	4265.27	0.0953458	4265.18
14678.6	2.21804	0.728953	2.33476	-18.193	3.76153	0.244803	-0.0403783	14.8743	1.44995	1	9	0.00507964	0.00217566	0	3.01116e-05	5.4715e-06	5.90169e-06	26.6722	0.00271259	0.00242395	-0.00121764	-18.146	2.33668	2.22047	0.727736	0.406899	0.133726	0.42831	18.193	1449.95	4411.87	4644.02	-71.807	0.0000000E+000	0.0000000E+000	0.0000000E+000	71.807	0.0000000E+000	0.0000000E+000	0.0000000E+000	-71.807	0.0000000E+000	0.0000000E+000	0.0000000E+000	-18.193	0.0000000E+000	0.0000000E+000	0.0000000E+000	18.193	3.04278	71.807	-3.10947e-06	-9.88473e-06	-2.2093e-10	-9.8845e-06	0.244798	6062.74	0.135506	6062.6
10002.2	2.39116	0.779791	2.5151	-18.0619	4.02252	0.244797	-0.0544021	20.4054	1.96152	1	9	0.00488942	0.00194403	0	2.82168e-05	-5.18584e-05	1.15269e-05	-118.883	0.00592937	-0.00286402	0.0051918	-18.1946	2.51399	2.3883	0.784983	0.378006	0.123273	0.397599	18.0619	1961.52	6014.81	6326.57	-71.9381	0.0000000E+000	0.0000000E+000	0.0000000E+000	71.9381	0.0000000E+000	0.0000000E+000	0.0000000E+000	-71.9381	0.0000000E+000	0.0000000E+000	0.0000000E+000	-18.0619	0.0000000E+000	0.0000000E+000	0.0000000E+000	18.0619	3.06641	71.9381	-1.89486e-06	-1.33175e-05	2.8212e-09	-1.33203e-05	0.244849	4499.77	0.953242	4500.73
6810.42	2.54854	0.84167	2.68393	-18.2761	4.28356	0.244798	-0.0447794	27.7654	2.73052	1	9	0.00476371	0.0017749	0	2.64758e-05	0.000120131	4.24706e-05	74.8177	0.0239284	0.00626662	-0.0230933	-17.7658	2.68275	2.55481	0.818577	0.353793	0.116842	0.372588	18.2761	2730.52	8267.91	8707.13	-71.7239	0.0000000E+000	0.0000000E+000	0.0000000E+000	71.7239	0.0000000E+000	0.0000000E+000	0.0000000E+000	-71.7239	0.0000000E+000	0.0000000E+000	0.0000000E+000	-18.2761	0.0000000E+000	0.0000000E+000	0.0000000E+000	18.2761	3.02796	71.7239	-1.74098e-06	-1.09619e-05	-5.3794e-09	-1.09565e-05	0.244678	5466.75	2.68274	5464.07
4646	2.72877	0.926336	2.88171	-18.7508	4.54859	0.244739	-0.0712232	36.9804	3.82127	1	9	0.00466413	0.00161853	0	2.28593e-05	2.45815e-05	1.70974e-05	-43.6947	0.0105635	0.00763777	0.00729746	-18.8391	2.89129	2.7364	0.933634	0.328598	0.111549	0.347016	18.7508	3821.27	11256.6	11887.5	-71.2492	0.0000000E+000	0.0000000E+000	0.0000000E+000	71.2492	0.0000000E+000	0.0000000E+000	0.0000000E+000	-71.2492	0.0000000E+000	0.0000000E+000	0.0000000E+000	-18.7508	0.0000000E+000	0.0000000E+000	0.0000000E+000	18.7508	2.94576	71.2492	-3.61647e-06	-1.74311e-05	-1.75077e-09	-1.74293e-05	0.244714	3436.22	0.345133	3435.88
3163.08	2.93999	1.04423	3.11993	-19.5542	4.92264	0.244638	-0.0757734	48.1851	5.39782	1	9	0.00460308	0.00147538	0	1.46395e-05	-0.000319398	9.11034e-06	-123.315	0.00617492	-0.0033915	0.00516016	-19.6644	3.11847	2.9366	1.04939	0.302034	0.107277	0.32052	19.5542	5397.82	15197.3	16127.4	-70.4458	0.0000000E+000	0.0000000E+000	0.0000000E+000	70.4458	0.0000000E+000	0.0000000E+000	0.0000000E+000	-70.4458	0.0000000E+000	0.0000000E+000	0.0000000E+000	-19.5542	0.0000000E+000	0.0000000E+000	0.0000000E+000	19.5542	2.81545	70.4458	-8.21982e-06	-1.8537e-05	2.42019e-08	-1.85612e-05	0.244957	3228.54	4.21517	3232.76
2155.69	3.19104	1.19757	3.40836	-20.5707	5.37383	0.244744	-0.0323221	61.6498	7.61106	1	9	0.00455987	0.00133785	0	9.85553e-06	-0.000434058	1.40908e-05	-37.4922	0.0105325	0.00835683	0.00641061	-20.6221	3.41844	3.19939	1.20398	0.274689	0.103089	0.293396	20.5707	7611.06	20280.3	21661.5	-69.4293	0.0000000E+000	0.0000000E+000	0.0000000E+000	69.4293	0.0000000E+000	0.0000000E+000	0.0000000E+000	-69.4293	0.0000000E+000	0.0000000E+000	0.0000000E+000	-20.5707	0.0000000E+000	0.0000000E+000	0.0000000E+000	20.5707	2.66459	69.4293	-4.78397e-06	-7.91063e-06	1.40296e-08	-7.92466e-06	0.245178	7572.02	13.4291	7585.45
1468.59	3.45256	1.37326	3.71565	-21.6903	6.07104	0.244731	-0.0300973	78.9161	10.7797	1	10	0.00464204	0.00124932	0	4.02039e-06	-0.000166518	1.48507e-05	-19.9943	0.011887	0.0111705	0.00406448	-21.6849	3.72753	3.46373	1.37733	0.250076	0.0994684	0.269132	21.6903	10779.7	27101.4	29166.6	-68.3097	0.0000000E+000	0.0000000E+000	0.0000000E+000	68.3097	0.0000000E+000	0.0000000E+000	0.0000000E+000	-68.3097	0.0000000E+000	0.0000000E+000	0.0000000E+000	-21.6903	0.0000000E+000	0.0000000E+000	0.0000000E+000	21.6903	2.51413	68.3097	-5.83514e-06	-7.36574e-06	5.01174e-09	-7.37075e-06	0.244897	8131.33	5.53266	8136.86
1000.32	3.74692	1.59455	4.0721	-23.0528	6.5228	0.244694	-0.0327047	99.7798	15.2997	1	10	0.00459827	0.00112921	0	4.95114e-07	-0.000223848	1.27153e-05	-3.97905	0.0112603	0.0112332	0.000781374	-23.0012	4.08274	3.75815	1.59533	0.225963	0.0961616	0.245574	23.0528	15299.7	35951.6	39071.7	-66.9472	0.0000000E+000	0.0000000E+000	0.0000000E+000	66.9472	0.0000000E+000	0.0000000E+000	0.0000000E+000	-66.9472	0.0000000E+000	0.0000000E+000	0.0000000E+000	-23.0528	0.0000000E+000	0.0000000E+000	0.0000000E+000	23.0528	2.34983	66.9472	-3.52527e-06	-8.00263e-06	7.32088e-09	-8.00995e-06	0.244918	7481.92	6.84452	7488.76
681.09	4.09901	1.85843	4.50063	-24.3889	6.9736	0.244719	-0.0282471	125.739	21.4396	1	10	0.0045621	0.00101366	0	-2.70206e-06	4.36914e-05	7.66026e-06	-30.9806	0.00755705	0.00647897	0.00388997	-24.3999	4.50814	4.10549	1.86232	0.202364	0.0917488	0.222191	24.3889	21439.6	47287.7	51920.9	-65.6111	0.0000000E+000	0.0000000E+000	0.0000000E+000	65.6111	0.0000000E+000	0.0000000E+000	0.0000000E+000	-65.6111	0.0000000E+000	0.0000000E+000	0.0000000E+000	-24.3889	0.0000000E+000	0.0000000E+000	0.0000000E+000	24.3889	2.20563	65.6111	-3.19718e-06	-6.91261e-06	-1.23416e-09	-6.91137e-06	0.244675	8663.5	1.54676	8661.95
463.961	4.54011	2.20173	5.04581	-25.8711	7.42531	0.244718	-0.0287059	155.803	29.6648	1	10	0.00454725	0.000901195	0	-6.46496e-06	-0.000242958	9.40172e-06	-18.9847	0.0104325	0.00986504	0.00339385	-25.857	5.05617	4.54997	2.20512	0.178322	0.0864774	0.198184	25.8711	29664.8	61170.7	67984.2	-64.1289	0.0000000E+000	0.0000000E+000	0.0000000E+000	64.1289	0.0000000E+000	0.0000000E+000	0.0000000E+000	-64.1289	0.0000000E+000	0.0000000E+000	0.0000000E+000	-25.8711	0.0000000E+000	0.0000000E+000	0.0000000E+000	25.8711	2.06206	64.1289	-3.7629e-06	-7.02486e-06	6.97434e-09	-7.03184e-06	0.244961	8525	8.46368	8533.46
316.316	5.09387	2.6041	5.72091	-27.0771	7.87308	0.244724	-0.0284635	193.215	40.0337	1	10	0.00452944	0.000791734	0	-9.75296e-06	-0.000262068	7.81446e-06	28.6575	0.00987007	0.00866101	-0.00473341	-26.9955	5.72648	5.10253	2.59937	0.155639	0.0795658	0.174797	27.0771	40033.7	78309.8	87949.6	-62.9229	0.0000000E+000	0.0000000E+000	0.0000000E+000	62.9229	0.0000000E+000	0.0000000E+000	0.0000000E+000	-62.9229	0.0000000E+000	0.0000000E+000	0.0000000E+000	-27.0771	0.0000000E+000	0.0000000E+000	0.0000000E+000	27.0771	1.9561	62.9229	-3.288e-06	-6.9657e-06	7.45937e-09	-6.97316e-06	0.244986	8597.83	9.20716	8607.03
215.345	5.82433	3.01913	6.56033	-27.4006	8.32353	0.24472	-0.0296945	244.796	51.8461	1	10	0.0045222	0.000689325	0	-1.24345e-05	2.45815e-05	5.62852e-06	-98.6953	0.00816526	-0.00123442	0.00807142	-27.4682	6.56295	5.82309	3.0272	0.13533	0.0701504	0.152431	27.4006	51846.1	100019	112658	-62.5994	0.0000000E+000	0.0000000E+000	0.0000000E+000	62.5994	0.0000000E+000	0.0000000E+000	0.0000000E+000	-62.5994	0.0000000E+000	0.0000000E+000	0.0000000E+000	-27.4006	0.0000000E+000	0.0000000E+000	0.0000000E+000	27.4006	1.92914	62.5994	-2.68151e-06	-7.26683e-06	-7.29933e-10	-7.2661e-06	0.244695	8241.27	0.827813	8240.44
146.737	6.70668	3.36293	7.50259	-26.6305	8.76955	0.244728	-0.0279264	322.524	64.7999	1	10	0.00450231	0.0006001	0	-1.55639e-05	4.36914e-05	7.75724e-06	-3.01689	0.0129266	0.0129087	0.00068033	-26.5911	7.51444	6.71959	3.36361	0.119148	0.0597441	0.133287	26.6305	64799.9	129230	144567	-63.3695	0.0000000E+000	0.0000000E+000	0.0000000E+000	63.3695	0.0000000E+000	0.0000000E+000	0.0000000E+000	-63.3695	0.0000000E+000	0.0000000E+000	0.0000000E+000	-26.6305	0.0000000E+000	0.0000000E+000	0.0000000E+000	26.6305	1.9943	63.3694	-3.12938e-06	-6.83435e-06	-1.22014e-09	-6.83313e-06	0.244684	8763.32	1.56452	8761.76
100.032	7.80253	3.60104	8.59343	-24.7744	9.22081	0.244724	-0.0289484	441.828	77.5847	1	10	0.00450958	0.000524771	0	-1.94386e-05	-0.000242958	8.51978e-06	49.6292	0.0162352	0.0105161	-0.0123691	-24.6701	8.5978	7.81305	3.58867	0.105658	0.0487635	0.116368	24.7744	77584.7	168106	185146	-65.2256	0.0000000E+000	0.0000000E+000	0.0000000E+000	65.2256	0.0000000E+000	0.0000000E+000	0.0000000E+000	-65.2256	0.0000000E+000	0.0000000E+000	0.0000000E+000	-24.7744	0.0000000E+000	0.0000000E+000	0.0000000E+000	24.7744	2.16674	65.2256	-3.87478e-06	-7.08437e-06	7.03325e-09	-7.09141e-06	0.244967	8453.79	8.39279	8462.19
68.104	8.91208	3.58955	9.60781	-21.9382	9.68349	0.244727	-0.0253302	651.041	90.8737	1	10	0.00450144	0.000468518	0	-2.28387e-05	0.000196571	7.33209e-06	-40.667	0.0156495	0.0118703	0.0101982	-21.9682	9.62264	8.92395	3.59974	0.0965451	0.0388857	0.104082	21.9382	90873.7	225620	243233	-68.0618	0.0000000E+000	0.0000000E+000	0.0000000E+000	68.0618	0.0000000E+000	0.0000000E+000	0.0000000E+000	-68.0618	0.0000000E+000	0.0000000E+000	0.0000000E+000	-21.9382	0.0000000E+000	0.0000000E+000	0.0000000E+000	21.9382	2.48279	68.0618	-3.40009e-06	-6.19898e-06	-4.97917e-09	-6.194e-06	0.244531	9661.5	7.76036	9653.74
46.4415	9.95032	3.33908	10.4956	-18.5505	10.1207	0.244732	-0.0294184	1026.33	103.878	1	10	0.00450542	0.000429266	0	-2.64649e-05	-0.000128298	4.4454e-06	-10.3521	0.0103558	0.0101872	0.0018609	-18.5424	10.5059	9.9605	3.34094	0.0903275	0.0303117	0.0952777	18.5505	103878	309552	326516	-71.4495	0.0000000E+000	0.0000000E+000	0.0000000E+000	71.4495	0.0000000E+000	0.0000000E+000	0.0000000E+000	-71.4495	0.0000000E+000	0.0000000E+000	0.0000000E+000	-18.5505	0.0000000E+000	0.0000000E+000	0.0000000E+000	18.5505	2.97995	71.4495	-3.62612e-06	-7.19963e-06	3.77433e-09	-7.20341e-06	0.24486	8319.01	4.36115	8323.37
31.6296	10.8916	2.975	11.2906	-15.2774	10.5506	0.24473	-0.0319736	1691.38	117.43	1	10	0.00450477	0.000398984	0	-2.91601e-05	-0.000147408	1.11317e-05	54.5526	0.0279002	0.0161809	-0.0227289	-15.1446	11.3003	10.9078	2.95227	0.0854393	0.0233374	0.0885692	15.2774	117430	429917	445666	-74.7226	0.0000000E+000	0.0000000E+000	0.0000000E+000	74.7226	0.0000000E+000	0.0000000E+000	0.0000000E+000	-74.7226	0.0000000E+000	0.0000000E+000	0.0000000E+000	-15.2774	0.0000000E+000	0.0000000E+000	0.0000000E+000	15.2774	3.66105	74.7226	-2.69523e-06	-7.82489e-06	4.71317e-09	-7.82961e-06	0.244877	7654.12	4.61031	7658.73
21.5517	11.5773	2.55546	11.856	-12.4473	10.9715	0.244721	-0.0315409	2889.81	134.256	1	10	0.004501	0.00037964	0	-3.2484e-05	-9.00783e-05	1.07992e-05	-13.7553	0.028446	0.0276302	0.00676378	-12.4505	11.8844	11.6049	2.56222	0.0823632	0.0181801	0.0843458	12.4473	134256	608235	622876	-77.5527	0.0000000E+000	0.0000000E+000	0.0000000E+000	77.5527	0.0000000E+000	0.0000000E+000	0.0000000E+000	-77.5527	0.0000000E+000	0.0000000E+000	0.0000000E+000	-12.4473	0.0000000E+000	0.0000000E+000	0.0000000E+000	12.4473	4.53041	77.5527	-3.32397e-06	-7.71871e-06	2.84115e-09	-7.72155e-06	0.244811	7758.83	2.85592	7761.69
14.6852	12.1188	2.1882	12.3148	-10.2351	11.6502	0.244734	-0.0236143	4952.85	156.377	1	10	0.00499684	0.000405759	0	-3.61792e-05	-0.000300288	1.24936e-05	-107.189	0.0307908	-0.00909969	0.0294155	-10.3774	12.3111	12.1097	2.21761	0.0799108	0.0144288	0.081203	10.2351	156377	866059	880063	-79.7649	0.0000000E+000	0.0000000E+000	0.0000000E+000	79.7649	0.0000000E+000	0.0000000E+000	0.0000000E+000	-79.7649	0.0000000E+000	0.0000000E+000	0.0000000E+000	-10.2351	0.0000000E+000	0.0000000E+000	0.0000000E+000	10.2351	5.53827	79.7649	-3.69519e-06	-5.77921e-06	7.09108e-09	-5.7863e-06	0.245034	10363.8	12.7164	10376.5
10.0032	12.6313	1.87251	12.7694	-8.43229	12.3459	0.244759	-0.0129106	8496.83	182.711	1	11	0.00501275	0.00039256	0	-4.11876e-05	-0.000204738	1.67795e-05	94.1287	0.0427437	-0.00307745	-0.0426328	-8.24496	12.7602	12.6283	1.82988	0.0774657	0.0114838	0.0783123	8.43229	182711	1.23251e+06	1.24598e+06	-81.5677	0.0000000E+000	0.0000000E+000	0.0000000E+000	81.5677	0.0000000E+000	0.0000000E+000	0.0000000E+000	-81.5677	0.0000000E+000	0.0000000E+000	0.0000000E+000	-8.43229	0.0000000E+000	0.0000000E+000	0.0000000E+000	8.43229	6.74568	81.5677	-5.00836e-06	-3.15999e-06	2.64329e-09	-3.16263e-06	0.244964	18958	15.8582	18973.9
6.81719	12.9593	1.55479	13.0523	-6.84134	12.6855	0.244765	-0.012085	15015.6	213.066	1	11	0.00499833	0.000382947	0	-4.58129e-05	0.000215681	6.74685e-06	23.3112	0.0176182	0.01618	-0.00697198	-6.80253	13.0675	12.9755	1.54782	0.0760695	0.00912641	0.0766151	6.84134	213066	1.77593e+06	1.78866e+06	-83.1587	0.0000000E+000	0.0000000E+000	0.0000000E+000	83.1587	0.0000000E+000	0.0000000E+000	0.0000000E+000	-83.1587	0.0000000E+000	0.0000000E+000	0.0000000E+000	-6.84134	0.0000000E+000	0.0000000E+000	0.0000000E+000	6.84134	8.3351	83.1587	-4.62526e-06	-2.95797e-06	-2.6065e-09	-2.95537e-06	0.244549	20253.7	17.8471	20235.8
4.63925	13.2678	1.35708	13.337	-5.84011	13.1705	0.24477	-0.0117589	25279.5	261.734	1	11	0.00500005	0.000374901	0	-4.53358e-05	-1.36385e-05	1.42401e-05	17.7085	0.0379836	0.0361838	-0.0115537	-5.77509	13.3718	13.304	1.34552	0.0745902	0.00762936	0.0749794	5.84011	261734	2.55891e+06	2.57226e+06	-84.1599	0.0000000E+000	0.0000000E+000	0.0000000E+000	84.1599	0.0000000E+000	0.0000000E+000	0.0000000E+000	-84.1599	0.0000000E+000	0.0000000E+000	0.0000000E+000	-5.84011	0.0000000E+000	0.0000000E+000	0.0000000E+000	5.84011	9.77674	84.1599	4.77032e-07	-2.87823e-06	1.60373e-10	-2.87839e-06	0.244784	20815.7	1.15984	20816.9
3.1604	13.5061	1.12919	13.5532	-4.77918	13.8635	0.24477	-0.0115007	44597.5	309.574	1	11	0.00499643	0.000368654	0	-4.27377e-05	-3.27484e-05	7.53548e-06	44.915	0.0204405	0.0144751	-0.0144322	-4.71334	13.5664	13.5205	1.11476	0.0735269	0.00614731	0.0737834	4.77918	309573	3.70275e+06	3.71567e+06	-85.2208	0.0000000E+000	0.0000000E+000	0.0000000E+000	85.2208	0.0000000E+000	0.0000000E+000	0.0000000E+000	-85.2208	0.0000000E+000	0.0000000E+000	0.0000000E+000	-4.77918	0.0000000E+000	0.0000000E+000	0.0000000E+000	4.77918	11.9608	85.2208	2.59813e-06	-2.81503e-06	3.7663e-10	-2.81541e-06	0.244803	21283	2.84751	21285.9
2.15577	13.7007	1.01335	13.7382	-4.23008	14.8671	0.244769	-0.0100516	72854.9	396.389	1	11	0.00499732	0.000363755	0	-4.53228e-05	0.000158351	2.05761e-06	52.6505	0.00565659	0.00343172	-0.0044967	-4.21033	13.7412	13.7042	1.00885	0.0725917	0.00536912	0.07279	4.23008	396389	5.35926e+06	5.3739e+06	-85.7699	0.0000000E+000	0.0000000E+000	0.0000000E+000	85.7699	0.0000000E+000	0.0000000E+000	0.0000000E+000	-85.7699	0.0000000E+000	0.0000000E+000	0.0000000E+000	-4.23008	0.0000000E+000	0.0000000E+000	0.0000000E+000	4.23008	13.5202	85.7699	-2.58513e-06	-2.46032e-06	-1.59168e-09	-2.45873e-06	0.244611	24351.3	15.7538	24335.5
1.46631	13.8662	0.921162	13.8968	-3.8007	16.3286	0.244768	-0.00855868	117831	517.73	1	11	0.00499792	0.000359646	0	-5.57843e-05	-0.000281178	2.44499e-06	-15.0567	0.0067983	0.00656491	0.00176603	-3.80617	13.9034	13.8728	0.922928	0.0718009	0.00476989	0.0719592	3.8007	517729	7.79335e+06	7.81053e+06	-86.1993	0.0000000E+000	0.0000000E+000	0.0000000E+000	86.1993	0.0000000E+000	0.0000000E+000	0.0000000E+000	-86.1993	0.0000000E+000	0.0000000E+000	0.0000000E+000	-3.8007	0.0000000E+000	0.0000000E+000	0.0000000E+000	3.8007	15.0529	86.1993	-1.04614e-05	-2.09489e-06	2.40651e-09	-2.0973e-06	0.245049	28598.8	32.8529	28631.7
1.00006	14.0122	0.88051	14.0398	-3.59567	18.4586	0.244761	-0.00885584	180742	710.892	1	11	0.00499827	0.000356007	0	-7.21872e-05	0.000101021	3.10172e-06	27.3521	0.00871253	0.00773846	-0.00400304	-3.5774	14.0473	14.0199	0.876507	0.0710858	0.00446695	0.071226	3.59567	710891	1.13129e+07	1.13352e+07	-86.4043	0.0000000E+000	0.0000000E+000	0.0000000E+000	86.4043	0.0000000E+000	0.0000000E+000	0.0000000E+000	-86.4043	0.0000000E+000	0.0000000E+000	0.0000000E+000	-3.59567	0.0000000E+000	0.0000000E+000	0.0000000E+000	3.59567	15.9137	86.4043	-1.64029e-05	-2.16756e-06	-8.94628e-10	-2.16667e-06	0.24466	27638.4	11.4073	27626.9
0.681362	14.1351	0.914299	14.1646	-3.70091	21.5689	0.24477	-0.00852542	255478	1064.44	1	11	0.004995	0.000352639	0	-8.84895e-05	-0.000300288	2.20915e-06	-28.1262	0.00626461	0.00552483	0.00295323	-3.71138	14.1703	14.1406	0.917252	0.0704513	0.004557	0.0705985	3.70091	1.06444e+06	1.64562e+07	1.64906e+07	-86.2991	0.0000000E+000	0.0000000E+000	0.0000000E+000	86.2991	0.0000000E+000	0.0000000E+000	0.0000000E+000	-86.2991	0.0000000E+000	0.0000000E+000	0.0000000E+000	-3.70091	0.0000000E+000	0.0000000E+000	0.0000000E+000	3.70091	15.46	86.2991	-1.63023e-05	-2.08676e-06	2.56008e-09	-2.08932e-06	0.24507	28710.6	35.2226	28745.8
0.464091	14.2632	1.04106	14.3011	-4.17456	26.1255	0.244767	-0.0096411	329415	1745.63	1	11	0.00499508	0.000349279	0	-9.68684e-05	-9.00783e-05	3.15106e-06	-37.0562	0.00902161	0.00719965	0.0054364	-4.19417	14.3087	14.2704	1.04649	0.0697391	0.00509019	0.0699246	4.17456	1.74563e+06	2.39163e+07	2.39799e+07	-85.8254	0.0000000E+000	0.0000000E+000	0.0000000E+000	85.8254	0.0000000E+000	0.0000000E+000	0.0000000E+000	-85.8254	0.0000000E+000	0.0000000E+000	0.0000000E+000	-4.17456	0.0000000E+000	0.0000000E+000	0.0000000E+000	4.17456	13.7007	85.8254	-8.37887e-06	-2.35982e-06	8.68454e-10	-2.36069e-06	0.244857	25387.8	9.34315	25397.2
0.316193	14.379	1.25498	14.4337	-4.98807	32.7999	0.244761	-0.00995036	401079	3032.16	1	11	0.00500061	0.000346454	0	-9.02283e-05	-3.27484e-05	2.53933e-06	58.1783	0.00732948	0.00386467	-0.00622781	-4.96211	14.437	14.3829	1.24876	0.06902	0.00602399	0.0692824	4.98807	3.03216e+06	3.4741e+07	3.48731e+07	-85.0119	0.0000000E+000	0.0000000E+000	0.0000000E+000	85.0119	0.0000000E+000	0.0000000E+000	0.0000000E+000	-85.0119	0.0000000E+000	0.0000000E+000	0.0000000E+000	-4.98807	0.0000000E+000	0.0000000E+000	0.0000000E+000	4.98807	11.4575	85.0119	6.64007e-06	-2.43546e-06	3.25858e-10	-2.43579e-06	0.244794	24598.2	3.29118	24601.5
0.215268	14.5231	1.55676	14.6063	-6.11828	42.5933	0.24477	-0.0070541	474920	5394.88	1	11	0.00499763	0.000342156	0	-6.62446e-05	-0.000147408	3.38016e-06	-15.2753	0.00987899	0.00952998	0.00260269	-6.12444	14.6161	14.5326	1.55936	0.0680737	0.00729694	0.0684636	6.11828	5.39488e+06	5.03292e+07	5.06175e+07	-83.8817	0.0000000E+000	0.0000000E+000	0.0000000E+000	83.8817	0.0000000E+000	0.0000000E+000	0.0000000E+000	-83.8817	0.0000000E+000	0.0000000E+000	0.0000000E+000	-6.11828	0.0000000E+000	0.0000000E+000	0.0000000E+000	6.11828	9.32907	83.8817	2.39837e-05	-1.72664e-06	1.03983e-09	-1.72767e-06	0.244918	34699	20.8968	34719.9
0.146929	14.7626	1.99877	14.8973	-7.71061	56.9306	0.244765	-0.00410229	541940	9755.72	1	11	0.00499847	0.000335528	0	-3.64658e-05	-9.00783e-05	3.57835e-06	31.4971	0.0106648	0.00909354	-0.0055719	-7.68469	14.9056	14.7717	1.9932	0.0665193	0.0090063	0.0671262	7.71061	9.75572e+06	7.20544e+07	7.27118e+07	-82.2894	0.0000000E+000	0.0000000E+000	0.0000000E+000	82.2894	0.0000000E+000	0.0000000E+000	0.0000000E+000	-82.2894	0.0000000E+000	0.0000000E+000	0.0000000E+000	-7.71061	0.0000000E+000	0.0000000E+000	0.0000000E+000	7.71061	7.38586	82.2894	2.97788e-05	-1.0041e-06	3.69527e-10	-1.00447e-06	0.244855	59665.5	21.9581	59687.4
0.0999041	15.0807	2.70923	15.3221	-10.1845	78.0089	0.24477	-0.00159884	588019	18384.2	1	11	0.00499838	0.00032622	0	-3.19456e-05	-0.000128298	1.61721e-06	-12.5924	0.00495743	0.00483818	0.00108079	-10.1852	15.3271	15.0856	2.71031	0.0642367	0.01154	0.065265	10.1845	1.83842e+07	1.02334e+08	1.03972e+08	-79.8155	0.0000000E+000	0.0000000E+000	0.0000000E+000	79.8155	0.0000000E+000	0.0000000E+000	0.0000000E+000	-79.8155	0.0000000E+000	0.0000000E+000	0.0000000E+000	-10.1845	0.0000000E+000	0.0000000E+000	0.0000000E+000	10.1845	5.56642	79.8155	4.52023e-06	-3.91349e-07	2.05129e-10	-3.91554e-07	0.244899	153092	80.2445	153173
0.0680626	15.4236	3.67937	15.8564	-13.4174	108.935	0.244771	-0.00117812	635532	34219.8	1	11	0.00499828	0.000315222	0	-9.28407e-05	-0.000338508	3.01481e-06	-8.12712	0.00956407	0.00946801	0.00135207	-13.4142	15.8659	15.433	3.68072	0.0613448	0.0146341	0.0630661	13.4174	3.42198e+07	1.43446e+08	1.47471e+08	-76.5826	0.0000000E+000	0.0000000E+000	0.0000000E+000	76.5826	0.0000000E+000	0.0000000E+000	0.0000000E+000	-76.5826	0.0000000E+000	0.0000000E+000	0.0000000E+000	-13.4174	0.0000000E+000	0.0000000E+000	0.0000000E+000	13.4174	4.19191	76.5826	-6.08951e-05	-2.88369e-07	3.98803e-10	-2.88768e-07	0.245109	207764	287.329	208051
0.0464052	15.8839	4.85102	16.6082	-16.9829	175.928	0.244775	-0.00254997	707001	60317.5	1	12	0.00499684	0.000300867	0	-0.000310137	0.000101021	2.62351e-06	15.3705	0.00871986	0.00840796	-0.00231129	-16.9668	16.6155	15.8923	4.84871	0.0575856	0.0175869	0.0602113	16.9829	6.03175e+07	1.975e+08	2.06506e+08	-73.0171	0.0000000E+000	0.0000000E+000	0.0000000E+000	73.0171	0.0000000E+000	0.0000000E+000	0.0000000E+000	-73.0171	0.0000000E+000	0.0000000E+000	0.0000000E+000	-16.9829	0.0000000E+000	0.0000000E+000	0.0000000E+000	16.9829	3.27434	73.0171	-0.000217296	-6.24168e-07	-2.57601e-10	-6.23911e-07	0.244674	95991.2	39.6166	95951.5
0.0315922	16.6506	6.44713	17.8552	-21.1664	242.534	0.24477	-0.00326276	781401	101877	1	12	0.00499663	0.000279842	0	-0.000619347	-0.000357618	2.20316e-06	0.367053	0.0078729	0.00787274	-5.04356e-05	-21.1572	17.8625	16.6585	6.44708	0.0522277	0.0202226	0.0560061	21.1664	1.01877e+08	2.63112e+08	2.82147e+08	-68.8336	0.0000000E+000	0.0000000E+000	0.0000000E+000	68.8336	0.0000000E+000	0.0000000E+000	0.0000000E+000	-68.8336	0.0000000E+000	0.0000000E+000	0.0000000E+000	-21.1664	0.0000000E+000	0.0000000E+000	0.0000000E+000	21.1664	2.58264	68.8336	-0.00030921	-7.98625e-07	1.16682e-09	-7.99792e-07	0.245127	75019.2	109.606	75128.9
0.0215268	17.6881	8.84157	19.7748	-26.5587	340.271	0.244772	-0.00382649	836203	167166	1	12	0.00500006	0.00025285	0	-0.000879763	-1.36385e-05	1.40434e-06	19.6803	0.00555402	0.00522959	-0.00187043	-26.547	19.7786	17.6933	8.8397	0.0452333	0.0226103	0.0505695	26.5587	1.67166e+08	3.34425e+08	3.73878e+08	-63.4413	0.0000000E+000	0.0000000E+000	0.0000000E+000	63.4413	0.0000000E+000	0.0000000E+000	0.0000000E+000	-63.4413	0.0000000E+000	0.0000000E+000	0.0000000E+000	-26.5587	0.0000000E+000	0.0000000E+000	0.0000000E+000	26.5587	2.00056	63.4413	-0.000260416	-9.36619e-07	5.21874e-11	-9.36671e-07	0.244786	63967.8	3.56422	63971.4
0.0146812	18.8496	12.0125	22.3519	-32.5086	483.574	0.244778	-0.00400607	902456	260654	1	12	0.00499632	0.00022353	0	-0.000887374	-9.00783e-05	3.51609e-06	14.7068	0.0157298	0.0152145	-0.00399338	-32.4791	22.3625	18.8648	12.0085	0.0377289	0.0240439	0.044739	32.5086	2.60654e+08	4.09009e+08	4.85004e+08	-57.4914	0.0000000E+000	0.0000000E+000	0.0000000E+000	57.4914	0.0000000E+000	0.0000000E+000	0.0000000E+000	-57.4914	0.0000000E+000	0.0000000E+000	0.0000000E+000	-32.5086	0.0000000E+000	0.0000000E+000	0.0000000E+000	32.5086	1.56916	57.4914	-7.61091e-06	-9.80598e-07	3.6086e-10	-9.80959e-07	0.244868	61101.9	22.4855	61124.4
0.0100092	20.5652	15.8842	25.9853	-37.6818	693.755	0.244771	-0.00394803	1.00105e+06	374051	1	12	0.00500064	0.000192441	0	-0.000594823	-0.000242958	1.88208e-06	-18.0069	0.00978005	0.00930102	0.00302331	-37.6746	25.9945	20.5745	15.8872	0.0304563	0.0235239	0.0384832	37.6818	3.74051e+08	4.84283e+08	6.11919e+08	-52.3182	0.0000000E+000	0.0000000E+000	0.0000000E+000	52.3182	0.0000000E+000	0.0000000E+000	0.0000000E+000	-52.3182	0.0000000E+000	0.0000000E+000	0.0000000E+000	-37.6818	0.0000000E+000	0.0000000E+000	0.0000000E+000	37.6818	1.2947	52.3182	0.000292551	-9.66365e-07	9.59206e-10	-9.67325e-07	0.245014	61998.3	61.539	62059.8