File: txt/19006_R309_UA708_SOC00_C05.mpt
EC-Lab ASCII FILE
Nb header lines : 65

Potentio Electrochemical Impedance Spectroscopy

Run on channel : 5 (SN 65912)
Grouped channel(s) : 2, 3, 4, 5, 6
User :
CE vs. WE compliance from -10 V to 10 V
Electrode connection : standard
Potential control : Ewe
Ewe ctrl range : min = -10.00 V, max = 10.00 V
Safety Limits :
	Do not start on E overload
Acquisition started on : 11/04/2025 16:08:38.802
Loaded Setting File :  C:\Users\Celltest\OneDrive - store-dot.com\Documents\EC-Lab\Data\@Biologic Test Protocols\anode half cell EIS SOC00.mps
Saved on :
	File : 19003_R309_UA708_SOC00_C05.mpr
	Directory : C:\Users\Celltest\OneDrive - store-dot.com\Documents\EC-Lab\Data\Charmaine\
	Host : 169.254.61.224
Device : VMP-3e (SN .003165)
Address : USB
EC-LAB for windows v11.62 (software)
Internet server v27.00 (firmware)
Command interpretor v12.03 (firmware)
Electrode material :
Initial state :
Electrolyte :
Comments :
Electrode surface area : 0.001 cm²
Characteristic mass : 0.001 g
Equivalent Weight : 0.000 g/eq.
Density : 0.000 g/cm3
Volume (V) : 0.001 cm³
Record Ece
Cycle Definition : Charge/Discharge alternance
Mode                Single sine
E (V)               0.0000
vs.                 Eoc
tE (h:m:s)          0:00:0.0000
record              0
dI                  0.000
unit dI             mA
dt (s)              0.000
fi                  100.000
unit fi             kHz
ff                  10.000
unit ff             mHz
Nd                  6
Points              per decade
spacing             Logarithmic
Va (mV)             5.0
pw                  0.10
Na                  2
corr                0
E range min (V)     -10.000
E range max (V)     10.000
I Range             Auto
Bandwidth           5
nc cycles           0
goto Ns'            0
nr cycles           0
inc. cycle          0

freq/Hz	Re(Z)/Ohm	-Im(Z)/Ohm	|Z|/Ohm	Phase(Z)/deg	time/s	<Ewe>/V	<I>/mA	Cs/µF	Cp/µF	cycle number	I Range	|Ewe|/V	|I|/A	Ns	(Q-Qo)/mA.h	<Ece>/V	|Ece|/V	Phase(Zce)/deg	|Zce|/Ohm	Re(Zce)/Ohm	-Im(Zce)/Ohm	Phase(Zwe-ce)/deg	|Zwe-ce|/Ohm	Re(Zwe-ce)/Ohm	-Im(Zwe-ce)/Ohm	Re(Y)/Ohm-1	Im(Y)/Ohm-1	|Y|/Ohm-1	Phase(Y)/deg	Re(C)/nF	Im(C)/nF	|C|/nF	Phase(C)/deg	Re(M)	Im(M)	|M|	Phase(M)/deg	Re(Permittivity)	Im(Permittivity)	|Permittivity|	Phase(Permittivity)/deg	Re(Resistivity)/Ohm.cm	Im(Resistivity)/Ohm.cm	|Resistivity|/Ohm.cm	Phase(Resistivity)/deg	Re(Conductivity)/mS/cm	Im(Conductivity)/mS/cm	|Conductivity|/mS/cm	Phase(Conductivity)/deg	Tan(Delta)	Loss Angle(Delta)/deg	dq/mA.h	Pwe/W	Pce/W	Pwe-ce/W	<Ewe-Ece>/V	Rwe/Ohm	Rce/Ohm	Rwe-ce/Ohm		Ewe-Ece/V
100004	1.57377	0.561232	1.67085	-19.6271	1.72651	0.243032	-0.00188351	2.83571	0.319943	1	9	0.00450587	0.00269676	0	-4.46644e-06	0.000101297	2.9608e-05	94.5571	0.0109791	-0.000872317	-0.0109444	-19.2827	1.66638	1.5729	0.550288	0.563725	0.201034	0.598498	19.6271	319.943	897.163	952.504	-70.3729	0.0000000E+000	0.0000000E+000	0.0000000E+000	70.3729	0.0000000E+000	0.0000000E+000	0.0000000E+000	-70.3729	0.0000000E+000	0.0000000E+000	0.0000000E+000	-19.6271	0.0000000E+000	0.0000000E+000	0.0000000E+000	19.6271	2.80413	70.3729	-4.46644e-06	-4.57754e-07	-1.90793e-10	-4.57563e-07	0.242931	129031	53.7808	128978
68132	1.73726	0.628134	1.84733	-19.8782	2.23354	0.242982	-0.0213972	3.71892	0.429962	1	9	0.00505587	0.00273685	0	-6.17523e-06	-0.000127798	2.61856e-05	78.5356	0.0095678	0.00190169	-0.0093769	-19.5844	1.84596	1.73917	0.618757	0.509068	0.184061	0.541321	19.8782	429.962	1189.17	1264.51	-70.1218	0.0000000E+000	0.0000000E+000	0.0000000E+000	70.1218	0.0000000E+000	0.0000000E+000	0.0000000E+000	-70.1218	0.0000000E+000	0.0000000E+000	0.0000000E+000	-19.8782	0.0000000E+000	0.0000000E+000	0.0000000E+000	19.8782	2.76576	70.1218	-1.70879e-06	-5.19912e-06	2.73451e-09	-5.20186e-06	0.24311	11355.8	5.97266	11361.8
46420.4	1.91827	0.67411	2.03326	-19.3623	2.74251	0.243044	-0.00743224	5.08605	0.559055	1	9	0.00507873	0.00249782	0	-1.34609e-05	-5.1433e-05	1.17267e-05	48.9948	0.00469476	0.00308036	-0.0035429	-19.2395	2.035	1.92135	0.670567	0.464003	0.163058	0.49182	19.3623	559.055	1590.86	1686.23	-70.6377	0.0000000E+000	0.0000000E+000	0.0000000E+000	70.6377	0.0000000E+000	0.0000000E+000	0.0000000E+000	-70.6377	0.0000000E+000	0.0000000E+000	0.0000000E+000	-19.3623	0.0000000E+000	0.0000000E+000	0.0000000E+000	19.3623	2.84563	70.6377	-7.28565e-06	-1.80636e-06	3.82263e-10	-1.80674e-06	0.243095	32701.3	6.92026	32708.2
31621.1	2.09319	0.728148	2.21622	-19.181	3.24956	0.242983	-0.0231475	6.9123	0.746168	1	9	0.00497844	0.00224637	0	-2.163e-05	0.000215844	1.17633e-05	-24.9606	0.00523659	0.00474748	0.00220982	-19.1946	2.22143	2.09793	0.730358	0.42617	0.14825	0.451219	19.181	746.168	2144.99	2271.07	-70.819	0.0000000E+000	0.0000000E+000	0.0000000E+000	70.819	0.0000000E+000	0.0000000E+000	0.0000000E+000	-70.819	0.0000000E+000	0.0000000E+000	0.0000000E+000	-19.181	0.0000000E+000	0.0000000E+000	0.0000000E+000	19.181	2.87467	70.819	-8.16912e-06	-5.62443e-06	-4.99624e-09	-5.61944e-06	0.242767	10497.2	9.32474	10487.8
21544.7	2.29171	0.769081	2.41732	-18.5513	3.51055	0.242978	-0.0307072	9.60524	0.972262	1	9	0.00465528	0.0019258	0	-2.23664e-05	5.8406e-06	1.08012e-05	3.50897	0.00560869	0.00559817	-0.000343279	-18.5015	2.42252	2.29731	0.768738	0.392186	0.131614	0.413681	18.5513	972.262	2897.16	3055.95	-71.4487	0.0000000E+000	0.0000000E+000	0.0000000E+000	71.4487	0.0000000E+000	0.0000000E+000	0.0000000E+000	-71.4487	0.0000000E+000	0.0000000E+000	0.0000000E+000	-18.5513	0.0000000E+000	0.0000000E+000	0.0000000E+000	18.5513	2.97981	71.4487	-7.3642e-07	-7.46116e-06	-1.79348e-10	-7.46099e-06	0.242972	7912.75	0.190203	7912.56
14678.6	2.46402	0.802622	2.59145	-18.0423	3.89355	0.24299	-0.0461617	13.509	1.29587	1	9	0.00491921	0.00189825	0	-2.48305e-05	-1.32506e-05	1.44552e-05	-49.6549	0.00761501	0.00492988	0.00580385	-18.1303	2.59794	2.46895	0.808426	0.36691	0.119516	0.385885	18.0423	1295.87	3978.28	4184.01	-71.9577	0.0000000E+000	0.0000000E+000	0.0000000E+000	71.9577	0.0000000E+000	0.0000000E+000	0.0000000E+000	-71.9577	0.0000000E+000	0.0000000E+000	0.0000000E+000	-18.0423	0.0000000E+000	0.0000000E+000	0.0000000E+000	18.0423	3.06997	71.9577	-2.46412e-06	-1.12168e-05	6.1167e-10	-1.12174e-05	0.243003	5263.89	0.287048	5264.18
10002.2	2.65279	0.842458	2.78335	-17.6185	4.15256	0.242983	-0.0251584	18.8875	1.73037	1	9	0.00458663	0.00164788	0	-2.79378e-05	0.000368574	9.13824e-06	-59.8629	0.00554544	0.0027842	0.00479584	-17.6952	2.78745	2.65557	0.847254	0.342427	0.108746	0.35928	17.6185	1730.37	5448.68	5716.84	-72.3815	0.0000000E+000	0.0000000E+000	0.0000000E+000	72.3815	0.0000000E+000	0.0000000E+000	0.0000000E+000	-72.3815	0.0000000E+000	0.0000000E+000	0.0000000E+000	-17.6185	0.0000000E+000	0.0000000E+000	0.0000000E+000	17.6185	3.14886	72.3815	-3.10722e-06	-6.11306e-06	-9.27273e-09	-6.10379e-06	0.242614	9658.11	14.6501	9643.46
6810.42	2.82356	0.872652	2.95533	-17.1743	4.53554	0.243029	-0.0374848	26.7797	2.33493	1	9	0.00490177	0.00165862	0	-3.26674e-05	6.31142e-05	9.34588e-05	-57.0101	0.0563475	0.0306807	0.0472623	-17.864	2.99882	2.85424	0.919914	0.323283	0.0999143	0.338371	17.1743	2334.93	7554.91	7907.51	-72.8257	0.0000000E+000	0.0000000E+000	0.0000000E+000	72.8257	0.0000000E+000	0.0000000E+000	0.0000000E+000	-72.8257	0.0000000E+000	0.0000000E+000	0.0000000E+000	-17.1743	0.0000000E+000	0.0000000E+000	0.0000000E+000	17.1743	3.23561	72.8257	-4.72963e-06	-9.10989e-06	-2.36582e-09	-9.10753e-06	0.242966	6483.4	1.68373	6481.72
4646	3.02948	0.996256	3.18909	-18.2037	4.80262	0.242935	-0.055844	34.385	3.35567	1	9	0.00488408	0.0015315	0	-3.72778e-05	0.00015857	7.92838e-06	-96.3086	0.00517689	-0.000568857	0.00514554	-18.2946	3.19016	3.02891	1.0014	0.297876	0.0979577	0.313569	18.2037	3355.67	10204.1	10741.7	-71.7963	0.0000000E+000	0.0000000E+000	0.0000000E+000	71.7963	0.0000000E+000	0.0000000E+000	0.0000000E+000	-71.7963	0.0000000E+000	0.0000000E+000	0.0000000E+000	-18.2037	0.0000000E+000	0.0000000E+000	0.0000000E+000	18.2037	3.04086	71.7963	-4.61043e-06	-1.35665e-05	-8.8552e-09	-1.35576e-05	0.242777	4350.25	2.83952	4347.41
3163.08	3.25992	1.11904	3.44664	-18.9458	5.17561	0.242821	-0.0475395	44.9641	4.73982	1	9	0.00482573	0.00140012	0	-4.16132e-05	5.8406e-06	1.13631e-05	-127.184	0.00811575	-0.00490501	0.00646578	-19.0741	3.44411	3.25502	1.1255	0.27442	0.0942002	0.290138	18.9458	4739.82	13807.8	14598.7	-71.0542	0.0000000E+000	0.0000000E+000	0.0000000E+000	71.0542	0.0000000E+000	0.0000000E+000	0.0000000E+000	-71.0542	0.0000000E+000	0.0000000E+000	0.0000000E+000	-18.9458	0.0000000E+000	0.0000000E+000	0.0000000E+000	18.9458	2.91315	71.0542	-4.33535e-06	-1.15436e-05	-2.7766e-10	-1.15433e-05	0.242815	5107.76	0.122858	5107.64
2155.69	3.47066	1.25641	3.69107	-19.9008	5.87283	0.242945	-0.0218437	58.7627	6.80865	1	10	0.00491929	0.00133275	0	-4.26313e-05	-5.1433e-05	1.20568e-05	64.186	0.00904655	0.00393932	-0.00814382	-19.7611	3.69202	3.47459	1.24827	0.254745	0.0922204	0.270924	19.9008	6808.65	18807.9	20002.4	-70.0992	0.0000000E+000	0.0000000E+000	0.0000000E+000	70.0992	0.0000000E+000	0.0000000E+000	0.0000000E+000	-70.0992	0.0000000E+000	0.0000000E+000	0.0000000E+000	-19.9008	0.0000000E+000	0.0000000E+000	0.0000000E+000	19.9008	2.76235	70.0992	-1.01808e-06	-5.3068e-06	1.12349e-09	-5.30793e-06	0.242996	11122	2.3546	11124.3
1468.59	3.72865	1.44633	3.99934	-21.2011	6.3241	0.242954	-0.0192335	74.9292	9.79966	1	10	0.00486829	0.00121727	0	-4.40665e-05	0.000234935	2.19483e-05	-18.6582	0.0180307	0.0170831	0.00576841	-21.1897	4.01736	3.74574	1.4521	0.233117	0.0904256	0.250041	21.2011	9799.66	25263.6	27097.6	-68.7989	0.0000000E+000	0.0000000E+000	0.0000000E+000	68.7989	0.0000000E+000	0.0000000E+000	0.0000000E+000	-68.7989	0.0000000E+000	0.0000000E+000	0.0000000E+000	-21.2011	0.0000000E+000	0.0000000E+000	0.0000000E+000	21.2011	2.578	68.7989	-1.43525e-06	-4.67287e-06	-4.51863e-09	-4.66835e-06	0.242719	12631.8	12.2149	12619.6
1000.32	4.03422	1.70358	4.37917	-22.8934	6.77485	0.24294	-0.0213745	93.3939	14.1338	1	10	0.004841	0.00110546	0	-4.69677e-05	0.000254026	7.89821e-06	-47.2049	0.00714472	0.00485397	0.00524271	-22.9319	4.38568	4.03908	1.70882	0.210366	0.0888338	0.228354	22.8934	14133.8	33470.1	36332	-67.1066	0.0000000E+000	0.0000000E+000	0.0000000E+000	67.1066	0.0000000E+000	0.0000000E+000	0.0000000E+000	-67.1066	0.0000000E+000	0.0000000E+000	0.0000000E+000	-22.8934	0.0000000E+000	0.0000000E+000	0.0000000E+000	22.8934	2.36809	67.1066	-2.90119e-06	-5.19272e-06	-5.42969e-09	-5.18729e-06	0.242686	11365.9	11.8846	11354
681.09	4.40739	2.01797	4.8474	-24.6012	7.22451	0.242943	-0.0216426	115.798	20.0684	1	10	0.004824	0.000995172	0	-4.8738e-05	0.000101297	4.43662e-06	27.5663	0.00445814	0.00395203	-0.00206312	-24.5596	4.85014	4.41134	2.01591	0.18757	0.0858811	0.206296	24.6012	20068.4	43830.8	48206.6	-65.3988	0.0000000E+000	0.0000000E+000	0.0000000E+000	65.3988	0.0000000E+000	0.0000000E+000	0.0000000E+000	-65.3988	0.0000000E+000	0.0000000E+000	0.0000000E+000	-24.6012	0.0000000E+000	0.0000000E+000	0.0000000E+000	24.6012	2.18407	65.3988	-1.77033e-06	-5.25791e-06	-2.19232e-09	-5.25572e-06	0.242841	11225.2	4.68043	11220.5
463.961	4.85064	2.42135	5.4214	-26.5275	7.67631	0.242933	-0.0215309	141.671	28.26	1	10	0.00479913	0.000885219	0	-5.10673e-05	-0.000146889	8.77697e-06	-65.5255	0.00991502	0.00410768	0.00902412	-26.5934	5.42911	4.85474	2.43037	0.165035	0.0823823	0.184454	26.5275	28260	56612.8	63274.3	-63.4725	0.0000000E+000	0.0000000E+000	0.0000000E+000	63.4725	0.0000000E+000	0.0000000E+000	0.0000000E+000	-63.4725	0.0000000E+000	0.0000000E+000	0.0000000E+000	-26.5275	0.0000000E+000	0.0000000E+000	0.0000000E+000	26.5275	2.00328	63.4725	-2.32924e-06	-5.23057e-06	3.16265e-09	-5.23373e-06	0.24308	11283	6.82225	11289.8
316.316	5.44148	2.91209	6.17171	-28.1542	8.12409	0.242949	-0.0196878	172.78	38.4675	1	10	0.00478475	0.000775271	0	-5.37503e-05	-0.000242345	4.67358e-06	63.674	0.00602832	0.00267343	-0.00540309	-28.0982	6.17152	5.44415	2.90669	0.142859	0.076453	0.16203	28.1542	38467.5	71879.5	81525.5	-61.8458	0.0000000E+000	0.0000000E+000	0.0000000E+000	61.8458	0.0000000E+000	0.0000000E+000	0.0000000E+000	-61.8458	0.0000000E+000	0.0000000E+000	0.0000000E+000	-28.1542	0.0000000E+000	0.0000000E+000	0.0000000E+000	28.1542	1.86858	61.8458	-2.68305e-06	-4.78314e-06	4.77125e-09	-4.78791e-06	0.243192	12340.1	12.3094	12352.4
215.345	6.23569	3.44842	7.12569	-28.9432	8.57353	0.242933	-0.0194942	214.321	50.1942	1	10	0.00477498	0.000670108	0	-5.68371e-05	6.31142e-05	9.57912e-06	-80.5015	0.0142949	0.00235897	0.0140989	-29.0331	7.13458	6.23805	3.46252	0.122809	0.0679152	0.140337	28.9432	50194.2	90764.7	103719	-61.0568	0.0000000E+000	0.0000000E+000	0.0000000E+000	61.0568	0.0000000E+000	0.0000000E+000	0.0000000E+000	-61.0568	0.0000000E+000	0.0000000E+000	0.0000000E+000	-28.9432	0.0000000E+000	0.0000000E+000	0.0000000E+000	28.9432	1.80827	61.0568	-3.08676e-06	-4.73578e-06	-1.23036e-09	-4.73455e-06	0.24287	12461.8	3.23759	12458.6
146.737	7.26845	3.95696	8.27574	-28.5639	9.0195	0.242935	-0.0216947	274.106	62.6653	1	10	0.00476098	0.000575293	0	-6.03429e-05	-0.00016598	7.78026e-06	108.716	0.013524	-0.00433947	-0.0128089	-28.5004	8.26581	7.26411	3.94415	0.106128	0.057776	0.120835	28.5639	62665.3	115109	131061	-61.4361	0.0000000E+000	0.0000000E+000	0.0000000E+000	61.4361	0.0000000E+000	0.0000000E+000	0.0000000E+000	-61.4361	0.0000000E+000	0.0000000E+000	0.0000000E+000	-28.5639	0.0000000E+000	0.0000000E+000	0.0000000E+000	28.5639	1.83688	61.4361	-3.50582e-06	-5.27042e-06	3.6009e-09	-5.27402e-06	0.243101	11197.9	7.65072	11205.5
100.032	8.52401	4.27782	9.53722	-26.65	9.47077	0.24294	-0.021058	371.927	74.8273	1	10	0.00476361	0.000499476	0	-6.21583e-05	0.000387665	4.77597e-06	69.356	0.00956197	0.00337118	-0.00894799	-26.5929	9.53623	8.52739	4.26888	0.0937131	0.0470304	0.104852	26.65	74827.3	149101	166824	-63.35	0.0000000E+000	0.0000000E+000	0.0000000E+000	63.35	0.0000000E+000	0.0000000E+000	0.0000000E+000	-63.35	0.0000000E+000	0.0000000E+000	0.0000000E+000	-26.65	0.0000000E+000	0.0000000E+000	0.0000000E+000	26.65	1.99261	63.35	-1.81539e-06	-5.11583e-06	-8.16346e-09	-5.10767e-06	0.242552	11536.7	18.4094	11518.3
68.104	9.90982	4.34484	10.8205	-23.6745	9.93342	0.242946	-0.0183548	537.865	86.7223	1	10	0.00476202	0.000440094	0	-6.40418e-05	-0.000433257	7.39735e-06	-14.9002	0.0168086	0.0162434	0.00432209	-23.6609	10.8371	9.92607	4.34917	0.0846398	0.0371093	0.0924176	23.6745	86722.3	197798	215974	-66.3255	0.0000000E+000	0.0000000E+000	0.0000000E+000	66.3255	0.0000000E+000	0.0000000E+000	0.0000000E+000	-66.3255	0.0000000E+000	0.0000000E+000	0.0000000E+000	-23.6745	0.0000000E+000	0.0000000E+000	0.0000000E+000	23.6745	2.28082	66.3255	-1.8835e-06	-4.45923e-06	7.95237e-09	-4.46718e-06	0.243379	13236	23.6045	13259.6
46.4415	11.2474	4.12057	11.9784	-20.1207	10.3696	0.242938	-0.023899	831.68	98.4169	1	10	0.00476241	0.000397582	0	-6.70364e-05	0.000215844	5.17953e-06	80.9537	0.0130276	0.00204836	-0.0128655	-20.0595	11.9759	11.2494	4.1077	0.0783883	0.0287181	0.0834833	20.1207	98416.9	268636	286097	-69.8793	0.0000000E+000	0.0000000E+000	0.0000000E+000	69.8793	0.0000000E+000	0.0000000E+000	0.0000000E+000	-69.8793	0.0000000E+000	0.0000000E+000	0.0000000E+000	-20.1207	0.0000000E+000	0.0000000E+000	0.0000000E+000	20.1207	2.72958	69.8793	-2.99461e-06	-5.80598e-06	-5.15846e-09	-5.80082e-06	0.242722	10165.2	9.03151	10156.2
31.6296	12.3737	3.6355	12.8967	-16.3732	10.7986	0.242919	-0.0263862	1384.09	109.984	1	10	0.00475802	0.000368932	0	-6.97189e-05	0.000196753	6.7529e-06	-45.3654	0.0183039	0.01286	0.0130251	-16.4126	12.9128	12.3866	3.64852	0.0743945	0.0218577	0.077539	16.3732	109984	374341	390164	-73.6268	0.0000000E+000	0.0000000E+000	0.0000000E+000	73.6268	0.0000000E+000	0.0000000E+000	0.0000000E+000	-73.6268	0.0000000E+000	0.0000000E+000	0.0000000E+000	-16.3732	0.0000000E+000	0.0000000E+000	0.0000000E+000	16.3732	3.40358	73.6268	-2.68253e-06	-6.40972e-06	-5.19157e-09	-6.40453e-06	0.242722	9206.28	7.45664	9198.82
21.5517	13.288	3.1453	13.6552	-13.317	11.2205	0.242922	-0.0273916	2347.88	124.568	1	10	0.0047624	0.000348762	0	-7.26234e-05	0.000101297	6.90431e-06	23.6828	0.0197966	0.0181294	-0.00795177	-13.267	13.671	13.3061	3.13735	0.0712632	0.0168682	0.0732324	13.317	124568	526264	540806	-76.683	0.0000000E+000	0.0000000E+000	0.0000000E+000	76.683	0.0000000E+000	0.0000000E+000	0.0000000E+000	-76.683	0.0000000E+000	0.0000000E+000	0.0000000E+000	-13.317	0.0000000E+000	0.0000000E+000	0.0000000E+000	13.317	4.22471	76.683	-2.90447e-06	-6.65401e-06	-2.77467e-09	-6.65124e-06	0.242821	8868.49	3.6981	8864.8
14.6852	13.9828	2.61063	14.2244	-10.5756	11.9301	0.242976	-0.0114405	4151.41	139.836	1	11	0.00475992	0.000334631	0	-7.22383e-05	-0.000146889	8.02393e-06	-56.8421	0.0239785	0.013115	0.020074	-10.6453	14.241	13.9959	2.63071	0.0691075	0.0129026	0.0703017	10.5756	139836	748975	761917	-79.4244	0.0000000E+000	0.0000000E+000	0.0000000E+000	79.4244	0.0000000E+000	0.0000000E+000	0.0000000E+000	-79.4244	0.0000000E+000	0.0000000E+000	0.0000000E+000	-10.5756	0.0000000E+000	0.0000000E+000	0.0000000E+000	10.5756	5.35609	79.4244	3.85094e-07	-2.77976e-06	1.68048e-09	-2.78144e-06	0.243123	21238.3	12.8394	21251.1
10.0032	14.452	2.12471	14.6074	-8.3636	12.3808	0.242984	-0.0113243	7488.28	158.429	1	11	0.00474702	0.000324974	0	-7.539e-05	8.22055e-05	9.8377e-06	28.929	0.0302722	0.0264949	-0.0146434	-8.29177	14.6315	14.4785	2.11007	0.0677305	0.0099576	0.0684586	8.3636	158429	1.07762e+06	1.0892e+06	-81.6364	0.0000000E+000	0.0000000E+000	0.0000000E+000	81.6364	0.0000000E+000	0.0000000E+000	0.0000000E+000	-81.6364	0.0000000E+000	0.0000000E+000	0.0000000E+000	-8.3636	0.0000000E+000	0.0000000E+000	0.0000000E+000	8.3636	6.80189	81.6364	-3.15166e-06	-2.75163e-06	-9.30921e-10	-2.7507e-06	0.242902	21456.8	7.25919	21449.6
6.81719	14.8671	1.77318	14.9725	-6.80148	12.7205	0.242972	-0.0118307	13166.2	184.664	1	11	0.00475285	0.00031744	0	-7.58221e-05	4.4023e-05	5.64737e-06	-81.9683	0.0177904	0.0024857	0.0176159	-6.86727	14.977	14.8696	1.7908	0.0663193	0.00790983	0.0667893	6.80148	184664	1.5483e+06	1.55927e+06	-83.1985	0.0000000E+000	0.0000000E+000	0.0000000E+000	83.1985	0.0000000E+000	0.0000000E+000	0.0000000E+000	-83.1985	0.0000000E+000	0.0000000E+000	0.0000000E+000	-6.80148	0.0000000E+000	0.0000000E+000	0.0000000E+000	6.80148	8.38441	83.1985	-4.32097e-07	-2.87452e-06	-5.20822e-10	-2.874e-06	0.242928	20537.4	3.72109	20533.7
4.63925	15.1129	1.46158	15.1834	-5.52396	13.2054	0.242989	-0.0103291	23471.9	217.499	1	11	0.00473709	0.000311991	0	-7.41323e-05	-3.23418e-05	2.39252e-05	17.4679	0.0766855	0.0731492	-0.0230187	-5.41145	15.254	15.186	1.43857	0.0655555	0.00633994	0.0658614	5.52396	217499	2.24896e+06	2.25945e+06	-84.476	0.0000000E+000	0.0000000E+000	0.0000000E+000	84.476	0.0000000E+000	0.0000000E+000	0.0000000E+000	-84.476	0.0000000E+000	0.0000000E+000	0.0000000E+000	-5.52396	0.0000000E+000	0.0000000E+000	0.0000000E+000	5.52396	10.3401	84.476	1.6898e-06	-2.50986e-06	3.34062e-10	-2.5102e-06	0.243022	23524.7	3.13113	23527.8
3.1604	15.4107	1.25892	15.4621	-4.67018	13.8985	0.242978	-0.00940744	40001.9	265.18	1	11	0.00475835	0.000307743	0	-7.75787e-05	4.4023e-05	3.9085e-06	-60.0536	0.0127005	0.00633996	0.0110049	-4.7089	15.4693	15.4171	1.26992	0.0644597	0.00526578	0.0646744	4.67018	265180	3.24613e+06	3.25695e+06	-85.3298	0.0000000E+000	0.0000000E+000	0.0000000E+000	85.3298	0.0000000E+000	0.0000000E+000	0.0000000E+000	-85.3298	0.0000000E+000	0.0000000E+000	0.0000000E+000	-4.67018	0.0000000E+000	0.0000000E+000	0.0000000E+000	4.67018	12.2412	85.3298	-3.44648e-06	-2.2858e-06	-4.14144e-10	-2.28539e-06	0.242934	25828.3	4.6796	25823.6
2.15577	15.6142	1.07208	15.651	-3.92777	14.902	0.242985	-0.00871027	68864.1	323.117	1	11	0.00476176	0.000304246	0	-8.54089e-05	2.49318e-05	2.2654e-06	40.7268	0.00744595	0.00564276	-0.00485813	-3.90862	15.6563	15.6199	1.06722	0.0637436	0.00437664	0.0638937	3.92777	323117	4.70603e+06	4.71711e+06	-86.0722	0.0000000E+000	0.0000000E+000	0.0000000E+000	86.0722	0.0000000E+000	0.0000000E+000	0.0000000E+000	-86.0722	0.0000000E+000	0.0000000E+000	0.0000000E+000	-3.92777	0.0000000E+000	0.0000000E+000	0.0000000E+000	3.92777	14.5645	86.0722	-7.83018e-06	-2.11647e-06	-2.17163e-10	-2.11625e-06	0.24296	27896.4	2.86235	27893.6
1.46631	15.7799	0.973083	15.8098	-3.52874	16.3633	0.242995	-0.00839124	111544	422.561	1	11	0.00475918	0.000301027	0	-9.28492e-05	0.000139479	4.58239e-06	-13.0628	0.0152225	0.0148286	0.00344059	-3.53787	15.8249	15.7947	0.976524	0.0631318	0.00389309	0.0632517	3.52874	422561	6.8524e+06	6.86541e+06	-86.4713	0.0000000E+000	0.0000000E+000	0.0000000E+000	86.4713	0.0000000E+000	0.0000000E+000	0.0000000E+000	-86.4713	0.0000000E+000	0.0000000E+000	0.0000000E+000	-3.52874	0.0000000E+000	0.0000000E+000	0.0000000E+000	3.52874	16.2164	86.4713	-7.44027e-06	-2.03903e-06	-1.1704e-09	-2.03786e-06	0.242856	28958.2	16.622	28941.6
1.00006	15.9203	0.938508	15.948	-3.3737	18.4908	0.242985	-0.00926646	169572	587.245	1	11	0.00476065	0.000298511	0	-9.56489e-05	0.000234935	1.80087e-06	-16.9282	0.00603286	0.00577145	0.00175661	-3.37877	15.9538	15.9261	0.940265	0.0625952	0.00369	0.0627039	3.3737	587244	9.9617e+06	9.97899e+06	-86.6263	0.0000000E+000	0.0000000E+000	0.0000000E+000	86.6263	0.0000000E+000	0.0000000E+000	0.0000000E+000	-86.6263	0.0000000E+000	0.0000000E+000	0.0000000E+000	-3.3737	0.0000000E+000	0.0000000E+000	0.0000000E+000	3.3737	16.9635	86.6263	-2.79977e-06	-2.25161e-06	-2.17702e-09	-2.24943e-06	0.24275	26222	25.3533	26196.6
0.681362	16.0295	0.964272	16.0585	-3.44255	23.1167	0.242985	-0.00845463	242238	873.443	1	12	0.00475907	0.000296359	0	-9.53271e-05	0.000101297	3.38232e-06	29.9701	0.0114129	0.00988683	-0.00570129	-3.42014	16.068	16.0394	0.958571	0.0621601	0.00373932	0.0622725	3.44255	873443	1.45196e+07	1.45458e+07	-86.5574	0.0000000E+000	0.0000000E+000	0.0000000E+000	86.5574	0.0000000E+000	0.0000000E+000	0.0000000E+000	-86.5574	0.0000000E+000	0.0000000E+000	0.0000000E+000	-3.44255	0.0000000E+000	0.0000000E+000	0.0000000E+000	3.44255	16.6234	86.5574	3.21863e-07	-2.05435e-06	-8.56426e-10	-2.05349e-06	0.242884	28739.8	11.9812	28727.9
0.464091	16.1501	1.05754	16.1847	-3.74648	27.6712	0.242991	-0.00640012	324282	1384.54	1	12	0.00475858	0.000294017	0	-8.67247e-05	-0.000261436	4.15065e-06	-51.6138	0.014117	0.0087661	0.0110655	-3.78352	16.1942	16.1589	1.0686	0.0616548	0.00403726	0.0617868	3.74648	1.38453e+06	2.11439e+07	2.11891e+07	-86.2535	0.0000000E+000	0.0000000E+000	0.0000000E+000	86.2535	0.0000000E+000	0.0000000E+000	0.0000000E+000	-86.2535	0.0000000E+000	0.0000000E+000	0.0000000E+000	-3.74648	0.0000000E+000	0.0000000E+000	0.0000000E+000	3.74648	15.2714	86.2535	8.60238e-06	-1.55517e-06	1.67322e-09	-1.55684e-06	0.243252	37966.6	40.8487	38007.4
0.316193	16.2922	1.24223	16.3395	-4.36018	34.3472	0.242982	-0.00440556	405198	2342.03	1	12	0.00475879	0.000291245	0	-8.38405e-05	0.000120388	2.18364e-06	-17.6197	0.00749762	0.00714588	0.00226951	-4.36621	16.3468	16.2993	1.24449	0.0610244	0.00465291	0.0612015	4.36018	2.34203e+06	3.07164e+07	3.08056e+07	-85.6398	0.0000000E+000	0.0000000E+000	0.0000000E+000	85.6398	0.0000000E+000	0.0000000E+000	0.0000000E+000	-85.6398	0.0000000E+000	0.0000000E+000	0.0000000E+000	-4.36018	0.0000000E+000	0.0000000E+000	0.0000000E+000	4.36018	13.1153	85.6398	2.88422e-06	-1.07047e-06	-5.30376e-10	-1.06994e-06	0.242862	55153.6	27.3264	55126.3
0.215268	16.4494	1.58861	16.5259	-5.51628	44.1407	0.242978	-0.00216907	465397	4300.59	1	12	0.00476075	0.000288078	0	-0.000100617	0.000101297	1.80754e-06	-59.2237	0.00627449	0.00321058	0.00539087	-5.53381	16.5296	16.4526	1.594	0.0602309	0.00581684	0.0605111	5.51628	4.30059e+06	4.45308e+07	4.4738e+07	-84.4837	0.0000000E+000	0.0000000E+000	0.0000000E+000	84.4837	0.0000000E+000	0.0000000E+000	0.0000000E+000	-84.4837	0.0000000E+000	0.0000000E+000	0.0000000E+000	-5.51628	0.0000000E+000	0.0000000E+000	0.0000000E+000	5.51628	10.3546	84.4837	-1.6776e-05	-5.27037e-07	-2.1972e-10	-5.26817e-07	0.242877	112019	46.7004	111972
0.146929	16.6121	2.06017	16.7394	-7.0695	58.478	0.242977	-0.00198684	525787	7964.11	1	12	0.00475863	0.000284277	0	-0.000152038	0.000101297	1.42935e-06	16.6774	0.00502803	0.00481653	-0.00144296	-7.06258	16.744	16.6169	2.05873	0.0592852	0.00735231	0.0597393	7.0695	7.96411e+06	6.42184e+07	6.47103e+07	-82.9305	0.0000000E+000	0.0000000E+000	0.0000000E+000	82.9305	0.0000000E+000	0.0000000E+000	0.0000000E+000	-82.9305	0.0000000E+000	0.0000000E+000	0.0000000E+000	-7.0695	0.0000000E+000	0.0000000E+000	0.0000000E+000	7.0695	8.06347	82.9305	-5.14217e-05	-4.82758e-07	-2.0126e-10	-4.82556e-07	0.242876	122293	50.9838	122242
0.0999041	16.8638	2.68834	17.0767	-9.05758	79.5552	0.242984	-0.00253789	592588	14686.3	1	12	0.00476134	0.00027882	0	-0.000245037	8.22055e-05	2.66501e-06	19.8346	0.00955818	0.00899115	-0.00324315	-9.04209	17.0851	16.8728	2.68509	0.057829	0.0092188	0.0585592	9.05758	1.46863e+07	9.21261e+07	9.32894e+07	-80.9424	0.0000000E+000	0.0000000E+000	0.0000000E+000	80.9424	0.0000000E+000	0.0000000E+000	0.0000000E+000	-80.9424	0.0000000E+000	0.0000000E+000	0.0000000E+000	-9.05758	0.0000000E+000	0.0000000E+000	0.0000000E+000	9.05758	6.27294	80.9424	-9.29987e-05	-6.16669e-07	-2.08629e-10	-6.1646e-07	0.242902	95742.5	32.3912	95710.1
0.0680626	17.2581	3.58724	17.6269	-11.7422	110.482	0.242982	-0.00334125	651855	26997.2	1	12	0.00476054	0.000270072	0	-0.000360292	6.31142e-05	2.29483e-06	-21.9808	0.00849712	0.00787946	0.00318043	-11.7471	17.6353	17.2659	3.59042	0.0555441	0.0115453	0.0567314	11.7422	2.69972e+07	1.29882e+08	1.32658e+08	-78.2578	0.0000000E+000	0.0000000E+000	0.0000000E+000	78.2578	0.0000000E+000	0.0000000E+000	0.0000000E+000	-78.2578	0.0000000E+000	0.0000000E+000	0.0000000E+000	-11.7422	0.0000000E+000	0.0000000E+000	0.0000000E+000	11.7422	4.81096	78.2578	-0.000115255	-8.11864e-07	-2.10881e-10	-8.11653e-07	0.242919	72721.8	18.8894	72702.9
0.0464052	17.8125	4.91747	18.4788	-15.4332	155.834	0.242985	-0.00427354	697448	49391.1	1	12	0.00475976	0.00025758	0	-0.000449835	-8.96155e-05	2.04167e-06	18.914	0.00792637	0.00749839	-0.00256932	-15.4193	18.4853	17.82	4.9149	0.0521648	0.0144011	0.0541161	15.4332	4.93911e+07	1.78908e+08	1.85601e+08	-74.5668	0.0000000E+000	0.0000000E+000	0.0000000E+000	74.5668	0.0000000E+000	0.0000000E+000	0.0000000E+000	-74.5668	0.0000000E+000	0.0000000E+000	0.0000000E+000	-15.4332	0.0000000E+000	0.0000000E+000	0.0000000E+000	15.4332	3.62228	74.5668	-8.95432e-05	-1.0384e-06	3.82975e-10	-1.03879e-06	0.243074	56857.9	20.9698	56878.9
0.0315922	18.3294	6.71404	19.5204	-20.1177	222.438	0.24298	-0.00384441	750337	88766.3	1	12	0.00475857	0.000243775	0	-0.000409579	-0.000280528	2.24031e-06	12.0345	0.00919007	0.00898809	-0.00191613	-20.1034	19.5281	18.3384	6.71213	0.048103	0.0176201	0.0512285	20.1177	8.87663e+07	2.42333e+08	2.58079e+08	-69.8822	0.0000000E+000	0.0000000E+000	0.0000000E+000	69.8822	0.0000000E+000	0.0000000E+000	0.0000000E+000	-69.8822	0.0000000E+000	0.0000000E+000	0.0000000E+000	-20.1177	0.0000000E+000	0.0000000E+000	0.0000000E+000	20.1177	2.73001	69.8822	4.02568e-05	-9.34114e-07	1.07846e-09	-9.35192e-07	0.24326	63203.5	72.9703	63276.5
0.0215268	19.1536	8.92974	21.1329	-24.9958	320.177	0.242977	-0.00318495	827946	147829	1	12	0.00476199	0.000225335	0	-0.000195111	0.000234935	1.98016e-06	7.45366	0.0087876	0.00871335	-0.00113996	-24.983	21.1403	19.1623	8.9286	0.0428875	0.0199949	0.0473195	24.9958	1.47829e+08	3.17082e+08	3.4985e+08	-65.0042	0.0000000E+000	0.0000000E+000	0.0000000E+000	65.0042	0.0000000E+000	0.0000000E+000	0.0000000E+000	-65.0042	0.0000000E+000	0.0000000E+000	0.0000000E+000	-24.9958	0.0000000E+000	0.0000000E+000	0.0000000E+000	24.9958	2.14492	65.0042	0.000214468	-7.7387e-07	-7.48258e-10	-7.73122e-07	0.242742	76289	73.7641	76215.2
0.0146812	20.6766	11.9988	23.9059	-30.1269	463.478	0.242976	-0.00261612	903487	227607	1	12	0.00476055	0.000199137	0	7.0991e-05	2.49318e-05	3.27627e-06	-2.59132	0.0164524	0.0164356	0.000743839	-30.1087	23.9205	20.693	11.9995	0.03618	0.0209955	0.0418306	30.1269	2.27607e+08	3.92218e+08	4.53475e+08	-59.8731	0.0000000E+000	0.0000000E+000	0.0000000E+000	59.8731	0.0000000E+000	0.0000000E+000	0.0000000E+000	-59.8731	0.0000000E+000	0.0000000E+000	0.0000000E+000	-30.1269	0.0000000E+000	0.0000000E+000	0.0000000E+000	30.1269	1.72322	59.8731	0.000266102	-6.35653e-07	-6.52245e-11	-6.35588e-07	0.242951	92876.6	9.53009	92867
0.0100092	22.6967	16.3457	27.97	-35.7606	673.66	0.24298	-0.00239744	972790	332230	1	12	0.00475905	0.000170148	0	9.54131e-05	0.000406756	2.75554e-06	14.934	0.0161949	0.0156479	-0.00417354	-35.7349	27.9803	22.7124	16.3415	0.029012	0.0208938	0.0357526	35.7606	3.3223e+08	4.61317e+08	5.68498e+08	-54.2394	0.0000000E+000	0.0000000E+000	0.0000000E+000	54.2394	0.0000000E+000	0.0000000E+000	0.0000000E+000	-54.2394	0.0000000E+000	0.0000000E+000	0.0000000E+000	-35.7606	0.0000000E+000	0.0000000E+000	0.0000000E+000	35.7606	1.38855	54.2394	2.44221e-05	-5.82529e-07	-9.75174e-10	-5.81554e-07	0.242573	101350	169.663	101180