File: txt/19002_R309_UA707_SOC00_C01.mpt
EC-Lab ASCII FILE
Nb header lines : 65

Potentio Electrochemical Impedance Spectroscopy

Run on channel : 1 (SN 66354)
User :
CE vs. WE compliance from -10 V to 10 V
Electrode connection : standard
Potential control : Ewe
Ewe ctrl range : min = -10.00 V, max = 10.00 V
Safety Limits :
	Do not start on E overload
Acquisition started on : 11/04/2025 16:08:08.928
Technique started on : 11/04/2025 16:08:10.840
Loaded Setting File :  C:\Users\Celltest\OneDrive - store-dot.com\Documents\EC-Lab\Data\@Biologic Test Protocols\anode half cell EIS SOC00.mps
Saved on :
	File : 19002_R309_UA707_SOC00_C01.mpr
	Directory : C:\Users\Celltest\OneDrive - store-dot.com\Documents\EC-Lab\Data\Charmaine\
	Host : 169.254.61.224
Device : VMP-3e (SN .003165)
Address : USB
EC-LAB for windows v11.62 (software)
Internet server v27.00 (firmware)
Command interpretor v12.03 (firmware)
Electrode material :
Initial state :
Electrolyte :
Comments :
Electrode surface area : 0.001 cm²
Characteristic mass : 0.001 g
Equivalent Weight : 0.000 g/eq.
Density : 0.000 g/cm3
Volume (V) : 0.001 cm³
Record Ece
Cycle Definition : Charge/Discharge alternance
Mode                Single sine
E (V)               0.0000
vs.                 Eoc
tE (h:m:s)          0:00:0.0000
record              0
dI                  0.000
unit dI             mA
dt (s)              0.000
fi                  100.000
unit fi             kHz
ff                  10.000
unit ff             mHz
Nd                  6
Points              per decade
spacing             Logarithmic
Va (mV)             5.0
pw                  0.10
Na                  2
corr                0
E range min (V)     -10.000
E range max (V)     10.000
I Range             Auto
Bandwidth           5
nc cycles           0
goto Ns'            0
nr cycles           0
inc. cycle          0

freq/Hz	Re(Z)/Ohm	-Im(Z)/Ohm	|Z|/Ohm	Phase(Z)/deg	time/s	<Ewe>/V	<I>/mA	Cs/µF	Cp/µF	cycle number	I Range	|Ewe|/V	|I|/A	Ns	(Q-Qo)/mA.h	<Ece>/V	|Ece|/V	Phase(Zce)/deg	|Zce|/Ohm	Re(Zce)/Ohm	-Im(Zce)/Ohm	Phase(Zwe-ce)/deg	|Zwe-ce|/Ohm	Re(Zwe-ce)/Ohm	-Im(Zwe-ce)/Ohm	Re(Y)/Ohm-1	Im(Y)/Ohm-1	|Y|/Ohm-1	Phase(Y)/deg	Re(C)/nF	Im(C)/nF	|C|/nF	Phase(C)/deg	Re(M)	Im(M)	|M|	Phase(M)/deg	Re(Permittivity)	Im(Permittivity)	|Permittivity|	Phase(Permittivity)/deg	Re(Resistivity)/Ohm.cm	Im(Resistivity)/Ohm.cm	|Resistivity|/Ohm.cm	Phase(Resistivity)/deg	Re(Conductivity)/mS/cm	Im(Conductivity)/mS/cm	|Conductivity|/mS/cm	Phase(Conductivity)/deg	Tan(Delta)	Loss Angle(Delta)/deg	dq/mA.h	Pwe/W	Pce/W	Pwe-ce/W	<Ewe-Ece>/V	Rwe/Ohm	Rce/Ohm	Rwe-ce/Ohm		Ewe-Ece/V
100004	1.3921	0.493831	1.47709	-19.5316	1.91152	0.242419	0.0759943	3.22274	0.36022	1	9	0.00471635	0.003193	0	1.00629e-05	-5.7682e-06	4.06693e-05	98.6299	0.012737	-0.0019112	-0.0125928	-19.0942	1.47112	1.39018	0.481238	0.638049	0.226341	0.677006	19.5316	360.22	1015.45	1077.45	-70.4684	0.0000000E+000	0.0000000E+000	0.0000000E+000	70.4684	0.0000000E+000	0.0000000E+000	0.0000000E+000	-70.4684	0.0000000E+000	0.0000000E+000	0.0000000E+000	-19.5316	0.0000000E+000	0.0000000E+000	0.0000000E+000	19.5316	2.81897	70.4684	1.00629e-05	1.84224e-05	-4.3835e-10	1.84229e-05	0.242424	3189.96	0.075903	3190.03
68132	1.53031	0.54279	1.62372	-19.5293	2.41856	0.24243	0.0869471	4.30365	0.480927	1	9	0.00504719	0.00310842	0	3.5379e-05	-6.30001e-05	2.85289e-05	84.2101	0.00917795	0.000925885	-0.00913113	-19.2143	1.62156	1.53123	0.533659	0.58044	0.205878	0.615871	19.5293	480.927	1355.9	1438.66	-70.4707	0.0000000E+000	0.0000000E+000	0.0000000E+000	70.4707	0.0000000E+000	0.0000000E+000	0.0000000E+000	-70.4707	0.0000000E+000	0.0000000E+000	0.0000000E+000	-19.5293	0.0000000E+000	0.0000000E+000	0.0000000E+000	19.5293	2.81934	70.4707	2.53161e-05	2.10786e-05	-5.47768e-09	2.10841e-05	0.242493	2788.25	0.72458	2788.97
46420.4	1.68372	0.579891	1.78078	-19.0043	2.92555	0.24242	0.0880274	5.91242	0.626958	1	9	0.00506546	0.00284452	0	3.65213e-05	-8.20774e-05	1.97988e-05	58.284	0.00696032	0.00365911	-0.0059209	-18.786	1.78232	1.68737	0.57397	0.530944	0.182863	0.561552	19.0043	626.958	1820.37	1925.32	-70.9957	0.0000000E+000	0.0000000E+000	0.0000000E+000	70.9957	0.0000000E+000	0.0000000E+000	0.0000000E+000	-70.9957	0.0000000E+000	0.0000000E+000	0.0000000E+000	-19.0043	0.0000000E+000	0.0000000E+000	0.0000000E+000	19.0043	2.9035	70.9957	1.14222e-06	2.13396e-05	-7.22507e-09	2.13468e-05	0.242502	2753.91	0.932407	2754.84
31621.1	1.82703	0.633008	1.93358	-19.1096	3.43452	0.242423	0.0766276	7.95121	0.852175	1	9	0.00508107	0.0026278	0	4.7339e-05	0.000471164	1.17067e-05	41.1878	0.00445493	0.00335258	-0.0029337	-18.9951	1.93579	1.83038	0.630074	0.488676	0.169311	0.517176	19.1096	852.174	2459.6	2603.04	-70.8904	0.0000000E+000	0.0000000E+000	0.0000000E+000	70.8904	0.0000000E+000	0.0000000E+000	0.0000000E+000	-70.8904	0.0000000E+000	0.0000000E+000	0.0000000E+000	-19.1096	0.0000000E+000	0.0000000E+000	0.0000000E+000	19.1096	2.88626	70.8904	1.08178e-05	1.85763e-05	3.61042e-08	1.85402e-05	0.241952	3163.65	6.14876	3157.5
21544.7	1.98362	0.670343	2.09383	-18.6721	3.69353	0.242415	0.0680218	11.02	1.12952	1	9	0.00469187	0.00224081	0	5.09518e-05	0.00014685	1.27271e-05	-69.8674	0.00567967	0.00195491	0.00533264	-18.793	2.09739	1.98558	0.675675	0.452456	0.152902	0.477594	18.6721	1129.52	3342.39	3528.08	-71.3279	0.0000000E+000	0.0000000E+000	0.0000000E+000	71.3279	0.0000000E+000	0.0000000E+000	0.0000000E+000	-71.3279	0.0000000E+000	0.0000000E+000	0.0000000E+000	-18.6721	0.0000000E+000	0.0000000E+000	0.0000000E+000	18.6721	2.95912	71.3279	3.61279e-06	1.64895e-05	9.98903e-09	1.64795e-05	0.242268	3563.78	2.15887	3561.62
14678.6	2.14212	0.729132	2.26281	-18.7975	4.07654	0.24241	0.0851216	14.8706	1.54399	1	9	0.00478425	0.0021143	0	6.34567e-05	0.000299469	1.11834e-05	-60.0805	0.00528942	0.00263827	0.00458448	-18.8857	2.26679	2.14476	0.733716	0.418357	0.1424	0.441928	18.7975	1543.99	4536.1	4791.68	-71.2025	0.0000000E+000	0.0000000E+000	0.0000000E+000	71.2025	0.0000000E+000	0.0000000E+000	0.0000000E+000	-71.2025	0.0000000E+000	0.0000000E+000	0.0000000E+000	-18.7975	0.0000000E+000	0.0000000E+000	0.0000000E+000	18.7975	2.93791	71.2025	1.25048e-05	2.06343e-05	2.54913e-08	2.06088e-05	0.242111	2847.81	3.51813	2844.29
10002.2	2.29704	0.776368	2.42469	-18.6745	4.45954	0.242418	0.0724551	20.4954	2.10125	1	9	0.00500892	0.0020658	0	7.10845e-05	-0.000139309	4.85449e-06	17.8322	0.00234994	0.00223704	-0.00071962	-18.6415	2.42658	2.29928	0.775648	0.39071	0.132055	0.412423	18.6745	2101.25	6216.96	6562.46	-71.3255	0.0000000E+000	0.0000000E+000	0.0000000E+000	71.3255	0.0000000E+000	0.0000000E+000	0.0000000E+000	-71.3255	0.0000000E+000	0.0000000E+000	0.0000000E+000	-18.6745	0.0000000E+000	0.0000000E+000	0.0000000E+000	18.6745	2.9587	71.3255	7.62785e-06	1.75644e-05	-1.00937e-08	1.75745e-05	0.242558	3345.77	1.9227	3347.69
6810.42	2.51088	0.871384	2.65779	-19.139	4.71856	0.242439	0.0864255	26.8186	2.88281	1	9	0.00489752	0.00184271	0	7.5714e-05	-4.39228e-05	0.000122293	-8.5852	0.0663659	0.0656223	0.0099071	-18.8832	2.72306	2.5765	0.881291	0.355456	0.123359	0.376253	19.139	2882.81	8306.77	8792.78	-70.861	0.0000000E+000	0.0000000E+000	0.0000000E+000	70.861	0.0000000E+000	0.0000000E+000	0.0000000E+000	-70.861	0.0000000E+000	0.0000000E+000	0.0000000E+000	-19.139	0.0000000E+000	0.0000000E+000	0.0000000E+000	19.139	2.88149	70.861	4.6295e-06	2.09529e-05	-3.79605e-09	2.09567e-05	0.242483	2805.18	0.508216	2805.69
4646	2.65385	0.944443	2.81689	-19.5895	4.98561	0.242382	0.0596769	36.2715	4.07734	1	9	0.00470376	0.00166984	0	7.97448e-05	0.000337623	9.0737e-06	-86.5373	0.00543387	0.000328203	0.00542395	-19.6911	2.81902	2.65417	0.949867	0.334454	0.119024	0.355001	19.5895	4077.34	11457.1	12161	-70.4105	0.0000000E+000	0.0000000E+000	0.0000000E+000	70.4105	0.0000000E+000	0.0000000E+000	0.0000000E+000	-70.4105	0.0000000E+000	0.0000000E+000	0.0000000E+000	-19.5895	0.0000000E+000	0.0000000E+000	0.0000000E+000	19.5895	2.80996	70.4105	4.03075e-06	1.44646e-05	2.01483e-08	1.44445e-05	0.242045	4061.58	5.65753	4055.92
3163.08	2.88423	1.08717	3.08233	-20.6532	5.35967	0.242208	0.0404909	46.2821	5.7577	1	9	0.00462946	0.00150194	0	8.49099e-05	0.000223159	3.53544e-06	-110.336	0.00235392	-0.00081803	0.00220721	-20.6969	3.08234	2.88342	1.08938	0.30358	0.11443	0.32443	20.6532	5757.7	15275.1	16324.2	-69.3468	0.0000000E+000	0.0000000E+000	0.0000000E+000	69.3468	0.0000000E+000	0.0000000E+000	0.0000000E+000	-69.3468	0.0000000E+000	0.0000000E+000	0.0000000E+000	-20.6532	0.0000000E+000	0.0000000E+000	0.0000000E+000	20.6532	2.65298	69.3468	5.16516e-06	9.80721e-06	9.03592e-09	9.79818e-06	0.241985	5981.79	5.51135	5976.28
2155.69	3.1345	1.2526	3.37551	-21.7824	5.81082	0.242428	0.140034	58.9417	8.11644	1	9	0.00460463	0.00136413	0	0.000102561	8.96183e-05	8.09644e-06	-15.068	0.00593525	0.00573119	0.00154296	-21.7707	3.38141	3.14023	1.25414	0.275099	0.109934	0.296251	21.7824	8116.44	20310.6	21872.3	-68.2176	0.0000000E+000	0.0000000E+000	0.0000000E+000	68.2176	0.0000000E+000	0.0000000E+000	0.0000000E+000	-68.2176	0.0000000E+000	0.0000000E+000	0.0000000E+000	-21.7824	0.0000000E+000	0.0000000E+000	0.0000000E+000	21.7824	2.5024	68.2176	1.7651e-05	3.39483e-05	1.25497e-08	3.39357e-05	0.242338	1731.2	0.639974	1730.56
1468.59	3.41302	1.41772	3.69576	-22.5573	6.50811	0.242341	-0.0107154	76.4415	11.2487	1	10	0.00469996	0.00127172	0	0.000111276	0.000280391	8.64971e-06	-83.1271	0.0068016	0.000813932	0.00675272	-22.649	3.6991	3.41383	1.42447	0.24988	0.103797	0.27058	22.5573	11248.7	27080.2	29323.5	-67.4427	0.0000000E+000	0.0000000E+000	0.0000000E+000	67.4427	0.0000000E+000	0.0000000E+000	0.0000000E+000	-67.4427	0.0000000E+000	0.0000000E+000	0.0000000E+000	-22.5573	0.0000000E+000	0.0000000E+000	0.0000000E+000	22.5573	2.4074	67.4427	8.71491e-06	-2.59678e-06	-3.0045e-09	-2.59378e-06	0.242061	22616.2	26.1672	22590.1
1000.32	3.71647	1.64037	4.06238	-23.8156	6.95877	0.242337	-0.0113937	96.9929	15.8147	1	10	0.00464633	0.00114375	0	0.000110331	-0.000120232	7.26e-06	139.228	0.00634756	-0.00480707	-0.00414531	-23.7895	4.05631	3.71166	1.63622	0.2252	0.0993986	0.246161	23.8156	15814.7	35830.3	39165.2	-66.1844	0.0000000E+000	0.0000000E+000	0.0000000E+000	66.1844	0.0000000E+000	0.0000000E+000	0.0000000E+000	-66.1844	0.0000000E+000	0.0000000E+000	0.0000000E+000	-23.8156	0.0000000E+000	0.0000000E+000	0.0000000E+000	23.8156	2.26563	66.1844	-9.45081e-07	-2.76111e-06	1.36989e-09	-2.76248e-06	0.242458	21269.4	10.5525	21280
681.09	4.08334	1.92824	4.51573	-25.2777	7.40851	0.242337	-0.0112483	121.186	22.0965	1	10	0.00462642	0.00102451	0	0.000108328	7.0541e-05	8.65241e-06	-152.314	0.00844539	-0.00747844	0.00392396	-25.3634	4.51065	4.07586	1.93217	0.200244	0.0945599	0.221448	25.2777	22096.5	46792.5	51747.3	-64.7223	0.0000000E+000	0.0000000E+000	0.0000000E+000	64.7223	0.0000000E+000	0.0000000E+000	0.0000000E+000	-64.7223	0.0000000E+000	0.0000000E+000	0.0000000E+000	-25.2777	0.0000000E+000	0.0000000E+000	0.0000000E+000	25.2777	2.11765	64.7223	-2.00309e-06	-2.72588e-06	-7.9347e-10	-2.72509e-06	0.242266	21544.2	6.27124	21537.9
463.961	4.53211	2.26744	5.06767	-26.5791	7.86032	0.242335	-0.0103166	151.287	30.2871	1	10	0.00460389	0.000908481	0	0.000107064	0.000242237	1.26019e-05	7.3803	0.0138713	0.0137564	-0.00178184	-26.4917	5.07919	4.54587	2.26566	0.176475	0.0882915	0.197329	26.5791	30287.1	60537.2	67690.9	-63.4209	0.0000000E+000	0.0000000E+000	0.0000000E+000	63.4209	0.0000000E+000	0.0000000E+000	0.0000000E+000	-63.4209	0.0000000E+000	0.0000000E+000	0.0000000E+000	-26.5791	0.0000000E+000	0.0000000E+000	0.0000000E+000	26.5791	1.99878	63.4209	-1.26386e-06	-2.50007e-06	-2.49906e-09	-2.49757e-06	0.242092	23489.8	23.4803	23466.3
316.316	5.1002	2.68554	5.76404	-27.7693	8.308	0.242341	-0.0107899	187.356	40.6702	1	10	0.00459139	0.000796558	0	0.00010578	0.000318546	5.369e-06	52.175	0.00674025	0.00413347	-0.00532404	-27.7033	5.76522	5.10433	2.68021	0.153509	0.0808309	0.173489	27.7693	40670.2	77238.2	87291.5	-62.2307	0.0000000E+000	0.0000000E+000	0.0000000E+000	62.2307	0.0000000E+000	0.0000000E+000	0.0000000E+000	-62.2307	0.0000000E+000	0.0000000E+000	0.0000000E+000	-27.7693	0.0000000E+000	0.0000000E+000	0.0000000E+000	27.7693	1.89914	62.2307	-1.28363e-06	-2.61484e-06	-3.43709e-09	-2.6114e-06	0.242022	22459.9	29.5225	22430.4
215.345	5.85801	3.10785	6.63136	-27.9473	8.75751	0.242346	-0.0103837	237.808	52.2325	1	10	0.00458064	0.000690754	0	0.000105209	3.23864e-05	1.373e-05	122.038	0.0198769	-0.0105444	-0.0168495	-27.8612	6.61416	5.84746	3.091	0.133212	0.0706732	0.150799	27.9473	52232.5	98453.3	111451	-62.0527	0.0000000E+000	0.0000000E+000	0.0000000E+000	62.0527	0.0000000E+000	0.0000000E+000	0.0000000E+000	-62.0527	0.0000000E+000	0.0000000E+000	0.0000000E+000	-27.9473	0.0000000E+000	0.0000000E+000	0.0000000E+000	27.9473	1.88491	62.0527	-5.71076e-07	-2.51645e-06	-3.36291e-10	-2.51611e-06	0.242314	23339.1	3.11897	23336
146.737	6.80519	3.45927	7.63395	-26.9455	9.20349	0.242342	-0.0124522	313.542	64.3821	1	10	0.00457304	0.00059904	0	0.000104607	0.00043301	8.67039e-06	-51.3427	0.0144738	0.00904124	0.0113025	-26.9903	7.64713	6.81423	3.47057	0.116773	0.0593589	0.130994	26.9455	64382.1	126655	142079	-63.0545	0.0000000E+000	0.0000000E+000	0.0000000E+000	63.0545	0.0000000E+000	0.0000000E+000	0.0000000E+000	-63.0545	0.0000000E+000	0.0000000E+000	0.0000000E+000	-26.9455	0.0000000E+000	0.0000000E+000	0.0000000E+000	26.9455	1.96724	63.0545	-6.02077e-07	-3.01768e-06	-5.3919e-09	-3.01229e-06	0.241909	19461.9	34.7739	19427.1
100.032	7.91213	3.63576	8.7075	-24.6796	9.65477	0.242355	-0.0101899	437.609	76.2938	1	10	0.00457166	0.000525026	0	0.000102933	0.000127773	1.12979e-05	-65.4217	0.0215187	0.00895041	0.0195689	-24.7718	8.72381	7.92108	3.65533	0.104353	0.0479522	0.114844	24.6796	76293.8	166030	182721	-65.3204	0.0000000E+000	0.0000000E+000	0.0000000E+000	65.3204	0.0000000E+000	0.0000000E+000	0.0000000E+000	-65.3204	0.0000000E+000	0.0000000E+000	0.0000000E+000	-24.6796	0.0000000E+000	0.0000000E+000	0.0000000E+000	24.6796	2.1762	65.3204	-1.67362e-06	-2.46957e-06	-1.30199e-09	-2.46827e-06	0.242227	23783.8	12.5392	23771.3
68.104	9.06861	3.62693	9.767	-21.7986	10.1175	0.242356	-0.00737607	644.33	88.8514	1	10	0.00457049	0.000467952	0	0.000101703	0.000375778	5.93478e-06	-50.3765	0.0126825	0.00808811	0.00976868	-21.8342	9.77814	9.0767	3.6367	0.0950644	0.0380204	0.102386	21.7986	88851.4	222160	239269	-68.2014	0.0000000E+000	0.0000000E+000	0.0000000E+000	68.2014	0.0000000E+000	0.0000000E+000	0.0000000E+000	-68.2014	0.0000000E+000	0.0000000E+000	0.0000000E+000	-21.7986	0.0000000E+000	0.0000000E+000	0.0000000E+000	21.7986	2.50035	68.2014	-1.22997e-06	-1.78763e-06	-2.77176e-09	-1.78486e-06	0.24198	32857.1	50.9456	32806.1
46.4415	10.1046	3.3614	10.649	-18.4003	10.5537	0.242346	-0.0134622	1019.51	101.581	1	10	0.00456689	0.000428855	0	0.000100474	0.000261314	1.11746e-05	0.981358	0.0260568	0.026053	-0.000446278	-18.3538	10.6736	10.1306	3.36096	0.0891043	0.0296415	0.0939053	18.4003	101581	305360	321813	-71.5997	0.0000000E+000	0.0000000E+000	0.0000000E+000	71.5997	0.0000000E+000	0.0000000E+000	0.0000000E+000	-71.5997	0.0000000E+000	0.0000000E+000	0.0000000E+000	-18.4003	0.0000000E+000	0.0000000E+000	0.0000000E+000	18.4003	3.00606	71.5997	-1.22944e-06	-3.2625e-06	-3.51785e-09	-3.25898e-06	0.242085	18002	19.411	17982.6
31.6296	10.9813	2.97547	11.3773	-15.1607	10.9826	0.242344	-0.0151616	1691.11	115.666	1	10	0.00456535	0.000401269	0	9.81355e-05	0.000127773	9.76081e-06	-44.8821	0.0243248	0.0172356	0.0171648	-15.2213	11.3984	10.9985	2.99263	0.0848354	0.0229868	0.0878945	15.1607	115666	426878	442271	-74.8393	0.0000000E+000	0.0000000E+000	0.0000000E+000	74.8393	0.0000000E+000	0.0000000E+000	0.0000000E+000	-74.8393	0.0000000E+000	0.0000000E+000	0.0000000E+000	-15.1607	0.0000000E+000	0.0000000E+000	0.0000000E+000	15.1607	3.69062	74.8393	-2.33847e-06	-3.67434e-06	-1.93725e-09	-3.6724e-06	0.242217	15984	8.42738	15975.6
21.5517	11.6926	2.53972	11.9652	-12.2547	11.4044	0.242343	-0.0158549	2907.71	131.003	1	10	0.00456351	0.000381397	0	9.61192e-05	0.00043301	2.12208e-05	-45.3167	0.0556397	0.0391252	0.0395601	-12.3995	12.0119	11.7317	2.57928	0.0816711	0.0177396	0.0835755	12.2547	131003	603124	617187	-77.7453	0.0000000E+000	0.0000000E+000	0.0000000E+000	77.7453	0.0000000E+000	0.0000000E+000	0.0000000E+000	-77.7453	0.0000000E+000	0.0000000E+000	0.0000000E+000	-12.2547	0.0000000E+000	0.0000000E+000	0.0000000E+000	12.2547	4.60388	77.7453	-2.01626e-06	-3.84232e-06	-6.86531e-09	-3.83545e-06	0.24191	15285.1	27.3109	15257.8
14.6852	12.2088	2.15523	12.3976	-10.0113	11.8652	0.242358	-0.00762205	5028.61	151.971	1	10	0.00456182	0.00036796	0	9.3421e-05	0.000165928	7.63756e-06	1.37995	0.0207565	0.0207505	-0.000499864	-9.9924	12.4179	12.2296	2.15473	0.0794327	0.0140223	0.0806609	10.0113	151971	860876	874187	-79.9887	0.0000000E+000	0.0000000E+000	0.0000000E+000	79.9887	0.0000000E+000	0.0000000E+000	0.0000000E+000	-79.9887	0.0000000E+000	0.0000000E+000	0.0000000E+000	-10.0113	0.0000000E+000	0.0000000E+000	0.0000000E+000	10.0113	5.66474	79.9887	-2.69823e-06	-1.84726e-06	-1.26471e-09	-1.846e-06	0.242192	31796.9	21.7694	31775.1
10.0032	12.6926	1.80254	12.82	-8.0828	12.5608	0.242397	-0.00252299	8826.67	174.499	1	11	0.004561	0.000355773	0	9.4048e-05	0.000280391	7.24399e-06	-36.543	0.0203613	0.0163584	0.0121236	-8.1261	12.8379	12.709	1.81466	0.0772284	0.0109676	0.0780033	8.0828	174499	1.22874e+06	1.24106e+06	-81.9172	0.0000000E+000	0.0000000E+000	0.0000000E+000	81.9172	0.0000000E+000	0.0000000E+000	0.0000000E+000	-81.9172	0.0000000E+000	0.0000000E+000	0.0000000E+000	-8.0828	0.0000000E+000	0.0000000E+000	0.0000000E+000	8.0828	7.04152	81.9172	6.26996e-07	-6.11565e-07	-7.07424e-10	-6.10858e-07	0.242117	96075.5	111.135	95964.4
6.81719	12.9867	1.48712	13.0716	-6.53251	12.9005	0.242396	-0.00158009	15698.9	203.19	1	11	0.00454482	0.000347686	0	9.71982e-05	-5.7682e-06	1.5755e-05	-26.9785	0.0453138	0.0403826	0.0205569	-6.60167	13.1141	13.0271	1.50767	0.076005	0.00870337	0.0765017	6.53251	203190	1.77442e+06	1.78602e+06	-83.4675	0.0000000E+000	0.0000000E+000	0.0000000E+000	83.4675	0.0000000E+000	0.0000000E+000	0.0000000E+000	-83.4675	0.0000000E+000	0.0000000E+000	0.0000000E+000	-6.53251	0.0000000E+000	0.0000000E+000	0.0000000E+000	6.53251	8.73283	83.4675	3.15017e-06	-3.83008e-07	9.11429e-12	-3.83018e-07	0.242402	153406	3.65054	153410
4.63925	13.3912	1.39865	13.4641	-5.96267	13.3844	0.242375	-0.00159127	24528	264.685	1	11	0.00459539	0.000341308	0	9.57821e-05	0.000108696	9.20554e-05	7.94966	0.269713	0.267121	-0.0373021	-5.69197	13.726	13.6583	1.36135	0.07387	0.00771539	0.0742718	5.96267	264686	2.5342e+06	2.54798e+06	-84.0373	0.0000000E+000	0.0000000E+000	0.0000000E+000	84.0373	0.0000000E+000	0.0000000E+000	0.0000000E+000	-84.0373	0.0000000E+000	0.0000000E+000	0.0000000E+000	-5.96267	0.0000000E+000	0.0000000E+000	0.0000000E+000	5.96267	9.57437	84.0373	-1.41603e-06	-3.85683e-07	-1.72964e-10	-3.8551e-07	0.242266	152316	68.3077	152248
3.1604	13.5311	1.09639	13.5755	-4.6324	14.0775	0.242405	-0.000632357	45931.7	299.594	1	11	0.00456342	0.000336151	0	9.10907e-05	1.33091e-05	8.52243e-06	28.7425	0.025353	0.0222292	-0.0121916	-4.57363	13.5967	13.5534	1.0842	0.0734215	0.00594914	0.0736622	4.6324	299594	3.69745e+06	3.70957e+06	-85.3676	0.0000000E+000	0.0000000E+000	0.0000000E+000	85.3676	0.0000000E+000	0.0000000E+000	0.0000000E+000	-85.3676	0.0000000E+000	0.0000000E+000	0.0000000E+000	-4.6324	0.0000000E+000	0.0000000E+000	0.0000000E+000	4.6324	12.3415	85.3676	-4.69145e-06	-1.53287e-07	-8.41611e-12	-1.53278e-07	0.242392	383336	21.0468	383315
2.15577	13.7326	0.973138	13.767	-4.05339	15.081	0.242415	-0.000503416	75865.4	379.062	1	11	0.00456359	0.000331487	0	8.96079e-05	-5.7682e-06	2.83801e-06	28.1956	0.00856145	0.00754555	-0.00404514	-4.03439	13.7743	13.7402	0.969092	0.0724555	0.00513443	0.0726372	4.05339	379063	5.34921e+06	5.36262e+06	-85.9466	0.0000000E+000	0.0000000E+000	0.0000000E+000	85.9466	0.0000000E+000	0.0000000E+000	0.0000000E+000	-85.9466	0.0000000E+000	0.0000000E+000	0.0000000E+000	-4.05339	0.0000000E+000	0.0000000E+000	0.0000000E+000	4.05339	14.1117	85.9466	-1.48276e-06	-1.22036e-07	2.9038e-12	-1.22039e-07	0.242421	481541	11.4581	481552
1.46631	13.886	0.903828	13.9154	-3.72408	16.5424	0.2424	-0.00193262	120090	506.629	1	11	0.00456568	0.000328103	0	9.43887e-05	0.000547474	1.90928e-06	-13.3525	0.00581914	0.00566184	0.00134388	-3.72809	13.9211	13.8917	0.905172	0.0717112	0.00466762	0.0718629	3.72408	506629	7.78361e+06	7.80008e+06	-86.2759	0.0000000E+000	0.0000000E+000	0.0000000E+000	86.2759	0.0000000E+000	0.0000000E+000	0.0000000E+000	-86.2759	0.0000000E+000	0.0000000E+000	0.0000000E+000	-3.72408	0.0000000E+000	0.0000000E+000	0.0000000E+000	3.72408	15.3635	86.2759	4.78078e-06	-4.68466e-07	-1.05806e-09	-4.67408e-07	0.241852	125426	283.281	125143
1.00006	14.0086	0.862531	14.0352	-3.52333	18.6699	0.242399	-0.00179711	184509	696.837	1	11	0.00456483	0.000325242	0	0.000103733	0.000394855	4.33701e-06	15.2136	0.0133347	0.0128674	-0.00349927	-3.50586	14.0478	14.0215	0.859031	0.0711149	0.00437864	0.0712496	3.52333	696838	1.13176e+07	1.1339e+07	-86.4767	0.0000000E+000	0.0000000E+000	0.0000000E+000	86.4767	0.0000000E+000	0.0000000E+000	0.0000000E+000	-86.4767	0.0000000E+000	0.0000000E+000	0.0000000E+000	-3.52333	0.0000000E+000	0.0000000E+000	0.0000000E+000	3.52333	16.2413	86.4767	9.34441e-06	-4.35616e-07	-7.09597e-10	-4.34907e-07	0.242004	134883	219.717	134663
0.681362	14.1397	0.895066	14.168	-3.62209	21.7821	0.242398	-0.000814707	260968	1041.55	1	11	0.00456354	0.000322103	0	0.000113119	-4.39228e-05	4.58899e-06	-1.4005	0.014247	0.0142427	0.000348208	-3.61986	14.1822	14.1539	0.895415	0.0704407	0.00445902	0.0705817	3.62209	1.04155e+06	1.64538e+07	1.64867e+07	-86.3779	0.0000000E+000	0.0000000E+000	0.0000000E+000	86.3779	0.0000000E+000	0.0000000E+000	0.0000000E+000	-86.3779	0.0000000E+000	0.0000000E+000	0.0000000E+000	-3.62209	0.0000000E+000	0.0000000E+000	0.0000000E+000	3.62209	15.7974	86.3779	9.38584e-06	-1.97484e-07	3.57842e-11	-1.97519e-07	0.242442	297528	53.9124	297582
0.464091	14.2691	1.00371	14.3044	-4.02363	26.3387	0.242399	0.00116058	341672	1682.23	1	11	0.00456703	0.000319274	0	0.000114775	0.000185005	2.97582e-06	-22.4835	0.00932058	0.00861212	0.00356435	-4.03544	14.3132	14.2777	1.00727	0.0697363	0.00490533	0.0699086	4.02363	1.68223e+06	2.39153e+07	2.39744e+07	-85.9764	0.0000000E+000	0.0000000E+000	0.0000000E+000	85.9764	0.0000000E+000	0.0000000E+000	0.0000000E+000	-85.9764	0.0000000E+000	0.0000000E+000	0.0000000E+000	-4.02363	0.0000000E+000	0.0000000E+000	0.0000000E+000	4.02363	14.2164	85.9764	1.6562e-06	2.81323e-07	2.14712e-10	2.81109e-07	0.242214	208861	159.408	208702
0.316193	14.3902	1.22361	14.4422	-4.86022	33.0137	0.242398	0.00242794	411361	2952.89	1	11	0.00456778	0.000316281	0	0.000100183	8.96183e-05	3.06759e-06	-15.1871	0.00969894	0.00936021	0.00254085	-4.86711	14.4517	14.3996	1.22616	0.0689927	0.00586651	0.0692417	4.86022	2.95289e+06	3.47273e+07	3.48526e+07	-85.1398	0.0000000E+000	0.0000000E+000	0.0000000E+000	85.1398	0.0000000E+000	0.0000000E+000	0.0000000E+000	-85.1398	0.0000000E+000	0.0000000E+000	0.0000000E+000	-4.86022	0.0000000E+000	0.0000000E+000	0.0000000E+000	4.86022	11.7604	85.1398	-1.45922e-05	5.88526e-07	2.17588e-10	5.88308e-07	0.242308	99836.9	36.9113	99799.9
0.215268	14.5158	1.52884	14.5961	-6.01238	42.8061	0.242391	0.00132705	483591	5305.55	1	11	0.00456562	0.000312797	0	6.37892e-05	-0.000120232	2.66157e-06	17.8679	0.00850894	0.00809852	-0.00261075	-5.99886	14.6039	14.5239	1.52623	0.0681346	0.00717612	0.0685115	6.01238	5.30556e+06	5.03743e+07	5.06529e+07	-83.9876	0.0000000E+000	0.0000000E+000	0.0000000E+000	83.9876	0.0000000E+000	0.0000000E+000	0.0000000E+000	-83.9876	0.0000000E+000	0.0000000E+000	0.0000000E+000	-6.01238	0.0000000E+000	0.0000000E+000	0.0000000E+000	6.01238	9.49463	83.9876	-3.63937e-05	3.21665e-07	-1.59554e-10	3.21825e-07	0.242511	182654	90.6009	182744
0.146929	14.7288	1.95868	14.8584	-7.57494	57.1445	0.242395	-0.000703431	553030	9610.16	1	11	0.00456566	0.000307277	0	1.11819e-05	7.0541e-05	3.69642e-06	-3.04495	0.0120296	0.0120126	0.000639005	-7.57128	14.8704	14.7408	1.95932	0.0667145	0.00887191	0.0673018	7.57494	9.61016e+06	7.22659e+07	7.29021e+07	-82.4251	0.0000000E+000	0.0000000E+000	0.0000000E+000	82.4251	0.0000000E+000	0.0000000E+000	0.0000000E+000	-82.4251	0.0000000E+000	0.0000000E+000	0.0000000E+000	-7.57494	0.0000000E+000	0.0000000E+000	0.0000000E+000	7.57494	7.51974	82.4251	-5.26074e-05	-1.70508e-07	-4.96208e-11	-1.70458e-07	0.242324	344589	100.281	344489
0.0999041	15.0495	2.63294	15.2781	-9.92355	78.2216	0.242391	-0.00263856	605057	17969.6	1	11	0.00456394	0.000298724	0	-3.37946e-05	1.33091e-05	2.86612e-06	-7.22642	0.00959453	0.00951832	0.0012069	-9.92186	15.2877	15.059	2.63414	0.0644739	0.0112798	0.0654531	9.92355	1.79696e+07	1.02712e+08	1.04272e+08	-80.0765	0.0000000E+000	0.0000000E+000	0.0000000E+000	80.0765	0.0000000E+000	0.0000000E+000	0.0000000E+000	-80.0765	0.0000000E+000	0.0000000E+000	0.0000000E+000	-9.92355	0.0000000E+000	0.0000000E+000	0.0000000E+000	9.92355	5.71587	80.0765	-4.49765e-05	-6.39564e-07	-3.5117e-11	-6.39528e-07	0.242377	91864.6	5.04407	91859.6
0.0680626	15.4072	3.59159	15.8203	-13.1219	109.149	0.242396	-0.0030132	651066	33555.9	1	11	0.00456502	0.000288555	0	-3.39899e-05	0.000242237	3.23503e-06	0.401601	0.0112111	0.0112109	-7.85812e-05	-13.1124	15.8312	15.4184	3.59151	0.0615595	0.0143502	0.0632099	13.1219	3.35559e+07	1.43948e+08	1.47808e+08	-76.8781	0.0000000E+000	0.0000000E+000	0.0000000E+000	76.8781	0.0000000E+000	0.0000000E+000	0.0000000E+000	-76.8781	0.0000000E+000	0.0000000E+000	0.0000000E+000	-13.1219	0.0000000E+000	0.0000000E+000	0.0000000E+000	13.1219	4.28981	76.8781	-1.95218e-07	-7.30389e-07	-7.29909e-10	-7.29659e-07	0.242154	80444.7	80.3918	80364.3
0.0464052	15.8037	4.76518	16.5064	-16.7793	176.142	0.242394	-0.0024542	719738	59982.6	1	12	0.00456752	0.000276711	0	6.38586e-05	0.000356701	2.7979e-06	-13.426	0.0101113	0.00983492	0.00234773	-16.7772	16.5165	15.8135	4.76752	0.058003	0.0174893	0.0605824	16.7793	5.99826e+07	1.98932e+08	2.07778e+08	-73.2207	0.0000000E+000	0.0000000E+000	0.0000000E+000	73.2207	0.0000000E+000	0.0000000E+000	0.0000000E+000	-73.2207	0.0000000E+000	0.0000000E+000	0.0000000E+000	-16.7793	0.0000000E+000	0.0000000E+000	0.0000000E+000	16.7793	3.31649	73.2207	9.78485e-05	-5.94881e-07	-8.75413e-10	-5.94006e-07	0.242037	98767	145.343	98621.7
0.0315922	16.4997	6.35124	17.6799	-21.0533	242.746	0.242393	-0.00191951	793198	102363	1	12	0.00456623	0.000258273	0	0.000271726	-0.000158387	2.50026e-06	-20.146	0.00968067	0.00908839	0.00333415	-21.0528	17.6895	16.5088	6.35458	0.0527858	0.0203189	0.0565615	21.0533	1.02363e+08	2.65924e+08	2.84945e+08	-68.9467	0.0000000E+000	0.0000000E+000	0.0000000E+000	68.9467	0.0000000E+000	0.0000000E+000	0.0000000E+000	-68.9467	0.0000000E+000	0.0000000E+000	0.0000000E+000	-21.0533	0.0000000E+000	0.0000000E+000	0.0000000E+000	21.0533	2.59787	68.9467	0.000207867	-4.65276e-07	3.04025e-10	-4.6558e-07	0.242551	126278	82.514	126361
0.0215268	17.5627	8.67562	19.5886	-26.2885	340.485	0.24239	-0.00148523	852198	167160	1	12	0.00456437	0.000233011	0	0.000435511	-0.000101155	2.10124e-06	-74.2211	0.00901776	0.00245217	0.00867795	-26.308	19.5947	17.5651	8.68429	0.0457702	0.0226096	0.05105	26.2885	1.6716e+08	3.38395e+08	3.7743e+08	-63.7115	0.0000000E+000	0.0000000E+000	0.0000000E+000	63.7115	0.0000000E+000	0.0000000E+000	0.0000000E+000	-63.7115	0.0000000E+000	0.0000000E+000	0.0000000E+000	-26.2885	0.0000000E+000	0.0000000E+000	0.0000000E+000	26.2885	2.02437	63.7115	0.000163785	-3.60006e-07	1.50238e-10	-3.60156e-07	0.242491	163200	68.107	163268
0.0146812	18.8599	11.8482	22.2727	-32.138	483.786	0.242391	-0.00136094	914971	258920	1	12	0.00456518	0.000204968	0	0.000329826	0.000242237	2.83422e-06	7.79511	0.0138276	0.0136999	-0.00187546	-32.1151	22.2833	18.8736	11.8463	0.0380183	0.0238839	0.044898	32.138	2.5892e+08	4.12146e+08	4.86728e+08	-57.862	0.0000000E+000	0.0000000E+000	0.0000000E+000	57.862	0.0000000E+000	0.0000000E+000	0.0000000E+000	-57.862	0.0000000E+000	0.0000000E+000	0.0000000E+000	-32.138	0.0000000E+000	0.0000000E+000	0.0000000E+000	32.138	1.59179	57.862	-0.000105685	-3.29879e-07	-3.2967e-10	-3.2955e-07	0.242149	178106	177.992	177928
0.0100092	20.6144	15.6681	25.8929	-37.2368	693.968	0.242386	-0.00176024	1.01486e+06	371600	1	12	0.00456298	0.000176225	0	-0.000184204	1.33091e-05	2.99075e-06	75.718	0.0169712	0.00418671	-0.0164466	-37.2022	25.8863	20.6186	15.6516	0.0307475	0.0233697	0.0386206	37.2368	3.716e+08	4.88913e+08	6.14103e+08	-52.7632	0.0000000E+000	0.0000000E+000	0.0000000E+000	52.7632	0.0000000E+000	0.0000000E+000	0.0000000E+000	-52.7632	0.0000000E+000	0.0000000E+000	0.0000000E+000	-37.2368	0.0000000E+000	0.0000000E+000	0.0000000E+000	37.2368	1.3157	52.7632	-0.00051403	-4.26657e-07	-2.34272e-11	-4.26634e-07	0.242372	137700	7.56096	137693