File: txt/19011_R308_UA709_SOC00_C07.mpt
EC-Lab ASCII FILE
Nb header lines : 65

Potentio Electrochemical Impedance Spectroscopy

Run on channel : 7 (SN 66126)
Grouped channel(s) : 6, 7, 8
User :
CE vs. WE compliance from -10 V to 10 V
Electrode connection : standard
Potential control : Ewe
Ewe ctrl range : min = -10.00 V, max = 10.00 V
Safety Limits :
	Do not start on E overload
Acquisition started on : 11/04/2025 16:28:53.021
Loaded Setting File :  C:\Users\Celltest\OneDrive - store-dot.com\Documents\EC-Lab\Data\@Biologic Test Protocols\anode half cell EIS SOC00.mps
Saved on :
	File : 19010_R308_UA709_SOC00_C07.mpr
	Directory : C:\Users\Celltest\OneDrive - store-dot.com\Documents\EC-Lab\Data\Charmaine\
	Host : 169.254.61.224
Device : VMP-3e (SN .003165)
Address : USB
EC-LAB for windows v11.62 (software)
Internet server v27.00 (firmware)
Command interpretor v12.03 (firmware)
Electrode material :
Initial state :
Electrolyte :
Comments :
Electrode surface area : 0.001 cm²
Characteristic mass : 0.001 g
Equivalent Weight : 0.000 g/eq.
Density : 0.000 g/cm3
Volume (V) : 0.001 cm³
Record Ece
Cycle Definition : Charge/Discharge alternance
Mode                Single sine
E (V)               0.0000
vs.                 Eoc
tE (h:m:s)          0:00:0.0000
record              0
dI                  0.000
unit dI             mA
dt (s)              0.000
fi                  100.000
unit fi             kHz
ff                  10.000
unit ff             mHz
Nd                  6
Points              per decade
spacing             Logarithmic
Va (mV)             5.0
pw                  0.10
Na                  2
corr                0
E range min (V)     -10.000
E range max (V)     10.000
I Range             Auto
Bandwidth           5
nc cycles           0
goto Ns'            0
nr cycles           0
inc. cycle          0

freq/Hz	Re(Z)/Ohm	-Im(Z)/Ohm	|Z|/Ohm	Phase(Z)/deg	time/s	<Ewe>/V	<I>/mA	Cs/µF	Cp/µF	cycle number	I Range	|Ewe|/V	|I|/A	Ns	(Q-Qo)/mA.h	<Ece>/V	|Ece|/V	Phase(Zce)/deg	|Zce|/Ohm	Re(Zce)/Ohm	-Im(Zce)/Ohm	Phase(Zwe-ce)/deg	|Zwe-ce|/Ohm	Re(Zwe-ce)/Ohm	-Im(Zwe-ce)/Ohm	Re(Y)/Ohm-1	Im(Y)/Ohm-1	|Y|/Ohm-1	Phase(Y)/deg	Re(C)/nF	Im(C)/nF	|C|/nF	Phase(C)/deg	Re(M)	Im(M)	|M|	Phase(M)/deg	Re(Permittivity)	Im(Permittivity)	|Permittivity|	Phase(Permittivity)/deg	Re(Resistivity)/Ohm.cm	Im(Resistivity)/Ohm.cm	|Resistivity|/Ohm.cm	Phase(Resistivity)/deg	Re(Conductivity)/mS/cm	Im(Conductivity)/mS/cm	|Conductivity|/mS/cm	Phase(Conductivity)/deg	Tan(Delta)	Loss Angle(Delta)/deg	dq/mA.h	Pwe/W	Pce/W	Pwe-ce/W	<Ewe-Ece>/V	Rwe/Ohm	Rce/Ohm	Rwe-ce/Ohm		Ewe-Ece/V
100004	2.00618	0.816807	2.16609	-22.1535	1.91054	0.239578	0.0591754	1.94843	0.277059	1	9	0.00459982	0.00212356	0	1.11852e-05	-3.34546e-05	4.13649e-05	75.2538	0.019479	0.00495816	-0.0188374	-21.642	2.16366	2.01114	0.79797	0.427581	0.174088	0.461662	22.1535	277.059	680.491	734.731	-67.8465	0.0000000E+000	0.0000000E+000	0.0000000E+000	67.8465	0.0000000E+000	0.0000000E+000	0.0000000E+000	-67.8465	0.0000000E+000	0.0000000E+000	0.0000000E+000	-22.1535	0.0000000E+000	0.0000000E+000	0.0000000E+000	22.1535	2.45612	67.8465	1.11852e-05	1.41771e-05	-1.97969e-09	1.41791e-05	0.239611	4048.61	0.565347	4049.17
68132	2.23214	0.917756	2.41345	-22.3503	2.41951	0.239544	0.0600318	2.54531	0.368061	1	9	0.00504653	0.002091	0	2.73148e-05	-0.000128832	3.25127e-05	52.9279	0.0155489	0.00937315	-0.0124061	-21.9938	2.41745	2.24152	0.90535	0.383218	0.157562	0.414345	22.3503	368.061	895.188	967.9	-67.6497	0.0000000E+000	0.0000000E+000	0.0000000E+000	67.6497	0.0000000E+000	0.0000000E+000	0.0000000E+000	-67.6497	0.0000000E+000	0.0000000E+000	0.0000000E+000	-22.3503	0.0000000E+000	0.0000000E+000	0.0000000E+000	22.3503	2.43217	67.6497	1.61296e-05	1.43802e-05	-7.73401e-09	1.4388e-05	0.239672	3990.27	2.14606	3992.42
46420.4	2.48565	0.979289	2.67161	-21.5033	2.92653	0.239607	0.0701601	3.50107	0.470411	1	9	0.00502754	0.00188184	0	4.2502e-05	-7.16055e-05	1.01506e-05	-12.189	0.00539395	0.00527236	0.00113887	-21.4846	2.67693	2.49093	0.980427	0.348254	0.137204	0.374307	21.5033	470.411	1194.01	1283.33	-68.4967	0.0000000E+000	0.0000000E+000	0.0000000E+000	68.4967	0.0000000E+000	0.0000000E+000	0.0000000E+000	-68.4967	0.0000000E+000	0.0000000E+000	0.0000000E+000	-21.5033	0.0000000E+000	0.0000000E+000	0.0000000E+000	21.5033	2.53822	68.4967	1.51872e-05	1.68109e-05	-5.02385e-09	1.68159e-05	0.239679	3415.15	1.0206	3416.17
31621.1	2.75258	1.03811	2.94183	-20.6634	3.30955	0.239601	0.0608883	4.84843	0.603738	1	9	0.00531219	0.00180574	0	4.70626e-05	-1.43792e-05	1.68025e-05	30.7727	0.00930504	0.00799492	-0.00476078	-20.522	2.94764	2.76058	1.03335	0.318057	0.119952	0.339924	20.6634	603.738	1600.84	1710.9	-69.3366	0.0000000E+000	0.0000000E+000	0.0000000E+000	69.3366	0.0000000E+000	0.0000000E+000	0.0000000E+000	-69.3366	0.0000000E+000	0.0000000E+000	0.0000000E+000	-20.6634	0.0000000E+000	0.0000000E+000	0.0000000E+000	20.6634	2.65154	69.3366	4.56063e-06	1.45889e-05	-8.75526e-10	1.45898e-05	0.239616	3935.1	0.236158	3935.33
21544.7	3.01379	1.08811	3.2042	-19.8517	3.69253	0.239581	0.0530687	6.78905	0.782911	1	9	0.00524786	0.00163781	0	5.52602e-05	-0.000357737	8.66377e-06	39.8013	0.00528986	0.00406404	-0.00338618	-19.7702	3.20687	3.01785	1.08472	0.293544	0.105982	0.312091	19.8517	782.911	2168.47	2305.48	-70.1483	0.0000000E+000	0.0000000E+000	0.0000000E+000	70.1483	0.0000000E+000	0.0000000E+000	0.0000000E+000	-70.1483	0.0000000E+000	0.0000000E+000	0.0000000E+000	-19.8517	0.0000000E+000	0.0000000E+000	0.0000000E+000	19.8517	2.76976	70.1483	8.19756e-06	1.27142e-05	-1.89846e-08	1.27332e-05	0.239938	4514.54	6.74101	4521.28
14678.6	3.29335	1.0968	3.47119	-18.4196	4.07556	0.239584	0.0541113	9.88571	0.986979	1	9	0.00514136	0.00148115	0	6.29977e-05	-9.06809e-05	6.25012e-06	31.1465	0.00421977	0.00361148	-0.00218258	-18.3666	3.47392	3.29696	1.09462	0.273327	0.0910274	0.288086	18.4196	986.979	2963.59	3123.62	-71.5804	0.0000000E+000	0.0000000E+000	0.0000000E+000	71.5804	0.0000000E+000	0.0000000E+000	0.0000000E+000	-71.5804	0.0000000E+000	0.0000000E+000	0.0000000E+000	-18.4196	0.0000000E+000	0.0000000E+000	0.0000000E+000	18.4196	3.00269	71.5804	7.73755e-06	1.29642e-05	-4.90686e-09	1.29691e-05	0.239675	4427.62	1.67582	4429.3
10002.2	3.54637	1.14063	3.72529	-17.8294	4.33455	0.239567	0.0446161	13.9502	1.30781	1	9	0.00539677	0.00144869	0	6.55647e-05	-1.43792e-05	3.55399e-06	24.0479	0.00245325	0.00224032	-0.0009997	-17.8043	3.72712	3.54861	1.13963	0.255543	0.0821907	0.268435	17.8294	1307.81	4066.19	4271.33	-72.1706	0.0000000E+000	0.0000000E+000	0.0000000E+000	72.1706	0.0000000E+000	0.0000000E+000	0.0000000E+000	-72.1706	0.0000000E+000	0.0000000E+000	0.0000000E+000	-17.8294	0.0000000E+000	0.0000000E+000	0.0000000E+000	17.8294	3.10915	72.1706	2.56701e-06	1.06885e-05	-6.41545e-10	1.06892e-05	0.239581	5369.52	0.322288	5369.84
6810.42	3.80385	1.16363	3.97785	-17.0093	4.59352	0.23957	0.0404829	20.0831	1.71856	1	9	0.00542885	0.00136477	0	6.9969e-05	-3.34546e-05	4.08e-05	-21.772	0.0298952	0.0277627	0.0110885	-17.0448	4.00765	3.83161	1.17472	0.240395	0.0735391	0.251392	17.0093	1718.56	5617.88	5874.86	-72.9907	0.0000000E+000	0.0000000E+000	0.0000000E+000	72.9907	0.0000000E+000	0.0000000E+000	0.0000000E+000	-72.9907	0.0000000E+000	0.0000000E+000	0.0000000E+000	-17.0093	0.0000000E+000	0.0000000E+000	0.0000000E+000	17.0093	3.26895	72.9907	4.40424e-06	9.69847e-06	-1.35434e-09	9.69983e-06	0.239603	5917.8	0.82639	5918.63
4646	4.0903	1.24766	4.27636	-16.9631	5.01663	0.239555	-0.00436604	27.4566	2.33715	1	10	0.0053658	0.00125476	0	7.15339e-05	-5.25301e-05	1.11561e-05	71.8579	0.00889101	0.00276844	-0.00844902	-16.8441	4.27655	4.09307	1.23921	0.22367	0.0682255	0.233844	16.9631	2337.15	7662.11	8010.63	-73.0369	0.0000000E+000	0.0000000E+000	0.0000000E+000	73.0369	0.0000000E+000	0.0000000E+000	0.0000000E+000	-73.0369	0.0000000E+000	0.0000000E+000	0.0000000E+000	-16.9631	0.0000000E+000	0.0000000E+000	0.0000000E+000	16.9631	3.27839	73.0369	1.56489e-06	-1.0459e-06	2.29348e-10	-1.04613e-06	0.239607	54867.7	12.0315	54879.8
3163.08	4.35314	1.35752	4.5599	-17.3199	5.38964	0.239517	-0.00664437	37.0651	3.28506	1	10	0.00541395	0.0011873	0	7.19545e-05	-0.000434039	3.99528e-06	-77.413	0.00336502	0.000733311	0.00328415	-17.3566	4.56158	4.35388	1.3608	0.209359	0.0652881	0.219303	17.3199	3285.06	10534.2	11034.5	-72.6801	0.0000000E+000	0.0000000E+000	0.0000000E+000	72.6801	0.0000000E+000	0.0000000E+000	0.0000000E+000	-72.6801	0.0000000E+000	0.0000000E+000	0.0000000E+000	-17.3199	0.0000000E+000	0.0000000E+000	0.0000000E+000	17.3199	3.2067	72.6801	4.20615e-07	-1.59144e-06	2.88391e-09	-1.59433e-06	0.239952	36048.2	65.3243	36113.5
2155.69	4.62687	1.49687	4.86298	-17.9272	5.84079	0.239535	-0.000323124	49.3231	4.67318	1	10	0.0053908	0.00110854	0	7.16391e-05	0.000100073	7.84594e-06	-80.1384	0.00707773	0.0012122	0.00697316	-18.0009	4.86628	4.62809	1.50384	0.195651	0.0632963	0.205635	17.9272	4673.18	14445	15182.1	-72.0728	0.0000000E+000	0.0000000E+000	0.0000000E+000	72.0728	0.0000000E+000	0.0000000E+000	0.0000000E+000	-72.0728	0.0000000E+000	0.0000000E+000	0.0000000E+000	-17.9272	0.0000000E+000	0.0000000E+000	0.0000000E+000	17.9272	3.09104	72.0728	-3.15333e-07	-7.73997e-08	-3.23361e-11	-7.73674e-08	0.239435	741310	309.705	741000
1468.59	4.92695	1.69953	5.21184	-19.0317	6.29206	0.239522	-0.00264985	63.7661	6.7806	1	10	0.00535625	0.00102771	0	7.2475e-05	-0.000186058	4.72987e-06	-51.9421	0.00460235	0.00283715	0.00362384	-19.0592	5.2157	4.92979	1.70316	0.181383	0.0625674	0.191871	19.0317	6780.6	19656.9	20793.6	-70.9683	0.0000000E+000	0.0000000E+000	0.0000000E+000	70.9683	0.0000000E+000	0.0000000E+000	0.0000000E+000	-70.9683	0.0000000E+000	0.0000000E+000	0.0000000E+000	-19.0317	0.0000000E+000	0.0000000E+000	0.0000000E+000	19.0317	2.899	70.9683	8.35845e-07	-6.34698e-07	4.93027e-10	-6.35191e-07	0.239708	90390.6	70.2144	90460.8
1000.32	5.27237	1.98553	5.63384	-20.6359	6.74281	0.239512	-0.00145857	80.132	9.95285	1	10	0.00532401	0.000945005	0	7.25715e-05	-0.000186058	8.061e-06	-57.401	0.00853011	0.00459565	0.00718629	-20.6878	5.64068	5.27696	1.99271	0.16611	0.0625556	0.177499	20.6359	9952.84	26428.8	28240.8	-69.3641	0.0000000E+000	0.0000000E+000	0.0000000E+000	69.3641	0.0000000E+000	0.0000000E+000	0.0000000E+000	-69.3641	0.0000000E+000	0.0000000E+000	0.0000000E+000	-20.6359	0.0000000E+000	0.0000000E+000	0.0000000E+000	20.6359	2.6554	69.3641	9.64715e-08	-3.49344e-07	2.71378e-10	-3.49616e-07	0.239698	164210	127.562	164338
681.09	5.68148	2.35339	6.14961	-22.5004	7.19351	0.239522	-0.00153675	99.2935	14.5417	1	10	0.00529418	0.000860898	0	7.2962e-05	2.37716e-05	6.71097e-06	102.154	0.00779532	-0.00164121	-0.00762059	-22.4406	6.14518	5.67984	2.34577	0.150233	0.0622301	0.162612	22.5004	14541.7	35106.1	37998.7	-67.4996	0.0000000E+000	0.0000000E+000	0.0000000E+000	67.4996	0.0000000E+000	0.0000000E+000	0.0000000E+000	-67.4996	0.0000000E+000	0.0000000E+000	0.0000000E+000	-22.5004	0.0000000E+000	0.0000000E+000	0.0000000E+000	22.5004	2.41416	67.4996	3.90529e-07	-3.68085e-07	-3.6531e-11	-3.68048e-07	0.239498	155863	15.4688	155847
463.961	6.20072	2.85144	6.82492	-24.6956	7.64528	0.23951	-0.00284344	120.303	20.9994	1	10	0.00526597	0.000771579	0	7.2462e-05	-0.000109756	1.34441e-05	-4.64139	0.0174242	0.017367	0.00140995	-24.6456	6.84129	6.21808	2.85285	0.133121	0.0612165	0.146522	24.6956	20999.4	45665.2	50262.2	-65.3044	0.0000000E+000	0.0000000E+000	0.0000000E+000	65.3044	0.0000000E+000	0.0000000E+000	0.0000000E+000	-65.3044	0.0000000E+000	0.0000000E+000	0.0000000E+000	-24.6956	0.0000000E+000	0.0000000E+000	0.0000000E+000	24.6956	2.17459	65.3044	-4.99963e-07	-6.81033e-07	3.12086e-10	-6.81345e-07	0.23962	84232.4	38.5998	84271
316.316	6.8977	3.4236	7.70061	-26.397	8.09306	0.239519	-0.00218452	146.966	29.0491	1	10	0.00524828	0.00068154	0	7.26051e-05	-7.16055e-05	4.74277e-06	76.4993	0.0069589	0.0016246	-0.00676661	-26.3466	7.69906	6.89933	3.41684	0.11632	0.0577343	0.12986	26.397	29049.1	58526.6	65339.2	-63.603	0.0000000E+000	0.0000000E+000	0.0000000E+000	63.603	0.0000000E+000	0.0000000E+000	0.0000000E+000	-63.603	0.0000000E+000	0.0000000E+000	0.0000000E+000	-26.397	0.0000000E+000	0.0000000E+000	0.0000000E+000	26.397	2.01475	63.603	1.43095e-07	-5.23233e-07	1.56424e-10	-5.23389e-07	0.23959	109644	32.7786	109676
215.345	7.86367	4.05324	8.84681	-27.2683	8.54356	0.239519	-0.00300352	182.341	38.275	1	10	0.00524064	0.000592377	0	7.29421e-05	-0.000319586	8.36566e-06	-72.7876	0.0141222	0.00417896	0.0134897	-27.3335	8.85671	7.86785	4.06673	0.100474	0.051788	0.113035	27.2683	38275	74257.1	83541	-62.7317	0.0000000E+000	0.0000000E+000	0.0000000E+000	62.7317	0.0000000E+000	0.0000000E+000	0.0000000E+000	-62.7317	0.0000000E+000	0.0000000E+000	0.0000000E+000	-27.2683	0.0000000E+000	0.0000000E+000	0.0000000E+000	27.2683	1.94009	62.7317	3.36983e-07	-7.19401e-07	9.59884e-10	-7.20361e-07	0.239839	79746	106.404	79852.4
146.737	9.11189	4.59709	10.2059	-26.7717	8.98951	0.239512	-0.00360661	235.937	47.8699	1	10	0.0052407	0.000513499	0	7.23703e-05	6.19225e-05	6.93512e-06	-3.15237	0.0135056	0.0134852	0.000742695	-26.7413	10.2182	9.12538	4.59784	0.0874799	0.044135	0.0979828	26.7717	47869.9	94882.8	106275	-63.2283	0.0000000E+000	0.0000000E+000	0.0000000E+000	63.2283	0.0000000E+000	0.0000000E+000	0.0000000E+000	-63.2283	0.0000000E+000	0.0000000E+000	0.0000000E+000	-26.7717	0.0000000E+000	0.0000000E+000	0.0000000E+000	26.7717	1.9821	63.2283	-5.71843e-07	-8.63826e-07	-2.2333e-10	-8.63603e-07	0.23945	66409.1	17.1691	66391.9
100.032	10.6182	4.91837	11.702	-24.8536	9.4408	0.239522	-0.0019686	323.489	57.1455	1	10	0.00523883	0.000447687	0	7.211e-05	-0.000128832	1.27736e-05	-41.0588	0.0285325	0.0215145	0.0187411	-24.8925	11.7294	10.6397	4.93711	0.0775409	0.035917	0.0854554	24.8536	57145.5	123371	135963	-65.1464	0.0000000E+000	0.0000000E+000	0.0000000E+000	65.1464	0.0000000E+000	0.0000000E+000	0.0000000E+000	-65.1464	0.0000000E+000	0.0000000E+000	0.0000000E+000	-24.8536	0.0000000E+000	0.0000000E+000	0.0000000E+000	24.8536	2.15889	65.1464	-2.60226e-07	-4.71523e-07	2.53618e-10	-4.71776e-07	0.239651	121671	65.4433	121737
68.104	12.2076	4.87761	13.146	-21.7794	9.90344	0.239529	0.00113245	479.116	65.9579	1	10	0.00522592	0.000397529	0	7.22344e-05	-0.000300511	9.66403e-06	19.5005	0.0243103	0.0229158	-0.00811515	-21.7096	13.1643	12.2306	4.8695	0.0706389	0.028224	0.0760687	21.7794	65957.9	165079	177768	-68.2206	0.0000000E+000	0.0000000E+000	0.0000000E+000	68.2206	0.0000000E+000	0.0000000E+000	0.0000000E+000	-68.2206	0.0000000E+000	0.0000000E+000	0.0000000E+000	-21.7794	0.0000000E+000	0.0000000E+000	0.0000000E+000	21.7794	2.50279	68.2206	1.24391e-07	2.71256e-07	-3.40314e-10	2.71596e-07	0.23983	211514	265.362	211779
46.4415	13.6801	4.5299	14.4106	-18.3213	10.3396	0.239517	-0.00423204	756.527	74.7548	1	10	0.00522727	0.000362738	0	7.16984e-05	-5.25301e-05	7.04537e-06	-104.266	0.0194228	-0.00478639	0.0188238	-18.3983	14.412	13.6753	4.54873	0.0658758	0.0218135	0.0693934	18.3213	74754.8	225756	237811	-71.6787	0.0000000E+000	0.0000000E+000	0.0000000E+000	71.6787	0.0000000E+000	0.0000000E+000	0.0000000E+000	-71.6787	0.0000000E+000	0.0000000E+000	0.0000000E+000	-18.3213	0.0000000E+000	0.0000000E+000	0.0000000E+000	18.3213	3.01995	71.6787	-5.36031e-07	-1.01365e-06	2.22309e-10	-1.01387e-06	0.239569	56596.1	12.4125	56608.5
31.6296	14.8737	3.8937	15.3749	-14.6699	10.7696	0.239518	-0.00418365	1292.3	82.8826	1	10	0.0052149	0.000339182	0	7.19738e-05	0.000176375	8.43127e-06	109.908	0.0248577	-0.00846424	-0.0233722	-14.5936	15.3608	14.8653	3.87033	0.0629206	0.0164716	0.0650409	14.6699	82882.5	316607	327276	-75.3301	0.0000000E+000	0.0000000E+000	0.0000000E+000	75.3301	0.0000000E+000	0.0000000E+000	0.0000000E+000	-75.3301	0.0000000E+000	0.0000000E+000	0.0000000E+000	-14.6699	0.0000000E+000	0.0000000E+000	0.0000000E+000	14.6699	3.81994	75.3301	2.75443e-07	-1.00206e-06	-7.37891e-10	-1.00132e-06	0.239341	57251	42.1582	57208.8
21.5517	15.8832	3.247	16.2117	-11.5537	11.4225	0.239553	-0.00087436	2274.34	91.235	1	11	0.00522751	0.000322453	0	7.27726e-05	0.000138224	6.79738e-06	-30.1224	0.0210802	0.0182335	0.0105791	-11.5774	16.2317	15.9015	3.25758	0.0604339	0.0123544	0.0616838	11.5537	91235	446291	455522	-78.4463	0.0000000E+000	0.0000000E+000	0.0000000E+000	78.4463	0.0000000E+000	0.0000000E+000	0.0000000E+000	-78.4463	0.0000000E+000	0.0000000E+000	0.0000000E+000	-11.5537	0.0000000E+000	0.0000000E+000	0.0000000E+000	11.5537	4.89167	78.4463	7.98805e-07	-2.09455e-07	-1.20858e-10	-2.09335e-07	0.239415	273975	158.086	273817
14.6852	16.5133	2.65175	16.7249	-9.12282	11.8832	0.239554	-0.000201571	4087.04	102.742	1	11	0.00521603	0.000311873	0	7.35178e-05	-0.000128832	8.63941e-06	-74.4389	0.0277017	0.0074314	0.0266863	-9.20899	16.7364	16.5207	2.67844	0.0590349	0.00947999	0.0597912	9.12282	102742	639810	648006	-80.8772	0.0000000E+000	0.0000000E+000	0.0000000E+000	80.8772	0.0000000E+000	0.0000000E+000	0.0000000E+000	-80.8772	0.0000000E+000	0.0000000E+000	0.0000000E+000	-9.12282	0.0000000E+000	0.0000000E+000	0.0000000E+000	9.12282	6.22732	80.8772	7.45137e-07	-4.82871e-08	2.59687e-11	-4.83131e-08	0.239683	1.18844e+06	639.139	1.18908e+06
10.0032	17.0143	2.13946	17.1483	-7.16704	12.3338	0.23955	-3.08575e-05	7436.65	115.757	1	11	0.0052289	0.000304923	0	7.09583e-05	-5.25301e-05	1.30795e-05	-28.5753	0.0428945	0.0376695	0.020517	-7.21923	17.1882	17.0519	2.15998	0.0578593	0.00727552	0.058315	7.16704	115756	920565	927815	-82.833	0.0000000E+000	0.0000000E+000	0.0000000E+000	82.833	0.0000000E+000	0.0000000E+000	0.0000000E+000	-82.833	0.0000000E+000	0.0000000E+000	0.0000000E+000	-7.16704	0.0000000E+000	0.0000000E+000	0.0000000E+000	7.16704	7.9526	82.833	-2.5595e-06	-7.39191e-09	1.62094e-12	-7.39353e-09	0.239603	7.76312e+06	1702.35	7.76482e+06
6.81719	17.345	1.68233	17.4264	-5.53992	12.6735	0.239562	0.000276278	13877.2	129.333	1	11	0.00522333	0.000299736	0	7.34446e-05	-0.00026236	6.17612e-06	-144.901	0.0206052	-0.0168584	0.0118478	-5.58408	17.4108	17.3282	1.69418	0.0571161	0.00553982	0.0573841	5.53992	129333	1.33344e+06	1.3397e+06	-84.4601	0.0000000E+000	0.0000000E+000	0.0000000E+000	84.4601	0.0000000E+000	0.0000000E+000	0.0000000E+000	-84.4601	0.0000000E+000	0.0000000E+000	0.0000000E+000	-5.53992	0.0000000E+000	0.0000000E+000	0.0000000E+000	5.53992	10.3101	84.4601	2.48637e-06	6.61856e-08	-7.24841e-11	6.62581e-08	0.239824	867106	949.623	868056
4.63925	17.5545	1.12177	17.5903	-3.65635	13.1585	0.239567	0.000356043	30582.1	124.374	1	11	0.00520996	0.000296183	0	7.41241e-05	-9.06809e-05	5.62378e-05	51.9408	0.189875	0.117053	-0.149503	-3.14917	17.6983	17.6716	0.97227	0.0567337	0.00362541	0.0568494	3.65635	124374	1.94632e+06	1.95029e+06	-86.3436	0.0000000E+000	0.0000000E+000	0.0000000E+000	86.3436	0.0000000E+000	0.0000000E+000	0.0000000E+000	-86.3436	0.0000000E+000	0.0000000E+000	0.0000000E+000	-3.65635	0.0000000E+000	0.0000000E+000	0.0000000E+000	3.65635	15.6489	86.3436	6.79506e-07	8.52961e-08	-3.22863e-11	8.53284e-08	0.239657	672858	254.691	673113
3.1604	17.7895	1.14137	17.826	-3.67106	13.8514	0.239572	0.00124148	44121.7	180.882	1	11	0.00522504	0.000293113	0	7.05207e-05	-9.06809e-05	2.04402e-06	72.1578	0.00697351	0.00213666	-0.00663811	-3.64933	17.8277	17.7916	1.13473	0.0559826	0.00359184	0.0560977	3.67106	180882	2.81924e+06	2.82503e+06	-86.3289	0.0000000E+000	0.0000000E+000	0.0000000E+000	86.3289	0.0000000E+000	0.0000000E+000	0.0000000E+000	-86.3289	0.0000000E+000	0.0000000E+000	0.0000000E+000	-3.67106	0.0000000E+000	0.0000000E+000	0.0000000E+000	3.67106	15.5861	86.3289	-3.60347e-06	2.97424e-07	-1.12579e-10	2.97537e-07	0.239663	192973	73.0426	193046
2.15577	17.9485	0.958697	17.9741	-3.05747	14.8551	0.239576	0.0014927	77008.2	219.08	1	11	0.0052281	0.000290868	0	6.74155e-05	0.000138224	7.08888e-06	59.5625	0.0243715	0.0123465	-0.0210127	-2.98853	17.9854	17.9609	0.937684	0.0555563	0.00296746	0.0556355	3.05747	219081	4.10158e+06	4.10743e+06	-86.9425	0.0000000E+000	0.0000000E+000	0.0000000E+000	86.9425	0.0000000E+000	0.0000000E+000	0.0000000E+000	-86.9425	0.0000000E+000	0.0000000E+000	0.0000000E+000	-3.05747	0.0000000E+000	0.0000000E+000	0.0000000E+000	3.05747	18.7218	86.9425	-3.10515e-06	3.57616e-07	2.06328e-10	3.5741e-07	0.239438	160498	92.5998	160406
1.46631	18.0577	0.889299	18.0796	-2.8194	16.3166	0.239584	0.000590005	122052	295.3	1	11	0.00522177	0.000288821	0	6.9438e-05	6.19225e-05	3.21061e-06	60.7846	0.0111163	0.00542578	-0.00970217	-2.78785	18.0846	18.0632	0.879597	0.055244	0.00272063	0.0553109	2.8194	295300	5.99624e+06	6.00351e+06	-87.1806	0.0000000E+000	0.0000000E+000	0.0000000E+000	87.1806	0.0000000E+000	0.0000000E+000	0.0000000E+000	-87.1806	0.0000000E+000	0.0000000E+000	0.0000000E+000	-2.8194	0.0000000E+000	0.0000000E+000	0.0000000E+000	2.8194	20.3056	87.1806	2.02247e-06	1.41356e-07	3.65346e-11	1.41319e-07	0.239522	406070	104.952	405965
1.00006	18.1929	0.856452	18.2131	-2.69527	19.4916	0.239586	-8.30466e-06	185819	410.893	1	12	0.00522651	0.000286965	0	7.8703e-05	-1.43792e-05	1.94947e-06	69.6231	0.00679341	0.00236543	-0.0063683	-2.67491	18.2151	18.1953	0.850084	0.0548449	0.00258188	0.0549056	2.69527	410893	8.72827e+06	8.73794e+06	-87.3047	0.0000000E+000	0.0000000E+000	0.0000000E+000	87.3047	0.0000000E+000	0.0000000E+000	0.0000000E+000	-87.3047	0.0000000E+000	0.0000000E+000	0.0000000E+000	-2.69527	0.0000000E+000	0.0000000E+000	0.0000000E+000	2.69527	21.2422	87.3047	9.265e-06	-1.98968e-09	1.19415e-13	-1.9898e-09	0.2396	2.88496e+07	1731.46	2.88513e+07
0.681362	18.3	0.912117	18.3228	-2.8534	22.6035	0.239569	-0.00070299	256089	634.616	1	12	0.00522406	0.000285113	0	8.9052e-05	-7.16055e-05	2.27347e-06	-67.9932	0.00797393	0.00298796	0.00739295	-2.87602	18.3261	18.303	0.91951	0.0545093	0.00271687	0.0545769	2.8534	634616	1.27325e+07	1.27483e+07	-87.1466	0.0000000E+000	0.0000000E+000	0.0000000E+000	87.1466	0.0000000E+000	0.0000000E+000	0.0000000E+000	-87.1466	0.0000000E+000	0.0000000E+000	0.0000000E+000	-2.8534	0.0000000E+000	0.0000000E+000	0.0000000E+000	2.8534	20.0632	87.1466	1.0349e-05	-1.68414e-07	5.03379e-11	-1.68465e-07	0.23964	340785	101.859	340887
0.464091	18.4315	1.04569	18.4612	-3.24712	27.159	0.239567	0.000842574	327955	1052.21	1	12	0.00522758	0.000283166	0	9.41219e-05	-0.000300511	7.90227e-07	48.7038	0.00279068	0.00184172	-0.00209666	-3.2403	18.4629	18.4334	1.04359	0.0540808	0.00306821	0.0541677	3.24712	1.05221e+06	1.85464e+07	1.85763e+07	-86.7529	0.0000000E+000	0.0000000E+000	0.0000000E+000	86.7529	0.0000000E+000	0.0000000E+000	0.0000000E+000	-86.7529	0.0000000E+000	0.0000000E+000	0.0000000E+000	-3.24712	0.0000000E+000	0.0000000E+000	0.0000000E+000	3.24712	17.6262	86.7529	5.06986e-06	2.01853e-07	-2.53202e-10	2.02106e-07	0.239868	284328	356.658	284685
0.316193	18.5515	1.3027	18.5972	-4.01676	33.8352	0.239571	0.00194602	386388	1895.91	1	12	0.00522617	0.00028102	0	8.54096e-05	-9.06809e-05	2.22202e-06	-8.94538	0.00790698	0.0078108	0.00122948	-4.01885	18.605	18.5593	1.30393	0.0536396	0.00376661	0.0537717	4.01676	1.89591e+06	2.69993e+07	2.70658e+07	-85.9832	0.0000000E+000	0.0000000E+000	0.0000000E+000	85.9832	0.0000000E+000	0.0000000E+000	0.0000000E+000	-85.9832	0.0000000E+000	0.0000000E+000	0.0000000E+000	-4.01676	0.0000000E+000	0.0000000E+000	0.0000000E+000	4.01676	14.2408	85.9832	-8.71228e-06	4.6621e-07	-1.76467e-10	4.66386e-07	0.239662	123108	46.5982	123155
0.215268	18.6937	1.65784	18.7671	-5.06796	43.6286	0.23957	0.00164976	445964	3480.07	1	12	0.0052267	0.000278503	0	5.59936e-05	-0.000243284	1.67089e-06	35.0297	0.00599953	0.00491274	-0.00344373	-5.05616	18.7717	18.6987	1.65439	0.0530764	0.00470702	0.0532847	5.06796	3.48007e+06	3.92412e+07	3.93952e+07	-84.932	0.0000000E+000	0.0000000E+000	0.0000000E+000	84.932	0.0000000E+000	0.0000000E+000	0.0000000E+000	-84.932	0.0000000E+000	0.0000000E+000	0.0000000E+000	-5.06796	0.0000000E+000	0.0000000E+000	0.0000000E+000	5.06796	11.276	84.932	-2.9416e-05	3.95232e-07	-4.0136e-10	3.95633e-07	0.239813	145215	147.467	145363
0.146929	18.9109	2.13549	19.0311	-6.44274	57.967	0.239569	-0.000103027	507243	6386.77	1	12	0.00522708	0.00027466	0	6.46636e-06	-7.16055e-05	2.77377e-06	9.79112	0.0100989	0.00995182	-0.00171739	-6.43425	19.0408	18.9209	2.13377	0.0522137	0.00589615	0.0525455	6.44274	6.38677e+06	5.65585e+07	5.69179e+07	-83.5573	0.0000000E+000	0.0000000E+000	0.0000000E+000	83.5573	0.0000000E+000	0.0000000E+000	0.0000000E+000	-83.5573	0.0000000E+000	0.0000000E+000	0.0000000E+000	-6.44274	0.0000000E+000	0.0000000E+000	0.0000000E+000	6.44274	8.85556	83.5573	-4.95272e-05	-2.4682e-08	7.37728e-12	-2.46894e-08	0.23964	2.32531e+06	695.018	2.326e+06
0.0999041	19.2635	2.86526	19.4754	-8.46015	79.0441	0.239568	-0.00197857	555998	12034.4	1	12	0.00522577	0.000268326	0	-4.45678e-05	-0.000319586	2.13743e-06	-7.53547	0.00796577	0.00789698	0.00104463	-8.45978	19.4834	19.2714	2.8663	0.050788	0.00755421	0.0513467	8.46015	1.20344e+07	8.09092e+07	8.17993e+07	-81.5398	0.0000000E+000	0.0000000E+000	0.0000000E+000	81.5398	0.0000000E+000	0.0000000E+000	0.0000000E+000	-81.5398	0.0000000E+000	0.0000000E+000	0.0000000E+000	-8.46015	0.0000000E+000	0.0000000E+000	0.0000000E+000	8.46015	6.72314	81.5398	-5.10342e-05	-4.74001e-07	6.32322e-10	-4.74633e-07	0.239887	121082	161.524	121243
0.0680626	19.688	3.91525	20.0735	-11.2474	109.972	0.239573	-0.00286236	597244	22720.8	1	12	0.00522826	0.000260455	0	-6.68315e-05	-3.34546e-05	2.80425e-06	19.7624	0.0107667	0.0101326	-0.00364045	-11.2316	20.0828	19.6982	3.91161	0.04886	0.00971654	0.0498168	11.2474	2.27208e+07	1.14252e+08	1.1649e+08	-78.7526	0.0000000E+000	0.0000000E+000	0.0000000E+000	78.7526	0.0000000E+000	0.0000000E+000	0.0000000E+000	-78.7526	0.0000000E+000	0.0000000E+000	0.0000000E+000	-11.2474	0.0000000E+000	0.0000000E+000	0.0000000E+000	11.2474	5.02854	78.7526	-2.22637e-05	-6.85744e-07	9.57592e-11	-6.8584e-07	0.239607	83697.9	11.6878	83709.6
0.0464052	20.1192	5.29946	20.8055	-14.7567	155.323	0.23957	-0.00263092	647175	41988.4	1	12	0.00522639	0.000251202	0	4.89624e-06	-0.000243284	2.30992e-06	12.8796	0.00919546	0.00896411	-0.00204969	-14.7449	20.8136	20.1282	5.29741	0.0464789	0.0122427	0.0480642	14.7567	4.19884e+07	1.59408e+08	1.64845e+08	-75.2433	0.0000000E+000	0.0000000E+000	0.0000000E+000	75.2433	0.0000000E+000	0.0000000E+000	0.0000000E+000	-75.2433	0.0000000E+000	0.0000000E+000	0.0000000E+000	-14.7567	0.0000000E+000	0.0000000E+000	0.0000000E+000	14.7567	3.79647	75.2433	7.17277e-05	-6.30288e-07	6.40062e-10	-6.30928e-07	0.239813	91059.2	92.4712	91151.7
0.0315922	20.824	7.00852	21.9717	-18.6012	221.929	0.239568	-0.00196574	718810	73137	1	12	0.00522533	0.00023782	0	0.000190665	8.09979e-05	2.57382e-06	-23.4881	0.0108226	0.00992583	0.00431343	-18.6036	21.9825	20.8339	7.01283	0.0431355	0.0145177	0.045513	18.6012	7.3137e+07	2.17308e+08	2.29285e+08	-71.3988	0.0000000E+000	0.0000000E+000	0.0000000E+000	71.3988	0.0000000E+000	0.0000000E+000	0.0000000E+000	-71.3988	0.0000000E+000	0.0000000E+000	0.0000000E+000	-18.6012	0.0000000E+000	0.0000000E+000	0.0000000E+000	18.6012	2.97124	71.3988	0.000185768	-4.70928e-07	-1.5922e-10	-4.70769e-07	0.239487	121872	41.2049	121831
0.0215268	22.037	9.44197	23.9746	-23.1932	319.666	0.239566	-0.00124351	783030	121451	1	12	0.00522392	0.000217894	0	0.00040325	0.000138224	1.12499e-06	4.51847	0.00516301	0.00514696	-0.000406744	-23.1874	23.9792	22.0422	9.44156	0.0383398	0.0164271	0.0417108	23.1932	1.21451e+08	2.8346e+08	3.08382e+08	-66.8068	0.0000000E+000	0.0000000E+000	0.0000000E+000	66.8068	0.0000000E+000	0.0000000E+000	0.0000000E+000	-66.8068	0.0000000E+000	0.0000000E+000	0.0000000E+000	-23.1932	0.0000000E+000	0.0000000E+000	0.0000000E+000	23.1932	2.33394	66.8068	0.000212585	-2.97902e-07	-1.71883e-10	-2.9773e-07	0.239428	192654	111.157	192543
0.0146812	23.6028	12.897	26.8966	-28.6529	462.969	0.239567	-0.000882515	840566	193265	1	12	0.00522795	0.000194372	0	0.00043576	0.0001573	1.7098e-06	23.8273	0.00879651	0.00804676	-0.00355363	-28.638	26.9019	23.6109	12.8934	0.0326265	0.0178276	0.0371795	28.6529	1.93265e+08	3.53696e+08	4.03053e+08	-61.3471	0.0000000E+000	0.0000000E+000	0.0000000E+000	61.3471	0.0000000E+000	0.0000000E+000	0.0000000E+000	-61.3471	0.0000000E+000	0.0000000E+000	0.0000000E+000	-28.6529	0.0000000E+000	0.0000000E+000	0.0000000E+000	28.6529	1.83011	61.3471	3.25099e-05	-2.11421e-07	-1.38819e-10	-2.11282e-07	0.239409	271459	178.24	271281
0.0100092	25.4816	17.144	30.7121	-33.9326	673.152	0.239566	-0.00127859	927492	289012	1	12	0.00522819	0.000170233	0	7.94927e-05	2.37716e-05	1.54083e-06	36.7001	0.00905133	0.00725713	-0.00540931	-33.9167	30.7151	25.4889	17.1386	0.0270153	0.0181758	0.0325605	33.9326	2.89012e+08	4.29568e+08	5.17742e+08	-56.0674	0.0000000E+000	0.0000000E+000	0.0000000E+000	56.0674	0.0000000E+000	0.0000000E+000	0.0000000E+000	-56.0674	0.0000000E+000	0.0000000E+000	0.0000000E+000	-33.9326	0.0000000E+000	0.0000000E+000	0.0000000E+000	33.9326	1.48633	56.0674	-0.000356267	-3.06308e-07	-3.03942e-11	-3.06278e-07	0.239543	187367	18.592	187349