File: txt/19010_R308_UA709_SOC00_C06.mpt
EC-Lab ASCII FILE
Nb header lines : 66

Potentio Electrochemical Impedance Spectroscopy

Run on channel : 6 (SN 65795)
Grouped channel(s) : 6, 7, 8
User :
CE vs. WE compliance from -10 V to 10 V
Electrode connection : standard
Potential control : Ewe
Ewe ctrl range : min = -10.00 V, max = 10.00 V
Safety Limits :
	Do not start on E overload
Acquisition started on : 11/04/2025 16:28:53.021
Technique started on : 11/04/2025 16:28:54.890
Loaded Setting File :  C:\Users\Celltest\OneDrive - store-dot.com\Documents\EC-Lab\Data\@Biologic Test Protocols\anode half cell EIS SOC00.mps
Saved on :
	File : 19010_R308_UA709_SOC00_C06.mpr
	Directory : C:\Users\Celltest\OneDrive - store-dot.com\Documents\EC-Lab\Data\Charmaine\
	Host : 169.254.61.224
Device : VMP-3e (SN .003165)
Address : USB
EC-LAB for windows v11.62 (software)
Internet server v27.00 (firmware)
Command interpretor v12.03 (firmware)
Electrode material :
Initial state :
Electrolyte :
Comments :
Electrode surface area : 0.001 cm²
Characteristic mass : 0.001 g
Equivalent Weight : 0.000 g/eq.
Density : 0.000 g/cm3
Volume (V) : 0.001 cm³
Record Ece
Cycle Definition : Charge/Discharge alternance
Mode                Single sine
E (V)               0.0000
vs.                 Eoc
tE (h:m:s)          0:00:0.0000
record              0
dI                  0.000
unit dI             mA
dt (s)              0.000
fi                  100.000
unit fi             kHz
ff                  10.000
unit ff             mHz
Nd                  6
Points              per decade
spacing             Logarithmic
Va (mV)             5.0
pw                  0.10
Na                  2
corr                0
E range min (V)     -10.000
E range max (V)     10.000
I Range             Auto
Bandwidth           5
nc cycles           0
goto Ns'            0
nr cycles           0
inc. cycle          0

freq/Hz	Re(Z)/Ohm	-Im(Z)/Ohm	|Z|/Ohm	Phase(Z)/deg	time/s	<Ewe>/V	<I>/mA	Cs/µF	Cp/µF	cycle number	I Range	|Ewe|/V	|I|/A	Ns	(Q-Qo)/mA.h	<Ece>/V	|Ece|/V	Phase(Zce)/deg	|Zce|/Ohm	Re(Zce)/Ohm	-Im(Zce)/Ohm	Phase(Zwe-ce)/deg	|Zwe-ce|/Ohm	Re(Zwe-ce)/Ohm	-Im(Zwe-ce)/Ohm	Re(Y)/Ohm-1	Im(Y)/Ohm-1	|Y|/Ohm-1	Phase(Y)/deg	Re(C)/nF	Im(C)/nF	|C|/nF	Phase(C)/deg	Re(M)	Im(M)	|M|	Phase(M)/deg	Re(Permittivity)	Im(Permittivity)	|Permittivity|	Phase(Permittivity)/deg	Re(Resistivity)/Ohm.cm	Im(Resistivity)/Ohm.cm	|Resistivity|/Ohm.cm	Phase(Resistivity)/deg	Re(Conductivity)/mS/cm	Im(Conductivity)/mS/cm	|Conductivity|/mS/cm	Phase(Conductivity)/deg	Tan(Delta)	Loss Angle(Delta)/deg	dq/mA.h	Pwe/W	Pce/W	Pwe-ce/W	<Ewe-Ece>/V	Rwe/Ohm	Rce/Ohm	Rwe-ce/Ohm		Ewe-Ece/V
100004	1.94816	0.876049	2.13607	-24.2125	1.86856	0.2478	0.0491258	1.81667	0.305564	1	9	0.00492084	0.00230369	0	5.02489e-06	0.000195492	3.85946e-05	51.1238	0.0167534	0.0105151	-0.0130426	-23.7786	2.14037	1.95867	0.863006	0.426967	0.191999	0.46815	24.2125	305.564	679.514	745.056	-65.7875	0.0000000E+000	0.0000000E+000	0.0000000E+000	65.7875	0.0000000E+000	0.0000000E+000	0.0000000E+000	-65.7875	0.0000000E+000	0.0000000E+000	0.0000000E+000	-24.2125	0.0000000E+000	0.0000000E+000	0.0000000E+000	24.2125	2.2238	65.7875	5.02489e-06	1.21734e-05	9.60369e-09	1.21638e-05	0.247604	5044.19	3.97941	5040.21
68132	2.20055	0.989229	2.41267	-24.2057	2.25352	0.247797	0.0480083	2.36141	0.39698	1	9	0.00541547	0.00224459	0	8.78284e-06	6.18054e-05	3.07368e-05	46.2497	0.0136937	0.00946945	-0.00989181	-23.8998	2.41729	2.21002	0.979337	0.378037	0.169942	0.414478	24.2057	396.98	883.085	968.211	-65.7943	0.0000000E+000	0.0000000E+000	0.0000000E+000	65.7943	0.0000000E+000	0.0000000E+000	0.0000000E+000	-65.7943	0.0000000E+000	0.0000000E+000	0.0000000E+000	-24.2057	0.0000000E+000	0.0000000E+000	0.0000000E+000	24.2057	2.22451	65.7943	3.75795e-06	1.18963e-05	2.96717e-09	1.18933e-05	0.247735	5161.54	1.28739	5160.25
46420.4	2.48393	1.05259	2.69775	-22.9653	2.63652	0.247783	0.0452891	3.25725	0.495869	1	9	0.00541517	0.00200729	0	1.914e-05	0.000386472	1.83126e-05	0.0522356	0.00912307	0.00912307	-8.31735e-06	-22.8898	2.70615	2.49306	1.05258	0.341299	0.144629	0.370679	22.9653	495.869	1170.16	1270.89	-67.0347	0.0000000E+000	0.0000000E+000	0.0000000E+000	67.0347	0.0000000E+000	0.0000000E+000	0.0000000E+000	-67.0347	0.0000000E+000	0.0000000E+000	0.0000000E+000	-22.9653	0.0000000E+000	0.0000000E+000	0.0000000E+000	22.9653	2.35983	67.0347	1.03571e-05	1.12219e-05	1.7503e-08	1.12044e-05	0.247397	5471.14	8.53345	5462.61
31621.1	2.77893	1.11181	2.99309	-21.8055	3.01856	0.247777	0.0380626	4.52704	0.624643	1	9	0.0053906	0.00180102	0	2.33364e-05	0.0001191	8.77266e-06	49.9496	0.00487095	0.00313427	-0.00372861	-21.717	2.99462	2.78207	1.10808	0.310198	0.124105	0.334103	21.8055	624.643	1561.28	1681.6	-68.1945	0.0000000E+000	0.0000000E+000	0.0000000E+000	68.1945	0.0000000E+000	0.0000000E+000	0.0000000E+000	-68.1945	0.0000000E+000	0.0000000E+000	0.0000000E+000	-21.8055	0.0000000E+000	0.0000000E+000	0.0000000E+000	21.8055	2.49948	68.1945	4.19643e-06	9.43105e-06	4.53324e-09	9.42652e-06	0.247658	6509.74	3.12904	6506.61
21544.7	3.06899	1.13372	3.2717	-20.2748	3.40153	0.247754	0.0120994	6.5159	0.782417	1	9	0.00536723	0.0016405	0	3.0218e-05	6.18054e-05	8.95968e-06	38.9052	0.00546155	0.0042501	-0.00343004	-20.1927	3.2745	3.07324	1.13029	0.286714	0.105915	0.305651	20.2748	782.417	2118.01	2257.91	-69.7252	0.0000000E+000	0.0000000E+000	0.0000000E+000	69.7252	0.0000000E+000	0.0000000E+000	0.0000000E+000	-69.7252	0.0000000E+000	0.0000000E+000	0.0000000E+000	-20.2748	0.0000000E+000	0.0000000E+000	0.0000000E+000	20.2748	2.70701	69.7252	6.88155e-06	2.99766e-06	7.47807e-10	2.99692e-06	0.247692	20476.6	5.10815	20471.4
14678.6	3.34784	1.14304	3.5376	-18.8512	3.78452	0.247786	0.0306498	9.48581	0.990331	1	9	0.00534834	0.00151186	0	3.66278e-05	0.000138198	9.81592e-06	-69.2975	0.00649262	0.00229525	0.00607338	-18.9322	3.54173	3.35014	1.14911	0.267515	0.0913366	0.282678	18.8512	990.332	2900.58	3064.98	-71.1488	0.0000000E+000	0.0000000E+000	0.0000000E+000	71.1488	0.0000000E+000	0.0000000E+000	0.0000000E+000	-71.1488	0.0000000E+000	0.0000000E+000	0.0000000E+000	-18.8512	0.0000000E+000	0.0000000E+000	0.0000000E+000	18.8512	2.92889	71.1488	6.40984e-06	7.59459e-06	4.23573e-09	7.59036e-06	0.247647	8084.4	4.50891	8079.89
10002.2	3.62945	1.16211	3.81096	-17.7545	4.16953	0.247781	0.0249506	13.6923	1.27322	1	9	0.00523214	0.00137292	0	3.8506e-05	0.00021459	7.85887e-06	-62.7212	0.0057242	0.00262352	0.00508759	-17.8153	3.81501	3.63207	1.1672	0.249903	0.0800166	0.262401	17.7545	1273.22	3976.45	4175.31	-72.2455	0.0000000E+000	0.0000000E+000	0.0000000E+000	72.2455	0.0000000E+000	0.0000000E+000	0.0000000E+000	-72.2455	0.0000000E+000	0.0000000E+000	0.0000000E+000	-17.7545	0.0000000E+000	0.0000000E+000	0.0000000E+000	17.7545	3.12315	72.2455	1.87819e-06	6.18228e-06	5.35414e-09	6.17692e-06	0.247566	9930.84	8.60058	9922.24
6810.42	3.88119	1.19638	4.0614	-17.1319	4.55156	0.247786	0.0379881	19.5334	1.69498	1	9	0.00502585	0.00123747	0	4.15814e-05	0.000157296	1.75849e-05	-25.6142	0.0142104	0.0128139	0.00614329	-17.1614	4.07545	3.894	1.20252	0.235296	0.07253	0.246221	17.1319	1694.98	5498.7	5754.01	-72.8681	0.0000000E+000	0.0000000E+000	0.0000000E+000	72.8681	0.0000000E+000	0.0000000E+000	0.0000000E+000	-72.8681	0.0000000E+000	0.0000000E+000	0.0000000E+000	-17.1319	0.0000000E+000	0.0000000E+000	0.0000000E+000	17.1319	3.24412	72.8681	3.07545e-06	9.4129e-06	5.97536e-09	9.40692e-06	0.247628	6522.72	4.14066	6518.58
4646	4.14234	1.24117	4.32429	-16.6797	4.9746	0.24776	-0.0138038	27.6001	2.27374	1	10	0.00517319	0.00119631	0	4.1964e-05	6.18054e-05	1.10471e-05	-61.7395	0.00923432	0.00437228	0.00813362	-16.7662	4.33082	4.14671	1.2493	0.221522	0.0663743	0.231252	16.6797	2273.74	7588.52	7921.84	-73.3203	0.0000000E+000	0.0000000E+000	0.0000000E+000	73.3203	0.0000000E+000	0.0000000E+000	0.0000000E+000	-73.3203	0.0000000E+000	0.0000000E+000	0.0000000E+000	-16.6797	0.0000000E+000	0.0000000E+000	0.0000000E+000	16.6797	3.33746	73.3203	3.82547e-07	-3.42004e-06	-8.53151e-10	-3.41919e-06	0.247698	17948.7	4.47741	17944.2
3163.08	4.3967	1.3338	4.59456	-16.8759	5.52563	0.24772	-0.0158721	37.7241	3.17917	1	10	0.00516321	0.00112377	0	4.07212e-05	0.000252786	6.88396e-06	15.3724	0.00612579	0.00590663	-0.00162389	-16.8352	4.59974	4.4026	1.33218	0.208276	0.0631835	0.217649	16.8759	3179.17	10479.7	10951.3	-73.1241	0.0000000E+000	0.0000000E+000	0.0000000E+000	73.1241	0.0000000E+000	0.0000000E+000	0.0000000E+000	-73.1241	0.0000000E+000	0.0000000E+000	0.0000000E+000	-16.8759	0.0000000E+000	0.0000000E+000	0.0000000E+000	16.8759	3.29637	73.1241	-1.24279e-06	-3.93184e-06	-4.01223e-09	-3.92782e-06	0.247468	15607.3	15.9264	15591.4
2155.69	4.66393	1.47409	4.89134	-17.5398	5.97678	0.247745	-0.010789	50.0852	4.54887	1	10	0.00525937	0.00107524	0	3.9825e-05	0.000176394	5.36583e-06	29.1448	0.00499035	0.00435853	-0.00243039	-17.4973	4.89476	4.66829	1.47166	0.194938	0.0616126	0.204443	17.5398	4548.87	14392.3	15094.1	-72.4602	0.0000000E+000	0.0000000E+000	0.0000000E+000	72.4602	0.0000000E+000	0.0000000E+000	0.0000000E+000	-72.4602	0.0000000E+000	0.0000000E+000	0.0000000E+000	-17.5398	0.0000000E+000	0.0000000E+000	0.0000000E+000	17.5398	3.16393	72.4602	-8.96191e-07	-2.67293e-06	-1.90312e-09	-2.67102e-06	0.247568	22962.6	16.3493	22946.3
1468.59	4.94213	1.68572	5.22172	-18.8341	6.42805	0.247746	-0.0104686	64.2885	6.70008	1	10	0.00524524	0.00100451	0	3.92055e-05	0.000195492	4.60705e-06	-1.53505	0.00458639	0.00458474	0.000122863	-18.8192	5.22609	4.94671	1.68585	0.181254	0.0618244	0.191508	18.8341	6700.08	19643	20754.2	-71.1659	0.0000000E+000	0.0000000E+000	0.0000000E+000	71.1659	0.0000000E+000	0.0000000E+000	0.0000000E+000	-71.1659	0.0000000E+000	0.0000000E+000	0.0000000E+000	-18.8341	0.0000000E+000	0.0000000E+000	0.0000000E+000	18.8341	2.93175	71.1659	-6.19486e-07	-2.59355e-06	-2.04652e-09	-2.5915e-06	0.247551	23665.7	18.6742	23647.1
1000.32	5.27972	1.961	5.63214	-20.376	6.87881	0.247742	-0.0100326	81.1342	9.83584	1	10	0.00521128	0.000925275	0	3.7166e-05	0.000271884	6.01963e-06	-78.4116	0.00650578	0.00130687	0.00637317	-20.4321	5.63559	5.28103	1.96737	0.166443	0.0618202	0.177552	20.376	9835.84	26481.7	28249.3	-69.624	0.0000000E+000	0.0000000E+000	0.0000000E+000	69.624	0.0000000E+000	0.0000000E+000	0.0000000E+000	-69.624	0.0000000E+000	0.0000000E+000	0.0000000E+000	-20.376	0.0000000E+000	0.0000000E+000	0.0000000E+000	20.376	2.69237	69.624	-2.03953e-06	-2.48549e-06	-2.72769e-09	-2.48276e-06	0.24747	24693.8	27.1002	24666.7
681.09	5.67125	2.35735	6.14168	-22.571	7.3296	0.247749	-0.0105058	99.127	14.6038	1	10	0.00516847	0.000841541	0	3.65996e-05	-1.45868e-05	9.68085e-06	-4.46422	0.0115037	0.0114688	0.000895409	-22.5377	6.15261	5.68272	2.35824	0.150351	0.0624957	0.162822	22.571	14603.8	35133.5	38047.7	-67.429	0.0000000E+000	0.0000000E+000	0.0000000E+000	67.429	0.0000000E+000	0.0000000E+000	0.0000000E+000	-67.429	0.0000000E+000	0.0000000E+000	0.0000000E+000	-22.571	0.0000000E+000	0.0000000E+000	0.0000000E+000	22.571	2.40577	67.429	-5.66398e-07	-2.60281e-06	1.53246e-10	-2.60297e-06	0.247764	23582.1	1.38844	23583.5
463.961	6.18833	2.85257	6.81415	-24.7478	7.78133	0.247743	-0.00969717	120.255	21.0742	1	10	0.00514366	0.00075485	0	3.50142e-05	-9.09789e-05	1.11111e-05	-20.4771	0.0147197	0.0137896	0.00514941	-24.7386	6.82883	6.20212	2.85772	0.133276	0.0614346	0.146753	24.7478	21074.2	45718.2	50341.6	-65.2522	0.0000000E+000	0.0000000E+000	0.0000000E+000	65.2522	0.0000000E+000	0.0000000E+000	0.0000000E+000	-65.2522	0.0000000E+000	0.0000000E+000	0.0000000E+000	-24.7478	0.0000000E+000	0.0000000E+000	0.0000000E+000	24.7478	2.16939	65.2522	-1.58544e-06	-2.40241e-06	8.82238e-10	-2.40329e-06	0.247834	25548	9.382	25557.4
316.316	6.87226	3.46464	7.69621	-26.7549	8.22901	0.247734	-0.009686	145.225	29.4309	1	10	0.00511125	0.000664126	0	3.43247e-05	0.000233688	6.34982e-06	-90.5438	0.00956116	-9.07415e-05	0.00956073	-26.8187	7.70044	6.87217	3.4742	0.116023	0.058493	0.129934	26.7549	29430.9	58377.4	65376.6	-63.2451	0.0000000E+000	0.0000000E+000	0.0000000E+000	63.2451	0.0000000E+000	0.0000000E+000	0.0000000E+000	-63.2451	0.0000000E+000	0.0000000E+000	0.0000000E+000	-26.7549	0.0000000E+000	0.0000000E+000	0.0000000E+000	26.7549	1.98354	63.2451	-6.89407e-07	-2.39955e-06	-2.2635e-09	-2.39728e-06	0.2475	25576.5	24.1263	25552.3
215.345	7.82253	4.12258	8.84238	-27.7899	8.6786	0.247742	-0.00927235	179.274	38.9689	1	10	0.00509001	0.000575638	0	3.29467e-05	-1.45868e-05	7.5971e-06	133.49	0.0131977	-0.009083	-0.00957489	-27.7624	8.82988	7.81344	4.11301	0.100048	0.0527268	0.113092	27.7899	38968.9	73942.7	83582.9	-62.2101	0.0000000E+000	0.0000000E+000	0.0000000E+000	62.2101	0.0000000E+000	0.0000000E+000	0.0000000E+000	-62.2101	0.0000000E+000	0.0000000E+000	0.0000000E+000	-27.7899	0.0000000E+000	0.0000000E+000	0.0000000E+000	27.7899	1.89748	62.2101	-1.37804e-06	-2.29715e-06	1.35254e-10	-2.29729e-06	0.247756	26718.3	1.57315	26719.9
146.737	9.02493	4.74444	10.196	-27.7311	9.12546	0.247735	-0.00957793	228.609	49.4996	1	10	0.00507266	0.000497513	0	3.11177e-05	-0.000167371	1.02251e-05	2.65066	0.0205524	0.0205304	-0.00095047	-27.6728	10.2138	9.04546	4.74349	0.0868123	0.0456375	0.0980773	27.7311	49499.6	94158.7	106377	-62.2689	0.0000000E+000	0.0000000E+000	0.0000000E+000	62.2689	0.0000000E+000	0.0000000E+000	0.0000000E+000	-62.2689	0.0000000E+000	0.0000000E+000	0.0000000E+000	-27.7311	0.0000000E+000	0.0000000E+000	0.0000000E+000	27.7311	1.90221	62.2689	-1.82905e-06	-2.37279e-06	1.60307e-09	-2.3744e-06	0.247903	25865.2	17.4747	25882.7
100.032	10.557	5.20593	11.7708	-26.2491	9.57581	0.247757	-0.00928726	305.621	59.7815	1	10	0.00507076	0.000430791	0	3.05722e-05	0.000157296	5.78869e-06	-49.6291	0.0134373	0.00870382	0.0102375	-26.275	11.7831	10.5657	5.21617	0.0761952	0.0375738	0.0849559	26.2491	59781.5	121230	135168	-63.7509	0.0000000E+000	0.0000000E+000	0.0000000E+000	63.7509	0.0000000E+000	0.0000000E+000	0.0000000E+000	-63.7509	0.0000000E+000	0.0000000E+000	0.0000000E+000	-26.2491	0.0000000E+000	0.0000000E+000	0.0000000E+000	26.2491	2.02788	63.7509	-5.45498e-07	-2.30098e-06	-1.46084e-09	-2.29952e-06	0.2476	26677.1	16.9367	26660.1
68.104	12.2313	5.35209	13.351	-23.6329	10.0385	0.247762	-0.00700661	436.641	70.1686	1	10	0.00506561	0.000379418	0	2.9999e-05	-7.18809e-05	8.41683e-06	77.8303	0.0221835	0.00467647	-0.021685	-23.5396	13.3466	12.236	5.3304	0.068619	0.0300258	0.0749007	23.6329	70168.6	160358	175039	-66.3671	0.0000000E+000	0.0000000E+000	0.0000000E+000	66.3671	0.0000000E+000	0.0000000E+000	0.0000000E+000	-66.3671	0.0000000E+000	0.0000000E+000	0.0000000E+000	-23.6329	0.0000000E+000	0.0000000E+000	0.0000000E+000	23.6329	2.28533	66.3671	-5.73141e-07	-1.73597e-06	5.03641e-10	-1.73647e-06	0.247834	35361.2	10.259	35371.4
46.4415	13.9008	5.08068	14.8001	-20.0772	10.4736	0.247753	-0.0094326	674.515	79.4883	1	10	0.00506502	0.000342227	0	2.87134e-05	0.000271884	7.38335e-06	10.4695	0.0215744	0.0212152	-0.00392033	-20.0348	14.8187	13.922	5.07676	0.0634609	0.0231948	0.0675669	20.0772	79488.3	217480	231551	-69.9228	0.0000000E+000	0.0000000E+000	0.0000000E+000	69.9228	0.0000000E+000	0.0000000E+000	0.0000000E+000	-69.9228	0.0000000E+000	0.0000000E+000	0.0000000E+000	-20.0772	0.0000000E+000	0.0000000E+000	0.0000000E+000	20.0772	2.736	69.9228	-1.28559e-06	-2.33696e-06	-2.56457e-09	-2.33439e-06	0.247481	26265.6	28.8238	26236.8
31.6296	15.3564	4.5335	16.0116	-16.4476	10.9046	0.247743	-0.0102264	1109.93	88.98	1	10	0.00505548	0.000315739	0	2.77731e-05	-3.36848e-05	3.2946e-06	-49.6156	0.0104346	0.00676068	0.00794817	-16.468	16.0203	15.3631	4.54145	0.0598991	0.0176834	0.0624548	16.4476	88980	301403	314263	-73.5524	0.0000000E+000	0.0000000E+000	0.0000000E+000	73.5524	0.0000000E+000	0.0000000E+000	0.0000000E+000	-73.5524	0.0000000E+000	0.0000000E+000	0.0000000E+000	-16.4476	0.0000000E+000	0.0000000E+000	0.0000000E+000	16.4476	3.38731	73.5524	-9.40306e-07	-2.53351e-06	3.44473e-10	-2.53385e-06	0.247777	24226	3.29392	24229.2
21.5517	16.533	3.86144	16.978	-13.1463	11.5575	0.247759	-0.00943887	1912.44	98.927	1	11	0.00505665	0.000297835	0	2.68477e-05	-0.000110077	9.86323e-06	-47.452	0.0331164	0.0223936	0.0243972	-13.2092	17.0054	16.5554	3.88584	0.0573561	0.013396	0.0588998	13.1463	98927	423563	434962	-76.8537	0.0000000E+000	0.0000000E+000	0.0000000E+000	76.8537	0.0000000E+000	0.0000000E+000	0.0000000E+000	-76.8537	0.0000000E+000	0.0000000E+000	0.0000000E+000	-13.1463	0.0000000E+000	0.0000000E+000	0.0000000E+000	13.1463	4.28157	76.8537	-9.25407e-07	-2.33856e-06	1.039e-09	-2.3396e-06	0.247869	26248.8	11.6621	26260.4
14.6852	17.364	3.16581	17.6502	-10.3327	12.0181	0.247767	-0.00887257	3423.4	110.135	1	11	0.00505508	0.000286403	0	2.71038e-05	0.00031008	7.68736e-06	80.0965	0.026841	0.00461638	-0.0264411	-10.2456	17.6501	17.3686	3.13937	0.0557377	0.0101621	0.0566565	10.3327	110135	604074	614032	-79.6673	0.0000000E+000	0.0000000E+000	0.0000000E+000	79.6673	0.0000000E+000	0.0000000E+000	0.0000000E+000	-79.6673	0.0000000E+000	0.0000000E+000	0.0000000E+000	-10.3327	0.0000000E+000	0.0000000E+000	0.0000000E+000	10.3327	5.48486	79.6673	2.56083e-07	-2.19833e-06	-2.7512e-09	-2.19558e-06	0.247457	27925.1	34.9482	27890.1
10.0032	17.9765	2.5733	18.1597	-8.14645	12.4688	0.247762	-0.00877744	6182.87	124.152	1	11	0.00505791	0.000278523	0	2.5397e-05	0.000271884	7.56229e-06	23.7453	0.0271514	0.0248528	-0.0109331	-8.10125	18.1828	18.0013	2.56237	0.0545112	0.00780319	0.0550669	8.14645	124152	867295	876136	-81.8535	0.0000000E+000	0.0000000E+000	0.0000000E+000	81.8535	0.0000000E+000	0.0000000E+000	0.0000000E+000	-81.8535	0.0000000E+000	0.0000000E+000	0.0000000E+000	-8.14645	0.0000000E+000	0.0000000E+000	0.0000000E+000	8.14645	6.98576	81.8535	-1.70682e-06	-2.17472e-06	-2.38644e-09	-2.17233e-06	0.24749	28227.2	30.9753	28196.2
6.81719	18.4322	2.06264	18.5473	-6.38508	12.8085	0.247769	-0.00857375	11318.5	139.984	1	11	0.00506187	0.000272917	0	2.63786e-05	4.51128e-06	9.20933e-06	-125.087	0.0337441	-0.0193969	0.027612	-6.47659	18.5311	18.4128	2.09026	0.0535819	0.00599604	0.0539163	6.38508	139984	1.25093e+06	1.25874e+06	-83.6149	0.0000000E+000	0.0000000E+000	0.0000000E+000	83.6149	0.0000000E+000	0.0000000E+000	0.0000000E+000	-83.6149	0.0000000E+000	0.0000000E+000	0.0000000E+000	-6.38508	0.0000000E+000	0.0000000E+000	0.0000000E+000	6.38508	8.93621	83.6149	9.81611e-07	-2.12431e-06	-3.86786e-11	-2.12427e-06	0.247765	28898.6	0.526174	28898.1
4.63925	18.7105	1.71049	18.7885	-5.22338	13.2935	0.247794	-0.0074997	20056.4	166.229	1	11	0.00504247	0.000268381	0	2.26108e-05	0.000138198	6.61884e-05	89.5207	0.246621	0.00206311	-0.246613	-4.47311	18.7697	18.7125	1.46387	0.053003	0.00484547	0.0532241	5.22338	166229	1.81833e+06	1.82591e+06	-84.7766	0.0000000E+000	0.0000000E+000	0.0000000E+000	84.7766	0.0000000E+000	0.0000000E+000	0.0000000E+000	-84.7766	0.0000000E+000	0.0000000E+000	0.0000000E+000	-5.22338	0.0000000E+000	0.0000000E+000	0.0000000E+000	5.22338	10.9387	84.7766	-3.76776e-06	-1.85838e-06	-1.03644e-09	-1.85735e-06	0.247656	33040.5	18.4271	33022.1
3.1604	19.0121	1.36374	19.061	-4.10279	13.9865	0.247773	-0.00742136	36927.3	189.025	1	11	0.00506031	0.00026548	0	1.91076e-05	0.000138198	6.93751e-06	-97.7069	0.026132	-0.00350445	0.0258959	-4.18119	19.0593	19.0086	1.38963	0.0523288	0.00375354	0.0524632	4.10279	189025	2.63523e+06	2.642e+06	-85.8972	0.0000000E+000	0.0000000E+000	0.0000000E+000	85.8972	0.0000000E+000	0.0000000E+000	0.0000000E+000	-85.8972	0.0000000E+000	0.0000000E+000	0.0000000E+000	-4.10279	0.0000000E+000	0.0000000E+000	0.0000000E+000	4.10279	13.9412	85.8972	-3.50322e-06	-1.83882e-06	-1.02561e-09	-1.83779e-06	0.247635	33386.5	18.6216	33367.9
2.15577	19.2004	1.19612	19.2376	-3.56473	14.9901	0.247782	-0.0072214	61722.5	238.611	1	11	0.00505891	0.00026297	0	1.96637e-05	0.000157296	3.15211e-06	8.93482	0.0119866	0.0118412	-0.00186165	-3.55701	19.2493	19.2122	1.19426	0.0518809	0.00323201	0.0519815	3.56473	238611	3.83024e+06	3.83766e+06	-86.4353	0.0000000E+000	0.0000000E+000	0.0000000E+000	86.4353	0.0000000E+000	0.0000000E+000	0.0000000E+000	-86.4353	0.0000000E+000	0.0000000E+000	0.0000000E+000	-3.56473	0.0000000E+000	0.0000000E+000	0.0000000E+000	3.56473	16.0522	86.4353	5.56073e-07	-1.78934e-06	-1.13589e-09	-1.7882e-06	0.247625	34312.2	21.7819	34290.4
1.46631	19.3595	1.05668	19.3883	-3.12422	16.4515	0.24778	-0.00685934	102719	305.112	1	11	0.00506096	0.000261032	0	2.30417e-05	6.18054e-05	3.48762e-06	68.1003	0.0133609	0.00498338	-0.0123967	-3.08685	19.3926	19.3644	1.04428	0.0515009	0.00281102	0.0515776	3.12422	305112	5.58997e+06	5.59829e+06	-86.8758	0.0000000E+000	0.0000000E+000	0.0000000E+000	86.8758	0.0000000E+000	0.0000000E+000	0.0000000E+000	-86.8758	0.0000000E+000	0.0000000E+000	0.0000000E+000	-3.12422	0.0000000E+000	0.0000000E+000	0.0000000E+000	3.12422	18.321	86.8758	3.37806e-06	-1.69961e-06	-4.23944e-10	-1.69919e-06	0.247719	36123.1	9.0104	36114.1
1.00006	19.5073	0.989103	19.5324	-2.90265	19.625	0.247767	-0.00659192	160898	412.594	1	12	0.00506133	0.000259125	0	2.2949e-05	6.18054e-05	3.0676e-06	-88.1592	0.0118383	0.000380269	0.0118322	-2.93726	19.5334	19.5077	1.00094	0.0511313	0.00259257	0.051197	2.90265	412594	8.13728e+06	8.14774e+06	-87.0974	0.0000000E+000	0.0000000E+000	0.0000000E+000	87.0974	0.0000000E+000	0.0000000E+000	0.0000000E+000	-87.0974	0.0000000E+000	0.0000000E+000	0.0000000E+000	-2.90265	0.0000000E+000	0.0000000E+000	0.0000000E+000	2.90265	19.7222	87.0974	-9.27358e-08	-1.63326e-06	-4.07416e-10	-1.63285e-06	0.247705	37586.4	9.37593	37577.1
0.681362	19.6399	1.02516	19.6667	-2.98799	22.7372	0.247758	-0.0052051	227852	619.113	1	12	0.00506214	0.000257397	0	1.51625e-05	0.000195492	2.89606e-06	-89.0724	0.0112514	0.00018214	0.0112499	-3.02069	19.6674	19.6401	1.03641	0.0507783	0.0026505	0.0508474	2.98799	619113	1.1861e+07	1.18771e+07	-87.012	0.0000000E+000	0.0000000E+000	0.0000000E+000	87.012	0.0000000E+000	0.0000000E+000	0.0000000E+000	-87.012	0.0000000E+000	0.0000000E+000	0.0000000E+000	-2.98799	0.0000000E+000	0.0000000E+000	0.0000000E+000	2.98799	19.158	87.012	-7.78653e-06	-1.2896e-06	-1.01755e-09	-1.28859e-06	0.247562	47599.1	37.5577	47561.5
0.464091	19.7551	1.15287	19.7887	-3.33988	27.2937	0.247759	-0.00412878	297467	1009.63	1	12	0.00506124	0.000255765	0	-4.40601e-06	2.36093e-05	8.75182e-07	-15.8035	0.00342182	0.00329248	0.000931896	-3.34202	19.792	19.7583	1.1538	0.0504482	0.00294405	0.050534	3.33988	1.00963e+06	1.73007e+07	1.73301e+07	-86.6601	0.0000000E+000	0.0000000E+000	0.0000000E+000	86.6601	0.0000000E+000	0.0000000E+000	0.0000000E+000	-86.6601	0.0000000E+000	0.0000000E+000	0.0000000E+000	-3.33988	0.0000000E+000	0.0000000E+000	0.0000000E+000	3.33988	17.1356	86.6601	-1.95685e-05	-1.02294e-06	-9.74777e-11	-1.02284e-06	0.247735	60007.7	5.71823	60001.9
0.316193	19.8909	1.35906	19.9373	-3.9087	33.9671	0.247773	-0.0036488	370364	1720.97	1	12	0.00506163	0.000253877	0	-3.37203e-05	6.18054e-05	3.18284e-06	79.2914	0.0125369	0.00232954	-0.0123186	-3.87292	19.9388	19.8933	1.34674	0.0500406	0.00341905	0.0501572	3.9087	1.72097e+06	2.51878e+07	2.52465e+07	-86.0913	0.0000000E+000	0.0000000E+000	0.0000000E+000	86.0913	0.0000000E+000	0.0000000E+000	0.0000000E+000	-86.0913	0.0000000E+000	0.0000000E+000	0.0000000E+000	-3.9087	0.0000000E+000	0.0000000E+000	0.0000000E+000	3.9087	14.6358	86.0913	-2.93143e-05	-9.04074e-07	-2.25516e-10	-9.03848e-07	0.247711	67905.2	16.9385	67888.2
0.215268	20.0866	1.71282	20.1595	-4.87393	43.7605	0.247765	-0.00506077	431647	3115.98	1	12	0.00506267	0.000251131	0	-6.63622e-05	0.000348276	8.36348e-07	-62.7599	0.00333032	0.00152436	0.00296098	-4.88195	20.1613	20.0881	1.71578	0.0494251	0.00421457	0.0496044	4.87393	3.11598e+06	3.65417e+07	3.66743e+07	-85.1261	0.0000000E+000	0.0000000E+000	0.0000000E+000	85.1261	0.0000000E+000	0.0000000E+000	0.0000000E+000	-85.1261	0.0000000E+000	0.0000000E+000	0.0000000E+000	-4.87393	0.0000000E+000	0.0000000E+000	0.0000000E+000	4.87393	11.7272	85.1261	-3.2642e-05	-1.25388e-06	-1.76254e-09	-1.25212e-06	0.247417	48958	68.8188	48889.2
0.146929	20.3201	2.28222	20.4478	-6.40823	58.0988	0.247779	-0.0051799	474631	5912.56	1	12	0.00506553	0.000247729	0	-8.66442e-05	0.000157296	1.26424e-06	34.7322	0.0051033	0.00419402	-0.00290756	-6.39883	20.4517	20.3243	2.27931	0.0485993	0.00545836	0.0489049	6.40823	5.91256e+06	5.26434e+07	5.29743e+07	-83.5918	0.0000000E+000	0.0000000E+000	0.0000000E+000	83.5918	0.0000000E+000	0.0000000E+000	0.0000000E+000	-83.5918	0.0000000E+000	0.0000000E+000	0.0000000E+000	-6.40823	0.0000000E+000	0.0000000E+000	0.0000000E+000	6.40823	8.90365	83.5918	-2.02819e-05	-1.28347e-06	-8.14775e-10	-1.28266e-06	0.247622	47834.8	30.3665	47804.4
0.0999041	20.5598	3.08299	20.7896	-8.52811	79.1748	0.247771	-0.00483732	516731	11363.6	1	12	0.0050615	0.000243463	0	-7.31895e-05	0.00031008	1.22665e-06	8.47799	0.00503837	0.00498331	-0.000742804	-8.52405	20.7945	20.5648	3.08225	0.047569	0.0071331	0.0481009	8.52811	1.13636e+07	7.57812e+07	7.66284e+07	-81.4719	0.0000000E+000	0.0000000E+000	0.0000000E+000	81.4719	0.0000000E+000	0.0000000E+000	0.0000000E+000	-81.4719	0.0000000E+000	0.0000000E+000	0.0000000E+000	-8.52811	0.0000000E+000	0.0000000E+000	0.0000000E+000	8.52811	6.66877	81.4719	1.34546e-05	-1.19855e-06	-1.49996e-09	-1.19705e-06	0.247461	51220.7	64.1016	51156.6
0.0680626	20.8874	4.09969	21.2859	-11.1046	110.101	0.247781	-0.00368826	570375	21158.2	1	12	0.00506344	0.000237878	0	-1.79495e-05	-1.45868e-05	2.91994e-06	23.4943	0.0122749	0.0112574	-0.0048935	-11.0859	21.296	20.8986	4.0948	0.0460999	0.0090483	0.0469794	11.1046	2.11582e+07	1.07798e+08	1.09855e+08	-78.8954	0.0000000E+000	0.0000000E+000	0.0000000E+000	78.8954	0.0000000E+000	0.0000000E+000	0.0000000E+000	-78.8954	0.0000000E+000	0.0000000E+000	0.0000000E+000	-11.1046	0.0000000E+000	0.0000000E+000	0.0000000E+000	11.1046	5.09487	78.8954	5.52401e-05	-9.13879e-07	5.37998e-11	-9.13933e-07	0.247795	67180.9	3.95492	67184.8
0.0464052	21.484	5.40653	22.1538	-14.1254	155.453	0.247768	-0.00192947	634359	37781.2	1	12	0.00506036	0.00022842	0	8.33337e-05	-0.000243763	1.29185e-06	-5.54958	0.0056556	0.0056291	0.000546937	-14.1232	22.1594	21.4896	5.40708	0.0437742	0.011016	0.045139	14.1254	3.77812e+07	1.50131e+08	1.54812e+08	-75.8746	0.0000000E+000	0.0000000E+000	0.0000000E+000	75.8746	0.0000000E+000	0.0000000E+000	0.0000000E+000	-75.8746	0.0000000E+000	0.0000000E+000	0.0000000E+000	-14.1254	0.0000000E+000	0.0000000E+000	0.0000000E+000	14.1254	3.9737	75.8746	0.000101283	-4.78061e-07	4.70334e-10	-4.78532e-07	0.248012	128412	126.337	128539
0.0315922	22.3345	7.45733	23.5466	-18.4638	222.058	0.247765	-0.00116543	675549	67758.9	1	12	0.00505377	0.000214628	0	0.000142566	-0.000281959	2.31707e-06	-0.628709	0.0107957	0.0107951	0.00011846	-18.4557	23.5569	22.3453	7.45745	0.0402828	0.0134501	0.0424689	18.4638	6.77589e+07	2.02936e+08	2.1395e+08	-71.5362	0.0000000E+000	0.0000000E+000	0.0000000E+000	71.5362	0.0000000E+000	0.0000000E+000	0.0000000E+000	-71.5362	0.0000000E+000	0.0000000E+000	0.0000000E+000	-18.4638	0.0000000E+000	0.0000000E+000	0.0000000E+000	18.4638	2.99498	71.5362	5.92327e-05	-2.88754e-07	3.28605e-10	-2.89083e-07	0.248047	212595	241.935	212837
0.0215268	23.2588	10.2371	25.412	-23.7561	319.797	0.247757	-0.00107429	722212	117203	1	12	0.00506116	0.000199164	0	1.93183e-05	0.000290982	1.40848e-06	53.9225	0.00707196	0.00416452	-0.0057157	-23.7406	25.4135	23.263	10.2314	0.0360172	0.0158525	0.0393515	23.7561	1.17203e+08	2.66287e+08	2.90939e+08	-66.2439	0.0000000E+000	0.0000000E+000	0.0000000E+000	66.2439	0.0000000E+000	0.0000000E+000	0.0000000E+000	-66.2439	0.0000000E+000	0.0000000E+000	0.0000000E+000	-23.7561	0.0000000E+000	0.0000000E+000	0.0000000E+000	23.7561	2.27201	66.2439	-0.000123248	-2.66161e-07	-3.12598e-10	-2.65849e-07	0.247466	230625	270.861	230354
0.0146812	24.601	13.5922	28.1061	-28.9209	463.099	0.247759	-0.00154589	797572	186529	1	12	0.00506063	0.000180054	0	-0.000371396	-1.45868e-05	2.63356e-06	121.278	0.0146265	-0.00759393	-0.0125007	-28.9061	28.0934	24.5934	13.5797	0.0311422	0.0172063	0.0355794	28.9209	1.86529e+08	3.37605e+08	3.85708e+08	-61.0791	0.0000000E+000	0.0000000E+000	0.0000000E+000	61.0791	0.0000000E+000	0.0000000E+000	0.0000000E+000	-61.0791	0.0000000E+000	0.0000000E+000	0.0000000E+000	-28.9209	0.0000000E+000	0.0000000E+000	0.0000000E+000	28.9209	1.80993	61.0791	-0.000390714	-3.83009e-07	2.25495e-11	-3.83031e-07	0.247774	160269	9.43583	160279
0.0100092	26.8685	18.0281	32.3563	-33.8606	673.281	0.247759	-0.00208738	882006	273813	1	12	0.00505969	0.000156374	0	-0.000945126	2.36093e-05	1.91205e-06	-23.0794	0.0122274	0.0112487	0.00479322	-33.8566	32.3683	26.8798	18.0329	0.0256641	0.01722	0.0309059	33.8606	2.73813e+08	4.08082e+08	4.91432e+08	-56.1394	0.0000000E+000	0.0000000E+000	0.0000000E+000	56.1394	0.0000000E+000	0.0000000E+000	0.0000000E+000	-56.1394	0.0000000E+000	0.0000000E+000	0.0000000E+000	-33.8606	0.0000000E+000	0.0000000E+000	0.0000000E+000	33.8606	1.49037	56.1394	-0.00057373	-5.17167e-07	-4.92816e-11	-5.17118e-07	0.247736	118694	11.3105	118683