File: txt/19012_R308_UA709_SOC00_C08.mpt
EC-Lab ASCII FILE
Nb header lines : 65

Potentio Electrochemical Impedance Spectroscopy

Run on channel : 8 (SN 65398)
Grouped channel(s) : 6, 7, 8
User :
CE vs. WE compliance from -10 V to 10 V
Electrode connection : standard
Potential control : Ewe
Ewe ctrl range : min = -10.00 V, max = 10.00 V
Safety Limits :
	Do not start on E overload
Acquisition started on : 11/04/2025 16:28:53.021
Loaded Setting File :  C:\Users\Celltest\OneDrive - store-dot.com\Documents\EC-Lab\Data\@Biologic Test Protocols\anode half cell EIS SOC00.mps
Saved on :
	File : 19010_R308_UA709_SOC00_C08.mpr
	Directory : C:\Users\Celltest\OneDrive - store-dot.com\Documents\EC-Lab\Data\Charmaine\
	Host : 169.254.61.224
Device : VMP-3e (SN .003165)
Address : USB
EC-LAB for windows v11.62 (software)
Internet server v27.00 (firmware)
Command interpretor v12.03 (firmware)
Electrode material :
Initial state :
Electrolyte :
Comments :
Electrode surface area : 0.001 cm²
Characteristic mass : 0.001 g
Equivalent Weight : 0.000 g/eq.
Density : 0.000 g/cm3
Volume (V) : 0.001 cm³
Record Ece
Cycle Definition : Charge/Discharge alternance
Mode                Single sine
E (V)               0.0000
vs.                 Eoc
tE (h:m:s)          0:00:0.0000
record              0
dI                  0.000
unit dI             mA
dt (s)              0.000
fi                  100.000
unit fi             kHz
ff                  10.000
unit ff             mHz
Nd                  6
Points              per decade
spacing             Logarithmic
Va (mV)             5.0
pw                  0.10
Na                  2
corr                0
E range min (V)     -10.000
E range max (V)     10.000
I Range             Auto
Bandwidth           5
nc cycles           0
goto Ns'            0
nr cycles           0
inc. cycle          0

freq/Hz	Re(Z)/Ohm	-Im(Z)/Ohm	|Z|/Ohm	Phase(Z)/deg	time/s	<Ewe>/V	<I>/mA	Cs/µF	Cp/µF	cycle number	I Range	|Ewe|/V	|I|/A	Ns	(Q-Qo)/mA.h	<Ece>/V	|Ece|/V	Phase(Zce)/deg	|Zce|/Ohm	Re(Zce)/Ohm	-Im(Zce)/Ohm	Phase(Zwe-ce)/deg	|Zwe-ce|/Ohm	Re(Zwe-ce)/Ohm	-Im(Zwe-ce)/Ohm	Re(Y)/Ohm-1	Im(Y)/Ohm-1	|Y|/Ohm-1	Phase(Y)/deg	Re(C)/nF	Im(C)/nF	|C|/nF	Phase(C)/deg	Re(M)	Im(M)	|M|	Phase(M)/deg	Re(Permittivity)	Im(Permittivity)	|Permittivity|	Phase(Permittivity)/deg	Re(Resistivity)/Ohm.cm	Im(Resistivity)/Ohm.cm	|Resistivity|/Ohm.cm	Phase(Resistivity)/deg	Re(Conductivity)/mS/cm	Im(Conductivity)/mS/cm	|Conductivity|/mS/cm	Phase(Conductivity)/deg	Tan(Delta)	Loss Angle(Delta)/deg	dq/mA.h	Pwe/W	Pce/W	Pwe-ce/W	<Ewe-Ece>/V	Rwe/Ohm	Rce/Ohm	Rwe-ce/Ohm		Ewe-Ece/V
100004	1.99495	0.909001	2.19229	-24.4964	1.91056	0.240335	-0.0310243	1.75081	0.301005	1	9	0.00459303	0.00209509	0	-5.60144e-06	-0.000326682	4.16317e-05	88.9659	0.0198711	0.00035864	-0.0198679	-24.0183	2.18445	1.99531	0.889133	0.415086	0.189134	0.456145	24.4964	301.005	660.606	725.95	-65.5036	0.0000000E+000	0.0000000E+000	0.0000000E+000	65.5036	0.0000000E+000	0.0000000E+000	0.0000000E+000	-65.5036	0.0000000E+000	0.0000000E+000	0.0000000E+000	-24.4964	0.0000000E+000	0.0000000E+000	0.0000000E+000	24.4964	2.19466	65.5036	-5.60144e-06	-7.45623e-06	1.01351e-08	-7.46637e-06	0.240662	7746.69	10.5299	7757.22
68132	2.27369	1.03122	2.49662	-24.3963	2.41652	0.240356	-0.0130184	2.26527	0.386469	1	9	0.0050779	0.00203391	0	-1.48722e-06	0.00024596	3.15577e-05	81.3699	0.0155158	0.00232821	-0.0153401	-24.053	2.49245	2.27602	1.01588	0.364778	0.165442	0.400542	24.3963	386.469	852.113	935.658	-65.6037	0.0000000E+000	0.0000000E+000	0.0000000E+000	65.6037	0.0000000E+000	0.0000000E+000	0.0000000E+000	-65.6037	0.0000000E+000	0.0000000E+000	0.0000000E+000	-24.3963	0.0000000E+000	0.0000000E+000	0.0000000E+000	24.3963	2.20487	65.6037	4.11422e-06	-3.12905e-06	-3.202e-09	-3.12584e-06	0.24011	18462.8	18.8933	18443.9
46420.4	2.58308	1.12742	2.8184	-23.5794	2.92552	0.240342	-0.0395064	3.04107	0.48662	1	9	0.00512726	0.00181921	0	-1.39561e-05	0.000379576	1.509e-05	39.2503	0.00829481	0.00642342	-0.00524821	-23.4296	2.8222	2.58951	1.12217	0.325186	0.141931	0.354811	23.5794	486.62	1114.92	1216.49	-66.4206	0.0000000E+000	0.0000000E+000	0.0000000E+000	66.4206	0.0000000E+000	0.0000000E+000	0.0000000E+000	-66.4206	0.0000000E+000	0.0000000E+000	0.0000000E+000	-23.5794	0.0000000E+000	0.0000000E+000	0.0000000E+000	23.5794	2.29115	66.4206	-1.24689e-05	-9.49503e-06	-1.49957e-08	-9.48003e-06	0.239962	6083.61	9.60797	6074.01
31621.1	2.88282	1.19196	3.11952	-22.4636	3.30855	0.240324	-0.0438218	4.22261	0.616492	1	9	0.00522911	0.00167625	0	-1.81889e-05	-9.76253e-05	1.6946e-05	20.0368	0.0101095	0.00949757	-0.00346375	-22.3385	3.12698	2.89232	1.1885	0.296238	0.122486	0.320562	22.4636	616.492	1491.02	1613.45	-67.5364	0.0000000E+000	0.0000000E+000	0.0000000E+000	67.5364	0.0000000E+000	0.0000000E+000	0.0000000E+000	-67.5364	0.0000000E+000	0.0000000E+000	0.0000000E+000	-22.4636	0.0000000E+000	0.0000000E+000	0.0000000E+000	22.4636	2.41856	67.5364	-4.23277e-06	-1.05314e-05	4.27812e-09	-1.05357e-05	0.240422	5484.12	2.22778	5486.34
21544.7	3.20661	1.24133	3.43849	-21.1622	3.69152	0.240342	-0.0314707	5.95105	0.775587	1	9	0.00503079	0.00146308	0	-2.3447e-05	7.41672e-05	8.07575e-06	40.5737	0.00551969	0.00419259	-0.00359015	-21.0812	3.44111	3.2108	1.23774	0.271213	0.104991	0.290825	21.1622	775.587	2003.5	2148.38	-68.8378	0.0000000E+000	0.0000000E+000	0.0000000E+000	68.8378	0.0000000E+000	0.0000000E+000	0.0000000E+000	-68.8378	0.0000000E+000	0.0000000E+000	0.0000000E+000	-21.1622	0.0000000E+000	0.0000000E+000	0.0000000E+000	21.1622	2.58321	68.8378	-5.25815e-06	-7.56374e-06	-2.3341e-09	-7.56141e-06	0.240268	7637.01	2.35671	7634.66
14678.6	3.53591	1.23979	3.74696	-19.3221	3.95053	0.240363	-0.0340377	8.74556	0.957471	1	9	0.0045264	0.00120802	0	-2.67905e-05	7.41672e-05	1.41284e-05	-72.8142	0.0116955	0.00345569	0.0111733	-19.4656	3.75393	3.53936	1.25096	0.25185	0.0883059	0.266883	19.3221	957.471	2730.73	2893.72	-70.6779	0.0000000E+000	0.0000000E+000	0.0000000E+000	70.6779	0.0000000E+000	0.0000000E+000	0.0000000E+000	-70.6779	0.0000000E+000	0.0000000E+000	0.0000000E+000	-19.3221	0.0000000E+000	0.0000000E+000	0.0000000E+000	19.3221	2.85202	70.6779	-3.34347e-06	-8.18139e-06	-2.52448e-09	-8.17887e-06	0.240289	7061.67	2.17898	7059.49
10002.2	3.81658	1.2373	4.01214	-17.9622	4.33356	0.240328	-0.0472445	12.8602	1.22306	1	9	0.00486644	0.00121293	0	-3.03324e-05	0.000322312	5.92623e-06	-56.9881	0.00488588	0.00266189	0.00409709	-18.0061	4.01593	3.81925	1.2414	0.237096	0.0768643	0.249244	17.9622	1223.06	3772.65	3965.95	-72.0378	0.0000000E+000	0.0000000E+000	0.0000000E+000	72.0378	0.0000000E+000	0.0000000E+000	0.0000000E+000	-72.0378	0.0000000E+000	0.0000000E+000	0.0000000E+000	-17.9622	0.0000000E+000	0.0000000E+000	0.0000000E+000	17.9622	3.0846	72.0378	-3.54187e-06	-1.13542e-05	-1.52275e-08	-1.1339e-05	0.240006	5086.91	6.82222	5080.09
6810.42	4.09922	1.22859	4.27938	-16.6842	4.74856	0.240403	-0.0235657	19.0212	1.56781	1	10	0.0046732	0.00109203	0	-3.35597e-05	7.41672e-05	4.72532e-05	-73.1665	0.0432711	0.012531	0.0414169	-17.1645	4.30342	4.11175	1.27001	0.223841	0.0670884	0.233679	16.6842	1567.81	5231.02	5460.92	-73.3158	0.0000000E+000	0.0000000E+000	0.0000000E+000	73.3158	0.0000000E+000	0.0000000E+000	0.0000000E+000	-73.3158	0.0000000E+000	0.0000000E+000	0.0000000E+000	-16.6842	0.0000000E+000	0.0000000E+000	0.0000000E+000	16.6842	3.33651	73.3158	-3.22733e-06	-5.66526e-06	-1.7478e-09	-5.66351e-06	0.240329	10201.4	3.14725	10198.2
4646	4.39623	1.31343	4.58824	-16.6342	5.0136	0.240363	-0.032728	26.0815	2.13726	1	10	0.00475628	0.00103663	0	-3.64134e-05	-4.03611e-05	1.05987e-05	-101.872	0.0102242	-0.00210332	0.0100056	-16.7614	4.5891	4.39412	1.32344	0.208828	0.0623902	0.217949	16.6342	2137.26	7153.68	7466.12	-73.3658	0.0000000E+000	0.0000000E+000	0.0000000E+000	73.3658	0.0000000E+000	0.0000000E+000	0.0000000E+000	-73.3658	0.0000000E+000	0.0000000E+000	0.0000000E+000	-16.6342	0.0000000E+000	0.0000000E+000	0.0000000E+000	16.6342	3.34713	73.3658	-2.85372e-06	-7.8666e-06	1.32094e-09	-7.86792e-06	0.240403	7344.27	1.23323	7345.5
3163.08	4.65894	1.37977	4.85896	-16.4969	5.38764	0.240293	-0.0256043	36.4674	2.94055	1	10	0.00472841	0.000973132	0	-3.92154e-05	7.41672e-05	1.30881e-05	-18.1827	0.0134495	0.0127779	0.00419689	-16.5015	4.87241	4.67172	1.38396	0.197333	0.0584411	0.205805	16.4969	2940.55	9929.11	10355.4	-73.5031	0.0000000E+000	0.0000000E+000	0.0000000E+000	73.5031	0.0000000E+000	0.0000000E+000	0.0000000E+000	-73.5031	0.0000000E+000	0.0000000E+000	0.0000000E+000	-16.4969	0.0000000E+000	0.0000000E+000	0.0000000E+000	16.4969	3.37662	73.5031	-2.80202e-06	-6.15253e-06	-1.899e-09	-6.15063e-06	0.240219	9384.9	2.89668	9382
2155.69	4.9562	1.48689	5.17443	-16.6996	5.83883	0.240341	-0.00823946	49.654	4.10004	1	10	0.00470985	0.000910216	0	-4.00446e-05	-0.000231242	1.05079e-05	-55.1033	0.0115444	0.00660456	0.00946857	-16.7789	5.18348	4.9628	1.49636	0.185107	0.0555334	0.193258	16.6996	4100.04	13666.5	14268.3	-73.3004	0.0000000E+000	0.0000000E+000	0.0000000E+000	73.3004	0.0000000E+000	0.0000000E+000	0.0000000E+000	-73.3004	0.0000000E+000	0.0000000E+000	0.0000000E+000	-16.6996	0.0000000E+000	0.0000000E+000	0.0000000E+000	16.6996	3.33326	73.3004	-8.29161e-07	-1.98028e-06	1.90531e-09	-1.98219e-06	0.240573	29169.6	28.0652	29197.6
1468.59	5.25214	1.66435	5.50954	-17.5829	6.29006	0.240345	-0.00820598	65.1142	5.94201	1	10	0.00468	0.000849436	0	-4.16357e-05	-7.85372e-05	5.96358e-06	-31.3871	0.00702064	0.0059933	0.00365647	-17.6003	5.51636	5.25813	1.668	0.173024	0.0548294	0.181503	17.5829	5942.01	18751	19670	-72.4171	0.0000000E+000	0.0000000E+000	0.0000000E+000	72.4171	0.0000000E+000	0.0000000E+000	0.0000000E+000	-72.4171	0.0000000E+000	0.0000000E+000	0.0000000E+000	-17.5829	0.0000000E+000	0.0000000E+000	0.0000000E+000	17.5829	3.15567	72.4171	-1.5911e-06	-1.97227e-06	6.44475e-10	-1.97292e-06	0.240424	29289.1	9.57072	29298.6
1000.32	5.59282	1.88608	5.90228	-18.6358	6.74082	0.240331	-0.00765543	84.357	8.61393	1	10	0.00466105	0.000789703	0	-4.29199e-05	5.50792e-05	1.02012e-05	-17.2694	0.0129178	0.0123354	0.00383483	-18.6328	5.91519	5.60515	1.88991	0.160543	0.0541403	0.169426	18.6358	8613.93	25543	26956.4	-71.3642	0.0000000E+000	0.0000000E+000	0.0000000E+000	71.3642	0.0000000E+000	0.0000000E+000	0.0000000E+000	-71.3642	0.0000000E+000	0.0000000E+000	0.0000000E+000	-18.6358	0.0000000E+000	0.0000000E+000	0.0000000E+000	18.6358	2.96531	71.3642	-1.28419e-06	-1.83984e-06	-4.21655e-10	-1.83942e-06	0.240276	31393.6	7.19478	31386.4
681.09	5.99458	2.22717	6.39494	-20.3816	7.19056	0.24034	-0.00765544	104.921	12.7262	1	10	0.00465361	0.000727702	0	-4.40416e-05	0.000169608	3.38334e-06	96.7817	0.00464935	-0.000549024	-0.00461682	-20.3446	6.39282	5.99403	2.22256	0.146584	0.0544605	0.156374	20.3816	12726.2	34253.2	36540.9	-69.6184	0.0000000E+000	0.0000000E+000	0.0000000E+000	69.6184	0.0000000E+000	0.0000000E+000	0.0000000E+000	-69.6184	0.0000000E+000	0.0000000E+000	0.0000000E+000	-20.3816	0.0000000E+000	0.0000000E+000	0.0000000E+000	20.3816	2.69156	69.6184	-1.12167e-06	-1.83991e-06	-1.29842e-09	-1.83861e-06	0.240171	31394.7	22.1552	31372.5
463.961	6.49921	2.63864	7.01443	-22.0969	7.6423	0.240334	-0.00646133	130.005	18.3965	1	10	0.00463728	0.000661106	0	-4.44441e-05	5.50792e-05	1.866e-05	-89.1662	0.0282254	0.000410717	0.0282224	-22.3089	7.02547	6.49962	2.66686	0.132092	0.0536286	0.142563	22.0969	18396.5	45312.2	48904.3	-67.9031	0.0000000E+000	0.0000000E+000	0.0000000E+000	67.9031	0.0000000E+000	0.0000000E+000	0.0000000E+000	-67.9031	0.0000000E+000	0.0000000E+000	0.0000000E+000	-22.0969	0.0000000E+000	0.0000000E+000	0.0000000E+000	22.0969	2.46309	67.9031	-4.02491e-07	-1.55288e-06	-3.55885e-10	-1.55252e-06	0.240279	37195.7	8.52444	37187.2
316.316	7.15559	3.15523	7.82036	-23.7949	8.09002	0.240338	-0.00787491	159.466	25.9584	1	10	0.00462913	0.000591934	0	-4.58041e-05	-9.76253e-05	1.2157e-05	120.316	0.0205378	-0.010367	-0.0177293	-23.7065	7.80373	7.14522	3.1375	0.117002	0.0515915	0.127871	23.7949	25958.4	58869.7	64338.7	-66.2051	0.0000000E+000	0.0000000E+000	0.0000000E+000	66.2051	0.0000000E+000	0.0000000E+000	0.0000000E+000	-66.2051	0.0000000E+000	0.0000000E+000	0.0000000E+000	-23.7949	0.0000000E+000	0.0000000E+000	0.0000000E+000	23.7949	2.26785	66.2051	-1.36009e-06	-1.89264e-06	7.68791e-10	-1.89341e-06	0.240436	30519.5	12.397	30531.9
215.345	8.04989	3.67247	8.84804	-24.5231	8.53956	0.240341	-0.00728344	201.246	34.6698	1	10	0.00462495	0.000522709	0	-4.67183e-05	0.00024596	9.46019e-06	-50.0035	0.0180984	0.0116326	0.0138649	-24.5735	8.86438	8.06152	3.68634	0.102824	0.0469099	0.113019	24.5231	34669.8	75994.5	83529.4	-65.4769	0.0000000E+000	0.0000000E+000	0.0000000E+000	65.4769	0.0000000E+000	0.0000000E+000	0.0000000E+000	-65.4769	0.0000000E+000	0.0000000E+000	0.0000000E+000	-24.5231	0.0000000E+000	0.0000000E+000	0.0000000E+000	24.5231	2.19195	65.4769	-9.14179e-07	-1.75051e-06	-1.79143e-09	-1.74872e-06	0.240095	32998.3	33.7697	32964.5
146.737	9.15724	4.11433	10.0391	-24.1943	8.98554	0.240335	-0.00896859	263.621	44.2784	1	10	0.00461766	0.000459969	0	-4.78146e-05	0.000131431	4.9144e-06	96.0555	0.0106842	-0.00112709	-0.0106246	-24.1416	10.0337	9.15611	4.1037	0.0908612	0.0408237	0.0996109	24.1943	44278.4	98550.3	108040	-65.8057	0.0000000E+000	0.0000000E+000	0.0000000E+000	65.8057	0.0000000E+000	0.0000000E+000	0.0000000E+000	-65.8057	0.0000000E+000	0.0000000E+000	0.0000000E+000	-24.1943	0.0000000E+000	0.0000000E+000	0.0000000E+000	24.1943	2.2257	65.8057	-1.09631e-06	-2.15546e-06	-1.17875e-09	-2.15428e-06	0.240203	26797.4	14.6546	26782.7
100.032	10.4732	4.33699	11.3356	-22.4947	9.43685	0.240335	-0.00731693	366.853	53.7004	1	10	0.00460658	0.00040638	0	-4.83758e-05	0.000112343	8.37517e-06	91.4579	0.0206092	-0.000524352	-0.0206025	-22.3994	11.3273	10.4726	4.31639	0.0815053	0.0337517	0.0882173	22.4947	53700.4	129678	140357	-67.5053	0.0000000E+000	0.0000000E+000	0.0000000E+000	67.5053	0.0000000E+000	0.0000000E+000	0.0000000E+000	-67.5053	0.0000000E+000	0.0000000E+000	0.0000000E+000	-22.4947	0.0000000E+000	0.0000000E+000	0.0000000E+000	22.4947	2.41485	67.5053	-5.61122e-07	-1.75851e-06	-8.22008e-10	-1.75769e-06	0.240222	32846.4	15.3539	32831.1
68.104	11.9066	4.30348	12.6604	-19.8717	9.89944	0.240359	-0.00330309	543.035	62.7436	1	10	0.00461262	0.000364333	0	-4.88108e-05	0.000112343	5.51332e-06	65.2003	0.0151326	0.00634734	-0.0137371	-19.8035	12.6618	11.9129	4.28974	0.074283	0.0268486	0.0789862	19.8717	62743.6	173595	184586	-70.1283	0.0000000E+000	0.0000000E+000	0.0000000E+000	70.1283	0.0000000E+000	0.0000000E+000	0.0000000E+000	-70.1283	0.0000000E+000	0.0000000E+000	0.0000000E+000	-19.8717	0.0000000E+000	0.0000000E+000	0.0000000E+000	19.8717	2.76674	70.1283	-4.35039e-07	-7.93927e-07	-3.7108e-10	-7.93556e-07	0.240247	72768.1	34.0116	72734.1
46.4415	13.1728	3.92837	13.7461	-16.6056	10.3357	0.240327	-0.0115093	872.371	71.2475	1	10	0.00460645	0.000335111	0	-4.99931e-05	-5.94491e-05	1.04325e-05	99.6416	0.0311315	-0.00521405	-0.0306917	-16.4891	13.7323	13.1676	3.89768	0.0697142	0.0207901	0.0727482	16.6056	71247.5	238910	249308	-73.3944	0.0000000E+000	0.0000000E+000	0.0000000E+000	73.3944	0.0000000E+000	0.0000000E+000	0.0000000E+000	-73.3944	0.0000000E+000	0.0000000E+000	0.0000000E+000	-16.6056	0.0000000E+000	0.0000000E+000	0.0000000E+000	16.6056	3.35324	73.3944	-1.18227e-06	-2.766e-06	6.8422e-10	-2.76668e-06	0.240386	20881	5.1653	20886.2
31.6296	14.199	3.39733	14.5998	-13.4559	10.7655	0.240314	-0.0142584	1481.11	80.1997	1	10	0.00460442	0.000315376	0	-5.2221e-05	3.59911e-05	6.32806e-06	-17.9523	0.0200651	0.0190882	0.00618457	-13.4621	14.6198	14.2181	3.40352	0.066614	0.0159384	0.0684942	13.4559	80199.7	335191	344652	-76.5441	0.0000000E+000	0.0000000E+000	0.0000000E+000	76.5441	0.0000000E+000	0.0000000E+000	0.0000000E+000	-76.5441	0.0000000E+000	0.0000000E+000	0.0000000E+000	-13.4559	0.0000000E+000	0.0000000E+000	0.0000000E+000	13.4559	4.17945	76.5441	-2.2279e-06	-3.4265e-06	-5.13175e-10	-3.42598e-06	0.240279	16854.3	2.52421	16851.7
21.5517	15.0085	2.86295	15.2791	-10.7997	11.1865	0.240306	-0.0172678	2579.44	90.5634	1	10	0.00461164	0.000301826	0	-5.40869e-05	0.000112343	1.51392e-05	99.3204	0.0501588	-0.00812347	-0.0494966	-10.6229	15.262	15.0004	2.81345	0.0642895	0.0122635	0.0654487	10.7997	90563.4	474764	483325	-79.2003	0.0000000E+000	0.0000000E+000	0.0000000E+000	79.2003	0.0000000E+000	0.0000000E+000	0.0000000E+000	-79.2003	0.0000000E+000	0.0000000E+000	0.0000000E+000	-10.7997	0.0000000E+000	0.0000000E+000	0.0000000E+000	10.7997	5.24234	79.2003	-1.86598e-06	-4.14957e-06	-1.93993e-09	-4.14763e-06	0.240194	13916.4	6.50593	13909.9
14.6852	15.6452	2.28306	15.8109	-8.30239	11.8962	0.240385	-0.005317	4747.06	98.9792	1	11	0.0046123	0.000291716	0	-5.35541e-05	7.41672e-05	7.83185e-06	17.0632	0.0268475	0.0256657	-0.00787776	-8.26078	15.8352	15.6709	2.27518	0.0625846	0.00913277	0.0632474	8.30239	98979.3	678280	685464	-81.6976	0.0000000E+000	0.0000000E+000	0.0000000E+000	81.6976	0.0000000E+000	0.0000000E+000	0.0000000E+000	-81.6976	0.0000000E+000	0.0000000E+000	0.0000000E+000	-8.30239	0.0000000E+000	0.0000000E+000	0.0000000E+000	8.30239	6.85275	81.6976	5.32855e-07	-1.27813e-06	-3.94347e-10	-1.27773e-06	0.240311	45210.7	13.9491	45196.7
10.0032	16.0307	1.84588	16.1367	-6.56846	12.3468	0.240373	-0.00544765	8619.43	112.786	1	11	0.00460769	0.000285542	0	-5.59782e-05	0.000169608	1.14829e-05	-24.938	0.0402146	0.0364652	0.016956	-6.61335	16.1748	16.0672	1.86283	0.0615639	0.00708885	0.0619707	6.56846	112786	979507	985979	-83.4315	0.0000000E+000	0.0000000E+000	0.0000000E+000	83.4315	0.0000000E+000	0.0000000E+000	0.0000000E+000	-83.4315	0.0000000E+000	0.0000000E+000	0.0000000E+000	-6.56846	0.0000000E+000	0.0000000E+000	0.0000000E+000	6.56846	8.68462	83.4315	-2.42407e-06	-1.30947e-06	-9.23963e-10	-1.30855e-06	0.240204	44124.2	31.1341	44093.1
6.81719	16.3061	1.47741	16.3729	-5.17716	12.6865	0.240383	-0.00556491	15802	128.667	1	11	0.00460021	0.000280965	0	-5.39076e-05	0.000284136	6.22294e-06	76.0012	0.0221484	0.00535773	-0.0214906	-5.10059	16.3763	16.3114	1.45592	0.0608275	0.00551129	0.0610767	5.17716	128667	1.42009e+06	1.4259e+06	-84.8228	0.0000000E+000	0.0000000E+000	0.0000000E+000	84.8228	0.0000000E+000	0.0000000E+000	0.0000000E+000	-84.8228	0.0000000E+000	0.0000000E+000	0.0000000E+000	-5.17716	0.0000000E+000	0.0000000E+000	0.0000000E+000	5.17716	11.0369	84.8228	2.07058e-06	-1.33771e-06	-1.58119e-09	-1.33613e-06	0.240099	43196.3	51.0585	43145.2
4.63925	16.6051	1.36446	16.661	-4.69751	13.1705	0.240435	-0.0038515	25142.7	168.628	1	11	0.0046271	0.00027772	0	-5.60558e-05	3.59911e-05	7.30831e-05	60.5223	0.263154	0.129494	-0.229088	-3.88134	16.773	16.7346	1.13537	0.0598187	0.00491538	0.0600203	4.69751	168628	2.05215e+06	2.05907e+06	-85.3025	0.0000000E+000	0.0000000E+000	0.0000000E+000	85.3025	0.0000000E+000	0.0000000E+000	0.0000000E+000	-85.3025	0.0000000E+000	0.0000000E+000	0.0000000E+000	-4.69751	0.0000000E+000	0.0000000E+000	0.0000000E+000	4.69751	12.1697	85.3025	-2.14818e-06	-9.26036e-07	-1.3862e-10	-9.25898e-07	0.240399	62426.4	9.3447	62417
3.1604	16.7225	0.990279	16.7518	-3.38901	13.8634	0.240403	-0.00352617	50853.5	177.711	1	11	0.00460662	0.000274993	0	-6.02094e-05	0.000303224	4.34924e-06	86.4075	0.0158158	0.000991028	-0.0157847	-3.33492	16.7518	16.7235	0.974495	0.0595908	0.00352888	0.0596952	3.38901	177712	3.00094e+06	3.0062e+06	-86.611	0.0000000E+000	0.0000000E+000	0.0000000E+000	86.611	0.0000000E+000	0.0000000E+000	0.0000000E+000	-86.611	0.0000000E+000	0.0000000E+000	0.0000000E+000	-3.38901	0.0000000E+000	0.0000000E+000	0.0000000E+000	3.38901	16.8866	86.611	-4.15361e-06	-8.47701e-07	-1.06922e-09	-8.46631e-07	0.2401	68176.9	85.9925	68090.9
2.15577	16.867	0.862104	16.889	-2.92595	14.8671	0.240402	-0.00331688	85636.4	223.136	1	11	0.00460925	0.000272914	0	-6.10376e-05	-4.03611e-05	4.96504e-06	-8.86348	0.0181927	0.0179755	0.00280314	-2.93233	16.9071	16.885	0.864908	0.0591329	0.0030224	0.0592101	2.92595	223136	4.36564e+06	4.37133e+06	-87.0741	0.0000000E+000	0.0000000E+000	0.0000000E+000	87.0741	0.0000000E+000	0.0000000E+000	0.0000000E+000	-87.0741	0.0000000E+000	0.0000000E+000	0.0000000E+000	-2.92595	0.0000000E+000	0.0000000E+000	0.0000000E+000	2.92595	19.5649	87.0741	-8.28243e-07	-7.97382e-07	1.33873e-10	-7.97516e-07	0.240442	72478.3	12.1684	72490.5
1.46631	16.975	0.79967	16.9938	-2.69714	16.3285	0.240398	-0.00390224	135732	300.554	1	11	0.00460941	0.00027124	0	-5.71384e-05	-2.18497e-06	3.90008e-06	36.7313	0.0143787	0.0115238	-0.00859938	-2.66637	17.0049	16.9865	0.791071	0.0587797	0.00276904	0.0588449	2.69714	300554	6.38002e+06	6.38709e+06	-87.3029	0.0000000E+000	0.0000000E+000	0.0000000E+000	87.3029	0.0000000E+000	0.0000000E+000	0.0000000E+000	-87.3029	0.0000000E+000	0.0000000E+000	0.0000000E+000	-2.69714	0.0000000E+000	0.0000000E+000	0.0000000E+000	2.69714	21.2275	87.3029	3.89924e-06	-9.38092e-07	8.5263e-12	-9.38101e-07	0.2404	61605.2	0.559928	61605.7
1.00006	17.0879	0.781474	17.1057	-2.61847	19.5019	0.240411	-0.00297655	203647	425.034	1	12	0.00461169	0.000269599	0	-5.11825e-05	-9.76253e-05	2.84608e-06	31.7802	0.0105567	0.00897399	-0.00555982	-2.5985	17.1144	17.0968	0.775914	0.058399	0.00267074	0.05846	2.61847	425035	9.29389e+06	9.3036e+06	-87.3815	0.0000000E+000	0.0000000E+000	0.0000000E+000	87.3815	0.0000000E+000	0.0000000E+000	0.0000000E+000	-87.3815	0.0000000E+000	0.0000000E+000	0.0000000E+000	-2.61847	0.0000000E+000	0.0000000E+000	0.0000000E+000	2.61847	21.8662	87.3815	5.95586e-06	-7.15596e-07	2.90587e-10	-7.15886e-07	0.240508	80768.2	32.7981	80801
0.681362	17.1827	0.825611	17.2025	-2.75089	22.614	0.240384	-0.00289547	282922	651.679	1	12	0.00460669	0.000267792	0	-5.05464e-05	-0.000116713	4.28799e-06	48.0393	0.0160124	0.0107062	-0.0119069	-2.70959	17.2126	17.1934	0.813704	0.0580641	0.00278992	0.058131	2.75089	651680	1.35628e+07	1.35784e+07	-87.2491	0.0000000E+000	0.0000000E+000	0.0000000E+000	87.2491	0.0000000E+000	0.0000000E+000	0.0000000E+000	-87.2491	0.0000000E+000	0.0000000E+000	0.0000000E+000	-2.75089	0.0000000E+000	0.0000000E+000	0.0000000E+000	2.75089	20.8121	87.2491	6.36096e-07	-6.96026e-07	3.3794e-10	-6.96364e-07	0.240501	83020.8	40.3089	83061.1
0.464091	17.2944	0.969782	17.3216	-3.20949	27.1706	0.240392	-0.00127037	353625	1108.45	1	12	0.00461469	0.000266412	0	-6.0625e-05	0.000112343	2.39629e-06	88.4221	0.00899467	0.000247682	-0.00899126	-3.17975	17.3213	17.2947	0.96079	0.0576408	0.0032322	0.0577314	3.20949	1.10845e+06	1.97673e+07	1.97984e+07	-86.7905	0.0000000E+000	0.0000000E+000	0.0000000E+000	86.7905	0.0000000E+000	0.0000000E+000	0.0000000E+000	-86.7905	0.0000000E+000	0.0000000E+000	0.0000000E+000	-3.20949	0.0000000E+000	0.0000000E+000	0.0000000E+000	3.20949	17.8333	86.7905	-1.00786e-05	-3.05385e-07	-1.42717e-10	-3.05243e-07	0.240279	189230	88.4338	189142
0.316193	17.3975	1.19413	17.4385	-3.9265	33.8442	0.240393	-0.00110472	421519	1976.53	1	12	0.00461432	0.000264606	0	-8.49663e-05	3.59911e-05	3.51979e-06	-12.6883	0.013302	0.0129772	0.00292174	-3.93315	17.4516	17.4105	1.19705	0.0572099	0.00392676	0.0573445	3.9265	1.97653e+06	2.87965e+07	2.88642e+07	-86.0735	0.0000000E+000	0.0000000E+000	0.0000000E+000	86.0735	0.0000000E+000	0.0000000E+000	0.0000000E+000	-86.0735	0.0000000E+000	0.0000000E+000	0.0000000E+000	-3.9265	0.0000000E+000	0.0000000E+000	0.0000000E+000	3.9265	14.5692	86.0735	-2.43412e-05	-2.65567e-07	-3.97601e-11	-2.65528e-07	0.240357	217606	32.5794	217573
0.215268	17.5437	1.51612	17.6091	-4.93921	43.6377	0.240401	-0.00188628	487649	3614.93	1	12	0.00461392	0.000262019	0	-0.000121343	-5.94491e-05	1.99741e-06	15.2678	0.00762315	0.0073541	-0.00200741	-4.93064	17.6162	17.5511	1.51411	0.056578	0.00488944	0.0567888	4.93921	3.61494e+06	4.183e+07	4.1986e+07	-85.0608	0.0000000E+000	0.0000000E+000	0.0000000E+000	85.0608	0.0000000E+000	0.0000000E+000	0.0000000E+000	-85.0608	0.0000000E+000	0.0000000E+000	0.0000000E+000	-4.93921	0.0000000E+000	0.0000000E+000	0.0000000E+000	4.93921	11.5715	85.0608	-3.63764e-05	-4.53464e-07	1.12138e-10	-4.53576e-07	0.240461	127447	31.5166	127479
0.146929	17.7776	2.00011	17.8898	-6.4192	57.975	0.240396	-0.00366357	541575	6769.52	1	12	0.00461489	0.000257962	0	-0.000159563	-0.000154889	2.1928e-06	0.767864	0.00850047	0.00849971	-0.000113918	-6.4158	17.8982	17.7861	2	0.0555474	0.00624949	0.0558978	6.4192	6.76952e+06	6.01696e+07	6.05492e+07	-83.5808	0.0000000E+000	0.0000000E+000	0.0000000E+000	83.5808	0.0000000E+000	0.0000000E+000	0.0000000E+000	-83.5808	0.0000000E+000	0.0000000E+000	0.0000000E+000	-6.4192	0.0000000E+000	0.0000000E+000	0.0000000E+000	6.4192	8.88831	83.5808	-3.82201e-05	-8.80705e-07	5.67448e-10	-8.81273e-07	0.24055	65617.9	42.2783	65660.2
0.0999041	18.0634	2.74635	18.271	-8.64504	79.0522	0.240383	-0.00445477	580070	13106	1	12	0.00460997	0.000252311	0	-0.000174266	7.41672e-05	3.06239e-06	-12.2746	0.0121374	0.0118599	0.00258036	-8.64744	18.2831	18.0752	2.74893	0.0541098	0.00822685	0.0547317	8.64504	1.3106e+07	8.62011e+07	8.71918e+07	-81.355	0.0000000E+000	0.0000000E+000	0.0000000E+000	81.355	0.0000000E+000	0.0000000E+000	0.0000000E+000	-81.355	0.0000000E+000	0.0000000E+000	0.0000000E+000	-8.64504	0.0000000E+000	0.0000000E+000	0.0000000E+000	8.64504	6.57722	81.355	-1.47036e-05	-1.07085e-06	-3.30398e-10	-1.07052e-06	0.240309	53960.7	16.6489	53944.1
0.0680626	18.3619	3.71901	18.7347	-11.4498	109.98	0.240391	-0.00414855	628759	24776.8	1	12	0.00461294	0.000246224	0	-0.000144014	7.41672e-05	2.38056e-06	-21.8779	0.00966827	0.00897196	0.00360269	-11.4551	18.7442	18.3708	3.72261	0.0523146	0.0105958	0.0533769	11.4498	2.47768e+07	1.2233e+08	1.24814e+08	-78.5502	0.0000000E+000	0.0000000E+000	0.0000000E+000	78.5502	0.0000000E+000	0.0000000E+000	0.0000000E+000	-78.5502	0.0000000E+000	0.0000000E+000	0.0000000E+000	-11.4498	0.0000000E+000	0.0000000E+000	0.0000000E+000	11.4498	4.9373	78.5502	3.02527e-05	-9.97273e-07	-3.07686e-10	-9.96965e-07	0.240317	57945.8	17.8779	57928
0.0464052	18.8	4.86456	19.4191	-14.5073	155.331	0.240386	-0.00252018	705034	44242.3	1	12	0.00461374	0.000237587	0	-3.08766e-05	0.000169608	2.2653e-06	12.749	0.0095346	0.00929954	-0.0021041	-14.4944	19.4276	18.8093	4.86246	0.0498537	0.0128998	0.0514956	14.5073	4.42423e+07	1.70982e+08	1.76613e+08	-75.4927	0.0000000E+000	0.0000000E+000	0.0000000E+000	75.4927	0.0000000E+000	0.0000000E+000	0.0000000E+000	-75.4927	0.0000000E+000	0.0000000E+000	0.0000000E+000	-14.5073	0.0000000E+000	0.0000000E+000	0.0000000E+000	14.5073	3.86468	75.4927	0.000113137	-6.05815e-07	-4.27441e-10	-6.05388e-07	0.240216	95384.4	67.2998	95317.1
0.0315922	19.5938	6.55264	20.6605	-18.4912	221.937	0.240388	-0.0016089	768818	77335	1	12	0.00461197	0.000223227	0	0.000110531	-2.1273e-05	2.42483e-06	14.3306	0.0108626	0.0105246	-0.00268867	-18.4748	20.6696	19.6044	6.54996	0.0459027	0.015351	0.0484016	18.4912	7.7335e+07	2.31248e+08	2.43837e+08	-71.5088	0.0000000E+000	0.0000000E+000	0.0000000E+000	71.5088	0.0000000E+000	0.0000000E+000	0.0000000E+000	-71.5088	0.0000000E+000	0.0000000E+000	0.0000000E+000	-18.4912	0.0000000E+000	0.0000000E+000	0.0000000E+000	18.4912	2.99022	71.5088	0.000141408	-3.8676e-07	3.42262e-11	-3.86795e-07	0.24041	149412	13.2221	149425
0.0215268	20.57	9.06419	22.4785	-23.7808	319.675	0.240387	-0.00111757	815666	132628	1	12	0.00460797	0.000204994	0	0.000134194	-2.1273e-05	2.89199e-06	-3.79305	0.0141077	0.0140768	0.000933261	-23.7685	22.4918	20.584	9.06512	0.0407098	0.0179388	0.044487	23.7808	1.32628e+08	3.00982e+08	3.28907e+08	-66.2192	0.0000000E+000	0.0000000E+000	0.0000000E+000	66.2192	0.0000000E+000	0.0000000E+000	0.0000000E+000	-66.2192	0.0000000E+000	0.0000000E+000	0.0000000E+000	-23.7808	0.0000000E+000	0.0000000E+000	0.0000000E+000	23.7808	2.26937	66.2192	2.3663e-05	-2.68649e-07	2.3774e-11	-2.68672e-07	0.240408	215098	19.0351	215118
0.0146812	21.7261	12.262	24.9475	-29.44	462.978	0.240381	-0.00140916	884093	213582	1	12	0.00461205	0.00018487	0	-0.000128042	-2.1273e-05	3.54406e-06	85.4258	0.0191706	0.00152887	-0.0191095	-29.4	24.9395	21.7276	12.2429	0.0349081	0.0197018	0.0400841	29.44	2.13582e+08	3.7843e+08	4.34542e+08	-60.56	0.0000000E+000	0.0000000E+000	0.0000000E+000	60.56	0.0000000E+000	0.0000000E+000	0.0000000E+000	-60.56	0.0000000E+000	0.0000000E+000	0.0000000E+000	-29.44	0.0000000E+000	0.0000000E+000	0.0000000E+000	29.44	1.77182	60.56	-0.000262236	-3.38735e-07	2.9977e-11	-3.38765e-07	0.240403	170585	15.0963	170600
0.0100092	23.5888	16.1501	28.5877	-34.3976	673.16	0.24038	-0.00192555	984571	314224	1	12	0.00460994	0.000161256	0	-0.000714266	-2.18497e-06	2.38641e-06	16.5566	0.0147989	0.0141853	-0.0042171	-34.3745	28.597	23.603	16.1459	0.0288634	0.0197614	0.0349801	34.3976	3.14224e+08	4.58954e+08	5.56215e+08	-55.6024	0.0000000E+000	0.0000000E+000	0.0000000E+000	55.6024	0.0000000E+000	0.0000000E+000	0.0000000E+000	-55.6024	0.0000000E+000	0.0000000E+000	0.0000000E+000	-34.3976	0.0000000E+000	0.0000000E+000	0.0000000E+000	34.3976	1.4606	55.6024	-0.000586224	-4.62864e-07	4.20728e-12	-4.62869e-07	0.240383	124837	1.13473	124838