File: txt/19065_R307_UA701_3p24_SOC00_C04.mpt
EC-Lab ASCII FILE
Nb header lines : 65

Potentio Electrochemical Impedance Spectroscopy

Run on channel : 4 (SN 66756)
Grouped channel(s) : 1, 2, 3, 4, 5
User :
CE vs. WE compliance from -10 V to 10 V
Electrode connection : standard
Potential control : Ewe
Ewe ctrl range : min = -10.00 V, max = 10.00 V
Safety Limits :
	Do not start on E overload
Acquisition started on : 11/12/2025 10:25:43.761
Loaded Setting File :  C:\Users\Celltest\OneDrive - store-dot.com\Documents\EC-Lab\Data\@Biologic Test Protocols\anode half cell EIS SOC00.mps
Saved on :
	File : 19062_R307_UA701_3p24_SOC00_C04.mpr
	Directory : C:\Users\Celltest\OneDrive - store-dot.com\Documents\EC-Lab\Data\Anna\
	Host : 169.254.61.224
Device : VMP-3e (SN .003165)
Address : USB
EC-LAB for windows v11.62 (software)
Internet server v27.00 (firmware)
Command interpretor v12.03 (firmware)
Electrode material :
Initial state :
Electrolyte :
Comments :
Electrode surface area : 0.001 cm²
Characteristic mass : 0.001 g
Equivalent Weight : 0.000 g/eq.
Density : 0.000 g/cm3
Volume (V) : 0.001 cm³
Record Ece
Cycle Definition : Charge/Discharge alternance
Mode                Single sine
E (V)               0.0000
vs.                 Eoc
tE (h:m:s)          0:00:0.0000
record              0
dI                  0.000
unit dI             mA
dt (s)              0.000
fi                  100.000
unit fi             kHz
ff                  10.000
unit ff             mHz
Nd                  6
Points              per decade
spacing             Logarithmic
Va (mV)             5.0
pw                  0.10
Na                  2
corr                0
E range min (V)     -10.000
E range max (V)     10.000
I Range             Auto
Bandwidth           5
nc cycles           0
goto Ns'            0
nr cycles           0
inc. cycle          0

freq/Hz	Re(Z)/Ohm	-Im(Z)/Ohm	|Z|/Ohm	Phase(Z)/deg	time/s	<Ewe>/V	<I>/mA	Cs/µF	Cp/µF	cycle number	I Range	|Ewe|/V	|I|/A	Ns	(Q-Qo)/mA.h	<Ece>/V	|Ece|/V	Phase(Zce)/deg	|Zce|/Ohm	Re(Zce)/Ohm	-Im(Zce)/Ohm	Phase(Zwe-ce)/deg	|Zwe-ce|/Ohm	Re(Zwe-ce)/Ohm	-Im(Zwe-ce)/Ohm	Re(Y)/Ohm-1	Im(Y)/Ohm-1	|Y|/Ohm-1	Phase(Y)/deg	Re(C)/nF	Im(C)/nF	|C|/nF	Phase(C)/deg	Re(M)	Im(M)	|M|	Phase(M)/deg	Re(Permittivity)	Im(Permittivity)	|Permittivity|	Phase(Permittivity)/deg	Re(Resistivity)/Ohm.cm	Im(Resistivity)/Ohm.cm	|Resistivity|/Ohm.cm	Phase(Resistivity)/deg	Re(Conductivity)/mS/cm	Im(Conductivity)/mS/cm	|Conductivity|/mS/cm	Phase(Conductivity)/deg	Tan(Delta)	Loss Angle(Delta)/deg	dq/mA.h	Pwe/W	Pce/W	Pwe-ce/W	<Ewe-Ece>/V	Rwe/Ohm	Rce/Ohm	Rwe-ce/Ohm		Ewe-Ece/V
100004	1.02153	0.390453	1.09361	-20.9181	1.91154	0.261493	-0.0265036	4.07601	0.519579	1	9	0.00480236	0.00439131	0	-3.48877e-07	5.76895e-05	3.03179e-05	90.4557	0.00690407	-5.49081e-05	-0.00690385	-20.5805	1.09111	1.02147	0.383549	0.85414	0.326473	0.914406	20.9181	519.579	1359.36	1455.27	-69.0819	0.0000000E+000	0.0000000E+000	0.0000000E+000	69.0819	0.0000000E+000	0.0000000E+000	0.0000000E+000	-69.0819	0.0000000E+000	0.0000000E+000	0.0000000E+000	-20.9181	0.0000000E+000	0.0000000E+000	0.0000000E+000	20.9181	2.61626	69.0819	-3.48877e-07	-6.9305e-06	-1.52898e-09	-6.92897e-06	0.261435	9866.31	2.17667	9864.13
68132	1.12389	0.423564	1.20105	-20.6502	2.41856	0.261487	-0.028182	5.51505	0.685907	1	9	0.00503707	0.00419388	0	1.6418e-05	-0.0001143	2.53068e-05	67.7894	0.00603421	0.00228101	-0.00558648	-20.3625	1.20123	1.12617	0.417978	0.77911	0.293627	0.832604	20.6502	685.906	1819.98	1944.94	-69.3498	0.0000000E+000	0.0000000E+000	0.0000000E+000	69.3498	0.0000000E+000	0.0000000E+000	0.0000000E+000	-69.3498	0.0000000E+000	0.0000000E+000	0.0000000E+000	-20.6502	0.0000000E+000	0.0000000E+000	0.0000000E+000	20.6502	2.6534	69.3498	1.67669e-05	-7.36923e-06	3.22121e-09	-7.37245e-06	0.261601	9278.51	4.05578	9282.57
46420.4	1.23363	0.455334	1.31498	-20.2591	2.92553	0.261472	-0.0377301	7.52976	0.902822	1	9	0.00503879	0.00383183	0	1.44577e-05	3.5964e-07	1.5481e-05	38.4697	0.00404009	0.00316314	-0.00251334	-20.1089	1.31708	1.2368	0.452821	0.713421	0.263324	0.760466	20.2591	902.822	2446.01	2607.3	-69.7409	0.0000000E+000	0.0000000E+000	0.0000000E+000	69.7409	0.0000000E+000	0.0000000E+000	0.0000000E+000	-69.7409	0.0000000E+000	0.0000000E+000	0.0000000E+000	-20.2591	0.0000000E+000	0.0000000E+000	0.0000000E+000	20.2591	2.70929	69.7409	-1.96027e-06	-9.86538e-06	-1.35693e-11	-9.86537e-06	0.261472	6930.06	0.00953189	6930.05
31621.1	1.33997	0.498157	1.42958	-20.3935	3.43452	0.261486	-0.0297112	10.1036	1.22686	1	9	0.00508991	0.00356044	0	-3.41863e-06	-0.00015252	1.1695e-05	65.097	0.00328472	0.00138314	-0.00297931	-20.2622	1.42984	1.34136	0.495178	0.655664	0.243754	0.699508	20.3935	1226.86	3300.08	3520.75	-69.6065	0.0000000E+000	0.0000000E+000	0.0000000E+000	69.6065	0.0000000E+000	0.0000000E+000	0.0000000E+000	-69.6065	0.0000000E+000	0.0000000E+000	0.0000000E+000	-20.3935	0.0000000E+000	0.0000000E+000	0.0000000E+000	20.3935	2.68986	69.6065	-1.78764e-05	-7.76906e-06	4.53156e-09	-7.77359e-06	0.261638	8800.91	5.13341	8806.04
21544.7	1.46299	0.548232	1.56234	-20.5426	3.81752	0.261471	-0.0345226	13.4746	1.65918	1	9	0.00526299	0.00336866	0	-1.47643e-05	-1.87503e-05	7.29403e-06	-52.0437	0.00216526	0.00133177	0.00170727	-20.5841	1.56419	1.46432	0.549939	0.599364	0.224602	0.640065	20.5426	1659.18	4427.63	4728.29	-69.4574	0.0000000E+000	0.0000000E+000	0.0000000E+000	69.4574	0.0000000E+000	0.0000000E+000	0.0000000E+000	-69.4574	0.0000000E+000	0.0000000E+000	0.0000000E+000	-20.5426	0.0000000E+000	0.0000000E+000	0.0000000E+000	20.5426	2.66856	69.4574	-1.13457e-05	-9.02667e-06	6.47309e-10	-9.02731e-06	0.26149	7573.92	0.543132	7574.46
14678.6	1.57343	0.599704	1.68384	-20.8641	4.07654	0.261487	-0.0264664	18.08	2.29335	1	9	0.00450918	0.00267791	0	-1.6651e-05	-0.00026718	8.69039e-06	-35.1354	0.00324521	0.00265391	0.00186765	-20.8913	1.68699	1.57608	0.601572	0.554938	0.211512	0.59388	20.8641	2293.35	6017	6439.23	-69.1359	0.0000000E+000	0.0000000E+000	0.0000000E+000	69.1359	0.0000000E+000	0.0000000E+000	0.0000000E+000	-69.1359	0.0000000E+000	0.0000000E+000	0.0000000E+000	-20.8641	0.0000000E+000	0.0000000E+000	0.0000000E+000	20.8641	2.62368	69.1359	-1.88668e-06	-6.9206e-06	7.07128e-09	-6.92768e-06	0.261754	9879.95	10.0951	9890.04
10002.2	1.71106	0.672277	1.83839	-21.4499	4.45955	0.261484	-0.0324339	23.6687	3.16516	1	9	0.00500199	0.00272085	0	-1.78263e-05	9.59094e-05	1.19954e-05	-84.0845	0.00440869	0.000454364	0.00438522	-21.5718	1.84042	1.71152	0.676662	0.506278	0.198917	0.543953	21.4499	3165.16	8055.87	8655.36	-68.5501	0.0000000E+000	0.0000000E+000	0.0000000E+000	68.5501	0.0000000E+000	0.0000000E+000	0.0000000E+000	-68.5501	0.0000000E+000	0.0000000E+000	0.0000000E+000	-21.4499	0.0000000E+000	0.0000000E+000	0.0000000E+000	21.4499	2.54517	68.5501	-1.17531e-06	-8.48095e-06	-3.11072e-09	-8.47784e-06	0.261388	8062.04	2.95707	8059.08
6810.42	1.88793	0.75462	2.03315	-21.787	4.71855	0.261484	-0.0340004	30.9683	4.26613	1	9	0.00477732	0.00234971	0	-1.86374e-05	9.59094e-05	9.94916e-05	-91.5394	0.0423421	-0.00113751	0.0423268	-22.8984	2.04819	1.88679	0.796947	0.456714	0.182553	0.491847	21.787	4266.13	10673.1	11494.1	-68.213	0.0000000E+000	0.0000000E+000	0.0000000E+000	68.213	0.0000000E+000	0.0000000E+000	0.0000000E+000	-68.213	0.0000000E+000	0.0000000E+000	0.0000000E+000	-21.787	0.0000000E+000	0.0000000E+000	0.0000000E+000	21.787	2.50182	68.213	-8.11069e-07	-8.89057e-06	-3.26096e-09	-8.88731e-06	0.261388	7690.61	2.82083	7687.79
4646	2.02018	0.862268	2.1965	-23.1142	4.98459	0.261462	-0.053134	39.7281	6.12239	1	9	0.00456502	0.00207831	0	-2.40928e-05	9.59094e-05	2.60041e-05	60.815	0.0125121	0.00610131	-0.0109237	-22.7898	2.19786	2.02628	0.851345	0.418723	0.178723	0.45527	23.1142	6122.39	14343.9	15595.9	-66.8858	0.0000000E+000	0.0000000E+000	0.0000000E+000	66.8858	0.0000000E+000	0.0000000E+000	0.0000000E+000	-66.8858	0.0000000E+000	0.0000000E+000	0.0000000E+000	-23.1142	0.0000000E+000	0.0000000E+000	0.0000000E+000	23.1142	2.34286	66.8858	-5.4554e-06	-1.38925e-05	-5.09605e-09	-1.38874e-05	0.261366	4920.81	1.80505	4919
3163.08	2.18925	0.998734	2.4063	-24.5225	5.53462	0.261257	-0.118404	50.3802	8.67882	1	9	0.00486947	0.00202364	0	-4.3497e-05	-0.00015252	7.14068e-06	-134.358	0.00352864	-0.00246702	0.00252292	-24.6015	2.4051	2.18678	1.00126	0.378091	0.172485	0.415576	24.5225	8678.82	19024.2	20910.3	-65.4775	0.0000000E+000	0.0000000E+000	0.0000000E+000	65.4775	0.0000000E+000	0.0000000E+000	0.0000000E+000	-65.4775	0.0000000E+000	0.0000000E+000	0.0000000E+000	-24.5225	0.0000000E+000	0.0000000E+000	0.0000000E+000	24.5225	2.19202	65.4775	-1.94042e-05	-3.09339e-05	1.8059e-08	-3.0952e-05	0.26141	2206.48	1.28813	2207.77
2155.69	2.39323	1.17688	2.66695	-26.1859	5.98682	0.261392	-0.0174405	62.7336	12.2163	1	9	0.00480926	0.00180328	0	-4.51451e-05	-5.69702e-05	1.23887e-05	26.2792	0.00687006	0.00616002	-0.00304169	-26.069	2.67114	2.39939	1.17384	0.336477	0.165464	0.37496	26.1859	12216.3	24842.2	27683.4	-63.8141	0.0000000E+000	0.0000000E+000	0.0000000E+000	63.8141	0.0000000E+000	0.0000000E+000	0.0000000E+000	-63.8141	0.0000000E+000	0.0000000E+000	0.0000000E+000	-26.1859	0.0000000E+000	0.0000000E+000	0.0000000E+000	26.1859	2.03353	63.8141	-1.64812e-06	-4.55881e-06	9.93587e-10	-4.5598e-06	0.261449	14987.7	3.26655	14991
1468.59	2.62127	1.40272	2.973	-28.1526	6.43805	0.2614	-0.00923507	77.2587	17.199	1	9	0.00477314	0.0016055	0	-4.78915e-05	-0.0001143	3.58752e-05	-32.6034	0.0223452	0.018824	0.01204	-28.1858	2.99527	2.6401	1.41476	0.296567	0.158703	0.336361	28.1526	17199	32139.8	36452.3	-61.8474	0.0000000E+000	0.0000000E+000	0.0000000E+000	61.8474	0.0000000E+000	0.0000000E+000	0.0000000E+000	-61.8474	0.0000000E+000	0.0000000E+000	0.0000000E+000	-28.1526	0.0000000E+000	0.0000000E+000	0.0000000E+000	28.1526	1.8687	61.8474	-2.74641e-06	-2.41404e-06	1.05557e-09	-2.4151e-06	0.261514	28305.1	12.3767	28317.5
1000.32	2.89214	1.70536	3.35749	-30.5258	7.13384	0.261401	-0.0234315	93.2966	24.0695	1	10	0.0048873	0.00145564	0	-5.21184e-05	-5.69702e-05	6.66438e-06	78.7855	0.00457831	0.000890397	-0.00449089	-30.4521	3.35598	2.89303	1.70087	0.256561	0.151282	0.297842	30.5258	24069.5	40819.9	47387.8	-59.4742	0.0000000E+000	0.0000000E+000	0.0000000E+000	59.4742	0.0000000E+000	0.0000000E+000	0.0000000E+000	-59.4742	0.0000000E+000	0.0000000E+000	0.0000000E+000	-30.5258	0.0000000E+000	0.0000000E+000	0.0000000E+000	30.5258	1.69592	59.4742	-4.22687e-06	-6.12502e-06	1.3349e-09	-6.12635e-06	0.261458	11156	2.43135	11158.4
681.09	3.22418	2.10755	3.85189	-33.1715	7.58359	0.261413	-0.0234203	110.876	33.1929	1	10	0.00483259	0.0012546	0	-5.58038e-05	-0.00032451	1.0151e-05	-100.195	0.00809102	-0.00143207	0.00796328	-33.2822	3.85506	3.22274	2.11552	0.217305	0.142046	0.259613	33.1715	33192.9	50779.2	60665.4	-56.8285	0.0000000E+000	0.0000000E+000	0.0000000E+000	56.8285	0.0000000E+000	0.0000000E+000	0.0000000E+000	-56.8285	0.0000000E+000	0.0000000E+000	0.0000000E+000	-33.1715	0.0000000E+000	0.0000000E+000	0.0000000E+000	33.1715	1.52982	56.8285	-3.68542e-06	-6.12236e-06	7.60011e-09	-6.12996e-06	0.261737	11161.8	13.8559	11175.7
463.961	3.66525	2.62359	4.50747	-35.5951	8.03531	0.261404	-0.0230696	130.75	44.2964	1	10	0.00478972	0.00106262	0	-5.82248e-05	-0.0001143	4.23555e-06	71.6076	0.00398596	0.00125766	-0.00378234	-35.5467	4.50629	3.66651	2.61981	0.180401	0.129131	0.221854	35.5951	44296.4	61883.8	76103.8	-54.4049	0.0000000E+000	0.0000000E+000	0.0000000E+000	54.4049	0.0000000E+000	0.0000000E+000	0.0000000E+000	-54.4049	0.0000000E+000	0.0000000E+000	0.0000000E+000	-35.5951	0.0000000E+000	0.0000000E+000	0.0000000E+000	35.5951	1.39704	54.4049	-2.42095e-06	-6.03049e-06	2.63686e-09	-6.03313e-06	0.261518	11331.1	4.95457	11336
316.316	4.2745	3.26977	5.38171	-37.4141	8.48305	0.261402	-0.0226444	153.88	56.8036	1	10	0.00477681	0.000887602	0	-6.09482e-05	0.000153239	7.04722e-06	-13.1686	0.00793963	0.00773085	0.00180878	-37.3794	5.38895	4.28223	3.27158	0.147586	0.112896	0.185815	37.4141	56803.6	74258.3	93493	-52.5859	0.0000000E+000	0.0000000E+000	0.0000000E+000	52.5859	0.0000000E+000	0.0000000E+000	0.0000000E+000	-52.5859	0.0000000E+000	0.0000000E+000	0.0000000E+000	-37.4141	0.0000000E+000	0.0000000E+000	0.0000000E+000	37.4141	1.30728	52.5859	-2.72343e-06	-5.91928e-06	-3.47001e-09	-5.91581e-06	0.261248	11543.8	6.7672	11537
215.345	5.13019	3.98108	6.49368	-37.8118	8.93459	0.261411	-0.0232935	185.646	69.776	1	10	0.00475612	0.000732423	0	-6.2962e-05	0.000115019	1.17855e-05	-35.3367	0.0160911	0.0131266	0.0093068	-37.8057	6.50975	5.14332	3.99039	0.121661	0.0944103	0.153996	37.8118	69775.9	89916.3	113814	-52.1882	0.0000000E+000	0.0000000E+000	0.0000000E+000	52.1882	0.0000000E+000	0.0000000E+000	0.0000000E+000	-52.1882	0.0000000E+000	0.0000000E+000	0.0000000E+000	-37.8118	0.0000000E+000	0.0000000E+000	0.0000000E+000	37.8118	1.28864	52.1882	-2.0138e-06	-6.08918e-06	-2.6792e-09	-6.0865e-06	0.261296	11222.5	4.93784	11217.6
146.737	6.28583	4.70676	7.85272	-36.8255	9.38055	0.261407	-0.0236404	230.44	82.7868	1	10	0.00475279	0.000605241	0	-6.51755e-05	-0.00026718	5.6179e-06	-13.2858	0.00928209	0.00903367	0.00213311	-36.7985	7.86123	6.29486	4.70889	0.101935	0.0763277	0.127344	36.8255	82786.8	110561	138121	-53.1745	0.0000000E+000	0.0000000E+000	0.0000000E+000	53.1745	0.0000000E+000	0.0000000E+000	0.0000000E+000	-53.1745	0.0000000E+000	0.0000000E+000	0.0000000E+000	-36.8255	0.0000000E+000	0.0000000E+000	0.0000000E+000	36.8255	1.33549	53.1745	-2.2135e-06	-6.17975e-06	6.31623e-09	-6.18607e-06	0.261674	11057.6	11.3018	11068.9
100.032	7.73586	5.30903	9.38239	-34.4613	9.83178	0.261404	-0.0229428	299.686	95.9553	1	10	0.0047446	0.000505692	0	-6.84871e-05	-0.000439169	6.35459e-06	-36.3933	0.0125661	0.0101153	0.0074558	-34.4639	9.39495	7.74597	5.31648	0.0878782	0.0603098	0.106583	34.4613	95955.3	139818	169577	-55.5387	0.0000000E+000	0.0000000E+000	0.0000000E+000	55.5387	0.0000000E+000	0.0000000E+000	0.0000000E+000	-55.5387	0.0000000E+000	0.0000000E+000	0.0000000E+000	-34.4613	0.0000000E+000	0.0000000E+000	0.0000000E+000	34.4613	1.45711	55.5387	-3.31166e-06	-5.99734e-06	1.00758e-08	-6.00742e-06	0.261843	11393.7	19.1419	11412.8
68.104	9.39246	5.64156	10.9565	-30.9911	10.2945	0.261408	-0.0199214	414.236	109.825	1	10	0.00474573	0.000433142	0	-7.13169e-05	-0.000381839	2.46641e-06	-36.178	0.00569423	0.00459631	0.00336128	-30.9938	10.9622	9.39705	5.64492	0.0782408	0.0469952	0.0912698	30.9911	109825	182844	213292	-59.0089	0.0000000E+000	0.0000000E+000	0.0000000E+000	59.0089	0.0000000E+000	0.0000000E+000	0.0000000E+000	-59.0089	0.0000000E+000	0.0000000E+000	0.0000000E+000	-30.9911	0.0000000E+000	0.0000000E+000	0.0000000E+000	30.9911	1.66487	59.0089	-2.82978e-06	-5.20762e-06	7.60678e-09	-5.21522e-06	0.26179	13122	19.1673	13141.1
46.4415	11.0959	5.6588	12.4555	-27.0212	10.7306	0.261387	-0.0269341	605.605	125.001	1	10	0.00472797	0.000379588	0	-7.43286e-05	5.76895e-05	1.02367e-05	129.778	0.0269679	-0.0172543	-0.0207257	-26.9722	12.4307	11.0786	5.63807	0.0715216	0.0364754	0.0802857	27.0212	125001	245104	275139	-62.9788	0.0000000E+000	0.0000000E+000	0.0000000E+000	62.9788	0.0000000E+000	0.0000000E+000	0.0000000E+000	-62.9788	0.0000000E+000	0.0000000E+000	0.0000000E+000	-27.0212	0.0000000E+000	0.0000000E+000	0.0000000E+000	27.0212	1.96082	62.9788	-3.01171e-06	-7.04022e-06	-1.55382e-09	-7.03867e-06	0.261329	9704.66	2.14187	9702.52
31.6296	12.7269	5.39554	13.8234	-22.9743	11.1606	0.261391	-0.0287209	932.593	142.079	1	10	0.0047262	0.000341898	0	-7.71048e-05	-0.0003054	1.27352e-05	-3.88301	0.0372486	0.0371631	0.00252246	-22.924	13.8586	12.7641	5.39806	0.0666029	0.0282361	0.072341	22.9743	142080	335135	364009	-67.0256	0.0000000E+000	0.0000000E+000	0.0000000E+000	67.0256	0.0000000E+000	0.0000000E+000	0.0000000E+000	-67.0256	0.0000000E+000	0.0000000E+000	0.0000000E+000	-22.9743	0.0000000E+000	0.0000000E+000	0.0000000E+000	22.9743	2.35879	67.0256	-2.77612e-06	-7.50739e-06	8.77135e-09	-7.51617e-06	0.261697	9101.09	10.6334	9111.73
21.5517	14.1664	5.01021	15.0263	-19.477	11.5815	0.261396	-0.0261769	1473.95	163.866	1	10	0.00473933	0.000315402	0	-8.02322e-05	-0.00019074	9.18285e-06	-32.506	0.0291147	0.0245535	0.0156459	-19.502	15.0547	14.191	5.02586	0.0627416	0.0221897	0.0665499	19.477	163866	463334	491457	-70.5229	0.0000000E+000	0.0000000E+000	0.0000000E+000	70.5229	0.0000000E+000	0.0000000E+000	0.0000000E+000	-70.5229	0.0000000E+000	0.0000000E+000	0.0000000E+000	-19.477	0.0000000E+000	0.0000000E+000	0.0000000E+000	19.477	2.82751	70.5229	-3.12745e-06	-6.84254e-06	4.99298e-09	-6.84753e-06	0.261587	9985.75	7.28657	9993.04
14.6852	15.4817	4.51785	16.1275	-16.2682	12.2912	0.261426	-0.00418019	2398.89	188.253	1	11	0.00472695	0.0002931	0	-8.47845e-05	-9.51901e-05	1.17874e-05	-53.1062	0.0402163	0.0241432	0.032163	-16.3537	16.1597	15.5059	4.55001	0.0595234	0.01737	0.0620061	16.2682	188253	645104	672010	-73.7318	0.0000000E+000	0.0000000E+000	0.0000000E+000	73.7318	0.0000000E+000	0.0000000E+000	0.0000000E+000	-73.7318	0.0000000E+000	0.0000000E+000	0.0000000E+000	-16.2682	0.0000000E+000	0.0000000E+000	0.0000000E+000	16.2682	3.42679	73.7318	-4.55227e-06	-1.09281e-06	3.97913e-10	-1.09321e-06	0.261521	62539.4	22.7717	62562.1
10.0032	16.5538	4.0405	17.0398	-13.7167	12.7428	0.261437	-0.0036728	3937.73	221.404	1	11	0.00474117	0.000278241	0	-8.29447e-05	-0.0001143	9.3148e-06	-10.1263	0.0334775	0.032956	0.00588599	-13.7097	17.0732	16.5868	4.04639	0.0570123	0.0139157	0.0586861	13.7167	221404	907089	933719	-76.2833	0.0000000E+000	0.0000000E+000	0.0000000E+000	76.2833	0.0000000E+000	0.0000000E+000	0.0000000E+000	-76.2833	0.0000000E+000	0.0000000E+000	0.0000000E+000	-13.7167	0.0000000E+000	0.0000000E+000	0.0000000E+000	13.7167	4.09698	76.2833	1.83976e-06	-9.60207e-07	4.19802e-10	-9.60626e-07	0.261551	71181.9	31.1207	71213.1
6.81719	17.4283	3.58687	17.7936	-11.6295	13.0825	0.261429	-0.00345381	6508.77	264.488	1	11	0.00474415	0.000266622	0	-8.529e-05	-0.00015252	7.52823e-06	54.6845	0.0282356	0.0163224	-0.0230397	-11.5463	17.8049	17.4446	3.56383	0.0550464	0.011329	0.0562001	11.6295	264487	1.28512e+06	1.31205e+06	-78.3705	0.0000000E+000	0.0000000E+000	0.0000000E+000	78.3705	0.0000000E+000	0.0000000E+000	0.0000000E+000	-78.3705	0.0000000E+000	0.0000000E+000	0.0000000E+000	-11.6295	0.0000000E+000	0.0000000E+000	0.0000000E+000	11.6295	4.85891	78.3705	-2.34526e-06	-9.02926e-07	5.26774e-10	-9.03453e-07	0.261582	75693.1	44.16	75737.3
4.63925	18.2307	3.12545	18.4967	-9.72814	13.5675	0.261431	-0.00364184	10976.4	313.398	1	11	0.0047366	0.000256078	0	-8.64954e-05	3.85796e-05	8.13248e-06	-61.7722	0.0317578	0.0150207	0.027981	-9.80562	18.5162	18.2457	3.15343	0.0532863	0.00913533	0.0540637	9.72814	313398	1.82805e+06	1.85472e+06	-80.2719	0.0000000E+000	0.0000000E+000	0.0000000E+000	80.2719	0.0000000E+000	0.0000000E+000	0.0000000E+000	-80.2719	0.0000000E+000	0.0000000E+000	0.0000000E+000	-9.72814	0.0000000E+000	0.0000000E+000	0.0000000E+000	9.72814	5.83299	80.2719	-1.20546e-06	-9.52088e-07	-1.405e-10	-9.51948e-07	0.261392	71785.4	10.5934	71774.8
3.1604	18.8657	2.80501	19.0731	-8.45698	14.2605	0.261433	-0.00299212	17953.3	388.305	1	11	0.00472969	0.000247977	0	-8.39561e-05	-0.00022896	9.12742e-06	-62.8916	0.0368075	0.0167723	0.032764	-8.54682	19.0945	18.8824	2.83778	0.0518599	0.0077107	0.05243	8.45698	388305	2.61162e+06	2.64033e+06	-81.543	0.0000000E+000	0.0000000E+000	0.0000000E+000	81.543	0.0000000E+000	0.0000000E+000	0.0000000E+000	-81.543	0.0000000E+000	0.0000000E+000	0.0000000E+000	-8.45698	0.0000000E+000	0.0000000E+000	0.0000000E+000	8.45698	6.7257	81.543	2.5393e-06	-7.82239e-07	6.85076e-10	-7.82924e-07	0.261662	87373.8	76.5209	87450.3
2.15577	19.4528	2.46183	19.608	-7.21265	15.264	0.26144	-0.00257772	29988.9	472.726	1	11	0.0047337	0.000241416	0	-8.14562e-05	-3.78603e-05	4.91892e-06	-1.53908	0.0203752	0.0203679	0.000547255	-7.20677	19.6283	19.4732	2.46238	0.050596	0.00640311	0.0509996	7.21265	472726	3.73538e+06	3.76517e+06	-82.7874	0.0000000E+000	0.0000000E+000	0.0000000E+000	82.7874	0.0000000E+000	0.0000000E+000	0.0000000E+000	-82.7874	0.0000000E+000	0.0000000E+000	0.0000000E+000	-7.21265	0.0000000E+000	0.0000000E+000	0.0000000E+000	7.21265	7.90179	82.7874	2.4999e-06	-6.7392e-07	9.75934e-11	-6.74018e-07	0.261478	101423	14.6875	101437
1.46631	19.9761	2.25497	20.103	-6.44047	16.7255	0.261443	-0.00153686	48134.1	605.638	1	11	0.00474469	0.000236019	0	-8.307e-05	-0.00028629	5.01346e-06	59.3458	0.0212418	0.0108302	-0.0182735	-6.38528	20.1117	19.987	2.2367	0.0494299	0.00557981	0.0497438	6.44047	605639	5.36517e+06	5.39925e+06	-83.5595	0.0000000E+000	0.0000000E+000	0.0000000E+000	83.5595	0.0000000E+000	0.0000000E+000	0.0000000E+000	-83.5595	0.0000000E+000	0.0000000E+000	0.0000000E+000	-6.44047	0.0000000E+000	0.0000000E+000	0.0000000E+000	6.44047	8.85871	83.5595	-1.61373e-06	-4.01802e-07	4.39987e-10	-4.02241e-07	0.261729	170115	186.282	170301
1.00006	20.3956	2.04256	20.4977	-5.71894	19.9	0.261439	-0.00120009	77914.2	773.677	1	12	0.00474094	0.000231292	0	-9.13428e-05	-0.00036273	2.03655e-06	-15.3835	0.00880511	0.00848964	0.0023358	-5.72307	20.5063	20.4041	2.0449	0.0485432	0.00486146	0.048786	5.71894	773677	7.7254e+06	7.76404e+06	-84.2811	0.0000000E+000	0.0000000E+000	0.0000000E+000	84.2811	0.0000000E+000	0.0000000E+000	0.0000000E+000	-84.2811	0.0000000E+000	0.0000000E+000	0.0000000E+000	-5.71894	0.0000000E+000	0.0000000E+000	0.0000000E+000	5.71894	9.98531	84.2811	-8.27283e-06	-3.13751e-07	4.35309e-10	-3.14186e-07	0.261802	217849	302.251	218151
0.681362	20.7702	1.90678	20.8575	-5.24528	23.0122	0.261442	-0.000866744	122501	1023.81	1	12	0.00473977	0.000227245	0	-0.000101335	-3.78603e-05	1.98542e-06	45.9379	0.00873688	0.00607596	-0.0062782	-5.22659	20.863	20.7762	1.90051	0.0477436	0.00438306	0.0479444	5.24528	1.02381e+06	1.11521e+07	1.1199e+07	-84.7547	0.0000000E+000	0.0000000E+000	0.0000000E+000	84.7547	0.0000000E+000	0.0000000E+000	0.0000000E+000	-84.7547	0.0000000E+000	0.0000000E+000	0.0000000E+000	-5.24528	0.0000000E+000	0.0000000E+000	0.0000000E+000	5.24528	10.8928	84.7547	-9.99214e-06	-2.26603e-07	3.28152e-11	-2.26636e-07	0.26148	301637	43.681	301680
0.464091	21.0749	1.86987	21.1577	-5.07027	27.5688	0.261443	-0.00190679	183403	1432.49	1	12	0.00473519	0.000223804	0	-0.000108616	-0.00020985	9.86066e-06	67.3088	0.0440593	0.0169965	-0.040649	-4.95663	21.1711	21.0919	1.82922	0.0470791	0.00417708	0.0472641	5.07027	1.43249e+06	1.61453e+07	1.62087e+07	-84.9297	0.0000000E+000	0.0000000E+000	0.0000000E+000	84.9297	0.0000000E+000	0.0000000E+000	0.0000000E+000	-84.9297	0.0000000E+000	0.0000000E+000	0.0000000E+000	-5.07027	0.0000000E+000	0.0000000E+000	0.0000000E+000	5.07027	11.2708	84.9297	-7.28087e-06	-4.98517e-07	4.00139e-10	-4.98917e-07	0.261653	137112	110.054	137222
0.316193	21.3949	2.02835	21.4908	-5.41576	34.2449	0.261438	-0.00279438	248156	2210.57	1	12	0.00474022	0.00022057	0	-0.000106228	-0.00015252	3.21781e-06	-8.84987	0.0145886	0.0144149	0.0022444	-5.41809	21.5054	21.4093	2.0306	0.0463238	0.00439175	0.0465315	5.41576	2.21057e+06	2.3317e+07	2.34215e+07	-84.5842	0.0000000E+000	0.0000000E+000	0.0000000E+000	84.5842	0.0000000E+000	0.0000000E+000	0.0000000E+000	-84.5842	0.0000000E+000	0.0000000E+000	0.0000000E+000	-5.41576	0.0000000E+000	0.0000000E+000	0.0000000E+000	5.41576	10.5479	84.5842	2.38824e-06	-7.30556e-07	4.26199e-10	-7.30982e-07	0.26159	93558.3	54.581	93612.9
0.215268	21.6604	2.29252	21.7813	-6.04165	44.0384	0.261433	-0.00265423	322499	3572.6	1	12	0.00474095	0.000217661	0	-8.8447e-05	-3.78603e-05	1.97246e-06	33.7731	0.00906207	0.00753281	-0.00503765	-6.02639	21.7883	21.6679	2.28748	0.0456558	0.00483218	0.0459109	6.04165	3.5726e+06	3.37549e+07	3.39435e+07	-83.9584	0.0000000E+000	0.0000000E+000	0.0000000E+000	83.9584	0.0000000E+000	0.0000000E+000	0.0000000E+000	-83.9584	0.0000000E+000	0.0000000E+000	0.0000000E+000	-6.04165	0.0000000E+000	0.0000000E+000	0.0000000E+000	6.04165	9.44829	83.9584	1.77806e-05	-6.93904e-07	1.0049e-10	-6.94005e-07	0.261471	98496.6	14.2641	98510.9
0.146929	21.984	2.70537	22.1499	-7.01559	58.3766	0.261435	-0.00160657	400393	5973.07	1	12	0.00474024	0.000214008	0	-5.52458e-05	-0.0001143	2.02909e-06	14.4807	0.00948138	0.00918018	-0.00237085	-7.0066	22.1587	21.9932	2.703	0.044809	0.00551423	0.045147	7.01559	5.97307e+06	4.85376e+07	4.89038e+07	-82.9844	0.0000000E+000	0.0000000E+000	0.0000000E+000	82.9844	0.0000000E+000	0.0000000E+000	0.0000000E+000	-82.9844	0.0000000E+000	0.0000000E+000	0.0000000E+000	-7.01559	0.0000000E+000	0.0000000E+000	0.0000000E+000	7.01559	8.12607	82.9844	3.32012e-05	-4.20014e-07	1.83631e-10	-4.20198e-07	0.26155	162729	71.1454	162800
0.0999041	22.4634	3.3772	22.7159	-8.54995	79.4537	0.261438	9.72917e-05	471715	10426.4	1	12	0.00474195	0.00020875	0	-1.85606e-05	5.76895e-05	1.58041e-06	42.1962	0.00757082	0.00560883	-0.0050851	-8.53516	22.7207	22.469	3.37212	0.0435328	0.00654483	0.0440221	8.54995	1.04264e+07	6.93512e+07	7.01306e+07	-81.4501	0.0000000E+000	0.0000000E+000	0.0000000E+000	81.4501	0.0000000E+000	0.0000000E+000	0.0000000E+000	-81.4501	0.0000000E+000	0.0000000E+000	0.0000000E+000	-8.54995	0.0000000E+000	0.0000000E+000	0.0000000E+000	8.54995	6.65149	81.4501	3.66852e-05	2.54357e-08	5.61271e-12	2.54301e-08	0.26138	2.68715e+06	592.954	2.68656e+06
0.0680626	23.043	4.39528	23.4585	-10.799	110.38	0.261435	0.00109991	532016	18676.6	1	12	0.00474205	0.000202146	0	-1.37016e-06	-0.0001143	2.87976e-06	17.4291	0.0142459	0.0135919	-0.00426702	-10.7826	23.471	23.0566	4.39102	0.0418736	0.00798707	0.0426285	10.799	1.86766e+07	9.79156e+07	9.96808e+07	-79.201	0.0000000E+000	0.0000000E+000	0.0000000E+000	79.201	0.0000000E+000	0.0000000E+000	0.0000000E+000	-79.201	0.0000000E+000	0.0000000E+000	0.0000000E+000	-10.799	0.0000000E+000	0.0000000E+000	0.0000000E+000	10.799	5.24267	79.201	1.71904e-05	2.87556e-07	-1.2572e-10	2.87681e-07	0.26155	237688	103.918	237792
0.0464052	23.6487	5.78397	24.3457	-13.7435	155.731	0.261436	0.00123406	592963	33468.3	1	12	0.00474253	0.000194799	0	-5.27104e-05	-0.000381839	2.6186e-06	-12.6934	0.0134426	0.013114	0.00295379	-13.7429	24.3592	23.6618	5.78692	0.0398989	0.00975843	0.041075	13.7435	3.34683e+07	1.36841e+08	1.40874e+08	-76.2565	0.0000000E+000	0.0000000E+000	0.0000000E+000	76.2565	0.0000000E+000	0.0000000E+000	0.0000000E+000	-76.2565	0.0000000E+000	0.0000000E+000	0.0000000E+000	-13.7435	0.0000000E+000	0.0000000E+000	0.0000000E+000	13.7435	4.08866	76.2565	-5.13402e-05	3.22626e-07	-4.71211e-10	3.23097e-07	0.261818	211851	309.418	212160
0.0315922	24.4305	7.44175	25.5388	-16.9412	222.337	0.261429	0.000466017	676963	57479.7	1	12	0.00473964	0.000185586	0	-0.000206216	-0.00019074	2.36534e-06	46.8493	0.0127452	0.00871672	-0.00929839	-16.9155	25.5444	24.4392	7.43245	0.0374569	0.0114097	0.0391561	16.9412	5.74797e+07	1.887e+08	1.9726e+08	-73.0588	0.0000000E+000	0.0000000E+000	0.0000000E+000	73.0588	0.0000000E+000	0.0000000E+000	0.0000000E+000	-73.0588	0.0000000E+000	0.0000000E+000	0.0000000E+000	-16.9412	0.0000000E+000	0.0000000E+000	0.0000000E+000	16.9412	3.2829	73.0588	-0.000153505	1.2183e-07	-8.8888e-11	1.21919e-07	0.26162	560987	409.298	561396
0.0215268	25.672	9.7184	27.4499	-20.7347	320.076	0.261438	-0.000371621	760758	95357.1	1	12	0.00473834	0.000172618	0	-0.000424731	-0.00019074	3.27944e-06	8.51361	0.0189983	0.018789	-0.00281259	-20.7153	27.4665	25.6908	9.71559	0.0340704	0.0128977	0.03643	20.7347	9.53572e+07	2.51894e+08	2.69339e+08	-69.2653	0.0000000E+000	0.0000000E+000	0.0000000E+000	69.2653	0.0000000E+000	0.0000000E+000	0.0000000E+000	-69.2653	0.0000000E+000	0.0000000E+000	0.0000000E+000	-20.7347	0.0000000E+000	0.0000000E+000	0.0000000E+000	20.7347	2.64159	69.2653	-0.000218515	-9.71559e-08	7.0883e-11	-9.72268e-08	0.261629	703506	513.264	704019
0.0146812	27.2326	13.0329	30.1906	-25.5747	463.378	0.261434	-0.000795749	831798	155009	1	12	0.00473977	0.000156995	0	-0.000573496	0.000134129	2.0127e-06	15.9598	0.0128201	0.012326	-0.00352506	-25.5586	30.2002	27.245	13.0294	0.0298776	0.0142987	0.0331229	25.5747	1.55009e+08	3.23896e+08	3.59077e+08	-64.4253	0.0000000E+000	0.0000000E+000	0.0000000E+000	64.4253	0.0000000E+000	0.0000000E+000	0.0000000E+000	-64.4253	0.0000000E+000	0.0000000E+000	0.0000000E+000	-25.5747	0.0000000E+000	0.0000000E+000	0.0000000E+000	25.5747	2.08953	64.4253	-0.000148765	-2.08036e-07	-1.06733e-10	-2.07929e-07	0.2613	328538	168.557	328369
0.0100092	28.7706	17.3876	33.6166	-31.1468	673.56	0.261432	-0.000669575	914498	244655	1	12	0.00474137	0.000141043	0	-0.000461256	1.94696e-05	1.84728e-06	-7.96937	0.0130973	0.0129708	0.00181586	-31.138	33.6286	28.7835	17.3894	0.025459	0.0153862	0.0297472	31.1468	2.44655e+08	4.04822e+08	4.73008e+08	-58.8532	0.0000000E+000	0.0000000E+000	0.0000000E+000	58.8532	0.0000000E+000	0.0000000E+000	0.0000000E+000	-58.8532	0.0000000E+000	0.0000000E+000	0.0000000E+000	-31.1468	0.0000000E+000	0.0000000E+000	0.0000000E+000	31.1468	1.65466	58.8532	0.000112241	-1.75048e-07	-1.30363e-11	-1.75035e-07	0.261412	390445	29.0776	390416