File: txt/19064_R307_UA701_3p24_SOC00_C03.mpt
EC-Lab ASCII FILE
Nb header lines : 65

Potentio Electrochemical Impedance Spectroscopy

Run on channel : 3 (SN 65921)
Grouped channel(s) : 1, 2, 3, 4, 5
User :
CE vs. WE compliance from -10 V to 10 V
Electrode connection : standard
Potential control : Ewe
Ewe ctrl range : min = -10.00 V, max = 10.00 V
Safety Limits :
	Do not start on E overload
Acquisition started on : 11/12/2025 10:25:43.761
Loaded Setting File :  C:\Users\Celltest\OneDrive - store-dot.com\Documents\EC-Lab\Data\@Biologic Test Protocols\anode half cell EIS SOC00.mps
Saved on :
	File : 19062_R307_UA701_3p24_SOC00_C03.mpr
	Directory : C:\Users\Celltest\OneDrive - store-dot.com\Documents\EC-Lab\Data\Anna\
	Host : 169.254.61.224
Device : VMP-3e (SN .003165)
Address : USB
EC-LAB for windows v11.62 (software)
Internet server v27.00 (firmware)
Command interpretor v12.03 (firmware)
Electrode material :
Initial state :
Electrolyte :
Comments :
Electrode surface area : 0.001 cm²
Characteristic mass : 0.001 g
Equivalent Weight : 0.000 g/eq.
Density : 0.000 g/cm3
Volume (V) : 0.001 cm³
Record Ece
Cycle Definition : Charge/Discharge alternance
Mode                Single sine
E (V)               0.0000
vs.                 Eoc
tE (h:m:s)          0:00:0.0000
record              0
dI                  0.000
unit dI             mA
dt (s)              0.000
fi                  100.000
unit fi             kHz
ff                  10.000
unit ff             mHz
Nd                  6
Points              per decade
spacing             Logarithmic
Va (mV)             5.0
pw                  0.10
Na                  2
corr                0
E range min (V)     -10.000
E range max (V)     10.000
I Range             Auto
Bandwidth           5
nc cycles           0
goto Ns'            0
nr cycles           0
inc. cycle          0

freq/Hz	Re(Z)/Ohm	-Im(Z)/Ohm	|Z|/Ohm	Phase(Z)/deg	time/s	<Ewe>/V	<I>/mA	Cs/µF	Cp/µF	cycle number	I Range	|Ewe|/V	|I|/A	Ns	(Q-Qo)/mA.h	<Ece>/V	|Ece|/V	Phase(Zce)/deg	|Zce|/Ohm	Re(Zce)/Ohm	-Im(Zce)/Ohm	Phase(Zwe-ce)/deg	|Zwe-ce|/Ohm	Re(Zwe-ce)/Ohm	-Im(Zwe-ce)/Ohm	Re(Y)/Ohm-1	Im(Y)/Ohm-1	|Y|/Ohm-1	Phase(Y)/deg	Re(C)/nF	Im(C)/nF	|C|/nF	Phase(C)/deg	Re(M)	Im(M)	|M|	Phase(M)/deg	Re(Permittivity)	Im(Permittivity)	|Permittivity|	Phase(Permittivity)/deg	Re(Resistivity)/Ohm.cm	Im(Resistivity)/Ohm.cm	|Resistivity|/Ohm.cm	Phase(Resistivity)/deg	Re(Conductivity)/mS/cm	Im(Conductivity)/mS/cm	|Conductivity|/mS/cm	Phase(Conductivity)/deg	Tan(Delta)	Loss Angle(Delta)/deg	dq/mA.h	Pwe/W	Pce/W	Pwe-ce/W	<Ewe-Ece>/V	Rwe/Ohm	Rce/Ohm	Rwe-ce/Ohm		Ewe-Ece/V
100004	0.989185	0.413695	1.07221	-22.6956	1.72554	0.262687	0.0115174	3.84701	0.572699	1	9	0.00501717	0.00467929	0	2.61514e-06	-0.000244628	4.31708e-05	94.7495	0.00922594	-0.000763901	-0.00919426	-22.2563	1.06799	0.988421	0.404501	0.860437	0.359851	0.932655	22.6956	572.699	1369.38	1484.31	-67.3044	0.0000000E+000	0.0000000E+000	0.0000000E+000	67.3044	0.0000000E+000	0.0000000E+000	0.0000000E+000	-67.3044	0.0000000E+000	0.0000000E+000	0.0000000E+000	-22.6956	0.0000000E+000	0.0000000E+000	0.0000000E+000	22.6956	2.3911	67.3044	2.61514e-06	3.02546e-06	-2.81747e-09	3.02828e-06	0.262932	22807.9	21.24	22829.2
68132	1.09883	0.452994	1.18854	-22.4039	2.23254	0.262719	0.0293064	5.15676	0.749084	1	9	0.00503713	0.00423807	0	5.70882e-06	-0.00011097	3.89244e-05	89.419	0.00918447	9.3128e-05	-0.009184	-21.9917	1.18516	1.09893	0.44381	0.77786	0.320672	0.841366	22.4039	749.084	1817.06	1965.41	-67.5961	0.0000000E+000	0.0000000E+000	0.0000000E+000	67.5961	0.0000000E+000	0.0000000E+000	0.0000000E+000	-67.5961	0.0000000E+000	0.0000000E+000	0.0000000E+000	-22.4039	0.0000000E+000	0.0000000E+000	0.0000000E+000	22.4039	2.42571	67.5961	3.09368e-06	7.69935e-06	-3.25213e-09	7.7026e-06	0.26283	8964.57	3.78655	8968.36
46420.4	1.21965	0.493314	1.31564	-22.0219	2.73952	0.262691	0.0201694	6.95005	0.977148	1	9	0.00506444	0.00384941	0	1.71552e-05	-0.00011097	1.62696e-05	53.7108	0.00422652	0.00250151	-0.00340675	-21.8437	1.31669	1.22215	0.489908	0.70463	0.285003	0.760086	22.0219	977.148	2415.87	2606	-67.9781	0.0000000E+000	0.0000000E+000	0.0000000E+000	67.9781	0.0000000E+000	0.0000000E+000	0.0000000E+000	-67.9781	0.0000000E+000	0.0000000E+000	0.0000000E+000	-22.0219	0.0000000E+000	0.0000000E+000	0.0000000E+000	22.0219	2.47236	67.9781	1.14464e-05	5.29833e-06	-2.2382e-09	5.30057e-06	0.262802	13024.2	5.50189	13029.7
31621.1	1.33565	0.542858	1.44175	-22.1187	3.24652	0.262683	0.0290826	9.27163	1.31446	1	9	0.0051235	0.00355366	0	9.30533e-06	9.90647e-05	1.4642e-05	52.6793	0.00412026	0.00249801	-0.00327666	-21.9608	1.44284	1.33815	0.539581	0.642555	0.261158	0.693599	22.1187	1314.46	3234.09	3491.01	-67.8813	0.0000000E+000	0.0000000E+000	0.0000000E+000	67.8813	0.0000000E+000	0.0000000E+000	0.0000000E+000	-67.8813	0.0000000E+000	0.0000000E+000	0.0000000E+000	-22.1187	0.0000000E+000	0.0000000E+000	0.0000000E+000	22.1187	2.4604	67.8813	-7.84989e-06	7.6395e-06	2.88106e-09	7.63662e-06	0.262584	9032.31	3.40632	9028.9
21544.7	1.46659	0.592924	1.58191	-22.0129	3.62952	0.262704	0.0260245	12.4589	1.75031	1	9	0.00535348	0.00338419	0	2.29305e-05	-7.27818e-05	5.64169e-06	-38.6818	0.00166707	0.00130137	0.00104191	-22.0302	1.58351	1.46789	0.593966	0.586063	0.236938	0.632147	22.0129	1750.31	4329.37	4669.8	-67.9871	0.0000000E+000	0.0000000E+000	0.0000000E+000	67.9871	0.0000000E+000	0.0000000E+000	0.0000000E+000	-67.9871	0.0000000E+000	0.0000000E+000	0.0000000E+000	-22.0129	0.0000000E+000	0.0000000E+000	0.0000000E+000	22.0129	2.47348	67.9871	1.36252e-05	6.83675e-06	-1.89411e-09	6.83864e-06	0.262777	10094.5	2.79666	10097.3
14678.6	1.59653	0.64936	1.72354	-22.1331	3.88856	0.262708	0.0328865	16.6975	2.37017	1	9	0.00493296	0.00286211	0	2.80686e-05	-0.00020644	8.81199e-06	41.6598	0.00307884	0.00230022	-0.00204653	-22.0414	1.7249	1.59883	0.647313	0.537448	0.218597	0.580202	22.1331	2370.17	5827.36	6290.93	-67.8669	0.0000000E+000	0.0000000E+000	0.0000000E+000	67.8669	0.0000000E+000	0.0000000E+000	0.0000000E+000	-67.8669	0.0000000E+000	0.0000000E+000	0.0000000E+000	-22.1331	0.0000000E+000	0.0000000E+000	0.0000000E+000	22.1331	2.45862	67.8669	5.13805e-06	8.63956e-06	-6.78911e-09	8.64635e-06	0.262915	7988.32	6.27735	7994.59
10002.2	1.74859	0.723263	1.89226	-22.4713	4.27154	0.262691	0.0235631	22.0002	3.21408	1	9	0.00486167	0.00256923	0	3.11655e-05	-3.45937e-05	9.28327e-06	-133.924	0.00361325	-0.00250652	0.00260248	-22.5732	1.89095	1.74608	0.725866	0.488341	0.201992	0.528468	22.4713	3214.08	7770.47	8408.95	-67.5287	0.0000000E+000	0.0000000E+000	0.0000000E+000	67.5287	0.0000000E+000	0.0000000E+000	0.0000000E+000	-67.5287	0.0000000E+000	0.0000000E+000	0.0000000E+000	-22.4713	0.0000000E+000	0.0000000E+000	0.0000000E+000	22.4713	2.41763	67.5287	3.09692e-06	6.18982e-06	-8.15136e-10	6.19063e-06	0.262725	11148.4	1.46813	11149.8
6810.42	1.92016	0.765758	2.06722	-21.7421	4.53055	0.262684	0.0213628	30.5179	4.1876	1	9	0.00456988	0.00221064	0	3.2405e-05	0.000156347	0.000144549	-110.408	0.0653876	-0.0228006	0.0612835	-23.552	2.06977	1.89736	0.827042	0.449329	0.179192	0.483742	21.7421	4187.6	10500.5	11304.7	-68.2579	0.0000000E+000	0.0000000E+000	0.0000000E+000	68.2579	0.0000000E+000	0.0000000E+000	0.0000000E+000	-68.2579	0.0000000E+000	0.0000000E+000	0.0000000E+000	-21.7421	0.0000000E+000	0.0000000E+000	0.0000000E+000	21.7421	2.50752	68.2579	1.23948e-06	5.61167e-06	3.34001e-09	5.60833e-06	0.262528	12296.3	7.31865	12289
4646	2.08288	0.931942	2.28187	-24.1051	4.92162	0.262672	0.0127853	36.758	6.13124	1	9	0.00496871	0.00217747	0	3.2374e-05	-0.00011097	9.46003e-06	-37.2879	0.0043445	0.00345649	0.00263199	-24.1299	2.2861	2.08634	0.934574	0.400022	0.178981	0.438237	24.1051	6131.24	13703.3	15012.4	-65.8949	0.0000000E+000	0.0000000E+000	0.0000000E+000	65.8949	0.0000000E+000	0.0000000E+000	0.0000000E+000	-65.8949	0.0000000E+000	0.0000000E+000	0.0000000E+000	-24.1051	0.0000000E+000	0.0000000E+000	0.0000000E+000	24.1051	2.23499	65.8949	-3.09607e-08	3.35833e-06	-1.41878e-09	3.35975e-06	0.262783	20544.8	8.67951	20553.5
3163.08	2.26231	1.07044	2.50278	-25.3217	5.29467	0.26244	-0.0679926	47.0054	8.59858	1	9	0.00486064	0.0019421	0	2.56105e-05	-0.000263722	1.01127e-05	-65.2998	0.00520708	0.00217589	0.00473067	-25.3982	2.50677	2.26449	1.07517	0.361167	0.17089	0.399556	25.3217	8598.58	18172.6	20104.2	-64.6783	0.0000000E+000	0.0000000E+000	0.0000000E+000	64.6783	0.0000000E+000	0.0000000E+000	0.0000000E+000	-64.6783	0.0000000E+000	0.0000000E+000	0.0000000E+000	-25.3217	0.0000000E+000	0.0000000E+000	0.0000000E+000	25.3217	2.11344	64.6783	-6.76356e-06	-1.7844e-05	1.79312e-08	-1.78619e-05	0.262704	3859.83	3.87869	3863.71
2155.69	2.48715	1.25805	2.78722	-26.8312	5.74585	0.262586	0.0512722	58.6861	11.9561	1	9	0.00480308	0.00172325	0	3.28173e-05	-5.36878e-05	2.43414e-06	-102.399	0.00141253	-0.000303299	0.00137958	-26.8593	2.78757	2.48685	1.25943	0.320154	0.16194	0.35878	26.8312	11956.1	23637	26488.8	-63.1688	0.0000000E+000	0.0000000E+000	0.0000000E+000	63.1688	0.0000000E+000	0.0000000E+000	0.0000000E+000	-63.1688	0.0000000E+000	0.0000000E+000	0.0000000E+000	-26.8312	0.0000000E+000	0.0000000E+000	0.0000000E+000	26.8312	1.97699	63.1688	7.20689e-06	1.34634e-05	-2.75269e-09	1.34661e-05	0.26264	5121.42	1.04711	5122.47
1468.59	2.72503	1.49094	3.10623	-28.6842	6.19711	0.262592	0.0572765	72.6877	16.746	1	9	0.00477932	0.00153862	0	3.84961e-05	-3.45937e-05	2.17959e-05	68.7098	0.0141659	0.0051435	-0.0131991	-28.425	3.10444	2.73017	1.47774	0.282425	0.154522	0.321933	28.6842	16746	30607.2	34888.8	-61.3158	0.0000000E+000	0.0000000E+000	0.0000000E+000	61.3158	0.0000000E+000	0.0000000E+000	0.0000000E+000	-61.3158	0.0000000E+000	0.0000000E+000	0.0000000E+000	-28.6842	0.0000000E+000	0.0000000E+000	0.0000000E+000	28.6842	1.82773	61.3158	5.67873e-06	1.50404e-05	-1.98141e-09	1.50423e-05	0.262627	4584.65	0.603978	4585.25
1000.32	2.98029	1.83564	3.50024	-31.6301	6.8928	0.262605	-0.0199986	86.6748	23.8382	1	10	0.00487896	0.00139389	0	4.09025e-05	4.17825e-05	6.80975e-06	-2.83546	0.00488542	0.00487944	0.000241672	-31.5916	3.50452	2.98517	1.83589	0.243255	0.149828	0.285695	31.6301	23838.2	38702.9	45455.1	-58.3699	0.0000000E+000	0.0000000E+000	0.0000000E+000	58.3699	0.0000000E+000	0.0000000E+000	0.0000000E+000	-58.3699	0.0000000E+000	0.0000000E+000	0.0000000E+000	-31.6301	0.0000000E+000	0.0000000E+000	0.0000000E+000	31.6301	1.62356	58.3699	2.40648e-06	-5.25174e-06	-8.35593e-10	-5.25091e-06	0.262564	13131.2	2.08927	13129.1
681.09	3.32529	2.28209	4.03305	-34.4611	7.34254	0.262607	-0.0176345	102.396	32.7855	1	10	0.00482332	0.00119595	0	3.75915e-05	0.000175441	3.93478e-06	134.423	0.00329009	-0.00230288	-0.00234978	-34.4521	4.02982	3.32298	2.27974	0.204439	0.140303	0.247952	34.4611	32785.5	47772.6	57940.6	-55.5389	0.0000000E+000	0.0000000E+000	0.0000000E+000	55.5389	0.0000000E+000	0.0000000E+000	0.0000000E+000	-55.5389	0.0000000E+000	0.0000000E+000	0.0000000E+000	-34.4611	0.0000000E+000	0.0000000E+000	0.0000000E+000	34.4611	1.45712	55.5388	-3.31109e-06	-4.63094e-06	-3.09381e-09	-4.62784e-06	0.262431	14891.6	9.94874	14881.7
463.961	3.77485	2.86216	4.73724	-37.17	7.79431	0.262603	-0.0170789	119.852	43.7504	1	10	0.00477777	0.00100856	0	3.5228e-05	-0.00020644	7.38812e-06	-63.3952	0.00732544	0.00328057	0.0065498	-37.2091	4.74381	3.77813	2.86871	0.168209	0.127539	0.211093	37.17	43750.4	57701.6	72412.5	-52.83	0.0000000E+000	0.0000000E+000	0.0000000E+000	52.83	0.0000000E+000	0.0000000E+000	0.0000000E+000	-52.83	0.0000000E+000	0.0000000E+000	0.0000000E+000	-37.17	0.0000000E+000	0.0000000E+000	0.0000000E+000	37.17	1.31888	52.83	-2.3634e-06	-4.48498e-06	3.52577e-09	-4.4885e-06	0.26281	15375.9	12.0874	15388
316.316	4.40785	3.614	5.70002	-39.3484	8.24203	0.262609	-0.0150877	139.223	55.9674	1	10	0.0047581	0.000834753	0	3.34801e-05	2.26885e-05	1.03797e-05	-8.39069	0.0124345	0.0123014	0.00181446	-39.2842	5.71068	4.42016	3.61582	0.135667	0.111234	0.175438	39.3484	55967.4	68261.2	88272	-50.6516	0.0000000E+000	0.0000000E+000	0.0000000E+000	50.6516	0.0000000E+000	0.0000000E+000	0.0000000E+000	-50.6516	0.0000000E+000	0.0000000E+000	0.0000000E+000	-39.3484	0.0000000E+000	0.0000000E+000	0.0000000E+000	39.3484	1.21966	50.6516	-1.74799e-06	-3.96215e-06	-3.42317e-10	-3.96181e-06	0.262586	17405.5	1.50378	17404
215.345	5.32368	4.50454	6.9737	-40.2356	8.69157	0.262619	-0.0174891	164.072	68.4558	1	10	0.00474413	0.000680289	0	3.20411e-05	-9.18759e-05	5.11799e-06	58.1155	0.00752325	0.00397385	-0.0063881	-40.1745	6.97261	5.32766	4.49815	0.109468	0.0926241	0.143396	40.2356	68455.8	80904.4	105980	-49.7644	0.0000000E+000	0.0000000E+000	0.0000000E+000	49.7644	0.0000000E+000	0.0000000E+000	0.0000000E+000	-49.7644	0.0000000E+000	0.0000000E+000	0.0000000E+000	-40.2356	0.0000000E+000	0.0000000E+000	0.0000000E+000	40.2356	1.18185	49.7644	-1.43893e-06	-4.59297e-06	1.60683e-09	-4.59457e-06	0.262711	15016.2	5.25333	15021.4
146.737	6.59155	5.43095	8.54071	-39.486	9.13747	0.262606	-0.0199688	199.712	80.7546	1	10	0.0047332	0.000554193	0	3.06251e-05	0.000156347	1.42947e-06	-96.2672	0.00257936	-0.000281578	0.00256395	-39.5005	8.54212	6.59127	5.43352	0.0903648	0.074454	0.117086	39.486	80754.6	98011.9	126995	-50.514	0.0000000E+000	0.0000000E+000	0.0000000E+000	50.514	0.0000000E+000	0.0000000E+000	0.0000000E+000	-50.514	0.0000000E+000	0.0000000E+000	0.0000000E+000	-39.486	0.0000000E+000	0.0000000E+000	0.0000000E+000	39.486	1.2137	50.514	-1.416e-06	-5.24393e-06	-3.12206e-09	-5.24081e-06	0.26245	13150.8	7.82956	13143
100.032	8.25166	6.23027	10.3395	-37.054	9.5888	0.262614	-0.0192268	255.372	92.7225	1	10	0.00472019	0.000456518	0	2.7919e-05	0.000137253	7.2649e-06	-27.1595	0.0159137	0.0141591	0.00726411	-37.0389	10.3552	8.26582	6.23754	0.077186	0.0582779	0.096716	37.054	92722.5	122806	153879	-52.946	0.0000000E+000	0.0000000E+000	0.0000000E+000	52.946	0.0000000E+000	0.0000000E+000	0.0000000E+000	-52.946	0.0000000E+000	0.0000000E+000	0.0000000E+000	-37.054	0.0000000E+000	0.0000000E+000	0.0000000E+000	37.054	1.32445	52.946	-2.70613e-06	-5.04922e-06	-2.63893e-09	-5.04658e-06	0.262477	13658.8	7.13864	13651.7
68.104	10.2466	6.79756	12.2964	-33.5601	10.0514	0.262614	-0.0160684	343.791	105.062	1	10	0.0047255	0.000384301	0	2.57625e-05	3.59442e-06	6.96443e-06	-11.4658	0.0181224	0.0177607	0.00360242	-33.5283	12.3131	10.2644	6.80116	0.0677686	0.0449573	0.0813249	33.5601	105063	158371	190051	-56.4399	0.0000000E+000	0.0000000E+000	0.0000000E+000	56.4399	0.0000000E+000	0.0000000E+000	0.0000000E+000	-56.4399	0.0000000E+000	0.0000000E+000	0.0000000E+000	-33.5601	0.0000000E+000	0.0000000E+000	0.0000000E+000	33.5601	1.5074	56.4399	-2.15651e-06	-4.21978e-06	-5.77566e-11	-4.21973e-06	0.26261	16343.5	0.223695	16343.3
46.4415	12.3814	6.88354	14.1662	-29.0722	10.4877	0.262611	-0.0205095	497.854	117.548	1	10	0.00472635	0.000333635	0	2.36984e-05	-7.27818e-05	8.05808e-06	53.3989	0.0241524	0.0144006	-0.0193897	-28.9754	14.1694	12.3958	6.86415	0.0616966	0.0343007	0.0705904	29.0722	117548	211434	241913	-60.9278	0.0000000E+000	0.0000000E+000	0.0000000E+000	60.9278	0.0000000E+000	0.0000000E+000	0.0000000E+000	-60.9278	0.0000000E+000	0.0000000E+000	0.0000000E+000	-29.0722	0.0000000E+000	0.0000000E+000	0.0000000E+000	29.0722	1.7987	60.9278	-2.06404e-06	-5.38602e-06	1.49272e-09	-5.38751e-06	0.262684	12804.4	3.54869	12807.9
31.6296	14.4083	6.68465	15.8835	-24.8886	10.9176	0.262603	-0.0222509	752.746	133.326	1	10	0.00472203	0.000297292	0	2.08335e-05	-0.000149158	1.1814e-05	-49.5008	0.0397386	0.0258078	0.0302178	-24.9482	15.9196	14.4342	6.71486	0.0571114	0.0264964	0.0629585	24.8886	133326	287376	316797	-65.1114	0.0000000E+000	0.0000000E+000	0.0000000E+000	65.1114	0.0000000E+000	0.0000000E+000	0.0000000E+000	-65.1114	0.0000000E+000	0.0000000E+000	0.0000000E+000	-24.8886	0.0000000E+000	0.0000000E+000	0.0000000E+000	24.8886	2.15544	65.1114	-2.86498e-06	-5.84314e-06	3.3189e-09	-5.84646e-06	0.262752	11801.9	6.70347	11808.6
21.5517	16.2622	6.15649	17.3885	-20.7355	11.5704	0.262626	-0.00883746	1199.51	150.364	1	11	0.00472422	0.000271686	0	1.753e-05	-0.000168252	9.36354e-06	-74.9229	0.0344646	0.00896485	0.0332782	-20.8275	17.4087	16.2712	6.18977	0.053784	0.0203613	0.0575091	20.7355	150364	397183	424693	-69.2645	0.0000000E+000	0.0000000E+000	0.0000000E+000	69.2645	0.0000000E+000	0.0000000E+000	0.0000000E+000	-69.2645	0.0000000E+000	0.0000000E+000	0.0000000E+000	-20.7355	0.0000000E+000	0.0000000E+000	0.0000000E+000	20.7355	2.64147	69.2645	-3.30347e-06	-2.32095e-06	1.48692e-09	-2.32244e-06	0.262795	29717.4	19.0385	29736.4
14.6852	17.8017	5.55571	18.6485	-17.3325	12.0311	0.262643	-0.0080126	1950.75	173.138	1	11	0.00472431	0.000253335	0	1.52851e-05	-0.000378287	8.05994e-06	51.7738	0.0318154	0.0196864	-0.0249933	-17.2413	18.6599	17.8214	5.53072	0.0511886	0.0159754	0.0536236	17.3325	173138	554773	581162	-72.6675	0.0000000E+000	0.0000000E+000	0.0000000E+000	72.6675	0.0000000E+000	0.0000000E+000	0.0000000E+000	-72.6675	0.0000000E+000	0.0000000E+000	0.0000000E+000	-17.3325	0.0000000E+000	0.0000000E+000	0.0000000E+000	17.3325	3.20422	72.6675	-2.24489e-06	-2.10445e-06	3.03106e-09	-2.10748e-06	0.263021	32778.7	47.2115	32825.9
10.0032	19.0865	4.91602	19.7094	-14.4435	12.4818	0.262639	-0.00808457	3236.44	201.348	1	11	0.00472278	0.000239621	0	1.54574e-05	6.08766e-05	6.57539e-06	47.3611	0.0274408	0.0185878	-0.0201865	-14.3732	19.7224	19.105	4.89583	0.0491336	0.0126551	0.0507372	14.4435	201348	781736	807249	-75.5565	0.0000000E+000	0.0000000E+000	0.0000000E+000	75.5565	0.0000000E+000	0.0000000E+000	0.0000000E+000	-75.5565	0.0000000E+000	0.0000000E+000	0.0000000E+000	-14.4435	0.0000000E+000	0.0000000E+000	0.0000000E+000	14.4435	3.8825	75.5565	1.72288e-07	-2.12333e-06	-4.92162e-10	-2.12283e-06	0.262578	32486.5	7.52997	32478.9
6.81719	20.1821	4.32601	20.6405	-12.0982	12.8215	0.262636	-0.00816773	5396.69	237.061	1	11	0.00471984	0.000228668	0	1.27634e-05	2.26885e-05	4.296e-06	-166.847	0.018787	-0.0182942	0.0042749	-12.1205	20.6235	20.1638	4.33028	0.0473723	0.0101542	0.0484484	12.0982	237061	1.10596e+06	1.13108e+06	-77.9018	0.0000000E+000	0.0000000E+000	0.0000000E+000	77.9018	0.0000000E+000	0.0000000E+000	0.0000000E+000	-77.9018	0.0000000E+000	0.0000000E+000	0.0000000E+000	-12.0982	0.0000000E+000	0.0000000E+000	0.0000000E+000	12.0982	4.66529	77.9018	-2.69396e-06	-2.14514e-06	-1.85313e-10	-2.14495e-06	0.262613	32155.3	2.77782	32152.5
4.63925	21.1078	3.84528	21.4552	-10.3245	13.3055	0.262645	-0.00811627	8921.63	286.573	1	11	0.00471692	0.00021985	0	1.34072e-05	0.000156347	8.77415e-06	16.6402	0.0399097	0.0382384	-0.0114286	-10.2763	21.4908	21.146	3.83385	0.0458541	0.00835339	0.0466088	10.3245	286573	1.57308e+06	1.59897e+06	-79.6755	0.0000000E+000	0.0000000E+000	0.0000000E+000	79.6755	0.0000000E+000	0.0000000E+000	0.0000000E+000	-79.6755	0.0000000E+000	0.0000000E+000	0.0000000E+000	-10.3245	0.0000000E+000	0.0000000E+000	0.0000000E+000	10.3245	5.48928	79.6755	6.438e-07	-2.13169e-06	-1.26895e-09	-2.13043e-06	0.262488	32360.2	19.2634	32341
3.1604	21.9642	3.35864	22.2195	-8.69399	13.9985	0.262636	-0.00764865	14993.9	342.588	1	11	0.00473327	0.000213023	0	1.44187e-05	0.000118159	9.22492e-06	85.6292	0.0433048	0.00330027	-0.0431789	-8.58262	22.2163	21.9675	3.31546	0.0444883	0.00680289	0.0450054	8.69399	342588	2.24039e+06	2.26644e+06	-81.306	0.0000000E+000	0.0000000E+000	0.0000000E+000	81.306	0.0000000E+000	0.0000000E+000	0.0000000E+000	-81.306	0.0000000E+000	0.0000000E+000	0.0000000E+000	-8.69399	0.0000000E+000	0.0000000E+000	0.0000000E+000	8.69399	6.53962	81.306	1.01145e-06	-2.00881e-06	-9.03756e-10	-2.00791e-06	0.262518	34337.6	15.4483	34322.1
2.15577	22.6214	2.95423	22.8134	-7.44042	15.0021	0.26264	-0.00641649	24990.4	419.064	1	11	0.00472509	0.000207119	0	1.19543e-05	-0.000282817	2.39763e-06	47.9191	0.0115761	0.00775807	-0.00859177	-7.41651	22.82	22.6291	2.94564	0.0434647	0.00567626	0.0438338	7.44042	419065	3.20889e+06	3.23614e+06	-82.5596	0.0000000E+000	0.0000000E+000	0.0000000E+000	82.5596	0.0000000E+000	0.0000000E+000	0.0000000E+000	-82.5596	0.0000000E+000	0.0000000E+000	0.0000000E+000	-7.44042	0.0000000E+000	0.0000000E+000	0.0000000E+000	7.44042	7.65728	82.5596	-2.46438e-06	-1.68523e-06	1.81469e-09	-1.68704e-06	0.262923	40932.1	44.0765	40976.2
1.46631	23.1789	2.62596	23.3272	-6.46353	16.4635	0.262638	-0.00582509	41333.9	523.79	1	11	0.00472568	0.000202583	0	5.11993e-06	-0.000187346	2.5939e-06	89.1256	0.0128042	0.000195402	-0.0128027	-6.43223	23.3259	23.1791	2.61316	0.042596	0.00482573	0.0428684	6.46353	523791	4.62341e+06	4.65299e+06	-83.5365	0.0000000E+000	0.0000000E+000	0.0000000E+000	83.5365	0.0000000E+000	0.0000000E+000	0.0000000E+000	-83.5365	0.0000000E+000	0.0000000E+000	0.0000000E+000	-6.46353	0.0000000E+000	0.0000000E+000	0.0000000E+000	6.46353	8.82684	83.5365	-6.83437e-06	-1.52989e-06	1.09131e-09	-1.53098e-06	0.262825	45087.3	32.1619	45119.5
1.00006	23.6646	2.38542	23.7845	-5.75603	19.637	0.262642	-0.00579594	66715.7	671.069	1	12	0.00472309	0.000198578	0	-5.94904e-06	-7.27818e-05	3.85688e-06	-21.9277	0.0194225	0.0180174	0.00725306	-5.76905	23.8032	23.6826	2.39267	0.0418321	0.00421672	0.0420441	5.75603	671069	6.65737e+06	6.6911e+06	-84.244	0.0000000E+000	0.0000000E+000	0.0000000E+000	84.244	0.0000000E+000	0.0000000E+000	0.0000000E+000	-84.244	0.0000000E+000	0.0000000E+000	0.0000000E+000	-5.75603	0.0000000E+000	0.0000000E+000	0.0000000E+000	5.75603	9.92054	84.244	-1.1069e-05	-1.52226e-06	4.21839e-10	-1.52268e-06	0.262715	45314.9	12.5574	45327.4
0.681362	24.1079	2.2243	24.2103	-5.27144	22.7491	0.262646	-0.00588567	105014	886.412	1	12	0.00472426	0.000195135	0	-1.21766e-05	4.17825e-05	3.82108e-06	-43.5789	0.0195818	0.0141855	0.0134987	-5.30015	24.2257	24.1221	2.2378	0.0411301	0.00379484	0.0413048	5.27144	886412	9.6073e+06	9.64811e+06	-84.7286	0.0000000E+000	0.0000000E+000	0.0000000E+000	84.7286	0.0000000E+000	0.0000000E+000	0.0000000E+000	-84.7286	0.0000000E+000	0.0000000E+000	0.0000000E+000	-5.27144	0.0000000E+000	0.0000000E+000	0.0000000E+000	5.27144	10.8384	84.7286	-6.22751e-06	-1.54585e-06	-2.45918e-10	-1.5456e-06	0.262604	44624.7	7.09903	44617.6
0.464091	24.4137	2.22491	24.5149	-5.20718	27.3057	0.262642	-0.0061466	154137	1269.61	1	12	0.00471443	0.000192309	0	-1.2552e-05	-7.27818e-05	1.00216e-05	-70.5268	0.0521121	0.0173724	0.0491312	-5.31775	24.5367	24.4311	2.27404	0.0406232	0.00370213	0.0407915	5.20718	1.26961e+06	1.39313e+07	1.3989e+07	-84.7928	0.0000000E+000	0.0000000E+000	0.0000000E+000	84.7928	0.0000000E+000	0.0000000E+000	0.0000000E+000	-84.7928	0.0000000E+000	0.0000000E+000	0.0000000E+000	-5.20718	0.0000000E+000	0.0000000E+000	0.0000000E+000	5.20718	10.9729	84.7928	-3.75423e-07	-1.61436e-06	4.47361e-10	-1.6148e-06	0.262715	42729.7	11.841	42741.6
0.316193	24.7859	2.29803	24.8922	-5.29706	33.979	0.262651	-0.00519037	219034	1866.8	1	12	0.00472397	0.000189777	0	-5.50659e-06	3.59442e-06	3.76241e-06	25.3103	0.0198254	0.0179223	-0.00847576	-5.27384	24.9093	24.8038	2.28956	0.0400017	0.00370877	0.0401732	5.29706	1.8668e+06	2.01347e+07	2.02211e+07	-84.7029	0.0000000E+000	0.0000000E+000	0.0000000E+000	84.7029	0.0000000E+000	0.0000000E+000	0.0000000E+000	-84.7029	0.0000000E+000	0.0000000E+000	0.0000000E+000	-5.29706	0.0000000E+000	0.0000000E+000	0.0000000E+000	5.29706	10.7857	84.7029	7.04539e-06	-1.36326e-06	-1.86564e-11	-1.36324e-06	0.262648	50603.6	0.692517	50602.9
0.215268	25.1559	2.54385	25.2842	-5.77431	43.7725	0.262638	-0.00404589	290636	2941.94	1	12	0.00472663	0.00018694	0	4.54947e-06	0.000213629	1.72604e-06	12.5239	0.00923313	0.00901344	-0.00200217	-5.76774	25.293	25.1649	2.54185	0.0393497	0.00397918	0.0395504	5.77431	2.94194e+06	2.90926e+07	2.9241e+07	-84.2257	0.0000000E+000	0.0000000E+000	0.0000000E+000	84.2257	0.0000000E+000	0.0000000E+000	0.0000000E+000	-84.2257	0.0000000E+000	0.0000000E+000	0.0000000E+000	-5.77431	0.0000000E+000	0.0000000E+000	0.0000000E+000	5.77431	9.88891	84.2257	1.00561e-05	-1.06261e-06	-8.6432e-10	-1.06174e-06	0.262425	64914.9	52.8015	64862.1
0.146929	25.6015	3.02678	25.7798	-6.7426	58.1108	0.262637	-0.00217344	357876	4933.28	1	12	0.00472798	0.000183399	0	7.7132e-06	-0.000397381	2.61331e-06	-36.1592	0.0142493	0.0115046	0.00840753	-6.75815	25.7922	25.613	3.03519	0.0385218	0.00455431	0.0387901	6.7426	4.93328e+06	4.17273e+07	4.20179e+07	-83.2574	0.0000000E+000	0.0000000E+000	0.0000000E+000	83.2574	0.0000000E+000	0.0000000E+000	0.0000000E+000	-83.2574	0.0000000E+000	0.0000000E+000	0.0000000E+000	-6.7426	0.0000000E+000	0.0000000E+000	0.0000000E+000	6.7426	8.45832	83.2574	3.16373e-06	-5.70826e-07	8.63684e-10	-5.7169e-07	0.263035	120839	182.835	121022
0.0999041	26.0879	3.79595	26.3626	-8.27881	79.1869	0.262636	-0.000767345	419678	8701.25	1	12	0.00472255	0.000179138	0	-1.28909e-05	-0.00011097	2.67847e-06	-3.47522	0.014952	0.0149245	0.000906342	-8.27609	26.3775	26.1028	3.79686	0.0375372	0.00546191	0.0379325	8.27881	8.70125e+06	5.97997e+07	6.04295e+07	-81.7212	0.0000000E+000	0.0000000E+000	0.0000000E+000	81.7212	0.0000000E+000	0.0000000E+000	0.0000000E+000	-81.7212	0.0000000E+000	0.0000000E+000	0.0000000E+000	-8.27881	0.0000000E+000	0.0000000E+000	0.0000000E+000	8.27881	6.87255	81.7212	-2.06041e-05	-2.01532e-07	8.51523e-11	-2.01617e-07	0.262747	342265	144.615	342410
0.0680626	26.6855	4.83502	27.1199	-10.2697	110.114	0.262635	-2.3515e-05	483630	15372.1	1	12	0.00472641	0.000174278	0	-6.7368e-05	-0.00020644	2.27965e-06	-7.38331	0.0130805	0.0129721	0.00168094	-10.2684	27.133	26.6984	4.8367	0.0362825	0.00657386	0.0368732	10.2697	1.53721e+07	8.48416e+07	8.62229e+07	-79.7303	0.0000000E+000	0.0000000E+000	0.0000000E+000	79.7303	0.0000000E+000	0.0000000E+000	0.0000000E+000	-79.7303	0.0000000E+000	0.0000000E+000	0.0000000E+000	-10.2697	0.0000000E+000	0.0000000E+000	0.0000000E+000	10.2697	5.51921	79.7303	-5.44772e-05	-6.17586e-09	4.85445e-12	-6.18071e-09	0.262841	1.11688e+07	8779.08	1.11776e+07
0.0464052	27.4599	6.06623	28.122	-12.4573	155.465	0.262641	-0.000510854	565373	26307.5	1	12	0.0047269	0.000168086	0	-0.000177413	-0.000168252	2.28396e-06	-8.85732	0.013588	0.013426	0.00209221	-12.4555	28.1355	27.4733	6.06832	0.0347222	0.00767055	0.0355594	12.4573	2.63075e+07	1.19086e+08	1.21957e+08	-77.5427	0.0000000E+000	0.0000000E+000	0.0000000E+000	77.5427	0.0000000E+000	0.0000000E+000	0.0000000E+000	-77.5427	0.0000000E+000	0.0000000E+000	0.0000000E+000	-12.4573	0.0000000E+000	0.0000000E+000	0.0000000E+000	12.4573	4.52669	77.5427	-0.000110045	-1.34171e-07	8.59523e-11	-1.34257e-07	0.262809	514122	329.355	514451
0.0315922	28.5894	7.83681	29.644	-15.3292	222.071	0.262636	-0.00132776	642837	44926.8	1	12	0.00472359	0.000159344	0	-0.00031215	-7.27818e-05	1.08481e-06	18.5756	0.00680796	0.0064533	-0.00216871	-15.3218	29.6497	28.5958	7.83464	0.0325335	0.00891796	0.0337336	15.3292	4.49268e+07	1.63897e+08	1.69943e+08	-74.6708	0.0000000E+000	0.0000000E+000	0.0000000E+000	74.6708	0.0000000E+000	0.0000000E+000	0.0000000E+000	-74.6708	0.0000000E+000	0.0000000E+000	0.0000000E+000	-15.3292	0.0000000E+000	0.0000000E+000	0.0000000E+000	15.3292	3.64809	74.6708	-0.000134737	-3.48718e-07	9.66368e-11	-3.48815e-07	0.262709	197804	54.8155	197859
0.0215268	29.8833	10.422	31.6485	-19.2266	319.808	0.262641	-0.00157948	709395	76928.4	1	12	0.00472513	0.0001493	0	-0.000386143	-9.18759e-05	2.35473e-06	-4.05549	0.0157718	0.0157323	0.00111542	-19.2192	31.6638	29.899	10.4232	0.0298347	0.0104051	0.031597	19.2266	7.69284e+07	2.20578e+08	2.33608e+08	-70.7734	0.0000000E+000	0.0000000E+000	0.0000000E+000	70.7734	0.0000000E+000	0.0000000E+000	0.0000000E+000	-70.7734	0.0000000E+000	0.0000000E+000	0.0000000E+000	-19.2266	0.0000000E+000	0.0000000E+000	0.0000000E+000	19.2266	2.86732	70.7734	-7.3992e-05	-4.14835e-07	1.45116e-10	-4.1498e-07	0.262733	166284	58.1686	166342
0.0146812	31.1979	13.6943	34.0711	-23.6991	463.11	0.262634	-0.00130696	791626	127887	1	12	0.00472438	0.000138662	0	-0.000290149	3.59442e-06	1.92921e-06	24.4934	0.013913	0.0126609	-0.00576816	-23.6816	34.0804	31.2105	13.6885	0.0268752	0.0117969	0.0293504	23.6991	1.27887e+08	2.91348e+08	3.1818e+08	-66.3009	0.0000000E+000	0.0000000E+000	0.0000000E+000	66.3009	0.0000000E+000	0.0000000E+000	0.0000000E+000	-66.3009	0.0000000E+000	0.0000000E+000	0.0000000E+000	-23.6991	0.0000000E+000	0.0000000E+000	0.0000000E+000	23.6991	2.27817	66.3009	9.59934e-05	-3.43251e-07	-4.69775e-12	-3.43246e-07	0.262631	200951	2.75023	200948
0.0100092	32.9389	17.6386	37.3643	-28.1688	673.29	0.262636	-0.000621328	901483	200896	1	12	0.00472606	0.000126486	0	2.97742e-05	-0.00011097	1.73017e-06	-12.4306	0.0136788	0.0133581	0.00294445	-28.1631	37.3775	32.9523	17.6416	0.0235936	0.0126343	0.0267635	28.1688	2.00896e+08	3.7516e+08	4.25564e+08	-61.8312	0.0000000E+000	0.0000000E+000	0.0000000E+000	61.8312	0.0000000E+000	0.0000000E+000	0.0000000E+000	-61.8312	0.0000000E+000	0.0000000E+000	0.0000000E+000	-28.1688	0.0000000E+000	0.0000000E+000	0.0000000E+000	28.1688	1.86743	61.8312	0.000319923	-1.63183e-07	6.89487e-11	-1.63252e-07	0.262747	422701	178.601	422880