File: txt/19066_R307_UA701_3p24_SOC00_C05.mpt
EC-Lab ASCII FILE
Nb header lines : 65

Potentio Electrochemical Impedance Spectroscopy

Run on channel : 5 (SN 65912)
Grouped channel(s) : 1, 2, 3, 4, 5
User :
CE vs. WE compliance from -10 V to 10 V
Electrode connection : standard
Potential control : Ewe
Ewe ctrl range : min = -10.00 V, max = 10.00 V
Safety Limits :
	Do not start on E overload
Acquisition started on : 11/12/2025 10:25:43.761
Loaded Setting File :  C:\Users\Celltest\OneDrive - store-dot.com\Documents\EC-Lab\Data\@Biologic Test Protocols\anode half cell EIS SOC00.mps
Saved on :
	File : 19062_R307_UA701_3p24_SOC00_C05.mpr
	Directory : C:\Users\Celltest\OneDrive - store-dot.com\Documents\EC-Lab\Data\Anna\
	Host : 169.254.61.224
Device : VMP-3e (SN .003165)
Address : USB
EC-LAB for windows v11.62 (software)
Internet server v27.00 (firmware)
Command interpretor v12.03 (firmware)
Electrode material :
Initial state :
Electrolyte :
Comments :
Electrode surface area : 0.001 cm²
Characteristic mass : 0.001 g
Equivalent Weight : 0.000 g/eq.
Density : 0.000 g/cm3
Volume (V) : 0.001 cm³
Record Ece
Cycle Definition : Charge/Discharge alternance
Mode                Single sine
E (V)               0.0000
vs.                 Eoc
tE (h:m:s)          0:00:0.0000
record              0
dI                  0.000
unit dI             mA
dt (s)              0.000
fi                  100.000
unit fi             kHz
ff                  10.000
unit ff             mHz
Nd                  6
Points              per decade
spacing             Logarithmic
Va (mV)             5.0
pw                  0.10
Na                  2
corr                0
E range min (V)     -10.000
E range max (V)     10.000
I Range             Auto
Bandwidth           5
nc cycles           0
goto Ns'            0
nr cycles           0
inc. cycle          0

freq/Hz	Re(Z)/Ohm	-Im(Z)/Ohm	|Z|/Ohm	Phase(Z)/deg	time/s	<Ewe>/V	<I>/mA	Cs/µF	Cp/µF	cycle number	I Range	|Ewe|/V	|I|/A	Ns	(Q-Qo)/mA.h	<Ece>/V	|Ece|/V	Phase(Zce)/deg	|Zce|/Ohm	Re(Zce)/Ohm	-Im(Zce)/Ohm	Phase(Zwe-ce)/deg	|Zwe-ce|/Ohm	Re(Zwe-ce)/Ohm	-Im(Zwe-ce)/Ohm	Re(Y)/Ohm-1	Im(Y)/Ohm-1	|Y|/Ohm-1	Phase(Y)/deg	Re(C)/nF	Im(C)/nF	|C|/nF	Phase(C)/deg	Re(M)	Im(M)	|M|	Phase(M)/deg	Re(Permittivity)	Im(Permittivity)	|Permittivity|	Phase(Permittivity)/deg	Re(Resistivity)/Ohm.cm	Im(Resistivity)/Ohm.cm	|Resistivity|/Ohm.cm	Phase(Resistivity)/deg	Re(Conductivity)/mS/cm	Im(Conductivity)/mS/cm	|Conductivity|/mS/cm	Phase(Conductivity)/deg	Tan(Delta)	Loss Angle(Delta)/deg	dq/mA.h	Pwe/W	Pce/W	Pwe-ce/W	<Ewe-Ece>/V	Rwe/Ohm	Rce/Ohm	Rwe-ce/Ohm		Ewe-Ece/V
100004	1.02303	0.402927	1.09952	-21.4973	1.72554	0.258737	-0.000431129	3.94982	0.530427	1	9	0.00465668	0.0042352	0	-5.5206e-06	-6.21241e-05	3.84923e-05	85.0089	0.00908865	0.000790725	-0.00905419	-21.0422	1.09697	1.02382	0.393873	0.84622	0.33329	0.909489	21.4973	530.427	1346.75	1447.44	-68.5027	0.0000000E+000	0.0000000E+000	0.0000000E+000	68.5027	0.0000000E+000	0.0000000E+000	0.0000000E+000	-68.5027	0.0000000E+000	0.0000000E+000	0.0000000E+000	-21.4973	0.0000000E+000	0.0000000E+000	0.0000000E+000	21.4973	2.53899	68.5027	-5.5206e-06	-1.11549e-07	2.67835e-11	-1.11576e-07	0.258799	600137	144.096	600281
68132	1.13345	0.452466	1.22042	-21.7616	2.10852	0.258734	0.00448453	5.16277	0.709634	1	9	0.00545222	0.00446749	0	9.52085e-08	5.24232e-05	3.07456e-05	62.3916	0.00688208	0.00318933	-0.00609846	-21.4404	1.22114	1.13664	0.446367	0.760995	0.303785	0.819389	21.7616	709.634	1777.67	1914.07	-68.2384	0.0000000E+000	0.0000000E+000	0.0000000E+000	68.2384	0.0000000E+000	0.0000000E+000	0.0000000E+000	-68.2384	0.0000000E+000	0.0000000E+000	0.0000000E+000	-21.7616	0.0000000E+000	0.0000000E+000	0.0000000E+000	21.7616	2.50505	68.2384	5.61581e-06	1.1603e-06	2.35093e-10	1.16006e-06	0.258681	57694.8	11.6898	57683.1
46420.4	1.24694	0.489258	1.33949	-21.4234	2.49155	0.25873	0.00068606	7.00767	0.934914	1	9	0.00548845	0.00409742	0	1.36468e-05	5.24232e-05	9.92093e-06	86.475	0.00242126	0.00014887	-0.00241668	-21.3248	1.33875	1.24709	0.486841	0.694972	0.272684	0.746554	21.4234	934.914	2382.75	2559.6	-68.5766	0.0000000E+000	0.0000000E+000	0.0000000E+000	68.5766	0.0000000E+000	0.0000000E+000	0.0000000E+000	-68.5766	0.0000000E+000	0.0000000E+000	0.0000000E+000	-21.4234	0.0000000E+000	0.0000000E+000	0.0000000E+000	21.4234	2.54863	68.5766	1.35516e-05	1.77505e-07	3.59654e-11	1.77469e-07	0.258678	377125	76.4119	377048
31621.1	1.364	0.533418	1.46459	-21.3589	2.87655	0.258722	0.00809678	9.43572	1.25163	1	9	0.00543477	0.00371077	0	2.37334e-06	0.000128788	8.10111e-06	54.7061	0.00218313	0.00126135	-0.00178187	-21.2761	1.46512	1.36526	0.531636	0.635889	0.248676	0.682784	21.3589	1251.63	3200.54	3436.58	-68.6411	0.0000000E+000	0.0000000E+000	0.0000000E+000	68.6411	0.0000000E+000	0.0000000E+000	0.0000000E+000	-68.6411	0.0000000E+000	0.0000000E+000	0.0000000E+000	-21.3589	0.0000000E+000	0.0000000E+000	0.0000000E+000	21.3589	2.55709	68.6411	-1.12735e-05	2.09482e-06	1.04277e-09	2.09378e-06	0.258594	31953.8	15.9061	31937.9
21544.7	1.49139	0.588567	1.60333	-21.5364	3.26151	0.258723	0.00184048	12.5512	1.69135	1	9	0.00542205	0.00338175	0	4.80856e-06	-0.000253036	1.06039e-05	54.684	0.00313563	0.00181266	-0.0025586	-21.4276	1.60408	1.4932	0.586009	0.580159	0.228956	0.623703	21.5364	1691.35	4285.76	4607.42	-68.4636	0.0000000E+000	0.0000000E+000	0.0000000E+000	68.4636	0.0000000E+000	0.0000000E+000	0.0000000E+000	-68.4636	0.0000000E+000	0.0000000E+000	0.0000000E+000	-21.5364	0.0000000E+000	0.0000000E+000	0.0000000E+000	21.5364	2.53393	68.4636	2.43522e-06	4.76174e-07	-4.65708e-10	4.7664e-07	0.258976	140574	137.484	140711
14678.6	1.62415	0.65136	1.74989	-21.8531	3.64456	0.258715	-0.000840795	16.6462	2.3064	1	9	0.00531657	0.00303823	0	3.23648e-06	0.000186062	8.00385e-06	-58.88	0.00263438	0.00136153	0.00225525	-21.905	1.75199	1.62551	0.653615	0.530399	0.212715	0.571464	21.8531	2306.4	5750.94	6196.19	-68.1469	0.0000000E+000	0.0000000E+000	0.0000000E+000	68.1469	0.0000000E+000	0.0000000E+000	0.0000000E+000	-68.1469	0.0000000E+000	0.0000000E+000	0.0000000E+000	-21.8531	0.0000000E+000	0.0000000E+000	0.0000000E+000	21.8531	2.49347	68.1469	-1.57209e-06	-2.17526e-07	-1.5644e-10	-2.17369e-07	0.258528	307702	221.293	307481
10002.2	1.77165	0.722245	1.91321	-22.1791	4.02954	0.258722	-0.000580117	22.0312	3.13965	1	9	0.00518793	0.00271163	0	4.5652e-06	-4.85048e-06	8.46366e-06	-24.2397	0.00312124	0.00284606	0.00128144	-22.1825	1.91633	1.7745	0.723526	0.484007	0.197314	0.522681	22.1791	3139.65	7701.49	8316.87	-67.8209	0.0000000E+000	0.0000000E+000	0.0000000E+000	67.8209	0.0000000E+000	0.0000000E+000	0.0000000E+000	-67.8209	0.0000000E+000	0.0000000E+000	0.0000000E+000	-22.1791	0.0000000E+000	0.0000000E+000	0.0000000E+000	22.1791	2.45298	67.8209	1.32872e-06	-1.50089e-07	2.81385e-12	-1.50092e-07	0.258727	445983	8.3612	445991
6810.42	1.91554	0.847377	2.09459	-23.8632	4.41451	0.25872	-0.00549578	27.5784	4.5136	1	9	0.00507868	0.00242466	0	3.24118e-06	0.000109697	9.61756e-05	60.8999	0.0396656	0.0192908	-0.0346587	-22.7847	2.09859	1.93483	0.812719	0.436607	0.193142	0.477419	23.8632	4513.6	10203.2	11157	-66.1368	0.0000000E+000	0.0000000E+000	0.0000000E+000	66.1368	0.0000000E+000	0.0000000E+000	0.0000000E+000	-66.1368	0.0000000E+000	0.0000000E+000	0.0000000E+000	-23.8632	0.0000000E+000	0.0000000E+000	0.0000000E+000	23.8632	2.26055	66.1368	-1.32402e-06	-1.42187e-06	-6.02869e-10	-1.42126e-06	0.25861	47076.1	19.9602	47056.1
4646	2.11272	0.93574	2.31067	-23.8889	4.67962	0.258711	-0.00773017	36.6088	6.00372	1	9	0.00527449	0.00228267	0	1.47803e-06	0.000205153	1.26778e-05	34.7274	0.00555395	0.00456464	-0.00316393	-23.7715	2.31357	2.11728	0.932576	0.3957	0.175259	0.432775	23.8889	6003.72	13555.2	14825.3	-66.1111	0.0000000E+000	0.0000000E+000	0.0000000E+000	66.1111	0.0000000E+000	0.0000000E+000	0.0000000E+000	-66.1111	0.0000000E+000	0.0000000E+000	0.0000000E+000	-23.8889	0.0000000E+000	0.0000000E+000	0.0000000E+000	23.8889	2.25781	66.1111	-1.76315e-06	-1.99988e-06	-1.58587e-09	-1.9983e-06	0.258506	33467.7	26.5392	33441.2
3163.08	2.30116	1.07244	2.53879	-24.9876	5.05364	0.258636	-0.0440762	46.9177	8.37201	1	9	0.00522235	0.00205702	0	-3.09633e-06	-0.000119398	6.86865e-06	-94.2165	0.00333912	-0.000245508	0.00333008	-25.058	2.53997	2.30091	1.07577	0.35702	0.166387	0.393889	24.9876	8372.01	17964	19819.1	-65.0124	0.0000000E+000	0.0000000E+000	0.0000000E+000	65.0124	0.0000000E+000	0.0000000E+000	0.0000000E+000	-65.0124	0.0000000E+000	0.0000000E+000	0.0000000E+000	-24.9876	0.0000000E+000	0.0000000E+000	0.0000000E+000	24.9876	2.14572	65.0124	-4.57436e-06	-1.13997e-05	5.26261e-09	-1.1405e-05	0.258755	5867.92	2.70889	5870.63
2155.69	2.50657	1.26157	2.80615	-26.7164	5.50483	0.258657	-0.0130927	58.5223	11.8284	1	9	0.00513672	0.00183052	0	-6.11675e-06	0.000338791	5.22484e-06	-45.3022	0.00285429	0.00200762	0.0020289	-26.735	2.80885	2.50858	1.2636	0.318316	0.160211	0.35636	26.7164	11828.4	23501.3	26310.1	-63.2836	0.0000000E+000	0.0000000E+000	0.0000000E+000	63.2836	0.0000000E+000	0.0000000E+000	0.0000000E+000	-63.2836	0.0000000E+000	0.0000000E+000	0.0000000E+000	-26.7164	0.0000000E+000	0.0000000E+000	0.0000000E+000	26.7164	1.98686	63.2836	-3.02042e-06	-3.38652e-06	-4.4357e-09	-3.38209e-06	0.258318	19755.8	25.8763	19729.9
1468.59	2.7524	1.50252	3.1358	-28.6299	5.95607	0.258661	-0.0124969	72.1274	16.5593	1	9	0.00504781	0.00160973	0	-7.45571e-06	-0.000329401	2.78077e-05	-5.31907	0.0172747	0.0172003	0.0016014	-28.5056	3.15167	2.7696	1.50412	0.279907	0.1528	0.318898	28.6299	16559.3	30334.3	34559.8	-61.3701	0.0000000E+000	0.0000000E+000	0.0000000E+000	61.3701	0.0000000E+000	0.0000000E+000	0.0000000E+000	-61.3701	0.0000000E+000	0.0000000E+000	0.0000000E+000	-28.6299	0.0000000E+000	0.0000000E+000	0.0000000E+000	28.6299	1.83186	61.3701	-1.33896e-06	-3.23246e-06	4.11649e-09	-3.23657e-06	0.258991	20698.1	26.3587	20724.4
1000.32	3.0127	1.8333	3.52666	-31.3215	6.65181	0.258674	-0.0190846	86.7857	23.4524	1	10	0.00511572	0.00145059	0	-8.31379e-06	-6.21241e-05	3.50618e-06	-71.4766	0.00241708	0.000767887	0.00229186	-31.3468	3.52851	3.01347	1.83559	0.24223	0.147403	0.283554	31.3215	23452.4	38539.8	45114.6	-58.6785	0.0000000E+000	0.0000000E+000	0.0000000E+000	58.6785	0.0000000E+000	0.0000000E+000	0.0000000E+000	-58.6785	0.0000000E+000	0.0000000E+000	0.0000000E+000	-31.3215	0.0000000E+000	0.0000000E+000	0.0000000E+000	31.3215	1.64332	58.6785	-8.58078e-07	-4.93669e-06	1.18561e-09	-4.93787e-06	0.258736	13554	3.25519	13557.3
681.09	3.35027	2.272	4.048	-34.1434	7.10057	0.258674	-0.0193378	102.851	32.3999	1	10	0.00503176	0.00124302	0	-1.03685e-05	-4.85048e-06	8.25424e-06	-6.94607	0.00664045	0.00659171	0.000803063	-34.1005	4.05391	3.35686	2.27281	0.204455	0.138652	0.247035	34.1434	32399.9	47776.5	57726.5	-55.8566	0.0000000E+000	0.0000000E+000	0.0000000E+000	55.8566	0.0000000E+000	0.0000000E+000	0.0000000E+000	-55.8566	0.0000000E+000	0.0000000E+000	0.0000000E+000	-34.1434	0.0000000E+000	0.0000000E+000	0.0000000E+000	34.1434	1.47459	55.8566	-2.05469e-06	-5.00219e-06	9.37975e-11	-5.00229e-06	0.258679	13376.6	0.250829	13376.9
463.961	3.79441	2.8568	4.74962	-36.976	7.55237	0.258662	-0.0198591	120.077	43.4412	1	10	0.00496852	0.00104609	0	-1.32469e-05	0.000128788	9.43704e-06	52.9592	0.00902126	0.00543426	-0.00720083	-36.8672	4.74964	3.79984	2.8496	0.1682	0.126638	0.210543	36.976	43441.2	57698.7	72223.8	-53.024	0.0000000E+000	0.0000000E+000	0.0000000E+000	53.024	0.0000000E+000	0.0000000E+000	0.0000000E+000	-53.024	0.0000000E+000	0.0000000E+000	0.0000000E+000	-36.976	0.0000000E+000	0.0000000E+000	0.0000000E+000	36.976	1.3282	53.024	-2.8784e-06	-5.13679e-06	-2.55761e-09	-5.13424e-06	0.258534	13024.9	6.4851	13018.4
316.316	4.4279	3.60479	5.70972	-39.1493	8.00001	0.258659	-0.0181314	139.579	55.6353	1	10	0.00493351	0.000864055	0	-1.4973e-05	-0.000233945	9.41336e-06	-30.8556	0.0108944	0.00935243	0.00558748	-39.1336	5.7205	4.43726	3.61038	0.135822	0.110574	0.17514	39.1493	55635.3	68339	88122.1	-50.8507	0.0000000E+000	0.0000000E+000	0.0000000E+000	50.8507	0.0000000E+000	0.0000000E+000	0.0000000E+000	-50.8507	0.0000000E+000	0.0000000E+000	0.0000000E+000	-39.1493	0.0000000E+000	0.0000000E+000	0.0000000E+000	39.1493	1.22834	50.8507	-1.72608e-06	-4.68986e-06	4.24176e-09	-4.69411e-06	0.258893	14265.8	12.9027	14278.7
215.345	5.35169	4.48621	6.98332	-39.9724	8.4506	0.258663	-0.0189729	164.743	67.9896	1	10	0.00490509	0.000702401	0	-1.74853e-05	-0.000176671	4.55752e-06	13.1679	0.00648848	0.00631788	-0.00147811	-39.9298	6.98721	5.35801	4.48473	0.109741	0.0919934	0.143198	39.9724	67989.6	81106.2	105834	-50.0276	0.0000000E+000	0.0000000E+000	0.0000000E+000	50.0276	0.0000000E+000	0.0000000E+000	0.0000000E+000	-50.0276	0.0000000E+000	0.0000000E+000	0.0000000E+000	-39.9724	0.0000000E+000	0.0000000E+000	0.0000000E+000	39.9724	1.19292	50.0276	-2.51233e-06	-4.90758e-06	3.35197e-09	-4.91094e-06	0.258839	13633.2	9.31177	13642.6
146.737	6.63777	5.39819	8.55573	-39.1199	8.89652	0.258659	-0.0194719	200.924	79.986	1	10	0.00489185	0.000571764	0	-2.06411e-05	-0.000138489	6.20668e-06	53.6012	0.0108553	0.00644158	-0.00873752	-39.0472	8.55522	6.64421	5.38945	0.0906794	0.0737453	0.116881	39.1199	79986	98353	126772	-50.8801	0.0000000E+000	0.0000000E+000	0.0000000E+000	50.8801	0.0000000E+000	0.0000000E+000	0.0000000E+000	-50.8801	0.0000000E+000	0.0000000E+000	0.0000000E+000	-39.1199	0.0000000E+000	0.0000000E+000	0.0000000E+000	39.1199	1.22963	50.8801	-3.15583e-06	-5.03657e-06	2.69664e-09	-5.03927e-06	0.258797	13283.7	7.11226	13290.8
100.032	8.32948	6.17446	10.3684	-36.5487	9.34785	0.258664	-0.0183772	257.681	91.3808	1	10	0.00488709	0.000471344	0	-2.22915e-05	7.15144e-05	1.16685e-05	18.2064	0.0247559	0.0235166	-0.00773476	-36.4372	10.3827	8.35299	6.16672	0.0774805	0.0574346	0.0964467	36.5487	91380.8	123275	153451	-53.4513	0.0000000E+000	0.0000000E+000	0.0000000E+000	53.4513	0.0000000E+000	0.0000000E+000	0.0000000E+000	-53.4513	0.0000000E+000	0.0000000E+000	0.0000000E+000	-36.5487	0.0000000E+000	0.0000000E+000	0.0000000E+000	36.5487	1.34902	53.4513	-1.65039e-06	-4.75351e-06	-1.31423e-09	-4.7522e-06	0.258592	14075.3	3.89148	14071.4
68.104	10.2523	6.64479	12.2173	-32.9483	9.8105	0.25866	-0.0159868	351.695	104.034	1	10	0.00487109	0.000398703	0	-2.39834e-05	0.000243335	7.36507e-06	-9.27893	0.0184726	0.0182309	0.00297854	-32.9135	12.2343	10.2706	6.64777	0.0686861	0.0445172	0.0818509	32.9483	104034	160515	191281	-57.0517	0.0000000E+000	0.0000000E+000	0.0000000E+000	57.0517	0.0000000E+000	0.0000000E+000	0.0000000E+000	-57.0517	0.0000000E+000	0.0000000E+000	0.0000000E+000	-32.9483	0.0000000E+000	0.0000000E+000	0.0000000E+000	32.9483	1.54291	57.0517	-1.69192e-06	-4.13514e-06	-3.89014e-09	-4.13125e-06	0.258417	16179.7	15.2211	16164.4
46.4415	12.3774	6.77927	14.1124	-28.7101	10.2477	0.258668	-0.019457	505.511	116.653	1	10	0.00487901	0.000345726	0	-2.64027e-05	-4.85048e-06	4.85886e-06	62.8627	0.0140541	0.00641041	-0.012507	-28.6531	14.112	12.3838	6.76677	0.0621484	0.0340395	0.0708598	28.7101	116653	212982	242836	-61.2899	0.0000000E+000	0.0000000E+000	0.0000000E+000	61.2899	0.0000000E+000	0.0000000E+000	0.0000000E+000	-61.2899	0.0000000E+000	0.0000000E+000	0.0000000E+000	-28.7101	0.0000000E+000	0.0000000E+000	0.0000000E+000	28.7101	1.82577	61.2899	-2.41929e-06	-5.0329e-06	9.43756e-11	-5.033e-06	0.258673	13294.4	0.249293	13294.6
31.6296	14.365	6.44875	15.7461	-24.1763	10.6776	0.258659	-0.0202166	780.282	130.875	1	10	0.00487725	0.000309744	0	-2.87372e-05	-0.000176671	5.51691e-06	-60.7126	0.0178112	0.00871308	0.0155345	-24.2149	15.7604	14.3737	6.46428	0.0579375	0.0260094	0.0635079	24.1763	130875	291533	319562	-65.8237	0.0000000E+000	0.0000000E+000	0.0000000E+000	65.8237	0.0000000E+000	0.0000000E+000	0.0000000E+000	-65.8237	0.0000000E+000	0.0000000E+000	0.0000000E+000	-24.1763	0.0000000E+000	0.0000000E+000	0.0000000E+000	24.1763	2.22756	65.8237	-2.33449e-06	-5.2292e-06	3.57169e-09	-5.23277e-06	0.258836	12794.4	8.73895	12803.2
21.5517	16.1146	5.89959	17.1606	-20.1077	11.3305	0.258675	-0.0105212	1251.75	147.943	1	11	0.004871	0.000283848	0	-3.06817e-05	0.000243335	1.07429e-05	2.47339	0.0378473	0.037812	-0.00163331	-20.0593	17.1956	16.1524	5.89795	0.0547211	0.0200335	0.058273	20.1077	147943	404104	430334	-69.8923	0.0000000E+000	0.0000000E+000	0.0000000E+000	69.8923	0.0000000E+000	0.0000000E+000	0.0000000E+000	-69.8923	0.0000000E+000	0.0000000E+000	0.0000000E+000	-20.1077	0.0000000E+000	0.0000000E+000	0.0000000E+000	20.1077	2.73148	69.8923	-1.94448e-06	-2.72158e-06	-2.56019e-09	-2.71902e-06	0.258431	24586	23.128	24562.9
14.6852	17.5732	5.29759	18.3543	-16.7759	11.7902	0.258675	-0.00998025	2045.8	170.429	1	11	0.00487796	0.000265766	0	-3.07571e-05	-0.000386675	7.63336e-06	16.4743	0.0287221	0.027543	-0.00814514	-16.7268	18.3783	17.6007	5.28944	0.0521644	0.0157254	0.0544831	16.7759	170429	565348	590478	-73.2241	0.0000000E+000	0.0000000E+000	0.0000000E+000	73.2241	0.0000000E+000	0.0000000E+000	0.0000000E+000	-73.2241	0.0000000E+000	0.0000000E+000	0.0000000E+000	-16.7759	0.0000000E+000	0.0000000E+000	0.0000000E+000	16.7759	3.3172	73.2241	-7.5436e-08	-2.58164e-06	3.85911e-09	-2.5855e-06	0.259062	25918.7	38.744	25957.5
10.0032	18.7558	4.67889	19.3306	-14.0073	12.2408	0.25868	-0.00973713	3400.46	199.221	1	11	0.00487567	0.000252226	0	-3.22129e-05	-4.85048e-06	4.7703e-06	-69.8184	0.0189128	0.00652487	0.0177516	-14.0537	19.3412	18.7623	4.69664	0.0501932	0.0125214	0.0517315	14.0073	199221	798595	823069	-75.9927	0.0000000E+000	0.0000000E+000	0.0000000E+000	75.9927	0.0000000E+000	0.0000000E+000	0.0000000E+000	-75.9927	0.0000000E+000	0.0000000E+000	0.0000000E+000	-14.0073	0.0000000E+000	0.0000000E+000	0.0000000E+000	14.0073	4.0086	75.9927	-1.45577e-06	-2.5188e-06	4.72297e-11	-2.51885e-06	0.258685	26566.4	0.498143	26566.9
6.81719	19.7845	4.06576	20.198	-11.6127	12.5805	0.25867	-0.00998211	5742.13	232.67	1	11	0.00487597	0.000241409	0	-3.181e-05	0.000224244	5.25364e-06	48.7251	0.0217624	0.014356	-0.0163556	-11.5591	20.2088	19.7989	4.04941	0.0484965	0.00996612	0.0495099	11.6127	232670	1.1322e+06	1.15586e+06	-78.3873	0.0000000E+000	0.0000000E+000	0.0000000E+000	78.3873	0.0000000E+000	0.0000000E+000	0.0000000E+000	-78.3873	0.0000000E+000	0.0000000E+000	0.0000000E+000	-11.6127	0.0000000E+000	0.0000000E+000	0.0000000E+000	11.6127	4.86613	78.3873	4.02886e-07	-2.58207e-06	-2.23843e-09	-2.57984e-06	0.258446	25913.4	22.4646	25890.9
4.63925	20.6109	3.70265	20.9409	-10.1843	13.0645	0.258685	-0.00922854	9265.3	289.664	1	11	0.00487255	0.000232681	0	-3.55487e-05	0.000205153	7.83974e-06	-15.5837	0.0336931	0.0324545	0.00905153	-10.1929	20.9744	20.6434	3.7117	0.0470011	0.00844351	0.0477535	10.1843	289664	1.61243e+06	1.63824e+06	-79.8157	0.0000000E+000	0.0000000E+000	0.0000000E+000	79.8157	0.0000000E+000	0.0000000E+000	0.0000000E+000	-79.8157	0.0000000E+000	0.0000000E+000	0.0000000E+000	-10.1843	0.0000000E+000	0.0000000E+000	0.0000000E+000	10.1843	5.56654	79.8157	-3.73867e-06	-2.38728e-06	-1.89326e-09	-2.38539e-06	0.258479	28030.9	22.2303	28008.7
3.1604	21.426	3.26885	21.6739	-8.67444	13.7574	0.258669	-0.00920527	15405.8	350.429	1	11	0.00487837	0.000225081	0	-3.87195e-05	9.06056e-05	5.65666e-06	-57.0901	0.0251317	0.0136545	0.0210987	-8.7241	21.6906	21.4396	3.28995	0.0456107	0.0069586	0.0461385	8.67444	350429	2.29692e+06	2.3235e+06	-81.3256	0.0000000E+000	0.0000000E+000	0.0000000E+000	81.3256	0.0000000E+000	0.0000000E+000	0.0000000E+000	-81.3256	0.0000000E+000	0.0000000E+000	0.0000000E+000	-8.67444	0.0000000E+000	0.0000000E+000	0.0000000E+000	8.67444	6.55458	81.3256	-3.17085e-06	-2.38112e-06	-8.34049e-10	-2.38028e-06	0.258578	28100.1	9.8428	28090.3
2.15577	22.1002	2.95304	22.2966	-7.61082	14.761	0.258682	-0.00870384	25000.5	438.541	1	11	0.00488091	0.000218908	0	-3.85771e-05	-0.000214854	6.22884e-06	-9.75122	0.0284542	0.0280431	0.0048193	-7.61354	22.3251	22.1282	2.95786	0.0444547	0.00594007	0.0448498	7.61082	438541	3.28198e+06	3.31115e+06	-82.3892	0.0000000E+000	0.0000000E+000	0.0000000E+000	82.3892	0.0000000E+000	0.0000000E+000	0.0000000E+000	-82.3892	0.0000000E+000	0.0000000E+000	0.0000000E+000	-7.61082	0.0000000E+000	0.0000000E+000	0.0000000E+000	7.61082	7.48387	82.3892	1.42458e-07	-2.25152e-06	1.87005e-09	-2.25339e-06	0.258896	29720.4	24.6849	29745.1
1.46631	22.6873	2.66242	22.843	-6.69321	16.2225	0.258681	-0.0082744	40767.9	553.816	1	11	0.00488164	0.000213704	0	-3.68556e-05	-0.00015758	3.32887e-06	-80.2449	0.015577	0.00263932	0.0153518	-6.73067	22.8474	22.6899	2.67777	0.0434788	0.00510236	0.0437772	6.69321	553816	4.71924e+06	4.75162e+06	-83.3068	0.0000000E+000	0.0000000E+000	0.0000000E+000	83.3068	0.0000000E+000	0.0000000E+000	0.0000000E+000	-83.3068	0.0000000E+000	0.0000000E+000	0.0000000E+000	-6.69321	0.0000000E+000	0.0000000E+000	0.0000000E+000	6.69321	8.52131	83.3068	1.72148e-06	-2.14043e-06	1.30388e-09	-2.14173e-06	0.258838	31262.8	19.0443	31281.8
1.00006	23.2176	2.46085	23.3477	-6.05023	19.397	0.258679	-0.00705844	64670.7	718.44	1	12	0.00487899	0.000208971	0	-3.95169e-05	0.000243335	2.43856e-06	-42.624	0.0116694	0.00858647	0.0079023	-6.06728	23.357	23.2262	2.46875	0.0425923	0.00451438	0.0428308	6.05023	718440	6.77834e+06	6.8163e+06	-83.9498	0.0000000E+000	0.0000000E+000	0.0000000E+000	83.9498	0.0000000E+000	0.0000000E+000	0.0000000E+000	-83.9498	0.0000000E+000	0.0000000E+000	0.0000000E+000	-6.05023	0.0000000E+000	0.0000000E+000	0.0000000E+000	6.05023	9.4348	83.9498	-2.66133e-06	-1.82587e-06	-1.71757e-09	-1.82415e-06	0.258436	36648.1	34.4744	36613.7
0.681362	23.7053	2.29439	23.816	-5.52833	22.5092	0.258676	-0.00575827	101806	944.865	1	12	0.00488132	0.000204959	0	-4.83356e-05	0.000224244	3.22501e-06	-55.6241	0.0157349	0.00888423	0.0129868	-5.55735	23.8261	23.7141	2.30737	0.0417932	0.00404509	0.0419885	5.52833	944865	9.7622e+06	9.80782e+06	-84.4717	0.0000000E+000	0.0000000E+000	0.0000000E+000	84.4717	0.0000000E+000	0.0000000E+000	0.0000000E+000	-84.4717	0.0000000E+000	0.0000000E+000	0.0000000E+000	-5.52833	0.0000000E+000	0.0000000E+000	0.0000000E+000	5.52833	10.3319	84.4717	-8.81864e-06	-1.48952e-06	-1.29126e-09	-1.48823e-06	0.258451	44922.5	38.943	44883.5
0.464091	24.1433	2.20925	24.2442	-5.22833	27.0658	0.258682	-0.00486583	155229	1288.98	1	12	0.00488789	0.000201611	0	-6.66979e-05	-8.12153e-05	1.0321e-05	57.566	0.0511925	0.027456	-0.043207	-5.12083	24.2676	24.1708	2.16604	0.0410754	0.00375863	0.041247	5.22833	1.28898e+06	1.40864e+07	1.41452e+07	-84.7717	0.0000000E+000	0.0000000E+000	0.0000000E+000	84.7717	0.0000000E+000	0.0000000E+000	0.0000000E+000	-84.7717	0.0000000E+000	0.0000000E+000	0.0000000E+000	-5.22833	0.0000000E+000	0.0000000E+000	0.0000000E+000	5.22833	10.9283	84.7717	-1.83623e-05	-1.25871e-06	3.9518e-10	-1.2591e-06	0.258764	53163.1	16.691	53179.7
0.316193	24.4983	2.25305	24.6017	-5.25457	33.7418	0.258677	-0.00477127	223407	1873.74	1	12	0.00487933	0.000198333	0	-9.28512e-05	-2.39417e-05	1.93948e-06	12.4387	0.0097789	0.00954936	-0.00210633	-5.24765	24.611	24.5079	2.25094	0.0404768	0.00372255	0.0406476	5.25457	1.87374e+06	2.03739e+07	2.04599e+07	-84.7454	0.0000000E+000	0.0000000E+000	0.0000000E+000	84.7454	0.0000000E+000	0.0000000E+000	0.0000000E+000	-84.7454	0.0000000E+000	0.0000000E+000	0.0000000E+000	-5.25457	0.0000000E+000	0.0000000E+000	0.0000000E+000	5.25457	10.8734	84.7454	-2.61533e-05	-1.23422e-06	1.14232e-10	-1.23433e-06	0.258701	54215.6	5.01789	54220.6
0.215268	24.887	2.46182	25.0085	-5.64932	43.5342	0.258679	-0.0047773	300320	2910.2	1	12	0.00487939	0.000195109	0	-0.000119115	0.000109697	3.19839e-06	34.2148	0.0163928	0.0135558	-0.00921764	-5.62526	25.0211	24.9006	2.45261	0.0397922	0.00393625	0.0399864	5.64932	2.9102e+06	2.94198e+07	2.95634e+07	-84.3507	0.0000000E+000	0.0000000E+000	0.0000000E+000	84.3507	0.0000000E+000	0.0000000E+000	0.0000000E+000	-84.3507	0.0000000E+000	0.0000000E+000	0.0000000E+000	-5.64932	0.0000000E+000	0.0000000E+000	0.0000000E+000	5.64932	10.1092	84.3507	-2.62642e-05	-1.23578e-06	-5.24055e-10	-1.23526e-06	0.258569	54147.4	22.9621	54124.5
0.146929	25.2666	2.92773	25.4356	-6.60959	57.8725	0.258681	-0.00484012	369984	4901.84	1	12	0.00487613	0.000191705	0	-0.000133282	0.000147879	2.45402e-06	-49.6764	0.0128011	0.00828362	0.00975956	-6.62927	25.445	25.2749	2.93749	0.0390536	0.00452528	0.0393149	6.60959	4.90184e+06	4.23033e+07	4.25864e+07	-83.3904	0.0000000E+000	0.0000000E+000	0.0000000E+000	83.3904	0.0000000E+000	0.0000000E+000	0.0000000E+000	-83.3904	0.0000000E+000	0.0000000E+000	0.0000000E+000	-6.60959	0.0000000E+000	0.0000000E+000	0.0000000E+000	6.60959	8.63009	83.3904	-1.41666e-05	-1.25205e-06	-7.15753e-10	-1.25133e-06	0.258534	53445.3	30.5528	53414.7
0.0999041	25.6456	3.61709	25.8994	-8.02814	78.9496	0.258684	-0.00401109	440430	8590.48	1	12	0.00488102	0.000188461	0	-0.000119921	3.3332e-05	1.54674e-06	-18.2855	0.0082072	0.00779278	0.00257502	-8.03137	25.9075	25.6534	3.61967	0.0382325	0.00539238	0.0386109	8.02814	8.59048e+06	6.09074e+07	6.15102e+07	-81.9719	0.0000000E+000	0.0000000E+000	0.0000000E+000	81.9719	0.0000000E+000	0.0000000E+000	0.0000000E+000	-81.9719	0.0000000E+000	0.0000000E+000	0.0000000E+000	-8.02814	0.0000000E+000	0.0000000E+000	0.0000000E+000	8.02814	7.0901	81.9719	1.33613e-05	-1.03761e-06	-1.33697e-10	-1.03747e-06	0.258651	64492.2	8.30995	64483.9
0.0680626	26.1403	4.54856	26.5331	-9.87095	109.877	0.258676	-0.0031501	514088	15108.1	1	12	0.00487753	0.000183828	0	-7.72115e-05	9.06056e-05	1.70577e-06	6.76751	0.00927915	0.0092145	-0.00109346	-9.86522	26.542	26.1496	4.54747	0.0371308	0.00646097	0.0376887	9.87095	1.51081e+07	8.68252e+07	8.81299e+07	-80.129	0.0000000E+000	0.0000000E+000	0.0000000E+000	80.129	0.0000000E+000	0.0000000E+000	0.0000000E+000	-80.129	0.0000000E+000	0.0000000E+000	0.0000000E+000	-9.87095	0.0000000E+000	0.0000000E+000	0.0000000E+000	9.87095	5.74694	80.129	4.27091e-05	-8.14855e-07	-2.85417e-10	-8.14569e-07	0.258585	82116.8	28.7628	82088
0.0464052	26.9385	5.76042	27.5475	-12.0701	155.228	0.258678	-0.000966637	595387	26034.2	1	12	0.0048795	0.00017713	0	4.64817e-07	-6.21241e-05	2.59688e-06	1.04842	0.0146608	0.0146584	-0.000268253	-12.0632	27.5617	26.9531	5.76015	0.0354985	0.00759086	0.036301	12.0701	2.60342e+07	1.21748e+08	1.24501e+08	-77.9299	0.0000000E+000	0.0000000E+000	0.0000000E+000	77.9299	0.0000000E+000	0.0000000E+000	0.0000000E+000	-77.9299	0.0000000E+000	0.0000000E+000	0.0000000E+000	-12.0701	0.0000000E+000	0.0000000E+000	0.0000000E+000	12.0701	4.67647	77.9299	7.76764e-05	-2.50048e-07	6.00515e-11	-2.50108e-07	0.25874	267606	64.2683	267670
0.0315922	27.9572	7.66564	28.9891	-15.3332	221.834	0.258679	0.000411351	657191	45953.7	1	12	0.00487721	0.000168243	0	5.47991e-05	0.000186062	8.49177e-07	32.0412	0.00504732	0.00427845	-0.00267775	-15.3259	28.9925	27.9615	7.66297	0.0332679	0.0091218	0.0344958	15.3332	4.59537e+07	1.67597e+08	1.73782e+08	-74.6668	0.0000000E+000	0.0000000E+000	0.0000000E+000	74.6668	0.0000000E+000	0.0000000E+000	0.0000000E+000	-74.6668	0.0000000E+000	0.0000000E+000	0.0000000E+000	-15.3332	0.0000000E+000	0.0000000E+000	0.0000000E+000	15.3332	3.64707	74.6668	5.43342e-05	1.06408e-07	7.65367e-11	1.06331e-07	0.258493	628851	452.319	628399
0.0215268	29.0047	10.2135	30.7505	-19.3989	319.571	0.258679	0.000679538	723877	79857.1	1	12	0.00487704	0.000158601	0	-6.20915e-06	9.06056e-05	1.47861e-06	-37.424	0.00932285	0.00740383	0.00566558	-19.4042	30.7593	29.0121	10.2192	0.0306737	0.0108012	0.0325198	19.3989	7.98571e+07	2.26781e+08	2.4043e+08	-70.6011	0.0000000E+000	0.0000000E+000	0.0000000E+000	70.6011	0.0000000E+000	0.0000000E+000	0.0000000E+000	-70.6011	0.0000000E+000	0.0000000E+000	0.0000000E+000	-19.3989	0.0000000E+000	0.0000000E+000	0.0000000E+000	19.3989	2.83983	70.6011	-6.10082e-05	1.75782e-07	6.15699e-11	1.7572e-07	0.258588	380669	133.334	380535
0.0146812	30.3904	13.219	33.1409	-23.5078	462.874	0.258679	0.000188899	820087	130476	1	12	0.00488122	0.000147287	0	-0.00025759	-0.000119398	1.94643e-06	36.0174	0.0132152	0.010689	-0.00777096	-23.4881	33.1476	30.4011	13.2113	0.0276699	0.0120357	0.0301742	23.5078	1.30476e+08	2.99963e+08	3.27111e+08	-66.4922	0.0000000E+000	0.0000000E+000	0.0000000E+000	66.4922	0.0000000E+000	0.0000000E+000	0.0000000E+000	-66.4922	0.0000000E+000	0.0000000E+000	0.0000000E+000	-23.5078	0.0000000E+000	0.0000000E+000	0.0000000E+000	23.5078	2.29899	66.4922	-0.000251381	4.88641e-08	-2.25541e-11	4.88867e-08	0.258799	1.36941e+06	632.073	1.37004e+06
0.0100092	32.4655	17.1114	36.6989	-27.7921	673.056	0.258677	-0.000343578	929256	202023	1	12	0.00487959	0.000132963	0	-0.000649149	0.000109697	2.13202e-06	-38.4234	0.0160347	0.0125622	0.00996505	-27.7968	36.7147	32.4781	17.1214	0.0241055	0.0127051	0.0272487	27.7921	2.02023e+08	3.83299e+08	4.3328e+08	-62.2079	0.0000000E+000	0.0000000E+000	0.0000000E+000	62.2079	0.0000000E+000	0.0000000E+000	0.0000000E+000	-62.2079	0.0000000E+000	0.0000000E+000	0.0000000E+000	-27.7921	0.0000000E+000	0.0000000E+000	0.0000000E+000	27.7921	1.8973	62.2079	-0.000391559	-8.88758e-08	-3.76894e-11	-8.88381e-08	0.258568	752894	319.278	752575