File: txt/19067_R307_UA701_4p38_SOC00_C06.mpt
EC-Lab ASCII FILE
Nb header lines : 66

Potentio Electrochemical Impedance Spectroscopy

Run on channel : 6 (SN 65795)
Grouped channel(s) : 6, 7, 8
User :
CE vs. WE compliance from -10 V to 10 V
Electrode connection : standard
Potential control : Ewe
Ewe ctrl range : min = -10.00 V, max = 10.00 V
Safety Limits :
	Do not start on E overload
Acquisition started on : 11/12/2025 10:26:23.601
Technique started on : 11/12/2025 10:26:25.339
Loaded Setting File :  C:\Users\Celltest\OneDrive - store-dot.com\Documents\EC-Lab\Data\@Biologic Test Protocols\anode half cell EIS SOC00.mps
Saved on :
	File : 19067_R307_UA701_4p38_SOC00_C06.mpr
	Directory : C:\Users\Celltest\OneDrive - store-dot.com\Documents\EC-Lab\Data\Anna\
	Host : 169.254.61.224
Device : VMP-3e (SN .003165)
Address : USB
EC-LAB for windows v11.62 (software)
Internet server v27.00 (firmware)
Command interpretor v12.03 (firmware)
Electrode material :
Initial state :
Electrolyte :
Comments :
Electrode surface area : 0.001 cm²
Characteristic mass : 0.001 g
Equivalent Weight : 0.000 g/eq.
Density : 0.000 g/cm3
Volume (V) : 0.001 cm³
Record Ece
Cycle Definition : Charge/Discharge alternance
Mode                Single sine
E (V)               0.0000
vs.                 Eoc
tE (h:m:s)          0:00:0.0000
record              0
dI                  0.000
unit dI             mA
dt (s)              0.000
fi                  100.000
unit fi             kHz
ff                  10.000
unit ff             mHz
Nd                  6
Points              per decade
spacing             Logarithmic
Va (mV)             5.0
pw                  0.10
Na                  2
corr                0
E range min (V)     -10.000
E range max (V)     10.000
I Range             Auto
Bandwidth           5
nc cycles           0
goto Ns'            0
nr cycles           0
inc. cycle          0

freq/Hz	Re(Z)/Ohm	-Im(Z)/Ohm	|Z|/Ohm	Phase(Z)/deg	time/s	<Ewe>/V	<I>/mA	Cs/µF	Cp/µF	cycle number	I Range	|Ewe|/V	|I|/A	Ns	(Q-Qo)/mA.h	<Ece>/V	|Ece|/V	Phase(Zce)/deg	|Zce|/Ohm	Re(Zce)/Ohm	-Im(Zce)/Ohm	Phase(Zwe-ce)/deg	|Zwe-ce|/Ohm	Re(Zwe-ce)/Ohm	-Im(Zwe-ce)/Ohm	Re(Y)/Ohm-1	Im(Y)/Ohm-1	|Y|/Ohm-1	Phase(Y)/deg	Re(C)/nF	Im(C)/nF	|C|/nF	Phase(C)/deg	Re(M)	Im(M)	|M|	Phase(M)/deg	Re(Permittivity)	Im(Permittivity)	|Permittivity|	Phase(Permittivity)/deg	Re(Resistivity)/Ohm.cm	Im(Resistivity)/Ohm.cm	|Resistivity|/Ohm.cm	Phase(Resistivity)/deg	Re(Conductivity)/mS/cm	Im(Conductivity)/mS/cm	|Conductivity|/mS/cm	Phase(Conductivity)/deg	Tan(Delta)	Loss Angle(Delta)/deg	dq/mA.h	Pwe/W	Pce/W	Pwe-ce/W	<Ewe-Ece>/V	Rwe/Ohm	Rce/Ohm	Rwe-ce/Ohm		Ewe-Ece/V
100004	1.33246	0.370784	1.38309	-15.5503	1.73756	0.266998	0.0594069	4.29223	0.308477	1	9	0.00474222	0.00342871	0	8.7421e-06	-8.87826e-05	3.66008e-05	47.6505	0.0106748	0.0071911	-0.0078892	-15.1569	1.38794	1.33966	0.362895	0.696553	0.193829	0.723018	15.5503	308.477	1108.56	1150.68	-74.4497	0.0000000E+000	0.0000000E+000	0.0000000E+000	74.4497	0.0000000E+000	0.0000000E+000	0.0000000E+000	-74.4497	0.0000000E+000	0.0000000E+000	0.0000000E+000	-15.5503	0.0000000E+000	0.0000000E+000	0.0000000E+000	15.5503	3.59364	74.4497	8.7421e-06	1.58615e-05	-5.2743e-09	1.58668e-05	0.267087	4494.4	1.49448	4495.9
68132	1.40352	0.478394	1.48281	-18.8218	2.36854	0.266922	0.0548996	4.88295	0.508256	1	9	0.00513128	0.0034605	0	3.12477e-05	0.000235884	2.2076e-05	43.2764	0.00637943	0.00464457	-0.00437322	-18.6044	1.48581	1.40817	0.474021	0.638332	0.217577	0.674394	18.8218	508.256	1491.13	1575.37	-71.1782	0.0000000E+000	0.0000000E+000	0.0000000E+000	71.1782	0.0000000E+000	0.0000000E+000	0.0000000E+000	-71.1782	0.0000000E+000	0.0000000E+000	0.0000000E+000	-18.8218	0.0000000E+000	0.0000000E+000	0.0000000E+000	18.8218	2.93382	71.1782	2.25056e-05	1.46539e-05	1.29499e-08	1.46409e-05	0.266686	4861.99	4.29664	4857.69
46420.4	1.53284	0.54113	1.62555	-19.4443	2.87554	0.266915	0.0503179	6.33593	0.70212	1	9	0.00514342	0.00316411	0	3.87655e-05	0.000235884	1.40398e-05	34.5882	0.00443719	0.00365293	-0.00251888	-19.3179	1.62816	1.53649	0.538611	0.580089	0.204786	0.615175	19.4443	702.12	1988.87	2109.17	-70.5557	0.0000000E+000	0.0000000E+000	0.0000000E+000	70.5557	0.0000000E+000	0.0000000E+000	0.0000000E+000	-70.5557	0.0000000E+000	0.0000000E+000	0.0000000E+000	-19.4443	0.0000000E+000	0.0000000E+000	0.0000000E+000	19.4443	2.83267	70.5557	7.51783e-06	1.34306e-05	1.18692e-08	1.34187e-05	0.266679	5304.57	4.68788	5299.89
31621.1	1.66044	0.594236	1.76357	-19.6913	3.38252	0.266888	0.0479711	8.47	0.961653	1	9	0.00511373	0.00289965	0	3.54058e-05	-5.05865e-05	2.12015e-05	25.4138	0.00731173	0.00660418	-0.00313785	-19.5235	1.76873	1.66704	0.591099	0.533874	0.191063	0.567033	19.6913	961.653	2687.08	2853.98	-70.3087	0.0000000E+000	0.0000000E+000	0.0000000E+000	70.3087	0.0000000E+000	0.0000000E+000	0.0000000E+000	-70.3087	0.0000000E+000	0.0000000E+000	0.0000000E+000	-19.6913	0.0000000E+000	0.0000000E+000	0.0000000E+000	19.6913	2.79424	70.3087	-3.35968e-06	1.28029e-05	-2.42669e-09	1.28054e-05	0.266939	5563.52	1.05452	5564.57
21544.7	1.81225	0.656445	1.92748	-19.9117	3.88954	0.266888	0.0423836	11.2533	1.30526	1	9	0.0051034	0.0026477	0	4.81748e-05	0.00017859	4.20074e-06	-124.293	0.00158656	-0.000893905	0.00131077	-19.9574	1.92709	1.81136	0.657756	0.487796	0.176692	0.518811	19.9117	1305.26	3603.45	3832.57	-70.0883	0.0000000E+000	0.0000000E+000	0.0000000E+000	70.0883	0.0000000E+000	0.0000000E+000	0.0000000E+000	-70.0883	0.0000000E+000	0.0000000E+000	0.0000000E+000	-19.9117	0.0000000E+000	0.0000000E+000	0.0000000E+000	19.9117	2.76071	70.0883	1.2769e-05	1.13117e-05	7.56929e-09	1.13041e-05	0.26671	6296.97	4.21365	6292.76
14678.6	1.95892	0.723601	2.08829	-20.2736	4.39555	0.266885	0.0463694	14.9843	1.79909	1	9	0.00508171	0.00243343	0	5.60187e-05	0.000121296	1.01164e-05	80.8303	0.00415724	0.000662496	-0.00410412	-20.1617	2.0875	1.95958	0.719497	0.449194	0.165927	0.47886	20.2736	1799.09	4870.46	5192.12	-69.7264	0.0000000E+000	0.0000000E+000	0.0000000E+000	69.7264	0.0000000E+000	0.0000000E+000	0.0000000E+000	-69.7264	0.0000000E+000	0.0000000E+000	0.0000000E+000	-20.2736	0.0000000E+000	0.0000000E+000	0.0000000E+000	20.2736	2.70718	69.7264	7.84388e-06	1.23753e-05	5.62441e-09	1.23697e-05	0.266764	5755.64	2.61586	5753.03
10002.2	2.12313	0.812171	2.27317	-20.9336	4.77853	0.266879	0.0461831	19.5919	2.50097	1	9	0.005462	0.00240281	0	5.83666e-05	6.40017e-05	8.12617e-06	-13.0037	0.00338194	0.00329521	0.000760986	-20.9219	2.27652	2.12642	0.812932	0.410878	0.157175	0.439915	20.9336	2500.97	6537.87	6999.9	-69.0664	0.0000000E+000	0.0000000E+000	0.0000000E+000	69.0664	0.0000000E+000	0.0000000E+000	0.0000000E+000	-69.0664	0.0000000E+000	0.0000000E+000	0.0000000E+000	-20.9336	0.0000000E+000	0.0000000E+000	0.0000000E+000	20.9336	2.61414	69.0664	2.3479e-06	1.23253e-05	2.9558e-09	1.23223e-05	0.266815	5778.72	1.38582	5777.33
6810.42	2.30994	0.899636	2.47894	-21.2791	5.16151	0.266879	0.0398506	25.9764	3.42122	1	9	0.00547454	0.00220842	0	6.51823e-05	-3.14885e-05	4.988e-05	-94.2954	0.0225863	-0.00169169	0.0225229	-21.777	2.48563	2.30824	0.922159	0.375896	0.146398	0.403398	21.2791	3421.22	8784.43	9427.14	-68.7209	0.0000000E+000	0.0000000E+000	0.0000000E+000	68.7209	0.0000000E+000	0.0000000E+000	0.0000000E+000	-68.7209	0.0000000E+000	0.0000000E+000	0.0000000E+000	-21.2791	0.0000000E+000	0.0000000E+000	0.0000000E+000	21.2791	2.56763	68.7209	6.81576e-06	1.06353e-05	-1.25484e-09	1.06366e-05	0.266911	6696.99	0.790164	6697.78
4646	2.50375	1.03525	2.70934	-22.464	5.55563	0.266867	0.0401113	33.09	4.83123	1	9	0.00531494	0.00196171	0	7.14684e-05	0.000350472	7.78979e-06	-7.47991	0.00397091	0.00393712	0.000516928	-22.4423	2.71318	2.50769	1.03576	0.341087	0.141032	0.369094	22.464	4831.23	11684.4	12643.8	-67.536	0.0000000E+000	0.0000000E+000	0.0000000E+000	67.536	0.0000000E+000	0.0000000E+000	0.0000000E+000	-67.536	0.0000000E+000	0.0000000E+000	0.0000000E+000	-22.464	0.0000000E+000	0.0000000E+000	0.0000000E+000	22.464	2.41851	67.536	6.2861e-06	1.07044e-05	1.40579e-08	1.06903e-05	0.266516	6653.15	8.73748	6644.41
3163.08	2.74259	1.17447	2.98348	-23.1824	6.10462	0.266836	0.0231999	42.8417	6.63906	1	9	0.00518376	0.00173749	0	7.60465e-05	-0.000241567	7.67433e-06	-41.61	0.00441691	0.00330245	0.00293308	-23.2091	2.98767	2.74589	1.17741	0.308115	0.131946	0.335179	23.1824	6639.06	15503.3	16865	-66.8176	0.0000000E+000	0.0000000E+000	0.0000000E+000	66.8176	0.0000000E+000	0.0000000E+000	0.0000000E+000	-66.8176	0.0000000E+000	0.0000000E+000	0.0000000E+000	-23.1824	0.0000000E+000	0.0000000E+000	0.0000000E+000	23.1824	2.33516	66.8176	4.57806e-06	6.19057e-06	-5.60432e-09	6.19617e-06	0.267078	11501.6	10.4124	11512
2155.69	2.99544	1.34631	3.28408	-24.2017	6.55683	0.266853	0.0455498	54.8389	9.21618	1	9	0.00548105	0.00166898	0	8.03332e-05	0.000216786	1.19954e-05	59.8745	0.00718731	0.00360728	-0.0062165	-24.077	3.28483	2.99904	1.34009	0.277736	0.124829	0.304499	24.2017	9216.18	20505.3	22481.2	-65.7983	0.0000000E+000	0.0000000E+000	0.0000000E+000	65.7983	0.0000000E+000	0.0000000E+000	0.0000000E+000	-65.7983	0.0000000E+000	0.0000000E+000	0.0000000E+000	-24.2017	0.0000000E+000	0.0000000E+000	0.0000000E+000	24.2017	2.22492	65.7983	4.28674e-06	1.21551e-05	9.87457e-09	1.21453e-05	0.266637	5858.49	4.75931	5853.73
1468.59	3.29196	1.5836	3.65305	-25.6899	7.25403	0.266861	-0.000772054	68.4345	12.8603	1	10	0.00550983	0.00150828	0	8.23554e-05	0.000254982	3.70901e-05	42.152	0.0245909	0.0182309	-0.016503	-25.3336	3.6624	3.31019	1.56709	0.246685	0.118668	0.273744	25.6899	12860.3	26733.9	29666.3	-64.3101	0.0000000E+000	0.0000000E+000	0.0000000E+000	64.3101	0.0000000E+000	0.0000000E+000	0.0000000E+000	-64.3101	0.0000000E+000	0.0000000E+000	0.0000000E+000	-25.6899	0.0000000E+000	0.0000000E+000	0.0000000E+000	25.6899	2.07879	64.3101	2.02212e-06	-2.06031e-07	-1.9686e-10	-2.05834e-07	0.266606	345651	330.265	345320
1000.32	3.63037	1.84259	4.0712	-26.9101	7.70478	0.266869	-0.00158072	86.3479	17.6874	1	10	0.00542845	0.00133338	0	8.14825e-05	-3.14885e-05	1.06973e-05	88.0167	0.00802275	0.000277652	-0.00801794	-26.8076	4.06783	3.63064	1.83457	0.219031	0.111169	0.245628	26.9101	17687.4	34848.6	39080.3	-63.0899	0.0000000E+000	0.0000000E+000	0.0000000E+000	63.0899	0.0000000E+000	0.0000000E+000	0.0000000E+000	-63.0899	0.0000000E+000	0.0000000E+000	0.0000000E+000	-26.9101	0.0000000E+000	0.0000000E+000	0.0000000E+000	26.9101	1.97025	63.0899	-8.72884e-07	-4.21844e-07	4.97744e-11	-4.21894e-07	0.2669	168828	19.9204	168848
681.09	3.99344	2.18828	4.55369	-28.7213	8.15558	0.266869	-0.00146892	106.786	24.6598	1	10	0.00530858	0.00116577	0	8.23309e-05	4.49036e-05	1.44128e-05	31.398	0.0123633	0.0105529	-0.00644103	-28.5866	4.55987	4.004	2.18183	0.192584	0.10553	0.219602	28.7213	24659.8	45002.4	51315.9	-61.2787	0.0000000E+000	0.0000000E+000	0.0000000E+000	61.2787	0.0000000E+000	0.0000000E+000	0.0000000E+000	-61.2787	0.0000000E+000	0.0000000E+000	0.0000000E+000	-28.7213	0.0000000E+000	0.0000000E+000	0.0000000E+000	28.7213	1.82493	61.2787	8.48474e-07	-3.9201e-07	-6.596e-11	-3.91944e-07	0.266824	181676	30.5691	181646
463.961	4.44176	2.64327	5.16876	-30.7566	8.60731	0.266868	-0.00109255	129.777	33.9396	1	10	0.00521859	0.00100964	0	8.16109e-05	-0.000107881	4.23251e-05	-42.5626	0.041921	0.0308765	0.0283552	-30.8509	5.2098	4.47264	2.67162	0.166258	0.0989391	0.19347	30.7566	33939.6	57032.3	66367	-59.2434	0.0000000E+000	0.0000000E+000	0.0000000E+000	59.2434	0.0000000E+000	0.0000000E+000	0.0000000E+000	-59.2434	0.0000000E+000	0.0000000E+000	0.0000000E+000	-30.7566	0.0000000E+000	0.0000000E+000	0.0000000E+000	30.7566	1.68041	59.2434	-7.19993e-07	-2.91566e-07	1.17865e-10	-2.91684e-07	0.266976	244262	98.7423	244361
316.316	5.01375	3.21994	5.95867	-32.7094	9.055	0.266858	-0.00120807	156.261	45.6298	1	10	0.00516426	0.000866681	0	8.2197e-05	-8.87826e-05	9.75377e-06	-112.165	0.0112542	-0.00424594	0.0104225	-32.8158	5.96074	5.00951	3.23036	0.14121	0.0906879	0.167823	32.7094	45629.8	71049.9	84440.3	-57.2906	0.0000000E+000	0.0000000E+000	0.0000000E+000	57.2906	0.0000000E+000	0.0000000E+000	0.0000000E+000	-57.2906	0.0000000E+000	0.0000000E+000	0.0000000E+000	-32.7094	0.0000000E+000	0.0000000E+000	0.0000000E+000	32.7094	1.5571	57.2906	5.86076e-07	-3.22383e-07	1.07256e-10	-3.2249e-07	0.266947	220896	73.4914	220970
215.345	5.79299	3.93252	7.00167	-34.1703	9.50559	0.266867	-0.0017298	187.938	59.2862	1	10	0.00512391	0.000731812	0	8.21783e-05	8.30997e-05	1.3812e-05	38.6007	0.0188738	0.0147501	-0.0117751	-34.0229	7.00729	5.80774	3.92075	0.118168	0.0802172	0.142823	34.1703	59286.2	87334.3	105556	-55.8297	0.0000000E+000	0.0000000E+000	0.0000000E+000	55.8297	0.0000000E+000	0.0000000E+000	0.0000000E+000	-55.8297	0.0000000E+000	0.0000000E+000	0.0000000E+000	-34.1703	0.0000000E+000	0.0000000E+000	0.0000000E+000	34.1703	1.4731	55.8297	-1.86837e-08	-4.61626e-07	-1.43745e-10	-4.61482e-07	0.266784	154277	48.0402	154229
146.737	6.83476	4.71853	8.30533	-34.6201	9.95146	0.26687	-0.00118572	229.865	74.1946	1	10	0.00509054	0.000612924	0	8.1262e-05	-6.96846e-05	9.37445e-06	65.5512	0.0152946	0.00633014	-0.0139232	-34.5162	8.30264	6.8411	4.70461	0.0990854	0.0684058	0.120405	34.6201	74194.5	107470	130594	-55.3799	0.0000000E+000	0.0000000E+000	0.0000000E+000	55.3799	0.0000000E+000	0.0000000E+000	0.0000000E+000	-55.3799	0.0000000E+000	0.0000000E+000	0.0000000E+000	-34.6201	0.0000000E+000	0.0000000E+000	0.0000000E+000	34.6201	1.44849	55.3799	-9.16337e-07	-3.16433e-07	8.26263e-11	-3.16516e-07	0.26694	225071	58.7699	225129
100.032	8.22003	5.47375	9.87577	-33.6598	10.4018	0.26687	-0.00131615	290.667	89.2944	1	10	0.00507128	0.000513507	0	8.15926e-05	-0.000146077	6.15908e-06	17.4775	0.0119941	0.0114404	-0.00360221	-33.6057	9.8833	8.23147	5.47015	0.0842813	0.0561233	0.101258	33.6598	89294.4	134095	161105	-56.3402	0.0000000E+000	0.0000000E+000	0.0000000E+000	56.3402	0.0000000E+000	0.0000000E+000	0.0000000E+000	-56.3402	0.0000000E+000	0.0000000E+000	0.0000000E+000	-33.6598	0.0000000E+000	0.0000000E+000	0.0000000E+000	33.6598	1.50172	56.3402	3.30638e-07	-3.51242e-07	1.92259e-10	-3.51434e-07	0.267016	202765	110.988	202876
68.104	9.89254	6.0811	11.6122	-31.5797	10.8645	0.266872	-0.000485129	384.296	105.391	1	10	0.0050645	0.000436138	0	8.18751e-05	-5.05865e-05	7.6997e-06	-0.31263	0.0176543	0.017654	9.63286e-05	-31.5345	11.6272	9.91019	6.08119	0.0733639	0.0450979	0.0861167	31.5797	105391	171447	201250	-58.4203	0.0000000E+000	0.0000000E+000	0.0000000E+000	58.4203	0.0000000E+000	0.0000000E+000	0.0000000E+000	-58.4203	0.0000000E+000	0.0000000E+000	0.0000000E+000	-31.5797	0.0000000E+000	0.0000000E+000	0.0000000E+000	31.5797	1.62677	58.4203	2.82484e-07	-1.29467e-07	2.4541e-11	-1.29492e-07	0.266923	550105	104.274	550210
46.4415	11.7836	6.34165	13.3817	-28.2881	11.3007	0.26687	-0.00216208	540.395	121.365	1	10	0.00506106	0.000378208	0	8.13857e-05	0.000312276	5.87464e-06	-80.8553	0.0155328	0.00246861	0.0153354	-28.3409	13.3911	11.7861	6.35699	0.0658045	0.0354145	0.074729	28.2881	121365	225512	256096	-61.7119	0.0000000E+000	0.0000000E+000	0.0000000E+000	61.7119	0.0000000E+000	0.0000000E+000	0.0000000E+000	-61.7119	0.0000000E+000	0.0000000E+000	0.0000000E+000	-28.2881	0.0000000E+000	0.0000000E+000	0.0000000E+000	28.2881	1.85813	61.7119	-4.89399e-07	-5.76994e-07	-6.75167e-10	-5.76319e-07	0.266557	123432	144.433	123287
31.6296	13.6989	6.29852	15.0775	-24.6922	11.7305	0.266859	-0.00329123	798.893	139.415	1	10	0.00505578	0.000335321	0	8.1564e-05	0.000140394	4.34601e-06	45.0405	0.0129608	0.00915818	-0.00917113	-24.646	15.082	13.708	6.28935	0.0602598	0.0277065	0.0663241	24.6922	139415	303218	333733	-65.3078	0.0000000E+000	0.0000000E+000	0.0000000E+000	65.3078	0.0000000E+000	0.0000000E+000	0.0000000E+000	-65.3078	0.0000000E+000	0.0000000E+000	0.0000000E+000	-24.6922	0.0000000E+000	0.0000000E+000	0.0000000E+000	24.6922	2.17493	65.3078	1.78263e-07	-8.78295e-07	-4.62069e-10	-8.77833e-07	0.266719	81081.8	42.6569	81039.1
21.5517	15.5186	5.96205	16.6245	-21.0161	12.3835	0.266859	-0.00377768	1238.63	159.307	1	11	0.00505983	0.00030436	0	8.20498e-05	0.000235884	8.44223e-06	24.9529	0.0277377	0.0251485	-0.0117018	-20.9474	16.6438	15.5438	5.95034	0.0561508	0.0215724	0.0601522	21.0161	159307	414662	444211	-68.9839	0.0000000E+000	0.0000000E+000	0.0000000E+000	68.9839	0.0000000E+000	0.0000000E+000	0.0000000E+000	-68.9839	0.0000000E+000	0.0000000E+000	0.0000000E+000	-21.0161	0.0000000E+000	0.0000000E+000	0.0000000E+000	21.0161	2.6029	68.9839	4.85808e-07	-1.00811e-06	-8.91093e-10	-1.00721e-06	0.266623	70640.9	62.4416	70578.5
14.6852	17.086	5.48876	17.946	-17.8092	12.8441	0.266862	-0.00333784	1974.55	184.706	1	11	0.00506653	0.000282321	0	8.29757e-05	-1.23905e-05	8.50057e-06	-111.273	0.0301096	-0.010924	0.0280581	-17.9052	17.9442	17.0751	5.51682	0.0530525	0.0170427	0.0557228	17.8092	184706	574973	603913	-72.1908	0.0000000E+000	0.0000000E+000	0.0000000E+000	72.1908	0.0000000E+000	0.0000000E+000	0.0000000E+000	-72.1908	0.0000000E+000	0.0000000E+000	0.0000000E+000	-17.8092	0.0000000E+000	0.0000000E+000	0.0000000E+000	17.8092	3.11291	72.1908	9.25919e-07	-8.90741e-07	4.13574e-11	-8.90782e-07	0.266874	79950.5	3.71212	79954.2
10.0032	18.3681	4.91375	19.014	-14.9768	13.2948	0.266856	-0.0034755	3237.93	216.246	1	11	0.00505297	0.00026575	0	8.09905e-05	-0.000337057	1.02949e-05	111.883	0.0387392	-0.0144384	-0.035948	-14.8833	18.9908	18.3536	4.8778	0.0508063	0.0135915	0.0525929	14.9768	216246	808349	836774	-75.0232	0.0000000E+000	0.0000000E+000	0.0000000E+000	75.0232	0.0000000E+000	0.0000000E+000	0.0000000E+000	-75.0232	0.0000000E+000	0.0000000E+000	0.0000000E+000	-14.9768	0.0000000E+000	0.0000000E+000	0.0000000E+000	14.9768	3.7381	75.0232	-1.9852e-06	-9.27457e-07	1.17144e-09	-9.28628e-07	0.267193	76782.1	96.981	76879.1
6.81719	19.5157	4.36022	19.9968	-12.5943	13.6345	0.266855	-0.0038217	5354.35	254.567	1	11	0.00505766	0.000252924	0	8.29309e-05	0.000216786	6.17288e-06	-35.5059	0.0244061	0.0198679	0.0141748	-12.6215	20.0193	19.5355	4.37439	0.0488047	0.010904	0.050008	12.5943	254567	1.1394e+06	1.16749e+06	-77.4057	0.0000000E+000	0.0000000E+000	0.0000000E+000	77.4057	0.0000000E+000	0.0000000E+000	0.0000000E+000	-77.4057	0.0000000E+000	0.0000000E+000	0.0000000E+000	-12.5943	0.0000000E+000	0.0000000E+000	0.0000000E+000	12.5943	4.47584	77.4057	1.94039e-06	-1.01984e-06	-8.2849e-10	-1.01901e-06	0.266639	69826.4	56.725	69769.7
4.63925	20.4565	3.88085	20.8214	-10.742	14.1184	0.266858	-0.00301701	8839.86	307.099	1	11	0.00504721	0.000242405	0	8.10581e-05	0.000121296	1.01053e-05	26.2151	0.0416876	0.0373997	-0.0184152	-10.6732	20.8547	20.4939	3.86243	0.0471859	0.00895173	0.0480275	10.742	307099	1.61877e+06	1.64764e+06	-79.258	0.0000000E+000	0.0000000E+000	0.0000000E+000	79.258	0.0000000E+000	0.0000000E+000	0.0000000E+000	-79.258	0.0000000E+000	0.0000000E+000	0.0000000E+000	-10.742	0.0000000E+000	0.0000000E+000	0.0000000E+000	10.742	5.27115	79.258	-1.87284e-06	-8.05112e-07	-3.6595e-10	-8.04746e-07	0.266737	88451.3	40.204	88411.1
3.1604	21.3428	3.38888	21.6102	-9.02229	14.8114	0.26686	-0.00286424	14860.1	365.442	1	11	0.00506322	0.000234298	0	7.7484e-05	0.000159492	7.04929e-06	28.4087	0.0300868	0.0264637	-0.014314	-8.97386	21.6341	21.3693	3.37456	0.045702	0.00725671	0.0462745	9.02229	365442	2.30151e+06	2.33035e+06	-80.9777	0.0000000E+000	0.0000000E+000	0.0000000E+000	80.9777	0.0000000E+000	0.0000000E+000	0.0000000E+000	-80.9777	0.0000000E+000	0.0000000E+000	0.0000000E+000	-9.02229	0.0000000E+000	0.0000000E+000	0.0000000E+000	9.02229	6.2979	80.9777	-3.57401e-06	-7.64349e-07	-4.56822e-10	-7.63893e-07	0.2667	93169.6	55.6839	93113.9
2.15577	22.0473	3.00778	22.2515	-7.76854	15.815	0.266873	-0.0022637	24545.5	448.48	1	11	0.00505287	0.000227079	0	7.67744e-05	6.40017e-05	4.73476e-06	-42.5409	0.0208507	0.0153627	0.0140975	-7.79914	22.2687	22.0627	3.02187	0.0445282	0.0060747	0.0449407	7.76854	448480	3.28741e+06	3.31786e+06	-82.2315	0.0000000E+000	0.0000000E+000	0.0000000E+000	82.2315	0.0000000E+000	0.0000000E+000	0.0000000E+000	-82.2315	0.0000000E+000	0.0000000E+000	0.0000000E+000	-7.76854	0.0000000E+000	0.0000000E+000	0.0000000E+000	7.76854	7.33011	82.2315	-7.09644e-07	-6.0412e-07	-1.44881e-10	-6.03975e-07	0.266808	117892	28.273	117864
1.46631	22.6199	2.64667	22.7742	-6.6736	17.2764	0.266887	-0.00173342	41010.5	553.867	1	11	0.00505136	0.000221801	0	8.03939e-05	-0.000126979	4.99071e-06	-5.52662	0.0225008	0.0223962	0.00216701	-6.67247	22.7967	22.6423	2.64883	0.0436117	0.00510283	0.0439092	6.6736	553867	4.73367e+06	4.76596e+06	-83.3264	0.0000000E+000	0.0000000E+000	0.0000000E+000	83.3264	0.0000000E+000	0.0000000E+000	0.0000000E+000	-83.3264	0.0000000E+000	0.0000000E+000	0.0000000E+000	-6.6736	0.0000000E+000	0.0000000E+000	0.0000000E+000	6.6736	8.54657	83.3264	3.61947e-06	-4.62627e-07	2.20108e-10	-4.62847e-07	0.267014	153965	73.2532	154039
1.00006	23.1434	2.35201	23.2626	-5.8029	20.4498	0.266873	-0.00239725	67663.4	691.694	1	12	0.00505551	0.000217323	0	8.58019e-05	0.000102198	5.19039e-06	-43.0972	0.0238833	0.0174394	0.0163179	-5.83852	23.2816	23.1608	2.36832	0.0427671	0.00434632	0.0429874	5.8029	691694	6.80617e+06	6.84122e+06	-84.1971	0.0000000E+000	0.0000000E+000	0.0000000E+000	84.1971	0.0000000E+000	0.0000000E+000	0.0000000E+000	-84.1971	0.0000000E+000	0.0000000E+000	0.0000000E+000	-5.8029	0.0000000E+000	0.0000000E+000	0.0000000E+000	5.8029	9.83986	84.1971	5.40806e-06	-6.39761e-07	-2.44994e-10	-6.39516e-07	0.266771	111325	42.6312	111282
0.681362	23.5694	2.14085	23.6665	-5.19004	23.562	0.266864	-0.00189216	109108	892.816	1	12	0.00505169	0.000213454	0	8.73265e-05	-5.05865e-05	7.65451e-07	-23.8433	0.00358603	0.00327998	0.00144961	-5.19281	23.6699	23.5727	2.1423	0.0420806	0.00382226	0.0422539	5.19004	892816	9.82934e+06	9.86981e+06	-84.81	0.0000000E+000	0.0000000E+000	0.0000000E+000	84.81	0.0000000E+000	0.0000000E+000	0.0000000E+000	-84.81	0.0000000E+000	0.0000000E+000	0.0000000E+000	-5.19004	0.0000000E+000	0.0000000E+000	0.0000000E+000	5.19004	11.0094	84.81	1.52456e-06	-5.04949e-07	9.57176e-11	-5.05045e-07	0.266915	141037	26.7349	141064
0.464091	23.9296	2.05715	24.0178	-4.91346	28.1187	0.266859	-0.00137864	166706	1222.97	1	12	0.00505711	0.000210556	0	7.96322e-05	0.000159492	3.32396e-06	23.2763	0.0157866	0.0145017	-0.00623831	-4.89568	24.0317	23.9441	2.05091	0.0414827	0.00356614	0.0416357	4.91346	1.22297e+06	1.42261e+07	1.42785e+07	-85.0865	0.0000000E+000	0.0000000E+000	0.0000000E+000	85.0865	0.0000000E+000	0.0000000E+000	0.0000000E+000	-85.0865	0.0000000E+000	0.0000000E+000	0.0000000E+000	-4.91346	0.0000000E+000	0.0000000E+000	0.0000000E+000	4.91346	11.6324	85.0865	-7.69426e-06	-3.67902e-07	-2.19882e-10	-3.67682e-07	0.2667	193567	115.688	193451
0.316193	24.2426	2.10449	24.3338	-4.96139	34.7922	0.266869	-0.000545636	239178	1788.94	1	12	0.00505818	0.000207866	0	6.09684e-05	2.58056e-05	8.91942e-07	55.2881	0.00429094	0.00244347	-0.00352726	-4.95262	24.3359	24.2451	2.10097	0.0409411	0.00355408	0.0410951	4.96139	1.78894e+06	2.06076e+07	2.06851e+07	-85.0386	0.0000000E+000	0.0000000E+000	0.0000000E+000	85.0386	0.0000000E+000	0.0000000E+000	0.0000000E+000	-85.0386	0.0000000E+000	0.0000000E+000	0.0000000E+000	-4.96139	0.0000000E+000	0.0000000E+000	0.0000000E+000	4.96139	11.5195	85.0386	-1.86639e-05	-1.45613e-07	-1.40805e-11	-1.45599e-07	0.266843	489096	47.2945	489049
0.215268	24.5573	2.2785	24.6628	-5.3009	44.5855	0.266878	-0.000776946	324482	2769.53	1	12	0.00505991	0.000205163	0	3.35792e-05	0.00036957	2.38929e-06	-22.1874	0.0116458	0.0107834	0.00439789	-5.30875	24.674	24.5681	2.2829	0.0403735	0.00374597	0.0405469	5.3009	2.76952e+06	2.98495e+07	2.99777e+07	-84.6991	0.0000000E+000	0.0000000E+000	0.0000000E+000	84.6991	0.0000000E+000	0.0000000E+000	0.0000000E+000	-84.6991	0.0000000E+000	0.0000000E+000	0.0000000E+000	-5.3009	0.0000000E+000	0.0000000E+000	0.0000000E+000	5.3009	10.7778	84.6991	-2.73892e-05	-2.0735e-07	-2.87136e-10	-2.07063e-07	0.266509	343497	475.671	343021
0.146929	24.9677	2.65521	25.1085	-6.07036	58.9239	0.266862	-0.0022068	407957	4562.17	1	12	0.00505815	0.000201452	0	4.90024e-06	0.000102198	2.19303e-06	7.78646	0.0108861	0.0107858	-0.00147487	-6.06441	25.119	24.9785	2.65374	0.0396039	0.00421171	0.0398272	6.07036	4.56217e+06	4.28994e+07	4.31413e+07	-83.9296	0.0000000E+000	0.0000000E+000	0.0000000E+000	83.9296	0.0000000E+000	0.0000000E+000	0.0000000E+000	-83.9296	0.0000000E+000	0.0000000E+000	0.0000000E+000	-6.07036	0.0000000E+000	0.0000000E+000	0.0000000E+000	6.07036	9.40327	83.9296	-2.86789e-05	-5.8891e-07	-2.2553e-10	-5.88685e-07	0.26676	120927	46.3104	120881
0.0999041	25.4356	3.31478	25.6506	-7.42499	80.0011	0.266864	-0.00275056	480598	8025.94	1	12	0.00505911	0.000197231	0	-5.57323e-06	0.000350472	2.14406e-06	-20.6079	0.0108708	0.0101752	0.0038262	-7.43052	25.6612	25.4457	3.31861	0.0386585	0.00503801	0.0389854	7.42499	8.02593e+06	6.1586e+07	6.21067e+07	-82.575	0.0000000E+000	0.0000000E+000	0.0000000E+000	82.575	0.0000000E+000	0.0000000E+000	0.0000000E+000	-82.575	0.0000000E+000	0.0000000E+000	0.0000000E+000	-7.42499	0.0000000E+000	0.0000000E+000	0.0000000E+000	7.42499	7.67337	82.575	-1.04735e-05	-7.34024e-07	-9.63994e-10	-7.3306e-07	0.266513	97021.7	127.419	96894.3
0.0680626	25.9454	4.18296	26.2804	-9.15853	110.929	0.266874	-0.00266355	559020	14162.2	1	12	0.00505837	0.000192477	0	1.91371e-05	0.000102198	9.15679e-07	54.7784	0.00475735	0.00274375	-0.00388641	-9.14921	26.2825	25.9481	4.17908	0.0375661	0.00605648	0.0380512	9.15853	1.41622e+07	8.7843e+07	8.89773e+07	-80.8415	0.0000000E+000	0.0000000E+000	0.0000000E+000	80.8415	0.0000000E+000	0.0000000E+000	0.0000000E+000	-80.8415	0.0000000E+000	0.0000000E+000	0.0000000E+000	-9.15853	0.0000000E+000	0.0000000E+000	0.0000000E+000	9.15853	6.20263	80.8415	2.47104e-05	-7.10832e-07	-2.72209e-10	-7.1056e-07	0.266772	100195	38.369	100157
0.0464052	26.5598	5.21579	27.067	-11.1103	156.28	0.266875	-0.00150651	657557	24417	1	12	0.00504832	0.000186512	0	0.000109275	0.000293178	1.93117e-06	-29.7961	0.0103541	0.00898532	0.00514512	-11.1174	27.0769	26.5687	5.22094	0.0362529	0.00711932	0.0369453	11.1103	2.4417e+07	1.24336e+08	1.26711e+08	-78.8897	0.0000000E+000	0.0000000E+000	0.0000000E+000	78.8897	0.0000000E+000	0.0000000E+000	0.0000000E+000	-78.8897	0.0000000E+000	0.0000000E+000	0.0000000E+000	-11.1103	0.0000000E+000	0.0000000E+000	0.0000000E+000	11.1103	5.09218	78.8897	9.01377e-05	-4.0205e-07	-4.41677e-10	-4.01608e-07	0.266581	177147	194.607	176953
0.0315922	27.4693	6.62252	28.2564	-13.5547	222.884	0.26687	-4.77054e-05	760706	41786	1	12	0.00505518	0.000178904	0	0.000246242	0.000121296	9.31085e-07	-55.7671	0.00520438	0.00292777	0.00430277	-13.5617	28.2602	27.4723	6.62683	0.0344045	0.00829451	0.0353902	13.5547	4.1786e+07	1.73323e+08	1.78289e+08	-76.4454	0.0000000E+000	0.0000000E+000	0.0000000E+000	76.4454	0.0000000E+000	0.0000000E+000	0.0000000E+000	-76.4454	0.0000000E+000	0.0000000E+000	0.0000000E+000	-13.5547	0.0000000E+000	0.0000000E+000	0.0000000E+000	13.5547	4.14787	76.4454	0.000136968	-1.27311e-08	-5.78646e-12	-1.27254e-08	0.266749	5.59414e+06	2542.6	5.59159e+06
0.0215268	28.5903	8.72746	29.8927	-16.9753	320.623	0.266864	0.00060187	847136	72210.3	1	12	0.00504964	0.000168926	0	0.00034459	0.000121296	1.63471e-06	-12.9754	0.00967713	0.00943003	0.00217283	-16.974	29.9023	28.5997	8.72963	0.0319955	0.00976693	0.033453	16.9753	7.22103e+07	2.36554e+08	2.4733e+08	-73.0247	0.0000000E+000	0.0000000E+000	0.0000000E+000	73.0247	0.0000000E+000	0.0000000E+000	0.0000000E+000	-73.0247	0.0000000E+000	0.0000000E+000	0.0000000E+000	-16.9753	0.0000000E+000	0.0000000E+000	0.0000000E+000	16.9753	3.2759	73.0247	9.83472e-05	1.60618e-07	7.30043e-11	1.60545e-07	0.266743	443392	201.531	443190
0.0146812	29.7524	11.646	31.9505	-21.3768	463.924	0.266854	0.000811538	930859	123674	1	12	0.00505838	0.000158319	0	0.000270616	-0.000146077	2.28175e-06	-2.41307	0.0144123	0.0143996	0.000606812	-21.3684	31.9641	29.7668	11.6466	0.0291452	0.0114083	0.0312984	21.3768	1.23674e+08	3.15956e+08	3.39298e+08	-68.6232	0.0000000E+000	0.0000000E+000	0.0000000E+000	68.6232	0.0000000E+000	0.0000000E+000	0.0000000E+000	-68.6232	0.0000000E+000	0.0000000E+000	0.0000000E+000	-21.3768	0.0000000E+000	0.0000000E+000	0.0000000E+000	21.3768	2.55474	68.6232	-7.3974e-05	2.16562e-07	-1.18547e-10	2.16681e-07	0.267	328826	180	329006
0.0100092	31.2072	15.199	34.7117	-25.9676	674.106	0.266867	0.000509857	1.04618e+06	200579	1	12	0.00505784	0.00014571	0	-7.84873e-05	0.000159492	3.70872e-06	-47.1658	0.0254527	0.0173048	0.0186651	-25.9828	34.7354	31.2245	15.2176	0.0259003	0.0126143	0.0288088	25.9676	2.00579e+08	4.11838e+08	4.58086e+08	-64.0324	0.0000000E+000	0.0000000E+000	0.0000000E+000	64.0324	0.0000000E+000	0.0000000E+000	0.0000000E+000	-64.0324	0.0000000E+000	0.0000000E+000	0.0000000E+000	-25.9676	0.0000000E+000	0.0000000E+000	0.0000000E+000	25.9676	2.05325	64.0324	-0.000349103	1.36064e-07	8.13181e-11	1.35983e-07	0.266707	523415	312.817	523102