File: txt/19062_R307_UA701_3p24_SOC00_C01.mpt
EC-Lab ASCII FILE
Nb header lines : 66

Potentio Electrochemical Impedance Spectroscopy

Run on channel : 1 (SN 66354)
Grouped channel(s) : 1, 2, 3, 4, 5
User :
CE vs. WE compliance from -10 V to 10 V
Electrode connection : standard
Potential control : Ewe
Ewe ctrl range : min = -10.00 V, max = 10.00 V
Safety Limits :
	Do not start on E overload
Acquisition started on : 11/12/2025 10:25:43.761
Technique started on : 11/12/2025 10:25:45.486
Loaded Setting File :  C:\Users\Celltest\OneDrive - store-dot.com\Documents\EC-Lab\Data\@Biologic Test Protocols\anode half cell EIS SOC00.mps
Saved on :
	File : 19062_R307_UA701_3p24_SOC00_C01.mpr
	Directory : C:\Users\Celltest\OneDrive - store-dot.com\Documents\EC-Lab\Data\Anna\
	Host : 169.254.61.224
Device : VMP-3e (SN .003165)
Address : USB
EC-LAB for windows v11.62 (software)
Internet server v27.00 (firmware)
Command interpretor v12.03 (firmware)
Electrode material :
Initial state :
Electrolyte :
Comments :
Electrode surface area : 0.001 cm²
Characteristic mass : 0.001 g
Equivalent Weight : 0.000 g/eq.
Density : 0.000 g/cm3
Volume (V) : 0.001 cm³
Record Ece
Cycle Definition : Charge/Discharge alternance
Mode                Single sine
E (V)               0.0000
vs.                 Eoc
tE (h:m:s)          0:00:0.0000
record              0
dI                  0.000
unit dI             mA
dt (s)              0.000
fi                  100.000
unit fi             kHz
ff                  10.000
unit ff             mHz
Nd                  6
Points              per decade
spacing             Logarithmic
Va (mV)             5.0
pw                  0.10
Na                  2
corr                0
E range min (V)     -10.000
E range max (V)     10.000
I Range             Auto
Bandwidth           5
nc cycles           0
goto Ns'            0
nr cycles           0
inc. cycle          0

freq/Hz	Re(Z)/Ohm	-Im(Z)/Ohm	|Z|/Ohm	Phase(Z)/deg	time/s	<Ewe>/V	<I>/mA	Cs/µF	Cp/µF	cycle number	I Range	|Ewe|/V	|I|/A	Ns	(Q-Qo)/mA.h	<Ece>/V	|Ece|/V	Phase(Zce)/deg	|Zce|/Ohm	Re(Zce)/Ohm	-Im(Zce)/Ohm	Phase(Zwe-ce)/deg	|Zwe-ce|/Ohm	Re(Zwe-ce)/Ohm	-Im(Zwe-ce)/Ohm	Re(Y)/Ohm-1	Im(Y)/Ohm-1	|Y|/Ohm-1	Phase(Y)/deg	Re(C)/nF	Im(C)/nF	|C|/nF	Phase(C)/deg	Re(M)	Im(M)	|M|	Phase(M)/deg	Re(Permittivity)	Im(Permittivity)	|Permittivity|	Phase(Permittivity)/deg	Re(Resistivity)/Ohm.cm	Im(Resistivity)/Ohm.cm	|Resistivity|/Ohm.cm	Phase(Resistivity)/deg	Re(Conductivity)/mS/cm	Im(Conductivity)/mS/cm	|Conductivity|/mS/cm	Phase(Conductivity)/deg	Tan(Delta)	Loss Angle(Delta)/deg	dq/mA.h	Pwe/W	Pce/W	Pwe-ce/W	<Ewe-Ece>/V	Rwe/Ohm	Rce/Ohm	Rwe-ce/Ohm		Ewe-Ece/V
100004	1.02725	0.402513	1.10329	-21.3971	1.72456	0.262793	0.0800178	3.95388	0.526265	1	9	0.0048531	0.00439875	0	8.16861e-06	0.000247769	4.57813e-05	88.8894	0.0104078	0.000201728	-0.0104058	-20.8885	1.09973	1.02745	0.392107	0.843907	0.330674	0.90638	21.3971	526.265	1343.07	1442.49	-68.6029	0.0000000E+000	0.0000000E+000	0.0000000E+000	68.6029	0.0000000E+000	0.0000000E+000	0.0000000E+000	-68.6029	0.0000000E+000	0.0000000E+000	0.0000000E+000	-21.3971	0.0000000E+000	0.0000000E+000	0.0000000E+000	21.3971	2.55208	68.6029	8.16861e-06	2.10281e-05	1.9826e-08	2.10083e-05	0.262545	3284.18	3.09643	3281.08
68132	1.13561	0.441909	1.21856	-21.263	2.23155	0.262772	0.0656004	5.28611	0.695199	1	9	0.00504478	0.00413995	0	9.9608e-06	3.79189e-05	3.92068e-05	90.8132	0.00947034	-0.000134416	-0.00946939	-20.8491	1.21503	1.13547	0.432439	0.764778	0.297605	0.820642	21.263	695.199	1786.5	1917	-68.737	0.0000000E+000	0.0000000E+000	0.0000000E+000	68.737	0.0000000E+000	0.0000000E+000	0.0000000E+000	-68.737	0.0000000E+000	0.0000000E+000	0.0000000E+000	-21.263	0.0000000E+000	0.0000000E+000	0.0000000E+000	21.263	2.56977	68.737	1.79219e-06	1.72379e-05	2.48749e-09	1.72354e-05	0.262734	4005.64	0.578029	4005.07
46420.4	1.24797	0.476208	1.33574	-20.8862	2.73856	0.262767	0.0627318	7.19971	0.915095	1	9	0.00505048	0.00378104	0	2.14772e-05	9.51508e-05	1.85438e-05	40.9633	0.00490442	0.00370347	-0.00321521	-20.701	1.33806	1.25167	0.472993	0.699456	0.266904	0.74865	20.8862	915.095	2398.13	2566.79	-69.1138	0.0000000E+000	0.0000000E+000	0.0000000E+000	69.1138	0.0000000E+000	0.0000000E+000	0.0000000E+000	-69.1138	0.0000000E+000	0.0000000E+000	0.0000000E+000	-20.8862	0.0000000E+000	0.0000000E+000	0.0000000E+000	20.8862	2.62063	69.1138	1.15164e-05	1.64838e-05	5.96898e-09	1.64778e-05	0.262672	4188.73	1.51679	4187.22
31621.1	1.36509	0.521573	1.46134	-20.9108	3.24453	0.262764	0.0713375	9.65001	1.22929	1	9	0.00509194	0.00348443	0	3.08027e-05	0.00017146	1.46099e-05	33.3667	0.00419292	0.00350179	-0.00230609	-20.7775	1.46379	1.3686	0.519267	0.639232	0.244237	0.684302	20.9108	1229.29	3217.37	3444.22	-69.0892	0.0000000E+000	0.0000000E+000	0.0000000E+000	69.0892	0.0000000E+000	0.0000000E+000	0.0000000E+000	-69.0892	0.0000000E+000	0.0000000E+000	0.0000000E+000	-20.9108	0.0000000E+000	0.0000000E+000	0.0000000E+000	20.9108	2.61727	69.0892	9.3255e-06	1.87449e-05	1.22315e-08	1.87327e-05	0.262592	3683.39	2.40351	3680.98
21544.7	1.48944	0.568347	1.5942	-20.886	3.62754	0.262778	0.0735728	12.9977	1.652	1	9	0.00524564	0.00329046	0	3.98646e-05	-0.000267318	4.43062e-06	-108.91	0.0013465	-0.000436375	0.00127383	-20.9344	1.59424	1.48901	0.569621	0.586058	0.22363	0.627276	20.886	1652	4329.33	4633.81	-69.114	0.0000000E+000	0.0000000E+000	0.0000000E+000	69.114	0.0000000E+000	0.0000000E+000	0.0000000E+000	-69.114	0.0000000E+000	0.0000000E+000	0.0000000E+000	-20.886	0.0000000E+000	0.0000000E+000	0.0000000E+000	20.886	2.62066	69.114	9.0619e-06	1.93333e-05	-1.96673e-08	1.9353e-05	0.263045	3571.67	3.63338	3575.31
14678.6	1.61851	0.624944	1.73498	-21.1127	4.01255	0.262765	0.0612416	17.3498	2.25107	1	9	0.00483381	0.0027861	0	5.06135e-05	0.000285924	9.25109e-06	-135.705	0.00332045	-0.00237662	0.00231885	-21.2125	1.7336	1.61614	0.627262	0.537687	0.207613	0.576377	21.1127	2251.07	5829.96	6249.46	-68.8873	0.0000000E+000	0.0000000E+000	0.0000000E+000	68.8873	0.0000000E+000	0.0000000E+000	0.0000000E+000	-68.8873	0.0000000E+000	0.0000000E+000	0.0000000E+000	-21.1127	0.0000000E+000	0.0000000E+000	0.0000000E+000	21.1127	2.58986	68.8873	1.07489e-05	1.60921e-05	1.75104e-08	1.60746e-05	0.262479	4290.62	4.66879	4285.96
10002.2	1.75258	0.693787	1.88491	-21.5969	4.39554	0.262778	0.0694003	22.9349	3.10719	1	9	0.00506981	0.00268968	0	5.88978e-05	5.69962e-05	1.00184e-05	-72.3363	0.00372476	0.0011302	0.00354915	-21.6844	1.88727	1.75371	0.697336	0.493284	0.195274	0.530529	21.5969	3107.19	7849.12	8441.76	-68.4031	0.0000000E+000	0.0000000E+000	0.0000000E+000	68.4031	0.0000000E+000	0.0000000E+000	0.0000000E+000	-68.4031	0.0000000E+000	0.0000000E+000	0.0000000E+000	-21.5969	0.0000000E+000	0.0000000E+000	0.0000000E+000	21.5969	2.52611	68.4031	8.28429e-06	1.82369e-05	3.95555e-09	1.82329e-05	0.262721	3786.42	0.821268	3785.6
6810.42	1.94254	0.766913	2.08845	-21.5441	4.65455	0.262758	0.0675375	30.4719	4.10909	1	9	0.00483584	0.00231552	0	6.48969e-05	0.000247769	0.000147181	52.9917	0.0635627	0.0382603	-0.0507579	-19.8774	2.10629	1.9808	0.716156	0.445372	0.175833	0.478825	21.5441	4109.09	10408	11189.8	-68.4559	0.0000000E+000	0.0000000E+000	0.0000000E+000	68.4559	0.0000000E+000	0.0000000E+000	0.0000000E+000	-68.4559	0.0000000E+000	0.0000000E+000	0.0000000E+000	-21.5441	0.0000000E+000	0.0000000E+000	0.0000000E+000	21.5441	2.53293	68.4559	5.99911e-06	1.7746e-05	1.67337e-08	1.77293e-05	0.26251	3890.54	3.66862	3886.88
4646	2.07154	0.881298	2.25122	-23.0464	4.91962	0.262724	0.0302087	38.8703	5.95701	1	9	0.00462576	0.00205478	0	6.6035e-05	0.000228692	1.49901e-05	-26.7437	0.00729523	0.00651485	0.00328286	-23.0583	2.2585	2.07806	0.884581	0.408751	0.173895	0.444204	23.0464	5957.01	14002.3	15216.8	-66.9536	0.0000000E+000	0.0000000E+000	0.0000000E+000	66.9536	0.0000000E+000	0.0000000E+000	0.0000000E+000	-66.9536	0.0000000E+000	0.0000000E+000	0.0000000E+000	-23.0464	0.0000000E+000	0.0000000E+000	0.0000000E+000	23.0464	2.35056	66.9536	1.13807e-06	7.93655e-06	6.90848e-09	7.92964e-06	0.262495	8696.97	7.5704	8689.4
3163.08	2.24987	1.02283	2.47146	-24.4475	5.29367	0.262527	-0.0264179	49.1931	8.42578	1	9	0.00454449	0.00183879	0	6.532e-05	1.88416e-05	6.20963e-06	55.5973	0.00337702	0.00190804	-0.00278633	-24.3704	2.47204	2.25177	1.02005	0.368342	0.167456	0.40462	24.4475	8425.78	18533.7	20359	-65.5525	0.0000000E+000	0.0000000E+000	0.0000000E+000	65.5525	0.0000000E+000	0.0000000E+000	0.0000000E+000	-65.5525	0.0000000E+000	0.0000000E+000	0.0000000E+000	-24.4475	0.0000000E+000	0.0000000E+000	0.0000000E+000	24.4475	2.19964	65.5525	-7.14967e-07	-6.93542e-06	-4.97756e-10	-6.93492e-06	0.262508	9937.46	0.713213	9936.74
2155.69	2.44536	1.20569	2.72644	-26.2456	5.95883	0.262666	0.0908215	61.2349	11.975	1	9	0.00486373	0.00178391	0	7.95717e-05	5.69962e-05	8.83691e-06	84.4727	0.00495367	0.000477138	-0.00493064	-26.1482	2.72469	2.44584	1.20076	0.328966	0.162197	0.366779	26.2456	11975	24287.6	27079.3	-63.7544	0.0000000E+000	0.0000000E+000	0.0000000E+000	63.7544	0.0000000E+000	0.0000000E+000	0.0000000E+000	-63.7544	0.0000000E+000	0.0000000E+000	0.0000000E+000	-26.2456	0.0000000E+000	0.0000000E+000	0.0000000E+000	26.2456	2.02819	63.7544	1.42517e-05	2.38557e-05	5.17648e-09	2.38505e-05	0.262609	2892.11	0.627563	2891.49
1468.59	2.64653	1.44951	3.01748	-28.7095	6.4101	0.262669	0.097043	74.7652	17.2524	1	9	0.00483989	0.00160395	0	9.15078e-05	0.000533929	2.72959e-05	-10.5172	0.0170179	0.016732	0.00310629	-28.6092	3.03365	2.66326	1.45261	0.290662	0.159195	0.331402	28.7095	17252.4	31499.8	35914.9	-61.2905	0.0000000E+000	0.0000000E+000	0.0000000E+000	61.2905	0.0000000E+000	0.0000000E+000	0.0000000E+000	-61.2905	0.0000000E+000	0.0000000E+000	0.0000000E+000	-28.7095	0.0000000E+000	0.0000000E+000	0.0000000E+000	28.7095	1.82582	61.2905	1.19361e-05	2.54901e-05	5.1814e-08	2.54383e-05	0.262135	2706.72	5.50199	2701.22
1000.32	2.94676	1.76024	3.43247	-30.8519	7.10584	0.262681	-0.0228764	90.3876	23.7706	1	10	0.00495286	0.00144294	0	9.31054e-05	-0.000210086	4.55952e-06	88.5093	0.00315987	8.22035e-05	-0.0031588	-30.8059	3.43092	2.94684	1.75708	0.25011	0.149403	0.291336	30.8519	23770.6	39793.5	46352.7	-59.1481	0.0000000E+000	0.0000000E+000	0.0000000E+000	59.1481	0.0000000E+000	0.0000000E+000	0.0000000E+000	-59.1481	0.0000000E+000	0.0000000E+000	0.0000000E+000	-30.8519	0.0000000E+000	0.0000000E+000	0.0000000E+000	30.8519	1.67406	59.1481	1.59763e-06	-6.0092e-06	4.80601e-09	-6.01401e-06	0.262892	11482.6	9.18354	11491.8
681.09	3.27355	2.19146	3.93937	-33.8001	7.55655	0.262677	-0.0207669	106.631	32.9986	1	10	0.00489548	0.0012427	0	9.02151e-05	0.000209615	3.31759e-06	-91.8229	0.00266965	-8.49206e-05	0.0026683	-33.8331	3.94079	3.27347	2.19413	0.210943	0.141215	0.253848	33.8001	32998.6	49292.5	59318.3	-56.1999	0.0000000E+000	0.0000000E+000	0.0000000E+000	56.1999	0.0000000E+000	0.0000000E+000	0.0000000E+000	-56.1999	0.0000000E+000	0.0000000E+000	0.0000000E+000	-33.8001	0.0000000E+000	0.0000000E+000	0.0000000E+000	33.8001	1.49377	56.1999	-2.8903e-06	-5.455e-06	-4.35306e-09	-5.45065e-06	0.262467	12648.8	10.0937	12638.7
463.961	3.72236	2.75802	4.63278	-36.536	8.00828	0.262677	-0.0220714	124.377	44.0812	1	10	0.00486171	0.00104941	0	8.77196e-05	-7.65449e-05	7.33223e-06	-2.3531	0.00698697	0.00698108	0.00028687	-36.4875	4.63856	3.72934	2.75831	0.173434	0.128503	0.215853	36.536	44081.2	59494.1	74045.2	-53.464	0.0000000E+000	0.0000000E+000	0.0000000E+000	53.464	0.0000000E+000	0.0000000E+000	0.0000000E+000	-53.464	0.0000000E+000	0.0000000E+000	0.0000000E+000	-36.536	0.0000000E+000	0.0000000E+000	0.0000000E+000	36.536	1.34965	53.464	-2.4955e-06	-5.79765e-06	1.68945e-09	-5.79934e-06	0.262754	11901.3	3.46806	11904.7
316.316	4.35226	3.46037	5.56025	-38.4873	8.45606	0.262675	-0.0218291	145.404	56.3163	1	10	0.00484651	0.000871636	0	8.49611e-05	1.88416e-05	6.26021e-06	-55.6811	0.00718214	0.00404928	0.00593182	-38.5092	5.56711	4.35631	3.4663	0.140775	0.111927	0.179848	38.4873	56316.3	70831.4	90491	-51.5127	0.0000000E+000	0.0000000E+000	0.0000000E+000	51.5127	0.0000000E+000	0.0000000E+000	0.0000000E+000	-51.5127	0.0000000E+000	0.0000000E+000	0.0000000E+000	-38.4873	0.0000000E+000	0.0000000E+000	0.0000000E+000	38.4873	1.25774	51.5127	-2.75851e-06	-5.73397e-06	-4.11296e-10	-5.73356e-06	0.262656	12033.3	0.863141	12032.4
215.345	5.25122	4.25646	6.75964	-39.027	8.90655	0.262681	-0.0206514	173.635	68.8474	1	10	0.00482333	0.000713549	0	8.17034e-05	0.000285924	6.89571e-06	-64.0337	0.00966397	0.0042313	0.00868841	-39.0616	6.7684	5.25545	4.26515	0.114925	0.0931539	0.147937	39.027	68847.4	84937.4	109336	-50.973	0.0000000E+000	0.0000000E+000	0.0000000E+000	50.973	0.0000000E+000	0.0000000E+000	0.0000000E+000	-50.973	0.0000000E+000	0.0000000E+000	0.0000000E+000	-39.027	0.0000000E+000	0.0000000E+000	0.0000000E+000	39.027	1.23371	50.973	-3.25765e-06	-5.42474e-06	-5.90473e-09	-5.41884e-06	0.262395	12719.8	13.8452	12705.9
146.737	6.4862	5.08043	8.23903	-38.0705	9.35255	0.262684	-0.0219521	213.491	81.1761	1	10	0.00481474	0.000584382	0	7.87886e-05	0.000305001	7.38026e-06	-71.5693	0.0126292	0.00399281	0.0119814	-38.1189	8.24956	6.49019	5.09241	0.0955517	0.0748426	0.121374	38.0705	81176.1	103638	131645	-51.9295	0.0000000E+000	0.0000000E+000	0.0000000E+000	51.9295	0.0000000E+000	0.0000000E+000	0.0000000E+000	-51.9295	0.0000000E+000	0.0000000E+000	0.0000000E+000	-38.0705	0.0000000E+000	0.0000000E+000	0.0000000E+000	38.0705	1.2767	51.9295	-2.9148e-06	-5.76646e-06	-6.69542e-09	-5.75977e-06	0.262379	11966.2	13.8939	11952.3
100.032	8.08106	5.77309	9.93137	-35.5419	9.80377	0.262687	-0.0214453	275.596	93.126	1	10	0.00481559	0.000484886	0	7.66783e-05	-0.000210086	1.1591e-05	-77.3261	0.0239046	0.00524471	0.0233221	-35.6337	9.94921	8.08631	5.79641	0.0819313	0.0585315	0.100691	35.5419	93126	130356	160203	-54.4581	0.0000000E+000	0.0000000E+000	0.0000000E+000	54.4581	0.0000000E+000	0.0000000E+000	0.0000000E+000	-54.4581	0.0000000E+000	0.0000000E+000	0.0000000E+000	-35.5419	0.0000000E+000	0.0000000E+000	0.0000000E+000	35.5419	1.39978	54.4581	-2.11037e-06	-5.63339e-06	4.50535e-09	-5.6379e-06	0.262897	12249.2	9.79639	12259
68.104	9.91065	6.13881	11.6579	-31.7747	10.2664	0.262681	-0.0181581	380.683	105.558	1	10	0.00480843	0.000412462	0	7.46565e-05	0.000133305	7.60585e-06	-88.8608	0.0184401	0.000366614	0.0184365	-31.8507	11.6679	9.91102	6.15724	0.0729229	0.0451695	0.085779	31.7747	105558	170416	200460	-58.2253	0.0000000E+000	0.0000000E+000	0.0000000E+000	58.2253	0.0000000E+000	0.0000000E+000	0.0000000E+000	-58.2253	0.0000000E+000	0.0000000E+000	0.0000000E+000	-31.7747	0.0000000E+000	0.0000000E+000	0.0000000E+000	31.7747	1.61443	58.2253	-2.02176e-06	-4.76979e-06	-2.42057e-09	-4.76737e-06	0.262548	14466.3	7.34138	14459
46.4415	11.7913	6.08462	13.2686	-27.295	10.7026	0.262676	-0.0238231	563.222	118.439	1	10	0.00480431	0.00036208	0	7.20751e-05	0.000152383	4.94191e-06	-50.3807	0.0136487	0.00870352	0.0105135	-27.3181	13.2812	11.8	6.09513	0.0669743	0.0345605	0.0753657	27.295	118439	229520	258278	-62.705	0.0000000E+000	0.0000000E+000	0.0000000E+000	62.705	0.0000000E+000	0.0000000E+000	0.0000000E+000	-62.705	0.0000000E+000	0.0000000E+000	0.0000000E+000	-27.295	0.0000000E+000	0.0000000E+000	0.0000000E+000	27.295	1.93788	62.705	-2.58146e-06	-6.25775e-06	-3.63022e-09	-6.25412e-06	0.262524	11026.1	6.39644	11019.7
31.6296	13.594	5.78099	14.7722	-23.0381	11.1326	0.262687	-0.0224292	870.412	133.303	1	10	0.00480835	0.000325501	0	6.88679e-05	0.000133305	7.6373e-06	-30.0519	0.0234632	0.0203091	0.01175	-23.0492	14.7954	13.6143	5.79274	0.0622959	0.026492	0.0676949	23.0381	133303	313463	340630	-66.9619	0.0000000E+000	0.0000000E+000	0.0000000E+000	66.9619	0.0000000E+000	0.0000000E+000	0.0000000E+000	-66.9619	0.0000000E+000	0.0000000E+000	0.0000000E+000	-23.0381	0.0000000E+000	0.0000000E+000	0.0000000E+000	23.0381	2.3515	66.9619	-3.20717e-06	-5.89185e-06	-2.98993e-09	-5.88886e-06	0.262553	11711.8	5.94339	11705.9
21.5517	15.2407	5.30351	16.1371	-19.187	11.7855	0.262711	-0.00704866	1392.43	150.4	1	11	0.00482243	0.00029884	0	6.61026e-05	-0.0001147	1.20675e-05	42.1646	0.0403812	0.0299313	-0.0271064	-19.0613	16.1565	15.2707	5.2764	0.0585265	0.0203662	0.0619689	19.187	150400	432206	457627	-70.813	0.0000000E+000	0.0000000E+000	0.0000000E+000	70.813	0.0000000E+000	0.0000000E+000	0.0000000E+000	-70.813	0.0000000E+000	0.0000000E+000	0.0000000E+000	-19.187	0.0000000E+000	0.0000000E+000	0.0000000E+000	19.187	2.87371	70.813	-2.76529e-06	-1.85176e-06	8.08478e-10	-1.85257e-06	0.262826	37271	16.2725	37287.3
14.6852	16.4684	4.75248	17.1405	-16.0971	12.2452	0.26271	-0.00654482	2280.45	175.314	1	11	0.00480822	0.000280519	0	6.55774e-05	0.000305001	1.25142e-05	-5.47884	0.044611	0.0444072	0.00425938	-16.0697	17.1843	16.5128	4.75674	0.0560541	0.0161761	0.0583415	16.0971	175314	607504	632294	-73.9029	0.0000000E+000	0.0000000E+000	0.0000000E+000	73.9029	0.0000000E+000	0.0000000E+000	0.0000000E+000	-73.9029	0.0000000E+000	0.0000000E+000	0.0000000E+000	-16.0971	0.0000000E+000	0.0000000E+000	0.0000000E+000	16.0971	3.46523	73.9029	-5.25153e-07	-1.71939e-06	-1.99618e-09	-1.7174e-06	0.262405	40140.2	46.6019	40093.6
10.0032	17.5345	4.21726	18.0345	-13.5235	12.6958	0.262726	-0.00683193	3772.69	206.301	1	11	0.00480214	0.000266275	0	6.62727e-05	0.000114228	1.15129e-06	-7.25391	0.00432371	0.00428911	0.00054594	-13.522	18.0388	17.5388	4.2178	0.0539118	0.0129664	0.0554492	13.5235	206301	857759	882219	-76.4765	0.0000000E+000	0.0000000E+000	0.0000000E+000	76.4765	0.0000000E+000	0.0000000E+000	0.0000000E+000	-76.4765	0.0000000E+000	0.0000000E+000	0.0000000E+000	-13.5235	0.0000000E+000	0.0000000E+000	0.0000000E+000	13.5235	4.1578	76.4765	6.95236e-07	-1.79493e-06	-7.80399e-10	-1.79415e-06	0.262612	38455.7	16.7197	38438.9
6.81719	18.4938	3.67665	18.8557	-11.2441	13.0355	0.262735	-0.00491225	6349.84	241.425	1	11	0.00480591	0.000254879	0	6.52009e-05	0.000190537	6.8113e-06	6.81215	0.0267237	0.0265351	-0.00316982	-11.2189	18.8811	18.5203	3.67348	0.0520164	0.0103411	0.0530344	11.2441	241425	1.21438e+06	1.23815e+06	-78.7559	0.0000000E+000	0.0000000E+000	0.0000000E+000	78.7559	0.0000000E+000	0.0000000E+000	0.0000000E+000	-78.7559	0.0000000E+000	0.0000000E+000	0.0000000E+000	-11.2441	0.0000000E+000	0.0000000E+000	0.0000000E+000	11.2441	5.03006	78.7559	-1.07173e-06	-1.29062e-06	-9.35968e-10	-1.28969e-06	0.262545	53485.7	38.7882	53446.9
4.63925	19.2213	3.17821	19.4823	-9.38882	13.5204	0.262731	-0.00601044	10794.2	287.26	1	11	0.00480183	0.000246472	0	6.20538e-05	5.69962e-05	9.26661e-06	4.68493	0.0375971	0.0374714	-0.00307079	-9.36198	19.5187	19.2587	3.17514	0.0506411	0.00837343	0.0513287	9.38882	287260	1.7373e+06	1.76089e+06	-80.6112	0.0000000E+000	0.0000000E+000	0.0000000E+000	80.6112	0.0000000E+000	0.0000000E+000	0.0000000E+000	-80.6112	0.0000000E+000	0.0000000E+000	0.0000000E+000	-9.38882	0.0000000E+000	0.0000000E+000	0.0000000E+000	9.38882	6.04783	80.6112	-3.14714e-06	-1.57913e-06	-3.42572e-10	-1.57878e-06	0.262674	43712.4	9.48288	43702.9
3.1604	19.8964	2.83656	20.0975	-8.1138	14.2135	0.262725	-0.00540009	17753.6	353.659	1	11	0.00480694	0.00023918	0	6.24119e-05	-5.74676e-05	9.92108e-06	75.1341	0.0414795	0.0106419	-0.0400911	-7.99639	20.1025	19.907	2.79647	0.0492592	0.00702273	0.0497573	8.1138	353659	2.48065e+06	2.50574e+06	-81.8862	0.0000000E+000	0.0000000E+000	0.0000000E+000	81.8862	0.0000000E+000	0.0000000E+000	0.0000000E+000	-81.8862	0.0000000E+000	0.0000000E+000	0.0000000E+000	-8.1138	0.0000000E+000	0.0000000E+000	0.0000000E+000	8.1138	7.01426	81.8862	3.5805e-07	-1.41874e-06	3.1033e-10	-1.41905e-06	0.262783	48652.1	10.642	48662.7
2.15577	20.4276	2.46705	20.576	-6.88628	15.2171	0.262735	-0.00451445	29925.4	430.202	1	11	0.00480449	0.000233499	0	6.53619e-05	0.000133305	1.81638e-06	22.988	0.00777893	0.00716118	-0.00303797	-6.87549	20.5828	20.4348	2.46401	0.0482496	0.00582712	0.0486002	6.88628	430202	3.56215e+06	3.58803e+06	-83.1137	0.0000000E+000	0.0000000E+000	0.0000000E+000	83.1137	0.0000000E+000	0.0000000E+000	0.0000000E+000	-83.1137	0.0000000E+000	0.0000000E+000	0.0000000E+000	-6.88628	0.0000000E+000	0.0000000E+000	0.0000000E+000	6.88628	8.28018	83.1137	2.95e-06	-1.1861e-06	-6.018e-10	-1.1855e-06	0.262602	58198.7	29.5286	58169.2
1.46631	20.923	2.19384	21.0377	-5.98578	16.6775	0.26273	-0.00405835	49475.3	538.026	1	11	0.00480347	0.000228327	0	6.67097e-05	-3.83903e-05	3.54069e-06	91.7316	0.0155071	-0.00046858	-0.0155	-5.94392	21.0356	20.9225	2.17834	0.0472746	0.00495689	0.0475337	5.98578	538027	5.13123e+06	5.15936e+06	-84.0142	0.0000000E+000	0.0000000E+000	0.0000000E+000	84.0142	0.0000000E+000	0.0000000E+000	0.0000000E+000	-84.0142	0.0000000E+000	0.0000000E+000	0.0000000E+000	-5.98578	0.0000000E+000	0.0000000E+000	0.0000000E+000	5.98578	9.53714	84.0142	1.34785e-06	-1.06625e-06	1.55801e-10	-1.06641e-06	0.262768	64738	9.45958	64747.4
1.00006	21.3303	2.00199	21.424	-5.36189	19.8519	0.262734	-0.00360553	79493.3	694.149	1	12	0.00481002	0.000224515	0	6.07107e-05	-5.74676e-05	5.66701e-06	-31.0279	0.0252411	0.0216295	0.0130106	-5.39109	21.4468	21.3519	2.015	0.0464724	0.00436174	0.0466766	5.36189	694148	7.39583e+06	7.42834e+06	-84.6381	0.0000000E+000	0.0000000E+000	0.0000000E+000	84.6381	0.0000000E+000	0.0000000E+000	0.0000000E+000	-84.6381	0.0000000E+000	0.0000000E+000	0.0000000E+000	-5.36189	0.0000000E+000	0.0000000E+000	0.0000000E+000	5.36189	10.6545	84.6381	-5.99904e-06	-9.47294e-07	2.07201e-10	-9.47501e-07	0.262791	72869.7	15.9388	72885.7
0.681362	21.6789	1.90804	21.7627	-5.02986	22.9641	0.262738	-0.00274532	122420	941.031	1	12	0.0048081	0.000220933	0	4.87247e-05	0.000343156	2.02682e-06	20.6653	0.0091739	0.00858364	-0.00323754	-5.01939	21.771	21.6875	1.90481	0.0457732	0.00402867	0.0459501	5.02986	941031	1.06919e+07	1.07332e+07	-84.9701	0.0000000E+000	0.0000000E+000	0.0000000E+000	84.9701	0.0000000E+000	0.0000000E+000	0.0000000E+000	-84.9701	0.0000000E+000	0.0000000E+000	0.0000000E+000	-5.02986	0.0000000E+000	0.0000000E+000	0.0000000E+000	5.02986	11.3619	84.9701	-1.1986e-05	-7.21301e-07	-9.42073e-10	-7.20358e-07	0.262395	95704	124.997	95579
0.464091	22.0212	1.8838	22.1016	-4.88944	27.5206	0.262732	-0.00306702	182047	1322.52	1	12	0.00481359	0.000217794	0	3.25487e-05	0.000324079	1.07845e-05	0.233912	0.0495168	0.0495164	-0.000202154	-4.87801	22.1509	22.0707	1.88359	0.0450809	0.00385643	0.0452456	4.88944	1.32252e+06	1.546e+07	1.55165e+07	-85.1106	0.0000000E+000	0.0000000E+000	0.0000000E+000	85.1106	0.0000000E+000	0.0000000E+000	0.0000000E+000	-85.1106	0.0000000E+000	0.0000000E+000	0.0000000E+000	-4.88944	0.0000000E+000	0.0000000E+000	0.0000000E+000	4.88944	11.6898	85.1106	-1.61759e-05	-8.05802e-07	-9.93954e-10	-8.04808e-07	0.262407	85663.5	105.666	85557.9
0.316193	22.3304	2.03526	22.4229	-5.20772	34.1941	0.262732	-0.00376898	247314	2037.52	1	12	0.00480838	0.00021444	0	1.88336e-05	0.000133305	1.85125e-06	-27.7424	0.00863294	0.00764058	0.00401861	-5.21617	22.4309	22.338	2.03927	0.0444131	0.00404794	0.0445972	5.20772	2.03752e+06	2.23552e+07	2.24479e+07	-84.7923	0.0000000E+000	0.0000000E+000	0.0000000E+000	84.7923	0.0000000E+000	0.0000000E+000	0.0000000E+000	-84.7923	0.0000000E+000	0.0000000E+000	0.0000000E+000	-5.20772	0.0000000E+000	0.0000000E+000	0.0000000E+000	5.20772	10.9718	84.7923	-1.37152e-05	-9.90233e-07	-5.02425e-10	-9.8973e-07	0.262599	69709.2	35.3691	69673.8
0.215268	22.6409	2.35389	22.7629	-5.93551	43.9876	0.262727	-0.00427933	314091	3358.7	1	12	0.00480592	0.00021113	0	1.67885e-05	0.000419465	2.27409e-06	-6.19412	0.010771	0.0107082	0.00116217	-5.93563	22.7737	22.6516	2.35505	0.0436956	0.00454288	0.0439312	5.93551	3.3587e+06	3.23057e+07	3.24798e+07	-84.0645	0.0000000E+000	0.0000000E+000	0.0000000E+000	84.0645	0.0000000E+000	0.0000000E+000	0.0000000E+000	-84.0645	0.0000000E+000	0.0000000E+000	0.0000000E+000	-5.93551	0.0000000E+000	0.0000000E+000	0.0000000E+000	5.93551	9.6185	84.0645	-2.04504e-06	-1.12429e-06	-1.79503e-09	-1.1225e-06	0.262307	61394.4	98.0213	61296.4
0.146929	22.9707	2.82899	23.1442	-7.021	58.3249	0.262728	-0.00360399	382897	5720.84	1	12	0.00480815	0.000207747	0	3.60185e-05	0.00017146	2.2777e-06	-25.1341	0.0109638	0.00992568	0.00465675	-7.02944	23.1546	22.9806	2.83365	0.0428833	0.00528137	0.0432073	7.021	5.72084e+06	4.64517e+07	4.68027e+07	-82.979	0.0000000E+000	0.0000000E+000	0.0000000E+000	82.979	0.0000000E+000	0.0000000E+000	0.0000000E+000	-82.979	0.0000000E+000	0.0000000E+000	0.0000000E+000	-7.021	0.0000000E+000	0.0000000E+000	0.0000000E+000	7.021	8.11974	82.979	1.923e-05	-9.4687e-07	-6.1794e-10	-9.46252e-07	0.262557	72899.4	47.5751	72851.8
0.0999041	23.4061	3.468	23.6616	-8.42801	79.402	0.262724	-0.00235751	459365	9867.97	1	12	0.00480399	0.000203029	0	7.73305e-05	-1.9313e-05	2.92969e-06	-10.2324	0.0144299	0.0142004	0.00256334	-8.4291	23.676	23.4203	3.47056	0.0418062	0.00619428	0.0422626	8.42801	9.86797e+06	6.66005e+07	6.73276e+07	-81.572	0.0000000E+000	0.0000000E+000	0.0000000E+000	81.572	0.0000000E+000	0.0000000E+000	0.0000000E+000	-81.572	0.0000000E+000	0.0000000E+000	0.0000000E+000	-8.42801	0.0000000E+000	0.0000000E+000	0.0000000E+000	8.42801	6.74916	81.572	4.1312e-05	-6.19375e-07	4.55307e-11	-6.1942e-07	0.262743	111441	8.19211	111449
0.0680626	24.0372	4.40613	24.4377	-10.3873	110.329	0.262725	-0.000761097	530706	17252.3	1	12	0.00480382	0.000196574	0	0.000127147	0.000266847	1.92145e-06	27.6367	0.00977467	0.00865945	-0.00453411	-10.3732	24.4454	24.0459	4.4016	0.0402497	0.00737796	0.0409204	10.3873	1.72523e+07	9.41184e+07	9.56866e+07	-79.6127	0.0000000E+000	0.0000000E+000	0.0000000E+000	79.6127	0.0000000E+000	0.0000000E+000	0.0000000E+000	-79.6127	0.0000000E+000	0.0000000E+000	0.0000000E+000	-10.3873	0.0000000E+000	0.0000000E+000	0.0000000E+000	10.3873	5.4554	79.6127	4.98163e-05	-1.9996e-07	-2.03096e-10	-1.99756e-07	0.262458	345193	350.608	344842
0.0464052	24.8504	5.78404	25.5147	-13.1026	155.681	0.262728	0.000755275	592956	30472.3	1	12	0.00480761	0.000188425	0	0.000150762	-1.9313e-05	2.244e-06	-5.08061	0.0119092	0.0118624	0.00105465	-13.0988	25.5265	24.8623	5.78509	0.0381728	0.00888488	0.0391932	13.1026	3.04723e+07	1.3092e+08	1.3442e+08	-76.8975	0.0000000E+000	0.0000000E+000	0.0000000E+000	76.8975	0.0000000E+000	0.0000000E+000	0.0000000E+000	-76.8975	0.0000000E+000	0.0000000E+000	0.0000000E+000	-13.1026	0.0000000E+000	0.0000000E+000	0.0000000E+000	13.1026	4.29638	76.8975	2.36154e-05	1.98432e-07	-1.45866e-11	1.98446e-07	0.262747	347857	25.5708	347882
0.0315922	25.6539	7.61447	26.7601	-16.5317	222.285	0.262727	0.00105033	661607	53567.9	1	12	0.00480649	0.000179614	0	8.17245e-05	3.79189e-05	3.51608e-06	18.8294	0.0195758	0.0185282	-0.00631812	-16.5075	26.7761	25.6724	7.60816	0.0358243	0.0106332	0.0373691	16.5317	5.35679e+07	1.80475e+08	1.88258e+08	-73.4683	0.0000000E+000	0.0000000E+000	0.0000000E+000	73.4683	0.0000000E+000	0.0000000E+000	0.0000000E+000	-73.4683	0.0000000E+000	0.0000000E+000	0.0000000E+000	-16.5317	0.0000000E+000	0.0000000E+000	0.0000000E+000	16.5317	3.3691	73.4683	-6.90378e-05	2.75949e-07	3.98272e-11	2.75909e-07	0.262689	250139	36.1021	250103
0.0215268	26.6944	9.80779	28.4391	-20.1738	320.024	0.262733	0.000461469	753824	89656.1	1	12	0.00480646	0.000169009	0	-0.000122533	0.000209615	2.37383e-06	6.67919	0.0140456	0.0139503	-0.00163365	-20.1611	28.4517	26.7084	9.80616	0.0330056	0.0121266	0.0351628	20.1738	8.96561e+07	2.44022e+08	2.59971e+08	-69.8262	0.0000000E+000	0.0000000E+000	0.0000000E+000	69.8262	0.0000000E+000	0.0000000E+000	0.0000000E+000	-69.8262	0.0000000E+000	0.0000000E+000	0.0000000E+000	-20.1738	0.0000000E+000	0.0000000E+000	0.0000000E+000	20.1738	2.72175	69.8262	-0.000204257	1.21243e-07	9.67307e-11	1.21147e-07	0.262523	569340	454.233	568886
0.0146812	28.3127	12.759	31.0548	-24.2584	463.325	0.26273	-0.000280926	849658	143422	1	12	0.00480706	0.000154793	0	-0.000412308	0.000190537	2.54183e-06	3.3945	0.0164209	0.0163921	-0.00097229	-24.2444	31.0694	28.3291	12.758	0.0293578	0.0132299	0.0322011	24.2584	1.43422e+08	3.18261e+08	3.49084e+08	-65.7416	0.0000000E+000	0.0000000E+000	0.0000000E+000	65.7416	0.0000000E+000	0.0000000E+000	0.0000000E+000	-65.7416	0.0000000E+000	0.0000000E+000	0.0000000E+000	-24.2584	0.0000000E+000	0.0000000E+000	0.0000000E+000	24.2584	2.21905	65.7416	-0.000289775	-7.38078e-08	-5.3527e-11	-7.37542e-08	0.262539	935226	678.246	934548
0.0100092	30.2068	17.0375	34.6804	-29.4243	673.507	0.26273	-0.000494405	933288	225248	1	12	0.00480634	0.00013859	0	-0.000601659	7.60735e-05	1.93867e-06	35.2878	0.0139885	0.0114183	-0.00808094	-29.4034	34.6863	30.2182	17.0294	0.0251152	0.0141658	0.0288348	29.4243	2.25248e+08	3.99355e+08	4.58499e+08	-60.5757	0.0000000E+000	0.0000000E+000	0.0000000E+000	60.5757	0.0000000E+000	0.0000000E+000	0.0000000E+000	-60.5757	0.0000000E+000	0.0000000E+000	0.0000000E+000	-29.4243	0.0000000E+000	0.0000000E+000	0.0000000E+000	29.4243	1.77296	60.5757	-0.000189351	-1.29895e-07	-3.76111e-11	-1.29857e-07	0.262653	531406	153.869	531252