File: txt/19069_R307_UA701_4p38_SOC00_C07.mpt
EC-Lab ASCII FILE
Nb header lines : 65

Potentio Electrochemical Impedance Spectroscopy

Run on channel : 7 (SN 66126)
Grouped channel(s) : 6, 7, 8
User :
CE vs. WE compliance from -10 V to 10 V
Electrode connection : standard
Potential control : Ewe
Ewe ctrl range : min = -10.00 V, max = 10.00 V
Safety Limits :
	Do not start on E overload
Acquisition started on : 11/12/2025 10:26:23.601
Loaded Setting File :  C:\Users\Celltest\OneDrive - store-dot.com\Documents\EC-Lab\Data\@Biologic Test Protocols\anode half cell EIS SOC00.mps
Saved on :
	File : 19067_R307_UA701_4p38_SOC00_C07.mpr
	Directory : C:\Users\Celltest\OneDrive - store-dot.com\Documents\EC-Lab\Data\Anna\
	Host : 169.254.61.224
Device : VMP-3e (SN .003165)
Address : USB
EC-LAB for windows v11.62 (software)
Internet server v27.00 (firmware)
Command interpretor v12.03 (firmware)
Electrode material :
Initial state :
Electrolyte :
Comments :
Electrode surface area : 0.001 cm²
Characteristic mass : 0.001 g
Equivalent Weight : 0.000 g/eq.
Density : 0.000 g/cm3
Volume (V) : 0.001 cm³
Record Ece
Cycle Definition : Charge/Discharge alternance
Mode                Single sine
E (V)               0.0000
vs.                 Eoc
tE (h:m:s)          0:00:0.0000
record              0
dI                  0.000
unit dI             mA
dt (s)              0.000
fi                  100.000
unit fi             kHz
ff                  10.000
unit ff             mHz
Nd                  6
Points              per decade
spacing             Logarithmic
Va (mV)             5.0
pw                  0.10
Na                  2
corr                0
E range min (V)     -10.000
E range max (V)     10.000
I Range             Auto
Bandwidth           5
nc cycles           0
goto Ns'            0
nr cycles           0
inc. cycle          0

freq/Hz	Re(Z)/Ohm	-Im(Z)/Ohm	|Z|/Ohm	Phase(Z)/deg	time/s	<Ewe>/V	<I>/mA	Cs/µF	Cp/µF	cycle number	I Range	|Ewe|/V	|I|/A	Ns	(Q-Qo)/mA.h	<Ece>/V	|Ece|/V	Phase(Zce)/deg	|Zce|/Ohm	Re(Zce)/Ohm	-Im(Zce)/Ohm	Phase(Zwe-ce)/deg	|Zwe-ce|/Ohm	Re(Zwe-ce)/Ohm	-Im(Zwe-ce)/Ohm	Re(Y)/Ohm-1	Im(Y)/Ohm-1	|Y|/Ohm-1	Phase(Y)/deg	Re(C)/nF	Im(C)/nF	|C|/nF	Phase(C)/deg	Re(M)	Im(M)	|M|	Phase(M)/deg	Re(Permittivity)	Im(Permittivity)	|Permittivity|	Phase(Permittivity)/deg	Re(Resistivity)/Ohm.cm	Im(Resistivity)/Ohm.cm	|Resistivity|/Ohm.cm	Phase(Resistivity)/deg	Re(Conductivity)/mS/cm	Im(Conductivity)/mS/cm	|Conductivity|/mS/cm	Phase(Conductivity)/deg	Tan(Delta)	Loss Angle(Delta)/deg	dq/mA.h	Pwe/W	Pce/W	Pwe-ce/W	<Ewe-Ece>/V	Rwe/Ohm	Rce/Ohm	Rwe-ce/Ohm		Ewe-Ece/V
100004	0.984539	0.381929	1.05602	-21.2026	1.72556	0.261687	0.0575371	4.16699	0.545053	1	9	0.00488297	0.00462392	0	4.53512e-07	-0.000120486	4.90415e-05	92.8705	0.010606	-0.000531129	-0.0105927	-20.675	1.05174	0.984008	0.371336	0.882847	0.342479	0.946948	21.2026	545.053	1405.04	1507.06	-68.7974	0.0000000E+000	0.0000000E+000	0.0000000E+000	68.7974	0.0000000E+000	0.0000000E+000	0.0000000E+000	-68.7974	0.0000000E+000	0.0000000E+000	0.0000000E+000	-21.2026	0.0000000E+000	0.0000000E+000	0.0000000E+000	21.2026	2.57781	68.7974	4.53512e-07	1.50567e-05	-6.93243e-09	1.50637e-05	0.261808	4548.15	2.09406	4550.24
68132	1.09308	0.444039	1.17982	-22.1084	2.23251	0.261695	0.0534784	5.26075	0.745168	1	9	0.00502997	0.00426332	0	3.30239e-05	-0.000139562	3.44496e-05	82.2717	0.00808047	0.00108662	-0.00800707	-21.7276	1.17784	1.09416	0.436031	0.785264	0.318996	0.847583	22.1084	745.168	1834.36	1979.94	-67.8916	0.0000000E+000	0.0000000E+000	0.0000000E+000	67.8916	0.0000000E+000	0.0000000E+000	0.0000000E+000	-67.8916	0.0000000E+000	0.0000000E+000	0.0000000E+000	-22.1084	0.0000000E+000	0.0000000E+000	0.0000000E+000	22.1084	2.46167	67.8916	3.25704e-05	1.3995e-05	-7.46353e-09	1.40025e-05	0.261835	4893.47	2.60968	4896.08
46420.4	1.21334	0.490972	1.30891	-22.0304	2.73955	0.261687	0.0654684	6.98321	0.982531	1	9	0.00503435	0.0038462	0	2.86446e-05	-6.32599e-05	1.95578e-05	70.3897	0.00508496	0.00170662	-0.00479002	-21.808	1.30871	1.21505	0.486182	0.708209	0.286573	0.763992	22.0304	982.531	2428.14	2619.39	-67.9696	0.0000000E+000	0.0000000E+000	0.0000000E+000	67.9696	0.0000000E+000	0.0000000E+000	0.0000000E+000	-67.9696	0.0000000E+000	0.0000000E+000	0.0000000E+000	-22.0304	0.0000000E+000	0.0000000E+000	0.0000000E+000	22.0304	2.47131	67.9696	-4.37923e-06	1.71322e-05	-4.14152e-09	1.71364e-05	0.26175	3997.15	0.966267	3998.12
31621.1	1.33155	0.541471	1.43743	-22.129	3.24655	0.261704	0.0545209	9.29538	1.31899	1	9	0.0050755	0.00353095	0	5.37181e-05	-0.000368467	2.31757e-05	38.3036	0.00656359	0.00515069	-0.00406829	-21.902	1.44068	1.3367	0.537403	0.644439	0.26206	0.695684	22.129	1318.99	3243.58	3501.51	-67.871	0.0000000E+000	0.0000000E+000	0.0000000E+000	67.871	0.0000000E+000	0.0000000E+000	0.0000000E+000	-67.871	0.0000000E+000	0.0000000E+000	0.0000000E+000	-22.129	0.0000000E+000	0.0000000E+000	0.0000000E+000	22.129	2.45913	67.871	2.50735e-05	1.42684e-05	-2.00892e-08	1.42885e-05	0.262073	4800.07	6.75826	4806.83
21544.7	1.46294	0.596013	1.57969	-22.1664	3.62953	0.261715	0.051058	12.3944	1.76438	1	9	0.00546366	0.00345869	0	5.09823e-05	-0.000349391	1.16256e-05	5.68048	0.00336128	0.00334477	-0.000332701	-22.1096	1.58266	1.46628	0.595681	0.586249	0.238843	0.633036	22.1664	1764.38	4330.74	4676.36	-67.8336	0.0000000E+000	0.0000000E+000	0.0000000E+000	67.8336	0.0000000E+000	0.0000000E+000	0.0000000E+000	-67.8336	0.0000000E+000	0.0000000E+000	0.0000000E+000	-22.1664	0.0000000E+000	0.0000000E+000	0.0000000E+000	22.1664	2.45454	67.8336	-2.73585e-06	1.33626e-05	-1.78392e-08	1.33805e-05	0.262064	5125.84	6.84303	5132.68
14678.6	1.5953	0.650681	1.7229	-22.1892	4.01252	0.261704	0.0596968	16.6635	2.37676	1	9	0.00486434	0.00282335	0	5.37949e-05	3.21172e-05	9.60296e-06	23.1	0.00340126	0.00312855	-0.00133444	-22.109	1.72529	1.59843	0.649347	0.537433	0.219204	0.580417	22.1892	2376.76	5827.2	6293.27	-67.8108	0.0000000E+000	0.0000000E+000	0.0000000E+000	67.8108	0.0000000E+000	0.0000000E+000	0.0000000E+000	-67.8108	0.0000000E+000	0.0000000E+000	0.0000000E+000	-22.1892	0.0000000E+000	0.0000000E+000	0.0000000E+000	22.1892	2.45174	67.8108	2.81265e-06	1.56229e-05	1.91729e-09	1.5621e-05	0.261672	4383.89	0.538005	4383.36
10002.2	1.73822	0.719143	1.88111	-22.4761	4.39552	0.261696	0.0498292	22.1263	3.23379	1	9	0.00488998	0.00259952	0	6.31757e-05	-0.000444768	3.99683e-06	-124.722	0.00153753	-0.000875757	0.00126374	-22.5219	1.88078	1.73734	0.720407	0.491221	0.20323	0.531602	22.4761	3233.79	7816.28	8458.82	-67.5239	0.0000000E+000	0.0000000E+000	0.0000000E+000	67.5239	0.0000000E+000	0.0000000E+000	0.0000000E+000	-67.5239	0.0000000E+000	0.0000000E+000	0.0000000E+000	-22.4761	0.0000000E+000	0.0000000E+000	0.0000000E+000	22.4761	2.41707	67.5239	9.38075e-06	1.30401e-05	-2.21624e-08	1.30623e-05	0.262141	5251.87	8.92586	5260.8
6810.42	1.92114	0.804216	2.08268	-22.7149	4.65456	0.261707	0.0533294	29.0585	4.33286	1	9	0.00459824	0.00220785	0	6.61049e-05	-2.51091e-05	5.0626e-05	2.45195	0.02293	0.022909	-0.000980981	-22.4493	2.10345	1.94405	0.803235	0.44291	0.185408	0.480151	22.7149	4332.86	10350.5	11220.8	-67.2851	0.0000000E+000	0.0000000E+000	0.0000000E+000	67.2851	0.0000000E+000	0.0000000E+000	0.0000000E+000	-67.2851	0.0000000E+000	0.0000000E+000	0.0000000E+000	-22.7149	0.0000000E+000	0.0000000E+000	0.0000000E+000	22.7149	2.38884	67.2851	2.92927e-06	1.39566e-05	-1.33905e-09	1.3958e-05	0.261732	4907.36	0.47083	4907.84
4646	2.08343	0.911187	2.27397	-23.6221	5.0486	0.26168	0.0341528	37.5953	6.03638	1	9	0.00492172	0.00216437	0	7.21899e-05	-0.000292165	8.00344e-06	-29.3741	0.00369782	0.00322241	0.00181382	-23.6314	2.27765	2.08666	0.913001	0.402911	0.176212	0.439759	23.6221	6036.38	13802.2	15064.5	-66.3779	0.0000000E+000	0.0000000E+000	0.0000000E+000	66.3779	0.0000000E+000	0.0000000E+000	0.0000000E+000	-66.3779	0.0000000E+000	0.0000000E+000	0.0000000E+000	-23.6221	0.0000000E+000	0.0000000E+000	0.0000000E+000	23.6221	2.28651	66.3779	6.085e-06	8.93711e-06	-9.97825e-09	8.94709e-06	0.261972	7662.05	8.55465	7670.6
3163.08	2.28075	1.04769	2.50987	-24.6724	5.42267	0.261454	-0.0483251	48.0259	8.36836	1	9	0.00483661	0.00192703	0	6.83493e-05	7.0268e-05	1.01487e-05	-8.96252	0.00526649	0.00520219	0.000820458	-24.6399	2.51494	2.28595	1.04851	0.362054	0.166315	0.398426	24.6724	8368.36	18217.3	20047.4	-65.3276	0.0000000E+000	0.0000000E+000	0.0000000E+000	65.3276	0.0000000E+000	0.0000000E+000	0.0000000E+000	-65.3276	0.0000000E+000	0.0000000E+000	0.0000000E+000	-24.6724	0.0000000E+000	0.0000000E+000	0.0000000E+000	24.6724	2.17692	65.3276	-3.84061e-06	-1.26348e-05	-3.39571e-09	-1.26314e-05	0.261383	5410.3	1.45407	5408.85
2155.69	2.50146	1.20274	2.77559	-25.679	5.87383	0.261592	0.0727293	61.385	11.5265	1	9	0.00478402	0.00172361	0	7.57256e-05	-6.32599e-05	9.69706e-06	58.1074	0.00562602	0.00297239	-0.00477671	-25.5635	2.7762	2.50443	1.19796	0.324701	0.156121	0.360284	25.679	11526.5	23972.8	26599.9	-64.321	0.0000000E+000	0.0000000E+000	0.0000000E+000	64.321	0.0000000E+000	0.0000000E+000	0.0000000E+000	-64.321	0.0000000E+000	0.0000000E+000	0.0000000E+000	-25.679	0.0000000E+000	0.0000000E+000	0.0000000E+000	25.679	2.0798	64.321	7.37623e-06	1.90254e-05	-4.60085e-09	1.903e-05	0.261655	3596.79	0.869799	3597.66
1468.59	2.76092	1.41096	3.10056	-27.0692	6.32507	0.261595	0.072357	76.8075	15.9058	1	9	0.00471669	0.00152124	0	8.5646e-05	-0.000120486	3.8285e-05	-37.8815	0.025167	0.0198639	0.0154533	-27.1558	3.12529	2.78078	1.42642	0.287192	0.146769	0.322522	27.0692	15905.8	31123.8	34952.6	-62.9308	0.0000000E+000	0.0000000E+000	0.0000000E+000	62.9308	0.0000000E+000	0.0000000E+000	0.0000000E+000	-62.9308	0.0000000E+000	0.0000000E+000	0.0000000E+000	-27.0692	0.0000000E+000	0.0000000E+000	0.0000000E+000	27.0692	1.95676	62.9308	9.92042e-06	1.89282e-05	-8.71802e-09	1.89369e-05	0.261715	3615.33	1.66516	3617
1000.32	3.04776	1.66241	3.47167	-28.6104	7.0218	0.261613	-0.0170458	95.7068	21.9454	1	10	0.00484478	0.00139552	0	8.85728e-05	-0.000177712	9.4564e-06	-78.9049	0.00677626	0.00130401	0.0066496	-28.6963	3.476	3.04907	1.66906	0.252875	0.137931	0.288046	28.6104	21945.4	40233.4	45829.3	-61.3896	0.0000000E+000	0.0000000E+000	0.0000000E+000	61.3896	0.0000000E+000	0.0000000E+000	0.0000000E+000	-61.3896	0.0000000E+000	0.0000000E+000	0.0000000E+000	-28.6104	0.0000000E+000	0.0000000E+000	0.0000000E+000	28.6104	1.83334	61.3896	2.92682e-06	-4.4594e-06	3.02924e-09	-4.46243e-06	0.261791	15347.7	10.4256	15358.1
681.09	3.38339	2.00238	3.93152	-30.6181	7.47156	0.26161	-0.0178834	116.7	30.272	1	10	0.00480635	0.00122252	0	8.74153e-05	-0.000368467	9.04578e-06	38.6345	0.00739931	0.00577993	-0.00461976	-30.5174	3.93415	3.38917	1.99776	0.218893	0.129546	0.254355	30.6181	30272	51150.2	59436.8	-59.3819	0.0000000E+000	0.0000000E+000	0.0000000E+000	59.3819	0.0000000E+000	0.0000000E+000	0.0000000E+000	-59.3819	0.0000000E+000	0.0000000E+000	0.0000000E+000	-30.6181	0.0000000E+000	0.0000000E+000	0.0000000E+000	30.6181	1.68969	59.3819	-1.15753e-06	-4.67847e-06	6.58943e-09	-4.68506e-06	0.261979	14628.7	20.6039	14649.3
463.961	3.79076	2.457	4.51738	-32.9496	7.92336	0.261607	-0.0178945	139.615	41.3021	1	10	0.00477134	0.00105622	0	8.52364e-05	-8.23354e-05	1.27432e-05	-106.501	0.0120649	-0.00342682	0.011568	-33.0962	4.52081	3.78733	2.46857	0.18576	0.120402	0.221367	32.9496	41302.1	63722.4	75936.9	-57.0504	0.0000000E+000	0.0000000E+000	0.0000000E+000	57.0504	0.0000000E+000	0.0000000E+000	0.0000000E+000	-57.0504	0.0000000E+000	0.0000000E+000	0.0000000E+000	-32.9496	0.0000000E+000	0.0000000E+000	0.0000000E+000	32.9496	1.54284	57.0504	-2.17885e-06	-4.68134e-06	1.47335e-09	-4.68282e-06	0.26169	14619.4	4.60114	14624
316.316	4.33473	3.00827	5.27632	-34.7603	8.371	0.261608	-0.0171984	167.256	54.3693	1	10	0.00474731	0.000899738	0	8.29181e-05	-0.000158637	5.5739e-06	-28.1889	0.00619503	0.00546026	0.00292641	-34.7527	5.28247	4.34019	3.01119	0.155704	0.108057	0.189526	34.7603	54369.2	78342.7	95360.4	-55.2397	0.0000000E+000	0.0000000E+000	0.0000000E+000	55.2397	0.0000000E+000	0.0000000E+000	0.0000000E+000	-55.2397	0.0000000E+000	0.0000000E+000	0.0000000E+000	-34.7603	0.0000000E+000	0.0000000E+000	0.0000000E+000	34.7603	1.44094	55.2397	-2.31828e-06	-4.49923e-06	2.7283e-09	-4.50196e-06	0.261766	15211.2	9.22395	15220.4
215.345	5.08289	3.66751	6.26789	-35.812	8.82055	0.261618	-0.0174664	201.518	68.9946	1	10	0.00472981	0.00075461	0	8.01451e-05	-0.00027309	1.01297e-05	106.264	0.0134238	-0.00375953	-0.0128866	-35.7364	6.25731	5.07913	3.65463	0.12938	0.0933531	0.159543	35.812	68994.6	95621.2	117914	-54.188	0.0000000E+000	0.0000000E+000	0.0000000E+000	54.188	0.0000000E+000	0.0000000E+000	0.0000000E+000	-54.188	0.0000000E+000	0.0000000E+000	0.0000000E+000	-35.812	0.0000000E+000	0.0000000E+000	0.0000000E+000	35.812	1.38592	54.188	-2.77302e-06	-4.56954e-06	4.7699e-09	-4.57431e-06	0.261891	14978.3	15.6351	14994
146.737	6.1334	4.36733	7.52942	-35.453	9.26647	0.261608	-0.0179541	248.35	83.5549	1	10	0.00472757	0.00062788	0	7.71622e-05	-0.000387542	6.68149e-06	122.743	0.0106413	-0.00575567	-0.00895044	-35.4229	7.51954	6.12765	4.35838	0.108188	0.0770358	0.132812	35.453	83554.9	117343	144052	-54.547	0.0000000E+000	0.0000000E+000	0.0000000E+000	54.547	0.0000000E+000	0.0000000E+000	0.0000000E+000	-54.547	0.0000000E+000	0.0000000E+000	0.0000000E+000	-35.453	0.0000000E+000	0.0000000E+000	0.0000000E+000	35.453	1.40438	54.547	-2.98292e-06	-4.69695e-06	6.95798e-09	-4.7039e-06	0.261996	14570.9	21.5851	14592.5
100.032	7.48073	4.97994	8.98672	-33.6518	9.7178	0.261611	-0.017191	319.49	98.1077	1	10	0.00472877	0.000526196	0	7.57943e-05	-0.000292165	4.44972e-06	15.8606	0.0084564	0.00813445	-0.00231112	-33.6109	8.99221	7.48886	4.97763	0.0926278	0.0616626	0.111275	33.6518	98107.7	147375	177043	-56.3482	0.0000000E+000	0.0000000E+000	0.0000000E+000	56.3482	0.0000000E+000	0.0000000E+000	0.0000000E+000	-56.3482	0.0000000E+000	0.0000000E+000	0.0000000E+000	-33.6518	0.0000000E+000	0.0000000E+000	0.0000000E+000	33.6518	1.50217	56.3482	-1.36792e-06	-4.49735e-06	5.0226e-09	-4.50237e-06	0.261904	15218	16.9953	15235
68.104	9.06304	5.34942	10.524	-30.551	10.1804	0.26162	-0.0142425	436.858	112.873	1	10	0.00472179	0.000448668	0	7.44678e-05	-0.000196788	4.81046e-06	65.7505	0.0107217	0.0044035	-0.00977563	-30.493	10.5229	9.06745	5.33965	0.0818296	0.0482996	0.0950207	30.551	112873	191231	222058	-59.449	0.0000000E+000	0.0000000E+000	0.0000000E+000	59.449	0.0000000E+000	0.0000000E+000	0.0000000E+000	-59.449	0.0000000E+000	0.0000000E+000	0.0000000E+000	-30.551	0.0000000E+000	0.0000000E+000	0.0000000E+000	30.551	1.69421	59.449	-1.32648e-06	-3.72613e-06	2.80276e-09	-3.72893e-06	0.261817	18368.9	13.8169	18382.7
46.4415	10.7213	5.41139	12.0096	-26.7815	10.6166	0.261609	-0.0202138	633.293	128.578	1	10	0.00471684	0.000392756	0	7.19682e-05	-6.32599e-05	6.25926e-06	40.9028	0.0159368	0.0120454	-0.010435	-26.7112	12.0157	10.7334	5.40095	0.0743349	0.0375191	0.0832668	26.7815	128578	254745	285355	-63.2185	0.0000000E+000	0.0000000E+000	0.0000000E+000	63.2185	0.0000000E+000	0.0000000E+000	0.0000000E+000	-63.2185	0.0000000E+000	0.0000000E+000	0.0000000E+000	-26.7815	0.0000000E+000	0.0000000E+000	0.0000000E+000	26.7815	1.98126	63.2185	-2.49958e-06	-5.28812e-06	1.27873e-09	-5.2894e-06	0.261672	12942.1	3.12954	12945.2
31.6296	12.3115	5.17642	13.3555	-22.8045	11.0465	0.261609	-0.0206531	972.07	146.028	1	10	0.00472301	0.000353638	0	7.01264e-05	-0.000234939	2.73899e-06	13.2632	0.00774517	0.00753858	-0.00177693	-22.7849	13.3618	12.3191	5.17464	0.0690228	0.0290208	0.0748755	22.8045	146028	347312	376762	-67.1955	0.0000000E+000	0.0000000E+000	0.0000000E+000	67.1955	0.0000000E+000	0.0000000E+000	0.0000000E+000	-67.1955	0.0000000E+000	0.0000000E+000	0.0000000E+000	-22.8045	0.0000000E+000	0.0000000E+000	0.0000000E+000	22.8045	2.37839	67.1955	-1.84184e-06	-5.40305e-06	4.85222e-09	-5.4079e-06	0.261844	12666.8	11.3755	12678.2
21.5517	13.6842	4.71946	14.4751	-19.0285	11.4675	0.261609	-0.0216843	1564.75	166.335	1	10	0.00471685	0.000325859	0	6.80693e-05	-0.000101411	5.96764e-06	-67.8496	0.0183136	0.00690495	0.016962	-19.083	14.4872	13.6911	4.73642	0.065309	0.0225241	0.069084	19.0285	166336	482293	510171	-70.9715	0.0000000E+000	0.0000000E+000	0.0000000E+000	70.9715	0.0000000E+000	0.0000000E+000	0.0000000E+000	-70.9715	0.0000000E+000	0.0000000E+000	0.0000000E+000	-19.0285	0.0000000E+000	0.0000000E+000	0.0000000E+000	19.0285	2.89952	70.9715	-2.05708e-06	-5.67282e-06	2.19903e-09	-5.67502e-06	0.261711	12064.4	4.67668	12069.1
14.6852	14.8934	4.25202	15.4885	-15.9338	12.1772	0.261652	-0.00467441	2548.86	192.095	1	11	0.00472134	0.000304828	0	6.86173e-05	8.93434e-05	4.66234e-06	21.6935	0.015295	0.0142117	-0.00565367	-15.8993	15.5006	14.9077	4.24636	0.0620833	0.0177245	0.0645639	15.9338	192095	672847	699732	-74.0662	0.0000000E+000	0.0000000E+000	0.0000000E+000	74.0662	0.0000000E+000	0.0000000E+000	0.0000000E+000	-74.0662	0.0000000E+000	0.0000000E+000	0.0000000E+000	-15.9338	0.0000000E+000	0.0000000E+000	0.0000000E+000	15.9338	3.50268	74.0662	5.48022e-07	-1.22307e-06	-4.17628e-10	-1.22265e-06	0.261563	55975.4	19.1133	55956.3
10.0032	15.8366	3.76042	16.2769	-13.3576	12.6278	0.261646	-0.0045365	4231.02	225.825	1	11	0.00470865	0.000289284	0	6.72154e-05	-4.41845e-05	8.13401e-06	-59.0668	0.0281178	0.0144536	0.0241185	-13.4283	16.2966	15.8511	3.78454	0.0597746	0.0141936	0.0614366	13.3576	225825	951038	977481	-76.6424	0.0000000E+000	0.0000000E+000	0.0000000E+000	76.6424	0.0000000E+000	0.0000000E+000	0.0000000E+000	-76.6424	0.0000000E+000	0.0000000E+000	0.0000000E+000	-13.3576	0.0000000E+000	0.0000000E+000	0.0000000E+000	13.3576	4.21139	76.6424	-1.40193e-06	-1.18696e-06	2.00443e-10	-1.18716e-06	0.26169	57675.8	9.73978	57685.5
6.81719	16.6969	3.28606	17.0172	-11.1339	12.9675	0.261658	-0.00392931	7104.59	264.92	1	11	0.0047144	0.000277038	0	6.64892e-05	-0.000254014	9.3203e-06	-138.277	0.0336427	-0.0251099	0.0223902	-11.2243	16.9969	16.6718	3.30845	0.0576581	0.0113475	0.0587641	11.1339	264920	1.34609e+06	1.37191e+06	-78.8661	0.0000000E+000	0.0000000E+000	0.0000000E+000	78.8661	0.0000000E+000	0.0000000E+000	0.0000000E+000	-78.8661	0.0000000E+000	0.0000000E+000	0.0000000E+000	-11.1339	0.0000000E+000	0.0000000E+000	0.0000000E+000	11.1339	5.08113	78.8661	-7.26174e-07	-1.02814e-06	9.98101e-10	-1.02914e-06	0.261912	66591.4	64.646	66656.1
4.63925	17.4263	2.93586	17.6719	-9.56299	13.4515	0.261635	-0.00430466	11685.2	322.509	1	11	0.0047308	0.000267702	0	6.89596e-05	-0.000120486	2.26517e-05	-104.901	0.0846155	-0.021759	0.08177	-9.83626	17.6642	17.4045	3.01763	0.0558007	0.00940091	0.0565871	9.56299	322509	1.91431e+06	1.94129e+06	-80.437	0.0000000E+000	0.0000000E+000	0.0000000E+000	80.437	0.0000000E+000	0.0000000E+000	0.0000000E+000	-80.437	0.0000000E+000	0.0000000E+000	0.0000000E+000	-9.56299	0.0000000E+000	0.0000000E+000	0.0000000E+000	9.56299	5.93567	80.437	2.47037e-06	-1.12625e-06	5.18652e-10	-1.12677e-06	0.261756	60779.5	27.9897	60807.5
3.1604	17.9931	2.53655	18.171	-8.02432	14.1445	0.261654	-0.00314563	19853.4	386.87	1	11	0.00471418	0.000259434	0	6.83388e-05	-0.000368467	4.46585e-06	-55.5124	0.0172138	0.00974694	0.0141885	-8.0643	18.1826	18.0028	2.55074	0.0544939	0.00768221	0.0550327	8.02432	386869	2.74427e+06	2.7714e+06	-81.9757	0.0000000E+000	0.0000000E+000	0.0000000E+000	81.9757	0.0000000E+000	0.0000000E+000	0.0000000E+000	-81.9757	0.0000000E+000	0.0000000E+000	0.0000000E+000	-8.02432	0.0000000E+000	0.0000000E+000	0.0000000E+000	8.02432	7.09352	81.9757	-6.20835e-07	-8.23068e-07	1.15906e-09	-8.24227e-07	0.262023	83180.1	117.136	83297.3
2.15577	18.501	2.24575	18.6368	-6.921	15.1482	0.261658	-0.00243259	32874.4	477.349	1	11	0.00472002	0.000253263	0	6.34295e-05	-0.000177712	5.96247e-06	11.8305	0.0235426	0.0230425	-0.00482662	-6.89776	18.6591	18.5241	2.24092	0.0532663	0.00646573	0.0536572	6.921	477349	3.93252e+06	3.96138e+06	-83.079	0.0000000E+000	0.0000000E+000	0.0000000E+000	83.079	0.0000000E+000	0.0000000E+000	0.0000000E+000	-83.079	0.0000000E+000	0.0000000E+000	0.0000000E+000	-6.921	0.0000000E+000	0.0000000E+000	0.0000000E+000	6.921	8.23824	83.079	-4.90926e-06	-6.36506e-07	4.32301e-10	-6.36938e-07	0.261836	107564	73.0549	107637
1.46631	18.9462	1.98194	19.0496	-5.97192	16.6085	0.261659	-0.00253614	54765.1	592.808	1	11	0.00471963	0.000247755	0	5.74181e-05	-0.000120486	3.03527e-06	-54.8834	0.0122511	0.00704734	0.0100212	-5.99968	19.0576	18.9533	1.99196	0.0522097	0.00546159	0.0524946	5.97192	592808	5.6669e+06	5.69782e+06	-84.0281	0.0000000E+000	0.0000000E+000	0.0000000E+000	84.0281	0.0000000E+000	0.0000000E+000	0.0000000E+000	-84.0281	0.0000000E+000	0.0000000E+000	0.0000000E+000	-5.97192	0.0000000E+000	0.0000000E+000	0.0000000E+000	5.97192	9.55942	84.0281	-6.01137e-06	-6.63605e-07	3.0557e-10	-6.6391e-07	0.26178	103172	47.5077	103220
1.00006	19.3143	1.79957	19.398	-5.32305	19.782	0.26166	-0.00304557	88434.7	761.112	1	12	0.00471725	0.000243182	0	5.43577e-05	-0.000158637	4.56848e-06	-33.7643	0.0187862	0.0156176	0.010441	-5.34945	19.4145	19.33	1.81002	0.0513294	0.00478251	0.0515517	5.32305	761112	8.16881e+06	8.20419e+06	-84.6769	0.0000000E+000	0.0000000E+000	0.0000000E+000	84.6769	0.0000000E+000	0.0000000E+000	0.0000000E+000	-84.6769	0.0000000E+000	0.0000000E+000	0.0000000E+000	-5.32305	0.0000000E+000	0.0000000E+000	0.0000000E+000	5.32305	10.7327	84.6769	-3.06045e-06	-7.96903e-07	4.8314e-10	-7.97386e-07	0.261818	85914.9	52.0878	85967
0.681362	19.6302	1.69546	19.7033	-4.9364	22.8942	0.261661	-0.00369445	137770	1020.12	1	12	0.00472082	0.000239595	0	5.92827e-05	-0.000120486	1.56322e-06	85.1603	0.0065244	0.000550448	-0.00650114	-4.91742	19.7033	19.6308	1.68896	0.0505647	0.00436728	0.0507529	4.9364	1.02012e+06	1.18111e+07	1.1855e+07	-85.0636	0.0000000E+000	0.0000000E+000	0.0000000E+000	85.0636	0.0000000E+000	0.0000000E+000	0.0000000E+000	-85.0636	0.0000000E+000	0.0000000E+000	0.0000000E+000	-4.9364	0.0000000E+000	0.0000000E+000	0.0000000E+000	4.9364	11.5781	85.0636	4.92497e-06	-9.66695e-07	4.45131e-10	-9.6714e-07	0.261782	70825.5	32.6127	70858.1
0.464091	19.8764	1.64453	19.9443	-4.72976	27.4508	0.26166	-0.00320981	208533	1417.82	1	12	0.00471654	0.000236485	0	7.01827e-05	0.00014657	2.42838e-06	80.8747	0.0102686	0.00162854	-0.0101386	-4.70035	19.9451	19.878	1.63439	0.0499689	0.00413432	0.0501396	4.72976	1.41782e+06	1.71363e+07	1.71948e+07	-85.2702	0.0000000E+000	0.0000000E+000	0.0000000E+000	85.2702	0.0000000E+000	0.0000000E+000	0.0000000E+000	-85.2702	0.0000000E+000	0.0000000E+000	0.0000000E+000	-4.72976	0.0000000E+000	0.0000000E+000	0.0000000E+000	4.72976	12.0864	85.2702	1.09001e-05	-8.3988e-07	-4.70461e-10	-8.3941e-07	0.261514	81518.9	45.663	81473.2
0.316193	20.153	1.74686	20.2286	-4.954	34.1269	0.261663	-0.0016976	288144	2148.79	1	12	0.00471994	0.00023333	0	8.15461e-05	-0.000292165	9.28976e-07	20.6221	0.00398138	0.00372627	-0.00140225	-4.94914	20.2322	20.1568	1.74546	0.0492503	0.00426901	0.049435	4.954	2.14879e+06	2.479e+07	2.4883e+07	-85.046	0.0000000E+000	0.0000000E+000	0.0000000E+000	85.046	0.0000000E+000	0.0000000E+000	0.0000000E+000	-85.046	0.0000000E+000	0.0000000E+000	0.0000000E+000	-4.954	0.0000000E+000	0.0000000E+000	0.0000000E+000	4.954	11.5367	85.046	1.13633e-05	-4.442e-07	4.9598e-10	-4.44696e-07	0.261955	154137	172.105	154309
0.215268	20.4355	1.99627	20.5328	-5.57931	43.9205	0.261671	-0.000115805	370358	3500.78	1	12	0.00472019	0.000229885	0	8.27189e-05	-0.000330316	2.03464e-06	-80.0573	0.00885069	0.00152819	0.00871776	-5.60311	20.5352	20.437	2.00499	0.0484719	0.00473504	0.0487026	5.57931	3.50078e+06	3.58369e+07	3.60075e+07	-84.4207	0.0000000E+000	0.0000000E+000	0.0000000E+000	84.4207	0.0000000E+000	0.0000000E+000	0.0000000E+000	-84.4207	0.0000000E+000	0.0000000E+000	0.0000000E+000	-5.57931	0.0000000E+000	0.0000000E+000	0.0000000E+000	5.57931	10.2368	84.4207	1.17285e-06	-3.03027e-08	3.82522e-11	-3.0341e-08	0.262001	2.25958e+06	2852.35	2.26244e+06
0.146929	20.7136	2.41094	20.8535	-6.639	58.2589	0.261663	0.00064084	449290	6005.41	1	12	0.00471665	0.000226181	0	5.97496e-05	5.11926e-05	1.97968e-06	45.3804	0.00875265	0.00614784	-0.00623001	-6.62005	20.8588	20.7198	2.40471	0.0476321	0.00554408	0.0479537	6.639	6.00541e+06	5.15956e+07	5.1944e+07	-83.361	0.0000000E+000	0.0000000E+000	0.0000000E+000	83.361	0.0000000E+000	0.0000000E+000	0.0000000E+000	-83.361	0.0000000E+000	0.0000000E+000	0.0000000E+000	-6.639	0.0000000E+000	0.0000000E+000	0.0000000E+000	6.639	8.59152	83.361	-2.29693e-05	1.67684e-07	3.28063e-11	1.67651e-07	0.261612	408312	79.8836	408232
0.0999041	21.0711	2.9921	21.2825	-8.08197	79.3362	0.261668	0.000539055	532428	10523.7	1	12	0.00472098	0.000221824	0	3.32025e-06	-0.000406618	2.33504e-06	-37.1147	0.0105265	0.00839415	0.00635184	-8.09571	21.2917	21.0795	2.99845	0.0465202	0.00660587	0.0469869	8.08197	1.05237e+07	7.41103e+07	7.48538e+07	-81.918	0.0000000E+000	0.0000000E+000	0.0000000E+000	81.918	0.0000000E+000	0.0000000E+000	0.0000000E+000	-81.918	0.0000000E+000	0.0000000E+000	0.0000000E+000	-8.08197	0.0000000E+000	0.0000000E+000	0.0000000E+000	8.08197	7.04226	81.918	-5.64294e-05	1.41053e-07	-2.19189e-10	1.41272e-07	0.262074	485420	754.316	486174
0.0680626	21.5635	3.76303	21.8894	-9.89896	110.264	0.261674	0.000101073	621404	18364.6	1	12	0.00471857	0.000215564	0	-7.70289e-05	5.11926e-05	1.64606e-06	47.7215	0.00763605	0.00513704	-0.00564978	-9.88208	21.8935	21.5686	3.75738	0.0450041	0.00785363	0.0456843	9.89896	1.83646e+07	1.05236e+08	1.06826e+08	-80.101	0.0000000E+000	0.0000000E+000	0.0000000E+000	80.101	0.0000000E+000	0.0000000E+000	0.0000000E+000	-80.101	0.0000000E+000	0.0000000E+000	0.0000000E+000	-9.89896	0.0000000E+000	0.0000000E+000	0.0000000E+000	9.89896	5.73036	80.101	-8.03491e-05	2.64481e-08	5.17419e-12	2.6443e-08	0.261622	2.58896e+06	506.491	2.58845e+06
0.0464052	22.2814	4.84125	22.8013	-12.2585	155.614	0.261674	-0.00149684	708429	31936.8	1	12	0.00471849	0.000206939	0	-0.000163272	-0.000101411	1.73544e-06	36.1874	0.0083862	0.00676842	-0.00495145	-12.2428	22.8069	22.2882	4.83629	0.0428572	0.00931188	0.0438571	12.2585	3.19368e+07	1.46986e+08	1.50416e+08	-77.7415	0.0000000E+000	0.0000000E+000	0.0000000E+000	77.7415	0.0000000E+000	0.0000000E+000	0.0000000E+000	-77.7415	0.0000000E+000	0.0000000E+000	0.0000000E+000	-12.2585	0.0000000E+000	0.0000000E+000	0.0000000E+000	12.2585	4.60242	77.7415	-8.62428e-05	-3.91684e-07	1.51796e-10	-3.91836e-07	0.261775	174817	67.7499	174885
0.0315922	23.0128	6.41442	23.89	-15.5749	222.22	0.261675	-0.00184871	785385	56619.4	1	12	0.00472192	0.000197652	0	-0.000173397	-0.000120486	1.34879e-06	8.80792	0.00682408	0.0067436	-0.00104492	-15.5682	23.8962	23.0195	6.41338	0.0403215	0.0112389	0.0418585	15.5749	5.66194e+07	2.03131e+08	2.10874e+08	-74.4251	0.0000000E+000	0.0000000E+000	0.0000000E+000	74.4251	0.0000000E+000	0.0000000E+000	0.0000000E+000	-74.4251	0.0000000E+000	0.0000000E+000	0.0000000E+000	-15.5749	0.0000000E+000	0.0000000E+000	0.0000000E+000	15.5749	3.58766	74.4251	-1.0125e-05	-4.83762e-07	2.22745e-10	-4.83985e-07	0.261796	141544	65.173	141610
0.0215268	23.7626	8.38549	25.1987	-19.4373	319.959	0.261673	-0.00123887	881683	97636.5	1	12	0.00471858	0.000187255	0	-2.0794e-05	-0.000234939	1.64553e-06	-11.7549	0.00878765	0.00860336	0.00179027	-19.4346	25.2074	23.7712	8.38728	0.0374228	0.013206	0.0396845	19.4373	9.76365e+07	2.76679e+08	2.93401e+08	-70.5627	0.0000000E+000	0.0000000E+000	0.0000000E+000	70.5627	0.0000000E+000	0.0000000E+000	0.0000000E+000	-70.5627	0.0000000E+000	0.0000000E+000	0.0000000E+000	-19.4373	0.0000000E+000	0.0000000E+000	0.0000000E+000	19.4373	2.83377	70.5627	0.000152603	-3.2418e-07	2.91059e-10	-3.24471e-07	0.261908	211219	189.639	211409
0.0146812	24.9463	10.8922	27.2205	-23.5874	463.261	0.261668	-0.000487351	995272	159362	1	12	0.00472003	0.0001734	0	0.000305928	0.000261022	1.40115e-06	17.9911	0.00808049	0.00768539	-0.00249581	-23.5762	27.2266	24.9539	10.8897	0.0336676	0.0147002	0.036737	23.5874	1.59362e+08	3.64982e+08	3.98256e+08	-66.4126	0.0000000E+000	0.0000000E+000	0.0000000E+000	66.4126	0.0000000E+000	0.0000000E+000	0.0000000E+000	-66.4126	0.0000000E+000	0.0000000E+000	0.0000000E+000	-23.5874	0.0000000E+000	0.0000000E+000	0.0000000E+000	23.5874	2.29028	66.4126	0.000326722	-1.27524e-07	-1.27209e-10	-1.27397e-07	0.261407	536918	535.594	536383
0.0100092	26.7424	14.4718	30.407	-28.4203	673.443	0.261667	0.000187268	1.09875e+06	248884	1	12	0.00472077	0.000155252	0	0.000658085	-0.000406618	2.66914e-06	49.8345	0.0171923	0.011089	-0.0131381	-28.3886	30.4106	26.7535	14.4587	0.0289236	0.0156522	0.0328871	28.4203	2.48884e+08	4.59911e+08	5.22935e+08	-61.5797	0.0000000E+000	0.0000000E+000	0.0000000E+000	61.5797	0.0000000E+000	0.0000000E+000	0.0000000E+000	-61.5797	0.0000000E+000	0.0000000E+000	0.0000000E+000	-28.4203	0.0000000E+000	0.0000000E+000	0.0000000E+000	28.4203	1.84789	61.5797	0.000352157	4.90018e-08	-7.61464e-11	4.90779e-08	0.262073	1.39728e+06	2171.31	1.39946e+06