File: txt/19063_R307_UA701_3p24_SOC00_C02.mpt
EC-Lab ASCII FILE
Nb header lines : 65

Potentio Electrochemical Impedance Spectroscopy

Run on channel : 2 (SN 66139)
Grouped channel(s) : 1, 2, 3, 4, 5
User :
CE vs. WE compliance from -10 V to 10 V
Electrode connection : standard
Potential control : Ewe
Ewe ctrl range : min = -10.00 V, max = 10.00 V
Safety Limits :
	Do not start on E overload
Acquisition started on : 11/12/2025 10:25:43.761
Loaded Setting File :  C:\Users\Celltest\OneDrive - store-dot.com\Documents\EC-Lab\Data\@Biologic Test Protocols\anode half cell EIS SOC00.mps
Saved on :
	File : 19062_R307_UA701_3p24_SOC00_C02.mpr
	Directory : C:\Users\Celltest\OneDrive - store-dot.com\Documents\EC-Lab\Data\Anna\
	Host : 169.254.61.224
Device : VMP-3e (SN .003165)
Address : USB
EC-LAB for windows v11.62 (software)
Internet server v27.00 (firmware)
Command interpretor v12.03 (firmware)
Electrode material :
Initial state :
Electrolyte :
Comments :
Electrode surface area : 0.001 cm²
Characteristic mass : 0.001 g
Equivalent Weight : 0.000 g/eq.
Density : 0.000 g/cm3
Volume (V) : 0.001 cm³
Record Ece
Cycle Definition : Charge/Discharge alternance
Mode                Single sine
E (V)               0.0000
vs.                 Eoc
tE (h:m:s)          0:00:0.0000
record              0
dI                  0.000
unit dI             mA
dt (s)              0.000
fi                  100.000
unit fi             kHz
ff                  10.000
unit ff             mHz
Nd                  6
Points              per decade
spacing             Logarithmic
Va (mV)             5.0
pw                  0.10
Na                  2
corr                0
E range min (V)     -10.000
E range max (V)     10.000
I Range             Auto
Bandwidth           5
nc cycles           0
goto Ns'            0
nr cycles           0
inc. cycle          0

freq/Hz	Re(Z)/Ohm	-Im(Z)/Ohm	|Z|/Ohm	Phase(Z)/deg	time/s	<Ewe>/V	<I>/mA	Cs/µF	Cp/µF	cycle number	I Range	|Ewe|/V	|I|/A	Ns	(Q-Qo)/mA.h	<Ece>/V	|Ece|/V	Phase(Zce)/deg	|Zce|/Ohm	Re(Zce)/Ohm	-Im(Zce)/Ohm	Phase(Zwe-ce)/deg	|Zwe-ce|/Ohm	Re(Zwe-ce)/Ohm	-Im(Zwe-ce)/Ohm	Re(Y)/Ohm-1	Im(Y)/Ohm-1	|Y|/Ohm-1	Phase(Y)/deg	Re(C)/nF	Im(C)/nF	|C|/nF	Phase(C)/deg	Re(M)	Im(M)	|M|	Phase(M)/deg	Re(Permittivity)	Im(Permittivity)	|Permittivity|	Phase(Permittivity)/deg	Re(Resistivity)/Ohm.cm	Im(Resistivity)/Ohm.cm	|Resistivity|/Ohm.cm	Phase(Resistivity)/deg	Re(Conductivity)/mS/cm	Im(Conductivity)/mS/cm	|Conductivity|/mS/cm	Phase(Conductivity)/deg	Tan(Delta)	Loss Angle(Delta)/deg	dq/mA.h	Pwe/W	Pce/W	Pwe-ce/W	<Ewe-Ece>/V	Rwe/Ohm	Rce/Ohm	Rwe-ce/Ohm		Ewe-Ece/V
100004	0.973842	0.399698	1.05268	-22.3149	1.72554	0.257653	0.0160926	3.98173	0.574046	1	9	0.00473023	0.00449353	0	1.59643e-07	5.43696e-05	1.43897e-05	91.1437	0.00320231	-6.39183e-05	-0.00320167	-22.1548	1.0514	0.973778	0.396496	0.878819	0.360697	0.94996	22.3149	574.046	1398.63	1511.85	-67.6851	0.0000000E+000	0.0000000E+000	0.0000000E+000	67.6851	0.0000000E+000	0.0000000E+000	0.0000000E+000	-67.6851	0.0000000E+000	0.0000000E+000	0.0000000E+000	-22.3149	0.0000000E+000	0.0000000E+000	0.0000000E+000	22.3149	2.43645	67.6851	1.59643e-07	4.1463e-06	8.74947e-10	4.14542e-06	0.257599	16010.7	3.37855	16007.3
68132	1.08408	0.454903	1.17565	-22.764	2.23252	0.25764	0.014491	5.13511	0.768828	1	9	0.00504842	0.00429415	0	-1.79334e-05	-7.92663e-05	1.71117e-05	67.0201	0.00398489	0.00155573	-0.00366865	-22.5698	1.17567	1.08563	0.451234	0.784336	0.329125	0.850592	22.764	768.828	1832.19	1986.96	-67.236	0.0000000E+000	0.0000000E+000	0.0000000E+000	67.236	0.0000000E+000	0.0000000E+000	0.0000000E+000	-67.236	0.0000000E+000	0.0000000E+000	0.0000000E+000	-22.764	0.0000000E+000	0.0000000E+000	0.0000000E+000	22.764	2.38309	67.236	-1.8093e-05	3.73346e-06	-1.14865e-09	3.73461e-06	0.257719	17779.3	5.47004	17784.8
46420.4	1.19918	0.504995	1.30117	-22.8368	2.74152	0.257633	0.0138578	6.7893	1.02265	1	9	0.00506413	0.00389197	0	-2.21323e-05	-0.000136539	1.68666e-05	18.3585	0.00433369	0.00411312	-0.00136495	-22.7114	1.30444	1.20329	0.50363	0.708295	0.298275	0.768537	22.8368	1022.65	2428.43	2634.98	-67.1632	0.0000000E+000	0.0000000E+000	0.0000000E+000	67.1632	0.0000000E+000	0.0000000E+000	0.0000000E+000	-67.1632	0.0000000E+000	0.0000000E+000	0.0000000E+000	-22.8368	0.0000000E+000	0.0000000E+000	0.0000000E+000	22.8368	2.37464	67.1632	-4.19893e-06	3.57022e-06	-1.89213e-09	3.57211e-06	0.257769	18591.2	9.85287	18601.1
31621.1	1.3238	0.563957	1.43892	-23.0747	3.24852	0.257626	0.00592441	8.92476	1.37093	1	9	0.00504949	0.00350922	0	-1.02005e-05	0.000168915	9.38063e-06	32.167	0.00267314	0.00226281	-0.00142315	-22.9873	1.44045	1.32606	0.562534	0.639364	0.272378	0.694965	23.0747	1370.93	3218.04	3497.89	-66.9253	0.0000000E+000	0.0000000E+000	0.0000000E+000	66.9253	0.0000000E+000	0.0000000E+000	0.0000000E+000	-66.9253	0.0000000E+000	0.0000000E+000	0.0000000E+000	-23.0747	0.0000000E+000	0.0000000E+000	0.0000000E+000	23.0747	2.34734	66.9253	1.19317e-05	1.52628e-06	1.00072e-09	1.52528e-06	0.257457	43485.5	28.5117	43457
21544.7	1.46357	0.625671	1.5917	-23.1465	3.63152	0.257631	0.0045463	11.8068	1.82434	1	9	0.00543041	0.00341171	0	-2.01029e-05	-2.90295e-06	1.41523e-05	-57.3543	0.00414816	0.00223769	0.00349284	-23.2303	1.59513	1.46581	0.629164	0.577686	0.246959	0.62826	23.1465	1824.34	4267.49	4641.08	-66.8535	0.0000000E+000	0.0000000E+000	0.0000000E+000	66.8535	0.0000000E+000	0.0000000E+000	0.0000000E+000	-66.8535	0.0000000E+000	0.0000000E+000	0.0000000E+000	-23.1465	0.0000000E+000	0.0000000E+000	0.0000000E+000	23.1465	2.3392	66.8535	-9.90233e-06	1.17127e-06	-1.31977e-11	1.17128e-06	0.257634	56668.2	0.638529	56668.9
14678.6	1.60739	0.693021	1.75042	-23.3232	4.01652	0.257637	0.0108781	15.6455	2.45244	1	9	0.00509455	0.00291048	0	-1.78921e-05	0.000111642	5.5752e-06	106.036	0.00191556	-0.000529151	-0.00184103	-23.2747	1.74921	1.60686	0.69118	0.524609	0.226184	0.571292	23.3232	2452.44	5688.16	6194.32	-66.6768	0.0000000E+000	0.0000000E+000	0.0000000E+000	66.6768	0.0000000E+000	0.0000000E+000	0.0000000E+000	-66.6768	0.0000000E+000	0.0000000E+000	0.0000000E+000	-23.3232	0.0000000E+000	0.0000000E+000	0.0000000E+000	23.3232	2.31939	66.6768	2.21082e-06	2.8026e-06	1.21446e-09	2.80139e-06	0.257525	23684	10.263	23673.7
10002.2	1.76237	0.774845	1.92518	-23.7333	4.27552	0.257639	0.0158318	20.5357	3.32656	1	9	0.00492046	0.00255584	0	-1.5091e-05	0.000531641	4.4391e-06	-34.9908	0.00173685	0.0014229	0.000995984	-23.7433	1.92688	1.76379	0.775841	0.475503	0.209061	0.519432	23.7333	3326.56	7566.18	8265.17	-66.2667	0.0000000E+000	0.0000000E+000	0.0000000E+000	66.2667	0.0000000E+000	0.0000000E+000	0.0000000E+000	-66.2667	0.0000000E+000	0.0000000E+000	0.0000000E+000	-23.7333	0.0000000E+000	0.0000000E+000	0.0000000E+000	23.7333	2.27448	66.2667	2.80105e-06	4.07889e-06	8.41683e-09	4.07047e-06	0.257107	16273.5	33.5806	16239.9
6810.42	1.88512	0.88641	2.08313	-25.1836	4.53452	0.257643	0.00666929	26.364	4.77365	1	9	0.00461329	0.0022146	0	-1.26432e-05	0.000455277	0.000164404	3.92974	0.0742365	0.0740619	-0.00508765	-24.2202	2.14829	1.95918	0.881323	0.434419	0.20427	0.480048	25.1836	4773.65	10152.1	11218.4	-64.8165	0.0000000E+000	0.0000000E+000	0.0000000E+000	64.8165	0.0000000E+000	0.0000000E+000	0.0000000E+000	-64.8165	0.0000000E+000	0.0000000E+000	0.0000000E+000	-25.1836	0.0000000E+000	0.0000000E+000	0.0000000E+000	25.1836	2.12669	64.8165	2.44782e-06	1.7183e-06	3.03638e-09	1.71526e-06	0.257188	38631.3	68.2647	38563
4646	2.12757	0.99348	2.3481	-25.0304	4.80064	0.2576	-0.00688823	34.4811	6.17258	1	9	0.00456716	0.00194505	0	-1.3139e-05	-0.00015563	2.31007e-05	-118.051	0.0118767	-0.00558514	0.0104815	-25.3199	2.3475	2.12199	1.00396	0.385879	0.180188	0.425876	25.0304	6172.58	13218.8	14589	-64.9696	0.0000000E+000	0.0000000E+000	0.0000000E+000	64.9696	0.0000000E+000	0.0000000E+000	0.0000000E+000	-64.9696	0.0000000E+000	0.0000000E+000	0.0000000E+000	-25.0304	0.0000000E+000	0.0000000E+000	0.0000000E+000	25.0304	2.14154	64.9696	-4.95814e-07	-1.77441e-06	1.07201e-09	-1.77548e-06	0.257755	37397.1	22.5936	37419.7
3163.08	2.32965	1.15433	2.59995	-26.3581	5.35064	0.257442	-0.0665934	43.5894	8.59226	1	9	0.00498362	0.00191681	0	-2.52626e-05	0.000111642	7.1433e-06	-66.1452	0.00372666	0.00150714	0.0034083	-26.4106	2.60282	2.33116	1.15774	0.344635	0.170764	0.384622	26.3581	8592.26	17340.8	19352.8	-63.6419	0.0000000E+000	0.0000000E+000	0.0000000E+000	63.6419	0.0000000E+000	0.0000000E+000	0.0000000E+000	-63.6419	0.0000000E+000	0.0000000E+000	0.0000000E+000	-26.3581	0.0000000E+000	0.0000000E+000	0.0000000E+000	26.3581	2.01819	63.6419	-1.21236e-05	-1.71439e-05	-7.43463e-09	-1.71365e-05	0.25733	3865.88	1.67647	3864.2
2155.69	2.56105	1.34731	2.89382	-27.7479	5.80179	0.257491	-0.00152482	54.7981	11.8784	1	9	0.00490647	0.0016955	0	-2.57789e-05	5.43696e-05	2.00712e-06	1.41552	0.0011838	0.00118344	-2.92434e-05	-27.7365	2.89486	2.56223	1.34728	0.305825	0.160888	0.345564	27.7479	11878.4	22579.1	25513	-62.2521	0.0000000E+000	0.0000000E+000	0.0000000E+000	62.2521	0.0000000E+000	0.0000000E+000	0.0000000E+000	-62.2521	0.0000000E+000	0.0000000E+000	0.0000000E+000	-27.7479	0.0000000E+000	0.0000000E+000	0.0000000E+000	27.7479	1.90086	62.2521	-5.16257e-07	-3.92628e-07	-8.29039e-11	-3.92545e-07	0.257437	168867	35.6564	168831
1468.59	2.81602	1.59199	3.23487	-29.4809	6.25312	0.257508	0.00156659	68.0738	16.4872	1	9	0.004846	0.00149805	0	-2.77582e-05	-0.000193811	2.17157e-05	-18.687	0.014496	0.0137318	0.00464448	-29.433	3.24911	2.82975	1.59663	0.269105	0.152134	0.309132	29.4809	16487.2	29163.6	33501.4	-60.5191	0.0000000E+000	0.0000000E+000	0.0000000E+000	60.5191	0.0000000E+000	0.0000000E+000	0.0000000E+000	-60.5191	0.0000000E+000	0.0000000E+000	0.0000000E+000	-29.4809	0.0000000E+000	0.0000000E+000	0.0000000E+000	29.4809	1.76887	60.5191	-1.97928e-06	4.03409e-07	-3.03623e-10	4.03712e-07	0.257702	164375	123.716	164499
1000.32	3.09162	1.94416	3.6521	-32.1637	6.94886	0.257551	-0.020481	81.8368	23.1914	1	10	0.00495714	0.00135734	0	-2.97526e-05	0.000245278	9.93044e-06	79.2917	0.00731612	0.0013594	-0.00718872	-32.0568	3.64943	3.09298	1.93697	0.231793	0.145763	0.273815	32.1637	23191.4	36879.1	43565	-57.8363	0.0000000E+000	0.0000000E+000	0.0000000E+000	57.8363	0.0000000E+000	0.0000000E+000	0.0000000E+000	-57.8363	0.0000000E+000	0.0000000E+000	0.0000000E+000	-32.1637	0.0000000E+000	0.0000000E+000	0.0000000E+000	32.1637	1.59021	57.8363	-1.99442e-06	-5.27489e-06	-5.02354e-09	-5.26987e-06	0.257306	12575.1	11.9759	12563.1
681.09	3.43638	2.42245	4.2044	-35.1816	7.39956	0.257544	-0.0211292	96.4631	32.0231	1	10	0.00489795	0.00116496	0	-3.31996e-05	-0.000231993	5.16336e-06	-93.4068	0.00443223	-0.000263383	0.0044244	-35.2329	4.20673	3.43612	2.42687	0.194399	0.13704	0.237846	35.1816	32023.1	45426.5	55579.2	-54.8184	0.0000000E+000	0.0000000E+000	0.0000000E+000	54.8184	0.0000000E+000	0.0000000E+000	0.0000000E+000	-54.8184	0.0000000E+000	0.0000000E+000	0.0000000E+000	-35.1816	0.0000000E+000	0.0000000E+000	0.0000000E+000	35.1816	1.41856	54.8184	-3.44699e-06	-5.4417e-06	4.90183e-09	-5.44661e-06	0.257776	12189	10.9797	12200
463.961	3.89971	3.06029	4.95713	-38.123	7.85129	0.257534	-0.0213154	112.092	42.721	1	10	0.00486556	0.000981526	0	-3.51229e-05	0.000226187	8.75762e-06	-20.4709	0.00892245	0.008359	0.00312047	-38.0918	4.96564	3.90807	3.06341	0.158698	0.124538	0.201729	38.123	42720.9	54439.1	69200.4	-51.877	0.0000000E+000	0.0000000E+000	0.0000000E+000	51.877	0.0000000E+000	0.0000000E+000	0.0000000E+000	-51.877	0.0000000E+000	0.0000000E+000	0.0000000E+000	-38.123	0.0000000E+000	0.0000000E+000	0.0000000E+000	38.123	1.27429	51.877	-1.9233e-06	-5.48946e-06	-4.82128e-09	-5.48464e-06	0.257308	12082.1	10.6114	12071.4
316.316	4.51898	3.87591	5.95347	-40.6195	8.29907	0.257533	-0.0222319	129.815	55.0214	1	10	0.0048182	0.00080931	0	-3.83833e-05	0.000168915	9.42472e-06	47.1221	0.0116454	0.00792396	-0.00853379	-40.5075	5.95394	4.5269	3.86737	0.127497	0.109354	0.167969	40.6195	55021.4	64150.3	84514	-49.3805	0.0000000E+000	0.0000000E+000	0.0000000E+000	49.3805	0.0000000E+000	0.0000000E+000	0.0000000E+000	-49.3805	0.0000000E+000	0.0000000E+000	0.0000000E+000	-40.6195	0.0000000E+000	0.0000000E+000	0.0000000E+000	40.6195	1.16592	49.3805	-3.26045e-06	-5.72545e-06	-3.75529e-09	-5.72169e-06	0.257364	11584	7.59786	11576.4
215.345	5.46945	4.87889	7.32929	-41.7338	8.74856	0.257536	-0.0211665	151.483	67.1249	1	10	0.00480717	0.000655885	0	-4.08724e-05	5.43696e-05	3.38531e-06	17.4615	0.00516144	0.0049236	-0.00154876	-41.6991	7.33193	5.47438	4.87734	0.101817	0.0908233	0.136439	41.7338	67124.9	75250	100838	-48.2662	0.0000000E+000	0.0000000E+000	0.0000000E+000	48.2662	0.0000000E+000	0.0000000E+000	0.0000000E+000	-48.2662	0.0000000E+000	0.0000000E+000	0.0000000E+000	-41.7338	0.0000000E+000	0.0000000E+000	0.0000000E+000	41.7338	1.12104	48.2662	-2.48906e-06	-5.45112e-06	-1.15081e-09	-5.44997e-06	0.257481	12167.2	2.56867	12164.6
146.737	6.82045	5.99916	9.08341	-41.3343	9.19452	0.257538	-0.0201569	180.796	78.8626	1	10	0.00480664	0.000529166	0	-4.32787e-05	0.000321641	1.33023e-06	16.1719	0.00251383	0.00241435	-0.000700152	-41.321	9.08476	6.82286	5.99846	0.0826637	0.0727097	0.110091	41.3343	78862.7	89659.1	119407	-48.6657	0.0000000E+000	0.0000000E+000	0.0000000E+000	48.6657	0.0000000E+000	0.0000000E+000	0.0000000E+000	-48.6657	0.0000000E+000	0.0000000E+000	0.0000000E+000	-41.3343	0.0000000E+000	0.0000000E+000	0.0000000E+000	41.3343	1.1369	48.6657	-2.40629e-06	-5.19117e-06	-6.4833e-09	-5.18469e-06	0.257216	12776.6	15.9569	12760.7
100.032	8.6355	7.02749	11.1336	-39.1384	9.64581	0.25754	-0.0200116	226.402	90.2005	1	10	0.00478692	0.000429951	0	-4.56522e-05	0.000130733	1.07114e-05	-108.348	0.0249131	-0.00784242	0.0236466	-39.2582	11.1425	8.62766	7.05114	0.069665	0.0566928	0.0898181	39.1384	90200.5	110840	142904	-50.8616	0.0000000E+000	0.0000000E+000	0.0000000E+000	50.8616	0.0000000E+000	0.0000000E+000	0.0000000E+000	-50.8616	0.0000000E+000	0.0000000E+000	0.0000000E+000	-39.1384	0.0000000E+000	0.0000000E+000	0.0000000E+000	39.1384	1.22882	50.8616	-2.37349e-06	-5.1538e-06	-2.61618e-09	-5.15119e-06	0.25741	12869.5	6.53285	12863
68.104	10.9235	7.78894	13.416	-35.4906	10.1085	0.257538	-0.0183725	300.033	101.129	1	10	0.00478776	0.000356868	0	-4.78217e-05	9.25513e-05	6.12779e-06	80.4494	0.017171	0.00284898	-0.016933	-35.4246	13.4085	10.9263	7.772	0.0606894	0.0432742	0.0745376	35.4906	101129	141827	174190	-54.5094	0.0000000E+000	0.0000000E+000	0.0000000E+000	54.5094	0.0000000E+000	0.0000000E+000	0.0000000E+000	-54.5094	0.0000000E+000	0.0000000E+000	0.0000000E+000	-35.4906	0.0000000E+000	0.0000000E+000	0.0000000E+000	35.4906	1.40244	54.5094	-2.16956e-06	-4.73162e-06	-1.7004e-09	-4.72992e-06	0.257445	14017.5	5.03748	14012.5
46.4415	13.4016	8.04386	15.6303	-30.9728	10.5457	0.257547	-0.0217252	426.039	112.834	1	10	0.004785	0.000306135	0	-5.01856e-05	9.25513e-05	9.8287e-06	14.3326	0.0321058	0.0311065	-0.00794778	-30.8893	15.6529	13.4328	8.03591	0.0548556	0.0329251	0.0639781	30.9728	112834	187990	219253	-59.0272	0.0000000E+000	0.0000000E+000	0.0000000E+000	59.0272	0.0000000E+000	0.0000000E+000	0.0000000E+000	-59.0272	0.0000000E+000	0.0000000E+000	0.0000000E+000	-30.9728	0.0000000E+000	0.0000000E+000	0.0000000E+000	30.9728	1.66607	59.0272	-2.36382e-06	-5.59527e-06	-2.0107e-09	-5.59326e-06	0.257454	11854.7	4.26008	11850.5
31.6296	15.8761	7.81146	17.6937	-26.1985	11.2105	0.257566	-0.00622175	644.162	125.551	1	11	0.00479084	0.000270765	0	-5.22543e-05	0.000207096	7.93267e-06	-16.6277	0.0292973	0.0280722	0.00838347	-26.1827	17.7226	15.9041	7.81984	0.0507112	0.0249513	0.0565172	26.1985	125551	255171	284386	-63.8015	0.0000000E+000	0.0000000E+000	0.0000000E+000	63.8015	0.0000000E+000	0.0000000E+000	0.0000000E+000	-63.8015	0.0000000E+000	0.0000000E+000	0.0000000E+000	-26.1985	0.0000000E+000	0.0000000E+000	0.0000000E+000	26.1985	2.03241	63.8015	-2.06873e-06	-1.60251e-06	-1.2885e-09	-1.60122e-06	0.257359	41397.7	33.2859	41364.4
21.5517	18.0429	7.17793	19.4183	-21.6939	11.6314	0.257566	-0.00613003	1028.82	140.577	1	11	0.00478685	0.000246512	0	-5.29092e-05	-0.000231993	9.77657e-06	46.2878	0.0396596	0.0274062	-0.0286667	-21.5855	19.4332	18.0703	7.14926	0.0478503	0.019036	0.0514978	21.6939	140577	353365	380301	-68.3061	0.0000000E+000	0.0000000E+000	0.0000000E+000	68.3061	0.0000000E+000	0.0000000E+000	0.0000000E+000	-68.3061	0.0000000E+000	0.0000000E+000	0.0000000E+000	-21.6939	0.0000000E+000	0.0000000E+000	0.0000000E+000	21.6939	2.51367	68.3061	-6.54909e-07	-1.57889e-06	1.42212e-09	-1.58031e-06	0.257798	42017.1	37.8454	42054.9
14.6852	19.8036	6.42359	20.8193	-17.9712	12.0922	0.257567	-0.00562258	1687.19	160.615	1	11	0.00477947	0.000229568	0	-5.3553e-05	0.000226187	6.65155e-06	-73.3407	0.0289742	0.00830632	0.027758	-18.0368	20.8358	19.8119	6.45135	0.0456888	0.0148199	0.0480322	17.9712	160615	495167	520564	-72.0288	0.0000000E+000	0.0000000E+000	0.0000000E+000	72.0288	0.0000000E+000	0.0000000E+000	0.0000000E+000	-72.0288	0.0000000E+000	0.0000000E+000	0.0000000E+000	-17.9712	0.0000000E+000	0.0000000E+000	0.0000000E+000	17.9712	3.08295	72.0288	-6.43766e-07	-1.44819e-06	-1.27175e-09	-1.44692e-06	0.257341	45809.4	40.2284	45769.2
10.0032	21.2907	5.69763	22.0399	-14.9819	12.5428	0.257553	-0.00574263	2792.46	186.619	1	11	0.00478306	0.000217018	0	-5.58129e-05	9.25513e-05	1.05755e-05	-70.6302	0.048731	0.0161623	0.0459727	-15.0864	22.0674	21.3069	5.7436	0.0438299	0.0117294	0.0453723	14.9819	186619	697352	721891	-75.0181	0.0000000E+000	0.0000000E+000	0.0000000E+000	75.0181	0.0000000E+000	0.0000000E+000	0.0000000E+000	-75.0181	0.0000000E+000	0.0000000E+000	0.0000000E+000	-14.9819	0.0000000E+000	0.0000000E+000	0.0000000E+000	14.9819	3.73676	75.0181	-2.25994e-06	-1.47903e-06	-5.31488e-10	-1.4785e-06	0.25746	44849.2	16.1165	44833.1
6.81719	22.5495	5.03374	23.1045	-12.5839	12.8825	0.25757	-0.00494883	4637.93	220.147	1	11	0.00478531	0.000207116	0	-5.52425e-05	0.000398005	8.43715e-06	-43.0233	0.0407363	0.0297814	0.0277942	-12.635	23.1396	22.5792	5.06153	0.042242	0.00942972	0.0432817	12.5839	220147	986186	1.01046e+06	-77.4161	0.0000000E+000	0.0000000E+000	0.0000000E+000	77.4161	0.0000000E+000	0.0000000E+000	0.0000000E+000	-77.4161	0.0000000E+000	0.0000000E+000	0.0000000E+000	-12.5839	0.0000000E+000	0.0000000E+000	0.0000000E+000	12.5839	4.47966	77.4161	5.70421e-07	-1.27467e-06	-1.96966e-09	-1.2727e-06	0.257172	52046.6	80.424	51966.1
4.63925	23.5861	4.4201	23.9967	-10.6143	13.3664	0.257578	-0.00471505	7761.4	263.331	1	11	0.00479031	0.000199624	0	-5.43775e-05	0.000188005	7.68597e-06	-16.667	0.0385023	0.0368847	0.0110428	-10.624	24.035	23.623	4.43114	0.0409594	0.00767591	0.0416724	10.6143	263331	1.40516e+06	1.42962e+06	-79.3857	0.0000000E+000	0.0000000E+000	0.0000000E+000	79.3857	0.0000000E+000	0.0000000E+000	0.0000000E+000	-79.3857	0.0000000E+000	0.0000000E+000	0.0000000E+000	-10.6143	0.0000000E+000	0.0000000E+000	0.0000000E+000	10.6143	5.3361	79.3857	8.64956e-07	-1.21449e-06	-8.86456e-10	-1.21361e-06	0.25739	54628.8	39.8734	54588.9
3.1604	24.4665	4.04074	24.7979	-9.37799	14.0595	0.257576	-0.00415	12462.9	330.91	1	11	0.0047756	0.000192581	0	-5.69401e-05	0.000359823	1.26772e-05	24.6784	0.065828	0.0598156	-0.0274848	-9.293	24.8525	24.5263	4.01326	0.039787	0.006571	0.040326	9.37799	330910	2.00364e+06	2.03078e+06	-80.622	0.0000000E+000	0.0000000E+000	0.0000000E+000	80.622	0.0000000E+000	0.0000000E+000	0.0000000E+000	-80.622	0.0000000E+000	0.0000000E+000	0.0000000E+000	-9.37799	0.0000000E+000	0.0000000E+000	0.0000000E+000	9.37799	6.05494	80.622	-2.56261e-06	-1.06894e-06	-1.49327e-09	-1.06745e-06	0.257216	62066.6	86.7044	61979.9
2.15577	25.3306	3.63654	25.5904	-8.16972	15.0631	0.257571	-0.0037943	20301.6	409.972	1	11	0.00478536	0.000186998	0	-6.12396e-05	0.000378914	2.82201e-06	33.7825	0.0150911	0.012543	-0.00839128	-8.14714	25.6016	25.3432	3.62815	0.0386807	0.0055531	0.0390772	8.16972	409972	2.8557e+06	2.88497e+06	-81.8303	0.0000000E+000	0.0000000E+000	0.0000000E+000	81.8303	0.0000000E+000	0.0000000E+000	0.0000000E+000	-81.8303	0.0000000E+000	0.0000000E+000	0.0000000E+000	-8.16972	0.0000000E+000	0.0000000E+000	0.0000000E+000	8.16972	6.9656	81.8303	-4.2995e-06	-9.77302e-07	-1.43771e-09	-9.75864e-07	0.257192	67883.8	99.8641	67783.9
1.46631	26.1486	3.32433	26.3591	-7.24526	16.5244	0.257569	-0.00395816	32650.5	519.323	1	11	0.00478609	0.000181572	0	-6.40752e-05	0.000168915	2.26446e-06	17.7591	0.0124714	0.0118771	-0.00380398	-7.23381	26.3704	26.1605	3.32053	0.0376346	0.00478457	0.0379376	7.24526	519322	4.08491e+06	4.11779e+06	-82.7547	0.0000000E+000	0.0000000E+000	0.0000000E+000	82.7547	0.0000000E+000	0.0000000E+000	0.0000000E+000	-82.7547	0.0000000E+000	0.0000000E+000	0.0000000E+000	-7.24526	0.0000000E+000	0.0000000E+000	0.0000000E+000	7.24526	7.86584	82.7547	-2.83551e-06	-1.0195e-06	-6.68592e-10	-1.01883e-06	0.2574	65073	42.675	65030.3
1.00006	26.847	3.09938	27.0253	-6.58542	19.6978	0.257571	-0.00385156	51347.3	675.346	1	12	0.00479128	0.000177289	0	-6.38216e-05	-0.000117448	3.67466e-06	-81.4191	0.020727	0.0030926	0.0204949	-6.62783	27.0307	26.8501	3.11988	0.0367582	0.0042436	0.0370024	6.58542	675346	5.84988e+06	5.88874e+06	-83.4146	0.0000000E+000	0.0000000E+000	0.0000000E+000	83.4146	0.0000000E+000	0.0000000E+000	0.0000000E+000	-83.4146	0.0000000E+000	0.0000000E+000	0.0000000E+000	-6.58542	0.0000000E+000	0.0000000E+000	0.0000000E+000	6.58542	8.66205	83.4146	2.5354e-07	-9.92051e-07	4.52359e-10	-9.92503e-07	0.257688	66874.4	30.4936	66904.9
0.681362	27.453	2.8776	27.6034	-5.98384	22.8101	0.257565	-0.00391172	81173.1	882.159	1	12	0.00478919	0.0001735	0	-5.94185e-05	0.000130733	4.07614e-06	3.97734	0.0234936	0.023437	-0.00162956	-5.97541	27.6265	27.4764	2.87597	0.03603	0.00377663	0.0362274	5.98384	882158	8.41602e+06	8.46212e+06	-84.0162	0.0000000E+000	0.0000000E+000	0.0000000E+000	84.0162	0.0000000E+000	0.0000000E+000	0.0000000E+000	-84.0162	0.0000000E+000	0.0000000E+000	0.0000000E+000	-5.98384	0.0000000E+000	0.0000000E+000	0.0000000E+000	5.98384	9.54026	84.0162	4.40309e-06	-1.00752e-06	-5.11391e-10	-1.00701e-06	0.257434	65844.4	33.4208	65811
0.464091	27.9827	2.71945	28.1146	-5.55076	27.3666	0.257572	-0.00293455	126106	1179.88	1	12	0.00478294	0.000170123	0	-5.55102e-05	0.000398005	7.04171e-06	-108.118	0.0413919	-0.0128719	0.0393396	-5.63312	28.1056	27.9699	2.75879	0.035402	0.00344048	0.0355688	5.55076	1.17988e+06	1.21407e+07	1.21979e+07	-84.4492	0.0000000E+000	0.0000000E+000	0.0000000E+000	84.4492	0.0000000E+000	0.0000000E+000	0.0000000E+000	-84.4492	0.0000000E+000	0.0000000E+000	0.0000000E+000	-5.55076	0.0000000E+000	0.0000000E+000	0.0000000E+000	5.55076	10.2898	84.4492	3.90834e-06	-7.5586e-07	-1.16797e-09	-7.54692e-07	0.257174	87772.3	135.627	87636.7
0.316193	28.5203	2.72377	28.65	-5.45537	34.04	0.257571	-0.00193839	184798	1670.27	1	12	0.00478957	0.000167175	0	-5.83585e-05	0.000302551	2.54627e-06	6.53468	0.0152312	0.0151322	-0.00173338	-5.44904	28.6649	28.5354	2.72204	0.0347459	0.00331833	0.034904	5.45537	1.67027e+06	1.74892e+07	1.75688e+07	-84.5446	0.0000000E+000	0.0000000E+000	0.0000000E+000	84.5446	0.0000000E+000	0.0000000E+000	0.0000000E+000	-84.5446	0.0000000E+000	0.0000000E+000	0.0000000E+000	-5.45537	0.0000000E+000	0.0000000E+000	0.0000000E+000	5.45537	10.4709	84.5446	-2.84829e-06	-4.99275e-07	-5.86462e-10	-4.98689e-07	0.257269	132879	156.083	132723
0.215268	28.9483	2.90595	29.0938	-5.73238	43.8334	0.25757	-0.0010149	254421	2538.21	1	12	0.00478854	0.000164589	0	-7.41268e-05	0.000149824	2.29878e-06	-11.9562	0.0139667	0.0136638	0.0028934	-5.73536	29.1077	28.962	2.90885	0.0341997	0.0034331	0.0343715	5.73238	2.53821e+06	2.5285e+07	2.54121e+07	-84.2676	0.0000000E+000	0.0000000E+000	0.0000000E+000	84.2676	0.0000000E+000	0.0000000E+000	0.0000000E+000	-84.2676	0.0000000E+000	0.0000000E+000	0.0000000E+000	-5.73238	0.0000000E+000	0.0000000E+000	0.0000000E+000	5.73238	9.96174	84.2676	-1.57683e-05	-2.61407e-07	-1.52056e-10	-2.61255e-07	0.25742	253789	147.625	253641
0.146929	29.3795	3.2662	29.5605	-6.34368	58.1719	0.257566	-0.000857378	331643	4048.86	1	12	0.00478834	0.000161985	0	-0.000107786	7.34604e-05	2.18594e-06	-4.20141	0.0134947	0.0134585	0.000988659	-6.34271	29.574	29.3929	3.26719	0.0336218	0.00373783	0.033829	6.34368	4.04886e+06	3.64195e+07	3.66439e+07	-83.6563	0.0000000E+000	0.0000000E+000	0.0000000E+000	83.6563	0.0000000E+000	0.0000000E+000	0.0000000E+000	-83.6563	0.0000000E+000	0.0000000E+000	0.0000000E+000	-6.34368	0.0000000E+000	0.0000000E+000	0.0000000E+000	6.34368	8.99501	83.6563	-3.36589e-05	-2.20832e-07	-6.29834e-11	-2.20769e-07	0.257493	300411	85.6803	300326
0.0999041	29.9215	3.85122	30.1683	-7.33427	79.2479	0.257564	-0.00135473	413655	6741.14	1	12	0.0047921	0.000158845	0	-0.000156212	-0.000270175	2.08796e-06	-11.9714	0.0131446	0.0128587	0.00272649	-7.33629	30.1814	29.9344	3.85395	0.0328761	0.00423152	0.0331473	7.33427	6.74114e+06	5.23742e+07	5.28063e+07	-82.6657	0.0000000E+000	0.0000000E+000	0.0000000E+000	82.6657	0.0000000E+000	0.0000000E+000	0.0000000E+000	-82.6657	0.0000000E+000	0.0000000E+000	0.0000000E+000	-7.33427	0.0000000E+000	0.0000000E+000	0.0000000E+000	7.33427	7.76935	82.6657	-4.84264e-05	-3.48931e-07	3.66015e-10	-3.49297e-07	0.257835	190122	199.43	190321
0.0680626	30.6255	4.8321	31.0043	-8.96624	110.175	0.257565	-0.001671	483922	11754.5	1	12	0.0047877	0.00015442	0	-0.000204783	0.000149824	2.00374e-06	-54.2254	0.0129759	0.00758569	0.0105276	-8.98326	31.0135	30.633	4.84263	0.0318594	0.00502679	0.0322536	8.96624	1.17545e+07	7.44989e+07	7.54205e+07	-81.0338	0.0000000E+000	0.0000000E+000	0.0000000E+000	81.0338	0.0000000E+000	0.0000000E+000	0.0000000E+000	-81.0338	0.0000000E+000	0.0000000E+000	0.0000000E+000	-8.96624	0.0000000E+000	0.0000000E+000	0.0000000E+000	8.96624	6.33792	81.0338	-4.8571e-05	-4.30393e-07	-2.50356e-10	-4.30142e-07	0.257415	154138	89.6609	154048
0.0464052	31.4654	6.26814	32.0837	-11.2662	155.527	0.257562	-0.00215153	547161	20884.5	1	12	0.00479134	0.000149339	0	-0.000221752	5.43696e-05	1.72515e-06	-12.9678	0.0115519	0.0112573	0.00259229	-11.2669	32.0952	31.4767	6.27073	0.0305679	0.00608933	0.0311685	11.2662	2.08845e+07	1.04838e+08	1.06898e+08	-78.7338	0.0000000E+000	0.0000000E+000	0.0000000E+000	78.7338	0.0000000E+000	0.0000000E+000	0.0000000E+000	-78.7338	0.0000000E+000	0.0000000E+000	0.0000000E+000	-11.2662	0.0000000E+000	0.0000000E+000	0.0000000E+000	11.2662	5.0199	78.7338	-1.69686e-05	-5.54153e-07	-1.16978e-10	-5.54036e-07	0.257508	119711	25.2702	119686
0.0315922	32.3233	8.12109	33.3279	-14.1034	222.131	0.257558	-0.00179689	620334	36833.2	1	12	0.00478669	0.000143624	0	-0.000161667	0.00028346	2.18141e-06	-2.63901	0.0151884	0.0151722	0.00069932	-14.0982	33.3428	32.3385	8.12179	0.0291005	0.00731138	0.0300049	14.1034	3.68332e+07	1.46602e+08	1.51159e+08	-75.8966	0.0000000E+000	0.0000000E+000	0.0000000E+000	75.8966	0.0000000E+000	0.0000000E+000	0.0000000E+000	-75.8966	0.0000000E+000	0.0000000E+000	0.0000000E+000	-14.1034	0.0000000E+000	0.0000000E+000	0.0000000E+000	14.1034	3.98017	75.8966	6.00846e-05	-4.62803e-07	-5.09346e-10	-4.62293e-07	0.257274	143335	157.75	143177
0.0215268	33.535	10.3802	35.1048	-17.199	319.87	0.257556	-0.000801807	712253	62275.1	1	12	0.00478929	0.000136428	0	-3.63801e-06	1.61879e-05	1.15743e-06	-42.3496	0.00848379	0.00626994	0.00571512	-17.2049	35.1125	33.5413	10.3859	0.0272123	0.00842312	0.0284861	17.199	6.22751e+07	2.0119e+08	2.10608e+08	-72.8009	0.0000000E+000	0.0000000E+000	0.0000000E+000	72.8009	0.0000000E+000	0.0000000E+000	0.0000000E+000	-72.8009	0.0000000E+000	0.0000000E+000	0.0000000E+000	-17.199	0.0000000E+000	0.0000000E+000	0.0000000E+000	17.199	3.23067	72.8009	0.000158029	-2.0651e-07	-1.29796e-11	-2.06498e-07	0.25754	321220	20.1893	321199
0.0146812	35.3896	13.5089	37.8803	-20.8927	463.173	0.257552	4.55149e-05	802492	102059	1	12	0.0047885	0.000126411	0	0.000195474	1.61879e-05	2.39268e-06	-6.80643	0.0189277	0.0187943	0.00224323	-20.8858	37.8986	35.4084	13.5111	0.0246632	0.00941439	0.026399	20.8927	1.02059e+08	2.67368e+08	2.86185e+08	-69.1073	0.0000000E+000	0.0000000E+000	0.0000000E+000	69.1073	0.0000000E+000	0.0000000E+000	0.0000000E+000	-69.1073	0.0000000E+000	0.0000000E+000	0.0000000E+000	-20.8927	0.0000000E+000	0.0000000E+000	0.0000000E+000	20.8927	2.61974	69.1073	0.000199112	1.17225e-08	7.36791e-13	1.17217e-08	0.257536	5.65864e+06	355.662	5.65828e+06
0.0100092	37.5235	17.9873	41.612	-25.6112	673.355	0.25756	0.000388228	884008	165178	1	12	0.00478846	0.000115074	0	0.000284953	0.000130733	2.23136e-06	-14.3401	0.0193907	0.0187865	0.00480261	-25.606	41.631	37.5423	17.9921	0.0216704	0.0103879	0.0240315	25.6112	1.65178e+08	3.44579e+08	3.82123e+08	-64.3888	0.0000000E+000	0.0000000E+000	0.0000000E+000	64.3888	0.0000000E+000	0.0000000E+000	0.0000000E+000	-64.3888	0.0000000E+000	0.0000000E+000	0.0000000E+000	-25.6112	0.0000000E+000	0.0000000E+000	0.0000000E+000	25.6112	2.08611	64.3888	8.94784e-05	9.99921e-08	5.07543e-11	9.99414e-08	0.257429	663424	336.742	663087