File: txt/19071_R307_UA701_4p38_SOC00_C08.mpt
EC-Lab ASCII FILE
Nb header lines : 65

Potentio Electrochemical Impedance Spectroscopy

Run on channel : 8 (SN 65398)
Grouped channel(s) : 6, 7, 8
User :
CE vs. WE compliance from -10 V to 10 V
Electrode connection : standard
Potential control : Ewe
Ewe ctrl range : min = -10.00 V, max = 10.00 V
Safety Limits :
	Do not start on E overload
Acquisition started on : 11/12/2025 10:26:23.601
Loaded Setting File :  C:\Users\Celltest\OneDrive - store-dot.com\Documents\EC-Lab\Data\@Biologic Test Protocols\anode half cell EIS SOC00.mps
Saved on :
	File : 19067_R307_UA701_4p38_SOC00_C08.mpr
	Directory : C:\Users\Celltest\OneDrive - store-dot.com\Documents\EC-Lab\Data\Anna\
	Host : 169.254.61.224
Device : VMP-3e (SN .003165)
Address : USB
EC-LAB for windows v11.62 (software)
Internet server v27.00 (firmware)
Command interpretor v12.03 (firmware)
Electrode material :
Initial state :
Electrolyte :
Comments :
Electrode surface area : 0.001 cm²
Characteristic mass : 0.001 g
Equivalent Weight : 0.000 g/eq.
Density : 0.000 g/cm3
Volume (V) : 0.001 cm³
Record Ece
Cycle Definition : Charge/Discharge alternance
Mode                Single sine
E (V)               0.0000
vs.                 Eoc
tE (h:m:s)          0:00:0.0000
record              0
dI                  0.000
unit dI             mA
dt (s)              0.000
fi                  100.000
unit fi             kHz
ff                  10.000
unit ff             mHz
Nd                  6
Points              per decade
spacing             Logarithmic
Va (mV)             5.0
pw                  0.10
Na                  2
corr                0
E range min (V)     -10.000
E range max (V)     10.000
I Range             Auto
Bandwidth           5
nc cycles           0
goto Ns'            0
nr cycles           0
inc. cycle          0

freq/Hz	Re(Z)/Ohm	-Im(Z)/Ohm	|Z|/Ohm	Phase(Z)/deg	time/s	<Ewe>/V	<I>/mA	Cs/µF	Cp/µF	cycle number	I Range	|Ewe|/V	|I|/A	Ns	(Q-Qo)/mA.h	<Ece>/V	|Ece|/V	Phase(Zce)/deg	|Zce|/Ohm	Re(Zce)/Ohm	-Im(Zce)/Ohm	Phase(Zwe-ce)/deg	|Zwe-ce|/Ohm	Re(Zwe-ce)/Ohm	-Im(Zwe-ce)/Ohm	Re(Y)/Ohm-1	Im(Y)/Ohm-1	|Y|/Ohm-1	Phase(Y)/deg	Re(C)/nF	Im(C)/nF	|C|/nF	Phase(C)/deg	Re(M)	Im(M)	|M|	Phase(M)/deg	Re(Permittivity)	Im(Permittivity)	|Permittivity|	Phase(Permittivity)/deg	Re(Resistivity)/Ohm.cm	Im(Resistivity)/Ohm.cm	|Resistivity|/Ohm.cm	Phase(Resistivity)/deg	Re(Conductivity)/mS/cm	Im(Conductivity)/mS/cm	|Conductivity|/mS/cm	Phase(Conductivity)/deg	Tan(Delta)	Loss Angle(Delta)/deg	dq/mA.h	Pwe/W	Pce/W	Pwe-ce/W	<Ewe-Ece>/V	Rwe/Ohm	Rce/Ohm	Rwe-ce/Ohm		Ewe-Ece/V
100004	1.07208	0.373927	1.13542	-19.228	1.72652	0.263234	0.00163933	4.25616	0.461612	1	9	0.00451955	0.00398051	0	-4.56664e-07	0.00024868	5.2297e-05	81.3884	0.0131383	0.00196726	-0.0129902	-18.575	1.13307	1.07405	0.360936	0.8316	0.29005	0.880731	19.228	461.612	1323.48	1401.68	-70.772	0.0000000E+000	0.0000000E+000	0.0000000E+000	70.772	0.0000000E+000	0.0000000E+000	0.0000000E+000	-70.772	0.0000000E+000	0.0000000E+000	0.0000000E+000	-19.228	0.0000000E+000	0.0000000E+000	0.0000000E+000	19.228	2.86709	70.772	-4.56664e-07	4.31527e-07	4.07668e-10	4.3112e-07	0.262986	160575	151.696	160423
68132	1.16966	0.413544	1.24061	-19.4715	2.10952	0.263227	0.00175097	5.64868	0.627649	1	9	0.0054951	0.00442934	0	-1.80484e-05	0.000229592	4.59479e-05	80.5618	0.0103735	0.00170109	-0.0102331	-18.9991	1.23885	1.17136	0.403311	0.759952	0.268688	0.806053	19.4715	627.649	1775.23	1882.92	-70.5285	0.0000000E+000	0.0000000E+000	0.0000000E+000	70.5285	0.0000000E+000	0.0000000E+000	0.0000000E+000	-70.5285	0.0000000E+000	0.0000000E+000	0.0000000E+000	-19.4715	0.0000000E+000	0.0000000E+000	0.0000000E+000	19.4715	2.82838	70.5285	-1.75918e-05	4.60901e-07	4.02007e-10	4.60499e-07	0.262997	150332	131.123	150201
46420.4	1.27419	0.450706	1.35155	-19.4797	2.61651	0.263235	0.00930298	7.60709	0.845937	1	9	0.00505032	0.00373668	0	-5.13154e-06	0.000115063	1.95476e-05	29.0443	0.00523128	0.00457342	-0.00253971	-19.3139	1.35502	1.27876	0.448166	0.697538	0.246733	0.739889	19.4797	845.937	2391.55	2536.75	-70.5203	0.0000000E+000	0.0000000E+000	0.0000000E+000	70.5203	0.0000000E+000	0.0000000E+000	0.0000000E+000	-70.5203	0.0000000E+000	0.0000000E+000	0.0000000E+000	-19.4797	0.0000000E+000	0.0000000E+000	0.0000000E+000	19.4797	2.8271	70.5203	1.29169e-05	2.44887e-06	1.07043e-09	2.4478e-06	0.26312	28295.8	12.3684	28283.4
31621.1	1.3833	0.496274	1.46963	-19.7359	3.12352	0.263247	0.0130976	10.1419	1.1565	1	9	0.00508163	0.00345776	0	-4.31489e-06	7.68873e-05	1.84762e-05	26.7903	0.00534341	0.00476986	-0.00240842	-19.5851	1.47331	1.38807	0.493865	0.640473	0.229776	0.680443	19.7359	1156.5	3223.61	3424.79	-70.2641	0.0000000E+000	0.0000000E+000	0.0000000E+000	70.2641	0.0000000E+000	0.0000000E+000	0.0000000E+000	-70.2641	0.0000000E+000	0.0000000E+000	0.0000000E+000	-19.7359	0.0000000E+000	0.0000000E+000	0.0000000E+000	19.7359	2.78738	70.2641	8.16647e-07	3.44791e-06	1.00704e-09	3.4469e-06	0.26317	20098.9	5.87033	20093
21544.7	1.50368	0.544321	1.59917	-19.8999	3.50652	0.263227	0.00357383	13.5714	1.57234	1	9	0.00535687	0.00334978	0	-1.34192e-05	0.000115063	5.89233e-06	64.4575	0.00175902	0.000758455	-0.0015871	-19.8372	1.59934	1.50444	0.542734	0.587985	0.212846	0.625324	19.8999	1572.34	4343.57	4619.4	-70.1001	0.0000000E+000	0.0000000E+000	0.0000000E+000	70.1001	0.0000000E+000	0.0000000E+000	0.0000000E+000	-70.1001	0.0000000E+000	0.0000000E+000	0.0000000E+000	-19.8999	0.0000000E+000	0.0000000E+000	0.0000000E+000	19.8999	2.76249	70.1001	-9.10431e-06	9.40729e-07	4.11217e-10	9.40317e-07	0.263112	73654	32.1961	73621.8
14678.6	1.62068	0.595309	1.72656	-20.1693	3.88954	0.263234	0.00197414	18.2135	2.16528	1	9	0.00504497	0.00292198	0	-1.89059e-05	-0.000495754	1.31641e-05	-11.6383	0.00450522	0.00441259	0.000908853	-20.1471	1.73102	1.6251	0.596218	0.543669	0.1997	0.579186	20.1693	2165.28	5894.82	6279.92	-69.8307	0.0000000E+000	0.0000000E+000	0.0000000E+000	69.8307	0.0000000E+000	0.0000000E+000	0.0000000E+000	-69.8307	0.0000000E+000	0.0000000E+000	0.0000000E+000	-20.1693	0.0000000E+000	0.0000000E+000	0.0000000E+000	20.1693	2.72243	69.8307	-5.48666e-06	5.19661e-07	-9.78688e-10	5.2064e-07	0.26373	133341	251.124	133592
10002.2	1.75149	0.670971	1.87561	-20.9612	4.14855	0.263241	0.00781489	23.7148	3.03489	1	9	0.00512449	0.00273218	0	-1.95436e-05	3.87112e-05	2.90696e-06	-18.2693	0.00106397	0.00101034	0.000333537	-20.9597	1.87667	1.7525	0.671305	0.497878	0.19073	0.533161	20.9612	3034.89	7922.21	8483.63	-69.0388	0.0000000E+000	0.0000000E+000	0.0000000E+000	69.0388	0.0000000E+000	0.0000000E+000	0.0000000E+000	-69.0388	0.0000000E+000	0.0000000E+000	0.0000000E+000	-20.9612	0.0000000E+000	0.0000000E+000	0.0000000E+000	20.9612	2.61037	69.0388	-6.37733e-07	2.0572e-06	3.02523e-10	2.05689e-06	0.263202	33684.5	4.95352	33679.6
6810.42	1.90457	0.759156	2.0503	-21.7321	4.40756	0.263237	0.00561994	30.7833	4.22031	1	9	0.00500194	0.00243962	0	-2.07179e-05	0.000325032	5.50565e-05	-47.0298	0.0225677	0.0153825	0.0165129	-21.9989	2.07072	1.91995	0.775668	0.453069	0.180592	0.487735	21.7321	4220.31	10587.9	11398	-68.2679	0.0000000E+000	0.0000000E+000	0.0000000E+000	68.2679	0.0000000E+000	0.0000000E+000	0.0000000E+000	-68.2679	0.0000000E+000	0.0000000E+000	0.0000000E+000	-21.7321	0.0000000E+000	0.0000000E+000	0.0000000E+000	21.7321	2.5088	68.2679	-1.17432e-06	1.47937e-06	1.82666e-09	1.47755e-06	0.262912	46839.7	57.8355	46781.9
4646	2.06905	0.869201	2.24421	-22.7871	4.67363	0.263193	-0.0158458	39.4113	5.91199	1	9	0.00487145	0.00217068	0	-1.97917e-05	0.000115063	1.06722e-05	1.58887	0.00491655	0.00491466	-0.000136323	-22.7354	2.24869	2.07397	0.869065	0.410813	0.172581	0.445591	22.7871	5911.99	14072.9	15264.3	-67.2129	0.0000000E+000	0.0000000E+000	0.0000000E+000	67.2129	0.0000000E+000	0.0000000E+000	0.0000000E+000	-67.2129	0.0000000E+000	0.0000000E+000	0.0000000E+000	-22.7871	0.0000000E+000	0.0000000E+000	0.0000000E+000	22.7871	2.38041	67.2129	9.26192e-07	-4.17049e-06	-1.82327e-09	-4.16867e-06	0.263078	16609.7	7.26146	16602.4
3163.08	2.27533	1.00148	2.48598	-23.7564	5.04664	0.263025	-0.0698634	50.2423	8.1537	1	9	0.00478634	0.00192533	0	-2.76757e-05	7.68873e-05	6.18478e-06	19.5684	0.00321232	0.00302678	-0.00107591	-23.7057	2.48832	2.27836	1.0004	0.368171	0.162048	0.402256	23.7564	8153.7	18525.1	20240.1	-66.2436	0.0000000E+000	0.0000000E+000	0.0000000E+000	66.2436	0.0000000E+000	0.0000000E+000	0.0000000E+000	-66.2436	0.0000000E+000	0.0000000E+000	0.0000000E+000	-23.7564	0.0000000E+000	0.0000000E+000	0.0000000E+000	23.7564	2.27198	66.2436	-7.88399e-06	-1.83758e-05	-5.37161e-09	-1.83705e-05	0.262948	3764.85	1.10054	3763.75
2155.69	2.49461	1.14155	2.7434	-24.5891	5.49778	0.263097	0.00171369	64.6754	11.1983	1	9	0.00472726	0.00172314	0	-2.60283e-05	0.000115063	9.31314e-06	-25.2806	0.00540475	0.00488712	0.00230811	-24.5905	2.7488	2.4995	1.14386	0.331456	0.151676	0.364512	24.5891	11198.3	24471.5	26912	-65.4109	0.0000000E+000	0.0000000E+000	0.0000000E+000	65.4109	0.0000000E+000	0.0000000E+000	0.0000000E+000	-65.4109	0.0000000E+000	0.0000000E+000	0.0000000E+000	-24.5891	0.0000000E+000	0.0000000E+000	0.0000000E+000	24.5891	2.18528	65.4109	1.64739e-06	4.50866e-07	1.97183e-10	4.50669e-07	0.262982	153527	67.1438	153460
1468.59	2.73677	1.32742	3.0417	-25.8749	5.94905	0.263097	0.00591753	81.6414	15.5488	1	9	0.00466219	0.00153276	0	-2.56999e-05	-0.000113993	3.59432e-05	-71.3353	0.0234501	0.00750472	0.0222168	-26.1881	3.0582	2.74427	1.34964	0.295805	0.143475	0.328763	25.8749	15548.8	32057.1	35628.9	-64.1251	0.0000000E+000	0.0000000E+000	0.0000000E+000	64.1251	0.0000000E+000	0.0000000E+000	0.0000000E+000	-64.1251	0.0000000E+000	0.0000000E+000	0.0000000E+000	-25.8749	0.0000000E+000	0.0000000E+000	0.0000000E+000	25.8749	2.06172	64.1251	3.2838e-07	1.55689e-06	-6.74559e-10	1.55756e-06	0.263211	44460.7	19.2636	44479.9
1000.32	3.02029	1.55592	3.39751	-27.2556	6.64481	0.26313	-0.0248528	102.257	21.4461	1	10	0.00476133	0.00140142	0	-3.09549e-05	5.77992e-05	1.86131e-05	33.3655	0.0132816	0.0110925	-0.00730461	-27.0608	3.40404	3.03138	1.54862	0.261654	0.134793	0.294333	27.2556	21446.1	41630.3	46829.6	-62.7444	0.0000000E+000	0.0000000E+000	0.0000000E+000	62.7444	0.0000000E+000	0.0000000E+000	0.0000000E+000	-62.7444	0.0000000E+000	0.0000000E+000	0.0000000E+000	-27.2556	0.0000000E+000	0.0000000E+000	0.0000000E+000	27.2556	1.94116	62.7444	-5.25494e-06	-6.53953e-06	-1.43647e-09	-6.53809e-06	0.263073	10587.5	2.32566	10585.2
681.09	3.34075	1.86631	3.82672	-29.19	7.0956	0.263124	-0.0246259	125.208	29.7816	1	10	0.00470844	0.00123041	0	-3.40197e-05	0.00024868	1.40476e-05	-118.537	0.0114169	-0.00545422	0.0100299	-29.3609	3.82686	3.3353	1.87634	0.228135	0.127448	0.261321	29.19	29781.6	53309.9	61064.6	-60.81	0.0000000E+000	0.0000000E+000	0.0000000E+000	60.81	0.0000000E+000	0.0000000E+000	0.0000000E+000	-60.81	0.0000000E+000	0.0000000E+000	0.0000000E+000	-29.19	0.0000000E+000	0.0000000E+000	0.0000000E+000	29.19	1.79003	60.81	-3.06486e-06	-6.47966e-06	-6.12396e-09	-6.47353e-06	0.262875	10684.8	10.0983	10674.7
463.961	3.7501	2.24079	4.36857	-30.8595	7.5473	0.263124	-0.0238931	153.086	40.2774	1	10	0.0046774	0.00107069	0	-3.67267e-05	-1.8553e-05	1.9454e-05	-60.2737	0.0181695	0.0090095	0.0157785	-30.9761	4.38441	3.75911	2.25657	0.196501	0.117415	0.228908	30.8595	40277.4	67406.7	78523.4	-59.1405	0.0000000E+000	0.0000000E+000	0.0000000E+000	59.1405	0.0000000E+000	0.0000000E+000	0.0000000E+000	-59.1405	0.0000000E+000	0.0000000E+000	0.0000000E+000	-30.8595	0.0000000E+000	0.0000000E+000	0.0000000E+000	30.8595	1.67356	59.1405	-2.70691e-06	-6.28685e-06	4.43288e-10	-6.28729e-06	0.263143	11012.6	0.776501	11013.4
316.316	4.26742	2.6984	5.04899	-32.3062	7.99508	0.263129	-0.0240233	186.463	53.2595	1	10	0.00464458	0.000919903	0	-3.97497e-05	0.000210504	1.27823e-05	-3.22998	0.0138953	0.0138732	0.000782916	-32.2298	5.06113	4.2813	2.69918	0.167401	0.105852	0.19806	32.3062	53259.5	84228	99654.1	-57.6938	0.0000000E+000	0.0000000E+000	0.0000000E+000	57.6938	0.0000000E+000	0.0000000E+000	0.0000000E+000	-57.6938	0.0000000E+000	0.0000000E+000	0.0000000E+000	-32.3062	0.0000000E+000	0.0000000E+000	0.0000000E+000	32.3062	1.58146	57.6938	-3.02302e-06	-6.32121e-06	-5.05699e-09	-6.31615e-06	0.262918	10953.1	8.76249	10944.3
215.345	4.96847	3.23771	5.9303	-33.0903	8.44556	0.263136	-0.0232272	228.27	68.0409	1	10	0.00463221	0.000781108	0	-4.35379e-05	-0.000190346	1.16881e-05	-57.843	0.0149635	0.00796419	0.012668	-33.1507	5.94389	4.97644	3.25037	0.141276	0.0920627	0.168625	33.0903	68040.9	104413	124626	-56.9097	0.0000000E+000	0.0000000E+000	0.0000000E+000	56.9097	0.0000000E+000	0.0000000E+000	0.0000000E+000	-56.9097	0.0000000E+000	0.0000000E+000	0.0000000E+000	-33.0903	0.0000000E+000	0.0000000E+000	0.0000000E+000	33.0903	1.53457	56.9097	-3.78819e-06	-6.11191e-06	4.42119e-09	-6.11633e-06	0.263326	11328.8	8.19494	11337
146.737	5.87604	3.76401	6.97822	-32.6423	8.89152	0.263121	-0.0240605	288.157	83.8378	1	10	0.00461507	0.000661353	0	-4.6792e-05	3.87112e-05	1.15055e-05	65.3746	0.017397	0.00724903	-0.0158147	-32.5008	6.97582	5.88329	3.74819	0.120669	0.0772966	0.143303	32.6423	83837.8	130880	155430	-57.3577	0.0000000E+000	0.0000000E+000	0.0000000E+000	57.3577	0.0000000E+000	0.0000000E+000	0.0000000E+000	-57.3577	0.0000000E+000	0.0000000E+000	0.0000000E+000	-32.6423	0.0000000E+000	0.0000000E+000	0.0000000E+000	32.6423	1.56111	57.3577	-3.25408e-06	-6.33082e-06	-9.3141e-10	-6.32989e-06	0.263082	10935.8	1.60891	10934.2
100.032	7.00601	4.23772	8.18795	-31.1685	9.34285	0.263124	-0.0233239	375.447	100.569	1	10	0.00461228	0.000563301	0	-4.91303e-05	0.000191416	1.01334e-05	-86.0408	0.0179893	0.00124209	0.0179463	-31.2713	8.19831	7.00725	4.25567	0.104501	0.0632095	0.122131	31.1685	100569	166265	194315	-58.8315	0.0000000E+000	0.0000000E+000	0.0000000E+000	58.8315	0.0000000E+000	0.0000000E+000	0.0000000E+000	-58.8315	0.0000000E+000	0.0000000E+000	0.0000000E+000	-31.1685	0.0000000E+000	0.0000000E+000	0.0000000E+000	31.1685	1.65325	58.8315	-2.33834e-06	-6.13709e-06	-4.46456e-09	-6.13262e-06	0.262933	11281.3	8.20683	11273.1
68.104	8.31976	4.52501	9.47069	-28.5412	9.80544	0.263131	-0.0208204	516.45	117.897	1	10	0.00461405	0.000487192	0	-5.14657e-05	0.000191416	5.20936e-06	-58.5813	0.0106926	0.00557393	0.00912487	-28.5735	9.47995	8.32533	4.53413	0.0927571	0.0504493	0.105589	28.5412	117897	216768	246755	-61.4588	0.0000000E+000	0.0000000E+000	0.0000000E+000	61.4588	0.0000000E+000	0.0000000E+000	0.0000000E+000	-61.4588	0.0000000E+000	0.0000000E+000	0.0000000E+000	-28.5412	0.0000000E+000	0.0000000E+000	0.0000000E+000	28.5412	1.83862	61.4588	-2.3354e-06	-5.4785e-06	-3.98535e-09	-5.47452e-06	0.26294	12638.2	9.19366	12629
46.4415	9.73239	4.58258	10.7573	-25.2138	10.2417	0.263123	-0.0259167	747.831	135.711	1	10	0.00461161	0.000428696	0	-5.44217e-05	0.000305944	1.33996e-05	-42.019	0.0312567	0.0232213	0.0209225	-25.2618	10.7872	9.75562	4.6035	0.0841033	0.0396007	0.0929601	25.2138	135712	288222	318574	-64.7862	0.0000000E+000	0.0000000E+000	0.0000000E+000	64.7862	0.0000000E+000	0.0000000E+000	0.0000000E+000	-64.7862	0.0000000E+000	0.0000000E+000	0.0000000E+000	-25.2138	0.0000000E+000	0.0000000E+000	0.0000000E+000	25.2138	2.12378	64.7862	-2.95598e-06	-6.81929e-06	-7.92907e-09	-6.81136e-06	0.262817	10152.6	11.8049	10140.8
31.6296	11.0259	4.37125	11.8608	-21.626	10.6716	0.263124	-0.0272559	1151.12	156.352	1	10	0.0046081	0.000388515	0	-5.81558e-05	0.000191416	5.33441e-06	38.9109	0.0137302	0.0106838	-0.00862413	-21.5682	11.8676	11.0366	4.36263	0.0783766	0.0310726	0.0843113	21.626	156352	394379	424241	-68.374	0.0000000E+000	0.0000000E+000	0.0000000E+000	68.374	0.0000000E+000	0.0000000E+000	0.0000000E+000	-68.374	0.0000000E+000	0.0000000E+000	0.0000000E+000	-21.626	0.0000000E+000	0.0000000E+000	0.0000000E+000	21.626	2.52237	68.374	-3.73416e-06	-7.17169e-06	-5.21721e-09	-7.16647e-06	0.262932	9653.82	7.0229	9646.79
21.5517	12.2174	4.04461	12.8695	-18.3173	11.0924	0.263114	-0.0295958	1825.83	180.341	1	10	0.00460973	0.000358192	0	-6.14752e-05	0.000172328	3.82589e-06	46.9394	0.0106811	0.00729276	-0.00780397	-18.2742	12.8739	12.2247	4.03681	0.0737661	0.0244206	0.0777033	18.3173	180341	544747	573823	-71.6827	0.0000000E+000	0.0000000E+000	0.0000000E+000	71.6827	0.0000000E+000	0.0000000E+000	0.0000000E+000	-71.6827	0.0000000E+000	0.0000000E+000	0.0000000E+000	-18.3173	0.0000000E+000	0.0000000E+000	0.0000000E+000	18.3173	3.02065	71.6827	-3.31939e-06	-7.78706e-06	-5.10017e-09	-7.78196e-06	0.262941	8890.24	5.8227	8884.42
14.6852	13.2325	3.65106	13.727	-15.425	11.8022	0.263156	-0.0104226	2968.4	209.995	1	11	0.00460641	0.000335573	0	-6.13343e-05	-0.000113993	6.05252e-06	54.3589	0.0180364	0.0105099	-0.0146579	-15.3544	13.7332	13.2431	3.6364	0.0702251	0.0193762	0.0728492	15.425	209995	761086	789526	-74.575	0.0000000E+000	0.0000000E+000	0.0000000E+000	74.575	0.0000000E+000	0.0000000E+000	0.0000000E+000	-74.575	0.0000000E+000	0.0000000E+000	0.0000000E+000	-15.425	0.0000000E+000	0.0000000E+000	0.0000000E+000	15.425	3.6243	74.575	1.40967e-07	-2.74276e-06	1.18811e-09	-2.74395e-06	0.26327	25248.6	10.9371	25259.5
10.0032	14.0878	3.24148	14.4559	-12.9578	12.2528	0.26316	-0.0103072	4908.37	246.794	1	11	0.00460942	0.000318862	0	-6.50913e-05	5.77992e-05	6.16687e-06	-30.5066	0.0193403	0.016663	0.00981785	-12.9808	14.4743	14.1044	3.2513	0.0674145	0.0155115	0.069176	12.9578	246795	1.07259e+06	1.10062e+06	-77.0422	0.0000000E+000	0.0000000E+000	0.0000000E+000	77.0422	0.0000000E+000	0.0000000E+000	0.0000000E+000	-77.0422	0.0000000E+000	0.0000000E+000	0.0000000E+000	-12.9578	0.0000000E+000	0.0000000E+000	0.0000000E+000	12.9578	4.34609	77.0422	-3.75703e-06	-2.71245e-06	-5.95748e-10	-2.71185e-06	0.263103	25531.7	5.60766	25526.1
6.81719	14.8077	2.88542	15.0862	-11.0264	12.5925	0.26315	-0.010739	8091.07	295.979	1	11	0.0046066	0.000305351	0	-6.32531e-05	7.68873e-05	9.4689e-06	4.64735	0.0310099	0.0309079	-0.0025125	-10.9947	15.1161	14.8386	2.8829	0.0650619	0.0126779	0.0662856	11.0264	295979	1.51894e+06	1.54751e+06	-78.9736	0.0000000E+000	0.0000000E+000	0.0000000E+000	78.9736	0.0000000E+000	0.0000000E+000	0.0000000E+000	-78.9736	0.0000000E+000	0.0000000E+000	0.0000000E+000	-11.0264	0.0000000E+000	0.0000000E+000	0.0000000E+000	11.0264	5.13192	78.9736	1.83817e-06	-2.82597e-06	-8.25692e-10	-2.82514e-06	0.263073	24504.2	7.15964	24497
4.63925	15.4822	2.523	15.6864	-9.25565	13.0765	0.263155	-0.00982441	13597.4	351.757	1	11	0.00461545	0.000294233	0	-6.49639e-05	-7.58172e-05	8.21022e-06	-31.0908	0.0279038	0.0238954	0.0144094	-9.2935	15.7123	15.5061	2.53741	0.0629196	0.0102535	0.0637495	9.25565	351757	2.15853e+06	2.187e+06	-80.7443	0.0000000E+000	0.0000000E+000	0.0000000E+000	80.7443	0.0000000E+000	0.0000000E+000	0.0000000E+000	-80.7443	0.0000000E+000	0.0000000E+000	0.0000000E+000	-9.25565	0.0000000E+000	0.0000000E+000	0.0000000E+000	9.25565	6.13642	80.7443	-1.71076e-06	-2.58535e-06	7.44859e-10	-2.58609e-06	0.263231	26785.9	7.71722	26793.6
3.1604	15.9636	2.21363	16.1164	-7.89468	13.7694	0.26315	-0.0094008	22749.6	429.188	1	11	0.00460802	0.000285922	0	-7.0755e-05	-0.000209434	2.89593e-06	-51.8609	0.0101284	0.00625502	0.00796613	-7.91966	16.1237	15.9699	2.22159	0.0614606	0.00852254	0.0620486	7.89468	429188	3.0951e+06	3.12472e+06	-82.1053	0.0000000E+000	0.0000000E+000	0.0000000E+000	82.1053	0.0000000E+000	0.0000000E+000	0.0000000E+000	-82.1053	0.0000000E+000	0.0000000E+000	0.0000000E+000	-7.89468	0.0000000E+000	0.0000000E+000	0.0000000E+000	7.89468	7.21153	82.1053	-5.7911e-06	-2.47382e-06	1.96884e-09	-2.47579e-06	0.263359	27992.3	22.2783	28014.6
2.15577	16.4322	1.94364	16.5467	-6.74575	14.7731	0.263156	-0.00869374	37984.1	524.095	1	11	0.00460777	0.00027847	0	-7.53413e-05	5.77992e-05	6.11369e-06	1.206	0.0219546	0.0219497	-0.00046208	-6.73525	16.5685	16.4541	1.94318	0.0600165	0.00709891	0.0604349	6.74575	524095	4.43087e+06	4.46176e+06	-83.2542	0.0000000E+000	0.0000000E+000	0.0000000E+000	83.2542	0.0000000E+000	0.0000000E+000	0.0000000E+000	-83.2542	0.0000000E+000	0.0000000E+000	0.0000000E+000	-6.74575	0.0000000E+000	0.0000000E+000	0.0000000E+000	6.74575	8.45433	83.2542	-4.58634e-06	-2.28781e-06	-5.02492e-10	-2.28731e-06	0.263098	30269.6	6.64837	30262.9
1.46631	16.8153	1.73764	16.9048	-5.89982	16.2345	0.263164	-0.00834017	62464.8	659.982	1	11	0.00461124	0.000272776	0	-7.53896e-05	0.000134151	4.88693e-06	-10.5517	0.0179155	0.0176125	0.00328073	-5.90474	16.9227	16.8329	1.74092	0.0588414	0.00608048	0.0591547	5.89982	659982	6.38671e+06	6.42072e+06	-84.1002	0.0000000E+000	0.0000000E+000	0.0000000E+000	84.1002	0.0000000E+000	0.0000000E+000	0.0000000E+000	-84.1002	0.0000000E+000	0.0000000E+000	0.0000000E+000	-5.89982	0.0000000E+000	0.0000000E+000	0.0000000E+000	5.89982	9.6771	84.1002	-4.82176e-08	-2.19483e-06	-1.11885e-09	-2.19371e-06	0.26303	31553.8	16.085	31537.7
1.00006	17.1277	1.56301	17.1989	-5.21417	19.4089	0.263169	-0.00758997	101819	840.921	1	12	0.00461508	0.000268336	0	-7.26968e-05	0.000134151	1.59e-06	75.7844	0.00592541	0.00145511	-0.00574396	-5.19467	17.1998	17.1292	1.55727	0.0579028	0.005284	0.0581434	5.21417	840921	9.21492e+06	9.25321e+06	-84.7858	0.0000000E+000	0.0000000E+000	0.0000000E+000	84.7858	0.0000000E+000	0.0000000E+000	0.0000000E+000	-84.7858	0.0000000E+000	0.0000000E+000	0.0000000E+000	-5.21417	0.0000000E+000	0.0000000E+000	0.0000000E+000	5.21417	10.9581	84.7858	2.69272e-06	-1.99744e-06	-1.01821e-09	-1.99643e-06	0.263035	34673.2	17.6748	34655.6
0.681362	17.382	1.45378	17.4427	-4.78093	22.5211	0.263162	-0.00690263	160673	1116.13	1	12	0.00461164	0.000264388	0	-7.08665e-05	0.000458648	2.82951e-06	4.74557	0.0107021	0.0106654	-0.000885398	-4.77512	17.4533	17.3927	1.4529	0.0571311	0.00477828	0.0573306	4.78093	1.11613e+06	1.33449e+07	1.33915e+07	-85.2191	0.0000000E+000	0.0000000E+000	0.0000000E+000	85.2191	0.0000000E+000	0.0000000E+000	0.0000000E+000	-85.2191	0.0000000E+000	0.0000000E+000	0.0000000E+000	-4.78093	0.0000000E+000	0.0000000E+000	0.0000000E+000	4.78093	11.9564	85.2191	1.8303e-06	-1.81651e-06	-3.16588e-09	-1.81335e-06	0.262704	38125	66.4455	38058.5
0.464091	17.6178	1.45093	17.6774	-4.70804	27.0777	0.263159	-0.00527112	236358	1592.31	1	12	0.00461221	0.00026091	0	-7.84824e-05	5.3507e-07	4.2301e-06	23.6656	0.0162129	0.0148494	-0.00650782	-4.68309	17.6917	17.6326	1.44443	0.0563785	0.00464312	0.0565694	4.70804	1.59231e+06	1.93344e+07	1.93999e+07	-85.292	0.0000000E+000	0.0000000E+000	0.0000000E+000	85.292	0.0000000E+000	0.0000000E+000	0.0000000E+000	-85.292	0.0000000E+000	0.0000000E+000	0.0000000E+000	-4.70804	0.0000000E+000	0.0000000E+000	0.0000000E+000	4.70804	12.1424	85.292	-7.61583e-06	-1.38714e-06	-2.82042e-12	-1.38714e-06	0.263158	49924.7	0.10151	49924.6
0.316193	17.8256	1.57025	17.8946	-5.03416	33.7528	0.263172	-0.00299379	320553	2468.26	1	12	0.00461667	0.000257992	0	-0.000101375	0.00024868	3.13803e-06	-7.57151	0.0121633	0.0120573	0.00160268	-5.03588	17.9068	17.8377	1.57185	0.0556671	0.00490368	0.0558826	5.03416	2.46825e+06	2.80199e+07	2.81284e+07	-84.9658	0.0000000E+000	0.0000000E+000	0.0000000E+000	84.9658	0.0000000E+000	0.0000000E+000	0.0000000E+000	-84.9658	0.0000000E+000	0.0000000E+000	0.0000000E+000	-5.03416	0.0000000E+000	0.0000000E+000	0.0000000E+000	5.03416	11.3521	84.9658	-2.2893e-05	-7.8788e-07	-7.44494e-10	-7.87135e-07	0.262923	87906	83.0653	87822.9
0.215268	18.0442	1.78713	18.1324	-5.65624	43.5464	0.263173	-0.00270651	413700	4018.69	1	12	0.00461602	0.000254573	0	-0.000142316	5.3507e-07	4.3863e-06	5.05989	0.01723	0.0171629	-0.00151964	-5.64613	18.1494	18.0613	1.78561	0.0548813	0.00543555	0.0551498	5.65624	4.01869e+06	4.05756e+07	4.07741e+07	-84.3438	0.0000000E+000	0.0000000E+000	0.0000000E+000	84.3438	0.0000000E+000	0.0000000E+000	0.0000000E+000	-84.3438	0.0000000E+000	0.0000000E+000	0.0000000E+000	-5.65624	0.0000000E+000	0.0000000E+000	0.0000000E+000	5.65624	10.0967	84.3438	-4.09402e-05	-7.12279e-07	-1.44817e-12	-7.12277e-07	0.263172	97237.1	0.197698	97236.9
0.146929	18.3471	2.14806	18.4724	-6.67775	57.8847	0.263158	-0.00388042	504274	6818.9	1	12	0.00461511	0.000249838	0	-0.000197212	5.3507e-07	2.2074e-06	-14.7489	0.00883529	0.00854417	0.00224932	-6.68159	18.4811	18.3556	2.15031	0.0537676	0.00629507	0.0541349	6.67775	6.8189e+06	5.82417e+07	5.86395e+07	-83.3222	0.0000000E+000	0.0000000E+000	0.0000000E+000	83.3222	0.0000000E+000	0.0000000E+000	0.0000000E+000	-83.3222	0.0000000E+000	0.0000000E+000	0.0000000E+000	-6.67775	0.0000000E+000	0.0000000E+000	0.0000000E+000	6.67775	8.54122	83.3222	-5.48968e-05	-1.02116e-06	-2.0763e-12	-1.02116e-06	0.263157	67816.7	0.13789	67816.6
0.0999041	18.7305	2.74561	18.9306	-8.33933	78.9609	0.263166	-0.0041627	580227	12205.2	1	12	0.00461098	0.000243572	0	-0.000242225	-1.8553e-05	1.95281e-06	3.61712	0.00801737	0.0080014	-0.000505807	-8.3343	18.9385	18.7385	2.74511	0.0522659	0.00766141	0.0528244	8.33933	1.22052e+07	8.32636e+07	8.41534e+07	-81.6607	0.0000000E+000	0.0000000E+000	0.0000000E+000	81.6607	0.0000000E+000	0.0000000E+000	0.0000000E+000	-81.6607	0.0000000E+000	0.0000000E+000	0.0000000E+000	-8.33933	0.0000000E+000	0.0000000E+000	0.0000000E+000	8.33933	6.82197	81.6607	-4.50131e-05	-1.09548e-06	7.72304e-11	-1.09556e-06	0.263185	63220.2	4.45696	63224.6
0.0680626	19.1749	3.58265	19.5067	-10.5832	109.887	0.263171	-0.00401814	652690	22016.5	1	12	0.00461645	0.00023666	0	-0.00025286	0.000267768	2.5026e-06	15.9952	0.0105747	0.0101653	-0.00291393	-10.5693	19.5162	19.1851	3.57974	0.0503924	0.00941535	0.0512644	10.5832	2.20165e+07	1.17836e+08	1.19875e+08	-79.4168	0.0000000E+000	0.0000000E+000	0.0000000E+000	79.4168	0.0000000E+000	0.0000000E+000	0.0000000E+000	-79.4168	0.0000000E+000	0.0000000E+000	0.0000000E+000	-10.5832	0.0000000E+000	0.0000000E+000	0.0000000E+000	10.5832	5.35215	79.4168	-1.06348e-05	-1.05746e-06	-1.07593e-09	-1.05638e-06	0.262904	65495.8	66.6397	65429.2
0.0464052	19.6285	4.60716	20.1619	-13.2092	155.239	0.263168	-0.0026952	744424	38870.8	1	12	0.00461344	0.00022882	0	-0.000172969	7.68873e-05	3.71127e-06	-4.30574	0.0162192	0.0161734	0.00121772	-13.2021	20.1779	19.6446	4.60837	0.0482862	0.0113337	0.0495985	13.2092	3.88708e+07	1.65606e+08	1.70107e+08	-76.7907	0.0000000E+000	0.0000000E+000	0.0000000E+000	76.7907	0.0000000E+000	0.0000000E+000	0.0000000E+000	-76.7907	0.0000000E+000	0.0000000E+000	0.0000000E+000	-13.2092	0.0000000E+000	0.0000000E+000	0.0000000E+000	13.2092	4.26043	76.7907	7.98911e-05	-7.09291e-07	-2.07227e-10	-7.09083e-07	0.263091	97643	28.5275	97614.5
0.0315922	20.3073	5.89832	21.1466	-16.1961	221.843	0.263167	-0.000962968	854106	66449	1	12	0.00461147	0.000218072	0	2.23183e-06	0.000134151	3.14004e-06	-15.8389	0.0143991	0.0138524	0.00392999	-16.1959	21.161	20.3212	5.90225	0.0454122	0.0131901	0.047289	16.1961	6.6449e+07	2.28777e+08	2.38232e+08	-73.8039	0.0000000E+000	0.0000000E+000	0.0000000E+000	73.8039	0.0000000E+000	0.0000000E+000	0.0000000E+000	-73.8039	0.0000000E+000	0.0000000E+000	0.0000000E+000	-16.1961	0.0000000E+000	0.0000000E+000	0.0000000E+000	16.1961	3.4429	73.8039	0.000175201	-2.53421e-07	-1.29184e-10	-2.53292e-07	0.263033	273288	139.31	273148
0.0215268	21.2855	7.80989	22.673	-20.1487	319.582	0.263164	0.00022983	946664	112323	1	12	0.00461324	0.000203468	0	0.000191448	0.000382296	2.45941e-06	17.7595	0.0120875	0.0115114	-0.00368694	-20.1299	22.6826	21.297	7.80621	0.0414061	0.0151924	0.0441053	20.1487	1.12323e+08	3.0613e+08	3.26086e+08	-69.8513	0.0000000E+000	0.0000000E+000	0.0000000E+000	69.8513	0.0000000E+000	0.0000000E+000	0.0000000E+000	-69.8513	0.0000000E+000	0.0000000E+000	0.0000000E+000	-20.1487	0.0000000E+000	0.0000000E+000	0.0000000E+000	20.1487	2.72545	69.8513	0.000189216	6.04829e-08	8.78631e-11	6.03951e-08	0.262781	1.14504e+06	1663.39	1.14337e+06
0.0146812	22.3705	10.5891	24.7502	-25.3306	462.885	0.263166	0.000632809	1.02376e+06	187397	1	12	0.00461286	0.000186377	0	0.000215743	0.000191416	2.92248e-06	2.78952	0.0156805	0.0156619	-0.000763124	-25.3135	24.764	22.3862	10.5883	0.0365191	0.0172864	0.0404038	25.3306	1.87397e+08	3.95895e+08	4.38007e+08	-64.6694	0.0000000E+000	0.0000000E+000	0.0000000E+000	64.6694	0.0000000E+000	0.0000000E+000	0.0000000E+000	-64.6694	0.0000000E+000	0.0000000E+000	0.0000000E+000	-25.3306	0.0000000E+000	0.0000000E+000	0.0000000E+000	25.3306	2.1126	64.6694	2.42947e-05	1.66534e-07	1.2113e-10	1.66413e-07	0.262975	415870	302.486	415568
0.0100092	23.6104	14.0452	27.4721	-30.7473	673.066	0.263165	0.000343168	1.13213e+06	295914	1	12	0.00461249	0.000167897	0	-0.000106546	3.87112e-05	2.50591e-06	-16.2127	0.0149252	0.0143317	0.0041672	-30.7395	27.4865	23.6247	14.0494	0.0312838	0.0186099	0.0364006	30.7473	2.95914e+08	4.9744e+08	5.78802e+08	-59.2527	0.0000000E+000	0.0000000E+000	0.0000000E+000	59.2527	0.0000000E+000	0.0000000E+000	0.0000000E+000	-59.2527	0.0000000E+000	0.0000000E+000	0.0000000E+000	-30.7473	0.0000000E+000	0.0000000E+000	0.0000000E+000	30.7473	1.68103	59.2527	-0.000322289	9.03098e-08	1.32845e-11	9.02965e-08	0.263126	766867	112.805	766754