File: txt/19077_R307_UC93_28_SOC50_C01.mpt
EC-Lab ASCII FILE
Nb header lines : 66

Potentio Electrochemical Impedance Spectroscopy

Run on channel : 1 (SN 66354)
Grouped channel(s) : 1, 2, 3, 4, 5
User :
CE vs. WE compliance from -10 V to 10 V
Electrode connection : standard
Potential control : Ewe
Ewe ctrl range : min = -10.00 V, max = 10.00 V
Safety Limits :
	Do not start on E overload
Acquisition started on : 11/10/2025 15:44:01.793
Technique started on : 11/10/2025 15:44:04.028
Loaded Setting File :  C:\Users\Celltest\OneDrive - store-dot.com\Documents\EC-Lab\Data\@Biologic Test Protocols\cathode half cell EIS SOC50.mps
Saved on :
	File : 19077_R307_UC93_28_SOC50_C01.mpr
	Directory : C:\Users\Celltest\OneDrive - store-dot.com\Documents\EC-Lab\Data\Anna\
	Host : 169.254.61.224
Device : VMP-3e (SN .003165)
Address : USB
EC-LAB for windows v11.62 (software)
Internet server v27.00 (firmware)
Command interpretor v12.03 (firmware)
Electrode material :
Initial state :
Electrolyte :
Comments :
Electrode surface area : 0.001 cm²
Characteristic mass : 0.001 g
Equivalent Weight : 0.000 g/eq.
Density : 0.000 g/cm3
Volume (V) : 0.001 cm³
Record Ece
Cycle Definition : Charge/Discharge alternance
Mode                Multi sine
E (V)               0.0000
vs.                 Eoc
tE (h:m:s)          0:00:0.0000
record              0
dI                  0.000
unit dI             mA
dt (s)              0.000
fi                  1.000
unit fi             MHz
ff                  0.100
unit ff             mHz
Nd                  10
Points              per decade
spacing             Logarithmic
Va (mV)             5.0
pw                  0.10
Na                  2
corr                0
E range min (V)     -10.000
E range max (V)     10.000
I Range             Auto
Bandwidth           5
nc cycles           0
goto Ns'            0
nr cycles           0
inc. cycle          0

freq/Hz	Re(Z)/Ohm	-Im(Z)/Ohm	|Z|/Ohm	Phase(Z)/deg	time/s	<Ewe>/V	<I>/mA	Cs/µF	Cp/µF	cycle number	I Range	|Ewe|/V	|I|/A	Ns	(Q-Qo)/mA.h	<Ece>/V	|Ece|/V	Phase(Zce)/deg	|Zce|/Ohm	Re(Zce)/Ohm	-Im(Zce)/Ohm	Phase(Zwe-ce)/deg	|Zwe-ce|/Ohm	Re(Zwe-ce)/Ohm	-Im(Zwe-ce)/Ohm	Re(Y)/Ohm-1	Im(Y)/Ohm-1	|Y|/Ohm-1	Phase(Y)/deg	Re(C)/nF	Im(C)/nF	|C|/nF	Phase(C)/deg	Re(M)	Im(M)	|M|	Phase(M)/deg	Re(Permittivity)	Im(Permittivity)	|Permittivity|	Phase(Permittivity)/deg	Re(Resistivity)/Ohm.cm	Im(Resistivity)/Ohm.cm	|Resistivity|/Ohm.cm	Phase(Resistivity)/deg	Re(Conductivity)/mS/cm	Im(Conductivity)/mS/cm	|Conductivity|/mS/cm	Phase(Conductivity)/deg	Tan(Delta)	Loss Angle(Delta)/deg	dq/mA.h	Pwe/W	Pce/W	Pwe-ce/W	<Ewe-Ece>/V	Rwe/Ohm	Rce/Ohm	Rwe-ce/Ohm		Ewe-Ece/V
1.00002e+06	2.44215	2.76913	3.69218	-48.5904	2.23455	3.97113	-0.0128547	0.0574736	0.0323289	1	10	0.000242292	6.5623e-05	0	-5.88195e-06	0.000214098	0.000186123	-71.3922	2.83625	0.905013	2.68798	-58.4768	6.40184	3.34716	5.45712	0.179146	0.203132	0.270843	48.5904	32.3289	28.5114	43.1052	-41.4096	0.0000000E+000	0.0000000E+000	0.0000000E+000	41.4096	0.0000000E+000	0.0000000E+000	0.0000000E+000	-41.4096	0.0000000E+000	0.0000000E+000	0.0000000E+000	-48.5904	0.0000000E+000	0.0000000E+000	0.0000000E+000	48.5904	0.881918	41.4097	-5.88195e-06	-5.10476e-05	-2.75216e-09	-5.10449e-05	3.97092	308925	16.6552	308908
630957	1.1092	-0.0780657	1.11194	4.02585	3.40355	3.97074	-0.0123358	-3.23117	-0.0159263	1	9	0.000371208	0.000333837	0	-9.03559e-06	0.000214098	0.000115674	-113.523	0.346499	-0.138292	0.317706	-13.8647	1.00004	0.970907	0.23964	0.897108	-0.0631386	0.899327	-4.02585	-15.9263	226.29	226.85	-94.0258	0.0000000E+000	0.0000000E+000	0.0000000E+000	94.0258	0.0000000E+000	0.0000000E+000	0.0000000E+000	-94.0258	0.0000000E+000	0.0000000E+000	0.0000000E+000	4.02585	0.0000000E+000	0.0000000E+000	0.0000000E+000	-4.02585	14.2085	85.9742	-7.19783e-07	-4.89823e-05	-2.64107e-09	-4.89796e-05	3.97052	321887	17.3558	321869
398103	1.43546	0.147721	1.44304	-5.87555	4.17152	3.97081	0.00319926	2.70634	0.0283603	1	9	0.0013916	0.000964357	0	-7.80047e-06	6.14794e-05	6.4376e-05	171.638	0.0667554	-0.0660458	-0.00970754	-5.75501	1.37635	1.36941	0.138013	0.689343	0.0709394	0.692983	5.87555	28.3603	275.587	277.043	-84.1245	0.0000000E+000	0.0000000E+000	0.0000000E+000	84.1245	0.0000000E+000	0.0000000E+000	0.0000000E+000	-84.1245	0.0000000E+000	0.0000000E+000	0.0000000E+000	-5.87555	0.0000000E+000	0.0000000E+000	0.0000000E+000	5.87555	9.71735	84.1245	1.056e-06	1.27036e-05	1.96688e-10	1.27034e-05	3.97075	1.24117e+06	19.2168	1.24115e+06
251206	1.61709	0.42587	1.67222	-14.7542	4.93954	3.97072	-0.00879659	1.48769	0.096489	1	9	0.00430537	0.00257464	0	-5.52346e-06	4.24746e-06	5.68078e-05	114.381	0.0220644	-0.00910832	-0.0200966	-14.1629	1.65839	1.60798	0.405773	0.578288	0.152296	0.598006	14.7542	96.4891	366.382	378.874	-75.2458	0.0000000E+000	0.0000000E+000	0.0000000E+000	75.2458	0.0000000E+000	0.0000000E+000	0.0000000E+000	-75.2458	0.0000000E+000	0.0000000E+000	0.0000000E+000	-14.7542	0.0000000E+000	0.0000000E+000	0.0000000E+000	14.7542	3.79714	75.2458	5.10137e-07	-3.49288e-05	-3.73632e-11	-3.49288e-05	3.97072	451394	0.482853	451393
158486	1.79174	0.634596	1.9008	-19.503	5.70555	3.9707	0.00398165	1.58246	0.176381	1	9	0.00540283	0.00284239	0	4.62559e-06	-5.29845e-05	5.56514e-05	107.207	0.0195791	-0.00579211	-0.0187027	-19.027	1.88916	1.78595	0.615893	0.495908	0.17564	0.526093	19.503	176.381	498.001	528.313	-70.497	0.0000000E+000	0.0000000E+000	0.0000000E+000	70.497	0.0000000E+000	0.0000000E+000	0.0000000E+000	-70.497	0.0000000E+000	0.0000000E+000	0.0000000E+000	-19.503	0.0000000E+000	0.0000000E+000	0.0000000E+000	19.503	2.82344	70.497	8.17364e-06	1.58099e-05	-2.10965e-10	1.58101e-05	3.97075	997250	13.3072	997264
100004	1.99846	0.816943	2.15899	-22.2341	6.47156	3.97072	0.0159775	1.9481	0.278929	1	9	0.00546874	0.00253301	0	1.74775e-05	0.000576567	3.48401e-05	101.712	0.0137544	-0.00279206	-0.0134681	-21.9302	2.15134	1.99567	0.803475	0.42874	0.175263	0.463179	22.2341	278.929	682.335	737.145	-67.7659	0.0000000E+000	0.0000000E+000	0.0000000E+000	67.7659	0.0000000E+000	0.0000000E+000	0.0000000E+000	-67.7659	0.0000000E+000	0.0000000E+000	0.0000000E+000	-22.2341	0.0000000E+000	0.0000000E+000	0.0000000E+000	22.2341	2.44627	67.7659	9.63338e-06	6.34424e-05	9.21212e-09	6.34332e-05	3.97015	248519	36.0861	248483
63093.8	2.25866	1.01005	2.47422	-24.0937	7.36155	3.97073	0.0211559	2.49741	0.416198	1	9	0.00502052	0.00202913	0	1.15683e-05	0.000290407	3.13407e-05	71.8688	0.0154454	0.00480651	-0.0146785	-23.7378	2.47266	2.26347	0.995373	0.368956	0.164994	0.404168	24.0937	416.198	930.697	1019.52	-65.9063	0.0000000E+000	0.0000000E+000	0.0000000E+000	65.9063	0.0000000E+000	0.0000000E+000	0.0000000E+000	-65.9063	0.0000000E+000	0.0000000E+000	0.0000000E+000	-24.0937	0.0000000E+000	0.0000000E+000	0.0000000E+000	24.0937	2.23619	65.9063	-3.46403e-06	8.40042e-05	6.14382e-09	8.3998e-05	3.97044	187689	13.727	187675
39814.1	2.57568	1.22064	2.85028	-25.3566	8.25153	3.97071	0.011209	3.27489	0.600613	1	9	0.00547958	0.00192247	0	8.26391e-06	6.14794e-05	1.58201e-05	12.0476	0.00822907	0.00804782	-0.00171761	-25.2564	2.85682	2.58373	1.21892	0.317042	0.150249	0.350843	25.3566	600.613	1267.36	1402.48	-64.6434	0.0000000E+000	0.0000000E+000	0.0000000E+000	64.6434	0.0000000E+000	0.0000000E+000	0.0000000E+000	-64.6434	0.0000000E+000	0.0000000E+000	0.0000000E+000	-25.3566	0.0000000E+000	0.0000000E+000	0.0000000E+000	25.3566	2.11011	64.6434	-4.21342e-06	4.45076e-05	6.8912e-10	4.45069e-05	3.97065	354245	5.48484	354239
25116.9	2.97434	1.4915	3.32735	-26.6318	9.02157	3.97073	0.0121031	4.24845	0.853651	1	9	0.0048394	0.00145443	0	1.29034e-05	0.000233175	2.98211e-05	1.68014	0.0205036	0.0204948	-0.000601161	-26.4652	3.34542	2.99483	1.4909	0.268654	0.134718	0.300539	26.6318	853.651	1702.34	1904.39	-63.3682	0.0000000E+000	0.0000000E+000	0.0000000E+000	63.3682	0.0000000E+000	0.0000000E+000	0.0000000E+000	-63.3682	0.0000000E+000	0.0000000E+000	0.0000000E+000	-26.6318	0.0000000E+000	0.0000000E+000	0.0000000E+000	26.6318	1.99419	63.3682	2.09657e-06	4.80579e-05	2.82213e-09	4.80551e-05	3.97049	328076	19.2658	328057
15847.7	3.38823	1.69315	3.78772	-26.552	9.66353	3.97073	0.019852	5.93142	1.18521	1	9	0.00457631	0.0012082	0	1.60259e-05	-9.11391e-05	4.8077e-06	76.6534	0.00397924	0.000918576	-0.00387177	-26.4934	3.78682	3.38915	1.68928	0.236165	0.118016	0.264011	26.552	1185.21	2371.76	2651.41	-63.448	0.0000000E+000	0.0000000E+000	0.0000000E+000	63.448	0.0000000E+000	0.0000000E+000	0.0000000E+000	-63.448	0.0000000E+000	0.0000000E+000	0.0000000E+000	-26.552	0.0000000E+000	0.0000000E+000	0.0000000E+000	26.552	2.00114	63.448	8.42394e-07	7.88267e-05	-1.80929e-09	7.88285e-05	3.97082	200017	4.59094	200021
10002.2	3.88097	1.95371	4.34499	-26.7211	10.4636	3.97076	-0.0168276	8.14447	1.64667	1	10	0.00476469	0.00109659	0	1.44335e-05	-0.000110216	7.76349e-06	85.8261	0.00707964	0.000515286	-0.00706086	-26.6348	4.34228	3.88148	1.94665	0.205572	0.103486	0.23015	26.7211	1646.67	3271.05	3662.14	-63.2789	0.0000000E+000	0.0000000E+000	0.0000000E+000	63.2789	0.0000000E+000	0.0000000E+000	0.0000000E+000	-63.2789	0.0000000E+000	0.0000000E+000	0.0000000E+000	-26.7211	0.0000000E+000	0.0000000E+000	0.0000000E+000	26.7211	1.98646	63.2789	-2.40647e-06	-6.68182e-05	1.85467e-09	-6.68201e-05	3.97087	235968	6.54975	235974
6309.38	4.4227	2.26992	4.97119	-27.1688	10.9815	3.97075	-0.0187358	11.1128	2.31698	1	10	0.00480664	0.000966898	0	1.31304e-05	6.14794e-05	7.25731e-06	-74.9421	0.00750577	0.00194997	0.00724804	-27.2328	4.97624	4.42465	2.27716	0.178964	0.0918519	0.201159	27.1688	2316.98	4514.39	5074.26	-62.8312	0.0000000E+000	0.0000000E+000	0.0000000E+000	62.8312	0.0000000E+000	0.0000000E+000	0.0000000E+000	-62.8312	0.0000000E+000	0.0000000E+000	0.0000000E+000	-27.1688	0.0000000E+000	0.0000000E+000	0.0000000E+000	27.1688	1.9484	62.8312	-5.086e-07	-7.4395e-05	-1.15186e-09	-7.43938e-05	3.97069	211934	3.28139	211931
3983.6	5.04976	2.6517	5.70364	-27.7046	11.5441	3.97067	-0.0333566	15.0668	3.2566	1	10	0.00469169	0.000822578	0	9.79104e-06	-3.39072e-05	1.0582e-05	-102.652	0.0128644	-0.00281772	0.012552	-27.8293	5.707	5.04694	2.66425	0.155226	0.0815116	0.175327	27.7046	3256.6	6201.69	7004.74	-62.2954	0.0000000E+000	0.0000000E+000	0.0000000E+000	62.2954	0.0000000E+000	0.0000000E+000	0.0000000E+000	-62.2954	0.0000000E+000	0.0000000E+000	0.0000000E+000	-27.7046	0.0000000E+000	0.0000000E+000	0.0000000E+000	27.7046	1.90435	62.2954	-1.98925e-06	-0.000132448	1.13103e-09	-0.000132449	3.9707	119037	1.01651	119038
2510.8	5.81719	3.13146	6.60649	-28.2941	12.3688	3.97067	-0.01341	20.2423	4.54791	1	10	0.00460013	0.000696304	0	6.92671e-06	0.000195021	8.09454e-06	-2.59305	0.011625	0.0116131	0.000525935	-28.2504	6.61697	5.82881	3.13199	0.133282	0.0717471	0.151366	28.2941	4547.91	8448.48	9594.81	-61.7059	0.0000000E+000	0.0000000E+000	0.0000000E+000	61.7059	0.0000000E+000	0.0000000E+000	0.0000000E+000	-61.7059	0.0000000E+000	0.0000000E+000	0.0000000E+000	-28.2941	0.0000000E+000	0.0000000E+000	0.0000000E+000	28.2941	1.85766	61.7059	-1.07895e-06	-5.32467e-05	-2.61522e-09	-5.3244e-05	3.97048	296099	14.5429	296084
1585.51	6.74284	3.71011	7.69616	-28.8209	13.2708	3.97067	-0.0124671	27.0561	6.28768	1	10	0.00453055	0.000588677	0	3.60977e-06	0.000347639	1.13551e-05	-73.2817	0.0192892	0.00554884	0.0184738	-28.9213	7.70994	6.74839	3.72858	0.11384	0.0626381	0.129935	28.8209	6287.68	11427.4	13043	-61.1791	0.0000000E+000	0.0000000E+000	0.0000000E+000	61.1791	0.0000000E+000	0.0000000E+000	0.0000000E+000	-61.1791	0.0000000E+000	0.0000000E+000	0.0000000E+000	-28.8209	0.0000000E+000	0.0000000E+000	0.0000000E+000	28.8209	1.81743	61.1792	-2.10961e-06	-4.95026e-05	-4.33404e-09	-4.94983e-05	3.97033	318493	27.8846	318465
1000.32	7.915	4.3506	9.03188	-28.796	14.3868	3.97068	-0.0131491	36.5706	8.48542	1	10	0.00498678	0.00055213	0	-1.87596e-07	9.9634e-05	8.78961e-06	15.5402	0.0159194	0.0153375	-0.00426504	-28.7256	9.04328	7.93034	4.34633	0.0970274	0.0533325	0.110719	28.796	8485.42	15437.4	17615.8	-61.204	0.0000000E+000	0.0000000E+000	0.0000000E+000	61.204	0.0000000E+000	0.0000000E+000	0.0000000E+000	-61.204	0.0000000E+000	0.0000000E+000	0.0000000E+000	-28.796	0.0000000E+000	0.0000000E+000	0.0000000E+000	28.796	1.81929	61.204	-1.61755e-06	-5.22108e-05	-1.3101e-09	-5.22095e-05	3.97058	301973	7.57725	301966
631.01	9.38503	5.01114	10.6391	-28.1	15.2875	3.9707	-0.0124447	50.3324	11.1664	1	10	0.00496622	0.00046679	0	-3.84469e-06	0.000252252	4.37938e-06	36.8952	0.00938191	0.00750304	-0.00563247	-28.0542	10.6431	9.39253	5.00551	0.0829137	0.0442718	0.093993	28.1	11166.4	20912.7	23707.2	-61.9	0.0000000E+000	0.0000000E+000	0.0000000E+000	61.9	0.0000000E+000	0.0000000E+000	0.0000000E+000	-61.9	0.0000000E+000	0.0000000E+000	0.0000000E+000	-28.1	0.0000000E+000	0.0000000E+000	0.0000000E+000	28.1	1.87283	61.9	-1.7295e-06	-4.94141e-05	-3.13921e-09	-4.9411e-05	3.97044	319067	20.2699	319047
398.089	11.2104	5.45462	12.467	-25.946	16.1888	3.97068	-0.0134435	73.2951	14.0307	1	10	0.00494714	0.000396818	0	-7.21326e-06	0.000195021	1.66692e-05	64.899	0.0420072	0.0178201	-0.0380401	-25.753	12.4665	11.2282	5.41658	0.0721269	0.0350946	0.0802117	25.946	14030.7	28836.1	32068.4	-64.054	0.0000000E+000	0.0000000E+000	0.0000000E+000	64.054	0.0000000E+000	0.0000000E+000	0.0000000E+000	-64.054	0.0000000E+000	0.0000000E+000	0.0000000E+000	-25.946	0.0000000E+000	0.0000000E+000	0.0000000E+000	25.946	2.05521	64.054	-1.60746e-06	-5.33799e-05	-2.62176e-09	-5.33773e-05	3.97048	295360	14.5067	295345
251.044	13.2679	5.65129	14.4213	-23.0709	17.087	3.97067	-0.0138721	112.182	17.2269	1	10	0.00494901	0.000343173	0	-1.02342e-05	-0.000129294	4.9841e-06	-43.8898	0.0145236	0.0104668	0.0100688	-23.0914	14.4349	13.2784	5.66136	0.0637959	0.027173	0.0693418	23.0709	17226.9	40444.8	43960.7	-66.9291	0.0000000E+000	0.0000000E+000	0.0000000E+000	66.9291	0.0000000E+000	0.0000000E+000	0.0000000E+000	-66.9291	0.0000000E+000	0.0000000E+000	0.0000000E+000	-23.0709	0.0000000E+000	0.0000000E+000	0.0000000E+000	23.0709	2.34777	66.9291	-1.50275e-06	-5.50816e-05	1.79358e-09	-5.50834e-05	3.9708	286234	9.3204	286243
158.428	15.3114	5.34955	16.219	-19.2586	17.9919	3.97067	-0.0132423	187.789	20.4294	1	10	0.00494308	0.000304771	0	-1.24026e-05	0.000233175	5.30897e-06	-96.5085	0.0174195	-0.00197452	0.0173073	-19.3186	16.2229	15.3094	5.36686	0.0582058	0.0203361	0.0616561	19.2586	20429.4	58472.7	61938.8	-70.7414	0.0000000E+000	0.0000000E+000	0.0000000E+000	70.7414	0.0000000E+000	0.0000000E+000	0.0000000E+000	-70.7414	0.0000000E+000	0.0000000E+000	0.0000000E+000	-19.2586	0.0000000E+000	0.0000000E+000	0.0000000E+000	19.2586	2.86218	70.7414	-1.18009e-06	-5.25806e-05	-3.08777e-09	-5.25775e-05	3.97043	299848	17.6084	299830
100.032	17.0471	4.55947	17.6463	-14.974	18.8908	3.97067	-0.0131752	348.953	23.2963	1	10	0.00493287	0.000279541	0	-1.58018e-05	0.000175943	6.70863e-06	43.3103	0.0239987	0.0174626	-0.0164619	-14.9078	17.6589	17.0646	4.543	0.0547448	0.0146422	0.0566691	14.974	23296.3	87101.1	90162.8	-75.026	0.0000000E+000	0.0000000E+000	0.0000000E+000	75.026	0.0000000E+000	0.0000000E+000	0.0000000E+000	-75.026	0.0000000E+000	0.0000000E+000	0.0000000E+000	-14.974	0.0000000E+000	0.0000000E+000	0.0000000E+000	14.974	3.73884	75.026	-1.62777e-06	-5.23143e-05	-2.31808e-09	-5.2312e-05	3.97049	301375	13.3541	301361
63.0823	18.3758	3.74918	18.7543	-11.5317	19.808	3.97068	-0.0103613	672.94	26.8935	1	10	0.00493069	0.00026291	0	-1.84309e-05	6.14794e-05	5.0826e-06	-54.4846	0.0193321	0.0112304	0.0157356	-11.5719	18.7685	18.387	3.76492	0.0522447	0.0106594	0.053321	11.5317	26893.4	131812	134528	-78.4683	0.0000000E+000	0.0000000E+000	0.0000000E+000	78.4683	0.0000000E+000	0.0000000E+000	0.0000000E+000	-78.4683	0.0000000E+000	0.0000000E+000	0.0000000E+000	-11.5317	0.0000000E+000	0.0000000E+000	0.0000000E+000	11.5317	4.90127	78.4683	-1.3771e-06	-4.11416e-05	-6.37009e-10	-4.1141e-05	3.97062	383220	5.93353	383214
39.8089	19.3476	2.83688	19.5545	-8.34166	20.9549	3.97072	-0.0127887	1409.28	29.6611	1	11	0.00493629	0.000252437	0	-2.27772e-05	-9.11391e-05	7.80805e-06	116.131	0.0309306	-0.0136225	-0.0277693	-8.26688	19.537	19.334	2.80911	0.0505981	0.00741903	0.0511391	8.34166	29661.1	202290	204453	-81.6583	0.0000000E+000	0.0000000E+000	0.0000000E+000	81.6583	0.0000000E+000	0.0000000E+000	0.0000000E+000	-81.6583	0.0000000E+000	0.0000000E+000	0.0000000E+000	-8.34166	0.0000000E+000	0.0000000E+000	0.0000000E+000	8.34166	6.82003	81.6583	-1.69967e-06	-5.07804e-05	1.16555e-09	-5.07815e-05	3.97081	310487	7.12653	310494
25.1044	19.8866	2.13862	20.0013	-6.13803	21.834	3.97072	-0.0124904	2964.4	33.8912	1	11	0.00493609	0.000246789	0	-2.60985e-05	6.14794e-05	1.12252e-05	18.9433	0.0454851	0.0430216	-0.0147659	-6.08291	20.0425	19.9296	2.12385	0.0497102	0.00534585	0.0499968	6.13803	33891.2	315148	316965	-83.862	0.0000000E+000	0.0000000E+000	0.0000000E+000	83.862	0.0000000E+000	0.0000000E+000	0.0000000E+000	-83.862	0.0000000E+000	0.0000000E+000	0.0000000E+000	-6.13803	0.0000000E+000	0.0000000E+000	0.0000000E+000	6.13803	9.29882	83.862	-1.26827e-06	-4.9596e-05	-7.67903e-10	-4.95952e-05	3.97066	317901	4.92212	317897
15.8576	20.2962	1.62826	20.3614	-4.58673	22.712	3.97072	-0.0125578	6163.96	39.4179	1	11	0.00494952	0.000243084	0	-3.01853e-05	0.000214098	1.00595e-05	7.29847	0.0413827	0.0410475	-0.00525718	-4.5628	20.4019	20.3372	1.623	0.0489553	0.00392744	0.0491126	4.58673	39417.9	491341	492920	-85.4133	0.0000000E+000	0.0000000E+000	0.0000000E+000	85.4133	0.0000000E+000	0.0000000E+000	0.0000000E+000	-85.4133	0.0000000E+000	0.0000000E+000	0.0000000E+000	-4.58673	0.0000000E+000	0.0000000E+000	0.0000000E+000	4.58673	12.4649	85.4133	-2.34608e-06	-4.98636e-05	-2.6886e-09	-4.98609e-05	3.97051	316195	17.049	316178
10.0032	20.4832	1.24597	20.521	-3.48095	23.6938	3.97073	-0.0125772	12769.5	47.0749	1	11	0.00493346	0.00024041	0	-3.22676e-05	-0.000148371	7.76852e-06	-16.1102	0.0323136	0.0310447	0.00896656	-3.50064	20.5526	20.5142	1.25493	0.0486406	0.00295875	0.0487305	3.48095	47075	773892	775322	-86.5191	0.0000000E+000	0.0000000E+000	0.0000000E+000	86.5191	0.0000000E+000	0.0000000E+000	0.0000000E+000	-86.5191	0.0000000E+000	0.0000000E+000	0.0000000E+000	-3.48095	0.0000000E+000	0.0000000E+000	0.0000000E+000	3.48095	16.4396	86.5191	4.43296e-07	-4.99406e-05	1.86609e-09	-4.99425e-05	3.97088	315709	11.7968	315721
6.31058	20.7147	1.09565	20.7437	-3.02768	24.6173	3.97074	-0.0121761	23018.7	64.217	1	11	0.00493802	0.000238049	0	-3.59891e-05	-7.20618e-05	4.35208e-06	-47.2371	0.0182823	0.012413	0.0134223	-3.06287	20.7568	20.7271	1.10907	0.0481402	0.00254624	0.0482075	3.02768	64217	1.21411e+06	1.21581e+06	-86.9723	0.0000000E+000	0.0000000E+000	0.0000000E+000	86.9723	0.0000000E+000	0.0000000E+000	0.0000000E+000	-86.9723	0.0000000E+000	0.0000000E+000	0.0000000E+000	-3.02768	0.0000000E+000	0.0000000E+000	0.0000000E+000	3.02768	18.9064	86.9723	2.52655e-07	-4.83482e-05	8.77433e-10	-4.8349e-05	3.97081	326108	5.91829	326114
3.97785	20.8952	1.02702	20.9204	-2.81389	25.6244	3.97074	-0.0104142	38957.6	93.8881	1	11	0.00493535	0.000235911	0	-3.99448e-05	-0.000186526	8.60674e-06	-10.2491	0.036483	0.0359009	0.00649135	-2.82679	20.9566	20.9311	1.03351	0.0477426	0.0023466	0.0478002	2.81389	93888.2	1.91019e+06	1.9125e+06	-87.1861	0.0000000E+000	0.0000000E+000	0.0000000E+000	87.1861	0.0000000E+000	0.0000000E+000	0.0000000E+000	-87.1861	0.0000000E+000	0.0000000E+000	0.0000000E+000	-2.81389	0.0000000E+000	0.0000000E+000	0.0000000E+000	2.81389	20.3454	87.1861	-3.92621e-06	-4.13519e-05	1.94251e-09	-4.13538e-05	3.97092	381283	17.9108	381301
2.51367	21.1155	1.0088	21.1396	-2.73523	27.1839	3.97074	-0.0103328	62763.6	142.929	1	11	0.00493612	0.000233502	0	-4.55183e-05	0.00027133	6.18776e-06	46.1522	0.0264999	0.0183576	-0.0191113	-2.68117	21.157	21.1338	0.989684	0.0472507	0.00225741	0.0473046	2.73523	142930	2.99171e+06	2.99512e+06	-87.2648	0.0000000E+000	0.0000000E+000	0.0000000E+000	87.2648	0.0000000E+000	0.0000000E+000	0.0000000E+000	-87.2648	0.0000000E+000	0.0000000E+000	0.0000000E+000	-2.73523	0.0000000E+000	0.0000000E+000	0.0000000E+000	2.73523	20.9314	87.2648	-1.09889e-06	-4.10288e-05	-2.80359e-09	-4.1026e-05	3.97047	384286	26.2591	384260
1.58469	21.3567	1.08385	21.3842	-2.90527	29.6196	3.97074	-0.00988427	92663.2	238.047	1	11	0.0049337	0.000230718	0	-4.46225e-05	4.24746e-06	2.59855e-06	79.3674	0.0112629	0.00207812	-0.0110695	-2.87537	21.3857	21.3587	1.07278	0.0467035	0.0023702	0.0467636	2.90527	238047	4.69058e+06	4.69662e+06	-87.0947	0.0000000E+000	0.0000000E+000	0.0000000E+000	87.0947	0.0000000E+000	0.0000000E+000	0.0000000E+000	-87.0947	0.0000000E+000	0.0000000E+000	0.0000000E+000	-2.90527	0.0000000E+000	0.0000000E+000	0.0000000E+000	2.90527	19.7044	87.0947	-3.67985e-07	-3.92478e-05	-4.1983e-11	-3.92478e-05	3.97073	401723	0.429719	401723
1.00469	22.0223	1.19405	22.0546	-3.10355	240.438	3.97071	-0.0095965	132667	388.875	1	11	0.00500599	0.000226982	0	-0.00149732	-0.000205603	1.77636e-07	0.398142	0.000782603	0.000782584	-5.43817e-06	-3.10342	22.0554	22.0231	1.19405	0.0452755	0.00245484	0.045342	3.10355	388875	7.17215e+06	7.18269e+06	-86.8965	0.0000000E+000	0.0000000E+000	0.0000000E+000	86.8965	0.0000000E+000	0.0000000E+000	0.0000000E+000	-86.8965	0.0000000E+000	0.0000000E+000	0.0000000E+000	-3.10355	0.0000000E+000	0.0000000E+000	0.0000000E+000	3.10355	18.4433	86.8965	-0.00144695	-3.81049e-05	1.97307e-09	-3.81069e-05	3.97091	413767	21.4248	413788
0.632957	22.3387	1.35597	22.3798	-3.47361	240.438	3.97071	-0.0095965	185437	680.74	1	11	0.00501884	0.000224258	0	-0.00149732	-0.000205603	4.72692e-07	-14.5555	0.00210781	0.00204016	0.000529729	-3.47465	22.3819	22.3408	1.3565	0.044601	0.0027073	0.0446831	3.47361	680740	1.12148e+07	1.12354e+07	-86.5264	0.0000000E+000	0.0000000E+000	0.0000000E+000	86.5264	0.0000000E+000	0.0000000E+000	0.0000000E+000	-86.5264	0.0000000E+000	0.0000000E+000	0.0000000E+000	-3.47361	0.0000000E+000	0.0000000E+000	0.0000000E+000	3.47361	16.4744	86.5264	0.000000000000000E+000	-3.81049e-05	1.97307e-09	-3.81069e-05	3.97091	413767	21.4248	413788
0.401878	22.5989	1.58696	22.6545	-4.01689	240.438	3.97071	-0.0095965	249552	1224.57	1	11	0.00503223	0.000222129	0	-0.00149732	-0.000205603	3.11868e-07	-3.69117	0.00140399	0.00140108	9.03871e-05	-4.01687	22.6559	22.6003	1.58705	0.0440328	0.00309212	0.0441413	4.01689	1.22457e+06	1.74383e+07	1.74812e+07	-85.9831	0.0000000E+000	0.0000000E+000	0.0000000E+000	85.9831	0.0000000E+000	0.0000000E+000	0.0000000E+000	-85.9831	0.0000000E+000	0.0000000E+000	0.0000000E+000	-4.01689	0.0000000E+000	0.0000000E+000	0.0000000E+000	4.01689	14.2404	85.9831	0.000000000000000E+000	-3.81049e-05	1.97307e-09	-3.81069e-05	3.97091	413767	21.4248	413788
0.251173	23.0735	1.89595	23.1512	-4.69746	240.438	3.97071	-0.0095965	334209	2241.44	1	11	0.00503272	0.000217385	0	-0.00149732	-0.000205603	1.7321e-07	17.5406	0.000796788	0.000759741	-0.000240137	-4.69672	23.152	23.0742	1.89571	0.0430492	0.00353737	0.0431943	4.69746	2.24144e+06	2.72779e+07	2.73699e+07	-85.3025	0.0000000E+000	0.0000000E+000	0.0000000E+000	85.3025	0.0000000E+000	0.0000000E+000	0.0000000E+000	-85.3025	0.0000000E+000	0.0000000E+000	0.0000000E+000	-4.69746	0.0000000E+000	0.0000000E+000	0.0000000E+000	4.69746	12.1698	85.3025	0.000000000000000E+000	-3.81049e-05	1.97307e-09	-3.81069e-05	3.97091	413767	21.4248	413788
0.160751	23.4723	2.16528	23.572	-5.27052	240.438	3.97071	-0.0095965	457249	3858.23	1	11	0.00502878	0.000213337	0	-0.00149732	-0.000205603	3.10798e-07	-54.3925	0.00145684	0.000848214	0.00118445	-5.27319	23.5729	23.4732	2.16646	0.0422439	0.00389692	0.0424233	5.27052	3.85823e+06	4.18245e+07	4.2002e+07	-84.7295	0.0000000E+000	0.0000000E+000	0.0000000E+000	84.7295	0.0000000E+000	0.0000000E+000	0.0000000E+000	-84.7295	0.0000000E+000	0.0000000E+000	0.0000000E+000	-5.27052	0.0000000E+000	0.0000000E+000	0.0000000E+000	5.27052	10.8403	84.7295	0.000000000000000E+000	-3.81049e-05	1.97307e-09	-3.81069e-05	3.97091	413767	21.4248	413788
0.100469	23.9689	2.98792	24.1544	-7.10572	240.438	3.97071	-0.0095965	530173	8112.62	1	11	0.00503197	0.000208325	0	-0.00149732	-0.000205603	6.37164e-07	-8.99149	0.00305851	0.00302093	0.000478008	-7.10596	24.1575	23.9719	2.98839	0.0410823	0.00512124	0.0414003	7.10572	8.11262e+06	6.5079e+07	6.55827e+07	-82.8943	0.0000000E+000	0.0000000E+000	0.0000000E+000	82.8943	0.0000000E+000	0.0000000E+000	0.0000000E+000	-82.8943	0.0000000E+000	0.0000000E+000	0.0000000E+000	-7.10572	0.0000000E+000	0.0000000E+000	0.0000000E+000	7.10572	8.02195	82.8943	0.000000000000000E+000	-3.81049e-05	1.97307e-09	-3.81069e-05	3.97091	413767	21.4248	413788
0.0602816	24.7878	3.67606	25.0589	-8.43554	240.438	3.97071	-0.0095965	718211	15455.8	1	11	0.00502758	0.00020063	0	-0.00149732	-0.000205603	7.55742e-07	-62.5092	0.00376684	0.0017388	0.00334151	-8.44252	25.0612	24.7896	3.67941	0.0394742	0.00585407	0.0399059	8.43554	1.54559e+07	1.04219e+08	1.05359e+08	-81.5645	0.0000000E+000	0.0000000E+000	0.0000000E+000	81.5645	0.0000000E+000	0.0000000E+000	0.0000000E+000	-81.5645	0.0000000E+000	0.0000000E+000	0.0000000E+000	-8.43554	0.0000000E+000	0.0000000E+000	0.0000000E+000	8.43554	6.74304	81.5645	0.000000000000000E+000	-3.81049e-05	1.97307e-09	-3.81069e-05	3.97091	413767	21.4248	413788
0.0401878	25.9564	4.32274	26.3138	-9.4552	240.438	3.97071	-0.0095965	916151	24723.9	1	11	0.00502569	0.00019099	0	-0.00149732	-0.000205603	6.2235e-07	67.345	0.00325854	0.00125513	-0.00300712	-9.44829	26.3146	25.9576	4.31974	0.0374865	0.00624296	0.0380028	9.4552	2.47239e+07	1.48457e+08	1.50502e+08	-80.5448	0.0000000E+000	0.0000000E+000	0.0000000E+000	80.5448	0.0000000E+000	0.0000000E+000	0.0000000E+000	-80.5448	0.0000000E+000	0.0000000E+000	0.0000000E+000	-9.4552	0.0000000E+000	0.0000000E+000	0.0000000E+000	9.4552	6.0046	80.5448	0.000000000000000E+000	-3.81049e-05	1.97307e-09	-3.81069e-05	3.97091	413767	21.4248	413788
0.0200939	28.096	6.45644	28.8283	-12.9419	240.438	3.97071	-0.0095965	1.22677e+06	61533.7	1	11	0.00502742	0.000174392	0	-0.00149732	-0.000205603	7.81149e-07	98.7626	0.00447927	-0.000682376	-0.00442699	-12.9336	28.8266	28.0953	6.45201	0.033807	0.00776884	0.0346882	12.9419	6.15337e+07	2.67771e+08	2.7475e+08	-77.0581	0.0000000E+000	0.0000000E+000	0.0000000E+000	77.0581	0.0000000E+000	0.0000000E+000	0.0000000E+000	-77.0581	0.0000000E+000	0.0000000E+000	0.0000000E+000	-12.9419	0.0000000E+000	0.0000000E+000	0.0000000E+000	12.9419	4.35162	77.0581	0.000000000000000E+000	-3.81049e-05	1.97307e-09	-3.81069e-05	3.97091	413767	21.4248	413788
0.00796479	33.971	8.72677	35.074	-14.4071	20329.3	3.97073	0.000487417	2.28977e+06	141752	1	11	0.00502061	0.000143143	0	-0.00764776	0.000118711	5.76358e-07	-34.8165	0.00402644	0.00330564	0.0022989	-14.4094	35.0778	33.9743	8.72907	0.0276145	0.00709386	0.0285111	14.4071	1.41752e+08	5.51803e+08	5.69719e+08	-75.5929	0.0000000E+000	0.0000000E+000	0.0000000E+000	75.5929	0.0000000E+000	0.0000000E+000	0.0000000E+000	-75.5929	0.0000000E+000	0.0000000E+000	0.0000000E+000	-14.4071	0.0000000E+000	0.0000000E+000	0.0000000E+000	14.4071	3.89274	75.5929	-0.00615044	1.9354e-06	5.78619e-11	1.93534e-06	3.97061	8.14647e+06	243.552	8.14622e+06
0.00497799	37.2663	9.89871	38.5586	-14.8755	20329.3	3.97073	0.000487417	3.22989e+06	212864	1	11	0.00502802	0.0001304	0	-0.00764776	0.000118711	5.26795e-07	-7.50429	0.00403985	0.00400525	0.000527606	-14.8747	38.5626	37.2703	9.89923	0.0250654	0.00665789	0.0259346	14.8755	2.12864e+08	8.01384e+08	8.29173e+08	-75.1245	0.0000000E+000	0.0000000E+000	0.0000000E+000	75.1245	0.0000000E+000	0.0000000E+000	0.0000000E+000	-75.1245	0.0000000E+000	0.0000000E+000	0.0000000E+000	-14.8755	0.0000000E+000	0.0000000E+000	0.0000000E+000	14.8755	3.76477	75.1245	0.000000000000000E+000	1.9354e-06	5.78619e-11	1.93534e-06	3.97061	8.14647e+06	243.552	8.14622e+06
0.00318591	39.9504	12.1055	41.7442	-16.8575	20329.3	3.97073	0.000487417	4.12669e+06	347038	1	11	0.00503032	0.000120503	0	-0.00764776	0.000118711	5.16362e-07	-47.6541	0.00428504	0.00288642	0.00316704	-16.8605	41.7479	39.9533	12.1087	0.022926	0.0069469	0.0239554	16.8575	3.47038e+08	1.14529e+09	1.19671e+09	-73.1425	0.0000000E+000	0.0000000E+000	0.0000000E+000	73.1425	0.0000000E+000	0.0000000E+000	0.0000000E+000	-73.1425	0.0000000E+000	0.0000000E+000	0.0000000E+000	-16.8575	0.0000000E+000	0.0000000E+000	0.0000000E+000	16.8575	3.30018	73.1425	0.000000000000000E+000	1.9354e-06	5.78619e-11	1.93534e-06	3.97061	8.14647e+06	243.552	8.14622e+06
0.0019912	43.2916	13.2607	45.277	-17.0304	20329.3	3.97073	0.000487417	6.02755e+06	517029	1	11	0.00503296	0.000111159	0	-0.00764776	0.000118711	5.54952e-07	-47.1139	0.00499241	0.00339755	0.00365798	-17.0335	45.2814	43.295	13.2643	0.0211178	0.00646858	0.0220862	17.0304	5.17029e+08	1.68793e+09	1.76534e+09	-72.9696	0.0000000E+000	0.0000000E+000	0.0000000E+000	72.9696	0.0000000E+000	0.0000000E+000	0.0000000E+000	-72.9696	0.0000000E+000	0.0000000E+000	0.0000000E+000	-17.0304	0.0000000E+000	0.0000000E+000	0.0000000E+000	17.0304	3.26466	72.9696	0.000000000000000E+000	1.9354e-06	5.78619e-11	1.93534e-06	3.97061	8.14647e+06	243.552	8.14622e+06
0.00129428	45.383	14.2206	47.5588	-17.3982	20329.3	3.97073	0.000487417	8.64717e+06	773124	1	11	0.00503364	0.00010584	0	-0.00764776	0.000118711	3.63405e-07	0.304398	0.00343352	0.00343347	-1.82413e-05	-17.397	47.5621	45.3864	14.2206	0.0200646	0.00628719	0.0210266	17.3982	7.73125e+08	2.46731e+09	2.5856e+09	-72.6018	0.0000000E+000	0.0000000E+000	0.0000000E+000	72.6018	0.0000000E+000	0.0000000E+000	0.0000000E+000	-72.6018	0.0000000E+000	0.0000000E+000	0.0000000E+000	-17.3982	0.0000000E+000	0.0000000E+000	0.0000000E+000	17.3982	3.19135	72.6018	0.000000000000000E+000	1.9354e-06	5.78619e-11	1.93534e-06	3.97061	8.14647e+06	243.552	8.14622e+06
0.000796479	49.4986	15.5537	51.8848	-17.4441	20329.3	3.97073	0.000487417	1.28473e+07	1.15452e+06	1	11	0.00503197	9.69836e-05	0	-0.00764776	0.000118711	6.82795e-07	6.23706	0.00704031	0.00699864	-0.000764876	-17.4409	51.8912	49.5056	15.553	0.0183871	0.0057777	0.0192735	17.4441	1.15452e+09	3.67417e+09	3.85129e+09	-72.5559	0.0000000E+000	0.0000000E+000	0.0000000E+000	72.5559	0.0000000E+000	0.0000000E+000	0.0000000E+000	-72.5559	0.0000000E+000	0.0000000E+000	0.0000000E+000	-17.4441	0.0000000E+000	0.0000000E+000	0.0000000E+000	17.4441	3.18243	72.5559	0.000000000000000E+000	1.9354e-06	5.78619e-11	1.93534e-06	3.97061	8.14647e+06	243.552	8.14622e+06
0.000497799	50.9497	18.1749	54.0944	-19.6324	20329.3	3.97073	0.000487417	1.75911e+07	1.98579e+06	1	11	0.00503614	9.30992e-05	0	-0.00764776	0.000118711	3.43822e-07	-27.2457	0.00369307	0.00328333	0.00169071	-19.633	54.098	50.953	18.1766	0.0174116	0.00621109	0.0184862	19.6324	1.98579e+09	5.56677e+09	5.91036e+09	-70.3676	0.0000000E+000	0.0000000E+000	0.0000000E+000	70.3676	0.0000000E+000	0.0000000E+000	0.0000000E+000	-70.3676	0.0000000E+000	0.0000000E+000	0.0000000E+000	-19.6324	0.0000000E+000	0.0000000E+000	0.0000000E+000	19.6324	2.8033	70.3676	0.000000000000000E+000	1.9354e-06	5.78619e-11	1.93534e-06	3.97061	8.14647e+06	243.552	8.14622e+06
0.000298679	51.6928	27.736	58.6638	-28.216	20329.3	3.97073	0.000487417	1.92119e+07	4.29457e+06	1	11	0.0050369	8.58604e-05	0	-0.00764776	0.000118711	5.15552e-07	17.0412	0.00600454	0.0057409	-0.00175969	-28.2118	58.668	51.6986	27.7343	0.0150207	0.00805944	0.0170463	28.216	4.29457e+09	8.00397e+09	9.08333e+09	-61.784	0.0000000E+000	0.0000000E+000	0.0000000E+000	61.784	0.0000000E+000	0.0000000E+000	0.0000000E+000	-61.784	0.0000000E+000	0.0000000E+000	0.0000000E+000	-28.216	0.0000000E+000	0.0000000E+000	0.0000000E+000	28.216	1.86374	61.784	0.000000000000000E+000	1.9354e-06	5.78619e-11	1.93534e-06	3.97061	8.14647e+06	243.552	8.14622e+06
9.95598e-05	61.1575	77.3194	98.5826	-51.657	20329.3	3.97073	0.000487417	2.06751e+07	1.27181e+07	1	11	0.00503168	5.10402e-05	0	-0.00764776	0.000118711	1.93192e-06	-60.9997	0.0378509	0.0183507	0.033105	-51.6605	98.62	61.1759	77.3525	0.00629288	0.00795587	0.0101438	51.657	1.27181e+10	1.00597e+10	1.62157e+10	-38.343	0.0000000E+000	0.0000000E+000	0.0000000E+000	38.343	0.0000000E+000	0.0000000E+000	0.0000000E+000	-38.343	0.0000000E+000	0.0000000E+000	0.0000000E+000	-51.657	0.0000000E+000	0.0000000E+000	0.0000000E+000	51.657	0.790973	38.343	0.000000000000000E+000	1.9354e-06	5.78619e-11	1.93534e-06	3.97061	8.14647e+06	243.552	8.14622e+06