File: txt/19078_R307_UC93_28_SOC50_C02.mpt
EC-Lab ASCII FILE
Nb header lines : 65

Potentio Electrochemical Impedance Spectroscopy

Run on channel : 2 (SN 66139)
Grouped channel(s) : 1, 2, 3, 4, 5
User :
CE vs. WE compliance from -10 V to 10 V
Electrode connection : standard
Potential control : Ewe
Ewe ctrl range : min = -10.00 V, max = 10.00 V
Safety Limits :
	Do not start on E overload
Acquisition started on : 11/10/2025 15:44:01.793
Loaded Setting File :  C:\Users\Celltest\OneDrive - store-dot.com\Documents\EC-Lab\Data\@Biologic Test Protocols\cathode half cell EIS SOC50.mps
Saved on :
	File : 19077_R307_UC93_28_SOC50_C02.mpr
	Directory : C:\Users\Celltest\OneDrive - store-dot.com\Documents\EC-Lab\Data\Anna\
	Host : 169.254.61.224
Device : VMP-3e (SN .003165)
Address : USB
EC-LAB for windows v11.62 (software)
Internet server v27.00 (firmware)
Command interpretor v12.03 (firmware)
Electrode material :
Initial state :
Electrolyte :
Comments :
Electrode surface area : 0.001 cm²
Characteristic mass : 0.001 g
Equivalent Weight : 0.000 g/eq.
Density : 0.000 g/cm3
Volume (V) : 0.001 cm³
Record Ece
Cycle Definition : Charge/Discharge alternance
Mode                Multi sine
E (V)               0.0000
vs.                 Eoc
tE (h:m:s)          0:00:0.0000
record              0
dI                  0.000
unit dI             mA
dt (s)              0.000
fi                  1.000
unit fi             MHz
ff                  0.100
unit ff             mHz
Nd                  10
Points              per decade
spacing             Logarithmic
Va (mV)             5.0
pw                  0.10
Na                  2
corr                0
E range min (V)     -10.000
E range max (V)     10.000
I Range             Auto
Bandwidth           5
nc cycles           0
goto Ns'            0
nr cycles           0
inc. cycle          0

freq/Hz	Re(Z)/Ohm	-Im(Z)/Ohm	|Z|/Ohm	Phase(Z)/deg	time/s	<Ewe>/V	<I>/mA	Cs/µF	Cp/µF	cycle number	I Range	|Ewe|/V	|I|/A	Ns	(Q-Qo)/mA.h	<Ece>/V	|Ece|/V	Phase(Zce)/deg	|Zce|/Ohm	Re(Zce)/Ohm	-Im(Zce)/Ohm	Phase(Zwe-ce)/deg	|Zwe-ce|/Ohm	Re(Zwe-ce)/Ohm	-Im(Zwe-ce)/Ohm	Re(Y)/Ohm-1	Im(Y)/Ohm-1	|Y|/Ohm-1	Phase(Y)/deg	Re(C)/nF	Im(C)/nF	|C|/nF	Phase(C)/deg	Re(M)	Im(M)	|M|	Phase(M)/deg	Re(Permittivity)	Im(Permittivity)	|Permittivity|	Phase(Permittivity)/deg	Re(Resistivity)/Ohm.cm	Im(Resistivity)/Ohm.cm	|Resistivity|/Ohm.cm	Phase(Resistivity)/deg	Re(Conductivity)/mS/cm	Im(Conductivity)/mS/cm	|Conductivity|/mS/cm	Phase(Conductivity)/deg	Tan(Delta)	Loss Angle(Delta)/deg	dq/mA.h	Pwe/W	Pce/W	Pwe-ce/W	<Ewe-Ece>/V	Rwe/Ohm	Rce/Ohm	Rwe-ce/Ohm		Ewe-Ece/V
1.00002e+06	2.46627	2.39826	3.44008	-44.1989	2.23353	3.96799	-0.0544625	0.0663615	0.0322531	1	10	0.00023161	6.7327e-05	0	-1.93125e-05	0.000102288	0.000174686	-65.138	2.59459	1.09086	2.35413	-53.1854	5.93619	3.55713	4.75239	0.208403	0.202656	0.290691	44.1989	32.2531	33.1678	46.2641	-45.8011	0.0000000E+000	0.0000000E+000	0.0000000E+000	45.8011	0.0000000E+000	0.0000000E+000	0.0000000E+000	-45.8011	0.0000000E+000	0.0000000E+000	0.0000000E+000	-44.1989	0.0000000E+000	0.0000000E+000	0.0000000E+000	44.1989	1.02836	45.8011	-1.93125e-05	-0.000216106	-5.57084e-09	-0.000216101	3.96789	72857.3	1.87813	72855.4
630957	1.15516	-0.0676917	1.15714	3.35366	3.40152	3.96788	-0.0590698	-3.72636	-0.0127521	1	9	0.000390508	0.000337476	0	-3.48749e-05	0.000197742	0.000112105	-100.857	0.332187	-0.0625693	0.326241	-13.3135	1.12277	1.09259	0.258549	0.862717	-0.0505546	0.864197	-3.35366	-12.7521	217.615	217.988	-93.3537	0.0000000E+000	0.0000000E+000	0.0000000E+000	93.3537	0.0000000E+000	0.0000000E+000	0.0000000E+000	-93.3537	0.0000000E+000	0.0000000E+000	0.0000000E+000	3.35366	0.0000000E+000	0.0000000E+000	0.0000000E+000	-3.35366	17.065	86.6463	-5.63142e-06	-0.000234382	-1.16806e-08	-0.00023437	3.96769	67172.8	3.3476	67169.5
398103	1.47186	0.187015	1.48369	-7.2412	4.16756	3.96803	-0.0535946	2.13771	0.0339634	1	9	0.00143155	0.000964853	0	-4.52413e-05	0.000140469	4.01868e-05	-175.548	0.0416507	-0.041525	0.00323309	-7.57639	1.44293	1.43034	0.190248	0.668618	0.0849546	0.673993	7.2412	33.9634	267.302	269.451	-82.7588	0.0000000E+000	0.0000000E+000	0.0000000E+000	82.7588	0.0000000E+000	0.0000000E+000	0.0000000E+000	-82.7588	0.0000000E+000	0.0000000E+000	0.0000000E+000	-7.2412	0.0000000E+000	0.0000000E+000	0.0000000E+000	7.2412	7.8703	82.7588	-4.76484e-06	-0.000212665	-7.5284e-09	-0.000212657	3.96789	74037.8	2.62096	74035.2
251206	1.63957	0.446268	1.69922	-15.2263	4.93555	3.96802	-0.047151	1.41969	0.0979238	1	9	0.00440459	0.00259213	0	-5.28464e-05	0.000197742	2.58685e-05	93.848	0.00997963	-0.000669728	-0.00995713	-14.9076	1.69598	1.6389	0.436311	0.567848	0.154561	0.588507	15.2263	97.9239	359.767	372.856	-74.7737	0.0000000E+000	0.0000000E+000	0.0000000E+000	74.7737	0.0000000E+000	0.0000000E+000	0.0000000E+000	-74.7737	0.0000000E+000	0.0000000E+000	0.0000000E+000	-15.2263	0.0000000E+000	0.0000000E+000	0.0000000E+000	15.2263	3.67395	74.7737	-4.66527e-06	-0.000187096	-9.32373e-09	-0.000187087	3.96782	84155.5	4.1938	84151.3
158486	1.81329	0.658387	1.92912	-19.9554	5.70255	3.96793	-0.0345619	1.52527	0.177661	1	9	0.00541927	0.00280919	0	-5.97351e-05	-0.000222257	2.71455e-05	108.62	0.00966311	-0.00308533	-0.00915732	-19.7303	1.92311	1.81021	0.64923	0.487247	0.176914	0.518371	19.9554	177.661	489.303	520.558	-70.0446	0.0000000E+000	0.0000000E+000	0.0000000E+000	70.0446	0.0000000E+000	0.0000000E+000	0.0000000E+000	-70.0446	0.0000000E+000	0.0000000E+000	0.0000000E+000	-19.9554	0.0000000E+000	0.0000000E+000	0.0000000E+000	19.9554	2.75414	70.0446	-8.89075e-07	-0.000137139	7.68162e-09	-0.000137147	3.96815	114806	6.43069	114813
100004	2.02865	0.822248	2.18896	-22.0636	6.46855	3.96789	-0.0331466	1.93553	0.273107	1	9	0.00549353	0.00250966	0	-6.69012e-05	0.000178651	1.83103e-05	101.336	0.00729594	-0.00143414	-0.0071536	-21.9038	2.18495	2.02722	0.815095	0.423383	0.171605	0.456839	22.0636	273.107	673.811	727.054	-67.9364	0.0000000E+000	0.0000000E+000	0.0000000E+000	67.9364	0.0000000E+000	0.0000000E+000	0.0000000E+000	-67.9364	0.0000000E+000	0.0000000E+000	0.0000000E+000	-22.0636	0.0000000E+000	0.0000000E+000	0.0000000E+000	22.0636	2.4672	67.9364	-1.01592e-06	-0.000131522	-5.92167e-09	-0.000131516	3.96771	119707	5.38973	119702
63093.8	2.27948	1.01165	2.49388	-23.932	7.35856	3.96789	-0.0325507	2.49346	0.41031	1	9	0.00544825	0.00218465	0	-7.70163e-05	8.31968e-05	1.81222e-05	86.4691	0.00829526	0.000510878	-0.00827951	-23.7532	2.491	2.27999	1.00337	0.366508	0.162659	0.400981	23.932	410.31	924.521	1011.48	-66.068	0.0000000E+000	0.0000000E+000	0.0000000E+000	66.068	0.0000000E+000	0.0000000E+000	0.0000000E+000	-66.068	0.0000000E+000	0.0000000E+000	0.0000000E+000	-23.932	0.0000000E+000	0.0000000E+000	0.0000000E+000	23.932	2.25323	66.068	-3.02218e-06	-0.000129158	-2.70811e-09	-0.000129155	3.96781	121899	2.55592	121896
39814.1	2.58805	1.20412	2.85445	-24.9507	8.37252	3.96786	-0.0378768	3.31982	0.590756	1	9	0.00514125	0.00180114	0	-8.06888e-05	-0.000222257	1.95136e-05	-3.38106	0.010834	0.0108152	0.000638953	-24.8711	2.86453	2.59886	1.20476	0.317634	0.147783	0.35033	24.9507	590.756	1269.73	1400.43	-65.0493	0.0000000E+000	0.0000000E+000	0.0000000E+000	65.0493	0.0000000E+000	0.0000000E+000	0.0000000E+000	-65.0493	0.0000000E+000	0.0000000E+000	0.0000000E+000	-24.9507	0.0000000E+000	0.0000000E+000	0.0000000E+000	24.9507	2.14933	65.0493	-1.11339e-06	-0.00015029	8.41838e-09	-0.000150298	3.96809	104757	5.86788	104763
25116.9	2.91933	1.41961	3.2462	-25.9328	9.01656	3.96788	-0.0370947	4.46358	0.85364	1	9	0.00483555	0.0014896	0	-8.61911e-05	0.00038865	2.70357e-05	1.11729	0.0181496	0.0181461	-0.000353902	-25.7878	3.26237	2.93748	1.41926	0.277034	0.134717	0.308053	25.9328	853.64	1755.45	1952	-64.0672	0.0000000E+000	0.0000000E+000	0.0000000E+000	64.0672	0.0000000E+000	0.0000000E+000	0.0000000E+000	-64.0672	0.0000000E+000	0.0000000E+000	0.0000000E+000	-25.9328	0.0000000E+000	0.0000000E+000	0.0000000E+000	25.9328	2.05642	64.0672	-2.74254e-06	-0.000147187	-1.44169e-08	-0.000147173	3.96749	106966	10.4773	106956
15847.7	3.35243	1.66777	3.74436	-26.4494	9.78256	3.96786	-0.0461827	6.0217	1.19463	1	9	0.0049922	0.00133326	0	-9.67384e-05	-3.13483e-05	3.50754e-06	-6.11708	0.0026308	0.00261582	0.00028034	-26.4355	3.74682	3.35504	1.66805	0.239114	0.118955	0.267069	26.4494	1194.64	2401.37	2682.11	-63.5506	0.0000000E+000	0.0000000E+000	0.0000000E+000	63.5506	0.0000000E+000	0.0000000E+000	0.0000000E+000	-63.5506	0.0000000E+000	0.0000000E+000	0.0000000E+000	-26.4494	0.0000000E+000	0.0000000E+000	0.0000000E+000	26.4494	2.01013	63.5506	-5.24162e-06	-0.000183247	1.44775e-09	-0.000183248	3.96789	85916.7	0.678789	85917.4
10002.2	3.8145	1.94778	4.28302	-27.05	10.4566	3.96787	-0.0441585	8.16929	1.68952	1	10	0.00463642	0.00108251	0	-0.000104265	-3.13483e-05	1.14338e-05	-115.816	0.0105623	-0.00459968	0.00950811	-27.1912	4.28326	3.8099	1.95729	0.20794	0.106179	0.23348	27.05	1689.52	3308.73	3715.13	-62.95	0.0000000E+000	0.0000000E+000	0.0000000E+000	62.95	0.0000000E+000	0.0000000E+000	0.0000000E+000	-62.95	0.0000000E+000	0.0000000E+000	0.0000000E+000	-27.05	0.0000000E+000	0.0000000E+000	0.0000000E+000	27.05	1.95839	62.95	-5.13209e-06	-0.000175215	1.38429e-09	-0.000175217	3.96791	89855.3	0.709904	89856
6309.38	4.33227	2.30856	4.90897	-28.052	10.9765	3.96789	-0.0409697	10.9268	2.41654	1	10	0.00467874	0.000953101	0	-0.000108791	6.41059e-05	1.02651e-05	-140.29	0.0107703	-0.00828543	0.00688112	-28.1685	4.9049	4.32398	2.31544	0.179777	0.0957987	0.203709	28.052	2416.54	4534.9	5138.58	-61.948	0.0000000E+000	0.0000000E+000	0.0000000E+000	61.948	0.0000000E+000	0.0000000E+000	0.0000000E+000	-61.948	0.0000000E+000	0.0000000E+000	0.0000000E+000	-28.052	0.0000000E+000	0.0000000E+000	0.0000000E+000	28.052	1.87661	61.948	-2.168e-06	-0.000162563	-2.6264e-09	-0.000162561	3.96783	96849.4	1.56472	96847.9
3983.6	4.95362	2.77122	5.6761	-29.2241	11.541	3.96781	-0.0503945	14.4169	3.4365	1	10	0.00456279	0.000803861	0	-0.000115628	0.000255014	4.21013e-06	-19.6493	0.00523739	0.0049324	0.00176114	-29.2153	5.68126	4.95856	2.77298	0.153753	0.0860146	0.176177	29.2241	3436.5	6142.82	7038.74	-60.7759	0.0000000E+000	0.0000000E+000	0.0000000E+000	60.7759	0.0000000E+000	0.0000000E+000	0.0000000E+000	-60.7759	0.0000000E+000	0.0000000E+000	0.0000000E+000	-29.2241	0.0000000E+000	0.0000000E+000	0.0000000E+000	29.2241	1.78752	60.7759	-3.79403e-06	-0.000199956	-1.28513e-08	-0.000199943	3.96755	78735	5.06036	78729.9
2510.8	5.73025	3.36819	6.64684	-30.4466	12.5798	3.96782	-0.0294476	18.8196	4.83252	1	10	0.0049671	0.000747288	0	-0.000124356	0.00015956	8.22501e-06	-105.855	0.0110065	-0.0030071	0.0105877	-30.5384	6.64962	5.72724	3.37878	0.129701	0.0762371	0.150448	30.4466	4832.52	8221.5	9536.58	-59.5534	0.0000000E+000	0.0000000E+000	0.0000000E+000	59.5534	0.0000000E+000	0.0000000E+000	0.0000000E+000	-59.5534	0.0000000E+000	0.0000000E+000	0.0000000E+000	-30.4466	0.0000000E+000	0.0000000E+000	0.0000000E+000	30.4466	1.70129	59.5534	-4.27843e-06	-0.000116843	-4.69866e-09	-0.000116838	3.96766	134742	5.41844	134736
1585.51	6.74422	4.10075	7.89308	-31.3012	13.4818	3.96784	-0.0275999	24.4787	6.60727	1	10	0.00489976	0.000620766	0	-0.000131566	0.000216833	6.94347e-06	29.7793	0.0111853	0.00970825	-0.00555531	-31.2302	7.89849	6.75393	4.0952	0.108253	0.0658219	0.126693	31.3012	6607.28	10866.5	12717.6	-58.6988	0.0000000E+000	0.0000000E+000	0.0000000E+000	58.6988	0.0000000E+000	0.0000000E+000	0.0000000E+000	-58.6988	0.0000000E+000	0.0000000E+000	0.0000000E+000	-31.3012	0.0000000E+000	0.0000000E+000	0.0000000E+000	31.3012	1.64463	58.6988	-3.75873e-06	-0.000109512	-5.98456e-09	-0.000109506	3.96762	143763	7.85629	143755
1000.32	8.0265	4.92412	9.41656	-31.5284	14.3838	3.96783	-0.0281773	32.3111	8.83538	1	10	0.00484773	0.000514809	0	-0.000138583	6.41059e-05	3.98316e-06	11.4824	0.00773715	0.0075823	-0.00154021	-31.4963	9.42222	8.03408	4.92258	0.0905193	0.0555321	0.106196	31.5284	8835.38	14402	16896.2	-58.4716	0.0000000E+000	0.0000000E+000	0.0000000E+000	58.4716	0.0000000E+000	0.0000000E+000	0.0000000E+000	-58.4716	0.0000000E+000	0.0000000E+000	0.0000000E+000	-31.5284	0.0000000E+000	0.0000000E+000	0.0000000E+000	31.5284	1.63004	58.4716	-3.74924e-06	-0.000111803	-1.80633e-09	-0.000111801	3.96776	140816	2.27509	140814
631.01	9.73248	5.7841	11.3215	-30.7234	15.2845	3.96782	-0.0287175	43.6062	11.3818	1	10	0.0048263	0.000426294	0	-0.000145244	0.00015956	6.51153e-06	41.5563	0.0152747	0.0114302	-0.0101326	-30.6498	11.3262	9.74391	5.77396	0.0759301	0.0451259	0.0883274	30.7234	11381.8	19151.3	22278.2	-59.2766	0.0000000E+000	0.0000000E+000	0.0000000E+000	59.2766	0.0000000E+000	0.0000000E+000	0.0000000E+000	-59.2766	0.0000000E+000	0.0000000E+000	0.0000000E+000	-30.7234	0.0000000E+000	0.0000000E+000	0.0000000E+000	30.7234	1.68263	59.2766	-3.2051e-06	-0.000113946	-4.58216e-09	-0.000113941	3.96766	138168	5.5562	138162
398.089	11.862	6.41279	13.4844	-28.3964	16.1849	3.96784	-0.0286579	62.3438	14.1001	1	10	0.00482079	0.000357508	0	-0.000152344	0.000331378	8.68014e-06	-24.562	0.0242796	0.0220826	0.0100925	-28.3895	13.5087	11.884	6.42288	0.0652366	0.035268	0.0741596	28.3964	14100.1	26081.4	29648.8	-61.6036	0.0000000E+000	0.0000000E+000	0.0000000E+000	61.6036	0.0000000E+000	0.0000000E+000	0.0000000E+000	-61.6036	0.0000000E+000	0.0000000E+000	0.0000000E+000	-28.3964	0.0000000E+000	0.0000000E+000	0.0000000E+000	28.3964	1.84974	61.6036	-3.69874e-06	-0.00011371	-9.49658e-09	-0.0001137	3.96751	138456	11.5632	138444
251.044	14.2599	6.62455	15.7236	-24.9175	17.0831	3.96783	-0.0278421	95.7004	16.9873	1	10	0.00480594	0.000305652	0	-0.000158846	4.50151e-05	1.02348e-05	-21.7068	0.033485	0.0311105	0.0123847	-24.9107	15.757	14.2911	6.63693	0.0576787	0.026795	0.0635988	24.9175	16987.3	36566.7	40319.8	-65.0825	0.0000000E+000	0.0000000E+000	0.0000000E+000	65.0825	0.0000000E+000	0.0000000E+000	0.0000000E+000	-65.0825	0.0000000E+000	0.0000000E+000	0.0000000E+000	-24.9175	0.0000000E+000	0.0000000E+000	0.0000000E+000	24.9175	2.15259	65.0825	-3.45742e-06	-0.000110472	-1.25331e-09	-0.000110471	3.96778	142512	1.6168	142510
158.428	16.7426	6.22148	17.8612	-20.3849	17.9878	3.96782	-0.0271566	161.471	19.5912	1	10	0.00479189	0.000268286	0	-0.000164909	0.000331378	2.92397e-05	78.5146	0.108987	0.0217013	-0.106805	-20.0391	17.8446	16.7643	6.11467	0.0524811	0.0195018	0.0559874	20.3849	19591.2	52721.8	56244.1	-69.6151	0.0000000E+000	0.0000000E+000	0.0000000E+000	69.6151	0.0000000E+000	0.0000000E+000	0.0000000E+000	-69.6151	0.0000000E+000	0.0000000E+000	0.0000000E+000	-20.3849	0.0000000E+000	0.0000000E+000	0.0000000E+000	20.3849	2.6911	69.6151	-3.17342e-06	-0.000107753	-8.9991e-09	-0.000107744	3.96749	146109	12.2025	146097
100.032	18.7842	5.34104	19.5288	-15.8724	18.8869	3.96784	-0.0265755	297.89	22.2821	1	10	0.00479563	0.000245567	0	-0.000171826	4.50151e-05	9.79476e-06	12.2083	0.0398862	0.0389842	-0.00843456	-15.8174	19.564	18.8232	5.33261	0.0492541	0.0140048	0.0512065	15.8724	22282.1	78365.3	81471.6	-74.1276	0.0000000E+000	0.0000000E+000	0.0000000E+000	74.1276	0.0000000E+000	0.0000000E+000	0.0000000E+000	-74.1276	0.0000000E+000	0.0000000E+000	0.0000000E+000	-15.8724	0.0000000E+000	0.0000000E+000	0.0000000E+000	15.8724	3.51696	74.1276	-3.14117e-06	-0.000105447	-1.1963e-09	-0.000105446	3.96779	149304	1.69386	149303
63.0823	20.3575	4.20872	20.788	-11.6808	20.0539	3.96788	-0.0253942	599.463	24.5717	1	11	0.00480653	0.000231216	0	-0.000179526	0.000102288	8.67063e-06	-37.8393	0.0375001	0.0296151	0.0230044	-11.7263	20.8217	20.3871	4.23172	0.0471084	0.0097392	0.0481046	11.6808	24571.7	118853	121367	-78.3192	0.0000000E+000	0.0000000E+000	0.0000000E+000	78.3192	0.0000000E+000	0.0000000E+000	0.0000000E+000	-78.3192	0.0000000E+000	0.0000000E+000	0.0000000E+000	-11.6808	0.0000000E+000	0.0000000E+000	0.0000000E+000	11.6808	4.83699	78.3192	-4.77307e-06	-0.000100761	-2.59751e-09	-0.000100758	3.96778	156252	4.028	156248
39.8089	21.3268	3.16652	21.5606	-8.44535	20.9548	3.96788	-0.0254482	1262.58	27.2333	1	11	0.00479942	0.000222602	0	-0.000185656	-1.22574e-05	7.0726e-06	-16.7822	0.0317724	0.0304192	0.00917381	-8.45758	21.592	21.3572	3.17569	0.045878	0.00681178	0.0463809	8.44535	27233.3	183419	185430	-81.5546	0.0000000E+000	0.0000000E+000	0.0000000E+000	81.5546	0.0000000E+000	0.0000000E+000	0.0000000E+000	-81.5546	0.0000000E+000	0.0000000E+000	0.0000000E+000	-8.44535	0.0000000E+000	0.0000000E+000	0.0000000E+000	8.44535	6.73509	81.5546	-3.02414e-06	-0.000100975	3.1193e-10	-0.000100976	3.96789	155920	0.481662	155920
25.1044	21.9047	2.36162	22.0316	-6.15349	21.834	3.96788	-0.0253319	2684.48	30.8452	1	11	0.00479503	0.000217643	0	-0.000191513	-1.22574e-05	5.59819e-06	-164.991	0.0257219	-0.0248443	0.00666141	-6.17767	22.0076	21.8798	2.36828	0.0451279	0.00486539	0.0453894	6.15349	30845.2	286098	287756	-83.8465	0.0000000E+000	0.0000000E+000	0.0000000E+000	83.8465	0.0000000E+000	0.0000000E+000	0.0000000E+000	-83.8465	0.0000000E+000	0.0000000E+000	0.0000000E+000	-6.15349	0.0000000E+000	0.0000000E+000	0.0000000E+000	6.15349	9.27527	83.8465	-3.33961e-06	-0.000100514	3.10504e-10	-0.000100514	3.96789	156636	0.483874	156636
15.8576	22.2524	1.85028	22.3292	-4.7532	22.712	3.96787	-0.0252074	5424.32	37.2457	1	11	0.00478876	0.000214462	0	-0.00019656	-8.86208e-05	2.48591e-05	79.2611	0.115914	0.0215986	-0.113884	-4.45756	22.3416	22.274	1.7364	0.0446304	0.00371101	0.0447845	4.7532	37245.7	447934	449480	-85.2468	0.0000000E+000	0.0000000E+000	0.0000000E+000	85.2468	0.0000000E+000	0.0000000E+000	0.0000000E+000	-85.2468	0.0000000E+000	0.0000000E+000	0.0000000E+000	-4.7532	0.0000000E+000	0.0000000E+000	0.0000000E+000	4.7532	12.0265	85.2468	-2.16932e-06	-0.00010002	2.2339e-09	-0.000100022	3.96796	157409	3.51567	157413
10.0032	22.5848	1.42748	22.6299	-3.61657	23.6928	3.96788	-0.0246276	11145.8	44.3491	1	11	0.00479684	0.000211969	0	-0.000203885	6.8334e-06	4.90626e-06	-105.51	0.0231461	-0.00618952	0.0223032	-3.67393	22.6251	22.5786	1.44978	0.0441014	0.00278743	0.0441894	3.61657	44349.1	701670	703070	-86.3834	0.0000000E+000	0.0000000E+000	0.0000000E+000	86.3834	0.0000000E+000	0.0000000E+000	0.0000000E+000	-86.3834	0.0000000E+000	0.0000000E+000	0.0000000E+000	-3.61657	0.0000000E+000	0.0000000E+000	0.0000000E+000	3.61657	15.8215	86.3834	-4.77497e-06	-9.77192e-05	-1.6829e-10	-9.77191e-05	3.96787	161115	0.27747	161115
6.31058	22.8566	1.19557	22.8878	-2.99426	24.6153	3.96789	-0.0245273	21094.9	57.5594	1	11	0.0048022	0.000209815	0	-0.000208886	0.000293196	4.45449e-06	11.5657	0.0212306	0.0207995	-0.00425657	-2.98091	22.9084	22.8774	1.19131	0.0436317	0.00228226	0.0436914	2.99426	57559.4	1.10041e+06	1.10191e+06	-87.0057	0.0000000E+000	0.0000000E+000	0.0000000E+000	87.0057	0.0000000E+000	0.0000000E+000	0.0000000E+000	-87.0057	0.0000000E+000	0.0000000E+000	0.0000000E+000	-2.99426	0.0000000E+000	0.0000000E+000	0.0000000E+000	2.99426	19.1178	87.0057	-3.53872e-06	-9.73215e-05	-7.1913e-09	-9.73143e-05	3.96759	161774	11.9539	161762
3.97785	23.0128	1.11918	23.04	-2.78427	25.6223	3.96789	-0.023179	35749.5	84.3543	1	11	0.00479111	0.000207947	0	-0.000215119	6.8334e-06	3.85248e-06	-51.7601	0.0185262	0.0114669	0.014551	-2.81901	23.0522	23.0243	1.13373	0.0433515	0.00210831	0.0434027	2.78427	84354.2	1.73451e+06	1.73656e+06	-87.2157	0.0000000E+000	0.0000000E+000	0.0000000E+000	87.2157	0.0000000E+000	0.0000000E+000	0.0000000E+000	-87.2157	0.0000000E+000	0.0000000E+000	0.0000000E+000	-2.78427	0.0000000E+000	0.0000000E+000	0.0000000E+000	2.78427	20.5622	87.2157	-1.67799e-06	-9.1972e-05	-1.58392e-10	-9.19718e-05	3.96788	171184	0.294809	171184
2.51367	23.2626	1.033	23.2855	-2.5426	27.182	3.96789	-0.022319	61293.2	120.625	1	11	0.00479738	0.000206024	0	-0.000223273	0.000121378	6.06129e-06	-124.939	0.0294203	-0.016849	0.0241178	-2.60377	23.2698	23.2457	1.05711	0.0429029	0.00190514	0.0429451	2.5426	120625	2.71642e+06	2.7191e+06	-87.4574	0.0000000E+000	0.0000000E+000	0.0000000E+000	87.4574	0.0000000E+000	0.0000000E+000	0.0000000E+000	-87.4574	0.0000000E+000	0.0000000E+000	0.0000000E+000	-2.5426	0.0000000E+000	0.0000000E+000	0.0000000E+000	2.5426	22.5195	87.4574	-6.09313e-06	-8.85594e-05	-2.70905e-09	-8.85567e-05	3.96777	177781	5.43835	177776
1.58469	23.4971	1.10392	23.5231	-2.68983	29.6175	3.96789	-0.0221159	90979	200.367	1	11	0.00479353	0.00020378	0	-0.000245323	6.8334e-06	3.96589e-06	-31.0736	0.0194616	0.016669	0.0100449	-2.71235	23.5402	23.5138	1.11396	0.0424646	0.00199503	0.0425115	2.68983	200367	4.26486e+06	4.26956e+06	-87.3102	0.0000000E+000	0.0000000E+000	0.0000000E+000	87.3102	0.0000000E+000	0.0000000E+000	0.0000000E+000	-87.3102	0.0000000E+000	0.0000000E+000	0.0000000E+000	-2.68983	0.0000000E+000	0.0000000E+000	0.0000000E+000	2.68983	21.2853	87.3102	-1.1667e-05	-8.77533e-05	-1.51127e-10	-8.77532e-05	3.96788	179413	0.308982	179413
1.00469	24.1019	1.19651	24.1316	-2.84205	240.436	3.96785	-0.018541	132394	325.485	1	11	0.00497751	0.000206265	0	-0.00220929	0.000197742	2.11884e-07	143.135	0.00102724	-0.000821843	-0.000616277	-2.84068	24.1308	24.1011	1.1959	0.0413884	0.00205468	0.0414394	2.84205	325485	6.5564e+06	6.56448e+06	-87.158	0.0000000E+000	0.0000000E+000	0.0000000E+000	87.158	0.0000000E+000	0.0000000E+000	0.0000000E+000	-87.158	0.0000000E+000	0.0000000E+000	0.0000000E+000	-2.84205	0.0000000E+000	0.0000000E+000	0.0000000E+000	2.84205	20.1435	87.158	-0.00195401	-7.35679e-05	-3.66633e-09	-7.35642e-05	3.96765	214004	10.6651	213994
0.632957	24.4118	1.35739	24.4495	-3.18259	240.438	3.96785	-0.018541	185243	570.966	1	11	0.00498958	0.000204077	0	-0.00220929	0.000197742	2.89423e-07	-148.628	0.0014182	-0.00121086	0.000738314	-3.18447	24.4483	24.4106	1.35813	0.0408375	0.00227072	0.0409006	3.18259	570966	1.02685e+07	1.02843e+07	-86.8174	0.0000000E+000	0.0000000E+000	0.0000000E+000	86.8174	0.0000000E+000	0.0000000E+000	0.0000000E+000	-86.8174	0.0000000E+000	0.0000000E+000	0.0000000E+000	-3.18259	0.0000000E+000	0.0000000E+000	0.0000000E+000	3.18259	17.9844	86.8174	0.000000000000000E+000	-7.35679e-05	-3.66633e-09	-7.35642e-05	3.96765	214004	10.6651	213994
0.401878	24.6549	1.60735	24.7072	-3.73007	240.44	3.96785	-0.018541	246385	1042.77	1	11	0.00500312	0.000202496	0	-0.00220929	0.000197742	3.12875e-07	144.914	0.00154509	-0.00126434	-0.000888121	-3.72821	24.7059	24.6536	1.60647	0.0403883	0.00263308	0.040474	3.73007	1.04277e+06	1.59949e+07	1.60289e+07	-86.2699	0.0000000E+000	0.0000000E+000	0.0000000E+000	86.2699	0.0000000E+000	0.0000000E+000	0.0000000E+000	-86.2699	0.0000000E+000	0.0000000E+000	0.0000000E+000	-3.73007	0.0000000E+000	0.0000000E+000	0.0000000E+000	3.73007	15.3388	86.2699	0.000000000000000E+000	-7.35679e-05	-3.66633e-09	-7.35642e-05	3.96765	214004	10.6651	213994
0.251173	25.1608	1.93374	25.235	-4.39485	240.441	3.96785	-0.018541	327678	1924.15	1	11	0.0050036	0.00019828	0	-0.00220929	0.000197742	5.8722e-07	-10.3234	0.00296157	0.00291363	0.000530725	-4.39554	25.238	25.1637	1.93427	0.039511	0.00303663	0.0396275	4.39485	1.92415e+06	2.50359e+07	2.51098e+07	-85.6051	0.0000000E+000	0.0000000E+000	0.0000000E+000	85.6051	0.0000000E+000	0.0000000E+000	0.0000000E+000	-85.6051	0.0000000E+000	0.0000000E+000	0.0000000E+000	-4.39485	0.0000000E+000	0.0000000E+000	0.0000000E+000	4.39485	13.0115	85.6051	0.000000000000000E+000	-7.35679e-05	-3.66633e-09	-7.35642e-05	3.96765	214004	10.6651	213994
0.160751	25.5771	2.19505	25.6711	-4.90515	240.443	3.96785	-0.018541	451048	3297.78	1	11	0.00500036	0.000194786	0	-0.00220929	0.000197742	4.52721e-07	12.3871	0.0023242	0.00227009	-0.000498575	-4.90361	25.6733	25.5793	2.19455	0.0388117	0.00333085	0.0389543	4.90515	3.29778e+06	3.84263e+07	3.85675e+07	-85.0948	0.0000000E+000	0.0000000E+000	0.0000000E+000	85.0948	0.0000000E+000	0.0000000E+000	0.0000000E+000	-85.0948	0.0000000E+000	0.0000000E+000	0.0000000E+000	-4.90515	0.0000000E+000	0.0000000E+000	0.0000000E+000	4.90515	11.6522	85.0948	0.000000000000000E+000	-7.35679e-05	-3.66633e-09	-7.35642e-05	3.96765	214004	10.6651	213994
0.100469	26.0955	3.03096	26.2709	-6.62516	240.445	3.96785	-0.018541	522644	6956.92	1	11	0.00500215	0.000190407	0	-0.00220929	0.000197742	4.16491e-07	-69.7693	0.00218738	0.000756397	0.00205243	-6.62941	26.2719	26.0962	3.03301	0.0378107	0.00439168	0.0380649	6.62516	6.95692e+06	5.98965e+07	6.02992e+07	-83.3748	0.0000000E+000	0.0000000E+000	0.0000000E+000	83.3748	0.0000000E+000	0.0000000E+000	0.0000000E+000	-83.3748	0.0000000E+000	0.0000000E+000	0.0000000E+000	-6.62516	0.0000000E+000	0.0000000E+000	0.0000000E+000	6.62516	8.60963	83.3748	0.000000000000000E+000	-7.35679e-05	-3.66633e-09	-7.35642e-05	3.96765	214004	10.6651	213994
0.0602816	26.9488	3.6839	27.1994	-7.78407	240.447	3.96785	-0.018541	716684	13146.9	1	11	0.00499786	0.000183748	0	-0.00220929	0.000197742	5.14669e-07	-28.5168	0.00280094	0.00246113	0.00133722	-7.78616	27.2021	26.9513	3.68523	0.0364267	0.00497952	0.0367655	7.78407	1.31469e+07	9.61733e+07	9.70678e+07	-82.2159	0.0000000E+000	0.0000000E+000	0.0000000E+000	82.2159	0.0000000E+000	0.0000000E+000	0.0000000E+000	-82.2159	0.0000000E+000	0.0000000E+000	0.0000000E+000	-7.78407	0.0000000E+000	0.0000000E+000	0.0000000E+000	7.78407	7.3153	82.2159	0.000000000000000E+000	-7.35679e-05	-3.66633e-09	-7.35642e-05	3.96765	214004	10.6651	213994
0.0401878	28.1663	4.30913	28.494	-8.69817	240.449	3.96785	-0.018541	919045	21018.8	1	11	0.00499684	0.000175364	0	-0.00220929	0.000197742	5.22347e-07	-30.4774	0.00297864	0.00256708	0.00151076	-8.70039	28.4968	28.1689	4.31064	0.0346914	0.0053074	0.0350951	8.69817	2.10188e+07	1.37388e+08	1.38986e+08	-81.3018	0.0000000E+000	0.0000000E+000	0.0000000E+000	81.3018	0.0000000E+000	0.0000000E+000	0.0000000E+000	-81.3018	0.0000000E+000	0.0000000E+000	0.0000000E+000	-8.69817	0.0000000E+000	0.0000000E+000	0.0000000E+000	8.69817	6.53642	81.3018	0.000000000000000E+000	-7.35679e-05	-3.66633e-09	-7.35642e-05	3.96765	214004	10.6651	213994
0.0200939	30.3354	6.40527	31.0042	-11.9228	240.451	3.96785	-0.018541	1.23657e+06	52778	1	11	0.00499593	0.000161137	0	-0.00220929	0.000197742	1.70937e-06	-83.0836	0.0106082	0.00127745	0.010531	-11.9414	31.0076	30.3366	6.41581	0.0315579	0.0066634	0.0322537	11.9228	5.2778e+07	2.49956e+08	2.55467e+08	-78.0772	0.0000000E+000	0.0000000E+000	0.0000000E+000	78.0772	0.0000000E+000	0.0000000E+000	0.0000000E+000	-78.0772	0.0000000E+000	0.0000000E+000	0.0000000E+000	-11.9228	0.0000000E+000	0.0000000E+000	0.0000000E+000	11.9228	4.736	78.0772	0.000000000000000E+000	-7.35679e-05	-3.66633e-09	-7.35642e-05	3.96765	214004	10.6651	213994
0.00796479	36.6358	8.36843	37.5794	-12.8669	20329.4	3.96786	-0.00047214	2.38782e+06	118411	1	11	0.00499395	0.000132891	0	-0.0157129	-0.000145893	3.12794e-07	-143.448	0.00235377	-0.00189081	0.00140181	-12.8696	37.5779	36.6339	8.36984	0.0259421	0.00592577	0.0266103	12.8669	1.18411e+08	5.18384e+08	5.31736e+08	-77.1331	0.0000000E+000	0.0000000E+000	0.0000000E+000	77.1331	0.0000000E+000	0.0000000E+000	0.0000000E+000	-77.1331	0.0000000E+000	0.0000000E+000	0.0000000E+000	-12.8669	0.0000000E+000	0.0000000E+000	0.0000000E+000	12.8669	4.37785	77.1331	-0.0135036	-1.87338e-06	6.88821e-11	-1.87345e-06	3.96801	8.40399e+06	309.005	8.4043e+06
0.00497799	39.8122	9.23222	40.8686	-13.0558	20329.4	3.96786	-0.00047214	3.46306e+06	176723	1	11	0.00500167	0.000122384	0	-0.0157129	-0.000145893	6.16113e-07	-130.421	0.00503426	-0.0032642	0.00383258	-13.0621	40.8663	39.8089	9.23605	0.0238362	0.00552747	0.0244687	13.0558	1.76723e+08	7.62083e+08	7.82305e+08	-76.9442	0.0000000E+000	0.0000000E+000	0.0000000E+000	76.9442	0.0000000E+000	0.0000000E+000	0.0000000E+000	-76.9442	0.0000000E+000	0.0000000E+000	0.0000000E+000	-13.0558	0.0000000E+000	0.0000000E+000	0.0000000E+000	13.0558	4.31231	76.9442	0.000000000000000E+000	-1.87338e-06	6.88821e-11	-1.87345e-06	3.96801	8.40399e+06	309.005	8.4043e+06
0.00318591	42.2782	11.2103	43.7391	-14.8505	20329.4	3.96786	-0.00047214	4.45626e+06	292726	1	11	0.00500383	0.000114402	0	-0.0157129	-0.000145893	5.25534e-07	-143.08	0.00459376	-0.00367262	0.00275945	-14.8553	43.7363	42.2745	11.213	0.0220991	0.0058597	0.0228628	14.8505	2.92726e+08	1.10398e+09	1.14213e+09	-75.1495	0.0000000E+000	0.0000000E+000	0.0000000E+000	75.1495	0.0000000E+000	0.0000000E+000	0.0000000E+000	-75.1495	0.0000000E+000	0.0000000E+000	0.0000000E+000	-14.8505	0.0000000E+000	0.0000000E+000	0.0000000E+000	14.8505	3.77138	75.1495	0.000000000000000E+000	-1.87338e-06	6.88821e-11	-1.87345e-06	3.96801	8.40399e+06	309.005	8.4043e+06
0.0019912	45.1699	12.2164	46.7927	-15.1338	20329.4	3.96786	-0.00047214	6.5428e+06	445956	1	11	0.00500605	0.000106984	0	-0.0157129	-0.000145893	3.4169e-07	-31.2436	0.00319386	0.00273065	0.00165658	-15.1349	46.7958	45.1726	12.218	0.0206297	0.00557937	0.0213708	15.1338	4.45955e+08	1.64892e+09	1.70816e+09	-74.8662	0.0000000E+000	0.0000000E+000	0.0000000E+000	74.8662	0.0000000E+000	0.0000000E+000	0.0000000E+000	-74.8662	0.0000000E+000	0.0000000E+000	0.0000000E+000	-15.1338	0.0000000E+000	0.0000000E+000	0.0000000E+000	15.1338	3.69749	74.8662	0.000000000000000E+000	-1.87338e-06	6.88821e-11	-1.87345e-06	3.96801	8.40399e+06	309.005	8.4043e+06
0.00129428	46.8192	13.0679	48.6088	-15.5952	20329.4	3.96786	-0.00047214	9.40992e+06	680096	1	11	0.00500682	0.000103002	0	-0.0157129	-0.000145893	5.8986e-07	-24.2507	0.00572666	0.00522132	0.00235211	-15.5962	48.6144	46.8245	13.0703	0.019815	0.00553066	0.0205724	15.5952	6.80095e+08	2.43662e+09	2.52975e+09	-74.4048	0.0000000E+000	0.0000000E+000	0.0000000E+000	74.4048	0.0000000E+000	0.0000000E+000	0.0000000E+000	-74.4048	0.0000000E+000	0.0000000E+000	0.0000000E+000	-15.5952	0.0000000E+000	0.0000000E+000	0.0000000E+000	15.5952	3.58276	74.4048	0.000000000000000E+000	-1.87338e-06	6.88821e-11	-1.87345e-06	3.96801	8.40399e+06	309.005	8.4043e+06
0.000796479	50.2767	14.5829	52.3489	-16.175	20329.4	3.96786	-0.00047214	1.37025e+07	1.06335e+06	1	11	0.00500451	9.55992e-05	0	-0.0157129	-0.000145893	1.0558e-06	-62.8304	0.011044	0.005043	0.00982543	-16.1838	52.3565	50.2817	14.5928	0.0183464	0.00532145	0.0191026	16.175	1.06335e+09	3.66604e+09	3.81714e+09	-73.825	0.0000000E+000	0.0000000E+000	0.0000000E+000	73.825	0.0000000E+000	0.0000000E+000	0.0000000E+000	-73.825	0.0000000E+000	0.0000000E+000	0.0000000E+000	-16.175	0.0000000E+000	0.0000000E+000	0.0000000E+000	16.175	3.44764	73.825	0.000000000000000E+000	-1.87338e-06	6.88821e-11	-1.87345e-06	3.96801	8.40399e+06	309.005	8.4043e+06
0.000497799	51.4844	17.3791	54.3385	-18.6526	20329.4	3.96786	-0.00047214	1.83967e+07	1.88182e+06	1	11	0.00500955	9.21916e-05	0	-0.0157129	-0.000145893	1.36928e-06	-118.247	0.0148525	-0.00702921	0.0130838	-18.6681	54.336	51.4773	17.3921	0.0174365	0.00588588	0.0184032	18.6526	1.88182e+09	5.57476e+09	5.88381e+09	-71.3474	0.0000000E+000	0.0000000E+000	0.0000000E+000	71.3474	0.0000000E+000	0.0000000E+000	0.0000000E+000	-71.3474	0.0000000E+000	0.0000000E+000	0.0000000E+000	-18.6526	0.0000000E+000	0.0000000E+000	0.0000000E+000	18.6526	2.96244	71.3474	0.000000000000000E+000	-1.87338e-06	6.88821e-11	-1.87345e-06	3.96801	8.40399e+06	309.005	8.4043e+06
0.000298679	51.9326	27.3266	58.6834	-27.7531	20329.4	3.96786	-0.00047214	1.94997e+07	4.22835e+06	1	11	0.00501241	8.54144e-05	0	-0.0157129	-0.000145893	2.39566e-06	53.2505	0.0280475	0.0167813	-0.0224733	-27.726	58.6878	51.9494	27.3042	0.0150803	0.00793516	0.0170406	27.7531	4.22835e+09	8.03571e+09	9.08028e+09	-62.2469	0.0000000E+000	0.0000000E+000	0.0000000E+000	62.2469	0.0000000E+000	0.0000000E+000	0.0000000E+000	-62.2469	0.0000000E+000	0.0000000E+000	0.0000000E+000	-27.7531	0.0000000E+000	0.0000000E+000	0.0000000E+000	27.7531	1.90044	62.2469	0.000000000000000E+000	-1.87338e-06	6.88821e-11	-1.87345e-06	3.96801	8.40399e+06	309.005	8.4043e+06
9.95598e-05	60.9108	79.8745	100.449	-52.6715	20329.4	3.96786	-0.00047214	2.00137e+07	1.26546e+07	1	11	0.00500231	4.97994e-05	0	-0.0157129	-0.000145893	4.80854e-06	50.8554	0.0965583	0.0609553	-0.0748863	-52.618	100.427	60.9718	79.7996	0.00603671	0.00791615	0.00995527	52.6715	1.26546e+10	9.6502e+09	1.59144e+10	-37.3285	0.0000000E+000	0.0000000E+000	0.0000000E+000	37.3285	0.0000000E+000	0.0000000E+000	0.0000000E+000	-37.3285	0.0000000E+000	0.0000000E+000	0.0000000E+000	-52.6715	0.0000000E+000	0.0000000E+000	0.0000000E+000	52.6715	0.762582	37.3285	0.000000000000000E+000	-1.87338e-06	6.88821e-11	-1.87345e-06	3.96801	8.40399e+06	309.005	8.4043e+06