File: txt/19079_R307_UC93_28_SOC50_C03.mpt
EC-Lab ASCII FILE
Nb header lines : 65

Potentio Electrochemical Impedance Spectroscopy

Run on channel : 3 (SN 65921)
Grouped channel(s) : 1, 2, 3, 4, 5
User :
CE vs. WE compliance from -10 V to 10 V
Electrode connection : standard
Potential control : Ewe
Ewe ctrl range : min = -10.00 V, max = 10.00 V
Safety Limits :
	Do not start on E overload
Acquisition started on : 11/10/2025 15:44:01.793
Loaded Setting File :  C:\Users\Celltest\OneDrive - store-dot.com\Documents\EC-Lab\Data\@Biologic Test Protocols\cathode half cell EIS SOC50.mps
Saved on :
	File : 19077_R307_UC93_28_SOC50_C03.mpr
	Directory : C:\Users\Celltest\OneDrive - store-dot.com\Documents\EC-Lab\Data\Anna\
	Host : 169.254.61.224
Device : VMP-3e (SN .003165)
Address : USB
EC-LAB for windows v11.62 (software)
Internet server v27.00 (firmware)
Command interpretor v12.03 (firmware)
Electrode material :
Initial state :
Electrolyte :
Comments :
Electrode surface area : 0.001 cm²
Characteristic mass : 0.001 g
Equivalent Weight : 0.000 g/eq.
Density : 0.000 g/cm3
Volume (V) : 0.001 cm³
Record Ece
Cycle Definition : Charge/Discharge alternance
Mode                Multi sine
E (V)               0.0000
vs.                 Eoc
tE (h:m:s)          0:00:0.0000
record              0
dI                  0.000
unit dI             mA
dt (s)              0.000
fi                  1.000
unit fi             MHz
ff                  0.100
unit ff             mHz
Nd                  10
Points              per decade
spacing             Logarithmic
Va (mV)             5.0
pw                  0.10
Na                  2
corr                0
E range min (V)     -10.000
E range max (V)     10.000
I Range             Auto
Bandwidth           5
nc cycles           0
goto Ns'            0
nr cycles           0
inc. cycle          0

freq/Hz	Re(Z)/Ohm	-Im(Z)/Ohm	|Z|/Ohm	Phase(Z)/deg	time/s	<Ewe>/V	<I>/mA	Cs/µF	Cp/µF	cycle number	I Range	|Ewe|/V	|I|/A	Ns	(Q-Qo)/mA.h	<Ece>/V	|Ece|/V	Phase(Zce)/deg	|Zce|/Ohm	Re(Zce)/Ohm	-Im(Zce)/Ohm	Phase(Zwe-ce)/deg	|Zwe-ce|/Ohm	Re(Zwe-ce)/Ohm	-Im(Zwe-ce)/Ohm	Re(Y)/Ohm-1	Im(Y)/Ohm-1	|Y|/Ohm-1	Phase(Y)/deg	Re(C)/nF	Im(C)/nF	|C|/nF	Phase(C)/deg	Re(M)	Im(M)	|M|	Phase(M)/deg	Re(Permittivity)	Im(Permittivity)	|Permittivity|	Phase(Permittivity)/deg	Re(Resistivity)/Ohm.cm	Im(Resistivity)/Ohm.cm	|Resistivity|/Ohm.cm	Phase(Resistivity)/deg	Re(Conductivity)/mS/cm	Im(Conductivity)/mS/cm	|Conductivity|/mS/cm	Phase(Conductivity)/deg	Tan(Delta)	Loss Angle(Delta)/deg	dq/mA.h	Pwe/W	Pce/W	Pwe-ce/W	<Ewe-Ece>/V	Rwe/Ohm	Rce/Ohm	Rwe-ce/Ohm		Ewe-Ece/V
1.00002e+06	2.90936	2.24138	3.67262	-37.6108	2.23356	3.96896	-0.00773435	0.0710062	0.0264469	1	10	0.000232226	6.32317e-05	0	-7.72435e-06	-0.000264439	0.000192874	-66.0237	3.05028	1.23951	2.78708	-50.4747	6.51909	4.14887	5.02846	0.215697	0.166174	0.272285	37.6108	26.4469	34.3286	43.3347	-52.3892	0.0000000E+000	0.0000000E+000	0.0000000E+000	52.3892	0.0000000E+000	0.0000000E+000	0.0000000E+000	-52.3892	0.0000000E+000	0.0000000E+000	0.0000000E+000	-37.6108	0.0000000E+000	0.0000000E+000	0.0000000E+000	37.6108	1.29802	52.3892	-7.72435e-06	-3.06973e-05	2.04526e-09	-3.06993e-05	3.96922	513160	34.1902	513194
630957	1.06857	-0.327359	1.11759	17.0325	3.40254	3.9686	0.0119648	-0.770541	-0.0661116	1	9	0.000328208	0.000293674	0	-7.57607e-06	-0.000111686	0.000114601	-96.301	0.39023	-0.0428283	0.387873	-3.37624	1.02753	1.02575	0.0605136	0.855534	-0.262094	0.89478	-17.0325	-66.1116	215.803	225.703	-107.033	0.0000000E+000	0.0000000E+000	0.0000000E+000	107.033	0.0000000E+000	0.0000000E+000	0.0000000E+000	-107.033	0.0000000E+000	0.0000000E+000	0.0000000E+000	17.0325	0.0000000E+000	0.0000000E+000	0.0000000E+000	-17.0325	3.26422	72.9675	1.00444e-06	4.74834e-05	-1.3363e-09	4.74847e-05	3.96871	331690	9.33458	331700
398103	1.37815	0.030736	1.3785	-1.27762	4.17053	3.96868	0.0143143	13.007	0.00646637	1	9	0.00118299	0.000858177	0	-5.85709e-06	-0.000245345	5.59026e-05	175.711	0.0651411	-0.0649587	-0.0048721	-1.12832	1.31345	1.31319	0.0258639	0.725248	0.0161747	0.725428	1.27762	6.46638	289.942	290.014	-88.7224	0.0000000E+000	0.0000000E+000	0.0000000E+000	88.7224	0.0000000E+000	0.0000000E+000	0.0000000E+000	-88.7224	0.0000000E+000	0.0000000E+000	0.0000000E+000	-1.27762	0.0000000E+000	0.0000000E+000	0.0000000E+000	1.27762	44.8384	88.7224	7.09008e-07	5.68087e-05	-3.51193e-09	5.68122e-05	3.96892	277253	17.1399	277270
251206	1.48327	0.353193	1.52474	-13.3937	4.93653	3.96856	0.00659455	1.79381	0.0962516	1	9	0.00355706	0.00233289	0	-6.41305e-06	6.01604e-05	5.783e-05	93.405	0.024789	-0.00147231	-0.0247452	-12.4978	1.51777	1.4818	0.328448	0.638009	0.151921	0.655848	13.3937	96.2516	404.219	415.521	-76.6063	0.0000000E+000	0.0000000E+000	0.0000000E+000	76.6063	0.0000000E+000	0.0000000E+000	0.0000000E+000	-76.6063	0.0000000E+000	0.0000000E+000	0.0000000E+000	-13.3937	0.0000000E+000	0.0000000E+000	0.0000000E+000	13.3937	4.19961	76.6063	-2.1845e-06	2.61709e-05	3.96731e-10	2.61705e-05	3.9685	601794	9.12275	601785
158486	1.61373	0.556822	1.7071	-19.0371	5.70454	3.96849	0.0087949	1.80348	0.19188	1	9	0.00537035	0.0031459	0	-6.36854e-06	-0.000149874	4.93175e-05	76.9662	0.0156768	0.00353551	-0.0152729	-18.5134	1.70553	1.61727	0.541549	0.553751	0.191073	0.585789	19.0371	191.879	556.088	588.261	-70.9629	0.0000000E+000	0.0000000E+000	0.0000000E+000	70.9629	0.0000000E+000	0.0000000E+000	0.0000000E+000	-70.9629	0.0000000E+000	0.0000000E+000	0.0000000E+000	-19.0371	0.0000000E+000	0.0000000E+000	0.0000000E+000	19.0371	2.89811	70.9629	-9.63477e-07	3.49025e-05	-1.31813e-09	3.49038e-05	3.96864	451227	17.041	451244
100004	1.79521	0.743736	1.94318	-22.5036	6.47454	3.96847	0.0102493	2.13986	0.313472	1	9	0.00536145	0.00275912	0	1.93573e-08	-0.000188062	2.85466e-05	73.2572	0.0103463	0.00298052	-0.0099077	-22.2	1.94217	1.79819	0.733828	0.475436	0.196967	0.514621	22.5036	313.472	756.651	819.015	-67.4964	0.0000000E+000	0.0000000E+000	0.0000000E+000	67.4964	0.0000000E+000	0.0000000E+000	0.0000000E+000	-67.4964	0.0000000E+000	0.0000000E+000	0.0000000E+000	-22.5036	0.0000000E+000	0.0000000E+000	0.0000000E+000	22.5036	2.41378	67.4964	7.16274e-06	4.06742e-05	-1.92752e-09	4.06762e-05	3.96866	387193	18.3487	387211
63093.8	2.01434	0.938696	2.22232	-24.9859	7.24056	3.96847	0.0144635	2.68725	0.479452	1	9	0.0052832	0.00237734	0	4.35476e-06	4.10664e-05	1.83455e-05	46.9348	0.00771685	0.0052693	-0.00563775	-24.7969	2.22473	2.01961	0.933058	0.407868	0.190069	0.44998	24.9859	479.452	1028.85	1135.08	-65.0141	0.0000000E+000	0.0000000E+000	0.0000000E+000	65.0141	0.0000000E+000	0.0000000E+000	0.0000000E+000	-65.0141	0.0000000E+000	0.0000000E+000	0.0000000E+000	-24.9859	0.0000000E+000	0.0000000E+000	0.0000000E+000	24.9859	2.14589	65.0141	-4.15438e-06	5.7398e-05	5.93963e-10	5.73974e-05	3.96843	274378	2.83931	274376
39814.1	2.29755	1.15455	2.57132	-26.6801	8.00654	3.96848	0.0125615	3.46236	0.698043	1	9	0.00522119	0.00203055	0	3.52926e-06	6.01604e-05	2.07982e-05	-1.72171	0.0102427	0.010238	0.00030774	-26.5842	2.58061	2.30779	1.15486	0.347497	0.174622	0.388905	26.6801	698.043	1389.1	1554.63	-63.3199	0.0000000E+000	0.0000000E+000	0.0000000E+000	63.3199	0.0000000E+000	0.0000000E+000	0.0000000E+000	-63.3199	0.0000000E+000	0.0000000E+000	0.0000000E+000	-26.6801	0.0000000E+000	0.0000000E+000	0.0000000E+000	26.6801	1.99	63.3199	-1.97884e-06	4.98501e-05	7.55706e-10	4.98494e-05	3.96842	315924	4.78926	315919
25116.9	2.63498	1.39882	2.98325	-27.9624	8.77254	3.96849	0.0206542	4.52993	0.995947	1	9	0.00520079	0.00174333	0	1.07949e-06	-3.53099e-05	1.5184e-05	-94.4262	0.00870978	-0.000672177	0.00868381	-28.1155	2.98674	2.6343	1.4075	0.296071	0.157175	0.335205	27.9624	995.947	1876.08	2124.05	-62.0376	0.0000000E+000	0.0000000E+000	0.0000000E+000	62.0376	0.0000000E+000	0.0000000E+000	0.0000000E+000	-62.0376	0.0000000E+000	0.0000000E+000	0.0000000E+000	-27.9624	0.0000000E+000	0.0000000E+000	0.0000000E+000	27.9624	1.88371	62.0376	1.39579e-07	8.1966e-05	-7.29298e-10	8.19667e-05	3.96852	192139	1.70957	192141
15847.7	3.06889	1.66118	3.48964	-28.4265	9.53855	3.96847	0.0117783	6.04558	1.36996	1	9	0.0051597	0.00147858	0	4.15274e-06	-0.000149874	6.2418e-06	-32.3649	0.0042215	0.00356571	0.00225981	-28.4313	3.49386	3.07246	1.66344	0.252011	0.136412	0.286562	28.4265	1369.96	2530.89	2877.88	-61.5735	0.0000000E+000	0.0000000E+000	0.0000000E+000	61.5735	0.0000000E+000	0.0000000E+000	0.0000000E+000	-61.5735	0.0000000E+000	0.0000000E+000	0.0000000E+000	-28.4265	0.0000000E+000	0.0000000E+000	0.0000000E+000	28.4265	1.84742	61.5735	-1.98048e-07	4.67419e-05	-1.76527e-09	4.67436e-05	3.96862	336930	12.7246	336942
10002.2	3.53978	1.93965	4.03637	-28.7209	10.3065	3.96847	0.0189014	8.20351	1.89437	1	9	0.00508202	0.00125906	0	5.63839e-06	-0.000226251	5.62173e-06	-19.2737	0.00446503	0.00421478	0.00147382	-28.7105	4.04077	3.54399	1.94113	0.217267	0.119054	0.247747	28.7209	1894.37	3457.15	3942.15	-61.2791	0.0000000E+000	0.0000000E+000	0.0000000E+000	61.2791	0.0000000E+000	0.0000000E+000	0.0000000E+000	-61.2791	0.0000000E+000	0.0000000E+000	0.0000000E+000	-28.7209	0.0000000E+000	0.0000000E+000	0.0000000E+000	28.7209	1.82495	61.2791	1.45793e-06	7.50097e-05	-4.27645e-09	7.50139e-05	3.9687	209957	11.97	209969
6309.38	4.05829	2.27482	4.65237	-29.2723	10.9805	3.96846	-0.0229817	11.0888	2.65114	1	10	0.00523941	0.00112618	0	3.21856e-06	0.000155631	6.54926e-06	-40.032	0.00581546	0.00445281	0.00374059	-29.2856	4.65808	4.06274	2.27856	0.187497	0.105099	0.214944	29.2723	2651.14	4729.64	5422	-60.7277	0.0000000E+000	0.0000000E+000	0.0000000E+000	60.7277	0.0000000E+000	0.0000000E+000	0.0000000E+000	-60.7277	0.0000000E+000	0.0000000E+000	0.0000000E+000	-29.2723	0.0000000E+000	0.0000000E+000	0.0000000E+000	29.2723	1.784	60.7278	-2.05365e-06	-9.12021e-05	-3.57666e-09	-9.11985e-05	3.96831	172679	6.77194	172672
3983.6	4.68797	2.69797	5.40889	-29.9208	11.5451	3.96845	-0.0207854	14.8084	3.68438	1	10	0.00537811	0.000994308	0	1.19685e-06	-7.3498e-05	4.44785e-06	109.465	0.00447331	-0.00149067	-0.00421763	-29.8899	5.4055	4.68648	2.69375	0.160239	0.0922189	0.184881	29.9208	3684.38	6401.95	7386.45	-60.0792	0.0000000E+000	0.0000000E+000	0.0000000E+000	60.0792	0.0000000E+000	0.0000000E+000	0.0000000E+000	-60.0792	0.0000000E+000	0.0000000E+000	0.0000000E+000	-29.9208	0.0000000E+000	0.0000000E+000	0.0000000E+000	29.9208	1.73759	60.0792	-1.33972e-06	-8.24859e-05	1.52769e-09	-8.24874e-05	3.96852	190925	3.53604	190928
2510.8	5.4614	3.23005	6.34509	-30.6014	12.3698	3.96843	-0.0185183	19.6245	5.08559	1	10	0.00521713	0.000822231	0	-4.47195e-06	-3.53099e-05	6.53008e-06	-22.9406	0.00794191	0.00731378	0.00309557	-30.5919	6.35296	5.46872	3.23315	0.135653	0.0802295	0.157602	30.6014	5085.59	8598.77	9990.1	-59.3986	0.0000000E+000	0.0000000E+000	0.0000000E+000	59.3986	0.0000000E+000	0.0000000E+000	0.0000000E+000	-59.3986	0.0000000E+000	0.0000000E+000	0.0000000E+000	-30.6014	0.0000000E+000	0.0000000E+000	0.0000000E+000	30.6014	1.69081	59.3986	-2.832e-06	-7.34884e-05	6.53878e-10	-7.3489e-05	3.96846	214298	1.90676	214300
1585.51	6.43869	3.85748	7.50579	-30.9262	13.2719	3.96842	-0.0181864	26.0224	6.87326	1	10	0.00506589	0.000674931	0	-8.85297e-06	-9.25921e-05	8.20904e-06	-54.1728	0.0121628	0.00711939	0.00986142	-30.9628	7.51697	6.44581	3.86734	0.114289	0.0684716	0.13323	30.9262	6873.26	11472.5	13373.8	-59.0738	0.0000000E+000	0.0000000E+000	0.0000000E+000	59.0738	0.0000000E+000	0.0000000E+000	0.0000000E+000	-59.0738	0.0000000E+000	0.0000000E+000	0.0000000E+000	-30.9262	0.0000000E+000	0.0000000E+000	0.0000000E+000	30.9262	1.66914	59.0738	-1.75636e-06	-7.21713e-05	1.68392e-09	-7.2173e-05	3.96852	218208	5.09128	218214
1000.32	7.66502	4.54915	8.91332	-30.6889	14.1738	3.96842	-0.0188874	34.9744	9.11029	1	10	0.00496414	0.000556935	0	-1.32813e-05	-7.3498e-05	4.49738e-06	150.094	0.00807523	-0.00699993	-0.00402619	-30.6896	8.90525	7.65802	4.54513	0.0964793	0.05726	0.112192	30.6889	9110.29	15350.2	17850.1	-59.3111	0.0000000E+000	0.0000000E+000	0.0000000E+000	59.3111	0.0000000E+000	0.0000000E+000	0.0000000E+000	-59.3111	0.0000000E+000	0.0000000E+000	0.0000000E+000	-30.6889	0.0000000E+000	0.0000000E+000	0.0000000E+000	30.6889	1.68493	59.3111	-1.89636e-06	-7.49533e-05	1.38819e-09	-7.49546e-05	3.96849	210109	3.89137	210113
631.01	9.21158	5.26052	10.6078	-29.7297	15.0746	3.96843	-0.0178806	47.9464	11.7912	1	10	0.00490558	0.000462449	0	-1.80868e-05	-0.000321721	5.15614e-06	-85.0022	0.0111497	0.00097133	0.0111073	-29.7791	10.6142	9.21256	5.27163	0.0818616	0.0467492	0.0942699	29.7297	11791.2	20647.3	23777	-60.2703	0.0000000E+000	0.0000000E+000	0.0000000E+000	60.2703	0.0000000E+000	0.0000000E+000	0.0000000E+000	-60.2703	0.0000000E+000	0.0000000E+000	0.0000000E+000	-29.7297	0.0000000E+000	0.0000000E+000	0.0000000E+000	29.7297	1.75108	60.2703	-2.51104e-06	-7.0958e-05	5.75257e-09	-7.09638e-05	3.96875	221940	17.9927	221958
398.089	11.1214	5.7542	12.5219	-27.3569	15.9758	3.96842	-0.0183393	69.4792	14.6719	1	10	0.00487807	0.000389564	0	-2.24542e-05	-5.4404e-05	5.87349e-06	-50.3173	0.0150771	0.00962726	0.0116032	-27.3838	12.5357	11.1311	5.76581	0.0709288	0.0366984	0.0798603	27.3569	14671.9	28357.2	31927.9	-62.6431	0.0000000E+000	0.0000000E+000	0.0000000E+000	62.6431	0.0000000E+000	0.0000000E+000	0.0000000E+000	-62.6431	0.0000000E+000	0.0000000E+000	0.0000000E+000	-27.3569	0.0000000E+000	0.0000000E+000	0.0000000E+000	27.3569	1.93275	62.6431	-2.39945e-06	-7.27781e-05	9.9773e-10	-7.27791e-05	3.96848	216389	2.96653	216392
251.044	13.3109	5.88632	14.5543	-23.8559	16.8741	3.96842	-0.0180671	107.703	17.6169	1	10	0.00485979	0.000333907	0	-2.64873e-05	0.000193819	6.28536e-06	-14.6146	0.0188237	0.0182146	0.00474951	-23.844	14.5729	13.3291	5.89107	0.0628381	0.0277882	0.0687081	23.8559	17616.9	39837.5	43559	-66.1441	0.0000000E+000	0.0000000E+000	0.0000000E+000	66.1441	0.0000000E+000	0.0000000E+000	0.0000000E+000	-66.1441	0.0000000E+000	0.0000000E+000	0.0000000E+000	-23.8559	0.0000000E+000	0.0000000E+000	0.0000000E+000	23.8559	2.26132	66.1441	-2.15353e-06	-7.16977e-05	-3.50174e-09	-7.16942e-05	3.96823	219649	10.7277	219639
158.428	15.4424	5.49754	16.3918	-19.5958	17.7788	3.96842	-0.0177613	182.734	20.5542	1	10	0.00485958	0.000296464	0	-3.00502e-05	-0.000359909	4.5871e-06	56.3644	0.0154727	0.00857047	-0.0128822	-19.5434	16.3956	15.451	5.48466	0.0574727	0.0204604	0.061006	19.5958	20554.2	57736.2	61285.8	-70.4042	0.0000000E+000	0.0000000E+000	0.0000000E+000	70.4042	0.0000000E+000	0.0000000E+000	0.0000000E+000	-70.4042	0.0000000E+000	0.0000000E+000	0.0000000E+000	-19.5958	0.0000000E+000	0.0000000E+000	0.0000000E+000	19.5958	2.80897	70.4042	-1.96931e-06	-7.04843e-05	6.39245e-09	-7.04907e-05	3.96878	223431	20.2637	223451
100.032	17.2041	4.70481	17.8358	-15.2947	18.6768	3.96843	-0.0171498	338.173	23.5309	1	10	0.00484426	0.000271603	0	-3.45694e-05	-0.000226251	5.6077e-06	-127.535	0.0206467	-0.0125789	0.0163724	-15.3562	17.828	17.1915	4.72118	0.0540812	0.0147896	0.056067	15.2947	23530.9	86045.3	89204.8	-74.7053	0.0000000E+000	0.0000000E+000	0.0000000E+000	74.7053	0.0000000E+000	0.0000000E+000	0.0000000E+000	-74.7053	0.0000000E+000	0.0000000E+000	0.0000000E+000	-15.2947	0.0000000E+000	0.0000000E+000	0.0000000E+000	15.2947	3.6567	74.7053	-2.19375e-06	-6.80577e-05	3.88014e-09	-6.80615e-05	3.96866	231398	13.1926	231412
63.0823	18.5846	3.67759	18.945	-11.1933	19.5939	3.96841	-0.0155911	686.039	25.8516	1	10	0.00485296	0.000256161	0	-3.84759e-05	-0.000188062	1.21166e-05	50.1111	0.0473006	0.0303339	-0.0362933	-11.068	18.9677	18.6149	3.6413	0.0517803	0.0102465	0.0527844	11.1933	25851.6	130640	133174	-78.8067	0.0000000E+000	0.0000000E+000	0.0000000E+000	78.8067	0.0000000E+000	0.0000000E+000	0.0000000E+000	-78.8067	0.0000000E+000	0.0000000E+000	0.0000000E+000	-11.1933	0.0000000E+000	0.0000000E+000	0.0000000E+000	11.1933	5.05347	78.8067	-2.09281e-06	-6.18719e-05	2.9321e-09	-6.18749e-05	3.9686	254531	12.0622	254543
39.8089	19.4598	2.86358	19.6694	-8.37122	20.7408	3.96846	-0.0160856	1396.14	29.5917	1	11	0.0048474	0.000246444	0	-4.40661e-05	-0.000474473	1.08258e-05	-66.2446	0.0439278	0.0176956	0.040206	-8.47946	19.6927	19.4775	2.90379	0.0502988	0.00740167	0.0508405	8.37122	29591.7	201093	203259	-81.6288	0.0000000E+000	0.0000000E+000	0.0000000E+000	81.6288	0.0000000E+000	0.0000000E+000	0.0000000E+000	-81.6288	0.0000000E+000	0.0000000E+000	0.0000000E+000	-8.37122	0.0000000E+000	0.0000000E+000	0.0000000E+000	8.37122	6.7956	81.6288	-2.15853e-06	-6.38348e-05	7.63217e-09	-6.38425e-05	3.96893	246709	29.4969	246739
25.1044	20.0167	2.14706	20.1315	-6.12235	21.62	3.96846	-0.0163958	2952.74	33.5863	1	11	0.00484891	0.000240862	0	-4.82757e-05	-0.000264439	5.43898e-06	8.71136	0.0225813	0.0223208	-0.0034201	-6.10591	20.1533	20.039	2.14364	0.0493901	0.00529776	0.0496734	6.12235	33586.3	313119	314915	-83.8777	0.0000000E+000	0.0000000E+000	0.0000000E+000	83.8777	0.0000000E+000	0.0000000E+000	0.0000000E+000	-83.8777	0.0000000E+000	0.0000000E+000	0.0000000E+000	-6.12235	0.0000000E+000	0.0000000E+000	0.0000000E+000	6.12235	9.32282	83.8777	-1.731e-06	-6.50661e-05	4.33569e-09	-6.50704e-05	3.96872	242041	16.1284	242057
15.8576	20.3726	1.68201	20.4419	-4.71978	22.498	3.96845	-0.0165353	5966.97	40.3988	1	11	0.00484814	0.000237166	0	-5.336e-05	-0.000245345	9.85621e-06	-14.1216	0.0415582	0.0403023	0.0101394	-4.73877	20.4829	20.4129	1.69215	0.0487532	0.00402518	0.048919	4.71978	40398.9	489312	490977	-85.2802	0.0000000E+000	0.0000000E+000	0.0000000E+000	85.2802	0.0000000E+000	0.0000000E+000	0.0000000E+000	-85.2802	0.0000000E+000	0.0000000E+000	0.0000000E+000	-4.71978	0.0000000E+000	0.0000000E+000	0.0000000E+000	4.71978	12.112	85.2802	-2.84596e-06	-6.56195e-05	4.05684e-09	-6.56235e-05	3.9687	239999	14.8376	240014
10.0032	20.6278	1.27433	20.6671	-3.5351	23.4788	3.96847	-0.0153025	12485.3	47.4684	1	11	0.0048391	0.000234145	0	-5.63763e-05	-3.53099e-05	1.27252e-05	14.4411	0.0543476	0.0526305	-0.0135535	-3.48871	20.7188	20.6804	1.26078	0.048294	0.00298348	0.0483861	3.5351	47468.4	768377	769842	-86.4649	0.0000000E+000	0.0000000E+000	0.0000000E+000	86.4649	0.0000000E+000	0.0000000E+000	0.0000000E+000	-86.4649	0.0000000E+000	0.0000000E+000	0.0000000E+000	-3.5351	0.0000000E+000	0.0000000E+000	0.0000000E+000	3.5351	16.1871	86.4649	-6.04462e-08	-6.07274e-05	5.40328e-10	-6.07279e-05	3.9685	259335	2.30746	259338
6.31058	20.8517	1.11944	20.8818	-3.07301	24.4013	3.96844	-0.0166356	22529.5	64.7465	1	11	0.00483986	0.000231774	0	-6.15338e-05	4.10664e-05	6.51577e-06	68.3838	0.0281126	0.0103563	-0.0261355	-2.99991	20.8907	20.8621	1.0933	0.0478198	0.00256723	0.0478887	3.07301	64746.5	1.20603e+06	1.20777e+06	-86.927	0.0000000E+000	0.0000000E+000	0.0000000E+000	86.927	0.0000000E+000	0.0000000E+000	0.0000000E+000	-86.927	0.0000000E+000	0.0000000E+000	0.0000000E+000	-3.07301	0.0000000E+000	0.0000000E+000	0.0000000E+000	3.07301	18.627	86.927	-7.00325e-07	-6.60174e-05	-6.83163e-10	-6.60167e-05	3.9684	238551	2.46858	238549
3.97785	21.0641	0.988025	21.0872	-2.68553	25.4083	3.96847	-0.0143422	40495.2	88.8999	1	11	0.00484148	0.000229593	0	-6.55685e-05	-9.25921e-05	3.86792e-06	15.5481	0.0168469	0.0162304	-0.00451575	-2.67122	21.1032	21.0803	0.98351	0.04737	0.00222193	0.0474221	2.68553	88899.8	1.89529e+06	1.89737e+06	-87.3145	0.0000000E+000	0.0000000E+000	0.0000000E+000	87.3145	0.0000000E+000	0.0000000E+000	0.0000000E+000	-87.3145	0.0000000E+000	0.0000000E+000	0.0000000E+000	-2.68553	0.0000000E+000	0.0000000E+000	0.0000000E+000	2.68553	21.3193	87.3145	-3.99399e-06	-5.69168e-05	1.32798e-09	-5.69181e-05	3.96856	276698	6.4559	276704
2.51367	21.314	0.978052	21.3365	-2.62733	26.9679	3.96847	-0.0143425	64736.5	136.028	1	11	0.00484841	0.000227236	0	-7.41754e-05	2.87823e-06	2.91589e-06	90.873	0.012832	-0.000195505	-0.0128305	-2.59293	21.3357	21.3139	0.965222	0.0468188	0.00214841	0.0468681	2.62733	136028	2.96436e+06	2.96748e+06	-87.3727	0.0000000E+000	0.0000000E+000	0.0000000E+000	87.3727	0.0000000E+000	0.0000000E+000	0.0000000E+000	-87.3727	0.0000000E+000	0.0000000E+000	0.0000000E+000	-2.62733	0.0000000E+000	0.0000000E+000	0.0000000E+000	2.62733	21.7923	87.3727	-2.96183e-06	-5.69177e-05	-4.1281e-11	-5.69177e-05	3.96847	276693	0.200679	276693
1.58469	21.5139	1.01902	21.538	-2.71183	29.4035	3.96846	-0.0140814	98558.2	220.622	1	11	0.00484418	0.000224913	0	-7.56424e-05	0.000212913	4.14664e-06	-33.6597	0.0184366	0.0153456	0.0102187	-2.73704	21.5539	21.5293	1.02924	0.0463775	0.00219671	0.0464295	2.71183	220622	4.65784e+06	4.66306e+06	-87.2882	0.0000000E+000	0.0000000E+000	0.0000000E+000	87.2882	0.0000000E+000	0.0000000E+000	0.0000000E+000	-87.2882	0.0000000E+000	0.0000000E+000	0.0000000E+000	-2.71183	0.0000000E+000	0.0000000E+000	0.0000000E+000	2.71183	21.1123	87.2882	-1.14952e-06	-5.58816e-05	-2.99812e-09	-5.58786e-05	3.96825	281822	15.1201	281807
1.00469	22.1063	1.10328	22.1339	-2.85714	240.221	3.96844	-0.012639	143582	356.745	1	11	0.00503864	0.000227644	0	-0.00173759	-0.000111686	4.66825e-07	-24.5679	0.00205068	0.00186503	0.000852615	-2.8591	22.1358	22.1082	1.10413	0.0451235	0.00225201	0.0451797	2.85714	356745	7.14808e+06	7.15697e+06	-87.1429	0.0000000E+000	0.0000000E+000	0.0000000E+000	87.1429	0.0000000E+000	0.0000000E+000	0.0000000E+000	-87.1429	0.0000000E+000	0.0000000E+000	0.0000000E+000	-2.85714	0.0000000E+000	0.0000000E+000	0.0000000E+000	2.85714	20.0369	87.1429	-0.00165577	-5.01569e-05	1.4116e-09	-5.01583e-05	3.96855	313985	8.83666	313994
0.632957	22.3769	1.2585	22.4123	-3.21899	240.222	3.96844	-0.012639	199798	629.983	1	11	0.00505051	0.000225346	0	-0.00173759	-0.000111686	5.04828e-07	-30.0663	0.00224024	0.00193881	0.00112236	-3.22158	22.4143	22.3788	1.25962	0.044548	0.00250543	0.0446184	3.21899	629982	1.12015e+07	1.12192e+07	-86.781	0.0000000E+000	0.0000000E+000	0.0000000E+000	86.781	0.0000000E+000	0.0000000E+000	0.0000000E+000	-86.781	0.0000000E+000	0.0000000E+000	0.0000000E+000	-3.21899	0.0000000E+000	0.0000000E+000	0.0000000E+000	3.21899	17.7806	86.781	0.000000000000000E+000	-5.01569e-05	1.4116e-09	-5.01583e-05	3.96855	313985	8.83666	313994
0.401878	22.5899	1.50914	22.6403	-3.822	240.223	3.96844	-0.012639	262421	1165.98	1	11	0.00506331	0.000223642	0	-0.00173759	-0.000111686	6.56889e-07	-30.2711	0.00293724	0.00253675	0.00148064	-3.82531	22.6429	22.5925	1.51062	0.0440708	0.00294418	0.044169	3.822	1.16598e+06	1.74533e+07	1.74922e+07	-86.178	0.0000000E+000	0.0000000E+000	0.0000000E+000	86.178	0.0000000E+000	0.0000000E+000	0.0000000E+000	-86.178	0.0000000E+000	0.0000000E+000	0.0000000E+000	-3.822	0.0000000E+000	0.0000000E+000	0.0000000E+000	3.822	14.9688	86.178	0.000000000000000E+000	-5.01569e-05	1.4116e-09	-5.01583e-05	3.96855	313985	8.83666	313994
0.251173	23.0502	1.8645	23.1255	-4.62452	240.224	3.96844	-0.012639	339847	2209.16	1	11	0.0050655	0.000219044	0	-0.00173759	-0.000111686	5.00271e-07	7.67886	0.00228388	0.0022634	-0.000305173	-4.62331	23.1277	23.0525	1.8642	0.0431016	0.00348643	0.0432423	4.62452	2.20916e+06	2.73111e+07	2.74003e+07	-85.3755	0.0000000E+000	0.0000000E+000	0.0000000E+000	85.3755	0.0000000E+000	0.0000000E+000	0.0000000E+000	-85.3755	0.0000000E+000	0.0000000E+000	0.0000000E+000	-4.62452	0.0000000E+000	0.0000000E+000	0.0000000E+000	4.62452	12.3627	85.3755	0.000000000000000E+000	-5.01569e-05	1.4116e-09	-5.01583e-05	3.96855	313985	8.83666	313994
0.160751	23.4418	2.14533	23.5397	-5.229	240.225	3.96844	-0.012639	461501	3833.17	1	11	0.00505856	0.000214895	0	-0.00173759	-0.000111686	6.41417e-07	6.30177	0.0029848	0.00296676	-0.000327627	-5.22755	23.5426	23.4447	2.145	0.0423046	0.00387161	0.0424814	5.229	3.83317e+06	4.18846e+07	4.20596e+07	-84.771	0.0000000E+000	0.0000000E+000	0.0000000E+000	84.771	0.0000000E+000	0.0000000E+000	0.0000000E+000	-84.771	0.0000000E+000	0.0000000E+000	0.0000000E+000	-5.229	0.0000000E+000	0.0000000E+000	0.0000000E+000	5.229	10.9269	84.771	0.000000000000000E+000	-5.01569e-05	1.4116e-09	-5.01583e-05	3.96855	313985	8.83666	313994
0.100469	23.9461	2.97761	24.1305	-7.08815	240.226	3.96844	-0.012639	532008	8100.68	1	11	0.00506106	0.000209737	0	-0.00173759	-0.000111686	6.19915e-07	-9.70523	0.00295568	0.00291338	0.000498266	-7.08847	24.1335	23.949	2.97811	0.0411246	0.0051137	0.0414413	7.08815	8.10068e+06	6.5146e+07	6.56477e+07	-82.9119	0.0000000E+000	0.0000000E+000	0.0000000E+000	82.9119	0.0000000E+000	0.0000000E+000	0.0000000E+000	-82.9119	0.0000000E+000	0.0000000E+000	0.0000000E+000	-7.08815	0.0000000E+000	0.0000000E+000	0.0000000E+000	7.08815	8.04204	82.9119	0.000000000000000E+000	-5.01569e-05	1.4116e-09	-5.01583e-05	3.96855	313985	8.83666	313994
0.0602816	24.8	3.66497	25.0694	-8.40639	240.227	3.96844	-0.012639	720385	15396.4	1	11	0.0050569	0.000201717	0	-0.00173759	-0.000111686	3.21741e-07	6.37899	0.00159501	0.00158514	-0.000177213	-8.40546	25.0709	24.8016	3.66479	0.0394608	0.00583156	0.0398893	8.40639	1.53964e+07	1.04184e+08	1.05315e+08	-81.5936	0.0000000E+000	0.0000000E+000	0.0000000E+000	81.5936	0.0000000E+000	0.0000000E+000	0.0000000E+000	-81.5936	0.0000000E+000	0.0000000E+000	0.0000000E+000	-8.40639	0.0000000E+000	0.0000000E+000	0.0000000E+000	8.40639	6.76677	81.5936	0.000000000000000E+000	-5.01569e-05	1.4116e-09	-5.01583e-05	3.96855	313985	8.83666	313994
0.0401878	25.9588	4.3203	26.3158	-9.4491	240.228	3.96844	-0.012639	916668	24706.2	1	11	0.00505423	0.000192061	0	-0.00173759	-0.000111686	6.01438e-07	-52.794	0.0031315	0.00189357	0.00249414	-9.45378	26.3181	25.9607	4.3228	0.0374844	0.0062385	0.0379999	9.4491	2.47062e+07	1.48449e+08	1.50491e+08	-80.5509	0.0000000E+000	0.0000000E+000	0.0000000E+000	80.5509	0.0000000E+000	0.0000000E+000	0.0000000E+000	-80.5509	0.0000000E+000	0.0000000E+000	0.0000000E+000	-9.4491	0.0000000E+000	0.0000000E+000	0.0000000E+000	9.4491	6.00855	80.5509	0.000000000000000E+000	-5.01569e-05	1.4116e-09	-5.01583e-05	3.96855	313985	8.83666	313994
0.0200939	28.1623	6.39762	28.8798	-12.7987	240.229	3.96844	-0.012639	1.23805e+06	60755.5	1	11	0.00505775	0.000175131	0	-0.00173759	-0.000111686	8.1248e-07	-12.9722	0.00463928	0.00452088	0.00104142	-12.7987	28.8845	28.1668	6.39867	0.0337659	0.00767059	0.0346262	12.7987	6.07555e+07	2.67445e+08	2.74259e+08	-77.2013	0.0000000E+000	0.0000000E+000	0.0000000E+000	77.2013	0.0000000E+000	0.0000000E+000	0.0000000E+000	-77.2013	0.0000000E+000	0.0000000E+000	0.0000000E+000	-12.7987	0.0000000E+000	0.0000000E+000	0.0000000E+000	12.7987	4.402	77.2013	0.000000000000000E+000	-5.01569e-05	1.4116e-09	-5.01583e-05	3.96855	313985	8.83666	313994
0.00796479	34.0699	8.44214	35.1003	-13.9169	20329.1	3.96845	-9.947e-06	2.36697e+06	136923	1	11	0.00505151	0.000143917	0	-0.0107628	-1.62158e-05	8.86047e-07	-1.74552	0.00615667	0.00615381	0.000187534	-13.9148	35.1063	34.0761	8.44233	0.0276535	0.00685222	0.0284898	13.9169	1.36923e+08	5.52581e+08	5.69292e+08	-76.0831	0.0000000E+000	0.0000000E+000	0.0000000E+000	76.0831	0.0000000E+000	0.0000000E+000	0.0000000E+000	-76.0831	0.0000000E+000	0.0000000E+000	0.0000000E+000	-13.9169	0.0000000E+000	0.0000000E+000	0.0000000E+000	13.9169	4.0357	76.0831	-0.00902518	-3.94742e-08	1.61299e-13	-3.94744e-08	3.96847	3.9896e+08	1630.22	3.98961e+08
0.00497799	37.2403	9.33085	38.3915	-14.0663	20329.1	3.96845	-9.947e-06	3.42645e+06	202403	1	11	0.00505953	0.000131788	0	-0.0107628	-1.62158e-05	1.17114e-06	-153.231	0.00888654	-0.00793415	0.00400248	-14.075	38.3848	37.2324	9.33485	0.0252664	0.00633069	0.0260474	14.0663	2.02403e+08	8.07811e+08	8.32782e+08	-75.9337	0.0000000E+000	0.0000000E+000	0.0000000E+000	75.9337	0.0000000E+000	0.0000000E+000	0.0000000E+000	-75.9337	0.0000000E+000	0.0000000E+000	0.0000000E+000	-14.0663	0.0000000E+000	0.0000000E+000	0.0000000E+000	14.0663	3.9911	75.9337	0.000000000000000E+000	-3.94742e-08	1.61299e-13	-3.94744e-08	3.96847	3.9896e+08	1630.22	3.98961e+08
0.00318591	39.7573	11.3618	41.3489	-15.9488	20329.1	3.96845	-9.947e-06	4.39682e+06	331974	1	11	0.00506142	0.000122408	0	-0.0107628	-1.62158e-05	1.16317e-06	-167.802	0.00950246	-0.00928794	0.0020077	-15.955	41.3405	39.748	11.3638	0.0232535	0.00664536	0.0241844	15.9488	3.31974e+08	1.16165e+09	1.20815e+09	-74.0512	0.0000000E+000	0.0000000E+000	0.0000000E+000	74.0512	0.0000000E+000	0.0000000E+000	0.0000000E+000	-74.0512	0.0000000E+000	0.0000000E+000	0.0000000E+000	-15.9488	0.0000000E+000	0.0000000E+000	0.0000000E+000	15.9488	3.49921	74.0512	0.000000000000000E+000	-3.94742e-08	1.61299e-13	-3.94744e-08	3.96847	3.9896e+08	1630.22	3.98961e+08
0.0019912	42.6936	12.4011	44.4582	-16.1969	20329.1	3.96845	-9.947e-06	6.44533e+06	501490	1	11	0.00506574	0.000113944	0	-0.0107628	-1.62158e-05	7.07952e-07	11.1225	0.00621318	0.00609647	-0.00119857	-16.1932	44.4637	42.6997	12.3999	0.0216003	0.00627417	0.022493	16.1969	5.0149e+08	1.72649e+09	1.79785e+09	-73.8031	0.0000000E+000	0.0000000E+000	0.0000000E+000	73.8031	0.0000000E+000	0.0000000E+000	0.0000000E+000	-73.8031	0.0000000E+000	0.0000000E+000	0.0000000E+000	-16.1969	0.0000000E+000	0.0000000E+000	0.0000000E+000	16.1969	3.44273	73.8031	0.000000000000000E+000	-3.94742e-08	1.61299e-13	-3.94744e-08	3.96847	3.9896e+08	1630.22	3.98961e+08
0.00129428	44.4557	13.4482	46.4453	-16.831	20329.1	3.96845	-9.947e-06	9.14383e+06	766609	1	11	0.00506495	0.000109052	0	-0.0107628	-1.62158e-05	5.26688e-07	20.3552	0.0048297	0.0045281	-0.00167996	-16.8274	46.4491	44.4602	13.4465	0.0206084	0.00623421	0.0215307	16.831	7.66609e+08	2.53418e+09	2.64759e+09	-73.169	0.0000000E+000	0.0000000E+000	0.0000000E+000	73.169	0.0000000E+000	0.0000000E+000	0.0000000E+000	-73.169	0.0000000E+000	0.0000000E+000	0.0000000E+000	-16.831	0.0000000E+000	0.0000000E+000	0.0000000E+000	16.831	3.3057	73.169	0.000000000000000E+000	-3.94742e-08	1.61299e-13	-3.94744e-08	3.96847	3.9896e+08	1630.22	3.98961e+08
0.000796479	48.0594	14.9195	50.3219	-17.2464	20329.1	3.96845	-9.947e-06	1.33934e+07	1.1773e+06	1	11	0.00506703	0.000100692	0	-0.0107628	-1.62158e-05	1.43386e-06	-152.872	0.01424	-0.0126734	0.00649322	-17.2577	50.3117	48.0467	14.926	0.0189786	0.0058917	0.0198721	17.2464	1.1773e+09	3.79236e+09	3.9709e+09	-72.7536	0.0000000E+000	0.0000000E+000	0.0000000E+000	72.7536	0.0000000E+000	0.0000000E+000	0.0000000E+000	-72.7536	0.0000000E+000	0.0000000E+000	0.0000000E+000	-17.2464	0.0000000E+000	0.0000000E+000	0.0000000E+000	17.2464	3.22124	72.7536	0.000000000000000E+000	-3.94742e-08	1.61299e-13	-3.94744e-08	3.96847	3.9896e+08	1630.22	3.98961e+08
0.000497799	49.2403	17.9015	52.3934	-19.979	20329.1	3.96845	-9.947e-06	1.78598e+07	2.08498e+06	1	11	0.00506328	9.66396e-05	0	-0.0107628	-1.62158e-05	3.70206e-07	-73.8251	0.00383079	0.00106714	0.00367915	-19.9823	52.3957	49.2414	17.9052	0.0179377	0.00652133	0.0190864	19.979	2.08498e+09	5.735e+09	6.10224e+09	-70.021	0.0000000E+000	0.0000000E+000	0.0000000E+000	70.021	0.0000000E+000	0.0000000E+000	0.0000000E+000	-70.021	0.0000000E+000	0.0000000E+000	0.0000000E+000	-19.979	0.0000000E+000	0.0000000E+000	0.0000000E+000	19.979	2.75062	70.021	0.000000000000000E+000	-3.94742e-08	1.61299e-13	-3.94744e-08	3.96847	3.9896e+08	1630.22	3.98961e+08
0.000298679	49.8689	27.856	57.1215	-29.1871	20329.1	3.96845	-9.947e-06	1.91291e+07	4.54919e+06	1	11	0.00506335	8.86417e-05	0	-0.0107628	-1.62158e-05	9.58906e-07	-109.711	0.0108178	-0.00364857	0.0101839	-29.1978	57.1233	49.8653	27.8662	0.0152838	0.00853728	0.0175065	29.1871	4.54919e+09	8.14414e+09	9.32856e+09	-60.813	0.0000000E+000	0.0000000E+000	0.0000000E+000	60.813	0.0000000E+000	0.0000000E+000	0.0000000E+000	-60.813	0.0000000E+000	0.0000000E+000	0.0000000E+000	-29.1871	0.0000000E+000	0.0000000E+000	0.0000000E+000	29.1871	1.79024	60.813	0.000000000000000E+000	-3.94742e-08	1.61299e-13	-3.94744e-08	3.96847	3.9896e+08	1630.22	3.98961e+08
9.95598e-05	58.7782	80.2443	99.4687	-53.7776	20329.1	3.96845	-9.947e-06	1.99215e+07	1.29651e+07	1	11	0.00506371	5.09076e-05	0	-0.0107628	-1.62158e-05	2.12299e-06	56.8291	0.0417028	0.0228172	-0.034907	-53.7551	99.4541	58.801	80.2094	0.00594078	0.00811038	0.0100534	53.7776	1.29651e+10	9.49684e+09	1.60712e+10	-36.2224	0.0000000E+000	0.0000000E+000	0.0000000E+000	36.2224	0.0000000E+000	0.0000000E+000	0.0000000E+000	-36.2224	0.0000000E+000	0.0000000E+000	0.0000000E+000	-53.7776	0.0000000E+000	0.0000000E+000	0.0000000E+000	53.7776	0.732491	36.2224	0.000000000000000E+000	-3.94742e-08	1.61299e-13	-3.94744e-08	3.96847	3.9896e+08	1630.22	3.98961e+08