File: txt/19080_R307_UC93_28_SOC50_C04.mpt
EC-Lab ASCII FILE
Nb header lines : 65

Potentio Electrochemical Impedance Spectroscopy

Run on channel : 4 (SN 66756)
Grouped channel(s) : 1, 2, 3, 4, 5
User :
CE vs. WE compliance from -10 V to 10 V
Electrode connection : standard
Potential control : Ewe
Ewe ctrl range : min = -10.00 V, max = 10.00 V
Safety Limits :
	Do not start on E overload
Acquisition started on : 11/10/2025 15:44:01.793
Loaded Setting File :  C:\Users\Celltest\OneDrive - store-dot.com\Documents\EC-Lab\Data\@Biologic Test Protocols\cathode half cell EIS SOC50.mps
Saved on :
	File : 19077_R307_UC93_28_SOC50_C04.mpr
	Directory : C:\Users\Celltest\OneDrive - store-dot.com\Documents\EC-Lab\Data\Anna\
	Host : 169.254.61.224
Device : VMP-3e (SN .003165)
Address : USB
EC-LAB for windows v11.62 (software)
Internet server v27.00 (firmware)
Command interpretor v12.03 (firmware)
Electrode material :
Initial state :
Electrolyte :
Comments :
Electrode surface area : 0.001 cm²
Characteristic mass : 0.001 g
Equivalent Weight : 0.000 g/eq.
Density : 0.000 g/cm3
Volume (V) : 0.001 cm³
Record Ece
Cycle Definition : Charge/Discharge alternance
Mode                Multi sine
E (V)               0.0000
vs.                 Eoc
tE (h:m:s)          0:00:0.0000
record              0
dI                  0.000
unit dI             mA
dt (s)              0.000
fi                  1.000
unit fi             MHz
ff                  0.100
unit ff             mHz
Nd                  10
Points              per decade
spacing             Logarithmic
Va (mV)             5.0
pw                  0.10
Na                  2
corr                0
E range min (V)     -10.000
E range max (V)     10.000
I Range             Auto
Bandwidth           5
nc cycles           0
goto Ns'            0
nr cycles           0
inc. cycle          0

freq/Hz	Re(Z)/Ohm	-Im(Z)/Ohm	|Z|/Ohm	Phase(Z)/deg	time/s	<Ewe>/V	<I>/mA	Cs/µF	Cp/µF	cycle number	I Range	|Ewe|/V	|I|/A	Ns	(Q-Qo)/mA.h	<Ece>/V	|Ece|/V	Phase(Zce)/deg	|Zce|/Ohm	Re(Zce)/Ohm	-Im(Zce)/Ohm	Phase(Zwe-ce)/deg	|Zwe-ce|/Ohm	Re(Zwe-ce)/Ohm	-Im(Zwe-ce)/Ohm	Re(Y)/Ohm-1	Im(Y)/Ohm-1	|Y|/Ohm-1	Phase(Y)/deg	Re(C)/nF	Im(C)/nF	|C|/nF	Phase(C)/deg	Re(M)	Im(M)	|M|	Phase(M)/deg	Re(Permittivity)	Im(Permittivity)	|Permittivity|	Phase(Permittivity)/deg	Re(Resistivity)/Ohm.cm	Im(Resistivity)/Ohm.cm	|Resistivity|/Ohm.cm	Phase(Resistivity)/deg	Re(Conductivity)/mS/cm	Im(Conductivity)/mS/cm	|Conductivity|/mS/cm	Phase(Conductivity)/deg	Tan(Delta)	Loss Angle(Delta)/deg	dq/mA.h	Pwe/W	Pce/W	Pwe-ce/W	<Ewe-Ece>/V	Rwe/Ohm	Rce/Ohm	Rwe-ce/Ohm		Ewe-Ece/V
1.00002e+06	2.378	2.47391	3.43149	-46.1324	2.23452	3.97254	0.0243259	0.0643321	0.0334373	1	10	0.000215986	6.29423e-05	0	-8.21243e-07	-0.000144924	0.000187555	-66.3445	2.97979	1.1956	2.72942	-55.519	6.31231	3.5736	5.20333	0.201951	0.210096	0.291419	46.1324	33.4373	32.1409	46.3798	-43.8676	0.0000000E+000	0.0000000E+000	0.0000000E+000	43.8676	0.0000000E+000	0.0000000E+000	0.0000000E+000	-43.8676	0.0000000E+000	0.0000000E+000	0.0000000E+000	-46.1324	0.0000000E+000	0.0000000E+000	0.0000000E+000	46.1324	0.961231	43.8676	-8.21243e-07	9.66357e-05	-3.52541e-09	9.66392e-05	3.97268	163305	5.95758	163310
630957	1.03765	-0.115206	1.04402	6.33536	3.40352	3.97147	-0.0687616	-2.18951	-0.0266608	1	9	0.000347281	0.000332637	0	-1.87797e-05	-4.9374e-05	0.000110062	-99.0087	0.330877	-0.0518103	0.326796	-12.1136	1.00829	0.985838	0.21159	0.951983	-0.105695	0.957832	-6.33536	-26.6608	240.132	241.607	-96.3354	0.0000000E+000	0.0000000E+000	0.0000000E+000	96.3354	0.0000000E+000	0.0000000E+000	0.0000000E+000	-96.3354	0.0000000E+000	0.0000000E+000	0.0000000E+000	6.33536	0.0000000E+000	0.0000000E+000	0.0000000E+000	-6.33536	9.00692	83.6646	-7.90259e-06	-0.000273085	3.39504e-09	-0.000273088	3.97152	57757.2	0.718047	57757.9
398103	1.43219	0.124251	1.43757	-4.95833	4.17354	3.97132	-0.0612275	3.21755	0.0240362	1	9	0.00134815	0.000937802	0	-3.33669e-05	-0.000316913	2.87603e-05	172.339	0.0306678	-0.0303941	-0.0040884	-4.89944	1.40694	1.40179	0.120162	0.693016	0.0601231	0.695619	4.95833	24.0362	277.056	278.097	-85.0417	0.0000000E+000	0.0000000E+000	0.0000000E+000	85.0417	0.0000000E+000	0.0000000E+000	0.0000000E+000	-85.0417	0.0000000E+000	0.0000000E+000	0.0000000E+000	-4.95833	0.0000000E+000	0.0000000E+000	0.0000000E+000	4.95833	11.5266	85.0417	-6.7228e-06	-0.000243154	1.94038e-08	-0.000243173	3.97164	64861.7	5.176	64866.9
251206	1.58986	0.419415	1.64425	-14.7783	4.94154	3.97109	-0.0800626	1.51059	0.0982877	1	9	0.00416144	0.00253091	0	-4.8675e-05	4.61757e-05	4.56725e-05	90.7283	0.0180459	-0.000229379	-0.0180444	-14.1706	1.63952	1.58963	0.401371	0.588062	0.155135	0.608181	14.7783	98.2877	372.574	385.321	-75.2217	0.0000000E+000	0.0000000E+000	0.0000000E+000	75.2217	0.0000000E+000	0.0000000E+000	0.0000000E+000	-75.2217	0.0000000E+000	0.0000000E+000	0.0000000E+000	-14.7783	0.0000000E+000	0.0000000E+000	0.0000000E+000	14.7783	3.79065	75.2217	-8.393e-06	-0.000317936	-3.69695e-09	-0.000317933	3.97105	49599.9	0.576745	49599.3
158486	1.75096	0.618948	1.85714	-19.468	5.70856	3.97103	-0.0646588	1.62246	0.180217	1	9	0.00540122	0.00290836	0	-4.97008e-05	0.000103506	3.9179e-05	84.6916	0.0134712	0.00124631	-0.0134134	-19.0643	1.85389	1.75221	0.605535	0.507678	0.17946	0.538463	19.468	180.217	509.82	540.736	-70.532	0.0000000E+000	0.0000000E+000	0.0000000E+000	70.532	0.0000000E+000	0.0000000E+000	0.0000000E+000	-70.532	0.0000000E+000	0.0000000E+000	0.0000000E+000	-19.468	0.0000000E+000	0.0000000E+000	0.0000000E+000	19.468	2.82893	70.532	5.15249e-07	-0.000256762	-6.69255e-09	-0.000256755	3.97093	61415.1	1.6008	61413.5
100004	1.952	0.80336	2.11085	-22.37	6.47455	3.97102	-0.0643231	1.98104	0.286946	1	9	0.00544465	0.00257936	0	-7.48225e-05	-0.000393353	3.31834e-05	83.4621	0.012865	0.0014648	-0.0127813	-22.0335	2.10738	1.95346	0.790579	0.438091	0.1803	0.473743	22.37	286.946	697.218	753.957	-67.63	0.0000000E+000	0.0000000E+000	0.0000000E+000	67.63	0.0000000E+000	0.0000000E+000	0.0000000E+000	-67.63	0.0000000E+000	0.0000000E+000	0.0000000E+000	-22.37	0.0000000E+000	0.0000000E+000	0.0000000E+000	22.37	2.42979	67.63	-1.16626e-05	-0.000255429	2.53017e-08	-0.000255454	3.97141	61735.5	6.11527	61741.6
63093.8	2.20912	1.01392	2.43068	-24.6538	7.24052	3.97101	-0.0605934	2.48788	0.432893	1	9	0.00539896	0.00222117	0	-8.8416e-05	-1.11541e-05	2.1401e-05	58.1836	0.00963501	0.00507957	-0.00818727	-24.4286	2.4319	2.2142	1.00573	0.373905	0.171612	0.411407	24.6538	432.893	943.18	1037.78	-65.3462	0.0000000E+000	0.0000000E+000	0.0000000E+000	65.3462	0.0000000E+000	0.0000000E+000	0.0000000E+000	-65.3462	0.0000000E+000	0.0000000E+000	0.0000000E+000	-24.6538	0.0000000E+000	0.0000000E+000	0.0000000E+000	24.6538	2.17878	65.3462	-5.34958e-06	-0.000240617	6.75867e-10	-0.000240618	3.97102	65535.3	0.184082	65535.5
39814.1	2.50535	1.2243	2.78849	-26.0436	8.00854	3.97101	-0.0663745	3.26509	0.629409	1	9	0.00532262	0.00190878	0	-0.000106397	-0.000106704	1.38693e-05	11.576	0.00726604	0.00711825	-0.00145806	-25.9526	2.79425	2.51247	1.22284	0.322203	0.157452	0.358616	26.0436	629.409	1287.99	1433.55	-63.9564	0.0000000E+000	0.0000000E+000	0.0000000E+000	63.9564	0.0000000E+000	0.0000000E+000	0.0000000E+000	-63.9564	0.0000000E+000	0.0000000E+000	0.0000000E+000	-26.0436	0.0000000E+000	0.0000000E+000	0.0000000E+000	26.0436	2.04635	63.9564	-1.04223e-05	-0.000263574	7.08242e-09	-0.000263581	3.97112	59827.4	1.6076	59829
25116.9	2.86811	1.44221	3.2103	-26.6952	8.77455	3.97101	-0.0674934	4.39365	0.88673	1	9	0.00516841	0.00160995	0	-0.000126007	-0.000374243	1.30341e-05	-133.746	0.00809596	-0.005598	0.00584867	-26.8335	3.20794	2.86251	1.44806	0.278294	0.139939	0.311497	26.6952	886.73	1763.43	1973.82	-63.3048	0.0000000E+000	0.0000000E+000	0.0000000E+000	63.3048	0.0000000E+000	0.0000000E+000	0.0000000E+000	-63.3048	0.0000000E+000	0.0000000E+000	0.0000000E+000	-26.6952	0.0000000E+000	0.0000000E+000	0.0000000E+000	26.6952	1.98869	63.3048	-8.05535e-06	-0.000268017	2.5259e-08	-0.000268042	3.97138	58835.4	5.54488	58841
15847.7	3.32969	1.6908	3.73439	-26.9212	9.41657	3.97102	-0.0583556	5.93968	1.21761	1	9	0.00514354	0.00137734	0	-0.00013724	0.000141726	9.03909e-06	-100.457	0.0065627	-0.0011911	0.0064537	-27.0177	3.73625	3.3285	1.69725	0.238762	0.121242	0.267782	26.9212	1217.61	2397.84	2689.27	-63.0788	0.0000000E+000	0.0000000E+000	0.0000000E+000	63.0788	0.0000000E+000	0.0000000E+000	0.0000000E+000	-63.0788	0.0000000E+000	0.0000000E+000	0.0000000E+000	-26.9212	0.0000000E+000	0.0000000E+000	0.0000000E+000	26.9212	1.9693	63.0788	-5.34392e-06	-0.000231731	-8.27048e-09	-0.000231723	3.97088	68048.7	2.42865	68046.2
10002.2	3.80589	1.96693	4.28411	-27.3305	10.0925	3.97105	-0.0389042	8.08972	1.70527	1	10	0.0046821	0.0010929	0	-0.000146644	7.95583e-06	2.80839e-05	17.7245	0.0256968	0.024477	-0.00782311	-27.0883	4.3023	3.83036	1.95911	0.207365	0.107169	0.233421	27.3305	1705.27	3299.58	3714.18	-62.6695	0.0000000E+000	0.0000000E+000	0.0000000E+000	62.6695	0.0000000E+000	0.0000000E+000	0.0000000E+000	-62.6695	0.0000000E+000	0.0000000E+000	0.0000000E+000	-27.3305	0.0000000E+000	0.0000000E+000	0.0000000E+000	27.3305	1.93493	62.6694	-4.96864e-06	-0.000154491	-3.09515e-10	-0.00015449	3.97104	102072	0.204498	102072
6309.38	4.35813	2.28149	4.9192	-27.6322	10.6105	3.97102	-0.0383932	11.0564	2.37828	1	10	0.00503215	0.00102296	0	-0.000152389	-0.000278694	1.00339e-05	4.32469	0.00980868	0.00978075	-0.000739656	-27.5718	4.92752	4.36791	2.28075	0.180099	0.0942824	0.203285	27.6322	2378.28	4543.02	5127.89	-62.3678	0.0000000E+000	0.0000000E+000	0.0000000E+000	62.3678	0.0000000E+000	0.0000000E+000	0.0000000E+000	-62.3678	0.0000000E+000	0.0000000E+000	0.0000000E+000	-27.6322	0.0000000E+000	0.0000000E+000	0.0000000E+000	27.6322	1.91021	62.3678	-1.73406e-06	-0.00015246	1.06999e-08	-0.000152471	3.9713	103430	7.25893	103437
3983.6	5.00482	2.66861	5.67183	-28.0669	11.1751	3.97098	-0.0449098	14.9713	3.31423	1	10	0.00496391	0.000875186	0	-0.000156785	8.43956e-05	8.27482e-06	-140.876	0.00945493	-0.00733499	0.00596604	-28.155	5.66818	4.99749	2.67458	0.155576	0.0829541	0.17631	28.0669	3314.23	6215.64	7044.02	-61.9331	0.0000000E+000	0.0000000E+000	0.0000000E+000	61.9331	0.0000000E+000	0.0000000E+000	0.0000000E+000	-61.9331	0.0000000E+000	0.0000000E+000	0.0000000E+000	-28.0669	0.0000000E+000	0.0000000E+000	0.0000000E+000	28.0669	1.87544	61.9331	-2.49183e-06	-0.000178336	-3.79019e-09	-0.000178332	3.9709	88421.2	1.87922	88419.3
2510.8	5.77158	3.15534	6.57779	-28.6655	11.9998	3.97095	-0.0361477	20.0892	4.62267	1	10	0.00484296	0.00073626	0	-0.000163274	8.43956e-05	3.39506e-06	-73.1525	0.00461123	0.00133645	0.00441332	-28.6936	6.58108	5.77292	3.15975	0.133394	0.0729266	0.152027	28.6655	4622.67	8455.56	9636.68	-61.3345	0.0000000E+000	0.0000000E+000	0.0000000E+000	61.3345	0.0000000E+000	0.0000000E+000	0.0000000E+000	-61.3345	0.0000000E+000	0.0000000E+000	0.0000000E+000	-28.6655	0.0000000E+000	0.0000000E+000	0.0000000E+000	28.6655	1.82915	61.3345	-3.26538e-06	-0.000143541	-3.05071e-09	-0.000143538	3.97087	109854	2.33475	109851
1585.51	6.71897	3.7118	7.67607	-28.9179	12.9019	3.97095	-0.0304778	27.0437	6.32353	1	10	0.00475531	0.000619498	0	-0.000170382	-6.8484e-05	6.25836e-06	-34.5975	0.0101023	0.00831583	0.00573617	-28.9253	7.68612	6.72728	3.71754	0.114032	0.0629952	0.130275	28.9179	6323.53	11446.6	13077.1	-61.0821	0.0000000E+000	0.0000000E+000	0.0000000E+000	61.0821	0.0000000E+000	0.0000000E+000	0.0000000E+000	-61.0821	0.0000000E+000	0.0000000E+000	0.0000000E+000	-28.9179	0.0000000E+000	0.0000000E+000	0.0000000E+000	28.9179	1.81016	61.0821	-4.08894e-06	-0.000121026	2.08724e-09	-0.000121028	3.97102	130290	2.24701	130292
1000.32	7.86194	4.34823	8.98427	-28.9458	13.8038	3.97096	-0.0351331	36.5905	8.57093	1	10	0.004686	0.000521578	0	-0.000178108	-4.9374e-05	1.01746e-05	-59.8277	0.0195073	0.00980441	0.0168644	-29.0096	9.00102	7.87174	4.36509	0.0974011	0.05387	0.111306	28.9458	8570.93	15496.9	17709.2	-61.0542	0.0000000E+000	0.0000000E+000	0.0000000E+000	61.0542	0.0000000E+000	0.0000000E+000	0.0000000E+000	-61.0542	0.0000000E+000	0.0000000E+000	0.0000000E+000	-28.9458	0.0000000E+000	0.0000000E+000	0.0000000E+000	28.9458	1.80808	61.0542	-4.14924e-06	-0.000139512	1.73466e-09	-0.000139514	3.97101	113026	1.40534	113028
631.01	9.3395	4.98312	10.5857	-28.0823	14.7046	3.97096	-0.0288067	50.6154	11.2161	1	10	0.00466124	0.000440332	0	-0.00018459	-0.000221364	1.15548e-05	-44.4445	0.0262412	0.0187344	0.0183745	-28.1222	10.6109	9.35823	5.0015	0.0833454	0.0444692	0.0944668	28.0823	11216.1	21021.6	23826.7	-61.9177	0.0000000E+000	0.0000000E+000	0.0000000E+000	61.9177	0.0000000E+000	0.0000000E+000	0.0000000E+000	-61.9177	0.0000000E+000	0.0000000E+000	0.0000000E+000	-28.0823	0.0000000E+000	0.0000000E+000	0.0000000E+000	28.0823	1.87423	61.9177	-3.12843e-06	-0.00011439	6.37675e-09	-0.000114396	3.97118	137849	7.68446	137856
398.089	11.1309	5.46888	12.4018	-26.1661	15.6058	3.97096	-0.0286314	73.104	14.2157	1	10	0.00464162	0.000374269	0	-0.000191737	-4.9374e-05	1.44501e-05	-32.5543	0.0386087	0.0325426	0.0207753	-26.1859	12.4402	11.1634	5.48966	0.0723701	0.0355573	0.0806334	26.1661	14215.7	28933.4	32237	-63.8339	0.0000000E+000	0.0000000E+000	0.0000000E+000	63.8339	0.0000000E+000	0.0000000E+000	0.0000000E+000	-63.8339	0.0000000E+000	0.0000000E+000	0.0000000E+000	-26.1661	0.0000000E+000	0.0000000E+000	0.0000000E+000	26.1661	2.03531	63.8339	-3.27233e-06	-0.000113694	1.41365e-09	-0.000113695	3.97101	138693	1.72447	138694
251.044	13.184	5.55516	14.3066	-22.8484	16.5041	3.97096	-0.0300376	114.123	17.2066	1	10	0.00462301	0.000323139	0	-0.000199105	-0.000221364	1.27472e-05	26.861	0.0394479	0.0351917	-0.0178237	-22.7281	14.3321	13.2192	5.53733	0.0644135	0.027141	0.069898	22.8484	17206.6	40836.3	44313.4	-67.1516	0.0000000E+000	0.0000000E+000	0.0000000E+000	67.1516	0.0000000E+000	0.0000000E+000	0.0000000E+000	-67.1516	0.0000000E+000	0.0000000E+000	0.0000000E+000	-22.8484	0.0000000E+000	0.0000000E+000	0.0000000E+000	22.8484	2.37329	67.1516	-3.55285e-06	-0.000119278	6.64924e-09	-0.000119285	3.97118	132199	7.36954	132207
158.428	15.3183	5.29093	16.2063	-19.0549	17.4089	3.97096	-0.0336074	189.87	20.2373	1	10	0.00462832	0.000285588	0	-0.000206646	-0.000164034	5.50821e-06	-9.79102	0.0192873	0.0190063	0.0032799	-19.0439	16.2253	15.3373	5.29421	0.0583235	0.0201449	0.0617046	19.0549	20237.3	58591	61987.5	-70.9451	0.0000000E+000	0.0000000E+000	0.0000000E+000	70.9451	0.0000000E+000	0.0000000E+000	0.0000000E+000	-70.9451	0.0000000E+000	0.0000000E+000	0.0000000E+000	-19.0549	0.0000000E+000	0.0000000E+000	0.0000000E+000	19.0549	2.89519	70.9451	-3.89689e-06	-0.000133454	5.51275e-09	-0.000133459	3.97113	118157	4.88088	118162
100.032	16.9888	4.41484	17.5531	-14.5671	18.3088	3.97096	-0.027296	360.385	22.7975	1	10	0.00463157	0.000263861	0	-0.000213571	-8.7594e-05	9.43388e-06	-29.9625	0.0357533	0.0309749	0.0178564	-14.598	17.5876	17.0198	4.43269	0.0551386	0.0143287	0.0569699	14.5671	22797.5	87727.7	90641.5	-75.4329	0.0000000E+000	0.0000000E+000	0.0000000E+000	75.4329	0.0000000E+000	0.0000000E+000	0.0000000E+000	-75.4329	0.0000000E+000	0.0000000E+000	0.0000000E+000	-14.5671	0.0000000E+000	0.0000000E+000	0.0000000E+000	14.5671	3.84813	75.4329	-3.64173e-06	-0.000108391	2.39096e-09	-0.000108394	3.97105	145478	3.20904	145481
63.0823	18.2196	3.463	18.5458	-10.7618	19.2249	3.97096	-0.0249534	728.552	25.4024	1	10	0.00462934	0.000249617	0	-0.000219886	-3.02641e-05	4.85955e-06	21.1689	0.019468	0.0181543	-0.00703027	-10.7301	18.5623	18.2378	3.45597	0.0529722	0.0100684	0.0539206	10.7618	25402.4	133648	136040	-79.2382	0.0000000E+000	0.0000000E+000	0.0000000E+000	79.2382	0.0000000E+000	0.0000000E+000	0.0000000E+000	-79.2382	0.0000000E+000	0.0000000E+000	0.0000000E+000	-10.7618	0.0000000E+000	0.0000000E+000	0.0000000E+000	10.7618	5.26122	79.2382	-3.09736e-06	-9.90891e-05	7.55192e-10	-9.90898e-05	3.97099	159135	1.21282	159136
39.8089	19.1618	2.70403	19.3516	-8.0323	20.3718	3.97101	-0.0189436	1478.53	28.868	1	11	0.00462366	0.000238929	0	-0.000226999	-0.000221364	1.21372e-05	-78.9655	0.0507986	0.00972282	0.0498594	-8.17433	19.3683	19.1715	2.75389	0.0511683	0.00722065	0.0516753	8.0323	28868	204570	206596	-81.9677	0.0000000E+000	0.0000000E+000	0.0000000E+000	81.9677	0.0000000E+000	0.0000000E+000	0.0000000E+000	-81.9677	0.0000000E+000	0.0000000E+000	0.0000000E+000	-8.0323	0.0000000E+000	0.0000000E+000	0.0000000E+000	8.0323	7.08638	81.9677	-3.98647e-06	-7.52253e-05	4.19343e-09	-7.52295e-05	3.97123	209622	11.6854	209634
25.1044	19.5298	1.93696	19.6256	-5.66407	21.251	3.97101	-0.0185374	3273.02	31.882	1	11	0.00461912	0.000235363	0	-0.000232247	0.000141726	8.09452e-06	-32.2661	0.0343917	0.0290809	0.0183601	-5.70896	19.6563	19.5588	1.95532	0.0507052	0.00502894	0.0509539	5.66407	31882	321456	323033	-84.3359	0.0000000E+000	0.0000000E+000	0.0000000E+000	84.3359	0.0000000E+000	0.0000000E+000	0.0000000E+000	-84.3359	0.0000000E+000	0.0000000E+000	0.0000000E+000	-5.66407	0.0000000E+000	0.0000000E+000	0.0000000E+000	5.66407	10.0827	84.3359	-2.32869e-06	-7.36121e-05	-2.62722e-09	-7.36094e-05	3.97087	214217	7.6454	214209
15.8576	19.5084	1.16845	19.5434	-3.4276	22.129	3.97101	-0.0171055	8589.64	30.7038	1	11	0.00461364	0.000236072	0	-0.000237236	0.000179945	9.66243e-06	-8.51544	0.04093	0.0404788	0.00606075	-3.43822	19.5841	19.5489	1.17451	0.0510767	0.00305921	0.0511682	3.4276	30703.8	512632	513551	-86.5724	0.0000000E+000	0.0000000E+000	0.0000000E+000	86.5724	0.0000000E+000	0.0000000E+000	0.0000000E+000	-86.5724	0.0000000E+000	0.0000000E+000	0.0000000E+000	-3.4276	0.0000000E+000	0.0000000E+000	0.0000000E+000	3.4276	16.696	86.5724	-2.63267e-06	-6.79261e-05	-3.07805e-09	-6.7923e-05	3.97083	232148	10.5198	232138
10.0032	20.1273	1.07939	20.1562	-3.06971	23.1108	3.97102	-0.0196946	14740.2	42.2706	1	11	0.00461071	0.000228748	0	-0.000243604	-0.000164034	1.03194e-05	1.21401	0.0451123	0.0451022	-0.000955793	-3.06015	20.2012	20.1724	1.07843	0.0495412	0.00265679	0.0496124	3.06971	42270.6	788221	789353	-86.9303	0.0000000E+000	0.0000000E+000	0.0000000E+000	86.9303	0.0000000E+000	0.0000000E+000	0.0000000E+000	-86.9303	0.0000000E+000	0.0000000E+000	0.0000000E+000	-3.06971	0.0000000E+000	0.0000000E+000	0.0000000E+000	3.06971	18.647	86.9303	-9.59569e-07	-7.82078e-05	3.23059e-09	-7.8211e-05	3.97118	201629	8.32885	201638
6.31058	20.6785	1.10103	20.7078	-3.04785	24.0333	3.97102	-0.0175659	22906.1	64.7563	1	11	0.00461505	0.000222865	0	-0.000247864	0.000141726	5.11485e-06	-34.4789	0.0229504	0.0189188	0.0129923	-3.08093	20.7274	20.6975	1.11403	0.0482226	0.00256762	0.0482909	3.04785	64756.3	1.21619e+06	1.21791e+06	-86.9521	0.0000000E+000	0.0000000E+000	0.0000000E+000	86.9521	0.0000000E+000	0.0000000E+000	0.0000000E+000	-86.9521	0.0000000E+000	0.0000000E+000	0.0000000E+000	-3.04785	0.0000000E+000	0.0000000E+000	0.0000000E+000	3.04785	18.781	86.9521	3.51742e-07	-6.97544e-05	-2.48953e-09	-6.9752e-05	3.97088	226065	8.06824	226057
3.97785	20.7236	0.959843	20.7458	-2.65184	25.0403	3.97103	-0.0158831	41684.2	89.2299	1	11	0.00462274	0.000222827	0	-0.000255992	-0.000336023	6.03038e-06	-69.0797	0.027063	0.00966337	0.025279	-2.72031	20.7567	20.7333	0.985122	0.0481508	0.00223017	0.0482025	2.65184	89229.9	1.92653e+06	1.92859e+06	-87.3482	0.0000000E+000	0.0000000E+000	0.0000000E+000	87.3482	0.0000000E+000	0.0000000E+000	0.0000000E+000	-87.3482	0.0000000E+000	0.0000000E+000	0.0000000E+000	-2.65184	0.0000000E+000	0.0000000E+000	0.0000000E+000	2.65184	21.5906	87.3482	-5.2446e-06	-6.30723e-05	5.33709e-09	-6.30776e-05	3.97137	250016	21.156	250038
2.51367	20.6508	0.92262	20.6714	-2.55812	26.5999	3.97104	-0.0174851	68625.9	136.708	1	11	0.00462312	0.000223649	0	-0.000259642	-0.000259584	5.25872e-06	-1.39945	0.0235133	0.0235063	0.000574256	-2.5568	20.6949	20.6743	0.923194	0.0483279	0.00215916	0.0483761	2.55812	136708	3.05991e+06	3.06296e+06	-87.4419	0.0000000E+000	0.0000000E+000	0.0000000E+000	87.4419	0.0000000E+000	0.0000000E+000	0.0000000E+000	-87.4419	0.0000000E+000	0.0000000E+000	0.0000000E+000	-2.55812	0.0000000E+000	0.0000000E+000	0.0000000E+000	2.55812	22.3828	87.4419	-5.72024e-07	-6.94341e-05	4.53886e-09	-6.94387e-05	3.9713	227109	14.8459	227124
1.58469	20.9386	0.958829	20.9605	-2.62188	29.0356	3.97103	-0.0156731	104746	219.187	1	11	0.00462021	0.000220425	0	-0.000268615	-0.000278694	4.06746e-06	-7.8749	0.0184528	0.0182788	0.00252823	-2.6265	20.9789	20.9568	0.961357	0.0476588	0.00218242	0.0477088	2.62188	219187	4.78653e+06	4.79154e+06	-87.3781	0.0000000E+000	0.0000000E+000	0.0000000E+000	87.3781	0.0000000E+000	0.0000000E+000	0.0000000E+000	-87.3781	0.0000000E+000	0.0000000E+000	0.0000000E+000	-2.62188	0.0000000E+000	0.0000000E+000	0.0000000E+000	2.62188	21.8376	87.3781	-6.86471e-06	-6.22383e-05	4.36799e-09	-6.22426e-05	3.97131	253366	17.7817	253384
1.00469	21.2993	1.00294	21.3229	-2.69594	239.854	3.97098	-0.0156357	157947	349.436	1	11	0.00506357	0.000237471	0	-0.00214178	-0.000125814	2.59506e-07	-2.06895	0.00109279	0.00109208	3.94522e-05	-2.69591	21.324	21.3004	1.00298	0.046846	0.00220588	0.0468979	2.69594	349436	7.42094e+06	7.42916e+06	-87.3041	0.0000000E+000	0.0000000E+000	0.0000000E+000	87.3041	0.0000000E+000	0.0000000E+000	0.0000000E+000	-87.3041	0.0000000E+000	0.0000000E+000	0.0000000E+000	-2.69594	0.0000000E+000	0.0000000E+000	0.0000000E+000	2.69594	21.2369	87.3041	-0.00186052	-6.20889e-05	1.96718e-09	-6.20909e-05	3.9711	253969	8.04659	253977
0.632957	21.5448	1.17113	21.5766	-3.11141	239.854	3.97098	-0.0156357	214704	632.534	1	11	0.00507496	0.000235206	0	-0.00214178	-0.000125814	5.50009e-07	4.73757	0.00233841	0.00233042	-0.000193134	-3.11057	21.579	21.5472	1.17094	0.0462781	0.00251558	0.0463464	3.11141	632533	1.16365e+07	1.16537e+07	-86.8886	0.0000000E+000	0.0000000E+000	0.0000000E+000	86.8886	0.0000000E+000	0.0000000E+000	0.0000000E+000	-86.8886	0.0000000E+000	0.0000000E+000	0.0000000E+000	-3.11141	0.0000000E+000	0.0000000E+000	0.0000000E+000	3.11141	18.3966	86.8886	0.000000000000000E+000	-6.20889e-05	1.96718e-09	-6.20909e-05	3.9711	253969	8.04659	253977
0.401878	21.7378	1.41332	21.7837	-3.71996	239.855	3.97098	-0.0156357	280211	1179.52	1	11	0.00509024	0.000233672	0	-0.00214178	-0.000125814	3.24117e-07	-33.2438	0.00138706	0.00116006	0.000760388	-3.72176	21.7849	21.7389	1.41408	0.0458092	0.00297838	0.045906	3.71996	1.17952e+06	1.81418e+07	1.81801e+07	-86.28	0.0000000E+000	0.0000000E+000	0.0000000E+000	86.28	0.0000000E+000	0.0000000E+000	0.0000000E+000	-86.28	0.0000000E+000	0.0000000E+000	0.0000000E+000	-3.71996	0.0000000E+000	0.0000000E+000	0.0000000E+000	3.71996	15.3806	86.28	0.000000000000000E+000	-6.20889e-05	1.96718e-09	-6.20909e-05	3.9711	253969	8.04659	253977
0.251173	22.2113	1.76252	22.2811	-4.53705	239.856	3.97098	-0.0156357	359512	2249.61	1	11	0.00509113	0.000228495	0	-0.00214178	-0.000125814	4.5464e-07	52.1632	0.00198971	0.00122052	-0.0015714	-4.53277	22.2822	22.2125	1.76095	0.0447404	0.00355026	0.0448811	4.53705	2.24961e+06	2.83496e+07	2.84387e+07	-85.463	0.0000000E+000	0.0000000E+000	0.0000000E+000	85.463	0.0000000E+000	0.0000000E+000	0.0000000E+000	-85.463	0.0000000E+000	0.0000000E+000	0.0000000E+000	-4.53705	0.0000000E+000	0.0000000E+000	0.0000000E+000	4.53705	12.602	85.463	0.000000000000000E+000	-6.20889e-05	1.96718e-09	-6.20909e-05	3.9711	253969	8.04659	253977
0.160751	22.5836	2.04147	22.6757	-5.16529	239.856	3.97098	-0.0156357	484978	3930.88	1	11	0.00508564	0.000224277	0	-0.00214178	-0.000125814	5.35331e-07	11.4682	0.00238692	0.00233926	-0.000474575	-5.16357	22.678	22.5859	2.041	0.043921	0.0039703	0.0441001	5.16529	3.93088e+06	4.3485e+07	4.36623e+07	-84.8347	0.0000000E+000	0.0000000E+000	0.0000000E+000	84.8347	0.0000000E+000	0.0000000E+000	0.0000000E+000	-84.8347	0.0000000E+000	0.0000000E+000	0.0000000E+000	-5.16529	0.0000000E+000	0.0000000E+000	0.0000000E+000	5.16529	11.0624	84.8347	0.000000000000000E+000	-6.20889e-05	1.96718e-09	-6.20909e-05	3.9711	253969	8.04659	253977
0.100469	23.0773	2.84993	23.2526	-7.0401	239.857	3.97098	-0.0156357	555842	8349.82	1	11	0.00508807	0.000218817	0	-0.00214178	-0.000125814	5.32234e-07	-70.0454	0.00243232	0.000830092	0.0022863	-7.04544	23.2537	23.0781	2.85222	0.0426817	0.00527097	0.0430059	7.0401	8.34982e+06	6.76126e+07	6.81263e+07	-82.9599	0.0000000E+000	0.0000000E+000	0.0000000E+000	82.9599	0.0000000E+000	0.0000000E+000	0.0000000E+000	-82.9599	0.0000000E+000	0.0000000E+000	0.0000000E+000	-7.0401	0.0000000E+000	0.0000000E+000	0.0000000E+000	7.0401	8.09749	82.9599	0.000000000000000E+000	-6.20889e-05	1.96718e-09	-6.20909e-05	3.9711	253969	8.04659	253977
0.0602816	23.9276	3.44941	24.175	-8.20325	239.857	3.97098	-0.0156357	765404	15582.9	1	11	0.00508447	0.00021032	0	-0.00214178	-0.000125814	5.11527e-07	21.0084	0.00243214	0.00227047	-0.000871936	-8.20043	24.1771	23.9299	3.44854	0.0409418	0.00590217	0.0413651	8.20325	1.55829e+07	1.08094e+08	1.09212e+08	-81.7968	0.0000000E+000	0.0000000E+000	0.0000000E+000	81.7968	0.0000000E+000	0.0000000E+000	0.0000000E+000	-81.7968	0.0000000E+000	0.0000000E+000	0.0000000E+000	-8.20325	0.0000000E+000	0.0000000E+000	0.0000000E+000	8.20325	6.93674	81.7968	0.000000000000000E+000	-6.20889e-05	1.96718e-09	-6.20909e-05	3.9711	253969	8.04659	253977
0.0401878	25.0381	4.06211	25.3655	-9.2152	239.858	3.97098	-0.0156357	974933	25003	1	11	0.00508292	0.000200387	0	-0.00214178	-0.000125814	1.20517e-06	-1.37723	0.00601422	0.00601248	0.000144551	-9.21335	25.3714	25.0441	4.06225	0.0389148	0.00631342	0.0394236	9.2152	2.5003e+07	1.54114e+08	1.56129e+08	-80.7848	0.0000000E+000	0.0000000E+000	0.0000000E+000	80.7848	0.0000000E+000	0.0000000E+000	0.0000000E+000	-80.7848	0.0000000E+000	0.0000000E+000	0.0000000E+000	-9.2152	0.0000000E+000	0.0000000E+000	0.0000000E+000	9.2152	6.16382	80.7848	0.000000000000000E+000	-6.20889e-05	1.96718e-09	-6.20909e-05	3.9711	253969	8.04659	253977
0.0200939	27.0617	5.97694	27.7139	-12.4546	239.858	3.97098	-0.0156357	1.32519e+06	61636.6	1	11	0.00508419	0.000183453	0	-0.00214178	-0.000125814	1.17656e-06	-20.1593	0.00641343	0.00602053	0.00221027	-12.4563	27.7203	27.0678	5.97915	0.0352338	0.00778184	0.0360829	12.4546	6.16366e+07	2.79072e+08	2.85797e+08	-77.5454	0.0000000E+000	0.0000000E+000	0.0000000E+000	77.5454	0.0000000E+000	0.0000000E+000	0.0000000E+000	-77.5454	0.0000000E+000	0.0000000E+000	0.0000000E+000	-12.4546	0.0000000E+000	0.0000000E+000	0.0000000E+000	12.4546	4.5277	77.5454	0.000000000000000E+000	-6.20889e-05	1.96718e-09	-6.20909e-05	3.9711	253969	8.04659	253977
0.00796479	32.3334	7.90432	33.2855	-13.7373	20328.8	3.97098	-0.00079237	2.52802e+06	142561	1	11	0.00507641	0.000152511	0	-0.0157721	-0.000527123	3.30561e-07	-16.3347	0.00216746	0.00207997	0.000609592	-13.7375	33.2877	32.3354	7.90493	0.0291837	0.00713435	0.0300431	13.7373	1.42561e+08	5.83159e+08	6.00331e+08	-76.2627	0.0000000E+000	0.0000000E+000	0.0000000E+000	76.2627	0.0000000E+000	0.0000000E+000	0.0000000E+000	-76.2627	0.0000000E+000	0.0000000E+000	0.0000000E+000	-13.7373	0.0000000E+000	0.0000000E+000	0.0000000E+000	13.7373	4.09059	76.2627	-0.0136303	-3.14649e-06	4.17676e-10	-3.1469e-06	3.97151	5.01153e+06	665.249	5.01219e+06
0.00497799	35.3797	8.84227	36.4679	-14.0322	20328.8	3.97098	-0.00079237	3.61578e+06	212573	1	11	0.00508269	0.000139374	0	-0.0157721	-0.000527123	3.31466e-07	-39.575	0.00237825	0.00183313	0.00151515	-14.0338	36.4701	35.3815	8.84378	0.0266031	0.00664877	0.0274214	14.0322	2.12573e+08	8.50547e+08	8.76708e+08	-75.9678	0.0000000E+000	0.0000000E+000	0.0000000E+000	75.9678	0.0000000E+000	0.0000000E+000	0.0000000E+000	-75.9678	0.0000000E+000	0.0000000E+000	0.0000000E+000	-14.0322	0.0000000E+000	0.0000000E+000	0.0000000E+000	14.0322	4.0012	75.9678	0.000000000000000E+000	-3.14649e-06	4.17676e-10	-3.1469e-06	3.97151	5.01153e+06	665.249	5.01219e+06
0.00318591	37.7386	10.7997	39.2535	-15.9697	20328.8	3.97098	-0.00079237	4.62564e+06	350141	1	11	0.00508541	0.000129553	0	-0.0157721	-0.000527123	3.60983e-07	-7.51702	0.00278637	0.00276242	0.000364514	-15.9691	39.2562	37.7414	10.8001	0.0244923	0.00700902	0.0254754	15.9697	3.50141e+08	1.22353e+09	1.27265e+09	-74.0303	0.0000000E+000	0.0000000E+000	0.0000000E+000	74.0303	0.0000000E+000	0.0000000E+000	0.0000000E+000	-74.0303	0.0000000E+000	0.0000000E+000	0.0000000E+000	-15.9697	0.0000000E+000	0.0000000E+000	0.0000000E+000	15.9697	3.49439	74.0303	0.000000000000000E+000	-3.14649e-06	4.17676e-10	-3.1469e-06	3.97151	5.01153e+06	665.249	5.01219e+06
0.0019912	40.5564	11.7898	42.2353	-16.2091	20328.8	3.97098	-0.00079237	6.77956e+06	528274	1	11	0.00508904	0.000120493	0	-0.0157721	-0.000527123	3.73023e-07	90.7041	0.00309581	-3.8043e-05	-0.00309558	-16.2051	42.2344	40.5564	11.7867	0.0227357	0.00660926	0.0236769	16.2091	5.28274e+08	1.81725e+09	1.89247e+09	-73.7909	0.0000000E+000	0.0000000E+000	0.0000000E+000	73.7909	0.0000000E+000	0.0000000E+000	0.0000000E+000	-73.7909	0.0000000E+000	0.0000000E+000	0.0000000E+000	-16.2091	0.0000000E+000	0.0000000E+000	0.0000000E+000	16.2091	3.43997	73.7909	0.000000000000000E+000	-3.14649e-06	4.17676e-10	-3.1469e-06	3.97151	5.01153e+06	665.249	5.01219e+06
0.00129428	42.1221	12.7458	44.0083	-16.8354	20328.8	3.97098	-0.00079237	9.64774e+06	809265	1	11	0.00508968	0.000115653	0	-0.0157721	-0.000527123	1.02821e-06	33.2116	0.00889048	0.00743825	-0.0048696	-16.8265	44.014	42.1296	12.7409	0.0217491	0.00658109	0.022723	16.8354	8.09265e+08	2.67445e+09	2.7942e+09	-73.1646	0.0000000E+000	0.0000000E+000	0.0000000E+000	73.1646	0.0000000E+000	0.0000000E+000	0.0000000E+000	-73.1646	0.0000000E+000	0.0000000E+000	0.0000000E+000	-16.8354	0.0000000E+000	0.0000000E+000	0.0000000E+000	16.8354	3.30479	73.1646	0.000000000000000E+000	-3.14649e-06	4.17676e-10	-3.1469e-06	3.97151	5.01153e+06	665.249	5.01219e+06
0.000796479	45.4698	14.2844	47.6608	-17.4402	20328.8	3.97098	-0.00079237	1.39889e+07	1.25657e+06	1	11	0.00508979	0.000106792	0	-0.0157721	-0.000527123	1.8134e-06	-86.2233	0.0169806	0.0011185	0.0169437	-17.4592	47.6669	45.4709	14.3014	0.0200171	0.00628841	0.0209816	17.4402	1.25657e+09	3.99988e+09	4.19261e+09	-72.5598	0.0000000E+000	0.0000000E+000	0.0000000E+000	72.5598	0.0000000E+000	0.0000000E+000	0.0000000E+000	-72.5598	0.0000000E+000	0.0000000E+000	0.0000000E+000	-17.4402	0.0000000E+000	0.0000000E+000	0.0000000E+000	17.4402	3.18317	72.5598	0.000000000000000E+000	-3.14649e-06	4.17676e-10	-3.1469e-06	3.97151	5.01153e+06	665.249	5.01219e+06
0.000497799	46.4953	17.0582	49.5257	-20.1471	20328.8	3.97098	-0.00079237	1.87427e+07	2.2235e+06	1	11	0.00509214	0.000102818	0	-0.0157721	-0.000527123	1.76781e-06	1.75867	0.0171936	0.0171855	-0.000527665	-20.1396	49.5417	46.5125	17.0577	0.018956	0.00695459	0.0201915	20.1471	2.2235e+09	6.06057e+09	6.45558e+09	-69.8529	0.0000000E+000	0.0000000E+000	0.0000000E+000	69.8529	0.0000000E+000	0.0000000E+000	0.0000000E+000	-69.8529	0.0000000E+000	0.0000000E+000	0.0000000E+000	-20.1471	0.0000000E+000	0.0000000E+000	0.0000000E+000	20.1471	2.72569	69.8529	0.000000000000000E+000	-3.14649e-06	4.17676e-10	-3.1469e-06	3.97151	5.01153e+06	665.249	5.01219e+06
0.000298679	46.9082	26.9858	54.1166	-29.9113	20328.8	3.97098	-0.00079237	1.9746e+07	4.91007e+06	1	11	0.0050911	9.40764e-05	0	-0.0157721	-0.000527123	3.21232e-06	-36.7068	0.0341459	0.0273749	0.0204097	-29.9156	54.1506	46.9356	27.0062	0.0160172	0.00921453	0.0184786	29.9113	4.91007e+09	8.53497e+09	9.84654e+09	-60.0887	0.0000000E+000	0.0000000E+000	0.0000000E+000	60.0887	0.0000000E+000	0.0000000E+000	0.0000000E+000	-60.0887	0.0000000E+000	0.0000000E+000	0.0000000E+000	-29.9113	0.0000000E+000	0.0000000E+000	0.0000000E+000	29.9113	1.73826	60.0887	0.000000000000000E+000	-3.14649e-06	4.17676e-10	-3.1469e-06	3.97151	5.01153e+06	665.249	5.01219e+06
9.95598e-05	55.5176	78.5613	96.1981	-54.752	20328.8	3.97098	-0.00079237	2.03483e+07	1.3571e+07	1	11	0.00508997	5.29113e-05	0	-0.0157721	-0.000527123	5.81976e-06	50.2642	0.109991	0.0703115	-0.084583	-54.6887	96.1697	55.5879	78.4767	0.00599926	0.00848937	0.0103952	54.752	1.3571e+10	9.59033e+09	1.66176e+10	-35.248	0.0000000E+000	0.0000000E+000	0.0000000E+000	35.248	0.0000000E+000	0.0000000E+000	0.0000000E+000	-35.248	0.0000000E+000	0.0000000E+000	0.0000000E+000	-54.752	0.0000000E+000	0.0000000E+000	0.0000000E+000	54.752	0.706679	35.248	0.000000000000000E+000	-3.14649e-06	4.17676e-10	-3.1469e-06	3.97151	5.01153e+06	665.249	5.01219e+06