File: txt/19081_R307_UC93_28_SOC50_C05.mpt
EC-Lab ASCII FILE
Nb header lines : 65

Potentio Electrochemical Impedance Spectroscopy

Run on channel : 5 (SN 65912)
Grouped channel(s) : 1, 2, 3, 4, 5
User :
CE vs. WE compliance from -10 V to 10 V
Electrode connection : standard
Potential control : Ewe
Ewe ctrl range : min = -10.00 V, max = 10.00 V
Safety Limits :
	Do not start on E overload
Acquisition started on : 11/10/2025 15:44:01.793
Loaded Setting File :  C:\Users\Celltest\OneDrive - store-dot.com\Documents\EC-Lab\Data\@Biologic Test Protocols\cathode half cell EIS SOC50.mps
Saved on :
	File : 19077_R307_UC93_28_SOC50_C05.mpr
	Directory : C:\Users\Celltest\OneDrive - store-dot.com\Documents\EC-Lab\Data\Anna\
	Host : 169.254.61.224
Device : VMP-3e (SN .003165)
Address : USB
EC-LAB for windows v11.62 (software)
Internet server v27.00 (firmware)
Command interpretor v12.03 (firmware)
Electrode material :
Initial state :
Electrolyte :
Comments :
Electrode surface area : 0.001 cm²
Characteristic mass : 0.001 g
Equivalent Weight : 0.000 g/eq.
Density : 0.000 g/cm3
Volume (V) : 0.001 cm³
Record Ece
Cycle Definition : Charge/Discharge alternance
Mode                Multi sine
E (V)               0.0000
vs.                 Eoc
tE (h:m:s)          0:00:0.0000
record              0
dI                  0.000
unit dI             mA
dt (s)              0.000
fi                  1.000
unit fi             MHz
ff                  0.100
unit ff             mHz
Nd                  10
Points              per decade
spacing             Logarithmic
Va (mV)             5.0
pw                  0.10
Na                  2
corr                0
E range min (V)     -10.000
E range max (V)     10.000
I Range             Auto
Bandwidth           5
nc cycles           0
goto Ns'            0
nr cycles           0
inc. cycle          0

freq/Hz	Re(Z)/Ohm	-Im(Z)/Ohm	|Z|/Ohm	Phase(Z)/deg	time/s	<Ewe>/V	<I>/mA	Cs/µF	Cp/µF	cycle number	I Range	|Ewe|/V	|I|/A	Ns	(Q-Qo)/mA.h	<Ece>/V	|Ece|/V	Phase(Zce)/deg	|Zce|/Ohm	Re(Zce)/Ohm	-Im(Zce)/Ohm	Phase(Zwe-ce)/deg	|Zwe-ce|/Ohm	Re(Zwe-ce)/Ohm	-Im(Zwe-ce)/Ohm	Re(Y)/Ohm-1	Im(Y)/Ohm-1	|Y|/Ohm-1	Phase(Y)/deg	Re(C)/nF	Im(C)/nF	|C|/nF	Phase(C)/deg	Re(M)	Im(M)	|M|	Phase(M)/deg	Re(Permittivity)	Im(Permittivity)	|Permittivity|	Phase(Permittivity)/deg	Re(Resistivity)/Ohm.cm	Im(Resistivity)/Ohm.cm	|Resistivity|/Ohm.cm	Phase(Resistivity)/deg	Re(Conductivity)/mS/cm	Im(Conductivity)/mS/cm	|Conductivity|/mS/cm	Phase(Conductivity)/deg	Tan(Delta)	Loss Angle(Delta)/deg	dq/mA.h	Pwe/W	Pce/W	Pwe-ce/W	<Ewe-Ece>/V	Rwe/Ohm	Rce/Ohm	Rwe-ce/Ohm		Ewe-Ece/V
1.00002e+06	0.962322	-0.426112	1.05244	23.8835	2.69355	3.97052	0.0380375	-0.373498	-0.0612264	1	9	0.000230351	0.000218872	0	5.02839e-06	-0.000211513	0.000194818	6.00534	0.890097	0.885212	-0.0931229	15.6976	1.91911	1.84753	-0.519235	0.868808	-0.384704	0.95017	-23.8835	-61.2264	138.272	151.222	-113.884	0.0000000E+000	0.0000000E+000	0.0000000E+000	113.884	0.0000000E+000	0.0000000E+000	0.0000000E+000	-113.884	0.0000000E+000	0.0000000E+000	0.0000000E+000	23.8835	0.0000000E+000	0.0000000E+000	0.0000000E+000	-23.8835	2.25838	66.1165	5.02839e-06	0.000151029	-8.04542e-09	0.000151037	3.97074	104385	5.56064	104390
630957	1.01514	-0.126881	1.02304	7.12439	3.46155	3.96936	-0.0106349	-1.98804	-0.0305798	1	9	0.000347782	0.000339951	0	3.06083e-06	-9.69656e-05	0.0001031	-106.195	0.30328	-0.084585	0.291246	-10.0169	0.944956	0.930552	0.164365	0.969936	-0.121231	0.977483	-7.12439	-30.5798	244.66	246.564	-97.1244	0.0000000E+000	0.0000000E+000	0.0000000E+000	97.1244	0.0000000E+000	0.0000000E+000	0.0000000E+000	-97.1244	0.0000000E+000	0.0000000E+000	0.0000000E+000	7.12439	0.0000000E+000	0.0000000E+000	0.0000000E+000	-7.12439	8.00071	82.8756	-1.83555e-06	-4.22139e-05	1.03122e-09	-4.2215e-05	3.96946	373238	9.11764	373247
398103	1.34817	0.102444	1.35206	-4.34541	4.22754	3.96914	-0.0270949	3.90245	0.0224037	1	9	0.00130192	0.000962917	0	-1.26166e-06	0.000113038	4.61562e-05	161.021	0.0479337	-0.045328	-0.015589	-3.81402	1.30574	1.30284	0.0868552	0.737486	0.0560397	0.739613	4.34541	22.4037	294.834	295.684	-85.6546	0.0000000E+000	0.0000000E+000	0.0000000E+000	85.6546	0.0000000E+000	0.0000000E+000	0.0000000E+000	-85.6546	0.0000000E+000	0.0000000E+000	0.0000000E+000	-4.34541	0.0000000E+000	0.0000000E+000	0.0000000E+000	4.34541	13.1601	85.6546	-1.41224e-06	-0.000107543	-3.06275e-09	-0.00010754	3.96902	146490	4.17192	146486
251206	1.45988	0.391516	1.51146	-15.0126	4.99455	3.96891	-0.0351759	1.61823	0.108579	1	9	0.00395304	0.00261537	0	-7.3089e-06	3.66729e-05	4.91838e-05	92.702	0.0188056	-0.000886531	-0.0187847	-14.331	1.50585	1.45899	0.372732	0.639029	0.171378	0.66161	15.0126	108.579	404.865	419.172	-74.9874	0.0000000E+000	0.0000000E+000	0.0000000E+000	74.9874	0.0000000E+000	0.0000000E+000	0.0000000E+000	-74.9874	0.0000000E+000	0.0000000E+000	0.0000000E+000	-15.0126	0.0000000E+000	0.0000000E+000	0.0000000E+000	15.0126	3.72877	74.9874	-5.81875e-06	-0.00013961	-1.29e-09	-0.000139609	3.96887	112830	1.04256	112829
158486	1.61366	0.592552	1.71902	-20.1637	5.76053	3.96869	-0.0316754	1.69474	0.20137	1	9	0.00538126	0.00313042	0	-4.06742e-06	-0.000364243	4.65064e-05	80.7133	0.0148562	0.00239743	-0.0146615	-19.6766	1.71628	1.61606	0.57789	0.546074	0.200523	0.581727	20.1637	201.37	548.378	584.182	-69.8363	0.0000000E+000	0.0000000E+000	0.0000000E+000	69.8363	0.0000000E+000	0.0000000E+000	0.0000000E+000	-69.8363	0.0000000E+000	0.0000000E+000	0.0000000E+000	-20.1637	0.0000000E+000	0.0000000E+000	0.0000000E+000	20.1637	2.72324	69.8363	6.30571e-07	-0.00012571	1.15375e-08	-0.000125721	3.96906	125293	11.4992	125304
100004	1.815	0.774595	1.97338	-23.1115	6.52656	3.96864	-0.0342821	2.05461	0.316561	1	9	0.00542153	0.00274733	0	-2.1829e-05	-0.000402425	3.9019e-05	76.5683	0.0142025	0.00329905	-0.013814	-22.7045	1.97104	1.8183	0.760781	0.466075	0.198909	0.506745	23.1115	316.561	741.754	806.48	-66.8885	0.0000000E+000	0.0000000E+000	0.0000000E+000	66.8885	0.0000000E+000	0.0000000E+000	0.0000000E+000	-66.8885	0.0000000E+000	0.0000000E+000	0.0000000E+000	-23.1115	0.0000000E+000	0.0000000E+000	0.0000000E+000	23.1115	2.34316	66.8885	-7.29615e-06	-0.000136054	1.3796e-08	-0.000136067	3.96905	115764	11.7386	115776
63093.8	2.05656	0.965852	2.27207	-25.1568	7.29455	3.96863	-0.0295527	2.6117	0.471954	1	9	0.00533708	0.002349	0	-2.42137e-05	0.000113038	2.67833e-05	56.1491	0.011402	0.00635132	-0.00946928	-24.8728	2.27382	2.06291	0.956383	0.39838	0.187097	0.440127	25.1568	471.954	1004.92	1110.23	-64.8432	0.0000000E+000	0.0000000E+000	0.0000000E+000	64.8432	0.0000000E+000	0.0000000E+000	0.0000000E+000	-64.8432	0.0000000E+000	0.0000000E+000	0.0000000E+000	-25.1568	0.0000000E+000	0.0000000E+000	0.0000000E+000	25.1568	2.12927	64.8432	3.63504e-06	-0.000117284	-3.34057e-09	-0.00011728	3.96851	134290	3.82496	134286
39814.1	2.34994	1.18154	2.63026	-26.693	8.06251	3.96862	-0.0330905	3.38326	0.682707	1	9	0.00523237	0.0019893	0	-2.72802e-05	-2.06007e-05	1.5787e-05	20.96	0.00793598	0.00741086	-0.00283882	-26.5655	2.63561	2.35735	1.1787	0.339672	0.170785	0.38019	26.693	682.707	1357.82	1519.79	-63.307	0.0000000E+000	0.0000000E+000	0.0000000E+000	63.307	0.0000000E+000	0.0000000E+000	0.0000000E+000	-63.307	0.0000000E+000	0.0000000E+000	0.0000000E+000	-26.693	0.0000000E+000	0.0000000E+000	0.0000000E+000	26.693	1.98888	63.307	-1.43426e-06	-0.000131324	6.81688e-10	-0.000131324	3.96864	119932	0.622557	119933
25116.9	2.72198	1.38412	3.05368	-26.9533	8.83054	3.96861	-0.021211	4.57803	0.94055	1	9	0.00521531	0.00170788	0	-3.30393e-05	-9.69656e-05	2.37599e-05	68.6964	0.0139119	0.00505433	-0.0129613	-26.6934	3.05234	2.72703	1.37116	0.291902	0.148432	0.327474	26.9533	940.55	1849.66	2075.06	-63.0467	0.0000000E+000	0.0000000E+000	0.0000000E+000	63.0467	0.0000000E+000	0.0000000E+000	0.0000000E+000	-63.0467	0.0000000E+000	0.0000000E+000	0.0000000E+000	-26.9533	0.0000000E+000	0.0000000E+000	0.0000000E+000	26.9533	1.96657	63.0467	-6.04261e-06	-8.41783e-05	2.05674e-09	-8.41803e-05	3.96871	187102	4.57148	187106
15847.7	3.12361	1.63777	3.52693	-27.6689	9.59653	3.96861	-0.0218068	6.13198	1.32225	1	9	0.00501917	0.0014231	0	-3.95393e-05	0.000170311	4.31682e-06	11.0269	0.00303339	0.00297739	-0.000580199	-27.6381	3.5293	3.12659	1.63719	0.251109	0.131662	0.283532	27.6689	1322.25	2521.84	2847.46	-62.3311	0.0000000E+000	0.0000000E+000	0.0000000E+000	62.3311	0.0000000E+000	0.0000000E+000	0.0000000E+000	-62.3311	0.0000000E+000	0.0000000E+000	0.0000000E+000	-27.6689	0.0000000E+000	0.0000000E+000	0.0000000E+000	27.6689	1.90723	62.3311	-3.07694e-06	-8.65428e-05	-3.71395e-09	-8.65391e-05	3.96844	181989	7.81	181982
10002.2	3.57621	1.92758	4.06262	-28.3246	10.1166	3.96862	-0.0252329	8.2549	1.85833	1	9	0.00525341	0.00129311	0	-4.56833e-05	0.000246676	1.06424e-05	-7.80177	0.00823011	0.00815393	0.00111721	-28.284	4.07033	3.58437	1.92869	0.216676	0.116788	0.246147	28.3246	1858.33	3447.75	3916.68	-61.6754	0.0000000E+000	0.0000000E+000	0.0000000E+000	61.6754	0.0000000E+000	0.0000000E+000	0.0000000E+000	-61.6754	0.0000000E+000	0.0000000E+000	0.0000000E+000	-28.3246	0.0000000E+000	0.0000000E+000	0.0000000E+000	28.3246	1.85529	61.6754	-3.10614e-06	-0.00010014	-6.22436e-09	-0.000100134	3.96838	157280	9.77598	157270
6309.38	4.09368	2.25074	4.67162	-28.8023	10.7905	3.96863	-0.029808	11.2075	2.60149	1	10	0.00523366	0.00112031	0	-4.8902e-05	0.000113038	4.19964e-06	-82.9153	0.00374865	0.000462346	0.00372003	-28.8396	4.67382	4.09414	2.25446	0.187577	0.103131	0.214058	28.8023	2601.49	4731.64	5399.65	-61.1977	0.0000000E+000	0.0000000E+000	0.0000000E+000	61.1977	0.0000000E+000	0.0000000E+000	0.0000000E+000	-61.1977	0.0000000E+000	0.0000000E+000	0.0000000E+000	-28.8023	0.0000000E+000	0.0000000E+000	0.0000000E+000	28.8023	1.81882	61.1977	-1.20693e-06	-0.000118297	-3.36943e-09	-0.000118294	3.96851	133139	3.79219	133136
3983.6	4.70472	2.67144	5.41026	-29.5889	11.3531	3.96858	-0.0332857	14.9554	3.64631	1	10	0.00517347	0.000956232	0	-5.34314e-05	-1.50951e-06	5.65162e-06	52.9812	0.0059103	0.00355846	-0.00471901	-29.5268	5.41103	4.70827	2.66672	0.16073	0.091266	0.184834	29.5889	3646.31	6421.56	7384.58	-60.4111	0.0000000E+000	0.0000000E+000	0.0000000E+000	60.4111	0.0000000E+000	0.0000000E+000	0.0000000E+000	-60.4111	0.0000000E+000	0.0000000E+000	0.0000000E+000	-29.5889	0.0000000E+000	0.0000000E+000	0.0000000E+000	29.5889	1.76111	60.4111	-1.81564e-06	-0.000132097	5.02452e-11	-0.000132097	3.96859	119228	0.0453502	119228
2510.8	5.4655	3.20679	6.33681	-30.4016	12.1778	3.96856	-0.0216165	19.7668	5.06217	1	10	0.00502535	0.000793041	0	-5.94516e-05	3.66729e-05	8.45019e-06	59.6453	0.0106554	0.00538474	-0.00919471	-30.3053	6.33681	5.47088	3.1976	0.136109	0.07986	0.157808	30.4016	5062.17	8627.71	10003.1	-59.5984	0.0000000E+000	0.0000000E+000	0.0000000E+000	59.5984	0.0000000E+000	0.0000000E+000	0.0000000E+000	-59.5984	0.0000000E+000	0.0000000E+000	0.0000000E+000	-30.4016	0.0000000E+000	0.0000000E+000	0.0000000E+000	30.4016	1.70435	59.5984	-2.98593e-06	-8.57866e-05	-7.92742e-10	-8.57858e-05	3.96852	183589	1.69652	183587
1585.51	6.3998	3.84772	7.46742	-31.0154	13.0798	3.96857	-0.0202612	26.0884	6.92651	1	10	0.00490601	0.000656989	0	-6.4415e-05	0.000170311	4.08784e-06	-141.613	0.00622208	-0.00487711	0.00386368	-31.0601	7.46523	6.39492	3.85159	0.114769	0.0690021	0.133915	31.0154	6926.51	11520.6	13442.5	-58.9846	0.0000000E+000	0.0000000E+000	0.0000000E+000	58.9846	0.0000000E+000	0.0000000E+000	0.0000000E+000	-58.9846	0.0000000E+000	0.0000000E+000	0.0000000E+000	-31.0154	0.0000000E+000	0.0000000E+000	0.0000000E+000	31.0154	1.66327	58.9846	-2.14313e-06	-8.04081e-05	-3.45072e-09	-8.04046e-05	3.9684	195870	8.40578	195862
1000.32	7.61353	4.54983	8.86943	-30.8625	13.9818	3.96855	-0.0212777	34.9692	9.20206	1	10	0.00483847	0.000545522	0	-6.93476e-05	-9.69656e-05	7.85598e-06	52.4759	0.0144008	0.00877148	-0.0114213	-30.7701	8.87111	7.6223	4.53841	0.096782	0.0578368	0.112747	30.8625	9202.06	15398.4	17938.5	-59.1375	0.0000000E+000	0.0000000E+000	0.0000000E+000	59.1375	0.0000000E+000	0.0000000E+000	0.0000000E+000	-59.1375	0.0000000E+000	0.0000000E+000	0.0000000E+000	-30.8625	0.0000000E+000	0.0000000E+000	0.0000000E+000	30.8625	1.67336	59.1375	-2.88124e-06	-8.44417e-05	2.06321e-09	-8.44438e-05	3.96865	186512	4.55714	186517
631.01	9.15954	5.29739	10.5811	-30.0428	14.8836	3.96856	-0.0220745	47.6126	11.934	1	10	0.00480089	0.000453723	0	-7.49159e-05	0.000227585	5.65118e-06	127.854	0.0124551	-0.0076431	-0.0098343	-30.0174	10.5696	9.1519	5.28756	0.0818112	0.0473152	0.0945082	30.0428	11934	20634.6	23837.1	-59.9572	0.0000000E+000	0.0000000E+000	0.0000000E+000	59.9572	0.0000000E+000	0.0000000E+000	0.0000000E+000	-59.9572	0.0000000E+000	0.0000000E+000	0.0000000E+000	-30.0428	0.0000000E+000	0.0000000E+000	0.0000000E+000	30.0428	1.72907	59.9572	-2.54498e-06	-8.76041e-05	-5.02383e-09	-8.7599e-05	3.96833	179780	10.3099	179770
398.089	11.083	5.86263	12.5381	-27.8777	15.7848	3.96856	-0.0214155	68.1942	14.9098	1	10	0.00477877	0.000381141	0	-8.00492e-05	-1.50951e-06	1.32503e-05	4.80139	0.0347649	0.0346429	-0.00290989	-27.7921	12.5673	11.1176	5.85972	0.0705011	0.0372933	0.0797571	27.8777	14909.8	28186.1	31886.7	-62.1223	0.0000000E+000	0.0000000E+000	0.0000000E+000	62.1223	0.0000000E+000	0.0000000E+000	0.0000000E+000	-62.1223	0.0000000E+000	0.0000000E+000	0.0000000E+000	-27.8777	0.0000000E+000	0.0000000E+000	0.0000000E+000	27.8777	1.89045	62.1223	-2.51777e-06	-8.49888e-05	3.23269e-11	-8.49888e-05	3.96857	185313	0.0704869	185313
251.044	13.3101	6.12168	14.6504	-24.699	16.6831	3.96855	-0.0237166	103.562	18.0818	1	10	0.00477065	0.000325633	0	-8.60233e-05	0.00015122	6.10182e-06	84.4528	0.0187384	0.00181135	-0.0186506	-24.6297	14.6443	13.3119	6.10303	0.0620131	0.0285215	0.0682576	24.699	18081.8	39314.5	43273.3	-65.301	0.0000000E+000	0.0000000E+000	0.0000000E+000	65.301	0.0000000E+000	0.0000000E+000	0.0000000E+000	-65.301	0.0000000E+000	0.0000000E+000	0.0000000E+000	-24.699	0.0000000E+000	0.0000000E+000	0.0000000E+000	24.699	2.17426	65.301	-2.99366e-06	-9.41204e-05	-3.58642e-09	-9.41168e-05	3.9684	167333	6.37615	167326
158.428	15.5505	5.83589	16.6095	-20.5705	17.5879	3.96856	-0.0209426	172.139	21.2511	1	10	0.00476054	0.000286616	0	-9.19259e-05	7.48553e-05	3.67485e-06	16.7749	0.0128215	0.0122759	-0.00370046	-20.5436	16.6197	15.5627	5.83219	0.0563679	0.0211541	0.0602066	20.5705	21251.2	56626.4	60482.7	-69.4295	0.0000000E+000	0.0000000E+000	0.0000000E+000	69.4295	0.0000000E+000	0.0000000E+000	0.0000000E+000	-69.4295	0.0000000E+000	0.0000000E+000	0.0000000E+000	-20.5705	0.0000000E+000	0.0000000E+000	0.0000000E+000	20.5705	2.66463	69.4295	-2.76849e-06	-8.31121e-05	-1.56767e-09	-8.31105e-05	3.96849	189497	3.57431	189493
100.032	17.5485	5.02192	18.2529	-15.9697	18.4878	3.96856	-0.021732	316.819	23.982	1	10	0.00476017	0.000260789	0	-9.70696e-05	5.57641e-05	1.04445e-05	21.8542	0.0400495	0.0371713	-0.0149083	-15.8928	18.2846	17.5857	5.00701	0.0526714	0.0150732	0.0547857	15.9697	23982	83802.3	87166.3	-74.0303	0.0000000E+000	0.0000000E+000	0.0000000E+000	74.0303	0.0000000E+000	0.0000000E+000	0.0000000E+000	-74.0303	0.0000000E+000	0.0000000E+000	0.0000000E+000	-15.9697	0.0000000E+000	0.0000000E+000	0.0000000E+000	15.9697	3.49438	74.0303	-2.65719e-06	-8.62446e-05	-1.21186e-09	-8.62434e-05	3.9685	182614	2.56599	182611
63.0823	18.9667	4.08648	19.4019	-12.1588	19.405	3.96857	-0.0186155	617.395	27.3888	1	10	0.00475729	0.000245197	0	-0.000102056	-2.06007e-05	8.20261e-06	-4.10293	0.0334531	0.0333674	0.00239352	-12.145	19.4351	19.0001	4.08887	0.0503851	0.0108557	0.0515413	12.1588	27388.8	127120	130037	-77.8412	0.0000000E+000	0.0000000E+000	0.0000000E+000	77.8412	0.0000000E+000	0.0000000E+000	0.0000000E+000	-77.8412	0.0000000E+000	0.0000000E+000	0.0000000E+000	-12.1588	0.0000000E+000	0.0000000E+000	0.0000000E+000	12.1588	4.64133	77.8412	-2.14945e-06	-7.38769e-05	3.83493e-10	-7.38773e-05	3.96859	213187	1.10664	213188
39.8089	19.9719	3.07067	20.2065	-8.74077	20.5518	3.96861	-0.018041	1301.99	30.0669	1	11	0.00475459	0.0002353	0	-0.000107386	0.000113038	6.87459e-06	51.9616	0.0292163	0.0180028	-0.0230107	-8.66858	20.2209	19.9899	3.04766	0.0489142	0.00752055	0.0494889	8.74077	30066.9	195558	197855	-81.2592	0.0000000E+000	0.0000000E+000	0.0000000E+000	81.2592	0.0000000E+000	0.0000000E+000	0.0000000E+000	-81.2592	0.0000000E+000	0.0000000E+000	0.0000000E+000	-8.74077	0.0000000E+000	0.0000000E+000	0.0000000E+000	8.74077	6.50407	81.2592	-2.12155e-06	-7.15975e-05	-2.03931e-09	-7.15955e-05	3.96849	219977	6.26561	219971
25.1044	20.5653	2.30863	20.6944	-6.40515	21.431	3.96861	-0.01807	2746.09	34.1757	1	11	0.00475492	0.000229768	0	-0.000111486	0.000380315	6.90095e-06	-95.9003	0.0300344	-0.00308747	0.0298753	-6.4883	20.6947	20.5622	2.33851	0.0480205	0.00539073	0.0483222	6.40515	34175.7	304436	306349	-83.5948	0.0000000E+000	0.0000000E+000	0.0000000E+000	83.5948	0.0000000E+000	0.0000000E+000	0.0000000E+000	-83.5948	0.0000000E+000	0.0000000E+000	0.0000000E+000	-6.40515	0.0000000E+000	0.0000000E+000	0.0000000E+000	6.40515	8.90798	83.5948	-2.45463e-06	-7.17128e-05	-6.8723e-09	-7.17059e-05	3.96823	219624	21.0467	219603
15.8576	20.932	1.74296	21.0044	-4.75992	22.3091	3.96859	-0.0181944	5758.31	39.6506	1	11	0.00475091	0.000226186	0	-0.000114932	-0.000154239	9.56877e-06	11.5849	0.0423049	0.041443	-0.00849564	-4.72751	21.045	20.9734	1.73447	0.0474448	0.00395063	0.047609	4.75992	39650.6	476181	477829	-85.2401	0.0000000E+000	0.0000000E+000	0.0000000E+000	85.2401	0.0000000E+000	0.0000000E+000	0.0000000E+000	-85.2401	0.0000000E+000	0.0000000E+000	0.0000000E+000	-4.75992	0.0000000E+000	0.0000000E+000	0.0000000E+000	4.75992	12.0094	85.2401	-1.37528e-06	-7.22061e-05	2.80629e-09	-7.22089e-05	3.96875	218122	8.4773	218130
10.0032	21.2079	1.36424	21.2517	-3.6806	23.2898	3.9686	-0.018035	11662.4	48.06	1	11	0.00475347	0.000223674	0	-0.00012043	5.57641e-05	3.67865e-06	-34.1258	0.0164464	0.0136145	0.00922664	-3.70305	21.2659	21.2215	1.37347	0.0469579	0.00302067	0.047055	3.6806	48060.1	747120	748664	-86.3194	0.0000000E+000	0.0000000E+000	0.0000000E+000	86.3194	0.0000000E+000	0.0000000E+000	0.0000000E+000	-86.3194	0.0000000E+000	0.0000000E+000	0.0000000E+000	-3.6806	0.0000000E+000	0.0000000E+000	0.0000000E+000	3.6806	15.5456	86.3194	-4.04812e-06	-7.15738e-05	-1.00571e-09	-7.15728e-05	3.96854	220049	3.09199	220046
6.31058	21.4524	1.15228	21.4833	-3.07461	24.2123	3.96858	-0.0188121	21887.3	62.9664	1	11	0.00475658	0.000221408	0	-0.000124006	5.57641e-05	5.65762e-06	45.9524	0.0255529	0.0177658	-0.0183665	-3.02319	21.5	21.4701	1.13392	0.0464808	0.00249665	0.0465478	3.07461	62966.4	1.17226e+06	1.17395e+06	-86.9254	0.0000000E+000	0.0000000E+000	0.0000000E+000	86.9254	0.0000000E+000	0.0000000E+000	0.0000000E+000	-86.9254	0.0000000E+000	0.0000000E+000	0.0000000E+000	-3.07461	0.0000000E+000	0.0000000E+000	0.0000000E+000	3.07461	18.6173	86.9254	-3.17381e-06	-7.46572e-05	-1.04904e-09	-7.46562e-05	3.96853	210960	2.96428	210957
3.97785	21.6412	1.03794	21.6661	-2.74587	25.2194	3.96861	-0.016416	38547.8	88.4673	1	11	0.00475589	0.000219508	0	-0.000127947	0.000208494	5.61546e-06	-63.1788	0.025582	0.0115428	0.0228298	-2.80468	21.6787	21.6528	1.06077	0.0461021	0.00221111	0.0461551	2.74587	88467.3	1.84456e+06	1.84668e+06	-87.2541	0.0000000E+000	0.0000000E+000	0.0000000E+000	87.2541	0.0000000E+000	0.0000000E+000	0.0000000E+000	-87.2541	0.0000000E+000	0.0000000E+000	0.0000000E+000	-2.74587	0.0000000E+000	0.0000000E+000	0.0000000E+000	2.74587	20.8502	87.2541	-3.7099e-07	-6.51487e-05	-3.42263e-09	-6.51453e-05	3.9684	241753	12.7007	241740
2.51367	21.846	1.05348	21.8714	-2.76085	26.7789	3.96862	-0.0154561	60101.2	139.44	1	11	0.004757	0.000217499	0	-0.000133719	1.75817e-05	4.30276e-06	-113.521	0.0197829	-0.00789503	0.0181393	-2.80932	21.8644	21.8381	1.07162	0.0456688	0.00220229	0.0457219	2.76085	139440	2.89155e+06	2.89491e+06	-87.2392	0.0000000E+000	0.0000000E+000	0.0000000E+000	87.2392	0.0000000E+000	0.0000000E+000	0.0000000E+000	-87.2392	0.0000000E+000	0.0000000E+000	0.0000000E+000	-2.76085	0.0000000E+000	0.0000000E+000	0.0000000E+000	2.76085	20.7369	87.2392	-4.88875e-06	-6.13393e-05	-2.71744e-10	-6.13391e-05	3.9686	256768	1.13753	256766
1.58469	22.0687	1.07536	22.0949	-2.7897	29.2144	3.96861	-0.0153338	93394.6	221.232	1	11	0.00475153	0.000215051	0	-0.000151326	-7.78744e-05	4.56295e-06	-87.7632	0.021218	0.000828123	0.0212018	-2.84451	22.0968	22.0695	1.09657	0.0452057	0.00220278	0.0452593	2.7897	221232	4.54015e+06	4.54554e+06	-87.2103	0.0000000E+000	0.0000000E+000	0.0000000E+000	87.2103	0.0000000E+000	0.0000000E+000	0.0000000E+000	-87.2103	0.0000000E+000	0.0000000E+000	0.0000000E+000	-2.7897	0.0000000E+000	0.0000000E+000	0.0000000E+000	2.7897	20.5221	87.2103	-8.94265e-06	-6.0854e-05	1.19411e-09	-6.08552e-05	3.96869	258814	5.0786	258819
1.00469	22.4513	1.17169	22.4818	-2.98744	240.032	3.96857	-0.0139205	135199	367.227	1	11	0.00507472	0.000225725	0	-0.00187645	-1.50951e-06	5.78284e-07	2.65887	0.0025619	0.00255914	-0.000118845	-2.9868	22.4844	22.4538	1.17157	0.0444199	0.00231818	0.0444803	2.98744	367227	7.03662e+06	7.04619e+06	-87.0126	0.0000000E+000	0.0000000E+000	0.0000000E+000	87.0126	0.0000000E+000	0.0000000E+000	0.0000000E+000	-87.0126	0.0000000E+000	0.0000000E+000	0.0000000E+000	-2.98744	0.0000000E+000	0.0000000E+000	0.0000000E+000	2.98744	19.1615	87.0126	-0.00171887	-5.52444e-05	2.10131e-11	-5.52444e-05	3.96857	285089	0.108438	285089
0.632957	22.7622	1.31973	22.8004	-3.31824	240.032	3.96857	-0.0139205	190529	638.33	1	11	0.00508844	0.000223173	0	-0.00187645	-1.50951e-06	5.9673e-07	-7.50754	0.00267384	0.00265092	0.000349356	-3.31873	22.8031	22.7648	1.32008	0.0437853	0.00253863	0.0438589	3.31824	638330	1.10097e+07	1.10282e+07	-86.6818	0.0000000E+000	0.0000000E+000	0.0000000E+000	86.6818	0.0000000E+000	0.0000000E+000	0.0000000E+000	-86.6818	0.0000000E+000	0.0000000E+000	0.0000000E+000	-3.31824	0.0000000E+000	0.0000000E+000	0.0000000E+000	3.31824	17.2476	86.6818	0.000000000000000E+000	-5.52444e-05	2.10131e-11	-5.52444e-05	3.96857	285089	0.108438	285089
0.401878	23.0167	1.5636	23.0698	-3.88632	240.033	3.96857	-0.0139205	253280	1163.5	1	11	0.00510191	0.000221151	0	-0.00187645	-1.50951e-06	5.41642e-07	-14.9521	0.00244919	0.00236626	0.000631921	-3.88749	23.0722	23.0191	1.56423	0.0432471	0.00293792	0.0433468	3.88632	1.1635e+06	1.71271e+07	1.71666e+07	-86.1137	0.0000000E+000	0.0000000E+000	0.0000000E+000	86.1137	0.0000000E+000	0.0000000E+000	0.0000000E+000	-86.1137	0.0000000E+000	0.0000000E+000	0.0000000E+000	-3.88632	0.0000000E+000	0.0000000E+000	0.0000000E+000	3.88632	14.7203	86.1137	0.000000000000000E+000	-5.52444e-05	2.10131e-11	-5.52444e-05	3.96857	285089	0.108438	285089
0.251173	23.4939	1.88976	23.5698	-4.59874	240.033	3.96857	-0.0139205	335306	2155.46	1	11	0.00510574	0.000216622	0	-0.00187645	-1.50951e-06	3.72169e-07	17.4383	0.00171806	0.00163909	-0.000514864	-4.59717	23.5714	23.4956	1.88924	0.0422906	0.00340168	0.0424271	4.59874	2.15546e+06	2.67972e+07	2.68838e+07	-85.4013	0.0000000E+000	0.0000000E+000	0.0000000E+000	85.4013	0.0000000E+000	0.0000000E+000	0.0000000E+000	-85.4013	0.0000000E+000	0.0000000E+000	0.0000000E+000	-4.59874	0.0000000E+000	0.0000000E+000	0.0000000E+000	4.59874	12.4323	85.4013	0.000000000000000E+000	-5.52444e-05	2.10131e-11	-5.52444e-05	3.96857	285089	0.108438	285089
0.160751	23.8968	2.14694	23.9931	-5.13378	240.033	3.96857	-0.0139205	461155	3692.45	1	11	0.00509499	0.000212353	0	-0.00187645	-1.50951e-06	6.6076e-07	-21.2605	0.00311161	0.00289984	0.0011283	-5.13585	23.996	23.8997	2.14806	0.0415115	0.00372948	0.0416787	5.13378	3.69245e+06	4.10994e+07	4.12649e+07	-84.8662	0.0000000E+000	0.0000000E+000	0.0000000E+000	84.8662	0.0000000E+000	0.0000000E+000	0.0000000E+000	-84.8662	0.0000000E+000	0.0000000E+000	0.0000000E+000	-5.13378	0.0000000E+000	0.0000000E+000	0.0000000E+000	5.13378	11.1307	84.8662	0.000000000000000E+000	-5.52444e-05	2.10131e-11	-5.52444e-05	3.96857	285089	0.108438	285089
0.100469	24.3842	2.95401	24.5625	-6.9074	240.034	3.96857	-0.0139205	536259	7756.27	1	11	0.00509818	0.00020756	0	-0.00187645	-1.50951e-06	5.40367e-07	-10.7126	0.00260343	0.00255806	0.000483935	-6.9078	24.5651	24.3868	2.9545	0.040417	0.00489629	0.0407125	6.9074	7.75628e+06	6.40251e+07	6.44932e+07	-83.0926	0.0000000E+000	0.0000000E+000	0.0000000E+000	83.0926	0.0000000E+000	0.0000000E+000	0.0000000E+000	-83.0926	0.0000000E+000	0.0000000E+000	0.0000000E+000	-6.9074	0.0000000E+000	0.0000000E+000	0.0000000E+000	6.9074	8.25461	83.0926	0.000000000000000E+000	-5.52444e-05	2.10131e-11	-5.52444e-05	3.96857	285089	0.108438	285089
0.0602816	25.2353	3.59862	25.4906	-8.11581	240.034	3.96857	-0.0139205	733667	14622.1	1	11	0.00509373	0.000199828	0	-0.00187645	-1.50951e-06	5.81689e-07	-0.776113	0.00291095	0.00291068	3.94297e-05	-8.11497	25.4935	25.2382	3.59866	0.0388372	0.00553829	0.0392301	8.11581	1.46222e+07	1.02538e+08	1.03575e+08	-81.8842	0.0000000E+000	0.0000000E+000	0.0000000E+000	81.8842	0.0000000E+000	0.0000000E+000	0.0000000E+000	-81.8842	0.0000000E+000	0.0000000E+000	0.0000000E+000	-8.11581	0.0000000E+000	0.0000000E+000	0.0000000E+000	8.11581	7.01249	81.8842	0.000000000000000E+000	-5.52444e-05	2.10131e-11	-5.52444e-05	3.96857	285089	0.108438	285089
0.0401878	26.3832	4.27985	26.7281	-9.21417	240.035	3.96857	-0.0139205	925333	23725.6	1	11	0.00509387	0.000190581	0	-0.00187645	-1.50951e-06	7.53426e-07	-30.5421	0.00395331	0.00340482	0.00200896	-9.21725	26.7318	26.3866	4.28186	0.036931	0.00599089	0.0374138	9.21417	2.37256e+07	1.46257e+08	1.48169e+08	-80.7858	0.0000000E+000	0.0000000E+000	0.0000000E+000	80.7858	0.0000000E+000	0.0000000E+000	0.0000000E+000	-80.7858	0.0000000E+000	0.0000000E+000	0.0000000E+000	-9.21417	0.0000000E+000	0.0000000E+000	0.0000000E+000	9.21417	6.16453	80.7858	0.000000000000000E+000	-5.52444e-05	2.10131e-11	-5.52444e-05	3.96857	285089	0.108438	285089
0.0200939	28.5462	6.38201	29.2509	-12.6022	240.035	3.96857	-0.0139205	1.24108e+06	59079.2	1	11	0.00509377	0.00017414	0	-0.00187645	-1.50951e-06	9.0805e-07	-23.2402	0.00521447	0.00479136	0.00205757	-12.6041	29.2561	28.551	6.38407	0.0333633	0.00745895	0.0341869	12.6022	5.90792e+07	2.64256e+08	2.7078e+08	-77.3978	0.0000000E+000	0.0000000E+000	0.0000000E+000	77.3978	0.0000000E+000	0.0000000E+000	0.0000000E+000	-77.3978	0.0000000E+000	0.0000000E+000	0.0000000E+000	-12.6022	0.0000000E+000	0.0000000E+000	0.0000000E+000	12.6022	4.47292	77.3978	0.000000000000000E+000	-5.52444e-05	2.10131e-11	-5.52444e-05	3.96857	285089	0.108438	285089
0.00796479	34.0844	8.4794	35.1233	-13.9703	20328.9	3.96859	-0.000947586	2.35657e+06	137347	1	11	0.00508931	0.000144898	0	-0.0149257	3.66729e-05	3.53717e-07	-115.523	0.00244114	-0.00105182	0.00220292	-13.9742	35.1228	34.0834	8.48161	0.027629	0.00687344	0.0284711	13.9703	1.37347e+08	5.52091e+08	5.68919e+08	-76.0297	0.0000000E+000	0.0000000E+000	0.0000000E+000	76.0297	0.0000000E+000	0.0000000E+000	0.0000000E+000	-76.0297	0.0000000E+000	0.0000000E+000	0.0000000E+000	-13.9703	0.0000000E+000	0.0000000E+000	0.0000000E+000	13.9703	4.01967	76.0297	-0.0130493	-3.76058e-06	-3.47508e-11	-3.76054e-06	3.96855	4.1881e+06	38.7014	4.18806e+06
0.00497799	37.2954	9.38599	38.4583	-14.1261	20328.9	3.96859	-0.000947586	3.40632e+06	202892	1	11	0.00509696	0.000132532	0	-0.0149257	3.66729e-05	7.48253e-07	-118.982	0.00564583	-0.00273556	0.00493884	-14.1342	38.4569	37.2926	9.39093	0.0252159	0.00634599	0.0260022	14.1261	2.02892e+08	8.06196e+08	8.31334e+08	-75.8739	0.0000000E+000	0.0000000E+000	0.0000000E+000	75.8739	0.0000000E+000	0.0000000E+000	0.0000000E+000	-75.8739	0.0000000E+000	0.0000000E+000	0.0000000E+000	-14.1261	0.0000000E+000	0.0000000E+000	0.0000000E+000	14.1261	3.97352	75.8739	0.000000000000000E+000	-3.76058e-06	-3.47508e-11	-3.76054e-06	3.96855	4.1881e+06	38.7014	4.18806e+06
0.00318591	39.8009	11.3921	41.3992	-15.9726	20328.9	3.96859	-0.000947586	4.38513e+06	332053	1	11	0.00509888	0.000123164	0	-0.0149257	3.66729e-05	6.2327e-07	-164.688	0.0050605	-0.00488087	0.00133635	-15.9762	41.3948	39.796	11.3934	0.0232225	0.00664693	0.0241551	15.9726	3.32053e+08	1.1601e+09	1.20669e+09	-74.0274	0.0000000E+000	0.0000000E+000	0.0000000E+000	74.0274	0.0000000E+000	0.0000000E+000	0.0000000E+000	-74.0274	0.0000000E+000	0.0000000E+000	0.0000000E+000	-15.9726	0.0000000E+000	0.0000000E+000	0.0000000E+000	15.9726	3.49373	74.0274	0.000000000000000E+000	-3.76058e-06	-3.47508e-11	-3.76054e-06	3.96855	4.1881e+06	38.7014	4.18806e+06
0.0019912	42.7623	12.4047	44.5251	-16.1766	20328.9	3.96859	-0.000947586	6.44348e+06	500128	1	11	0.0050999	0.00011454	0	-0.0149257	3.66729e-05	1.74509e-07	-69.9873	0.00152357	0.000521408	0.00143157	-16.1782	44.526	42.7628	12.4061	0.02157	0.00625713	0.0224592	16.1766	5.00128e+08	1.72408e+09	1.79515e+09	-73.8234	0.0000000E+000	0.0000000E+000	0.0000000E+000	73.8234	0.0000000E+000	0.0000000E+000	0.0000000E+000	-73.8234	0.0000000E+000	0.0000000E+000	0.0000000E+000	-16.1766	0.0000000E+000	0.0000000E+000	0.0000000E+000	16.1766	3.44727	73.8234	0.000000000000000E+000	-3.76058e-06	-3.47508e-11	-3.76054e-06	3.96855	4.1881e+06	38.7014	4.18806e+06
0.00129428	44.4899	13.4024	46.4648	-16.7647	20328.9	3.96859	-0.000947586	9.17509e+06	763357	1	11	0.00510122	0.000109787	0	-0.0149257	3.66729e-05	1.63156e-07	-46.5822	0.00148612	0.00102143	0.00107946	-16.7656	46.4661	44.4909	13.4035	0.020607	0.00620776	0.0215217	16.7647	7.63357e+08	2.534e+09	2.64648e+09	-73.2353	0.0000000E+000	0.0000000E+000	0.0000000E+000	73.2353	0.0000000E+000	0.0000000E+000	0.0000000E+000	-73.2353	0.0000000E+000	0.0000000E+000	0.0000000E+000	-16.7647	0.0000000E+000	0.0000000E+000	0.0000000E+000	16.7647	3.31955	73.2353	0.000000000000000E+000	-3.76058e-06	-3.47508e-11	-3.76054e-06	3.96855	4.1881e+06	38.7014	4.18806e+06
0.000796479	48.0678	14.9221	50.3307	-17.2463	20328.9	3.96859	-0.000947586	1.33911e+07	1.17709e+06	1	11	0.00510059	0.000101342	0	-0.0149257	3.66729e-05	5.31826e-07	-115.734	0.00524786	-0.00227855	0.00472739	-17.2522	50.3299	48.0655	14.9268	0.0189753	0.00589065	0.0198686	17.2463	1.17709e+09	3.7917e+09	3.97021e+09	-72.7537	0.0000000E+000	0.0000000E+000	0.0000000E+000	72.7537	0.0000000E+000	0.0000000E+000	0.0000000E+000	-72.7537	0.0000000E+000	0.0000000E+000	0.0000000E+000	-17.2463	0.0000000E+000	0.0000000E+000	0.0000000E+000	17.2463	3.22126	72.7537	0.000000000000000E+000	-3.76058e-06	-3.47508e-11	-3.76054e-06	3.96855	4.1881e+06	38.7014	4.18806e+06
0.000497799	49.2812	18.0065	52.4678	-20.0714	20328.9	3.96859	-0.000947586	1.77557e+07	2.09126e+06	1	11	0.00510133	9.72278e-05	0	-0.0149257	3.66729e-05	6.54403e-07	23.3421	0.00673062	0.00617975	-0.00266681	-20.0663	52.4727	49.2874	18.0038	0.0179017	0.00654098	0.0190593	20.0714	2.09126e+09	5.7235e+09	6.09358e+09	-69.9286	0.0000000E+000	0.0000000E+000	0.0000000E+000	69.9286	0.0000000E+000	0.0000000E+000	0.0000000E+000	-69.9286	0.0000000E+000	0.0000000E+000	0.0000000E+000	-20.0714	0.0000000E+000	0.0000000E+000	0.0000000E+000	20.0714	2.73686	69.9286	0.000000000000000E+000	-3.76058e-06	-3.47508e-11	-3.76054e-06	3.96855	4.1881e+06	38.7014	4.18806e+06
0.000298679	49.8706	28.0599	57.2227	-29.3645	20328.9	3.96859	-0.000947586	1.89901e+07	4.5663e+06	1	11	0.0051045	8.92041e-05	0	-0.0149257	3.66729e-05	8.30586e-07	-58.6757	0.00931107	0.00484065	0.00795387	-29.3691	57.2308	49.8755	28.0679	0.0152303	0.00856939	0.0174756	29.3645	4.5663e+09	8.11564e+09	9.31207e+09	-60.6355	0.0000000E+000	0.0000000E+000	0.0000000E+000	60.6355	0.0000000E+000	0.0000000E+000	0.0000000E+000	-60.6355	0.0000000E+000	0.0000000E+000	0.0000000E+000	-29.3645	0.0000000E+000	0.0000000E+000	0.0000000E+000	29.3645	1.77729	60.6355	0.000000000000000E+000	-3.76058e-06	-3.47508e-11	-3.76054e-06	3.96855	4.1881e+06	38.7014	4.18806e+06
9.95598e-05	59.2658	80.5135	99.9743	-53.6433	20328.9	3.96859	-0.000947586	1.98549e+07	1.28774e+07	1	11	0.00509885	5.10016e-05	0	-0.0149257	3.66729e-05	1.50647e-06	-6.57459	0.0295376	0.0293434	0.00338196	-53.6309	99.9944	59.2952	80.5169	0.00592963	0.00805549	0.0100026	53.6433	1.28774e+10	9.47902e+09	1.599e+10	-36.3567	0.0000000E+000	0.0000000E+000	0.0000000E+000	36.3567	0.0000000E+000	0.0000000E+000	0.0000000E+000	-36.3567	0.0000000E+000	0.0000000E+000	0.0000000E+000	-53.6433	0.0000000E+000	0.0000000E+000	0.0000000E+000	53.6433	0.736097	36.3567	0.000000000000000E+000	-3.76058e-06	-3.47508e-11	-3.76054e-06	3.96855	4.1881e+06	38.7014	4.18806e+06