File: txt/19119_R311_UC96_SOC50_C01.mpt
EC-Lab ASCII FILE
Nb header lines : 66

Potentio Electrochemical Impedance Spectroscopy

Run on channel : 1 (SN 66354)
Grouped channel(s) : 1, 2, 3, 4
User :
CE vs. WE compliance from -10 V to 10 V
Electrode connection : standard
Potential control : Ewe
Ewe ctrl range : min = -10.00 V, max = 10.00 V
Safety Limits :
	Do not start on E overload
Acquisition started on : 11/11/2025 16:20:14.228
Technique started on : 11/11/2025 16:20:16.462
Loaded Setting File :  C:\Users\Celltest\OneDrive - store-dot.com\Documents\EC-Lab\Data\@Biologic Test Protocols\cathode half cell EIS SOC50.mps
Saved on :
	File : 19119_R311_UC96_SOC50_C01.mpr
	Directory : C:\Users\Celltest\OneDrive - store-dot.com\Documents\EC-Lab\Data\Gyutae\
	Host : 169.254.61.224
Device : VMP-3e (SN .003165)
Address : USB
EC-LAB for windows v11.62 (software)
Internet server v27.00 (firmware)
Command interpretor v12.03 (firmware)
Electrode material :
Initial state :
Electrolyte :
Comments :
Electrode surface area : 0.001 cm²
Characteristic mass : 0.001 g
Equivalent Weight : 0.000 g/eq.
Density : 0.000 g/cm3
Volume (V) : 0.001 cm³
Record Ece
Cycle Definition : Charge/Discharge alternance
Mode                Multi sine
E (V)               0.0000
vs.                 Eoc
tE (h:m:s)          0:00:0.0000
record              0
dI                  0.000
unit dI             mA
dt (s)              0.000
fi                  1.000
unit fi             MHz
ff                  0.100
unit ff             mHz
Nd                  10
Points              per decade
spacing             Logarithmic
Va (mV)             5.0
pw                  0.10
Na                  2
corr                0
E range min (V)     -10.000
E range max (V)     10.000
I Range             Auto
Bandwidth           5
nc cycles           0
goto Ns'            0
nr cycles           0
inc. cycle          0

freq/Hz	Re(Z)/Ohm	-Im(Z)/Ohm	|Z|/Ohm	Phase(Z)/deg	time/s	<Ewe>/V	<I>/mA	Cs/µF	Cp/µF	cycle number	I Range	|Ewe|/V	|I|/A	Ns	(Q-Qo)/mA.h	<Ece>/V	|Ece|/V	Phase(Zce)/deg	|Zce|/Ohm	Re(Zce)/Ohm	-Im(Zce)/Ohm	Phase(Zwe-ce)/deg	|Zwe-ce|/Ohm	Re(Zwe-ce)/Ohm	-Im(Zwe-ce)/Ohm	Re(Y)/Ohm-1	Im(Y)/Ohm-1	|Y|/Ohm-1	Phase(Y)/deg	Re(C)/nF	Im(C)/nF	|C|/nF	Phase(C)/deg	Re(M)	Im(M)	|M|	Phase(M)/deg	Re(Permittivity)	Im(Permittivity)	|Permittivity|	Phase(Permittivity)/deg	Re(Resistivity)/Ohm.cm	Im(Resistivity)/Ohm.cm	|Resistivity|/Ohm.cm	Phase(Resistivity)/deg	Re(Conductivity)/mS/cm	Im(Conductivity)/mS/cm	|Conductivity|/mS/cm	Phase(Conductivity)/deg	Tan(Delta)	Loss Angle(Delta)/deg	dq/mA.h	Pwe/W	Pce/W	Pwe-ce/W	<Ewe-Ece>/V	Rwe/Ohm	Rce/Ohm	Rwe-ce/Ohm		Ewe-Ece/V
1.00002e+06	1.79665	2.84516	3.36495	-57.7285	2.23352	3.9088	0.00349541	0.0559378	0.0399909	1	10	0.000222589	6.61494e-05	0	-8.14554e-06	4.11142e-05	0.000183947	-71.496	2.78079	0.88254	2.63703	-63.9548	6.10184	2.67919	5.48218	0.158674	0.251275	0.297181	57.7285	39.9909	25.2534	47.297	-32.2715	0.0000000E+000	0.0000000E+000	0.0000000E+000	32.2715	0.0000000E+000	0.0000000E+000	0.0000000E+000	-32.2715	0.0000000E+000	0.0000000E+000	0.0000000E+000	-57.7285	0.0000000E+000	0.0000000E+000	0.0000000E+000	57.7285	0.631477	32.2715	-8.14554e-06	1.36629e-05	1.43711e-10	1.36627e-05	3.90876	1.11827e+06	11.7623	1.11826e+06
630957	0.673043	0.125105	0.684571	-10.5299	3.40252	3.9085	0.00711095	2.01626	0.0673375	1	9	0.000237144	0.000346413	0	-5.02273e-06	4.11142e-05	0.00012406	-111.085	0.358128	-0.128835	0.334152	-40.161	0.712094	0.544208	0.459256	1.43617	0.266954	1.46077	10.5299	67.3375	362.265	368.47	-79.4701	0.0000000E+000	0.0000000E+000	0.0000000E+000	79.4701	0.0000000E+000	0.0000000E+000	0.0000000E+000	-79.4701	0.0000000E+000	0.0000000E+000	0.0000000E+000	-10.5299	0.0000000E+000	0.0000000E+000	0.0000000E+000	10.5299	5.37984	79.4701	2.29997e-06	2.77932e-05	2.92361e-10	2.77929e-05	3.90846	549646	5.78181	549640
398103	0.933144	0.115946	0.94032	-7.08288	4.16852	3.90853	0.00781879	3.44801	0.0524238	1	9	0.000906999	0.000964564	0	-1.82023e-06	0.000289119	5.85734e-05	171.249	0.0607253	-0.0600184	-0.00923853	-6.96775	0.879622	0.873126	0.106708	1.05535	0.131131	1.06347	7.08288	52.4239	421.912	425.156	-82.9171	0.0000000E+000	0.0000000E+000	0.0000000E+000	82.9171	0.0000000E+000	0.0000000E+000	0.0000000E+000	-82.9171	0.0000000E+000	0.0000000E+000	0.0000000E+000	-7.08288	0.0000000E+000	0.0000000E+000	0.0000000E+000	7.08288	8.04809	82.9171	1.18979e-06	3.056e-05	2.26056e-09	3.05577e-05	3.90824	499890	36.9775	499853
251206	1.06486	0.286626	1.10276	-15.0652	4.93653	3.90848	0.0164246	2.21042	0.149329	1	9	0.00285762	0.00259134	0	4.61171e-06	-5.42724e-05	6.26119e-05	113.252	0.024162	-0.00953841	-0.0221995	-14.0667	1.08794	1.05532	0.264426	0.875651	0.235697	0.906817	15.0652	149.329	554.78	574.526	-74.9348	0.0000000E+000	0.0000000E+000	0.0000000E+000	74.9348	0.0000000E+000	0.0000000E+000	0.0000000E+000	-74.9348	0.0000000E+000	0.0000000E+000	0.0000000E+000	-15.0652	0.0000000E+000	0.0000000E+000	0.0000000E+000	15.0652	3.71515	74.9348	3.85358e-06	6.41952e-05	-8.91402e-10	6.41961e-05	3.90853	237965	3.30433	237968
158486	1.18704	0.417431	1.2583	-19.3746	5.57852	3.90843	0.0192187	2.40571	0.264757	1	9	0.00529061	0.00420458	0	-5.75177e-06	0.000441738	6.20397e-05	95.0408	0.0147553	-0.00129648	-0.0146982	-18.7599	1.25227	1.18574	0.402733	0.74972	0.263645	0.794726	19.3746	264.757	752.884	798.079	-70.6254	0.0000000E+000	0.0000000E+000	0.0000000E+000	70.6254	0.0000000E+000	0.0000000E+000	0.0000000E+000	-70.6254	0.0000000E+000	0.0000000E+000	0.0000000E+000	-19.3746	0.0000000E+000	0.0000000E+000	0.0000000E+000	19.3746	2.84367	70.6254	-1.02468e-05	7.5115e-05	8.48963e-09	7.51065e-05	3.90799	203366	22.9848	203343
100004	1.33664	0.524694	1.43593	-21.4324	6.34652	3.90841	0.0167227	3.03318	0.404987	1	9	0.00538246	0.00374841	0	-2.70177e-05	9.83461e-05	4.80643e-05	94.8655	0.0128226	-0.00108756	-0.0127764	-20.9719	1.4303	1.33555	0.511917	0.648254	0.25447	0.696411	21.4324	404.987	1031.69	1108.33	-68.5676	0.0000000E+000	0.0000000E+000	0.0000000E+000	68.5676	0.0000000E+000	0.0000000E+000	0.0000000E+000	-68.5676	0.0000000E+000	0.0000000E+000	0.0000000E+000	-21.4324	0.0000000E+000	0.0000000E+000	0.0000000E+000	21.4324	2.54746	68.5676	-1.19184e-05	6.5359e-05	1.64461e-09	6.53574e-05	3.90832	233720	5.88101	233714
63093.8	1.51893	0.623764	1.64202	-22.326	7.11253	3.90843	0.0312891	4.04402	0.583574	1	9	0.00540216	0.00328994	0	-2.64545e-05	-0.000130582	2.56174e-05	72.9447	0.00778657	0.00228376	-0.00744413	-22.0553	1.64132	1.52122	0.61632	0.563353	0.231346	0.609006	22.326	583.574	1421.06	1536.22	-67.674	0.0000000E+000	0.0000000E+000	0.0000000E+000	67.674	0.0000000E+000	0.0000000E+000	0.0000000E+000	-67.674	0.0000000E+000	0.0000000E+000	0.0000000E+000	-22.326	0.0000000E+000	0.0000000E+000	0.0000000E+000	22.326	2.43511	67.674	-5.85377e-07	0.000122291	-4.08578e-09	0.000122295	3.90856	124914	4.17339	124918
39814.1	1.71341	0.706595	1.85339	-22.4108	7.87856	3.90842	0.0267813	5.65735	0.822283	1	9	0.0054831	0.00295842	0	-1.66302e-05	2.95956e-06	1.91756e-05	58.7201	0.00648172	0.00336543	-0.00553954	-22.213	1.8544	1.71678	0.701056	0.498802	0.205702	0.539552	22.4108	822.283	1993.94	2156.84	-67.5892	0.0000000E+000	0.0000000E+000	0.0000000E+000	67.5892	0.0000000E+000	0.0000000E+000	0.0000000E+000	-67.5892	0.0000000E+000	0.0000000E+000	0.0000000E+000	-22.4108	0.0000000E+000	0.0000000E+000	0.0000000E+000	22.4108	2.42488	67.5892	1.1428e-06	0.000104673	7.92608e-11	0.000104672	3.90842	145938	0.110508	145938
25116.9	1.93936	0.807925	2.10092	-22.6163	8.64455	3.90842	0.028793	7.84301	1.15987	1	9	0.00515721	0.00245475	0	-1.11372e-05	-0.000149659	8.14786e-06	-10.7458	0.00331923	0.00326102	0.000618877	-22.5977	2.10416	1.94262	0.808544	0.43938	0.183043	0.475983	22.6163	1159.87	2784.16	3016.1	-67.3837	0.0000000E+000	0.0000000E+000	0.0000000E+000	67.3837	0.0000000E+000	0.0000000E+000	0.0000000E+000	-67.3837	0.0000000E+000	0.0000000E+000	0.0000000E+000	-22.6163	0.0000000E+000	0.0000000E+000	0.0000000E+000	22.6163	2.40042	67.3837	4.34371e-06	0.000112535	-4.30913e-09	0.00011254	3.90857	135742	5.19775	135747
15847.7	2.17805	0.891422	2.35341	-22.2581	9.28656	3.90843	0.0333753	11.266	1.61638	1	9	0.00490589	0.00208459	0	-3.67685e-06	0.000250965	1.15362e-05	-43.5314	0.00553403	0.00401216	0.00381158	-22.3069	2.35857	2.18206	0.895234	0.393254	0.160949	0.424916	22.2581	1616.38	3949.37	4267.34	-67.7419	0.0000000E+000	0.0000000E+000	0.0000000E+000	67.7419	0.0000000E+000	0.0000000E+000	0.0000000E+000	-67.7419	0.0000000E+000	0.0000000E+000	0.0000000E+000	-22.2581	0.0000000E+000	0.0000000E+000	0.0000000E+000	22.2581	2.44334	67.7419	3.83355e-06	0.000130445	8.37602e-09	0.000130437	3.90818	117106	7.51947	117098
10002.2	2.41338	1.00307	2.61353	-22.5691	9.93155	3.90842	0.0257009	15.8633	2.33668	1	9	0.00491551	0.00188079	0	2.93319e-06	0.000289119	1.27583e-05	-107.914	0.00678346	-0.00208647	0.00645461	-22.7173	2.61409	2.41129	1.00952	0.353322	0.14685	0.382624	22.5691	2336.68	5622.04	6088.3	-67.4309	0.0000000E+000	0.0000000E+000	0.0000000E+000	67.4309	0.0000000E+000	0.0000000E+000	0.0000000E+000	-67.4309	0.0000000E+000	0.0000000E+000	0.0000000E+000	-22.5691	0.0000000E+000	0.0000000E+000	0.0000000E+000	22.5691	2.406	67.4309	2.63411e-06	0.00010045	7.43062e-09	0.000100442	3.90813	152073	11.2494	152062
6309.38	2.67899	1.14159	2.91209	-23.0801	10.4495	3.90842	0.0296126	22.0965	3.39575	1	9	0.00467316	0.00160475	0	5.56479e-06	0.000384506	1.01094e-05	-59.0514	0.0062997	0.00323974	0.00540281	-23.1528	2.91719	2.68223	1.14699	0.31591	0.134618	0.343397	23.0801	3395.75	7968.87	8662.22	-66.9199	0.0000000E+000	0.0000000E+000	0.0000000E+000	66.9199	0.0000000E+000	0.0000000E+000	0.0000000E+000	-66.9199	0.0000000E+000	0.0000000E+000	0.0000000E+000	-23.0801	0.0000000E+000	0.0000000E+000	0.0000000E+000	23.0801	2.34672	66.9199	1.33421e-06	0.000115739	1.13862e-08	0.000115727	3.90804	131985	12.9845	131972
3983.6	2.96508	1.35113	3.25841	-24.4978	11.0121	3.9082	-0.0493666	29.5698	5.08427	1	9	0.0045671	0.00140163	0	3.72963e-06	0.000289119	8.41187e-06	32.7048	0.00600148	0.00505004	-0.00324266	-24.4091	3.26167	2.97013	1.34788	0.27927	0.127258	0.306898	24.4978	5084.27	11157.6	12261.4	-65.5022	0.0000000E+000	0.0000000E+000	0.0000000E+000	65.5022	0.0000000E+000	0.0000000E+000	0.0000000E+000	-65.5022	0.0000000E+000	0.0000000E+000	0.0000000E+000	-24.4978	0.0000000E+000	0.0000000E+000	0.0000000E+000	24.4978	2.19453	65.5022	-4.62662e-06	-0.000192935	-1.42728e-08	-0.00019292	3.90791	79166.9	5.85657	79161.1
2510.8	3.36655	1.61127	3.73227	-25.5763	12.0818	3.90833	-0.0277363	39.3404	7.33212	1	10	0.00467733	0.00125321	0	4.39984e-06	0.000270042	4.77213e-06	4.969	0.00380791	0.0037936	-0.000329829	-25.5466	3.73555	3.37034	1.61094	0.241679	0.11567	0.267933	25.5763	7332.12	15319.6	16983.8	-64.4237	0.0000000E+000	0.0000000E+000	0.0000000E+000	64.4237	0.0000000E+000	0.0000000E+000	0.0000000E+000	-64.4237	0.0000000E+000	0.0000000E+000	0.0000000E+000	-25.5763	0.0000000E+000	0.0000000E+000	0.0000000E+000	25.5763	2.08938	64.4237	1.56706e-06	-0.000108403	-7.48997e-09	-0.000108395	3.90806	140910	9.73604	140900
1585.51	3.81501	1.90863	4.26582	-26.5786	12.9838	3.90833	-0.0277177	52.5932	10.5286	1	10	0.00458582	0.00107502	0	-2.01671e-06	-3.51951e-05	3.93153e-05	-123.694	0.0365718	-0.0202884	0.0304283	-27.0665	4.26144	3.79473	1.93906	0.209648	0.104886	0.234422	26.5786	10528.6	21044.7	23531.5	-63.4214	0.0000000E+000	0.0000000E+000	0.0000000E+000	63.4214	0.0000000E+000	0.0000000E+000	0.0000000E+000	-63.4214	0.0000000E+000	0.0000000E+000	0.0000000E+000	-26.5786	0.0000000E+000	0.0000000E+000	0.0000000E+000	26.5786	1.99882	63.4214	-3.66644e-06	-0.00010833	9.75526e-10	-0.000108331	3.90836	141005	1.26977	141006
1000.32	4.37437	2.32869	4.9556	-28.0285	13.8858	3.90832	-0.0294395	68.3234	15.0869	1	10	0.00453305	0.000914734	0	-9.14253e-06	-0.000111504	8.41384e-06	10.9347	0.00919813	0.00903113	-0.0017448	-27.9617	4.96275	4.3834	2.32695	0.178125	0.0948243	0.201792	28.0285	15086.9	28340.3	32105.9	-61.9715	0.0000000E+000	0.0000000E+000	0.0000000E+000	61.9715	0.0000000E+000	0.0000000E+000	0.0000000E+000	-61.9715	0.0000000E+000	0.0000000E+000	0.0000000E+000	-28.0285	0.0000000E+000	0.0000000E+000	0.0000000E+000	28.0285	1.87847	61.9715	-2.93578e-06	-0.000115059	3.28263e-09	-0.000115062	3.90843	132758	3.78757	132761
631.01	5.0987	2.79002	5.81213	-28.6876	15.0025	3.90834	-0.0270021	90.4018	20.8315	1	10	0.00499545	0.000859487	0	-1.74589e-05	-9.2427e-05	8.46221e-06	-51.9931	0.00984565	0.00606252	0.00775775	-28.7259	5.82118	5.10476	2.79777	0.150934	0.0825916	0.172054	28.6876	20831.5	38069.1	43395.9	-61.3124	0.0000000E+000	0.0000000E+000	0.0000000E+000	61.3124	0.0000000E+000	0.0000000E+000	0.0000000E+000	-61.3124	0.0000000E+000	0.0000000E+000	0.0000000E+000	-28.6876	0.0000000E+000	0.0000000E+000	0.0000000E+000	28.6876	1.82748	61.3124	-5.52346e-06	-0.000105533	2.49572e-09	-0.000105536	3.90843	144742	3.42295	144745
398.089	6.07418	3.26902	6.89798	-28.2884	15.9039	3.90832	-0.0262008	122.299	27.4671	1	10	0.00496729	0.000720108	0	-2.41588e-05	4.11142e-05	1.55019e-05	-8.33772	0.0215271	0.0212996	0.00312159	-28.2276	6.91822	6.09548	3.27214	0.127657	0.0687026	0.14497	28.2884	27467.1	51036.8	57958.6	-61.7116	0.0000000E+000	0.0000000E+000	0.0000000E+000	61.7116	0.0000000E+000	0.0000000E+000	0.0000000E+000	-61.7116	0.0000000E+000	0.0000000E+000	0.0000000E+000	-28.2884	0.0000000E+000	0.0000000E+000	0.0000000E+000	28.2884	1.8581	61.7116	-3.53191e-06	-0.000102401	-1.07723e-09	-0.0001024	3.90828	149168	1.56919	149166
251.044	7.30047	3.65693	8.16517	-26.6071	16.802	3.90833	-0.0285041	173.362	34.7741	1	10	0.00494904	0.000606116	0	-3.03436e-05	-0.000130582	9.93373e-06	27.2335	0.0163892	0.0145724	-0.00749996	-26.5143	8.17485	7.31504	3.64943	0.109502	0.0548512	0.122471	26.6071	34774.1	69420.9	77643.4	-63.3929	0.0000000E+000	0.0000000E+000	0.0000000E+000	63.3929	0.0000000E+000	0.0000000E+000	0.0000000E+000	-63.3929	0.0000000E+000	0.0000000E+000	0.0000000E+000	-26.6071	0.0000000E+000	0.0000000E+000	0.0000000E+000	26.6071	1.99634	63.3929	-3.16814e-06	-0.000111403	3.72211e-09	-0.000111407	3.90846	137115	4.58116	137119
158.428	8.74807	3.70592	9.50066	-22.9588	17.7069	3.90833	-0.0263872	271.076	41.2454	1	10	0.004947	0.000520701	0	-3.5483e-05	2.95956e-06	9.76166e-06	-39.8938	0.0187471	0.0143835	0.0120238	-22.9917	9.51859	8.76245	3.71794	0.0969181	0.0410571	0.105256	22.9588	41245.4	97362.5	105739	-67.0412	0.0000000E+000	0.0000000E+000	0.0000000E+000	67.0412	0.0000000E+000	0.0000000E+000	0.0000000E+000	-67.0412	0.0000000E+000	0.0000000E+000	0.0000000E+000	-22.9588	0.0000000E+000	0.0000000E+000	0.0000000E+000	22.9588	2.36057	67.0412	-2.9339e-06	-0.00010313	-7.80943e-11	-0.00010313	3.90832	148115	0.112159	148114
100.032	10.0943	3.34441	10.6339	-18.331	18.6058	3.90834	-0.0270841	475.731	47.0563	1	10	0.00494259	0.000464797	0	-4.21406e-05	-5.42724e-05	1.41448e-05	-21.1773	0.0304322	0.0283771	0.0109938	-18.3391	10.6643	10.1226	3.35541	0.0892671	0.0295758	0.0940391	18.331	47056.3	142028	149620	-71.669	0.0000000E+000	0.0000000E+000	0.0000000E+000	71.669	0.0000000E+000	0.0000000E+000	0.0000000E+000	-71.669	0.0000000E+000	0.0000000E+000	0.0000000E+000	-18.331	0.0000000E+000	0.0000000E+000	0.0000000E+000	18.331	3.01825	71.669	-2.95141e-06	-0.000105854	1.46992e-09	-0.000105855	3.90839	144304	2.00384	144306
63.0823	11.1266	2.7808	11.4689	-14.0321	19.522	3.90832	-0.0244529	907.282	53.3387	1	10	0.00492895	0.000429768	0	-4.80838e-05	0.000365428	4.5797e-06	-66.6555	0.0106562	0.00422263	0.00978388	-14.0744	11.4753	11.1309	2.79059	0.0845908	0.0211412	0.0871926	14.0321	53338.7	213420	219985	-75.9679	0.0000000E+000	0.0000000E+000	0.0000000E+000	75.9679	0.0000000E+000	0.0000000E+000	0.0000000E+000	-75.9679	0.0000000E+000	0.0000000E+000	0.0000000E+000	-14.0321	0.0000000E+000	0.0000000E+000	0.0000000E+000	14.0321	4.00123	75.9679	-3.24519e-06	-9.55699e-05	-8.93579e-09	-9.55609e-05	3.90796	159831	14.9442	159816
39.8089	11.8503	2.13415	12.0409	-10.2091	20.4228	3.90833	-0.0261375	1873.33	58.8497	1	10	0.00493474	0.00040983	0	-5.50947e-05	0.000193733	6.71889e-06	8.41516	0.0163944	0.0162178	-0.00239923	-10.1842	12.0565	11.8665	2.13175	0.0817351	0.0147199	0.08305	10.2091	58849.7	326775	332032	-79.7909	0.0000000E+000	0.0000000E+000	0.0000000E+000	79.7909	0.0000000E+000	0.0000000E+000	0.0000000E+000	-79.7909	0.0000000E+000	0.0000000E+000	0.0000000E+000	-10.2091	0.0000000E+000	0.0000000E+000	0.0000000E+000	10.2091	5.5527	79.7909	-3.36872e-06	-0.000102154	-5.06368e-09	-0.000102149	3.90813	149530	7.41206	149522
25.1044	12.3255	1.62339	12.432	-7.50323	21.302	3.90833	-0.0251088	3905.23	66.5907	1	10	0.00493186	0.000396709	0	-6.1444e-05	0.000136501	1.13372e-05	26.3808	0.0285781	0.025602	-0.0126983	-7.42994	12.4557	12.3511	1.61069	0.0797491	0.0105037	0.0804379	7.50323	66590.7	505587	509953	-82.4968	0.0000000E+000	0.0000000E+000	0.0000000E+000	82.4968	0.0000000E+000	0.0000000E+000	0.0000000E+000	-82.4968	0.0000000E+000	0.0000000E+000	0.0000000E+000	-7.50323	0.0000000E+000	0.0000000E+000	0.0000000E+000	7.50323	7.59245	82.4968	-3.28455e-06	-9.81336e-05	-3.42738e-09	-9.81302e-05	3.90819	155655	5.43636	155650
15.8576	12.5964	1.18541	12.652	-5.37613	22.18	3.9083	-0.0327193	8466.68	74.3246	1	10	0.00493128	0.000389762	0	-6.86086e-05	0.000270042	5.6852e-06	43.2734	0.0145864	0.0106202	-0.00999867	-5.32658	12.6617	12.607	1.17542	0.078691	0.00740542	0.0790387	5.37613	74324.6	789784	793274	-84.6239	0.0000000E+000	0.0000000E+000	0.0000000E+000	84.6239	0.0000000E+000	0.0000000E+000	0.0000000E+000	-84.6239	0.0000000E+000	0.0000000E+000	0.0000000E+000	-5.37613	0.0000000E+000	0.0000000E+000	0.0000000E+000	5.37613	10.6261	84.6239	-3.68401e-06	-0.000127877	-8.83557e-09	-0.000127868	3.90803	119450	8.2533	119441
10.0032	12.8907	0.862471	12.9195	-3.82775	23.4058	3.90837	-0.0166433	18447.5	82.2116	1	11	0.00494077	0.000382427	0	-7.4112e-05	6.01915e-05	4.51928e-06	-5.27823	0.0118174	0.0117673	0.00108711	-3.82908	12.9313	12.9025	0.863558	0.0772296	0.00516716	0.0774023	3.82775	82211.5	1.22875e+06	1.2315e+06	-86.1722	0.0000000E+000	0.0000000E+000	0.0000000E+000	86.1722	0.0000000E+000	0.0000000E+000	0.0000000E+000	-86.1722	0.0000000E+000	0.0000000E+000	0.0000000E+000	-3.82775	0.0000000E+000	0.0000000E+000	0.0000000E+000	3.82775	14.9462	86.1722	-5.20805e-06	-6.50483e-05	-1.00179e-09	-6.50473e-05	3.90831	234831	3.61655	234828
6.31058	12.9812	0.674281	12.9987	-2.97343	24.3303	3.90839	-0.0164214	37403.3	100.645	1	11	0.00492524	0.000378902	0	-7.8017e-05	0.000231887	1.05995e-05	-28.7256	0.0279743	0.0245316	0.0134449	-3.0269	13.0239	13.0057	0.687726	0.0768271	0.00399061	0.0769307	2.97343	100645	1.9376e+06	1.94022e+06	-87.0266	0.0000000E+000	0.0000000E+000	0.0000000E+000	87.0266	0.0000000E+000	0.0000000E+000	0.0000000E+000	-87.0266	0.0000000E+000	0.0000000E+000	0.0000000E+000	-2.97343	0.0000000E+000	0.0000000E+000	0.0000000E+000	2.97343	19.2519	87.0266	1.89485e-06	-6.41811e-05	-3.80791e-09	-6.41773e-05	3.90816	238006	14.1211	237992
3.97785	13.1252	0.578458	13.138	-2.52352	25.3374	3.90839	-0.0147935	69167.1	134.087	1	11	0.00494134	0.000376111	0	-8.64631e-05	0.000193733	8.4936e-06	-32.4244	0.0225827	0.0190621	0.0121085	-2.57254	13.1576	13.1443	0.590567	0.0760414	0.00335131	0.0761152	2.52352	134087	3.04244e+06	3.04539e+06	-87.4765	0.0000000E+000	0.0000000E+000	0.0000000E+000	87.4765	0.0000000E+000	0.0000000E+000	0.0000000E+000	-87.4765	0.0000000E+000	0.0000000E+000	0.0000000E+000	-2.52352	0.0000000E+000	0.0000000E+000	0.0000000E+000	2.52352	22.69	87.4765	-6.79075e-06	-5.78186e-05	-2.86598e-09	-5.78157e-05	3.90819	264197	13.0958	264184
2.51367	13.1911	0.534175	13.2019	-2.31893	26.8969	3.9084	-0.0142212	118530	194.053	1	11	0.00493305	0.000373662	0	-8.97059e-05	0.00021281	4.71442e-06	-19.5291	0.0126168	0.011891	0.00421762	-2.33512	13.214	13.203	0.538392	0.0756845	0.00306485	0.0757466	2.31893	194053	4.79202e+06	4.79594e+06	-87.6811	0.0000000E+000	0.0000000E+000	0.0000000E+000	87.6811	0.0000000E+000	0.0000000E+000	0.0000000E+000	-87.6811	0.0000000E+000	0.0000000E+000	0.0000000E+000	-2.31893	0.0000000E+000	0.0000000E+000	0.0000000E+000	2.31893	24.6944	87.6811	1.23366e-06	-5.5582e-05	-3.0264e-09	-5.55789e-05	3.90819	274830	14.9643	274815
1.58469	13.2967	0.542125	13.3077	-2.33474	29.3326	3.90838	-0.0135977	185258	307.445	1	11	0.00493245	0.000370645	0	-9.07671e-05	0.000193733	3.26707e-06	34.1685	0.00881457	0.00729308	-0.00495051	-2.31217	13.3148	13.304	0.537175	0.0750818	0.00306119	0.0751442	2.33474	307445	7.5407e+06	7.54697e+06	-87.6653	0.0000000E+000	0.0000000E+000	0.0000000E+000	87.6653	0.0000000E+000	0.0000000E+000	0.0000000E+000	-87.6653	0.0000000E+000	0.0000000E+000	0.0000000E+000	-2.33474	0.0000000E+000	0.0000000E+000	0.0000000E+000	2.33474	24.527	87.6653	-3.43826e-06	-5.31449e-05	-2.63431e-09	-5.31423e-05	3.90819	287430	14.2475	287416
1.00469	13.9076	0.62722	13.9217	-2.58225	240.152	3.90835	-0.0111532	252561	512.651	1	11	0.00500687	0.000359645	0	-0.00215398	0.000250965	3.80564e-07	21.3303	0.00105816	0.000985679	-0.000384902	-2.58048	13.9227	13.9085	0.626835	0.0717574	0.0032362	0.0718303	2.58225	512651	1.13672e+07	1.13787e+07	-87.4178	0.0000000E+000	0.0000000E+000	0.0000000E+000	87.4178	0.0000000E+000	0.0000000E+000	0.0000000E+000	-87.4178	0.0000000E+000	0.0000000E+000	0.0000000E+000	-2.58225	0.0000000E+000	0.0000000E+000	0.0000000E+000	2.58225	22.1733	87.4178	-0.00205063	-4.35905e-05	-2.79905e-09	-4.35877e-05	3.9081	350425	22.5016	350403
0.632957	14.0301	0.771628	14.0513	-3.14798	240.152	3.90835	-0.0111532	325865	982.695	1	11	0.00501933	0.000357214	0	-0.00215398	0.000250965	3.87463e-07	-19.7526	0.00108468	0.00102086	0.000366578	-3.14924	14.0524	14.0312	0.771995	0.0710602	0.00390817	0.0711676	3.14798	982696	1.78679e+07	1.78949e+07	-86.852	0.0000000E+000	0.0000000E+000	0.0000000E+000	86.852	0.0000000E+000	0.0000000E+000	0.0000000E+000	-86.852	0.0000000E+000	0.0000000E+000	0.0000000E+000	-3.14798	0.0000000E+000	0.0000000E+000	0.0000000E+000	3.14798	18.1825	86.852	0.000000000000000E+000	-4.35905e-05	-2.79905e-09	-4.35877e-05	3.9081	350425	22.5016	350403
0.401878	14.1224	1.00285	14.158	-4.06183	240.152	3.90835	-0.0111532	394901	1981.35	1	11	0.00503273	0.000355469	0	-0.00215398	0.000250965	3.39538e-07	28.8251	0.000955183	0.000836831	-0.00046053	-4.05974	14.1588	14.1233	1.00239	0.070454	0.00500304	0.0706314	4.06183	1.98135e+06	2.79018e+07	2.79721e+07	-85.9382	0.0000000E+000	0.0000000E+000	0.0000000E+000	85.9382	0.0000000E+000	0.0000000E+000	0.0000000E+000	-85.9382	0.0000000E+000	0.0000000E+000	0.0000000E+000	-4.06183	0.0000000E+000	0.0000000E+000	0.0000000E+000	4.06183	14.0822	85.9382	0.000000000000000E+000	-4.35905e-05	-2.79905e-09	-4.35877e-05	3.9081	350425	22.5016	350403
0.251173	14.4116	1.2962	14.4697	-5.13946	240.152	3.90835	-0.0111532	488847	3922.82	1	11	0.00503407	0.000347903	0	-0.00215398	0.000250965	2.75552e-07	11.1233	0.000792038	0.000777159	-0.000152801	-5.13858	14.4705	14.4123	1.29605	0.0688319	0.00619087	0.0691097	5.13946	3.92282e+06	4.3615e+07	4.37911e+07	-84.8605	0.0000000E+000	0.0000000E+000	0.0000000E+000	84.8605	0.0000000E+000	0.0000000E+000	0.0000000E+000	-84.8605	0.0000000E+000	0.0000000E+000	0.0000000E+000	-5.13946	0.0000000E+000	0.0000000E+000	0.0000000E+000	5.13946	11.1183	84.8605	0.000000000000000E+000	-4.35905e-05	-2.79905e-09	-4.35877e-05	3.9081	350425	22.5016	350403
0.160751	14.7071	1.5878	14.7926	-6.16187	240.152	3.90835	-0.0111532	623550	7184.16	1	11	0.00502921	0.000339983	0	-0.00215398	0.000250965	5.24272e-07	-5.50418	0.00154205	0.00153494	0.000147911	-6.1618	14.7941	14.7086	1.58795	0.067211	0.0072562	0.0676016	6.16187	7.18415e+06	6.65437e+07	6.69304e+07	-83.8381	0.0000000E+000	0.0000000E+000	0.0000000E+000	83.8381	0.0000000E+000	0.0000000E+000	0.0000000E+000	-83.8381	0.0000000E+000	0.0000000E+000	0.0000000E+000	-6.16187	0.0000000E+000	0.0000000E+000	0.0000000E+000	6.16187	9.26257	83.8381	0.000000000000000E+000	-4.35905e-05	-2.79905e-09	-4.35877e-05	3.9081	350425	22.5016	350403
0.100469	15.0724	2.29201	15.2457	-8.64656	240.152	3.90835	-0.0111532	691145	15621.1	1	11	0.00503185	0.000330051	0	-0.00215398	0.000250965	5.41873e-07	-62.6099	0.00164178	0.000755296	0.00145773	-8.65155	15.2466	15.0731	2.29347	0.0648469	0.00986108	0.0655924	8.64656	1.56211e+07	1.02725e+08	1.03906e+08	-81.3534	0.0000000E+000	0.0000000E+000	0.0000000E+000	81.3534	0.0000000E+000	0.0000000E+000	0.0000000E+000	-81.3534	0.0000000E+000	0.0000000E+000	0.0000000E+000	-8.64656	0.0000000E+000	0.0000000E+000	0.0000000E+000	8.64656	6.57605	81.3534	0.000000000000000E+000	-4.35905e-05	-2.79905e-09	-4.35877e-05	3.9081	350425	22.5016	350403
0.0602816	15.6936	2.95374	15.9692	-10.6591	240.153	3.90835	-0.0111532	893847	30580.4	1	11	0.00502631	0.000314751	0	-0.00215398	0.000250965	1.72581e-07	-34.3905	0.000548308	0.000452467	0.000309701	-10.6599	15.9697	15.6941	2.95405	0.0615402	0.0115827	0.0626207	10.6591	3.05804e+07	1.62478e+08	1.65331e+08	-79.3409	0.0000000E+000	0.0000000E+000	0.0000000E+000	79.3409	0.0000000E+000	0.0000000E+000	0.0000000E+000	-79.3409	0.0000000E+000	0.0000000E+000	0.0000000E+000	-10.6591	0.0000000E+000	0.0000000E+000	0.0000000E+000	10.6591	5.31314	79.3409	0.000000000000000E+000	-4.35905e-05	-2.79905e-09	-4.35877e-05	3.9081	350425	22.5016	350403
0.0401878	16.6327	3.53842	17.0049	-12.01	240.153	3.90835	-0.0111532	1.11922e+06	48460.4	1	11	0.00502785	0.00029567	0	-0.00215398	0.000250965	1.01731e-06	41.3945	0.00344069	0.00258111	-0.00227512	-12.0007	17.007	16.6353	3.53615	0.0575193	0.0122366	0.0588065	12.01	4.84604e+07	2.27793e+08	2.32891e+08	-77.99	0.0000000E+000	0.0000000E+000	0.0000000E+000	77.99	0.0000000E+000	0.0000000E+000	0.0000000E+000	-77.99	0.0000000E+000	0.0000000E+000	0.0000000E+000	-12.01	0.0000000E+000	0.0000000E+000	0.0000000E+000	12.01	4.7006	77.99	0.000000000000000E+000	-4.35905e-05	-2.79905e-09	-4.35877e-05	3.9081	350425	22.5016	350403
0.0200939	18.5493	5.37329	19.3119	-16.155	240.153	3.90835	-0.0111532	1.47406e+06	114116	1	11	0.00502891	0.000260404	0	-0.00215398	0.000250965	1.79218e-06	-69.5691	0.0068823	0.00240246	0.00644936	-16.1714	19.316	18.5517	5.37974	0.0497368	0.0144075	0.0517815	16.155	1.14116e+08	3.93944e+08	4.10139e+08	-73.845	0.0000000E+000	0.0000000E+000	0.0000000E+000	73.845	0.0000000E+000	0.0000000E+000	0.0000000E+000	-73.845	0.0000000E+000	0.0000000E+000	0.0000000E+000	-16.155	0.0000000E+000	0.0000000E+000	0.0000000E+000	16.155	3.45214	73.845	0.000000000000000E+000	-4.35905e-05	-2.79905e-09	-4.35877e-05	3.9081	350425	22.5016	350403
0.00796479	22.0583	6.20189	22.9136	-15.7038	20329	3.9084	0.00137765	3.22197e+06	236038	1	11	0.00502037	0.0002191	0	-0.0104971	-5.42724e-05	4.57611e-07	-18.665	0.0020886	0.00197875	0.000668424	-15.704	22.9157	22.0603	6.20256	0.0420132	0.0118124	0.0436422	15.7038	2.36038e+08	8.39521e+08	8.72072e+08	-74.2962	0.0000000E+000	0.0000000E+000	0.0000000E+000	74.2962	0.0000000E+000	0.0000000E+000	0.0000000E+000	-74.2962	0.0000000E+000	0.0000000E+000	0.0000000E+000	-15.7038	0.0000000E+000	0.0000000E+000	0.0000000E+000	15.7038	3.55671	74.2962	-0.00834315	5.3844e-06	-7.47683e-11	5.38448e-06	3.90845	2.837e+06	39.3949	2.83704e+06
0.00497799	24.1814	6.37932	25.0087	-14.7786	20329	3.9084	0.00137765	5.01178e+06	326105	1	11	0.00502814	0.000201056	0	-0.0104971	-5.42724e-05	5.27433e-07	-30.73	0.00262332	0.00225496	0.0013405	-14.7802	25.0112	24.1836	6.38066	0.0386633	0.0101998	0.0399861	14.7786	3.26105e+08	1.23613e+09	1.27842e+09	-75.2214	0.0000000E+000	0.0000000E+000	0.0000000E+000	75.2214	0.0000000E+000	0.0000000E+000	0.0000000E+000	-75.2214	0.0000000E+000	0.0000000E+000	0.0000000E+000	-14.7786	0.0000000E+000	0.0000000E+000	0.0000000E+000	14.7786	3.79059	75.2214	0.000000000000000E+000	5.3844e-06	-7.47683e-11	5.38448e-06	3.90845	2.837e+06	39.3949	2.83704e+06
0.00318591	25.581	7.81452	26.7479	-16.987	20329	3.9084	0.00137765	6.39269e+06	545642	1	11	0.0050304	0.000188067	0	-0.0104971	-5.42724e-05	7.50697e-07	-42.3856	0.00399165	0.00294833	0.00269084	-16.9906	26.7515	25.5839	7.81722	0.035755	0.0109225	0.0373861	16.987	5.45642e+08	1.78617e+09	1.86765e+09	-73.013	0.0000000E+000	0.0000000E+000	0.0000000E+000	73.013	0.0000000E+000	0.0000000E+000	0.0000000E+000	-73.013	0.0000000E+000	0.0000000E+000	0.0000000E+000	-16.987	0.0000000E+000	0.0000000E+000	0.0000000E+000	16.987	3.27351	73.013	0.000000000000000E+000	5.3844e-06	-7.47683e-11	5.38448e-06	3.90845	2.837e+06	39.3949	2.83704e+06
0.0019912	26.9105	8.70492	28.2834	-17.9252	20329	3.9084	0.00137765	9.18208e+06	869775	1	11	0.00503412	0.000177988	0	-0.0104971	-5.42724e-05	7.38693e-07	-7.32979	0.00415024	0.00411632	0.000529488	-17.9236	28.2875	26.9146	8.70545	0.0336402	0.0108818	0.0353564	17.9252	8.69775e+08	2.68884e+09	2.82601e+09	-72.0748	0.0000000E+000	0.0000000E+000	0.0000000E+000	72.0748	0.0000000E+000	0.0000000E+000	0.0000000E+000	-72.0748	0.0000000E+000	0.0000000E+000	0.0000000E+000	-17.9252	0.0000000E+000	0.0000000E+000	0.0000000E+000	17.9252	3.09142	72.0748	0.000000000000000E+000	5.3844e-06	-7.47683e-11	5.38448e-06	3.90845	2.837e+06	39.3949	2.83704e+06
0.00129428	26.842	11.1157	29.0526	-22.4953	20329	3.9084	0.00137765	1.10625e+07	1.61943e+06	1	11	0.00503624	0.000173349	0	-0.0104971	-5.42724e-05	5.42147e-07	4.07638	0.00312748	0.00311957	-0.000222321	-22.4925	29.0554	26.8451	11.1155	0.0318013	0.0131695	0.0344204	22.4953	1.61943e+09	3.91055e+09	4.23261e+09	-67.5047	0.0000000E+000	0.0000000E+000	0.0000000E+000	67.5047	0.0000000E+000	0.0000000E+000	0.0000000E+000	-67.5047	0.0000000E+000	0.0000000E+000	0.0000000E+000	-22.4953	0.0000000E+000	0.0000000E+000	0.0000000E+000	22.4953	2.41478	67.5047	0.000000000000000E+000	5.3844e-06	-7.47683e-11	5.38448e-06	3.90845	2.837e+06	39.3949	2.83704e+06
0.000796479	29.5439	15.4696	33.3489	-27.6371	20329	3.9084	0.00137765	1.29172e+07	2.77947e+06	1	11	0.00503256	0.000150906	0	-0.0104971	-5.42724e-05	1.07234e-06	-19.2384	0.00710597	0.00670914	0.00234142	-27.6354	33.3559	29.5506	15.4719	0.0265647	0.0139096	0.029986	27.6371	2.77947e+09	5.30824e+09	5.9919e+09	-62.3629	0.0000000E+000	0.0000000E+000	0.0000000E+000	62.3629	0.0000000E+000	0.0000000E+000	0.0000000E+000	-62.3629	0.0000000E+000	0.0000000E+000	0.0000000E+000	-27.6371	0.0000000E+000	0.0000000E+000	0.0000000E+000	27.6371	1.90981	62.3629	0.000000000000000E+000	5.3844e-06	-7.47683e-11	5.38448e-06	3.90845	2.837e+06	39.3949	2.83704e+06
0.000497799	28.8794	21.5418	36.0287	-36.7201	20329	3.9084	0.00137765	1.48417e+07	5.3058e+06	1	11	0.00503608	0.00013978	0	-0.0104971	-5.42724e-05	6.59809e-07	8.88409	0.00472035	0.00466372	-0.000728993	-36.7148	36.032	28.884	21.5411	0.022248	0.0165953	0.0277556	36.7201	5.3058e+09	7.11305e+09	8.87395e+09	-53.2799	0.0000000E+000	0.0000000E+000	0.0000000E+000	53.2799	0.0000000E+000	0.0000000E+000	0.0000000E+000	-53.2799	0.0000000E+000	0.0000000E+000	0.0000000E+000	-36.7201	0.0000000E+000	0.0000000E+000	0.0000000E+000	36.7201	1.34062	53.2798	0.000000000000000E+000	5.3844e-06	-7.47683e-11	5.38448e-06	3.90845	2.837e+06	39.3949	2.83704e+06
0.000298679	28.0696	32.0684	42.6179	-48.8041	20329	3.9084	0.00137765	1.66164e+07	9.40822e+06	1	11	0.00503794	0.000118212	0	-0.0104971	-5.42724e-05	2.81695e-07	53.2426	0.00238297	0.00142603	-0.00190918	-48.801	42.6174	28.0711	32.0665	0.0154544	0.017656	0.0234643	48.8041	9.40822e+09	8.23508e+09	1.25032e+10	-41.1959	0.0000000E+000	0.0000000E+000	0.0000000E+000	41.1959	0.0000000E+000	0.0000000E+000	0.0000000E+000	-41.1959	0.0000000E+000	0.0000000E+000	0.0000000E+000	-48.8041	0.0000000E+000	0.0000000E+000	0.0000000E+000	48.8041	0.875306	41.1959	0.000000000000000E+000	5.3844e-06	-7.47683e-11	5.38448e-06	3.90845	2.837e+06	39.3949	2.83704e+06
9.95598e-05	38.1965	116.445	122.55	-71.8394	20329.1	3.9084	0.00137765	1.37282e+07	1.23946e+07	1	11	0.00503263	4.1066e-05	0	-0.0104971	-5.42724e-05	2.1934e-06	-45.0674	0.0534115	0.0377232	0.0378121	-71.8282	122.597	38.2342	116.483	0.00254331	0.00775347	0.00815995	71.8394	1.23946e+10	4.06569e+09	1.30444e+10	-18.1606	0.0000000E+000	0.0000000E+000	0.0000000E+000	18.1606	0.0000000E+000	0.0000000E+000	0.0000000E+000	-18.1606	0.0000000E+000	0.0000000E+000	0.0000000E+000	-71.8394	0.0000000E+000	0.0000000E+000	0.0000000E+000	71.8394	0.328022	18.1606	0.000000000000000E+000	5.3844e-06	-7.47683e-11	5.38448e-06	3.90845	2.837e+06	39.3949	2.83704e+06