File: txt/19120_R311_UC96_SOC50_C02.mpt
EC-Lab ASCII FILE
Nb header lines : 65

Potentio Electrochemical Impedance Spectroscopy

Run on channel : 2 (SN 66139)
Grouped channel(s) : 1, 2, 3, 4
User :
CE vs. WE compliance from -10 V to 10 V
Electrode connection : standard
Potential control : Ewe
Ewe ctrl range : min = -10.00 V, max = 10.00 V
Safety Limits :
	Do not start on E overload
Acquisition started on : 11/11/2025 16:20:14.228
Loaded Setting File :  C:\Users\Celltest\OneDrive - store-dot.com\Documents\EC-Lab\Data\@Biologic Test Protocols\cathode half cell EIS SOC50.mps
Saved on :
	File : 19119_R311_UC96_SOC50_C02.mpr
	Directory : C:\Users\Celltest\OneDrive - store-dot.com\Documents\EC-Lab\Data\Gyutae\
	Host : 169.254.61.224
Device : VMP-3e (SN .003165)
Address : USB
EC-LAB for windows v11.62 (software)
Internet server v27.00 (firmware)
Command interpretor v12.03 (firmware)
Electrode material :
Initial state :
Electrolyte :
Comments :
Electrode surface area : 0.001 cm²
Characteristic mass : 0.001 g
Equivalent Weight : 0.000 g/eq.
Density : 0.000 g/cm3
Volume (V) : 0.001 cm³
Record Ece
Cycle Definition : Charge/Discharge alternance
Mode                Multi sine
E (V)               0.0000
vs.                 Eoc
tE (h:m:s)          0:00:0.0000
record              0
dI                  0.000
unit dI             mA
dt (s)              0.000
fi                  1.000
unit fi             MHz
ff                  0.100
unit ff             mHz
Nd                  10
Points              per decade
spacing             Logarithmic
Va (mV)             5.0
pw                  0.10
Na                  2
corr                0
E range min (V)     -10.000
E range max (V)     10.000
I Range             Auto
Bandwidth           5
nc cycles           0
goto Ns'            0
nr cycles           0
inc. cycle          0

freq/Hz	Re(Z)/Ohm	-Im(Z)/Ohm	|Z|/Ohm	Phase(Z)/deg	time/s	<Ewe>/V	<I>/mA	Cs/µF	Cp/µF	cycle number	I Range	|Ewe|/V	|I|/A	Ns	(Q-Qo)/mA.h	<Ece>/V	|Ece|/V	Phase(Zce)/deg	|Zce|/Ohm	Re(Zce)/Ohm	-Im(Zce)/Ohm	Phase(Zwe-ce)/deg	|Zwe-ce|/Ohm	Re(Zwe-ce)/Ohm	-Im(Zwe-ce)/Ohm	Re(Y)/Ohm-1	Im(Y)/Ohm-1	|Y|/Ohm-1	Phase(Y)/deg	Re(C)/nF	Im(C)/nF	|C|/nF	Phase(C)/deg	Re(M)	Im(M)	|M|	Phase(M)/deg	Re(Permittivity)	Im(Permittivity)	|Permittivity|	Phase(Permittivity)/deg	Re(Resistivity)/Ohm.cm	Im(Resistivity)/Ohm.cm	|Resistivity|/Ohm.cm	Phase(Resistivity)/deg	Re(Conductivity)/mS/cm	Im(Conductivity)/mS/cm	|Conductivity|/mS/cm	Phase(Conductivity)/deg	Tan(Delta)	Loss Angle(Delta)/deg	dq/mA.h	Pwe/W	Pce/W	Pwe-ce/W	<Ewe-Ece>/V	Rwe/Ohm	Rce/Ohm	Rwe-ce/Ohm		Ewe-Ece/V
1.00002e+06	0.999984	-0.381015	1.07011	20.8579	2.69452	3.91065	-0.0647312	-0.417705	-0.0529535	1	9	0.000219524	0.000205141	0	-3.41361e-05	-0.000283825	0.000176301	3.14516	0.859416	0.858121	-0.0471525	12.9763	1.9068	1.85811	-0.428167	0.873241	-0.332723	0.934481	-20.8579	-52.9536	138.978	148.725	-110.858	0.0000000E+000	0.0000000E+000	0.0000000E+000	110.858	0.0000000E+000	0.0000000E+000	0.0000000E+000	-110.858	0.0000000E+000	0.0000000E+000	0.0000000E+000	20.8579	0.0000000E+000	0.0000000E+000	0.0000000E+000	-20.8579	2.62453	69.1421	-3.41361e-05	-0.000253141	1.83723e-08	-0.00025316	3.91094	60413.8	4.38467	60418.2
630957	0.848758	-0.0499443	0.850226	3.36763	3.46055	3.91059	-0.0493114	-5.0505	-0.0174276	1	9	0.000280903	0.000330386	0	-4.74179e-05	4.07197e-05	0.000113701	-102.973	0.344146	-0.0772595	0.335361	-20.302	0.822601	0.771498	0.285417	1.17413	-0.0690903	1.17616	-3.36763	-17.4276	296.166	296.678	-93.3676	0.0000000E+000	0.0000000E+000	0.0000000E+000	93.3676	0.0000000E+000	0.0000000E+000	0.0000000E+000	-93.3676	0.0000000E+000	0.0000000E+000	0.0000000E+000	3.36763	0.0000000E+000	0.0000000E+000	0.0000000E+000	-3.36763	16.9941	86.6324	-6.11787e-06	-0.000192836	-2.00794e-09	-0.000192834	3.91055	79304	0.825767	79303.2
398103	1.10218	0.0884053	1.10572	-4.58585	4.22852	3.9107	-0.0600754	4.52216	0.0289076	1	9	0.00107183	0.000969346	0	-5.86907e-05	0.000193446	4.09329e-05	-174.556	0.0422274	-0.0420369	0.00400646	-4.98183	1.06416	1.06014	0.0924118	0.901493	0.0723082	0.904388	4.58585	28.9076	360.401	361.559	-85.4142	0.0000000E+000	0.0000000E+000	0.0000000E+000	85.4142	0.0000000E+000	0.0000000E+000	0.0000000E+000	-85.4142	0.0000000E+000	0.0000000E+000	0.0000000E+000	-4.58585	0.0000000E+000	0.0000000E+000	0.0000000E+000	4.58585	12.4674	85.4142	-5.48628e-06	-0.000234937	-1.16214e-08	-0.000234926	3.91051	65096.6	3.22006	65093.4
251206	1.22179	0.265188	1.25023	-12.2461	4.99654	3.91066	-0.0586973	2.38911	0.107488	1	9	0.00323666	0.00258884	0	-6.3805e-05	0.000403446	2.29707e-05	105.936	0.00887296	-0.00243624	-0.00853195	-11.8864	1.24607	1.21935	0.256656	0.781651	0.169657	0.799851	12.2461	107.488	495.225	506.756	-77.7539	0.0000000E+000	0.0000000E+000	0.0000000E+000	77.7539	0.0000000E+000	0.0000000E+000	0.0000000E+000	-77.7539	0.0000000E+000	0.0000000E+000	0.0000000E+000	-12.2461	0.0000000E+000	0.0000000E+000	0.0000000E+000	12.2461	4.60725	77.7539	-1.60813e-06	-0.000229545	-2.36812e-08	-0.000229521	3.91026	66624.3	6.87333	66617.4
158486	1.3399	0.404642	1.39967	-16.804	5.76255	3.9106	-0.0426443	2.48175	0.207419	1	9	0.00533942	0.00381476	0	-7.19366e-05	0.000117083	3.03638e-05	104.475	0.00795954	-0.00198951	-0.00770689	-16.5247	1.39556	1.33792	0.396935	0.683946	0.206547	0.714453	16.804	207.419	686.832	717.468	-73.196	0.0000000E+000	0.0000000E+000	0.0000000E+000	73.196	0.0000000E+000	0.0000000E+000	0.0000000E+000	-73.196	0.0000000E+000	0.0000000E+000	0.0000000E+000	-16.804	0.0000000E+000	0.0000000E+000	0.0000000E+000	16.804	3.31133	73.196	-6.80718e-06	-0.000166765	-4.99292e-09	-0.00016676	3.91048	91702.8	2.74558	91700
100004	1.47938	0.525673	1.57	-19.5618	6.53053	3.91056	-0.0408937	3.02753	0.339406	1	9	0.00543099	0.00345922	0	-9.40265e-05	-0.000112007	2.44838e-05	105.437	0.00707783	-0.00188396	-0.00682249	-19.3496	1.56595	1.4775	0.518851	0.600178	0.213263	0.636941	19.5618	339.405	955.177	1013.69	-70.4382	0.0000000E+000	0.0000000E+000	0.0000000E+000	70.4382	0.0000000E+000	0.0000000E+000	0.0000000E+000	-70.4382	0.0000000E+000	0.0000000E+000	0.0000000E+000	-19.5618	0.0000000E+000	0.0000000E+000	0.0000000E+000	19.5618	2.81427	70.4382	-1.11472e-05	-0.000159917	4.58038e-09	-0.000159922	3.91067	95627.5	2.73898	95630.2
63093.8	1.64699	0.643078	1.76808	-21.3285	7.29654	3.91056	-0.0329231	3.92256	0.518911	1	9	0.00547331	0.00309562	0	-0.000110278	0.000174356	1.87298e-05	68.9967	0.00605043	0.0021686	-0.00564844	-21.1325	1.76806	1.64915	0.63743	0.526848	0.205712	0.565585	21.3285	518.911	1328.98	1426.69	-68.6715	0.0000000E+000	0.0000000E+000	0.0000000E+000	68.6715	0.0000000E+000	0.0000000E+000	0.0000000E+000	-68.6715	0.0000000E+000	0.0000000E+000	0.0000000E+000	-21.3285	0.0000000E+000	0.0000000E+000	0.0000000E+000	21.3285	2.5611	68.6715	-1.84268e-06	-0.000128748	-5.74032e-09	-0.000128742	3.91038	118779	5.29585	118773
39814.1	1.8562	0.749399	2.00176	-21.9853	8.18651	3.91054	-0.049721	5.33422	0.747602	1	9	0.00512717	0.00256132	0	-0.00012969	0.000231628	1.53565e-05	40.7787	0.00599554	0.00454005	-0.00391592	-21.833	2.00452	1.86074	0.745483	0.463231	0.18702	0.499559	21.9853	747.602	1851.75	1996.97	-68.0147	0.0000000E+000	0.0000000E+000	0.0000000E+000	68.0147	0.0000000E+000	0.0000000E+000	0.0000000E+000	-68.0147	0.0000000E+000	0.0000000E+000	0.0000000E+000	-21.9853	0.0000000E+000	0.0000000E+000	0.0000000E+000	21.9853	2.47691	68.0147	-1.05167e-05	-0.000194436	-1.15168e-08	-0.000194425	3.91031	78649.7	4.65856	78645.1
25116.9	2.09105	0.880985	2.26906	-22.8463	8.83053	3.91055	-0.0329603	7.19259	1.08425	1	9	0.00528565	0.00232944	0	-0.000132004	-0.000131098	8.10033e-06	-40.3923	0.00347736	0.00264845	0.00225339	-22.8727	2.27238	2.0937	0.883238	0.406137	0.17111	0.440711	22.8463	1084.25	2573.52	2792.59	-67.1537	0.0000000E+000	0.0000000E+000	0.0000000E+000	67.1537	0.0000000E+000	0.0000000E+000	0.0000000E+000	-67.1537	0.0000000E+000	0.0000000E+000	0.0000000E+000	-22.8463	0.0000000E+000	0.0000000E+000	0.0000000E+000	22.8463	2.37354	67.1537	-2.70203e-06	-0.000128893	4.32103e-09	-0.000128898	3.91068	118644	3.97744	118648
15847.7	2.33792	1.00664	2.54543	-23.2953	9.59656	3.91056	-0.0310236	9.97651	1.5603	1	9	0.00489497	0.00192304	0	-0.000135625	-3.56437e-05	1.00498e-05	-56.6146	0.00522599	0.00287569	0.00436364	-23.3599	2.5498	2.3408	1.01101	0.360834	0.155365	0.392861	23.2953	1560.3	3623.78	3945.42	-66.7047	0.0000000E+000	0.0000000E+000	0.0000000E+000	66.7047	0.0000000E+000	0.0000000E+000	0.0000000E+000	-66.7047	0.0000000E+000	0.0000000E+000	0.0000000E+000	-23.2953	0.0000000E+000	0.0000000E+000	0.0000000E+000	23.2953	2.32249	66.7047	-2.02512e-06	-0.00012132	1.10579e-09	-0.000121321	3.91059	126051	1.14892	126052
10002.2	2.62614	1.13961	2.86275	-23.4583	10.2406	3.91057	-0.0315823	13.9627	2.21265	1	9	0.00498132	0.00174005	0	-0.000141205	-0.000207461	1.30646e-05	-76.416	0.00750819	0.00176346	0.00729816	-23.578	2.86728	2.62791	1.1469	0.320444	0.139056	0.349315	23.4583	2212.65	5098.89	5558.28	-66.5417	0.0000000E+000	0.0000000E+000	0.0000000E+000	66.5417	0.0000000E+000	0.0000000E+000	0.0000000E+000	-66.5417	0.0000000E+000	0.0000000E+000	0.0000000E+000	-23.4583	0.0000000E+000	0.0000000E+000	0.0000000E+000	23.4583	2.30443	66.5417	-4.58329e-06	-0.000123505	6.5521e-09	-0.000123511	3.91078	123822	6.56892	123828
6309.38	2.94417	1.33029	3.23076	-24.3153	10.7605	3.91055	-0.0428305	18.9621	3.21492	1	9	0.00475119	0.00147061	0	-0.000144666	-0.000226552	4.42663e-06	-154.947	0.00301006	-0.00272685	0.00127465	-24.3558	3.2288	2.94144	1.33156	0.282068	0.127449	0.309525	24.3153	3214.92	7115.2	7807.8	-65.6847	0.0000000E+000	0.0000000E+000	0.0000000E+000	65.6847	0.0000000E+000	0.0000000E+000	0.0000000E+000	-65.6847	0.0000000E+000	0.0000000E+000	0.0000000E+000	-24.3153	0.0000000E+000	0.0000000E+000	0.0000000E+000	24.3153	2.21318	65.6847	-1.59229e-06	-0.000167491	9.70335e-09	-0.000167501	3.91078	91302.9	5.2895	91308.2
3983.6	3.25015	1.5531	3.60217	-25.541	11.3251	3.91029	-0.14779	25.7244	4.78207	1	9	0.00464389	0.00128919	0	-0.000156946	-0.000245643	1.46482e-05	-116.622	0.0113623	-0.00509141	0.0101577	-25.7217	3.60197	3.24506	1.56326	0.250482	0.119694	0.277611	25.541	4782.07	10007.4	11091.3	-64.459	0.0000000E+000	0.0000000E+000	0.0000000E+000	64.459	0.0000000E+000	0.0000000E+000	0.0000000E+000	-64.459	0.0000000E+000	0.0000000E+000	0.0000000E+000	-25.541	0.0000000E+000	0.0000000E+000	0.0000000E+000	25.541	2.09269	64.459	-9.83295e-06	-0.000577899	3.63035e-08	-0.000577935	3.91053	26458.5	1.66211	26460.1
2510.8	3.73451	1.83181	4.15958	-26.1283	12.3589	3.91048	-0.0489566	34.6041	6.71103	1	10	0.00476444	0.00114541	0	-0.000170371	-9.29162e-05	9.92982e-06	-58.8479	0.00866919	0.00448468	0.00741907	-26.1927	4.16687	3.73899	1.83922	0.215842	0.105872	0.240409	26.1283	6711.03	13681.8	15239.1	-63.8717	0.0000000E+000	0.0000000E+000	0.0000000E+000	63.8717	0.0000000E+000	0.0000000E+000	0.0000000E+000	-63.8717	0.0000000E+000	0.0000000E+000	0.0000000E+000	-26.1283	0.0000000E+000	0.0000000E+000	0.0000000E+000	26.1283	2.0387	63.8717	-4.89605e-06	-0.000191443	4.54886e-09	-0.000191448	3.91057	79876.4	1.89793	79878.3
1585.51	4.25949	2.1813	4.78553	-27.1172	13.2608	3.91048	-0.0480104	46.0189	9.56107	1	10	0.0046691	0.00097567	0	-0.000182	0.000403446	1.36982e-05	-14.6159	0.0140398	0.0135854	0.00354276	-27.0809	4.79924	4.27308	2.18484	0.185993	0.0952478	0.208963	27.1172	9561.07	18670.2	20975.9	-62.8828	0.0000000E+000	0.0000000E+000	0.0000000E+000	62.8828	0.0000000E+000	0.0000000E+000	0.0000000E+000	-62.8828	0.0000000E+000	0.0000000E+000	0.0000000E+000	-27.1172	0.0000000E+000	0.0000000E+000	0.0000000E+000	27.1172	1.95273	62.8828	-6.41816e-06	-0.000187743	-1.93696e-08	-0.000187724	3.91008	81450.7	8.40331	81442.3
1000.32	4.91738	2.58212	5.55409	-27.704	14.1628	3.91047	-0.0473026	61.6176	13.3178	1	10	0.00461692	0.000831265	0	-0.000194049	2.16289e-05	8.27382e-06	44.1802	0.00995328	0.00713801	-0.00693662	-27.6065	5.5572	4.92452	2.57518	0.159407	0.0837047	0.180047	27.704	13317.8	25362.3	28646.3	-62.296	0.0000000E+000	0.0000000E+000	0.0000000E+000	62.296	0.0000000E+000	0.0000000E+000	0.0000000E+000	-62.296	0.0000000E+000	0.0000000E+000	0.0000000E+000	-27.704	0.0000000E+000	0.0000000E+000	0.0000000E+000	27.704	1.9044	62.296	-6.35379e-06	-0.000184975	-1.0231e-09	-0.000184974	3.91045	82669.4	0.457245	82668.9
631.01	5.75014	3.04194	6.50519	-27.8797	15.0646	3.91048	-0.0469971	82.9152	18.1307	1	10	0.00459041	0.000705654	0	-0.000204979	7.89014e-05	7.87737e-06	-49.0066	0.0111632	0.00732276	0.00842583	-27.9151	6.5156	5.75746	3.05036	0.135881	0.0718837	0.153724	27.8797	18130.7	34272.3	38772.6	-62.1203	0.0000000E+000	0.0000000E+000	0.0000000E+000	62.1203	0.0000000E+000	0.0000000E+000	0.0000000E+000	-62.1203	0.0000000E+000	0.0000000E+000	0.0000000E+000	-27.8797	0.0000000E+000	0.0000000E+000	0.0000000E+000	27.8797	1.89029	62.1203	-5.13948e-06	-0.000183781	-3.70814e-09	-0.000183777	3.9104	83206.7	1.67886	83205
398.089	6.77819	3.4801	7.61938	-27.1772	15.9658	3.91049	-0.0462595	114.881	23.9658	1	10	0.0045582	0.000598237	0	-0.000215893	0.000231628	1.40031e-05	99.4545	0.0234072	-0.00384497	-0.0230893	-27.0356	7.60544	6.77434	3.45701	0.116755	0.0599449	0.131244	27.1772	23965.8	46678.2	52471.1	-62.8228	0.0000000E+000	0.0000000E+000	0.0000000E+000	62.8228	0.0000000E+000	0.0000000E+000	0.0000000E+000	-62.8228	0.0000000E+000	0.0000000E+000	0.0000000E+000	-27.1772	0.0000000E+000	0.0000000E+000	0.0000000E+000	27.1772	1.9477	62.8228	-5.84763e-06	-0.000180897	-1.0715e-08	-0.000180887	3.91026	84533.7	5.00715	84528.7
251.044	8.09378	3.79186	8.93797	-25.1026	16.8641	3.91047	-0.0469561	167.193	30.0915	1	10	0.00456217	0.000510426	0	-0.000227276	0.000155265	4.61142e-06	102.327	0.00903445	-0.00192872	-0.00882617	-25.0566	8.93249	8.09185	3.78303	0.101315	0.047465	0.111882	25.1026	30091.5	64230.7	70930.1	-64.8974	0.0000000E+000	0.0000000E+000	0.0000000E+000	64.8974	0.0000000E+000	0.0000000E+000	0.0000000E+000	-64.8974	0.0000000E+000	0.0000000E+000	0.0000000E+000	-25.1026	0.0000000E+000	0.0000000E+000	0.0000000E+000	25.1026	2.13452	64.8974	-6.01816e-06	-0.000183621	-7.29063e-09	-0.000183613	3.91031	83279.2	3.30659	83275.9
158.428	9.55473	3.82124	10.2905	-21.798	17.7689	3.91048	-0.0433501	262.895	36.2508	1	10	0.00455626	0.000442763	0	-0.000238578	-0.000131098	3.6671e-05	34.3771	0.0828231	0.0683572	-0.046765	-21.4167	10.3369	9.62309	3.77448	0.0902286	0.0360853	0.0971768	21.798	36250.8	90642.3	97622.5	-68.2019	0.0000000E+000	0.0000000E+000	0.0000000E+000	68.2019	0.0000000E+000	0.0000000E+000	0.0000000E+000	-68.2019	0.0000000E+000	0.0000000E+000	0.0000000E+000	-21.798	0.0000000E+000	0.0000000E+000	0.0000000E+000	21.798	2.50043	68.2019	-5.51094e-06	-0.00016952	5.68311e-09	-0.000169526	3.91061	90207	3.02416	90210
100.032	10.8976	3.51966	11.4519	-17.8991	18.6679	3.91048	-0.0430335	452.044	42.6998	1	10	0.00453749	0.000396221	0	-0.000249109	0.000212537	7.04176e-06	66.5945	0.0177723	0.0070598	-0.01631	-17.8106	11.4536	10.9047	3.50335	0.0830952	0.0268376	0.0873216	17.8991	42699.8	132208	138932	-72.1009	0.0000000E+000	0.0000000E+000	0.0000000E+000	72.1009	0.0000000E+000	0.0000000E+000	0.0000000E+000	-72.1009	0.0000000E+000	0.0000000E+000	0.0000000E+000	-17.8991	0.0000000E+000	0.0000000E+000	0.0000000E+000	17.8991	3.09622	72.1009	-4.72601e-06	-0.000168282	-9.14622e-09	-0.000168273	3.91027	90870.7	4.93888	90865.8
63.0823	12.0944	2.90143	12.4376	-13.4902	19.583	3.91049	-0.0407723	869.562	47.3209	1	10	0.00454836	0.000365695	0	-0.000259987	0.000193446	6.54886e-06	-52.5265	0.017908	0.0108951	0.0142124	-13.5421	12.4515	12.1053	2.91564	0.0781832	0.018756	0.0804015	13.4902	47320.9	197254	202851	-76.5098	0.0000000E+000	0.0000000E+000	0.0000000E+000	76.5098	0.0000000E+000	0.0000000E+000	0.0000000E+000	-76.5098	0.0000000E+000	0.0000000E+000	0.0000000E+000	-13.4902	0.0000000E+000	0.0000000E+000	0.0000000E+000	13.4902	4.16844	76.5098	-5.23895e-06	-0.00015944	-7.88725e-09	-0.000159432	3.9103	95910.5	4.74456	95905.8
39.8089	12.8351	2.24823	13.0305	-9.93531	20.4839	3.91047	-0.0446577	1778.27	52.937	1	10	0.00454548	0.000348834	0	-0.000271408	0.000117083	9.21673e-06	71.6245	0.0264215	0.00832919	-0.0250743	-9.82043	13.0344	12.8434	2.22316	0.0755921	0.013241	0.076743	9.93531	52937	302215	306816	-80.0647	0.0000000E+000	0.0000000E+000	0.0000000E+000	80.0647	0.0000000E+000	0.0000000E+000	0.0000000E+000	-80.0647	0.0000000E+000	0.0000000E+000	0.0000000E+000	-9.93531	0.0000000E+000	0.0000000E+000	0.0000000E+000	9.93531	5.70896	80.0647	-5.4916e-06	-0.000174633	-5.22866e-09	-0.000174628	3.91036	87565.5	2.62179	87562.9
25.1044	13.3096	1.6763	13.4147	-7.17841	21.3631	3.91048	-0.0426312	3781.97	59.0549	1	10	0.00454787	0.000339021	0	-0.000282491	-5.47345e-05	8.77279e-06	3.65548	0.0258769	0.0258242	-0.00164983	-7.15767	13.4402	13.3354	1.67465	0.0739605	0.00931507	0.0745448	7.17841	59054.9	468889	472593	-82.8216	0.0000000E+000	0.0000000E+000	0.0000000E+000	82.8216	0.0000000E+000	0.0000000E+000	0.0000000E+000	-82.8216	0.0000000E+000	0.0000000E+000	0.0000000E+000	-7.17841	0.0000000E+000	0.0000000E+000	0.0000000E+000	7.17841	7.93988	82.8216	-5.12938e-06	-0.000166708	2.3334e-09	-0.000166711	3.91053	91728.2	1.28391	91729.5
15.8576	13.5675	1.23879	13.624	-5.21693	22.2411	3.91046	-0.0500406	8101.9	66.9841	1	10	0.00453705	0.00033302	0	-0.000295486	0.000403446	6.81263e-06	20.6898	0.0204571	0.0191378	-0.00722766	-5.17939	13.6424	13.5867	1.23156	0.0730959	0.00667403	0.0734	5.21693	66984.1	733629	736681	-84.7831	0.0000000E+000	0.0000000E+000	0.0000000E+000	84.7831	0.0000000E+000	0.0000000E+000	0.0000000E+000	-84.7831	0.0000000E+000	0.0000000E+000	0.0000000E+000	-5.21693	0.0000000E+000	0.0000000E+000	0.0000000E+000	5.21693	10.9523	84.7831	-7.07004e-06	-0.000195682	-2.01887e-08	-0.000195662	3.91006	78145.8	8.06236	78137.7
10.0032	13.826	0.879998	13.854	-3.64185	23.5058	3.91052	-0.032607	18080	72.948	1	11	0.00454247	0.000327882	0	-0.000305955	0.000117083	9.50724e-06	-10.2909	0.0289959	0.0285295	0.00518	-3.65571	13.8828	13.8545	0.885178	0.0720356	0.00458493	0.0721814	3.64185	72948.1	1.14612e+06	1.14844e+06	-86.3581	0.0000000E+000	0.0000000E+000	0.0000000E+000	86.3581	0.0000000E+000	0.0000000E+000	0.0000000E+000	-86.3581	0.0000000E+000	0.0000000E+000	0.0000000E+000	-3.64185	0.0000000E+000	0.0000000E+000	0.0000000E+000	3.64185	15.7114	86.3581	-5.95537e-06	-0.00012751	-3.81772e-09	-0.000127507	3.91041	119929	3.59074	119925
6.31058	13.9335	0.677867	13.9499	-2.78526	24.4293	3.91053	-0.0323967	37205.4	87.8519	1	11	0.0045371	0.000325242	0	-0.00031161	2.53801e-06	1.01458e-05	-4.09766	0.0311946	0.0311148	0.00222906	-2.78819	13.9811	13.9646	0.680096	0.0716003	0.00348338	0.0716849	2.78526	87851.9	1.80578e+06	1.80792e+06	-87.2147	0.0000000E+000	0.0000000E+000	0.0000000E+000	87.2147	0.0000000E+000	0.0000000E+000	0.0000000E+000	-87.2147	0.0000000E+000	0.0000000E+000	0.0000000E+000	-2.78526	0.0000000E+000	0.0000000E+000	0.0000000E+000	2.78526	20.5548	87.2147	-3.11124e-06	-0.000126688	-8.22232e-11	-0.000126688	3.91053	120708	0.0783418	120708
3.97785	14.0452	0.58596	14.0574	-2.38898	25.4363	3.91054	-0.0309746	68281.6	118.64	1	11	0.00454226	0.000323123	0	-0.000322798	0.000136174	3.46038e-06	-16.0991	0.0107092	0.0102892	0.00296966	-2.39932	14.0678	14.0555	0.58893	0.0710752	0.00296524	0.071137	2.38898	118640	2.84374e+06	2.84621e+06	-87.611	0.0000000E+000	0.0000000E+000	0.0000000E+000	87.611	0.0000000E+000	0.0000000E+000	0.0000000E+000	-87.611	0.0000000E+000	0.0000000E+000	0.0000000E+000	-2.38898	0.0000000E+000	0.0000000E+000	0.0000000E+000	2.38898	23.9695	87.611	-3.82767e-06	-0.000121128	-4.21794e-09	-0.000121123	3.91041	126250	4.39631	126246
2.51367	14.1405	0.521381	14.1501	-2.11162	26.996	3.91054	-0.0296599	121438	164.872	1	11	0.00454523	0.000321215	0	-0.000329538	0.000174356	4.16176e-06	29.197	0.0129563	0.0113102	-0.00632025	-2.08438	14.1612	14.1518	0.515061	0.0706229	0.00260397	0.0706709	2.11162	164872	4.47154e+06	4.47458e+06	-87.8884	0.0000000E+000	0.0000000E+000	0.0000000E+000	87.8884	0.0000000E+000	0.0000000E+000	0.0000000E+000	-87.8884	0.0000000E+000	0.0000000E+000	0.0000000E+000	-2.11162	0.0000000E+000	0.0000000E+000	0.0000000E+000	2.11162	27.1212	87.8884	-5.27149e-06	-0.000115987	-5.17138e-09	-0.000115981	3.91037	131846	5.87849	131840
1.58469	14.2256	0.562599	14.2367	-2.26478	29.4306	3.91054	-0.0289603	178516	278.777	1	11	0.00454076	0.000318947	0	-0.000360203	0.000155265	3.45486e-06	-10.6625	0.0108321	0.0106451	0.00200418	-2.27114	14.2474	14.2362	0.564604	0.0701861	0.00277575	0.0702409	2.26478	278777	7.04901e+06	7.05452e+06	-87.7352	0.0000000E+000	0.0000000E+000	0.0000000E+000	87.7352	0.0000000E+000	0.0000000E+000	0.0000000E+000	-87.7352	0.0000000E+000	0.0000000E+000	0.0000000E+000	-2.26478	0.0000000E+000	0.0000000E+000	0.0000000E+000	2.26478	25.2855	87.7352	-1.79091e-05	-0.00011325	-4.49651e-09	-0.000113246	3.91038	135031	5.36131	135026
1.00469	14.8308	0.650247	14.845	-2.51049	240.25	3.9105	-0.0215814	243617	467.415	1	11	0.00497839	0.000335357	0	-0.0030853	-9.29162e-05	3.04425e-07	147.544	0.000907765	-0.000765977	-0.000487152	-2.50874	14.8442	14.83	0.64976	0.067298	0.00295064	0.0673626	2.51049	467415	1.06608e+07	1.0671e+07	-87.4895	0.0000000E+000	0.0000000E+000	0.0000000E+000	87.4895	0.0000000E+000	0.0000000E+000	0.0000000E+000	-87.4895	0.0000000E+000	0.0000000E+000	0.0000000E+000	-2.51049	0.0000000E+000	0.0000000E+000	0.0000000E+000	2.51049	22.8079	87.4895	-0.00270737	-8.4394e-05	2.00526e-09	-8.4396e-05	3.91059	181198	4.30539	181202
0.632957	14.9761	0.795492	14.9972	-3.04054	240.252	3.9105	-0.0215814	316090	889.323	1	11	0.00499063	0.00033277	0	-0.0030853	-9.29162e-05	2.5666e-07	-169.604	0.000771282	-0.000758621	0.000139175	-3.04123	14.9965	14.9754	0.795631	0.0665851	0.00353682	0.066679	3.04054	889323	1.67426e+07	1.67662e+07	-86.9595	0.0000000E+000	0.0000000E+000	0.0000000E+000	86.9595	0.0000000E+000	0.0000000E+000	0.0000000E+000	-86.9595	0.0000000E+000	0.0000000E+000	0.0000000E+000	-3.04054	0.0000000E+000	0.0000000E+000	0.0000000E+000	3.04054	18.8262	86.9595	0.000000000000000E+000	-8.4394e-05	2.00526e-09	-8.4396e-05	3.91059	181198	4.30539	181202
0.401878	15.0789	1.02199	15.1135	-3.87736	240.253	3.9105	-0.0215814	387507	1771.92	1	11	0.00500472	0.000331142	0	-0.0030853	-9.29162e-05	1.90575e-07	-78.5037	0.000575508	0.000114702	0.000563961	-3.87946	15.1136	15.079	1.02255	0.0660146	0.00447422	0.066166	3.87736	1.77192e+06	2.61437e+07	2.62036e+07	-86.1226	0.0000000E+000	0.0000000E+000	0.0000000E+000	86.1226	0.0000000E+000	0.0000000E+000	0.0000000E+000	-86.1226	0.0000000E+000	0.0000000E+000	0.0000000E+000	-3.87736	0.0000000E+000	0.0000000E+000	0.0000000E+000	3.87736	14.7544	86.1226	0.000000000000000E+000	-8.4394e-05	2.00526e-09	-8.4396e-05	3.91059	181198	4.30539	181202
0.251173	15.3875	1.29047	15.4415	-4.79391	240.255	3.9105	-0.0215814	491017	3429.4	1	11	0.00500457	0.000324099	0	-0.0030853	-9.29162e-05	5.85538e-07	-3.27863	0.00180666	0.0018037	0.000103326	-4.79374	15.4433	15.3893	1.29058	0.0645341	0.00541218	0.0647607	4.79391	3.4294e+06	4.08917e+07	4.10353e+07	-85.2061	0.0000000E+000	0.0000000E+000	0.0000000E+000	85.2061	0.0000000E+000	0.0000000E+000	0.0000000E+000	-85.2061	0.0000000E+000	0.0000000E+000	0.0000000E+000	-4.79391	0.0000000E+000	0.0000000E+000	0.0000000E+000	4.79391	11.9239	85.2061	0.000000000000000E+000	-8.4394e-05	2.00526e-09	-8.4396e-05	3.91059	181198	4.30539	181202
0.160751	15.6718	1.52307	15.7456	-5.55089	240.256	3.9105	-0.0215814	650049	6082.29	1	11	0.00500159	0.000317649	0	-0.0030853	-9.29162e-05	4.38598e-07	146.349	0.00138076	-0.00114939	-0.000765117	-5.54852	15.7444	15.6706	1.52231	0.0632119	0.00614329	0.0635097	5.55089	6.08229e+06	6.25843e+07	6.28791e+07	-84.4491	0.0000000E+000	0.0000000E+000	0.0000000E+000	84.4491	0.0000000E+000	0.0000000E+000	0.0000000E+000	-84.4491	0.0000000E+000	0.0000000E+000	0.0000000E+000	-5.55089	0.0000000E+000	0.0000000E+000	0.0000000E+000	5.55089	10.2896	84.4491	0.000000000000000E+000	-8.4394e-05	2.00526e-09	-8.4396e-05	3.91059	181198	4.30539	181202
0.100469	15.9624	2.24299	16.1192	-7.99866	240.257	3.9105	-0.0215814	706251	13674.9	1	11	0.00500411	0.000310443	0	-0.0030853	-9.29162e-05	2.81441e-07	30.1284	0.000906577	0.000784101	-0.000455047	-7.99667	16.12	15.9632	2.24254	0.0614341	0.00863254	0.0620377	7.99866	1.36749e+07	9.73187e+07	9.82747e+07	-82.0013	0.0000000E+000	0.0000000E+000	0.0000000E+000	82.0013	0.0000000E+000	0.0000000E+000	0.0000000E+000	-82.0013	0.0000000E+000	0.0000000E+000	0.0000000E+000	-7.99866	0.0000000E+000	0.0000000E+000	0.0000000E+000	7.99866	7.11658	82.0013	0.000000000000000E+000	-8.4394e-05	2.00526e-09	-8.4396e-05	3.91059	181198	4.30539	181202
0.0602816	16.4802	2.88608	16.731	-9.93311	240.259	3.9105	-0.0215814	914802	27220.6	1	11	0.00499978	0.000298833	0	-0.0030853	-9.29162e-05	2.63694e-07	94.8621	0.000882414	-7.47912e-05	-0.000879239	-9.93019	16.7308	16.4802	2.8852	0.0588732	0.0103101	0.0597691	9.93311	2.72206e+07	1.55436e+08	1.57802e+08	-80.0669	0.0000000E+000	0.0000000E+000	0.0000000E+000	80.0669	0.0000000E+000	0.0000000E+000	0.0000000E+000	-80.0669	0.0000000E+000	0.0000000E+000	0.0000000E+000	-9.93311	0.0000000E+000	0.0000000E+000	0.0000000E+000	9.93311	5.71026	80.0669	0.000000000000000E+000	-8.4394e-05	2.00526e-09	-8.4396e-05	3.91059	181198	4.30539	181202
0.0401878	17.3606	3.52968	17.7158	-11.4925	240.26	3.9105	-0.0215814	1.122e+06	44539	1	11	0.00499921	0.000282189	0	-0.0030853	-9.29162e-05	4.10034e-07	48.263	0.00145305	0.000967312	-0.00108427	-11.4884	17.7165	17.3616	3.5286	0.0553151	0.0112464	0.0564468	11.4925	4.45389e+07	2.19063e+08	2.23545e+08	-78.5075	0.0000000E+000	0.0000000E+000	0.0000000E+000	78.5075	0.0000000E+000	0.0000000E+000	0.0000000E+000	-78.5075	0.0000000E+000	0.0000000E+000	0.0000000E+000	-11.4925	0.0000000E+000	0.0000000E+000	0.0000000E+000	11.4925	4.91847	78.5075	0.000000000000000E+000	-8.4394e-05	2.00526e-09	-8.4396e-05	3.91059	181198	4.30539	181202
0.0200939	19.1677	5.86187	20.044	-17.0047	240.262	3.9105	-0.0215814	1.3512e+06	115564	1	11	0.00499939	0.000249421	0	-0.0030853	-9.29162e-05	1.12446e-06	-48.2168	0.00450828	0.00300393	0.00336169	-17.0113	20.0479	19.1707	5.86523	0.047709	0.0145904	0.0498902	17.0047	1.15564e+08	3.77883e+08	3.95158e+08	-72.9953	0.0000000E+000	0.0000000E+000	0.0000000E+000	72.9953	0.0000000E+000	0.0000000E+000	0.0000000E+000	-72.9953	0.0000000E+000	0.0000000E+000	0.0000000E+000	-17.0047	0.0000000E+000	0.0000000E+000	0.0000000E+000	17.0047	3.2699	72.9953	0.000000000000000E+000	-8.4394e-05	2.00526e-09	-8.4396e-05	3.91059	181198	4.30539	181202
0.00796479	23.1509	7.42651	24.3129	-17.7855	20329.2	3.91053	-0.000228869	2.69068e+06	251047	1	11	0.00499394	0.000205403	0	-0.0185417	0.000174356	1.31237e-07	-102.169	0.000638926	-0.000134687	0.000624568	-17.787	24.313	23.1508	7.42713	0.0391646	0.0125635	0.0411304	17.7855	2.51047e+08	7.826e+08	8.2188e+08	-72.2145	0.0000000E+000	0.0000000E+000	0.0000000E+000	72.2145	0.0000000E+000	0.0000000E+000	0.0000000E+000	-72.2145	0.0000000E+000	0.0000000E+000	0.0000000E+000	-17.7855	0.0000000E+000	0.0000000E+000	0.0000000E+000	17.7855	3.11734	72.2145	-0.0154564	-8.94998e-07	-3.99045e-11	-8.94958e-07	3.91036	1.70864e+07	761.816	1.70856e+07
0.00497799	26.0476	7.88912	27.2161	-16.8501	20329.2	3.91053	-0.000228869	4.05264e+06	340520	1	11	0.00500153	0.000183771	0	-0.0185417	0.000174356	3.49626e-07	-128.347	0.00190251	-0.00118035	0.00149208	-16.8539	27.2154	26.0464	7.89061	0.0351654	0.0106507	0.0367429	16.8501	3.4052e+08	1.1243e+09	1.17474e+09	-73.1499	0.0000000E+000	0.0000000E+000	0.0000000E+000	73.1499	0.0000000E+000	0.0000000E+000	0.0000000E+000	-73.1499	0.0000000E+000	0.0000000E+000	0.0000000E+000	-16.8501	0.0000000E+000	0.0000000E+000	0.0000000E+000	16.8501	3.30172	73.1499	0.000000000000000E+000	-8.94998e-07	-3.99045e-11	-8.94958e-07	3.91036	1.70864e+07	761.816	1.70856e+07
0.00318591	28.0031	9.9343	29.713	-19.5325	20329.2	3.91053	-0.000228869	5.02862e+06	562122	1	11	0.00500367	0.0001684	0	-0.0185417	0.000174356	5.10524e-07	-132.7	0.00303162	-0.00205592	0.00222798	-19.5379	29.7118	28.001	9.93653	0.0317185	0.0112524	0.0336553	19.5325	5.62122e+08	1.58452e+09	1.68128e+09	-70.4675	0.0000000E+000	0.0000000E+000	0.0000000E+000	70.4675	0.0000000E+000	0.0000000E+000	0.0000000E+000	-70.4675	0.0000000E+000	0.0000000E+000	0.0000000E+000	-19.5325	0.0000000E+000	0.0000000E+000	0.0000000E+000	19.5325	2.81882	70.4675	0.000000000000000E+000	-8.94998e-07	-3.99045e-11	-8.94958e-07	3.91036	1.70864e+07	761.816	1.70856e+07
0.0019912	30.0627	10.6739	31.9014	-19.5477	20329.2	3.91053	-0.000228869	7.48829e+06	838322	1	11	0.00500749	0.000156968	0	-0.0185417	0.000174356	4.76614e-07	47.432	0.00303638	0.002054	-0.00223622	-19.5426	31.9026	30.0647	10.6717	0.0295399	0.0104883	0.0313466	19.5477	8.38322e+08	2.3611e+09	2.50551e+09	-70.4523	0.0000000E+000	0.0000000E+000	0.0000000E+000	70.4523	0.0000000E+000	0.0000000E+000	0.0000000E+000	-70.4523	0.0000000E+000	0.0000000E+000	0.0000000E+000	-19.5477	0.0000000E+000	0.0000000E+000	0.0000000E+000	19.5477	2.81647	70.4523	0.000000000000000E+000	-8.94998e-07	-3.99045e-11	-8.94958e-07	3.91036	1.70864e+07	761.816	1.70856e+07
0.00129428	30.4717	12.709	33.0158	-22.6398	20329.2	3.91053	-0.000228869	9.67567e+06	1.4337e+06	1	11	0.00501036	0.000151756	0	-0.0185417	0.000174356	1.17674e-06	-30.56	0.00775417	0.0066771	0.00394253	-22.6417	33.0235	30.4784	12.7129	0.0279546	0.0116591	0.0302885	22.6398	1.4337e+09	3.43752e+09	3.72452e+09	-67.3602	0.0000000E+000	0.0000000E+000	0.0000000E+000	67.3602	0.0000000E+000	0.0000000E+000	0.0000000E+000	-67.3602	0.0000000E+000	0.0000000E+000	0.0000000E+000	-22.6398	0.0000000E+000	0.0000000E+000	0.0000000E+000	22.6398	2.39765	67.3602	0.000000000000000E+000	-8.94998e-07	-3.99045e-11	-8.94958e-07	3.91036	1.70864e+07	761.816	1.70856e+07
0.000796479	34.0362	16.4829	37.8174	-25.8398	20329.2	3.91053	-0.000228869	1.2123e+07	2.30302e+06	1	11	0.00500528	0.000132354	0	-0.0185417	0.000174356	1.60112e-06	-78.0668	0.0120973	0.00250137	0.0118358	-25.8543	37.8248	34.0388	16.4948	0.023799	0.0115253	0.0264429	25.8398	2.30302e+09	4.7556e+09	5.2839e+09	-64.1602	0.0000000E+000	0.0000000E+000	0.0000000E+000	64.1602	0.0000000E+000	0.0000000E+000	0.0000000E+000	-64.1602	0.0000000E+000	0.0000000E+000	0.0000000E+000	-25.8398	0.0000000E+000	0.0000000E+000	0.0000000E+000	25.8398	2.06494	64.1602	0.000000000000000E+000	-8.94998e-07	-3.99045e-11	-8.94958e-07	3.91036	1.70864e+07	761.816	1.70856e+07
0.000497799	33.2841	22.0399	39.9198	-33.5115	20329.2	3.91053	-0.000228869	1.45063e+07	4.4218e+06	1	11	0.00501045	0.000125513	0	-0.0185417	0.000174356	1.349e-06	28.0838	0.0107479	0.00948246	-0.00505971	-33.498	39.9249	33.2936	22.0349	0.0208862	0.0138304	0.0250502	33.5115	4.4218e+09	6.67769e+09	8.00899e+09	-56.4885	0.0000000E+000	0.0000000E+000	0.0000000E+000	56.4885	0.0000000E+000	0.0000000E+000	0.0000000E+000	-56.4885	0.0000000E+000	0.0000000E+000	0.0000000E+000	-33.5115	0.0000000E+000	0.0000000E+000	0.0000000E+000	33.5115	1.51017	56.4885	0.000000000000000E+000	-8.94998e-07	-3.99045e-11	-8.94958e-07	3.91036	1.70864e+07	761.816	1.70856e+07
0.000298679	32.9314	32.0872	45.979	-44.2561	20329.2	3.91053	-0.000228869	1.66067e+07	8.08775e+06	1	11	0.0050072	0.000108902	0	-0.0185417	0.000174356	2.952e-06	88.7025	0.027107	0.000613816	-0.0271	-44.2314	45.9605	32.932	32.0601	0.0155773	0.0151779	0.0217491	44.2561	8.08775e+09	8.30054e+09	1.15892e+10	-45.7439	0.0000000E+000	0.0000000E+000	0.0000000E+000	45.7439	0.0000000E+000	0.0000000E+000	0.0000000E+000	-45.7439	0.0000000E+000	0.0000000E+000	0.0000000E+000	-44.2561	0.0000000E+000	0.0000000E+000	0.0000000E+000	44.2561	1.02631	45.7439	0.000000000000000E+000	-8.94998e-07	-3.99045e-11	-8.94958e-07	3.91036	1.70864e+07	761.816	1.70856e+07
9.95598e-05	45.3394	111.508	120.373	-67.8732	20329.2	3.91053	-0.000228869	1.43361e+07	1.23022e+07	1	11	0.00501625	4.16725e-05	0	-0.0185417	0.000174356	3.1227e-06	-19.3724	0.0749343	0.0706917	0.0248562	-67.8465	120.423	45.4101	111.533	0.00312908	0.00769568	0.00830751	67.8732	1.23022e+10	5.0021e+09	1.32803e+10	-22.1268	0.0000000E+000	0.0000000E+000	0.0000000E+000	22.1268	0.0000000E+000	0.0000000E+000	0.0000000E+000	-22.1268	0.0000000E+000	0.0000000E+000	0.0000000E+000	-67.8732	0.0000000E+000	0.0000000E+000	0.0000000E+000	67.8732	0.406602	22.1268	0.000000000000000E+000	-8.94998e-07	-3.99045e-11	-8.94958e-07	3.91036	1.70864e+07	761.816	1.70856e+07