File: txt/19121_R311_UC96_SOC50_C03.mpt
EC-Lab ASCII FILE
Nb header lines : 65

Potentio Electrochemical Impedance Spectroscopy

Run on channel : 3 (SN 65921)
Grouped channel(s) : 1, 2, 3, 4
User :
CE vs. WE compliance from -10 V to 10 V
Electrode connection : standard
Potential control : Ewe
Ewe ctrl range : min = -10.00 V, max = 10.00 V
Safety Limits :
	Do not start on E overload
Acquisition started on : 11/11/2025 16:20:14.228
Loaded Setting File :  C:\Users\Celltest\OneDrive - store-dot.com\Documents\EC-Lab\Data\@Biologic Test Protocols\cathode half cell EIS SOC50.mps
Saved on :
	File : 19119_R311_UC96_SOC50_C03.mpr
	Directory : C:\Users\Celltest\OneDrive - store-dot.com\Documents\EC-Lab\Data\Gyutae\
	Host : 169.254.61.224
Device : VMP-3e (SN .003165)
Address : USB
EC-LAB for windows v11.62 (software)
Internet server v27.00 (firmware)
Command interpretor v12.03 (firmware)
Electrode material :
Initial state :
Electrolyte :
Comments :
Electrode surface area : 0.001 cm²
Characteristic mass : 0.001 g
Equivalent Weight : 0.000 g/eq.
Density : 0.000 g/cm3
Volume (V) : 0.001 cm³
Record Ece
Cycle Definition : Charge/Discharge alternance
Mode                Multi sine
E (V)               0.0000
vs.                 Eoc
tE (h:m:s)          0:00:0.0000
record              0
dI                  0.000
unit dI             mA
dt (s)              0.000
fi                  1.000
unit fi             MHz
ff                  0.100
unit ff             mHz
Nd                  10
Points              per decade
spacing             Logarithmic
Va (mV)             5.0
pw                  0.10
Na                  2
corr                0
E range min (V)     -10.000
E range max (V)     10.000
I Range             Auto
Bandwidth           5
nc cycles           0
goto Ns'            0
nr cycles           0
inc. cycle          0

freq/Hz	Re(Z)/Ohm	-Im(Z)/Ohm	|Z|/Ohm	Phase(Z)/deg	time/s	<Ewe>/V	<I>/mA	Cs/µF	Cp/µF	cycle number	I Range	|Ewe|/V	|I|/A	Ns	(Q-Qo)/mA.h	<Ece>/V	|Ece|/V	Phase(Zce)/deg	|Zce|/Ohm	Re(Zce)/Ohm	-Im(Zce)/Ohm	Phase(Zwe-ce)/deg	|Zwe-ce|/Ohm	Re(Zwe-ce)/Ohm	-Im(Zwe-ce)/Ohm	Re(Y)/Ohm-1	Im(Y)/Ohm-1	|Y|/Ohm-1	Phase(Y)/deg	Re(C)/nF	Im(C)/nF	|C|/nF	Phase(C)/deg	Re(M)	Im(M)	|M|	Phase(M)/deg	Re(Permittivity)	Im(Permittivity)	|Permittivity|	Phase(Permittivity)/deg	Re(Resistivity)/Ohm.cm	Im(Resistivity)/Ohm.cm	|Resistivity|/Ohm.cm	Phase(Resistivity)/deg	Re(Conductivity)/mS/cm	Im(Conductivity)/mS/cm	|Conductivity|/mS/cm	Phase(Conductivity)/deg	Tan(Delta)	Loss Angle(Delta)/deg	dq/mA.h	Pwe/W	Pce/W	Pwe-ce/W	<Ewe-Ece>/V	Rwe/Ohm	Rce/Ohm	Rwe-ce/Ohm		Ewe-Ece/V
1.00002e+06	2.40253	2.54967	3.50328	-46.7018	2.23353	3.91163	-0.00660822	0.0624207	0.0330633	1	10	0.000221651	6.32696e-05	0	-1.29263e-05	-0.000214507	0.000201031	-66.2575	3.17737	1.27929	2.90845	-55.998	6.58383	3.68182	5.45812	0.195758	0.207747	0.285447	46.7018	33.0633	31.1553	45.4294	-43.2982	0.0000000E+000	0.0000000E+000	0.0000000E+000	43.2982	0.0000000E+000	0.0000000E+000	0.0000000E+000	-43.2982	0.0000000E+000	0.0000000E+000	0.0000000E+000	-46.7018	0.0000000E+000	0.0000000E+000	0.0000000E+000	46.7018	0.942292	43.2982	-1.29263e-05	-2.58489e-05	1.41751e-09	-2.58503e-05	3.91184	591933	32.4607	591966
630957	0.78485	-0.106802	0.792084	7.74921	3.40253	3.91129	0.00376018	-2.36178	-0.0429397	1	9	0.000242772	0.000306499	0	-1.36088e-05	-2.35668e-05	0.000111718	-104.825	0.364498	-0.0932612	0.352365	-19.5484	0.733891	0.691589	0.245563	1.25096	-0.170231	1.26249	-7.74921	-42.9397	315.548	318.456	-97.7492	0.0000000E+000	0.0000000E+000	0.0000000E+000	97.7492	0.0000000E+000	0.0000000E+000	0.0000000E+000	-97.7492	0.0000000E+000	0.0000000E+000	0.0000000E+000	7.74921	0.0000000E+000	0.0000000E+000	0.0000000E+000	-7.74921	7.34862	82.2508	5.24562e-07	1.47072e-05	-8.86154e-11	1.47072e-05	3.91131	1.04018e+06	6.26745	1.04019e+06
398103	1.064	0.0137923	1.06409	-0.742664	4.16852	3.91137	0.0137922	28.9859	0.00486971	1	9	0.000948189	0.000891078	0	-1.09848e-05	-0.000176319	6.18833e-05	173.213	0.0694477	-0.068961	-0.0082077	-0.321566	0.995058	0.995042	0.00558461	0.939689	0.0121809	0.939768	0.742664	4.86973	375.672	375.703	-89.2573	0.0000000E+000	0.0000000E+000	0.0000000E+000	89.2573	0.0000000E+000	0.0000000E+000	0.0000000E+000	-89.2573	0.0000000E+000	0.0000000E+000	0.0000000E+000	-0.742664	0.0000000E+000	0.0000000E+000	0.0000000E+000	0.742664	77.1446	89.2573	2.18122e-06	5.39463e-05	-2.43182e-09	5.39487e-05	3.91155	283594	12.784	283606
251206	1.19221	0.213066	1.2111	-10.1326	4.93456	3.91125	0.0117038	2.97356	0.0920324	1	9	0.00290454	0.00239826	0	-7.82461e-06	-0.000138131	5.19131e-05	114.674	0.0216461	-0.00903644	-0.0196697	-9.28317	1.19888	1.18318	0.193396	0.812815	0.145262	0.825693	10.1326	92.0324	514.97	523.129	-79.8674	0.0000000E+000	0.0000000E+000	0.0000000E+000	79.8674	0.0000000E+000	0.0000000E+000	0.0000000E+000	-79.8674	0.0000000E+000	0.0000000E+000	0.0000000E+000	-10.1326	0.0000000E+000	0.0000000E+000	0.0000000E+000	10.1326	5.59552	79.8674	1.39633e-06	4.57763e-05	-1.61666e-09	4.5778e-05	3.91138	334187	11.8023	334198
158486	1.29084	0.351143	1.33774	-15.2178	5.57652	3.9112	0.00763879	2.85986	0.197046	1	9	0.00531645	0.00397419	0	3.77055e-06	-4.26608e-05	4.65097e-05	73.9401	0.0117029	0.00323752	-0.0112462	-14.7167	1.33797	1.29407	0.339897	0.721315	0.196218	0.747528	15.2178	197.046	724.359	750.682	-74.7822	0.0000000E+000	0.0000000E+000	0.0000000E+000	74.7822	0.0000000E+000	0.0000000E+000	0.0000000E+000	-74.7822	0.0000000E+000	0.0000000E+000	0.0000000E+000	-15.2178	0.0000000E+000	0.0000000E+000	0.0000000E+000	15.2178	3.6761	74.7822	1.12971e-05	2.98769e-05	-3.25877e-10	2.98772e-05	3.91125	512019	5.58476	512025
100004	1.40446	0.455642	1.47652	-17.9743	6.34455	3.91119	0.016179	3.49285	0.332618	1	9	0.00537199	0.00363827	0	1.3138e-05	-6.17549e-05	4.30938e-05	77.9644	0.0118446	0.00246983	-0.0115842	-17.5168	1.47535	1.40693	0.444058	0.644212	0.208998	0.677266	17.9743	332.618	1025.26	1077.86	-72.0257	0.0000000E+000	0.0000000E+000	0.0000000E+000	72.0257	0.0000000E+000	0.0000000E+000	0.0000000E+000	-72.0257	0.0000000E+000	0.0000000E+000	0.0000000E+000	-17.9743	0.0000000E+000	0.0000000E+000	0.0000000E+000	17.9743	3.08238	72.0257	5.35026e-06	6.32791e-05	-9.99133e-10	6.32801e-05	3.91125	241744	3.81698	241748
63093.8	1.54265	0.580962	1.64842	-20.6363	7.11052	3.91117	0.00364839	4.34195	0.539317	1	9	0.00524018	0.0031789	0	1.79991e-05	-0.000176319	2.19444e-05	43.0489	0.00690315	0.00504462	-0.00471225	-20.4217	1.65149	1.5477	0.57625	0.567716	0.213802	0.606641	20.6363	539.317	1432.07	1530.26	-69.3637	0.0000000E+000	0.0000000E+000	0.0000000E+000	69.3637	0.0000000E+000	0.0000000E+000	0.0000000E+000	-69.3637	0.0000000E+000	0.0000000E+000	0.0000000E+000	-20.6363	0.0000000E+000	0.0000000E+000	0.0000000E+000	20.6363	2.65534	69.3637	1.61921e-06	1.42695e-05	-6.43281e-10	1.42701e-05	3.91135	1.07203e+06	48.328	1.07208e+06
39814.1	1.72313	0.712537	1.86464	-22.4658	7.87653	3.91117	0.0202813	5.61017	0.819221	1	9	0.00525664	0.00281912	0	1.70816e-05	0.000186468	1.51961e-05	-11.6333	0.00539038	0.00527965	0.00108695	-22.4347	1.86994	1.72841	0.713624	0.495596	0.204936	0.536296	22.4658	819.221	1981.12	2143.82	-67.5342	0.0000000E+000	0.0000000E+000	0.0000000E+000	67.5342	0.0000000E+000	0.0000000E+000	0.0000000E+000	-67.5342	0.0000000E+000	0.0000000E+000	0.0000000E+000	-22.4658	0.0000000E+000	0.0000000E+000	0.0000000E+000	22.4658	2.4183	67.5342	-3.24269e-06	7.93238e-05	3.78182e-09	7.932e-05	3.91099	192846	9.19408	192837
25116.9	1.95747	0.842502	2.13108	-23.2872	8.64156	3.91118	0.0153958	7.52113	1.17551	1	9	0.00524698	0.00246212	0	2.52421e-05	5.28095e-05	1.05467e-05	-111.825	0.00428356	-0.00159252	0.00397653	-23.4023	2.13119	1.95588	0.846479	0.431019	0.185512	0.469246	23.2872	1175.51	2731.18	2973.41	-66.7128	0.0000000E+000	0.0000000E+000	0.0000000E+000	66.7128	0.0000000E+000	0.0000000E+000	0.0000000E+000	-66.7128	0.0000000E+000	0.0000000E+000	0.0000000E+000	-23.2872	0.0000000E+000	0.0000000E+000	0.0000000E+000	23.2872	2.3234	66.7128	4.60713e-06	6.02159e-05	8.13047e-10	6.02151e-05	3.91113	254041	3.43011	254038
15847.7	2.2039	0.962245	2.40481	-23.5865	9.40752	3.91118	0.018342	10.4368	1.67101	1	9	0.00515951	0.0021455	0	2.66212e-05	-4.47269e-06	5.40534e-06	-89.3733	0.00251939	2.75544e-05	0.00251923	-23.6413	2.40584	2.20393	0.964764	0.381094	0.166389	0.415834	23.5865	1671.01	3827.24	4176.13	-66.4135	0.0000000E+000	0.0000000E+000	0.0000000E+000	66.4135	0.0000000E+000	0.0000000E+000	0.0000000E+000	-66.4135	0.0000000E+000	0.0000000E+000	0.0000000E+000	-23.5865	0.0000000E+000	0.0000000E+000	0.0000000E+000	23.5865	2.29038	66.4135	1.12452e-06	7.1739e-05	-8.20383e-11	7.1739e-05	3.91119	213236	0.24385	213236
10002.2	2.4916	1.09827	2.72292	-23.7873	10.1735	3.91118	0.013382	14.4882	2.35702	1	9	0.00510402	0.00187447	0	2.83882e-05	-4.26608e-05	4.81768e-06	-78.5957	0.00257016	0.000508201	0.00251942	-23.8315	2.7244	2.49211	1.10079	0.336055	0.148129	0.367253	23.7873	2357.02	5347.29	5843.72	-66.2127	0.0000000E+000	0.0000000E+000	0.0000000E+000	66.2127	0.0000000E+000	0.0000000E+000	0.0000000E+000	-66.2127	0.0000000E+000	0.0000000E+000	0.0000000E+000	-23.7873	0.0000000E+000	0.0000000E+000	0.0000000E+000	23.7873	2.26866	66.2127	-4.02163e-07	5.23392e-05	-5.70886e-10	5.23398e-05	3.91122	292272	3.18793	292276
6309.38	2.79568	1.26602	3.06898	-24.3633	10.6915	3.91118	0.0115919	19.9247	3.39067	1	9	0.0054729	0.00178329	0	2.93397e-05	-8.0849e-05	5.97605e-06	18.425	0.00335113	0.00317935	-0.00105917	-24.3209	3.07144	2.79886	1.26496	0.296824	0.134416	0.325841	24.3633	3390.67	7487.42	8219.37	-65.6367	0.0000000E+000	0.0000000E+000	0.0000000E+000	65.6367	0.0000000E+000	0.0000000E+000	0.0000000E+000	-65.6367	0.0000000E+000	0.0000000E+000	0.0000000E+000	-24.3633	0.0000000E+000	0.0000000E+000	0.0000000E+000	24.3633	2.20824	65.6367	-1.00984e-06	4.53378e-05	-9.37191e-10	4.53388e-05	3.91126	337407	6.97463	337414
3983.6	3.18032	1.443	3.49238	-24.4051	11.2541	3.9111	0.0135684	27.6872	4.7268	1	9	0.00542501	0.00155338	0	3.10754e-05	-4.26608e-05	8.95744e-06	2.94063	0.0057664	0.00575881	-0.000295823	-24.3617	3.4975	3.18608	1.4427	0.260753	0.11831	0.286338	24.4051	4726.8	10417.7	11439.9	-65.5949	0.0000000E+000	0.0000000E+000	0.0000000E+000	65.5949	0.0000000E+000	0.0000000E+000	0.0000000E+000	-65.5949	0.0000000E+000	0.0000000E+000	0.0000000E+000	-24.4051	0.0000000E+000	0.0000000E+000	0.0000000E+000	24.4051	2.20397	65.5949	-2.85618e-07	5.30675e-05	-5.7884e-10	5.30681e-05	3.91115	288251	3.14413	288254
2510.8	3.54608	1.71742	3.94008	-25.8417	12.3238	3.91113	-0.0278367	36.9088	7.01254	1	10	0.00545601	0.00138475	0	2.66826e-05	5.28095e-05	8.8695e-06	67.3445	0.00640515	0.00246719	-0.00591091	-25.7486	3.93973	3.54854	1.71151	0.228422	0.110629	0.253802	25.8417	7012.54	14479.3	16088	-64.1583	0.0000000E+000	0.0000000E+000	0.0000000E+000	64.1583	0.0000000E+000	0.0000000E+000	0.0000000E+000	-64.1583	0.0000000E+000	0.0000000E+000	0.0000000E+000	-25.8417	0.0000000E+000	0.0000000E+000	0.0000000E+000	25.8417	2.06477	64.1583	-1.85472e-06	-0.000108873	-1.47004e-09	-0.000108871	3.91107	140502	1.89712	140501
1585.51	4.03467	2.04213	4.52204	-26.846	13.2258	3.91112	-0.0278703	49.1551	10.0246	1	10	0.00531901	0.00117624	0	2.01086e-05	-0.000157225	1.56224e-05	61.3763	0.0132816	0.00636261	-0.0116584	-26.6778	4.52247	4.04103	2.03047	0.197305	0.0998651	0.221139	26.846	10024.6	19805.7	22198.2	-63.154	0.0000000E+000	0.0000000E+000	0.0000000E+000	63.154	0.0000000E+000	0.0000000E+000	0.0000000E+000	-63.154	0.0000000E+000	0.0000000E+000	0.0000000E+000	-26.846	0.0000000E+000	0.0000000E+000	0.0000000E+000	26.846	1.97572	63.154	-3.83297e-06	-0.000109004	4.38191e-09	-0.000109008	3.91128	140333	5.64132	140339
1000.32	4.64341	2.39652	5.22537	-27.2988	14.1278	3.91112	-0.026897	66.3897	13.9646	1	10	0.00521693	0.000998384	0	1.29886e-05	-0.000138131	9.99563e-06	67.3116	0.0100118	0.00386174	-0.00923705	-27.1894	5.22458	4.64727	2.38728	0.17006	0.08777	0.191374	27.2988	13964.6	27057.2	30448.4	-62.7012	0.0000000E+000	0.0000000E+000	0.0000000E+000	62.7012	0.0000000E+000	0.0000000E+000	0.0000000E+000	-62.7012	0.0000000E+000	0.0000000E+000	0.0000000E+000	-27.2988	0.0000000E+000	0.0000000E+000	0.0000000E+000	27.2988	1.93756	62.7012	-2.66317e-06	-0.000105198	3.71532e-09	-0.000105201	3.91126	145411	5.13555	145416
631.01	5.41047	2.81249	6.09781	-27.4665	15.0286	3.91112	-0.0278516	89.6795	19.0778	1	10	0.00514953	0.000844488	0	6.89299e-06	-8.0849e-05	5.05376e-06	-46.742	0.00598441	0.00410102	0.00435829	-27.485	6.10346	5.41457	2.81685	0.145508	0.0756385	0.163993	27.4665	19077.8	36700.4	41362.8	-62.5335	0.0000000E+000	0.0000000E+000	0.0000000E+000	62.5335	0.0000000E+000	0.0000000E+000	0.0000000E+000	-62.5335	0.0000000E+000	0.0000000E+000	0.0000000E+000	-27.4665	0.0000000E+000	0.0000000E+000	0.0000000E+000	27.4665	1.92373	62.5335	-3.4703e-06	-0.000108931	2.25178e-09	-0.000108933	3.9112	140427	2.90284	140430
398.089	6.39022	3.20588	7.1493	-26.6423	15.9298	3.91112	-0.0247902	124.707	25.0761	1	10	0.00511792	0.000715863	0	6.59733e-07	-0.000252696	1.17566e-05	59.0304	0.016423	0.00845098	-0.0140817	-26.5111	7.15056	6.39867	3.1918	0.125022	0.0627221	0.139874	26.6423	25076.1	49983.6	55921.1	-63.3577	0.0000000E+000	0.0000000E+000	0.0000000E+000	63.3577	0.0000000E+000	0.0000000E+000	0.0000000E+000	-63.3577	0.0000000E+000	0.0000000E+000	0.0000000E+000	-26.6423	0.0000000E+000	0.0000000E+000	0.0000000E+000	26.6423	1.99328	63.3577	-3.45984e-06	-9.69576e-05	6.26438e-09	-9.69639e-05	3.91137	157769	10.1933	157779
251.044	7.57017	3.51022	8.34441	-24.8768	16.828	3.91112	-0.0246075	180.607	31.9605	1	10	0.00509864	0.000611025	0	-5.61177e-06	0.000205562	6.15346e-06	-27.0007	0.0100707	0.00897303	0.00457213	-24.8793	8.35447	7.57914	3.5148	0.108721	0.0504131	0.119841	24.8768	31960.5	68926.2	75975.6	-65.1232	0.0000000E+000	0.0000000E+000	0.0000000E+000	65.1232	0.0000000E+000	0.0000000E+000	0.0000000E+000	-65.1232	0.0000000E+000	0.0000000E+000	0.0000000E+000	-24.8768	0.0000000E+000	0.0000000E+000	0.0000000E+000	24.8768	2.15661	65.1232	-3.48444e-06	-9.62431e-05	-5.05837e-09	-9.6238e-05	3.91092	158940	8.35362	158932
158.428	8.88963	3.53041	9.56501	-21.6599	17.7328	3.91112	-0.024917	284.552	38.7652	1	10	0.00508721	0.000531857	0	-1.27435e-05	-0.000176319	1.14236e-05	-58.2751	0.0214788	0.0112944	0.0182695	-21.7365	9.58226	8.90093	3.54868	0.0971658	0.0385882	0.104548	21.6599	38765.2	97611.3	105027	-68.3401	0.0000000E+000	0.0000000E+000	0.0000000E+000	68.3401	0.0000000E+000	0.0000000E+000	0.0000000E+000	-68.3401	0.0000000E+000	0.0000000E+000	0.0000000E+000	-21.6599	0.0000000E+000	0.0000000E+000	0.0000000E+000	21.6599	2.51802	68.3401	-3.43381e-06	-9.74534e-05	4.39335e-09	-9.74578e-05	3.91129	156966	7.07626	156973
100.032	10.1562	3.21607	10.6533	-17.5709	18.6318	3.91111	-0.025756	494.715	45.0859	1	10	0.00507941	0.000476793	0	-1.87732e-05	-4.26608e-05	7.77534e-06	97.1569	0.0163076	-0.00203171	-0.0161805	-17.4912	10.6465	10.1542	3.19989	0.0894884	0.0283374	0.0938679	17.5709	45085.9	142380	149348	-72.4291	0.0000000E+000	0.0000000E+000	0.0000000E+000	72.4291	0.0000000E+000	0.0000000E+000	0.0000000E+000	-72.4291	0.0000000E+000	0.0000000E+000	0.0000000E+000	-17.5709	0.0000000E+000	0.0000000E+000	0.0000000E+000	17.5709	3.15796	72.4291	-2.52602e-06	-0.000100735	1.09877e-09	-0.000100736	3.91115	151852	1.65634	151854
63.0823	11.2194	2.65908	11.5302	-13.3335	19.5469	3.91112	-0.0239923	948.813	50.4624	1	10	0.00509216	0.000441635	0	-2.52291e-05	9.09976e-05	6.29456e-06	-150.573	0.0142528	-0.012414	0.00700264	-13.3816	11.5198	11.207	2.66609	0.0843907	0.0200012	0.0867285	13.3335	50462.4	212915	218814	-76.6665	0.0000000E+000	0.0000000E+000	0.0000000E+000	76.6665	0.0000000E+000	0.0000000E+000	0.0000000E+000	-76.6665	0.0000000E+000	0.0000000E+000	0.0000000E+000	-13.3335	0.0000000E+000	0.0000000E+000	0.0000000E+000	13.3335	4.21929	76.6665	-2.88311e-06	-9.38366e-05	-2.18324e-09	-9.38344e-05	3.91103	163016	3.79279	163012
39.8089	11.9219	2.03563	12.0944	-9.68966	20.4478	3.91111	-0.0253384	1963.99	55.6375	1	10	0.00508948	0.000420812	0	-3.23071e-05	-8.0849e-05	4.65531e-06	-76.4457	0.0110627	0.00259272	0.0107546	-9.7378	12.0988	11.9245	2.04639	0.081503	0.0139164	0.0826826	9.68966	55637.5	325847	330563	-80.3103	0.0000000E+000	0.0000000E+000	0.0000000E+000	80.3103	0.0000000E+000	0.0000000E+000	0.0000000E+000	-80.3103	0.0000000E+000	0.0000000E+000	0.0000000E+000	-9.68966	0.0000000E+000	0.0000000E+000	0.0000000E+000	9.68966	5.8566	80.3103	-3.55628e-06	-9.91013e-05	2.04858e-09	-9.91033e-05	3.91119	154355	3.19077	154358
25.1044	12.3476	1.47462	12.4354	-6.81029	21.327	3.91112	-0.026595	4299.23	60.4548	1	10	0.00507736	0.0004083	0	-3.91034e-05	1.46214e-05	9.47465e-06	-8.14393	0.0232051	0.0229711	0.00328725	-6.81277	12.4586	12.3706	1.4779	0.0798484	0.00953589	0.0804158	6.81029	60454.8	506216	509813	-83.1897	0.0000000E+000	0.0000000E+000	0.0000000E+000	83.1897	0.0000000E+000	0.0000000E+000	0.0000000E+000	-83.1897	0.0000000E+000	0.0000000E+000	0.0000000E+000	-6.81029	0.0000000E+000	0.0000000E+000	0.0000000E+000	6.81029	8.37346	83.1897	-2.70883e-06	-0.000104016	-3.88856e-10	-0.000104016	3.9111	147062	0.549778	147061
15.8576	12.596	1.04564	12.6393	-4.74544	22.2051	3.9111	-0.0289554	9598.48	65.6928	1	10	0.00507643	0.000401639	0	-4.78069e-05	7.19036e-05	5.22568e-06	22.009	0.0130109	0.0120627	-0.00487587	-4.71892	12.6509	12.608	1.04076	0.078847	0.00654537	0.0791182	4.74544	65692.8	791350	794072	-85.2546	0.0000000E+000	0.0000000E+000	0.0000000E+000	85.2546	0.0000000E+000	0.0000000E+000	0.0000000E+000	-85.2546	0.0000000E+000	0.0000000E+000	0.0000000E+000	-4.74544	0.0000000E+000	0.0000000E+000	0.0000000E+000	4.74544	12.0462	85.2546	-4.96313e-06	-0.000113248	-2.082e-09	-0.000113245	3.91103	135073	2.48325	135071
10.0032	12.7952	0.774895	12.8186	-3.46568	23.4308	3.91115	-0.0207036	20532.3	75.0309	1	11	0.0050854	0.000396719	0	-5.58027e-05	0.000167374	4.63088e-06	101.32	0.0116729	-0.00229121	-0.0114459	-3.41522	12.8157	12.7929	0.763449	0.0778687	0.00471584	0.0780114	3.46568	75030.8	1.23892e+06	1.24119e+06	-86.5343	0.0000000E+000	0.0000000E+000	0.0000000E+000	86.5343	0.0000000E+000	0.0000000E+000	0.0000000E+000	-86.5343	0.0000000E+000	0.0000000E+000	0.0000000E+000	-3.46568	0.0000000E+000	0.0000000E+000	0.0000000E+000	3.46568	16.5122	86.5343	-5.02507e-06	-8.09748e-05	-3.46524e-09	-8.09713e-05	3.91098	188912	8.0843	188904
6.31058	12.8746	0.582564	12.8878	-2.59081	24.3553	3.91113	-0.021562	43291.9	88.4582	1	11	0.00507484	0.000393771	0	-5.79919e-05	-0.000195413	6.70536e-06	102.682	0.0170286	-0.00373851	-0.0166131	-2.51776	12.8833	12.8709	0.565951	0.0775136	0.00350742	0.0775929	2.59081	88458.2	1.95492e+06	1.95692e+06	-87.4092	0.0000000E+000	0.0000000E+000	0.0000000E+000	87.4092	0.0000000E+000	0.0000000E+000	0.0000000E+000	-87.4092	0.0000000E+000	0.0000000E+000	0.0000000E+000	-2.59081	0.0000000E+000	0.0000000E+000	0.0000000E+000	2.59081	22.0999	87.4092	-2.28402e-07	-8.43319e-05	4.2135e-09	-8.43361e-05	3.91133	181390	9.06286	181399
3.97785	12.9541	0.504579	12.9639	-2.23062	25.3623	3.91115	-0.0198496	79294.3	120.124	1	11	0.00507566	0.000391522	0	-6.87323e-05	7.19036e-05	4.984e-06	93.7016	0.0127298	-0.00082184	-0.0127032	-2.17465	12.9626	12.9533	0.491876	0.0770788	0.00300232	0.0771372	2.23062	120124	3.08394e+06	3.08628e+06	-87.7694	0.0000000E+000	0.0000000E+000	0.0000000E+000	87.7694	0.0000000E+000	0.0000000E+000	0.0000000E+000	-87.7694	0.0000000E+000	0.0000000E+000	0.0000000E+000	-2.23062	0.0000000E+000	0.0000000E+000	0.0000000E+000	2.23062	25.6731	87.7694	-4.0962e-06	-7.7635e-05	-1.42726e-09	-7.76335e-05	3.91108	197039	3.62241	197036
2.51367	13.0487	0.470581	13.0572	-2.06539	26.922	3.91115	-0.0190828	134548	174.761	1	11	0.00508301	0.000389288	0	-6.7669e-05	-9.9943e-05	4.98824e-06	78.5549	0.0128137	0.00254262	-0.0125589	-2.00992	13.0593	13.0513	0.458022	0.0765364	0.00276016	0.0765861	2.06539	174761	4.84595e+06	4.8491e+06	-87.9346	0.0000000E+000	0.0000000E+000	0.0000000E+000	87.9346	0.0000000E+000	0.0000000E+000	0.0000000E+000	-87.9346	0.0000000E+000	0.0000000E+000	0.0000000E+000	-2.06539	0.0000000E+000	0.0000000E+000	0.0000000E+000	2.06539	27.7289	87.9346	1.18042e-07	-7.46358e-05	1.90719e-09	-7.46377e-05	3.91125	204957	5.23733	204962
1.58469	13.1318	0.510988	13.1417	-2.22838	29.3575	3.91116	-0.0170722	196547	297.154	1	11	0.00508022	0.000386572	0	-8.9469e-05	-0.000195413	4.36135e-06	53.4233	0.0112821	0.006723	-0.00906024	-2.18779	13.1481	13.1385	0.501928	0.0760359	0.00295873	0.0760934	2.22838	297155	7.63652e+06	7.6423e+06	-87.7716	0.0000000E+000	0.0000000E+000	0.0000000E+000	87.7716	0.0000000E+000	0.0000000E+000	0.0000000E+000	-87.7716	0.0000000E+000	0.0000000E+000	0.0000000E+000	-2.22838	0.0000000E+000	0.0000000E+000	0.0000000E+000	2.22838	25.6988	87.7716	-1.45967e-05	-6.67723e-05	3.33614e-09	-6.67756e-05	3.91136	229095	11.4463	229106
1.00469	13.6976	0.592878	13.7105	-2.4784	240.175	3.91113	-0.0134825	267191	499.629	1	11	0.00503834	0.000367481	0	-0.00236563	-0.000119037	4.07444e-07	-7.58198	0.00110875	0.00109906	0.000146294	-2.47881	13.7116	13.6987	0.593024	0.0728688	0.003154	0.072937	2.4784	499629	1.15432e+07	1.15541e+07	-87.5216	0.0000000E+000	0.0000000E+000	0.0000000E+000	87.5216	0.0000000E+000	0.0000000E+000	0.0000000E+000	-87.5216	0.0000000E+000	0.0000000E+000	0.0000000E+000	-2.4784	0.0000000E+000	0.0000000E+000	0.0000000E+000	2.4784	23.1036	87.5216	-0.00225926	-5.27319e-05	1.60492e-09	-5.27335e-05	3.91125	290089	8.82899	290098
0.632957	13.8248	0.740384	13.8446	-3.06554	240.177	3.91113	-0.0134825	339617	971.279	1	11	0.00505011	0.000364772	0	-0.00236563	-0.000119037	5.34744e-07	-4.22552	0.00146597	0.00146198	0.000108016	-3.06567	13.846	13.8262	0.740492	0.0721271	0.00386276	0.0722305	3.06554	971279	1.81361e+07	1.81621e+07	-86.9345	0.0000000E+000	0.0000000E+000	0.0000000E+000	86.9345	0.0000000E+000	0.0000000E+000	0.0000000E+000	-86.9345	0.0000000E+000	0.0000000E+000	0.0000000E+000	-3.06554	0.0000000E+000	0.0000000E+000	0.0000000E+000	3.06554	18.6724	86.9345	0.000000000000000E+000	-5.27319e-05	1.60492e-09	-5.27335e-05	3.91125	290089	8.82899	290098
0.401878	13.9213	0.962031	13.9545	-3.95313	240.178	3.91113	-0.0134825	411659	1956.52	1	11	0.0050641	0.0003629	0	-0.00236563	-0.000119037	4.32426e-07	-29.0473	0.00119158	0.0010417	0.000578552	-3.9552	13.9556	13.9224	0.962609	0.0714908	0.00494036	0.0716613	3.95313	1.95652e+06	2.83124e+07	2.83799e+07	-86.0469	0.0000000E+000	0.0000000E+000	0.0000000E+000	86.0469	0.0000000E+000	0.0000000E+000	0.0000000E+000	-86.0469	0.0000000E+000	0.0000000E+000	0.0000000E+000	-3.95313	0.0000000E+000	0.0000000E+000	0.0000000E+000	3.95313	14.4708	86.0469	0.000000000000000E+000	-5.27319e-05	1.60492e-09	-5.27335e-05	3.91125	290089	8.82899	290098
0.251173	14.2062	1.22512	14.2589	-4.92892	240.18	3.91113	-0.0134825	517210	3818.16	1	11	0.00506308	0.000355082	0	-0.00236563	-0.000119037	5.10626e-07	4.4876	0.00143805	0.00143364	-0.000112518	-4.92798	14.2603	14.2076	1.22501	0.0698723	0.0060257	0.0701317	4.92892	3.81816e+06	4.42743e+07	4.44386e+07	-85.0711	0.0000000E+000	0.0000000E+000	0.0000000E+000	85.0711	0.0000000E+000	0.0000000E+000	0.0000000E+000	-85.0711	0.0000000E+000	0.0000000E+000	0.0000000E+000	-4.92892	0.0000000E+000	0.0000000E+000	0.0000000E+000	4.92892	11.5957	85.0711	0.000000000000000E+000	-5.27319e-05	1.60492e-09	-5.27335e-05	3.91125	290089	8.82899	290098
0.160751	14.4875	1.45874	14.5608	-5.74968	240.181	3.91113	-0.0134825	678718	6811.97	1	11	0.00506174	0.000347628	0	-0.00236563	-0.000119037	5.39813e-07	5.62398	0.00155285	0.00154537	-0.000152178	-5.74847	14.5623	14.4891	1.45858	0.068332	0.00688028	0.0686776	5.74968	6.81197e+06	6.76536e+07	6.79957e+07	-84.2503	0.0000000E+000	0.0000000E+000	0.0000000E+000	84.2503	0.0000000E+000	0.0000000E+000	0.0000000E+000	-84.2503	0.0000000E+000	0.0000000E+000	0.0000000E+000	-5.74968	0.0000000E+000	0.0000000E+000	0.0000000E+000	5.74968	9.93157	84.2503	0.000000000000000E+000	-5.27319e-05	1.60492e-09	-5.27335e-05	3.91125	290089	8.82899	290098
0.100469	14.7634	2.13726	14.9173	-8.23737	240.183	3.91113	-0.0134825	741188	15214.8	1	11	0.00506328	0.000339424	0	-0.00236563	-0.000119037	9.51989e-07	-29.5526	0.00280472	0.00243983	0.00138335	-8.24129	14.9199	14.7658	2.13865	0.0663448	0.0096046	0.0670364	8.23737	1.52148e+07	1.05098e+08	1.06193e+08	-81.7626	0.0000000E+000	0.0000000E+000	0.0000000E+000	81.7626	0.0000000E+000	0.0000000E+000	0.0000000E+000	-81.7626	0.0000000E+000	0.0000000E+000	0.0000000E+000	-8.23737	0.0000000E+000	0.0000000E+000	0.0000000E+000	8.23737	6.9076	81.7626	0.000000000000000E+000	-5.27319e-05	1.60492e-09	-5.27335e-05	3.91125	290089	8.82899	290098
0.0602816	15.2603	2.75312	15.5066	-10.2268	240.184	3.91113	-0.0134825	958980	30229.2	1	11	0.00505787	0.000326175	0	-0.00236563	-0.000119037	3.5591e-07	-26.794	0.00109116	0.000974008	0.00049188	-10.2279	15.5077	15.2612	2.75361	0.0634641	0.0114496	0.0644886	10.2268	3.02292e+07	1.67557e+08	1.70262e+08	-79.7732	0.0000000E+000	0.0000000E+000	0.0000000E+000	79.7732	0.0000000E+000	0.0000000E+000	0.0000000E+000	-79.7732	0.0000000E+000	0.0000000E+000	0.0000000E+000	-10.2268	0.0000000E+000	0.0000000E+000	0.0000000E+000	10.2268	5.54289	79.7732	0.000000000000000E+000	-5.27319e-05	1.60492e-09	-5.27335e-05	3.91125	290089	8.82899	290098
0.0401878	16.0841	3.38275	16.436	-11.8771	240.186	3.91113	-0.0134825	1.17073e+06	49591.1	1	11	0.00505619	0.000307629	0	-0.00236563	-0.000119037	7.26067e-07	61.5482	0.00236021	0.00112445	-0.00207514	-11.8692	16.4367	16.0853	3.38068	0.0595395	0.0125221	0.060842	11.8771	4.95911e+07	2.35793e+08	2.40952e+08	-78.1229	0.0000000E+000	0.0000000E+000	0.0000000E+000	78.1229	0.0000000E+000	0.0000000E+000	0.0000000E+000	-78.1229	0.0000000E+000	0.0000000E+000	0.0000000E+000	-11.8771	0.0000000E+000	0.0000000E+000	0.0000000E+000	11.8771	4.75475	78.1229	0.000000000000000E+000	-5.27319e-05	1.60492e-09	-5.27335e-05	3.91125	290089	8.82899	290098
0.0200939	17.7796	5.58982	18.6376	-17.4529	240.187	3.91113	-0.0134825	1.41696e+06	127460	1	11	0.00505681	0.000271323	0	-0.00236563	-0.000119037	1.14148e-06	-2.76604	0.00420707	0.00420217	0.000203024	-17.4497	18.6416	17.7838	5.59003	0.051185	0.0160923	0.053655	17.4529	1.2746e+08	4.05414e+08	4.24978e+08	-72.5471	0.0000000E+000	0.0000000E+000	0.0000000E+000	72.5471	0.0000000E+000	0.0000000E+000	0.0000000E+000	-72.5471	0.0000000E+000	0.0000000E+000	0.0000000E+000	-17.4529	0.0000000E+000	0.0000000E+000	0.0000000E+000	17.4529	3.1807	72.5471	0.000000000000000E+000	-5.27319e-05	1.60492e-09	-5.27335e-05	3.91125	290089	8.82899	290098
0.00796479	21.6165	7.28769	22.8119	-18.6308	20329	3.91114	0.000127926	2.74193e+06	279841	1	11	0.0050518	0.000221454	0	-0.0145636	0.00014828	1.05162e-06	-161.613	0.00474871	-0.00450629	0.00149788	-18.638	22.8081	21.612	7.28919	0.0415395	0.0140044	0.0438367	18.6308	2.79841e+08	8.30057e+08	8.7596e+08	-71.3692	0.0000000E+000	0.0000000E+000	0.0000000E+000	71.3692	0.0000000E+000	0.0000000E+000	0.0000000E+000	-71.3692	0.0000000E+000	0.0000000E+000	0.0000000E+000	-18.6308	0.0000000E+000	0.0000000E+000	0.0000000E+000	18.6308	2.96617	71.3692	-0.012198	5.00338e-07	1.89689e-11	5.00319e-07	3.911	3.05734e+07	1159.1	3.05723e+07
0.00497799	24.4688	7.83623	25.693	-17.7578	20329	3.91114	0.000127926	4.07999e+06	379528	1	11	0.00505987	0.000196936	0	-0.0145636	0.00014828	8.83082e-07	-164.447	0.00448411	-0.00431992	0.00120233	-17.7633	25.6893	24.4645	7.83744	0.0370667	0.0118707	0.0389211	17.7578	3.79527e+08	1.18508e+09	1.24437e+09	-72.2422	0.0000000E+000	0.0000000E+000	0.0000000E+000	72.2422	0.0000000E+000	0.0000000E+000	0.0000000E+000	-72.2422	0.0000000E+000	0.0000000E+000	0.0000000E+000	-17.7578	0.0000000E+000	0.0000000E+000	0.0000000E+000	17.7578	3.12253	72.2422	0.000000000000000E+000	5.00338e-07	1.89689e-11	5.00319e-07	3.911	3.05734e+07	1159.1	3.05723e+07
0.00318591	26.4302	9.88722	28.219	-20.5102	20329	3.91114	0.000127926	5.05257e+06	620262	1	11	0.00506089	0.000179343	0	-0.0145636	0.00014828	1.17614e-06	-171.3	0.00655802	-0.00648256	0.000991944	-20.5167	28.2133	26.4238	9.88821	0.0331907	0.0124162	0.0354371	20.5102	6.20262e+08	1.65807e+09	1.77029e+09	-69.4898	0.0000000E+000	0.0000000E+000	0.0000000E+000	69.4898	0.0000000E+000	0.0000000E+000	0.0000000E+000	-69.4898	0.0000000E+000	0.0000000E+000	0.0000000E+000	-20.5102	0.0000000E+000	0.0000000E+000	0.0000000E+000	20.5102	2.67317	69.4898	0.000000000000000E+000	5.00338e-07	1.89689e-11	5.00319e-07	3.911	3.05734e+07	1159.1	3.05723e+07
0.0019912	28.5566	10.6073	30.463	-20.3775	20329	3.91114	0.000127926	7.53528e+06	913625	1	11	0.00506558	0.000166287	0	-0.0145636	0.00014828	8.84318e-07	-140.244	0.00531804	-0.00408835	0.00340101	-20.3862	30.4603	28.5525	10.6107	0.0307724	0.0114304	0.0328267	20.3775	9.13625e+08	2.45962e+09	2.62382e+09	-69.6225	0.0000000E+000	0.0000000E+000	0.0000000E+000	69.6225	0.0000000E+000	0.0000000E+000	0.0000000E+000	-69.6225	0.0000000E+000	0.0000000E+000	0.0000000E+000	-20.3775	0.0000000E+000	0.0000000E+000	0.0000000E+000	20.3775	2.69215	69.6225	0.000000000000000E+000	5.00338e-07	1.89689e-11	5.00319e-07	3.911	3.05734e+07	1159.1	3.05723e+07
0.00129428	29.0275	12.6012	31.6447	-23.4662	20329	3.91114	0.000127926	9.75844e+06	1.5474e+06	1	11	0.00506608	0.000160092	0	-0.0145636	0.00014828	4.42595e-07	-61.5123	0.00276463	0.00131864	0.00242988	-23.4693	31.6469	29.0289	12.6036	0.0289873	0.0125837	0.0316008	23.4662	1.5474e+09	3.56451e+09	3.8859e+09	-66.5338	0.0000000E+000	0.0000000E+000	0.0000000E+000	66.5338	0.0000000E+000	0.0000000E+000	0.0000000E+000	-66.5338	0.0000000E+000	0.0000000E+000	0.0000000E+000	-23.4662	0.0000000E+000	0.0000000E+000	0.0000000E+000	23.4662	2.30355	66.5338	0.000000000000000E+000	5.00338e-07	1.89689e-11	5.00319e-07	3.911	3.05734e+07	1159.1	3.05723e+07
0.000796479	32.5955	16.1839	36.3921	-26.4047	20329	3.91114	0.000127926	1.2347e+07	2.44183e+06	1	11	0.00506472	0.000139171	0	-0.0145636	0.00014828	1.23019e-06	-162.525	0.0088394	-0.00843142	0.00265444	-26.4144	36.3857	32.5871	16.1866	0.0246118	0.0122199	0.0274785	26.4047	2.44183e+09	4.91801e+09	5.49084e+09	-63.5953	0.0000000E+000	0.0000000E+000	0.0000000E+000	63.5953	0.0000000E+000	0.0000000E+000	0.0000000E+000	-63.5953	0.0000000E+000	0.0000000E+000	0.0000000E+000	-26.4047	0.0000000E+000	0.0000000E+000	0.0000000E+000	26.4047	2.01407	63.5953	0.000000000000000E+000	5.00338e-07	1.89689e-11	5.00319e-07	3.911	3.05734e+07	1159.1	3.05723e+07
0.000497799	31.8376	21.6516	38.5023	-34.2182	20329	3.91114	0.000127926	1.47664e+07	4.66964e+06	1	11	0.00506474	0.000131544	0	-0.0145636	0.00014828	1.29355e-06	-121.02	0.00983362	-0.00506765	0.00842728	-34.2328	38.5028	31.8326	21.66	0.0214767	0.0146055	0.0259725	34.2182	4.66964e+09	6.86647e+09	8.30385e+09	-55.7818	0.0000000E+000	0.0000000E+000	0.0000000E+000	55.7818	0.0000000E+000	0.0000000E+000	0.0000000E+000	-55.7818	0.0000000E+000	0.0000000E+000	0.0000000E+000	-34.2182	0.0000000E+000	0.0000000E+000	0.0000000E+000	34.2182	1.47045	55.7818	0.000000000000000E+000	5.00338e-07	1.89689e-11	5.00319e-07	3.911	3.05734e+07	1159.1	3.05723e+07
0.000298679	31.5054	31.6266	44.6412	-45.11	20329	3.91114	0.000127926	1.68485e+07	8.45662e+06	1	11	0.00506568	0.000113476	0	-0.0145636	0.00014828	2.48399e-06	-93.2482	0.0218901	-0.00124032	0.0218549	-45.1309	44.6558	31.5041	31.6485	0.0158093	0.0158702	0.0224009	45.11	8.45662e+09	8.4242e+09	1.19366e+10	-44.89	0.0000000E+000	0.0000000E+000	0.0000000E+000	44.89	0.0000000E+000	0.0000000E+000	0.0000000E+000	-44.89	0.0000000E+000	0.0000000E+000	0.0000000E+000	-45.11	0.0000000E+000	0.0000000E+000	0.0000000E+000	45.11	0.996167	44.89	0.000000000000000E+000	5.00338e-07	1.89689e-11	5.00319e-07	3.911	3.05734e+07	1159.1	3.05723e+07
9.95598e-05	42.9755	108.976	117.144	-68.4778	20329	3.91114	0.000127926	1.46692e+07	1.26949e+07	1	11	0.0050666	4.32511e-05	0	-0.0145636	0.00014828	1.97578e-06	-37.7158	0.0456816	0.0361367	0.0279455	-68.4664	117.183	43.0117	109.004	0.00313173	0.00794132	0.00853653	68.4778	1.26949e+10	5.00633e+09	1.36464e+10	-21.5222	0.0000000E+000	0.0000000E+000	0.0000000E+000	21.5222	0.0000000E+000	0.0000000E+000	0.0000000E+000	-21.5222	0.0000000E+000	0.0000000E+000	0.0000000E+000	-68.4778	0.0000000E+000	0.0000000E+000	0.0000000E+000	68.4778	0.394358	21.5222	0.000000000000000E+000	5.00338e-07	1.89689e-11	5.00319e-07	3.911	3.05734e+07	1159.1	3.05723e+07