File: txt/19122_R311_UC96_SOC50_C04.mpt
EC-Lab ASCII FILE
Nb header lines : 65

Potentio Electrochemical Impedance Spectroscopy

Run on channel : 4 (SN 66756)
Grouped channel(s) : 1, 2, 3, 4
User :
CE vs. WE compliance from -10 V to 10 V
Electrode connection : standard
Potential control : Ewe
Ewe ctrl range : min = -10.00 V, max = 10.00 V
Safety Limits :
	Do not start on E overload
Acquisition started on : 11/11/2025 16:20:14.228
Loaded Setting File :  C:\Users\Celltest\OneDrive - store-dot.com\Documents\EC-Lab\Data\@Biologic Test Protocols\cathode half cell EIS SOC50.mps
Saved on :
	File : 19119_R311_UC96_SOC50_C04.mpr
	Directory : C:\Users\Celltest\OneDrive - store-dot.com\Documents\EC-Lab\Data\Gyutae\
	Host : 169.254.61.224
Device : VMP-3e (SN .003165)
Address : USB
EC-LAB for windows v11.62 (software)
Internet server v27.00 (firmware)
Command interpretor v12.03 (firmware)
Electrode material :
Initial state :
Electrolyte :
Comments :
Electrode surface area : 0.001 cm²
Characteristic mass : 0.001 g
Equivalent Weight : 0.000 g/eq.
Density : 0.000 g/cm3
Volume (V) : 0.001 cm³
Record Ece
Cycle Definition : Charge/Discharge alternance
Mode                Multi sine
E (V)               0.0000
vs.                 Eoc
tE (h:m:s)          0:00:0.0000
record              0
dI                  0.000
unit dI             mA
dt (s)              0.000
fi                  1.000
unit fi             MHz
ff                  0.100
unit ff             mHz
Nd                  10
Points              per decade
spacing             Logarithmic
Va (mV)             5.0
pw                  0.10
Na                  2
corr                0
E range min (V)     -10.000
E range max (V)     10.000
I Range             Auto
Bandwidth           5
nc cycles           0
goto Ns'            0
nr cycles           0
inc. cycle          0

freq/Hz	Re(Z)/Ohm	-Im(Z)/Ohm	|Z|/Ohm	Phase(Z)/deg	time/s	<Ewe>/V	<I>/mA	Cs/µF	Cp/µF	cycle number	I Range	|Ewe|/V	|I|/A	Ns	(Q-Qo)/mA.h	<Ece>/V	|Ece|/V	Phase(Zce)/deg	|Zce|/Ohm	Re(Zce)/Ohm	-Im(Zce)/Ohm	Phase(Zwe-ce)/deg	|Zwe-ce|/Ohm	Re(Zwe-ce)/Ohm	-Im(Zwe-ce)/Ohm	Re(Y)/Ohm-1	Im(Y)/Ohm-1	|Y|/Ohm-1	Phase(Y)/deg	Re(C)/nF	Im(C)/nF	|C|/nF	Phase(C)/deg	Re(M)	Im(M)	|M|	Phase(M)/deg	Re(Permittivity)	Im(Permittivity)	|Permittivity|	Phase(Permittivity)/deg	Re(Resistivity)/Ohm.cm	Im(Resistivity)/Ohm.cm	|Resistivity|/Ohm.cm	Phase(Resistivity)/deg	Re(Conductivity)/mS/cm	Im(Conductivity)/mS/cm	|Conductivity|/mS/cm	Phase(Conductivity)/deg	Tan(Delta)	Loss Angle(Delta)/deg	dq/mA.h	Pwe/W	Pce/W	Pwe-ce/W	<Ewe-Ece>/V	Rwe/Ohm	Rce/Ohm	Rwe-ce/Ohm		Ewe-Ece/V
1.00002e+06	3.07728	2.48764	3.95702	-38.9517	1.77453	3.89863	0.0317676	0.0639771	0.025285	1	10	0.000216717	5.47678e-05	0	-3.1011e-06	-0.0003741	0.000185492	-64.9163	3.38689	1.43584	3.06747	-50.9086	7.15734	4.51312	5.55511	0.196531	0.158873	0.252715	38.9517	25.285	31.2783	40.2202	-51.0483	0.0000000E+000	0.0000000E+000	0.0000000E+000	51.0483	0.0000000E+000	0.0000000E+000	0.0000000E+000	-51.0483	0.0000000E+000	0.0000000E+000	0.0000000E+000	-38.9517	0.0000000E+000	0.0000000E+000	0.0000000E+000	38.9517	1.23703	51.0483	-3.1011e-06	0.00012385	-1.18843e-08	0.000123862	3.899	122723	11.7761	122735
630957	1.04439	-0.53839	1.17499	27.2714	2.94552	3.89759	-0.0459356	-0.468515	-0.0983663	1	9	0.000303972	0.000258701	0	-1.62197e-05	-6.83407e-05	0.000106072	-92.2803	0.410019	-0.016314	0.409694	7.13524	1.0361	1.02807	-0.128696	0.756468	-0.389965	0.851068	-27.2714	-98.3663	190.814	214.677	-117.271	0.0000000E+000	0.0000000E+000	0.0000000E+000	117.271	0.0000000E+000	0.0000000E+000	0.0000000E+000	-117.271	0.0000000E+000	0.0000000E+000	0.0000000E+000	27.2714	0.0000000E+000	0.0000000E+000	0.0000000E+000	-27.2714	1.93984	62.7286	-5.32906e-06	-0.000179038	3.13927e-09	-0.000179041	3.89766	84849	1.48775	84850.4
398103	1.45869	-0.124661	1.464	4.88471	3.71156	3.89747	-0.0555583	-3.20695	-0.0232526	1	9	0.0011066	0.00075587	0	-2.76615e-05	-3.01208e-05	4.09117e-05	160.386	0.0541253	-0.0509847	-0.018169	5.7936	1.41493	1.4077	-0.14283	0.680578	-0.0581631	0.683059	-4.88471	-23.2526	272.083	273.075	-94.8847	0.0000000E+000	0.0000000E+000	0.0000000E+000	94.8847	0.0000000E+000	0.0000000E+000	0.0000000E+000	-94.8847	0.0000000E+000	0.0000000E+000	0.0000000E+000	4.88471	0.0000000E+000	0.0000000E+000	0.0000000E+000	-4.88471	11.7012	85.1153	-5.92108e-06	-0.000216537	1.67346e-09	-0.000216538	3.8975	70150.9	0.542147	70151.4
251206	1.52369	0.184314	1.5348	-6.89728	4.47752	3.89724	-0.0654794	3.43742	0.0495729	1	9	0.00314088	0.00204644	0	-4.44327e-05	-0.00024033	5.61808e-05	70.9955	0.0274529	0.00893983	-0.0259565	-5.89908	1.54079	1.53263	0.158357	0.646836	0.0782446	0.651551	6.89728	49.5729	409.811	412.799	-83.1027	0.0000000E+000	0.0000000E+000	0.0000000E+000	83.1027	0.0000000E+000	0.0000000E+000	0.0000000E+000	-83.1027	0.0000000E+000	0.0000000E+000	0.0000000E+000	-6.89728	0.0000000E+000	0.0000000E+000	0.0000000E+000	6.89728	8.26684	83.1027	-9.87002e-06	-0.000255189	1.57367e-08	-0.000255205	3.89749	59518.7	3.67032	59522.3
158486	1.59301	0.34766	1.6305	-12.3113	5.11956	3.89716	-0.0798761	2.88851	0.131323	1	9	0.00535735	0.00328571	0	-4.76079e-05	-0.00029766	4.52734e-05	62.1899	0.0137789	0.00642844	-0.0121874	-11.8458	1.63424	1.59944	0.335473	0.599204	0.130771	0.613308	12.3113	131.323	601.732	615.896	-77.6887	0.0000000E+000	0.0000000E+000	0.0000000E+000	77.6887	0.0000000E+000	0.0000000E+000	0.0000000E+000	-77.6887	0.0000000E+000	0.0000000E+000	0.0000000E+000	-12.3113	0.0000000E+000	0.0000000E+000	0.0000000E+000	12.3113	4.58208	77.6887	9.06282e-07	-0.00031129	2.37759e-08	-0.000311314	3.89746	48790.1	3.72652	48793.8
100004	1.70282	0.476417	1.76821	-15.6307	5.88556	3.89715	-0.0828226	3.34054	0.242507	1	9	0.00535052	0.00302596	0	-5.84697e-05	-0.00046965	2.69577e-05	55.2544	0.00890881	0.00507744	-0.00732028	-15.3583	1.77115	1.70789	0.469097	0.54463	0.152377	0.565544	15.6307	242.507	866.773	900.058	-74.3693	0.0000000E+000	0.0000000E+000	0.0000000E+000	74.3693	0.0000000E+000	0.0000000E+000	0.0000000E+000	-74.3693	0.0000000E+000	0.0000000E+000	0.0000000E+000	-15.6307	0.0000000E+000	0.0000000E+000	0.0000000E+000	15.6307	3.57421	74.3693	-5.20216e-07	-0.000322772	3.88976e-08	-0.000322811	3.89762	47054.2	5.67055	47059.9
63093.8	1.84153	0.614909	1.94148	-18.4648	6.65152	3.89714	-0.0798761	4.10225	0.411509	1	9	0.005261	0.00270979	0	-9.12376e-05	-6.83407e-05	2.504e-05	45.0524	0.00924058	0.00652809	-0.00654005	-18.2212	1.94562	1.84806	0.608369	0.488555	0.163135	0.515072	18.4648	411.509	1232.39	1299.27	-71.5352	0.0000000E+000	0.0000000E+000	0.0000000E+000	71.5352	0.0000000E+000	0.0000000E+000	0.0000000E+000	-71.5352	0.0000000E+000	0.0000000E+000	0.0000000E+000	-18.4648	0.0000000E+000	0.0000000E+000	0.0000000E+000	18.4648	2.9948	71.5352	-1.54387e-05	-0.000311288	5.45879e-09	-0.000311294	3.89721	48789.8	0.855583	48790.6
39814.1	2.02363	0.765644	2.16363	-20.7242	7.41952	3.89714	-0.0894988	5.22104	0.6538	1	9	0.00522021	0.00241271	0	-0.00011123	-0.00039321	1.50359e-05	9.81774	0.00623196	0.0061407	-0.00106264	-20.6406	2.169	2.02977	0.764581	0.43228	0.163554	0.462186	20.7242	653.8	1728.02	1847.57	-69.2758	0.0000000E+000	0.0000000E+000	0.0000000E+000	69.2758	0.0000000E+000	0.0000000E+000	0.0000000E+000	-69.2758	0.0000000E+000	0.0000000E+000	0.0000000E+000	-20.7242	0.0000000E+000	0.0000000E+000	0.0000000E+000	20.7242	2.64304	69.2758	-1.20803e-05	-0.000348789	3.51918e-08	-0.000348824	3.89753	43544	4.39346	43548.4
25116.9	2.27083	0.917914	2.44933	-22.0095	8.18552	3.89714	-0.0951307	6.90323	0.969528	1	9	0.00526417	0.00214923	0	-0.000127957	-0.00022122	7.48595e-06	-7.2358	0.00348309	0.00345535	0.000438706	-21.9888	2.4527	2.27428	0.918352	0.37852	0.153005	0.408274	22.0095	969.528	2398.52	2587.06	-67.9905	0.0000000E+000	0.0000000E+000	0.0000000E+000	67.9905	0.0000000E+000	0.0000000E+000	0.0000000E+000	-67.9905	0.0000000E+000	0.0000000E+000	0.0000000E+000	-22.0095	0.0000000E+000	0.0000000E+000	0.0000000E+000	22.0095	2.4739	67.9905	-9.78328e-06	-0.000370738	2.10448e-08	-0.000370759	3.89736	40966.2	2.32544	40968.5
15847.7	2.5267	1.06979	2.74384	-22.9476	8.95156	3.89714	-0.0933405	9.3876	1.42704	1	9	0.00523081	0.00190638	0	-0.000147527	0.000180089	1.1447e-05	-78.2694	0.00600459	0.0012208	0.00587918	-23.0505	2.74726	2.52792	1.07567	0.33561	0.142096	0.364452	22.9476	1427.04	3370.46	3660.12	-67.0524	0.0000000E+000	0.0000000E+000	0.0000000E+000	67.0524	0.0000000E+000	0.0000000E+000	0.0000000E+000	-67.0524	0.0000000E+000	0.0000000E+000	0.0000000E+000	-22.9476	0.0000000E+000	0.0000000E+000	0.0000000E+000	22.9476	2.36186	67.0524	-1.1169e-05	-0.000363761	-1.68096e-08	-0.000363744	3.89696	41751.9	1.92937	41750
10002.2	2.84251	1.24201	3.10201	-23.6025	9.71756	3.89714	-0.111057	12.8114	2.05382	1	9	0.00516897	0.00166633	0	-0.000165216	0.000122759	1.25994e-05	-91.6299	0.00756119	-0.000215058	0.00755813	-23.7319	3.10485	2.8423	1.24957	0.295403	0.129074	0.322371	23.6025	2053.82	4700.44	5129.56	-66.3975	0.0000000E+000	0.0000000E+000	0.0000000E+000	66.3975	0.0000000E+000	0.0000000E+000	0.0000000E+000	-66.3975	0.0000000E+000	0.0000000E+000	0.0000000E+000	-23.6025	0.0000000E+000	0.0000000E+000	0.0000000E+000	23.6025	2.28863	66.3975	-8.67372e-06	-0.000432804	-1.36332e-08	-0.00043279	3.89702	35091.5	1.10537	35090.4
6309.38	3.18905	1.46585	3.50981	-24.686	10.4856	3.89713	-0.107402	17.2085	3.00163	1	9	0.00503281	0.00143393	0	-0.000181841	-0.00027855	1.14072e-05	-65.9781	0.00795519	0.00323844	0.0072662	-24.7715	3.51579	3.19229	1.47312	0.258877	0.118994	0.284916	24.686	3001.63	6530.21	7187.04	-65.314	0.0000000E+000	0.0000000E+000	0.0000000E+000	65.314	0.0000000E+000	0.0000000E+000	0.0000000E+000	-65.314	0.0000000E+000	0.0000000E+000	0.0000000E+000	-24.686	0.0000000E+000	0.0000000E+000	0.0000000E+000	24.686	2.17556	65.314	-7.91443e-06	-0.000418558	2.99167e-08	-0.000418588	3.89741	36285.6	2.59354	36288.2
3983.6	3.62423	1.71956	4.01147	-25.3825	11.3681	3.89715	-0.0928053	23.2342	4.26927	1	10	0.00495386	0.00123492	0	-0.000201024	6.5429e-05	1.58881e-05	6.20756	0.0128656	0.0127902	-0.00139117	-25.2865	4.02244	3.63702	1.71817	0.225221	0.106859	0.249285	25.3825	4269.27	8998.13	9959.57	-64.6175	0.0000000E+000	0.0000000E+000	0.0000000E+000	64.6175	0.0000000E+000	0.0000000E+000	0.0000000E+000	-64.6175	0.0000000E+000	0.0000000E+000	0.0000000E+000	-25.3825	0.0000000E+000	0.0000000E+000	0.0000000E+000	25.3825	2.10765	64.6175	-1.30181e-05	-0.000361676	-6.07216e-09	-0.00036167	3.89708	41992.7	0.705014	41992
2510.8	4.10445	2.02041	4.57477	-26.2086	12.1929	3.89712	-0.100135	31.3739	6.11938	1	10	0.0051691	0.00112991	0	-0.000223875	-0.000144781	9.38545e-06	98.1921	0.00830634	-0.00118359	-0.00822158	-26.1227	4.57008	4.10326	2.01218	0.196117	0.0965383	0.21859	26.2086	6119.38	12431.5	13856	-63.7914	0.0000000E+000	0.0000000E+000	0.0000000E+000	63.7914	0.0000000E+000	0.0000000E+000	0.0000000E+000	-63.7914	0.0000000E+000	0.0000000E+000	0.0000000E+000	-26.2086	0.0000000E+000	0.0000000E+000	0.0000000E+000	26.2086	2.0315	63.7914	-1.28653e-05	-0.000390238	1.44976e-08	-0.000390253	3.89726	38918.6	1.44585	38920
1585.51	4.68298	2.38696	5.25622	-27.0084	13.0948	3.89711	-0.102448	42.0539	8.67262	1	10	0.00505254	0.00096125	0	-0.000249258	-0.00027855	1.93772e-05	-28.7626	0.0201583	0.0176712	0.0096998	-27.0151	5.27637	4.70065	2.39666	0.169502	0.086397	0.190251	27.0084	8672.62	17014.8	19097.6	-62.9916	0.0000000E+000	0.0000000E+000	0.0000000E+000	62.9916	0.0000000E+000	0.0000000E+000	0.0000000E+000	-62.9916	0.0000000E+000	0.0000000E+000	0.0000000E+000	-27.0084	0.0000000E+000	0.0000000E+000	0.0000000E+000	27.0084	1.9619	62.9916	-1.21561e-05	-0.000399251	2.85369e-08	-0.000399279	3.89739	38040	2.71895	38042.7
1000.32	5.40678	2.82757	6.10151	-27.6081	13.9968	3.89712	-0.111479	56.2688	12.0843	1	10	0.00494295	0.00081012	0	-0.000274807	-3.01208e-05	9.39631e-06	10.824	0.0115987	0.0113923	-0.00217815	-27.5405	6.1106	5.41817	2.82539	0.145233	0.075952	0.163894	27.6081	12084.3	23107.1	26076.2	-62.3919	0.0000000E+000	0.0000000E+000	0.0000000E+000	62.3919	0.0000000E+000	0.0000000E+000	0.0000000E+000	-62.3919	0.0000000E+000	0.0000000E+000	0.0000000E+000	-27.6081	0.0000000E+000	0.0000000E+000	0.0000000E+000	27.6081	1.91216	62.3919	-1.29868e-05	-0.000434446	3.35782e-09	-0.000434449	3.89715	34958.5	0.270193	34958.8
631.01	6.2896	3.30105	7.10324	-27.6924	14.8985	3.89713	-0.120576	76.4068	16.5015	1	10	0.00484831	0.000682549	0	-0.000302586	-0.00024033	1.24402e-05	-56.5064	0.018226	0.0100579	0.0151996	-27.7631	7.11922	6.29966	3.31625	0.124655	0.0654243	0.140781	27.6924	16501.5	31440.8	35508.1	-62.3076	0.0000000E+000	0.0000000E+000	0.0000000E+000	62.3076	0.0000000E+000	0.0000000E+000	0.0000000E+000	-62.3076	0.0000000E+000	0.0000000E+000	0.0000000E+000	-27.6924	0.0000000E+000	0.0000000E+000	0.0000000E+000	27.6924	1.90533	62.3076	-1.42677e-05	-0.000469902	2.89782e-08	-0.000469931	3.89737	32320.8	1.99318	32322.8
398.089	7.41869	3.78692	8.32934	-27.0424	15.7998	3.89713	-0.110248	105.573	21.8226	1	10	0.00479906	0.000576163	0	-0.000329201	-0.000144781	1.10966e-05	8.89614	0.0192596	0.0190279	-0.00297837	-26.9647	8.34494	7.43772	3.78395	0.106932	0.0545841	0.120058	27.0424	21822.6	42751	47998.7	-62.9576	0.0000000E+000	0.0000000E+000	0.0000000E+000	62.9576	0.0000000E+000	0.0000000E+000	0.0000000E+000	-62.9576	0.0000000E+000	0.0000000E+000	0.0000000E+000	-27.0424	0.0000000E+000	0.0000000E+000	0.0000000E+000	27.0424	1.95903	62.9576	-1.31859e-05	-0.000429649	1.59617e-08	-0.000429665	3.89727	35348.9	1.31323	35350.2
251.044	8.81957	4.11879	9.73392	-25.0328	16.6981	3.89713	-0.119073	153.922	27.559	1	10	0.004765	0.000489526	0	-0.000358186	-0.000106561	4.86895e-06	3.60443	0.00994627	0.00992659	-0.000625299	-25.0048	9.74265	8.8295	4.11816	0.0930833	0.0434704	0.102733	25.0328	27559	59012.1	65130.1	-64.9672	0.0000000E+000	0.0000000E+000	0.0000000E+000	64.9672	0.0000000E+000	0.0000000E+000	0.0000000E+000	-64.9672	0.0000000E+000	0.0000000E+000	0.0000000E+000	-25.0328	0.0000000E+000	0.0000000E+000	0.0000000E+000	25.0328	2.1413	64.9672	-1.43947e-05	-0.000464044	1.26885e-08	-0.000464056	3.89724	32728.9	0.894917	32729.7
158.428	10.3419	4.18431	11.1563	-22.0282	17.6029	3.89714	-0.124307	240.084	33.7732	1	10	0.00474492	0.000425314	0	-0.000388015	2.72091e-05	5.1913e-06	97.7366	0.0122058	-0.00164315	-0.0120947	-21.9738	11.1502	10.3402	4.17222	0.0830922	0.0336191	0.0896356	22.0282	33773.2	83473.2	90046.7	-67.9718	0.0000000E+000	0.0000000E+000	0.0000000E+000	67.9718	0.0000000E+000	0.0000000E+000	0.0000000E+000	-67.9718	0.0000000E+000	0.0000000E+000	0.0000000E+000	-22.0282	0.0000000E+000	0.0000000E+000	0.0000000E+000	22.0282	2.47158	67.9718	-1.49236e-05	-0.00048444	-3.38227e-09	-0.000484437	3.89711	31351	0.218887	31350.8
100.032	11.9293	3.85626	12.5371	-17.9139	18.5019	3.89712	-0.11488	412.587	39.035	1	10	0.00474035	0.000378107	0	-0.000416689	-4.92307e-05	5.07704e-06	70.1566	0.0134275	0.00455799	-0.0126303	-17.8526	12.5375	11.9338	3.84363	0.0758964	0.0245343	0.0797634	17.9139	39035	120754	126907	-72.0861	0.0000000E+000	0.0000000E+000	0.0000000E+000	72.0861	0.0000000E+000	0.0000000E+000	0.0000000E+000	-72.0861	0.0000000E+000	0.0000000E+000	0.0000000E+000	-17.9139	0.0000000E+000	0.0000000E+000	0.0000000E+000	17.9139	3.09349	72.0861	-1.46021e-05	-0.000447703	5.65565e-09	-0.000447709	3.89717	33923.3	0.428539	33923.7
63.0823	13.1145	3.39702	13.5473	-14.522	19.418	3.89713	-0.118409	742.703	46.6985	1	10	0.00474037	0.000349912	0	-0.000446927	-0.000125671	3.82265e-06	-114.251	0.0109246	-0.0044871	0.00996058	-14.5675	13.5455	13.11	3.40698	0.071457	0.0185093	0.0738153	14.522	46698.5	180284	186234	-75.478	0.0000000E+000	0.0000000E+000	0.0000000E+000	75.478	0.0000000E+000	0.0000000E+000	0.0000000E+000	-75.478	0.0000000E+000	0.0000000E+000	0.0000000E+000	-14.522	0.0000000E+000	0.0000000E+000	0.0000000E+000	14.522	3.8606	75.478	-1.5334e-05	-0.000461456	1.48806e-08	-0.000461471	3.89725	32912.4	1.06132	32913.4
39.8089	14.1871	2.63164	14.4291	-10.5087	20.3189	3.89712	-0.133684	1519.19	50.5344	1	10	0.00474186	0.000328631	0	-0.000477116	2.72091e-05	1.06965e-05	-71.7869	0.0325487	0.0101732	0.0309181	-10.6219	14.4448	14.1973	2.66256	0.0681419	0.01264	0.0693043	10.5087	50534.4	272429	277077	-79.4913	0.0000000E+000	0.0000000E+000	0.0000000E+000	79.4913	0.0000000E+000	0.0000000E+000	0.0000000E+000	-79.4913	0.0000000E+000	0.0000000E+000	0.0000000E+000	-10.5087	0.0000000E+000	0.0000000E+000	0.0000000E+000	10.5087	5.39097	79.4913	-1.52955e-05	-0.000520984	-3.63743e-09	-0.000520981	3.8971	29151.7	0.203532	29151.5
25.1044	14.4776	2.01238	14.6168	-7.91339	21.1981	3.89712	-0.133378	3150.36	59.7141	1	10	0.00472944	0.000323563	0	-0.000507298	0.000237419	4.86654e-06	55.8107	0.0150405	0.00845168	-0.0124413	-7.86055	14.6234	14.486	1.99994	0.0677631	0.00941905	0.0684146	7.91339	59714.1	429599	433729	-82.0866	0.0000000E+000	0.0000000E+000	0.0000000E+000	82.0866	0.0000000E+000	0.0000000E+000	0.0000000E+000	-82.0866	0.0000000E+000	0.0000000E+000	0.0000000E+000	-7.91339	0.0000000E+000	0.0000000E+000	0.0000000E+000	7.91339	7.19426	82.0866	-1.55637e-05	-0.000519792	-3.16665e-08	-0.00051976	3.89688	29218.5	1.78004	29216.7
15.8576	15.2961	1.4871	15.3682	-5.55292	22.312	3.89714	-0.117616	6749.04	63.1945	1	11	0.00474179	0.000308546	0	-0.00054344	-0.000125671	8.19647e-06	163.984	0.0265649	-0.0255337	-0.00732943	-5.5349	15.3421	15.2705	1.47977	0.0647641	0.00629646	0.0650695	5.55292	63194.6	650007	653072	-84.4471	0.0000000E+000	0.0000000E+000	0.0000000E+000	84.4471	0.0000000E+000	0.0000000E+000	0.0000000E+000	-84.4471	0.0000000E+000	0.0000000E+000	0.0000000E+000	-5.55292	0.0000000E+000	0.0000000E+000	0.0000000E+000	5.55292	10.2858	84.4471	-2.16784e-05	-0.000458365	1.47808e-08	-0.000458379	3.89726	33134.5	1.06848	33135.6
10.0032	15.2053	0.735097	15.223	-2.7678	23.2928	3.89713	-0.120844	21643.9	50.4689	1	11	0.00472938	0.000310673	0	-0.000574247	-0.000144781	8.91215e-06	-20.5681	0.0286866	0.026858	0.0100782	-2.80075	15.2503	15.2321	0.745175	0.0656134	0.00317207	0.06569	2.7678	50469	1.04393e+06	1.04515e+06	-87.2322	0.0000000E+000	0.0000000E+000	0.0000000E+000	87.2322	0.0000000E+000	0.0000000E+000	0.0000000E+000	-87.2322	0.0000000E+000	0.0000000E+000	0.0000000E+000	-2.7678	0.0000000E+000	0.0000000E+000	0.0000000E+000	2.7678	20.6847	87.2322	-1.26281e-05	-0.000470945	1.74959e-08	-0.000470962	3.89728	32249.3	1.19808	32250.5
6.31058	15.3965	0.762875	15.4154	-2.83661	24.2173	3.89713	-0.120503	33059.6	80.965	1	11	0.0047285	0.00030674	0	-0.000605974	6.5429e-05	9.13714e-06	8.14321	0.0297879	0.0294876	-0.00421939	-2.81557	15.4446	15.4259	0.758656	0.0647909	0.00321031	0.0648704	2.83661	80965.1	1.63405e+06	1.63605e+06	-87.1634	0.0000000E+000	0.0000000E+000	0.0000000E+000	87.1634	0.0000000E+000	0.0000000E+000	0.0000000E+000	-87.1634	0.0000000E+000	0.0000000E+000	0.0000000E+000	-2.83661	0.0000000E+000	0.0000000E+000	0.0000000E+000	2.83661	20.1822	87.1634	-1.05752e-05	-0.000469618	-7.88441e-09	-0.00046961	3.89707	32340.5	0.542964	32339.9
3.97785	15.3939	0.705349	15.4101	-2.62346	25.2243	3.89714	-0.126715	56724.1	118.841	1	11	0.00473939	0.000307552	0	-0.000640396	4.6319e-05	6.95031e-06	12.3492	0.0225988	0.0220759	-0.0048332	-2.60178	15.4319	15.416	0.700516	0.0648247	0.00297027	0.0648927	2.62346	118841	2.59365e+06	2.59638e+06	-87.3765	0.0000000E+000	0.0000000E+000	0.0000000E+000	87.3765	0.0000000E+000	0.0000000E+000	0.0000000E+000	-87.3765	0.0000000E+000	0.0000000E+000	0.0000000E+000	-2.62346	0.0000000E+000	0.0000000E+000	0.0000000E+000	2.62346	21.8245	87.3765	-2.14762e-05	-0.000493828	-5.86933e-09	-0.000493822	3.8971	30755.1	0.365536	30754.8
2.51367	15.6026	0.613167	15.6146	-2.25052	26.784	3.89715	-0.124101	103260	159.231	1	11	0.00473327	0.000303131	0	-0.000696973	-0.000125671	3.17599e-06	26.2885	0.0104773	0.00939367	-0.0046403	-2.23216	15.6238	15.612	0.608527	0.0639932	0.00251488	0.0640426	2.25052	159231	4.05177e+06	4.0549e+06	-87.7495	0.0000000E+000	0.0000000E+000	0.0000000E+000	87.7495	0.0000000E+000	0.0000000E+000	0.0000000E+000	-87.7495	0.0000000E+000	0.0000000E+000	0.0000000E+000	-2.25052	0.0000000E+000	0.0000000E+000	0.0000000E+000	2.25052	25.4459	87.7495	-2.85868e-05	-0.000483641	1.55959e-08	-0.000483657	3.89728	31403	1.01264	31404
1.58469	15.7466	0.70456	15.7623	-2.56192	29.2195	3.89716	-0.127403	142547	284.81	1	11	0.0047382	0.000300603	0	-0.000771315	-0.00022122	5.28166e-06	-14.9544	0.0175702	0.0169751	0.00453401	-2.57561	15.7795	15.7635	0.709094	0.0633791	0.00283582	0.0634425	2.56192	284810	6.36536e+06	6.37173e+06	-87.4381	0.0000000E+000	0.0000000E+000	0.0000000E+000	87.4381	0.0000000E+000	0.0000000E+000	0.0000000E+000	-87.4381	0.0000000E+000	0.0000000E+000	0.0000000E+000	-2.56192	0.0000000E+000	0.0000000E+000	0.0000000E+000	2.56192	22.3495	87.4381	-4.21364e-05	-0.000496512	2.81842e-08	-0.00049654	3.89738	30589.1	1.73638	30590.9
1.00469	16.4626	0.73747	16.4791	-2.56494	240.038	3.89712	-0.15539	214804	430.192	1	11	0.00506369	0.000307279	0	-0.0111643	-0.00022122	4.65224e-07	-5.53382	0.00151401	0.00150696	0.000146001	-2.56522	16.4806	16.4641	0.737616	0.0606221	0.00271567	0.0606829	2.56494	430192	9.60322e+06	9.61286e+06	-87.4351	0.0000000E+000	0.0000000E+000	0.0000000E+000	87.4351	0.0000000E+000	0.0000000E+000	0.0000000E+000	-87.4351	0.0000000E+000	0.0000000E+000	0.0000000E+000	-2.56494	0.0000000E+000	0.0000000E+000	0.0000000E+000	2.56494	22.3231	87.4351	-0.0103323	-0.000605575	3.43755e-08	-0.000605609	3.89734	25079.5	1.42364	25081
0.632957	16.6259	0.893322	16.6499	-3.07558	240.04	3.89712	-0.15539	281474	810.271	1	11	0.00507659	0.000304902	0	-0.0111643	-0.00022122	4.06859e-07	17.9636	0.00133439	0.00126934	-0.000411544	-3.07394	16.6512	16.6272	0.892911	0.0599739	0.00322244	0.0600604	3.07558	810272	1.50802e+07	1.5102e+07	-86.9244	0.0000000E+000	0.0000000E+000	0.0000000E+000	86.9244	0.0000000E+000	0.0000000E+000	0.0000000E+000	-86.9244	0.0000000E+000	0.0000000E+000	0.0000000E+000	-3.07558	0.0000000E+000	0.0000000E+000	0.0000000E+000	3.07558	18.6113	86.9244	0.000000000000000E+000	-0.000605575	3.43755e-08	-0.000605609	3.89734	25079.5	1.42364	25081
0.401878	16.7675	1.15481	16.8073	-3.93984	240.041	3.89712	-0.15539	342938	1618.99	1	11	0.00509041	0.00030287	0	-0.0111643	-0.00022122	4.1027e-07	-19.1424	0.00135461	0.00127971	0.000444199	-3.94105	16.8086	16.7688	1.15525	0.0593575	0.00408806	0.0594981	3.93984	1.61899e+06	2.35073e+07	2.35629e+07	-86.0602	0.0000000E+000	0.0000000E+000	0.0000000E+000	86.0602	0.0000000E+000	0.0000000E+000	0.0000000E+000	-86.0602	0.0000000E+000	0.0000000E+000	0.0000000E+000	-3.93984	0.0000000E+000	0.0000000E+000	0.0000000E+000	3.93984	14.5197	86.0602	0.000000000000000E+000	-0.000605575	3.43755e-08	-0.000605609	3.89734	25079.5	1.42364	25081
0.251173	17.1216	1.47814	17.1852	-4.93423	240.042	3.89712	-0.15539	428677	3171.4	1	11	0.00509137	0.000296264	0	-0.0111643	-0.00022122	2.91248e-07	-47.3419	0.00098307	0.00066615	0.000722959	-4.93645	17.186	17.1222	1.47886	0.0579738	0.00500501	0.0581895	4.93423	3.1714e+06	3.67349e+07	3.68715e+07	-85.0658	0.0000000E+000	0.0000000E+000	0.0000000E+000	85.0658	0.0000000E+000	0.0000000E+000	0.0000000E+000	-85.0658	0.0000000E+000	0.0000000E+000	0.0000000E+000	-4.93423	0.0000000E+000	0.0000000E+000	0.0000000E+000	4.93423	11.5832	85.0658	0.000000000000000E+000	-0.000605575	3.43755e-08	-0.000605609	3.89734	25079.5	1.42364	25081
0.160751	17.4598	1.72495	17.5448	-5.64228	240.043	3.89712	-0.15539	573969	5548.15	1	11	0.00508702	0.000289945	0	-0.0111643	-0.00022122	5.36952e-07	33.9429	0.00185191	0.00153634	-0.00103404	-5.63842	17.5462	17.4613	1.72392	0.0567208	0.00560379	0.056997	5.64228	5.54815e+06	5.61577e+07	5.64311e+07	-84.3577	0.0000000E+000	0.0000000E+000	0.0000000E+000	84.3577	0.0000000E+000	0.0000000E+000	0.0000000E+000	-84.3577	0.0000000E+000	0.0000000E+000	0.0000000E+000	-5.64228	0.0000000E+000	0.0000000E+000	0.0000000E+000	5.64228	10.1219	84.3577	0.000000000000000E+000	-0.000605575	3.43755e-08	-0.000605609	3.89734	25079.5	1.42364	25081
0.100469	17.862	2.45748	18.0303	-7.83367	240.045	3.89712	-0.15539	644608	11974.9	1	11	0.00508897	0.000282246	0	-0.0111643	-0.00022122	4.43262e-07	4.27543	0.00157048	0.00156611	-0.000117081	-7.83262	18.0318	17.8636	2.45737	0.0549447	0.00755939	0.0554623	7.83367	1.19749e+07	8.70387e+07	8.78586e+07	-82.1663	0.0000000E+000	0.0000000E+000	0.0000000E+000	82.1663	0.0000000E+000	0.0000000E+000	0.0000000E+000	-82.1663	0.0000000E+000	0.0000000E+000	0.0000000E+000	-7.83367	0.0000000E+000	0.0000000E+000	0.0000000E+000	7.83367	7.26841	82.1663	0.000000000000000E+000	-0.000605575	3.43755e-08	-0.000605609	3.89734	25079.5	1.42364	25081
0.0602816	18.3941	3.24366	18.678	-10.0008	240.046	3.89712	-0.15539	813953	24547.8	1	11	0.0050869	0.000272348	0	-0.0111643	-0.00022122	5.07395e-07	73.0525	0.00186304	0.000543067	-0.00178213	-9.99517	18.6782	18.3947	3.24188	0.0527255	0.00929773	0.0535391	10.0008	2.45478e+07	1.39205e+08	1.41353e+08	-79.9992	0.0000000E+000	0.0000000E+000	0.0000000E+000	79.9992	0.0000000E+000	0.0000000E+000	0.0000000E+000	-79.9992	0.0000000E+000	0.0000000E+000	0.0000000E+000	-10.0008	0.0000000E+000	0.0000000E+000	0.0000000E+000	10.0008	5.67079	79.9992	0.000000000000000E+000	-0.000605575	3.43755e-08	-0.000605609	3.89734	25079.5	1.42364	25081
0.0401878	19.3046	3.88915	19.6925	-11.3904	240.047	3.89712	-0.15539	1.01829e+06	39717.2	1	11	0.00508375	0.000258157	0	-0.0111643	-0.00022122	6.34106e-07	-102.989	0.00245628	-0.000552066	0.00239344	-11.3976	19.6924	19.3041	3.89154	0.0497806	0.0100289	0.0507807	11.3904	3.97172e+07	1.97145e+08	2.01106e+08	-78.6096	0.0000000E+000	0.0000000E+000	0.0000000E+000	78.6096	0.0000000E+000	0.0000000E+000	0.0000000E+000	-78.6096	0.0000000E+000	0.0000000E+000	0.0000000E+000	-11.3904	0.0000000E+000	0.0000000E+000	0.0000000E+000	11.3904	4.96372	78.6096	0.000000000000000E+000	-0.000605575	3.43755e-08	-0.000605609	3.89734	25079.5	1.42364	25081
0.0200939	21.3718	5.96234	22.1879	-15.5881	240.049	3.89712	-0.15539	1.32843e+06	95926.5	1	11	0.00508493	0.000229175	0	-0.0111643	-0.00022122	1.10151e-06	-26.7422	0.00480639	0.0042923	0.00216276	-15.5905	22.1927	21.3761	5.9645	0.0434118	0.0121111	0.0450695	15.5881	9.59265e+07	3.43846e+08	3.56976e+08	-74.4119	0.0000000E+000	0.0000000E+000	0.0000000E+000	74.4119	0.0000000E+000	0.0000000E+000	0.0000000E+000	-74.4119	0.0000000E+000	0.0000000E+000	0.0000000E+000	-15.5881	0.0000000E+000	0.0000000E+000	0.0000000E+000	15.5881	3.58447	74.4119	0.000000000000000E+000	-0.000605575	3.43755e-08	-0.000605609	3.89734	25079.5	1.42364	25081
0.00796479	25.9099	8.285	27.2023	-17.7323	20329	3.89711	-0.000667247	2.41187e+06	223732	1	11	0.00507557	0.000186586	0	-0.0680969	-0.00024033	6.86606e-07	-6.24057	0.00367983	0.00365803	0.00040001	-17.7308	27.2059	25.9135	8.2854	0.0350151	0.0111965	0.0367617	17.7323	2.23732e+08	6.99683e+08	7.34583e+08	-72.2677	0.0000000E+000	0.0000000E+000	0.0000000E+000	72.2677	0.0000000E+000	0.0000000E+000	0.0000000E+000	-72.2677	0.0000000E+000	0.0000000E+000	0.0000000E+000	-17.7323	0.0000000E+000	0.0000000E+000	0.0000000E+000	17.7323	3.12732	72.2677	-0.0569325	-2.60033e-06	1.6036e-10	-2.60049e-06	3.89735	5.84058e+06	360.182	5.84094e+06
0.00497799	29.2398	8.97472	30.5861	-17.0631	20329	3.89711	-0.000667247	3.56242e+06	306717	1	11	0.00508353	0.000166204	0	-0.0680969	-0.00024033	8.16679e-07	7.46233	0.00491372	0.0048721	-0.000638165	-17.0593	30.5906	29.2447	8.97409	0.0312554	0.00959338	0.0326945	17.0631	3.06717e+08	9.99289e+08	1.0453e+09	-72.9369	0.0000000E+000	0.0000000E+000	0.0000000E+000	72.9369	0.0000000E+000	0.0000000E+000	0.0000000E+000	-72.9369	0.0000000E+000	0.0000000E+000	0.0000000E+000	-17.0631	0.0000000E+000	0.0000000E+000	0.0000000E+000	17.0631	3.25802	72.9369	0.000000000000000E+000	-2.60033e-06	1.6036e-10	-2.60049e-06	3.89735	5.84058e+06	360.182	5.84094e+06
0.00318591	31.5328	11.3762	33.5222	-19.8382	20329	3.89711	-0.000667247	4.39124e+06	505732	1	11	0.0050856	0.000151709	0	-0.0680969	-0.00024033	4.50467e-07	-21.077	0.00296929	0.00277064	0.00106782	-19.8383	33.5251	31.5356	11.3773	0.0280607	0.0101236	0.029831	19.8382	5.05732e+08	1.40179e+09	1.49023e+09	-70.1619	0.0000000E+000	0.0000000E+000	0.0000000E+000	70.1619	0.0000000E+000	0.0000000E+000	0.0000000E+000	-70.1619	0.0000000E+000	0.0000000E+000	0.0000000E+000	-19.8382	0.0000000E+000	0.0000000E+000	0.0000000E+000	19.8382	2.77181	70.1619	0.000000000000000E+000	-2.60033e-06	1.6036e-10	-2.60049e-06	3.89735	5.84058e+06	360.182	5.84094e+06
0.0019912	34.3991	12.0749	36.4569	-19.3423	20329	3.89711	-0.000667247	6.61944e+06	726160	1	11	0.00509037	0.000139627	0	-0.0680969	-0.00024033	7.1064e-07	-26.1038	0.00508956	0.00457041	0.0022394	-19.3433	36.4619	34.4037	12.0772	0.0258814	0.00908502	0.0274297	19.3423	7.26159e+08	2.06869e+09	2.19243e+09	-70.6577	0.0000000E+000	0.0000000E+000	0.0000000E+000	70.6577	0.0000000E+000	0.0000000E+000	0.0000000E+000	-70.6577	0.0000000E+000	0.0000000E+000	0.0000000E+000	-19.3423	0.0000000E+000	0.0000000E+000	0.0000000E+000	19.3423	2.8488	70.6577	0.000000000000000E+000	-2.60033e-06	1.6036e-10	-2.60049e-06	3.89735	5.84058e+06	360.182	5.84094e+06
0.00129428	34.9944	13.4638	37.4951	-21.0438	20329	3.89711	-0.000667247	9.13324e+06	1.17764e+06	1	11	0.00509157	0.000135793	0	-0.0680969	-0.00024033	1.79276e-06	-38.6127	0.0132021	0.0103159	0.00823884	-21.0499	37.5077	35.0047	13.472	0.0248914	0.00957675	0.0266701	21.0438	1.17763e+09	3.06085e+09	3.27958e+09	-68.9562	0.0000000E+000	0.0000000E+000	0.0000000E+000	68.9562	0.0000000E+000	0.0000000E+000	0.0000000E+000	-68.9562	0.0000000E+000	0.0000000E+000	0.0000000E+000	-21.0438	0.0000000E+000	0.0000000E+000	0.0000000E+000	21.0438	2.59915	68.9562	0.000000000000000E+000	-2.60033e-06	1.6036e-10	-2.60049e-06	3.89735	5.84058e+06	360.182	5.84094e+06
0.000796479	40.3867	16.2737	43.5421	-21.9468	20329	3.89711	-0.000667247	1.22789e+07	1.71519e+06	1	11	0.0050889	0.000116873	0	-0.0680969	-0.00024033	1.25866e-06	103.347	0.0107695	-0.00248611	-0.0104786	-21.9353	43.5359	40.3842	16.2632	0.0213019	0.00858356	0.0229663	21.9468	1.71519e+09	4.25662e+09	4.58919e+09	-68.0532	0.0000000E+000	0.0000000E+000	0.0000000E+000	68.0532	0.0000000E+000	0.0000000E+000	0.0000000E+000	-68.0532	0.0000000E+000	0.0000000E+000	0.0000000E+000	-21.9468	0.0000000E+000	0.0000000E+000	0.0000000E+000	21.9468	2.48171	68.0532	0.000000000000000E+000	-2.60033e-06	1.6036e-10	-2.60049e-06	3.89735	5.84058e+06	360.182	5.84094e+06
0.000497799	39.7835	19.1742	44.163	-25.7324	20329	3.89711	-0.000667247	1.66744e+07	3.14315e+06	1	11	0.00509183	0.000115296	0	-0.0680969	-0.00024033	1.01576e-06	-84.1937	0.00880999	0.000891271	0.0087648	-25.7421	44.1676	39.7844	19.1829	0.0203979	0.00983103	0.0226434	25.7324	3.14315e+09	6.52155e+09	7.23948e+09	-64.2676	0.0000000E+000	0.0000000E+000	0.0000000E+000	64.2676	0.0000000E+000	0.0000000E+000	0.0000000E+000	-64.2676	0.0000000E+000	0.0000000E+000	0.0000000E+000	-25.7324	0.0000000E+000	0.0000000E+000	0.0000000E+000	25.7324	2.07485	64.2676	0.000000000000000E+000	-2.60033e-06	1.6036e-10	-2.60049e-06	3.89735	5.84058e+06	360.182	5.84094e+06
0.000298679	38.2289	27.7986	47.2674	-36.0232	20329	3.89711	-0.000667247	1.91687e+07	6.63e+06	1	11	0.00509168	0.000107721	0	-0.0680969	-0.00024033	4.22384e-06	-95.5833	0.039211	-0.00381494	0.039025	-36.0641	47.2873	38.2251	27.8376	0.0171107	0.0124422	0.0211562	36.0232	6.63e+09	9.11765e+09	1.12733e+10	-53.9768	0.0000000E+000	0.0000000E+000	0.0000000E+000	53.9768	0.0000000E+000	0.0000000E+000	0.0000000E+000	-53.9768	0.0000000E+000	0.0000000E+000	0.0000000E+000	-36.0232	0.0000000E+000	0.0000000E+000	0.0000000E+000	36.0232	1.37521	53.9768	0.000000000000000E+000	-2.60033e-06	1.6036e-10	-2.60049e-06	3.89735	5.84058e+06	360.182	5.84094e+06
9.95598e-05	48.3786	124.401	133.477	-68.7493	20329	3.89711	-0.000667247	1.28503e+07	1.11621e+07	1	11	0.00509199	3.81489e-05	0	-0.0680969	-0.00024033	2.35054e-06	-27.5932	0.0616151	0.0546069	0.0285395	-68.7319	133.523	48.4332	124.429	0.00271545	0.00698251	0.00749194	68.7493	1.11621e+10	4.34088e+09	1.19765e+10	-21.2507	0.0000000E+000	0.0000000E+000	0.0000000E+000	21.2507	0.0000000E+000	0.0000000E+000	0.0000000E+000	-21.2507	0.0000000E+000	0.0000000E+000	0.0000000E+000	-68.7493	0.0000000E+000	0.0000000E+000	0.0000000E+000	68.7493	0.388893	21.2507	0.000000000000000E+000	-2.60033e-06	1.6036e-10	-2.60049e-06	3.89735	5.84058e+06	360.182	5.84094e+06