File: txt/19138_R306_UA703_SOC00_C02.mpt
EC-Lab ASCII FILE
Nb header lines : 65

Potentio Electrochemical Impedance Spectroscopy

Run on channel : 2 (SN 66139)
Grouped channel(s) : 1, 2, 3, 4, 5
User :
CE vs. WE compliance from -10 V to 10 V
Electrode connection : standard
Potential control : Ewe
Ewe ctrl range : min = -10.00 V, max = 10.00 V
Safety Limits :
	Do not start on E overload
Acquisition started on : 11/12/2025 11:20:24.450
Loaded Setting File :  C:\Users\Celltest\OneDrive - store-dot.com\Documents\EC-Lab\Data\@Biologic Test Protocols\anode half cell EIS SOC00.mps
Saved on :
	File : 19137_R306_UA703_SOC00_C02.mpr
	Directory : C:\Users\Celltest\OneDrive - store-dot.com\Documents\EC-Lab\Data\Charmaine\
	Host : 169.254.61.224
Device : VMP-3e (SN .003165)
Address : USB
EC-LAB for windows v11.62 (software)
Internet server v27.00 (firmware)
Command interpretor v12.03 (firmware)
Electrode material :
Initial state :
Electrolyte :
Comments :
Electrode surface area : 0.001 cm²
Characteristic mass : 0.001 g
Equivalent Weight : 0.000 g/eq.
Density : 0.000 g/cm3
Volume (V) : 0.001 cm³
Record Ece
Cycle Definition : Charge/Discharge alternance
Mode                Single sine
E (V)               0.0000
vs.                 Eoc
tE (h:m:s)          0:00:0.0000
record              0
dI                  0.000
unit dI             mA
dt (s)              0.000
fi                  100.000
unit fi             kHz
ff                  10.000
unit ff             mHz
Nd                  6
Points              per decade
spacing             Logarithmic
Va (mV)             5.0
pw                  0.10
Na                  2
corr                0
E range min (V)     -10.000
E range max (V)     10.000
I Range             Auto
Bandwidth           5
nc cycles           0
goto Ns'            0
nr cycles           0
inc. cycle          0

freq/Hz	Re(Z)/Ohm	-Im(Z)/Ohm	|Z|/Ohm	Phase(Z)/deg	time/s	<Ewe>/V	<I>/mA	Cs/µF	Cp/µF	cycle number	I Range	|Ewe|/V	|I|/A	Ns	(Q-Qo)/mA.h	<Ece>/V	|Ece|/V	Phase(Zce)/deg	|Zce|/Ohm	Re(Zce)/Ohm	-Im(Zce)/Ohm	Phase(Zwe-ce)/deg	|Zwe-ce|/Ohm	Re(Zwe-ce)/Ohm	-Im(Zwe-ce)/Ohm	Re(Y)/Ohm-1	Im(Y)/Ohm-1	|Y|/Ohm-1	Phase(Y)/deg	Re(C)/nF	Im(C)/nF	|C|/nF	Phase(C)/deg	Re(M)	Im(M)	|M|	Phase(M)/deg	Re(Permittivity)	Im(Permittivity)	|Permittivity|	Phase(Permittivity)/deg	Re(Resistivity)/Ohm.cm	Im(Resistivity)/Ohm.cm	|Resistivity|/Ohm.cm	Phase(Resistivity)/deg	Re(Conductivity)/mS/cm	Im(Conductivity)/mS/cm	|Conductivity|/mS/cm	Phase(Conductivity)/deg	Tan(Delta)	Loss Angle(Delta)/deg	dq/mA.h	Pwe/W	Pce/W	Pwe-ce/W	<Ewe-Ece>/V	Rwe/Ohm	Rce/Ohm	Rwe-ce/Ohm		Ewe-Ece/V
100004	1.10476	0.480021	1.20454	-23.485	1.72656	0.269558	-0.0203712	3.31546	0.526528	1	9	0.00476265	0.00395392	0	-1.1092e-05	-6.01755e-05	2.11114e-05	90.523	0.00533935	-4.87408e-05	-0.00533913	-23.2526	1.20238	1.10471	0.474681	0.761423	0.33084	0.830193	23.485	526.528	1211.8	1321.24	-66.515	0.0000000E+000	0.0000000E+000	0.0000000E+000	66.515	0.0000000E+000	0.0000000E+000	0.0000000E+000	-66.515	0.0000000E+000	0.0000000E+000	0.0000000E+000	-23.485	0.0000000E+000	0.0000000E+000	0.0000000E+000	23.485	2.30149	66.515	-1.1092e-05	-5.49123e-06	1.22585e-09	-5.49246e-06	0.269619	13232.3	2.95395	13235.3
68132	1.24046	0.542794	1.35401	-23.6331	2.23354	0.269545	-0.0251014	4.30362	0.691604	1	9	0.0050851	0.00375558	0	-8.8506e-06	9.25513e-05	2.15673e-05	31.966	0.00574274	0.00487193	-0.0030403	-23.433	1.35727	1.24533	0.539754	0.676604	0.296066	0.738545	23.6331	691.604	1580.53	1725.22	-66.3669	0.0000000E+000	0.0000000E+000	0.0000000E+000	66.3669	0.0000000E+000	0.0000000E+000	0.0000000E+000	-66.3669	0.0000000E+000	0.0000000E+000	0.0000000E+000	-23.6331	0.0000000E+000	0.0000000E+000	0.0000000E+000	23.6331	2.28531	66.3669	2.24144e-06	-6.76596e-06	-2.32317e-09	-6.76363e-06	0.269452	10738.2	3.68709	10734.5
46420.4	1.39412	0.600942	1.51812	-23.3188	2.74053	0.269555	-0.0174288	5.70531	0.893988	1	9	0.00507849	0.00334525	0	-5.67547e-07	0.000111642	1.11688e-05	19.9205	0.0033387	0.00313894	-0.00113755	-23.2326	1.52055	1.39725	0.599805	0.604904	0.260748	0.658709	23.3188	893.989	2073.95	2258.42	-66.6812	0.0000000E+000	0.0000000E+000	0.0000000E+000	66.6812	0.0000000E+000	0.0000000E+000	0.0000000E+000	-66.6812	0.0000000E+000	0.0000000E+000	0.0000000E+000	-23.3188	0.0000000E+000	0.0000000E+000	0.0000000E+000	23.3188	2.31988	66.6812	8.28305e-06	-4.69802e-06	-1.94579e-09	-4.69607e-06	0.269443	15466.1	6.40562	15459.7
31621.1	1.54409	0.657202	1.67814	-23.0557	3.24754	0.269567	-0.0142629	7.6585	1.17459	1	9	0.00514335	0.00306492	0	-9.16962e-06	0.00028346	1.2638e-05	45.4495	0.00412342	0.00289274	-0.00293848	-22.9248	1.67965	1.54699	0.654264	0.548301	0.23337	0.595899	23.0557	1174.59	2759.7	2999.27	-66.9443	0.0000000E+000	0.0000000E+000	0.0000000E+000	66.9443	0.0000000E+000	0.0000000E+000	0.0000000E+000	-66.9443	0.0000000E+000	0.0000000E+000	0.0000000E+000	-23.0557	0.0000000E+000	0.0000000E+000	0.0000000E+000	23.0557	2.3495	66.9443	-8.60207e-06	-3.8448e-06	-4.04295e-09	-3.84076e-06	0.269283	18899.9	19.8739	18880
21544.7	1.71488	0.713836	1.85752	-22.6	3.63052	0.269543	-0.0264423	10.3486	1.52831	1	9	0.0052201	0.00281026	0	-1.02025e-05	0.000207096	1.019e-05	-65.8687	0.00362599	0.00148241	0.00330912	-22.6766	1.86016	1.71636	0.717145	0.497013	0.206887	0.538353	22.6	1528.31	3671.54	3976.92	-67.4	0.0000000E+000	0.0000000E+000	0.0000000E+000	67.4	0.0000000E+000	0.0000000E+000	0.0000000E+000	-67.4	0.0000000E+000	0.0000000E+000	0.0000000E+000	-22.6	0.0000000E+000	0.0000000E+000	0.0000000E+000	22.6	2.40234	67.4	-1.03291e-06	-7.12734e-06	-5.4761e-09	-7.12186e-06	0.269336	10193.6	7.83201	10185.8
14678.6	1.87452	0.768387	2.02589	-22.2893	4.01354	0.269562	-0.015641	14.1109	2.02994	1	9	0.00485455	0.00239625	0	-1.0473e-05	-0.000212902	4.57225e-06	-15.3933	0.00190808	0.00183963	0.000506489	-22.2828	2.02779	1.87636	0.768893	0.456727	0.187218	0.49361	22.2893	2029.94	4952.14	5352.04	-67.7107	0.0000000E+000	0.0000000E+000	0.0000000E+000	67.7107	0.0000000E+000	0.0000000E+000	0.0000000E+000	-67.7107	0.0000000E+000	0.0000000E+000	0.0000000E+000	-22.2893	0.0000000E+000	0.0000000E+000	0.0000000E+000	22.2893	2.43955	67.7107	-2.70435e-07	-4.21622e-06	3.33e-09	-4.21955e-06	0.269775	17234.3	13.6118	17247.9
10002.2	2.05503	0.842799	2.22114	-22.2993	4.39652	0.269536	-0.0283791	18.8799	2.71829	1	9	0.00483304	0.00217593	0	-1.18123e-05	0.000188005	7.80471e-06	-72.224	0.00358684	0.00109505	0.0034156	-22.37	2.22345	2.05613	0.846214	0.41655	0.170833	0.450219	22.2993	2718.29	6628.12	7163.87	-67.7007	0.0000000E+000	0.0000000E+000	0.0000000E+000	67.7007	0.0000000E+000	0.0000000E+000	0.0000000E+000	-67.7007	0.0000000E+000	0.0000000E+000	0.0000000E+000	-22.2993	0.0000000E+000	0.0000000E+000	0.0000000E+000	22.2993	2.43834	67.7007	-1.33937e-06	-7.6492e-06	-5.33543e-09	-7.64386e-06	0.269348	9497.7	6.62478	9491.07
6810.42	2.2333	0.945093	2.42504	-22.9372	4.77953	0.269542	-0.0335191	24.727	3.75562	1	9	0.00509181	0.00209968	0	-1.45776e-05	0.000264369	0.000105978	-64.6041	0.0504732	0.0216465	0.0455958	-23.7178	2.46298	2.25495	0.990689	0.379759	0.160707	0.412364	22.9372	3755.62	8874.72	9636.67	-67.0628	0.0000000E+000	0.0000000E+000	0.0000000E+000	67.0628	0.0000000E+000	0.0000000E+000	0.0000000E+000	-67.0628	0.0000000E+000	0.0000000E+000	0.0000000E+000	-22.9372	0.0000000E+000	0.0000000E+000	0.0000000E+000	22.9372	2.36305	67.0628	-2.76528e-06	-9.03479e-06	-8.86139e-09	-9.02593e-06	0.269278	8041.46	7.88712	8033.57
4646	2.4414	1.04258	2.6547	-23.1245	5.0456	0.269517	-0.0411917	32.8573	5.06781	1	9	0.00495166	0.00186525	0	-1.56455e-05	0.000226187	4.11768e-06	-80.1997	0.00220758	0.000375761	0.00217537	-23.1645	2.6559	2.44178	1.04476	0.346425	0.147938	0.376691	23.1245	5067.81	11867.3	12904	-66.8755	0.0000000E+000	0.0000000E+000	0.0000000E+000	66.8755	0.0000000E+000	0.0000000E+000	0.0000000E+000	-66.8755	0.0000000E+000	0.0000000E+000	0.0000000E+000	-23.1245	0.0000000E+000	0.0000000E+000	0.0000000E+000	23.1245	2.34169	66.8755	-1.06789e-06	-1.11019e-05	-9.31704e-09	-1.10925e-05	0.269291	6542.99	5.49108	6537.49
3163.08	2.69303	1.19561	2.9465	-23.9395	5.41862	0.269303	-0.084248	42.0844	6.92923	1	9	0.00488404	0.00165757	0	-2.31697e-05	-2.90295e-06	6.67844e-06	29.9238	0.00402905	0.00349194	-0.00200988	-23.8763	2.94888	2.69652	1.1936	0.310189	0.137713	0.339385	23.9395	6929.23	15607.6	17076.7	-66.0605	0.0000000E+000	0.0000000E+000	0.0000000E+000	66.0605	0.0000000E+000	0.0000000E+000	0.0000000E+000	-66.0605	0.0000000E+000	0.0000000E+000	0.0000000E+000	-23.9395	0.0000000E+000	0.0000000E+000	0.0000000E+000	23.9395	2.25243	66.0605	-7.52415e-06	-2.26882e-05	2.44567e-10	-2.26885e-05	0.269306	3196.55	0.0344572	3196.59
2155.69	2.94055	1.35841	3.23915	-24.7949	5.87078	0.269525	0.0440269	54.3505	9.55876	1	9	0.00482583	0.00148984	0	-1.72808e-05	-9.83572e-05	8.90924e-06	97.5059	0.00597998	-0.000781156	-0.00592874	-24.7054	3.23596	2.93977	1.35248	0.280263	0.12947	0.308723	24.7949	9558.76	20691.9	22793.1	-65.2051	0.0000000E+000	0.0000000E+000	0.0000000E+000	65.2051	0.0000000E+000	0.0000000E+000	0.0000000E+000	-65.2051	0.0000000E+000	0.0000000E+000	0.0000000E+000	-24.7949	0.0000000E+000	0.0000000E+000	0.0000000E+000	24.7949	2.1647	65.2051	5.88889e-06	1.18664e-05	-4.33036e-09	1.18707e-05	0.269623	6121.82	2.23402	6124.05
1468.59	3.20698	1.56686	3.56928	-26.039	6.5681	0.269486	-0.0333293	69.1656	13.3287	1	10	0.00496004	0.00138965	0	-1.7393e-05	0.000398005	2.24023e-05	-17.5331	0.0161209	0.015372	0.00485653	-26.0009	3.58523	3.22236	1.57171	0.25173	0.122989	0.280168	26.039	13328.7	27280.6	30362.6	-63.961	0.0000000E+000	0.0000000E+000	0.0000000E+000	63.961	0.0000000E+000	0.0000000E+000	0.0000000E+000	-63.961	0.0000000E+000	0.0000000E+000	0.0000000E+000	-26.039	0.0000000E+000	0.0000000E+000	0.0000000E+000	26.039	2.04676	63.961	-1.12187e-07	-8.98178e-06	-1.32652e-08	-8.96852e-06	0.269088	8085.58	11.9416	8073.64
1000.32	3.51159	1.84358	3.96611	-27.6994	7.01885	0.269485	-0.0320068	86.3018	18.6472	1	10	0.00489697	0.0012347	0	-2.20481e-05	0.000130733	8.06362e-06	-73.7565	0.00653081	0.0018268	0.00627011	-27.7673	3.97064	3.51341	1.84985	0.223241	0.117201	0.252136	27.6994	18647.2	35518.6	40115.9	-62.3006	0.0000000E+000	0.0000000E+000	0.0000000E+000	62.3006	0.0000000E+000	0.0000000E+000	0.0000000E+000	-62.3006	0.0000000E+000	0.0000000E+000	0.0000000E+000	-27.6994	0.0000000E+000	0.0000000E+000	0.0000000E+000	27.6994	1.90477	62.3006	-4.65516e-06	-8.62534e-06	-4.18435e-09	-8.62116e-06	0.269354	8419.6	4.08453	8415.51
681.09	3.88317	2.20303	4.46457	-29.5675	7.46955	0.269486	-0.0320329	106.071	25.8272	1	10	0.00486418	0.00108951	0	-2.62095e-05	-2.19938e-05	7.88029e-06	34.2519	0.0072329	0.00597851	-0.00407091	-29.4842	4.46777	3.88915	2.19896	0.194817	0.110525	0.223986	29.5675	25827.2	45524.3	52340.3	-60.4325	0.0000000E+000	0.0000000E+000	0.0000000E+000	60.4325	0.0000000E+000	0.0000000E+000	0.0000000E+000	-60.4325	0.0000000E+000	0.0000000E+000	0.0000000E+000	-29.5675	0.0000000E+000	0.0000000E+000	0.0000000E+000	29.5675	1.76265	60.4325	-4.16143e-06	-8.63243e-06	7.04525e-10	-8.63313e-06	0.269508	8412.8	0.6866	8413.49
463.961	4.32629	2.70898	5.10445	-32.0534	7.92128	0.269493	-0.0312283	126.629	35.6654	1	10	0.00483883	0.000947963	0	-2.99923e-05	7.34604e-05	1.71875e-05	-127.178	0.018131	-0.0109565	0.0144461	-32.2562	5.10286	4.31534	2.72343	0.166042	0.10397	0.195908	32.0534	35665.4	56958.3	67203.2	-57.9466	0.0000000E+000	0.0000000E+000	0.0000000E+000	57.9466	0.0000000E+000	0.0000000E+000	0.0000000E+000	-57.9466	0.0000000E+000	0.0000000E+000	0.0000000E+000	-32.0534	0.0000000E+000	0.0000000E+000	0.0000000E+000	32.0534	1.59702	57.9465	-3.78277e-06	-8.4158e-06	-2.29404e-09	-8.41351e-06	0.26942	8629.79	2.35237	8627.43
316.316	4.92152	3.32142	5.93744	-34.0145	8.36905	0.269492	-0.0330871	151.487	47.405	1	10	0.00481568	0.00081107	0	-3.43571e-05	0.000264369	3.87675e-06	-61.6454	0.0047798	0.00227006	0.00420635	-34.0359	5.94168	4.92379	3.32563	0.139605	0.0942162	0.168423	34.0145	47405.1	70242.4	84742.2	-55.9855	0.0000000E+000	0.0000000E+000	0.0000000E+000	55.9855	0.0000000E+000	0.0000000E+000	0.0000000E+000	-55.9855	0.0000000E+000	0.0000000E+000	0.0000000E+000	-34.0145	0.0000000E+000	0.0000000E+000	0.0000000E+000	34.0145	1.48175	55.9855	-4.36478e-06	-8.91671e-06	-8.74721e-09	-8.90796e-06	0.269227	8144.9	7.99008	8136.91
215.345	5.76228	4.06201	7.05009	-35.1812	8.81954	0.269482	-0.0340296	181.947	60.4002	1	10	0.00480433	0.000681456	0	-3.91385e-05	0.000149824	1.06419e-05	38.7524	0.0156164	0.0121786	-0.00977521	-35.0594	7.05443	5.77445	4.05224	0.115932	0.0817245	0.141842	35.1812	60400.2	85682.3	104831	-54.8188	0.0000000E+000	0.0000000E+000	0.0000000E+000	54.8188	0.0000000E+000	0.0000000E+000	0.0000000E+000	-54.8188	0.0000000E+000	0.0000000E+000	0.0000000E+000	-35.1812	0.0000000E+000	0.0000000E+000	0.0000000E+000	35.1812	1.41858	54.8188	-4.78136e-06	-9.17038e-06	-5.09845e-09	-9.16528e-06	0.269332	7919.05	4.40275	7914.65
146.737	6.89214	4.84508	8.42475	-35.1067	9.26551	0.269507	-0.0303789	223.861	74.04	1	10	0.00479297	0.000568916	0	-4.30979e-05	0.000188005	7.51568e-06	66.2103	0.0132105	0.00532887	-0.0120881	-35.0186	8.42217	6.89747	4.83299	0.0971047	0.0682633	0.118698	35.1067	74040	105322	128743	-54.8933	0.0000000E+000	0.0000000E+000	0.0000000E+000	54.8933	0.0000000E+000	0.0000000E+000	0.0000000E+000	-54.8933	0.0000000E+000	0.0000000E+000	0.0000000E+000	-35.1067	0.0000000E+000	0.0000000E+000	0.0000000E+000	35.1067	1.4225	54.8933	-3.95942e-06	-8.18732e-06	-5.7114e-09	-8.18161e-06	0.269319	8871.51	6.18868	8865.32
100.032	8.38273	5.56279	10.0606	-33.5683	9.71679	0.269475	-0.032886	286.015	87.444	1	10	0.00480094	0.000477205	0	-4.6795e-05	-4.10846e-05	6.40635e-06	-14.6573	0.0134247	0.0129878	0.00339696	-33.5436	10.0733	8.39571	5.56618	0.0828212	0.0549603	0.0993981	33.5683	87444	131772	158146	-56.4317	0.0000000E+000	0.0000000E+000	0.0000000E+000	56.4317	0.0000000E+000	0.0000000E+000	0.0000000E+000	-56.4317	0.0000000E+000	0.0000000E+000	0.0000000E+000	-33.5683	0.0000000E+000	0.0000000E+000	0.0000000E+000	33.5683	1.50693	56.4317	-3.69711e-06	-8.86197e-06	1.35111e-09	-8.86332e-06	0.269516	8194.23	1.24931	8195.48
68.104	10.1464	6.01215	11.7939	-30.6485	10.1795	0.269481	-0.0300325	388.703	101.01	1	10	0.00479434	0.000406511	0	-5.03262e-05	0.000149824	8.753e-06	-47.9869	0.021532	0.0144114	0.0159981	-30.6796	11.8144	10.1608	6.02815	0.0729457	0.0432233	0.0847899	30.6485	101010	170470	198149	-59.3515	0.0000000E+000	0.0000000E+000	0.0000000E+000	59.3515	0.0000000E+000	0.0000000E+000	0.0000000E+000	-59.3515	0.0000000E+000	0.0000000E+000	0.0000000E+000	-30.6485	0.0000000E+000	0.0000000E+000	0.0000000E+000	30.6485	1.68765	59.3515	-3.53117e-06	-8.09318e-06	-4.49958e-09	-8.08868e-06	0.269331	8972.99	4.98873	8968
46.4415	11.9379	6.09911	13.4057	-27.0627	10.6167	0.269479	-0.0342084	561.884	116.306	1	10	0.00478391	0.000356857	0	-5.42012e-05	7.34604e-05	3.38591e-06	-18.8772	0.00948814	0.00897782	0.0030698	-27.0569	13.4151	11.9469	6.10218	0.0664278	0.0339382	0.0745952	27.0627	116306	227648	255637	-62.9373	0.0000000E+000	0.0000000E+000	0.0000000E+000	62.9373	0.0000000E+000	0.0000000E+000	0.0000000E+000	-62.9373	0.0000000E+000	0.0000000E+000	0.0000000E+000	-27.0627	0.0000000E+000	0.0000000E+000	0.0000000E+000	27.0627	1.95732	62.9373	-3.87504e-06	-9.21847e-06	-2.51297e-09	-9.21596e-06	0.269406	7877.57	2.14744	7875.42
31.6296	13.7663	5.94611	14.9956	-23.3611	11.0466	0.269464	-0.0364846	846.242	133.056	1	10	0.0047946	0.000319734	0	-5.88472e-05	-2.90295e-06	1.12965e-05	-57.8175	0.035331	0.0188179	0.0299026	-23.4373	15.0247	13.7851	5.97601	0.0612197	0.0264428	0.0666864	23.3611	133056	308048	335555	-66.6389	0.0000000E+000	0.0000000E+000	0.0000000E+000	66.6389	0.0000000E+000	0.0000000E+000	0.0000000E+000	-66.6389	0.0000000E+000	0.0000000E+000	0.0000000E+000	-23.3611	0.0000000E+000	0.0000000E+000	0.0000000E+000	23.3611	2.31518	66.6389	-4.64596e-06	-9.83127e-06	1.05913e-10	-9.83138e-06	0.269467	7385.7	0.0795665	7385.78
21.5517	15.3918	5.59624	16.3776	-19.9805	11.6995	0.269528	-0.0156545	1319.6	154.075	1	11	0.00478892	0.000292406	0	-6.37291e-05	0.000149824	8.94413e-06	37.4213	0.030588	0.0242927	-0.0185874	-19.8905	16.3941	15.4161	5.57765	0.0573838	0.0208639	0.061059	19.9805	154075	423767	450908	-70.0195	0.0000000E+000	0.0000000E+000	0.0000000E+000	70.0195	0.0000000E+000	0.0000000E+000	0.0000000E+000	-70.0195	0.0000000E+000	0.0000000E+000	0.0000000E+000	-19.9805	0.0000000E+000	0.0000000E+000	0.0000000E+000	19.9805	2.75039	70.0195	-4.88191e-06	-4.21934e-06	-2.34542e-09	-4.21699e-06	0.269379	17217.3	9.57064	17207.7
14.6852	16.8238	5.12386	17.5868	-16.9386	12.1601	0.269527	-0.0149062	2115.17	179.542	1	11	0.004792	0.000272477	0	-6.60671e-05	3.52787e-05	8.33497e-06	-52.4947	0.0305896	0.018624	0.0242666	-16.9965	17.6117	16.8425	5.14812	0.0543941	0.0165662	0.0568609	16.9386	179542	589513	616247	-73.0614	0.0000000E+000	0.0000000E+000	0.0000000E+000	73.0614	0.0000000E+000	0.0000000E+000	0.0000000E+000	-73.0614	0.0000000E+000	0.0000000E+000	0.0000000E+000	-16.9386	0.0000000E+000	0.0000000E+000	0.0000000E+000	16.9386	3.28343	73.0614	-2.33808e-06	-4.01762e-06	-5.25872e-10	-4.0171e-06	0.269492	18081.5	2.36671	18079.2
10.0032	18.0195	4.59767	18.5968	-14.3136	12.6109	0.26952	-0.0153946	3460.53	211.516	1	11	0.00478346	0.000257219	0	-6.58803e-05	5.43696e-05	1.14766e-05	-14.7842	0.044618	0.0431408	0.0113856	-14.3147	18.6414	18.0626	4.60906	0.0521034	0.0132942	0.0537727	14.3136	211516	828986	855545	-75.6864	0.0000000E+000	0.0000000E+000	0.0000000E+000	75.6864	0.0000000E+000	0.0000000E+000	0.0000000E+000	-75.6864	0.0000000E+000	0.0000000E+000	0.0000000E+000	-14.3136	0.0000000E+000	0.0000000E+000	0.0000000E+000	14.3136	3.91927	75.6864	1.86843e-07	-4.14916e-06	-8.37001e-10	-4.14832e-06	0.269465	17507.4	3.53172	17503.8
6.81719	19.1078	4.13626	19.5503	-12.2144	12.9505	0.269534	-0.0141031	5644.25	252.647	1	11	0.00478417	0.00024471	0	-6.89271e-05	0.000264369	9.29587e-06	-3.41432	0.0379873	0.0379199	0.00226237	-12.1974	19.5879	19.1457	4.13853	0.0499921	0.0108218	0.05115	12.2144	252647	1.16712e+06	1.19415e+06	-77.7856	0.0000000E+000	0.0000000E+000	0.0000000E+000	77.7856	0.0000000E+000	0.0000000E+000	0.0000000E+000	-77.7856	0.0000000E+000	0.0000000E+000	0.0000000E+000	-12.2144	0.0000000E+000	0.0000000E+000	0.0000000E+000	12.2144	4.61957	77.7856	-3.0468e-06	-3.80127e-06	-3.72842e-09	-3.79754e-06	0.26927	19111.7	18.7455	19093
4.63925	20.0423	3.62373	20.3672	-10.2486	13.4344	0.269538	-0.014036	9467.08	299.685	1	11	0.00479001	0.000235182	0	-7.18372e-05	0.000168915	1.22622e-05	65.1642	0.0521392	0.0218994	-0.0473171	-10.1068	20.3804	20.0642	3.57641	0.0483151	0.0087356	0.0490985	10.2486	299685	1.65751e+06	1.68438e+06	-79.7514	0.0000000E+000	0.0000000E+000	0.0000000E+000	79.7514	0.0000000E+000	0.0000000E+000	0.0000000E+000	-79.7514	0.0000000E+000	0.0000000E+000	0.0000000E+000	-10.2486	0.0000000E+000	0.0000000E+000	0.0000000E+000	10.2486	5.53083	79.7514	-2.91012e-06	-3.78323e-06	-2.37088e-09	-3.78086e-06	0.269369	19203.4	12.0344	19191.3
3.1604	20.7762	3.22681	21.0253	-8.82824	14.1274	0.269527	-0.0138475	15606.5	367.594	1	11	0.0047802	0.000227355	0	-7.17668e-05	0.000302551	4.0211e-06	89.4357	0.0176864	0.000174185	-0.0176856	-8.78054	21.0227	20.7764	3.20913	0.0469983	0.00729945	0.0475618	8.82824	367594	2.3668e+06	2.39517e+06	-81.1718	0.0000000E+000	0.0000000E+000	0.0000000E+000	81.1718	0.0000000E+000	0.0000000E+000	0.0000000E+000	-81.1718	0.0000000E+000	0.0000000E+000	0.0000000E+000	-8.82824	0.0000000E+000	0.0000000E+000	0.0000000E+000	8.82824	6.43861	81.1718	7.04486e-08	-3.73228e-06	-4.18957e-09	-3.72809e-06	0.269225	19464	21.8488	19442.1
2.15577	21.473	2.78798	21.6532	-7.39771	15.131	0.269538	-0.0128279	26480.6	438.998	1	11	0.00478744	0.000221096	0	-7.20517e-05	0.000264369	4.66489e-06	-60.5643	0.021099	0.010369	0.0183752	-7.44237	21.6659	21.4834	2.80636	0.0457981	0.00594627	0.0461825	7.39771	438998	3.38116e+06	3.40954e+06	-82.6023	0.0000000E+000	0.0000000E+000	0.0000000E+000	82.6023	0.0000000E+000	0.0000000E+000	0.0000000E+000	-82.6023	0.0000000E+000	0.0000000E+000	0.0000000E+000	-7.39771	0.0000000E+000	0.0000000E+000	0.0000000E+000	7.39771	7.70199	82.6023	-2.8493e-07	-3.45761e-06	-3.39131e-09	-3.45422e-06	0.269273	21011.8	20.6088	20991.2
1.46631	22.0389	2.48673	22.1788	-6.43764	16.5926	0.269539	-0.0115114	43648.2	548.715	1	11	0.00479031	0.000215986	0	-7.6907e-05	0.00028346	3.99244e-06	48.668	0.0184847	0.0122077	-0.0138801	-6.3985	22.1894	22.0512	2.47285	0.0448038	0.00505536	0.0450881	6.43764	548715	4.86306e+06	4.89391e+06	-83.5624	0.0000000E+000	0.0000000E+000	0.0000000E+000	83.5624	0.0000000E+000	0.0000000E+000	0.0000000E+000	-83.5624	0.0000000E+000	0.0000000E+000	0.0000000E+000	-6.43764	0.0000000E+000	0.0000000E+000	0.0000000E+000	6.43764	8.86263	83.5624	-4.85527e-06	-3.10276e-06	-3.26302e-09	-3.0995e-06	0.269255	23414.9	24.6243	23390.3
1.00006	22.4803	2.24217	22.5918	-5.6958	19.7676	0.269537	-0.0103628	70978.1	699.13	1	12	0.00478949	0.000212001	0	-9.2237e-05	0.000188005	1.79192e-06	-11.3276	0.0084524	0.00828775	0.00166021	-5.69791	22.6002	22.4886	2.24383	0.0440453	0.00439305	0.0442638	5.6958	699130	7.00958e+06	7.04436e+06	-84.3042	0.0000000E+000	0.0000000E+000	0.0000000E+000	84.3042	0.0000000E+000	0.0000000E+000	0.0000000E+000	-84.3042	0.0000000E+000	0.0000000E+000	0.0000000E+000	-5.6958	0.0000000E+000	0.0000000E+000	0.0000000E+000	5.6958	10.0261	84.3042	-1.533e-05	-2.79317e-06	-1.94827e-09	-2.79123e-06	0.269349	26010	18.1423	25991.8
0.681362	22.8547	2.07526	22.9488	-5.18835	22.8794	0.269536	-0.00973814	112556	920.44	1	12	0.00478617	0.000208559	0	-0.000109689	-2.19938e-05	3.63494e-06	-16.0013	0.0174289	0.0167536	0.00480443	-5.19651	22.9659	22.8715	2.08006	0.0433968	0.00394052	0.0435753	5.18835	920440	1.01368e+07	1.01785e+07	-84.8117	0.0000000E+000	0.0000000E+000	0.0000000E+000	84.8117	0.0000000E+000	0.0000000E+000	0.0000000E+000	-84.8117	0.0000000E+000	0.0000000E+000	0.0000000E+000	-5.18835	0.0000000E+000	0.0000000E+000	0.0000000E+000	5.18835	11.013	84.8117	-1.74519e-05	-2.62477e-06	2.14179e-10	-2.62499e-06	0.269558	27678.4	2.25852	27680.6
0.464091	23.2352	2.07677	23.3278	-5.10755	27.4361	0.269532	-0.00988431	165131	1308.76	1	12	0.00479013	0.00020534	0	-0.000128406	0.000207096	2.90536e-06	5.94678	0.014149	0.0140729	-0.00146591	-5.10089	23.3417	23.2492	2.07531	0.0426971	0.00381629	0.0428673	5.10755	1.30876e+06	1.46425e+07	1.47009e+07	-84.8924	0.0000000E+000	0.0000000E+000	0.0000000E+000	84.8924	0.0000000E+000	0.0000000E+000	0.0000000E+000	-84.8924	0.0000000E+000	0.0000000E+000	0.0000000E+000	-5.10755	0.0000000E+000	0.0000000E+000	0.0000000E+000	5.10755	11.1881	84.8924	-1.87175e-05	-2.66414e-06	-2.047e-09	-2.66209e-06	0.269325	27268.7	20.952	27247.7
0.316193	23.5831	2.24173	23.6894	-5.43003	34.1121	0.269534	-0.00936991	224535	2010.68	1	12	0.00478877	0.000202148	0	-0.000141831	0.000111642	2.21961e-06	-48.4304	0.0109801	0.00728563	0.00821479	-5.44813	23.6974	23.5904	2.24995	0.0420235	0.00399461	0.0422129	5.43003	2.01068e+06	2.11524e+07	2.12478e+07	-84.57	0.0000000E+000	0.0000000E+000	0.0000000E+000	84.57	0.0000000E+000	0.0000000E+000	0.0000000E+000	-84.57	0.0000000E+000	0.0000000E+000	0.0000000E+000	-5.43003	0.0000000E+000	0.0000000E+000	0.0000000E+000	5.43003	10.52	84.57	-1.34249e-05	-2.52551e-06	-1.04608e-09	-2.52446e-06	0.269422	28765.9	11.915	28754
0.215268	23.8987	2.55037	24.0344	-6.09133	43.9056	0.269534	-0.0084355	289893	3264.22	1	12	0.00479153	0.000199361	0	-0.000144176	-0.000231993	2.41973e-06	22.576	0.0121374	0.0112073	-0.00465965	-6.07745	24.045	23.9099	2.54571	0.0413722	0.00441508	0.0416071	6.09133	3.26422e+06	3.05879e+07	3.07616e+07	-83.9087	0.0000000E+000	0.0000000E+000	0.0000000E+000	83.9087	0.0000000E+000	0.0000000E+000	0.0000000E+000	-83.9087	0.0000000E+000	0.0000000E+000	0.0000000E+000	-6.09133	0.0000000E+000	0.0000000E+000	0.0000000E+000	6.09133	9.37066	83.9087	-2.34463e-06	-2.27365e-06	1.95698e-09	-2.27561e-06	0.269766	31952.3	27.502	31979.8
0.146929	24.2851	2.97259	24.4663	-6.97851	58.244	0.26953	-0.00655037	364400	5379.11	1	12	0.00478942	0.000195755	0	-0.000134184	0.000207096	2.56258e-06	13.2157	0.0130907	0.012744	-0.00299277	-6.96793	24.4786	24.2978	2.96959	0.0405697	0.00496589	0.0408725	6.97851	5.37911e+06	4.39456e+07	4.42736e+07	-83.0215	0.0000000E+000	0.0000000E+000	0.0000000E+000	83.0215	0.0000000E+000	0.0000000E+000	0.0000000E+000	-83.0215	0.0000000E+000	0.0000000E+000	0.0000000E+000	-6.97851	0.0000000E+000	0.0000000E+000	0.0000000E+000	6.97851	8.16968	83.0215	9.99211e-06	-1.76552e-06	-1.35656e-09	-1.76417e-06	0.269323	41147.3	31.616	41115.7
0.0999041	24.8573	3.61724	25.1191	-8.27957	79.3213	0.269535	-0.00400118	440412	9132.81	1	12	0.00478966	0.000190678	0	-0.000120695	0.000302551	1.33182e-06	-31.0996	0.00698465	0.00598075	0.00360777	-8.28575	25.1256	24.8633	3.62085	0.0393953	0.00573281	0.0398103	8.27957	9.13282e+06	6.27598e+07	6.34208e+07	-81.7204	0.0000000E+000	0.0000000E+000	0.0000000E+000	81.7204	0.0000000E+000	0.0000000E+000	0.0000000E+000	-81.7204	0.0000000E+000	0.0000000E+000	0.0000000E+000	-8.27957	0.0000000E+000	0.0000000E+000	0.0000000E+000	8.27957	6.8719	81.7204	1.34885e-05	-1.07846e-06	-1.21056e-09	-1.07725e-06	0.269233	67364	75.6154	67288.4
0.0680626	25.5662	4.57393	25.9722	-10.1432	110.249	0.269528	-0.00207901	511237	15855.6	1	12	0.00478846	0.000184369	0	-0.000123484	5.43696e-05	2.77871e-06	12.6164	0.0150715	0.0147076	-0.00329195	-10.1303	25.9861	25.581	4.57063	0.037901	0.00678067	0.0385027	10.1432	1.58556e+07	8.86262e+07	9.00333e+07	-79.8568	0.0000000E+000	0.0000000E+000	0.0000000E+000	79.8568	0.0000000E+000	0.0000000E+000	0.0000000E+000	-79.8568	0.0000000E+000	0.0000000E+000	0.0000000E+000	-10.1432	0.0000000E+000	0.0000000E+000	0.0000000E+000	10.1432	5.58956	79.8568	-2.78889e-06	-5.60353e-07	-1.13035e-10	-5.6024e-07	0.269474	129642	26.1516	129616
0.0464052	26.3263	5.8698	26.9728	-12.5693	155.599	0.269526	-0.000718502	584292	27671.1	1	12	0.0047883	0.000177523	0	-0.000183242	0.00028346	1.39455e-06	-18.6765	0.00785558	0.00744192	0.00251555	-12.571	26.9806	26.3338	5.87232	0.0361859	0.00806812	0.0370744	12.5693	2.76711e+07	1.24106e+08	1.27153e+08	-77.4307	0.0000000E+000	0.0000000E+000	0.0000000E+000	77.4307	0.0000000E+000	0.0000000E+000	0.0000000E+000	-77.4307	0.0000000E+000	0.0000000E+000	0.0000000E+000	-12.5693	0.0000000E+000	0.0000000E+000	0.0000000E+000	12.5693	4.48505	77.4307	-5.97574e-05	-1.93655e-07	-2.03666e-10	-1.93451e-07	0.269243	375123	394.515	374728
0.0315922	27.227	7.42605	28.2216	-15.2561	222.205	0.269524	-0.000355583	678394	46971.7	1	12	0.00478999	0.000169728	0	-0.00033314	0.000168915	9.62249e-07	-6.68511	0.00566936	0.00563082	0.000659985	-15.2544	28.2272	27.2327	7.42671	0.0341852	0.00932386	0.0354339	15.2561	4.69717e+07	1.72218e+08	1.78509e+08	-74.7439	0.0000000E+000	0.0000000E+000	0.0000000E+000	74.7439	0.0000000E+000	0.0000000E+000	0.0000000E+000	-74.7439	0.0000000E+000	0.0000000E+000	0.0000000E+000	-15.2561	0.0000000E+000	0.0000000E+000	0.0000000E+000	15.2561	3.66642	74.7439	-0.000149898	-9.58381e-08	-6.00632e-11	-9.5778e-08	0.269355	757976	475.035	757501
0.0215268	28.5108	9.47568	30.0442	-18.3844	319.943	0.269525	-0.000825826	780244	77612.3	1	12	0.00478885	0.000159394	0	-0.000560239	7.34604e-05	1.78659e-06	-37.0182	0.0112087	0.00894951	0.00674839	-18.3913	30.0548	28.5197	9.48243	0.0315855	0.0104976	0.0332843	18.3844	7.76123e+07	2.33523e+08	2.46082e+08	-71.6156	0.0000000E+000	0.0000000E+000	0.0000000E+000	71.6156	0.0000000E+000	0.0000000E+000	0.0000000E+000	-71.6156	0.0000000E+000	0.0000000E+000	0.0000000E+000	-18.3844	0.0000000E+000	0.0000000E+000	0.0000000E+000	18.3844	3.00884	71.6156	-0.000227099	-2.2258e-07	-6.06655e-11	-2.2252e-07	0.269451	326370	88.9539	326281
0.0146812	30.2115	12.4748	32.6857	-22.4365	463.245	0.269526	-0.00108802	869012	126584	1	12	0.00479052	0.000146563	0	-0.000761895	0.000111642	1.44566e-06	19.9114	0.00986371	0.00927406	-0.00335924	-22.4248	32.693	30.2208	12.4714	0.0282785	0.0116766	0.0305944	22.4365	1.26584e+08	3.0656e+08	3.31666e+08	-67.5635	0.0000000E+000	0.0000000E+000	0.0000000E+000	67.5635	0.0000000E+000	0.0000000E+000	0.0000000E+000	-67.5635	0.0000000E+000	0.0000000E+000	0.0000000E+000	-22.4365	0.0000000E+000	0.0000000E+000	0.0000000E+000	22.4365	2.4218	67.5635	-0.000201656	-2.9325e-07	-1.21469e-10	-2.93129e-07	0.269414	247720	102.61	247618
0.0100092	31.9919	16.5652	36.0262	-27.3749	673.428	0.269529	-0.00106718	959896	202947	1	12	0.00478855	0.000132918	0	-0.000760295	-7.92663e-05	1.43128e-06	2.17664	0.0107681	0.0107603	-0.000408977	-27.3665	36.0356	32.0026	16.5648	0.0246492	0.0127632	0.0277576	27.3749	2.02947e+08	3.91945e+08	4.41371e+08	-62.6251	0.0000000E+000	0.0000000E+000	0.0000000E+000	62.6251	0.0000000E+000	0.0000000E+000	0.0000000E+000	-62.6251	0.0000000E+000	0.0000000E+000	0.0000000E+000	-27.3749	0.0000000E+000	0.0000000E+000	0.0000000E+000	27.3749	1.93127	62.6251	1.60006e-06	-2.87635e-07	8.45911e-11	-2.8772e-07	0.269609	252563	74.2767	252637