File: txt/19139_R306_UA703_SOC00_C03.mpt
EC-Lab ASCII FILE
Nb header lines : 65

Potentio Electrochemical Impedance Spectroscopy

Run on channel : 3 (SN 65921)
Grouped channel(s) : 1, 2, 3, 4, 5
User :
CE vs. WE compliance from -10 V to 10 V
Electrode connection : standard
Potential control : Ewe
Ewe ctrl range : min = -10.00 V, max = 10.00 V
Safety Limits :
	Do not start on E overload
Acquisition started on : 11/12/2025 11:20:24.450
Loaded Setting File :  C:\Users\Celltest\OneDrive - store-dot.com\Documents\EC-Lab\Data\@Biologic Test Protocols\anode half cell EIS SOC00.mps
Saved on :
	File : 19137_R306_UA703_SOC00_C03.mpr
	Directory : C:\Users\Celltest\OneDrive - store-dot.com\Documents\EC-Lab\Data\Charmaine\
	Host : 169.254.61.224
Device : VMP-3e (SN .003165)
Address : USB
EC-LAB for windows v11.62 (software)
Internet server v27.00 (firmware)
Command interpretor v12.03 (firmware)
Electrode material :
Initial state :
Electrolyte :
Comments :
Electrode surface area : 0.001 cm²
Characteristic mass : 0.001 g
Equivalent Weight : 0.000 g/eq.
Density : 0.000 g/cm3
Volume (V) : 0.001 cm³
Record Ece
Cycle Definition : Charge/Discharge alternance
Mode                Single sine
E (V)               0.0000
vs.                 Eoc
tE (h:m:s)          0:00:0.0000
record              0
dI                  0.000
unit dI             mA
dt (s)              0.000
fi                  100.000
unit fi             kHz
ff                  10.000
unit ff             mHz
Nd                  6
Points              per decade
spacing             Logarithmic
Va (mV)             5.0
pw                  0.10
Na                  2
corr                0
E range min (V)     -10.000
E range max (V)     10.000
I Range             Auto
Bandwidth           5
nc cycles           0
goto Ns'            0
nr cycles           0
inc. cycle          0

freq/Hz	Re(Z)/Ohm	-Im(Z)/Ohm	|Z|/Ohm	Phase(Z)/deg	time/s	<Ewe>/V	<I>/mA	Cs/µF	Cp/µF	cycle number	I Range	|Ewe|/V	|I|/A	Ns	(Q-Qo)/mA.h	<Ece>/V	|Ece|/V	Phase(Zce)/deg	|Zce|/Ohm	Re(Zce)/Ohm	-Im(Zce)/Ohm	Phase(Zwe-ce)/deg	|Zwe-ce|/Ohm	Re(Zwe-ce)/Ohm	-Im(Zwe-ce)/Ohm	Re(Y)/Ohm-1	Im(Y)/Ohm-1	|Y|/Ohm-1	Phase(Y)/deg	Re(C)/nF	Im(C)/nF	|C|/nF	Phase(C)/deg	Re(M)	Im(M)	|M|	Phase(M)/deg	Re(Permittivity)	Im(Permittivity)	|Permittivity|	Phase(Permittivity)/deg	Re(Resistivity)/Ohm.cm	Im(Resistivity)/Ohm.cm	|Resistivity|/Ohm.cm	Phase(Resistivity)/deg	Re(Conductivity)/mS/cm	Im(Conductivity)/mS/cm	|Conductivity|/mS/cm	Phase(Conductivity)/deg	Tan(Delta)	Loss Angle(Delta)/deg	dq/mA.h	Pwe/W	Pce/W	Pwe-ce/W	<Ewe-Ece>/V	Rwe/Ohm	Rce/Ohm	Rwe-ce/Ohm		Ewe-Ece/V
100004	1.13171	0.508685	1.24078	-24.2031	1.72654	0.265089	0.0113308	3.12863	0.525852	1	9	0.00476566	0.00384085	0	-1.69424e-06	6.08766e-05	4.45778e-05	97.2574	0.0116062	-0.00146618	-0.0115132	-23.7437	1.23476	1.13025	0.497172	0.7351	0.330415	0.805944	24.2031	525.852	1169.9	1282.65	-65.7969	0.0000000E+000	0.0000000E+000	0.0000000E+000	65.7969	0.0000000E+000	0.0000000E+000	0.0000000E+000	-65.7969	0.0000000E+000	0.0000000E+000	0.0000000E+000	-24.2031	0.0000000E+000	0.0000000E+000	0.0000000E+000	24.2031	2.22478	65.7969	-1.69424e-06	3.00368e-06	6.89784e-10	3.00299e-06	0.265028	23395.3	5.37264	23390
68132	1.26542	0.57042	1.38805	-24.2646	2.23355	0.265085	0.00968993	4.09519	0.6916	1	9	0.00507127	0.00365353	0	-9.28288e-06	-0.000149158	5.94634e-05	99.9776	0.0162756	-0.00281996	-0.0160294	-23.7056	1.37896	1.2626	0.554391	0.656791	0.296065	0.720436	24.2646	691.6	1534.25	1682.92	-65.7354	0.0000000E+000	0.0000000E+000	0.0000000E+000	65.7354	0.0000000E+000	0.0000000E+000	0.0000000E+000	-65.7354	0.0000000E+000	0.0000000E+000	0.0000000E+000	-24.2646	0.0000000E+000	0.0000000E+000	0.0000000E+000	24.2646	2.2184	65.7354	-7.58864e-06	2.56865e-06	-1.44533e-09	2.5701e-06	0.265234	27356.7	15.3931	27372.1
46420.4	1.43173	0.624263	1.56191	-23.5581	2.74054	0.265091	0.0211018	5.49217	0.877337	1	9	0.00508256	0.00325406	0	6.96886e-06	0.000270911	7.98789e-06	41.4636	0.00245474	0.00183953	-0.00162539	-23.4765	1.56295	1.43357	0.622637	0.586881	0.255891	0.640241	23.5581	877.337	2012.15	2195.11	-66.4419	0.0000000E+000	0.0000000E+000	0.0000000E+000	66.4419	0.0000000E+000	0.0000000E+000	0.0000000E+000	-66.4419	0.0000000E+000	0.0000000E+000	0.0000000E+000	-23.5581	0.0000000E+000	0.0000000E+000	0.0000000E+000	23.5581	2.29348	66.4419	1.62517e-05	5.59389e-06	5.71671e-09	5.58817e-06	0.26482	12562.5	12.8383	12549.6
31621.1	1.58782	0.682717	1.72837	-23.2664	3.24752	0.265063	0.0116292	7.37228	1.1503	1	9	0.00520856	0.00301357	0	5.01226e-06	-0.00011097	4.79042e-06	17.4399	0.00158962	0.00151655	-0.000476418	-23.232	1.72957	1.58933	0.682241	0.531529	0.228543	0.57858	23.2664	1150.3	2675.28	2912.1	-66.7336	0.0000000E+000	0.0000000E+000	0.0000000E+000	66.7336	0.0000000E+000	0.0000000E+000	0.0000000E+000	-66.7336	0.0000000E+000	0.0000000E+000	0.0000000E+000	-23.2664	0.0000000E+000	0.0000000E+000	0.0000000E+000	23.2664	2.32573	66.7336	-1.9566e-06	3.08248e-06	-1.29049e-09	3.08377e-06	0.265174	22792.9	9.54235	22802.4
21544.7	1.75821	0.728462	1.90314	-22.5052	3.63052	0.265085	0.0100629	10.1408	1.48574	1	9	0.00506331	0.0026605	0	4.42549e-06	-1.54996e-05	8.97128e-06	-33.0127	0.00337203	0.00282762	0.00183717	-22.5237	1.90646	1.76104	0.730299	0.485431	0.201124	0.525446	22.5052	1485.74	3585.97	3881.58	-67.4948	0.0000000E+000	0.0000000E+000	0.0000000E+000	67.4948	0.0000000E+000	0.0000000E+000	0.0000000E+000	-67.4948	0.0000000E+000	0.0000000E+000	0.0000000E+000	-22.5052	0.0000000E+000	0.0000000E+000	0.0000000E+000	22.5052	2.41359	67.4948	-5.86776e-07	2.66751e-06	-1.55971e-10	2.66767e-06	0.2651	26342.9	1.54028	26344.4
14678.6	1.9328	0.79561	2.09015	-22.3738	4.01356	0.265089	0.0136803	13.6281	1.97461	1	9	0.00497235	0.00237894	0	9.25682e-06	2.26885e-05	8.37984e-06	-13.8919	0.00352251	0.00341947	0.000845718	-22.3596	2.09363	1.93622	0.796456	0.442418	0.182115	0.478434	22.3738	1974.61	4796.99	5187.5	-67.6262	0.0000000E+000	0.0000000E+000	0.0000000E+000	67.6262	0.0000000E+000	0.0000000E+000	0.0000000E+000	-67.6262	0.0000000E+000	0.0000000E+000	0.0000000E+000	-22.3738	0.0000000E+000	0.0000000E+000	0.0000000E+000	22.3738	2.42934	67.6262	4.83133e-06	3.62651e-06	3.10386e-10	3.6262e-06	0.265066	19377.4	1.65847	19375.7
10002.2	2.1107	0.865306	2.28118	-22.2918	4.39652	0.265104	0.0186777	18.3888	2.6459	1	9	0.00487411	0.00213666	0	1.51131e-05	-0.000149158	5.45194e-06	-11.5554	0.00255162	0.0024999	0.000511129	-22.2799	2.28369	2.1132	0.865818	0.405607	0.166284	0.438369	22.2918	2645.9	6454	6975.31	-67.7082	0.0000000E+000	0.0000000E+000	0.0000000E+000	67.7082	0.0000000E+000	0.0000000E+000	0.0000000E+000	-67.7082	0.0000000E+000	0.0000000E+000	0.0000000E+000	-22.2918	0.0000000E+000	0.0000000E+000	0.0000000E+000	22.2918	2.43925	67.7082	5.85626e-06	4.95153e-06	-2.78593e-09	4.95432e-06	0.265254	14193.7	7.98591	14201.6
6810.42	2.31528	0.932549	2.49603	-21.9386	4.65753	0.26508	0.0150229	25.0596	3.498	1	9	0.00463688	0.00185771	0	1.62762e-05	-0.000149158	8.59163e-05	-135.587	0.0462486	-0.0330362	0.0323658	-22.9183	2.47784	2.28224	0.964915	0.371625	0.149683	0.400637	21.9386	3498	8684.61	9362.61	-68.0614	0.0000000E+000	0.0000000E+000	0.0000000E+000	68.0614	0.0000000E+000	0.0000000E+000	0.0000000E+000	-68.0614	0.0000000E+000	0.0000000E+000	0.0000000E+000	-21.9386	0.0000000E+000	0.0000000E+000	0.0000000E+000	21.9386	2.48274	68.0614	1.16308e-06	3.98226e-06	-2.24078e-09	3.9845e-06	0.265229	17645.1	9.92873	17655
4646	2.5149	1.07139	2.7336	-23.0748	4.92363	0.265045	-0.00940442	31.9737	4.91154	1	9	0.00450142	0.0016467	0	1.51761e-05	9.90647e-05	6.4745e-06	-3.95491	0.00393181	0.00392244	0.000271182	-23.0479	2.73732	2.51882	1.07166	0.33655	0.143376	0.365818	23.0748	4911.54	11529	12531.6	-66.9252	0.0000000E+000	0.0000000E+000	0.0000000E+000	66.9252	0.0000000E+000	0.0000000E+000	0.0000000E+000	-66.9252	0.0000000E+000	0.0000000E+000	0.0000000E+000	-23.0748	0.0000000E+000	0.0000000E+000	0.0000000E+000	23.0748	2.34732	66.9252	-1.10009e-06	-2.49259e-06	-9.31646e-10	-2.49166e-06	0.264946	28183	10.5339	28172.5
3163.08	2.76691	1.22234	3.02488	-23.8344	5.47367	0.264814	-0.0505019	41.1641	6.7218	1	9	0.00493674	0.00163205	0	7.64627e-06	-9.18759e-05	4.6859e-06	-4.18279	0.00287118	0.00286353	0.00020942	-23.8161	3.02758	2.76977	1.22255	0.302398	0.13359	0.330592	23.8344	6721.8	15215.6	16634.2	-66.1656	0.0000000E+000	0.0000000E+000	0.0000000E+000	66.1656	0.0000000E+000	0.0000000E+000	0.0000000E+000	-66.1656	0.0000000E+000	0.0000000E+000	0.0000000E+000	-23.8344	0.0000000E+000	0.0000000E+000	0.0000000E+000	23.8344	2.26362	66.1656	-7.5298e-06	-1.33736e-05	4.63991e-09	-1.33782e-05	0.264906	5243.64	1.81926	5245.46
2155.69	3.03767	1.40327	3.34613	-24.7949	5.92481	0.265062	0.0921832	52.6128	9.25316	1	9	0.00489743	0.00146361	0	1.84528e-05	-1.54996e-05	6.78278e-06	-118.142	0.00463429	-0.00218583	0.00408641	-24.8741	3.34586	3.03548	1.40736	0.271303	0.12533	0.298853	24.7949	9253.16	20030.3	22064.3	-65.2051	0.0000000E+000	0.0000000E+000	0.0000000E+000	65.2051	0.0000000E+000	0.0000000E+000	0.0000000E+000	-65.2051	0.0000000E+000	0.0000000E+000	0.0000000E+000	-24.7949	0.0000000E+000	0.0000000E+000	0.0000000E+000	24.7949	2.1647	65.2051	1.08065e-05	2.44343e-05	-1.42881e-09	2.44357e-05	0.265077	2875.38	0.168139	2875.55
1468.59	3.28586	1.58294	3.64727	-25.7221	6.62105	0.265009	-0.0180037	68.4629	12.8958	1	10	0.00497016	0.0013627	0	2.32024e-05	-0.00011097	2.89708e-05	-27.7688	0.0212598	0.0188114	0.00990503	-25.7339	3.66852	3.30468	1.59284	0.247009	0.118995	0.274177	25.7221	12895.8	26769	29713.3	-64.2779	0.0000000E+000	0.0000000E+000	0.0000000E+000	64.2779	0.0000000E+000	0.0000000E+000	0.0000000E+000	-64.2779	0.0000000E+000	0.0000000E+000	0.0000000E+000	-25.7221	0.0000000E+000	0.0000000E+000	0.0000000E+000	25.7221	2.0758	64.2779	4.74957e-06	-4.77112e-06	1.99786e-09	-4.77312e-06	0.26512	14719.7	6.16375	14725.9
1000.32	3.63107	1.86749	4.08316	-27.2172	7.07179	0.265012	-0.0181342	85.1966	17.8216	1	10	0.00495505	0.00121353	0	2.10183e-05	-7.27818e-05	8.19038e-06	66.2309	0.0067492	0.00272027	-0.00617672	-27.1226	4.08276	3.63379	1.86132	0.217792	0.112012	0.244908	27.2172	17821.6	34651.6	38965.9	-62.7828	0.0000000E+000	0.0000000E+000	0.0000000E+000	62.7828	0.0000000E+000	0.0000000E+000	0.0000000E+000	-62.7828	0.0000000E+000	0.0000000E+000	0.0000000E+000	-27.2172	0.0000000E+000	0.0000000E+000	0.0000000E+000	27.2172	1.94436	62.7828	-2.18408e-06	-4.80578e-06	1.31984e-09	-4.8071e-06	0.265085	14614	4.01352	14618
681.09	4.00748	2.21986	4.58123	-28.9833	7.52257	0.265002	-0.0192193	105.267	24.716	1	10	0.00491665	0.00107322	0	1.84737e-05	-0.000130064	1.0103e-05	146.695	0.00941376	-0.00786764	-0.00516905	-28.9744	4.57184	3.99961	2.21469	0.190945	0.10577	0.218282	28.9833	24716	44619.3	51007.5	-61.0167	0.0000000E+000	0.0000000E+000	0.0000000E+000	61.0167	0.0000000E+000	0.0000000E+000	0.0000000E+000	-61.0167	0.0000000E+000	0.0000000E+000	0.0000000E+000	-28.9833	0.0000000E+000	0.0000000E+000	0.0000000E+000	28.9833	1.80529	61.0167	-2.54461e-06	-5.09314e-06	2.49974e-09	-5.09564e-06	0.265132	13788.3	6.76738	13795.1
463.961	4.44523	2.66782	5.18433	-30.9702	7.97437	0.265001	-0.0173399	128.583	34.0494	1	10	0.00486826	0.000939033	0	1.65455e-05	0.000118159	1.79745e-05	76.9801	0.0191415	0.00431237	-0.0186494	-30.7687	5.17846	4.44954	2.64917	0.16539	0.0992592	0.192889	30.9702	34049.4	56734.5	66167.7	-59.0298	0.0000000E+000	0.0000000E+000	0.0000000E+000	59.0298	0.0000000E+000	0.0000000E+000	0.0000000E+000	-59.0298	0.0000000E+000	0.0000000E+000	0.0000000E+000	-30.9702	0.0000000E+000	0.0000000E+000	0.0000000E+000	30.9702	1.66624	59.0298	-1.92822e-06	-4.59509e-06	-2.04886e-09	-4.59305e-06	0.264883	15282.7	6.81426	15275.9
316.316	5.04881	3.29742	6.03021	-33.1489	8.42204	0.265013	-0.0161169	152.59	45.6256	1	10	0.00486551	0.000806856	0	1.41336e-05	4.17825e-05	1.21297e-05	-61.9952	0.0150333	0.00705882	0.013273	-33.2177	6.04338	5.05586	3.31069	0.138843	0.0906796	0.165832	33.1489	45625.6	69859.1	83438.6	-56.8511	0.0000000E+000	0.0000000E+000	0.0000000E+000	56.8511	0.0000000E+000	0.0000000E+000	0.0000000E+000	-56.8511	0.0000000E+000	0.0000000E+000	0.0000000E+000	-33.1489	0.0000000E+000	0.0000000E+000	0.0000000E+000	33.1489	1.53114	56.8511	-2.41187e-06	-4.27118e-06	-6.73403e-10	-4.27051e-06	0.264972	16443.2	2.59248	16440.7
215.345	5.85587	3.99843	7.09075	-34.3255	8.87251	0.264999	-0.0185071	184.84	58.7749	1	10	0.00484511	0.000683301	0	1.12269e-05	-3.45937e-05	1.04398e-05	80.8849	0.0152785	0.0024204	-0.0150856	-34.2137	7.08425	5.85829	3.98334	0.116468	0.0795253	0.141029	34.3255	58774.9	86078.3	104230	-55.6745	0.0000000E+000	0.0000000E+000	0.0000000E+000	55.6745	0.0000000E+000	0.0000000E+000	0.0000000E+000	-55.6745	0.0000000E+000	0.0000000E+000	0.0000000E+000	-34.3255	0.0000000E+000	0.0000000E+000	0.0000000E+000	34.3255	1.46454	55.6745	-2.90671e-06	-4.90436e-06	6.40228e-10	-4.905e-06	0.265034	14318.8	1.86922	14320.7
146.737	6.97888	4.77367	8.45534	-34.3728	9.31747	0.265005	-0.0173026	227.21	72.4219	1	10	0.00484045	0.000572473	0	8.42358e-06	-5.36878e-05	5.77906e-06	94.1989	0.0100949	-0.000739132	-0.0100678	-34.3193	8.44905	6.97814	4.7636	0.0976166	0.0667714	0.118268	34.3728	72421.9	105877	128277	-55.6272	0.0000000E+000	0.0000000E+000	0.0000000E+000	55.6272	0.0000000E+000	0.0000000E+000	0.0000000E+000	-55.6272	0.0000000E+000	0.0000000E+000	0.0000000E+000	-34.3728	0.0000000E+000	0.0000000E+000	0.0000000E+000	34.3728	1.46195	55.6272	-2.8033e-06	-4.58528e-06	9.28941e-10	-4.58621e-06	0.265058	15315.8	3.10286	15318.9
100.032	8.40321	5.4612	10.0219	-33.0196	9.76785	0.265019	-0.0149796	291.335	86.5103	1	10	0.00483755	0.000482698	0	7.09241e-06	3.59442e-06	7.27442e-06	-35.4025	0.0150703	0.0122839	0.0087305	-33.0232	10.037	8.4155	5.46993	0.0836651	0.0543734	0.0997814	33.0196	86510.3	133115	158756	-56.9804	0.0000000E+000	0.0000000E+000	0.0000000E+000	56.9804	0.0000000E+000	0.0000000E+000	0.0000000E+000	-56.9804	0.0000000E+000	0.0000000E+000	0.0000000E+000	-33.0196	0.0000000E+000	0.0000000E+000	0.0000000E+000	33.0196	1.53871	56.9804	-1.33117e-06	-3.96987e-06	-5.38428e-11	-3.96982e-06	0.265016	17692.1	0.239955	17691.8
68.104	10.1242	5.90228	11.7191	-30.2416	10.2304	0.265029	-0.0143382	395.939	100.434	1	10	0.00484045	0.00041304	0	5.73806e-06	7.99707e-05	6.33655e-06	-80.049	0.0153413	0.00265106	0.0151105	-30.2988	11.729	10.1269	5.91739	0.0737182	0.0429767	0.0853309	30.2416	100434	172275	199413	-59.7584	0.0000000E+000	0.0000000E+000	0.0000000E+000	59.7584	0.0000000E+000	0.0000000E+000	0.0000000E+000	-59.7584	0.0000000E+000	0.0000000E+000	0.0000000E+000	-30.2416	0.0000000E+000	0.0000000E+000	0.0000000E+000	30.2416	1.71531	59.7584	-1.35435e-06	-3.80003e-06	-1.14663e-09	-3.79889e-06	0.264949	18484.1	5.57746	18478.5
46.4415	11.9532	6.10692	13.4228	-27.0627	10.6666	0.265006	-0.0178471	561.166	116.157	1	10	0.00483346	0.000360092	0	3.36598e-06	0.000251817	7.21509e-06	128.121	0.0200368	-0.0123693	-0.015763	-27.0267	13.4047	11.9408	6.09116	0.0663428	0.0338948	0.0744999	27.0627	116157	227357	255311	-62.9373	0.0000000E+000	0.0000000E+000	0.0000000E+000	62.9373	0.0000000E+000	0.0000000E+000	0.0000000E+000	-62.9373	0.0000000E+000	0.0000000E+000	0.0000000E+000	-27.0627	0.0000000E+000	0.0000000E+000	0.0000000E+000	27.0627	1.95731	62.9373	-2.37208e-06	-4.72959e-06	-4.4942e-09	-4.72509e-06	0.264754	14848.7	14.1097	14834.6
31.6296	13.7215	5.89825	14.9355	-23.2607	11.0956	0.265003	-0.0213746	853.108	133.049	1	10	0.00483191	0.000323519	0	1.26361e-06	0.000137253	1.00275e-05	47.8312	0.0309951	0.0208075	-0.0229726	-23.1483	14.9455	13.7423	5.87528	0.0615125	0.0264415	0.0669547	23.2607	133049	309521	336906	-66.7393	0.0000000E+000	0.0000000E+000	0.0000000E+000	66.7393	0.0000000E+000	0.0000000E+000	0.0000000E+000	-66.7393	0.0000000E+000	0.0000000E+000	0.0000000E+000	-23.2607	0.0000000E+000	0.0000000E+000	0.0000000E+000	23.2607	2.32636	66.7393	-2.10237e-06	-5.66432e-06	-2.93372e-09	-5.66139e-06	0.264865	12398	6.42131	12391.6
21.5517	15.3812	5.57545	16.3605	-19.9249	11.7485	0.265043	-0.00895418	1324.52	153.825	1	11	0.00483617	0.000295601	0	-1.55643e-07	-0.000149158	6.07041e-06	-67.8757	0.0205358	0.00773414	0.0190238	-19.9782	16.3742	15.3889	5.59448	0.0574641	0.0208299	0.0611229	19.9249	153825	424360	451380	-70.0751	0.0000000E+000	0.0000000E+000	0.0000000E+000	70.0751	0.0000000E+000	0.0000000E+000	0.0000000E+000	-70.0751	0.0000000E+000	0.0000000E+000	0.0000000E+000	-19.9249	0.0000000E+000	0.0000000E+000	0.0000000E+000	19.9249	2.75873	70.0751	-1.41926e-06	-2.37325e-06	1.33559e-09	-2.37458e-06	0.265193	29600	16.6579	29616.6
14.6852	16.7913	5.09071	17.546	-16.866	12.2082	0.265044	-0.00786904	2128.94	179.21	1	11	0.00483476	0.000275547	0	2.09086e-07	0.000175441	9.26362e-06	32.262	0.033619	0.0284287	-0.0179455	-16.7831	17.568	16.8197	5.07276	0.0545414	0.0165356	0.0569929	16.866	179210	591110	617679	-73.134	0.0000000E+000	0.0000000E+000	0.0000000E+000	73.134	0.0000000E+000	0.0000000E+000	0.0000000E+000	-73.134	0.0000000E+000	0.0000000E+000	0.0000000E+000	-16.866	0.0000000E+000	0.0000000E+000	0.0000000E+000	16.866	3.29842	73.134	3.64729e-07	-2.08564e-06	-1.38055e-09	-2.08426e-06	0.264869	33681.9	22.2951	33659.6
10.0032	18.0069	4.60033	18.5852	-14.3312	12.6588	0.265047	-0.00794809	3458.53	211.902	1	11	0.00483391	0.000260095	0	-2.29401e-06	-0.000130064	1.37237e-05	-2.3705	0.0527643	0.0527191	0.00218239	-14.2976	18.6368	18.0596	4.60252	0.0521318	0.0133185	0.0538062	14.3312	211902	829438	856078	-75.6688	0.0000000E+000	0.0000000E+000	0.0000000E+000	75.6688	0.0000000E+000	0.0000000E+000	0.0000000E+000	-75.6688	0.0000000E+000	0.0000000E+000	0.0000000E+000	-14.3312	0.0000000E+000	0.0000000E+000	0.0000000E+000	14.3312	3.91425	75.6688	-2.5031e-06	-2.10662e-06	1.03376e-09	-2.10765e-06	0.265177	33347.3	16.3642	33363.6
6.81719	19.0917	4.06328	19.5193	-12.015	12.9985	0.265044	-0.00780378	5745.63	248.98	1	11	0.00483921	0.00024792	0	-7.93587e-07	-0.000225534	1.06969e-05	75.0952	0.0431465	0.0110979	-0.0416948	-11.8885	19.5215	19.1028	4.02159	0.0501091	0.0106647	0.0512314	12.015	248980	1.16985e+06	1.19605e+06	-77.985	0.0000000E+000	0.0000000E+000	0.0000000E+000	77.985	0.0000000E+000	0.0000000E+000	0.0000000E+000	-77.985	0.0000000E+000	0.0000000E+000	0.0000000E+000	-12.015	0.0000000E+000	0.0000000E+000	0.0000000E+000	12.015	4.69858	77.985	1.50043e-06	-2.06834e-06	1.76002e-09	-2.0701e-06	0.265269	33963.5	28.9007	33992.4
4.63925	19.9783	3.62347	20.3043	-10.28	13.4824	0.265054	-0.00687078	9467.78	301.523	1	11	0.00483057	0.000237909	0	-3.19916e-06	0.000156347	7.27201e-06	-13.7184	0.0305664	0.0296944	0.00724884	-10.2851	20.3348	20.008	3.63071	0.0484601	0.00878919	0.0492507	10.28	301523	1.66248e+06	1.6896e+06	-79.72	0.0000000E+000	0.0000000E+000	0.0000000E+000	79.72	0.0000000E+000	0.0000000E+000	0.0000000E+000	-79.72	0.0000000E+000	0.0000000E+000	0.0000000E+000	-10.28	0.0000000E+000	0.0000000E+000	0.0000000E+000	10.28	5.5136	79.72	-2.40558e-06	-1.82112e-06	-1.07422e-09	-1.82005e-06	0.264897	38576.9	22.7553	38554.2
3.1604	20.7626	3.17477	21.004	-8.69364	14.1754	0.265045	-0.00728545	15862.3	362.401	1	11	0.0048343	0.000230161	0	-7.50814e-06	-5.36878e-05	3.74043e-06	-133.656	0.0162514	-0.0112187	0.0117578	-8.72999	20.9947	20.7514	3.18653	0.0470631	0.00719632	0.0476101	8.69364	362400	2.37006e+06	2.3976e+06	-81.3064	0.0000000E+000	0.0000000E+000	0.0000000E+000	81.3064	0.0000000E+000	0.0000000E+000	0.0000000E+000	-81.3064	0.0000000E+000	0.0000000E+000	0.0000000E+000	-8.69364	0.0000000E+000	0.0000000E+000	0.0000000E+000	8.69364	6.53988	81.3064	-4.30898e-06	-1.93097e-06	3.91139e-10	-1.93136e-06	0.265099	36380.1	7.36918	36387.5
2.15577	21.4611	2.77339	21.6395	-7.36346	15.179	0.265054	-0.00685017	26620	437.254	1	11	0.0048388	0.000223609	0	-9.35375e-06	6.08766e-05	4.01235e-06	-37.5918	0.0179435	0.014218	0.0109461	-7.38736	21.655	21.4753	2.78433	0.0458306	0.00592264	0.0462117	7.36346	437254	3.38356e+06	3.4117e+06	-82.6365	0.0000000E+000	0.0000000E+000	0.0000000E+000	82.6365	0.0000000E+000	0.0000000E+000	0.0000000E+000	-82.6365	0.0000000E+000	0.0000000E+000	0.0000000E+000	-7.36346	0.0000000E+000	0.0000000E+000	0.0000000E+000	7.36346	7.73821	82.6365	-1.84561e-06	-1.81567e-06	-4.17015e-10	-1.81525e-06	0.264993	38693	8.88687	38684.1
1.46631	21.9579	2.45179	22.0944	-6.37117	16.6405	0.265048	-0.00675337	44270.1	545.147	1	11	0.00483334	0.000218759	0	-7.71188e-06	0.000137253	2.8984e-06	3.61182	0.0132493	0.013223	-0.000834657	-6.36522	22.1075	21.9712	2.45096	0.0449808	0.00502249	0.0452603	6.37117	545146	4.88227e+06	4.91261e+06	-83.6288	0.0000000E+000	0.0000000E+000	0.0000000E+000	83.6288	0.0000000E+000	0.0000000E+000	0.0000000E+000	-83.6288	0.0000000E+000	0.0000000E+000	0.0000000E+000	-6.37117	0.0000000E+000	0.0000000E+000	0.0000000E+000	6.37117	8.95587	83.6288	1.64187e-06	-1.78997e-06	-9.26919e-10	-1.78904e-06	0.264911	39246.8	20.3236	39226.5
1.00006	22.3889	2.20215	22.4969	-5.61749	19.8137	0.265051	-0.00633029	72268	692.458	1	12	0.00483397	0.000214873	0	-6.26231e-06	9.90647e-05	2.71103e-06	29.8706	0.0126169	0.0109408	-0.00628375	-5.59885	22.5072	22.3998	2.19586	0.0442371	0.00435112	0.0444506	5.61749	692459	7.04011e+06	7.07408e+06	-84.3825	0.0000000E+000	0.0000000E+000	0.0000000E+000	84.3825	0.0000000E+000	0.0000000E+000	0.0000000E+000	-84.3825	0.0000000E+000	0.0000000E+000	0.0000000E+000	-5.61749	0.0000000E+000	0.0000000E+000	0.0000000E+000	5.61749	10.1668	84.3825	1.44957e-06	-1.67785e-06	-6.27108e-10	-1.67722e-06	0.264952	41870.3	15.6493	41854.7
0.681362	22.7779	2.01644	22.8669	-5.05899	22.9259	0.265047	-0.00528912	115840	900.763	1	12	0.00483678	0.000211518	0	-8.14328e-06	-0.000187346	1.82845e-06	-105.162	0.00864441	-0.002261	0.00834348	-5.08031	22.8654	22.7756	2.02478	0.0435609	0.00385628	0.0437313	5.05899	900764	1.01751e+07	1.02149e+07	-84.941	0.0000000E+000	0.0000000E+000	0.0000000E+000	84.941	0.0000000E+000	0.0000000E+000	0.0000000E+000	-84.941	0.0000000E+000	0.0000000E+000	0.0000000E+000	-5.05899	0.0000000E+000	0.0000000E+000	0.0000000E+000	5.05899	11.2961	84.941	-1.88096e-06	-1.40186e-06	9.90896e-10	-1.40285e-06	0.265234	50111.7	35.4211	50147.2
0.464091	23.0985	2.01102	23.1858	-4.97578	27.4825	0.265058	-0.00364577	170530	1282.88	1	12	0.00483893	0.000208702	0	-1.92271e-05	0.000137253	2.86964e-06	2.3704	0.01375	0.0137382	-0.000568692	-4.97144	23.1995	23.1122	2.01045	0.0429673	0.00374085	0.0431298	4.97578	1.28288e+06	1.47352e+07	1.47909e+07	-85.0242	0.0000000E+000	0.0000000E+000	0.0000000E+000	85.0242	0.0000000E+000	0.0000000E+000	0.0000000E+000	-85.0242	0.0000000E+000	0.0000000E+000	0.0000000E+000	-4.97578	0.0000000E+000	0.0000000E+000	0.0000000E+000	4.97578	11.486	85.0242	-1.10838e-05	-9.66341e-07	-5.00393e-10	-9.6584e-07	0.264921	72702.8	37.6471	72665.1
0.316193	23.3849	2.1048	23.4794	-5.14317	34.1567	0.265052	-0.0032551	239142	1921.79	1	12	0.00483338	0.000205856	0	-4.29364e-05	-3.45937e-05	4.65469e-06	9.55804	0.0226114	0.0222975	-0.00375455	-5.12918	23.5013	23.4072	2.10105	0.0424191	0.00381802	0.0425905	5.14317	1.92179e+06	2.13515e+07	2.14378e+07	-84.8568	0.0000000E+000	0.0000000E+000	0.0000000E+000	84.8568	0.0000000E+000	0.0000000E+000	0.0000000E+000	-84.8568	0.0000000E+000	0.0000000E+000	0.0000000E+000	-5.14317	0.0000000E+000	0.0000000E+000	0.0000000E+000	5.14317	11.1102	84.8568	-2.37093e-05	-8.62769e-07	1.12606e-10	-8.62881e-07	0.265086	81426.6	10.6276	81437.2
0.215268	23.7095	2.33871	23.8246	-5.63344	43.9491	0.265046	-0.00341347	316129	3046.26	1	12	0.00483667	0.000203012	0	-7.77072e-05	-1.54996e-05	2.46844e-06	16.0811	0.0121591	0.0116833	-0.00336805	-5.62263	23.8359	23.7212	2.33534	0.0417707	0.00412027	0.0419734	5.63344	3.04626e+06	3.08825e+07	3.10324e+07	-84.3666	0.0000000E+000	0.0000000E+000	0.0000000E+000	84.3666	0.0000000E+000	0.0000000E+000	0.0000000E+000	-84.3666	0.0000000E+000	0.0000000E+000	0.0000000E+000	-5.63344	0.0000000E+000	0.0000000E+000	0.0000000E+000	5.63344	10.1379	84.3666	-3.47708e-05	-9.04725e-07	5.29076e-11	-9.04778e-07	0.265061	77647	4.54073	77651.5
0.146929	24.1195	2.7821	24.2794	-6.5798	58.2874	0.265047	-0.00385774	389350	5112.23	1	12	0.00483497	0.000199138	0	-0.000113114	-0.000244628	2.59181e-06	-28.8447	0.0130151	0.0114003	0.00627899	-6.59143	24.2915	24.1309	2.78838	0.0409159	0.00471951	0.0411872	6.5798	5.11223e+06	4.43205e+07	4.46144e+07	-83.4202	0.0000000E+000	0.0000000E+000	0.0000000E+000	83.4202	0.0000000E+000	0.0000000E+000	0.0000000E+000	-83.4202	0.0000000E+000	0.0000000E+000	0.0000000E+000	-6.5798	0.0000000E+000	0.0000000E+000	0.0000000E+000	6.5798	8.66951	83.4202	-3.54071e-05	-1.02248e-06	9.43714e-10	-1.02343e-06	0.265291	68705.1	63.4123	68768.5
0.0999041	24.5943	3.51332	24.844	-8.12976	79.3645	0.265048	-0.0040882	453440	9068.02	1	12	0.00483543	0.000194632	0	-0.00013035	3.59442e-06	2.82031e-06	13.1277	0.0144905	0.0141118	-0.0032911	-8.11765	24.8575	24.6084	3.51003	0.0398467	0.00569214	0.0402512	8.12976	9.06802e+06	6.34789e+07	6.41233e+07	-81.8702	0.0000000E+000	0.0000000E+000	0.0000000E+000	81.8702	0.0000000E+000	0.0000000E+000	0.0000000E+000	-81.8702	0.0000000E+000	0.0000000E+000	0.0000000E+000	-8.12976	0.0000000E+000	0.0000000E+000	0.0000000E+000	8.12976	7.0003	81.8702	-1.72356e-05	-1.08357e-06	-1.46947e-11	-1.08355e-06	0.265044	64832.4	0.879219	64831.5
0.0680626	25.1176	4.46824	25.512	-10.087	110.292	0.265049	-0.00363329	523330	16053.1	1	12	0.00483595	0.000189556	0	-0.000113999	2.26885e-05	1.973e-06	7.60301	0.0104085	0.010317	-0.00137714	-10.0799	25.5219	25.128	4.46686	0.0385914	0.00686512	0.0391973	10.087	1.60531e+07	9.02406e+07	9.16574e+07	-79.913	0.0000000E+000	0.0000000E+000	0.0000000E+000	79.913	0.0000000E+000	0.0000000E+000	0.0000000E+000	-79.913	0.0000000E+000	0.0000000E+000	0.0000000E+000	-10.087	0.0000000E+000	0.0000000E+000	0.0000000E+000	10.087	5.62138	79.913	1.63505e-05	-9.62998e-07	-8.24338e-11	-9.62916e-07	0.265026	72950	6.24461	72943.8
0.0464052	25.7517	5.56981	26.3471	-12.2045	155.642	0.265053	-0.00189572	615762	27518.7	1	12	0.00483389	0.000183469	0	-3.13831e-05	3.59442e-06	2.36767e-06	33.4052	0.012905	0.010773	-0.00710492	-12.1844	26.3562	25.7624	5.56271	0.037097	0.00802369	0.0379548	12.2045	2.75187e+07	1.27231e+08	1.30173e+08	-77.7955	0.0000000E+000	0.0000000E+000	0.0000000E+000	77.7955	0.0000000E+000	0.0000000E+000	0.0000000E+000	-77.7955	0.0000000E+000	0.0000000E+000	0.0000000E+000	-12.2045	0.0000000E+000	0.0000000E+000	0.0000000E+000	12.2045	4.62343	77.7955	8.26163e-05	-5.02466e-07	-6.814e-12	-5.02459e-07	0.26505	139817	1.89608	139815
0.0315922	26.736	7.09803	27.6622	-14.8682	222.247	0.265049	-0.000600513	709746	46730.9	1	12	0.00483498	0.000174787	0	9.08582e-05	-9.18759e-05	1.78935e-06	-36.7906	0.0102373	0.00819835	0.00613106	-14.8761	27.6717	26.7442	7.10416	0.0349401	0.00927608	0.0361504	14.8682	4.67309e+07	1.76021e+08	1.82118e+08	-75.1318	0.0000000E+000	0.0000000E+000	0.0000000E+000	75.1318	0.0000000E+000	0.0000000E+000	0.0000000E+000	-75.1318	0.0000000E+000	0.0000000E+000	0.0000000E+000	-14.8682	0.0000000E+000	0.0000000E+000	0.0000000E+000	14.8682	3.76669	75.1318	0.000122241	-1.59165e-07	5.51727e-11	-1.59221e-07	0.265141	441371	152.996	441524
0.0215268	27.9539	9.38638	29.4877	-18.561	319.984	0.265045	0.000306321	787667	79809.9	1	12	0.00483364	0.00016392	0	0.00016724	9.90647e-05	1.97726e-06	1.72657	0.0120623	0.0120568	-0.000363434	-18.5529	29.499	27.966	9.38602	0.0321485	0.0107948	0.0339124	18.561	7.98099e+07	2.37685e+08	2.50726e+08	-71.439	0.0000000E+000	0.0000000E+000	0.0000000E+000	71.439	0.0000000E+000	0.0000000E+000	0.0000000E+000	-71.439	0.0000000E+000	0.0000000E+000	0.0000000E+000	-18.561	0.0000000E+000	0.0000000E+000	0.0000000E+000	18.561	2.97814	71.439	7.63815e-05	8.11889e-08	3.03456e-11	8.11585e-08	0.264946	865253	323.402	864929
0.0146812	29.2588	12.4586	31.8008	-23.0647	463.286	0.265049	0.000549486	870140	133553	1	12	0.00483987	0.000152193	0	7.09251e-05	-0.000244628	2.98039e-06	2.70935	0.0195829	0.019561	-0.000925672	-23.0494	31.8185	29.2783	12.4577	0.028932	0.0123195	0.0314457	23.0647	1.33553e+08	3.13645e+08	3.40895e+08	-66.9353	0.0000000E+000	0.0000000E+000	0.0000000E+000	66.9353	0.0000000E+000	0.0000000E+000	0.0000000E+000	-66.9353	0.0000000E+000	0.0000000E+000	0.0000000E+000	-23.0647	0.0000000E+000	0.0000000E+000	0.0000000E+000	23.0647	2.34847	66.9353	-9.63146e-05	1.4564e-07	-1.3442e-10	1.45775e-07	0.265293	482358	445.195	482803
0.0100092	30.9444	16.1314	34.8966	-27.5331	673.468	0.265049	0.000170107	985715	210633	1	12	0.00483494	0.00013855	0	-0.000288199	-0.000263722	2.54084e-06	-2.92913	0.0183387	0.0183147	0.000937122	-27.5206	34.9133	30.9627	16.1323	0.0254106	0.0132466	0.0286561	27.5331	2.10633e+08	4.04052e+08	4.55658e+08	-62.4669	0.0000000E+000	0.0000000E+000	0.0000000E+000	62.4669	0.0000000E+000	0.0000000E+000	0.0000000E+000	-62.4669	0.0000000E+000	0.0000000E+000	0.0000000E+000	-27.5331	0.0000000E+000	0.0000000E+000	0.0000000E+000	27.5331	1.91827	62.4669	-0.000359124	4.50868e-08	-4.48611e-11	4.51317e-08	0.265313	1.55813e+06	1550.33	1.55968e+06