File: txt/19137_R306_UA703_SOC00_C01.mpt
EC-Lab ASCII FILE
Nb header lines : 66

Potentio Electrochemical Impedance Spectroscopy

Run on channel : 1 (SN 66354)
Grouped channel(s) : 1, 2, 3, 4, 5
User :
CE vs. WE compliance from -10 V to 10 V
Electrode connection : standard
Potential control : Ewe
Ewe ctrl range : min = -10.00 V, max = 10.00 V
Safety Limits :
	Do not start on E overload
Acquisition started on : 11/12/2025 11:20:24.450
Loaded Setting File :  C:\Users\Celltest\OneDrive - store-dot.com\Documents\EC-Lab\Data\@Biologic Test Protocols\anode half cell EIS SOC00.mps
Saved on :
	File : 19137_R306_UA703_SOC00_C01.mpr
	Directory : C:\Users\Celltest\OneDrive - store-dot.com\Documents\EC-Lab\Data\Charmaine\
	Host : 169.254.61.224
Device : VMP-3e (SN .003165)
Address : USB
EC-LAB for windows v11.62 (software)
Internet server v27.00 (firmware)
Command interpretor v12.03 (firmware)
Electrode material :
Initial state :
Electrolyte :
Comments :
Electrode surface area : 0.001 cm²
Characteristic mass : 0.001 g
Equivalent Weight : 0.000 g/eq.
Density : 0.000 g/cm3
Volume (V) : 0.001 cm³
Record Ece
Cycle Definition : Charge/Discharge alternance
Mode                Single sine
E (V)               0.0000
vs.                 Eoc
tE (h:m:s)          0:00:0.0000
record              0
dI                  0.000
unit dI             mA
dt (s)              0.000
fi                  100.000
unit fi             kHz
ff                  10.000
unit ff             mHz
Nd                  6
Points              per decade
spacing             Logarithmic
Va (mV)             5.0
pw                  0.10
Na                  2
corr                0
E range min (V)     -10.000
E range max (V)     10.000
I Range             Auto
Bandwidth           5
nc cycles           0
goto Ns'            0
nr cycles           0
inc. cycle          0

freq/Hz	Re(Z)/Ohm	-Im(Z)/Ohm	|Z|/Ohm	Phase(Z)/deg	time/s	<Ewe>/V	<I>/mA	Cs/µF	Cp/µF	cycle number	I Range	|Ewe|/V	|I|/A	Ns	(Q-Qo)/mA.h	<Ece>/V	|Ece|/V	Phase(Zce)/deg	|Zce|/Ohm	Re(Zce)/Ohm	-Im(Zce)/Ohm	Phase(Zwe-ce)/deg	|Zwe-ce|/Ohm	Re(Zwe-ce)/Ohm	-Im(Zwe-ce)/Ohm	Re(Y)/Ohm-1	Im(Y)/Ohm-1	|Y|/Ohm-1	Phase(Y)/deg	Re(C)/nF	Im(C)/nF	|C|/nF	Phase(C)/deg	Re(M)	Im(M)	|M|	Phase(M)/deg	Re(Permittivity)	Im(Permittivity)	|Permittivity|	Phase(Permittivity)/deg	Re(Resistivity)/Ohm.cm	Im(Resistivity)/Ohm.cm	|Resistivity|/Ohm.cm	Phase(Resistivity)/deg	Re(Conductivity)/mS/cm	Im(Conductivity)/mS/cm	|Conductivity|/mS/cm	Phase(Conductivity)/deg	Tan(Delta)	Loss Angle(Delta)/deg	dq/mA.h	Pwe/W	Pce/W	Pwe-ce/W	<Ewe-Ece>/V	Rwe/Ohm	Rce/Ohm	Rwe-ce/Ohm		Ewe-Ece/V
100004	1.30737	0.551154	1.4188	-22.859	1.91056	0.268015	0.0692885	2.88756	0.435746	1	9	0.00455995	0.00321394	0	8.04822e-06	0.000152383	4.32582e-05	97.2772	0.0134595	-0.00170491	-0.0133511	-22.3866	1.41209	1.30567	0.537802	0.649466	0.273797	0.70482	22.859	435.746	1033.62	1121.71	-67.141	0.0000000E+000	0.0000000E+000	0.0000000E+000	67.141	0.0000000E+000	0.0000000E+000	0.0000000E+000	-67.141	0.0000000E+000	0.0000000E+000	0.0000000E+000	-22.859	0.0000000E+000	0.0000000E+000	0.0000000E+000	22.859	2.37207	67.141	8.04822e-06	1.85704e-05	1.05584e-08	1.85598e-05	0.267863	3868.1	2.19925	3865.9
68132	1.44899	0.629541	1.57984	-23.4834	2.41756	0.268026	0.0722316	3.7106	0.589204	1	9	0.00504793	0.00319521	0	1.46751e-05	0.00038131	4.37583e-05	96.2674	0.0136949	-0.00149506	-0.0136131	-23.0504	1.57309	1.4475	0.615928	0.580549	0.25223	0.632975	23.4834	589.204	1356.15	1478.62	-66.5166	0.0000000E+000	0.0000000E+000	0.0000000E+000	66.5166	0.0000000E+000	0.0000000E+000	0.0000000E+000	-66.5166	0.0000000E+000	0.0000000E+000	0.0000000E+000	-23.4834	0.0000000E+000	0.0000000E+000	0.0000000E+000	23.4834	2.30166	66.5166	6.62685e-06	1.936e-05	2.75427e-08	1.93324e-05	0.267645	3710.65	5.279	3705.37
46420.4	1.63653	0.689573	1.77588	-22.8487	2.92452	0.268001	0.0635886	4.972	0.749662	1	9	0.0050674	0.00285346	0	2.98455e-05	0.000190537	1.87354e-05	58.6287	0.00656585	0.00341807	-0.005606	-22.6394	1.77686	1.63995	0.683967	0.518917	0.218652	0.563102	22.8487	749.662	1779.14	1930.63	-67.1513	0.0000000E+000	0.0000000E+000	0.0000000E+000	67.1513	0.0000000E+000	0.0000000E+000	0.0000000E+000	-67.1513	0.0000000E+000	0.0000000E+000	0.0000000E+000	-22.8487	0.0000000E+000	0.0000000E+000	0.0000000E+000	22.8487	2.37325	67.1513	1.51704e-05	1.70418e-05	1.2116e-08	1.70297e-05	0.26781	4214.61	2.99641	4211.61
31621.1	1.80563	0.754116	1.95678	-22.6678	3.43156	0.268038	0.0764413	6.67428	0.991283	1	9	0.00513113	0.00262224	0	3.81207e-05	-3.83903e-05	1.4454e-05	35.2238	0.00551208	0.00450284	-0.00317921	-22.5312	1.95971	1.81013	0.750937	0.471569	0.19695	0.511044	22.6678	991.283	2373.49	2572.18	-67.3322	0.0000000E+000	0.0000000E+000	0.0000000E+000	67.3322	0.0000000E+000	0.0000000E+000	0.0000000E+000	-67.3322	0.0000000E+000	0.0000000E+000	0.0000000E+000	-22.6678	0.0000000E+000	0.0000000E+000	0.0000000E+000	22.6678	2.39436	67.3322	8.27518e-06	2.04892e-05	-2.93461e-09	2.04921e-05	0.268076	3506.45	0.502219	3506.96
21544.7	2.00198	0.828334	2.16658	-22.4777	3.81452	0.268013	0.0644454	8.91815	1.30358	1	9	0.00499158	0.0023039	0	4.27027e-05	0.000362233	1.12776e-05	46.5164	0.00489502	0.00336849	-0.00355168	-22.357	2.16834	2.00535	0.824782	0.426492	0.176464	0.461558	22.4777	1303.58	3150.59	3409.62	-67.5223	0.0000000E+000	0.0000000E+000	0.0000000E+000	67.5223	0.0000000E+000	0.0000000E+000	0.0000000E+000	-67.5223	0.0000000E+000	0.0000000E+000	0.0000000E+000	-22.4777	0.0000000E+000	0.0000000E+000	0.0000000E+000	22.4777	2.41687	67.5223	4.58208e-06	1.72722e-05	2.33443e-08	1.72488e-05	0.26765	4158.75	5.62077	4153.13
14678.6	2.19113	0.881616	2.36184	-21.9177	4.19953	0.268013	0.0661964	12.2986	1.71362	1	9	0.00479977	0.00203221	0	4.97591e-05	9.51508e-05	1.30699e-05	-35.3837	0.00643136	0.00524344	0.00372407	-21.954	2.3681	2.19637	0.88534	0.392795	0.158044	0.423398	21.9177	1713.62	4258.95	4590.76	-68.0823	0.0000000E+000	0.0000000E+000	0.0000000E+000	68.0823	0.0000000E+000	0.0000000E+000	0.0000000E+000	-68.0823	0.0000000E+000	0.0000000E+000	0.0000000E+000	-21.9177	0.0000000E+000	0.0000000E+000	0.0000000E+000	21.9177	2.48536	68.0823	7.05632e-06	1.77415e-05	6.29864e-09	1.77352e-05	0.267917	4048.75	1.4374	4047.31
10002.2	2.40174	0.954433	2.58444	-21.6725	4.58254	0.268037	0.0705551	16.6716	2.27372	1	9	0.00502375	0.00194385	0	5.59608e-05	0.000114228	6.81086e-06	-84.9694	0.00350381	0.000307244	0.00349031	-21.7418	2.58601	2.40205	0.957923	0.359579	0.142894	0.386931	21.6725	2273.72	5721.61	6156.83	-68.3275	0.0000000E+000	0.0000000E+000	0.0000000E+000	68.3275	0.0000000E+000	0.0000000E+000	0.0000000E+000	-68.3275	0.0000000E+000	0.0000000E+000	0.0000000E+000	-21.6725	0.0000000E+000	0.0000000E+000	0.0000000E+000	21.6725	2.51641	68.3275	6.20175e-06	1.89114e-05	8.05938e-09	1.89033e-05	0.267923	3798.98	1.61899	3797.36
6810.42	2.59936	1.05151	2.80399	-22.0247	4.84153	0.268023	0.0672022	22.2245	3.12542	1	9	0.00480255	0.00171276	0	5.95073e-05	0.000190537	0.000151755	58.3304	0.0886024	0.0465181	-0.0754086	-20.2498	2.82019	2.64588	0.976103	0.330609	0.13374	0.356635	22.0247	3125.42	7726.1	8334.32	-67.9753	0.0000000E+000	0.0000000E+000	0.0000000E+000	67.9753	0.0000000E+000	0.0000000E+000	0.0000000E+000	-67.9753	0.0000000E+000	0.0000000E+000	0.0000000E+000	-22.0247	0.0000000E+000	0.0000000E+000	0.0000000E+000	22.0247	2.47202	67.9753	3.54651e-06	1.80118e-05	1.28045e-08	1.7999e-05	0.267833	3988.31	2.83528	3985.48
4646	2.8153	1.1526	3.0421	-22.2645	5.10663	0.267993	0.0464516	29.721	4.2665	1	9	0.00470232	0.00154575	0	6.43194e-05	3.79189e-05	7.35868e-06	2.21398	0.0047606	0.00475704	-0.000183909	-22.2274	3.04643	2.82005	1.15241	0.304213	0.124546	0.32872	22.2645	4266.5	10421.2	11260.7	-67.7355	0.0000000E+000	0.0000000E+000	0.0000000E+000	67.7355	0.0000000E+000	0.0000000E+000	0.0000000E+000	-67.7355	0.0000000E+000	0.0000000E+000	0.0000000E+000	-22.2645	0.0000000E+000	0.0000000E+000	0.0000000E+000	22.2645	2.44257	67.7355	4.81206e-06	1.24487e-05	1.76139e-09	1.24469e-05	0.267955	5769.3	0.816311	5768.48
3163.08	3.11649	1.33128	3.38893	-23.1309	5.47969	0.267807	0.0448496	37.7954	5.83251	1	9	0.00462664	0.00136522	0	6.90438e-05	0.000247769	4.80679e-06	-74.4821	0.00352089	0.000941973	0.00339254	-23.1774	3.39113	3.11743	1.33468	0.271357	0.115917	0.295078	23.1309	5832.51	13653.7	14847.3	-66.8691	0.0000000E+000	0.0000000E+000	0.0000000E+000	66.8691	0.0000000E+000	0.0000000E+000	0.0000000E+000	-66.8691	0.0000000E+000	0.0000000E+000	0.0000000E+000	-23.1309	0.0000000E+000	0.0000000E+000	0.0000000E+000	23.1309	2.34097	66.8691	4.72439e-06	1.2011e-05	1.11124e-08	1.19999e-05	0.267559	5971.22	5.52445	5965.69
2155.69	3.40686	1.50768	3.72556	-23.8715	6.1758	0.267942	-0.00969793	48.9693	8.01976	1	10	0.00475933	0.00127748	0	7.74053e-05	-3.83903e-05	1.2384e-05	76.7938	0.00969409	0.00221467	-0.00943773	-23.7249	3.72377	3.40907	1.49825	0.245455	0.108624	0.268416	23.8715	8019.76	18122	19817.2	-66.1285	0.0000000E+000	0.0000000E+000	0.0000000E+000	66.1285	0.0000000E+000	0.0000000E+000	0.0000000E+000	-66.1285	0.0000000E+000	0.0000000E+000	0.0000000E+000	-23.8715	0.0000000E+000	0.0000000E+000	0.0000000E+000	23.8715	2.25966	66.1285	8.36154e-06	-2.59848e-06	3.72306e-10	-2.59885e-06	0.26798	27628.8	3.95861	27632.7
1468.59	3.73432	1.7388	4.11929	-24.9679	6.62702	0.267942	-0.00919479	62.3263	11.1051	1	10	0.0047119	0.00114386	0	7.73729e-05	0.000190537	2.40102e-05	-0.417605	0.0209905	0.0209899	0.000152989	-24.8472	4.13839	3.75531	1.73895	0.220073	0.102472	0.24276	24.9679	11105.1	23849.9	26308.6	-65.0321	0.0000000E+000	0.0000000E+000	0.0000000E+000	65.0321	0.0000000E+000	0.0000000E+000	0.0000000E+000	-65.0321	0.0000000E+000	0.0000000E+000	0.0000000E+000	-24.9679	0.0000000E+000	0.0000000E+000	0.0000000E+000	24.9679	2.14764	65.0321	-3.23707e-08	-2.46367e-06	-1.75195e-09	-2.46192e-06	0.267752	29140.7	20.7223	29119.9
1000.32	4.07765	2.02096	4.55099	-26.3639	7.0778	0.267939	-0.0103911	78.7268	15.5249	1	10	0.00465389	0.00102261	0	7.65594e-05	0.000305001	5.26362e-06	-56.8196	0.00514724	0.00281696	0.00430799	-26.3967	4.55543	4.08047	2.02527	0.196878	0.0975768	0.219732	26.3639	15524.9	31324.1	34960.3	-63.6361	0.0000000E+000	0.0000000E+000	0.0000000E+000	63.6361	0.0000000E+000	0.0000000E+000	0.0000000E+000	-63.6361	0.0000000E+000	0.0000000E+000	0.0000000E+000	-26.3639	0.0000000E+000	0.0000000E+000	0.0000000E+000	26.3639	2.01768	63.6361	-8.13545e-07	-2.7842e-06	-3.16931e-09	-2.78103e-06	0.267634	25785.3	29.352	25756
681.09	4.46866	2.39769	5.07128	-28.2161	7.52756	0.267934	-0.0105849	97.4593	21.7858	1	10	0.00461684	0.000910389	0	7.59152e-05	0.000114228	7.83211e-06	-79.3577	0.00860303	0.00158879	0.00845505	-28.2917	5.07668	4.47025	2.40614	0.173757	0.0932305	0.197189	28.2161	21785.8	40603	46078.5	-61.7839	0.0000000E+000	0.0000000E+000	0.0000000E+000	61.7839	0.0000000E+000	0.0000000E+000	0.0000000E+000	-61.7839	0.0000000E+000	0.0000000E+000	0.0000000E+000	-28.2161	0.0000000E+000	0.0000000E+000	0.0000000E+000	28.2161	1.86374	61.7839	-6.44159e-07	-2.83607e-06	-1.2091e-09	-2.83486e-06	0.26782	25312.7	10.7916	25302
463.961	4.94153	2.8958	5.72751	-30.3708	7.97936	0.267945	-0.00934761	118.46	30.2813	1	10	0.00458911	0.00080124	0	7.45329e-05	1.88416e-05	1.62548e-05	127.095	0.0202871	-0.0122359	-0.0161817	-30.2928	5.70878	4.9293	2.87962	0.150636	0.0882747	0.174596	30.3708	30281.3	51673.6	59892.6	-59.6292	0.0000000E+000	0.0000000E+000	0.0000000E+000	59.6292	0.0000000E+000	0.0000000E+000	0.0000000E+000	-59.6292	0.0000000E+000	0.0000000E+000	0.0000000E+000	-30.3708	0.0000000E+000	0.0000000E+000	0.0000000E+000	30.3708	1.70645	59.6292	-1.38234e-06	-2.50464e-06	-1.76124e-10	-2.50447e-06	0.267926	28664.5	2.01566	28662.5
316.316	5.55714	3.56102	6.60021	-32.6518	8.42709	0.267932	-0.0117142	141.294	41.13	1	10	0.00458236	0.000694276	0	7.32607e-05	0.000114228	6.95471e-06	57.616	0.0100172	0.00536512	-0.00845932	-32.5648	6.60017	5.56251	3.55256	0.127566	0.0817447	0.15151	32.6518	41130	64185.3	76232.8	-57.3482	0.0000000E+000	0.0000000E+000	0.0000000E+000	57.3482	0.0000000E+000	0.0000000E+000	0.0000000E+000	-57.3482	0.0000000E+000	0.0000000E+000	0.0000000E+000	-32.6518	0.0000000E+000	0.0000000E+000	0.0000000E+000	32.6518	1.56055	57.3482	-1.27221e-06	-3.13862e-06	-1.33809e-09	-3.13728e-06	0.267818	22872.4	9.75124	22862.7
215.345	6.47011	4.34456	7.79343	-33.8806	8.87655	0.267929	-0.0125118	170.114	52.8658	1	10	0.0046026	0.000590575	0	7.14181e-05	-0.000191009	2.59289e-05	35.2814	0.0439046	0.0358404	-0.025359	-33.5795	7.80915	6.50595	4.3192	0.106526	0.07153	0.128313	33.8806	52865.8	78730.1	94832.6	-56.1194	0.0000000E+000	0.0000000E+000	0.0000000E+000	56.1194	0.0000000E+000	0.0000000E+000	0.0000000E+000	-56.1194	0.0000000E+000	0.0000000E+000	0.0000000E+000	-33.8806	0.0000000E+000	0.0000000E+000	0.0000000E+000	33.8806	1.48925	56.1194	-1.84256e-06	-3.35227e-06	2.38986e-09	-3.35466e-06	0.26812	21414.1	15.2663	21429.4
146.737	7.57919	5.25898	9.22502	-34.7557	9.32246	0.267922	-0.0121503	206.242	67.0265	1	10	0.00457927	0.000496397	0	6.92356e-05	-0.000362705	1.03084e-05	-0.980819	0.0207665	0.0207634	0.000355474	-34.6841	9.24229	7.59995	5.25933	0.0890611	0.061797	0.108401	34.7557	67026.5	96597.9	117574	-55.2443	0.0000000E+000	0.0000000E+000	0.0000000E+000	55.2443	0.0000000E+000	0.0000000E+000	0.0000000E+000	-55.2443	0.0000000E+000	0.0000000E+000	0.0000000E+000	-34.7557	0.0000000E+000	0.0000000E+000	0.0000000E+000	34.7557	1.44119	55.2443	-2.18255e-06	-3.25533e-06	4.40696e-09	-3.25974e-06	0.268285	22050.7	29.8516	22080.6
100.032	9.1017	6.05075	10.9294	-33.6157	9.77277	0.267932	-0.01098	262.949	80.5926	1	10	0.00456012	0.000417233	0	6.84595e-05	0.000133305	8.46483e-06	-64.4073	0.020288	0.00876382	0.0182975	-33.67	10.9469	9.11046	6.06905	0.0761951	0.050654	0.091496	33.6157	80592.5	121230	145574	-56.3843	0.0000000E+000	0.0000000E+000	0.0000000E+000	56.3843	0.0000000E+000	0.0000000E+000	0.0000000E+000	-56.3843	0.0000000E+000	0.0000000E+000	0.0000000E+000	-33.6157	0.0000000E+000	0.0000000E+000	0.0000000E+000	33.6157	1.50423	56.3843	-7.76069e-07	-2.9419e-06	-1.4637e-09	-2.94043e-06	0.267798	24401.8	12.1407	24389.6
68.104	10.963	6.75836	12.8788	-31.6527	10.2354	0.267946	-0.00712636	345.785	95.2229	1	10	0.00456868	0.000354746	0	6.79227e-05	-7.65449e-05	4.58627e-06	-87.0033	0.0129283	0.000675871	0.0129106	-31.6999	12.8861	10.9637	6.77128	0.0660968	0.0407468	0.0776473	31.6527	95222.9	154464	181457	-58.3473	0.0000000E+000	0.0000000E+000	0.0000000E+000	58.3473	0.0000000E+000	0.0000000E+000	0.0000000E+000	-58.3473	0.0000000E+000	0.0000000E+000	0.0000000E+000	-31.6527	0.0000000E+000	0.0000000E+000	0.0000000E+000	31.6527	1.62213	58.3473	-5.36779e-07	-1.90948e-06	5.45487e-10	-1.91003e-06	0.268023	37599.3	10.7411	37610
46.4415	13.0254	7.09131	14.8307	-28.5648	10.6716	0.267931	-0.0126944	483.267	110.489	1	10	0.00457038	0.000308171	0	6.64207e-05	-0.000229163	1.26613e-05	-44.6577	0.0410854	0.0292248	0.0288777	-28.6086	14.8702	13.0547	7.12019	0.0592203	0.0322407	0.0674278	28.5648	110489	202948	231075	-61.4352	0.0000000E+000	0.0000000E+000	0.0000000E+000	61.4352	0.0000000E+000	0.0000000E+000	0.0000000E+000	-61.4352	0.0000000E+000	0.0000000E+000	0.0000000E+000	-28.5648	0.0000000E+000	0.0000000E+000	0.0000000E+000	28.5648	1.83682	61.4352	-1.50208e-06	-3.40122e-06	2.90909e-09	-3.40413e-06	0.26816	21106.2	18.0523	21124.2
31.6296	15.1637	7.02965	16.7138	-24.8718	11.1016	0.267936	-0.0148523	715.803	126.622	1	10	0.00456221	0.00027296	0	6.51328e-05	0.000228692	7.24146e-06	16.6257	0.0265294	0.0254203	-0.00759053	-24.8116	16.7337	15.1891	7.02206	0.0542815	0.0251641	0.0598307	24.8718	126622	273136	301058	-65.1282	0.0000000E+000	0.0000000E+000	0.0000000E+000	65.1282	0.0000000E+000	0.0000000E+000	0.0000000E+000	-65.1282	0.0000000E+000	0.0000000E+000	0.0000000E+000	-24.8718	0.0000000E+000	0.0000000E+000	0.0000000E+000	24.8718	2.1571	65.1282	-1.28784e-06	-3.97947e-06	-3.3966e-09	-3.97608e-06	0.267708	18040.1	15.3977	18024.7
21.5517	17.2725	6.7504	18.5447	-21.3464	11.7544	0.26799	-0.00171602	1093.98	144.953	1	11	0.00457034	0.000246449	0	6.47661e-05	-0.000133777	4.42052e-06	42.364	0.0179368	0.0132532	-0.0120865	-21.2968	18.5527	17.2858	6.73832	0.0502243	0.0196285	0.0539236	21.3464	144953	370896	398215	-68.6536	0.0000000E+000	0.0000000E+000	0.0000000E+000	68.6536	0.0000000E+000	0.0000000E+000	0.0000000E+000	-68.6536	0.0000000E+000	0.0000000E+000	0.0000000E+000	-21.3464	0.0000000E+000	0.0000000E+000	0.0000000E+000	21.3464	2.55874	68.6536	-3.66767e-07	-4.59876e-07	2.29564e-10	-4.60106e-07	0.268124	156170	77.9576	156248
14.6852	19.0064	6.23765	20.0038	-18.1691	12.2142	0.267991	-0.00133059	1737.48	168.942	1	11	0.00456084	0.000227999	0	6.57082e-05	0.000133305	7.38289e-06	72.2275	0.0323813	0.00988403	-0.0308359	-18.0764	20.0036	19.0163	6.20681	0.0474979	0.0155882	0.0499904	18.1691	168942	514774	541787	-71.8309	0.0000000E+000	0.0000000E+000	0.0000000E+000	71.8309	0.0000000E+000	0.0000000E+000	0.0000000E+000	-71.8309	0.0000000E+000	0.0000000E+000	0.0000000E+000	-18.1691	0.0000000E+000	0.0000000E+000	0.0000000E+000	18.1691	3.04705	71.8309	9.42166e-07	-3.56588e-07	-1.77375e-10	-3.5641e-07	0.267858	201407	100.185	201307
10.0032	20.5272	5.68139	21.2989	-15.4707	12.6648	0.267984	-0.00122297	2800.44	199.261	1	11	0.00455753	0.000213979	0	6.42258e-05	7.60735e-05	4.31554e-06	53.3143	0.020168	0.0120489	-0.0161732	-15.4202	21.3062	20.5392	5.66522	0.0452496	0.0125239	0.0469508	15.4707	199261	719939	747006	-74.5293	0.0000000E+000	0.0000000E+000	0.0000000E+000	74.5293	0.0000000E+000	0.0000000E+000	0.0000000E+000	-74.5293	0.0000000E+000	0.0000000E+000	0.0000000E+000	-15.4707	0.0000000E+000	0.0000000E+000	0.0000000E+000	15.4707	3.61305	74.5293	-1.48243e-06	-3.27737e-07	-9.30359e-11	-3.27644e-07	0.267908	219125	62.2038	219063
6.81719	21.8631	5.09358	22.4486	-13.1146	13.0045	0.267999	-9.79798e-05	4583.44	235.972	1	11	0.00455883	0.000203079	0	6.60942e-05	0.000247769	6.44865e-06	-79.7745	0.0317544	0.00563713	0.0312501	-13.189	22.4612	21.8687	5.12483	0.0433844	0.0101075	0.0445462	13.1146	235972	1.01286e+06	1.03998e+06	-76.8854	0.0000000E+000	0.0000000E+000	0.0000000E+000	76.8854	0.0000000E+000	0.0000000E+000	0.0000000E+000	-76.8854	0.0000000E+000	0.0000000E+000	0.0000000E+000	-13.1146	0.0000000E+000	0.0000000E+000	0.0000000E+000	13.1146	4.29228	76.8854	1.86838e-06	-2.62585e-08	-2.42764e-11	-2.62342e-08	0.267752	2.73525e+06	2528.78	2.73272e+06
4.63925	23.1263	4.594	23.5782	-11.2354	13.4884	0.267988	-0.000653215	7467.6	283.492	1	11	0.00457232	0.000193922	0	6.49364e-05	0.000190537	3.60184e-06	55.0454	0.0185737	0.0106414	-0.0152231	-11.1941	23.5857	23.137	4.57878	0.0415992	0.0082636	0.042412	11.2354	283492	1.42711e+06	1.45499e+06	-78.7646	0.0000000E+000	0.0000000E+000	0.0000000E+000	78.7646	0.0000000E+000	0.0000000E+000	0.0000000E+000	-78.7646	0.0000000E+000	0.0000000E+000	0.0000000E+000	-11.2354	0.0000000E+000	0.0000000E+000	0.0000000E+000	11.2354	5.03403	78.7646	-1.15774e-06	-1.75054e-07	-1.24462e-10	-1.74929e-07	0.267797	410259	291.692	409968
3.1604	24.0286	4.03909	24.3657	-9.54194	14.1815	0.268001	0.00026175	12468	342.613	1	11	0.00455692	0.000187022	0	6.25257e-05	0.000228692	9.43725e-06	-12.9532	0.0504606	0.0491766	0.011311	-9.54898	24.4161	24.0778	4.0504	0.0404735	0.00680339	0.0410413	9.54194	342613	2.03821e+06	2.06681e+06	-80.4581	0.0000000E+000	0.0000000E+000	0.0000000E+000	80.4581	0.0000000E+000	0.0000000E+000	0.0000000E+000	-80.4581	0.0000000E+000	0.0000000E+000	0.0000000E+000	-9.54194	0.0000000E+000	0.0000000E+000	0.0000000E+000	9.54194	5.94901	80.4581	-2.41072e-06	7.01494e-08	5.98602e-11	7.00896e-08	0.267773	1.02388e+06	873.702	1.02301e+06
2.15577	24.9454	3.58023	25.201	-8.16746	15.1851	0.268005	0.000606119	20620.9	416.191	1	11	0.00456083	0.000180978	0	6.24782e-05	-3.83903e-05	5.76161e-06	-31.0961	0.031836	0.0272613	0.0164425	-8.19562	25.2304	24.9727	3.59667	0.0392784	0.00563734	0.0396809	8.16746	416190	2.89983e+06	2.92954e+06	-81.8325	0.0000000E+000	0.0000000E+000	0.0000000E+000	81.8325	0.0000000E+000	0.0000000E+000	0.0000000E+000	-81.8325	0.0000000E+000	0.0000000E+000	0.0000000E+000	-8.16746	0.0000000E+000	0.0000000E+000	0.0000000E+000	8.16746	6.96755	81.8325	-4.75001e-08	1.62443e-07	-2.32691e-11	1.62466e-07	0.268043	442165	63.3379	442229
1.46631	25.6644	3.17807	25.8604	-7.0591	16.6463	0.268005	0.000520815	34153.2	515.805	1	11	0.00456312	0.000176452	0	6.60804e-05	0.00017146	3.37089e-06	24.0138	0.0191038	0.0174503	-0.00777439	-7.03726	25.8768	25.6818	3.17029	0.038376	0.00475217	0.0386691	7.0591	515806	4.16538e+06	4.19719e+06	-82.9409	0.0000000E+000	0.0000000E+000	0.0000000E+000	82.9409	0.0000000E+000	0.0000000E+000	0.0000000E+000	-82.9409	0.0000000E+000	0.0000000E+000	0.0000000E+000	-7.0591	0.0000000E+000	0.0000000E+000	0.0000000E+000	7.0591	8.07548	82.9409	3.60213e-06	1.39581e-07	8.92989e-11	1.39491e-07	0.267833	514587	329.215	514258
1.00006	26.2769	2.82319	26.4281	-6.13234	19.82	0.268001	-0.00013214	56370.6	643.281	1	12	0.00456834	0.000172859	0	7.19882e-05	9.51508e-05	3.61212e-06	-23.9109	0.0208963	0.0191029	0.00846956	-6.14616	26.448	26.296	2.83166	0.037622	0.00404211	0.0378385	6.13234	643281	5.98735e+06	6.02181e+06	-83.8677	0.0000000E+000	0.0000000E+000	0.0000000E+000	83.8677	0.0000000E+000	0.0000000E+000	0.0000000E+000	-83.8677	0.0000000E+000	0.0000000E+000	0.0000000E+000	-6.13234	0.0000000E+000	0.0000000E+000	0.0000000E+000	6.13234	9.30752	83.8677	5.90788e-06	-3.54137e-08	-1.25732e-11	-3.54012e-08	0.267906	2.02816e+06	720.075	2.02744e+06
0.681362	26.7982	2.59174	26.9233	-5.52407	22.932	0.267998	0.000271574	90126.1	835.175	1	12	0.00456626	0.000169603	0	7.49667e-05	0.000114228	3.57788e-06	0.675127	0.0210957	0.0210942	-0.000248568	-5.51923	26.9442	26.8193	2.59149	0.0369701	0.00357549	0.0371426	5.52407	835176	8.6356e+06	8.67589e+06	-84.4759	0.0000000E+000	0.0000000E+000	0.0000000E+000	84.4759	0.0000000E+000	0.0000000E+000	0.0000000E+000	-84.4759	0.0000000E+000	0.0000000E+000	0.0000000E+000	-5.52407	0.0000000E+000	0.0000000E+000	0.0000000E+000	5.52407	10.3399	84.4759	2.97842e-06	7.27814e-08	3.10214e-11	7.27504e-08	0.267884	986832	420.615	986412
0.464091	27.2446	2.51818	27.3607	-5.28077	27.4884	0.267994	0.000728139	136185	1153.59	1	12	0.00456406	0.000166811	0	7.16771e-05	5.69962e-05	5.04904e-06	6.38298	0.0302681	0.0300805	-0.00336501	-5.26797	27.3904	27.2747	2.51482	0.0363936	0.00336382	0.0365488	5.28077	1.15359e+06	1.24808e+07	1.2534e+07	-84.7192	0.0000000E+000	0.0000000E+000	0.0000000E+000	84.7192	0.0000000E+000	0.0000000E+000	0.0000000E+000	-84.7192	0.0000000E+000	0.0000000E+000	0.0000000E+000	-5.28077	0.0000000E+000	0.0000000E+000	0.0000000E+000	5.28077	10.8191	84.7192	-3.28958e-06	1.95137e-07	4.15012e-11	1.95096e-07	0.267937	368053	78.2765	367975
0.316193	27.6309	2.57124	27.7503	-5.31645	34.1628	0.267998	0.00101034	195760	1680.64	1	12	0.00456592	0.000164536	0	5.99925e-05	-0.000191009	2.46712e-06	-49.0628	0.0149944	0.00982481	0.0113272	-5.33785	27.7611	27.6407	2.58257	0.0358806	0.00333893	0.0360357	5.31645	1.68064e+06	1.80604e+07	1.81385e+07	-84.6836	0.0000000E+000	0.0000000E+000	0.0000000E+000	84.6836	0.0000000E+000	0.0000000E+000	0.0000000E+000	-84.6836	0.0000000E+000	0.0000000E+000	0.0000000E+000	-5.31645	0.0000000E+000	0.0000000E+000	0.0000000E+000	5.31645	10.7461	84.6836	-1.16846e-05	2.7077e-07	-1.92985e-10	2.70963e-07	0.268189	265254	189.053	265443
0.215268	28.0281	2.75909	28.1636	-5.6221	43.9552	0.267998	0.000440297	267963	2571.77	1	12	0.00456468	0.000162077	0	4.07593e-05	0.00017146	2.79152e-06	-2.52977	0.0172234	0.0172066	0.000760214	-5.62021	28.1808	28.0453	2.75986	0.035336	0.00347849	0.0355068	5.6221	2.57177e+06	2.61252e+07	2.62514e+07	-84.3779	0.0000000E+000	0.0000000E+000	0.0000000E+000	84.3779	0.0000000E+000	0.0000000E+000	0.0000000E+000	-84.3779	0.0000000E+000	0.0000000E+000	0.0000000E+000	-5.6221	0.0000000E+000	0.0000000E+000	0.0000000E+000	5.6221	10.1584	84.3779	-1.92331e-05	1.17999e-07	7.54934e-11	1.17923e-07	0.267827	608676	389.419	608286
0.146929	28.5174	3.15989	28.6919	-6.32291	58.2934	0.268	-0.000448191	342800	4157.83	1	12	0.00456496	0.000159103	0	2.18169e-05	-0.000191009	2.42067e-06	-23.3409	0.0152145	0.0139694	0.00602801	-6.3318	28.7065	28.5314	3.16592	0.034641	0.00383843	0.034853	6.32291	4.15783e+06	3.75235e+07	3.77532e+07	-83.6771	0.0000000E+000	0.0000000E+000	0.0000000E+000	83.6771	0.0000000E+000	0.0000000E+000	0.0000000E+000	-83.6771	0.0000000E+000	0.0000000E+000	0.0000000E+000	-6.32291	0.0000000E+000	0.0000000E+000	0.0000000E+000	6.32291	9.02479	83.6771	-1.89424e-05	-1.20115e-07	8.56085e-11	-1.20201e-07	0.268191	597958	426.177	598384
0.0999041	29.0761	3.87629	29.3333	-7.59364	79.3704	0.267998	-0.00126859	410980	7176.8	1	12	0.00456657	0.000155679	0	1.65592e-05	5.69962e-05	1.42038e-06	-23.3367	0.00912379	0.0083774	0.00361424	-7.59847	29.3421	29.0845	3.87991	0.0337919	0.00450499	0.0340909	7.59364	7.1768e+06	5.38332e+07	5.43095e+07	-82.4064	0.0000000E+000	0.0000000E+000	0.0000000E+000	82.4064	0.0000000E+000	0.0000000E+000	0.0000000E+000	-82.4064	0.0000000E+000	0.0000000E+000	0.0000000E+000	-7.59364	0.0000000E+000	0.0000000E+000	0.0000000E+000	7.59364	7.501	82.4064	-5.25774e-06	-3.3998e-07	-7.23051e-11	-3.39908e-07	0.267941	211256	44.9287	211211
0.0680626	29.6899	4.86181	30.0854	-9.29982	110.298	0.267996	-0.0016591	480965	12560.3	1	12	0.00456598	0.000151767	0	3.83286e-05	-9.56222e-05	2.51292e-06	7.15799	0.0165577	0.0164286	-0.00206318	-9.29089	30.1012	29.7064	4.85975	0.0328019	0.0053714	0.0332388	9.29982	1.25603e+07	7.67026e+07	7.77242e+07	-80.7002	0.0000000E+000	0.0000000E+000	0.0000000E+000	80.7002	0.0000000E+000	0.0000000E+000	0.0000000E+000	-80.7002	0.0000000E+000	0.0000000E+000	0.0000000E+000	-9.29982	0.0000000E+000	0.0000000E+000	0.0000000E+000	9.29982	6.10676	80.7002	2.17695e-05	-4.44632e-07	1.58647e-10	-4.44791e-07	0.268092	161531	57.635	161589
0.0464052	30.3929	6.04234	30.9877	-11.2442	155.649	0.267993	-0.000922149	567608	21581.4	1	12	0.0045645	0.0001473	0	0.000113126	0.000133305	2.78873e-06	-10.8159	0.0189323	0.0185959	0.00355272	-11.244	31.0066	30.4115	6.04589	0.0316514	0.00629255	0.0322709	11.2442	2.15814e+07	1.08554e+08	1.10679e+08	-78.7558	0.0000000E+000	0.0000000E+000	0.0000000E+000	78.7558	0.0000000E+000	0.0000000E+000	0.0000000E+000	-78.7558	0.0000000E+000	0.0000000E+000	0.0000000E+000	-11.2442	0.0000000E+000	0.0000000E+000	0.0000000E+000	11.2442	5.02999	78.7558	7.4797e-05	-2.4713e-07	-1.22928e-10	-2.47007e-07	0.26786	290618	144.559	290474
0.0315922	31.4817	7.61042	32.3886	-13.59	222.253	0.267999	7.13689e-05	661960	36548.2	1	12	0.00456541	0.000140958	0	0.000227336	-7.65449e-05	2.57815e-06	-8.726	0.0182903	0.0180785	0.0027748	-13.5873	32.4068	31.4998	7.61319	0.0300107	0.0072548	0.0308751	13.59	3.65482e+07	1.51187e+08	1.55542e+08	-76.41	0.0000000E+000	0.0000000E+000	0.0000000E+000	76.41	0.0000000E+000	0.0000000E+000	0.0000000E+000	-76.41	0.0000000E+000	0.0000000E+000	0.0000000E+000	-13.59	0.0000000E+000	0.0000000E+000	0.0000000E+000	13.59	4.13666	76.41	0.00011421	1.91268e-08	-5.46292e-12	1.91323e-08	0.268076	3.75513e+06	1072.53	3.7562e+06
0.0215268	32.8611	9.97887	34.3428	-16.8919	319.991	0.267996	0.000602219	740900	62553.3	1	12	0.00456511	0.000132928	0	0.000316299	0.000190537	1.62506e-06	11.2068	0.0122251	0.011992	-0.00237596	-16.8823	34.3536	32.8731	9.9765	0.0278618	0.00846075	0.0291181	16.8919	6.25533e+07	2.05992e+08	2.15281e+08	-73.1081	0.0000000E+000	0.0000000E+000	0.0000000E+000	73.1081	0.0000000E+000	0.0000000E+000	0.0000000E+000	-73.1081	0.0000000E+000	0.0000000E+000	0.0000000E+000	-16.8919	0.0000000E+000	0.0000000E+000	0.0000000E+000	16.8919	3.29307	73.1081	8.89631e-05	1.61392e-07	1.14745e-10	1.61277e-07	0.267805	445013	316.392	444697
0.0146812	34.3104	13.1991	36.7616	-21.0416	463.293	0.267996	0.000812007	821326	105880	1	12	0.00456374	0.000124144	0	0.000277624	0.000114228	2.69718e-06	46.4748	0.0217262	0.0149622	-0.015753	-21.0103	36.7699	34.3253	13.1833	0.0253884	0.00976685	0.0272023	21.0416	1.0588e+08	2.7523e+08	2.94893e+08	-68.9584	0.0000000E+000	0.0000000E+000	0.0000000E+000	68.9584	0.0000000E+000	0.0000000E+000	0.0000000E+000	-68.9584	0.0000000E+000	0.0000000E+000	0.0000000E+000	-21.0416	0.0000000E+000	0.0000000E+000	0.0000000E+000	21.0416	2.59945	68.9584	-3.8675e-05	2.17615e-07	9.27541e-11	2.17522e-07	0.267882	330041	140.674	329900

0.0100092	36.0848	17.0953	39.9295	-25.3494	673.475	0.267992	0.000472533	930134	170495	1	12	0.0045661	0.000114354	0	2.2495e-05	0.000190537	3.07892e-06	14.0834	0.0269245	0.0261152	-0.00655163	-25.3249	39.9503	36.1109	17.0887	0.0226327	0.0107223	0.0250442	25.3494	1.70495e+08	3.59881e+08	3.98225e+08	-64.6506	0.0000000E+000	0.0000000E+000	0.0000000E+000	64.6506	0.0000000E+000	0.0000000E+000	0.0000000E+000	-64.6506	0.0000000E+000	0.0000000E+000	0.0000000E+000	-25.3494	0.0000000E+000	0.0000000E+000	0.0000000E+000	25.3494	2.1108	64.6506	-0.000255129	1.26635e-07	9.00352e-11	1.26545e-07	0.267801	567139	403.226	566736