File: txt/19141_R306_UA703_SOC00_C05.mpt
EC-Lab ASCII FILE
Nb header lines : 65

Potentio Electrochemical Impedance Spectroscopy

Run on channel : 5 (SN 65912)
Grouped channel(s) : 1, 2, 3, 4, 5
User :
CE vs. WE compliance from -10 V to 10 V
Electrode connection : standard
Potential control : Ewe
Ewe ctrl range : min = -10.00 V, max = 10.00 V
Safety Limits :
	Do not start on E overload
Acquisition started on : 11/12/2025 11:20:24.450
Loaded Setting File :  C:\Users\Celltest\OneDrive - store-dot.com\Documents\EC-Lab\Data\@Biologic Test Protocols\anode half cell EIS SOC00.mps
Saved on :
	File : 19137_R306_UA703_SOC00_C05.mpr
	Directory : C:\Users\Celltest\OneDrive - store-dot.com\Documents\EC-Lab\Data\Charmaine\
	Host : 169.254.61.224
Device : VMP-3e (SN .003165)
Address : USB
EC-LAB for windows v11.62 (software)
Internet server v27.00 (firmware)
Command interpretor v12.03 (firmware)
Electrode material :
Initial state :
Electrolyte :
Comments :
Electrode surface area : 0.001 cm²
Characteristic mass : 0.001 g
Equivalent Weight : 0.000 g/eq.
Density : 0.000 g/cm3
Volume (V) : 0.001 cm³
Record Ece
Cycle Definition : Charge/Discharge alternance
Mode                Single sine
E (V)               0.0000
vs.                 Eoc
tE (h:m:s)          0:00:0.0000
record              0
dI                  0.000
unit dI             mA
dt (s)              0.000
fi                  100.000
unit fi             kHz
ff                  10.000
unit ff             mHz
Nd                  6
Points              per decade
spacing             Logarithmic
Va (mV)             5.0
pw                  0.10
Na                  2
corr                0
E range min (V)     -10.000
E range max (V)     10.000
I Range             Auto
Bandwidth           5
nc cycles           0
goto Ns'            0
nr cycles           0
inc. cycle          0

freq/Hz	Re(Z)/Ohm	-Im(Z)/Ohm	|Z|/Ohm	Phase(Z)/deg	time/s	<Ewe>/V	<I>/mA	Cs/µF	Cp/µF	cycle number	I Range	|Ewe|/V	|I|/A	Ns	(Q-Qo)/mA.h	<Ece>/V	|Ece|/V	Phase(Zce)/deg	|Zce|/Ohm	Re(Zce)/Ohm	-Im(Zce)/Ohm	Phase(Zwe-ce)/deg	|Zwe-ce|/Ohm	Re(Zwe-ce)/Ohm	-Im(Zwe-ce)/Ohm	Re(Y)/Ohm-1	Im(Y)/Ohm-1	|Y|/Ohm-1	Phase(Y)/deg	Re(C)/nF	Im(C)/nF	|C|/nF	Phase(C)/deg	Re(M)	Im(M)	|M|	Phase(M)/deg	Re(Permittivity)	Im(Permittivity)	|Permittivity|	Phase(Permittivity)/deg	Re(Resistivity)/Ohm.cm	Im(Resistivity)/Ohm.cm	|Resistivity|/Ohm.cm	Phase(Resistivity)/deg	Re(Conductivity)/mS/cm	Im(Conductivity)/mS/cm	|Conductivity|/mS/cm	Phase(Conductivity)/deg	Tan(Delta)	Loss Angle(Delta)/deg	dq/mA.h	Pwe/W	Pce/W	Pwe-ce/W	<Ewe-Ece>/V	Rwe/Ohm	Rce/Ohm	Rwe-ce/Ohm		Ewe-Ece/V
100004	1.1601	0.465212	1.2499	-21.8513	1.72556	0.264301	-0.0267224	3.421	0.47392	1	9	0.00481735	0.00385418	0	-5.33333e-06	-0.000119398	4.49104e-05	109.441	0.0116524	-0.00387826	-0.010988	-21.4475	1.24224	1.15622	0.454224	0.742581	0.297783	0.800064	21.8513	473.92	1181.81	1273.29	-68.1487	0.0000000E+000	0.0000000E+000	0.0000000E+000	68.1487	0.0000000E+000	0.0000000E+000	0.0000000E+000	-68.1487	0.0000000E+000	0.0000000E+000	0.0000000E+000	-21.8513	0.0000000E+000	0.0000000E+000	0.0000000E+000	21.8513	2.4937	68.1487	-5.33333e-06	-7.06277e-06	3.1906e-09	-7.06596e-06	0.264421	9890.61	4.46807	9895.08
68132	1.29697	0.516791	1.39614	-21.7253	2.23254	0.264299	-0.017338	4.52016	0.619333	1	9	0.00509769	0.00365127	0	-2.52061e-05	-0.00031031	4.49834e-05	44.8491	0.0123199	0.00873442	-0.00868852	-21.263	1.40108	1.30571	0.508102	0.665384	0.265128	0.71626	21.7253	619.334	1554.32	1673.17	-68.2747	0.0000000E+000	0.0000000E+000	0.0000000E+000	68.2747	0.0000000E+000	0.0000000E+000	0.0000000E+000	-68.2747	0.0000000E+000	0.0000000E+000	0.0000000E+000	-21.7253	0.0000000E+000	0.0000000E+000	0.0000000E+000	21.7253	2.50967	68.2747	-1.98728e-05	-4.58241e-06	5.38016e-09	-4.58779e-06	0.264609	15243.9	17.8977	15261.8
46420.4	1.43568	0.570417	1.54485	-21.6686	2.73955	0.2643	-0.0273183	6.01062	0.819465	1	9	0.00507682	0.00328628	0	-2.51691e-05	3.3332e-05	1.61817e-05	92.4059	0.00492402	-0.000206699	-0.00491968	-21.5016	1.54285	1.43548	0.565497	0.601569	0.239012	0.647311	21.6686	819.465	2062.52	2219.35	-68.3314	0.0000000E+000	0.0000000E+000	0.0000000E+000	68.3314	0.0000000E+000	0.0000000E+000	0.0000000E+000	-68.3314	0.0000000E+000	0.0000000E+000	0.0000000E+000	-21.6686	0.0000000E+000	0.0000000E+000	0.0000000E+000	21.6686	2.5169	68.3314	3.6954e-08	-7.22023e-06	-9.10572e-10	-7.21932e-06	0.264267	9674.85	1.22013	9673.63
31621.1	1.57498	0.625288	1.69456	-21.6538	3.24652	0.264272	-0.0298506	8.04938	1.096	1	9	0.00504543	0.00297743	0	-4.39744e-05	-2.39417e-05	1.12354e-05	23.9439	0.00377352	0.00344879	-0.00153145	-21.5628	1.6972	1.57842	0.623757	0.548479	0.217754	0.590124	21.6538	1096	2760.59	2970.2	-68.3462	0.0000000E+000	0.0000000E+000	0.0000000E+000	68.3462	0.0000000E+000	0.0000000E+000	0.0000000E+000	-68.3462	0.0000000E+000	0.0000000E+000	0.0000000E+000	-21.6538	0.0000000E+000	0.0000000E+000	0.0000000E+000	21.6538	2.5188	68.3462	-1.88053e-05	-7.88869e-06	7.14674e-10	-7.88941e-06	0.264296	8853.17	0.802051	8853.97
21544.7	1.73192	0.672254	1.85782	-21.2139	3.63156	0.264269	-0.0244881	10.9887	1.43882	1	9	0.00518736	0.00279218	0	-4.04467e-05	3.3332e-05	1.17302e-05	-58.4499	0.00420107	0.00219819	0.00358008	-21.2922	1.86116	1.73412	0.675834	0.501791	0.194772	0.538266	21.2139	1438.82	3706.83	3976.28	-68.7861	0.0000000E+000	0.0000000E+000	0.0000000E+000	68.7861	0.0000000E+000	0.0000000E+000	0.0000000E+000	-68.7861	0.0000000E+000	0.0000000E+000	0.0000000E+000	-21.2139	0.0000000E+000	0.0000000E+000	0.0000000E+000	21.2139	2.5763	68.7861	3.52769e-06	-6.47143e-06	-8.16235e-10	-6.47062e-06	0.264235	10791.7	1.36115	10790.4
14678.6	1.88202	0.732302	2.01947	-21.2612	3.89255	0.264257	-0.0346918	14.8063	1.94693	1	9	0.00467987	0.00231737	0	-4.40318e-05	-8.12153e-05	4.86406e-06	-69.531	0.00209896	0.000734005	0.00196643	-21.3056	2.02087	1.88276	0.734269	0.461475	0.179562	0.495178	21.2612	1946.93	5003.62	5369.05	-68.7388	0.0000000E+000	0.0000000E+000	0.0000000E+000	68.7388	0.0000000E+000	0.0000000E+000	0.0000000E+000	-68.7388	0.0000000E+000	0.0000000E+000	0.0000000E+000	-21.2612	0.0000000E+000	0.0000000E+000	0.0000000E+000	21.2612	2.57001	68.7388	-3.58504e-06	-9.16756e-06	2.81751e-09	-9.17038e-06	0.264339	7617.29	2.34105	7619.63
10002.2	2.0576	0.791042	2.20442	-21.0292	4.27554	0.264266	-0.0218068	20.1152	2.59021	1	9	0.00503656	0.00228475	0	-4.62255e-05	9.06056e-05	5.22022e-06	-117.942	0.00228481	-0.00107063	0.00201844	-21.0882	2.20415	2.05653	0.79306	0.423421	0.162784	0.453634	21.0292	2590.21	6737.46	7218.21	-68.9708	0.0000000E+000	0.0000000E+000	0.0000000E+000	68.9708	0.0000000E+000	0.0000000E+000	0.0000000E+000	-68.9708	0.0000000E+000	0.0000000E+000	0.0000000E+000	-21.0292	0.0000000E+000	0.0000000E+000	0.0000000E+000	21.0292	2.60113	68.9708	-2.19378e-06	-5.7628e-06	-1.97582e-09	-5.76083e-06	0.264175	12118.5	4.15492	12114.3
6810.42	2.22692	0.908327	2.40504	-22.1898	4.53455	0.264264	-0.0369634	25.7279	3.6698	1	9	0.00479812	0.00199502	0	-4.89728e-05	0.000357883	8.8494e-05	80.4837	0.0443574	0.00733355	-0.043747	-21.1547	2.3957	2.23426	0.864581	0.384998	0.157035	0.415793	22.1898	3669.8	8997.15	9716.79	-67.8102	0.0000000E+000	0.0000000E+000	0.0000000E+000	67.8102	0.0000000E+000	0.0000000E+000	0.0000000E+000	-67.8102	0.0000000E+000	0.0000000E+000	0.0000000E+000	-22.1898	0.0000000E+000	0.0000000E+000	0.0000000E+000	22.1898	2.45167	67.8102	-2.74726e-06	-9.76811e-06	-1.32286e-08	-9.75488e-06	0.263906	7149.34	9.68207	7139.65
4646	2.43367	0.982749	2.6246	-21.9895	4.80059	0.264241	-0.0446348	34.8577	4.88715	1	9	0.00468683	0.00178573	0	-5.24886e-05	1.42407e-05	1.66122e-06	-20.893	0.000930275	0.000869108	0.000331758	-21.9891	2.62553	2.43454	0.983081	0.353292	0.142664	0.38101	21.9895	4887.15	12102.5	13052	-68.0105	0.0000000E+000	0.0000000E+000	0.0000000E+000	68.0105	0.0000000E+000	0.0000000E+000	0.0000000E+000	-68.0105	0.0000000E+000	0.0000000E+000	0.0000000E+000	-21.9895	0.0000000E+000	0.0000000E+000	0.0000000E+000	21.9895	2.47639	68.0105	-3.51583e-06	-1.17944e-05	-6.35633e-10	-1.17937e-05	0.264227	5920.07	0.31905	5919.75
3163.08	2.65226	1.11235	2.87607	-22.7531	5.17362	0.264062	-0.0945734	45.2343	6.76632	1	9	0.00460974	0.00160279	0	-6.00683e-05	0.000205153	9.26537e-06	-111.876	0.00578078	-0.00215393	0.00536451	-22.8682	2.87617	2.6501	1.11772	0.320639	0.134475	0.347696	22.7531	6766.32	16133.4	17494.8	-67.2469	0.0000000E+000	0.0000000E+000	0.0000000E+000	67.2469	0.0000000E+000	0.0000000E+000	0.0000000E+000	-67.2469	0.0000000E+000	0.0000000E+000	0.0000000E+000	-22.7531	0.0000000E+000	0.0000000E+000	0.0000000E+000	22.7531	2.38437	67.2469	-7.57969e-06	-2.49732e-05	-1.9402e-08	-2.49538e-05	0.263856	2792.13	2.16924	2789.96
2155.69	2.92697	1.27862	3.19406	-23.5976	5.62579	0.264235	0.0192314	57.7422	9.25311	1	9	0.0045563	0.00142649	0	-5.79087e-05	9.06056e-05	1.93668e-05	-78.7956	0.0135765	0.00263806	0.0133177	-23.7971	3.20183	2.92961	1.29193	0.286901	0.12533	0.313081	23.5976	9253.11	21182	23114.8	-66.4024	0.0000000E+000	0.0000000E+000	0.0000000E+000	66.4024	0.0000000E+000	0.0000000E+000	0.0000000E+000	-66.4024	0.0000000E+000	0.0000000E+000	0.0000000E+000	-23.5976	0.0000000E+000	0.0000000E+000	0.0000000E+000	23.5976	2.28917	66.4024	2.15965e-06	5.08161e-06	1.74248e-09	5.07987e-06	0.264144	13739.7	4.71133	13735
1468.59	3.14682	1.44962	3.46466	-24.7338	6.3231	0.264222	-0.0238915	74.7592	13.0874	1	10	0.00466106	0.00134532	0	-5.94377e-05	0.00016697	2.09821e-05	-124.318	0.0155964	-0.00879295	0.0128815	-24.9883	3.4621	3.13803	1.4625	0.26215	0.120763	0.288629	24.7338	13087.4	28409.9	31279.4	-65.2662	0.0000000E+000	0.0000000E+000	0.0000000E+000	65.2662	0.0000000E+000	0.0000000E+000	0.0000000E+000	-65.2662	0.0000000E+000	0.0000000E+000	0.0000000E+000	-24.7338	0.0000000E+000	0.0000000E+000	0.0000000E+000	24.7338	2.17079	65.2662	-1.529e-06	-6.31267e-06	-3.98918e-09	-6.30868e-06	0.264055	11059.2	6.98869	11052.3
1000.32	3.45471	1.70912	3.85436	-26.3225	6.77385	0.264199	-0.0257607	93.0914	18.3041	1	10	0.0046207	0.00119882	0	-6.34661e-05	0.000186062	5.06156e-06	76.5269	0.00422211	0.000983706	-0.00410591	-26.2613	3.85343	3.4557	1.70501	0.232545	0.115045	0.259446	26.3225	18304.1	36998.8	41278.9	-63.6775	0.0000000E+000	0.0000000E+000	0.0000000E+000	63.6775	0.0000000E+000	0.0000000E+000	0.0000000E+000	-63.6775	0.0000000E+000	0.0000000E+000	0.0000000E+000	-26.3225	0.0000000E+000	0.0000000E+000	0.0000000E+000	26.3225	2.02134	63.6775	-4.02845e-06	-6.80593e-06	-4.79307e-09	-6.80114e-06	0.264013	10255.9	7.2227	10248.7
681.09	3.78384	2.02988	4.29393	-28.2118	7.22455	0.264202	-0.0239288	115.118	25.7262	1	10	0.00457043	0.00106439	0	-6.58617e-05	-4.85048e-06	1.28742e-05	42.8631	0.0120954	0.00886569	-0.00822786	-28.0593	4.29787	3.7927	2.02166	0.205221	0.110093	0.232887	28.2118	25726.2	47955.4	54420.2	-61.7882	0.0000000E+000	0.0000000E+000	0.0000000E+000	61.7882	0.0000000E+000	0.0000000E+000	0.0000000E+000	-61.7882	0.0000000E+000	0.0000000E+000	0.0000000E+000	-28.2118	0.0000000E+000	0.0000000E+000	0.0000000E+000	28.2118	1.86407	61.7882	-2.39555e-06	-6.32203e-06	1.16066e-10	-6.32215e-06	0.264207	11041.2	0.202705	11041.4
463.961	4.21137	2.46401	4.87924	-30.3312	7.67628	0.264206	-0.024666	139.218	35.504	1	10	0.00455166	0.000932862	0	-6.91691e-05	9.06056e-05	1.34386e-05	62.3155	0.0144058	0.00669298	-0.0127566	-30.1622	4.87859	4.21806	2.45125	0.176897	0.103499	0.20495	30.3312	35504	60681.8	70305.1	-59.6688	0.0000000E+000	0.0000000E+000	0.0000000E+000	59.6688	0.0000000E+000	0.0000000E+000	0.0000000E+000	-59.6688	0.0000000E+000	0.0000000E+000	0.0000000E+000	-30.3312	0.0000000E+000	0.0000000E+000	0.0000000E+000	30.3312	1.70915	59.6688	-3.30742e-06	-6.51691e-06	-2.23488e-09	-6.51467e-06	0.264115	10711.3	3.6733	10707.7
316.316	4.74938	3.00265	5.61895	-32.3019	8.12401	0.264205	-0.0265538	167.569	47.8514	1	10	0.00452833	0.000805903	0	-7.19512e-05	-0.000233945	6.5075e-06	-17.4163	0.00807479	0.00770461	0.00241689	-32.2808	5.62675	4.75709	3.00507	0.150427	0.0951032	0.177969	32.3019	47851.4	75687.9	89545.6	-57.6981	0.0000000E+000	0.0000000E+000	0.0000000E+000	57.6981	0.0000000E+000	0.0000000E+000	0.0000000E+000	-57.6981	0.0000000E+000	0.0000000E+000	0.0000000E+000	-32.3019	0.0000000E+000	0.0000000E+000	0.0000000E+000	32.3019	1.58173	57.6981	-2.78211e-06	-7.01564e-06	6.21213e-09	-7.02185e-06	0.264439	9949.81	8.81024	9958.62
215.345	5.51465	3.64997	6.61314	-33.4993	8.5736	0.264211	-0.0232548	202.487	61.6822	1	10	0.0045213	0.000683685	0	-7.54511e-05	-0.000119398	1.08643e-05	-113.054	0.0158907	-0.00622285	0.0146216	-33.6346	6.61604	5.50842	3.66459	0.126096	0.0834591	0.151214	33.4993	61682.2	93194.2	111758	-56.5007	0.0000000E+000	0.0000000E+000	0.0000000E+000	56.5007	0.0000000E+000	0.0000000E+000	0.0000000E+000	-56.5007	0.0000000E+000	0.0000000E+000	0.0000000E+000	-33.4993	0.0000000E+000	0.0000000E+000	0.0000000E+000	33.4993	1.51088	56.5007	-3.49992e-06	-6.14419e-06	2.77658e-09	-6.14696e-06	0.26433	11361.5	5.13432	11366.7
146.737	6.53032	4.33529	7.83836	-33.579	9.02052	0.264204	-0.0240703	250.185	76.5328	1	10	0.00450748	0.000575054	0	-7.91594e-05	-0.000176671	9.52073e-06	-62.1584	0.0165562	0.00773224	0.0146397	-33.6368	7.8529	6.53805	4.34993	0.106288	0.0705616	0.127578	33.579	76532.8	115283	138374	-56.421	0.0000000E+000	0.0000000E+000	0.0000000E+000	56.421	0.0000000E+000	0.0000000E+000	0.0000000E+000	-56.421	0.0000000E+000	0.0000000E+000	0.0000000E+000	-33.579	0.0000000E+000	0.0000000E+000	0.0000000E+000	33.579	1.50632	56.421	-3.70832e-06	-6.35947e-06	4.25253e-09	-6.36372e-06	0.264381	10976.4	7.33982	10983.7
100.032	7.82414	4.93082	9.24825	-32.2193	9.4718	0.264203	-0.0252841	322.673	91.7235	1	10	0.00451203	0.000487879	0	-8.14757e-05	-2.39417e-05	8.66622e-06	9.73983	0.0177631	0.017507	-0.00300506	-32.1459	9.26147	7.84165	4.92781	0.0914782	0.05765	0.108129	32.2193	91723.5	145545	172037	-57.7807	0.0000000E+000	0.0000000E+000	0.0000000E+000	57.7807	0.0000000E+000	0.0000000E+000	0.0000000E+000	-57.7807	0.0000000E+000	0.0000000E+000	0.0000000E+000	-32.2193	0.0000000E+000	0.0000000E+000	0.0000000E+000	32.2193	1.58678	57.7807	-2.31623e-06	-6.68014e-06	6.05344e-10	-6.68075e-06	0.264227	10449.4	0.946907	10450.3
68.104	9.36761	5.30054	10.7633	-29.5028	9.93441	0.264203	-0.0209538	440.887	106.925	1	10	0.00450685	0.000418725	0	-8.37533e-05	0.000224244	1.4584e-05	32.0325	0.0348296	0.0295267	-0.0184736	-29.3401	10.7799	9.39713	5.28207	0.0808613	0.0457544	0.0929086	29.5028	106925	188968	217122	-60.4972	0.0000000E+000	0.0000000E+000	0.0000000E+000	60.4972	0.0000000E+000	0.0000000E+000	0.0000000E+000	-60.4972	0.0000000E+000	0.0000000E+000	0.0000000E+000	-29.5028	0.0000000E+000	0.0000000E+000	0.0000000E+000	29.5028	1.76729	60.4972	-2.27765e-06	-5.53605e-06	-4.69876e-09	-5.53136e-06	0.263979	12608.9	10.7018	12598.1
46.4415	11.017	5.43059	12.2828	-26.2399	10.3707	0.264203	-0.0281474	631.053	123.358	1	10	0.00451013	0.000367192	0	-8.7067e-05	0.000205153	1.14928e-05	18.2719	0.0312993	0.0297211	-0.00981318	-26.1377	12.3051	11.0468	5.42078	0.0730251	0.035996	0.0814148	26.2399	123358	250256	279008	-63.7601	0.0000000E+000	0.0000000E+000	0.0000000E+000	63.7601	0.0000000E+000	0.0000000E+000	0.0000000E+000	-63.7601	0.0000000E+000	0.0000000E+000	0.0000000E+000	-26.2399	0.0000000E+000	0.0000000E+000	0.0000000E+000	26.2399	2.0287	63.7601	-3.31363e-06	-7.43662e-06	-5.77452e-09	-7.43085e-06	0.263998	9386.39	7.28852	9379.11
31.6296	12.6029	5.21841	13.6406	-22.4926	10.7996	0.264189	-0.0292533	964.249	141.123	1	10	0.00450433	0.000330215	0	-9.04979e-05	0.00016697	9.18083e-06	-102.252	0.0278026	-0.00590019	0.0271693	-22.6075	13.6456	12.597	5.24558	0.0677338	0.028046	0.0733106	22.4926	141123	340826	368887	-67.5074	0.0000000E+000	0.0000000E+000	0.0000000E+000	67.5074	0.0000000E+000	0.0000000E+000	0.0000000E+000	-67.5074	0.0000000E+000	0.0000000E+000	0.0000000E+000	-22.4926	0.0000000E+000	0.0000000E+000	0.0000000E+000	22.4926	2.41509	67.5074	-3.43092e-06	-7.7284e-06	-4.88443e-09	-7.72352e-06	0.264022	9031.11	5.70775	9025.4
21.5517	14.0046	4.95094	14.854	-19.4696	11.2215	0.264187	-0.0299682	1491.59	165.706	1	10	0.00450368	0.000303196	0	-9.37121e-05	0.000205153	8.27313e-06	25.1017	0.0272864	0.0247094	-0.0115756	-19.3958	14.8735	14.0294	4.93937	0.0634723	0.0224388	0.0673218	19.4696	165706	468729	497158	-70.5304	0.0000000E+000	0.0000000E+000	0.0000000E+000	70.5304	0.0000000E+000	0.0000000E+000	0.0000000E+000	-70.5304	0.0000000E+000	0.0000000E+000	0.0000000E+000	-19.4696	0.0000000E+000	0.0000000E+000	0.0000000E+000	19.4696	2.82868	70.5304	-3.21427e-06	-7.91719e-06	-6.14806e-09	-7.91104e-06	0.263981	8815.57	6.84569	8808.73
14.6852	15.2762	4.48612	15.9213	-16.3658	11.9312	0.264228	-0.0123862	2415.86	191.804	1	11	0.00450811	0.000283151	0	-9.37048e-05	-0.000233945	1.04314e-05	-29.508	0.0368405	0.0320618	0.0181456	-16.3959	15.9571	15.3082	4.50426	0.0602642	0.0176977	0.0628091	16.3658	191804	653132	680713	-73.6342	0.0000000E+000	0.0000000E+000	0.0000000E+000	73.6342	0.0000000E+000	0.0000000E+000	0.0000000E+000	-73.6342	0.0000000E+000	0.0000000E+000	0.0000000E+000	-16.3658	0.0000000E+000	0.0000000E+000	0.0000000E+000	16.3658	3.40521	73.6342	7.30935e-09	-3.27278e-06	2.89769e-09	-3.27568e-06	0.264462	21332.5	18.8876	21351.4
10.0032	16.3404	4.02042	16.8277	-13.8226	12.3818	0.264239	-0.0116334	3957.39	225.893	1	11	0.0045044	0.000267678	0	-9.72579e-05	0.000109697	9.52019e-06	62.0071	0.0355659	0.0166933	-0.0314049	-13.7053	16.8365	16.3571	3.98902	0.0577048	0.0141978	0.0594258	13.8226	225893	918107	945488	-76.1774	0.0000000E+000	0.0000000E+000	0.0000000E+000	76.1774	0.0000000E+000	0.0000000E+000	0.0000000E+000	-76.1774	0.0000000E+000	0.0000000E+000	0.0000000E+000	-13.8226	0.0000000E+000	0.0000000E+000	0.0000000E+000	13.8226	4.06434	76.1774	-3.55302e-06	-3.07398e-06	-1.27614e-09	-3.0727e-06	0.264129	22713.9	9.42951	22704.4
6.81719	17.2982	3.56057	17.6608	-11.631	12.7215	0.264233	-0.0125969	6556.85	266.509	1	11	0.00451106	0.000255427	0	-9.6813e-05	5.24232e-05	6.92809e-06	49.6989	0.0271235	0.0175436	-0.0206859	-11.5539	17.6739	17.3157	3.53988	0.0554598	0.0114155	0.0566224	11.631	266509	1.29477e+06	1.32191e+06	-78.369	0.0000000E+000	0.0000000E+000	0.0000000E+000	78.369	0.0000000E+000	0.0000000E+000	0.0000000E+000	-78.369	0.0000000E+000	0.0000000E+000	0.0000000E+000	-11.631	0.0000000E+000	0.0000000E+000	0.0000000E+000	11.631	4.85827	78.369	4.44806e-07	-3.32852e-06	-6.6037e-10	-3.32786e-06	0.264181	20976	4.16159	20971.8
4.63925	18.0406	3.12779	18.3097	-9.8359	13.2065	0.26424	-0.0111251	10968.2	320.072	1	11	0.00450209	0.000245886	0	-9.68662e-05	-0.000253036	4.14775e-06	-15.3759	0.0168686	0.0162648	0.00447271	-9.84099	18.3265	18.0568	3.13226	0.0538131	0.00932987	0.0546159	9.8359	320072	1.84612e+06	1.87366e+06	-80.1641	0.0000000E+000	0.0000000E+000	0.0000000E+000	80.1641	0.0000000E+000	0.0000000E+000	0.0000000E+000	-80.1641	0.0000000E+000	0.0000000E+000	0.0000000E+000	-9.8359	0.0000000E+000	0.0000000E+000	0.0000000E+000	9.8359	5.76783	80.1641	-5.31894e-08	-2.93971e-06	2.81506e-09	-2.94252e-06	0.264493	23751.6	22.7446	23774.4
3.1604	18.7266	2.77479	18.9311	-8.4284	13.8995	0.26424	-0.0108949	18148.8	389.905	1	11	0.0045065	0.000238048	0	-0.000101522	3.3332e-05	8.41368e-06	84.6493	0.0353445	0.00329593	-0.0351905	-8.32157	18.9292	18.7299	2.7396	0.0522528	0.00774248	0.0528233	8.4284	389905	2.63141e+06	2.66014e+06	-81.5716	0.0000000E+000	0.0000000E+000	0.0000000E+000	81.5716	0.0000000E+000	0.0000000E+000	0.0000000E+000	-81.5716	0.0000000E+000	0.0000000E+000	0.0000000E+000	-8.4284	0.0000000E+000	0.0000000E+000	0.0000000E+000	8.4284	6.74884	81.5716	-4.65612e-06	-2.87885e-06	-3.63147e-10	-2.87849e-06	0.264206	24253.6	3.05942	24250.6
2.15577	19.2883	2.38816	19.4355	-7.0581	14.9031	0.264237	-0.0102923	30914	466.754	1	11	0.00450619	0.000231853	0	-0.000108114	-0.00015758	6.28092e-06	-53.8275	0.0270901	0.0159891	0.0218683	-7.11623	19.4541	19.3043	2.41003	0.0510622	0.00632222	0.0514521	7.0581	466753	3.7698e+06	3.79858e+06	-82.9419	0.0000000E+000	0.0000000E+000	0.0000000E+000	82.9419	0.0000000E+000	0.0000000E+000	0.0000000E+000	-82.9419	0.0000000E+000	0.0000000E+000	0.0000000E+000	-7.0581	0.0000000E+000	0.0000000E+000	0.0000000E+000	7.0581	8.07663	82.9419	-6.59151e-06	-2.71962e-06	1.62187e-09	-2.72124e-06	0.264395	25673.2	15.3104	25688.5
1.46631	19.7598	2.1244	19.8737	-6.13635	16.3646	0.264247	-0.0101147	51092.7	583.811	1	11	0.00450277	0.000226569	0	-0.000112851	-0.000176671	3.77484e-06	69.2817	0.0166609	0.00589418	-0.0155834	-6.08987	19.8779	19.7657	2.10881	0.0500294	0.00537871	0.0503177	6.13635	583810	5.43025e+06	5.46154e+06	-83.8637	0.0000000E+000	0.0000000E+000	0.0000000E+000	83.8637	0.0000000E+000	0.0000000E+000	0.0000000E+000	-83.8637	0.0000000E+000	0.0000000E+000	0.0000000E+000	-6.13635	0.0000000E+000	0.0000000E+000	0.0000000E+000	6.13635	9.30139	83.8637	-4.73673e-06	-2.67279e-06	1.78698e-09	-2.67457e-06	0.264424	26125	17.4668	26142.5
1.00006	20.1322	1.92333	20.2239	-5.45718	19.54	0.264241	-0.0095131	82744.5	748.371	1	12	0.00450914	0.000222961	0	-0.000115655	-0.000119398	3.28897e-06	73.7364	0.0147513	0.0041312	-0.014161	-5.41614	20.2266	20.1363	1.90917	0.0492224	0.00470245	0.0494465	5.45718	748371	7.83349e+06	7.86915e+06	-84.5428	0.0000000E+000	0.0000000E+000	0.0000000E+000	84.5428	0.0000000E+000	0.0000000E+000	0.0000000E+000	-84.5428	0.0000000E+000	0.0000000E+000	0.0000000E+000	-5.45718	0.0000000E+000	0.0000000E+000	0.0000000E+000	5.45718	10.4674	84.5428	-2.80398e-06	-2.51375e-06	1.13584e-09	-2.51488e-06	0.26436	27776.5	12.5509	27789.1
0.681362	20.4206	1.79585	20.4994	-5.02585	22.6521	0.26425	-0.00854038	130068	998.229	1	12	0.00450458	0.000219742	0	-0.000113504	5.24232e-05	1.56276e-06	-26.0764	0.00711178	0.00638786	0.00312612	-5.03298	20.506	20.427	1.79898	0.0485943	0.00427354	0.0487819	5.02585	998229	1.13508e+07	1.13946e+07	-84.9742	0.0000000E+000	0.0000000E+000	0.0000000E+000	84.9742	0.0000000E+000	0.0000000E+000	0.0000000E+000	-84.9742	0.0000000E+000	0.0000000E+000	0.0000000E+000	-5.02585	0.0000000E+000	0.0000000E+000	0.0000000E+000	5.02585	11.371	84.9742	2.15098e-06	-2.25679e-06	-4.47714e-10	-2.25634e-06	0.264197	30941.2	6.13827	30935.1
0.464091	20.7135	1.77502	20.7894	-4.89794	27.2087	0.264242	-0.00707234	193203	1408.43	1	12	0.00450335	0.000216618	0	-0.000114612	-0.000138489	4.0471e-06	-97.9952	0.0186831	-0.00259865	0.0185015	-4.94936	20.7884	20.7109	1.79352	0.0479258	0.00410695	0.0481014	4.89794	1.40844e+06	1.64356e+07	1.64959e+07	-85.1021	0.0000000E+000	0.0000000E+000	0.0000000E+000	85.1021	0.0000000E+000	0.0000000E+000	0.0000000E+000	-85.1021	0.0000000E+000	0.0000000E+000	0.0000000E+000	-4.89794	0.0000000E+000	0.0000000E+000	0.0000000E+000	4.89794	11.6694	85.1021	-1.10808e-06	-1.86881e-06	9.79441e-10	-1.86979e-06	0.26438	37362.7	19.5818	37382.3
0.316193	20.9837	1.88259	21.068	-5.12667	33.8838	0.264243	-0.0052146	267369	2134.9	1	12	0.00450493	0.000213828	0	-0.000126997	0.000186062	1.60435e-06	-9.00635	0.007503	0.00741049	0.00117455	-5.12805	21.0755	20.9911	1.88377	0.0472755	0.00424141	0.0474654	5.12667	2.1349e+06	2.3796e+07	2.38916e+07	-84.8733	0.0000000E+000	0.0000000E+000	0.0000000E+000	84.8733	0.0000000E+000	0.0000000E+000	0.0000000E+000	-84.8733	0.0000000E+000	0.0000000E+000	0.0000000E+000	-5.12667	0.0000000E+000	0.0000000E+000	0.0000000E+000	5.12667	11.1462	84.8733	-1.23851e-05	-1.37792e-06	-9.70236e-10	-1.37695e-06	0.264057	50673.7	35.6809	50638
0.215268	21.2483	2.14068	21.3559	-5.75288	43.6763	0.264239	-0.0038216	345374	3470.21	1	12	0.00450758	0.00021107	0	-0.000158543	-8.12153e-05	3.22523e-06	4.84187	0.0152804	0.0152259	-0.00128976	-5.74535	21.3709	21.2636	2.13939	0.0465896	0.0046937	0.0468255	5.75288	3.47021e+06	3.44453e+07	3.46197e+07	-84.2471	0.0000000E+000	0.0000000E+000	0.0000000E+000	84.2471	0.0000000E+000	0.0000000E+000	0.0000000E+000	-84.2471	0.0000000E+000	0.0000000E+000	0.0000000E+000	-5.75288	0.0000000E+000	0.0000000E+000	0.0000000E+000	5.75288	9.926	84.2471	-3.15459e-05	-1.00982e-06	3.10373e-10	-1.01013e-06	0.264321	69143.6	21.2517	69164.9
0.146929	21.5576	2.5281	21.7053	-6.68863	58.0136	0.264235	-0.00332888	428469	5812.65	1	12	0.00450797	0.00020769	0	-0.00021228	-0.00015758	2.69958e-06	10.3822	0.0129982	0.0127853	-0.00234245	-6.67856	21.7178	21.5704	2.52576	0.045758	0.00536613	0.0460716	6.68863	5.81265e+06	4.95656e+07	4.99053e+07	-83.3114	0.0000000E+000	0.0000000E+000	0.0000000E+000	83.3114	0.0000000E+000	0.0000000E+000	0.0000000E+000	-83.3114	0.0000000E+000	0.0000000E+000	0.0000000E+000	-6.68863	0.0000000E+000	0.0000000E+000	0.0000000E+000	6.68863	8.5272	83.3114	-5.37372e-05	-8.79607e-07	5.24566e-10	-8.80132e-07	0.264393	79376.5	47.3373	79423.8
0.0999041	21.9912	3.10599	22.2094	-8.03919	79.0907	0.264237	-0.00347479	512904	10031.4	1	12	0.00450555	0.000202867	0	-0.000278833	-2.39417e-05	2.16069e-06	28.1571	0.0106508	0.00939035	-0.00502602	-8.02297	22.218	22.0005	3.10097	0.0445835	0.0062969	0.045026	8.03919	1.00314e+07	7.10249e+07	7.17298e+07	-81.9608	0.0000000E+000	0.0000000E+000	0.0000000E+000	81.9608	0.0000000E+000	0.0000000E+000	0.0000000E+000	-81.9608	0.0000000E+000	0.0000000E+000	0.0000000E+000	-8.03919	0.0000000E+000	0.0000000E+000	0.0000000E+000	8.03919	7.08023	81.9608	-6.65526e-05	-9.18168e-07	8.31924e-11	-9.18251e-07	0.264261	76043.9	6.89011	76050.7
0.0680626	22.5304	3.97396	22.8782	-10.0031	110.017	0.264242	-0.00332767	588420	17753.8	1	12	0.00450475	0.000196901	0	-0.000336794	-0.000329401	1.26296e-06	6.76798	0.00641417	0.00636947	-0.000755903	-9.99843	22.8843	22.5368	3.97321	0.0430453	0.00759242	0.0437097	10.0031	1.77538e+07	1.00655e+08	1.02209e+08	-79.9969	0.0000000E+000	0.0000000E+000	0.0000000E+000	79.9969	0.0000000E+000	0.0000000E+000	0.0000000E+000	-79.9969	0.0000000E+000	0.0000000E+000	0.0000000E+000	-10.0031	0.0000000E+000	0.0000000E+000	0.0000000E+000	10.0031	5.66951	79.9969	-5.79619e-05	-8.79307e-07	1.09614e-09	-8.80403e-07	0.264571	79407.5	98.9887	79506.5
0.0464052	23.1231	5.17324	23.6948	-12.6109	155.368	0.26424	-0.00315165	662966	31601.7	1	12	0.00450726	0.000190222	0	-0.000341466	-0.000176671	2.35194e-06	25.2132	0.0123642	0.0111862	-0.00526699	-12.5925	23.7045	23.1343	5.16797	0.0411853	0.00921419	0.0422034	12.6109	3.16017e+07	1.41252e+08	1.44744e+08	-77.3891	0.0000000E+000	0.0000000E+000	0.0000000E+000	77.3891	0.0000000E+000	0.0000000E+000	0.0000000E+000	-77.3891	0.0000000E+000	0.0000000E+000	0.0000000E+000	-12.6109	0.0000000E+000	0.0000000E+000	0.0000000E+000	12.6109	4.46976	77.3891	-4.67102e-06	-8.32792e-07	5.56806e-10	-8.33348e-07	0.264417	83841.9	56.0569	83898
0.0315922	23.7634	6.62047	24.6684	-15.5678	221.974	0.26424	-0.00200109	760942	54808.4	1	12	0.00450321	0.00018255	0	-0.000240365	-4.30329e-05	1.9889e-06	-18.138	0.0108951	0.0103538	0.00339172	-15.5689	24.6793	23.7738	6.62386	0.0390505	0.0108795	0.0405377	15.5678	5.48084e+07	1.96728e+08	2.0422e+08	-74.4322	0.0000000E+000	0.0000000E+000	0.0000000E+000	74.4322	0.0000000E+000	0.0000000E+000	0.0000000E+000	-74.4322	0.0000000E+000	0.0000000E+000	0.0000000E+000	-15.5678	0.0000000E+000	0.0000000E+000	0.0000000E+000	15.5678	3.58938	74.4322	0.0001011	-5.28769e-07	8.61127e-11	-5.28855e-07	0.264283	132048	21.5047	132070
0.0215268	24.7692	8.46837	26.1768	-18.8751	319.713	0.264241	-0.00079813	873054	91370.9	1	12	0.00450756	0.000172197	0	-3.64739e-05	7.15144e-05	1.51033e-06	-3.33995	0.00877097	0.00875607	0.000510997	-18.87	26.1852	24.7779	8.46888	0.0361475	0.0123585	0.0382018	18.8751	9.13709e+07	2.67251e+08	2.82439e+08	-71.1249	0.0000000E+000	0.0000000E+000	0.0000000E+000	71.1249	0.0000000E+000	0.0000000E+000	0.0000000E+000	-71.1249	0.0000000E+000	0.0000000E+000	0.0000000E+000	-18.8751	0.0000000E+000	0.0000000E+000	0.0000000E+000	18.8751	2.9249	71.1249	0.000203892	-2.10899e-07	-5.70778e-11	-2.10842e-07	0.26417	331076	89.6025	330986
0.0146812	26.2178	11.2104	28.5139	-23.151	463.015	0.264237	9.92802e-05	967026	149474	1	12	0.00450697	0.000158062	0	0.000166035	-4.85048e-06	2.56239e-06	-37.179	0.0162113	0.0129164	0.00979662	-23.1589	28.5297	26.2307	11.2202	0.0322464	0.0137882	0.0350706	23.151	1.49474e+08	3.49575e+08	3.80191e+08	-66.849	0.0000000E+000	0.0000000E+000	0.0000000E+000	66.849	0.0000000E+000	0.0000000E+000	0.0000000E+000	-66.849	0.0000000E+000	0.0000000E+000	0.0000000E+000	-23.151	0.0000000E+000	0.0000000E+000	0.0000000E+000	23.151	2.3387	66.849	0.000202509	2.62335e-08	-4.81557e-13	2.6234e-08	0.264242	2.66153e+06	48.8564	2.66158e+06
0.0100092	27.829	15.0258	31.6264	-28.366	673.197	0.264231	0.000329789	1.05824e+06	238869	1	12	0.00450612	0.00014248	0	0.000163028	-2.39417e-05	1.24321e-06	2.78902	0.00872553	0.0087152	-0.00042457	-28.3578	31.6339	27.8377	15.0253	0.0278227	0.0150223	0.0316192	28.366	2.38869e+08	4.42406e+08	5.02774e+08	-61.634	0.0000000E+000	0.0000000E+000	0.0000000E+000	61.634	0.0000000E+000	0.0000000E+000	0.0000000E+000	-61.634	0.0000000E+000	0.0000000E+000	0.0000000E+000	-28.366	0.0000000E+000	0.0000000E+000	0.0000000E+000	28.366	1.85209	61.634	-3.00665e-06	8.71407e-08	-7.89571e-12	8.71486e-08	0.264255	801213	72.5969	801286