File: txt/19148_R306_UA711_SOC00_C04.mpt
EC-Lab ASCII FILE
Nb header lines : 65

Potentio Electrochemical Impedance Spectroscopy

Run on channel : 4 (SN 66756)
Grouped channel(s) : 3, 4, 5, 6, 7
User :
CE vs. WE compliance from -10 V to 10 V
Electrode connection : standard
Potential control : Ewe
Ewe ctrl range : min = -10.00 V, max = 10.00 V
Safety Limits :
	Do not start on E overload
Acquisition started on : 11/12/2025 11:40:22.150
Loaded Setting File :  C:\Users\Celltest\OneDrive - store-dot.com\Documents\EC-Lab\Data\@Biologic Test Protocols\anode half cell EIS SOC00.mps
Saved on :
	File : 19147_R306_UA711_SOC00_C04.mpr
	Directory : C:\Users\Celltest\OneDrive - store-dot.com\Documents\EC-Lab\Data\Charmaine\
	Host : 169.254.61.224
Device : VMP-3e (SN .003165)
Address : USB
EC-LAB for windows v11.62 (software)
Internet server v27.00 (firmware)
Command interpretor v12.03 (firmware)
Electrode material :
Initial state :
Electrolyte :
Comments :
Electrode surface area : 0.001 cm²
Characteristic mass : 0.001 g
Equivalent Weight : 0.000 g/eq.
Density : 0.000 g/cm3
Volume (V) : 0.001 cm³
Record Ece
Cycle Definition : Charge/Discharge alternance
Mode                Single sine
E (V)               0.0000
vs.                 Eoc
tE (h:m:s)          0:00:0.0000
record              0
dI                  0.000
unit dI             mA
dt (s)              0.000
fi                  100.000
unit fi             kHz
ff                  10.000
unit ff             mHz
Nd                  6
Points              per decade
spacing             Logarithmic
Va (mV)             5.0
pw                  0.10
Na                  2
corr                0
E range min (V)     -10.000
E range max (V)     10.000
I Range             Auto
Bandwidth           5
nc cycles           0
goto Ns'            0
nr cycles           0
inc. cycle          0

freq/Hz	Re(Z)/Ohm	-Im(Z)/Ohm	|Z|/Ohm	Phase(Z)/deg	time/s	<Ewe>/V	<I>/mA	Cs/µF	Cp/µF	cycle number	I Range	|Ewe|/V	|I|/A	Ns	(Q-Qo)/mA.h	<Ece>/V	|Ece|/V	Phase(Zce)/deg	|Zce|/Ohm	Re(Zce)/Ohm	-Im(Zce)/Ohm	Phase(Zwe-ce)/deg	|Zwe-ce|/Ohm	Re(Zwe-ce)/Ohm	-Im(Zwe-ce)/Ohm	Re(Y)/Ohm-1	Im(Y)/Ohm-1	|Y|/Ohm-1	Phase(Y)/deg	Re(C)/nF	Im(C)/nF	|C|/nF	Phase(C)/deg	Re(M)	Im(M)	|M|	Phase(M)/deg	Re(Permittivity)	Im(Permittivity)	|Permittivity|	Phase(Permittivity)/deg	Re(Resistivity)/Ohm.cm	Im(Resistivity)/Ohm.cm	|Resistivity|/Ohm.cm	Phase(Resistivity)/deg	Re(Conductivity)/mS/cm	Im(Conductivity)/mS/cm	|Conductivity|/mS/cm	Phase(Conductivity)/deg	Tan(Delta)	Loss Angle(Delta)/deg	dq/mA.h	Pwe/W	Pce/W	Pwe-ce/W	<Ewe-Ece>/V	Rwe/Ohm	Rce/Ohm	Rwe-ce/Ohm		Ewe-Ece/V
100004	1.96746	1.23051	2.32057	-32.0231	1.91154	0.192663	-0.0719691	1.29336	0.363663	1	9	0.00466667	0.002011	0	-1.0162e-05	-0.000125432	3.40825e-05	99.0417	0.016948	-0.00266344	-0.0167374	-31.7061	2.30947	1.96479	1.21377	0.365356	0.228505	0.430929	32.0231	363.663	581.461	685.819	-57.9769	0.0000000E+000	0.0000000E+000	0.0000000E+000	57.9769	0.0000000E+000	0.0000000E+000	0.0000000E+000	-57.9769	0.0000000E+000	0.0000000E+000	0.0000000E+000	-32.0231	0.0000000E+000	0.0000000E+000	0.0000000E+000	32.0231	1.5989	57.9769	-1.0162e-05	-1.38658e-05	9.02721e-09	-1.38748e-05	0.192789	2677.03	1.74285	2678.77
68132	2.31207	1.48057	2.7455	-32.634	2.41854	0.192669	-0.0710367	1.57776	0.458832	1	9	0.00512155	0.00186544	0	-3.12058e-05	6.56679e-05	2.31524e-05	69.3571	0.0124113	0.00437551	-0.0116144	-32.3804	2.74295	2.31645	1.46895	0.306732	0.19642	0.364233	32.634	458.832	716.52	850.839	-57.366	0.0000000E+000	0.0000000E+000	0.0000000E+000	57.366	0.0000000E+000	0.0000000E+000	0.0000000E+000	-57.366	0.0000000E+000	0.0000000E+000	0.0000000E+000	-32.634	0.0000000E+000	0.0000000E+000	0.0000000E+000	32.634	1.56162	57.366	-2.10438e-05	-1.36866e-05	-4.66483e-09	-1.36819e-05	0.192604	2712.25	0.924422	2711.33
46420.4	2.72787	1.75906	3.24585	-32.816	2.92751	0.192707	-0.0622718	1.94908	0.572448	1	9	0.00512711	0.00157959	0	-4.12365e-05	8.47778e-05	1.93297e-05	17.9538	0.0122372	0.0116413	-0.0037721	-32.649	3.25361	2.73951	1.75529	0.25892	0.166964	0.308085	32.816	572.448	887.722	1056.29	-57.184	0.0000000E+000	0.0000000E+000	0.0000000E+000	57.184	0.0000000E+000	0.0000000E+000	0.0000000E+000	-57.184	0.0000000E+000	0.0000000E+000	0.0000000E+000	-32.816	0.0000000E+000	0.0000000E+000	0.0000000E+000	32.816	1.55075	57.1841	-1.00307e-05	-1.20002e-05	-5.27927e-09	-1.19949e-05	0.192622	3094.61	1.36142	3093.24
31621.1	3.23522	1.95671	3.78092	-31.1662	3.31054	0.192665	-0.0702535	2.57227	0.68893	1	9	0.00515497	0.00136342	0	-4.74203e-05	-8.72118e-05	1.62355e-05	3.31762	0.011908	0.011888	-0.000689126	-31.0643	3.79074	3.2471	1.95602	0.226313	0.136878	0.264486	31.1662	688.93	1139.07	1331.21	-58.8338	0.0000000E+000	0.0000000E+000	0.0000000E+000	58.8338	0.0000000E+000	0.0000000E+000	0.0000000E+000	-58.8338	0.0000000E+000	0.0000000E+000	0.0000000E+000	-31.1662	0.0000000E+000	0.0000000E+000	0.0000000E+000	31.1662	1.65339	58.8338	-6.18381e-06	-1.35354e-05	6.12693e-09	-1.35415e-05	0.192752	2742.43	1.24139	2743.67
21544.7	3.7891	2.15244	4.35778	-29.5992	3.69354	0.19269	-0.0707383	3.43202	0.837298	1	9	0.00474838	0.00108963	0	-5.46639e-05	-0.000240091	6.64014e-06	-159.69	0.00609392	-0.00571504	0.00211522	-29.6606	4.35386	3.78338	2.15455	0.199529	0.113344	0.229475	29.5992	837.298	1473.96	1695.18	-60.4008	0.0000000E+000	0.0000000E+000	0.0000000E+000	60.4008	0.0000000E+000	0.0000000E+000	0.0000000E+000	-60.4008	0.0000000E+000	0.0000000E+000	0.0000000E+000	-29.5992	0.0000000E+000	0.0000000E+000	0.0000000E+000	29.5992	1.76038	60.4008	-7.24357e-06	-1.36306e-05	1.69837e-08	-1.36476e-05	0.19293	2723.99	3.39408	2727.38
14678.6	4.39564	2.24334	4.935	-27.0377	4.23152	0.192736	-0.021171	4.83326	0.998748	1	10	0.00450382	0.000912628	0	-6.24251e-05	-0.000469411	1.16434e-05	47.5566	0.0127581	0.00860992	-0.00941474	-26.895	4.93841	4.40425	2.23393	0.180488	0.0921129	0.202634	27.0377	998.748	1956.97	2197.09	-62.9623	0.0000000E+000	0.0000000E+000	0.0000000E+000	62.9623	0.0000000E+000	0.0000000E+000	0.0000000E+000	-62.9623	0.0000000E+000	0.0000000E+000	0.0000000E+000	-27.0377	0.0000000E+000	0.0000000E+000	0.0000000E+000	27.0377	1.95942	62.9623	-7.76118e-06	-4.08041e-06	9.93789e-09	-4.09035e-06	0.193205	9103.78	22.1724	9125.95
10002.2	4.95867	2.32802	5.47796	-25.1493	4.49053	0.19273	-0.0231144	6.83498	1.23445	1	10	0.00475056	0.000867214	0	-6.32814e-05	-0.000106322	1.24528e-05	-93.2822	0.0143595	-0.000822126	0.014336	-25.2886	5.48333	4.95785	2.34235	0.165245	0.0775797	0.18255	25.1493	1234.45	2629.36	2904.72	-64.8507	0.0000000E+000	0.0000000E+000	0.0000000E+000	64.8507	0.0000000E+000	0.0000000E+000	0.0000000E+000	-64.8507	0.0000000E+000	0.0000000E+000	0.0000000E+000	-25.1493	0.0000000E+000	0.0000000E+000	0.0000000E+000	25.1493	2.13	64.8507	-8.56336e-07	-4.45485e-06	2.45756e-09	-4.4573e-06	0.192837	8338.1	4.5998	8342.7
6810.42	5.51687	2.42072	6.02459	-23.6912	4.74953	0.192728	-0.0232301	9.65388	1.5586	1	10	0.00474534	0.000787662	0	-6.43461e-05	-0.000220981	2.72622e-05	-0.0276998	0.0346115	0.0346115	1.67331e-05	-23.5597	6.05631	5.55148	2.42074	0.151998	0.0666944	0.165986	23.6912	1558.6	3552.09	3878.99	-66.3089	0.0000000E+000	0.0000000E+000	0.0000000E+000	66.3089	0.0000000E+000	0.0000000E+000	0.0000000E+000	-66.3089	0.0000000E+000	0.0000000E+000	0.0000000E+000	-23.6912	0.0000000E+000	0.0000000E+000	0.0000000E+000	23.6912	2.27902	66.3089	-1.06469e-06	-4.47707e-06	5.13341e-09	-4.4822e-06	0.192949	8296.47	9.51274	8305.98
4646	6.07081	2.50822	6.56856	-22.4485	5.0146	0.192696	-0.0286612	13.6576	1.99144	1	10	0.00468851	0.000713781	0	-6.58169e-05	0.000161218	1.30577e-05	-136.285	0.0182936	-0.0132224	0.0126422	-22.5946	6.56119	6.05759	2.52087	0.140704	0.0581335	0.15224	22.4485	1991.44	4820	5215.2	-67.5515	0.0000000E+000	0.0000000E+000	0.0000000E+000	67.5515	0.0000000E+000	0.0000000E+000	0.0000000E+000	-67.5515	0.0000000E+000	0.0000000E+000	0.0000000E+000	-22.4485	0.0000000E+000	0.0000000E+000	0.0000000E+000	22.4485	2.42036	67.5515	-1.47084e-06	-5.52291e-06	-4.62069e-09	-5.51829e-06	0.192535	6723.25	5.62495	6717.62
3163.08	6.58946	2.66623	7.10843	-22.0293	5.38964	0.192622	-0.0161875	18.8717	2.65498	1	10	0.00462667	0.000650871	0	-6.76325e-05	0.000180328	6.38226e-06	-38.4539	0.00980572	0.00767895	0.00609803	-22.0516	7.11784	6.59714	2.67233	0.130407	0.0527656	0.140678	22.0293	2654.98	6561.64	7078.42	-67.9707	0.0000000E+000	0.0000000E+000	0.0000000E+000	67.9707	0.0000000E+000	0.0000000E+000	0.0000000E+000	-67.9707	0.0000000E+000	0.0000000E+000	0.0000000E+000	-22.0293	0.0000000E+000	0.0000000E+000	0.0000000E+000	22.0293	2.47145	67.9707	-1.81552e-06	-3.11806e-06	-2.91905e-09	-3.11515e-06	0.192442	11899.4	11.1399	11888.3
2155.69	7.09828	2.91071	7.67188	-22.2965	5.84085	0.192667	-0.00272155	25.365	3.65114	1	10	0.00457482	0.00059631	0	-6.76123e-05	-0.000106322	9.93796e-06	-85.548	0.0166658	0.00129367	0.0166155	-22.4076	7.6794	7.09957	2.92733	0.1206	0.0494533	0.130346	22.2965	3651.14	8903.95	9623.47	-67.7035	0.0000000E+000	0.0000000E+000	0.0000000E+000	67.7035	0.0000000E+000	0.0000000E+000	0.0000000E+000	-67.7035	0.0000000E+000	0.0000000E+000	0.0000000E+000	-22.2965	0.0000000E+000	0.0000000E+000	0.0000000E+000	22.2965	2.43867	67.7035	2.01571e-08	-5.24353e-07	2.8936e-10	-5.24643e-07	0.192774	70793.2	39.0666	70832.3
1468.59	7.62763	3.30191	8.31164	-23.4072	6.29212	0.19267	-0.00387045	32.8212	5.17978	1	10	0.00455145	0.0005476	0	-6.85797e-05	-0.000297421	7.8551e-06	-64.5842	0.0143446	0.00615648	0.0129563	-23.4722	8.32244	7.63379	3.31487	0.110412	0.047796	0.120313	23.4072	5179.78	11965.6	13038.7	-66.5928	0.0000000E+000	0.0000000E+000	0.0000000E+000	66.5928	0.0000000E+000	0.0000000E+000	0.0000000E+000	-66.5928	0.0000000E+000	0.0000000E+000	0.0000000E+000	-23.4072	0.0000000E+000	0.0000000E+000	0.0000000E+000	23.4072	2.31007	66.5928	-9.67396e-07	-7.45719e-07	1.15115e-09	-7.4687e-07	0.192967	49779.7	76.8442	49856.6
1000.32	8.20911	3.86509	9.0735	-25.2124	6.74282	0.19266	-0.00541847	41.1644	7.46949	1	10	0.0045286	0.000499102	0	-6.94974e-05	-0.000259201	8.45229e-06	5.6471	0.016935	0.0168528	-0.00166642	-25.1577	9.08804	8.22596	3.86342	0.0997118	0.0469472	0.110211	25.2124	7469.49	15864.5	17535	-64.7876	0.0000000E+000	0.0000000E+000	0.0000000E+000	64.7876	0.0000000E+000	0.0000000E+000	0.0000000E+000	-64.7876	0.0000000E+000	0.0000000E+000	0.0000000E+000	-25.2124	0.0000000E+000	0.0000000E+000	0.0000000E+000	25.2124	2.12391	64.7876	-9.1772e-07	-1.04392e-06	1.40447e-09	-1.04533e-06	0.192919	35556.1	47.8366	35604
681.09	8.89054	4.68248	10.0483	-27.7749	7.19352	0.192677	-0.00385553	49.9045	10.837	1	10	0.00451484	0.000449316	0	-7.00851e-05	0.000256767	4.34902e-06	70.2958	0.00967921	0.00326348	-0.00911245	-27.7203	10.0469	8.89381	4.67337	0.0880536	0.0463762	0.0995198	27.7749	10837	20576.1	23255.5	-62.2251	0.0000000E+000	0.0000000E+000	0.0000000E+000	62.2251	0.0000000E+000	0.0000000E+000	0.0000000E+000	-62.2251	0.0000000E+000	0.0000000E+000	0.0000000E+000	-27.7749	0.0000000E+000	0.0000000E+000	0.0000000E+000	27.7749	1.89868	62.2251	-5.87727e-07	-7.42873e-07	-9.89974e-10	-7.41883e-07	0.192421	49974.3	66.5972	49907.7
463.961	9.76453	5.81018	11.3624	-30.7539	7.64533	0.19266	-0.003531	59.0404	15.4379	1	10	0.00451099	0.00039701	0	-7.053e-05	2.7448e-05	1.50943e-05	15.4779	0.0380199	0.0366411	-0.0101462	-30.6157	11.3887	9.80117	5.80003	0.0756329	0.0450038	0.0880095	30.7539	15437.9	25944.8	30190.4	-59.2461	0.0000000E+000	0.0000000E+000	0.0000000E+000	59.2461	0.0000000E+000	0.0000000E+000	0.0000000E+000	-59.2461	0.0000000E+000	0.0000000E+000	0.0000000E+000	-30.7539	0.0000000E+000	0.0000000E+000	0.0000000E+000	30.7539	1.68059	59.2461	-4.44901e-07	-6.80283e-07	-9.69189e-11	-6.80186e-07	0.192633	54562.4	7.77342	54554.6
316.316	11.0155	7.31577	13.2235	-33.5896	8.09301	0.192648	-0.00577657	68.7763	21.0507	1	10	0.00450048	0.00034034	0	-7.12007e-05	2.7448e-05	1.01727e-05	-20.2711	0.0298897	0.0280385	0.0103557	-33.5598	13.2526	11.0435	7.32613	0.0629956	0.0418377	0.075623	33.5896	21050.7	31696.3	38049.8	-56.4104	0.0000000E+000	0.0000000E+000	0.0000000E+000	56.4104	0.0000000E+000	0.0000000E+000	0.0000000E+000	-56.4104	0.0000000E+000	0.0000000E+000	0.0000000E+000	-33.5896	0.0000000E+000	0.0000000E+000	0.0000000E+000	33.5896	1.50571	56.4104	-6.7069e-07	-1.11285e-06	-1.58555e-10	-1.11269e-06	0.192621	33349.9	4.7516	33345.2
215.345	12.7795	9.11537	15.6973	-35.4995	8.75751	0.192651	-0.00431807	81.0796	27.3407	1	10	0.00498416	0.000317517	0	-7.20057e-05	2.7448e-05	1.13e-05	-37.2542	0.0355888	0.0283271	0.0215437	-35.5035	15.7329	12.8078	9.13692	0.0518637	0.0369934	0.0637052	35.4995	27340.7	38330.9	47082.6	-54.5005	0.0000000E+000	0.0000000E+000	0.0000000E+000	54.5005	0.0000000E+000	0.0000000E+000	0.0000000E+000	-54.5005	0.0000000E+000	0.0000000E+000	0.0000000E+000	-35.4995	0.0000000E+000	0.0000000E+000	0.0000000E+000	35.4995	1.40197	54.5005	-8.04978e-07	-8.31881e-07	-1.18522e-10	-8.31762e-07	0.192623	44615	6.35653	44608.6
146.737	15.3653	11.1514	18.9855	-35.9704	9.20352	0.192651	-0.00542967	97.2633	33.5558	1	10	0.00499094	0.000262882	0	-7.2602e-05	8.47778e-05	1.08047e-05	47.6413	0.0411009	0.0276926	-0.0303711	-35.8471	18.9901	15.393	11.1211	0.0426285	0.0309377	0.0526719	35.9704	33555.8	46235.9	57129.2	-54.0296	0.0000000E+000	0.0000000E+000	0.0000000E+000	54.0296	0.0000000E+000	0.0000000E+000	0.0000000E+000	-54.0296	0.0000000E+000	0.0000000E+000	0.0000000E+000	-35.9704	0.0000000E+000	0.0000000E+000	0.0000000E+000	35.9704	1.37788	54.0296	-5.96292e-07	-1.04603e-06	-4.60315e-10	-1.04557e-06	0.192566	35481.1	15.6138	35465.5
100.032	19.0087	13.0292	23.0454	-34.428	9.89979	0.192696	-0.00238158	122.113	39.0327	1	11	0.00500239	0.000217066	0	-7.31147e-05	-0.000106322	3.50451e-06	-43.6397	0.0161449	0.011684	0.0111419	-34.4344	23.0614	19.0204	13.0404	0.0357918	0.0245328	0.0433925	34.428	39032.7	56946.1	69039.2	-55.572	0.0000000E+000	0.0000000E+000	0.0000000E+000	55.572	0.0000000E+000	0.0000000E+000	0.0000000E+000	-55.572	0.0000000E+000	0.0000000E+000	0.0000000E+000	-34.428	0.0000000E+000	0.0000000E+000	0.0000000E+000	34.428	1.45893	55.572	-5.1266e-07	-4.58921e-07	2.53213e-10	-4.59174e-07	0.192802	80911.1	44.6434	80955.7
68.104	23.4708	14.1995	27.4319	-31.1734	10.3624	0.192693	-0.00220064	164.579	44.0972	1	11	0.00499853	0.000182216	0	-7.33935e-05	-2.98819e-05	1.13489e-05	-39.0575	0.0622825	0.0483632	0.0392442	-31.1912	27.4936	23.5192	14.2388	0.0311902	0.0188697	0.036454	31.1734	44097.2	72889.6	85190.7	-58.8266	0.0000000E+000	0.0000000E+000	0.0000000E+000	58.8266	0.0000000E+000	0.0000000E+000	0.0000000E+000	-58.8266	0.0000000E+000	0.0000000E+000	0.0000000E+000	-31.1734	0.0000000E+000	0.0000000E+000	0.0000000E+000	31.1734	1.65293	58.8266	-2.78875e-07	-4.24048e-07	6.57592e-11	-4.24114e-07	0.192723	87562.5	13.5787	87576
46.4415	28.2348	14.0622	31.5428	-26.4753	10.7987	0.192704	-0.00269459	243.703	48.4355	1	11	0.00498817	0.000158139	0	-7.37627e-05	-0.000392971	8.49602e-06	28.378	0.0537249	0.0472689	-0.0255347	-26.3956	31.5738	28.2821	14.0366	0.0283781	0.0141335	0.0317029	26.4753	48435.5	97251.7	108646	-63.5247	0.0000000E+000	0.0000000E+000	0.0000000E+000	63.5247	0.0000000E+000	0.0000000E+000	0.0000000E+000	-63.5247	0.0000000E+000	0.0000000E+000	0.0000000E+000	-26.4753	0.0000000E+000	0.0000000E+000	0.0000000E+000	26.4753	2.00786	63.5247	-3.69164e-07	-5.19259e-07	1.0589e-09	-5.20318e-07	0.193097	71515	145.837	71660.8
31.6296	32.637	12.8063	35.0596	-21.4244	11.2285	0.192701	-0.00258155	392.919	52.4249	1	11	0.00498029	0.000142052	0	-7.37441e-05	-0.000240091	2.11134e-06	-50.685	0.0148631	0.00941704	0.0114992	-21.4362	35.0725	32.6464	12.8178	0.026552	0.0104186	0.0285229	21.4244	52424.9	133605	143523	-68.5756	0.0000000E+000	0.0000000E+000	0.0000000E+000	68.5756	0.0000000E+000	0.0000000E+000	0.0000000E+000	-68.5756	0.0000000E+000	0.0000000E+000	0.0000000E+000	-21.4244	0.0000000E+000	0.0000000E+000	0.0000000E+000	21.4244	2.54851	68.5756	1.86146e-08	-4.97468e-07	6.19808e-10	-4.98088e-07	0.192941	74645.6	93.0028	74738.6
21.5517	36.1777	10.8753	37.777	-16.7312	11.6494	0.192707	-0.00268788	679.04	56.2764	1	11	0.00499294	0.000132169	0	-7.40056e-05	-0.000220981	5.18392e-06	-39.5818	0.039222	0.030229	0.0249914	-16.7543	37.8131	36.2079	10.9003	0.0253505	0.00762058	0.0264712	16.7312	56276.4	187208	195484	-73.2688	0.0000000E+000	0.0000000E+000	0.0000000E+000	73.2688	0.0000000E+000	0.0000000E+000	0.0000000E+000	-73.2688	0.0000000E+000	0.0000000E+000	0.0000000E+000	-16.7312	0.0000000E+000	0.0000000E+000	0.0000000E+000	16.7312	3.32658	73.2688	-2.61537e-07	-5.17972e-07	5.93971e-10	-5.18566e-07	0.192928	71694.7	82.2141	71776.9
14.6852	38.5948	8.60703	39.5428	-12.5718	12.1101	0.19272	-0.00185181	1259.18	59.6567	1	11	0.00498879	0.000126162	0	-7.40841e-05	-6.81018e-05	3.84381e-06	36.7587	0.0304673	0.0244093	-0.018233	-12.5384	39.5627	38.6192	8.5888	0.0246827	0.0055045	0.025289	12.5718	59656.7	267506	274078	-77.4282	0.0000000E+000	0.0000000E+000	0.0000000E+000	77.4282	0.0000000E+000	0.0000000E+000	0.0000000E+000	-77.4282	0.0000000E+000	0.0000000E+000	0.0000000E+000	-12.5718	0.0000000E+000	0.0000000E+000	0.0000000E+000	12.5718	4.4841	77.4282	-7.8519e-08	-3.5688e-07	1.26112e-10	-3.57006e-07	0.192788	104071	36.7758	104108
10.0032	40.1439	6.75506	40.7083	-9.55174	12.5618	0.192719	-0.0021402	2355.33	64.8552	1	11	0.00498405	0.000122433	0	-7.5291e-05	-0.000182762	6.12845e-06	5.69523	0.0500554	0.0498083	-0.00496734	-9.53324	40.7566	40.1937	6.75009	0.0242245	0.00407628	0.024565	9.55174	64855.2	385421	390839	-80.4483	0.0000000E+000	0.0000000E+000	0.0000000E+000	80.4483	0.0000000E+000	0.0000000E+000	0.0000000E+000	-80.4483	0.0000000E+000	0.0000000E+000	0.0000000E+000	-9.55174	0.0000000E+000	0.0000000E+000	0.0000000E+000	9.55174	5.94279	80.4483	-1.20685e-06	-4.12456e-07	3.91146e-10	-4.12847e-07	0.192901	90047	85.3946	90132.4
6.81719	41.1167	5.17105	41.4406	-7.16819	12.9015	0.192729	-0.00181077	4514.77	70.2979	1	11	0.00497211	0.000119982	0	-7.46607e-05	-0.000469411	5.83146e-06	77.3616	0.0486029	0.0106342	-0.0474253	-7.10131	41.4452	41.1273	5.12363	0.0239423	0.00301112	0.0241309	7.16819	70297.9	558961	563364	-82.8318	0.0000000E+000	0.0000000E+000	0.0000000E+000	82.8318	0.0000000E+000	0.0000000E+000	0.0000000E+000	-82.8318	0.0000000E+000	0.0000000E+000	0.0000000E+000	-7.16819	0.0000000E+000	0.0000000E+000	0.0000000E+000	7.16819	7.95131	82.8318	6.30319e-07	-3.48987e-07	8.49996e-10	-3.49837e-07	0.193198	106435	259.233	106694
4.63925	41.796	3.92465	41.9799	-5.36435	13.3854	0.192727	-0.00157088	8741.2	76.3996	1	11	0.00498556	0.000118761	0	-7.41644e-05	-0.000163652	6.90451e-06	52.6575	0.058138	0.0352652	-0.0462211	-5.29709	42.0107	41.8313	3.87843	0.0237166	0.00222699	0.023821	5.36435	76399.6	813626	817205	-84.6357	0.0000000E+000	0.0000000E+000	0.0000000E+000	84.6357	0.0000000E+000	0.0000000E+000	0.0000000E+000	-84.6357	0.0000000E+000	0.0000000E+000	0.0000000E+000	-5.36435	0.0000000E+000	0.0000000E+000	0.0000000E+000	5.36435	10.6496	84.6357	4.96253e-07	-3.02751e-07	2.57077e-10	-3.03008e-07	0.192891	122687	104.178	122791
3.1604	42.2941	3.17732	42.4133	-4.29623	14.0785	0.192726	-0.00101481	15849.6	88.9476	1	11	0.00498348	0.000117498	0	-7.56277e-05	0.000161218	6.38283e-06	-29.9166	0.0543229	0.0470845	0.027093	-4.32793	42.4623	42.3412	3.20441	0.0235112	0.00176626	0.0235775	4.29623	88947.7	1.18401e+06	1.18734e+06	-85.7038	0.0000000E+000	0.0000000E+000	0.0000000E+000	85.7038	0.0000000E+000	0.0000000E+000	0.0000000E+000	-85.7038	0.0000000E+000	0.0000000E+000	0.0000000E+000	-4.29623	0.0000000E+000	0.0000000E+000	0.0000000E+000	4.29623	13.3113	85.7038	-1.46325e-06	-1.9558e-07	-1.63605e-10	-1.95416e-07	0.192564	189913	158.865	189754
2.15577	42.6035	2.65823	42.6864	-3.57033	15.0822	0.192724	-0.000575977	27773.1	107.704	1	11	0.00498115	0.000116692	0	-7.76189e-05	-0.000125432	5.47578e-06	-42.8152	0.0469252	0.0344219	0.031892	-3.61014	42.7227	42.6379	2.69013	0.0233812	0.00145886	0.0234267	3.57033	107704	1.72618e+06	1.72953e+06	-86.4297	0.0000000E+000	0.0000000E+000	0.0000000E+000	86.4297	0.0000000E+000	0.0000000E+000	0.0000000E+000	-86.4297	0.0000000E+000	0.0000000E+000	0.0000000E+000	-3.57033	0.0000000E+000	0.0000000E+000	0.0000000E+000	3.57033	16.027	86.4297	-1.99123e-06	-1.11005e-07	7.22457e-11	-1.11077e-07	0.192849	334604	217.772	334822
1.46631	42.9527	2.40007	43.0197	-3.19819	17.2693	0.19272	-0.000398991	45224.2	140.761	1	12	0.0049855	0.000115889	0	-7.78223e-05	-0.000106322	4.53222e-06	24.4628	0.0391084	0.0355976	-0.0161949	-3.17403	43.0544	42.9883	2.38387	0.0232089	0.00129685	0.0232452	3.19819	140761	2.51913e+06	2.52306e+06	-86.8018	0.0000000E+000	0.0000000E+000	0.0000000E+000	86.8018	0.0000000E+000	0.0000000E+000	0.0000000E+000	-86.8018	0.0000000E+000	0.0000000E+000	0.0000000E+000	-3.19819	0.0000000E+000	0.0000000E+000	0.0000000E+000	3.19819	17.8964	86.8018	-2.03393e-07	-7.68935e-08	4.24214e-11	-7.69359e-08	0.192826	483019	266.477	483286
1.00006	43.2658	2.3193	43.328	-3.06845	19.3967	0.192718	-0.000508767	68617.5	196.613	1	12	0.00498504	0.000115054	0	-7.46714e-05	-0.000316531	2.70854e-06	1.67942	0.0235415	0.0235314	-0.000689936	-3.06588	43.3514	43.2894	2.31861	0.0230467	0.00123544	0.0230798	3.06845	196613	3.66776e+06	3.67303e+06	-86.9315	0.0000000E+000	0.0000000E+000	0.0000000E+000	86.9315	0.0000000E+000	0.0000000E+000	0.0000000E+000	-86.9315	0.0000000E+000	0.0000000E+000	0.0000000E+000	-3.06845	0.0000000E+000	0.0000000E+000	0.0000000E+000	3.06845	18.6547	86.9315	3.15093e-06	-9.80487e-08	1.61041e-10	-9.82097e-08	0.193035	378794	622.153	379416
0.681362	43.6602	2.32742	43.7222	-3.05142	22.5088	0.192714	-0.000559224	100361	284.39	1	12	0.00498651	0.00011405	0	-7.03362e-05	-0.000106322	2.84425e-06	12.3988	0.0249386	0.024357	-0.0053547	-3.04271	43.7462	43.6845	2.32207	0.0228393	0.00121751	0.0228717	3.05142	284390	5.33487e+06	5.34245e+06	-86.9486	0.0000000E+000	0.0000000E+000	0.0000000E+000	86.9486	0.0000000E+000	0.0000000E+000	0.0000000E+000	-86.9486	0.0000000E+000	0.0000000E+000	0.0000000E+000	-3.05142	0.0000000E+000	0.0000000E+000	0.0000000E+000	3.05142	18.759	86.9486	4.33512e-06	-1.0777e-07	5.94576e-11	-1.0783e-07	0.192821	344610	190.124	344801
0.464091	44.1093	2.42913	44.1761	-3.15213	27.0654	0.192718	-0.000105411	141178	426.866	1	12	0.00498842	0.000112921	0	-6.73786e-05	-0.000240091	1.17499e-05	21.287	0.104054	0.096955	-0.0377758	-3.09641	44.2709	44.2063	2.39135	0.0226024	0.00124473	0.0226367	3.15213	426866	7.75125e+06	7.763e+06	-86.8479	0.0000000E+000	0.0000000E+000	0.0000000E+000	86.8479	0.0000000E+000	0.0000000E+000	0.0000000E+000	-86.8479	0.0000000E+000	0.0000000E+000	0.0000000E+000	-3.15213	0.0000000E+000	0.0000000E+000	0.0000000E+000	3.15213	18.1585	86.8479	2.95762e-06	-2.03147e-08	2.53083e-11	-2.034e-08	0.192958	1.82825e+06	2277.66	1.83053e+06
0.316193	44.5308	2.78311	44.6177	-3.57626	33.7398	0.192714	0.000374656	180858	703.695	1	12	0.00498905	0.000111818	0	-6.97873e-05	-0.000220981	2.50894e-06	-33.5954	0.0224377	0.0186898	0.0124154	-3.59067	44.6371	44.5495	2.79553	0.022369	0.00139803	0.0224126	3.57626	703695	1.12594e+07	1.12813e+07	-86.4237	0.0000000E+000	0.0000000E+000	0.0000000E+000	86.4237	0.0000000E+000	0.0000000E+000	0.0000000E+000	-86.4237	0.0000000E+000	0.0000000E+000	0.0000000E+000	-3.57626	0.0000000E+000	0.0000000E+000	0.0000000E+000	3.57626	16.0003	86.4237	-2.40871e-06	7.22014e-08	-8.27921e-11	7.22842e-08	0.192935	514375	589.825	514965
0.215268	44.9416	3.22207	45.0569	-4.10078	43.5332	0.192716	0.000540424	229460	1173.42	1	12	0.00498624	0.000110665	0	-8.04543e-05	-0.000392971	1.86027e-06	-19.5359	0.0168099	0.0158422	0.00562118	-4.10647	45.0731	44.9574	3.22769	0.0221373	0.00158713	0.0221941	4.10078	1.17342e+06	1.63669e+07	1.64089e+07	-85.8992	0.0000000E+000	0.0000000E+000	0.0000000E+000	85.8992	0.0000000E+000	0.0000000E+000	0.0000000E+000	-85.8992	0.0000000E+000	0.0000000E+000	0.0000000E+000	-4.10078	0.0000000E+000	0.0000000E+000	0.0000000E+000	4.10078	13.9481	85.8992	-1.0667e-05	1.04148e-07	-2.12371e-10	1.04361e-07	0.193109	356601	727.153	357328
0.146929	45.419	3.79704	45.5775	-4.77882	57.8715	0.192717	0.000294263	285278	1979.97	1	12	0.0049835	0.000109341	0	-9.99298e-05	0.000103888	3.77871e-06	26.8509	0.0345588	0.0308328	-0.0156092	-4.75605	45.6069	45.4499	3.78143	0.0218644	0.00182787	0.0219407	4.77882	1.97997e+06	2.36838e+07	2.37664e+07	-85.2212	0.0000000E+000	0.0000000E+000	0.0000000E+000	85.2212	0.0000000E+000	0.0000000E+000	0.0000000E+000	-85.2212	0.0000000E+000	0.0000000E+000	0.0000000E+000	-4.77882	0.0000000E+000	0.0000000E+000	0.0000000E+000	4.77882	11.9617	85.2212	-1.94755e-05	5.67096e-08	3.05703e-11	5.6679e-08	0.192614	654916	353.044	654563
0.0999041	46.0649	4.65644	46.2997	-5.7721	78.9488	0.192723	-0.000273433	342123	3460.47	1	12	0.00498283	0.000107621	0	-0.000122684	-0.000316531	3.37787e-06	12.3618	0.0313866	0.0306589	-0.00671936	-5.76002	46.3295	46.0956	4.64972	0.0214889	0.00217219	0.0215984	5.7721	3.46047e+06	3.42335e+07	3.4408e+07	-84.2279	0.0000000E+000	0.0000000E+000	0.0000000E+000	84.2279	0.0000000E+000	0.0000000E+000	0.0000000E+000	-84.2279	0.0000000E+000	0.0000000E+000	0.0000000E+000	-5.7721	0.0000000E+000	0.0000000E+000	0.0000000E+000	5.7721	9.89273	84.2279	-2.27544e-05	-5.26969e-08	8.65502e-11	-5.27834e-08	0.193039	704825	1157.62	705983
0.0680626	46.8166	5.98452	47.1976	-7.28455	109.875	0.192723	-0.000779191	390735	6282.05	1	12	0.00498729	0.000105668	0	-0.000137468	2.7448e-05	4.01678e-06	2.28072	0.038013	0.0379829	-0.00151275	-7.27689	47.235	46.8546	5.983	0.0210165	0.00268652	0.0211875	7.28455	6.28205e+06	4.91442e+07	4.95441e+07	-82.7154	0.0000000E+000	0.0000000E+000	0.0000000E+000	82.7154	0.0000000E+000	0.0000000E+000	0.0000000E+000	-82.7154	0.0000000E+000	0.0000000E+000	0.0000000E+000	-7.28455	0.0000000E+000	0.0000000E+000	0.0000000E+000	7.28455	7.82296	82.7154	-1.47837e-05	-1.50168e-07	-2.13872e-11	-1.50147e-07	0.192696	247337	35.2262	247302
0.0464052	47.5714	7.88802	48.2209	-9.4148	155.227	0.192722	-0.00104912	434796	11634.6	1	12	0.00498746	0.000103429	0	-0.000120509	-0.000259201	2.68087e-06	4.89429	0.0259198	0.0258253	-0.00221142	-9.40719	48.246	47.5972	7.8858	0.0204585	0.00339232	0.0207379	9.4148	1.16346e+07	7.01663e+07	7.11243e+07	-80.5852	0.0000000E+000	0.0000000E+000	0.0000000E+000	80.5852	0.0000000E+000	0.0000000E+000	0.0000000E+000	-80.5852	0.0000000E+000	0.0000000E+000	0.0000000E+000	-9.4148	0.0000000E+000	0.0000000E+000	0.0000000E+000	9.4148	6.03084	80.5852	1.6959e-05	-2.02189e-07	2.71934e-10	-2.02461e-07	0.192981	183699	247.065	183946
0.0315922	48.5093	10.2539	49.5812	-11.9355	221.832	0.19272	-0.000652997	491304	21013.4	1	12	0.00498853	0.000100613	0	-4.99465e-05	-0.000373861	3.40533e-06	-35.2331	0.0338457	0.0276455	0.0195257	-11.951	49.6123	48.5369	10.2734	0.0197329	0.00417115	0.0201689	11.9355	2.10134e+07	9.94103e+07	1.01607e+08	-78.0645	0.0000000E+000	0.0000000E+000	0.0000000E+000	78.0645	0.0000000E+000	0.0000000E+000	0.0000000E+000	-78.0645	0.0000000E+000	0.0000000E+000	0.0000000E+000	-11.9355	0.0000000E+000	0.0000000E+000	0.0000000E+000	11.9355	4.7308	78.0645	7.05623e-05	-1.25845e-07	2.4413e-10	-1.2609e-07	0.193094	295132	572.531	295704
0.0215268	50.107	13.3656	51.8589	-14.9354	319.571	0.192718	-0.000158196	553164	36743.6	1	12	0.00498568	9.61393e-05	0	6.7155e-05	-0.000450301	2.3013e-06	20.7861	0.0239371	0.0223791	-0.00849481	-14.9199	51.8783	50.1293	13.3571	0.0186317	0.00496982	0.0192831	14.9354	3.67436e+07	1.3775e+08	1.42567e+08	-75.0646	0.0000000E+000	0.0000000E+000	0.0000000E+000	75.0646	0.0000000E+000	0.0000000E+000	0.0000000E+000	-75.0646	0.0000000E+000	0.0000000E+000	0.0000000E+000	-14.9354	0.0000000E+000	0.0000000E+000	0.0000000E+000	14.9354	3.74896	75.0646	0.000117101	-3.04872e-08	7.12356e-11	-3.05584e-08	0.193168	1.21823e+06	2846.48	1.22107e+06
0.0146812	52.5472	17.974	55.5363	-18.8835	462.872	0.192717	0.000247908	603134	63175.9	1	12	0.00498626	8.97839e-05	0	0.00017024	-2.98819e-05	2.34021e-06	3.14279	0.0260649	0.0260257	-0.001429	-18.8734	55.5604	52.5733	17.9726	0.0170371	0.00582763	0.0180062	18.8835	6.31759e+07	1.84695e+08	1.95201e+08	-71.1165	0.0000000E+000	0.0000000E+000	0.0000000E+000	71.1165	0.0000000E+000	0.0000000E+000	0.0000000E+000	-71.1165	0.0000000E+000	0.0000000E+000	0.0000000E+000	-18.8835	0.0000000E+000	0.0000000E+000	0.0000000E+000	18.8835	2.92351	71.1165	0.000103085	4.77761e-08	-7.40797e-12	4.77835e-08	0.192747	777371	120.536	777492
0.0100092	55.3793	24.1303	60.4081	-23.5441	673.054	0.19272	0.000364186	658961	105146	1	12	0.00498601	8.25388e-05	0	0.000149251	8.33802e-06	1.88138e-06	-3.10816	0.0227939	0.0227603	0.00123591	-23.5365	60.4294	55.4021	24.1315	0.015176	0.0066126	0.0165541	23.5441	1.05146e+08	2.41312e+08	2.63225e+08	-66.4559	0.0000000E+000	0.0000000E+000	0.0000000E+000	66.4559	0.0000000E+000	0.0000000E+000	0.0000000E+000	-66.4559	0.0000000E+000	0.0000000E+000	0.0000000E+000	-23.5441	0.0000000E+000	0.0000000E+000	0.0000000E+000	23.5441	2.29501	66.4559	-2.09891e-05	7.01857e-08	3.03659e-12	7.01827e-08	0.192711	529180	22.895	529157