File: txt/19142_R306_UA710_SOC00_C06.mpt
EC-Lab ASCII FILE
Nb header lines : 66

Potentio Electrochemical Impedance Spectroscopy

Run on channel : 6 (SN 65795)
Grouped channel(s) : 6, 7, 8
User :
CE vs. WE compliance from -10 V to 10 V
Electrode connection : standard
Potential control : Ewe
Ewe ctrl range : min = -10.00 V, max = 10.00 V
Safety Limits :
	Do not start on E overload
Acquisition started on : 11/12/2025 11:20:50.497
Technique started on : 11/12/2025 11:20:52.551
Loaded Setting File :  C:\Users\Celltest\OneDrive - store-dot.com\Documents\EC-Lab\Data\@Biologic Test Protocols\anode half cell EIS SOC00.mps
Saved on :
	File : 19142_R306_UA710_SOC00_C06.mpr
	Directory : C:\Users\Celltest\OneDrive - store-dot.com\Documents\EC-Lab\Data\Charmaine\
	Host : 169.254.61.224
Device : VMP-3e (SN .003165)
Address : USB
EC-LAB for windows v11.62 (software)
Internet server v27.00 (firmware)
Command interpretor v12.03 (firmware)
Electrode material :
Initial state :
Electrolyte :
Comments :
Electrode surface area : 0.001 cm²
Characteristic mass : 0.001 g
Equivalent Weight : 0.000 g/eq.
Density : 0.000 g/cm3
Volume (V) : 0.001 cm³
Record Ece
Cycle Definition : Charge/Discharge alternance
Mode                Single sine
E (V)               0.0000
vs.                 Eoc
tE (h:m:s)          0:00:0.0000
record              0
dI                  0.000
unit dI             mA
dt (s)              0.000
fi                  100.000
unit fi             kHz
ff                  10.000
unit ff             mHz
Nd                  6
Points              per decade
spacing             Logarithmic
Va (mV)             5.0
pw                  0.10
Na                  2
corr                0
E range min (V)     -10.000
E range max (V)     10.000
I Range             Auto
Bandwidth           5
nc cycles           0
goto Ns'            0
nr cycles           0
inc. cycle          0

freq/Hz	Re(Z)/Ohm	-Im(Z)/Ohm	|Z|/Ohm	Phase(Z)/deg	time/s	<Ewe>/V	<I>/mA	Cs/µF	Cp/µF	cycle number	I Range	|Ewe|/V	|I|/A	Ns	(Q-Qo)/mA.h	<Ece>/V	|Ece|/V	Phase(Zce)/deg	|Zce|/Ohm	Re(Zce)/Ohm	-Im(Zce)/Ohm	Phase(Zwe-ce)/deg	|Zwe-ce|/Ohm	Re(Zwe-ce)/Ohm	-Im(Zwe-ce)/Ohm	Re(Y)/Ohm-1	Im(Y)/Ohm-1	|Y|/Ohm-1	Phase(Y)/deg	Re(C)/nF	Im(C)/nF	|C|/nF	Phase(C)/deg	Re(M)	Im(M)	|M|	Phase(M)/deg	Re(Permittivity)	Im(Permittivity)	|Permittivity|	Phase(Permittivity)/deg	Re(Resistivity)/Ohm.cm	Im(Resistivity)/Ohm.cm	|Resistivity|/Ohm.cm	Phase(Resistivity)/deg	Re(Conductivity)/mS/cm	Im(Conductivity)/mS/cm	|Conductivity|/mS/cm	Phase(Conductivity)/deg	Tan(Delta)	Loss Angle(Delta)/deg	dq/mA.h	Pwe/W	Pce/W	Pwe-ce/W	<Ewe-Ece>/V	Rwe/Ohm	Rce/Ohm	Rwe-ce/Ohm		Ewe-Ece/V
100004	1.82541	1.04049	2.10113	-29.6833	2.05353	0.193805	0.0461459	1.52956	0.375091	1	9	0.00493698	0.00234968	0	-2.03932e-06	-0.000126979	3.70297e-05	55.2695	0.0157595	0.00897844	-0.0129518	-29.2555	2.10258	1.83439	1.02754	0.41348	0.235685	0.475934	29.6833	375.091	658.05	757.445	-60.3167	0.0000000E+000	0.0000000E+000	0.0000000E+000	60.3167	0.0000000E+000	0.0000000E+000	0.0000000E+000	-60.3167	0.0000000E+000	0.0000000E+000	0.0000000E+000	-29.6833	0.0000000E+000	0.0000000E+000	0.0000000E+000	29.6833	1.75437	60.3167	-2.03932e-06	8.94329e-06	-5.85954e-09	8.94915e-06	0.193932	4199.83	2.75168	4202.58
68132	2.10887	1.29481	2.47464	-31.5492	2.43656	0.193776	0.0361629	1.80411	0.493912	1	9	0.00540526	0.00218426	0	3.20897e-06	4.49036e-05	2.20124e-05	28.092	0.0100777	0.00889051	-0.00474549	-31.3483	2.47975	2.11776	1.29006	0.34437	0.211437	0.404099	31.5492	493.912	804.44	943.967	-58.4508	0.0000000E+000	0.0000000E+000	0.0000000E+000	58.4508	0.0000000E+000	0.0000000E+000	0.0000000E+000	-58.4508	0.0000000E+000	0.0000000E+000	0.0000000E+000	-31.5492	0.0000000E+000	0.0000000E+000	0.0000000E+000	31.5492	1.62871	58.4508	5.24829e-06	7.00751e-06	1.62384e-09	7.00588e-06	0.193731	5358.43	1.24171	5357.19
46420.4	2.46868	1.5103	2.89402	-31.4576	2.81952	0.193772	0.0416386	2.27012	0.618259	1	9	0.0054423	0.00188053	0	1.0794e-05	0.000159492	1.50751e-05	27.4458	0.00801642	0.00711415	-0.00369484	-31.3219	2.89817	2.47579	1.5066	0.294754	0.180326	0.34554	31.4576	618.259	1010.58	1184.7	-58.5424	0.0000000E+000	0.0000000E+000	0.0000000E+000	58.5424	0.0000000E+000	0.0000000E+000	0.0000000E+000	-58.5424	0.0000000E+000	0.0000000E+000	0.0000000E+000	-31.4576	0.0000000E+000	0.0000000E+000	0.0000000E+000	31.4576	1.63456	58.5424	7.58503e-06	8.06839e-06	6.64102e-09	8.06175e-06	0.193612	4653.66	3.83039	4649.83
31621.1	2.89045	1.72401	3.36555	-30.8139	3.20454	0.19377	0.0335181	2.91947	0.766073	1	9	0.00546514	0.00162385	0	1.32374e-05	8.30997e-05	1.80189e-05	-0.509157	0.0110964	0.0110959	9.86064e-05	-30.7189	3.37513	2.90155	1.7241	0.255184	0.152204	0.297128	30.8139	766.073	1284.39	1495.5	-59.1861	0.0000000E+000	0.0000000E+000	0.0000000E+000	59.1861	0.0000000E+000	0.0000000E+000	0.0000000E+000	-59.1861	0.0000000E+000	0.0000000E+000	0.0000000E+000	-30.8139	0.0000000E+000	0.0000000E+000	0.0000000E+000	30.8139	1.67659	59.1861	2.44338e-06	6.49479e-06	2.78534e-09	6.49201e-06	0.193687	5781.05	2.47925	5778.57
21544.7	3.36947	1.87429	3.85568	-29.0854	3.58756	0.193766	0.0346356	3.94133	0.931355	1	9	0.00545835	0.00141566	0	1.83902e-05	0.00027408	4.29855e-06	-90.7673	0.00303642	-4.06596e-05	0.00303614	-29.1251	3.85712	3.36943	1.87733	0.226652	0.126077	0.259358	29.0854	931.355	1674.32	1915.93	-60.9146	0.0000000E+000	0.0000000E+000	0.0000000E+000	60.9146	0.0000000E+000	0.0000000E+000	0.0000000E+000	-60.9146	0.0000000E+000	0.0000000E+000	0.0000000E+000	-29.0854	0.0000000E+000	0.0000000E+000	0.0000000E+000	29.0854	1.79773	60.9146	5.15284e-06	6.71119e-06	9.49293e-09	6.7017e-06	0.193492	5594.41	7.91325	5586.5
14678.6	3.86639	2.00646	4.35601	-27.427	3.97054	0.193753	0.0309851	5.40387	1.14654	1	9	0.00542683	0.00124583	0	1.95737e-05	-0.000146077	5.45562e-06	-102.902	0.00437912	-0.000977817	0.00426856	-27.4828	4.35711	3.86541	2.01073	0.203764	0.105743	0.229568	27.427	1146.54	2209.34	2489.13	-62.573	0.0000000E+000	0.0000000E+000	0.0000000E+000	62.573	0.0000000E+000	0.0000000E+000	0.0000000E+000	-62.573	0.0000000E+000	0.0000000E+000	0.0000000E+000	-27.427	0.0000000E+000	0.0000000E+000	0.0000000E+000	27.427	1.92697	62.573	1.18344e-06	6.00346e-06	-4.5262e-09	6.00799e-06	0.193899	6253.11	4.71442	6257.82
10002.2	4.3771	2.11002	4.85914	-25.7368	4.63252	0.193753	-0.00581782	7.54114	1.42197	1	10	0.00491515	0.00101153	0	2.12741e-05	0.000350472	7.63673e-06	13.7592	0.00754969	0.00733304	-0.00179564	-25.6802	4.86497	4.38444	2.10822	0.185382	0.0893651	0.205798	25.7368	1421.97	2949.8	3274.65	-64.2632	0.0000000E+000	0.0000000E+000	0.0000000E+000	64.2632	0.0000000E+000	0.0000000E+000	0.0000000E+000	-64.2632	0.0000000E+000	0.0000000E+000	0.0000000E+000	-25.7368	0.0000000E+000	0.0000000E+000	0.0000000E+000	25.7368	2.07444	64.2632	1.70048e-06	-1.12722e-06	-2.03899e-09	-1.12518e-06	0.193402	33303.3	60.2411	33243.1
6810.42	4.88166	2.23011	5.36694	-24.5526	5.01552	0.193756	-0.00608241	10.479	1.80934	1	10	0.00514395	0.000958451	0	2.04588e-05	-3.14885e-05	1.34171e-05	-6.44017	0.0139988	0.0139105	0.00157018	-24.5062	5.38025	4.89557	2.23168	0.169478	0.0774237	0.186326	24.5526	1809.34	3960.6	4354.31	-65.4474	0.0000000E+000	0.0000000E+000	0.0000000E+000	65.4474	0.0000000E+000	0.0000000E+000	0.0000000E+000	-65.4474	0.0000000E+000	0.0000000E+000	0.0000000E+000	-24.5526	0.0000000E+000	0.0000000E+000	0.0000000E+000	24.5526	2.18897	65.4474	-8.15351e-07	-1.1785e-06	1.91526e-10	-1.17869e-06	0.193787	31855.1	5.17698	31860.3
4646	5.35087	2.3659	5.85058	-23.8527	5.40762	0.193746	-0.00675691	14.4792	2.36777	1	10	0.00510772	0.000873029	0	2.03938e-05	0.000216786	1.4595e-05	-79.0014	0.0167177	0.00318947	0.0164106	-23.9868	5.86015	5.35406	2.38231	0.156324	0.0691191	0.170923	23.8527	2367.77	5355.1	5855.2	-66.1473	0.0000000E+000	0.0000000E+000	0.0000000E+000	66.1473	0.0000000E+000	0.0000000E+000	0.0000000E+000	-66.1473	0.0000000E+000	0.0000000E+000	0.0000000E+000	-23.8527	0.0000000E+000	0.0000000E+000	0.0000000E+000	23.8527	2.26167	66.1473	-6.49418e-08	-1.30913e-06	-1.4648e-09	-1.30766e-06	0.19353	28673.8	32.0836	28641.7
3163.08	5.82086	2.55951	6.35873	-23.7358	5.78067	0.193714	-0.0086351	19.6586	3.18512	1	10	0.0052944	0.000832619	0	2.02023e-05	0.000254982	4.25034e-06	-160.554	0.00510478	-0.00481357	0.00169951	-23.7673	6.35501	5.81604	2.56121	0.143961	0.0633018	0.157264	23.7358	3185.12	7243.62	7912.97	-66.2642	0.0000000E+000	0.0000000E+000	0.0000000E+000	66.2642	0.0000000E+000	0.0000000E+000	0.0000000E+000	-66.2642	0.0000000E+000	0.0000000E+000	0.0000000E+000	-23.7358	0.0000000E+000	0.0000000E+000	0.0000000E+000	23.7358	2.2742	66.2642	-1.91504e-07	-1.67274e-06	-2.2018e-09	-1.67054e-06	0.193459	22433.3	29.5285	22403.8
2155.69	6.28321	2.88927	6.91568	-24.6949	6.23182	0.193725	-0.0049868	25.5532	4.46019	1	10	0.00527085	0.00076216	0	1.90884e-05	0.000159492	7.3982e-06	-74.0794	0.00970689	0.00266265	0.00933456	-24.7559	6.922	6.28587	2.89861	0.131375	0.0604114	0.144599	24.6949	4460.19	9699.42	10675.8	-65.3051	0.0000000E+000	0.0000000E+000	0.0000000E+000	65.3051	0.0000000E+000	0.0000000E+000	0.0000000E+000	-65.3051	0.0000000E+000	0.0000000E+000	0.0000000E+000	-24.6949	0.0000000E+000	0.0000000E+000	0.0000000E+000	24.6949	2.17467	65.3051	-1.11392e-06	-9.66069e-07	-7.95355e-10	-9.65274e-07	0.193566	38847.6	31.9828	38815.6
1468.59	6.78108	3.38537	7.57916	-26.5301	6.68306	0.19373	-0.0050278	32.0121	6.38679	1	10	0.00520179	0.000686328	0	1.91435e-05	0.000254982	3.80773e-06	-64.2407	0.00554797	0.0024111	0.00499666	-26.5557	7.58355	6.78349	3.39036	0.118047	0.0589336	0.131941	26.5301	6386.79	12793.1	14298.8	-63.4699	0.0000000E+000	0.0000000E+000	0.0000000E+000	63.4699	0.0000000E+000	0.0000000E+000	0.0000000E+000	-63.4699	0.0000000E+000	0.0000000E+000	0.0000000E+000	-26.5301	0.0000000E+000	0.0000000E+000	0.0000000E+000	26.5301	2.00306	63.4699	5.50936e-08	-9.74034e-07	-1.282e-09	-9.72752e-07	0.193475	38531.7	50.7144	38481
1000.32	7.35888	4.09112	8.41964	-29.0716	7.1338	0.193709	-0.0049719	38.8901	9.18198	1	10	0.00512672	0.0006089	0	1.8563e-05	-1.23905e-05	7.84899e-06	67.7475	0.0128904	0.00488147	-0.0119304	-28.9845	8.41812	7.36376	4.07919	0.103806	0.0577106	0.11877	29.0716	9181.98	16516	18896.8	-60.9284	0.0000000E+000	0.0000000E+000	0.0000000E+000	60.9284	0.0000000E+000	0.0000000E+000	0.0000000E+000	-60.9284	0.0000000E+000	0.0000000E+000	0.0000000E+000	-29.0716	0.0000000E+000	0.0000000E+000	0.0000000E+000	29.0716	1.79874	60.9284	-5.80557e-07	-9.631e-07	6.16042e-11	-9.63161e-07	0.193721	38960.7	2.4921	38963.1
681.09	8.06515	5.05925	9.52064	-32.1	7.58456	0.193709	-0.00517314	46.1881	13.0428	1	10	0.00506129	0.000531612	0	1.83849e-05	0.00017859	7.70201e-06	100.081	0.014488	-0.00253597	-0.0142644	-32.0353	9.51092	8.06261	5.04499	0.0889774	0.0558154	0.105035	32.1	13042.8	20792	24544.2	-57.9	0.0000000E+000	0.0000000E+000	0.0000000E+000	57.9	0.0000000E+000	0.0000000E+000	0.0000000E+000	-57.9	0.0000000E+000	0.0000000E+000	0.0000000E+000	-32.1	0.0000000E+000	0.0000000E+000	0.0000000E+000	32.1	1.59414	57.9	-1.78047e-07	-1.00208e-06	-9.23871e-10	-1.00116e-06	0.19353	37445.1	34.5225	37410.5
463.961	8.99124	6.44702	11.0637	-35.6418	8.03636	0.193705	-0.00508743	53.2084	18.0673	1	10	0.00499537	0.000451508	0	1.75517e-05	-3.14885e-05	5.58296e-05	0.441503	0.123651	0.123648	-0.000952811	-35.268	11.1639	9.11489	6.44606	0.073454	0.0526689	0.0903853	35.6418	18067.3	25197.3	31005.4	-54.3582	0.0000000E+000	0.0000000E+000	0.0000000E+000	54.3582	0.0000000E+000	0.0000000E+000	0.0000000E+000	-54.3582	0.0000000E+000	0.0000000E+000	0.0000000E+000	-35.6418	0.0000000E+000	0.0000000E+000	0.0000000E+000	35.6418	1.39464	54.3582	-8.33169e-07	-9.85458e-07	1.60195e-10	-9.85618e-07	0.193736	38075.1	6.18948	38081.3
316.316	10.3618	8.17244	13.1968	-38.2632	8.48401	0.193699	-0.00499427	61.5669	23.611	1	10	0.00498005	0.000377368	0	1.7254e-05	6.40017e-05	9.62747e-06	3.44803	0.0255122	0.025466	-0.00153438	-38.1896	13.2158	10.3872	8.17091	0.0594974	0.0469262	0.075776	38.2632	23611	29936.2	38126.8	-51.7368	0.0000000E+000	0.0000000E+000	0.0000000E+000	51.7368	0.0000000E+000	0.0000000E+000	0.0000000E+000	-51.7368	0.0000000E+000	0.0000000E+000	0.0000000E+000	-38.2632	0.0000000E+000	0.0000000E+000	0.0000000E+000	38.2632	1.26789	51.7368	-2.97739e-07	-9.67385e-07	-3.19642e-10	-9.67065e-07	0.193635	38784.3	12.815	38771.4
215.345	12.4937	10.3135	16.2006	-39.5396	8.9346	0.1937	-0.00488247	71.6604	29.0422	1	10	0.00496626	0.000306547	0	1.68483e-05	0.000121296	5.75099e-06	0.551989	0.0187606	0.0187597	-0.000180737	-39.4969	16.215	12.5124	10.3133	0.0476021	0.0392955	0.061726	39.5396	29042.2	35181.3	45619.9	-50.4604	0.0000000E+000	0.0000000E+000	0.0000000E+000	50.4604	0.0000000E+000	0.0000000E+000	0.0000000E+000	-50.4604	0.0000000E+000	0.0000000E+000	0.0000000E+000	-39.5396	0.0000000E+000	0.0000000E+000	0.0000000E+000	39.5396	1.21139	50.4604	-4.05674e-07	-9.45735e-07	-5.92223e-10	-9.45143e-07	0.193579	39672.5	24.8431	39647.7
146.737	15.4383	12.5338	19.8856	-39.0719	9.38046	0.1937	-0.00516942	86.536	34.3784	1	10	0.00494221	0.000248533	0	1.59045e-05	0.000216786	8.97973e-06	-91.432	0.036131	-0.000902941	0.0361197	-39.1543	19.9077	15.4374	12.5699	0.0390411	0.0316961	0.0502877	39.0719	34378.4	42344.9	54543.2	-50.9281	0.0000000E+000	0.0000000E+000	0.0000000E+000	50.9281	0.0000000E+000	0.0000000E+000	0.0000000E+000	-50.9281	0.0000000E+000	0.0000000E+000	0.0000000E+000	-39.0719	0.0000000E+000	0.0000000E+000	0.0000000E+000	39.0719	1.23173	50.9281	-9.43831e-07	-1.00132e-06	-1.12066e-09	-1.00019e-06	0.193483	37470.3	41.9362	37428.4
100.032	19.6282	14.5352	24.4241	-36.521	10.0768	0.193728	-0.00590114	109.461	38.7672	1	11	0.00496336	0.000203216	0	1.4895e-05	0.00017859	4.59833e-06	-113.49	0.0226278	-0.0090193	0.0207526	-36.5727	24.4292	19.6191	14.556	0.0329035	0.024366	0.0409432	36.521	38767.2	52350.8	65142.2	-53.479	0.0000000E+000	0.0000000E+000	0.0000000E+000	53.479	0.0000000E+000	0.0000000E+000	0.0000000E+000	-53.479	0.0000000E+000	0.0000000E+000	0.0000000E+000	-36.521	0.0000000E+000	0.0000000E+000	0.0000000E+000	36.521	1.35039	53.479	-1.00946e-06	-1.14322e-06	-1.05388e-09	-1.14216e-06	0.19355	32829	30.2636	32798.7
68.104	24.615	15.5621	29.1217	-32.3019	10.5394	0.193737	-0.00565305	150.169	42.8826	1	11	0.00494434	0.000169782	0	1.40823e-05	0.000216786	7.94736e-06	-60.1119	0.0468092	0.0233254	0.0405836	-32.3448	29.1631	24.6383	15.6027	0.0290245	0.0183499	0.0343386	32.3019	42882.6	67828.6	80247.4	-57.6981	0.0000000E+000	0.0000000E+000	0.0000000E+000	57.6981	0.0000000E+000	0.0000000E+000	0.0000000E+000	-57.6981	0.0000000E+000	0.0000000E+000	0.0000000E+000	-32.3019	0.0000000E+000	0.0000000E+000	0.0000000E+000	32.3019	1.58173	57.6981	-8.12702e-07	-1.09521e-06	-1.2255e-09	-1.09398e-06	0.193521	34271.3	38.3485	34232.9
46.4415	29.8487	15.2032	33.4975	-26.9917	10.9757	0.193724	-0.0059627	225.413	46.4328	1	11	0.00494225	0.000147541	0	1.34571e-05	0.00036957	9.19111e-06	-15.3073	0.0622952	0.0600852	0.0164457	-26.9701	33.5585	29.9087	15.2196	0.0266012	0.0135491	0.029853	26.9917	46432.8	91162.2	102306	-63.0083	0.0000000E+000	0.0000000E+000	0.0000000E+000	63.0083	0.0000000E+000	0.0000000E+000	0.0000000E+000	-63.0083	0.0000000E+000	0.0000000E+000	0.0000000E+000	-26.9917	0.0000000E+000	0.0000000E+000	0.0000000E+000	26.9917	1.96332	63.0083	-6.25215e-07	-1.15512e-06	-2.20364e-09	-1.15291e-06	0.193354	32489.3	61.9804	32427.3
31.6296	34.44	13.6232	37.0365	-21.5819	11.4056	0.193721	-0.00603022	369.358	49.9742	1	11	0.00493677	0.000133295	0	1.24745e-05	0.000235884	1.26658e-05	112.299	0.0950211	-0.0360549	-0.087915	-21.4758	36.9707	34.4039	13.5353	0.0251074	0.00993159	0.0270004	21.5819	49974.2	126337	135862	-68.4181	0.0000000E+000	0.0000000E+000	0.0000000E+000	68.4181	0.0000000E+000	0.0000000E+000	0.0000000E+000	-68.4181	0.0000000E+000	0.0000000E+000	0.0000000E+000	-21.5819	0.0000000E+000	0.0000000E+000	0.0000000E+000	21.5819	2.52804	68.4181	-9.82664e-07	-1.16818e-06	-1.42243e-09	-1.16676e-06	0.193485	32125	39.117	32085.9
21.5517	37.9811	11.3378	39.6372	-16.6209	11.8264	0.193699	-0.00627905	651.345	53.2917	1	11	0.00493259	0.000124444	0	1.16809e-05	0.000140394	6.42909e-06	30.4976	0.0516626	0.0445151	-0.0262189	-16.5663	39.6723	38.0256	11.3115	0.0241747	0.00721642	0.0252288	16.6209	53291.8	178525	186310	-73.3791	0.0000000E+000	0.0000000E+000	0.0000000E+000	73.3791	0.0000000E+000	0.0000000E+000	0.0000000E+000	-73.3791	0.0000000E+000	0.0000000E+000	0.0000000E+000	-16.6209	0.0000000E+000	0.0000000E+000	0.0000000E+000	16.6209	3.34996	73.3791	-7.93523e-07	-1.21625e-06	-8.8154e-10	-1.21537e-06	0.193559	30848.5	22.3591	30826.1
14.6852	40.387	9.19187	41.4198	-12.8218	12.2872	0.193719	-0.00552398	1179.07	58.067	1	11	0.00493628	0.000119177	0	1.05313e-05	0.000312276	4.07625e-06	37.1911	0.0342034	0.0272472	-0.0206751	-12.7856	41.4418	40.4143	9.1712	0.023541	0.00535781	0.024143	12.8218	58067	255133	261658	-77.1782	0.0000000E+000	0.0000000E+000	0.0000000E+000	77.1782	0.0000000E+000	0.0000000E+000	0.0000000E+000	-77.1782	0.0000000E+000	0.0000000E+000	0.0000000E+000	-12.8218	0.0000000E+000	0.0000000E+000	0.0000000E+000	12.8218	4.39377	77.1782	-1.14964e-06	-1.0701e-06	-1.72501e-09	-1.06838e-06	0.193407	35068.8	56.531	35012.3
10.0032	41.9719	7.37114	42.6142	-9.96076	12.7378	0.193715	-0.00567581	2158.47	64.5813	1	11	0.004938	0.000115877	0	1.07445e-05	0.000235884	7.405e-06	45.79	0.063904	0.0445596	-0.0458056	-9.8898	42.6502	42.0164	7.32533	0.0231126	0.00405906	0.0234663	9.96076	64581.2	367731	373359	-80.0392	0.0000000E+000	0.0000000E+000	0.0000000E+000	80.0392	0.0000000E+000	0.0000000E+000	0.0000000E+000	-80.0392	0.0000000E+000	0.0000000E+000	0.0000000E+000	-9.96076	0.0000000E+000	0.0000000E+000	0.0000000E+000	9.96076	5.69408	80.0392	2.13209e-07	-1.09949e-06	-1.33883e-09	-1.09815e-06	0.193479	34129.9	41.5595	34088.3
6.81719	43.0749	6.01127	43.4923	-7.94454	13.0775	0.193709	-0.00585637	3883.73	74.1917	1	11	0.00493417	0.000113449	0	9.17311e-06	0.000331374	7.30591e-06	-3.4543	0.064398	0.064281	0.00388013	-7.93791	43.5565	43.1392	6.01515	0.0227719	0.0031779	0.0229926	7.94454	74191.8	531635	536787	-82.0555	0.0000000E+000	0.0000000E+000	0.0000000E+000	82.0555	0.0000000E+000	0.0000000E+000	0.0000000E+000	-82.0555	0.0000000E+000	0.0000000E+000	0.0000000E+000	-7.94454	0.0000000E+000	0.0000000E+000	0.0000000E+000	7.94454	7.16569	82.0555	-1.57139e-06	-1.13444e-06	-1.94065e-09	-1.13249e-06	0.193378	33076.7	56.5835	33020.1
4.63925	43.9393	4.93184	44.2152	-6.4042	13.5625	0.193706	-0.00557247	6956.06	86.5443	1	11	0.00493017	0.000111504	0	8.58179e-06	0.000331374	9.97859e-06	35.5097	0.0894909	0.0728471	-0.05198	-6.32685	44.2818	44.0121	4.87986	0.0224755	0.0025227	0.0226167	6.4042	86544.3	771050	775892	-83.5958	0.0000000E+000	0.0000000E+000	0.0000000E+000	83.5958	0.0000000E+000	0.0000000E+000	0.0000000E+000	-83.5958	0.0000000E+000	0.0000000E+000	0.0000000E+000	-6.4042	0.0000000E+000	0.0000000E+000	0.0000000E+000	6.4042	8.90931	83.5958	-5.91323e-07	-1.07942e-06	-1.84657e-09	-1.07757e-06	0.193374	34761.1	59.4663	34701.7
3.1604	44.682	4.46198	44.9043	-5.70268	14.2555	0.193709	-0.00541989	11286.3	111.437	1	11	0.00493969	0.000110005	0	9.09282e-06	-1.23905e-05	7.52415e-06	-78.0585	0.0683983	0.0141525	0.0669181	-5.78581	44.9251	44.6962	4.52889	0.0221594	0.00221285	0.0222696	5.70268	111437	1.11593e+06	1.12148e+06	-84.2973	0.0000000E+000	0.0000000E+000	0.0000000E+000	84.2973	0.0000000E+000	0.0000000E+000	0.0000000E+000	-84.2973	0.0000000E+000	0.0000000E+000	0.0000000E+000	-5.70268	0.0000000E+000	0.0000000E+000	0.0000000E+000	5.70268	10.014	84.2973	5.11029e-07	-1.04988e-06	6.7155e-11	-1.04995e-06	0.193721	35740.3	2.28611	35742.6
2.15577	45.4312	3.97227	45.6046	-4.99694	15.2591	0.193714	-0.00445171	18585.7	141.007	1	11	0.00493171	0.000108141	0	8.65679e-06	0.00017859	3.21778e-06	46.6179	0.0297555	0.0204379	-0.021626	-4.96765	45.6231	45.4517	3.95065	0.0218443	0.00190995	0.0219276	4.99694	141007	1.61271e+06	1.61886e+06	-85.0031	0.0000000E+000	0.0000000E+000	0.0000000E+000	85.0031	0.0000000E+000	0.0000000E+000	0.0000000E+000	-85.0031	0.0000000E+000	0.0000000E+000	0.0000000E+000	-4.99694	0.0000000E+000	0.0000000E+000	0.0000000E+000	4.99694	11.4371	85.0031	-4.36029e-07	-8.62356e-07	-7.9503e-10	-8.61561e-07	0.193535	43514.4	40.1172	43474.3
1.46631	46.1533	3.86954	46.3153	-4.79252	17.4475	0.193721	-0.00411358	28050.2	195.797	1	12	0.00493429	0.000106537	0	4.45936e-06	0.00027408	2.51339e-06	86.3498	0.0235918	0.00150198	-0.0235439	-4.76334	46.3148	46.1548	3.84599	0.0215157	0.00180389	0.0215912	4.79252	195796	2.33533e+06	2.34353e+06	-85.2075	0.0000000E+000	0.0000000E+000	0.0000000E+000	85.2075	0.0000000E+000	0.0000000E+000	0.0000000E+000	-85.2075	0.0000000E+000	0.0000000E+000	0.0000000E+000	-4.79252	0.0000000E+000	0.0000000E+000	0.0000000E+000	4.79252	11.9274	85.2075	-4.19743e-06	-7.96886e-07	-1.12745e-09	-7.95758e-07	0.193447	47093	66.6282	47026.4
1.00006	46.9614	3.7398	47.1101	-4.55318	19.577	0.193717	-0.00403301	42554.3	268.172	1	12	0.00493619	0.00010478	0	-1.21555e-06	0.000159492	2.60735e-06	5.00152	0.0248841	0.0247893	-0.00216945	-4.54816	47.1346	46.9862	3.73763	0.0211599	0.00168508	0.0212269	4.55318	268172	3.36749e+06	3.37815e+06	-85.4468	0.0000000E+000	0.0000000E+000	0.0000000E+000	85.4468	0.0000000E+000	0.0000000E+000	0.0000000E+000	-85.4468	0.0000000E+000	0.0000000E+000	0.0000000E+000	-4.55318	0.0000000E+000	0.0000000E+000	0.0000000E+000	4.55318	12.5572	85.4468	-5.67491e-06	-7.81263e-07	-6.43233e-10	-7.8062e-07	0.193557	48032.8	39.5466	47993.2
0.681362	47.7823	3.74288	47.9287	-4.47894	22.6891	0.193717	-0.00395103	62407.5	380.589	1	12	0.00493403	0.000102945	0	-7.09362e-06	0.000254982	1.95847e-06	-9.2848	0.0190244	0.0187752	0.00306944	-4.48084	47.9476	47.8011	3.74595	0.0208006	0.00162935	0.0208643	4.47894	380589	4.85868e+06	4.87356e+06	-85.5211	0.0000000E+000	0.0000000E+000	0.0000000E+000	85.5211	0.0000000E+000	0.0000000E+000	0.0000000E+000	-85.5211	0.0000000E+000	0.0000000E+000	0.0000000E+000	-4.47894	0.0000000E+000	0.0000000E+000	0.0000000E+000	4.47894	12.7662	85.5211	-5.87807e-06	-7.65383e-07	-1.00744e-09	-7.64376e-07	0.193462	49029.6	64.5356	48965.1
0.464091	48.5144	3.84231	48.6663	-4.52834	27.2457	0.193715	-0.00398473	89253.4	556.356	1	12	0.00493074	0.000101317	0	-1.07176e-05	2.58056e-05	5.71989e-06	127.087	0.0564553	-0.0340441	-0.0450355	-4.47861	48.6289	48.4804	3.79727	0.0204839	0.00162232	0.0205481	4.52834	556356	7.02475e+06	7.04675e+06	-85.4717	0.0000000E+000	0.0000000E+000	0.0000000E+000	85.4717	0.0000000E+000	0.0000000E+000	0.0000000E+000	-85.4717	0.0000000E+000	0.0000000E+000	0.0000000E+000	-4.52834	0.0000000E+000	0.0000000E+000	0.0000000E+000	4.52834	12.6264	85.4717	-3.62402e-06	-7.719e-07	-1.02828e-10	-7.71797e-07	0.193689	48614.3	6.47613	48607.8
0.316193	49.2576	4.11459	49.4292	-4.77495	33.919	0.193721	-0.00357799	122332	847.672	1	12	0.00493548	9.98495e-05	0	-1.01288e-05	0.00017859	3.19084e-06	-13.0736	0.0319565	0.0311282	0.00722863	-4.78029	49.4608	49.2887	4.12182	0.0201608	0.00168407	0.020231	4.77495	847672	1.01479e+07	1.01832e+07	-85.2251	0.0000000E+000	0.0000000E+000	0.0000000E+000	85.2251	0.0000000E+000	0.0000000E+000	0.0000000E+000	-85.2251	0.0000000E+000	0.0000000E+000	0.0000000E+000	-4.77495	0.0000000E+000	0.0000000E+000	0.0000000E+000	4.77495	11.9715	85.2251	5.88856e-07	-6.9313e-07	-6.38993e-10	-6.92491e-07	0.193542	54142.3	49.9135	54092.4
0.215268	49.975	4.37913	50.1665	-5.00783	43.7123	0.193742	-0.00269402	168831	1286.47	1	12	0.00493003	9.82733e-05	0	-4.95077e-06	6.70757e-06	1.20206e-06	-1.45589	0.0122318	0.0122279	0.000310779	-5.00696	50.1787	49.9873	4.37944	0.0198575	0.00174004	0.0199336	5.00783	1.28647e+06	1.46813e+07	1.47376e+07	-84.9922	0.0000000E+000	0.0000000E+000	0.0000000E+000	84.9922	0.0000000E+000	0.0000000E+000	0.0000000E+000	-84.9922	0.0000000E+000	0.0000000E+000	0.0000000E+000	-5.00783	0.0000000E+000	0.0000000E+000	0.0000000E+000	5.00783	11.4121	84.9922	5.17801e-06	-5.21945e-07	-1.80703e-11	-5.21927e-07	0.193735	71915.5	2.4898	71913
0.146929	50.7414	4.94694	50.982	-5.56835	58.0505	0.193728	-0.00192814	218966	2061.66	1	12	0.00493801	9.68579e-05	0	-4.91493e-07	0.00036957	8.94109e-07	58.632	0.00923114	0.00480512	-0.00788193	-5.55901	50.986	50.7462	4.93906	0.0195222	0.00190328	0.0196148	5.56835	2.06166e+06	2.11467e+07	2.12469e+07	-84.4316	0.0000000E+000	0.0000000E+000	0.0000000E+000	84.4316	0.0000000E+000	0.0000000E+000	0.0000000E+000	-84.4316	0.0000000E+000	0.0000000E+000	0.0000000E+000	-5.56835	0.0000000E+000	0.0000000E+000	0.0000000E+000	5.56835	10.2571	84.4316	4.45927e-06	-3.73535e-07	-7.12585e-10	-3.72822e-07	0.193358	100474	191.671	100282
0.0999041	51.5811	5.93508	51.9215	-6.56376	79.1266	0.193735	-0.000849021	268417	3507.27	1	12	0.00493752	9.5096e-05	0	-3.53278e-06	0.00027408	1.90999e-06	-39.1558	0.0200849	0.0155745	0.0126823	-6.5757	51.9384	51.5967	5.94776	0.0191336	0.00220157	0.0192599	6.56376	3.50727e+06	3.04813e+07	3.06824e+07	-83.4362	0.0000000E+000	0.0000000E+000	0.0000000E+000	83.4362	0.0000000E+000	0.0000000E+000	0.0000000E+000	-83.4362	0.0000000E+000	0.0000000E+000	0.0000000E+000	-6.56376	0.0000000E+000	0.0000000E+000	0.0000000E+000	6.56376	8.69089	83.4362	-3.04128e-06	-1.64485e-07	-2.327e-10	-1.64252e-07	0.19346	228186	322.819	227863
0.0680626	52.406	7.45685	52.9338	-8.09826	110.055	0.193729	-0.000220473	313586	6223	1	12	0.00492905	9.31172e-05	0	-2.25342e-05	0.00017859	1.54424e-06	36.6698	0.0165839	0.0133017	-0.00990392	-8.08562	52.9456	52.4193	7.44694	0.0187031	0.00266127	0.0188915	8.09826	6.22301e+06	4.37346e+07	4.41752e+07	-81.9017	0.0000000E+000	0.0000000E+000	0.0000000E+000	81.9017	0.0000000E+000	0.0000000E+000	0.0000000E+000	-81.9017	0.0000000E+000	0.0000000E+000	0.0000000E+000	-8.09826	0.0000000E+000	0.0000000E+000	0.0000000E+000	8.09826	7.0279	81.9017	-1.90014e-05	-4.27121e-08	-3.93743e-11	-4.26728e-08	0.193551	878697	810.03	877887
0.0464052	53.2578	9.44496	54.0888	-10.0565	155.406	0.193726	-0.000156793	363123	11072.3	1	12	0.00493467	9.12328e-05	0	-7.64017e-05	0.000197688	1.06817e-06	10.6829	0.0117082	0.0115052	-0.00217038	-10.0521	54.0997	53.2693	9.44279	0.0182041	0.00322839	0.0184881	10.0565	1.10723e+07	6.24341e+07	6.34083e+07	-79.9435	0.0000000E+000	0.0000000E+000	0.0000000E+000	79.9435	0.0000000E+000	0.0000000E+000	0.0000000E+000	-79.9435	0.0000000E+000	0.0000000E+000	0.0000000E+000	-10.0565	0.0000000E+000	0.0000000E+000	0.0000000E+000	10.0565	5.63875	79.9435	-5.38675e-05	-3.03748e-08	-3.0996e-11	-3.03438e-08	0.193528	1.23555e+06	1260.82	1.23429e+06
0.0315922	54.6414	12.1636	55.9789	-12.5499	222.011	0.193723	-0.000519249	414169	19554.9	1	12	0.00493328	8.81276e-05	0	-0.000162785	6.40017e-05	1.34131e-06	-22.7373	0.0152201	0.0140373	0.00588265	-12.5526	55.9939	54.6554	12.1695	0.0174371	0.00388164	0.0178639	12.5499	1.95549e+07	8.78443e+07	8.99945e+07	-77.4501	0.0000000E+000	0.0000000E+000	0.0000000E+000	77.4501	0.0000000E+000	0.0000000E+000	0.0000000E+000	-77.4501	0.0000000E+000	0.0000000E+000	0.0000000E+000	-12.5499	0.0000000E+000	0.0000000E+000	0.0000000E+000	12.5499	4.49219	77.4501	-8.63836e-05	-1.00591e-07	-3.32328e-11	-1.00557e-07	0.193659	373083	123.258	372960
0.0215268	56.7627	16.2821	59.0518	-16.0052	319.75	0.19372	-0.000763371	454079	34521.1	1	12	0.00493902	8.36389e-05	0	-0.0002485	-0.000126979	1.32495e-06	16.8725	0.0158413	0.0151594	-0.00459785	-15.9969	59.0651	56.7779	16.2775	0.0162779	0.00466921	0.0169343	16.0052	3.45211e+07	1.20348e+08	1.25201e+08	-73.9948	0.0000000E+000	0.0000000E+000	0.0000000E+000	73.9948	0.0000000E+000	0.0000000E+000	0.0000000E+000	-73.9948	0.0000000E+000	0.0000000E+000	0.0000000E+000	-16.0052	0.0000000E+000	0.0000000E+000	0.0000000E+000	16.0052	3.48621	73.9948	-8.57145e-05	-1.4788e-07	9.69319e-11	-1.47977e-07	0.193847	253769	166.339	253935
0.0146812	59.1369	22.1131	63.1361	-20.5023	463.051	0.193716	-0.000788199	490241	60138.6	1	12	0.00493449	7.81563e-05	0	-0.00026244	0.000350472	1.54616e-06	-18.4991	0.0197829	0.0187607	0.0062769	-20.5017	63.1559	59.1557	22.1194	0.0148355	0.00554746	0.0158388	20.5023	6.01386e+07	1.60828e+08	1.71704e+08	-69.4977	0.0000000E+000	0.0000000E+000	0.0000000E+000	69.4977	0.0000000E+000	0.0000000E+000	0.0000000E+000	-69.4977	0.0000000E+000	0.0000000E+000	0.0000000E+000	-20.5023	0.0000000E+000	0.0000000E+000	0.0000000E+000	20.5023	2.67429	69.4977	-1.39398e-05	-1.52686e-07	-2.76242e-10	-1.5241e-07	0.193365	245770	444.65	245325
0.0100092	61.9362	29.0842	68.425	-25.154	673.233	0.193722	-0.000494761	546720	98775.5	1	12	0.00493463	7.21174e-05	0	-0.000133674	0.000312276	2.80883e-06	25.3164	0.0389481	0.0352075	-0.0166548	-25.1288	68.4498	61.9714	29.0675	0.0132286	0.00621194	0.0146145	25.154	9.87755e+07	2.10347e+08	2.32385e+08	-64.846	0.0000000E+000	0.0000000E+000	0.0000000E+000	64.846	0.0000000E+000	0.0000000E+000	0.0000000E+000	-64.846	0.0000000E+000	0.0000000E+000	0.0000000E+000	-25.154	0.0000000E+000	0.0000000E+000	0.0000000E+000	25.154	2.12955	64.846	0.000128766	-9.58462e-08	-1.54502e-10	-9.56917e-08	0.19341	391548	631.166	390916