File: txt/19140_R306_UA703_SOC00_C04.mpt
EC-Lab ASCII FILE
Nb header lines : 65

Potentio Electrochemical Impedance Spectroscopy

Run on channel : 4 (SN 66756)
Grouped channel(s) : 1, 2, 3, 4, 5
User :
CE vs. WE compliance from -10 V to 10 V
Electrode connection : standard
Potential control : Ewe
Ewe ctrl range : min = -10.00 V, max = 10.00 V
Safety Limits :
	Do not start on E overload
Acquisition started on : 11/12/2025 11:20:24.450
Loaded Setting File :  C:\Users\Celltest\OneDrive - store-dot.com\Documents\EC-Lab\Data\@Biologic Test Protocols\anode half cell EIS SOC00.mps
Saved on :
	File : 19137_R306_UA703_SOC00_C04.mpr
	Directory : C:\Users\Celltest\OneDrive - store-dot.com\Documents\EC-Lab\Data\Charmaine\
	Host : 169.254.61.224
Device : VMP-3e (SN .003165)
Address : USB
EC-LAB for windows v11.62 (software)
Internet server v27.00 (firmware)
Command interpretor v12.03 (firmware)
Electrode material :
Initial state :
Electrolyte :
Comments :
Electrode surface area : 0.001 cm²
Characteristic mass : 0.001 g
Equivalent Weight : 0.000 g/eq.
Density : 0.000 g/cm3
Volume (V) : 0.001 cm³
Record Ece
Cycle Definition : Charge/Discharge alternance
Mode                Single sine
E (V)               0.0000
vs.                 Eoc
tE (h:m:s)          0:00:0.0000
record              0
dI                  0.000
unit dI             mA
dt (s)              0.000
fi                  100.000
unit fi             kHz
ff                  10.000
unit ff             mHz
Nd                  6
Points              per decade
spacing             Logarithmic
Va (mV)             5.0
pw                  0.10
Na                  2
corr                0
E range min (V)     -10.000
E range max (V)     10.000
I Range             Auto
Bandwidth           5
nc cycles           0
goto Ns'            0
nr cycles           0
inc. cycle          0

freq/Hz	Re(Z)/Ohm	-Im(Z)/Ohm	|Z|/Ohm	Phase(Z)/deg	time/s	<Ewe>/V	<I>/mA	Cs/µF	Cp/µF	cycle number	I Range	|Ewe|/V	|I|/A	Ns	(Q-Qo)/mA.h	<Ece>/V	|Ece|/V	Phase(Zce)/deg	|Zce|/Ohm	Re(Zce)/Ohm	-Im(Zce)/Ohm	Phase(Zwe-ce)/deg	|Zwe-ce|/Ohm	Re(Zwe-ce)/Ohm	-Im(Zwe-ce)/Ohm	Re(Y)/Ohm-1	Im(Y)/Ohm-1	|Y|/Ohm-1	Phase(Y)/deg	Re(C)/nF	Im(C)/nF	|C|/nF	Phase(C)/deg	Re(M)	Im(M)	|M|	Phase(M)/deg	Re(Permittivity)	Im(Permittivity)	|Permittivity|	Phase(Permittivity)/deg	Re(Resistivity)/Ohm.cm	Im(Resistivity)/Ohm.cm	|Resistivity|/Ohm.cm	Phase(Resistivity)/deg	Re(Conductivity)/mS/cm	Im(Conductivity)/mS/cm	|Conductivity|/mS/cm	Phase(Conductivity)/deg	Tan(Delta)	Loss Angle(Delta)/deg	dq/mA.h	Pwe/W	Pce/W	Pwe-ce/W	<Ewe-Ece>/V	Rwe/Ohm	Rce/Ohm	Rwe-ce/Ohm		Ewe-Ece/V
100004	1.20809	0.49528	1.30567	-22.2921	1.91052	0.26543	-0.0279956	3.21331	0.462365	1	9	0.00478891	0.00366777	0	-4.70581e-06	-0.00017163	3.07849e-05	96.4435	0.00839334	-0.000941922	-0.00834032	-21.9682	1.30166	1.20715	0.48694	0.708647	0.290523	0.765888	22.2921	462.365	1127.8	1218.9	-67.7079	0.0000000E+000	0.0000000E+000	0.0000000E+000	67.7079	0.0000000E+000	0.0000000E+000	0.0000000E+000	-67.7079	0.0000000E+000	0.0000000E+000	0.0000000E+000	-22.2921	0.0000000E+000	0.0000000E+000	0.0000000E+000	22.2921	2.43921	67.7079	-4.70581e-06	-7.43086e-06	4.80488e-09	-7.43566e-06	0.265602	9481.14	6.13061	9487.27
68132	1.33538	0.552027	1.44498	-22.4596	2.41755	0.265451	-0.0301961	4.23163	0.617597	1	9	0.00501178	0.00346841	0	-2.8244e-06	3.5964e-07	4.57827e-05	112.983	0.0131999	-0.00515397	-0.0121521	-22.0899	1.4356	1.33022	0.539875	0.639559	0.264385	0.692051	22.4596	617.597	1493.99	1616.62	-67.5405	0.0000000E+000	0.0000000E+000	0.0000000E+000	67.5405	0.0000000E+000	0.0000000E+000	0.0000000E+000	-67.5405	0.0000000E+000	0.0000000E+000	0.0000000E+000	-22.4596	0.0000000E+000	0.0000000E+000	0.0000000E+000	22.4596	2.41904	67.5405	1.88141e-06	-8.01557e-06	-1.08597e-11	-8.01556e-06	0.26545	8790.89	0.0119101	8790.88
46420.4	1.49974	0.598488	1.61475	-21.755	2.92654	0.265457	-0.0187831	5.7287	0.786968	1	9	0.00507612	0.0031436	0	-9.52237e-06	-0.00017163	7.71923e-06	27.9695	0.00245554	0.00216873	-0.00115165	-21.6886	1.61634	1.50191	0.597336	0.575184	0.229533	0.619291	21.755	786.968	1972.05	2123.28	-68.245	0.0000000E+000	0.0000000E+000	0.0000000E+000	68.245	0.0000000E+000	0.0000000E+000	0.0000000E+000	-68.245	0.0000000E+000	0.0000000E+000	0.0000000E+000	-21.755	0.0000000E+000	0.0000000E+000	0.0000000E+000	21.755	2.50589	68.245	-6.69797e-06	-4.98611e-06	3.22375e-09	-4.98933e-06	0.265628	14132.7	9.13745	14141.9
31621.1	1.64966	0.646819	1.77194	-21.4097	3.43352	0.265437	-0.0310539	7.78144	1.03688	1	9	0.00521078	0.00294073	0	-2.36845e-05	-0.00024807	1.36105e-05	62.6266	0.00462827	0.00212802	-0.00411004	-21.2609	1.77242	1.65179	0.642709	0.52541	0.206009	0.564354	21.4097	1036.88	2644.48	2840.5	-68.5903	0.0000000E+000	0.0000000E+000	0.0000000E+000	68.5903	0.0000000E+000	0.0000000E+000	0.0000000E+000	-68.5903	0.0000000E+000	0.0000000E+000	0.0000000E+000	-21.4097	0.0000000E+000	0.0000000E+000	0.0000000E+000	21.4097	2.55042	68.5903	-1.41621e-05	-8.24288e-06	7.70354e-09	-8.25058e-06	0.265686	8547.63	7.98835	8555.61
21544.7	1.81314	0.701402	1.94408	-21.1486	3.69253	0.265438	-0.0297113	10.532	1.37094	1	9	0.00522297	0.0026866	0	-2.49413e-05	-0.000515609	5.30326e-06	-44.2121	0.00197396	0.00141486	0.00137648	-21.1714	1.9459	1.81456	0.702779	0.479737	0.185583	0.514382	21.1486	1370.94	3543.92	3799.84	-68.8514	0.0000000E+000	0.0000000E+000	0.0000000E+000	68.8514	0.0000000E+000	0.0000000E+000	0.0000000E+000	-68.8514	0.0000000E+000	0.0000000E+000	0.0000000E+000	-21.1486	0.0000000E+000	0.0000000E+000	0.0000000E+000	21.1486	2.58502	68.8514	-1.25682e-06	-7.88651e-06	1.53194e-08	-7.90183e-06	0.265954	8933.94	17.354	8951.29
14678.6	1.97936	0.753362	2.11788	-20.8373	4.07555	0.265435	-0.0394831	14.3924	1.82111	1	9	0.00479932	0.00226609	0	-2.85779e-05	-5.69702e-05	1.25403e-05	-45.8172	0.0055339	0.00385685	0.00396847	-20.9003	2.1229	1.98322	0.757331	0.441287	0.167958	0.47217	20.8373	1821.11	4784.73	5119.57	-69.1627	0.0000000E+000	0.0000000E+000	0.0000000E+000	69.1627	0.0000000E+000	0.0000000E+000	0.0000000E+000	-69.1627	0.0000000E+000	0.0000000E+000	0.0000000E+000	-20.8373	0.0000000E+000	0.0000000E+000	0.0000000E+000	20.8373	2.62737	69.1627	-3.63661e-06	-1.04802e-05	2.24936e-09	-1.04824e-05	0.265492	6722.73	1.4429	6724.17
10002.2	2.14569	0.814153	2.29496	-20.7786	4.45855	0.265451	-0.031688	19.5442	2.45968	1	9	0.00498348	0.00217149	0	-3.30683e-05	7.67995e-05	5.39396e-06	4.91489	0.00248399	0.00247486	-0.000212818	-20.7517	2.2972	2.14817	0.81394	0.407397	0.154581	0.435738	20.7786	2459.68	6482.48	6933.44	-69.2215	0.0000000E+000	0.0000000E+000	0.0000000E+000	69.2215	0.0000000E+000	0.0000000E+000	0.0000000E+000	-69.2215	0.0000000E+000	0.0000000E+000	0.0000000E+000	-20.7786	0.0000000E+000	0.0000000E+000	0.0000000E+000	20.7786	2.63549	69.2215	-4.49037e-06	-8.41163e-06	-2.43362e-09	-8.40919e-06	0.265375	8377.03	2.42361	8374.6
6810.42	2.36411	0.903296	2.5308	-20.9112	4.71756	0.265452	-0.0319864	25.8712	3.29579	1	9	0.00483532	0.00191059	0	-3.5546e-05	-0.00026718	0.000100221	1.42627	0.0524555	0.0524393	-0.00130565	-20.4684	2.5794	2.41655	0.901991	0.369106	0.141031	0.395132	20.9112	3295.79	8625.76	9233.96	-69.0888	0.0000000E+000	0.0000000E+000	0.0000000E+000	69.0888	0.0000000E+000	0.0000000E+000	0.0000000E+000	-69.0888	0.0000000E+000	0.0000000E+000	0.0000000E+000	-20.9112	0.0000000E+000	0.0000000E+000	0.0000000E+000	20.9112	2.6172	69.0888	-2.4777e-06	-8.49086e-06	8.54612e-09	-8.49941e-06	0.265719	8298.91	8.35291	8307.26
4646	2.5091	0.994649	2.69905	-21.6242	4.98261	0.26542	-0.0509334	34.4406	4.67722	1	9	0.00462749	0.00171449	0	-3.86185e-05	-7.60802e-05	1.03325e-05	57.9577	0.00602661	0.00319739	-0.0051085	-21.4985	2.70015	2.51229	0.989541	0.344425	0.136536	0.3705	21.6242	4677.22	11798.7	12692	-68.3758	0.0000000E+000	0.0000000E+000	0.0000000E+000	68.3758	0.0000000E+000	0.0000000E+000	0.0000000E+000	-68.3758	0.0000000E+000	0.0000000E+000	0.0000000E+000	-21.6242	0.0000000E+000	0.0000000E+000	0.0000000E+000	21.6242	2.52259	68.3758	-3.07256e-06	-1.35187e-05	3.87503e-09	-1.35226e-05	0.265496	5211.11	1.49372	5212.6
3163.08	2.74167	1.14812	2.97236	-22.7223	5.35662	0.26523	-0.085247	43.825	6.53874	1	9	0.00456547	0.00153597	0	-4.78129e-05	-0.00017163	1.2356e-05	-100.542	0.00804441	-0.00147184	0.00790862	-22.8738	2.97407	2.7402	1.15603	0.310321	0.129952	0.336433	22.7223	6538.74	15614.3	16928.1	-67.2777	0.0000000E+000	0.0000000E+000	0.0000000E+000	67.2777	0.0000000E+000	0.0000000E+000	0.0000000E+000	-67.2777	0.0000000E+000	0.0000000E+000	0.0000000E+000	-22.7223	0.0000000E+000	0.0000000E+000	0.0000000E+000	22.7223	2.38796	67.2777	-9.19441e-06	-2.261e-05	1.46309e-08	-2.26247e-05	0.265401	3111.31	2.01333	3113.32
2155.69	3.00407	1.29333	3.27065	-23.2932	5.80878	0.265454	0.0405195	57.0851	8.92639	1	9	0.00450858	0.00137849	0	-4.43941e-05	3.5964e-07	1.10125e-05	-30.3081	0.00798879	0.00689692	0.00403154	-23.3102	3.27858	3.01097	1.29737	0.280829	0.120904	0.305749	23.2932	8926.39	20733.6	22573.5	-66.7068	0.0000000E+000	0.0000000E+000	0.0000000E+000	66.7068	0.0000000E+000	0.0000000E+000	0.0000000E+000	-66.7068	0.0000000E+000	0.0000000E+000	0.0000000E+000	-23.2932	0.0000000E+000	0.0000000E+000	0.0000000E+000	23.2932	2.32274	66.7068	3.41881e-06	1.07561e-05	1.45724e-11	1.07561e-05	0.265454	6551.26	0.00887571	6551.25
1468.59	3.28295	1.48886	3.60478	-24.3949	6.50602	0.265384	-0.0177168	72.789	12.417	1	10	0.00464098	0.00128745	0	-4.49289e-05	-5.69702e-05	3.59107e-05	-120.783	0.0278928	-0.0142751	0.0239632	-24.8359	3.60178	3.26867	1.51282	0.252642	0.114577	0.277409	24.3949	12417	27379.5	30063.6	-65.6051	0.0000000E+000	0.0000000E+000	0.0000000E+000	65.6051	0.0000000E+000	0.0000000E+000	0.0000000E+000	-65.6051	0.0000000E+000	0.0000000E+000	0.0000000E+000	-24.3949	0.0000000E+000	0.0000000E+000	0.0000000E+000	24.3949	2.20501	65.6051	-5.34757e-07	-4.70176e-06	1.00933e-09	-4.70277e-06	0.265441	14979.2	3.2156	14982.4
1000.32	3.57117	1.75538	3.97927	-26.1761	6.95677	0.265365	-0.0191418	90.6377	17.6379	1	10	0.0045815	0.00115134	0	-4.6841e-05	-0.00036273	9.38163e-06	3.53799	0.00814844	0.00813291	-0.000502842	-26.1181	3.98635	3.5793	1.75488	0.225529	0.110857	0.251302	26.1761	17637.9	35882.6	39983.2	-63.8239	0.0000000E+000	0.0000000E+000	0.0000000E+000	63.8239	0.0000000E+000	0.0000000E+000	0.0000000E+000	-63.8239	0.0000000E+000	0.0000000E+000	0.0000000E+000	-26.1761	0.0000000E+000	0.0000000E+000	0.0000000E+000	26.1761	2.03441	63.8239	-1.91207e-06	-5.07956e-06	6.94328e-09	-5.0865e-06	0.265728	13863.2	18.9496	13882.1
681.09	3.93585	2.09615	4.45923	-28.0388	7.40757	0.265365	-0.0204473	111.479	24.633	1	10	0.00456446	0.0010236	0	-4.87508e-05	0.000229679	8.02126e-06	-52.7826	0.00783634	0.00473974	0.00624044	-28.0808	4.46635	3.94059	2.10239	0.197933	0.105415	0.224254	28.0388	24633	46252.4	52402.9	-61.9612	0.0000000E+000	0.0000000E+000	0.0000000E+000	61.9612	0.0000000E+000	0.0000000E+000	0.0000000E+000	-61.9612	0.0000000E+000	0.0000000E+000	0.0000000E+000	-28.0388	0.0000000E+000	0.0000000E+000	0.0000000E+000	28.0388	1.87766	61.9612	-1.90986e-06	-5.426e-06	-4.69632e-09	-5.42131e-06	0.265135	12978	11.2327	12966.7
463.961	4.36694	2.5559	5.05992	-30.3397	7.8593	0.265358	-0.0203839	134.213	34.2448	1	10	0.0045446	0.000898157	0	-5.13815e-05	-0.00015252	1.21502e-05	-35.3335	0.0135279	0.0110361	0.00782369	-30.353	5.07339	4.37798	2.56372	0.170565	0.0998288	0.197632	30.3397	34244.8	58509.9	67794.6	-59.6603	0.0000000E+000	0.0000000E+000	0.0000000E+000	59.6603	0.0000000E+000	0.0000000E+000	0.0000000E+000	-59.6603	0.0000000E+000	0.0000000E+000	0.0000000E+000	-30.3397	0.0000000E+000	0.0000000E+000	0.0000000E+000	30.3397	1.70858	59.6603	-2.63063e-06	-5.40903e-06	3.10896e-09	-5.41214e-06	0.26551	13018	7.48237	13025.5
316.316	4.91911	3.11722	5.82364	-32.3623	8.30709	0.265359	-0.0214806	161.41	46.2465	1	10	0.00450979	0.000774394	0	-5.34251e-05	0.000229679	1.20914e-05	-5.73336	0.0156141	0.0155359	0.00155983	-32.2936	5.8376	4.93465	3.11878	0.145043	0.0919135	0.171714	32.3623	46246.5	72978.9	86398.2	-57.6377	0.0000000E+000	0.0000000E+000	0.0000000E+000	57.6377	0.0000000E+000	0.0000000E+000	0.0000000E+000	-57.6377	0.0000000E+000	0.0000000E+000	0.0000000E+000	-32.3623	0.0000000E+000	0.0000000E+000	0.0000000E+000	32.3623	1.57804	57.6377	-2.04364e-06	-5.70008e-06	-4.93365e-09	-5.69515e-06	0.26513	12353.4	10.6924	12342.7
215.345	5.69117	3.80776	6.84752	-33.785	8.75654	0.265374	-0.0205294	194.096	60.0191	1	10	0.00450406	0.000657765	0	-5.5024e-05	-0.00032451	9.87867e-06	-22.9006	0.0150185	0.0138348	0.00584422	-33.7614	6.86227	5.70501	3.8136	0.121377	0.0812088	0.146038	33.785	60019.1	89706.1	107933	-56.215	0.0000000E+000	0.0000000E+000	0.0000000E+000	56.215	0.0000000E+000	0.0000000E+000	0.0000000E+000	-56.215	0.0000000E+000	0.0000000E+000	0.0000000E+000	-33.785	0.0000000E+000	0.0000000E+000	0.0000000E+000	33.785	1.49463	56.215	-1.59888e-06	-5.44796e-06	6.66199e-09	-5.45463e-06	0.265698	12926.5	15.8071	12942.3
146.737	6.76763	4.51118	8.13336	-33.6867	9.2025	0.265372	-0.0195297	240.43	73.9655	1	10	0.00449904	0.000553159	0	-5.66164e-05	-0.00028629	8.4911e-06	-2.99685	0.0153502	0.0153292	0.000802523	-33.6316	8.14657	6.78296	4.51198	0.102305	0.0681946	0.12295	33.6867	73965.5	110962	133355	-56.3133	0.0000000E+000	0.0000000E+000	0.0000000E+000	56.3133	0.0000000E+000	0.0000000E+000	0.0000000E+000	-56.3133	0.0000000E+000	0.0000000E+000	0.0000000E+000	-33.6867	0.0000000E+000	0.0000000E+000	0.0000000E+000	33.6867	1.50019	56.3133	-1.59242e-06	-5.18264e-06	5.59116e-09	-5.18823e-06	0.265658	13588.1	14.6592	13602.8
100.032	8.1324	5.1101	9.60464	-32.1437	9.65377	0.265363	-0.0198468	311.352	88.135	1	10	0.00449711	0.000468222	0	-5.95732e-05	-1.87503e-05	4.24372e-06	-27.8565	0.00906348	0.00801322	0.00423499	-32.1397	9.61368	8.14042	5.11433	0.088157	0.0553946	0.104116	32.1437	88135	140261	165653	-57.8563	0.0000000E+000	0.0000000E+000	0.0000000E+000	57.8563	0.0000000E+000	0.0000000E+000	0.0000000E+000	-57.8563	0.0000000E+000	0.0000000E+000	0.0000000E+000	-32.1437	0.0000000E+000	0.0000000E+000	0.0000000E+000	32.1437	1.59144	57.8563	-2.95682e-06	-5.2666e-06	3.72134e-10	-5.26697e-06	0.265381	13370.6	0.944753	13371.5
68.104	9.71609	5.54199	11.1855	-29.7001	10.3364	0.265375	-0.0161017	421.679	103.514	1	10	0.00498731	0.000445871	0	-6.2801e-05	-1.87503e-05	8.12574e-06	-2.5373	0.0182244	0.0182065	0.00080679	-29.6576	11.2017	9.7343	5.54279	0.0776566	0.0442948	0.0894012	29.7001	103514	181479	208925	-60.2999	0.0000000E+000	0.0000000E+000	0.0000000E+000	60.2999	0.0000000E+000	0.0000000E+000	0.0000000E+000	-60.2999	0.0000000E+000	0.0000000E+000	0.0000000E+000	-29.7001	0.0000000E+000	0.0000000E+000	0.0000000E+000	29.7001	1.75318	60.2999	-3.2278e-06	-4.27299e-06	3.01912e-10	-4.27329e-06	0.265394	16481.2	1.16449	16482.3
46.4415	11.3909	5.6008	12.6934	-26.1829	10.7727	0.265343	-0.0216336	611.876	119.127	1	10	0.00497757	0.00039214	0	-6.50048e-05	-3.78603e-05	5.13877e-06	-74.3547	0.0131044	0.00353403	0.0126189	-26.227	12.7021	11.3944	5.61342	0.0706976	0.0347613	0.0787813	26.1829	119127	242280	269983	-63.8171	0.0000000E+000	0.0000000E+000	0.0000000E+000	63.8171	0.0000000E+000	0.0000000E+000	0.0000000E+000	-63.8171	0.0000000E+000	0.0000000E+000	0.0000000E+000	-26.1829	0.0000000E+000	0.0000000E+000	0.0000000E+000	26.1829	2.0338	63.8171	-2.20381e-06	-5.74032e-06	8.19052e-10	-5.74114e-06	0.265381	12265.4	1.75007	12267.1
31.6296	13.0717	5.447	14.1612	-22.6216	11.2016	0.265361	-0.0239761	923.782	136.674	1	10	0.00498577	0.000352073	0	-6.77841e-05	-7.60802e-05	6.0602e-06	-67.4238	0.0172129	0.00660824	0.0158939	-22.6706	14.1734	13.0783	5.46289	0.0651828	0.0271618	0.0706155	22.6216	136674	327989	355326	-67.3784	0.0000000E+000	0.0000000E+000	0.0000000E+000	67.3784	0.0000000E+000	0.0000000E+000	0.0000000E+000	-67.3784	0.0000000E+000	0.0000000E+000	0.0000000E+000	-22.6216	0.0000000E+000	0.0000000E+000	0.0000000E+000	22.6216	2.3998	67.3784	-2.77929e-06	-6.36233e-06	1.82411e-09	-6.36415e-06	0.265437	11067.7	3.17317	11070.9
21.5517	14.618	5.11125	15.4858	-19.2724	11.8555	0.265405	-0.00391269	1444.81	157.397	1	11	0.00498619	0.000321984	0	-7.0216e-05	7.67995e-05	1.34952e-05	23.9018	0.0419125	0.0383181	-0.0169817	-19.1665	15.5164	14.6563	5.09427	0.0609564	0.0213137	0.0645752	19.2724	157397	450150	476874	-70.7276	0.0000000E+000	0.0000000E+000	0.0000000E+000	70.7276	0.0000000E+000	0.0000000E+000	0.0000000E+000	-70.7276	0.0000000E+000	0.0000000E+000	0.0000000E+000	-19.2724	0.0000000E+000	0.0000000E+000	0.0000000E+000	19.2724	2.85996	70.7276	-2.43185e-06	-1.03845e-06	-3.00492e-10	-1.03815e-06	0.265329	67832	19.6283	67812.4
14.6852	15.8874	4.69831	16.5675	-16.4743	12.3162	0.265414	-0.00299156	2306.74	185.51	1	11	0.00498679	0.000300998	0	-7.18845e-05	-5.69702e-05	4.63092e-06	44.5941	0.0153853	0.0109558	-0.0108017	-16.4278	16.575	15.8983	4.68751	0.0578811	0.0171169	0.060359	16.4743	185510	627304	654159	-73.5257	0.0000000E+000	0.0000000E+000	0.0000000E+000	73.5257	0.0000000E+000	0.0000000E+000	0.0000000E+000	-73.5257	0.0000000E+000	0.0000000E+000	0.0000000E+000	-16.4743	0.0000000E+000	0.0000000E+000	0.0000000E+000	16.4743	3.38151	73.5257	-1.66854e-06	-7.94003e-07	1.7043e-10	-7.94174e-07	0.265471	88721.1	19.0437	88740.1
10.0032	17.0447	4.20257	17.5551	-13.8507	12.7668	0.265402	-0.00358923	3785.88	216.964	1	11	0.00498629	0.000284036	0	-7.22772e-05	-0.00032451	1.26611e-05	82.5393	0.0445756	0.00578799	-0.0441982	-13.7061	17.5502	17.0505	4.15837	0.0553071	0.0136366	0.0569634	13.8507	216964	879958	906311	-76.1493	0.0000000E+000	0.0000000E+000	0.0000000E+000	76.1493	0.0000000E+000	0.0000000E+000	0.0000000E+000	-76.1493	0.0000000E+000	0.0000000E+000	0.0000000E+000	-13.8507	0.0000000E+000	0.0000000E+000	0.0000000E+000	13.8507	4.05577	76.1493	-3.92677e-07	-9.5259e-07	1.16474e-09	-9.53754e-07	0.265727	73944	90.412	74034.4
6.81719	18.0047	3.71559	18.3841	-11.6603	13.1065	0.265416	-0.00267333	6283.29	256.66	1	11	0.00498299	0.000271049	0	-7.37693e-05	0.000134129	8.97936e-06	23.8863	0.0331281	0.0302907	-0.0134143	-11.6004	18.411	18.035	3.70217	0.0532724	0.0109937	0.0543949	11.6603	256660	1.2437e+06	1.26991e+06	-78.3397	0.0000000E+000	0.0000000E+000	0.0000000E+000	78.3397	0.0000000E+000	0.0000000E+000	0.0000000E+000	-78.3397	0.0000000E+000	0.0000000E+000	0.0000000E+000	-11.6603	0.0000000E+000	0.0000000E+000	0.0000000E+000	11.6603	4.84572	78.3397	-1.49216e-06	-7.09543e-07	-3.58571e-10	-7.09184e-07	0.265282	99282.9	50.1732	99232.8
4.63925	18.8694	3.29408	19.1548	-9.90246	13.5905	0.265418	-0.00328406	10414.5	308	1	11	0.00499331	0.000260682	0	-7.12524e-05	5.76895e-05	1.12488e-05	-59.2434	0.0431516	0.0220674	0.0370822	-10.0002	19.183	18.8915	3.33116	0.0514284	0.00897797	0.0522062	9.90246	308000	1.76431e+06	1.79099e+06	-80.0975	0.0000000E+000	0.0000000E+000	0.0000000E+000	80.0975	0.0000000E+000	0.0000000E+000	0.0000000E+000	-80.0975	0.0000000E+000	0.0000000E+000	0.0000000E+000	-9.90246	0.0000000E+000	0.0000000E+000	0.0000000E+000	9.90246	5.72829	80.0975	2.51693e-06	-8.71647e-07	-1.89456e-10	-8.71457e-07	0.26536	80820.2	17.5665	80802.6
3.1604	19.5705	2.91143	19.7858	-8.46164	14.2834	0.265417	-0.00191393	17297	374.521	1	11	0.00498292	0.000251843	0	-7.05015e-05	-3.78603e-05	4.18682e-06	-5.86627	0.0166247	0.0165377	0.00169917	-8.45946	19.8024	19.587	2.91313	0.049991	0.007437	0.0505412	8.46164	374521	2.51751e+06	2.54521e+06	-81.5384	0.0000000E+000	0.0000000E+000	0.0000000E+000	81.5384	0.0000000E+000	0.0000000E+000	0.0000000E+000	-81.5384	0.0000000E+000	0.0000000E+000	0.0000000E+000	-8.46164	0.0000000E+000	0.0000000E+000	0.0000000E+000	8.46164	6.72194	81.5384	7.50927e-07	-5.07988e-07	7.24617e-11	-5.0806e-07	0.265454	138677	19.7815	138696
2.15577	20.1516	2.52244	20.3088	-7.1348	15.287	0.265424	-0.00101052	29268.3	451.512	1	11	0.00498821	0.000245618	0	-7.40933e-05	-0.00015252	4.67234e-06	56.5121	0.0190228	0.010496	-0.0158651	-7.08673	20.3173	20.1621	2.50658	0.0488584	0.00611577	0.0492396	7.1348	451512	3.60709e+06	3.63524e+06	-82.8652	0.0000000E+000	0.0000000E+000	0.0000000E+000	82.8652	0.0000000E+000	0.0000000E+000	0.0000000E+000	-82.8652	0.0000000E+000	0.0000000E+000	0.0000000E+000	-7.1348	0.0000000E+000	0.0000000E+000	0.0000000E+000	7.1348	7.98892	82.8652	-3.59184e-06	-2.68215e-07	1.54124e-10	-2.68369e-07	0.265576	262661	150.933	262812
1.46631	20.618	2.21616	20.7368	-6.13497	16.7485	0.265424	-0.00088901	48977.2	559.387	1	11	0.00498712	0.000240497	0	-8.00475e-05	9.59094e-05	1.77884e-06	-20.501	0.00739653	0.00692808	0.00259044	-6.14003	20.7439	20.6249	2.21875	0.0479473	0.00515369	0.0482235	6.13497	559387	5.20426e+06	5.23423e+06	-83.865	0.0000000E+000	0.0000000E+000	0.0000000E+000	83.865	0.0000000E+000	0.0000000E+000	0.0000000E+000	-83.865	0.0000000E+000	0.0000000E+000	0.0000000E+000	-6.13497	0.0000000E+000	0.0000000E+000	0.0000000E+000	6.13497	9.3035	83.865	-5.95422e-06	-2.35964e-07	-8.52644e-11	-2.35879e-07	0.265328	298561	107.883	298453
1.00006	21.0314	1.99431	21.1257	-5.41691	19.922	0.265418	-0.00137724	79799.3	711.152	1	12	0.00498923	0.000236168	0	-8.45603e-05	1.94696e-05	3.28038e-06	-24.1514	0.01389	0.0126742	0.0056831	-5.429	21.1389	21.0441	2	0.0471243	0.00446858	0.0473357	5.41691	711152	7.49958e+06	7.53322e+06	-84.5831	0.0000000E+000	0.0000000E+000	0.0000000E+000	84.5831	0.0000000E+000	0.0000000E+000	0.0000000E+000	-84.5831	0.0000000E+000	0.0000000E+000	0.0000000E+000	-5.41691	0.0000000E+000	0.0000000E+000	0.0000000E+000	5.41691	10.5457	84.5831	-4.51279e-06	-3.65543e-07	-2.68142e-11	-3.65516e-07	0.265398	192718	14.1367	192704
0.681362	21.3619	1.87694	21.4442	-5.02132	23.0342	0.265434	-0.0016423	124449	953.389	1	12	0.00498879	0.00023264	0	-8.08118e-05	0.000229679	5.12846e-06	-0.84013	0.0220446	0.0220422	0.000323229	-5.01703	21.4662	21.384	1.87726	0.0464536	0.00408158	0.0466326	5.02132	953389	1.08508e+07	1.08926e+07	-84.9787	0.0000000E+000	0.0000000E+000	0.0000000E+000	84.9787	0.0000000E+000	0.0000000E+000	0.0000000E+000	-84.9787	0.0000000E+000	0.0000000E+000	0.0000000E+000	-5.02132	0.0000000E+000	0.0000000E+000	0.0000000E+000	5.02132	11.3813	84.9787	3.74857e-06	-4.35922e-07	-3.77202e-10	-4.35545e-07	0.265204	161623	139.852	161483
0.464091	21.6372	1.86752	21.7177	-4.933	27.5908	0.26542	-0.00216406	183634	1357.86	1	12	0.00499073	0.0002298	0	-6.91565e-05	-0.00026718	3.61539e-06	-52.0078	0.0157327	0.00968436	0.0123989	-4.96338	21.7284	21.6469	1.87992	0.0458749	0.00395948	0.0460454	4.933	1.35786e+06	1.57323e+07	1.57908e+07	-85.067	0.0000000E+000	0.0000000E+000	0.0000000E+000	85.067	0.0000000E+000	0.0000000E+000	0.0000000E+000	-85.067	0.0000000E+000	0.0000000E+000	0.0000000E+000	-4.933	0.0000000E+000	0.0000000E+000	0.0000000E+000	4.933	11.5861	85.067	1.16553e-05	-5.74385e-07	5.78192e-10	-5.74963e-07	0.265688	122649	123.462	122773
0.316193	21.9164	1.96985	22.0047	-5.13596	34.2668	0.265419	-0.00115153	255526	2047.71	1	12	0.0049829	0.000226447	0	-5.29981e-05	9.59094e-05	2.69438e-06	-6.95875	0.0118985	0.0118108	0.00144156	-5.13694	22.0166	21.9282	1.97129	0.0452623	0.00406819	0.0454448	5.13596	2.04771e+06	2.27827e+07	2.28745e+07	-84.864	0.0000000E+000	0.0000000E+000	0.0000000E+000	84.864	0.0000000E+000	0.0000000E+000	0.0000000E+000	-84.864	0.0000000E+000	0.0000000E+000	0.0000000E+000	-5.13596	0.0000000E+000	0.0000000E+000	0.0000000E+000	5.13596	11.1259	84.864	1.61584e-05	-3.05638e-07	-1.10443e-10	-3.05527e-07	0.265323	230493	83.2887	230409
0.215268	22.2504	2.252	22.3641	-5.77933	44.0593	0.26542	0.000137652	328301	3328.96	1	12	0.00498521	0.000222911	0	-4.13273e-05	0.000191459	2.41165e-06	19.3294	0.0108189	0.010209	-0.00358103	-5.76757	22.3739	22.2606	2.24842	0.0444873	0.00450264	0.0447146	5.77933	3.32896e+06	3.2891e+07	3.3059e+07	-84.2207	0.0000000E+000	0.0000000E+000	0.0000000E+000	84.2207	0.0000000E+000	0.0000000E+000	0.0000000E+000	-84.2207	0.0000000E+000	0.0000000E+000	0.0000000E+000	-5.77933	0.0000000E+000	0.0000000E+000	0.0000000E+000	5.77933	9.88027	84.2207	1.16708e-05	3.65356e-08	2.63548e-11	3.65093e-08	0.265228	1.92819e+06	1390.89	1.9268e+06
0.146929	22.6148	2.74496	22.7808	-6.92064	58.3977	0.265418	0.0011099	394618	5729.43	1	12	0.00498812	0.000218962	0	-4.907e-05	3.5964e-07	2.66008e-06	24.728	0.0121486	0.0110346	-0.00508191	-6.90461	22.7911	22.6258	2.73988	0.0435768	0.0052893	0.0438966	6.92064	5.72943e+06	4.72029e+07	4.75493e+07	-83.0794	0.0000000E+000	0.0000000E+000	0.0000000E+000	83.0794	0.0000000E+000	0.0000000E+000	0.0000000E+000	-83.0794	0.0000000E+000	0.0000000E+000	0.0000000E+000	-6.92064	0.0000000E+000	0.0000000E+000	0.0000000E+000	6.92064	8.23867	83.0794	-7.74265e-06	2.94588e-07	3.99166e-13	2.94588e-07	0.265417	239136	0.324028	239135
0.0999041	23.0161	3.41893	23.2686	-8.44924	79.4739	0.265415	0.00122105	465958	10059.7	1	12	0.00498805	0.000214368	0	-9.09759e-05	-0.00019074	3.2029e-06	3.82445	0.0149411	0.0149078	-0.000996567	-8.44142	23.2832	23.031	3.41794	0.0425099	0.00631464	0.0429763	8.44924	1.00597e+07	6.77215e+07	6.84646e+07	-81.5508	0.0000000E+000	0.0000000E+000	0.0000000E+000	81.5508	0.0000000E+000	0.0000000E+000	0.0000000E+000	-81.5508	0.0000000E+000	0.0000000E+000	0.0000000E+000	-8.44924	0.0000000E+000	0.0000000E+000	0.0000000E+000	8.44924	6.73195	81.5508	-4.1906e-05	3.24084e-07	-2.32902e-10	3.24317e-07	0.265606	217367	156.21	217524
0.0680626	23.5609	4.27886	23.9463	-10.2932	110.401	0.265416	0.000685028	546492	17448.7	1	12	0.00498572	0.000208204	0	-0.000165304	1.94696e-05	4.07776e-06	-28.8998	0.0195854	0.0171464	0.00946523	-10.3081	23.9649	23.5781	4.28832	0.041088	0.00746192	0.0417601	10.2932	1.74487e+07	9.60786e+07	9.76501e+07	-79.7068	0.0000000E+000	0.0000000E+000	0.0000000E+000	79.7068	0.0000000E+000	0.0000000E+000	0.0000000E+000	-79.7068	0.0000000E+000	0.0000000E+000	0.0000000E+000	-10.2932	0.0000000E+000	0.0000000E+000	0.0000000E+000	10.2932	5.50636	79.7068	-7.43277e-05	1.81817e-07	1.33372e-11	1.81804e-07	0.265397	387453	28.4216	387425
0.0464052	24.3622	5.3655	24.9461	-12.4204	155.753	0.26542	-0.000684803	639210	29570.5	1	12	0.00498784	0.000199945	0	-0.000269676	-0.000439169	2.40814e-06	0.0106397	0.012044	0.012044	-2.23656e-06	-12.4145	24.9579	24.3743	5.36549	0.0391482	0.00862194	0.0400864	12.4204	2.95705e+07	1.34266e+08	1.37484e+08	-77.5796	0.0000000E+000	0.0000000E+000	0.0000000E+000	77.5796	0.0000000E+000	0.0000000E+000	0.0000000E+000	-77.5796	0.0000000E+000	0.0000000E+000	0.0000000E+000	-12.4204	0.0000000E+000	0.0000000E+000	0.0000000E+000	12.4204	4.54054	77.5796	-0.000104372	-1.81761e-07	3.00745e-10	-1.82061e-07	0.26586	387586	641.307	388228
0.0315922	25.3053	7.03058	26.2638	-15.5269	222.357	0.265417	-0.00151776	716554	51347.2	1	12	0.00498636	0.000189857	0	-0.000331667	-0.00020985	3.10105e-06	27.9026	0.0163336	0.0144348	-0.00764366	-15.5024	26.2756	25.3197	7.02294	0.0366857	0.0101924	0.0380753	15.5269	5.13472e+07	1.84815e+08	1.91815e+08	-74.4731	0.0000000E+000	0.0000000E+000	0.0000000E+000	74.4731	0.0000000E+000	0.0000000E+000	0.0000000E+000	-74.4731	0.0000000E+000	0.0000000E+000	0.0000000E+000	-15.5269	0.0000000E+000	0.0000000E+000	0.0000000E+000	15.5269	3.59931	74.4731	-6.19915e-05	-4.02838e-07	3.18501e-10	-4.03157e-07	0.265627	174874	138.263	175013
0.0215268	26.238	9.22721	27.8132	-19.3754	320.096	0.265415	-0.00144618	801255	88188.2	1	12	0.00498731	0.000179315	0	-0.000252997	3.85796e-05	2.447e-06	32.5994	0.0136464	0.0114965	-0.00735216	-19.3533	27.8216	26.2495	9.21985	0.0339179	0.011928	0.0359542	19.3754	8.81882e+07	2.50767e+08	2.65822e+08	-70.6246	0.0000000E+000	0.0000000E+000	0.0000000E+000	70.6246	0.0000000E+000	0.0000000E+000	0.0000000E+000	-70.6246	0.0000000E+000	0.0000000E+000	0.0000000E+000	-19.3754	0.0000000E+000	0.0000000E+000	0.0000000E+000	19.3754	2.84354	70.6246	7.86699e-05	-3.83837e-07	-5.57929e-11	-3.83782e-07	0.265376	183529	26.6769	183502
0.0146812	27.4774	11.8968	29.9423	-23.4109	463.397	0.265409	-0.000846616	911235	143853	1	12	0.00498765	0.000166575	0	2.72532e-05	-0.00020985	1.58623e-06	30.0221	0.00952262	0.00824499	-0.00476449	-23.3963	29.948	27.4857	11.892	0.0306482	0.0132696	0.0333976	23.4109	1.43853e+08	3.3225e+08	3.62055e+08	-66.5891	0.0000000E+000	0.0000000E+000	0.0000000E+000	66.5891	0.0000000E+000	0.0000000E+000	0.0000000E+000	-66.5891	0.0000000E+000	0.0000000E+000	0.0000000E+000	-23.4109	0.0000000E+000	0.0000000E+000	0.0000000E+000	23.4109	2.30966	66.5891	0.000280251	-2.247e-07	1.77662e-10	-2.24877e-07	0.265619	313494	247.869	313742
0.0100092	29.428	15.4886	33.2551	-27.7588	673.579	0.265411	-8.15007e-05	1.02662e+06	222698	1	12	0.00498472	0.000149893	0	0.000432382	0.000172349	3.37622e-06	-0.0969938	0.0225241	0.0225241	3.81302e-05	-27.7408	33.2751	29.4505	15.4886	0.0266099	0.0140054	0.0300705	27.7588	2.22698e+08	4.23122e+08	4.78149e+08	-62.2412	0.0000000E+000	0.0000000E+000	0.0000000E+000	62.2412	0.0000000E+000	0.0000000E+000	0.0000000E+000	-62.2412	0.0000000E+000	0.0000000E+000	0.0000000E+000	-27.7588	0.0000000E+000	0.0000000E+000	0.0000000E+000	27.7588	1.89998	62.2412	0.000405128	-2.16312e-08	-1.40466e-11	-2.16172e-08	0.265239	3.25656e+06	2114.7	3.25444e+06