File: txt/19146_R306_UA710_SOC00_C02.mpt
EC-Lab ASCII FILE
Nb header lines : 65

Potentio Electrochemical Impedance Spectroscopy

Run on channel : 2 (SN 66139)
Grouped channel(s) : 1, 2
User :
CE vs. WE compliance from -10 V to 10 V
Electrode connection : standard
Potential control : Ewe
Ewe ctrl range : min = -10.00 V, max = 10.00 V
Safety Limits :
	Do not start on E overload
Acquisition started on : 11/12/2025 11:39:57.970
Loaded Setting File :  C:\Users\Celltest\OneDrive - store-dot.com\Documents\EC-Lab\Data\@Biologic Test Protocols\anode half cell EIS SOC00.mps
Saved on :
	File : 19145_R306_UA710_SOC00_C02.mpr
	Directory : C:\Users\Celltest\OneDrive - store-dot.com\Documents\EC-Lab\Data\Charmaine\
	Host : 169.254.61.224
Device : VMP-3e (SN .003165)
Address : USB
EC-LAB for windows v11.62 (software)
Internet server v27.00 (firmware)
Command interpretor v12.03 (firmware)
Electrode material :
Initial state :
Electrolyte :
Comments :
Electrode surface area : 0.001 cm²
Characteristic mass : 0.001 g
Equivalent Weight : 0.000 g/eq.
Density : 0.000 g/cm3
Volume (V) : 0.001 cm³
Record Ece
Cycle Definition : Charge/Discharge alternance
Mode                Single sine
E (V)               0.0000
vs.                 Eoc
tE (h:m:s)          0:00:0.0000
record              0
dI                  0.000
unit dI             mA
dt (s)              0.000
fi                  100.000
unit fi             kHz
ff                  10.000
unit ff             mHz
Nd                  6
Points              per decade
spacing             Logarithmic
Va (mV)             5.0
pw                  0.10
Na                  2
corr                0
E range min (V)     -10.000
E range max (V)     10.000
I Range             Auto
Bandwidth           5
nc cycles           0
goto Ns'            0
nr cycles           0
inc. cycle          0

freq/Hz	Re(Z)/Ohm	-Im(Z)/Ohm	|Z|/Ohm	Phase(Z)/deg	time/s	<Ewe>/V	<I>/mA	Cs/µF	Cp/µF	cycle number	I Range	|Ewe|/V	|I|/A	Ns	(Q-Qo)/mA.h	<Ece>/V	|Ece|/V	Phase(Zce)/deg	|Zce|/Ohm	Re(Zce)/Ohm	-Im(Zce)/Ohm	Phase(Zwe-ce)/deg	|Zwe-ce|/Ohm	Re(Zwe-ce)/Ohm	-Im(Zwe-ce)/Ohm	Re(Y)/Ohm-1	Im(Y)/Ohm-1	|Y|/Ohm-1	Phase(Y)/deg	Re(C)/nF	Im(C)/nF	|C|/nF	Phase(C)/deg	Re(M)	Im(M)	|M|	Phase(M)/deg	Re(Permittivity)	Im(Permittivity)	|Permittivity|	Phase(Permittivity)/deg	Re(Resistivity)/Ohm.cm	Im(Resistivity)/Ohm.cm	|Resistivity|/Ohm.cm	Phase(Resistivity)/deg	Re(Conductivity)/mS/cm	Im(Conductivity)/mS/cm	|Conductivity|/mS/cm	Phase(Conductivity)/deg	Tan(Delta)	Loss Angle(Delta)/deg	dq/mA.h	Pwe/W	Pce/W	Pwe-ce/W	<Ewe-Ece>/V	Rwe/Ohm	Rce/Ohm	Rwe-ce/Ohm		Ewe-Ece/V
100004	1.74145	1.13073	2.07634	-32.9957	1.72553	0.185471	-0.0403723	1.40749	0.41741	1	9	0.00458021	0.0022059	0	-9.92709e-06	8.62513e-05	2.97062e-05	93.6271	0.0134667	-0.000851926	-0.0134397	-32.6963	2.06834	1.7406	1.11729	0.403937	0.262276	0.481616	32.9957	417.41	642.862	766.487	-57.0043	0.0000000E+000	0.0000000E+000	0.0000000E+000	57.0043	0.0000000E+000	0.0000000E+000	0.0000000E+000	-57.0043	0.0000000E+000	0.0000000E+000	0.0000000E+000	-32.9957	0.0000000E+000	0.0000000E+000	0.0000000E+000	32.9957	1.54012	57.0043	-9.92709e-06	-7.48788e-06	-3.48216e-09	-7.4844e-06	0.185384	4594.01	2.1364	4591.87
68132	2.07036	1.33316	2.46246	-32.7787	2.23256	0.185466	-0.0403351	1.75221	0.513588	1	9	0.00507535	0.00206109	0	-1.44938e-05	0.000258069	1.95813e-05	99.7956	0.00950045	-0.00161636	-0.00936194	-32.6155	2.45604	2.06874	1.3238	0.341435	0.21986	0.406098	32.7787	513.588	797.584	948.637	-57.2213	0.0000000E+000	0.0000000E+000	0.0000000E+000	57.2213	0.0000000E+000	0.0000000E+000	0.0000000E+000	-57.2213	0.0000000E+000	0.0000000E+000	0.0000000E+000	-32.7787	0.0000000E+000	0.0000000E+000	0.0000000E+000	32.7787	1.55297	57.2213	-4.56672e-06	-7.48078e-06	-1.04092e-08	-7.47037e-06	0.185208	4598.14	6.39813	4591.74
46420.4	2.46347	1.54213	2.90634	-32.0465	2.73952	0.185463	-0.0408193	2.22326	0.625949	1	9	0.00513188	0.00176575	0	-4.05808e-06	0.000143524	8.28591e-06	46.7656	0.00469257	0.00321434	-0.0034188	-31.9558	2.90726	2.46668	1.53871	0.291644	0.182569	0.344075	32.0465	625.949	999.919	1179.68	-57.9535	0.0000000E+000	0.0000000E+000	0.0000000E+000	57.9535	0.0000000E+000	0.0000000E+000	0.0000000E+000	-57.9535	0.0000000E+000	0.0000000E+000	0.0000000E+000	-32.0465	0.0000000E+000	0.0000000E+000	0.0000000E+000	32.0465	1.59745	57.9535	1.04357e-05	-7.57045e-06	-5.85854e-09	-7.56459e-06	0.185319	4543.51	3.51608	4539.99
31621.1	2.87371	1.69181	3.33473	-30.4862	3.12255	0.185455	-0.0419739	2.97502	0.765724	1	9	0.00518831	0.00155584	0	-7.90655e-06	0.00027716	1.04879e-05	-115.619	0.00674097	-0.00291472	0.00607824	-30.6016	3.33531	2.8708	1.69789	0.258417	0.152135	0.299874	30.4862	765.724	1300.66	1509.32	-59.5138	0.0000000E+000	0.0000000E+000	0.0000000E+000	59.5138	0.0000000E+000	0.0000000E+000	0.0000000E+000	-59.5138	0.0000000E+000	0.0000000E+000	0.0000000E+000	-30.4862	0.0000000E+000	0.0000000E+000	0.0000000E+000	30.4862	1.6986	59.5138	-3.84847e-06	-7.78427e-06	-1.16335e-08	-7.77264e-06	0.185178	4418.34	6.60315	4411.74
21544.7	3.34089	1.81286	3.80105	-28.4855	3.50552	0.185445	-0.0445439	4.07489	0.926909	1	9	0.00491347	0.00129266	0	-1.08697e-05	-0.000181021	1.07188e-05	-53.8442	0.00829202	0.00489215	0.0066951	-28.5389	3.80854	3.34578	1.81955	0.231236	0.125475	0.263085	28.4855	926.909	1708.18	1943.46	-61.5145	0.0000000E+000	0.0000000E+000	0.0000000E+000	61.5145	0.0000000E+000	0.0000000E+000	0.0000000E+000	-61.5145	0.0000000E+000	0.0000000E+000	0.0000000E+000	-28.4855	0.0000000E+000	0.0000000E+000	0.0000000E+000	28.4855	1.84288	61.5145	-2.96311e-06	-8.26045e-06	8.06335e-09	-8.26852e-06	0.185626	4163.21	4.06387	4167.27
14678.6	3.79977	1.91447	4.25482	-26.7407	3.89054	0.185451	-0.0414524	5.66353	1.14663	1	9	0.00492257	0.00115694	0	-1.55598e-05	8.62513e-05	6.02241e-06	-74.2207	0.00520547	0.00141554	0.0050093	-26.7923	4.25834	3.80119	1.91948	0.209892	0.105752	0.235028	26.7407	1146.63	2275.79	2548.32	-63.2593	0.0000000E+000	0.0000000E+000	0.0000000E+000	63.2593	0.0000000E+000	0.0000000E+000	0.0000000E+000	-63.2593	0.0000000E+000	0.0000000E+000	0.0000000E+000	-26.7407	0.0000000E+000	0.0000000E+000	0.0000000E+000	26.7407	1.98476	63.2593	-4.69012e-06	-7.6874e-06	-3.57533e-09	-7.68383e-06	0.185365	4473.83	2.08073	4471.75
10002.2	4.30137	1.97306	4.73231	-24.6411	4.30753	0.185488	-0.0250369	8.06462	1.4019	1	10	0.00467853	0.000988636	0	-1.89941e-05	0.000372614	6.05444e-06	-101.222	0.00612403	-0.00119176	0.00600695	-24.7132	4.73373	4.30018	1.97906	0.192071	0.0881036	0.211313	24.6411	1401.9	3056.22	3362.41	-65.3589	0.0000000E+000	0.0000000E+000	0.0000000E+000	65.3589	0.0000000E+000	0.0000000E+000	0.0000000E+000	-65.3589	0.0000000E+000	0.0000000E+000	0.0000000E+000	-24.6411	0.0000000E+000	0.0000000E+000	0.0000000E+000	24.6411	2.18005	65.3589	-3.43433e-06	-4.64406e-06	-9.32911e-09	-4.63473e-06	0.185116	7408.58	14.8826	7393.7
6810.42	4.78322	2.11736	5.23091	-23.8773	4.56655	0.185497	-0.0256665	11.037	1.80837	1	10	0.00474293	0.000906712	0	-2.13311e-05	0.00027716	0.000161067	-32.028	0.177638	0.1506	0.0942077	-24.1442	5.40682	4.93382	2.21157	0.17481	0.0773821	0.191171	23.8773	1808.37	4085.18	4467.54	-66.1227	0.0000000E+000	0.0000000E+000	0.0000000E+000	66.1227	0.0000000E+000	0.0000000E+000	0.0000000E+000	-66.1227	0.0000000E+000	0.0000000E+000	0.0000000E+000	-23.8773	0.0000000E+000	0.0000000E+000	0.0000000E+000	23.8773	2.25905	66.1227	-2.33701e-06	-4.76105e-06	-7.11372e-09	-4.75394e-06	0.18522	7227.19	10.7985	7216.39
4646	5.18412	2.18539	5.62592	-22.8581	4.83263	0.185466	-0.0328562	15.6752	2.36528	1	10	0.00463008	0.000822991	0	-2.38382e-05	8.62513e-05	9.77277e-06	-73.4332	0.0118747	0.00338587	0.0113818	-22.9514	5.63347	5.1875	2.19677	0.16379	0.0690465	0.177749	22.8581	2365.28	5610.84	6089.02	-67.1419	0.0000000E+000	0.0000000E+000	0.0000000E+000	67.1419	0.0000000E+000	0.0000000E+000	0.0000000E+000	-67.1419	0.0000000E+000	0.0000000E+000	0.0000000E+000	-22.8581	0.0000000E+000	0.0000000E+000	0.0000000E+000	22.8581	2.37217	67.1419	-2.50708e-06	-6.09372e-06	-2.83389e-09	-6.09088e-06	0.18538	5644.79	2.62512	5642.17
3163.08	5.61162	2.3734	6.09289	-22.9256	5.20567	0.185382	-0.0245378	21.2002	3.21687	1	10	0.00457297	0.000750542	0	-2.5686e-05	0.000315341	6.81268e-06	13.5473	0.00907702	0.00882447	-0.00212628	-22.8749	6.10019	5.62045	2.37127	0.151162	0.0639328	0.164126	22.9256	3216.87	7605.92	8258.22	-67.0744	0.0000000E+000	0.0000000E+000	0.0000000E+000	67.0744	0.0000000E+000	0.0000000E+000	0.0000000E+000	-67.0744	0.0000000E+000	0.0000000E+000	0.0000000E+000	-22.9256	0.0000000E+000	0.0000000E+000	0.0000000E+000	22.9256	2.36438	67.0744	-1.84777e-06	-4.54885e-06	-7.73778e-09	-4.54112e-06	0.185066	7554.95	12.8513	7542.1
2155.69	6.05394	2.67475	6.6185	-23.8368	5.65683	0.185423	-0.0105123	27.6026	4.50815	1	10	0.00453313	0.000684919	0	-2.69132e-05	-8.55663e-05	5.61934e-06	-23.419	0.00820439	0.00752854	0.00326085	-23.8363	6.6267	6.06147	2.67801	0.138204	0.0610611	0.151092	23.8368	4508.15	10203.6	11155.1	-66.1632	0.0000000E+000	0.0000000E+000	0.0000000E+000	66.1632	0.0000000E+000	0.0000000E+000	0.0000000E+000	-66.1632	0.0000000E+000	0.0000000E+000	0.0000000E+000	-23.8368	0.0000000E+000	0.0000000E+000	0.0000000E+000	23.8368	2.26337	66.1632	-1.22725e-06	-1.94922e-06	8.99501e-10	-1.95012e-06	0.185508	17638.6	8.13962	17646.7
1468.59	6.51858	3.11782	7.22583	-25.5617	6.32203	0.185432	-0.00938731	34.7591	6.47135	1	10	0.00486922	0.000673864	0	-2.86385e-05	0.000124433	8.0452e-06	-3.00228	0.0119389	0.0119225	0.000625308	-25.5254	7.23686	6.5305	3.11844	0.124847	0.0597139	0.138392	25.5617	6471.35	13530	14998	-64.4383	0.0000000E+000	0.0000000E+000	0.0000000E+000	64.4383	0.0000000E+000	0.0000000E+000	0.0000000E+000	-64.4383	0.0000000E+000	0.0000000E+000	0.0000000E+000	-25.5617	0.0000000E+000	0.0000000E+000	0.0000000E+000	25.5617	2.09075	64.4383	-1.72532e-06	-1.74071e-06	-1.16809e-09	-1.73954e-06	0.185307	19753.5	13.2554	19740.2
1000.32	7.04313	3.80247	8.00402	-28.3639	6.77278	0.185413	-0.0112313	41.8423	9.44343	1	10	0.00484202	0.000604948	0	-3.00023e-05	-8.55663e-05	8.7747e-06	24.3974	0.0145049	0.0132096	-0.00599144	-28.2813	8.01281	7.05634	3.79647	0.109938	0.0593538	0.124937	28.3639	9443.43	17491.6	19878	-61.6361	0.0000000E+000	0.0000000E+000	0.0000000E+000	61.6361	0.0000000E+000	0.0000000E+000	0.0000000E+000	-61.6361	0.0000000E+000	0.0000000E+000	0.0000000E+000	-28.3639	0.0000000E+000	0.0000000E+000	0.0000000E+000	28.3639	1.85225	61.6361	-1.36381e-06	-2.08243e-06	9.6102e-10	-2.08339e-06	0.185499	16508.6	7.61856	16516.2
681.09	7.71847	4.71986	9.04721	-31.4459	7.22358	0.185403	-0.0107209	49.5093	13.4746	1	10	0.0048288	0.000533734	0	-3.16287e-05	4.80696e-05	5.34373e-06	-9.87493	0.010012	0.00986363	0.00171703	-31.4226	9.05652	7.72834	4.72158	0.094298	0.0576634	0.110531	31.4459	13474.6	22035.3	25828.6	-58.5541	0.0000000E+000	0.0000000E+000	0.0000000E+000	58.5541	0.0000000E+000	0.0000000E+000	0.0000000E+000	-58.5541	0.0000000E+000	0.0000000E+000	0.0000000E+000	-31.4459	0.0000000E+000	0.0000000E+000	0.0000000E+000	31.4459	1.63532	58.5541	-1.62637e-06	-1.9877e-06	-5.15351e-10	-1.98718e-06	0.185355	17293.6	4.48371	17289.1
463.961	8.59373	5.94545	10.4499	-34.6769	7.67528	0.185409	-0.0100504	57.6971	18.6766	1	10	0.00481573	0.00046084	0	-3.26368e-05	0.000124433	4.1991e-05	72.6272	0.0911184	0.0272069	-0.0869617	-34.1987	10.4232	8.62094	5.85849	0.0786967	0.0544452	0.0956946	34.6769	18676.6	26995.8	32826.6	-55.3231	0.0000000E+000	0.0000000E+000	0.0000000E+000	55.3231	0.0000000E+000	0.0000000E+000	0.0000000E+000	-55.3231	0.0000000E+000	0.0000000E+000	0.0000000E+000	-34.6769	0.0000000E+000	0.0000000E+000	0.0000000E+000	34.6769	1.44543	55.3231	-1.00807e-06	-1.86343e-06	-1.2506e-09	-1.86218e-06	0.185284	18447.9	12.3809	18435.5
316.316	9.89821	7.57497	12.4641	-37.4263	8.12301	0.185422	-0.0095624	66.423	24.5333	1	10	0.00480638	0.000385616	0	-3.41128e-05	-0.000104657	6.07976e-06	87.1827	0.0157663	0.000774932	-0.0157473	-37.3667	12.4552	9.89899	7.55922	0.0637136	0.0487592	0.0802302	37.4263	24533.3	32057.6	40368	-52.5737	0.0000000E+000	0.0000000E+000	0.0000000E+000	52.5737	0.0000000E+000	0.0000000E+000	0.0000000E+000	-52.5737	0.0000000E+000	0.0000000E+000	0.0000000E+000	-37.4263	0.0000000E+000	0.0000000E+000	0.0000000E+000	37.4263	1.3067	52.5737	-1.476e-06	-1.77308e-06	1.00077e-09	-1.77408e-06	0.185526	19390.7	10.9446	19401.6
215.345	11.86	9.47091	15.1775	-38.6094	8.57256	0.185421	-0.00995728	78.0359	30.3861	1	10	0.00479568	0.000315972	0	-3.56444e-05	0.000105342	1.11957e-05	59.2224	0.0354325	0.0181311	-0.0304422	-38.4769	15.1728	11.8781	9.44047	0.0514851	0.0411139	0.0658868	38.6094	30386.1	38051.2	48695	-51.3906	0.0000000E+000	0.0000000E+000	0.0000000E+000	51.3906	0.0000000E+000	0.0000000E+000	0.0000000E+000	-51.3906	0.0000000E+000	0.0000000E+000	0.0000000E+000	-38.6094	0.0000000E+000	0.0000000E+000	0.0000000E+000	38.6094	1.25226	51.3906	-1.53167e-06	-1.84629e-06	-1.04892e-09	-1.84524e-06	0.185316	18621.7	10.5794	18611.1
146.737	14.6097	11.5127	18.6007	-38.2387	9.01851	0.185407	-0.0123116	94.2113	36.0909	1	10	0.0047901	0.000257523	0	-3.73982e-05	2.89788e-05	5.15234e-06	0.757079	0.0200073	0.0200056	-0.000264359	-38.1999	18.6162	14.6297	11.5124	0.0422264	0.0332751	0.0537615	38.2387	36090.9	45799.7	58311	-51.7613	0.0000000E+000	0.0000000E+000	0.0000000E+000	51.7613	0.0000000E+000	0.0000000E+000	0.0000000E+000	-51.7613	0.0000000E+000	0.0000000E+000	0.0000000E+000	-38.2387	0.0000000E+000	0.0000000E+000	0.0000000E+000	38.2387	1.26901	51.7613	-1.75378e-06	-2.28266e-06	-3.56775e-10	-2.28231e-06	0.185378	15059.5	2.35377	15057.2
100.032	18.433	13.2516	22.702	-35.7126	9.71477	0.185474	-0.0095625	120.064	40.9093	1	11	0.00480491	0.000211651	0	-3.91059e-05	4.80696e-05	1.2613e-05	-93.89	0.0595932	-0.00404289	0.0594559	-35.8402	22.7335	18.4289	13.3111	0.0357658	0.0257123	0.044049	35.7126	40909.3	56904.8	70083.8	-54.2874	0.0000000E+000	0.0000000E+000	0.0000000E+000	54.2874	0.0000000E+000	0.0000000E+000	0.0000000E+000	-54.2874	0.0000000E+000	0.0000000E+000	0.0000000E+000	-35.7126	0.0000000E+000	0.0000000E+000	0.0000000E+000	35.7126	1.391	54.2874	-1.70766e-06	-1.7736e-06	-4.59666e-10	-1.77314e-06	0.185426	19396	5.02689	19391
68.104	23.0448	14.166	27.0506	-31.5797	10.1775	0.185463	-0.0091203	164.968	45.2418	1	11	0.00480005	0.000177447	0	-4.04093e-05	6.71604e-05	9.26025e-06	-23.041	0.052186	0.0480229	0.0204251	-31.5634	27.1022	23.0928	14.1864	0.0314933	0.0193594	0.0369677	31.5797	45241.8	73597.9	86391.4	-58.4203	0.0000000E+000	0.0000000E+000	0.0000000E+000	58.4203	0.0000000E+000	0.0000000E+000	0.0000000E+000	-58.4203	0.0000000E+000	0.0000000E+000	0.0000000E+000	-31.5797	0.0000000E+000	0.0000000E+000	0.0000000E+000	31.5797	1.62677	58.4203	-1.30339e-06	-1.69148e-06	-6.12523e-10	-1.69086e-06	0.185396	20335.2	7.36384	20327.8
46.4415	27.8308	13.7939	31.0616	-26.3645	10.6137	0.185463	-0.0092549	248.443	48.9948	1	11	0.00480211	0.000154599	0	-4.14728e-05	0.000353523	5.8385e-06	44.9014	0.0377654	0.0267501	-0.0266581	-26.2986	31.0738	27.8576	13.7672	0.0288454	0.0142967	0.032194	26.3645	48994.8	98853.2	110329	-63.6355	0.0000000E+000	0.0000000E+000	0.0000000E+000	63.6355	0.0000000E+000	0.0000000E+000	0.0000000E+000	-63.6355	0.0000000E+000	0.0000000E+000	0.0000000E+000	-26.3645	0.0000000E+000	0.0000000E+000	0.0000000E+000	26.3645	2.01762	63.6355	-1.06355e-06	-1.71644e-06	-3.27182e-09	-1.71317e-06	0.18511	20039.4	38.1985	20001.2
31.6296	31.9301	12.1335	34.1578	-20.8068	11.0435	0.18545	-0.00942716	414.708	52.3279	1	11	0.0047877	0.000140164	0	-4.2504e-05	-2.82938e-05	7.60539e-06	25.7543	0.0542606	0.0488706	-0.0235769	-20.7408	34.1951	31.979	12.1099	0.0273666	0.0103994	0.0292759	20.8068	52327.9	137705	147312	-69.1932	0.0000000E+000	0.0000000E+000	0.0000000E+000	69.1932	0.0000000E+000	0.0000000E+000	0.0000000E+000	-69.1932	0.0000000E+000	0.0000000E+000	0.0000000E+000	-20.8068	0.0000000E+000	0.0000000E+000	0.0000000E+000	20.8068	2.63157	69.1932	-1.03116e-06	-1.74827e-06	2.6673e-10	-1.74854e-06	0.185479	19671.9	3.00131	19674.9
21.5517	35.0675	9.96669	36.4563	-15.8659	11.4645	0.18545	-0.00963521	740.947	55.3787	1	11	0.00478695	0.000131306	0	-4.36708e-05	6.71604e-05	2.75658e-06	102.65	0.0209935	-0.00459735	-0.0204839	-15.8369	36.4463	35.0629	9.94621	0.0263851	0.00749903	0.0274301	15.8659	55378.8	194848	202565	-74.1341	0.0000000E+000	0.0000000E+000	0.0000000E+000	74.1341	0.0000000E+000	0.0000000E+000	0.0000000E+000	-74.1341	0.0000000E+000	0.0000000E+000	0.0000000E+000	-15.8659	0.0000000E+000	0.0000000E+000	0.0000000E+000	15.8659	3.51847	74.1341	-1.16687e-06	-1.78685e-06	-6.47105e-10	-1.7862e-06	0.185383	19247.1	6.97032	19240.2
14.6852	37.1587	7.89476	37.9881	-11.9947	11.9252	0.185457	-0.00866505	1372.79	59.2906	1	11	0.00478663	0.000126003	0	-4.52215e-05	2.89788e-05	9.48995e-06	66.9851	0.0753151	0.029446	-0.0693202	-11.8833	38.0026	37.1881	7.82544	0.0257493	0.00547071	0.026324	11.9947	59290.6	279066	285295	-78.0053	0.0000000E+000	0.0000000E+000	0.0000000E+000	78.0053	0.0000000E+000	0.0000000E+000	0.0000000E+000	-78.0053	0.0000000E+000	0.0000000E+000	0.0000000E+000	-11.9947	0.0000000E+000	0.0000000E+000	0.0000000E+000	11.9947	4.70675	78.0053	-1.55062e-06	-1.60699e-06	-2.51102e-10	-1.60674e-06	0.185428	21402.9	3.34433	21399.5
10.0032	38.5131	6.02801	38.982	-8.89568	12.3758	0.18546	-0.00888913	2639.41	63.1143	1	11	0.00478285	0.000122694	0	-4.64896e-05	-4.73846e-05	5.17677e-06	54.9292	0.0421925	0.0242433	-0.0345322	-8.84006	39.0006	38.5373	5.99348	0.0253443	0.00396686	0.0256529	8.89568	63114.3	403238	408148	-81.1043	0.0000000E+000	0.0000000E+000	0.0000000E+000	81.1043	0.0000000E+000	0.0000000E+000	0.0000000E+000	-81.1043	0.0000000E+000	0.0000000E+000	0.0000000E+000	-8.89568	0.0000000E+000	0.0000000E+000	0.0000000E+000	8.89568	6.38901	81.1043	-1.26814e-06	-1.64858e-06	4.21208e-10	-1.649e-06	0.185508	20863.7	5.33062	20869.1
6.81719	39.3811	4.57843	39.6463	-6.63141	12.7155	0.185484	-0.00781495	5099.16	68.0025	1	11	0.00478627	0.000120724	0	-4.75782e-05	9.88791e-06	7.31855e-06	-14.1576	0.0606221	0.0587808	0.0148275	-6.64287	39.7064	39.4399	4.59325	0.0250543	0.0029128	0.025223	6.63141	68002.5	584920	588860	-83.3686	0.0000000E+000	0.0000000E+000	0.0000000E+000	83.3686	0.0000000E+000	0.0000000E+000	0.0000000E+000	-83.3686	0.0000000E+000	0.0000000E+000	0.0000000E+000	-6.63141	0.0000000E+000	0.0000000E+000	0.0000000E+000	6.63141	8.60144	83.3686	-1.08859e-06	-1.44955e-06	-7.72735e-11	-1.44947e-06	0.185474	23734.5	1.26526	23733.2
4.63925	39.8985	3.62303	40.0627	-5.18857	13.1995	0.185469	-0.00823739	9468.93	77.4396	1	11	0.00478805	0.000119514	0	-4.73065e-05	0.000105342	6.88943e-06	94.1845	0.0576454	-0.00420627	-0.0574918	-5.10721	40.0533	39.8943	3.56553	0.0248586	0.00225731	0.0249609	5.18857	77439.6	852803	856312	-84.8114	0.0000000E+000	0.0000000E+000	0.0000000E+000	84.8114	0.0000000E+000	0.0000000E+000	0.0000000E+000	-84.8114	0.0000000E+000	0.0000000E+000	0.0000000E+000	-5.18857	0.0000000E+000	0.0000000E+000	0.0000000E+000	5.18857	11.0125	84.8114	2.71656e-07	-1.52778e-06	-8.67744e-10	-1.52691e-06	0.185363	22515.5	12.7883	22502.7
3.1604	40.3456	2.989	40.4562	-4.237	13.8924	0.185463	-0.00720962	16848.2	91.9673	1	11	0.00478696	0.000118325	0	-4.846e-05	-9.20294e-06	8.19111e-06	-94.7667	0.0692258	-0.00575261	0.0689863	-4.33504	40.4556	40.3399	3.05798	0.0246505	0.00182623	0.0247181	4.237	91967.3	1.24138e+06	1.24478e+06	-85.763	0.0000000E+000	0.0000000E+000	0.0000000E+000	85.763	0.0000000E+000	0.0000000E+000	0.0000000E+000	-85.763	0.0000000E+000	0.0000000E+000	0.0000000E+000	-4.237	0.0000000E+000	0.0000000E+000	0.0000000E+000	4.237	13.4981	85.763	-1.15351e-06	-1.33712e-06	6.63497e-11	-1.33718e-06	0.185472	25724.4	1.27648	25725.7
2.15577	40.6827	2.58025	40.7644	-3.62906	14.8961	0.185466	-0.00653774	28612.5	114.635	1	11	0.00478679	0.000117426	0	-5.20797e-05	6.71604e-05	1.59997e-06	150.406	0.0136253	-0.0118478	-0.00672893	-3.62067	40.7522	40.6708	2.57352	0.024482	0.00155274	0.0245312	3.62906	114635	1.80745e+06	1.81108e+06	-86.3709	0.0000000E+000	0.0000000E+000	0.0000000E+000	86.3709	0.0000000E+000	0.0000000E+000	0.0000000E+000	-86.3709	0.0000000E+000	0.0000000E+000	0.0000000E+000	-3.62906	0.0000000E+000	0.0000000E+000	0.0000000E+000	3.62906	15.7669	86.3709	-3.61963e-06	-1.21253e-06	-4.39078e-10	-1.21209e-06	0.185399	28368.5	10.2727	28358.2
1.46631	40.9814	2.3661	41.0497	-3.30435	17.0835	0.185475	-0.00596369	45873.5	152.408	1	12	0.00478644	0.000116601	0	-5.83135e-05	-2.82938e-05	5.53038e-06	-21.8157	0.0474299	0.0440331	0.017626	-3.32535	41.0947	41.0255	2.38372	0.0243202	0.00140415	0.0243607	3.30435	152408	2.63974e+06	2.64414e+06	-86.6956	0.0000000E+000	0.0000000E+000	0.0000000E+000	86.6956	0.0000000E+000	0.0000000E+000	0.0000000E+000	-86.6956	0.0000000E+000	0.0000000E+000	0.0000000E+000	-3.30435	0.0000000E+000	0.0000000E+000	0.0000000E+000	3.30435	17.3203	86.6956	-6.2338e-06	-1.10612e-06	1.68735e-10	-1.10628e-06	0.185503	31100.7	4.74434	31105.5
1.00006	41.395	2.39934	41.4645	-3.31728	19.2116	0.185474	-0.00601514	66328.5	222.092	1	12	0.00479061	0.000115535	0	-6.12865e-05	0.000200796	1.88928e-06	65.2419	0.0163524	0.0068482	-0.0148494	-3.29625	41.4704	41.4018	2.38449	0.0240766	0.00139553	0.024117	3.31728	222092	3.83167e+06	3.8381e+06	-86.6827	0.0000000E+000	0.0000000E+000	0.0000000E+000	86.6827	0.0000000E+000	0.0000000E+000	0.0000000E+000	-86.6827	0.0000000E+000	0.0000000E+000	0.0000000E+000	-3.31728	0.0000000E+000	0.0000000E+000	0.0000000E+000	3.31728	17.2526	86.6827	-2.97306e-06	-1.11565e-06	-1.20782e-09	-1.11444e-06	0.185273	30834.5	33.3818	30801.1
0.681362	41.7756	2.5637	41.8541	-3.51174	22.3244	0.185474	-0.00581852	91112	341.847	1	12	0.00479105	0.00011447	0	-6.24428e-05	-0.000104657	3.67192e-06	17.4135	0.0320775	0.0306074	-0.00959972	-3.49607	41.8841	41.8062	2.5541	0.0238476	0.00146349	0.0238925	3.51174	341847	5.57041e+06	5.58089e+06	-86.4883	0.0000000E+000	0.0000000E+000	0.0000000E+000	86.4883	0.0000000E+000	0.0000000E+000	0.0000000E+000	-86.4883	0.0000000E+000	0.0000000E+000	0.0000000E+000	-3.51174	0.0000000E+000	0.0000000E+000	0.0000000E+000	3.51174	16.2951	86.4883	-1.15629e-06	-1.07918e-06	6.08949e-10	-1.07979e-06	0.185578	31876.5	17.9869	31894.4
0.464091	42.157	2.74463	42.2463	-3.72497	26.8809	0.185466	-0.0052365	124949	527.38	1	12	0.00478539	0.000113274	0	-6.20007e-05	0.000162615	3.3223e-06	-36.7063	0.0293299	0.0235141	0.0175308	-3.74662	42.2709	42.1805	2.76216	0.0236207	0.00153782	0.0236707	3.72497	527380	8.10047e+06	8.11762e+06	-86.275	0.0000000E+000	0.0000000E+000	0.0000000E+000	86.275	0.0000000E+000	0.0000000E+000	0.0000000E+000	-86.275	0.0000000E+000	0.0000000E+000	0.0000000E+000	-3.72497	0.0000000E+000	0.0000000E+000	0.0000000E+000	3.72497	15.3598	86.275	4.42093e-07	-9.71194e-07	-8.51532e-10	-9.70343e-07	0.185304	35417.9	31.0541	35386.9
0.316193	42.7122	3.08616	42.8235	-4.13272	33.5568	0.185463	-0.00420385	163098	847.075	1	12	0.00478954	0.000111844	0	-6.32535e-05	0.000372614	1.66292e-06	82.203	0.0148683	0.00201709	-0.0147308	-4.11287	42.8245	42.7142	3.07143	0.0232909	0.00168288	0.0233517	4.13272	847076	1.17234e+07	1.1754e+07	-85.8673	0.0000000E+000	0.0000000E+000	0.0000000E+000	85.8673	0.0000000E+000	0.0000000E+000	0.0000000E+000	-85.8673	0.0000000E+000	0.0000000E+000	0.0000000E+000	-4.13272	0.0000000E+000	0.0000000E+000	0.0000000E+000	4.13272	13.8399	85.8673	-1.25276e-06	-7.7966e-07	-1.56641e-09	-7.78093e-07	0.185091	44117.4	88.6363	44028.8
0.215268	43.2758	3.58358	43.4239	-4.73374	43.3492	0.185462	-0.00296616	206312	1405.08	1	12	0.00478862	0.000110276	0	-7.15126e-05	-0.000142839	2.31051e-06	10.0604	0.020952	0.0206299	-0.00366004	-4.72669	43.4442	43.2964	3.57992	0.0229502	0.00190046	0.0230288	4.73374	1.40508e+06	1.69679e+07	1.7026e+07	-85.2663	0.0000000E+000	0.0000000E+000	0.0000000E+000	85.2663	0.0000000E+000	0.0000000E+000	0.0000000E+000	-85.2663	0.0000000E+000	0.0000000E+000	0.0000000E+000	-4.73374	0.0000000E+000	0.0000000E+000	0.0000000E+000	4.73374	12.0761	85.2663	-8.25907e-06	-5.5011e-07	4.23683e-10	-5.50534e-07	0.185605	62526	48.1562	62574.1
0.146929	43.8329	4.30799	44.0441	-5.61311	57.6876	0.185459	-0.00195921	251443	2405.53	1	12	0.00478865	0.000108724	0	-9.27486e-05	0.000124433	5.21363e-07	-2.93307	0.0047953	0.00478901	0.000245372	-5.61282	44.0489	43.8377	4.30823	0.0225956	0.00222074	0.0227045	5.61311	2.40553e+06	2.44758e+07	2.45938e+07	-84.3869	0.0000000E+000	0.0000000E+000	0.0000000E+000	84.3869	0.0000000E+000	0.0000000E+000	0.0000000E+000	-84.3869	0.0000000E+000	0.0000000E+000	0.0000000E+000	-5.61311	0.0000000E+000	0.0000000E+000	0.0000000E+000	5.61311	10.1748	84.3869	-2.1236e-05	-3.63354e-07	-2.4379e-10	-3.6311e-07	0.185335	94660.1	63.5118	94596.6
0.0999041	44.425	5.30458	44.7406	-6.80917	78.7647	0.185463	-0.00152769	300321	4221.67	1	12	0.00479027	0.000107068	0	-0.000131432	9.88791e-06	2.2183e-06	11.1791	0.0207186	0.0203255	-0.00401685	-6.80098	44.7603	44.4454	5.30056	0.0221934	0.00265001	0.0223511	6.80917	4.22167e+06	3.53558e+07	3.5607e+07	-83.1908	0.0000000E+000	0.0000000E+000	0.0000000E+000	83.1908	0.0000000E+000	0.0000000E+000	0.0000000E+000	-83.1908	0.0000000E+000	0.0000000E+000	0.0000000E+000	-6.80917	0.0000000E+000	0.0000000E+000	0.0000000E+000	6.80917	8.37484	83.1908	-3.86832e-05	-2.83328e-07	-1.51056e-11	-2.83313e-07	0.185453	121401	6.47247	121394
0.0680626	45.1794	6.70171	45.6737	-8.43748	109.691	0.185464	-0.00127669	348920	7512.16	1	12	0.0047877	0.000104824	0	-0.000182398	0.000105342	1.70436e-06	0.119434	0.0162593	0.0162593	-3.38926e-05	-8.43445	45.6898	45.1956	6.70168	0.0216575	0.00321257	0.0218944	8.43748	7.51216e+06	5.0643e+07	5.11971e+07	-81.5625	0.0000000E+000	0.0000000E+000	0.0000000E+000	81.5625	0.0000000E+000	0.0000000E+000	0.0000000E+000	-81.5625	0.0000000E+000	0.0000000E+000	0.0000000E+000	-8.43748	0.0000000E+000	0.0000000E+000	0.0000000E+000	8.43748	6.74147	81.5625	-5.09659e-05	-2.36779e-07	-1.34489e-10	-2.36645e-07	0.185359	145270	82.5121	145187
0.0464052	46.2817	8.75152	47.1018	-10.7078	155.043	0.185462	-0.0016623	391895	13528.9	1	12	0.00478789	0.00010165	0	-0.000236332	0.000162615	1.53556e-06	-43.838	0.0151064	0.0108963	0.010463	-10.7178	47.1145	46.2926	8.76198	0.0208609	0.00394465	0.0212306	10.7078	1.35289e+07	7.15463e+07	7.28142e+07	-79.2922	0.0000000E+000	0.0000000E+000	0.0000000E+000	79.2922	0.0000000E+000	0.0000000E+000	0.0000000E+000	-79.2922	0.0000000E+000	0.0000000E+000	0.0000000E+000	-10.7078	0.0000000E+000	0.0000000E+000	0.0000000E+000	10.7078	5.28841	79.2922	-5.39348e-05	-3.08294e-07	-2.70315e-10	-3.08024e-07	0.185299	111569	97.8248	111471
0.0315922	47.458	11.8524	48.9157	-14.0225	221.647	0.185464	-0.00152408	425044	24954.6	1	12	0.00478989	9.79214e-05	0	-0.000252728	0.000487159	1.34986e-06	-18.682	0.0137851	0.0130588	0.0044156	-14.0238	48.9294	47.4711	11.8568	0.0198341	0.00495348	0.0204433	14.0225	2.49546e+07	9.99203e+07	1.02989e+08	-75.9775	0.0000000E+000	0.0000000E+000	0.0000000E+000	75.9775	0.0000000E+000	0.0000000E+000	0.0000000E+000	-75.9775	0.0000000E+000	0.0000000E+000	0.0000000E+000	-14.0225	0.0000000E+000	0.0000000E+000	0.0000000E+000	14.0225	4.00408	75.9775	-1.63961e-05	-2.82662e-07	-7.42468e-10	-2.8192e-07	0.184977	121690	319.642	121370
0.0215268	48.767	15.6734	51.2238	-17.8171	319.386	0.185459	-0.00103809	471712	44163.4	1	12	0.00478792	9.34707e-05	0	-0.000187927	0.000238978	1.09004e-06	8.48265	0.0116618	0.0115342	-0.00172023	-17.8113	51.2342	48.7785	15.6717	0.0185859	0.00597339	0.0195222	17.8171	4.41634e+07	1.37412e+08	1.44334e+08	-72.1829	0.0000000E+000	0.0000000E+000	0.0000000E+000	72.1829	0.0000000E+000	0.0000000E+000	0.0000000E+000	-72.1829	0.0000000E+000	0.0000000E+000	0.0000000E+000	-17.8171	0.0000000E+000	0.0000000E+000	0.0000000E+000	17.8171	3.11144	72.1829	6.48018e-05	-1.92524e-07	-2.48081e-10	-1.92276e-07	0.18522	178654	230.209	178424
0.0146812	51.0585	20.45	55.0015	-21.8272	462.689	0.185462	-0.000517987	530110	73283	1	12	0.00478816	8.70551e-05	0	-3.60717e-05	0.000181706	1.5809e-06	62.4669	0.0181598	0.00839458	-0.0161031	-21.8083	55.0033	51.0668	20.4339	0.0168779	0.00675996	0.0181813	21.8272	7.3283e+07	1.82969e+08	1.97099e+08	-68.1728	0.0000000E+000	0.0000000E+000	0.0000000E+000	68.1728	0.0000000E+000	0.0000000E+000	0.0000000E+000	-68.1728	0.0000000E+000	0.0000000E+000	0.0000000E+000	-21.8272	0.0000000E+000	0.0000000E+000	0.0000000E+000	21.8272	2.49675	68.1728	0.000151855	-9.60668e-08	-9.4121e-11	-9.59727e-08	0.18528	358044	350.792	357693
0.0100092	54.6011	27.2116	61.0062	-26.4903	672.87	0.185464	-8.02825e-05	584343	116260	1	12	0.00478877	7.84965e-05	0	0.000128739	0.000410796	1.90178e-06	-44.8203	0.0242276	0.0171851	0.0170777	-26.4975	61.0292	54.6183	27.2287	0.0146708	0.0073115	0.0163918	26.4903	1.1626e+08	2.33279e+08	2.60644e+08	-63.5097	0.0000000E+000	0.0000000E+000	0.0000000E+000	63.5097	0.0000000E+000	0.0000000E+000	0.0000000E+000	-63.5097	0.0000000E+000	0.0000000E+000	0.0000000E+000	-26.4903	0.0000000E+000	0.0000000E+000	0.0000000E+000	26.4903	2.00654	63.5097	0.000164811	-1.48895e-08	-3.29797e-11	-1.48565e-08	0.185053	2.31014e+06	5116.87	2.30502e+06