File: txt/19143_R306_UA710_SOC00_C07.mpt
EC-Lab ASCII FILE
Nb header lines : 65

Potentio Electrochemical Impedance Spectroscopy

Run on channel : 7 (SN 66126)
Grouped channel(s) : 6, 7, 8
User :
CE vs. WE compliance from -10 V to 10 V
Electrode connection : standard
Potential control : Ewe
Ewe ctrl range : min = -10.00 V, max = 10.00 V
Safety Limits :
	Do not start on E overload
Acquisition started on : 11/12/2025 11:20:50.497
Loaded Setting File :  C:\Users\Celltest\OneDrive - store-dot.com\Documents\EC-Lab\Data\@Biologic Test Protocols\anode half cell EIS SOC00.mps
Saved on :
	File : 19142_R306_UA710_SOC00_C07.mpr
	Directory : C:\Users\Celltest\OneDrive - store-dot.com\Documents\EC-Lab\Data\Charmaine\
	Host : 169.254.61.224
Device : VMP-3e (SN .003165)
Address : USB
EC-LAB for windows v11.62 (software)
Internet server v27.00 (firmware)
Command interpretor v12.03 (firmware)
Electrode material :
Initial state :
Electrolyte :
Comments :
Electrode surface area : 0.001 cm²
Characteristic mass : 0.001 g
Equivalent Weight : 0.000 g/eq.
Density : 0.000 g/cm3
Volume (V) : 0.001 cm³
Record Ece
Cycle Definition : Charge/Discharge alternance
Mode                Single sine
E (V)               0.0000
vs.                 Eoc
tE (h:m:s)          0:00:0.0000
record              0
dI                  0.000
unit dI             mA
dt (s)              0.000
fi                  100.000
unit fi             kHz
ff                  10.000
unit ff             mHz
Nd                  6
Points              per decade
spacing             Logarithmic
Va (mV)             5.0
pw                  0.10
Na                  2
corr                0
E range min (V)     -10.000
E range max (V)     10.000
I Range             Auto
Bandwidth           5
nc cycles           0
goto Ns'            0
nr cycles           0
inc. cycle          0

freq/Hz	Re(Z)/Ohm	-Im(Z)/Ohm	|Z|/Ohm	Phase(Z)/deg	time/s	<Ewe>/V	<I>/mA	Cs/µF	Cp/µF	cycle number	I Range	|Ewe|/V	|I|/A	Ns	(Q-Qo)/mA.h	<Ece>/V	|Ece|/V	Phase(Zce)/deg	|Zce|/Ohm	Re(Zce)/Ohm	-Im(Zce)/Ohm	Phase(Zwe-ce)/deg	|Zwe-ce|/Ohm	Re(Zwe-ce)/Ohm	-Im(Zwe-ce)/Ohm	Re(Y)/Ohm-1	Im(Y)/Ohm-1	|Y|/Ohm-1	Phase(Y)/deg	Re(C)/nF	Im(C)/nF	|C|/nF	Phase(C)/deg	Re(M)	Im(M)	|M|	Phase(M)/deg	Re(Permittivity)	Im(Permittivity)	|Permittivity|	Phase(Permittivity)/deg	Re(Resistivity)/Ohm.cm	Im(Resistivity)/Ohm.cm	|Resistivity|/Ohm.cm	Phase(Resistivity)/deg	Re(Conductivity)/mS/cm	Im(Conductivity)/mS/cm	|Conductivity|/mS/cm	Phase(Conductivity)/deg	Tan(Delta)	Loss Angle(Delta)/deg	dq/mA.h	Pwe/W	Pce/W	Pwe-ce/W	<Ewe-Ece>/V	Rwe/Ohm	Rce/Ohm	Rwe-ce/Ohm		Ewe-Ece/V
100004	1.69792	1.16877	2.0613	-34.5418	1.76852	0.184755	0.0499409	1.36168	0.437776	1	9	0.00474555	0.00230221	0	7.57992e-06	-0.000234939	4.41781e-05	92.4107	0.0191894	-0.000807162	-0.0191724	-34.1131	2.04982	1.69711	1.1496	0.399609	0.275073	0.485131	34.5418	437.776	635.974	772.082	-55.4582	0.0000000E+000	0.0000000E+000	0.0000000E+000	55.4582	0.0000000E+000	0.0000000E+000	0.0000000E+000	-55.4582	0.0000000E+000	0.0000000E+000	0.0000000E+000	-34.5418	0.0000000E+000	0.0000000E+000	0.0000000E+000	34.5418	1.45274	55.4582	7.57992e-06	9.22683e-06	-1.1733e-08	9.23857e-06	0.18499	3699.48	4.70434	3704.18
68132	2.03795	1.3805	2.4615	-34.1135	2.27555	0.184762	0.0465524	1.69213	0.532234	1	9	0.00506644	0.00205827	0	3.92493e-06	-4.41845e-05	3.19467e-05	72.9736	0.0155211	0.00454478	-0.0148408	-33.7675	2.45699	2.04249	1.36565	0.336351	0.227842	0.406256	34.1135	532.234	785.708	949.005	-55.8865	0.0000000E+000	0.0000000E+000	0.0000000E+000	55.8865	0.0000000E+000	0.0000000E+000	0.0000000E+000	-55.8865	0.0000000E+000	0.0000000E+000	0.0000000E+000	-34.1135	0.0000000E+000	0.0000000E+000	0.0000000E+000	34.1135	1.47624	55.8865	-3.65499e-06	8.60113e-06	-2.05689e-09	8.60319e-06	0.184807	3968.91	0.949135	3969.86
46420.4	2.42286	1.58457	2.89502	-33.185	2.78256	0.184773	0.0393286	2.16372	0.648217	1	9	0.00518733	0.00179181	0	1.21271e-05	-0.000120486	1.05473e-05	39.6301	0.00588636	0.00453355	-0.00375449	-33.0737	2.89676	2.4274	1.58082	0.289086	0.189064	0.345421	33.185	648.217	991.147	1184.3	-56.815	0.0000000E+000	0.0000000E+000	0.0000000E+000	56.815	0.0000000E+000	0.0000000E+000	0.0000000E+000	-56.815	0.0000000E+000	0.0000000E+000	0.0000000E+000	-33.185	0.0000000E+000	0.0000000E+000	0.0000000E+000	33.185	1.52903	56.815	8.20217e-06	7.26688e-06	-4.73855e-09	7.27162e-06	0.184894	4698.2	3.06358	4701.26
31621.1	2.87755	1.74348	3.36452	-31.2112	3.16552	0.184779	0.0545954	2.88686	0.775197	1	9	0.0053739	0.00159723	0	1.79808e-05	-0.000139562	1.22296e-05	-57.5752	0.00765677	0.0041055	0.00646305	-31.269	3.37139	2.88166	1.74994	0.2542	0.154017	0.297219	31.2112	775.197	1279.44	1495.96	-58.7888	0.0000000E+000	0.0000000E+000	0.0000000E+000	58.7888	0.0000000E+000	0.0000000E+000	0.0000000E+000	-58.7888	0.0000000E+000	0.0000000E+000	0.0000000E+000	-31.2112	0.0000000E+000	0.0000000E+000	0.0000000E+000	31.2112	1.65047	58.7888	5.85371e-06	1.00881e-05	-7.61942e-09	1.00957e-05	0.184919	3384.52	2.55629	3387.08
21544.7	3.35637	1.86514	3.83979	-29.061	3.54855	0.184767	0.0460683	3.96068	0.934494	1	9	0.0047101	0.00122666	0	2.08321e-05	-0.000349391	8.3617e-06	-20.4745	0.00681667	0.00638604	0.00238441	-29.0458	3.84653	3.36276	1.86752	0.227644	0.126502	0.260431	29.061	934.494	1681.65	1923.86	-60.939	0.0000000E+000	0.0000000E+000	0.0000000E+000	60.939	0.0000000E+000	0.0000000E+000	0.0000000E+000	-60.939	0.0000000E+000	0.0000000E+000	0.0000000E+000	-29.061	0.0000000E+000	0.0000000E+000	0.0000000E+000	29.061	1.79953	60.939	2.85124e-06	8.51192e-06	-1.60959e-08	8.52802e-06	0.185117	4010.73	7.5842	4018.31
14678.6	3.8621	1.97079	4.33588	-27.0348	3.93152	0.184797	0.0474088	5.50168	1.13664	1	9	0.00487955	0.00112539	0	2.45774e-05	-0.000101411	4.30091e-06	-114.05	0.00382171	-0.00155748	0.00348994	-27.0852	4.33608	3.86054	1.97428	0.205433	0.10483	0.230634	27.0348	1136.64	2227.44	2500.68	-62.9652	0.0000000E+000	0.0000000E+000	0.0000000E+000	62.9652	0.0000000E+000	0.0000000E+000	0.0000000E+000	-62.9652	0.0000000E+000	0.0000000E+000	0.0000000E+000	-27.0348	0.0000000E+000	0.0000000E+000	0.0000000E+000	27.0348	1.95967	62.9652	3.74536e-06	8.76101e-06	-4.80776e-09	8.76582e-06	0.184899	3897.95	2.13907	3900.09
10002.2	4.34708	2.02188	4.79428	-24.9438	4.34652	0.184771	-0.0110223	7.86986	1.3997	1	10	0.00462172	0.000964007	0	2.62441e-05	-0.000158637	5.24632e-06	-108.467	0.0054422	-0.00172388	0.00516196	-25.0084	4.79489	4.34535	2.02705	0.189126	0.0879651	0.208582	24.9438	1399.7	3009.36	3318.95	-65.0562	0.0000000E+000	0.0000000E+000	0.0000000E+000	65.0562	0.0000000E+000	0.0000000E+000	0.0000000E+000	-65.0562	0.0000000E+000	0.0000000E+000	0.0000000E+000	-24.9438	0.0000000E+000	0.0000000E+000	0.0000000E+000	24.9438	2.15001	65.0562	1.66674e-06	-2.0366e-06	1.74855e-09	-2.03835e-06	0.184929	16763.3	14.3923	16777.7
6810.42	4.80635	2.09942	5.24486	-23.5958	4.60553	0.184739	-0.0144398	11.1313	1.78352	1	10	0.00462317	0.000881468	0	2.51331e-05	-0.000406618	5.18673e-05	52.8241	0.058842	0.0355561	-0.0468844	-22.9726	5.25898	4.8419	2.05254	0.174722	0.0763189	0.190663	23.5958	1783.52	4083.14	4455.66	-66.4042	0.0000000E+000	0.0000000E+000	0.0000000E+000	66.4042	0.0000000E+000	0.0000000E+000	0.0000000E+000	-66.4042	0.0000000E+000	0.0000000E+000	0.0000000E+000	-23.5958	0.0000000E+000	0.0000000E+000	0.0000000E+000	23.5958	2.28937	66.4042	-1.11103e-06	-2.6676e-06	5.87149e-09	-2.67347e-06	0.185146	12793.7	28.1595	12821.9
4646	5.25679	2.22494	5.70826	-22.9406	4.87059	0.184725	-0.0217104	15.3965	2.33912	1	10	0.00457049	0.00080068	0	2.42455e-05	-6.32599e-05	7.39143e-06	-16.3098	0.00923145	0.00885995	0.00259247	-22.9299	5.71743	5.26565	2.22754	0.161329	0.0682828	0.175185	22.9406	2339.12	5526.55	6001.18	-67.0594	0.0000000E+000	0.0000000E+000	0.0000000E+000	67.0594	0.0000000E+000	0.0000000E+000	0.0000000E+000	-67.0594	0.0000000E+000	0.0000000E+000	0.0000000E+000	-22.9406	0.0000000E+000	0.0000000E+000	0.0000000E+000	22.9406	2.36266	67.0594	-8.87626e-07	-4.01046e-06	1.3734e-09	-4.01183e-06	0.184789	8508.62	2.91381	8511.54
3163.08	5.6989	2.41427	6.1892	-22.9594	5.24361	0.184626	-0.0135575	20.8413	3.17123	1	10	0.00450551	0.000727963	0	2.29768e-05	-4.41845e-05	5.4175e-06	0.307242	0.007442	0.00744189	-3.99067e-05	-22.9322	6.19604	5.70634	2.41423	0.148772	0.0630256	0.161572	22.9594	3171.23	7485.7	8129.72	-67.0406	0.0000000E+000	0.0000000E+000	0.0000000E+000	67.0406	0.0000000E+000	0.0000000E+000	0.0000000E+000	-67.0406	0.0000000E+000	0.0000000E+000	0.0000000E+000	-22.9594	0.0000000E+000	0.0000000E+000	0.0000000E+000	22.9594	2.36051	67.0406	-1.26868e-06	-2.50308e-06	5.99033e-10	-2.50368e-06	0.184671	13618	3.25904	13621.2
2155.69	6.14593	2.72052	6.72113	-23.8768	5.90984	0.184655	-0.00275038	27.1383	4.44632	1	10	0.00496621	0.000738895	0	2.25157e-05	-6.32599e-05	9.65671e-06	-61.3204	0.0130691	0.00627203	0.0114658	-23.9444	6.73151	6.1522	2.73199	0.136051	0.0602236	0.148784	23.8768	4446.32	10044.7	10984.8	-66.1232	0.0000000E+000	0.0000000E+000	0.0000000E+000	66.1232	0.0000000E+000	0.0000000E+000	0.0000000E+000	-66.1232	0.0000000E+000	0.0000000E+000	0.0000000E+000	-23.8768	0.0000000E+000	0.0000000E+000	0.0000000E+000	23.8768	2.2591	66.1232	-4.61133e-07	-5.07871e-07	1.73989e-10	-5.08045e-07	0.184718	67138.1	23.0005	67161.1
1468.59	6.6198	3.17464	7.34167	-25.6208	6.36107	0.184651	-0.00239299	34.137	6.38299	1	10	0.00493014	0.000671529	0	2.22241e-05	-0.000139562	6.55232e-06	16.9123	0.00975732	0.00933533	-0.00283848	-25.5694	7.34886	6.62914	3.1718	0.122816	0.0588985	0.136209	25.6208	6382.99	13309.9	14761.3	-64.3792	0.0000000E+000	0.0000000E+000	0.0000000E+000	64.3792	0.0000000E+000	0.0000000E+000	0.0000000E+000	-64.3792	0.0000000E+000	0.0000000E+000	0.0000000E+000	-25.6208	0.0000000E+000	0.0000000E+000	0.0000000E+000	25.6208	2.08521	64.3792	-2.91604e-07	-4.4187e-07	3.3397e-10	-4.42204e-07	0.184791	77163.4	58.3209	77221.7
1000.32	7.16098	3.84319	8.1271	-28.2218	6.81178	0.184646	-0.00158515	41.3989	9.25768	1	10	0.00489671	0.000602516	0	2.15586e-05	3.21172e-05	8.24298e-06	11.9237	0.0136809	0.0133857	-0.0028266	-28.1597	8.13756	7.17436	3.84036	0.108418	0.0581864	0.123045	28.2218	9257.68	17249.7	19577	-61.7782	0.0000000E+000	0.0000000E+000	0.0000000E+000	61.7782	0.0000000E+000	0.0000000E+000	0.0000000E+000	-61.7782	0.0000000E+000	0.0000000E+000	0.0000000E+000	-28.2218	0.0000000E+000	0.0000000E+000	0.0000000E+000	28.2218	1.86329	61.7782	-6.65459e-07	-2.92693e-07	-5.09106e-11	-2.92642e-07	0.184614	116485	20.2612	116465
681.09	7.83094	4.77419	9.17151	-31.3689	7.26154	0.184645	-0.00289184	48.9458	13.2628	1	10	0.00488531	0.000532662	0	2.15815e-05	-0.000196788	5.19159e-06	-52.7914	0.0097465	0.0058939	0.0077625	-31.3911	9.18058	7.83683	4.78196	0.0930963	0.0567569	0.109033	31.3689	13262.8	21754.5	25478.6	-58.6311	0.0000000E+000	0.0000000E+000	0.0000000E+000	58.6311	0.0000000E+000	0.0000000E+000	0.0000000E+000	-58.6311	0.0000000E+000	0.0000000E+000	0.0000000E+000	-31.3689	0.0000000E+000	0.0000000E+000	0.0000000E+000	31.3689	1.64026	58.6311	2.29334e-08	-5.33964e-07	5.6908e-10	-5.34534e-07	0.184842	63850.3	68.0493	63918.4
463.961	8.78041	6.00501	10.6375	-34.3686	7.71334	0.184655	-0.000390152	57.1249	18.2044	1	10	0.00488837	0.000459543	0	2.17772e-05	-0.00031124	3.01919e-05	32.3058	0.0656998	0.05553	-0.0351125	-34.0445	10.6637	8.83594	5.9699	0.0775958	0.0530686	0.0940073	34.3686	18204.4	26618.1	32247.8	-55.6314	0.0000000E+000	0.0000000E+000	0.0000000E+000	55.6314	0.0000000E+000	0.0000000E+000	0.0000000E+000	-55.6314	0.0000000E+000	0.0000000E+000	0.0000000E+000	-34.3686	0.0000000E+000	0.0000000E+000	0.0000000E+000	34.3686	1.46218	55.6314	1.95633e-07	-7.20435e-08	1.21431e-10	-7.21649e-08	0.184966	473291	797.742	474089
316.316	10.1069	7.6134	12.6536	-36.9903	8.16107	0.184649	-0.00152187	66.0877	23.925	1	10	0.00486477	0.000384458	0	2.13159e-05	-0.000196788	6.1462e-06	56.2395	0.0159867	0.00888414	-0.0132908	-36.9181	12.6527	10.1158	7.60011	0.0631235	0.0475503	0.0790291	36.9903	23925	31760.7	39763.6	-53.0097	0.0000000E+000	0.0000000E+000	0.0000000E+000	53.0097	0.0000000E+000	0.0000000E+000	0.0000000E+000	-53.0097	0.0000000E+000	0.0000000E+000	0.0000000E+000	-36.9903	0.0000000E+000	0.0000000E+000	0.0000000E+000	36.9903	1.32751	53.0097	-4.61313e-07	-2.81013e-07	2.99486e-10	-2.81312e-07	0.184846	121330	129.306	121460
215.345	12.0152	9.54853	15.3473	-38.4743	8.61053	0.184645	-0.0012315	77.4016	29.9612	1	10	0.00485407	0.000316281	0	2.08899e-05	1.30418e-05	7.23261e-06	-70.7353	0.0228676	0.00754479	0.0215871	-38.5198	15.3666	12.0227	9.57012	0.0510114	0.040539	0.0651581	38.4743	29961.2	37701.1	48156.4	-51.5257	0.0000000E+000	0.0000000E+000	0.0000000E+000	51.5257	0.0000000E+000	0.0000000E+000	0.0000000E+000	-51.5257	0.0000000E+000	0.0000000E+000	0.0000000E+000	-38.4743	0.0000000E+000	0.0000000E+000	0.0000000E+000	38.4743	1.25833	51.5257	-4.25932e-07	-2.2739e-07	-1.60609e-11	-2.27374e-07	0.184632	149935	10.5901	149924
146.737	14.8097	11.5275	18.7673	-37.8962	9.05649	0.184638	-0.00385605	94.0902	35.4986	1	10	0.00485221	0.000258546	0	2.02358e-05	-0.00052107	5.16874e-06	-11.0485	0.0199916	0.019621	0.00383117	-37.8687	18.7851	14.8294	11.5313	0.0420479	0.0327289	0.0532842	37.8962	35498.6	45606.1	57793.3	-52.1038	0.0000000E+000	0.0000000E+000	0.0000000E+000	52.1038	0.0000000E+000	0.0000000E+000	0.0000000E+000	-52.1038	0.0000000E+000	0.0000000E+000	0.0000000E+000	-37.8962	0.0000000E+000	0.0000000E+000	0.0000000E+000	37.8962	1.28473	52.1038	-6.541e-07	-7.11972e-07	2.00927e-09	-7.13982e-07	0.185159	47882.7	135.131	48017.8
100.032	18.6738	13.3009	22.9265	-35.4613	9.75286	0.184699	-0.00479593	119.619	40.2611	1	11	0.00486498	0.000212199	0	1.96393e-05	-0.000215863	5.29038e-06	59.8303	0.0249313	0.0125295	-0.0215541	-35.3992	22.9242	18.6864	13.2793	0.0355269	0.0253049	0.0436176	35.4613	40261.1	56524.7	69397.4	-54.5387	0.0000000E+000	0.0000000E+000	0.0000000E+000	54.5387	0.0000000E+000	0.0000000E+000	0.0000000E+000	-54.5387	0.0000000E+000	0.0000000E+000	0.0000000E+000	-35.4613	0.0000000E+000	0.0000000E+000	0.0000000E+000	35.4613	1.40395	54.5387	-5.96503e-07	-8.85802e-07	1.03526e-09	-8.86837e-07	0.184915	38511.6	45.0097	38556.6
68.104	23.2822	14.0981	27.2179	-31.1963	10.2155	0.1847	-0.00451153	165.762	44.4732	1	11	0.00485371	0.000178328	0	1.89604e-05	-0.000254014	3.94443e-06	-84.9231	0.022119	0.00195735	0.0220322	-31.2338	27.231	23.2841	14.1202	0.0314277	0.0190305	0.0367405	31.1963	44473.2	73444.7	85860.3	-58.8037	0.0000000E+000	0.0000000E+000	0.0000000E+000	58.8037	0.0000000E+000	0.0000000E+000	0.0000000E+000	-58.8037	0.0000000E+000	0.0000000E+000	0.0000000E+000	-31.1963	0.0000000E+000	0.0000000E+000	0.0000000E+000	31.1963	1.65144	58.8037	-6.78888e-07	-8.33281e-07	1.14599e-09	-8.34427e-07	0.184954	40939.6	56.3033	40995.9
46.4415	28.0039	13.6092	31.1356	-25.9186	10.6516	0.184695	-0.00490514	251.815	48.1094	1	11	0.00485104	0.000155803	0	1.84165e-05	-8.23354e-05	1.41714e-05	-41.1675	0.0909569	0.0684713	0.0598735	-25.9625	31.2234	28.0724	13.6691	0.028887	0.0140384	0.0321175	25.9186	48109.4	98995.7	110067	-64.0814	0.0000000E+000	0.0000000E+000	0.0000000E+000	64.0814	0.0000000E+000	0.0000000E+000	0.0000000E+000	-64.0814	0.0000000E+000	0.0000000E+000	0.0000000E+000	-25.9186	0.0000000E+000	0.0000000E+000	0.0000000E+000	25.9186	2.05772	64.0814	-5.43959e-07	-9.05957e-07	4.03866e-10	-9.06361e-07	0.184778	37653.5	16.7855	37670.2
31.6296	32.1361	12.0075	34.3061	-20.488	11.0816	0.184697	-0.00488725	419.058	51.3378	1	11	0.0048448	0.000141223	0	1.80223e-05	-0.000139562	7.49692e-06	67.8474	0.0530857	0.0200173	-0.0491671	-20.3994	34.3077	32.1561	11.9583	0.0273055	0.0102026	0.0291494	20.488	51337.8	137397	146675	-69.512	0.0000000E+000	0.0000000E+000	0.0000000E+000	69.512	0.0000000E+000	0.0000000E+000	0.0000000E+000	-69.512	0.0000000E+000	0.0000000E+000	0.0000000E+000	-20.488	0.0000000E+000	0.0000000E+000	0.0000000E+000	20.488	2.67633	69.512	-3.94139e-07	-9.02659e-07	6.82072e-10	-9.03341e-07	0.184836	37791.5	28.5563	37820.1
21.5517	35.203	9.86254	36.5585	-15.6508	11.5024	0.184697	-0.0049331	748.772	54.4943	1	11	0.00484618	0.00013256	0	1.74283e-05	0.000108419	9.42629e-06	87.2913	0.0711099	0.00336053	-0.0710304	-15.5422	36.5426	35.2064	9.79151	0.0263393	0.00737926	0.0273534	15.6508	54494.3	194510	201999	-74.3492	0.0000000E+000	0.0000000E+000	0.0000000E+000	74.3492	0.0000000E+000	0.0000000E+000	0.0000000E+000	-74.3492	0.0000000E+000	0.0000000E+000	0.0000000E+000	-15.6508	0.0000000E+000	0.0000000E+000	0.0000000E+000	15.6508	3.56937	74.3492	-5.94091e-07	-9.11128e-07	-5.34841e-10	-9.10594e-07	0.184589	37440.4	21.9779	37418.4
14.6852	37.2066	7.75869	38.007	-11.7791	11.9631	0.1847	-0.00404598	1396.86	58.2108	1	11	0.00483637	0.00012725	0	1.66177e-05	-0.000120486	9.77767e-06	7.56812	0.0768385	0.0761692	-0.01012	-11.7408	38.0795	37.2828	7.74857	0.0257569	0.00537109	0.026311	11.7791	58210.8	279149	285153	-78.2209	0.0000000E+000	0.0000000E+000	0.0000000E+000	78.2209	0.0000000E+000	0.0000000E+000	0.0000000E+000	-78.2209	0.0000000E+000	0.0000000E+000	0.0000000E+000	-11.7791	0.0000000E+000	0.0000000E+000	0.0000000E+000	11.7791	4.79548	78.2209	-8.10565e-07	-7.47293e-07	4.87485e-10	-7.47781e-07	0.184821	45650.3	29.7792	45680
10.0032	38.5474	5.98644	39.0095	-8.82756	12.4138	0.184694	-0.00429422	2657.74	62.5906	1	11	0.00484458	0.00012419	0	1.55766e-05	-0.00031124	5.00575e-06	22.1351	0.0403072	0.0373365	-0.0151874	-8.79713	39.0441	38.5847	5.97125	0.0253311	0.00393394	0.0256348	8.82756	62590.6	403029	407860	-81.1724	0.0000000E+000	0.0000000E+000	0.0000000E+000	81.1724	0.0000000E+000	0.0000000E+000	0.0000000E+000	-81.1724	0.0000000E+000	0.0000000E+000	0.0000000E+000	-8.82756	0.0000000E+000	0.0000000E+000	0.0000000E+000	8.82756	6.43912	81.1724	-1.0411e-06	-7.93116e-07	1.33654e-09	-7.94452e-07	0.185005	43009.8	72.4788	43082.2
6.81719	39.42	4.58734	39.686	-6.6377	12.7535	0.184711	-0.00343395	5089.26	67.9986	1	11	0.00484343	0.000122044	0	1.52897e-05	-0.00027309	4.63633e-06	-23.7117	0.0379891	0.0347821	0.0152767	-6.65379	39.7223	39.4548	4.60261	0.0250289	0.00291263	0.0251978	6.6377	67998.6	584328	588271	-83.3623	0.0000000E+000	0.0000000E+000	0.0000000E+000	83.3623	0.0000000E+000	0.0000000E+000	0.0000000E+000	-83.3623	0.0000000E+000	0.0000000E+000	0.0000000E+000	-6.6377	0.0000000E+000	0.0000000E+000	0.0000000E+000	6.6377	8.59322	83.3623	-2.86904e-07	-6.34289e-07	9.37776e-10	-6.35227e-07	0.184984	53789.8	79.5264	53869.3
4.63925	39.8305	3.56798	39.99	-5.11885	13.2374	0.184697	-0.00362479	9615	76.5407	1	11	0.00482722	0.000120711	0	1.6103e-05	-0.000482919	3.41308e-05	-111.579	0.282749	-0.103989	0.262932	-5.50813	39.9108	39.7265	3.83092	0.0249065	0.00223111	0.0250063	5.11885	76540.8	854447	857869	-84.8811	0.0000000E+000	0.0000000E+000	0.0000000E+000	84.8811	0.0000000E+000	0.0000000E+000	0.0000000E+000	-84.8811	0.0000000E+000	0.0000000E+000	0.0000000E+000	-5.11885	0.0000000E+000	0.0000000E+000	0.0000000E+000	5.11885	11.1633	84.8811	8.13362e-07	-6.69489e-07	1.75048e-09	-6.71239e-07	0.18518	50953.9	133.227	51087.1
3.1604	40.3674	2.90446	40.4718	-4.11537	13.9304	0.184711	-0.00279638	17338.6	89.2976	1	11	0.00484131	0.000119622	0	1.52722e-05	-0.00031124	1.14213e-05	-4.87296	0.0954779	0.0951328	0.00811054	-4.11716	40.5672	40.4625	2.91257	0.0246449	0.00177321	0.0247086	4.11537	89297.5	1.2411e+06	1.2443e+06	-85.8846	0.0000000E+000	0.0000000E+000	0.0000000E+000	85.8846	0.0000000E+000	0.0000000E+000	0.0000000E+000	-85.8846	0.0000000E+000	0.0000000E+000	0.0000000E+000	-4.11537	0.0000000E+000	0.0000000E+000	0.0000000E+000	4.11537	13.8984	85.8846	-8.30866e-07	-5.16524e-07	8.70347e-10	-5.17394e-07	0.185023	66053.7	111.301	66165
2.15577	40.6831	2.54339	40.7625	-3.57731	14.934	0.184714	-0.00218761	29027.2	113.008	1	11	0.00484668	0.0001189	0	1.2591e-05	-0.000368467	4.05786e-06	-73.525	0.0341282	0.00967867	0.0327271	-3.62236	40.7742	40.6928	2.57611	0.0244845	0.0015307	0.0245324	3.57731	113008	1.80763e+06	1.81116e+06	-86.4227	0.0000000E+000	0.0000000E+000	0.0000000E+000	86.4227	0.0000000E+000	0.0000000E+000	0.0000000E+000	-86.4227	0.0000000E+000	0.0000000E+000	0.0000000E+000	-3.57731	0.0000000E+000	0.0000000E+000	0.0000000E+000	3.57731	15.9956	86.4227	-2.68119e-06	-4.04083e-07	8.06061e-10	-4.04889e-07	0.185083	84436.5	168.433	84605
1.46631	40.9875	2.37574	41.0563	-3.3173	17.1216	0.184718	-0.00242823	45687.2	152.98	1	12	0.00484291	0.000117958	0	9.24213e-06	5.11926e-05	4.16797e-06	-47.0071	0.0353344	0.0240948	0.025845	-3.35134	41.0818	41.0116	2.40159	0.024316	0.00140942	0.0243568	3.3173	152980	2.63929e+06	2.64372e+06	-86.6827	0.0000000E+000	0.0000000E+000	0.0000000E+000	86.6827	0.0000000E+000	0.0000000E+000	0.0000000E+000	-86.6827	0.0000000E+000	0.0000000E+000	0.0000000E+000	-3.3173	0.0000000E+000	0.0000000E+000	0.0000000E+000	3.3173	17.2525	86.6827	-3.34885e-06	-4.48538e-07	-1.24307e-10	-4.48414e-07	0.184667	76071	21.0823	76050
1.00006	41.3636	2.39019	41.4326	-3.30715	19.2516	0.184719	-0.0025074	66582.5	221.585	1	12	0.00484546	0.000116948	0	9.59938e-06	1.30418e-05	1.99692e-06	-69.3164	0.0170752	0.0060311	0.0159746	-3.32872	41.4395	41.3696	2.40616	0.0240954	0.00139235	0.0241356	3.30715	221585	3.83466e+06	3.84105e+06	-86.6928	0.0000000E+000	0.0000000E+000	0.0000000E+000	86.6928	0.0000000E+000	0.0000000E+000	0.0000000E+000	-86.6928	0.0000000E+000	0.0000000E+000	0.0000000E+000	-3.30715	0.0000000E+000	0.0000000E+000	0.0000000E+000	3.30715	17.3056	86.6928	3.57247e-07	-4.63165e-07	-3.27009e-11	-4.63132e-07	0.184706	73669.6	5.2013	73664.4
0.681362	41.7478	2.52353	41.824	-3.45916	22.3644	0.184714	-0.0026851	92562	336.977	1	12	0.00484771	0.000115908	0	1.21498e-05	-0.000463844	1.69266e-06	-69.4945	0.0146035	0.00511558	0.0136783	-3.47744	41.8299	41.7529	2.53721	0.0238662	0.00144264	0.0239097	3.45916	336978	5.57474e+06	5.58492e+06	-86.5408	0.0000000E+000	0.0000000E+000	0.0000000E+000	86.5408	0.0000000E+000	0.0000000E+000	0.0000000E+000	-86.5408	0.0000000E+000	0.0000000E+000	0.0000000E+000	-3.45916	0.0000000E+000	0.0000000E+000	0.0000000E+000	3.45916	16.5434	86.5408	2.5504e-06	-4.95975e-07	1.24547e-09	-4.97221e-07	0.185177	68792	172.747	68964.8
0.464091	42.1016	2.7545	42.1916	-3.74324	26.921	0.184708	-0.00219177	124502	530.65	1	12	0.00483473	0.00011459	0	1.5915e-05	-0.000254014	1.74567e-05	-50.917	0.15234	0.0960423	0.118252	-3.8946	42.2953	42.1976	2.87275	0.0236508	0.00154736	0.0237014	3.74324	530649	8.1108e+06	8.12815e+06	-86.2568	0.0000000E+000	0.0000000E+000	0.0000000E+000	86.2568	0.0000000E+000	0.0000000E+000	0.0000000E+000	-86.2568	0.0000000E+000	0.0000000E+000	0.0000000E+000	-3.74324	0.0000000E+000	0.0000000E+000	0.0000000E+000	3.74324	15.2847	86.2568	3.76525e-06	-4.04837e-07	5.56741e-10	-4.05394e-07	0.184962	84273.2	115.894	84389.1
0.316193	42.7369	3.11406	42.8502	-4.16754	33.597	0.184717	-0.00134095	161637	853.668	1	12	0.00484734	0.000113123	0	1.72721e-05	-0.000215863	2.59396e-06	-30.8507	0.0229304	0.0196859	0.0117588	-4.1813	42.8707	42.7566	3.12581	0.0232754	0.00169598	0.0233371	4.16754	853667	1.17156e+07	1.17467e+07	-85.8325	0.0000000E+000	0.0000000E+000	0.0000000E+000	85.8325	0.0000000E+000	0.0000000E+000	0.0000000E+000	-85.8325	0.0000000E+000	0.0000000E+000	0.0000000E+000	-4.16754	0.0000000E+000	0.0000000E+000	0.0000000E+000	4.16754	13.7239	85.8325	1.35709e-06	-2.47696e-07	2.89462e-10	-2.47986e-07	0.184933	137750	160.978	137911
0.215268	43.3122	3.70513	43.4704	-4.88946	43.3906	0.184724	-0.000408274	199543	1449.63	1	12	0.00484895	0.000111546	0	1.11997e-05	-0.000234939	2.17224e-06	74.8446	0.0194739	0.00509121	-0.0187966	-4.8642	43.4738	43.3173	3.68634	0.0229205	0.00196073	0.0230042	4.88946	1.44963e+06	1.69459e+07	1.70078e+07	-85.1105	0.0000000E+000	0.0000000E+000	0.0000000E+000	85.1105	0.0000000E+000	0.0000000E+000	0.0000000E+000	-85.1105	0.0000000E+000	0.0000000E+000	0.0000000E+000	-4.88946	0.0000000E+000	0.0000000E+000	0.0000000E+000	4.88946	11.6898	85.1105	-6.07241e-06	-7.5418e-08	9.59194e-11	-7.5514e-08	0.184959	452451	575.443	453026
0.146929	43.862	4.46604	44.0887	-5.81385	57.729	0.184725	-0.000136951	242544	2488.75	1	12	0.00484836	0.000109968	0	-7.50724e-06	-0.000101411	3.12065e-06	-4.72809	0.0283778	0.0282812	0.0023391	-5.81315	44.1171	43.8902	4.46838	0.0225649	0.00229756	0.0226815	5.81385	2.48875e+06	2.44425e+07	2.45689e+07	-84.1862	0.0000000E+000	0.0000000E+000	0.0000000E+000	84.1862	0.0000000E+000	0.0000000E+000	0.0000000E+000	-84.1862	0.0000000E+000	0.0000000E+000	0.0000000E+000	-5.81385	0.0000000E+000	0.0000000E+000	0.0000000E+000	5.81385	9.82121	84.1862	-1.87069e-05	-2.52983e-08	1.38883e-11	-2.53122e-08	0.184826	1.34884e+06	740.488	1.34958e+06
0.0999041	44.4936	5.45825	44.8271	-6.99381	78.8062	0.184725	-0.000317149	291866	4327.21	1	12	0.00484851	0.00010816	0	-3.94326e-05	-0.00027309	1.97059e-06	-39.283	0.0182192	0.0141022	0.0115355	-7.00625	44.8425	44.5077	5.46979	0.0221419	0.00271626	0.0223079	6.99381	4.32721e+06	3.52738e+07	3.55382e+07	-83.0062	0.0000000E+000	0.0000000E+000	0.0000000E+000	83.0062	0.0000000E+000	0.0000000E+000	0.0000000E+000	-83.0062	0.0000000E+000	0.0000000E+000	0.0000000E+000	-6.99381	0.0000000E+000	0.0000000E+000	0.0000000E+000	6.99381	8.15162	83.0062	-3.19253e-05	-5.85854e-08	8.66101e-11	-5.86721e-08	0.184998	582455	861.076	583316
0.0680626	45.35	6.91407	45.874	-8.66856	109.734	0.184728	-0.000620744	338203	7682.65	1	12	0.00484986	0.000105721	0	-7.71458e-05	5.11926e-05	2.78136e-06	3.70275	0.0263084	0.0262535	-0.001699	-8.66153	45.8997	45.3763	6.91237	0.0215498	0.00328548	0.0217988	8.66856	7.68264e+06	5.03912e+07	5.09735e+07	-81.3314	0.0000000E+000	0.0000000E+000	0.0000000E+000	81.3314	0.0000000E+000	0.0000000E+000	0.0000000E+000	-81.3314	0.0000000E+000	0.0000000E+000	0.0000000E+000	-8.66856	0.0000000E+000	0.0000000E+000	0.0000000E+000	8.66856	6.5591	81.3314	-3.77132e-05	-1.14669e-07	-3.17775e-11	-1.14637e-07	0.184677	297592	82.4697	297509
0.0464052	46.4826	9.1307	47.3709	-11.1133	155.084	0.184725	-0.0011469	375621	13955.1	1	12	0.00484901	0.000102363	0	-0.000103858	-4.41845e-05	1.751e-06	-0.673272	0.0171058	0.0171046	0.000201003	-11.1095	47.3877	46.4997	9.1309	0.0207142	0.00406894	0.02111	11.1133	1.39551e+07	7.10429e+07	7.24006e+07	-78.8867	0.0000000E+000	0.0000000E+000	0.0000000E+000	78.8867	0.0000000E+000	0.0000000E+000	0.0000000E+000	-78.8867	0.0000000E+000	0.0000000E+000	0.0000000E+000	-11.1133	0.0000000E+000	0.0000000E+000	0.0000000E+000	11.1133	5.0908	78.8867	-2.6712e-05	-2.1186e-07	5.06752e-11	-2.11911e-07	0.184769	161064	38.5252	161103
0.0315922	47.5527	12.1943	49.0913	-14.3829	221.69	0.184727	-0.000979427	413126	25491	1	12	0.00484584	9.87107e-05	0	-8.00436e-05	-4.41845e-05	2.44552e-06	19.1631	0.0247746	0.0234018	-0.00813246	-14.3669	49.112	47.5761	12.1862	0.0197317	0.00505996	0.0203702	14.3829	2.5491e+07	9.94044e+07	1.02621e+08	-75.6171	0.0000000E+000	0.0000000E+000	0.0000000E+000	75.6171	0.0000000E+000	0.0000000E+000	0.0000000E+000	-75.6171	0.0000000E+000	0.0000000E+000	0.0000000E+000	-14.3829	0.0000000E+000	0.0000000E+000	0.0000000E+000	14.3829	3.89958	75.6171	2.38141e-05	-1.80927e-07	4.32755e-11	-1.8097e-07	0.184772	188608	45.1126	188653
0.0215268	49.0644	15.9453	51.5904	-18.0035	319.428	0.184724	-0.000594612	463669	44293.1	1	12	0.00484712	9.39539e-05	0	2.15915e-05	-4.41845e-05	9.74423e-07	29.2699	0.0103713	0.00904715	-0.00507078	-17.995	51.5974	49.0735	15.9402	0.0184344	0.00599094	0.0193834	18.0035	4.42931e+07	1.36292e+08	1.43309e+08	-71.9965	0.0000000E+000	0.0000000E+000	0.0000000E+000	71.9965	0.0000000E+000	0.0000000E+000	0.0000000E+000	-71.9965	0.0000000E+000	0.0000000E+000	0.0000000E+000	-18.0035	0.0000000E+000	0.0000000E+000	0.0000000E+000	18.0035	3.07705	71.9965	0.000101635	-1.09839e-07	2.62726e-11	-1.09865e-07	0.184768	310663	74.3082	310737
0.0146812	51.6771	20.9143	55.7489	-22.0338	462.73	0.184724	-8.88426e-05	518341	72951	1	12	0.00484758	8.69539e-05	0	0.000180888	-0.00031124	3.14959e-06	21.9254	0.0362214	0.0336015	-0.013525	-22.0079	55.7749	51.7107	20.9008	0.0166275	0.00672933	0.0179376	22.0338	7.2951e+07	1.80254e+08	1.94457e+08	-67.9662	0.0000000E+000	0.0000000E+000	0.0000000E+000	67.9662	0.0000000E+000	0.0000000E+000	0.0000000E+000	-67.9662	0.0000000E+000	0.0000000E+000	0.0000000E+000	-22.0338	0.0000000E+000	0.0000000E+000	0.0000000E+000	22.0338	2.4709	67.9662	0.000159296	-1.64113e-08	2.76514e-11	-1.6439e-08	0.185035	2.07923e+06	3503.28	2.08273e+06
0.0100092	55.1853	28.1302	61.9413	-27.0098	672.913	0.184728	0.000179403	565261	116583	1	12	0.00484737	7.82575e-05	0	0.000296725	-0.000139562	3.33601e-06	-14.9388	0.0426286	0.0411879	0.0109891	-27.0016	61.983	55.2264	28.1412	0.0143834	0.00733184	0.0161443	27.0098	1.16583e+08	2.2871e+08	2.5671e+08	-62.9902	0.0000000E+000	0.0000000E+000	0.0000000E+000	62.9902	0.0000000E+000	0.0000000E+000	0.0000000E+000	-62.9902	0.0000000E+000	0.0000000E+000	0.0000000E+000	-27.0098	0.0000000E+000	0.0000000E+000	0.0000000E+000	27.0098	1.96178	62.9902	0.000115837	3.31408e-08	-2.50377e-11	3.31658e-08	0.184868	1.02969e+06	777.924	1.03046e+06