File: txt/19147_R306_UA711_SOC00_C03.mpt
EC-Lab ASCII FILE
Nb header lines : 66

Potentio Electrochemical Impedance Spectroscopy

Run on channel : 3 (SN 65921)
Grouped channel(s) : 3, 4, 5, 6, 7
User :
CE vs. WE compliance from -10 V to 10 V
Electrode connection : standard
Potential control : Ewe
Ewe ctrl range : min = -10.00 V, max = 10.00 V
Safety Limits :
	Do not start on E overload
Acquisition started on : 11/12/2025 11:40:22.150
Loaded Setting File :  C:\Users\Celltest\OneDrive - store-dot.com\Documents\EC-Lab\Data\@Biologic Test Protocols\anode half cell EIS SOC00.mps
Saved on :
	File : 19147_R306_UA711_SOC00_C03.mpr
	Directory : C:\Users\Celltest\OneDrive - store-dot.com\Documents\EC-Lab\Data\Charmaine\
	Host : 169.254.61.224
Device : VMP-3e (SN .003165)
Address : USB
EC-LAB for windows v11.62 (software)
Internet server v27.00 (firmware)
Command interpretor v12.03 (firmware)
Electrode material :
Initial state :
Electrolyte :
Comments :
Electrode surface area : 0.001 cm²
Characteristic mass : 0.001 g
Equivalent Weight : 0.000 g/eq.
Density : 0.000 g/cm3
Volume (V) : 0.001 cm³
Record Ece
Cycle Definition : Charge/Discharge alternance
Mode                Single sine
E (V)               0.0000
vs.                 Eoc
tE (h:m:s)          0:00:0.0000
record              0
dI                  0.000
unit dI             mA
dt (s)              0.000
fi                  100.000
unit fi             kHz
ff                  10.000
unit ff             mHz
Nd                  6
Points              per decade
spacing             Logarithmic
Va (mV)             5.0
pw                  0.10
Na                  2
corr                0
E range min (V)     -10.000
E range max (V)     10.000
I Range             Auto
Bandwidth           5
nc cycles           0
goto Ns'            0
nr cycles           0
inc. cycle          0

freq/Hz	Re(Z)/Ohm	-Im(Z)/Ohm	|Z|/Ohm	Phase(Z)/deg	time/s	<Ewe>/V	<I>/mA	Cs/µF	Cp/µF	cycle number	I Range	|Ewe|/V	|I|/A	Ns	(Q-Qo)/mA.h	<Ece>/V	|Ece|/V	Phase(Zce)/deg	|Zce|/Ohm	Re(Zce)/Ohm	-Im(Zce)/Ohm	Phase(Zwe-ce)/deg	|Zwe-ce|/Ohm	Re(Zwe-ce)/Ohm	-Im(Zwe-ce)/Ohm	Re(Y)/Ohm-1	Im(Y)/Ohm-1	|Y|/Ohm-1	Phase(Y)/deg	Re(C)/nF	Im(C)/nF	|C|/nF	Phase(C)/deg	Re(M)	Im(M)	|M|	Phase(M)/deg	Re(Permittivity)	Im(Permittivity)	|Permittivity|	Phase(Permittivity)/deg	Re(Resistivity)/Ohm.cm	Im(Resistivity)/Ohm.cm	|Resistivity|/Ohm.cm	Phase(Resistivity)/deg	Re(Conductivity)/mS/cm	Im(Conductivity)/mS/cm	|Conductivity|/mS/cm	Phase(Conductivity)/deg	Tan(Delta)	Loss Angle(Delta)/deg	dq/mA.h	Pwe/W	Pce/W	Pwe-ce/W	<Ewe-Ece>/V	Rwe/Ohm	Rce/Ohm	Rwe-ce/Ohm		Ewe-Ece/V
100004	3.13673	1.08583	3.31935	-19.0941	1.77853	0.197677	0.0428439	1.46569	0.156841	1	9	0.00551305	0.00166088	0	4.59451e-06	-0.000243339	2.97269e-05	46.8356	0.0178982	0.0122441	-0.0130549	-18.8126	3.32669	3.14897	1.07277	0.284689	0.0985496	0.301264	19.0941	156.841	453.08	479.459	-70.9059	0.0000000E+000	0.0000000E+000	0.0000000E+000	70.9059	0.0000000E+000	0.0000000E+000	0.0000000E+000	-70.9059	0.0000000E+000	0.0000000E+000	0.0000000E+000	-19.0941	0.0000000E+000	0.0000000E+000	0.0000000E+000	19.0941	2.88879	70.9059	4.59451e-06	8.46926e-06	-1.04256e-08	8.47969e-06	0.197921	4613.9	5.67968	4619.58
68132	3.20785	1.77078	3.66414	-28.8993	2.28552	0.197642	0.0374363	1.31918	0.308097	1	9	0.00514413	0.00140391	0	2.47653e-05	4.88337e-06	2.24568e-05	46.36	0.0159959	0.0110392	-0.0115761	-28.6576	3.66825	3.21889	1.7592	0.238929	0.131892	0.272915	28.8993	308.097	558.133	637.524	-61.1007	0.0000000E+000	0.0000000E+000	0.0000000E+000	61.1007	0.0000000E+000	0.0000000E+000	0.0000000E+000	-61.1007	0.0000000E+000	0.0000000E+000	0.0000000E+000	-28.8993	0.0000000E+000	0.0000000E+000	0.0000000E+000	28.8993	1.81155	61.1007	2.01708e-05	7.39899e-06	1.82815e-10	7.39881e-06	0.197637	5279.43	0.130445	5279.29
46420.4	3.71548	2.08894	4.26245	-29.3458	2.66855	0.197641	0.0416878	1.64129	0.394202	1	9	0.00452055	0.00106055	0	2.84111e-05	-5.23988e-05	1.58298e-05	28.9216	0.014926	0.0130645	-0.00721841	-29.1755	4.27032	3.72855	2.08172	0.204501	0.114976	0.234607	29.3458	394.202	701.145	804.363	-60.6542	0.0000000E+000	0.0000000E+000	0.0000000E+000	60.6542	0.0000000E+000	0.0000000E+000	0.0000000E+000	-60.6542	0.0000000E+000	0.0000000E+000	0.0000000E+000	-29.3458	0.0000000E+000	0.0000000E+000	0.0000000E+000	29.3458	1.77864	60.6542	3.64582e-06	8.23919e-06	-2.18439e-09	8.24138e-06	0.197693	4740.97	1.25694	4742.23
31621.1	4.23713	2.43237	4.88566	-29.8584	3.33052	0.197645	-0.0036512	2.06925	0.512891	1	10	0.00464071	0.000949864	0	3.30673e-05	0.000100354	1.28713e-05	22.3024	0.0135507	0.012537	-0.00514241	-29.7331	4.89399	4.24967	2.42723	0.177511	0.101902	0.204681	29.8584	512.891	893.445	1030.19	-60.1416	0.0000000E+000	0.0000000E+000	0.0000000E+000	60.1416	0.0000000E+000	0.0000000E+000	0.0000000E+000	-60.1416	0.0000000E+000	0.0000000E+000	0.0000000E+000	-29.8584	0.0000000E+000	0.0000000E+000	0.0000000E+000	29.8584	1.74198	60.1416	4.65618e-06	-7.2164e-07	-3.66411e-10	-7.21274e-07	0.197544	54131.5	27.4852	54104.1
21544.7	4.93506	2.70899	5.6297	-28.7636	4.08757	0.197629	-0.00205896	2.72692	0.631419	1	10	0.00482795	0.000857585	0	3.19034e-05	2.39774e-05	8.72514e-06	124.406	0.0101741	-0.0057489	-0.00839417	-28.7168	5.62062	4.92932	2.7006	0.155712	0.0854747	0.177629	28.7636	631.419	1150.28	1312.18	-61.2364	0.0000000E+000	0.0000000E+000	0.0000000E+000	61.2364	0.0000000E+000	0.0000000E+000	0.0000000E+000	-61.2364	0.0000000E+000	0.0000000E+000	0.0000000E+000	-28.7636	0.0000000E+000	0.0000000E+000	0.0000000E+000	28.7636	1.82173	61.2364	-1.16395e-06	-4.06912e-07	-4.93686e-11	-4.06862e-07	0.197605	95984.9	11.6454	95973.3
14678.6	5.6901	2.88194	6.37831	-26.8615	4.59454	0.197633	-0.00252881	3.76227	0.768085	1	10	0.00492773	0.000772575	0	3.33976e-05	-0.000186057	4.48577e-06	36.6374	0.00580625	0.0046591	-0.00346487	-26.8148	6.3809	5.69476	2.87848	0.139865	0.0708392	0.156781	26.8615	768.085	1516.51	1699.93	-63.1385	0.0000000E+000	0.0000000E+000	0.0000000E+000	63.1385	0.0000000E+000	0.0000000E+000	0.0000000E+000	-63.1385	0.0000000E+000	0.0000000E+000	0.0000000E+000	-26.8615	0.0000000E+000	0.0000000E+000	0.0000000E+000	26.8615	1.9744	63.1385	1.49422e-06	-4.99777e-07	4.70504e-10	-5.00247e-07	0.197819	78152.5	73.575	78226.1
10002.2	6.46825	3.01742	7.13744	-25.0089	4.97752	0.197619	-0.0021522	5.27336	0.942485	1	10	0.00456271	0.000639264	0	3.22625e-05	-0.000147869	1.32951e-05	-12.1445	0.0207975	0.020332	0.00437532	-24.9719	7.15772	6.48858	3.0218	0.12697	0.0592313	0.140106	25.0089	942.485	2020.34	2229.36	-64.9911	0.0000000E+000	0.0000000E+000	0.0000000E+000	64.9911	0.0000000E+000	0.0000000E+000	0.0000000E+000	-64.9911	0.0000000E+000	0.0000000E+000	0.0000000E+000	-25.0089	0.0000000E+000	0.0000000E+000	0.0000000E+000	25.0089	2.14363	64.9911	-1.13505e-06	-4.25315e-07	3.18244e-10	-4.25633e-07	0.197767	91822	68.7061	91890.7
6810.42	7.20673	3.1145	7.85092	-23.3724	5.61054	0.197625	-0.00185761	7.50339	1.18085	1	10	0.0052592	0.000669883	0	3.35583e-05	6.21656e-05	3.23875e-05	11.8477	0.048348	0.047318	-0.00992637	-23.1699	7.89047	7.25404	3.10458	0.116922	0.0505297	0.127374	23.3724	1180.85	2732.39	2976.63	-66.6276	0.0000000E+000	0.0000000E+000	0.0000000E+000	66.6276	0.0000000E+000	0.0000000E+000	0.0000000E+000	-66.6276	0.0000000E+000	0.0000000E+000	0.0000000E+000	-23.3724	0.0000000E+000	0.0000000E+000	0.0000000E+000	23.3724	2.31393	66.6276	1.29578e-06	-3.67112e-07	-1.1548e-10	-3.66996e-07	0.197563	106387	33.4653	106353
4646	7.96551	3.22117	8.59216	-22.0179	6.00264	0.197636	-0.00152202	10.6348	1.49468	1	10	0.00524048	0.000609914	0	3.31594e-05	-0.000224245	3.5665e-06	40.8481	0.00584754	0.00442335	-0.00382462	-21.9832	8.59483	7.96993	3.21734	0.107897	0.0436323	0.116385	22.0179	1494.68	3696.15	3986.93	-67.9821	0.0000000E+000	0.0000000E+000	0.0000000E+000	67.9821	0.0000000E+000	0.0000000E+000	0.0000000E+000	-67.9821	0.0000000E+000	0.0000000E+000	0.0000000E+000	-22.0179	0.0000000E+000	0.0000000E+000	0.0000000E+000	22.0179	2.47286	67.9821	-3.98886e-07	-3.00805e-07	3.41305e-10	-3.01147e-07	0.19786	129852	147.335	129999
3163.08	8.67811	3.33879	9.29823	-21.0436	6.55263	0.197599	-0.00331188	15.0702	1.94312	1	10	0.00507317	0.000545606	0	3.19252e-05	0.000119448	5.29572e-06	26.5119	0.00970613	0.00868545	-0.00433266	-20.9995	9.30479	8.6868	3.33446	0.100375	0.0386179	0.107547	21.0436	1943.12	5050.5	5411.4	-68.9564	0.0000000E+000	0.0000000E+000	0.0000000E+000	68.9564	0.0000000E+000	0.0000000E+000	0.0000000E+000	-68.9564	0.0000000E+000	0.0000000E+000	0.0000000E+000	-21.0436	0.0000000E+000	0.0000000E+000	0.0000000E+000	21.0436	2.59917	68.9564	-1.2342e-06	-6.54427e-07	-3.95597e-10	-6.54031e-07	0.19748	59663.8	36.0664	59627.7
2155.69	9.37164	3.55689	10.0239	-20.7836	7.00378	0.197614	-0.00151829	20.757	2.61353	1	10	0.00534804	0.000533528	0	3.14831e-05	-0.000109681	1.2171e-05	18.0428	0.0228123	0.0216905	-0.00706559	-20.702	10.0417	9.39333	3.54982	0.0932695	0.0353993	0.0997613	20.7836	2613.53	6886.11	7365.39	-69.2164	0.0000000E+000	0.0000000E+000	0.0000000E+000	69.2164	0.0000000E+000	0.0000000E+000	0.0000000E+000	-69.2164	0.0000000E+000	0.0000000E+000	0.0000000E+000	-20.7836	0.0000000E+000	0.0000000E+000	0.0000000E+000	20.7836	2.63479	69.2164	-4.42129e-07	-3.00036e-07	1.66528e-10	-3.00203e-07	0.197724	130156	72.2397	130228
1468.59	10.0516	3.90201	10.7824	-21.2162	7.45505	0.197616	-0.00226034	27.7735	3.6373	1	10	0.00537987	0.000498951	0	3.10612e-05	8.12596e-05	2.69401e-05	18.1882	0.0539936	0.0512959	-0.0168536	-21.0348	10.8241	10.1029	3.88516	0.0864579	0.0335629	0.092744	21.2162	3637.3	9369.67	10050.9	-68.7838	0.0000000E+000	0.0000000E+000	0.0000000E+000	68.7838	0.0000000E+000	0.0000000E+000	0.0000000E+000	-68.7838	0.0000000E+000	0.0000000E+000	0.0000000E+000	-21.2162	0.0000000E+000	0.0000000E+000	0.0000000E+000	21.2162	2.576	68.7838	-4.21872e-07	-4.4668e-07	-1.83674e-10	-4.46496e-07	0.197535	87427.8	35.9502	87391.9
1000.32	10.7764	4.42909	11.6511	-22.3426	7.90578	0.197607	-0.00266306	35.9225	5.19116	1	10	0.00528287	0.000453424	0	3.11582e-05	-9.0587e-05	7.00518e-06	-132.687	0.0154495	-0.0104746	0.0113565	-22.4139	11.6457	10.7659	4.44045	0.0793856	0.0326275	0.085829	22.3426	5191.16	12630.6	13655.7	-67.6573	0.0000000E+000	0.0000000E+000	0.0000000E+000	67.6573	0.0000000E+000	0.0000000E+000	0.0000000E+000	-67.6573	0.0000000E+000	0.0000000E+000	0.0000000E+000	-22.3426	0.0000000E+000	0.0000000E+000	0.0000000E+000	22.3426	2.43309	67.6573	9.69949e-08	-5.2624e-07	2.41238e-10	-5.26481e-07	0.197698	74203.1	34.0161	74237.1
681.09	11.5976	5.17368	12.6992	-24.0417	8.35554	0.197603	-0.00387495	45.1664	7.49653	1	10	0.00520363	0.000409759	0	3.04586e-05	-3.33048e-05	3.95128e-06	-73.6477	0.00964292	0.0027149	0.00925285	-24.0748	12.7055	11.6003	5.18294	0.0719137	0.0320807	0.0787449	24.0417	7496.53	16804.6	18400.9	-65.9583	0.0000000E+000	0.0000000E+000	0.0000000E+000	65.9583	0.0000000E+000	0.0000000E+000	0.0000000E+000	-65.9583	0.0000000E+000	0.0000000E+000	0.0000000E+000	-24.0417	0.0000000E+000	0.0000000E+000	0.0000000E+000	24.0417	2.24165	65.9583	-6.99571e-07	-7.657e-07	1.29054e-10	-7.65829e-07	0.197636	50995	8.59489	51003.6
463.961	12.5768	6.27317	14.0545	-26.5096	8.80737	0.197595	-0.00231627	54.6829	10.8943	1	10	0.00515996	0.00036714	0	3.00165e-05	-1.42107e-05	1.01271e-05	67.6707	0.0275838	0.0104799	-0.0255155	-26.3974	14.0525	12.5872	6.24766	0.0636709	0.0317584	0.0711518	26.5096	10894.3	21841.4	24407.6	-63.4904	0.0000000E+000	0.0000000E+000	0.0000000E+000	63.4904	0.0000000E+000	0.0000000E+000	0.0000000E+000	-63.4904	0.0000000E+000	0.0000000E+000	0.0000000E+000	-26.5096	0.0000000E+000	0.0000000E+000	0.0000000E+000	26.5096	2.00485	63.4904	-4.42127e-07	-4.57684e-07	3.29159e-11	-4.57717e-07	0.197609	85307.2	6.13515	85313.4
316.316	13.9161	7.67974	15.8946	-28.8925	9.25505	0.197605	-0.00284205	65.5168	15.295	1	10	0.00515032	0.000324031	0	2.99253e-05	-0.000166963	6.12458e-06	110.672	0.0189013	-0.00667261	-0.0176843	-28.8483	15.8802	13.9094	7.66206	0.0550835	0.0303983	0.0629146	28.8925	15295	27715.4	31655.6	-61.1075	0.0000000E+000	0.0000000E+000	0.0000000E+000	61.1075	0.0000000E+000	0.0000000E+000	0.0000000E+000	-61.1075	0.0000000E+000	0.0000000E+000	0.0000000E+000	-28.8925	0.0000000E+000	0.0000000E+000	0.0000000E+000	28.8925	1.81206	61.1075	-9.12054e-08	-5.61602e-07	4.74517e-10	-5.62077e-07	0.197772	69529	58.7475	69587.7
215.345	15.8295	9.42125	18.421	-30.7598	9.70553	0.197611	-0.00178677	78.4473	20.5195	1	10	0.00514187	0.00027913	0	2.98956e-05	-0.000147869	6.28332e-06	3.4448	0.0225104	0.0224697	-0.00135258	-30.7205	18.4397	15.852	9.41989	0.0466488	0.0277639	0.0542858	30.7598	20519.5	34476.8	40121	-59.2402	0.0000000E+000	0.0000000E+000	0.0000000E+000	59.2402	0.0000000E+000	0.0000000E+000	0.0000000E+000	-59.2402	0.0000000E+000	0.0000000E+000	0.0000000E+000	-30.7598	0.0000000E+000	0.0000000E+000	0.0000000E+000	30.7598	1.6802	59.2402	-2.97086e-08	-3.53085e-07	2.64209e-10	-3.5335e-07	0.197758	110596	82.7576	110679
146.737	18.4859	11.4499	21.7447	-31.7735	10.1515	0.197609	-0.00245424	94.7275	26.2649	1	10	0.00512783	0.00023582	0	2.94825e-05	-0.000281528	9.68464e-06	32.6979	0.0410679	0.0345599	-0.0221853	-31.6759	21.7624	18.5205	11.4278	0.0390963	0.0242157	0.0459882	31.7735	26264.9	42404.8	49880	-58.2265	0.0000000E+000	0.0000000E+000	0.0000000E+000	58.2265	0.0000000E+000	0.0000000E+000	0.0000000E+000	-58.2265	0.0000000E+000	0.0000000E+000	0.0000000E+000	-31.7735	0.0000000E+000	0.0000000E+000	0.0000000E+000	31.7735	1.6145	58.2265	-4.13148e-07	-4.84981e-07	6.90938e-10	-4.85672e-07	0.19789	80517.2	114.71	80631.9
100.032	21.9962	13.1986	25.6522	-30.9654	10.8478	0.197616	-0.00579011	120.546	31.9124	1	11	0.00512812	0.00019991	0	2.8594e-05	8.12596e-05	1.06175e-05	77.7015	0.0531114	0.011313	-0.0518926	-30.853	25.6352	22.0075	13.1467	0.0334271	0.0200576	0.038983	30.9654	31912.4	53183.8	62023.6	-59.0346	0.0000000E+000	0.0000000E+000	0.0000000E+000	59.0346	0.0000000E+000	0.0000000E+000	0.0000000E+000	-59.0346	0.0000000E+000	0.0000000E+000	0.0000000E+000	-30.9654	0.0000000E+000	0.0000000E+000	0.0000000E+000	30.9654	1.66656	59.0346	-8.88453e-07	-1.14422e-06	-4.70502e-10	-1.14375e-06	0.197535	34129.9	14.0342	34115.9
68.104	26.4427	14.325	30.0736	-28.4461	11.3104	0.197627	-0.00543958	163.137	37.0145	1	11	0.00512063	0.00017027	0	2.78317e-05	0.000100354	6.82872e-06	33.4594	0.0401053	0.0334589	-0.0221119	-28.3788	30.0925	26.4762	14.3029	0.0292371	0.0158389	0.0332517	28.4461	37014.5	68325.3	77707.3	-61.5539	0.0000000E+000	0.0000000E+000	0.0000000E+000	61.5539	0.0000000E+000	0.0000000E+000	0.0000000E+000	-61.5539	0.0000000E+000	0.0000000E+000	0.0000000E+000	-28.4461	0.0000000E+000	0.0000000E+000	0.0000000E+000	28.4461	1.84591	61.5539	-7.62287e-07	-1.07501e-06	-5.45882e-10	-1.07446e-06	0.197526	36331.2	18.4488	36312.8
46.4415	31.1984	14.3236	34.3294	-24.6605	11.7467	0.197611	-0.00542318	239.255	41.6518	1	11	0.00511009	0.000148855	0	2.72568e-05	6.21656e-05	3.31382e-06	64.4638	0.0222621	0.00959677	-0.0200874	-24.6233	34.3297	31.208	14.3035	0.0264729	0.012154	0.0291296	24.6605	41651.8	90722.4	99827	-65.3395	0.0000000E+000	0.0000000E+000	0.0000000E+000	65.3395	0.0000000E+000	0.0000000E+000	0.0000000E+000	-65.3395	0.0000000E+000	0.0000000E+000	0.0000000E+000	-24.6605	0.0000000E+000	0.0000000E+000	0.0000000E+000	24.6605	2.17811	65.3395	-5.74886e-07	-1.07168e-06	-3.37135e-10	-1.07134e-06	0.197549	36438.2	11.4629	36426.8
31.6296	35.7123	13.2021	38.0744	-20.2882	12.1765	0.197632	-0.00488247	381.141	45.8249	1	11	0.00510689	0.000134129	0	2.63765e-05	-5.23988e-05	1.15017e-05	38.1036	0.0857507	0.0674768	-0.0529155	-20.1785	38.1194	35.7798	13.1491	0.0246349	0.00910699	0.0262643	20.2882	45824.9	123959	132158	-69.7118	0.0000000E+000	0.0000000E+000	0.0000000E+000	69.7118	0.0000000E+000	0.0000000E+000	0.0000000E+000	-69.7118	0.0000000E+000	0.0000000E+000	0.0000000E+000	-20.2882	0.0000000E+000	0.0000000E+000	0.0000000E+000	20.2882	2.70506	69.7118	-8.80303e-07	-9.64931e-07	2.55836e-10	-9.65187e-07	0.197684	40477.8	10.732	40488.6
21.5517	39.2511	11.2381	40.8282	-15.9771	12.5975	0.19763	-0.00489589	657.12	49.7864	1	11	0.00509399	0.000124767	0	2.57507e-05	-0.000281528	9.7391e-06	-151.018	0.0780586	-0.0682836	0.0378218	-16.0546	40.773	39.1828	11.2759	0.0235468	0.00674175	0.0244929	15.9771	49786.4	173888	180875	-74.0229	0.0000000E+000	0.0000000E+000	0.0000000E+000	74.0229	0.0000000E+000	0.0000000E+000	0.0000000E+000	-74.0229	0.0000000E+000	0.0000000E+000	0.0000000E+000	-15.9771	0.0000000E+000	0.0000000E+000	0.0000000E+000	15.9771	3.49268	74.0229	-6.25862e-07	-9.67577e-07	1.37833e-09	-9.68955e-07	0.197912	40366.6	57.5028	40424.1
14.6852	41.9566	9.04381	42.9202	-12.1641	13.0581	0.197643	-0.00445177	1198.37	53.207	1	11	0.00510246	0.000118882	0	2.47713e-05	-0.000319716	7.55054e-06	112.147	0.0635128	-0.0239433	-0.0588268	-12.094	42.8845	41.9327	8.98498	0.0227759	0.00490938	0.023299	12.1641	53206.9	246841	252511	-77.8359	0.0000000E+000	0.0000000E+000	0.0000000E+000	77.8359	0.0000000E+000	0.0000000E+000	0.0000000E+000	-77.8359	0.0000000E+000	0.0000000E+000	0.0000000E+000	-12.1641	0.0000000E+000	0.0000000E+000	0.0000000E+000	12.1641	4.63927	77.8359	-9.79332e-07	-8.79862e-07	1.4233e-09	-8.81286e-07	0.197963	44396.6	71.8177	44468.5
10.0032	43.6251	7.06892	44.1941	-9.2041	13.5088	0.197638	-0.00472548	2250.75	57.5845	1	11	0.00509365	0.000115256	0	2.51375e-05	-0.000453374	6.30311e-06	-2.1408	0.0546878	0.0546496	0.00204288	-9.19539	44.2484	43.6797	7.07096	0.0223361	0.0036193	0.0226275	9.2041	57584.5	355377	360012	-80.7959	0.0000000E+000	0.0000000E+000	0.0000000E+000	80.7959	0.0000000E+000	0.0000000E+000	0.0000000E+000	-80.7959	0.0000000E+000	0.0000000E+000	0.0000000E+000	-9.2041	0.0000000E+000	0.0000000E+000	0.0000000E+000	9.2041	6.17139	80.7959	3.66177e-07	-9.33935e-07	2.14241e-09	-9.36077e-07	0.198092	41824	95.9426	41919.9
6.81719	44.7779	5.34328	45.0955	-6.80484	13.8485	0.19764	-0.00455767	4369.25	61.3416	1	11	0.00510102	0.000113116	0	2.36846e-05	-3.33048e-05	5.39781e-06	-10.0746	0.0477193	0.0469835	0.00834751	-6.8083	45.1432	44.8249	5.35162	0.0220189	0.00262749	0.0221751	6.80484	61341.6	514056	517703	-83.1952	0.0000000E+000	0.0000000E+000	0.0000000E+000	83.1952	0.0000000E+000	0.0000000E+000	0.0000000E+000	-83.1952	0.0000000E+000	0.0000000E+000	0.0000000E+000	-6.80484	0.0000000E+000	0.0000000E+000	0.0000000E+000	6.80484	8.38023	83.1952	-1.45291e-06	-9.00777e-07	1.51792e-10	-9.00929e-07	0.197673	43364.2	7.30741	43371.5
4.63925	45.4962	4.13525	45.6837	-5.19347	14.3325	0.197639	-0.0045256	8296.03	67.9753	1	11	0.0051013	0.000111666	0	2.31333e-05	-9.0587e-05	2.51605e-06	118.704	0.0225321	-0.0108219	-0.0197631	-5.17001	45.6712	45.4854	4.11549	0.0217998	0.00198143	0.0218896	5.19347	67975.3	747866	750949	-84.8065	0.0000000E+000	0.0000000E+000	0.0000000E+000	84.8065	0.0000000E+000	0.0000000E+000	0.0000000E+000	-84.8065	0.0000000E+000	0.0000000E+000	0.0000000E+000	-5.19347	0.0000000E+000	0.0000000E+000	0.0000000E+000	5.19347	11.002	84.8065	-5.51342e-07	-8.94437e-07	4.0996e-10	-8.94847e-07	0.19773	43671.4	20.0166	43691.4
3.1604	45.9089	3.28707	46.0264	-4.09538	15.0255	0.19764	-0.0044939	15320.4	78.14	1	11	0.00509663	0.000110733	0	2.37864e-05	-3.33048e-05	8.31683e-06	51.7934	0.0751072	0.0464537	-0.0590182	-4.01804	46.0686	45.9554	3.22805	0.0216712	0.00155165	0.0217266	4.09538	78140	1.09134e+06	1.09414e+06	-85.9046	0.0000000E+000	0.0000000E+000	0.0000000E+000	85.9046	0.0000000E+000	0.0000000E+000	0.0000000E+000	-85.9046	0.0000000E+000	0.0000000E+000	0.0000000E+000	-4.09538	0.0000000E+000	0.0000000E+000	0.0000000E+000	4.09538	13.9665	85.9046	6.53134e-07	-8.88175e-07	1.49668e-10	-8.88325e-07	0.197673	43979.6	7.4111	43987
2.15577	46.3212	2.70416	46.4001	-3.34105	16.0291	0.19765	-0.00382678	27301.5	92.7285	1	11	0.00510549	0.000110032	0	2.36949e-05	2.39774e-05	3.53654e-06	6.42512	0.0321411	0.0319392	-0.00359674	-3.33432	46.4318	46.3532	2.70056	0.0215151	0.00125601	0.0215517	3.34105	92728.4	1.5884e+06	1.59111e+06	-86.659	0.0000000E+000	0.0000000E+000	0.0000000E+000	86.659	0.0000000E+000	0.0000000E+000	0.0000000E+000	-86.659	0.0000000E+000	0.0000000E+000	0.0000000E+000	-3.34105	0.0000000E+000	0.0000000E+000	0.0000000E+000	3.34105	17.1296	86.659	-9.14547e-08	-7.56363e-07	-9.17564e-11	-7.56272e-07	0.197626	51649.1	6.26569	51642.9
1.46631	46.612	2.394	46.6735	-2.94014	18.2165	0.197647	-0.00396794	45338.8	119.283	1	12	0.0051026	0.000109326	0	1.98682e-05	8.12596e-05	1.33656e-06	14.7302	0.0122255	0.0118237	-0.00310857	-2.93558	46.6851	46.6238	2.39089	0.0213972	0.00109897	0.0214255	2.94014	119283	2.32248e+06	2.32554e+06	-87.0599	0.0000000E+000	0.0000000E+000	0.0000000E+000	87.0599	0.0000000E+000	0.0000000E+000	0.0000000E+000	-87.0599	0.0000000E+000	0.0000000E+000	0.0000000E+000	-2.94014	0.0000000E+000	0.0000000E+000	0.0000000E+000	2.94014	19.4703	87.0599	-3.82671e-06	-7.84252e-07	-3.22434e-10	-7.8393e-07	0.197566	49810.9	20.479	49790.4
1.00006	46.9247	2.27107	46.9796	-2.77085	20.3446	0.197642	-0.00377929	70074.7	163.759	1	12	0.00510432	0.00010865	0	1.41446e-05	-9.0587e-05	3.51618e-06	16.9832	0.0323625	0.0309512	-0.00945282	-2.75752	47.0101	46.9557	2.26162	0.0212609	0.00102899	0.0212858	2.77085	163759	3.38357e+06	3.38753e+06	-87.2291	0.0000000E+000	0.0000000E+000	0.0000000E+000	87.2291	0.0000000E+000	0.0000000E+000	0.0000000E+000	-87.2291	0.0000000E+000	0.0000000E+000	0.0000000E+000	-2.77085	0.0000000E+000	0.0000000E+000	0.0000000E+000	2.77085	20.6619	87.2291	-5.72363e-06	-7.46948e-07	3.42354e-10	-7.4729e-07	0.197733	52296.1	23.9693	52320.1
0.681362	47.2983	2.32564	47.3555	-2.81494	23.456	0.197647	-0.00370127	100438	242.239	1	12	0.00510445	0.00010779	0	7.92685e-06	-0.000243339	2.89757e-06	62.0143	0.0268816	0.0126142	-0.0237382	-2.78551	47.3669	47.3109	2.3019	0.0210914	0.00103706	0.0211169	2.81494	242239	4.9266e+06	4.93255e+06	-87.1851	0.0000000E+000	0.0000000E+000	0.0000000E+000	87.1851	0.0000000E+000	0.0000000E+000	0.0000000E+000	-87.1851	0.0000000E+000	0.0000000E+000	0.0000000E+000	-2.81494	0.0000000E+000	0.0000000E+000	0.0000000E+000	2.81494	20.3378	87.1851	-6.21775e-06	-7.31543e-07	9.00666e-10	-7.32444e-07	0.19789	53399.6	65.7448	53465.4
0.464091	47.6516	2.59208	47.7221	-3.11362	28.0125	0.197641	-0.00381531	132303	390.326	1	12	0.00510038	0.000106877	0	3.79633e-06	-7.14929e-05	8.62403e-06	-70.5133	0.0806913	0.0269176	0.0760692	-3.20301	47.7531	47.6785	2.66815	0.0209237	0.00113818	0.0209547	3.11362	390326	7.17557e+06	7.18618e+06	-86.8864	0.0000000E+000	0.0000000E+000	0.0000000E+000	86.8864	0.0000000E+000	0.0000000E+000	0.0000000E+000	-86.8864	0.0000000E+000	0.0000000E+000	0.0000000E+000	-3.11362	0.0000000E+000	0.0000000E+000	0.0000000E+000	3.11362	18.3835	86.8864	-4.13052e-06	-7.54062e-07	2.72768e-10	-7.54335e-07	0.197713	51802.1	18.7384	51820.9
0.316193	48.1088	2.95347	48.1994	-3.51307	34.6869	0.197639	-0.00370799	170426	639.909	1	12	0.00510459	0.000105906	0	4.05195e-06	0.000214918	1.52173e-06	-52.0753	0.0143687	0.00883135	0.0113343	-3.52587	48.2089	48.1176	2.96481	0.0207082	0.00127131	0.0207472	3.51307	639909	1.04234e+07	1.0443e+07	-86.4869	0.0000000E+000	0.0000000E+000	0.0000000E+000	86.4869	0.0000000E+000	0.0000000E+000	0.0000000E+000	-86.4869	0.0000000E+000	0.0000000E+000	0.0000000E+000	-3.51307	0.0000000E+000	0.0000000E+000	0.0000000E+000	3.51307	16.2889	86.4869	2.55616e-07	-7.32842e-07	-7.96914e-10	-7.32045e-07	0.197424	53300.8	57.9608	53242.8
0.215268	48.5458	3.43095	48.6669	-4.04263	44.4804	0.197634	-0.00326062	215490	1071	1	12	0.00510112	0.000104817	0	8.86959e-06	-1.42107e-05	1.63013e-06	-36.3676	0.0155522	0.0125231	0.00922187	-4.05241	48.68	48.5583	3.44017	0.0204967	0.00144859	0.0205478	4.04263	1.071e+06	1.51539e+07	1.51917e+07	-85.9574	0.0000000E+000	0.0000000E+000	0.0000000E+000	85.9574	0.0000000E+000	0.0000000E+000	0.0000000E+000	-85.9574	0.0000000E+000	0.0000000E+000	0.0000000E+000	-4.04263	0.0000000E+000	0.0000000E+000	0.0000000E+000	4.04263	14.1494	85.9574	4.81764e-06	-6.4441e-07	4.63356e-11	-6.44456e-07	0.197648	60612.5	4.35828	60616.9
0.146929	49.1307	4.08338	49.3001	-4.75108	58.8187	0.197632	-0.0022814	265274	1819.86	1	12	0.0051054	0.000103558	0	1.45347e-05	0.000157636	1.29169e-06	-19.0366	0.0124731	0.011791	0.00406837	-4.75466	49.3121	49.1425	4.08744	0.0202143	0.00168006	0.0202839	4.75108	1.81986e+06	2.18963e+07	2.19718e+07	-85.2489	0.0000000E+000	0.0000000E+000	0.0000000E+000	85.2489	0.0000000E+000	0.0000000E+000	0.0000000E+000	-85.2489	0.0000000E+000	0.0000000E+000	0.0000000E+000	-4.75108	0.0000000E+000	0.0000000E+000	0.0000000E+000	4.75108	12.0319	85.2489	5.66513e-06	-4.50876e-07	-3.5963e-10	-4.50517e-07	0.197474	86627.5	69.0962	86558.4
0.0999041	49.8386	5.11007	50.0999	-5.85422	79.8949	0.19763	-0.00122442	311752	3243.32	1	12	0.00510429	0.000101882	0	1.27819e-05	4.88337e-06	2.58297e-06	-15.5106	0.0253525	0.0244292	0.00677968	-5.85908	50.1249	49.863	5.11685	0.019856	0.00203589	0.0199601	5.85422	3.24332e+06	3.16322e+07	3.1798e+07	-84.1458	0.0000000E+000	0.0000000E+000	0.0000000E+000	84.1458	0.0000000E+000	0.0000000E+000	0.0000000E+000	-84.1458	0.0000000E+000	0.0000000E+000	0.0000000E+000	-5.85422	0.0000000E+000	0.0000000E+000	0.0000000E+000	5.85422	9.75301	84.1458	-1.75283e-06	-2.41982e-07	-5.97928e-12	-2.41976e-07	0.197625	161408	3.98833	161404
0.0680626	50.6072	6.59178	51.0347	-7.42121	110.822	0.197629	-0.000447495	354739	5918.1	1	12	0.00510677	0.000100065	0	-5.72072e-06	0.000100354	2.76447e-06	10.0603	0.0276268	0.027202	-0.00482598	-7.41189	51.0611	50.6344	6.58695	0.0194304	0.00253088	0.0195945	7.42121	5.9181e+06	4.54352e+07	4.5819e+07	-82.5788	0.0000000E+000	0.0000000E+000	0.0000000E+000	82.5788	0.0000000E+000	0.0000000E+000	0.0000000E+000	-82.5788	0.0000000E+000	0.0000000E+000	0.0000000E+000	-7.42121	0.0000000E+000	0.0000000E+000	0.0000000E+000	7.42121	7.67733	82.5788	-1.85026e-05	-8.84381e-08	-4.49077e-11	-8.83932e-08	0.197529	441635	224.257	441411
0.0464052	51.3501	8.49794	52.0486	-9.39672	156.173	0.197628	-0.000455708	403589	10758.5	1	12	0.00510136	9.80116e-05	0	-6.24792e-05	0.000291294	1.5389e-06	15.3749	0.0157012	0.0151393	-0.0041629	-9.38948	52.0628	51.3653	8.49378	0.018955	0.00313687	0.0192128	9.39672	1.07585e+07	6.50096e+07	6.58938e+07	-80.6033	0.0000000E+000	0.0000000E+000	0.0000000E+000	80.6033	0.0000000E+000	0.0000000E+000	0.0000000E+000	-80.6033	0.0000000E+000	0.0000000E+000	0.0000000E+000	-9.39672	0.0000000E+000	0.0000000E+000	0.0000000E+000	9.39672	6.04266	80.6033	-5.67585e-05	-9.00605e-08	-1.32745e-10	-8.99277e-08	0.197336	433672	639.213	433033
0.0315922	52.556	10.9247	53.6794	-11.7428	222.779	0.197627	-0.000747509	461136	19100.1	1	12	0.00510291	9.50627e-05	0	-0.00016019	-1.42107e-05	1.85199e-06	30.7623	0.0194817	0.0167406	-0.00996448	-11.7287	53.6938	52.5727	10.9148	0.0182392	0.00379136	0.0186291	11.7428	1.91001e+07	9.18854e+07	9.38496e+07	-78.2572	0.0000000E+000	0.0000000E+000	0.0000000E+000	78.2572	0.0000000E+000	0.0000000E+000	0.0000000E+000	-78.2572	0.0000000E+000	0.0000000E+000	0.0000000E+000	-11.7428	0.0000000E+000	0.0000000E+000	0.0000000E+000	11.7428	4.81073	78.2572	-9.7711e-05	-1.47728e-07	1.06226e-11	-1.47739e-07	0.197642	264381	19.0107	264400
0.0215268	54.3717	14.6011	56.2981	-15.0317	320.517	0.197629	-0.000950494	506355	34059.6	1	12	0.0051051	9.06799e-05	0	-0.000266199	6.21656e-05	1.64736e-06	-8.51013	0.0181668	0.0179668	0.0026884	-15.0296	56.3162	54.3897	14.6038	0.0171548	0.00460679	0.0177626	15.0317	3.40596e+07	1.26831e+08	1.31325e+08	-74.9683	0.0000000E+000	0.0000000E+000	0.0000000E+000	74.9683	0.0000000E+000	0.0000000E+000	0.0000000E+000	-74.9683	0.0000000E+000	0.0000000E+000	0.0000000E+000	-15.0317	0.0000000E+000	0.0000000E+000	0.0000000E+000	15.0317	3.72381	74.9683	-0.000106009	-1.87846e-07	-5.9088e-11	-1.87787e-07	0.197567	207923	65.4034	207858
0.0146812	56.508	19.965	59.9312	-19.4589	463.818	0.197626	-0.000993438	542989	60258.9	1	12	0.00510423	8.51681e-05	0	-0.000304858	2.39774e-05	2.0536e-06	4.03111	0.0241124	0.0240527	-0.00169505	-19.4497	59.9533	56.532	19.9633	0.0157327	0.00555856	0.0166858	19.4589	6.02589e+07	1.70554e+08	1.80887e+08	-70.5411	0.0000000E+000	0.0000000E+000	0.0000000E+000	70.5411	0.0000000E+000	0.0000000E+000	0.0000000E+000	-70.5411	0.0000000E+000	0.0000000E+000	0.0000000E+000	-19.4589	0.0000000E+000	0.0000000E+000	0.0000000E+000	19.4589	2.83036	70.5411	-3.86586e-05	-1.96329e-07	-2.38201e-11	-1.96305e-07	0.197602	198931	24.1358	198907

0.0100092	59.0142	26.6704	64.761	-24.3197	673.998	0.197635	-0.000720989	596201	101117	1	12	0.00510433	7.88179e-05	0	-0.000190832	0.000157636	2.20227e-06	4.88375	0.0279412	0.0278398	-0.00237876	-24.3077	64.7854	59.0421	26.668	0.0140711	0.00635919	0.0154414	24.3197	1.01117e+08	2.23744e+08	2.45532e+08	-65.6803	0.0000000E+000	0.0000000E+000	0.0000000E+000	65.6803	0.0000000E+000	0.0000000E+000	0.0000000E+000	-65.6803	0.0000000E+000	0.0000000E+000	0.0000000E+000	-24.3197	0.0000000E+000	0.0000000E+000	0.0000000E+000	24.3197	2.21272	65.6803	0.000114026	-1.42492e-07	-1.13654e-10	-1.42379e-07	0.197477	274116	218.638	273897