File: txt/19145_R306_UA710_SOC00_C01.mpt
EC-Lab ASCII FILE
Nb header lines : 66

Potentio Electrochemical Impedance Spectroscopy

Run on channel : 1 (SN 66354)
Grouped channel(s) : 1, 2
User :
CE vs. WE compliance from -10 V to 10 V
Electrode connection : standard
Potential control : Ewe
Ewe ctrl range : min = -10.00 V, max = 10.00 V
Safety Limits :
	Do not start on E overload
Acquisition started on : 11/12/2025 11:39:57.970
Technique started on : 11/12/2025 11:39:59.881
Loaded Setting File :  C:\Users\Celltest\OneDrive - store-dot.com\Documents\EC-Lab\Data\@Biologic Test Protocols\anode half cell EIS SOC00.mps
Saved on :
	File : 19145_R306_UA710_SOC00_C01.mpr
	Directory : C:\Users\Celltest\OneDrive - store-dot.com\Documents\EC-Lab\Data\Charmaine\
	Host : 169.254.61.224
Device : VMP-3e (SN .003165)
Address : USB
EC-LAB for windows v11.62 (software)
Internet server v27.00 (firmware)
Command interpretor v12.03 (firmware)
Electrode material :
Initial state :
Electrolyte :
Comments :
Electrode surface area : 0.001 cm²
Characteristic mass : 0.001 g
Equivalent Weight : 0.000 g/eq.
Density : 0.000 g/cm3
Volume (V) : 0.001 cm³
Record Ece
Cycle Definition : Charge/Discharge alternance
Mode                Single sine
E (V)               0.0000
vs.                 Eoc
tE (h:m:s)          0:00:0.0000
record              0
dI                  0.000
unit dI             mA
dt (s)              0.000
fi                  100.000
unit fi             kHz
ff                  10.000
unit ff             mHz
Nd                  6
Points              per decade
spacing             Logarithmic
Va (mV)             5.0
pw                  0.10
Na                  2
corr                0
E range min (V)     -10.000
E range max (V)     10.000
I Range             Auto
Bandwidth           5
nc cycles           0
goto Ns'            0
nr cycles           0
inc. cycle          0

freq/Hz	Re(Z)/Ohm	-Im(Z)/Ohm	|Z|/Ohm	Phase(Z)/deg	time/s	<Ewe>/V	<I>/mA	Cs/µF	Cp/µF	cycle number	I Range	|Ewe|/V	|I|/A	Ns	(Q-Qo)/mA.h	<Ece>/V	|Ece|/V	Phase(Zce)/deg	|Zce|/Ohm	Re(Zce)/Ohm	-Im(Zce)/Ohm	Phase(Zwe-ce)/deg	|Zwe-ce|/Ohm	Re(Zwe-ce)/Ohm	-Im(Zwe-ce)/Ohm	Re(Y)/Ohm-1	Im(Y)/Ohm-1	|Y|/Ohm-1	Phase(Y)/deg	Re(C)/nF	Im(C)/nF	|C|/nF	Phase(C)/deg	Re(M)	Im(M)	|M|	Phase(M)/deg	Re(Permittivity)	Im(Permittivity)	|Permittivity|	Phase(Permittivity)/deg	Re(Resistivity)/Ohm.cm	Im(Resistivity)/Ohm.cm	|Resistivity|/Ohm.cm	Phase(Resistivity)/deg	Re(Conductivity)/mS/cm	Im(Conductivity)/mS/cm	|Conductivity|/mS/cm	Phase(Conductivity)/deg	Tan(Delta)	Loss Angle(Delta)/deg	dq/mA.h	Pwe/W	Pce/W	Pwe-ce/W	<Ewe-Ece>/V	Rwe/Ohm	Rce/Ohm	Rwe-ce/Ohm		Ewe-Ece/V
100004	1.92032	1.16346	2.24527	-31.2103	1.91053	0.189724	0.0463398	1.3679	0.367296	1	9	0.00458936	0.00204401	0	1.07659e-06	0.000268993	3.68774e-05	96.6715	0.0180417	-0.00209601	-0.0179195	-30.8451	2.23424	1.91822	1.14554	0.380921	0.230787	0.44538	31.2103	367.296	606.232	708.818	-58.7897	0.0000000E+000	0.0000000E+000	0.0000000E+000	58.7897	0.0000000E+000	0.0000000E+000	0.0000000E+000	-58.7897	0.0000000E+000	0.0000000E+000	0.0000000E+000	-31.2103	0.0000000E+000	0.0000000E+000	0.0000000E+000	31.2103	1.65053	58.7897	1.07659e-06	8.79177e-06	1.24651e-08	8.7793e-06	0.189455	4094.19	5.80478	4088.38
68132	2.24861	1.34287	2.61907	-30.8457	2.41752	0.189705	0.0462653	1.73954	0.457308	1	9	0.00506255	0.00193296	0	1.61553e-05	1.9103e-06	2.55879e-05	68.6857	0.0132377	0.0048117	-0.0123323	-30.5599	2.61691	2.25342	1.33054	0.327807	0.195767	0.381815	30.8457	457.308	765.751	891.911	-59.1543	0.0000000E+000	0.0000000E+000	0.0000000E+000	59.1543	0.0000000E+000	0.0000000E+000	0.0000000E+000	-59.1543	0.0000000E+000	0.0000000E+000	0.0000000E+000	-30.8457	0.0000000E+000	0.0000000E+000	0.0000000E+000	30.8457	1.67447	59.1543	1.50787e-05	8.77676e-06	8.83808e-11	8.77667e-06	0.189703	4100.37	0.0412902	4100.33
46420.4	2.63855	1.51408	3.0421	-29.8485	2.92451	0.189713	0.0439183	2.26445	0.560936	1	9	0.00513683	0.00168858	0	2.06526e-05	-1.7167e-05	1.48159e-05	22.3692	0.0087742	0.00811395	-0.00333922	-29.7181	3.04748	2.64666	1.51074	0.285114	0.163607	0.32872	29.8485	560.935	977.529	1127.04	-60.1515	0.0000000E+000	0.0000000E+000	0.0000000E+000	60.1515	0.0000000E+000	0.0000000E+000	0.0000000E+000	-60.1515	0.0000000E+000	0.0000000E+000	0.0000000E+000	-29.8485	0.0000000E+000	0.0000000E+000	0.0000000E+000	29.8485	1.74268	60.1515	4.49731e-06	8.33189e-06	-7.53945e-10	8.33264e-06	0.189731	4319.69	0.390885	4320.09
31621.1	3.03967	1.66181	3.46427	-28.6657	3.30755	0.189721	0.0499162	3.02874	0.696945	1	9	0.00522701	0.00150883	0	2.31941e-05	-0.000322404	1.3829e-05	2.55867	0.00916535	0.00915621	-0.000409163	-28.5873	3.47211	3.04882	1.6614	0.253281	0.13847	0.288661	28.6657	696.946	1274.81	1452.88	-61.3343	0.0000000E+000	0.0000000E+000	0.0000000E+000	61.3343	0.0000000E+000	0.0000000E+000	0.0000000E+000	-61.3343	0.0000000E+000	0.0000000E+000	0.0000000E+000	-28.6657	0.0000000E+000	0.0000000E+000	0.0000000E+000	28.6657	1.82914	61.3343	2.54156e-06	9.47017e-06	-1.60932e-08	9.48626e-06	0.190044	3800.8	6.4589	3807.25
21544.7	3.50568	1.75917	3.92231	-26.6478	3.69253	0.189704	0.0460045	4.19925	0.844705	1	9	0.00489325	0.00124754	0	2.85436e-05	-7.43989e-05	3.83029e-06	59.5683	0.00307026	0.00155512	-0.00264728	-26.603	3.92251	3.50724	1.75653	0.227871	0.114347	0.254952	26.6478	844.705	1683.33	1883.38	-63.3522	0.0000000E+000	0.0000000E+000	0.0000000E+000	63.3522	0.0000000E+000	0.0000000E+000	0.0000000E+000	-63.3522	0.0000000E+000	0.0000000E+000	0.0000000E+000	-26.6478	0.0000000E+000	0.0000000E+000	0.0000000E+000	26.6478	1.9928	63.3522	5.34943e-06	8.72725e-06	-3.42269e-09	8.73067e-06	0.189779	4123.6	1.61721	4125.22
14678.6	3.94304	1.85768	4.35873	-25.2265	4.07554	0.189713	0.0494692	5.83666	1.0602	1	9	0.00492071	0.00112893	0	3.10135e-05	-5.53216e-05	8.22076e-06	-83.4536	0.00728189	0.000830196	0.00723441	-25.3078	4.36257	3.94387	1.86492	0.207544	0.0977804	0.229425	25.2265	1060.2	2250.33	2487.57	-64.7735	0.0000000E+000	0.0000000E+000	0.0000000E+000	64.7735	0.0000000E+000	0.0000000E+000	0.0000000E+000	-64.7735	0.0000000E+000	0.0000000E+000	0.0000000E+000	-25.2265	0.0000000E+000	0.0000000E+000	0.0000000E+000	25.2265	2.12256	64.7735	2.46996e-06	9.38495e-06	-2.73671e-09	9.38769e-06	0.189769	3834.98	1.11831	3836.1
10002.2	4.41005	1.91234	4.80682	-23.4432	4.49252	0.189766	-0.0122509	8.32066	1.31696	1	10	0.00461086	0.000959231	0	3.22162e-05	0.000192683	7.41109e-06	-59.831	0.00772607	0.00388275	0.00667955	-23.4977	4.81305	4.41393	1.91902	0.190865	0.0827655	0.208038	23.4432	1316.96	3037.04	3310.28	-66.5568	0.0000000E+000	0.0000000E+000	0.0000000E+000	66.5568	0.0000000E+000	0.0000000E+000	0.0000000E+000	-66.5568	0.0000000E+000	0.0000000E+000	0.0000000E+000	-23.4432	0.0000000E+000	0.0000000E+000	0.0000000E+000	23.4432	2.30609	66.5568	1.20267e-06	-2.3248e-06	-2.36054e-09	-2.32244e-06	0.189573	15489.9	15.7281	15474.2
6810.42	4.94743	1.95098	5.31822	-21.5214	4.75356	0.189775	-0.0118782	11.9782	1.61201	1	10	0.004764	0.000895788	0	3.18894e-05	5.91422e-05	0.000151964	18.4342	0.169643	0.160938	-0.0536438	-20.3759	5.44935	5.10837	1.89734	0.174923	0.0689797	0.188033	21.5214	1612.01	4087.84	4394.2	-68.4786	0.0000000E+000	0.0000000E+000	0.0000000E+000	68.4786	0.0000000E+000	0.0000000E+000	0.0000000E+000	-68.4786	0.0000000E+000	0.0000000E+000	0.0000000E+000	-21.5214	0.0000000E+000	0.0000000E+000	0.0000000E+000	21.5214	2.53587	68.4786	-3.26821e-07	-2.25418e-06	-7.02503e-10	-2.25348e-06	0.189716	15976.7	4.97906	15971.8
4646	5.25788	2.13648	5.67537	-22.1138	5.01963	0.189742	-0.0207334	16.034	2.27222	1	10	0.00464563	0.000818559	0	2.98603e-05	0.000154529	1.08799e-05	-47.6216	0.0132915	0.0089588	0.00981856	-22.1715	5.68737	5.26684	2.1463	0.163238	0.0663299	0.1762	22.1138	2272.22	5591.94	6035.96	-67.8862	0.0000000E+000	0.0000000E+000	0.0000000E+000	67.8862	0.0000000E+000	0.0000000E+000	0.0000000E+000	-67.8862	0.0000000E+000	0.0000000E+000	0.0000000E+000	-22.1138	0.0000000E+000	0.0000000E+000	0.0000000E+000	22.1138	2.461	67.8862	-2.0291e-06	-3.93401e-06	-3.20391e-09	-3.9308e-06	0.189588	9151.53	7.45313	9144.08
3163.08	5.66518	2.33941	6.1292	-22.438	5.39269	0.189659	-0.0128547	21.5082	3.13335	1	10	0.0045964	0.000749919	0	2.88514e-05	0.000364379	7.25912e-06	-66.6288	0.00967988	0.00383988	0.00888569	-22.501	6.13615	5.66902	2.3483	0.150802	0.0622729	0.163153	22.438	3133.35	7587.8	8209.3	-67.562	0.0000000E+000	0.0000000E+000	0.0000000E+000	67.562	0.0000000E+000	0.0000000E+000	0.0000000E+000	-67.562	0.0000000E+000	0.0000000E+000	0.0000000E+000	-22.438	0.0000000E+000	0.0000000E+000	0.0000000E+000	22.438	2.42162	67.562	-1.00884e-06	-2.438e-06	-4.68397e-09	-2.43331e-06	0.189294	14754.1	28.3461	14725.7
2155.69	6.08446	2.66724	6.64341	-23.6712	5.84383	0.189671	-0.00228879	27.6803	4.46185	1	10	0.00454909	0.000684753	0	2.79649e-05	1.9103e-06	3.72264e-06	6.13957	0.00543647	0.00540529	-0.000581435	-23.6479	6.64812	6.08987	2.66666	0.137861	0.0604339	0.150525	23.6712	4461.85	10178.3	11113.3	-66.3288	0.0000000E+000	0.0000000E+000	0.0000000E+000	66.3288	0.0000000E+000	0.0000000E+000	0.0000000E+000	-66.3288	0.0000000E+000	0.0000000E+000	0.0000000E+000	-23.6712	0.0000000E+000	0.0000000E+000	0.0000000E+000	23.6712	2.28118	66.3288	-8.86574e-07	-4.34116e-07	-4.37228e-12	-4.34112e-07	0.189669	82869.6	0.834636	82868.7
1468.59	6.54716	3.14363	7.26277	-25.6481	6.29505	0.189675	-0.00256458	34.4737	6.45873	1	10	0.00452396	0.000622898	0	2.81825e-05	0.000192683	1.77707e-05	-9.36889	0.0285291	0.0281486	0.00464426	-25.5852	7.29016	6.57531	3.14827	0.124122	0.0595974	0.137689	25.6481	6458.73	13451.4	14921.7	-64.3519	0.0000000E+000	0.0000000E+000	0.0000000E+000	64.3519	0.0000000E+000	0.0000000E+000	0.0000000E+000	-64.3519	0.0000000E+000	0.0000000E+000	0.0000000E+000	-25.6481	0.0000000E+000	0.0000000E+000	0.0000000E+000	25.6481	2.08268	64.3519	2.17634e-07	-4.86436e-07	-4.94152e-10	-4.85942e-07	0.189482	73959.4	75.1325	73884.3
1000.32	7.07078	3.81751	8.03551	-28.3646	6.74577	0.189684	-0.000995542	41.6775	9.40664	1	10	0.00449546	0.000559449	0	2.80651e-05	-0.000112554	4.35834e-06	-113.481	0.00779042	-0.00310408	0.0071453	-28.4199	8.03617	7.06768	3.82465	0.109507	0.0591226	0.124448	28.3646	9406.64	17423	19800.1	-61.6354	0.0000000E+000	0.0000000E+000	0.0000000E+000	61.6354	0.0000000E+000	0.0000000E+000	0.0000000E+000	-61.6354	0.0000000E+000	0.0000000E+000	0.0000000E+000	-28.3646	0.0000000E+000	0.0000000E+000	0.0000000E+000	28.3646	1.8522	61.6354	-1.17402e-07	-1.88838e-07	1.12052e-10	-1.8895e-07	0.189796	190533	113.058	190646
681.09	7.73866	4.77641	9.09401	-31.6835	7.40959	0.189686	-0.00171857	48.9231	13.4961	1	10	0.00496982	0.000546494	0	2.84717e-05	0.000154529	7.52716e-06	-130.305	0.0137735	-0.00890955	0.0105038	-31.7693	9.09195	7.72975	4.78692	0.093574	0.0577552	0.109963	31.6835	13496.1	21866.1	25695.7	-58.3165	0.0000000E+000	0.0000000E+000	0.0000000E+000	58.3165	0.0000000E+000	0.0000000E+000	0.0000000E+000	-58.3165	0.0000000E+000	0.0000000E+000	0.0000000E+000	-31.6835	0.0000000E+000	0.0000000E+000	0.0000000E+000	31.6835	1.62018	58.3165	4.06594e-07	-3.25988e-07	-2.65568e-10	-3.25723e-07	0.189531	110374	89.9171	110284
463.961	8.59647	6.11107	10.5473	-35.4083	7.86133	0.189684	-0.00196082	56.1334	18.8442	1	10	0.00492741	0.000467175	0	2.7957e-05	9.72968e-05	3.3358e-05	139.483	0.0714036	-0.0542818	-0.0463892	-35.3735	10.4761	8.54219	6.06468	0.0772754	0.0549337	0.0948114	35.4083	18844.2	26508.2	32523.7	-54.5917	0.0000000E+000	0.0000000E+000	0.0000000E+000	54.5917	0.0000000E+000	0.0000000E+000	0.0000000E+000	-54.5917	0.0000000E+000	0.0000000E+000	0.0000000E+000	-35.4083	0.0000000E+000	0.0000000E+000	0.0000000E+000	35.4083	1.4067	54.5917	-5.14639e-07	-3.71936e-07	-1.90782e-10	-3.71745e-07	0.189587	96736.9	49.6204	96687.2
316.316	10.0088	7.74202	12.6536	-37.7227	8.30901	0.18968	-0.00241551	64.9897	24.3289	1	10	0.00495319	0.000391444	0	2.80499e-05	0.000173606	7.32789e-06	-35.0364	0.0187202	0.0153278	0.0107472	-37.7188	12.6723	10.0241	7.75277	0.0625101	0.0483529	0.0790286	37.7227	24328.9	31452.1	39763.4	-52.2773	0.0000000E+000	0.0000000E+000	0.0000000E+000	52.2773	0.0000000E+000	0.0000000E+000	0.0000000E+000	-52.2773	0.0000000E+000	0.0000000E+000	0.0000000E+000	-37.7227	0.0000000E+000	0.0000000E+000	0.0000000E+000	37.7227	1.29279	52.2773	9.28229e-08	-4.58173e-07	-4.19347e-10	-4.57754e-07	0.189506	78525.6	71.8714	78453.8
215.345	11.977	9.68737	15.4043	-38.967	8.7586	0.189684	-0.00125271	76.2922	30.1721	1	10	0.00494134	0.000320776	0	2.79909e-05	0.000326225	3.76872e-06	56.6498	0.0117488	0.00645896	-0.00981406	-38.9235	15.4032	11.9835	9.67755	0.0504733	0.0408244	0.0649168	38.967	30172.1	37303.4	47978.1	-51.033	0.0000000E+000	0.0000000E+000	0.0000000E+000	51.033	0.0000000E+000	0.0000000E+000	0.0000000E+000	-51.033	0.0000000E+000	0.0000000E+000	0.0000000E+000	-38.967	0.0000000E+000	0.0000000E+000	0.0000000E+000	38.967	1.23635	51.033	-5.90041e-08	-2.37619e-07	-4.08664e-10	-2.3721e-07	0.189358	151419	260.415	151159
146.737	14.889	11.6725	18.919	-38.0953	9.20547	0.189669	-0.0036864	92.9215	35.3709	1	10	0.00493093	0.000260634	0	2.72664e-05	-9.34762e-05	3.40944e-06	-81.5374	0.0130814	0.0019251	0.0129389	-38.1225	18.9285	14.8909	11.6854	0.0415976	0.0326112	0.0528569	38.0953	35370.9	45117.8	57329.9	-51.9047	0.0000000E+000	0.0000000E+000	0.0000000E+000	51.9047	0.0000000E+000	0.0000000E+000	0.0000000E+000	-51.9047	0.0000000E+000	0.0000000E+000	0.0000000E+000	-38.0953	0.0000000E+000	0.0000000E+000	0.0000000E+000	38.0953	1.27556	51.9047	-7.24445e-07	-6.99197e-07	3.44591e-10	-6.99542e-07	0.189763	51451.1	25.357	51476.4
100.032	18.7605	13.4784	23.1003	-35.6951	9.89985	0.18973	-0.0060581	118.044	40.1869	1	11	0.00494577	0.0002141	0	2.63814e-05	0.000116374	8.78421e-06	-43.049	0.0410285	0.0299824	0.028007	-35.7081	23.141	18.7905	13.5064	0.0351569	0.0252582	0.0432896	35.6951	40186.9	55936	68875.4	-54.3049	0.0000000E+000	0.0000000E+000	0.0000000E+000	54.3049	0.0000000E+000	0.0000000E+000	0.0000000E+000	-54.3049	0.0000000E+000	0.0000000E+000	0.0000000E+000	-35.6951	0.0000000E+000	0.0000000E+000	0.0000000E+000	35.6951	1.3919	54.3049	-8.85037e-07	-1.1494e-06	-7.05006e-10	-1.1487e-06	0.189613	31318.3	19.2097	31299.1
68.104	23.3933	14.2807	27.4077	-31.4025	10.3624	0.189742	-0.00578961	163.643	44.4274	1	11	0.0049378	0.000180161	0	2.55672e-05	0.000268993	1.07109e-05	-61.8121	0.0594518	0.0280829	0.052401	-31.4652	27.459	23.4214	14.3331	0.0311419	0.0190109	0.036486	31.4025	44427.4	72776.7	85265.7	-58.5975	0.0000000E+000	0.0000000E+000	0.0000000E+000	58.5975	0.0000000E+000	0.0000000E+000	0.0000000E+000	-58.5975	0.0000000E+000	0.0000000E+000	0.0000000E+000	-31.4025	0.0000000E+000	0.0000000E+000	0.0000000E+000	31.4025	1.63811	58.5975	-8.14147e-07	-1.09853e-06	-1.55736e-09	-1.09698e-06	0.189473	32772.9	46.4613	32726.5
46.4415	28.123	13.7581	31.308	-26.0685	10.7987	0.18973	-0.00608343	249.089	48.102	1	11	0.00493404	0.000157597	0	2.49425e-05	0.000211761	8.51566e-06	-17.7512	0.0540344	0.0514618	0.0164743	-26.0542	31.3614	28.1745	13.7746	0.0286914	0.0140362	0.0319407	26.0685	48102	98325.3	109461	-63.9315	0.0000000E+000	0.0000000E+000	0.0000000E+000	63.9315	0.0000000E+000	0.0000000E+000	0.0000000E+000	-63.9315	0.0000000E+000	0.0000000E+000	0.0000000E+000	-26.0685	0.0000000E+000	0.0000000E+000	0.0000000E+000	26.0685	2.0441	63.9315	-6.24682e-07	-1.15421e-06	-1.28823e-09	-1.15292e-06	0.189518	31188	34.8094	31153.2
31.6296	32.1842	12.2413	34.4336	-20.8244	11.2286	0.18973	-0.00606332	411.053	51.9506	1	11	0.00493279	0.000143255	0	2.39486e-05	0.000249915	1.06548e-05	50.0517	0.0743762	0.0477567	-0.0570186	-20.7076	34.4581	32.232	12.1843	0.0271442	0.0103244	0.0290414	20.8244	51950.6	136585	146132	-69.1756	0.0000000E+000	0.0000000E+000	0.0000000E+000	69.1756	0.0000000E+000	0.0000000E+000	0.0000000E+000	-69.1756	0.0000000E+000	0.0000000E+000	0.0000000E+000	-20.8244	0.0000000E+000	0.0000000E+000	0.0000000E+000	20.8244	2.62914	69.1756	-9.93903e-07	-1.15039e-06	-1.51532e-09	-1.14888e-06	0.18948	31291.4	41.2176	31250.2
21.5517	35.1589	10.3349	36.6464	-16.3806	11.6495	0.189725	-0.00611843	714.547	56.8306	1	11	0.00492719	0.000134452	0	2.31431e-05	0.000536075	2.13027e-05	47.8906	0.158441	0.106242	-0.117542	-16.1579	36.7155	35.2652	10.2174	0.0261802	0.00769563	0.0272878	16.3806	56830.6	193335	201515	-73.6194	0.0000000E+000	0.0000000E+000	0.0000000E+000	73.6194	0.0000000E+000	0.0000000E+000	0.0000000E+000	-73.6194	0.0000000E+000	0.0000000E+000	0.0000000E+000	-16.3806	0.0000000E+000	0.0000000E+000	0.0000000E+000	16.3806	3.40195	73.6194	-8.05514e-07	-1.16082e-06	-3.27994e-09	-1.15754e-06	0.189189	31008.7	87.6164	30921.1
14.6852	37.3864	8.47841	38.3357	-12.7773	12.1102	0.189727	-0.00563395	1278.28	62.5244	1	11	0.0049396	0.000128851	0	2.19391e-05	9.72968e-05	6.13698e-06	56.4934	0.0476284	0.0262925	-0.0397136	-12.7108	38.3526	37.4127	8.43869	0.0254394	0.0057691	0.0260854	12.7773	62524.4	275708	282708	-77.2227	0.0000000E+000	0.0000000E+000	0.0000000E+000	77.2227	0.0000000E+000	0.0000000E+000	0.0000000E+000	-77.2227	0.0000000E+000	0.0000000E+000	0.0000000E+000	-12.7773	0.0000000E+000	0.0000000E+000	0.0000000E+000	12.7773	4.4096	77.2227	-1.204e-06	-1.06892e-06	-5.48166e-10	-1.06837e-06	0.18963	33675.7	17.2697	33658.5
10.0032	38.8187	6.98018	39.4413	-10.1937	12.5618	0.189721	-0.00586223	2279.37	71.3914	1	11	0.00493643	0.000125159	0	2.21818e-05	7.82195e-05	9.74581e-06	-25.5794	0.0778675	0.0702355	0.0336202	-10.2237	39.5164	38.8889	7.0138	0.0249539	0.00448709	0.0253542	10.1937	71391.4	397027	403395	-79.8063	0.0000000E+000	0.0000000E+000	0.0000000E+000	79.8063	0.0000000E+000	0.0000000E+000	0.0000000E+000	-79.8063	0.0000000E+000	0.0000000E+000	0.0000000E+000	-10.1937	0.0000000E+000	0.0000000E+000	0.0000000E+000	10.1937	5.56127	79.8063	2.42692e-07	-1.11219e-06	-4.58541e-10	-1.11173e-06	0.189643	32363.3	13.343	32349.9
6.81719	39.9932	5.99499	40.44	-8.52518	12.9015	0.189753	-0.00432537	3894.27	85.5817	1	11	0.00492773	0.000121853	0	2.0654e-05	7.82195e-05	5.9677e-06	-111.989	0.0489746	-0.0183373	0.045412	-8.59268	40.4286	39.9748	6.0404	0.0244548	0.00366578	0.024728	8.52518	85581.7	570924	577303	-81.4748	0.0000000E+000	0.0000000E+000	0.0000000E+000	81.4748	0.0000000E+000	0.0000000E+000	0.0000000E+000	-81.4748	0.0000000E+000	0.0000000E+000	0.0000000E+000	-8.52518	0.0000000E+000	0.0000000E+000	0.0000000E+000	8.52518	6.6711	81.4748	-1.52779e-06	-8.2075e-07	-3.38328e-10	-8.20412e-07	0.189674	43869.7	18.0839	43851.6
4.63925	41.0121	5.36118	41.361	-7.44758	13.3855	0.18973	-0.0051882	6398.99	107.51	1	11	0.0049258	0.000119093	0	2.02691e-05	9.72968e-05	7.8816e-06	-0.64219	0.0661804	0.0661763	0.000741756	-7.43674	41.4268	41.0783	5.36192	0.0239734	0.00313384	0.0241773	7.44758	107510	822434	829432	-82.5524	0.0000000E+000	0.0000000E+000	0.0000000E+000	82.5524	0.0000000E+000	0.0000000E+000	0.0000000E+000	-82.5524	0.0000000E+000	0.0000000E+000	0.0000000E+000	-7.44758	0.0000000E+000	0.0000000E+000	0.0000000E+000	7.44758	7.64983	82.5524	-3.84934e-07	-9.84355e-07	-5.04795e-10	-9.8385e-07	0.189632	36569.4	18.7535	36550.7
3.1604	41.9782	4.88326	42.2613	-6.63531	14.0784	0.189744	-0.00416375	10312.6	137.69	1	11	0.00493251	0.000116715	0	2.10933e-05	0.000135451	1.7051e-05	22.5896	0.146091	0.134883	-0.0561177	-6.5389	42.3888	42.1131	4.82714	0.0235038	0.00273417	0.0236623	6.63531	137690	1.18363e+06	1.19162e+06	-83.3647	0.0000000E+000	0.0000000E+000	0.0000000E+000	83.3647	0.0000000E+000	0.0000000E+000	0.0000000E+000	-83.3647	0.0000000E+000	0.0000000E+000	0.0000000E+000	-6.63531	0.0000000E+000	0.0000000E+000	0.0000000E+000	6.63531	8.59634	83.3647	8.24184e-07	-7.90048e-07	-5.63986e-10	-7.89484e-07	0.189609	45570.5	32.5311	45538
2.15577	43.0325	4.4901	43.2661	-5.95681	15.082	0.189747	-0.00333918	16442.3	177.084	1	11	0.0049323	0.000113999	0	2.08303e-05	0.000230838	4.12113e-06	0.350004	0.0361505	0.0361498	-0.000220832	-5.95155	43.302	43.0686	4.48988	0.022988	0.00239861	0.0231128	5.95681	177084	1.69715e+06	1.70636e+06	-84.0432	0.0000000E+000	0.0000000E+000	0.0000000E+000	84.0432	0.0000000E+000	0.0000000E+000	0.0000000E+000	-84.0432	0.0000000E+000	0.0000000E+000	0.0000000E+000	-5.95681	0.0000000E+000	0.0000000E+000	0.0000000E+000	5.95681	9.58386	84.0432	-2.62969e-07	-6.33601e-07	-7.7081e-10	-6.3283e-07	0.189516	56824.4	69.1301	56755.3
1.46631	43.9009	4.2949	44.1105	-5.58756	17.2714	0.189746	-0.00352318	25272.1	239.587	1	12	0.00493327	0.000111839	0	1.67475e-05	-3.62443e-05	5.43087e-06	-16.3161	0.0485596	0.046604	0.0136422	-5.59929	44.1582	43.9475	4.30854	0.0225626	0.00220734	0.0226704	5.58756	239587	2.44897e+06	2.46067e+06	-84.4124	0.0000000E+000	0.0000000E+000	0.0000000E+000	84.4124	0.0000000E+000	0.0000000E+000	0.0000000E+000	-84.4124	0.0000000E+000	0.0000000E+000	0.0000000E+000	-5.58756	0.0000000E+000	0.0000000E+000	0.0000000E+000	5.58756	10.2216	84.4124	-4.08284e-06	-6.68509e-07	1.27695e-10	-6.68637e-07	0.189782	53856.5	10.2874	53866.8
1.00006	44.8085	4.04647	44.9908	-5.16015	19.4	0.189743	-0.00351724	39329.3	318.142	1	12	0.00493404	0.000109668	0	1.13757e-05	5.91422e-05	3.62374e-06	5.82612	0.033043	0.0328723	-0.00335419	-5.15213	45.0233	44.8414	4.04311	0.0221367	0.00199907	0.0222267	5.16015	318142	3.52294e+06	3.53727e+06	-84.8399	0.0000000E+000	0.0000000E+000	0.0000000E+000	84.8399	0.0000000E+000	0.0000000E+000	0.0000000E+000	-84.8399	0.0000000E+000	0.0000000E+000	0.0000000E+000	-5.16015	0.0000000E+000	0.0000000E+000	0.0000000E+000	5.16015	11.0735	84.8399	-5.3718e-06	-6.67373e-07	-2.08018e-10	-6.67165e-07	0.189684	53946.6	16.8149	53929.8
0.681362	45.7113	3.9803	45.8843	-4.97647	22.5122	0.189747	-0.00341109	58684.8	441.601	1	12	0.00493331	0.000107516	0	6.19303e-06	4.00649e-05	2.74515e-06	-16.949	0.0255324	0.0244234	0.00744322	-4.98308	45.9092	45.7357	3.98774	0.0217118	0.00189055	0.021794	4.97647	441601	5.07152e+06	5.09071e+06	-85.0235	0.0000000E+000	0.0000000E+000	0.0000000E+000	85.0235	0.0000000E+000	0.0000000E+000	0.0000000E+000	-85.0235	0.0000000E+000	0.0000000E+000	0.0000000E+000	-4.97647	0.0000000E+000	0.0000000E+000	0.0000000E+000	4.97647	11.4844	85.0235	-5.18264e-06	-6.47246e-07	-1.36665e-10	-6.47109e-07	0.189707	55626.6	11.7455	55614.9
0.464091	46.5657	4.02197	46.7391	-4.9365	27.0687	0.189737	-0.00349892	85266.5	631.387	1	12	0.00493717	0.000105633	0	3.82868e-06	-1.7167e-05	4.37757e-06	-77.2951	0.0414415	0.0091142	0.0404268	-4.98489	46.7517	46.5749	4.0624	0.021316	0.0018411	0.0213954	4.9365	631387	7.31009e+06	7.33731e+06	-85.0635	0.0000000E+000	0.0000000E+000	0.0000000E+000	85.0635	0.0000000E+000	0.0000000E+000	0.0000000E+000	-85.0635	0.0000000E+000	0.0000000E+000	0.0000000E+000	-4.9365	0.0000000E+000	0.0000000E+000	0.0000000E+000	4.9365	11.5778	85.0635	-2.36436e-06	-6.63873e-07	6.0066e-11	-6.63934e-07	0.189754	54227.1	4.90637	54232
0.316193	47.2774	4.12049	47.4566	-4.98106	33.742	0.189739	-0.00329627	122157	920.923	1	12	0.00493491	0.000103988	0	5.84672e-06	2.09876e-05	3.33155e-06	-23.801	0.0320378	0.0293131	0.0129292	-4.99353	47.4869	47.3067	4.13341	0.0209923	0.0018296	0.0210719	4.98106	920922	1.05664e+07	1.06065e+07	-85.0189	0.0000000E+000	0.0000000E+000	0.0000000E+000	85.0189	0.0000000E+000	0.0000000E+000	0.0000000E+000	-85.0189	0.0000000E+000	0.0000000E+000	0.0000000E+000	-4.98106	0.0000000E+000	0.0000000E+000	0.0000000E+000	4.98106	11.4737	85.0189	2.01804e-06	-6.25431e-07	-6.91808e-11	-6.25362e-07	0.189718	57561.8	6.36708	57555.4
0.215268	48.0169	4.3161	48.2105	-5.13635	43.5354	0.189736	-0.00276732	171297	1372.93	1	12	0.00493343	0.000102331	0	1.13182e-05	0.000116374	3.19385e-06	6.22197	0.031211	0.0310272	-0.00338266	-5.12905	48.2411	48.0479	4.31272	0.0206591	0.00185699	0.0207424	5.13635	1.37293e+06	1.5274e+07	1.53356e+07	-84.8636	0.0000000E+000	0.0000000E+000	0.0000000E+000	84.8636	0.0000000E+000	0.0000000E+000	0.0000000E+000	-84.8636	0.0000000E+000	0.0000000E+000	0.0000000E+000	-5.13635	0.0000000E+000	0.0000000E+000	0.0000000E+000	5.13635	11.1251	84.8636	5.47148e-06	-5.25061e-07	-3.22045e-10	-5.24739e-07	0.18962	68563.2	42.053	68521.1
0.146929	48.7732	4.75305	49.0042	-5.56602	57.8738	0.189733	-0.00182423	227898	2143.97	1	12	0.00493322	0.000100669	0	1.58244e-05	7.82195e-05	2.90501e-06	7.96891	0.028857	0.0285783	-0.00400061	-5.55813	49.0323	48.8017	4.74905	0.0203102	0.00197927	0.0204064	5.56602	2.14397e+06	2.20002e+07	2.21045e+07	-84.434	0.0000000E+000	0.0000000E+000	0.0000000E+000	84.434	0.0000000E+000	0.0000000E+000	0.0000000E+000	-84.434	0.0000000E+000	0.0000000E+000	0.0000000E+000	-5.56602	0.0000000E+000	0.0000000E+000	0.0000000E+000	5.56602	10.2614	84.434	4.50619e-06	-3.46118e-07	-1.42691e-10	-3.45975e-07	0.189655	104007	42.878	103964
0.0999041	49.5889	5.58098	49.902	-6.42132	78.95	0.189735	-0.000848544	285448	3570.35	1	12	0.00493522	9.88982e-05	0	1.09609e-05	-5.53216e-05	2.98718e-06	15.0851	0.0302046	0.0291637	-0.00786085	-6.40861	49.9301	49.6181	5.57311	0.0199136	0.00224117	0.0200393	6.42132	3.57035e+06	3.17238e+07	3.19241e+07	-83.5787	0.0000000E+000	0.0000000E+000	0.0000000E+000	83.5787	0.0000000E+000	0.0000000E+000	0.0000000E+000	-83.5787	0.0000000E+000	0.0000000E+000	0.0000000E+000	-6.42132	0.0000000E+000	0.0000000E+000	0.0000000E+000	6.42132	8.88535	83.5787	-4.86352e-06	-1.60999e-07	4.69428e-11	-1.61046e-07	0.18979	223601	65.1959	223666
0.0680626	50.3669	6.87271	50.8336	-7.77019	109.877	0.189732	-0.000197657	340238	6219.23	1	12	0.004935	9.70813e-05	0	-1.1211e-05	0.000230838	2.17105e-06	-10.2775	0.0223632	0.0220044	0.00398994	-7.77129	50.856	50.3889	6.8767	0.0194914	0.00265966	0.019672	7.77019	6.21924e+06	4.55779e+07	4.60002e+07	-82.2298	0.0000000E+000	0.0000000E+000	0.0000000E+000	82.2298	0.0000000E+000	0.0000000E+000	0.0000000E+000	-82.2298	0.0000000E+000	0.0000000E+000	0.0000000E+000	-7.77019	0.0000000E+000	0.0000000E+000	0.0000000E+000	7.77019	7.32854	82.2298	-2.21718e-05	-3.75019e-08	-4.56267e-11	-3.74562e-08	0.189501	959906	1167.87	958738
0.0464052	51.1917	8.595	51.9082	-9.53097	155.229	0.189735	-0.000153838	399032	10940.2	1	12	0.00493345	9.50418e-05	0	-6.78801e-05	-0.000131631	2.77558e-06	7.33612	0.0292038	0.0289648	-0.00372903	-9.52162	51.9362	51.2207	8.59127	0.0189988	0.00318987	0.0192648	9.53097	1.09402e+07	6.51599e+07	6.6072e+07	-80.469	0.0000000E+000	0.0000000E+000	0.0000000E+000	80.469	0.0000000E+000	0.0000000E+000	0.0000000E+000	-80.469	0.0000000E+000	0.0000000E+000	0.0000000E+000	-9.53097	0.0000000E+000	0.0000000E+000	0.0000000E+000	9.53097	5.95599	80.469	-5.66691e-05	-2.91884e-08	2.02498e-11	-2.92087e-08	0.189866	1.23334e+06	855.645	1.23419e+06
0.0315922	52.4974	10.9546	53.6281	-11.7867	221.833	0.189737	-0.000443169	459881	19188.9	1	12	0.00493257	9.19772e-05	0	-0.000153929	0.000268993	2.26528e-06	-14.0821	0.0246287	0.0238885	0.00599243	-11.7878	53.6527	52.5212	10.9606	0.0182538	0.00380899	0.0186469	11.7867	1.91889e+07	9.19586e+07	9.39394e+07	-78.2133	0.0000000E+000	0.0000000E+000	0.0000000E+000	78.2133	0.0000000E+000	0.0000000E+000	0.0000000E+000	-78.2133	0.0000000E+000	0.0000000E+000	0.0000000E+000	-11.7867	0.0000000E+000	0.0000000E+000	0.0000000E+000	11.7867	4.79228	78.2133	-8.60494e-05	-8.40855e-08	-1.19209e-10	-8.39663e-08	0.189468	428136	606.975	427529
0.0215268	54.3999	14.514	56.3028	-14.9387	319.572	0.189737	-0.000755043	509393	33850.8	1	12	0.00493334	8.76216e-05	0	-0.000233181	0.000135451	2.27678e-06	10.2569	0.0259842	0.0255689	-0.00462678	-14.9274	56.3263	54.4254	14.5094	0.0171608	0.00457855	0.0177611	14.9387	3.38508e+07	1.26876e+08	1.31314e+08	-75.0613	0.0000000E+000	0.0000000E+000	0.0000000E+000	75.0613	0.0000000E+000	0.0000000E+000	0.0000000E+000	-75.0613	0.0000000E+000	0.0000000E+000	0.0000000E+000	-14.9387	0.0000000E+000	0.0000000E+000	0.0000000E+000	14.9387	3.74809	75.0613	-7.92515e-05	-1.4326e-07	-1.02272e-10	-1.43157e-07	0.189601	251293	179.396	251113
0.0146812	56.6118	19.4471	59.8588	-18.9585	462.873	0.189737	-0.000794518	557448	58837.9	1	12	0.00493498	8.24436e-05	0	-0.000235013	-0.000436868	3.51162e-06	-12.4339	0.0425942	0.0415951	0.0091711	-18.9538	59.9012	56.6533	19.4563	0.0157997	0.00542748	0.016706	18.9585	5.88379e+07	1.71281e+08	1.81105e+08	-71.0415	0.0000000E+000	0.0000000E+000	0.0000000E+000	71.0415	0.0000000E+000	0.0000000E+000	0.0000000E+000	-71.0415	0.0000000E+000	0.0000000E+000	0.0000000E+000	-18.9585	0.0000000E+000	0.0000000E+000	0.0000000E+000	18.9585	2.91107	71.0415	-1.83182e-06	-1.50749e-07	3.47099e-10	-1.51097e-07	0.190174	238807	549.852	239357
0.0100092	59.2184	25.2443	64.3746	-23.0881	673.055	0.189732	-0.000512285	629881	96862.5	1	12	0.00493404	7.66456e-05	0	-9.17237e-05	-7.43989e-05	1.79429e-06	23.5321	0.0234102	0.0214634	-0.00934684	-23.073	64.3907	59.2399	25.235	0.0142898	0.00609163	0.0155341	23.0881	9.68625e+07	2.27221e+08	2.47006e+08	-66.9119	0.0000000E+000	0.0000000E+000	0.0000000E+000	66.9119	0.0000000E+000	0.0000000E+000	0.0000000E+000	-66.9119	0.0000000E+000	0.0000000E+000	0.0000000E+000	-23.0881	0.0000000E+000	0.0000000E+000	0.0000000E+000	23.0881	2.34581	66.9119	0.000143289	-9.71968e-08	3.81135e-11	-9.7235e-08	0.189806	370363	145.229	370509