File: txt/19149_R306_UA711_SOC00_C05.mpt
EC-Lab ASCII FILE
Nb header lines : 65

Potentio Electrochemical Impedance Spectroscopy

Run on channel : 5 (SN 65912)
Grouped channel(s) : 3, 4, 5, 6, 7
User :
CE vs. WE compliance from -10 V to 10 V
Electrode connection : standard
Potential control : Ewe
Ewe ctrl range : min = -10.00 V, max = 10.00 V
Safety Limits :
	Do not start on E overload
Acquisition started on : 11/12/2025 11:40:22.150
Loaded Setting File :  C:\Users\Celltest\OneDrive - store-dot.com\Documents\EC-Lab\Data\@Biologic Test Protocols\anode half cell EIS SOC00.mps
Saved on :
	File : 19147_R306_UA711_SOC00_C05.mpr
	Directory : C:\Users\Celltest\OneDrive - store-dot.com\Documents\EC-Lab\Data\Charmaine\
	Host : 169.254.61.224
Device : VMP-3e (SN .003165)
Address : USB
EC-LAB for windows v11.62 (software)
Internet server v27.00 (firmware)
Command interpretor v12.03 (firmware)
Electrode material :
Initial state :
Electrolyte :
Comments :
Electrode surface area : 0.001 cm²
Characteristic mass : 0.001 g
Equivalent Weight : 0.000 g/eq.
Density : 0.000 g/cm3
Volume (V) : 0.001 cm³
Record Ece
Cycle Definition : Charge/Discharge alternance
Mode                Single sine
E (V)               0.0000
vs.                 Eoc
tE (h:m:s)          0:00:0.0000
record              0
dI                  0.000
unit dI             mA
dt (s)              0.000
fi                  100.000
unit fi             kHz
ff                  10.000
unit ff             mHz
Nd                  6
Points              per decade
spacing             Logarithmic
Va (mV)             5.0
pw                  0.10
Na                  2
corr                0
E range min (V)     -10.000
E range max (V)     10.000
I Range             Auto
Bandwidth           5
nc cycles           0
goto Ns'            0
nr cycles           0
inc. cycle          0

freq/Hz	Re(Z)/Ohm	-Im(Z)/Ohm	|Z|/Ohm	Phase(Z)/deg	time/s	<Ewe>/V	<I>/mA	Cs/µF	Cp/µF	cycle number	I Range	|Ewe|/V	|I|/A	Ns	(Q-Qo)/mA.h	<Ece>/V	|Ece|/V	Phase(Zce)/deg	|Zce|/Ohm	Re(Zce)/Ohm	-Im(Zce)/Ohm	Phase(Zwe-ce)/deg	|Zwe-ce|/Ohm	Re(Zwe-ce)/Ohm	-Im(Zwe-ce)/Ohm	Re(Y)/Ohm-1	Im(Y)/Ohm-1	|Y|/Ohm-1	Phase(Y)/deg	Re(C)/nF	Im(C)/nF	|C|/nF	Phase(C)/deg	Re(M)	Im(M)	|M|	Phase(M)/deg	Re(Permittivity)	Im(Permittivity)	|Permittivity|	Phase(Permittivity)/deg	Re(Resistivity)/Ohm.cm	Im(Resistivity)/Ohm.cm	|Resistivity|/Ohm.cm	Phase(Resistivity)/deg	Re(Conductivity)/mS/cm	Im(Conductivity)/mS/cm	|Conductivity|/mS/cm	Phase(Conductivity)/deg	Tan(Delta)	Loss Angle(Delta)/deg	dq/mA.h	Pwe/W	Pce/W	Pwe-ce/W	<Ewe-Ece>/V	Rwe/Ohm	Rce/Ohm	Rwe-ce/Ohm		Ewe-Ece/V
100004	1.8302	1.26288	2.22362	-34.6065	1.91157	0.189327	-0.0641113	1.26021	0.406484	1	9	0.00458005	0.00205973	0	-1.39004e-05	-4.91898e-05	3.73127e-05	88.0425	0.0181154	0.000618782	-0.0181048	-34.2117	2.2139	1.83082	1.24477	0.37015	0.255411	0.449717	34.6065	406.484	589.089	715.72	-55.3935	0.0000000E+000	0.0000000E+000	0.0000000E+000	55.3935	0.0000000E+000	0.0000000E+000	0.0000000E+000	-55.3935	0.0000000E+000	0.0000000E+000	0.0000000E+000	-34.6065	0.0000000E+000	0.0000000E+000	0.0000000E+000	34.6065	1.44923	55.3935	-1.39004e-05	-1.2138e-05	3.15362e-09	-1.21412e-05	0.189376	2953.1	0.767257	2953.87
68132	2.17999	1.54041	2.66931	-35.2456	2.42055	0.189267	-0.070442	1.51646	0.505019	1	9	0.00504633	0.0018905	0	-3.43624e-05	-0.000125555	2.19631e-05	79.9846	0.0116176	0.00202046	-0.0114406	-35.0196	2.66438	2.18201	1.52897	0.305954	0.216192	0.374629	35.2456	505.019	714.701	875.124	-54.7544	0.0000000E+000	0.0000000E+000	0.0000000E+000	54.7544	0.0000000E+000	0.0000000E+000	0.0000000E+000	-54.7544	0.0000000E+000	0.0000000E+000	0.0000000E+000	-35.2456	0.0000000E+000	0.0000000E+000	0.0000000E+000	35.2456	1.4152	54.7544	-2.0462e-05	-1.33323e-05	8.84433e-09	-1.33412e-05	0.189392	2686.85	1.78238	2688.63
46420.4	2.63185	1.84527	3.21429	-35.0354	2.92952	0.189308	-0.0606107	1.85803	0.612352	1	9	0.00516545	0.00160703	0	-3.02804e-05	0.00025627	1.59933e-05	31.744	0.00995212	0.00846335	-0.00523606	-34.8726	3.21823	2.64032	1.84003	0.254737	0.178603	0.311111	35.0354	612.352	873.38	1066.66	-54.9646	0.0000000E+000	0.0000000E+000	0.0000000E+000	54.9646	0.0000000E+000	0.0000000E+000	0.0000000E+000	-54.9646	0.0000000E+000	0.0000000E+000	0.0000000E+000	-35.0354	0.0000000E+000	0.0000000E+000	0.0000000E+000	35.0354	1.42627	54.9646	4.08194e-06	-1.14741e-05	-1.55327e-08	-1.14586e-05	0.189052	3123.35	4.22813	3119.12
31621.1	3.12527	2.06403	3.74533	-33.4421	3.18856	0.189311	-0.0635527	2.43852	0.74059	1	9	0.00469169	0.00125268	0	-3.57014e-05	-0.000221011	3.97559e-06	-86.0777	0.00317368	0.000217092	0.00316624	-33.4807	3.74726	3.12549	2.0672	0.222795	0.147141	0.266999	33.4421	740.59	1121.37	1343.85	-56.5579	0.0000000E+000	0.0000000E+000	0.0000000E+000	56.5579	0.0000000E+000	0.0000000E+000	0.0000000E+000	-56.5579	0.0000000E+000	0.0000000E+000	0.0000000E+000	-33.4421	0.0000000E+000	0.0000000E+000	0.0000000E+000	33.4421	1.51416	56.5579	-5.42097e-06	-1.20312e-05	1.40458e-08	-1.20452e-05	0.189532	2978.8	3.4776	2982.28
21544.7	3.70501	2.30149	4.36165	-31.8479	3.57151	0.189295	-0.0671277	3.20974	0.893692	1	9	0.00488959	0.00112104	0	-4.09015e-05	6.53575e-05	6.76457e-06	23.9231	0.00603419	0.00551579	-0.00244693	-31.7824	4.36505	3.71053	2.29905	0.194755	0.120978	0.229271	31.8479	893.692	1438.69	1693.67	-58.1521	0.0000000E+000	0.0000000E+000	0.0000000E+000	58.1521	0.0000000E+000	0.0000000E+000	0.0000000E+000	-58.1521	0.0000000E+000	0.0000000E+000	0.0000000E+000	-31.8479	0.0000000E+000	0.0000000E+000	0.0000000E+000	31.8479	1.60983	58.1521	-5.20011e-06	-1.2707e-05	-4.3873e-09	-1.27026e-05	0.18923	2819.93	0.973629	2818.95
14678.6	4.32798	2.4203	4.95876	-29.2149	4.10855	0.189367	-0.0284788	4.47988	1.06723	1	10	0.00467007	0.000941782	0	-4.64929e-05	-1.10074e-05	7.72825e-06	-49.4549	0.00820599	0.00533427	0.00623569	-29.2476	4.96646	4.33332	2.42654	0.176011	0.0984291	0.201663	29.2149	1067.23	1908.42	2186.57	-60.7851	0.0000000E+000	0.0000000E+000	0.0000000E+000	60.7851	0.0000000E+000	0.0000000E+000	0.0000000E+000	-60.7851	0.0000000E+000	0.0000000E+000	0.0000000E+000	-29.2149	0.0000000E+000	0.0000000E+000	0.0000000E+000	29.2149	1.7882	60.7851	-5.59139e-06	-5.39295e-06	3.13476e-10	-5.39327e-06	0.189379	6649.43	0.386512	6649.81
10002.2	4.94887	2.54266	5.56385	-27.1934	4.36754	0.189363	-0.0282554	6.25801	1.30695	1	10	0.00484238	0.000870329	0	-4.81712e-05	0.000160814	1.06169e-05	-0.147742	0.0121987	0.0121986	3.14553e-05	-27.1364	5.57471	4.96107	2.54269	0.159866	0.0821367	0.179732	27.1934	1306.95	2543.78	2859.88	-62.8066	0.0000000E+000	0.0000000E+000	0.0000000E+000	62.8066	0.0000000E+000	0.0000000E+000	0.0000000E+000	-62.8066	0.0000000E+000	0.0000000E+000	0.0000000E+000	-27.1934	0.0000000E+000	0.0000000E+000	0.0000000E+000	27.1934	1.94634	62.8066	-1.67832e-06	-5.35053e-06	-4.54385e-09	-5.34599e-06	0.189203	6701.85	5.69143	6696.16
6810.42	5.58126	2.64432	6.176	-25.3509	4.62652	0.189364	-0.0300054	8.83755	1.62012	1	10	0.0047951	0.000776408	0	-4.93499e-05	-3.00986e-05	3.77742e-05	38.2374	0.0486525	0.0382142	-0.030112	-24.9481	6.19779	5.61948	2.61421	0.146325	0.0693266	0.161917	25.3509	1620.12	3419.52	3783.89	-64.6491	0.0000000E+000	0.0000000E+000	0.0000000E+000	64.6491	0.0000000E+000	0.0000000E+000	0.0000000E+000	-64.6491	0.0000000E+000	0.0000000E+000	0.0000000E+000	-25.3509	0.0000000E+000	0.0000000E+000	0.0000000E+000	25.3509	2.11066	64.6491	-1.17867e-06	-5.68194e-06	9.0312e-10	-5.68284e-06	0.189394	6311	1.00311	6312
4646	6.19611	2.75454	6.7808	-23.968	4.89159	0.189331	-0.0370799	12.4363	2.05224	1	10	0.00471286	0.000695029	0	-5.23537e-05	-4.91898e-05	1.04288e-05	49.4549	0.0150049	0.00975387	-0.0114021	-23.8466	6.7851	6.20587	2.74314	0.134759	0.0599083	0.147475	23.968	2052.24	4616.34	5051.96	-66.032	0.0000000E+000	0.0000000E+000	0.0000000E+000	66.032	0.0000000E+000	0.0000000E+000	0.0000000E+000	-66.032	0.0000000E+000	0.0000000E+000	0.0000000E+000	-23.968	0.0000000E+000	0.0000000E+000	0.0000000E+000	23.968	2.24942	66.032	-3.0038e-06	-7.02035e-06	1.82395e-09	-7.02218e-06	0.18938	5106.02	1.32659	5107.35
3163.08	6.77314	2.94181	7.38442	-23.477	5.26566	0.189227	-0.020399	17.1039	2.71451	1	10	0.00463707	0.000627953	0	-5.38192e-05	0.000122631	7.99629e-06	-37.4743	0.0127339	0.010106	0.00774737	-23.5009	7.39677	6.78324	2.94956	0.12421	0.0539488	0.13542	23.477	2714.51	6249.82	6813.87	-66.523	0.0000000E+000	0.0000000E+000	0.0000000E+000	66.523	0.0000000E+000	0.0000000E+000	0.0000000E+000	-66.523	0.0000000E+000	0.0000000E+000	0.0000000E+000	-23.477	0.0000000E+000	0.0000000E+000	0.0000000E+000	23.477	2.30237	66.523	-1.46551e-06	-3.86004e-06	-2.50155e-09	-3.85754e-06	0.189104	9276.29	6.01163	9270.28
2155.69	7.35097	3.21277	8.02239	-23.6079	5.71686	0.189305	0.000493068	22.9802	3.68559	1	10	0.00459417	0.000572669	0	-5.3917e-05	-3.00986e-05	1.22092e-05	-5.66356	0.0213198	0.0212157	0.00210398	-23.5611	8.04267	7.37219	3.21488	0.114219	0.0499198	0.124651	23.6079	3685.59	8432.79	9203.02	-66.3921	0.0000000E+000	0.0000000E+000	0.0000000E+000	66.3921	0.0000000E+000	0.0000000E+000	0.0000000E+000	-66.3921	0.0000000E+000	0.0000000E+000	0.0000000E+000	-23.6079	0.0000000E+000	0.0000000E+000	0.0000000E+000	23.6079	2.28805	66.3921	-9.78238e-08	9.33405e-08	-1.48406e-11	9.33553e-08	0.189336	383934	61.0435	383995
1468.59	7.94984	3.62462	8.73715	-24.51	6.1681	0.189308	0.000865409	29.899	5.14568	1	10	0.00456486	0.000522466	0	-5.35107e-05	0.000275361	6.77777e-06	-70.5792	0.0129726	0.00431346	0.0122345	-24.5712	8.74615	7.95415	3.63686	0.10414	0.0474814	0.114454	24.51	5145.68	11286	12403.7	-65.49	0.0000000E+000	0.0000000E+000	0.0000000E+000	65.49	0.0000000E+000	0.0000000E+000	0.0000000E+000	-65.49	0.0000000E+000	0.0000000E+000	0.0000000E+000	-24.51	0.0000000E+000	0.0000000E+000	0.0000000E+000	24.51	2.19329	65.49	4.06313e-07	1.63829e-07	2.383e-10	1.63591e-07	0.189033	218750	318.186	218432
1000.32	8.57507	4.22254	9.55833	-26.2166	6.61884	0.189313	-8.03386e-05	37.6797	7.35344	1	10	0.00453569	0.000474527	0	-5.39492e-05	0.000198996	6.29313e-06	105.544	0.0132619	-0.00355394	-0.0127768	-26.1572	9.5495	8.57152	4.20976	0.0938585	0.0462178	0.104621	26.2166	7353.44	14933.3	16645.6	-63.7834	0.0000000E+000	0.0000000E+000	0.0000000E+000	63.7834	0.0000000E+000	0.0000000E+000	0.0000000E+000	-63.7834	0.0000000E+000	0.0000000E+000	0.0000000E+000	-26.2166	0.0000000E+000	0.0000000E+000	0.0000000E+000	26.2166	2.03079	63.7834	-4.38488e-07	-1.52091e-08	-1.59871e-11	-1.51931e-08	0.189114	2.35644e+06	2476.97	2.35396e+06
681.09	9.32332	5.11684	10.6351	-28.759	7.0676	0.189311	0.000943598	45.6682	10.5714	1	10	0.00452478	0.000425456	0	-5.36771e-05	8.44487e-05	4.34366e-06	39.1497	0.0102094	0.0079174	-0.00644571	-28.708	10.639	9.33123	5.1104	0.0824297	0.0452392	0.0940279	28.759	10571.4	19261.9	21972.1	-61.241	0.0000000E+000	0.0000000E+000	0.0000000E+000	61.241	0.0000000E+000	0.0000000E+000	0.0000000E+000	-61.241	0.0000000E+000	0.0000000E+000	0.0000000E+000	-28.759	0.0000000E+000	0.0000000E+000	0.0000000E+000	28.759	1.82208	61.241	2.72124e-07	1.78633e-07	7.96857e-11	1.78554e-07	0.189226	200626	89.4965	200537
463.961	10.3029	6.33538	12.0949	-31.5879	7.5203	0.189309	0.000984553	54.1459	14.8562	1	10	0.00452825	0.000374393	0	-5.32561e-05	8.44487e-05	1.31836e-05	16.8128	0.0352133	0.0337081	-0.0101853	-31.4634	12.1183	10.3366	6.3252	0.0704295	0.043308	0.0826794	31.5879	14856.2	24159.8	28362	-58.4121	0.0000000E+000	0.0000000E+000	0.0000000E+000	58.4121	0.0000000E+000	0.0000000E+000	0.0000000E+000	-58.4121	0.0000000E+000	0.0000000E+000	0.0000000E+000	-31.5879	0.0000000E+000	0.0000000E+000	0.0000000E+000	31.5879	1.62625	58.4121	4.20972e-07	1.86385e-07	8.31443e-11	1.86302e-07	0.189225	192279	85.7736	192194
316.316	11.6413	7.93815	14.0902	-34.29	7.96805	0.189302	-0.000717046	63.384	20.118	1	10	0.00451523	0.000320452	0	-5.35875e-05	0.000122631	1.38808e-05	62.2386	0.0433164	0.0201764	-0.0383305	-34.1149	14.0853	11.6615	7.89982	0.0586363	0.0399839	0.0709713	34.29	20118	29503	35709.4	-55.71	0.0000000E+000	0.0000000E+000	0.0000000E+000	55.71	0.0000000E+000	0.0000000E+000	0.0000000E+000	-55.71	0.0000000E+000	0.0000000E+000	0.0000000E+000	-34.29	0.0000000E+000	0.0000000E+000	0.0000000E+000	34.29	1.4665	55.71	-3.31433e-07	-1.35738e-07	-8.79322e-11	-1.3565e-07	0.189179	264002	171.023	263831
215.345	13.5261	9.97987	16.8093	-36.4208	8.4166	0.189317	0.000638276	74.0562	26.1042	1	10	0.00451499	0.0002686	0	-5.36548e-05	-0.000106463	1.05802e-05	-112.058	0.0393901	-0.0147927	0.0365069	-36.5508	16.8191	13.5113	10.0164	0.047871	0.0353203	0.0594908	36.4208	26104.2	35380.1	43967.9	-53.5792	0.0000000E+000	0.0000000E+000	0.0000000E+000	53.5792	0.0000000E+000	0.0000000E+000	0.0000000E+000	-53.5792	0.0000000E+000	0.0000000E+000	0.0000000E+000	-36.4208	0.0000000E+000	0.0000000E+000	0.0000000E+000	36.4208	1.35534	53.5792	-6.72636e-08	1.20837e-07	-6.79531e-11	1.20905e-07	0.189424	296607	166.798	296774
146.737	16.2896	12.2908	20.4063	-37.0353	8.86351	0.189301	-0.000236728	88.2466	32.0135	1	10	0.0045085	0.000220937	0	-5.38698e-05	0.000313543	7.89543e-06	4.80373	0.0357362	0.0356107	-0.00299265	-36.9684	20.4329	16.3252	12.2878	0.0391186	0.0295157	0.0490045	37.0353	32013.5	42429	53151.5	-52.9647	0.0000000E+000	0.0000000E+000	0.0000000E+000	52.9647	0.0000000E+000	0.0000000E+000	0.0000000E+000	-52.9647	0.0000000E+000	0.0000000E+000	0.0000000E+000	-37.0353	0.0000000E+000	0.0000000E+000	0.0000000E+000	37.0353	1.32535	52.9647	-2.15005e-07	-4.48129e-08	-7.42246e-11	-4.47386e-08	0.188987	799655	1324.49	798330
100.032	20.1002	14.3248	24.6823	-35.4764	9.55977	0.189338	-0.0051211	111.069	37.4109	1	11	0.00451092	0.000182759	0	-5.43467e-05	0.000218087	7.20278e-06	8.00521	0.0394114	0.0390273	-0.00548855	-35.4135	24.7109	20.1392	14.3193	0.0329934	0.0235135	0.0405148	35.4764	37410.9	52493.9	64460.7	-54.5236	0.0000000E+000	0.0000000E+000	0.0000000E+000	54.5236	0.0000000E+000	0.0000000E+000	0.0000000E+000	-54.5236	0.0000000E+000	0.0000000E+000	0.0000000E+000	-35.4764	0.0000000E+000	0.0000000E+000	0.0000000E+000	35.4764	1.40317	54.5236	-4.76897e-07	-9.69621e-07	-1.11685e-09	-9.68504e-07	0.18912	36972.2	42.586	36929.6
68.104	25.0272	15.7718	29.5823	-32.2185	10.0224	0.189331	-0.00480426	148.172	42.1177	1	11	0.00451352	0.000152575	0	-5.50331e-05	0.000198996	5.72396e-06	83.821	0.0375158	0.00403804	-0.0372978	-32.1532	29.5659	25.0313	15.7345	0.0285989	0.0180226	0.033804	32.2185	42117.7	66833.9	78997.9	-57.7815	0.0000000E+000	0.0000000E+000	0.0000000E+000	57.7815	0.0000000E+000	0.0000000E+000	0.0000000E+000	-57.7815	0.0000000E+000	0.0000000E+000	0.0000000E+000	-32.2185	0.0000000E+000	0.0000000E+000	0.0000000E+000	32.2185	1.58684	57.7815	-6.86402e-07	-9.09595e-07	-9.56028e-10	-9.08639e-07	0.189132	39409	41.4207	39367.6
46.4415	30.3329	15.8692	34.2333	-27.6171	10.4576	0.189327	-0.00502989	215.953	46.4058	1	11	0.00450444	0.000131581	0	-5.56289e-05	8.08384e-06	4.73775e-06	-61.1523	0.0360063	0.0173724	0.0315381	-27.6504	34.2633	30.3503	15.9007	0.0258832	0.0135412	0.0292114	27.6171	46405.8	88701.5	100107	-62.3829	0.0000000E+000	0.0000000E+000	0.0000000E+000	62.3829	0.0000000E+000	0.0000000E+000	0.0000000E+000	-62.3829	0.0000000E+000	0.0000000E+000	0.0000000E+000	-27.6171	0.0000000E+000	0.0000000E+000	0.0000000E+000	27.6171	1.91143	62.3829	-5.95791e-07	-9.52292e-07	-4.06608e-11	-9.52251e-07	0.189319	37640.4	1.60716	37638.8
31.6296	35.4354	14.5827	38.3187	-22.3686	11.0925	0.189334	-0.00536348	345.055	49.974	1	11	0.0050054	0.000130626	0	-5.64531e-05	0.000237178	8.19553e-06	3.30719	0.0627406	0.0626362	-0.00361946	-22.328	38.3753	35.498	14.5791	0.0241332	0.00993154	0.0260969	22.3686	49974	121435	131316	-67.6314	0.0000000E+000	0.0000000E+000	0.0000000E+000	67.6314	0.0000000E+000	0.0000000E+000	0.0000000E+000	-67.6314	0.0000000E+000	0.0000000E+000	0.0000000E+000	-22.3686	0.0000000E+000	0.0000000E+000	0.0000000E+000	22.3686	2.42996	67.6314	-8.24175e-07	-1.01549e-06	-1.2721e-09	-1.01422e-06	0.189097	35300.6	44.221	35256.4
21.5517	39.456	12.3573	41.3458	-17.3901	11.5134	0.189339	-0.0053296	597.607	53.3823	1	11	0.00500226	0.000120986	0	-5.7002e-05	-4.91898e-05	7.68579e-06	-25.1694	0.0635264	0.0574948	0.0270176	-17.402	41.4088	39.5135	12.3843	0.0230807	0.00722868	0.0241862	17.3901	53382.3	170446	178610	-72.6099	0.0000000E+000	0.0000000E+000	0.0000000E+000	72.6099	0.0000000E+000	0.0000000E+000	0.0000000E+000	-72.6099	0.0000000E+000	0.0000000E+000	0.0000000E+000	-17.3901	0.0000000E+000	0.0000000E+000	0.0000000E+000	17.3901	3.19294	72.6099	-5.48933e-07	-1.0091e-06	2.62162e-10	-1.00936e-06	0.189388	35525.8	9.22955	35535.1
14.6852	42.2639	9.88183	43.4038	-13.1601	11.9742	0.189348	-0.00446656	1096.74	56.8491	1	11	0.00499734	0.000115136	0	-5.72278e-05	2.71751e-05	7.75812e-06	36.9098	0.0673823	0.0538776	-0.0404669	-13.0919	43.4471	42.3178	9.84136	0.0224344	0.00524544	0.0230395	13.1601	56849.1	243140	249697	-76.8399	0.0000000E+000	0.0000000E+000	0.0000000E+000	76.8399	0.0000000E+000	0.0000000E+000	0.0000000E+000	-76.8399	0.0000000E+000	0.0000000E+000	0.0000000E+000	-13.1601	0.0000000E+000	0.0000000E+000	0.0000000E+000	13.1601	4.27693	76.8399	-2.25791e-07	-8.45737e-07	-1.21379e-10	-8.45616e-07	0.189321	42392.4	6.08411	42386.3
10.0032	44.1735	7.75291	44.8487	-9.95462	12.4248	0.189342	-0.00469405	2052.19	61.3263	1	11	0.00500225	0.000111536	0	-5.74351e-05	-3.00986e-05	7.41098e-06	134.067	0.0664447	-0.0462119	-0.0477426	-9.90469	44.7949	44.1273	7.70516	0.0219615	0.00385448	0.0222972	9.95462	61326.3	349417	354757	-80.0454	0.0000000E+000	0.0000000E+000	0.0000000E+000	80.0454	0.0000000E+000	0.0000000E+000	0.0000000E+000	-80.0454	0.0000000E+000	0.0000000E+000	0.0000000E+000	-9.95462	0.0000000E+000	0.0000000E+000	0.0000000E+000	9.95462	5.69767	80.0454	-2.07298e-07	-8.88782e-07	1.41284e-10	-8.88924e-07	0.189372	40336.6	6.41207	40343
6.81719	45.4368	5.83516	45.81	-7.31808	12.7645	0.189346	-0.00499749	4000.94	64.9154	1	11	0.00499874	0.000109119	0	-5.77701e-05	0.000122631	4.30224e-06	-108.295	0.039427	-0.0123768	0.037434	-7.36649	45.8025	45.4245	5.8726	0.0216515	0.00278056	0.0218293	7.31808	64915.4	505478	509630	-82.6819	0.0000000E+000	0.0000000E+000	0.0000000E+000	82.6819	0.0000000E+000	0.0000000E+000	0.0000000E+000	-82.6819	0.0000000E+000	0.0000000E+000	0.0000000E+000	-7.31808	0.0000000E+000	0.0000000E+000	0.0000000E+000	7.31808	7.78673	82.6819	-3.35041e-07	-9.46254e-07	-6.12848e-10	-9.45642e-07	0.189223	37888.2	24.5385	37863.6
4.63925	46.1198	4.59003	46.3476	-5.68359	13.2485	0.189341	-0.00438726	7474.07	73.3048	1	11	0.00500275	0.00010794	0	-5.95491e-05	8.08384e-06	9.66643e-06	29.6322	0.0895538	0.0778417	-0.0442781	-5.6197	46.4207	46.1976	4.54575	0.02147	0.00213678	0.0215761	5.68359	73304.9	736554	740193	-84.3164	0.0000000E+000	0.0000000E+000	0.0000000E+000	84.3164	0.0000000E+000	0.0000000E+000	0.0000000E+000	-84.3164	0.0000000E+000	0.0000000E+000	0.0000000E+000	-5.68359	0.0000000E+000	0.0000000E+000	0.0000000E+000	5.68359	10.0478	84.3164	-1.77903e-06	-8.30689e-07	-3.54659e-11	-8.30653e-07	0.189333	43157	1.84257	43155.2
3.1604	46.7111	3.56133	46.8467	-4.35989	13.9415	0.189341	-0.00420929	14140.5	81.7209	1	11	0.00500187	0.000106771	0	-6.02785e-05	0.00025627	6.06235e-06	50.2254	0.056779	0.0363254	-0.0436384	-4.30333	46.8796	46.7474	3.51769	0.0212845	0.00162276	0.0213462	4.35989	81720.9	1.07187e+06	1.07498e+06	-85.6401	0.0000000E+000	0.0000000E+000	0.0000000E+000	85.6401	0.0000000E+000	0.0000000E+000	0.0000000E+000	-85.6401	0.0000000E+000	0.0000000E+000	0.0000000E+000	-4.35989	0.0000000E+000	0.0000000E+000	0.0000000E+000	4.35989	13.1162	85.6401	-7.29315e-07	-7.96991e-07	-1.07871e-09	-7.95912e-07	0.189085	44981.6	60.8819	44920.8
2.15577	47.0432	2.99033	47.1382	-3.63715	14.9451	0.189353	-0.00354852	24688.7	99.3557	1	11	0.0050015	0.000106103	0	-5.94812e-05	8.44487e-05	2.66124e-06	72.4562	0.0250817	0.0075605	-0.023915	-3.60756	47.1442	47.0508	2.96642	0.0211715	0.00134578	0.0212142	3.63715	99355.7	1.56304e+06	1.56619e+06	-86.3628	0.0000000E+000	0.0000000E+000	0.0000000E+000	86.3628	0.0000000E+000	0.0000000E+000	0.0000000E+000	-86.3628	0.0000000E+000	0.0000000E+000	0.0000000E+000	-3.63715	0.0000000E+000	0.0000000E+000	0.0000000E+000	3.63715	15.7318	86.3628	7.97253e-07	-6.71921e-07	-2.99668e-10	-6.71621e-07	0.189268	53361	23.7983	53337.2
1.46631	47.3292	2.61933	47.4016	-3.16768	17.1325	0.189344	-0.00291176	41438.4	126.532	1	12	0.00500097	0.000105502	0	-5.92996e-05	2.71751e-05	5.23463e-06	84.3731	0.0496163	0.00486484	-0.0493772	-3.10777	47.4037	47.334	2.56996	0.0210641	0.00116575	0.0210963	3.16768	126532	2.28632e+06	2.28982e+06	-86.8323	0.0000000E+000	0.0000000E+000	0.0000000E+000	86.8323	0.0000000E+000	0.0000000E+000	0.0000000E+000	-86.8323	0.0000000E+000	0.0000000E+000	0.0000000E+000	-3.16768	0.0000000E+000	0.0000000E+000	0.0000000E+000	3.16768	18.0692	86.8323	1.81626e-07	-5.51324e-07	-7.91271e-11	-5.51245e-07	0.189317	65027.5	9.33288	65018.2
1.00006	47.7263	2.5505	47.7944	-3.05898	19.261	0.189342	-0.00257715	62397.6	177.69	1	12	0.00500203	0.000104657	0	-6.19679e-05	-0.000259193	4.10911e-06	7.80485	0.0392626	0.0388989	-0.00533183	-3.05012	47.833	47.7652	2.54516	0.0208931	0.00111653	0.020923	3.05898	177690	3.32503e+06	3.32978e+06	-86.941	0.0000000E+000	0.0000000E+000	0.0000000E+000	86.941	0.0000000E+000	0.0000000E+000	0.0000000E+000	-86.941	0.0000000E+000	0.0000000E+000	0.0000000E+000	-3.05898	0.0000000E+000	0.0000000E+000	0.0000000E+000	3.05898	18.7126	86.941	-2.66833e-06	-4.87963e-07	6.67979e-10	-4.88631e-07	0.189601	73469.8	100.574	73570.3
0.681362	48.1225	2.57884	48.1915	-3.0675	22.3731	0.189342	-0.00224854	90576.8	259.374	1	12	0.00500548	0.000103866	0	-6.79989e-05	0.00025627	3.38215e-06	-62.5695	0.0325625	0.0150006	0.0289015	-3.10085	48.208	48.1375	2.60775	0.0207208	0.00111041	0.0207505	3.0675	259374	4.84004e+06	4.84698e+06	-86.9325	0.0000000E+000	0.0000000E+000	0.0000000E+000	86.9325	0.0000000E+000	0.0000000E+000	0.0000000E+000	-86.9325	0.0000000E+000	0.0000000E+000	0.0000000E+000	-3.0675	0.0000000E+000	0.0000000E+000	0.0000000E+000	3.0675	18.6605	86.9325	-6.03101e-06	-4.25743e-07	-5.76234e-10	-4.25167e-07	0.189085	84206.4	113.971	84092.4
0.464091	48.625	2.73852	48.702	-3.22345	26.9286	0.189338	-0.00221338	125228	395.949	1	12	0.00500901	0.00010285	0	-7.718e-05	6.53575e-05	1.1035e-05	16.2737	0.107292	0.102994	-0.0300661	-3.18141	48.8032	48.7279	2.70845	0.0205005	0.00115458	0.020533	3.22345	395949	7.03045e+06	7.04159e+06	-86.7766	0.0000000E+000	0.0000000E+000	0.0000000E+000	86.7766	0.0000000E+000	0.0000000E+000	0.0000000E+000	-86.7766	0.0000000E+000	0.0000000E+000	0.0000000E+000	-3.22345	0.0000000E+000	0.0000000E+000	0.0000000E+000	3.22345	17.7559	86.7766	-9.18109e-06	-4.19078e-07	-1.44661e-10	-4.18933e-07	0.189273	85542.6	29.5284	85513.1
0.316193	49.1115	3.04123	49.2055	-3.54352	33.6031	0.189349	-0.00206616	165508	632.25	1	12	0.00500072	0.000101629	0	-8.6289e-05	-4.91898e-05	3.048e-06	-20.2533	0.0299914	0.0281371	0.0103822	-3.55355	49.2343	49.1396	3.05161	0.0202841	0.00125609	0.0203229	3.54352	632250	1.02099e+07	1.02295e+07	-86.4565	0.0000000E+000	0.0000000E+000	0.0000000E+000	86.4565	0.0000000E+000	0.0000000E+000	0.0000000E+000	-86.4565	0.0000000E+000	0.0000000E+000	0.0000000E+000	-3.54352	0.0000000E+000	0.0000000E+000	0.0000000E+000	3.54352	16.1486	86.4565	-9.10898e-06	-3.91227e-07	1.01634e-10	-3.91328e-07	0.189398	91642.9	23.8073	91666.7
0.215268	49.6791	3.53552	49.8048	-4.07071	43.3955	0.189335	-0.00251751	209116	1053.79	1	12	0.00500704	0.000100533	0	-9.11922e-05	-0.000106463	2.15934e-06	-13.6252	0.0214788	0.0208744	0.00505976	-4.07481	49.8259	49.7	3.54058	0.0200277	0.00142532	0.0200784	4.07071	1.05379e+06	1.48072e+07	1.48447e+07	-85.9293	0.0000000E+000	0.0000000E+000	0.0000000E+000	85.9293	0.0000000E+000	0.0000000E+000	0.0000000E+000	-85.9293	0.0000000E+000	0.0000000E+000	0.0000000E+000	-4.07071	0.0000000E+000	0.0000000E+000	0.0000000E+000	4.07071	14.0514	85.9293	-4.90323e-06	-4.76652e-07	2.68023e-10	-4.7692e-07	0.189441	75207.2	42.2892	75249.5
0.146929	50.1888	4.22625	50.3664	-4.81336	57.7339	0.189343	-0.00229125	256305	1804.62	1	12	0.00500276	9.93273e-05	0	-8.66348e-05	-0.000182828	3.39949e-06	-13.3036	0.0342251	0.0333067	0.00787557	-4.8191	50.4003	50.2221	4.23413	0.0197845	0.00166599	0.0198545	4.81336	1.80462e+06	2.14308e+07	2.15066e+07	-85.1866	0.0000000E+000	0.0000000E+000	0.0000000E+000	85.1866	0.0000000E+000	0.0000000E+000	0.0000000E+000	-85.1866	0.0000000E+000	0.0000000E+000	0.0000000E+000	-4.81336	0.0000000E+000	0.0000000E+000	0.0000000E+000	4.81336	11.8755	85.1866	4.55741e-06	-4.33832e-07	4.18906e-10	-4.34251e-07	0.189526	82637.2	79.7941	82717
0.0999041	50.7402	5.10459	50.9963	-5.74477	78.8101	0.189343	-0.00169612	312087	3126.95	1	12	0.00500423	9.81292e-05	0	-7.02851e-05	8.44487e-05	1.91803e-06	20.17	0.019546	0.0183473	-0.0067396	-5.73518	51.0139	50.7586	5.09786	0.0195108	0.00196283	0.0196093	5.74477	3.12695e+06	3.10822e+07	3.12391e+07	-84.2552	0.0000000E+000	0.0000000E+000	0.0000000E+000	84.2552	0.0000000E+000	0.0000000E+000	0.0000000E+000	-84.2552	0.0000000E+000	0.0000000E+000	0.0000000E+000	-5.74477	0.0000000E+000	0.0000000E+000	0.0000000E+000	5.74477	9.9401	84.2552	1.63497e-05	-3.21149e-07	-1.43235e-10	-3.21006e-07	0.189259	111633	49.7893	111583
0.0680626	51.4458	6.37158	51.8388	-7.06015	109.737	0.18934	-0.00110326	366999	5544.32	1	12	0.00500176	9.64868e-05	0	-4.69059e-05	2.71751e-05	2.32967e-06	-39.6522	0.024145	0.01859	0.0154075	-7.07452	51.8592	51.4644	6.38699	0.0191443	0.00237103	0.0192906	7.06015	5.54431e+06	4.47662e+07	4.51083e+07	-82.9399	0.0000000E+000	0.0000000E+000	0.0000000E+000	82.9399	0.0000000E+000	0.0000000E+000	0.0000000E+000	-82.9399	0.0000000E+000	0.0000000E+000	0.0000000E+000	-7.06015	0.0000000E+000	0.0000000E+000	0.0000000E+000	7.06015	8.07426	82.9399	2.33792e-05	-2.08891e-07	-2.99812e-11	-2.08861e-07	0.189313	171618	24.6316	171594
0.0464052	52.4882	8.2675	53.1353	-8.9512	155.089	0.189342	-9.56549e-05	414839	10042.9	1	12	0.00500398	9.41743e-05	0	-2.81029e-05	0.000294452	2.00417e-06	-2.26204	0.0212815	0.0212649	0.000839974	-8.94853	53.1565	52.5095	8.26834	0.0185907	0.00292824	0.0188199	8.9512	1.00429e+07	6.376e+07	6.45461e+07	-81.0488	0.0000000E+000	0.0000000E+000	0.0000000E+000	81.0488	0.0000000E+000	0.0000000E+000	0.0000000E+000	-81.0488	0.0000000E+000	0.0000000E+000	0.0000000E+000	-8.9512	0.0000000E+000	0.0000000E+000	0.0000000E+000	8.9512	6.34874	81.0488	1.88029e-05	-1.81115e-08	-2.81658e-11	-1.80833e-08	0.189047	1.97943e+06	3078.27	1.97635e+06
0.0315922	53.5421	11.1353	54.6877	-11.7485	221.694	0.189343	0.000289128	452417	18756.9	1	12	0.00500086	9.14439e-05	0	-4.81333e-05	0.000179905	1.45771e-06	-22.5288	0.015941	0.0147245	0.00610776	-11.7516	54.7034	53.5568	11.1414	0.0179026	0.00372324	0.0182856	11.7485	1.87569e+07	9.01894e+07	9.21192e+07	-78.2515	0.0000000E+000	0.0000000E+000	0.0000000E+000	78.2515	0.0000000E+000	0.0000000E+000	0.0000000E+000	-78.2515	0.0000000E+000	0.0000000E+000	0.0000000E+000	-11.7485	0.0000000E+000	0.0000000E+000	0.0000000E+000	11.7485	4.80833	78.2515	-2.00304e-05	5.47446e-08	5.20156e-11	5.46925e-08	0.189163	654876	622.231	654254
0.0215268	54.8244	14.7173	56.7655	-15.0265	319.433	0.189332	0.000102363	502356	33767.7	1	12	0.00500248	8.81254e-05	0	-0.000143608	2.71751e-05	2.76015e-06	-19.3377	0.0313207	0.0295537	0.0103714	-15.0289	56.7967	54.854	14.7277	0.017014	0.00456731	0.0176163	15.0265	3.37677e+07	1.2579e+08	1.30244e+08	-74.9735	0.0000000E+000	0.0000000E+000	0.0000000E+000	74.9735	0.0000000E+000	0.0000000E+000	0.0000000E+000	-74.9735	0.0000000E+000	0.0000000E+000	0.0000000E+000	-15.0265	0.0000000E+000	0.0000000E+000	0.0000000E+000	15.0265	3.72516	74.9735	-9.54744e-05	1.93805e-08	2.78171e-12	1.93777e-08	0.189304	1.84962e+06	265.478	1.84935e+06
0.0146812	57.1427	19.2714	60.3049	-18.6367	462.735	0.189335	-0.000186047	562530	57447.2	1	12	0.00500436	8.29844e-05	0	-0.000313036	-6.8281e-05	1.52439e-06	-33.1979	0.0183696	0.0153714	0.010058	-18.6411	60.3227	57.1581	19.2815	0.0157129	0.00529919	0.0165824	18.6367	5.74472e+07	1.7034e+08	1.79766e+08	-71.3633	0.0000000E+000	0.0000000E+000	0.0000000E+000	71.3633	0.0000000E+000	0.0000000E+000	0.0000000E+000	-71.3633	0.0000000E+000	0.0000000E+000	0.0000000E+000	-18.6367	0.0000000E+000	0.0000000E+000	0.0000000E+000	18.6367	2.96515	71.3633	-0.000169428	-3.52252e-08	1.27035e-11	-3.52379e-08	0.189403	1.01767e+06	367.01	1.01804e+06
0.0100092	60.7044	25.784	65.9533	-23.0132	672.917	0.189337	-0.000466668	616696	94254	1	12	0.00500223	7.5845e-05	0	-0.000482222	2.71751e-05	2.27878e-06	5.24121	0.0300453	0.0299197	-0.0027446	-23.0009	65.9798	60.7343	25.7813	0.0139555	0.00592758	0.0151622	23.0132	9.4254e+07	2.21906e+08	2.41094e+08	-66.9868	0.0000000E+000	0.0000000E+000	0.0000000E+000	66.9868	0.0000000E+000	0.0000000E+000	0.0000000E+000	-66.9868	0.0000000E+000	0.0000000E+000	0.0000000E+000	-23.0132	0.0000000E+000	0.0000000E+000	0.0000000E+000	23.0132	2.35434	66.9868	-0.000169186	-8.83573e-08	-1.26817e-11	-8.83447e-08	0.18931	405720	58.2321	405662