File: txt/19144_R306_UA710_SOC00_C08.mpt
EC-Lab ASCII FILE
Nb header lines : 65

Potentio Electrochemical Impedance Spectroscopy

Run on channel : 8 (SN 65398)
Grouped channel(s) : 6, 7, 8
User :
CE vs. WE compliance from -10 V to 10 V
Electrode connection : standard
Potential control : Ewe
Ewe ctrl range : min = -10.00 V, max = 10.00 V
Safety Limits :
	Do not start on E overload
Acquisition started on : 11/12/2025 11:20:50.497
Loaded Setting File :  C:\Users\Celltest\OneDrive - store-dot.com\Documents\EC-Lab\Data\@Biologic Test Protocols\anode half cell EIS SOC00.mps
Saved on :
	File : 19142_R306_UA710_SOC00_C08.mpr
	Directory : C:\Users\Celltest\OneDrive - store-dot.com\Documents\EC-Lab\Data\Charmaine\
	Host : 169.254.61.224
Device : VMP-3e (SN .003165)
Address : USB
EC-LAB for windows v11.62 (software)
Internet server v27.00 (firmware)
Command interpretor v12.03 (firmware)
Electrode material :
Initial state :
Electrolyte :
Comments :
Electrode surface area : 0.001 cm²
Characteristic mass : 0.001 g
Equivalent Weight : 0.000 g/eq.
Density : 0.000 g/cm3
Volume (V) : 0.001 cm³
Record Ece
Cycle Definition : Charge/Discharge alternance
Mode                Single sine
E (V)               0.0000
vs.                 Eoc
tE (h:m:s)          0:00:0.0000
record              0
dI                  0.000
unit dI             mA
dt (s)              0.000
fi                  100.000
unit fi             kHz
ff                  10.000
unit ff             mHz
Nd                  6
Points              per decade
spacing             Logarithmic
Va (mV)             5.0
pw                  0.10
Na                  2
corr                0
E range min (V)     -10.000
E range max (V)     10.000
I Range             Auto
Bandwidth           5
nc cycles           0
goto Ns'            0
nr cycles           0
inc. cycle          0

freq/Hz	Re(Z)/Ohm	-Im(Z)/Ohm	|Z|/Ohm	Phase(Z)/deg	time/s	<Ewe>/V	<I>/mA	Cs/µF	Cp/µF	cycle number	I Range	|Ewe|/V	|I|/A	Ns	(Q-Qo)/mA.h	<Ece>/V	|Ece|/V	Phase(Zce)/deg	|Zce|/Ohm	Re(Zce)/Ohm	-Im(Zce)/Ohm	Phase(Zwe-ce)/deg	|Zwe-ce|/Ohm	Re(Zwe-ce)/Ohm	-Im(Zwe-ce)/Ohm	Re(Y)/Ohm-1	Im(Y)/Ohm-1	|Y|/Ohm-1	Phase(Y)/deg	Re(C)/nF	Im(C)/nF	|C|/nF	Phase(C)/deg	Re(M)	Im(M)	|M|	Phase(M)/deg	Re(Permittivity)	Im(Permittivity)	|Permittivity|	Phase(Permittivity)/deg	Re(Resistivity)/Ohm.cm	Im(Resistivity)/Ohm.cm	|Resistivity|/Ohm.cm	Phase(Resistivity)/deg	Re(Conductivity)/mS/cm	Im(Conductivity)/mS/cm	|Conductivity|/mS/cm	Phase(Conductivity)/deg	Tan(Delta)	Loss Angle(Delta)/deg	dq/mA.h	Pwe/W	Pce/W	Pwe-ce/W	<Ewe-Ece>/V	Rwe/Ohm	Rce/Ohm	Rwe-ce/Ohm		Ewe-Ece/V
100004	2.12094	1.07015	2.37563	-26.7737	2.05354	0.184345	0.0229562	1.48717	0.30178	1	9	0.00490076	0.00206293	0	1.40323e-06	-0.000533931	4.92108e-05	56.5821	0.0238548	0.0131378	-0.019911	-26.203	2.37851	2.13408	1.05023	0.375813	0.189621	0.420941	26.7737	301.78	598.103	669.924	-63.2263	0.0000000E+000	0.0000000E+000	0.0000000E+000	63.2263	0.0000000E+000	0.0000000E+000	0.0000000E+000	-63.2263	0.0000000E+000	0.0000000E+000	0.0000000E+000	-26.7737	0.0000000E+000	0.0000000E+000	0.0000000E+000	26.7737	1.98192	63.2263	1.40323e-06	4.23185e-06	-1.2257e-08	4.2441e-06	0.184879	8030.29	23.2587	8053.55
68132	2.39772	1.30761	2.7311	-28.6062	2.43651	0.184356	0.0163714	1.78644	0.409518	1	9	0.00541405	0.00198237	0	-2.06775e-06	-0.000133081	2.03568e-05	47.1835	0.0102689	0.00697928	-0.0075326	-28.3975	2.73364	2.4047	1.30008	0.321457	0.175309	0.366153	28.6062	409.518	750.917	855.325	-61.3938	0.0000000E+000	0.0000000E+000	0.0000000E+000	61.3938	0.0000000E+000	0.0000000E+000	0.0000000E+000	-61.3938	0.0000000E+000	0.0000000E+000	0.0000000E+000	-28.6062	0.0000000E+000	0.0000000E+000	0.0000000E+000	28.6062	1.83366	61.3938	-3.47098e-06	3.01817e-06	-2.17872e-09	3.02034e-06	0.184489	11260.9	8.1289	11269
46420.4	2.7475	1.52348	3.14162	-29.0082	2.81955	0.184339	0.0196824	2.25048	0.529226	1	9	0.00545166	0.0017353	0	-3.70172e-06	-0.000152169	1.05779e-05	14.0806	0.00609573	0.00591258	-0.00148301	-28.9324	3.14607	2.75342	1.522	0.278376	0.154358	0.318307	29.0082	529.226	954.427	1091.33	-60.9918	0.0000000E+000	0.0000000E+000	0.0000000E+000	60.9918	0.0000000E+000	0.0000000E+000	0.0000000E+000	-60.9918	0.0000000E+000	0.0000000E+000	0.0000000E+000	-29.0082	0.0000000E+000	0.0000000E+000	0.0000000E+000	29.0082	1.80344	60.9918	-1.63398e-06	3.62822e-06	-2.99505e-09	3.63122e-06	0.184491	9365.68	7.73126	9373.41
31621.1	3.19902	1.71766	3.63099	-28.2328	3.20156	0.184339	0.017599	2.93026	0.655737	1	9	0.00545851	0.00150331	0	-6.64592e-06	-0.000171257	1.35336e-05	-1.97976	0.00900251	0.00899713	0.000311005	-28.1701	3.63906	3.20802	1.71797	0.242643	0.130283	0.275407	28.2328	655.737	1221.27	1386.17	-61.7672	0.0000000E+000	0.0000000E+000	0.0000000E+000	61.7672	0.0000000E+000	0.0000000E+000	0.0000000E+000	-61.7672	0.0000000E+000	0.0000000E+000	0.0000000E+000	-28.2328	0.0000000E+000	0.0000000E+000	0.0000000E+000	28.2328	1.86243	61.7672	-2.94419e-06	3.24419e-06	-3.01397e-09	3.24721e-06	0.18451	10474.4	9.73107	10484.1
21544.7	3.66686	1.86571	4.11422	-26.9672	3.58455	0.184342	0.0142508	3.95945	0.814237	1	9	0.00539228	0.00131065	0	-2.6655e-06	0.000191416	6.97987e-06	-60.2356	0.00532552	0.00264377	0.00462295	-27.0078	4.11867	3.66951	1.87034	0.216631	0.110223	0.24306	26.9672	814.237	1600.3	1795.53	-63.0328	0.0000000E+000	0.0000000E+000	0.0000000E+000	63.0328	0.0000000E+000	0.0000000E+000	0.0000000E+000	-63.0328	0.0000000E+000	0.0000000E+000	0.0000000E+000	-26.9672	0.0000000E+000	0.0000000E+000	0.0000000E+000	26.9672	1.96539	63.0328	3.98041e-06	2.62703e-06	2.72783e-09	2.6243e-06	0.184151	12935.5	13.4319	12922.1
14678.6	4.16882	1.97816	4.61435	-25.385	4.24654	0.184338	-0.00849242	5.48117	1.00734	1	10	0.00490697	0.00106342	0	3.61479e-07	-5.67291e-05	1.12983e-05	6.60194	0.0106245	0.0105541	-0.00122151	-25.3152	4.62336	4.17937	1.97694	0.195791	0.0929056	0.216715	25.385	1007.34	2122.9	2349.77	-64.615	0.0000000E+000	0.0000000E+000	0.0000000E+000	64.615	0.0000000E+000	0.0000000E+000	0.0000000E+000	-64.615	0.0000000E+000	0.0000000E+000	0.0000000E+000	-25.385	0.0000000E+000	0.0000000E+000	0.0000000E+000	25.385	2.10742	64.615	3.02698e-06	-1.56547e-06	4.81767e-10	-1.56595e-06	0.184394	21706.1	6.67997	21712.8
10002.2	4.67679	2.06566	5.11266	-23.8303	4.62954	0.184336	-0.0083585	7.70307	1.25745	1	10	0.0052412	0.00102514	0	-1.98636e-06	7.68873e-05	9.0055e-06	-55.3213	0.00878464	0.00499824	0.0072241	-23.8817	5.12015	4.68179	2.07289	0.178918	0.0790252	0.195593	23.8303	1257.45	2846.93	3112.26	-66.1697	0.0000000E+000	0.0000000E+000	0.0000000E+000	66.1697	0.0000000E+000	0.0000000E+000	0.0000000E+000	-66.1697	0.0000000E+000	0.0000000E+000	0.0000000E+000	-23.8303	0.0000000E+000	0.0000000E+000	0.0000000E+000	23.8303	2.26406	66.1697	-2.34784e-06	-1.54077e-06	-6.42662e-10	-1.54013e-06	0.184259	22053.7	9.19869	22044.5
6810.42	5.15743	2.13516	5.58193	-22.4894	5.01252	0.184339	-0.00899089	10.945	1.60143	1	10	0.00517857	0.000927738	0	-4.24071e-06	5.3507e-07	2.1144e-05	-63.6421	0.0227909	0.0101186	0.0204215	-22.6429	5.59911	5.16755	2.15558	0.165525	0.068527	0.179149	22.4894	1601.43	3868.21	4186.6	-67.5106	0.0000000E+000	0.0000000E+000	0.0000000E+000	67.5106	0.0000000E+000	0.0000000E+000	0.0000000E+000	-67.5106	0.0000000E+000	0.0000000E+000	0.0000000E+000	-22.4894	0.0000000E+000	0.0000000E+000	0.0000000E+000	22.4894	2.41547	67.5106	-2.25435e-06	-1.65737e-06	-4.81076e-12	-1.65737e-06	0.184338	20502.8	0.0595125	20502.8
4646	5.62418	2.26695	6.06386	-21.953	5.40559	0.184338	-0.00986509	15.1112	2.11195	1	10	0.00504651	0.000832227	0	-6.51244e-06	-1.8553e-05	6.12763e-06	91.0885	0.00736294	-0.000139876	-0.00736161	-21.889	6.06099	5.62404	2.25959	0.152954	0.0616515	0.164911	21.953	2111.95	5239.63	5649.26	-68.047	0.0000000E+000	0.0000000E+000	0.0000000E+000	68.047	0.0000000E+000	0.0000000E+000	0.0000000E+000	-68.047	0.0000000E+000	0.0000000E+000	0.0000000E+000	-21.953	0.0000000E+000	0.0000000E+000	0.0000000E+000	21.953	2.48094	68.047	-2.27173e-06	-1.81851e-06	1.83027e-10	-1.8187e-06	0.184357	18685.9	1.88067	18687.8
3163.08	6.07708	2.44963	6.55222	-21.954	5.77861	0.184287	-0.0115279	20.5404	2.871	1	10	0.00516051	0.000787597	0	-7.97272e-06	-9.49052e-05	7.2732e-06	-67.5887	0.00923468	0.00352074	0.00853719	-22.0117	6.55868	6.0806	2.45817	0.141553	0.0570589	0.15262	21.954	2871	7122.43	7679.3	-68.046	0.0000000E+000	0.0000000E+000	0.0000000E+000	68.046	0.0000000E+000	0.0000000E+000	0.0000000E+000	-68.046	0.0000000E+000	0.0000000E+000	0.0000000E+000	-21.954	0.0000000E+000	0.0000000E+000	0.0000000E+000	21.954	2.48081	68.046	-1.46028e-06	-2.12445e-06	1.09406e-09	-2.12554e-06	0.184382	15986.2	8.23264	15994.4
2155.69	6.52985	2.75004	7.08532	-22.8383	6.23081	0.184293	-0.00566525	26.8469	4.0444	1	10	0.00513324	0.00072449	0	-9.01963e-06	0.000115063	9.34645e-06	-40.3598	0.0129007	0.00983028	0.00835432	-22.8697	7.09762	6.53968	2.7584	0.130072	0.0547798	0.141137	22.8383	4044.4	9603.26	10420.2	-67.1617	0.0000000E+000	0.0000000E+000	0.0000000E+000	67.1617	0.0000000E+000	0.0000000E+000	0.0000000E+000	-67.1617	0.0000000E+000	0.0000000E+000	0.0000000E+000	-22.8383	0.0000000E+000	0.0000000E+000	0.0000000E+000	22.8383	2.37446	67.1617	-1.04691e-06	-1.04407e-06	-6.51864e-10	-1.04342e-06	0.184178	32530.4	20.3104	32510.1
1468.59	7.00324	3.18618	7.69396	-24.4635	6.68104	0.18429	-0.00531186	34.0134	5.83296	1	10	0.00507509	0.00065962	0	-1.00745e-05	5.3507e-07	4.54569e-06	-53.0426	0.00689138	0.00414325	0.00550678	-24.4881	7.70002	7.00738	3.19168	0.118304	0.0538232	0.129972	24.4635	5832.96	12820.9	14085.4	-65.5365	0.0000000E+000	0.0000000E+000	0.0000000E+000	65.5365	0.0000000E+000	0.0000000E+000	0.0000000E+000	-65.5365	0.0000000E+000	0.0000000E+000	0.0000000E+000	-24.4635	0.0000000E+000	0.0000000E+000	0.0000000E+000	24.4635	2.19801	65.5365	-1.05486e-06	-9.78924e-07	-2.84222e-12	-9.78921e-07	0.18429	34694.1	0.100731	34694
1000.32	7.5601	3.82756	8.47381	-26.8523	7.13184	0.18429	-0.00559086	41.568	8.48097	1	10	0.00502473	0.000592972	0	-1.05141e-05	0.000401384	4.46461e-06	51.6098	0.00752921	0.00467575	-0.00590139	-26.8025	8.47532	7.56478	3.82166	0.105286	0.0533046	0.118011	26.8523	8480.98	16751.4	18776	-63.1477	0.0000000E+000	0.0000000E+000	0.0000000E+000	63.1477	0.0000000E+000	0.0000000E+000	0.0000000E+000	-63.1477	0.0000000E+000	0.0000000E+000	0.0000000E+000	-26.8523	0.0000000E+000	0.0000000E+000	0.0000000E+000	26.8523	1.97518	63.1477	-4.39632e-07	-1.03034e-06	-2.24408e-09	-1.0281e-06	0.183889	32962.8	71.793	32891
681.09	8.23726	4.74273	9.50505	-29.9318	7.58158	0.184284	-0.00604098	49.2706	12.2669	1	10	0.00497148	0.000523036	0	-1.16693e-05	-0.000323962	5.63141e-06	-129.473	0.0107668	-0.00684453	0.00831118	-29.9958	9.50327	8.23042	4.75104	0.0911747	0.0524952	0.105207	29.9318	12266.9	21305.4	24584.5	-60.0682	0.0000000E+000	0.0000000E+000	0.0000000E+000	60.0682	0.0000000E+000	0.0000000E+000	0.0000000E+000	-60.0682	0.0000000E+000	0.0000000E+000	0.0000000E+000	-29.9318	0.0000000E+000	0.0000000E+000	0.0000000E+000	29.9318	1.73682	60.0682	-1.15521e-06	-1.11325e-06	1.95705e-09	-1.11521e-06	0.184608	30505.6	53.6274	30559.3
463.961	9.14681	5.95099	10.9123	-33.0483	8.03329	0.184288	-0.00587358	57.6434	17.1433	1	10	0.00492566	0.000451386	0	-1.23113e-05	-5.67291e-05	6.63253e-05	-11.2514	0.146937	0.144113	0.0286694	-32.7654	11.0489	9.29092	5.97966	0.0768134	0.0499754	0.0916397	33.0483	17143.3	26349.7	31435.7	-56.9517	0.0000000E+000	0.0000000E+000	0.0000000E+000	56.9517	0.0000000E+000	0.0000000E+000	0.0000000E+000	-56.9517	0.0000000E+000	0.0000000E+000	0.0000000E+000	-33.0483	0.0000000E+000	0.0000000E+000	0.0000000E+000	33.0483	1.53702	56.9517	-6.41923e-07	-1.08243e-06	3.33203e-10	-1.08277e-06	0.184345	31375.8	9.65836	31385.5
316.316	10.4447	7.57023	12.8996	-35.9343	8.48101	0.184286	-0.00611538	66.4645	22.8905	1	10	0.00490905	0.000380558	0	-1.29553e-05	0.000229592	1.07513e-05	-52.7807	0.0282514	0.0170883	0.0224973	-35.9706	12.9267	10.4618	7.59273	0.0627686	0.0454942	0.0775217	35.9343	22890.5	31582.1	39005.2	-54.0657	0.0000000E+000	0.0000000E+000	0.0000000E+000	54.0657	0.0000000E+000	0.0000000E+000	0.0000000E+000	-54.0657	0.0000000E+000	0.0000000E+000	0.0000000E+000	-35.9343	0.0000000E+000	0.0000000E+000	0.0000000E+000	35.9343	1.37971	54.0657	-6.44022e-07	-1.12698e-06	-1.40404e-09	-1.12557e-06	0.184056	30134.8	37.5433	30097.2
215.345	12.4241	9.44699	15.6078	-37.2486	8.93055	0.184287	-0.00552391	78.2335	28.6614	1	10	0.00489538	0.00031365	0	-1.33467e-05	0.000305944	1.38809e-05	52.0621	0.0442562	0.027209	-0.0349039	-37.0861	15.6084	12.4513	9.41208	0.0510013	0.0387803	0.0640706	37.2486	28661.4	37693.6	47352.7	-52.7514	0.0000000E+000	0.0000000E+000	0.0000000E+000	52.7514	0.0000000E+000	0.0000000E+000	0.0000000E+000	-52.7514	0.0000000E+000	0.0000000E+000	0.0000000E+000	-37.2486	0.0000000E+000	0.0000000E+000	0.0000000E+000	37.2486	1.31513	52.7514	-3.91435e-07	-1.01799e-06	-1.69001e-09	-1.0163e-06	0.183982	33361.8	55.3854	33306.4
146.737	15.1896	11.4784	19.0388	-37.0776	9.37653	0.184268	-0.00595542	94.4924	34.3464	1	10	0.00488794	0.000256735	0	-1.37527e-05	0.000325032	5.00001e-06	-42.013	0.0194753	0.01447	0.0130348	-37.0826	19.0582	15.204	11.4915	0.0419049	0.0316667	0.0525243	37.0776	34346.4	45451.1	56969.1	-52.9224	0.0000000E+000	0.0000000E+000	0.0000000E+000	52.9224	0.0000000E+000	0.0000000E+000	0.0000000E+000	-52.9224	0.0000000E+000	0.0000000E+000	0.0000000E+000	-37.0776	0.0000000E+000	0.0000000E+000	0.0000000E+000	37.0776	1.32331	52.9224	-4.05968e-07	-1.0974e-06	-1.9357e-09	-1.09546e-06	0.183943	30941.3	54.5775	30886.7
100.032	18.9725	13.1381	23.0774	-34.7018	10.0718	0.184317	-0.0039762	121.101	39.25	1	11	0.00489172	0.00021197	0	-1.45524e-05	0.000210504	9.06915e-06	-102.034	0.042785	-0.00892003	0.0418449	-34.7998	23.0939	18.9636	13.1799	0.0356247	0.0246694	0.0433324	34.7018	39250	56680.4	68943.7	-55.2982	0.0000000E+000	0.0000000E+000	0.0000000E+000	55.2982	0.0000000E+000	0.0000000E+000	0.0000000E+000	-55.2982	0.0000000E+000	0.0000000E+000	0.0000000E+000	-34.7018	0.0000000E+000	0.0000000E+000	0.0000000E+000	34.7018	1.44408	55.2982	-7.99717e-07	-7.32883e-07	-8.37005e-10	-7.32046e-07	0.184107	46355.1	52.9409	46302.2
68.104	23.5443	13.8685	27.3253	-30.4998	10.5344	0.184319	-0.00375025	168.507	43.4059	1	11	0.004881	0.000178626	0	-1.4897e-05	-5.67291e-05	7.0642e-06	-15.3537	0.0395475	0.038136	0.0104712	-30.4781	27.3635	23.5825	13.879	0.0315324	0.0185738	0.0365961	30.4998	43405.9	73689.3	85523	-59.5002	0.0000000E+000	0.0000000E+000	0.0000000E+000	59.5002	0.0000000E+000	0.0000000E+000	0.0000000E+000	-59.5002	0.0000000E+000	0.0000000E+000	0.0000000E+000	-30.4998	0.0000000E+000	0.0000000E+000	0.0000000E+000	30.4998	1.69768	59.5002	-3.44576e-07	-6.91242e-07	2.12749e-10	-6.91455e-07	0.184375	49148.3	15.1267	49163.4
46.4415	28.1795	13.3675	31.1893	-25.3783	10.9707	0.184309	-0.00436445	256.367	47.0926	1	11	0.00487544	0.000156318	0	-1.5486e-05	3.87112e-05	9.49703e-06	-86.8233	0.0607546	0.0033668	0.0606613	-25.4763	31.2184	28.1828	13.4282	0.0289682	0.0137417	0.0320623	25.3783	47092.6	99273.8	109877	-64.6217	0.0000000E+000	0.0000000E+000	0.0000000E+000	64.6217	0.0000000E+000	0.0000000E+000	0.0000000E+000	-64.6217	0.0000000E+000	0.0000000E+000	0.0000000E+000	-25.3783	0.0000000E+000	0.0000000E+000	0.0000000E+000	25.3783	2.10805	64.6217	-5.89034e-07	-8.04405e-07	-1.68953e-10	-8.04236e-07	0.18427	42229.6	8.86967	42220.7
31.6296	32.2016	11.751	34.2787	-20.048	11.4005	0.18431	-0.0045219	428.206	50.3214	1	11	0.00487045	0.000142084	0	-1.57303e-05	0.000172328	8.71885e-06	-50.5062	0.0613641	0.0390273	0.0473543	-20.0999	34.3316	32.2406	11.7984	0.0274049	0.0100006	0.0291726	20.048	50321.4	137897	146792	-69.952	0.0000000E+000	0.0000000E+000	0.0000000E+000	69.952	0.0000000E+000	0.0000000E+000	0.0000000E+000	-69.952	0.0000000E+000	0.0000000E+000	0.0000000E+000	-20.048	0.0000000E+000	0.0000000E+000	0.0000000E+000	20.048	2.74033	69.952	-2.44238e-07	-8.33432e-07	-7.79248e-10	-8.32653e-07	0.184138	40759.4	38.1095	40721.3
21.5517	35.1639	9.7031	36.4781	-15.4263	11.8214	0.184309	-0.00458779	761.076	53.8498	1	11	0.00486901	0.000133478	0	-1.61433e-05	3.87112e-05	6.5766e-06	67.864	0.0492712	0.0185657	-0.0456395	-15.3494	36.4839	35.1825	9.65746	0.0264261	0.00729199	0.0274137	15.4263	53849.8	195151	202445	-74.5737	0.0000000E+000	0.0000000E+000	0.0000000E+000	74.5737	0.0000000E+000	0.0000000E+000	0.0000000E+000	-74.5737	0.0000000E+000	0.0000000E+000	0.0000000E+000	-15.4263	0.0000000E+000	0.0000000E+000	0.0000000E+000	15.4263	3.62399	74.5737	-4.13036e-07	-8.45571e-07	-1.77599e-10	-8.45393e-07	0.18427	40173.8	8.43787	40165.4
14.6852	37.1556	7.63551	37.932	-11.6127	12.2812	0.184314	-0.00393228	1419.4	57.5131	1	11	0.00486698	0.000128308	0	-1.60327e-05	-0.000113993	6.42059e-06	-15.017	0.0500405	0.0483316	0.0129658	-11.6171	37.982	37.2039	7.64848	0.0258233	0.00530671	0.0263629	11.6127	57513.1	279868	285716	-78.3873	0.0000000E+000	0.0000000E+000	0.0000000E+000	78.3873	0.0000000E+000	0.0000000E+000	0.0000000E+000	-78.3873	0.0000000E+000	0.0000000E+000	0.0000000E+000	-11.6127	0.0000000E+000	0.0000000E+000	0.0000000E+000	11.6127	4.86616	78.3873	1.10585e-07	-7.24776e-07	4.48253e-10	-7.25224e-07	0.184428	46872.2	28.9891	46901.1
10.0032	38.45	5.8885	38.8983	-8.70703	12.7318	0.184302	-0.00394345	2701.94	61.9192	1	11	0.00486671	0.000125114	0	-1.73935e-05	0.00024868	6.45571e-06	-15.3319	0.0515987	0.0497624	0.0136432	-8.71578	38.9495	38.4998	5.90214	0.0254118	0.00389174	0.0257081	8.70703	61919.1	404312	409026	-81.293	0.0000000E+000	0.0000000E+000	0.0000000E+000	81.293	0.0000000E+000	0.0000000E+000	0.0000000E+000	-81.293	0.0000000E+000	0.0000000E+000	0.0000000E+000	-8.70703	0.0000000E+000	0.0000000E+000	0.0000000E+000	8.70703	6.52967	81.293	-1.36075e-06	-7.26785e-07	-9.80656e-10	-7.25805e-07	0.184053	46736.3	63.0615	46673.2
6.81719	39.2264	4.54689	39.4891	-6.61188	13.0715	0.184321	-0.00377222	5134.52	68.0731	1	11	0.00486192	0.000123121	0	-1.65768e-05	0.000115063	8.83291e-06	-77.7802	0.0717419	0.0151851	0.0701164	-6.71034	39.5123	39.2416	4.61701	0.025155	0.00291582	0.0253235	6.61188	68073.1	587272	591205	-83.3881	0.0000000E+000	0.0000000E+000	0.0000000E+000	83.3881	0.0000000E+000	0.0000000E+000	0.0000000E+000	-83.3881	0.0000000E+000	0.0000000E+000	0.0000000E+000	-6.61188	0.0000000E+000	0.0000000E+000	0.0000000E+000	6.61188	8.62708	83.3881	8.16644e-07	-6.95298e-07	-4.34044e-10	-6.94864e-07	0.184206	48862.7	30.5028	48832.2
4.63925	39.8158	3.70526	39.9879	-5.31663	13.5554	0.184306	-0.00337132	9258.78	79.494	1	11	0.00486449	0.000121649	0	-1.75018e-05	0.00024868	4.08529e-06	89.585	0.0335825	0.000243212	-0.0335816	-5.26868	39.985	39.8161	3.67168	0.0249	0.00231719	0.0250076	5.31663	79494	854224	857915	-84.6834	0.0000000E+000	0.0000000E+000	0.0000000E+000	84.6834	0.0000000E+000	0.0000000E+000	0.0000000E+000	-84.6834	0.0000000E+000	0.0000000E+000	0.0000000E+000	-5.31663	0.0000000E+000	0.0000000E+000	0.0000000E+000	5.31663	10.7458	84.6834	-9.25009e-07	-6.21354e-07	-8.38379e-10	-6.20516e-07	0.184057	54668.8	73.7633	54595
3.1604	40.2119	3.00714	40.3242	-4.27675	14.2484	0.184309	-0.00313272	16746.5	93.1325	1	11	0.00485949	0.000120511	0	-1.9733e-05	0.000382296	6.83858e-06	-55.7149	0.0567467	0.0319661	0.0468866	-4.33974	40.3596	40.2439	3.05402	0.02473	0.00184936	0.024799	4.27675	93132.4	1.24538e+06	1.24886e+06	-85.7233	0.0000000E+000	0.0000000E+000	0.0000000E+000	85.7233	0.0000000E+000	0.0000000E+000	0.0000000E+000	-85.7233	0.0000000E+000	0.0000000E+000	0.0000000E+000	-4.27675	0.0000000E+000	0.0000000E+000	0.0000000E+000	4.27675	13.3721	85.7233	-2.23118e-06	-5.77388e-07	-1.19763e-09	-5.7619e-07	0.183927	58833.7	122.033	58711.6
2.15577	40.7322	2.69504	40.8212	-3.78545	15.252	0.184316	-0.00276262	27393.9	119.402	1	11	0.00486976	0.000119295	0	-2.09258e-05	-0.000152169	5.24939e-06	62.8901	0.0440035	0.0200523	-0.039169	-3.72876	40.8387	40.7522	2.65587	0.0244436	0.00161731	0.0244971	3.78545	119402	1.80461e+06	1.80856e+06	-86.2145	0.0000000E+000	0.0000000E+000	0.0000000E+000	86.2145	0.0000000E+000	0.0000000E+000	0.0000000E+000	-86.2145	0.0000000E+000	0.0000000E+000	0.0000000E+000	-3.78545	0.0000000E+000	0.0000000E+000	0.0000000E+000	3.78545	15.1138	86.2145	-1.19283e-06	-5.09196e-07	4.20386e-10	-5.09616e-07	0.184468	66717.9	55.0816	66773
1.46631	41.0684	2.5859	41.1497	-3.6029	17.4403	0.184329	-0.00228834	41974.3	165.757	1	12	0.00487127	0.000118379	0	-1.99814e-05	-3.7641e-05	2.7363e-06	61.256	0.0231147	0.0111158	-0.0202664	-3.57378	41.1596	41.0795	2.56563	0.0242535	0.00152713	0.0243015	3.6029	165757	2.6325e+06	2.63771e+06	-86.3971	0.0000000E+000	0.0000000E+000	0.0000000E+000	86.3971	0.0000000E+000	0.0000000E+000	0.0000000E+000	-86.3971	0.0000000E+000	0.0000000E+000	0.0000000E+000	-3.6029	0.0000000E+000	0.0000000E+000	0.0000000E+000	3.6029	15.8817	86.3971	9.44474e-07	-4.21808e-07	8.61354e-11	-4.21894e-07	0.184367	80551.6	16.4491	80568.1
1.00006	41.511	2.52932	41.588	-3.4868	19.5678	0.184326	-0.00220212	62919.9	232.735	1	12	0.00487162	0.00011714	0	-1.7934e-05	0.000325032	4.82515e-06	9.8315	0.0411912	0.0405863	-0.00703345	-3.47374	41.628	41.5516	2.52229	0.0240009	0.00146241	0.0240454	3.4868	232735	3.81962e+06	3.8267e+06	-86.5132	0.0000000E+000	0.0000000E+000	0.0000000E+000	86.5132	0.0000000E+000	0.0000000E+000	0.0000000E+000	-86.5132	0.0000000E+000	0.0000000E+000	0.0000000E+000	-3.4868	0.0000000E+000	0.0000000E+000	0.0000000E+000	3.4868	16.4119	86.5132	2.04736e-06	-4.05908e-07	-7.1576e-10	-4.05192e-07	0.184001	83703.8	147.599	83556.2
0.681362	41.9876	2.62831	42.0698	-3.58188	22.6798	0.184316	-0.00193376	88872.2	346.878	1	12	0.00487176	0.000115802	0	-1.78314e-05	0.00015324	5.09557e-06	-10.2146	0.0440025	0.043305	0.00780322	-3.58879	42.1135	42.0309	2.63611	0.0237236	0.00148503	0.02377	3.58188	346878	5.54143e+06	5.55228e+06	-86.4181	0.0000000E+000	0.0000000E+000	0.0000000E+000	86.4181	0.0000000E+000	0.0000000E+000	0.0000000E+000	-86.4181	0.0000000E+000	0.0000000E+000	0.0000000E+000	-3.58188	0.0000000E+000	0.0000000E+000	0.0000000E+000	3.58188	15.9752	86.4181	1.02612e-07	-3.56424e-07	-2.96329e-10	-3.56128e-07	0.184163	95314.9	79.2442	95235.6
0.464091	42.4506	2.8827	42.5483	-3.88483	27.2362	0.184322	-0.00141188	118965	546.074	1	12	0.00486949	0.000114446	0	-2.27285e-05	-3.7641e-05	2.66449e-06	10.7114	0.0232816	0.0228759	-0.00432716	-3.87694	42.5709	42.4735	2.87837	0.0234487	0.00159233	0.0235027	3.88483	546074	8.04147e+06	8.05999e+06	-86.1152	0.0000000E+000	0.0000000E+000	0.0000000E+000	86.1152	0.0000000E+000	0.0000000E+000	0.0000000E+000	-86.1152	0.0000000E+000	0.0000000E+000	0.0000000E+000	-3.88483	0.0000000E+000	0.0000000E+000	0.0000000E+000	3.88483	14.726	86.1152	-4.89714e-06	-2.6024e-07	5.31445e-11	-2.60293e-07	0.184359	130551	26.6603	130578
0.316193	42.9554	3.19712	43.0743	-4.2566	33.9108	0.18432	-0.000970808	157438	867.343	1	12	0.00487102	0.000113084	0	-3.42309e-05	-7.58172e-05	2.13283e-06	-6.15417	0.0188605	0.0187518	0.00202192	-4.25743	43.0931	42.9742	3.19914	0.0231517	0.00172315	0.0232157	4.2566	867344	1.16533e+07	1.16856e+07	-85.7434	0.0000000E+000	0.0000000E+000	0.0000000E+000	85.7434	0.0000000E+000	0.0000000E+000	0.0000000E+000	-85.7434	0.0000000E+000	0.0000000E+000	0.0000000E+000	-4.2566	0.0000000E+000	0.0000000E+000	0.0000000E+000	4.2566	13.4357	85.7434	-1.15023e-05	-1.7894e-07	7.36039e-11	-1.79013e-07	0.184396	189863	78.097	189941
0.215268	43.5097	3.66547	43.6639	-4.8155	43.7033	0.184334	-0.000897177	201702	1421.43	1	12	0.00487558	0.000111662	0	-5.08444e-05	0.000267768	3.08334e-06	7.04399	0.0276132	0.0274048	-0.00338624	-4.80806	43.6909	43.5371	3.66209	0.0228214	0.00192258	0.0229022	4.8155	1.42143e+06	1.68726e+07	1.69324e+07	-85.1845	0.0000000E+000	0.0000000E+000	0.0000000E+000	85.1845	0.0000000E+000	0.0000000E+000	0.0000000E+000	-85.1845	0.0000000E+000	0.0000000E+000	0.0000000E+000	-4.8155	0.0000000E+000	0.0000000E+000	0.0000000E+000	4.8155	11.8702	85.1845	-1.66136e-05	-1.6538e-07	-2.40235e-10	-1.6514e-07	0.184066	205459	298.456	205161
0.146929	44.1836	4.37635	44.3998	-5.65665	58.0416	0.184332	-0.00139437	247515	2404.71	1	12	0.00487069	0.000109701	0	-6.8162e-05	-0.000113993	9.59721e-07	-52.9891	0.00874854	0.00526633	0.00698589	-5.66495	44.4057	44.1889	4.38334	0.022413	0.00221999	0.0225226	5.65665	2.40471e+06	2.4278e+07	2.43968e+07	-84.3433	0.0000000E+000	0.0000000E+000	0.0000000E+000	84.3433	0.0000000E+000	0.0000000E+000	0.0000000E+000	-84.3433	0.0000000E+000	0.0000000E+000	0.0000000E+000	-5.65665	0.0000000E+000	0.0000000E+000	0.0000000E+000	5.65665	10.096	84.3433	-1.73175e-05	-2.57028e-07	1.58949e-10	-2.57187e-07	0.184446	132197	81.7524	132279
0.0999041	44.901	5.5236	45.2395	-7.01314	79.1187	0.184329	-0.00178083	288413	4299.56	1	12	0.00487179	0.000107689	0	-7.62218e-05	0.00024868	3.20839e-06	8.45588	0.0297931	0.0294693	-0.00438102	-7.00308	45.2682	44.9305	5.51922	0.0219392	0.0026989	0.0221046	7.01314	4.29956e+06	3.49509e+07	3.52143e+07	-82.9869	0.0000000E+000	0.0000000E+000	0.0000000E+000	82.9869	0.0000000E+000	0.0000000E+000	0.0000000E+000	-82.9869	0.0000000E+000	0.0000000E+000	0.0000000E+000	-7.01314	0.0000000E+000	0.0000000E+000	0.0000000E+000	7.01314	8.12894	82.9869	-8.05982e-06	-3.28259e-07	-4.42858e-10	-3.27816e-07	0.18408	103507	139.642	103367
0.0680626	45.6342	7.08521	46.181	-8.82532	110.045	0.184329	-0.00168552	330034	7768.51	1	12	0.00487858	0.000105641	0	-6.56756e-05	-7.58172e-05	2.09953e-06	-2.13556	0.0198743	0.0198605	0.000740595	-8.82245	46.2007	45.6541	7.08595	0.0213976	0.0033222	0.0216539	8.82532	7.76851e+06	5.00352e+07	5.06347e+07	-81.1747	0.0000000E+000	0.0000000E+000	0.0000000E+000	81.1747	0.0000000E+000	0.0000000E+000	0.0000000E+000	-81.1747	0.0000000E+000	0.0000000E+000	0.0000000E+000	-8.82532	0.0000000E+000	0.0000000E+000	0.0000000E+000	8.82532	6.44078	81.1747	1.05461e-05	-3.1069e-07	1.27791e-10	-3.10817e-07	0.184404	109360	44.9815	109405
0.0464052	46.5159	8.96617	47.3721	-10.9102	155.397	0.184325	-0.00101188	382514	13703	1	12	0.00487004	0.000102804	0	-1.8608e-05	0.000229592	2.31505e-06	18.8211	0.0225192	0.0213151	-0.00726498	-10.8967	47.3917	46.5372	8.9589	0.0207279	0.0039954	0.0211095	10.9102	1.3703e+07	7.109e+07	7.23987e+07	-79.0898	0.0000000E+000	0.0000000E+000	0.0000000E+000	79.0898	0.0000000E+000	0.0000000E+000	0.0000000E+000	-79.0898	0.0000000E+000	0.0000000E+000	0.0000000E+000	-10.9102	0.0000000E+000	0.0000000E+000	0.0000000E+000	10.9102	5.18794	79.0898	4.70676e-05	-1.86514e-07	-2.32319e-10	-1.86282e-07	0.184095	182161	226.897	181934
0.0315922	47.9928	11.5649	49.3665	-13.5483	222.002	0.184324	-0.000185517	435611	23906.5	1	12	0.00487098	9.86697e-05	0	5.46379e-05	7.68873e-05	2.5577e-06	10.7847	0.0259219	0.025464	-0.00485049	-13.5359	49.3902	48.0183	11.56	0.0196929	0.00474543	0.0202566	13.5483	2.39065e+07	9.9209e+07	1.02049e+08	-76.4517	0.0000000E+000	0.0000000E+000	0.0000000E+000	76.4517	0.0000000E+000	0.0000000E+000	0.0000000E+000	-76.4517	0.0000000E+000	0.0000000E+000	0.0000000E+000	-13.5483	0.0000000E+000	0.0000000E+000	0.0000000E+000	13.5483	4.14987	76.4517	7.32459e-05	-3.41951e-08	-1.42639e-11	-3.41809e-08	0.184247	993568	414.449	993154
0.0215268	50.0162	15.471	52.3543	-17.1879	319.741	0.184319	0.00026049	477883	41730.7	1	12	0.00486902	9.30014e-05	0	0.000107042	0.000115063	2.48615e-06	2.40945	0.0267323	0.0267087	-0.00112384	-17.1781	52.3795	50.0429	15.4699	0.0182476	0.00564436	0.0191006	17.1879	4.17307e+07	1.34911e+08	1.41218e+08	-72.8121	0.0000000E+000	0.0000000E+000	0.0000000E+000	72.8121	0.0000000E+000	0.0000000E+000	0.0000000E+000	-72.8121	0.0000000E+000	0.0000000E+000	0.0000000E+000	-17.1879	0.0000000E+000	0.0000000E+000	0.0000000E+000	17.1879	3.23289	72.8121	5.24045e-05	4.80132e-08	2.99729e-11	4.79832e-08	0.184204	707583	441.718	707141
0.0146812	52.2244	20.6542	56.1603	-21.5783	463.043	0.184323	0.000362227	524870	70991.9	1	12	0.00487256	8.67617e-05	0	6.41103e-05	7.68873e-05	3.1172e-06	-29.6889	0.0359284	0.0312119	0.017795	-21.5834	56.1959	52.2556	20.672	0.0165582	0.00654861	0.0178062	21.5783	7.09918e+07	1.79504e+08	1.93032e+08	-68.4217	0.0000000E+000	0.0000000E+000	0.0000000E+000	68.4217	0.0000000E+000	0.0000000E+000	0.0000000E+000	-68.4217	0.0000000E+000	0.0000000E+000	0.0000000E+000	-21.5783	0.0000000E+000	0.0000000E+000	0.0000000E+000	21.5783	2.52851	68.4217	-4.29321e-05	6.67668e-08	2.78507e-11	6.67389e-08	0.184246	508859	212.262	508647
0.0100092	55.0783	26.7708	61.2397	-25.922	673.226	0.184328	0.000188184	593966	113506	1	12	0.00487263	7.95665e-05	0	-0.000128724	0.000115063	2.62305e-06	-46.6937	0.0329667	0.0226118	0.0239898	-25.9329	61.2705	55.1009	26.7948	0.0146864	0.00713831	0.0163293	25.922	1.13506e+08	2.33527e+08	2.59651e+08	-64.078	0.0000000E+000	0.0000000E+000	0.0000000E+000	64.078	0.0000000E+000	0.0000000E+000	0.0000000E+000	-64.078	0.0000000E+000	0.0000000E+000	0.0000000E+000	-25.922	0.0000000E+000	0.0000000E+000	0.0000000E+000	25.922	2.05741	64.078	-0.000192834	3.46876e-08	2.16531e-11	3.46659e-08	0.184213	979508	611.44	978896