File: txt/19154_R306_UA712_SOC00_C02.mpt
EC-Lab ASCII FILE
Nb header lines : 65

Potentio Electrochemical Impedance Spectroscopy

Run on channel : 2 (SN 66139)
Grouped channel(s) : 1, 2, 3, 4
User :
CE vs. WE compliance from -10 V to 10 V
Electrode connection : standard
Potential control : Ewe
Ewe ctrl range : min = -10.00 V, max = 10.00 V
Safety Limits :
	Do not start on E overload
Acquisition started on : 11/12/2025 13:00:33.882
Loaded Setting File :  C:\Users\Celltest\OneDrive - store-dot.com\Documents\EC-Lab\Data\@Biologic Test Protocols\anode half cell EIS SOC00.mps
Saved on :
	File : 19153_R306_UA712_SOC00_C02.mpr
	Directory : C:\Users\Celltest\OneDrive - store-dot.com\Documents\EC-Lab\Data\Charmaine\
	Host : 169.254.61.224
Device : VMP-3e (SN .003165)
Address : USB
EC-LAB for windows v11.62 (software)
Internet server v27.00 (firmware)
Command interpretor v12.03 (firmware)
Electrode material :
Initial state :
Electrolyte :
Comments :
Electrode surface area : 0.001 cm²
Characteristic mass : 0.001 g
Equivalent Weight : 0.000 g/eq.
Density : 0.000 g/cm3
Volume (V) : 0.001 cm³
Record Ece
Cycle Definition : Charge/Discharge alternance
Mode                Single sine
E (V)               0.0000
vs.                 Eoc
tE (h:m:s)          0:00:0.0000
record              0
dI                  0.000
unit dI             mA
dt (s)              0.000
fi                  100.000
unit fi             kHz
ff                  10.000
unit ff             mHz
Nd                  6
Points              per decade
spacing             Logarithmic
Va (mV)             5.0
pw                  0.10
Na                  2
corr                0
E range min (V)     -10.000
E range max (V)     10.000
I Range             Auto
Bandwidth           5
nc cycles           0
goto Ns'            0
nr cycles           0
inc. cycle          0

freq/Hz	Re(Z)/Ohm	-Im(Z)/Ohm	|Z|/Ohm	Phase(Z)/deg	time/s	<Ewe>/V	<I>/mA	Cs/µF	Cp/µF	cycle number	I Range	|Ewe|/V	|I|/A	Ns	(Q-Qo)/mA.h	<Ece>/V	|Ece|/V	Phase(Zce)/deg	|Zce|/Ohm	Re(Zce)/Ohm	-Im(Zce)/Ohm	Phase(Zwe-ce)/deg	|Zwe-ce|/Ohm	Re(Zwe-ce)/Ohm	-Im(Zwe-ce)/Ohm	Re(Y)/Ohm-1	Im(Y)/Ohm-1	|Y|/Ohm-1	Phase(Y)/deg	Re(C)/nF	Im(C)/nF	|C|/nF	Phase(C)/deg	Re(M)	Im(M)	|M|	Phase(M)/deg	Re(Permittivity)	Im(Permittivity)	|Permittivity|	Phase(Permittivity)/deg	Re(Resistivity)/Ohm.cm	Im(Resistivity)/Ohm.cm	|Resistivity|/Ohm.cm	Phase(Resistivity)/deg	Re(Conductivity)/mS/cm	Im(Conductivity)/mS/cm	|Conductivity|/mS/cm	Phase(Conductivity)/deg	Tan(Delta)	Loss Angle(Delta)/deg	dq/mA.h	Pwe/W	Pce/W	Pwe-ce/W	<Ewe-Ece>/V	Rwe/Ohm	Rce/Ohm	Rwe-ce/Ohm		Ewe-Ece/V
100004	2.61626	0.833611	2.74585	-17.6733	2.14355	0.285189	-0.0357538	1.90915	0.17596	1	9	0.00495033	0.00180284	0	-6.63536e-06	0.000326414	2.53806e-05	87.453	0.0140781	0.00062561	-0.0140642	-17.3893	2.74221	2.61688	0.819547	0.346997	0.110563	0.364186	17.6733	175.96	552.243	579.598	-72.3267	0.0000000E+000	0.0000000E+000	0.0000000E+000	72.3267	0.0000000E+000	0.0000000E+000	0.0000000E+000	-72.3267	0.0000000E+000	0.0000000E+000	0.0000000E+000	-17.6733	0.0000000E+000	0.0000000E+000	0.0000000E+000	17.6733	3.13846	72.3267	-6.63536e-06	-1.01966e-05	-1.16706e-08	-1.01849e-05	0.284863	7976.46	9.12949	7967.33
68132	2.85897	1.01328	3.03323	-19.5154	2.65054	0.285176	-0.036685	2.30536	0.25727	1	9	0.00508547	0.00167659	0	-1.31826e-05	-3.63119e-05	3.05718e-05	36.397	0.0182346	0.0146775	-0.01082	-19.2311	3.04348	2.87365	1.00246	0.310742	0.110134	0.329682	19.5154	257.27	725.887	770.129	-70.4846	0.0000000E+000	0.0000000E+000	0.0000000E+000	70.4846	0.0000000E+000	0.0000000E+000	0.0000000E+000	-70.4846	0.0000000E+000	0.0000000E+000	0.0000000E+000	-19.5154	0.0000000E+000	0.0000000E+000	0.0000000E+000	19.5154	2.8215	70.4846	-6.54728e-06	-1.04617e-05	1.3321e-09	-1.0463e-05	0.285213	7773.66	0.989831	7774.65
46420.4	3.11273	1.15446	3.31992	-20.349	3.15956	0.285196	-0.025325	2.96984	0.359118	1	9	0.0051151	0.00154073	0	-2.2279e-05	0.000269142	1.15579e-05	31.2908	0.00750157	0.0064104	-0.00389618	-20.2476	3.32458	3.11914	1.15056	0.282414	0.104743	0.301212	20.349	359.118	968.274	1032.72	-69.651	0.0000000E+000	0.0000000E+000	0.0000000E+000	69.651	0.0000000E+000	0.0000000E+000	0.0000000E+000	-69.651	0.0000000E+000	0.0000000E+000	0.0000000E+000	-20.349	0.0000000E+000	0.0000000E+000	0.0000000E+000	20.349	2.69626	69.651	-9.09633e-06	-7.22257e-06	-6.816e-09	-7.21575e-06	0.284927	11261.5	10.6275	11250.8
31621.1	3.42735	1.28991	3.66205	-20.6243	3.54254	0.285189	-0.0378768	3.90195	0.484122	1	9	0.00520809	0.00142218	0	-2.48344e-05	0.000421868	5.10121e-06	-111.054	0.0035869	-0.00128859	0.00334744	-20.6804	3.66202	3.42606	1.29326	0.25557	0.0961861	0.273071	20.6243	484.122	1286.33	1374.42	-69.3757	0.0000000E+000	0.0000000E+000	0.0000000E+000	69.3757	0.0000000E+000	0.0000000E+000	0.0000000E+000	-69.3757	0.0000000E+000	0.0000000E+000	0.0000000E+000	-20.6243	0.0000000E+000	0.0000000E+000	0.0000000E+000	20.6243	2.65704	69.3757	-2.55545e-06	-1.0802e-05	-1.5979e-08	-1.07861e-05	0.284767	7529.37	11.1379	7518.23
21544.7	3.78745	1.40834	4.04082	-20.3974	3.92552	0.285173	-0.0387335	5.24531	0.637161	1	9	0.00495088	0.00122522	0	-3.0874e-05	0.000345505	3.57511e-06	61.6141	0.00291794	0.00138721	-0.0025671	-20.3564	4.04123	3.78884	1.40578	0.231957	0.086252	0.247474	20.3974	637.161	1713.52	1828.14	-69.6026	0.0000000E+000	0.0000000E+000	0.0000000E+000	69.6026	0.0000000E+000	0.0000000E+000	0.0000000E+000	-69.6026	0.0000000E+000	0.0000000E+000	0.0000000E+000	-20.3974	0.0000000E+000	0.0000000E+000	0.0000000E+000	20.3974	2.6893	69.6026	-6.03957e-06	-1.10458e-05	-1.33826e-08	-1.10324e-05	0.284828	7362.45	8.92006	7353.53
14678.6	4.15678	1.48536	4.41419	-19.6635	4.58752	0.285249	-0.0266686	7.29969	0.826542	1	10	0.00495013	0.00112141	0	-3.64661e-05	-0.000112675	7.4961e-06	-79.5875	0.0066845	0.00120812	0.00657442	-19.7386	4.41754	4.15798	1.49193	0.213331	0.0762306	0.226542	19.6635	826.542	2313.08	2456.32	-70.3365	0.0000000E+000	0.0000000E+000	0.0000000E+000	70.3365	0.0000000E+000	0.0000000E+000	0.0000000E+000	-70.3365	0.0000000E+000	0.0000000E+000	0.0000000E+000	-19.6635	0.0000000E+000	0.0000000E+000	0.0000000E+000	19.6635	2.7985	70.3365	-5.59211e-06	-7.60718e-06	3.00489e-09	-7.61018e-06	0.285361	10696.1	4.22502	10700.3
10002.2	4.52492	1.58061	4.79304	-19.255	4.84653	0.285241	-0.0270448	10.067	1.09478	1	10	0.00546461	0.00114011	0	-3.78246e-05	9.7324e-05	1.70959e-05	3.44307	0.0149949	0.0149678	-0.000900542	-19.186	4.80688	4.53989	1.57971	0.196965	0.0688024	0.208636	19.255	1094.78	3134.1	3319.81	-70.745	0.0000000E+000	0.0000000E+000	0.0000000E+000	70.745	0.0000000E+000	0.0000000E+000	0.0000000E+000	-70.745	0.0000000E+000	0.0000000E+000	0.0000000E+000	-19.255	0.0000000E+000	0.0000000E+000	0.0000000E+000	19.255	2.86276	70.745	-1.35855e-06	-7.71429e-06	-2.63211e-09	-7.71166e-06	0.285143	10547	3.59862	10543.4
6810.42	4.88175	1.58652	5.13308	-18.0037	5.22952	0.285244	-0.025171	14.7299	1.40714	1	10	0.0050572	0.000985216	0	-3.91524e-05	-0.000246311	9.98352e-05	-79.9262	0.101333	0.0177249	0.099771	-18.9924	5.18155	4.89948	1.68629	0.185276	0.0602129	0.194815	18.0037	1407.13	4329.77	4552.69	-71.9963	0.0000000E+000	0.0000000E+000	0.0000000E+000	71.9963	0.0000000E+000	0.0000000E+000	0.0000000E+000	-71.9963	0.0000000E+000	0.0000000E+000	0.0000000E+000	-18.0037	0.0000000E+000	0.0000000E+000	0.0000000E+000	18.0037	3.07701	71.9963	-1.32771e-06	-7.17989e-06	6.19991e-09	-7.18609e-06	0.28549	11332.2	9.7855	11342
4646	5.27359	1.79602	5.57103	-18.8072	5.49562	0.285224	-0.0322043	19.0735	1.98235	1	10	0.00508364	0.000912514	0	-4.14439e-05	1.86979e-06	1.11738e-05	-78.2791	0.012245	0.0024875	0.0119897	-18.9156	5.57726	5.27608	1.80801	0.169916	0.0578681	0.1795	18.8072	1982.35	5820.7	6149.01	-71.1928	0.0000000E+000	0.0000000E+000	0.0000000E+000	71.1928	0.0000000E+000	0.0000000E+000	0.0000000E+000	-71.1928	0.0000000E+000	0.0000000E+000	0.0000000E+000	-18.8072	0.0000000E+000	0.0000000E+000	0.0000000E+000	18.8072	2.93627	71.1928	-2.29155e-06	-9.18542e-06	-6.02152e-11	-9.18536e-06	0.285222	8856.71	0.0580603	8856.65
3163.08	5.67886	1.97239	6.01164	-19.1532	5.86867	0.285182	-0.0235655	25.5104	2.7461	1	10	0.00504841	0.000839772	0	-4.30705e-05	0.000192778	4.08925e-06	61.1624	0.00486948	0.00234869	-0.00426562	-19.1075	6.01246	5.68121	1.96812	0.157136	0.0545767	0.166344	19.1532	2746.1	7906.52	8369.84	-70.8468	0.0000000E+000	0.0000000E+000	0.0000000E+000	70.8468	0.0000000E+000	0.0000000E+000	0.0000000E+000	-70.8468	0.0000000E+000	0.0000000E+000	0.0000000E+000	-19.1532	0.0000000E+000	0.0000000E+000	0.0000000E+000	19.1532	2.87918	70.8468	-1.62655e-06	-6.72046e-06	-4.54291e-09	-6.71592e-06	0.28499	12101.7	8.18053	12093.5
2155.69	6.12579	2.18703	6.50449	-19.6476	6.31985	0.285202	-0.012822	33.7582	3.81648	1	10	0.00501374	0.000770812	0	-4.48992e-05	0.000135506	3.50627e-06	-74.0838	0.0045488	0.00124742	0.00437441	-19.6802	6.50714	6.12704	2.19141	0.144789	0.0516926	0.15374	19.6476	3816.48	10689.8	11350.6	-70.3524	0.0000000E+000	0.0000000E+000	0.0000000E+000	70.3524	0.0000000E+000	0.0000000E+000	0.0000000E+000	-70.3524	0.0000000E+000	0.0000000E+000	0.0000000E+000	-19.6476	0.0000000E+000	0.0000000E+000	0.0000000E+000	19.6476	2.80096	70.3524	-1.82875e-06	-3.65685e-06	-1.73745e-09	-3.65511e-06	0.285067	22243.3	10.5683	22232.7
1468.59	6.59618	2.44461	7.03461	-20.3352	6.77111	0.285213	-0.0124569	44.3312	5.35365	1	10	0.00497891	0.000707774	0	-4.57686e-05	4.00515e-05	5.62228e-06	-144.565	0.00794361	-0.00647223	0.00460556	-20.3888	7.03014	6.5897	2.44922	0.133295	0.0494004	0.142154	20.3352	5353.65	14445.5	15405.6	-69.6648	0.0000000E+000	0.0000000E+000	0.0000000E+000	69.6648	0.0000000E+000	0.0000000E+000	0.0000000E+000	-69.6648	0.0000000E+000	0.0000000E+000	0.0000000E+000	-20.3352	0.0000000E+000	0.0000000E+000	0.0000000E+000	20.3352	2.69825	69.6648	-8.69403e-07	-3.55287e-06	-4.98917e-10	-3.55237e-06	0.285173	22896	3.21521	22892.8
1000.32	7.14337	2.77544	7.66361	-21.2328	7.22184	0.285214	-0.01217	57.3257	7.51877	1	10	0.00495904	0.00064709	0	-4.70797e-05	4.00515e-05	6.64146e-06	-40.7835	0.0102636	0.00777141	0.0067042	-21.2585	7.67328	7.15114	2.78215	0.121629	0.0472569	0.130487	21.2328	7518.77	19351.7	20761	-68.7672	0.0000000E+000	0.0000000E+000	0.0000000E+000	68.7672	0.0000000E+000	0.0000000E+000	0.0000000E+000	-68.7672	0.0000000E+000	0.0000000E+000	0.0000000E+000	-21.2328	0.0000000E+000	0.0000000E+000	0.0000000E+000	21.2328	2.57378	68.7672	-1.31113e-06	-3.47107e-06	-4.87428e-10	-3.47058e-06	0.285174	23435.7	3.29099	23432.5
681.09	7.74959	3.18886	8.38004	-22.3666	7.67254	0.285206	-0.0120918	73.279	10.6111	1	10	0.00494438	0.000590018	0	-4.80984e-05	-1.72211e-05	6.72585e-06	-37.3988	0.0113994	0.00905598	0.00692352	-22.3868	8.39105	7.75865	3.19579	0.110354	0.0454092	0.119331	22.3666	10611.1	25787.1	27884.9	-67.6334	0.0000000E+000	0.0000000E+000	0.0000000E+000	67.6334	0.0000000E+000	0.0000000E+000	0.0000000E+000	-67.6334	0.0000000E+000	0.0000000E+000	0.0000000E+000	-22.3666	0.0000000E+000	0.0000000E+000	0.0000000E+000	22.3666	2.4302	67.6334	-1.01866e-06	-3.44866e-06	2.08234e-10	-3.44887e-06	0.285223	23586.7	1.42419	23588.1
463.961	8.43647	3.70865	9.21564	-23.7302	8.12434	0.285213	-0.0109705	92.4961	14.9797	1	10	0.00494138	0.000536195	0	-4.96943e-05	0.000364596	8.36395e-06	56.029	0.0155987	0.00871613	-0.0129363	-23.6347	9.21843	8.44519	3.69571	0.0993366	0.0436681	0.108511	23.7302	14979.7	34076	37223.2	-66.2699	0.0000000E+000	0.0000000E+000	0.0000000E+000	66.2699	0.0000000E+000	0.0000000E+000	0.0000000E+000	-66.2699	0.0000000E+000	0.0000000E+000	0.0000000E+000	-23.7302	0.0000000E+000	0.0000000E+000	0.0000000E+000	23.7302	2.27481	66.2699	-1.59592e-06	-3.12894e-06	-3.99981e-09	-3.12494e-06	0.284849	25998.1	33.2341	25964.9
316.316	9.21081	4.3363	10.1805	-25.2103	8.57207	0.285208	-0.012185	116.033	21.0514	1	10	0.00492222	0.000483495	0	-5.07573e-05	0.000326414	6.37706e-06	-20.5113	0.0131895	0.0123534	0.00462151	-25.2042	10.1936	9.22317	4.34092	0.088871	0.041839	0.098227	25.2103	21051.3	44715.6	49423.1	-64.7897	0.0000000E+000	0.0000000E+000	0.0000000E+000	64.7897	0.0000000E+000	0.0000000E+000	0.0000000E+000	-64.7897	0.0000000E+000	0.0000000E+000	0.0000000E+000	-25.2103	0.0000000E+000	0.0000000E+000	0.0000000E+000	25.2103	2.12412	64.7897	-1.06293e-06	-3.47524e-06	-3.97734e-09	-3.47126e-06	0.284881	23406.5	26.7883	23379.7
215.345	10.1883	5.16299	11.4218	-26.8739	9.02153	0.285209	-0.0123153	143.148	29.2494	1	10	0.00491767	0.000430551	0	-5.19008e-05	0.000116415	6.5358e-06	-40.0575	0.0151801	0.0116188	0.00976923	-26.8913	11.4366	10.1999	5.17276	0.0780964	0.0395759	0.0875517	26.8739	29249.4	57718.8	64707	-63.1261	0.0000000E+000	0.0000000E+000	0.0000000E+000	63.1261	0.0000000E+000	0.0000000E+000	0.0000000E+000	-63.1261	0.0000000E+000	0.0000000E+000	0.0000000E+000	-26.8739	0.0000000E+000	0.0000000E+000	0.0000000E+000	26.8739	1.97333	63.1261	-1.14358e-06	-3.51244e-06	-1.43369e-09	-3.51101e-06	0.285092	23158.8	9.45284	23149.4
146.737	11.4422	6.12651	12.9792	-28.166	9.46749	0.285201	-0.0121365	177.038	39.4458	1	10	0.00491699	0.000378838	0	-5.29269e-05	5.91423e-05	9.82265e-06	-47.9389	0.0259284	0.01737	0.01925	-28.2046	13.0036	11.4596	6.14576	0.0679231	0.0363681	0.0770466	28.166	39445.8	73671	83566.7	-61.834	0.0000000E+000	0.0000000E+000	0.0000000E+000	61.834	0.0000000E+000	0.0000000E+000	0.0000000E+000	-61.834	0.0000000E+000	0.0000000E+000	0.0000000E+000	-28.166	0.0000000E+000	0.0000000E+000	0.0000000E+000	28.166	1.86765	61.834	-1.02608e-06	-3.46135e-06	-7.17783e-10	-3.46063e-06	0.285142	23499.4	4.87308	23494.5
100.032	13.1107	7.21724	14.9659	-28.8321	9.91786	0.285206	-0.0116634	220.45	51.2679	1	10	0.00492233	0.000328903	0	-5.46481e-05	-5.54027e-05	6.37264e-06	-90.851	0.0193755	-0.000287772	0.0193733	-28.8976	14.975	13.1104	7.23661	0.0585354	0.0322229	0.0668185	28.8321	51267.9	93132.2	106311	-61.1679	0.0000000E+000	0.0000000E+000	0.0000000E+000	61.1679	0.0000000E+000	0.0000000E+000	0.0000000E+000	-61.1679	0.0000000E+000	0.0000000E+000	0.0000000E+000	-28.8321	0.0000000E+000	0.0000000E+000	0.0000000E+000	28.8321	1.81658	61.1679	-1.72116e-06	-3.32648e-06	6.46186e-10	-3.32712e-06	0.285261	24453	4.75013	24457.7
68.104	15.2043	8.23098	17.2893	-28.4293	10.3805	0.285223	-0.00825485	283.92	64.3495	1	10	0.00491044	0.000284017	0	-5.58822e-05	0.000288232	1.11897e-05	52.4829	0.0393979	0.0239932	-0.0312493	-28.3004	17.2955	15.2283	8.19973	0.0508642	0.0275358	0.0578393	28.4293	64349.5	118867	135167	-61.5707	0.0000000E+000	0.0000000E+000	0.0000000E+000	61.5707	0.0000000E+000	0.0000000E+000	0.0000000E+000	-61.5707	0.0000000E+000	0.0000000E+000	0.0000000E+000	-28.4293	0.0000000E+000	0.0000000E+000	0.0000000E+000	28.4293	1.8472	61.5707	-1.23416e-06	-2.35447e-06	-2.37932e-09	-2.3521e-06	0.284935	34552.2	34.9167	34517.2
46.4415	17.7253	9.01788	19.8874	-26.9651	11.0567	0.285244	-0.0104387	380.022	78.1383	1	11	0.00492434	0.000247611	0	-5.80889e-05	1.86979e-06	6.22337e-06	-7.98461	0.0251336	0.0248899	0.00349124	-26.9416	19.9111	17.7501	9.02137	0.0448166	0.0228008	0.0502832	26.9651	78138.2	153586	172320	-63.0349	0.0000000E+000	0.0000000E+000	0.0000000E+000	63.0349	0.0000000E+000	0.0000000E+000	0.0000000E+000	-63.0349	0.0000000E+000	0.0000000E+000	0.0000000E+000	-26.9651	0.0000000E+000	0.0000000E+000	0.0000000E+000	26.9651	1.96557	63.0349	-2.20671e-06	-2.97757e-06	-1.95182e-11	-2.97755e-06	0.285242	27325.6	0.179121	27325.4
31.6296	20.4821	9.35774	22.5185	-24.5544	11.4866	0.285237	-0.010473	537.72	92.8575	1	11	0.00491681	0.000218345	0	-5.90239e-05	0.000269142	7.31243e-06	-23.0414	0.0334903	0.0308186	0.013108	-24.5521	22.552	20.513	9.37084	0.0403919	0.018454	0.0444078	24.5544	92857.5	203246	223453	-65.4456	0.0000000E+000	0.0000000E+000	0.0000000E+000	65.4456	0.0000000E+000	0.0000000E+000	0.0000000E+000	-65.4456	0.0000000E+000	0.0000000E+000	0.0000000E+000	-24.5544	0.0000000E+000	0.0000000E+000	0.0000000E+000	24.5544	2.18879	65.4456	-9.34921e-07	-2.98728e-06	-2.81872e-09	-2.98446e-06	0.284967	27235.4	25.6986	27209.7
21.5517	23.2348	9.31676	25.0331	-21.8499	11.9075	0.28524	-0.0104238	792.635	109.792	1	11	0.0049126	0.000196244	0	-6.02512e-05	-9.35844e-05	2.68282e-06	-1.63901	0.0136708	0.0136652	0.000391017	-21.8391	25.046	23.2485	9.31715	0.0370773	0.0148674	0.039947	21.8499	109792	273808	295001	-68.1501	0.0000000E+000	0.0000000E+000	0.0000000E+000	68.1501	0.0000000E+000	0.0000000E+000	0.0000000E+000	-68.1501	0.0000000E+000	0.0000000E+000	0.0000000E+000	-21.8499	0.0000000E+000	0.0000000E+000	0.0000000E+000	21.8499	2.49387	68.1501	-1.22739e-06	-2.97328e-06	9.75504e-10	-2.97425e-06	0.285333	27364.3	8.97797	27373.3
14.6852	25.8728	8.82224	27.3356	-18.8286	12.3682	0.285247	-0.00965236	1228.46	127.957	1	11	0.0049174	0.00017989	0	-6.17752e-05	0.000307323	4.01692e-06	59.3254	0.0223298	0.0113918	-0.0192054	-18.7828	27.3401	25.8842	8.80303	0.0346248	0.0118066	0.0365824	18.8286	127957	375257	396473	-71.1714	0.0000000E+000	0.0000000E+000	0.0000000E+000	71.1714	0.0000000E+000	0.0000000E+000	0.0000000E+000	-71.1714	0.0000000E+000	0.0000000E+000	0.0000000E+000	-18.8286	0.0000000E+000	0.0000000E+000	0.0000000E+000	18.8286	2.93268	71.1714	-1.52393e-06	-2.7533e-06	-2.96639e-09	-2.75034e-06	0.284939	29552	31.8392	29520.2
10.0032	28.131	8.07715	29.2676	-16.0202	12.8188	0.285242	-0.0096065	1969.8	150.026	1	11	0.00490357	0.000167543	0	-6.37888e-05	0.000307323	5.31214e-06	38.3087	0.0317063	0.0248793	-0.0196546	-15.9698	29.2861	28.1559	8.0575	0.0328406	0.00942941	0.0341675	16.0202	150026	522507	543618	-73.9798	0.0000000E+000	0.0000000E+000	0.0000000E+000	73.9798	0.0000000E+000	0.0000000E+000	0.0000000E+000	-73.9798	0.0000000E+000	0.0000000E+000	0.0000000E+000	-16.0202	0.0000000E+000	0.0000000E+000	0.0000000E+000	16.0202	3.48278	73.9798	-2.01366e-06	-2.74017e-06	-2.9523e-09	-2.73722e-06	0.284934	29692.6	31.9912	29660.6
6.81719	30.2024	7.2647	31.0639	-13.5246	13.1585	0.285265	-0.00911694	3213.64	175.761	1	11	0.00491367	0.00015818	0	-6.44054e-05	0.000116415	7.07312e-06	-133.429	0.0447158	-0.0307402	0.0324737	-13.5962	31.0416	30.1717	7.29717	0.0312991	0.00752847	0.0321917	13.5246	175761	730712	751552	-76.4754	0.0000000E+000	0.0000000E+000	0.0000000E+000	76.4754	0.0000000E+000	0.0000000E+000	0.0000000E+000	-76.4754	0.0000000E+000	0.0000000E+000	0.0000000E+000	-13.5246	0.0000000E+000	0.0000000E+000	0.0000000E+000	13.5246	4.15743	76.4754	-6.16532e-07	-2.60075e-06	-1.06135e-09	-2.59969e-06	0.285149	31289.6	12.7691	31276.8
4.63925	31.8286	6.46192	32.4779	-11.4764	13.6435	0.285254	-0.00896482	5308.98	210.164	1	11	0.00491556	0.000151351	0	-6.40129e-05	0.000269142	6.93064e-06	132.509	0.0457919	-0.0309418	-0.0337566	-11.4288	32.4409	31.7976	6.42816	0.0301746	0.00612612	0.0307902	11.4764	210164	1.03517e+06	1.05629e+06	-78.5237	0.0000000E+000	0.0000000E+000	0.0000000E+000	78.5237	0.0000000E+000	0.0000000E+000	0.0000000E+000	-78.5237	0.0000000E+000	0.0000000E+000	0.0000000E+000	-11.4764	0.0000000E+000	0.0000000E+000	0.0000000E+000	11.4764	4.92556	78.5237	3.92456e-07	-2.55725e-06	-2.41281e-09	-2.55484e-06	0.284985	31819.3	30.022	31789.2
3.1604	33.3093	5.72377	33.7975	-9.7503	14.3364	0.285255	-0.00826461	8798.25	252.343	1	11	0.00491401	0.000145395	0	-6.61902e-05	0.000154597	5.52759e-06	-10.7003	0.0380176	0.0373566	0.00705877	-9.75137	33.8356	33.3467	5.73083	0.0291606	0.00501086	0.029588	9.7503	252343	1.4685e+06	1.49002e+06	-80.2497	0.0000000E+000	0.0000000E+000	0.0000000E+000	80.2497	0.0000000E+000	0.0000000E+000	0.0000000E+000	-80.2497	0.0000000E+000	0.0000000E+000	0.0000000E+000	-9.7503	0.0000000E+000	0.0000000E+000	0.0000000E+000	9.7503	5.81947	80.2497	-2.17733e-06	-2.35752e-06	-1.27768e-09	-2.35625e-06	0.285101	34515.3	18.7059	34496.6
2.15577	34.4388	4.97395	34.7961	-8.21833	15.3401	0.285257	-0.00775585	14842.8	303.29	1	11	0.00490673	0.000141014	0	-7.08758e-05	0.000211869	5.49874e-06	-43.5042	0.0389944	0.0282836	0.026844	-8.25539	34.828	34.4671	5.0008	0.0284437	0.00410809	0.0287388	8.21833	303290	2.09993e+06	2.12172e+06	-81.7817	0.0000000E+000	0.0000000E+000	0.0000000E+000	81.7817	0.0000000E+000	0.0000000E+000	0.0000000E+000	-81.7817	0.0000000E+000	0.0000000E+000	0.0000000E+000	-8.21833	0.0000000E+000	0.0000000E+000	0.0000000E+000	8.21833	6.92383	81.7817	-4.68558e-06	-2.21241e-06	-1.64322e-09	-2.21077e-06	0.285045	36779.6	27.3173	36752.3
1.46631	35.5203	4.40307	35.7922	-7.06629	17.5284	0.285251	-0.00738319	24651.3	373.056	1	12	0.00491419	0.000137298	0	-7.73736e-05	0.000135506	4.82457e-06	-90.7352	0.0351394	-0.000450887	0.0351365	-7.12219	35.7961	35.5199	4.4382	0.0277269	0.003437	0.0279391	7.06629	373056	3.0095e+06	3.03254e+06	-82.9337	0.0000000E+000	0.0000000E+000	0.0000000E+000	82.9337	0.0000000E+000	0.0000000E+000	0.0000000E+000	-82.9337	0.0000000E+000	0.0000000E+000	0.0000000E+000	-7.06629	0.0000000E+000	0.0000000E+000	0.0000000E+000	7.06629	8.06718	82.9337	-6.49781e-06	-2.10606e-06	-1.00046e-09	-2.10506e-06	0.285116	38635.2	18.3533	38616.9
1.00006	36.3456	3.9038	36.5547	-6.13051	19.6569	0.285257	-0.00737902	40766.6	464.937	1	12	0.00491255	0.000134389	0	-7.93858e-05	0.00023096	2.82e-06	27.1858	0.0209839	0.0186658	-0.00958706	-6.11245	36.5722	36.3643	3.89422	0.0271998	0.00292147	0.0273563	6.13051	464937	4.32871e+06	4.35361e+06	-83.8695	0.0000000E+000	0.0000000E+000	0.0000000E+000	83.8695	0.0000000E+000	0.0000000E+000	0.0000000E+000	-83.8695	0.0000000E+000	0.0000000E+000	0.0000000E+000	-6.13051	0.0000000E+000	0.0000000E+000	0.0000000E+000	6.13051	9.31032	83.8695	-2.01214e-06	-2.10492e-06	-1.70426e-09	-2.10321e-06	0.285026	38657.8	31.2995	38626.5
0.681362	37.0282	3.52855	37.196	-5.44348	22.7691	0.285252	-0.00715793	66198.1	595.726	1	12	0.00491321	0.00013209	0	-8.00095e-05	0.000192778	4.14713e-06	-39.7751	0.0313963	0.02413	0.0200866	-5.47074	37.2219	37.0524	3.54864	0.0267634	0.00255038	0.0268846	5.44348	595726	6.25148e+06	6.2798e+06	-84.5565	0.0000000E+000	0.0000000E+000	0.0000000E+000	84.5565	0.0000000E+000	0.0000000E+000	0.0000000E+000	-84.5565	0.0000000E+000	0.0000000E+000	0.0000000E+000	-5.44348	0.0000000E+000	0.0000000E+000	0.0000000E+000	5.44348	10.4939	84.5565	-6.23718e-07	-2.04181e-06	-1.37989e-09	-2.04043e-06	0.285059	39851.2	26.9321	39824.2
0.464091	37.6056	3.32042	37.7519	-5.04589	27.3258	0.285253	-0.0063707	103282	798.972	1	12	0.00491106	0.000130088	0	-8.08297e-05	4.00515e-05	1.53766e-06	-125.297	0.0118202	-0.00682985	0.00964728	-5.06139	37.746	37.5988	3.33007	0.026386	0.00232978	0.0264887	5.04589	798972	9.04882e+06	9.08402e+06	-84.9541	0.0000000E+000	0.0000000E+000	0.0000000E+000	84.9541	0.0000000E+000	0.0000000E+000	0.0000000E+000	-84.9541	0.0000000E+000	0.0000000E+000	0.0000000E+000	-5.04589	0.0000000E+000	0.0000000E+000	0.0000000E+000	5.04589	11.3256	84.9541	-8.20242e-07	-1.81726e-06	-2.55156e-10	-1.81701e-06	0.285213	44775.8	6.28682	44769.5
0.316193	38.1729	3.33847	38.3186	-4.99818	34.0008	0.285249	-0.00524163	150772	1144.45	1	12	0.00491425	0.000128247	0	-8.67571e-05	0.00023096	8.47925e-07	33.0446	0.00661164	0.00554218	-0.00360527	-4.99209	38.3238	38.1784	3.33486	0.0259978	0.00227368	0.026097	4.99818	1.14445e+06	1.30859e+07	1.31359e+07	-85.0018	0.0000000E+000	0.0000000E+000	0.0000000E+000	85.0018	0.0000000E+000	0.0000000E+000	0.0000000E+000	-85.0018	0.0000000E+000	0.0000000E+000	0.0000000E+000	-4.99818	0.0000000E+000	0.0000000E+000	0.0000000E+000	4.99818	11.4342	85.0018	-5.92738e-06	-1.49517e-06	-1.21061e-09	-1.49396e-06	0.285018	54419.9	44.0626	54375.8
0.215268	38.7289	3.60642	38.8965	-5.32002	43.7932	0.285248	-0.00403691	205005	1762.37	1	12	0.00491443	0.000126346	0	-0.000103943	-0.000131766	3.60812e-06	-41.0719	0.0285574	0.021529	0.0187624	-5.34458	38.9197	38.7505	3.62518	0.0255985	0.00238372	0.0257093	5.32002	1.76237e+06	1.89259e+07	1.90078e+07	-84.68	0.0000000E+000	0.0000000E+000	0.0000000E+000	84.68	0.0000000E+000	0.0000000E+000	0.0000000E+000	-84.68	0.0000000E+000	0.0000000E+000	0.0000000E+000	-5.32002	0.0000000E+000	0.0000000E+000	0.0000000E+000	5.32002	10.7389	84.68	-1.71858e-05	-1.15152e-06	5.31928e-10	-1.15205e-06	0.28538	70660.1	32.6403	70692.7
0.146929	39.2742	4.10629	39.4882	-5.96885	58.1315	0.285251	-0.00322638	263793	2852.51	1	12	0.00491271	0.000124409	0	-0.00013811	0.000173687	2.1541e-06	-38.256	0.0173146	0.0135963	0.0107208	-5.98227	39.5029	39.2878	4.11701	0.0251867	0.00263339	0.025324	5.96885	2.85251e+06	2.72825e+07	2.74312e+07	-84.0312	0.0000000E+000	0.0000000E+000	0.0000000E+000	84.0312	0.0000000E+000	0.0000000E+000	0.0000000E+000	-84.0312	0.0000000E+000	0.0000000E+000	0.0000000E+000	-5.96885	0.0000000E+000	0.0000000E+000	0.0000000E+000	5.96885	9.56438	84.0312	-3.41673e-05	-9.20327e-07	-5.60382e-10	-9.19766e-07	0.285077	88411.9	53.8335	88358.1
0.0999041	39.9674	4.85562	40.2613	-6.9269	79.2087	0.285248	-0.00287932	328089	4772.07	1	12	0.00491239	0.000122013	0	-0.00018965	1.86979e-06	1.59783e-06	19.1751	0.0130956	0.012369	-0.00430132	-6.9187	40.273	39.9798	4.85132	0.0246565	0.00299551	0.0248378	6.9269	4.77207e+06	3.92797e+07	3.95685e+07	-83.0731	0.0000000E+000	0.0000000E+000	0.0000000E+000	83.0731	0.0000000E+000	0.0000000E+000	0.0000000E+000	-83.0731	0.0000000E+000	0.0000000E+000	0.0000000E+000	-6.9269	0.0000000E+000	0.0000000E+000	0.0000000E+000	6.9269	8.23115	83.0731	-5.15402e-05	-8.21321e-07	-5.38372e-12	-8.21315e-07	0.285246	99068	0.649386	99067.4
0.0680626	40.8823	5.98495	41.318	-8.32864	110.135	0.285253	-0.0026842	390707	8197.71	1	12	0.00491083	0.000118854	0	-0.000249843	0.000173687	1.91389e-06	-66.0529	0.0161028	0.00653604	0.0147167	-8.34751	41.3266	40.8888	5.99967	0.0239472	0.00350575	0.0242025	8.32864	8.19771e+06	5.59973e+07	5.65942e+07	-81.6714	0.0000000E+000	0.0000000E+000	0.0000000E+000	81.6714	0.0000000E+000	0.0000000E+000	0.0000000E+000	-81.6714	0.0000000E+000	0.0000000E+000	0.0000000E+000	-8.32864	0.0000000E+000	0.0000000E+000	0.0000000E+000	8.32864	6.83085	81.6714	-6.01926e-05	-7.65674e-07	-4.66211e-10	-7.65208e-07	0.285079	106271	64.7074	106206
0.0464052	42.0609	7.63212	42.7478	-10.2846	155.486	0.285247	-0.0028773	449374	14324.2	1	12	0.00491365	0.000114945	0	-0.000298779	9.7324e-05	1.67731e-06	-16.3405	0.0145922	0.0140028	0.00410546	-10.2867	42.7623	42.0749	7.63622	0.0230172	0.00417655	0.023393	10.2846	1.43242e+07	7.89415e+07	8.02306e+07	-79.7154	0.0000000E+000	0.0000000E+000	0.0000000E+000	79.7154	0.0000000E+000	0.0000000E+000	0.0000000E+000	-79.7154	0.0000000E+000	0.0000000E+000	0.0000000E+000	-10.2846	0.0000000E+000	0.0000000E+000	0.0000000E+000	10.2846	5.51104	79.7154	-4.89361e-05	-8.20742e-07	-2.8003e-10	-8.20462e-07	0.28515	99137	33.8248	99103.2
0.0315922	43.2319	9.83477	44.3364	-12.816	222.092	0.285245	-0.0024235	512243	25204.8	1	12	0.00491274	0.000110806	0	-0.000296431	0.000421868	1.49886e-06	15.4682	0.0135269	0.013037	-0.00360767	-12.8078	44.3483	43.2449	9.83117	0.0219929	0.00500315	0.0225548	12.816	2.52048e+07	1.10796e+08	1.13627e+08	-77.184	0.0000000E+000	0.0000000E+000	0.0000000E+000	77.184	0.0000000E+000	0.0000000E+000	0.0000000E+000	-77.184	0.0000000E+000	0.0000000E+000	0.0000000E+000	-12.816	0.0000000E+000	0.0000000E+000	0.0000000E+000	12.816	4.39582	77.184	2.34865e-06	-6.91292e-07	-1.0224e-09	-6.9027e-07	0.284823	117699	174.074	117525
0.0215268	44.6487	12.4428	46.3501	-15.5722	319.831	0.285241	-0.00157392	594187	42821.1	1	12	0.00491204	0.000105977	0	-0.000210942	2.09606e-05	2.69325e-06	-10.0871	0.0254136	0.0250207	0.00445104	-15.5692	46.3754	44.6738	12.4472	0.020783	0.00579184	0.0215749	15.5722	4.2821e+07	1.53656e+08	1.59511e+08	-74.4278	0.0000000E+000	0.0000000E+000	0.0000000E+000	74.4278	0.0000000E+000	0.0000000E+000	0.0000000E+000	-74.4278	0.0000000E+000	0.0000000E+000	0.0000000E+000	-15.5722	0.0000000E+000	0.0000000E+000	0.0000000E+000	15.5722	3.58832	74.4278	8.54888e-05	-4.48947e-07	-3.29903e-11	-4.48914e-07	0.28522	181230	13.3175	181217
0.0146812	46.7507	15.8436	49.3625	-18.7213	463.132	0.285241	-0.000766533	684234	70488.8	1	12	0.00491266	9.95222e-05	0	-6.07019e-05	7.82332e-05	1.33374e-06	39.3789	0.0134015	0.0103589	-0.00850251	-18.7081	49.3695	46.7611	15.8351	0.0191865	0.00650221	0.0202583	18.7213	7.04888e+07	2.07996e+08	2.19615e+08	-71.2787	0.0000000E+000	0.0000000E+000	0.0000000E+000	71.2787	0.0000000E+000	0.0000000E+000	0.0000000E+000	-71.2787	0.0000000E+000	0.0000000E+000	0.0000000E+000	-18.7213	0.0000000E+000	0.0000000E+000	0.0000000E+000	18.7213	2.95076	71.2787	0.00015024	-2.18646e-07	-5.99683e-11	-2.18586e-07	0.285163	372118	102.061	372016
0.0100092	49.5565	20.9395	53.7988	-22.9059	673.315	0.285236	-0.000238027	759374	115039	1	12	0.0049141	9.13422e-05	0	5.24654e-05	0.000421868	1.60715e-06	-26.2339	0.0175949	0.0157825	0.00777757	-22.907	53.8163	49.5723	20.9473	0.0171221	0.00723472	0.0185878	22.9059	1.15039e+08	2.72256e+08	2.95563e+08	-67.0941	0.0000000E+000	0.0000000E+000	0.0000000E+000	67.0941	0.0000000E+000	0.0000000E+000	0.0000000E+000	-67.0941	0.0000000E+000	0.0000000E+000	0.0000000E+000	-22.9059	0.0000000E+000	0.0000000E+000	0.0000000E+000	22.9059	2.36665	67.0941	0.000113167	-6.7894e-08	-1.00416e-10	-6.77935e-08	0.284814	1.19833e+06	1772.35	1.19656e+06