File: txt/19152_R306_UA712_SOC00_C08.mpt
EC-Lab ASCII FILE
Nb header lines : 65

Potentio Electrochemical Impedance Spectroscopy

Run on channel : 8 (SN 65398)
User :
CE vs. WE compliance from -10 V to 10 V
Electrode connection : standard
Potential control : Ewe
Ewe ctrl range : min = -10.00 V, max = 10.00 V
Safety Limits :
	Do not start on E overload
Acquisition started on : 11/12/2025 11:40:42.806
Technique started on : 11/12/2025 11:40:44.808
Loaded Setting File :  C:\Users\Celltest\OneDrive - store-dot.com\Documents\EC-Lab\Data\@Biologic Test Protocols\anode half cell EIS SOC00.mps
Saved on :
	File : 19152_R306_UA712_SOC00_C08.mpr
	Directory : C:\Users\Celltest\OneDrive - store-dot.com\Documents\EC-Lab\Data\Charmaine\
	Host : 169.254.61.224
Device : VMP-3e (SN .003165)
Address : USB
EC-LAB for windows v11.62 (software)
Internet server v27.00 (firmware)
Command interpretor v12.03 (firmware)
Electrode material :
Initial state :
Electrolyte :
Comments :
Electrode surface area : 0.001 cm²
Characteristic mass : 0.001 g
Equivalent Weight : 0.000 g/eq.
Density : 0.000 g/cm3
Volume (V) : 0.001 cm³
Record Ece
Cycle Definition : Charge/Discharge alternance
Mode                Single sine
E (V)               0.0000
vs.                 Eoc
tE (h:m:s)          0:00:0.0000
record              0
dI                  0.000
unit dI             mA
dt (s)              0.000
fi                  100.000
unit fi             kHz
ff                  10.000
unit ff             mHz
Nd                  6
Points              per decade
spacing             Logarithmic
Va (mV)             5.0
pw                  0.10
Na                  2
corr                0
E range min (V)     -10.000
E range max (V)     10.000
I Range             Auto
Bandwidth           5
nc cycles           0
goto Ns'            0
nr cycles           0
inc. cycle          0

freq/Hz	Re(Z)/Ohm	-Im(Z)/Ohm	|Z|/Ohm	Phase(Z)/deg	time/s	<Ewe>/V	<I>/mA	Cs/µF	Cp/µF	cycle number	I Range	|Ewe|/V	|I|/A	Ns	(Q-Qo)/mA.h	<Ece>/V	|Ece|/V	Phase(Zce)/deg	|Zce|/Ohm	Re(Zce)/Ohm	-Im(Zce)/Ohm	Phase(Zwe-ce)/deg	|Zwe-ce|/Ohm	Re(Zwe-ce)/Ohm	-Im(Zwe-ce)/Ohm	Re(Y)/Ohm-1	Im(Y)/Ohm-1	|Y|/Ohm-1	Phase(Y)/deg	Re(C)/nF	Im(C)/nF	|C|/nF	Phase(C)/deg	Re(M)	Im(M)	|M|	Phase(M)/deg	Re(Permittivity)	Im(Permittivity)	|Permittivity|	Phase(Permittivity)/deg	Re(Resistivity)/Ohm.cm	Im(Resistivity)/Ohm.cm	|Resistivity|/Ohm.cm	Phase(Resistivity)/deg	Re(Conductivity)/mS/cm	Im(Conductivity)/mS/cm	|Conductivity|/mS/cm	Phase(Conductivity)/deg	Tan(Delta)	Loss Angle(Delta)/deg	dq/mA.h	Pwe/W	Pce/W	Pwe-ce/W	<Ewe-Ece>/V	Rwe/Ohm	Rce/Ohm	Rwe-ce/Ohm		Ewe-Ece/V
100004	2.3123	0.822888	2.45436	-19.5893	2.00156	0.277235	-0.0382415	1.93403	0.217404	1	9	0.00455512	0.00185593	0	-6.25702e-06	-5.67291e-05	4.51517e-05	95.3722	0.0243283	-0.00227773	-0.0242215	-19.0723	2.44419	2.31002	0.798667	0.383856	0.136604	0.407438	19.5893	217.404	610.902	648.434	-70.4107	0.0000000E+000	0.0000000E+000	0.0000000E+000	70.4107	0.0000000E+000	0.0000000E+000	0.0000000E+000	-70.4107	0.0000000E+000	0.0000000E+000	0.0000000E+000	-19.5893	0.0000000E+000	0.0000000E+000	0.0000000E+000	19.5893	2.80998	70.4107	-6.25702e-06	-1.06019e-05	2.16941e-09	-1.06041e-05	0.277292	7249.59	1.48344	7251.07
68132	2.54645	0.967648	2.7241	-20.8068	2.50851	0.277225	-0.0401016	2.41408	0.304607	1	9	0.00507578	0.00186329	0	-4.70068e-06	0.000267768	3.54377e-05	72.471	0.0190189	0.00572829	-0.0181358	-20.4072	2.72308	2.55217	0.949512	0.343153	0.130398	0.367094	20.8068	304.607	801.598	857.522	-69.1932	0.0000000E+000	0.0000000E+000	0.0000000E+000	69.1932	0.0000000E+000	0.0000000E+000	0.0000000E+000	-69.1932	0.0000000E+000	0.0000000E+000	0.0000000E+000	-20.8068	0.0000000E+000	0.0000000E+000	0.0000000E+000	20.8068	2.63158	69.1932	1.55634e-06	-1.11172e-05	-1.07379e-08	-1.11065e-05	0.276958	6913.07	6.67723	6906.4
46420.4	2.83293	1.12049	3.04647	-21.5799	3.01552	0.277227	-0.0366418	3.05989	0.413928	1	9	0.00513375	0.00168515	0	-8.41881e-06	7.68873e-05	2.01454e-05	19.9424	0.0119547	0.0112378	-0.00407743	-21.4313	3.05543	2.84416	1.11641	0.305241	0.12073	0.328249	21.5799	413.928	1046.54	1125.42	-68.4201	0.0000000E+000	0.0000000E+000	0.0000000E+000	68.4201	0.0000000E+000	0.0000000E+000	0.0000000E+000	-68.4201	0.0000000E+000	0.0000000E+000	0.0000000E+000	-21.5799	0.0000000E+000	0.0000000E+000	0.0000000E+000	21.5799	2.5283	68.4201	-3.71813e-06	-1.01581e-05	-2.81729e-09	-1.01553e-05	0.27715	7565.87	2.09835	7563.78
31621.1	3.14724	1.21377	3.37318	-21.0898	3.39856	0.277245	-0.0311731	4.14672	0.53691	1	9	0.00525823	0.00155883	0	-1.52066e-05	-7.58172e-05	4.09985e-06	5.71281	0.00263008	0.00261701	-0.000261804	-21.0697	3.37553	3.14985	1.21351	0.276599	0.106674	0.296456	21.0898	536.91	1392.17	1492.12	-68.9102	0.0000000E+000	0.0000000E+000	0.0000000E+000	68.9102	0.0000000E+000	0.0000000E+000	0.0000000E+000	-68.9102	0.0000000E+000	0.0000000E+000	0.0000000E+000	-21.0898	0.0000000E+000	0.0000000E+000	0.0000000E+000	21.0898	2.59293	68.9102	-6.78777e-06	-8.64257e-06	2.36346e-09	-8.64494e-06	0.277321	8893.72	2.43214	8896.15
21544.7	3.45566	1.33158	3.70334	-21.0733	3.78154	0.277215	-0.0438219	5.5477	0.717233	1	9	0.00482449	0.00130274	0	-1.79321e-05	9.59754e-05	6.12358e-06	-64.7252	0.00470054	0.00200694	0.00425056	-21.1234	3.70674	3.45767	1.33583	0.251968	0.0970912	0.270027	21.0733	717.233	1861.34	1994.74	-68.9267	0.0000000E+000	0.0000000E+000	0.0000000E+000	68.9267	0.0000000E+000	0.0000000E+000	0.0000000E+000	-68.9267	0.0000000E+000	0.0000000E+000	0.0000000E+000	-21.0733	0.0000000E+000	0.0000000E+000	0.0000000E+000	21.0733	2.59516	68.9267	-2.72549e-06	-1.21481e-05	-4.20582e-09	-1.21439e-05	0.277119	6325.95	2.19013	6323.76
14678.6	3.79696	1.39425	4.04486	-20.1632	4.16656	0.277229	-0.0410317	7.77671	0.923993	1	9	0.00492942	0.00121869	0	-2.38123e-05	-0.000113993	1.40984e-05	-88.3694	0.0115685	0.000329191	0.0115638	-20.3152	4.04917	3.79729	1.40581	0.232076	0.0852184	0.247228	20.1632	923.994	2516.32	2680.6	-69.8368	0.0000000E+000	0.0000000E+000	0.0000000E+000	69.8368	0.0000000E+000	0.0000000E+000	0.0000000E+000	-69.8368	0.0000000E+000	0.0000000E+000	0.0000000E+000	-20.1632	0.0000000E+000	0.0000000E+000	0.0000000E+000	20.1632	2.72331	69.8368	-5.88024e-06	-1.13752e-05	4.67734e-09	-1.13798e-05	0.277343	6756.45	2.77818	6759.23
10002.2	4.13816	1.47612	4.39355	-19.6318	4.70655	0.277304	-0.026218	10.7796	1.21678	1	10	0.00498317	0.0011342	0	-2.76141e-05	5.3507e-07	8.75643e-06	-22.7983	0.00772036	0.0071172	0.00299155	-19.6373	4.40126	4.14528	1.47911	0.214376	0.0764697	0.227606	19.6318	1216.78	3411.14	3621.66	-70.3682	0.0000000E+000	0.0000000E+000	0.0000000E+000	70.3682	0.0000000E+000	0.0000000E+000	0.0000000E+000	-70.3682	0.0000000E+000	0.0000000E+000	0.0000000E+000	-19.6318	0.0000000E+000	0.0000000E+000	0.0000000E+000	19.6318	2.80341	70.3682	-3.80177e-06	-7.27036e-06	-1.40285e-11	-7.27034e-06	0.277303	10576.8	0.0204085	10576.8
6810.42	4.43739	1.43384	4.66329	-17.9071	4.96556	0.277308	-0.0257084	16.2984	1.54085	1	10	0.00508692	0.00109084	0	-2.87453e-05	7.68873e-05	0.000181386	-77.2509	0.166281	0.0366952	0.162181	-19.6326	4.75023	4.47408	1.59602	0.204052	0.0659349	0.214441	17.9071	1540.85	4768.57	5011.33	-72.0929	0.0000000E+000	0.0000000E+000	0.0000000E+000	72.0929	0.0000000E+000	0.0000000E+000	0.0000000E+000	-72.0929	0.0000000E+000	0.0000000E+000	0.0000000E+000	-17.9071	0.0000000E+000	0.0000000E+000	0.0000000E+000	17.9071	3.09476	72.0929	-1.13126e-06	-7.12915e-06	-1.97665e-09	-7.12717e-06	0.277231	10786.7	2.99074	10783.7
4646	4.8324	1.71705	5.12839	-19.5611	5.2326	0.277273	-0.035384	19.9507	2.23646	1	10	0.0051849	0.00101102	0	-3.02633e-05	0.00034412	2.1305e-05	-51.3999	0.0210729	0.013147	0.0164688	-19.6849	5.14631	4.84555	1.73352	0.183739	0.0652861	0.194993	19.5611	2236.46	6294.22	6679.74	-70.4389	0.0000000E+000	0.0000000E+000	0.0000000E+000	70.4389	0.0000000E+000	0.0000000E+000	0.0000000E+000	-70.4389	0.0000000E+000	0.0000000E+000	0.0000000E+000	-19.5611	0.0000000E+000	0.0000000E+000	0.0000000E+000	19.5611	2.81436	70.4389	-1.51799e-06	-9.81104e-06	-1.21764e-08	-9.79886e-06	0.276929	7836.1	9.72529	7826.38
3163.08	5.23554	1.90187	5.57028	-19.9641	5.60562	0.277214	-0.0242465	26.4563	3.08416	1	10	0.00515782	0.000925954	0	-3.18132e-05	1.96231e-05	1.01339e-05	-56.0131	0.0109442	0.00611786	0.00907457	-20.0303	5.57913	5.24166	1.91094	0.168736	0.0612952	0.179524	19.9641	3084.16	8490.2	9033.02	-70.0359	0.0000000E+000	0.0000000E+000	0.0000000E+000	70.0359	0.0000000E+000	0.0000000E+000	0.0000000E+000	-70.0359	0.0000000E+000	0.0000000E+000	0.0000000E+000	-19.9641	0.0000000E+000	0.0000000E+000	0.0000000E+000	19.9641	2.75284	70.0359	-1.54991e-06	-6.72145e-06	-4.75792e-10	-6.72098e-06	0.277194	11433.2	0.809319	11432.3
2155.69	5.66062	2.1199	6.04455	-20.5309	6.05683	0.277276	-0.00494729	34.8272	4.28372	1	10	0.00511116	0.000845582	0	-3.25906e-05	0.000573177	1.25723e-05	-76.2302	0.0148682	0.00353895	0.0144409	-20.6472	6.05294	5.66416	2.13434	0.15493	0.0580213	0.165438	20.5309	4283.72	11438.5	12214.3	-69.4691	0.0000000E+000	0.0000000E+000	0.0000000E+000	69.4691	0.0000000E+000	0.0000000E+000	0.0000000E+000	-69.4691	0.0000000E+000	0.0000000E+000	0.0000000E+000	-20.5309	0.0000000E+000	0.0000000E+000	0.0000000E+000	20.5309	2.67023	69.4691	-7.77349e-07	-1.37177e-06	-2.83567e-09	-1.36893e-06	0.276703	56046.1	115.857	55930.2
1468.59	6.13799	2.36685	6.57851	-21.087	6.5081	0.277276	-0.00509238	45.7877	5.927	1	10	0.00506423	0.000769814	0	-3.25368e-05	0.000210504	1.32204e-05	-34.5314	0.0171736	0.0141478	0.00973497	-21.1217	6.59522	6.15213	2.37658	0.141831	0.0546909	0.15201	21.087	5927	15370.6	16473.7	-68.913	0.0000000E+000	0.0000000E+000	0.0000000E+000	68.913	0.0000000E+000	0.0000000E+000	0.0000000E+000	-68.913	0.0000000E+000	0.0000000E+000	0.0000000E+000	-21.087	0.0000000E+000	0.0000000E+000	0.0000000E+000	21.087	2.59332	68.913	5.37986e-08	-1.41199e-06	-1.07196e-09	-1.41092e-06	0.277065	54449.2	41.337	54407.8
1000.32	6.66837	2.68268	7.18776	-21.9149	6.95885	0.277274	-0.00555366	59.3079	8.26157	1	10	0.00503427	0.000700395	0	-3.33256e-05	0.000229592	1.81333e-05	4.19204	0.02589	0.0258208	-0.00189255	-21.8243	7.21102	6.69419	2.68078	0.129072	0.0519256	0.139125	21.9149	8261.57	20535.9	22135.4	-68.0851	0.0000000E+000	0.0000000E+000	0.0000000E+000	68.0851	0.0000000E+000	0.0000000E+000	0.0000000E+000	-68.0851	0.0000000E+000	0.0000000E+000	0.0000000E+000	-21.9149	0.0000000E+000	0.0000000E+000	0.0000000E+000	21.9149	2.48571	68.0851	-7.88809e-07	-1.53988e-06	-1.27507e-09	-1.53861e-06	0.277044	49926.4	41.3406	49885
681.09	7.30316	3.04942	7.91423	-22.6629	7.40851	0.277273	-0.00531186	76.63	11.3767	1	10	0.00502694	0.000635177	0	-3.34987e-05	0.000267768	5.77735e-06	-21.1381	0.00909565	0.00848364	0.00328004	-22.6611	7.92332	7.31164	3.0527	0.116599	0.0486855	0.126355	22.6629	11376.7	27246.4	29526.2	-67.3371	0.0000000E+000	0.0000000E+000	0.0000000E+000	67.3371	0.0000000E+000	0.0000000E+000	0.0000000E+000	-67.3371	0.0000000E+000	0.0000000E+000	0.0000000E+000	-22.6629	0.0000000E+000	0.0000000E+000	0.0000000E+000	22.6629	2.39493	67.3371	-1.73079e-07	-1.47283e-06	-1.42235e-09	-1.47141e-06	0.277005	52198.8	50.4094	52148.4
463.961	8.00074	3.49734	8.73174	-23.6115	7.86034	0.277267	-0.00567642	98.0846	15.7353	1	10	0.00502659	0.000575669	0	-3.40421e-05	5.3507e-07	3.77727e-05	42.8047	0.0656153	0.0481402	-0.0445857	-23.2181	8.75819	8.04888	3.45276	0.104937	0.0458709	0.114525	23.6115	15735.3	35997.1	39286.1	-66.3885	0.0000000E+000	0.0000000E+000	0.0000000E+000	66.3885	0.0000000E+000	0.0000000E+000	0.0000000E+000	-66.3885	0.0000000E+000	0.0000000E+000	0.0000000E+000	-23.6115	0.0000000E+000	0.0000000E+000	0.0000000E+000	23.6115	2.28766	66.3885	-5.43394e-07	-1.57389e-06	-3.03728e-12	-1.57388e-06	0.277267	48845.5	0.094262	48845.4
316.316	8.77979	4.02116	9.65684	-24.6079	8.30807	0.277264	-0.00617861	125.126	21.6961	1	10	0.00500583	0.000518372	0	-3.48456e-05	5.3507e-07	5.65396e-06	32.9474	0.0109071	0.00915295	-0.00593207	-24.5533	9.66269	8.78894	4.01523	0.0941487	0.0431203	0.103554	24.6079	21696.1	47371.1	52103.2	-65.3921	0.0000000E+000	0.0000000E+000	0.0000000E+000	65.3921	0.0000000E+000	0.0000000E+000	0.0000000E+000	-65.3921	0.0000000E+000	0.0000000E+000	0.0000000E+000	-24.6079	0.0000000E+000	0.0000000E+000	0.0000000E+000	24.6079	2.1834	65.3921	-8.03513e-07	-1.71311e-06	-3.30599e-12	-1.71311e-06	0.277264	44874.8	0.0866004	44874.8
215.345	9.75119	4.6548	10.8052	-25.5178	8.75753	0.277279	-0.00475759	158.776	29.4659	1	10	0.00500474	0.000463178	0	-3.59432e-05	0.000210504	5.78252e-06	-44.3398	0.0124844	0.00892897	0.00872554	-25.5392	10.817	9.76011	4.66353	0.0835199	0.0398689	0.0925478	25.5178	29465.9	61727.2	68399.4	-64.4822	0.0000000E+000	0.0000000E+000	0.0000000E+000	64.4822	0.0000000E+000	0.0000000E+000	0.0000000E+000	-64.4822	0.0000000E+000	0.0000000E+000	0.0000000E+000	-25.5178	0.0000000E+000	0.0000000E+000	0.0000000E+000	25.5178	2.09486	64.4822	-1.09763e-06	-1.31918e-06	-1.00149e-09	-1.31818e-06	0.277069	58281.4	44.2459	58237.2
146.737	10.9367	5.4003	12.1973	-26.2792	9.20353	0.277265	-0.00653201	200.845	39.3704	1	10	0.00499367	0.000409408	0	-3.73306e-05	0.00015324	8.97907e-06	-79.3875	0.0219318	0.0040391	0.0215567	-26.3615	12.2105	10.9407	5.42186	0.073512	0.0362987	0.0819854	26.2792	39370.4	79732.9	88923.3	-63.7208	0.0000000E+000	0.0000000E+000	0.0000000E+000	63.7208	0.0000000E+000	0.0000000E+000	0.0000000E+000	-63.7208	0.0000000E+000	0.0000000E+000	0.0000000E+000	-26.2792	0.0000000E+000	0.0000000E+000	0.0000000E+000	26.2792	2.0252	63.7208	-1.38739e-06	-1.8111e-06	-1.00096e-09	-1.8101e-06	0.277111	42447	23.4598	42423.6
100.032	12.4366	6.11762	13.8598	-26.1928	9.65477	0.277279	-0.00482455	260.075	50.67	1	10	0.00498733	0.000359842	0	-3.7535e-05	5.3507e-07	1.24811e-05	22.2818	0.034685	0.0320951	-0.0131513	-26.0857	13.8828	12.4687	6.10447	0.0647423	0.0318471	0.0721512	26.1928	50670	103008	114795	-63.8072	0.0000000E+000	0.0000000E+000	0.0000000E+000	63.8072	0.0000000E+000	0.0000000E+000	0.0000000E+000	-63.8072	0.0000000E+000	0.0000000E+000	0.0000000E+000	-26.1928	0.0000000E+000	0.0000000E+000	0.0000000E+000	26.1928	2.03291	63.8072	-2.04417e-07	-1.33775e-06	-2.58147e-12	-1.33774e-06	0.277278	57472.4	0.110906	57472.3
68.104	14.2272	6.7195	15.7342	-25.2813	10.1174	0.277279	-0.00271905	347.785	63.4301	1	10	0.00498625	0.000316905	0	-3.74902e-05	-0.000152169	1.96516e-06	81.97	0.0062011	0.000866245	-0.0061403	-25.2598	15.7324	14.2281	6.71336	0.0574686	0.0271424	0.0635559	25.2813	63430.1	134301	148526	-64.7187	0.0000000E+000	0.0000000E+000	0.0000000E+000	64.7187	0.0000000E+000	0.0000000E+000	0.0000000E+000	-64.7187	0.0000000E+000	0.0000000E+000	0.0000000E+000	-25.2813	0.0000000E+000	0.0000000E+000	0.0000000E+000	25.2813	2.1173	64.7187	4.48717e-08	-7.53937e-07	4.13757e-10	-7.5435e-07	0.277431	101976	55.9641	102032
46.4415	16.3292	7.02233	17.7752	-23.27	10.5537	0.277258	-0.00911367	488.014	76.1672	1	10	0.00498741	0.000280583	0	-3.87426e-05	0.000401384	6.16839e-06	26.3837	0.0219842	0.0196943	-0.00976935	-23.216	17.7894	16.3489	7.01256	0.0516819	0.0222256	0.0562583	23.27	76167.2	177113	192797	-66.73	0.0000000E+000	0.0000000E+000	0.0000000E+000	66.73	0.0000000E+000	0.0000000E+000	0.0000000E+000	-66.73	0.0000000E+000	0.0000000E+000	0.0000000E+000	-23.27	0.0000000E+000	0.0000000E+000	0.0000000E+000	23.27	2.32533	66.73	-1.25243e-06	-2.52684e-06	-3.65808e-09	-2.52318e-06	0.276857	30422.2	44.042	30378.2
31.6296	18.4682	7.10777	19.7888	-21.05	11.2176	0.277325	-0.00513758	707.935	91.332	1	11	0.00499407	0.000252369	0	-4.02598e-05	-9.49052e-05	7.16555e-06	16.7892	0.0283932	0.0271829	-0.00820141	-20.9996	19.8112	18.4954	7.09957	0.0471615	0.0181508	0.0505337	21.05	91332	237309	254278	-68.95	0.0000000E+000	0.0000000E+000	0.0000000E+000	68.95	0.0000000E+000	0.0000000E+000	0.0000000E+000	-68.95	0.0000000E+000	0.0000000E+000	0.0000000E+000	-21.05	0.0000000E+000	0.0000000E+000	0.0000000E+000	21.05	2.59831	68.95	-1.51722e-06	-1.42478e-06	4.87583e-10	-1.42526e-06	0.27742	53979.7	18.4728	53998.1
21.5517	20.515	6.7881	21.6089	-18.3086	11.6395	0.27731	-0.00540484	1087.9	107.355	1	11	0.00499655	0.000231227	0	-4.10444e-05	-9.49052e-05	7.77883e-06	-123.257	0.0336416	-0.0184488	0.0281318	-18.3948	21.6002	20.4966	6.81624	0.0439346	0.0145373	0.0462773	18.3086	107355	324448	341748	-71.6914	0.0000000E+000	0.0000000E+000	0.0000000E+000	71.6914	0.0000000E+000	0.0000000E+000	0.0000000E+000	-71.6914	0.0000000E+000	0.0000000E+000	0.0000000E+000	-18.3086	0.0000000E+000	0.0000000E+000	0.0000000E+000	18.3086	3.0222	71.6914	-7.8464e-07	-1.49882e-06	5.12948e-10	-1.49933e-06	0.277405	51307.7	17.5593	51325.3
14.6852	22.295	6.18846	23.1379	-15.5132	12.1001	0.277322	-0.0044281	1751.29	125.278	1	11	0.00498822	0.000215587	0	-4.26115e-05	-3.7641e-05	3.90377e-06	-9.00361	0.0181077	0.0178846	0.00283379	-15.5081	23.1559	22.3129	6.19129	0.0416446	0.0115594	0.0432191	15.5132	125278	451336	468401	-74.4868	0.0000000E+000	0.0000000E+000	0.0000000E+000	74.4868	0.0000000E+000	0.0000000E+000	0.0000000E+000	-74.4868	0.0000000E+000	0.0000000E+000	0.0000000E+000	-15.5132	0.0000000E+000	0.0000000E+000	0.0000000E+000	15.5132	3.60267	74.4868	-1.56701e-06	-1.22801e-06	1.66678e-10	-1.22817e-06	0.277359	62627.8	8.5005	62636.3
10.0032	23.7986	5.56929	24.4416	-13.1712	12.5509	0.277324	-0.00454349	2856.81	148.328	1	11	0.00498533	0.000203969	0	-4.19344e-05	-0.000171257	3.82953e-06	132.508	0.018775	-0.0126861	-0.0138407	-13.1464	24.4261	23.7859	5.55545	0.0398376	0.00932271	0.0409139	13.1712	148328	633832	650957	-76.8288	0.0000000E+000	0.0000000E+000	0.0000000E+000	76.8288	0.0000000E+000	0.0000000E+000	0.0000000E+000	-76.8288	0.0000000E+000	0.0000000E+000	0.0000000E+000	-13.1712	0.0000000E+000	0.0000000E+000	0.0000000E+000	13.1712	4.27318	76.8288	6.77097e-07	-1.26002e-06	7.78106e-10	-1.2608e-06	0.277495	61037.7	37.6929	61075.4
6.81719	25.0675	4.89381	25.5407	-11.0467	12.8905	0.27732	-0.00462501	4770.54	175.144	1	11	0.00498049	0.000195002	0	-4.41193e-05	1.96231e-05	1.17474e-05	81.7792	0.0602426	0.00861403	-0.0596235	-10.9117	25.5378	25.0761	4.83418	0.0384278	0.00750208	0.0391532	11.0467	175145	897139	914076	-78.9533	0.0000000E+000	0.0000000E+000	0.0000000E+000	78.9533	0.0000000E+000	0.0000000E+000	0.0000000E+000	-78.9533	0.0000000E+000	0.0000000E+000	0.0000000E+000	-11.0467	0.0000000E+000	0.0000000E+000	0.0000000E+000	11.0467	5.12228	78.9533	-2.18497e-06	-1.28261e-06	-9.07571e-11	-1.28252e-06	0.2773	59961	4.24283	59956.7
4.63925	26.1955	4.29221	26.5448	-9.30541	13.3755	0.27733	-0.00419619	7992.65	208.975	1	11	0.00499157	0.000188043	0	-4.34917e-05	-0.000228522	8.19616e-06	-64.0129	0.0435865	0.0190983	0.0391796	-9.38213	26.57	26.2146	4.33139	0.0371764	0.00609148	0.0376722	9.30541	208975	1.27538e+06	1.29239e+06	-80.6946	0.0000000E+000	0.0000000E+000	0.0000000E+000	80.6946	0.0000000E+000	0.0000000E+000	0.0000000E+000	-80.6946	0.0000000E+000	0.0000000E+000	0.0000000E+000	-9.30541	0.0000000E+000	0.0000000E+000	0.0000000E+000	9.30541	6.10302	80.6946	6.27581e-07	-1.16373e-06	9.58921e-10	-1.16469e-06	0.277559	66090.9	54.4593	66145.4
3.1604	27.0798	3.72388	27.3346	-7.82993	14.0684	0.277317	-0.00402701	13523.3	250.985	1	11	0.00499033	0.000182564	0	-4.19256e-05	-3.7641e-05	6.94351e-06	4.8424	0.0380332	0.0378975	-0.00321058	-7.81247	27.3717	27.1177	3.72067	0.0362425	0.0049839	0.0365836	7.82993	250985	1.82514e+06	1.84232e+06	-82.1701	0.0000000E+000	0.0000000E+000	0.0000000E+000	82.1701	0.0000000E+000	0.0000000E+000	0.0000000E+000	-82.1701	0.0000000E+000	0.0000000E+000	0.0000000E+000	-7.82993	0.0000000E+000	0.0000000E+000	0.0000000E+000	7.82993	7.27192	82.1701	1.56616e-06	-1.11676e-06	1.51581e-10	-1.11691e-06	0.277355	68864.2	9.34714	68873.6
2.15577	27.8566	3.25973	28.0467	-6.67429	15.072	0.277323	-0.00301146	22648.4	305.94	1	11	0.00499093	0.000177951	0	-4.27699e-05	7.68873e-05	4.46637e-06	10.1328	0.0250989	0.0247074	-0.00441568	-6.65948	28.0707	27.8813	3.25531	0.0354132	0.00414399	0.0356549	6.67429	305940	2.61447e+06	2.63231e+06	-83.3257	0.0000000E+000	0.0000000E+000	0.0000000E+000	83.3257	0.0000000E+000	0.0000000E+000	0.0000000E+000	-83.3257	0.0000000E+000	0.0000000E+000	0.0000000E+000	-6.67429	0.0000000E+000	0.0000000E+000	0.0000000E+000	6.67429	8.54568	83.3257	-8.44289e-07	-8.35146e-07	-2.31543e-10	-8.34914e-07	0.277246	92089.2	25.5316	92063.7
1.46631	28.4594	2.88319	28.6051	-5.78483	16.5335	0.277322	-0.00256759	37646.2	382.455	1	11	0.00499002	0.000174445	0	-4.73049e-05	5.77992e-05	3.85054e-06	-5.6165	0.0220731	0.0219671	0.00216028	-5.7847	28.6272	28.4814	2.88535	0.0347808	0.0035236	0.0349588	5.78483	382455	3.77514e+06	3.79447e+06	-84.2152	0.0000000E+000	0.0000000E+000	0.0000000E+000	84.2152	0.0000000E+000	0.0000000E+000	0.0000000E+000	-84.2152	0.0000000E+000	0.0000000E+000	0.0000000E+000	-5.78483	0.0000000E+000	0.0000000E+000	0.0000000E+000	5.78483	9.87081	84.2152	-4.53502e-06	-7.12049e-07	-1.48405e-10	-7.11901e-07	0.277264	108008	22.5111	107986
1.00006	28.9688	2.60107	29.0853	-5.13076	19.707	0.277335	-0.00210052	61184.3	489.325	1	12	0.00499393	0.000171699	0	-5.47824e-05	1.96231e-05	3.42627e-06	-34.5516	0.0199551	0.0164353	0.0113175	-5.15006	29.1027	28.9852	2.61239	0.0342438	0.00307472	0.0343816	5.13076	489325	5.44973e+06	5.47165e+06	-84.8692	0.0000000E+000	0.0000000E+000	0.0000000E+000	84.8692	0.0000000E+000	0.0000000E+000	0.0000000E+000	-84.8692	0.0000000E+000	0.0000000E+000	0.0000000E+000	-5.13076	0.0000000E+000	0.0000000E+000	0.0000000E+000	5.13076	11.1372	84.8692	-7.47754e-06	-5.8255e-07	-4.12189e-11	-5.82509e-07	0.277316	132031	9.34201	132022
0.681362	29.4293	2.44444	29.5307	-4.74816	22.8192	0.277323	-0.00277269	95557.1	654.748	1	12	0.0049954	0.00016916	0	-5.92703e-05	-0.000209434	2.85757e-06	7.5144	0.0168928	0.0167477	-0.00220916	-4.7412	29.5472	29.4461	2.44223	0.0337469	0.00280306	0.0338631	4.74816	654748	7.88271e+06	7.90986e+06	-85.2518	0.0000000E+000	0.0000000E+000	0.0000000E+000	85.2518	0.0000000E+000	0.0000000E+000	0.0000000E+000	-85.2518	0.0000000E+000	0.0000000E+000	0.0000000E+000	-4.74816	0.0000000E+000	0.0000000E+000	0.0000000E+000	4.74816	12.0393	85.2518	-4.48785e-06	-7.6893e-07	5.80694e-10	-7.69511e-07	0.277532	100020	75.5345	100095
0.464091	29.8463	2.44354	29.9461	-4.68042	27.3757	0.277328	-0.00291599	140345	934.451	1	12	0.00500083	0.000166994	0	-5.80962e-05	0.00024868	1.15476e-05	31.1111	0.0691496	0.0592036	-0.0357295	-4.60319	30.0022	29.9055	2.40781	0.033282	0.00272483	0.0333933	4.68042	934451	1.14137e+07	1.14519e+07	-85.3196	0.0000000E+000	0.0000000E+000	0.0000000E+000	85.3196	0.0000000E+000	0.0000000E+000	0.0000000E+000	-85.3196	0.0000000E+000	0.0000000E+000	0.0000000E+000	-4.68042	0.0000000E+000	0.0000000E+000	0.0000000E+000	4.68042	12.2143	85.3196	1.17407e-06	-8.08686e-07	-7.25148e-10	-8.07961e-07	0.277079	95105.9	85.2814	95020.6
0.316193	30.1385	2.58354	30.2491	-4.89954	34.0492	0.277327	-0.00272824	194828	1421.21	1	12	0.00499419	0.000165102	0	-4.90599e-05	-0.000152169	2.84014e-06	-4.29246	0.0172023	0.0171541	0.00128755	-4.8992	30.2663	30.1557	2.58483	0.0329381	0.00282352	0.0330589	4.89954	1.42121e+06	1.65793e+07	1.66401e+07	-85.1005	0.0000000E+000	0.0000000E+000	0.0000000E+000	85.1005	0.0000000E+000	0.0000000E+000	0.0000000E+000	-85.1005	0.0000000E+000	0.0000000E+000	0.0000000E+000	-4.89954	0.0000000E+000	0.0000000E+000	0.0000000E+000	4.89954	11.6656	85.1005	9.03628e-06	-7.56615e-07	4.15154e-10	-7.5703e-07	0.27748	101651	55.7757	101707
0.215268	30.5154	2.87603	30.6506	-5.38413	43.8427	0.277334	-0.00185791	257068	2263.36	1	12	0.00499344	0.000162915	0	-3.43004e-05	0.000172328	3.2102e-06	3.10322	0.0197047	0.0196758	-0.00106672	-5.37869	30.6701	30.5351	2.87496	0.0324818	0.00306135	0.0326257	5.38413	2.26336e+06	2.40149e+07	2.41213e+07	-84.6159	0.0000000E+000	0.0000000E+000	0.0000000E+000	84.6159	0.0000000E+000	0.0000000E+000	0.0000000E+000	-84.6159	0.0000000E+000	0.0000000E+000	0.0000000E+000	-5.38413	0.0000000E+000	0.0000000E+000	0.0000000E+000	5.38413	10.6103	84.6159	1.47595e-05	-5.15263e-07	-3.2017e-10	-5.14942e-07	0.277162	149272	92.7533	149179
0.146929	31.0056	3.42017	31.1936	-6.29474	58.18	0.277331	-0.00073855	316713	3807.39	1	12	0.00498946	0.000159951	0	-2.23076e-05	0.00034412	2.60255e-06	19.63	0.0162709	0.0153253	-0.00546613	-6.28168	31.2083	31.0209	3.4147	0.0318645	0.00351491	0.0320578	6.29474	3.8074e+06	3.4516e+07	3.47254e+07	-83.7053	0.0000000E+000	0.0000000E+000	0.0000000E+000	83.7053	0.0000000E+000	0.0000000E+000	0.0000000E+000	-83.7053	0.0000000E+000	0.0000000E+000	0.0000000E+000	-6.29474	0.0000000E+000	0.0000000E+000	0.0000000E+000	6.29474	9.06552	83.7053	1.19928e-05	-2.04823e-07	-2.5415e-10	-2.04569e-07	0.276987	375507	465.94	375041
0.0999041	31.5777	4.28849	31.8675	-7.73389	79.2573	0.277333	0.000256198	371478	6727.35	1	12	0.00499301	0.00015668	0	-2.79881e-05	0.00015324	1.83571e-06	-13.9749	0.0117163	0.0113695	0.00282945	-7.73618	31.8792	31.589	4.29132	0.0310945	0.00422287	0.0313799	7.73389	6.72736e+06	4.95359e+07	4.99906e+07	-82.2661	0.0000000E+000	0.0000000E+000	0.0000000E+000	82.2661	0.0000000E+000	0.0000000E+000	0.0000000E+000	-82.2661	0.0000000E+000	0.0000000E+000	0.0000000E+000	-7.73389	0.0000000E+000	0.0000000E+000	0.0000000E+000	7.73389	7.36335	82.2661	-5.68055e-06	7.10521e-08	3.92596e-11	7.10128e-08	0.27718	1.08249e+06	598.129	1.0819e+06
0.0680626	32.2087	5.42695	32.6627	-9.56413	110.185	0.27732	0.000494641	430879	11895	1	12	0.00499152	0.00015282	0	-6.47424e-05	0.000191416	2.49105e-06	-10.6793	0.0163005	0.0160182	0.00302069	-9.56468	32.679	32.2247	5.42997	0.0301904	0.00508688	0.030616	9.56413	1.1895e+07	7.05961e+07	7.15912e+07	-80.4359	0.0000000E+000	0.0000000E+000	0.0000000E+000	80.4359	0.0000000E+000	0.0000000E+000	0.0000000E+000	-80.4359	0.0000000E+000	0.0000000E+000	0.0000000E+000	-9.56413	0.0000000E+000	0.0000000E+000	0.0000000E+000	9.56413	5.93495	80.4359	-3.67543e-05	1.37174e-07	9.4682e-11	1.37079e-07	0.277129	560649	386.979	560262
0.0464052	32.9961	6.75051	33.6795	-11.5623	155.535	0.277324	-0.000106494	508062	20410.7	1	12	0.00499092	0.000148189	0	-0.000153966	0.000134151	2.51409e-06	-13.2728	0.0169655	0.0165123	0.00389508	-11.5632	33.6965	33.0126	6.75441	0.0290891	0.0059512	0.0296916	11.5623	2.04107e+07	9.97663e+07	1.01833e+08	-78.4377	0.0000000E+000	0.0000000E+000	0.0000000E+000	78.4377	0.0000000E+000	0.0000000E+000	0.0000000E+000	-78.4377	0.0000000E+000	0.0000000E+000	0.0000000E+000	-11.5623	0.0000000E+000	0.0000000E+000	0.0000000E+000	11.5623	4.88794	78.4377	-8.92232e-05	-2.95333e-08	-1.42863e-11	-2.9519e-08	0.27719	2.60413e+06	1259.71	2.60287e+06
0.0315922	34.185	8.54909	35.2378	-14.0407	222.141	0.277328	-0.000714488	589278	34685	1	12	0.00499425	0.00014173	0	-0.000276709	5.77992e-05	2.70365e-06	1.10114	0.019076	0.0190725	-0.000366591	-14.0326	35.2562	34.2041	8.54872	0.0275308	0.00688497	0.0283786	14.0407	3.4685e+07	1.38694e+08	1.42966e+08	-75.9593	0.0000000E+000	0.0000000E+000	0.0000000E+000	75.9593	0.0000000E+000	0.0000000E+000	0.0000000E+000	-75.9593	0.0000000E+000	0.0000000E+000	0.0000000E+000	-14.0407	0.0000000E+000	0.0000000E+000	0.0000000E+000	14.0407	3.99868	75.9593	-0.000122743	-1.98148e-07	-4.12968e-11	-1.98106e-07	0.277271	388150	80.8961	388069
0.0215268	35.6644	11.2392	37.3934	-17.4916	319.879	0.277329	-0.00106668	657818	59427.3	1	12	0.00499205	0.000133501	0	-0.000362478	1.96231e-05	2.45644e-06	10.7324	0.0184002	0.0180783	-0.00342654	-17.4783	37.4096	35.6825	11.2358	0.0255061	0.00803794	0.0267427	17.4916	5.94273e+07	1.88575e+08	1.97718e+08	-72.5084	0.0000000E+000	0.0000000E+000	0.0000000E+000	72.5084	0.0000000E+000	0.0000000E+000	0.0000000E+000	-72.5084	0.0000000E+000	0.0000000E+000	0.0000000E+000	-17.4916	0.0000000E+000	0.0000000E+000	0.0000000E+000	17.4916	3.17321	72.5084	-8.57692e-05	-2.95822e-07	-2.09317e-11	-2.95802e-07	0.277309	259992	18.3964	259973
0.0146812	37.175	14.834	40.0253	-21.7536	463.182	0.277324	-0.00108522	730805	100380	1	12	0.00499393	0.000124769	0	-0.000308863	0.00015324	2.86628e-06	-2.18135	0.0229727	0.022956	0.000874399	-21.7426	40.047	37.1979	14.8349	0.023205	0.00925952	0.0249842	21.7536	1.0038e+08	2.51559e+08	2.70847e+08	-68.2464	0.0000000E+000	0.0000000E+000	0.0000000E+000	68.2464	0.0000000E+000	0.0000000E+000	0.0000000E+000	-68.2464	0.0000000E+000	0.0000000E+000	0.0000000E+000	-21.7536	0.0000000E+000	0.0000000E+000	0.0000000E+000	21.7536	2.50607	68.2464	5.36147e-05	-3.00957e-07	-1.66299e-10	-3.00791e-07	0.27717	255546	141.206	255404
0.0100092	39.149	19.246	43.624	-26.1792	673.364	0.277321	-0.00073963	826192	160810	1	12	0.00499342	0.000114465	0	-4.69595e-05	0.000496825	5.12114e-06	17.0936	0.0447399	0.0427635	-0.0131505	-26.1389	43.6566	39.1918	19.2329	0.0205717	0.0101132	0.0229232	26.1792	1.6081e+08	3.27108e+08	3.64499e+08	-63.8208	0.0000000E+000	0.0000000E+000	0.0000000E+000	63.8208	0.0000000E+000	0.0000000E+000	0.0000000E+000	-63.8208	0.0000000E+000	0.0000000E+000	0.0000000E+000	-26.1792	0.0000000E+000	0.0000000E+000	0.0000000E+000	26.1792	2.03413	63.8208	0.000261904	-2.05115e-07	-3.67466e-10	-2.04747e-07	0.276824	374945	671.72	374274