File: txt/19150_R306_UA711_SOC00_C06.mpt
EC-Lab ASCII FILE
Nb header lines : 65

Potentio Electrochemical Impedance Spectroscopy

Run on channel : 6 (SN 65795)
Grouped channel(s) : 3, 4, 5, 6, 7
User :
CE vs. WE compliance from -10 V to 10 V
Electrode connection : standard
Potential control : Ewe
Ewe ctrl range : min = -10.00 V, max = 10.00 V
Safety Limits :
	Do not start on E overload
Acquisition started on : 11/12/2025 11:40:22.150
Loaded Setting File :  C:\Users\Celltest\OneDrive - store-dot.com\Documents\EC-Lab\Data\@Biologic Test Protocols\anode half cell EIS SOC00.mps
Saved on :
	File : 19147_R306_UA711_SOC00_C06.mpr
	Directory : C:\Users\Celltest\OneDrive - store-dot.com\Documents\EC-Lab\Data\Charmaine\
	Host : 169.254.61.224
Device : VMP-3e (SN .003165)
Address : USB
EC-LAB for windows v11.62 (software)
Internet server v27.00 (firmware)
Command interpretor v12.03 (firmware)
Electrode material :
Initial state :
Electrolyte :
Comments :
Electrode surface area : 0.001 cm²
Characteristic mass : 0.001 g
Equivalent Weight : 0.000 g/eq.
Density : 0.000 g/cm3
Volume (V) : 0.001 cm³
Record Ece
Cycle Definition : Charge/Discharge alternance
Mode                Single sine
E (V)               0.0000
vs.                 Eoc
tE (h:m:s)          0:00:0.0000
record              0
dI                  0.000
unit dI             mA
dt (s)              0.000
fi                  100.000
unit fi             kHz
ff                  10.000
unit ff             mHz
Nd                  6
Points              per decade
spacing             Logarithmic
Va (mV)             5.0
pw                  0.10
Na                  2
corr                0
E range min (V)     -10.000
E range max (V)     10.000
I Range             Auto
Bandwidth           5
nc cycles           0
goto Ns'            0
nr cycles           0
inc. cycle          0

freq/Hz	Re(Z)/Ohm	-Im(Z)/Ohm	|Z|/Ohm	Phase(Z)/deg	time/s	<Ewe>/V	<I>/mA	Cs/µF	Cp/µF	cycle number	I Range	|Ewe|/V	|I|/A	Ns	(Q-Qo)/mA.h	<Ece>/V	|Ece|/V	Phase(Zce)/deg	|Zce|/Ohm	Re(Zce)/Ohm	-Im(Zce)/Ohm	Phase(Zwe-ce)/deg	|Zwe-ce|/Ohm	Re(Zwe-ce)/Ohm	-Im(Zwe-ce)/Ohm	Re(Y)/Ohm-1	Im(Y)/Ohm-1	|Y|/Ohm-1	Phase(Y)/deg	Re(C)/nF	Im(C)/nF	|C|/nF	Phase(C)/deg	Re(M)	Im(M)	|M|	Phase(M)/deg	Re(Permittivity)	Im(Permittivity)	|Permittivity|	Phase(Permittivity)/deg	Re(Resistivity)/Ohm.cm	Im(Resistivity)/Ohm.cm	|Resistivity|/Ohm.cm	Phase(Resistivity)/deg	Re(Conductivity)/mS/cm	Im(Conductivity)/mS/cm	|Conductivity|/mS/cm	Phase(Conductivity)/deg	Tan(Delta)	Loss Angle(Delta)/deg	dq/mA.h	Pwe/W	Pce/W	Pwe-ce/W	<Ewe-Ece>/V	Rwe/Ohm	Rce/Ohm	Rwe-ce/Ohm		Ewe-Ece/V
100004	1.88218	1.19405	2.22898	-32.391	1.72552	0.181275	-0.0100271	1.33285	0.382486	1	9	0.00458401	0.00205655	0	-3.20904e-06	0.000286255	4.29449e-05	98.1462	0.020882	-0.00295898	-0.0206713	-31.9806	2.21547	1.87922	1.17338	0.378833	0.240332	0.448636	32.391	382.486	602.909	713.999	-57.609	0.0000000E+000	0.0000000E+000	0.0000000E+000	57.609	0.0000000E+000	0.0000000E+000	0.0000000E+000	-57.609	0.0000000E+000	0.0000000E+000	0.0000000E+000	-32.391	0.0000000E+000	0.0000000E+000	0.0000000E+000	32.391	1.57629	57.609	-3.20904e-06	-1.81766e-06	-2.8703e-09	-1.81479e-06	0.180989	18078.5	28.5482	18050
68132	2.21719	1.42906	2.63783	-32.8033	2.23251	0.181258	-0.00965459	1.63462	0.479763	1	9	0.00508068	0.00192609	0	4.84227e-06	0.000286255	2.18197e-05	61.6041	0.0113285	0.0053874	-0.00996548	-32.5579	2.63698	2.22257	1.4191	0.318647	0.20538	0.3791	32.8033	479.763	744.352	885.569	-57.1967	0.0000000E+000	0.0000000E+000	0.0000000E+000	57.1967	0.0000000E+000	0.0000000E+000	0.0000000E+000	-57.1967	0.0000000E+000	0.0000000E+000	0.0000000E+000	-32.8033	0.0000000E+000	0.0000000E+000	0.0000000E+000	32.8033	1.5515	57.1967	8.0513e-06	-1.74997e-06	-2.76367e-09	-1.74721e-06	0.180972	18774.3	29.6496	18744.6
46420.4	2.63702	1.66885	3.12073	-32.3277	2.73954	0.181267	-0.0103996	2.05445	0.587511	1	9	0.00517339	0.00165775	0	-7.1141e-07	5.70785e-05	1.86529e-05	19.3634	0.0112519	0.0106154	-0.00373066	-32.166	3.12772	2.64764	1.66511	0.270771	0.171358	0.320438	32.3277	587.511	928.355	1098.64	-57.6723	0.0000000E+000	0.0000000E+000	0.0000000E+000	57.6723	0.0000000E+000	0.0000000E+000	0.0000000E+000	-57.6723	0.0000000E+000	0.0000000E+000	0.0000000E+000	-32.3277	0.0000000E+000	0.0000000E+000	0.0000000E+000	32.3277	1.58015	57.6723	-5.55368e-06	-1.8851e-06	-5.93593e-10	-1.8845e-06	0.181209	17430.2	5.48853	17424.7
31621.1	3.10264	1.85292	3.61382	-30.846	3.12155	0.181261	-0.0190788	2.71635	0.714112	1	9	0.00524059	0.00145015	0	-3.08786e-07	0.000209863	5.48733e-06	-11.4743	0.00378397	0.00370835	0.000752739	-30.8261	3.61739	3.10635	1.85367	0.237574	0.141881	0.276715	30.846	714.112	1195.75	1392.76	-59.154	0.0000000E+000	0.0000000E+000	0.0000000E+000	59.154	0.0000000E+000	0.0000000E+000	0.0000000E+000	-59.154	0.0000000E+000	0.0000000E+000	0.0000000E+000	-30.846	0.0000000E+000	0.0000000E+000	0.0000000E+000	30.846	1.67446	59.1541	4.02624e-07	-3.45825e-06	-4.00394e-09	-3.45425e-06	0.181051	9500.63	10.9998	9489.63
21544.7	3.61851	2.01762	4.14299	-29.1433	3.38256	0.181261	-0.0144599	3.66134	0.868342	1	9	0.00465682	0.00112402	0	-2.10671e-06	5.70785e-05	6.85283e-06	-68.0791	0.0060967	0.00227606	0.00565591	-29.1962	4.14774	3.62079	2.02328	0.210815	0.117547	0.241371	29.1433	868.342	1557.33	1783.06	-60.8567	0.0000000E+000	0.0000000E+000	0.0000000E+000	60.8567	0.0000000E+000	0.0000000E+000	0.0000000E+000	-60.8567	0.0000000E+000	0.0000000E+000	0.0000000E+000	-29.1433	0.0000000E+000	0.0000000E+000	0.0000000E+000	29.1433	1.79345	60.8567	-1.79792e-06	-2.62101e-06	-8.25346e-10	-2.62019e-06	0.181204	12535.5	3.94737	12531.6
14678.6	4.16265	2.09134	4.65847	-26.6753	4.04456	0.181309	-0.021965	5.18454	1.0449	1	10	0.00483677	0.00103827	0	-6.47103e-06	7.61765e-05	7.05288e-06	-85.0597	0.00679289	0.000584993	0.00676765	-26.7464	4.66203	4.16323	2.09811	0.191815	0.0963694	0.214663	26.6753	1044.9	2079.79	2327.51	-63.3247	0.0000000E+000	0.0000000E+000	0.0000000E+000	63.3247	0.0000000E+000	0.0000000E+000	0.0000000E+000	-63.3247	0.0000000E+000	0.0000000E+000	0.0000000E+000	-26.6753	0.0000000E+000	0.0000000E+000	0.0000000E+000	26.6753	1.99042	63.3247	-4.36432e-06	-3.98246e-06	-1.67322e-09	-3.98078e-06	0.181233	8254.47	3.46809	8251
10002.2	4.69618	2.16801	5.17246	-24.7806	4.30355	0.181303	-0.0229115	7.33944	1.28941	1	10	0.00529433	0.00102356	0	-8.13177e-06	0.000248059	8.49723e-06	52.7197	0.00830163	0.00502842	-0.00660545	-24.6908	5.17426	4.70121	2.1614	0.17553	0.0810338	0.193332	24.7806	1289.41	2793.02	3076.28	-65.2194	0.0000000E+000	0.0000000E+000	0.0000000E+000	65.2194	0.0000000E+000	0.0000000E+000	0.0000000E+000	-65.2194	0.0000000E+000	0.0000000E+000	0.0000000E+000	-24.7806	0.0000000E+000	0.0000000E+000	0.0000000E+000	24.7806	2.16613	65.2194	-1.66075e-06	-4.15393e-06	-5.68341e-09	-4.14824e-06	0.181055	7913.16	10.8268	7902.34
6810.42	5.20623	2.25619	5.67408	-23.4301	4.56252	0.1813	-0.0240966	10.3579	1.63768	1	10	0.00535037	0.000942949	0	-9.18637e-06	1.88824e-05	2.81876e-05	70.2944	0.0298931	0.0100796	-0.0281425	-23.1288	5.67222	5.21631	2.22804	0.161708	0.0700784	0.17624	23.4301	1637.68	3779.01	4118.61	-66.5699	0.0000000E+000	0.0000000E+000	0.0000000E+000	66.5699	0.0000000E+000	0.0000000E+000	0.0000000E+000	-66.5699	0.0000000E+000	0.0000000E+000	0.0000000E+000	-23.4301	0.0000000E+000	0.0000000E+000	0.0000000E+000	23.4301	2.30753	66.5699	-1.0546e-06	-4.3687e-06	-4.55001e-10	-4.36825e-06	0.181281	7523.87	0.783613	7523.09
4646	5.71511	2.33136	6.17234	-22.192	4.8286	0.181267	-0.0305584	14.6937	2.09629	1	10	0.00529344	0.000857607	0	-1.10353e-05	3.79804e-05	7.64818e-06	13.7093	0.00891805	0.00866398	-0.00211354	-22.1435	6.17956	5.72377	2.32925	0.150012	0.0611943	0.162013	22.192	2096.29	5138.85	5549.98	-67.808	0.0000000E+000	0.0000000E+000	0.0000000E+000	67.808	0.0000000E+000	0.0000000E+000	0.0000000E+000	-67.808	0.0000000E+000	0.0000000E+000	0.0000000E+000	-22.192	0.0000000E+000	0.0000000E+000	0.0000000E+000	22.192	2.4514	67.808	-1.84895e-06	-5.53924e-06	-1.16062e-09	-5.53808e-06	0.181229	5931.82	1.24288	5930.57
3163.08	6.21723	2.49056	6.69752	-21.8305	5.20161	0.181156	-0.0216222	20.2029	2.79369	1	10	0.00523182	0.000781158	0	-1.39442e-05	0.000133471	6.37892e-06	83.1698	0.00816598	0.000971153	-0.00810802	-21.763	6.69541	6.2182	2.48245	0.138602	0.0555224	0.149309	21.8305	2793.69	6973.94	7512.7	-68.1695	0.0000000E+000	0.0000000E+000	0.0000000E+000	68.1695	0.0000000E+000	0.0000000E+000	0.0000000E+000	-68.1695	0.0000000E+000	0.0000000E+000	0.0000000E+000	-21.8305	0.0000000E+000	0.0000000E+000	0.0000000E+000	21.8305	2.49632	68.1695	-2.90892e-06	-3.91699e-06	-2.88592e-09	-3.9141e-06	0.181023	8378.26	6.17286	8372.09
2155.69	6.69367	2.71274	7.22248	-22.0612	5.65383	0.181233	-0.000861508	27.2161	3.83945	1	10	0.00517874	0.000717031	0	-1.44217e-05	0.000133471	1.23895e-05	-125.301	0.017279	-0.0099849	0.0141019	-22.1947	7.21854	6.68369	2.72684	0.128319	0.0520039	0.138457	22.0612	3839.45	9473.83	10222.3	-67.9388	0.0000000E+000	0.0000000E+000	0.0000000E+000	67.9388	0.0000000E+000	0.0000000E+000	0.0000000E+000	-67.9388	0.0000000E+000	0.0000000E+000	0.0000000E+000	-22.0612	0.0000000E+000	0.0000000E+000	0.0000000E+000	22.0612	2.46749	67.9388	-4.77464e-07	-1.56134e-07	-1.14986e-10	-1.56019e-07	0.181099	210367	154.927	210212
1468.59	7.20784	3.07165	7.83505	-23.0815	6.10512	0.181217	-0.00475576	35.2816	5.4226	1	10	0.00514515	0.000656683	0	-1.50725e-05	0.000343549	7.95796e-06	28.5666	0.0121184	0.0106431	-0.00579478	-23.012	7.84258	7.21849	3.06585	0.117414	0.0500366	0.127632	23.0815	5422.6	12724.5	13831.8	-66.9185	0.0000000E+000	0.0000000E+000	0.0000000E+000	66.9185	0.0000000E+000	0.0000000E+000	0.0000000E+000	-66.9185	0.0000000E+000	0.0000000E+000	0.0000000E+000	-23.0815	0.0000000E+000	0.0000000E+000	0.0000000E+000	23.0815	2.34657	66.9185	-6.50751e-07	-8.61825e-07	-1.63384e-09	-8.60191e-07	0.180873	38104.7	72.2385	38032.5
1000.32	7.75007	3.61891	8.55337	-25.0303	6.55582	0.181231	-0.00336948	43.9646	7.87018	1	10	0.00512042	0.000598643	0	-1.50174e-05	0.000152569	5.23637e-06	-105.632	0.00874706	-0.00235695	0.00842353	-25.0881	8.5548	7.74771	3.62733	0.105933	0.0494657	0.116913	25.0303	7870.18	16854.4	18601.3	-64.9697	0.0000000E+000	0.0000000E+000	0.0000000E+000	64.9697	0.0000000E+000	0.0000000E+000	0.0000000E+000	-64.9697	0.0000000E+000	0.0000000E+000	0.0000000E+000	-25.0303	0.0000000E+000	0.0000000E+000	0.0000000E+000	25.0303	2.14155	64.9697	5.50273e-08	-6.10653e-07	-5.14077e-10	-6.10139e-07	0.181078	53785.9	45.2796	53740.6
681.09	8.3807	4.36436	9.44901	-27.5089	7.00557	0.181221	-0.00327632	53.542	11.4226	1	10	0.00509608	0.000539324	0	-1.58386e-05	0.000228961	9.71649e-06	20.3563	0.018016	0.0168909	-0.00626699	-27.428	9.4611	8.39759	4.3581	0.0938659	0.048882	0.105831	27.5089	11422.6	21934.3	24730.3	-62.4911	0.0000000E+000	0.0000000E+000	0.0000000E+000	62.4911	0.0000000E+000	0.0000000E+000	0.0000000E+000	-62.4911	0.0000000E+000	0.0000000E+000	0.0000000E+000	-27.5089	0.0000000E+000	0.0000000E+000	0.0000000E+000	27.5089	1.92026	62.4911	-8.21175e-07	-5.93739e-07	-7.50149e-10	-5.92988e-07	0.180992	55312.3	69.8835	55242.4
463.961	9.23005	5.39934	10.6933	-30.3265	7.45736	0.18122	-0.00232232	63.5328	16.1978	1	10	0.00508884	0.000475891	0	-1.63942e-05	0.000133471	1.18272e-05	11.9872	0.0248527	0.0243108	-0.00516175	-30.2371	10.7117	9.25436	5.39418	0.0807199	0.047219	0.0935165	30.3265	16197.8	27689.8	32079.5	-59.6735	0.0000000E+000	0.0000000E+000	0.0000000E+000	59.6735	0.0000000E+000	0.0000000E+000	0.0000000E+000	-59.6735	0.0000000E+000	0.0000000E+000	0.0000000E+000	-30.3265	0.0000000E+000	0.0000000E+000	0.0000000E+000	30.3265	1.70948	59.6735	-5.55549e-07	-4.20851e-07	-3.09962e-10	-4.20541e-07	0.181086	78033.9	57.4729	77976.5
316.316	10.3187	6.75653	12.3339	-33.2162	7.90508	0.181213	-0.00424895	74.469	22.347	1	10	0.00506721	0.000410835	0	-1.65807e-05	0.000152569	7.55648e-06	-108.57	0.018393	-0.00585752	0.0174353	-33.2989	12.3386	10.3128	6.77396	0.0678299	0.0444141	0.0810772	33.2162	22347	34128.7	40794.1	-56.7838	0.0000000E+000	0.0000000E+000	0.0000000E+000	56.7838	0.0000000E+000	0.0000000E+000	0.0000000E+000	-56.7838	0.0000000E+000	0.0000000E+000	0.0000000E+000	-33.2162	0.0000000E+000	0.0000000E+000	0.0000000E+000	33.2162	1.52722	56.7838	-1.86497e-07	-7.69964e-07	-6.48257e-10	-7.69315e-07	0.18106	42648.7	35.9073	42612.8
215.345	12.0374	8.40158	14.6794	-34.9134	8.35453	0.181224	-0.00276951	87.9681	28.8157	1	10	0.00506836	0.00034527	0	-1.65853e-05	0.000171667	3.5201e-06	73.1676	0.0101952	0.00295226	-0.0097584	-34.8756	14.6763	12.0403	8.39183	0.0558618	0.0389891	0.0681226	34.9134	28815.7	41285.8	50347.4	-55.0866	0.0000000E+000	0.0000000E+000	0.0000000E+000	55.0866	0.0000000E+000	0.0000000E+000	0.0000000E+000	-55.0866	0.0000000E+000	0.0000000E+000	0.0000000E+000	-34.9134	0.0000000E+000	0.0000000E+000	0.0000000E+000	34.9134	1.43275	55.0866	-4.641e-09	-5.01904e-07	-4.75433e-10	-5.01428e-07	0.181053	65435.4	61.9844	65373.4
146.737	14.39	10.2302	17.6559	-35.4099	8.80051	0.181238	-0.00212482	106.022	35.5946	1	10	0.00505756	0.000286452	0	-1.64298e-05	-0.000153	5.54318e-06	-111.742	0.0193512	-0.00716816	0.0179746	-35.4709	17.6605	14.3829	10.2482	0.0461619	0.0328175	0.0566384	35.4099	35594.6	50068.3	61431.4	-54.5901	0.0000000E+000	0.0000000E+000	0.0000000E+000	54.5901	0.0000000E+000	0.0000000E+000	0.0000000E+000	-54.5901	0.0000000E+000	0.0000000E+000	0.0000000E+000	-35.4099	0.0000000E+000	0.0000000E+000	0.0000000E+000	35.4099	1.40662	54.5901	1.55518e-07	-3.85098e-07	3.25098e-10	-3.85423e-07	0.181391	85295.6	72.006	85367.6
100.032	17.678	11.8743	21.2958	-33.8892	9.2518	0.181228	-0.00239686	133.99	41.6582	1	10	0.00505317	0.000237284	0	-1.70168e-05	0.000381745	8.89031e-06	-65.9439	0.0374669	0.0152727	0.0342128	-33.9426	21.3276	17.6933	11.9085	0.0389803	0.026183	0.0469576	33.8892	41658.2	62019.2	74711.4	-56.1108	0.0000000E+000	0.0000000E+000	0.0000000E+000	56.1108	0.0000000E+000	0.0000000E+000	0.0000000E+000	-56.1108	0.0000000E+000	0.0000000E+000	0.0000000E+000	-33.8892	0.0000000E+000	0.0000000E+000	0.0000000E+000	33.8892	1.48876	56.1108	-5.87034e-07	-4.34379e-07	-9.1499e-10	-4.33464e-07	0.180847	75610.7	159.269	75451.4
68.104	21.8396	12.8404	25.3346	-30.4529	9.96542	0.181265	-0.00739599	182	46.7514	1	11	0.00507028	0.000200132	0	-1.81606e-05	0.000228961	5.50186e-06	-2.20951	0.0274911	0.0274707	0.00105988	-30.4235	25.3589	21.8671	12.8414	0.0340264	0.0200054	0.0394716	30.4529	46751.4	79517.6	92242.9	-59.5471	0.0000000E+000	0.0000000E+000	0.0000000E+000	59.5471	0.0000000E+000	0.0000000E+000	0.0000000E+000	-59.5471	0.0000000E+000	0.0000000E+000	0.0000000E+000	-30.4529	0.0000000E+000	0.0000000E+000	0.0000000E+000	30.4529	1.70086	59.5471	-1.14381e-06	-1.34064e-06	-1.69339e-09	-1.33894e-06	0.181037	24508.6	30.9574	24477.7
46.4415	26.159	12.6936	29.0761	-25.8849	10.4017	0.18128	-0.00744337	269.978	51.4548	1	11	0.00506163	0.000174082	0	-1.90367e-05	-0.000153	1.1664e-05	-6.04685	0.0670026	0.0666298	0.00705816	-25.8402	29.1391	26.2256	12.7006	0.030942	0.0150145	0.0343925	25.8849	51454.8	106038	117863	-64.1151	0.0000000E+000	0.0000000E+000	0.0000000E+000	64.1151	0.0000000E+000	0.0000000E+000	0.0000000E+000	-64.1151	0.0000000E+000	0.0000000E+000	0.0000000E+000	-25.8849	0.0000000E+000	0.0000000E+000	0.0000000E+000	25.8849	2.0608	64.1151	-8.76086e-07	-1.34933e-06	1.13884e-09	-1.35047e-06	0.181433	24354.6	20.5552	24375.1
31.6296	30.0841	11.5077	32.2099	-20.9328	10.8316	0.181263	-0.00745419	437.257	55.8132	1	11	0.00505551	0.000156955	0	-1.96921e-05	-5.75098e-05	1.27269e-05	89.4409	0.0810866	0.000791226	-0.0810827	-20.7975	32.1818	30.0849	11.4267	0.0289973	0.011092	0.0310463	20.9328	55813.2	145910	156220	-69.0672	0.0000000E+000	0.0000000E+000	0.0000000E+000	69.0672	0.0000000E+000	0.0000000E+000	0.0000000E+000	-69.0672	0.0000000E+000	0.0000000E+000	0.0000000E+000	-20.9328	0.0000000E+000	0.0000000E+000	0.0000000E+000	20.9328	2.61425	69.0672	-6.55402e-07	-1.35117e-06	4.28689e-10	-1.3516e-06	0.181321	24316.9	7.71509	24324.6
21.5517	33.1729	9.64248	34.5458	-16.2078	11.2525	0.181262	-0.00776719	765.86	59.6671	1	11	0.00505696	0.000146384	0	-2.06008e-05	-3.84117e-05	9.32324e-06	-23.5063	0.0636903	0.058405	0.0254029	-16.2212	34.609	33.2313	9.66788	0.0277966	0.00807973	0.028947	16.2078	59667.1	205272	213768	-73.7922	0.0000000E+000	0.0000000E+000	0.0000000E+000	73.7922	0.0000000E+000	0.0000000E+000	0.0000000E+000	-73.7922	0.0000000E+000	0.0000000E+000	0.0000000E+000	-16.2078	0.0000000E+000	0.0000000E+000	0.0000000E+000	16.2078	3.44028	73.7922	-9.08663e-07	-1.4079e-06	2.98351e-10	-1.4082e-06	0.1813	23336.9	4.94538	23341.8
14.6852	35.3225	7.58031	36.1267	-12.1122	11.7131	0.181263	-0.00685245	1429.73	62.9467	1	11	0.0050564	0.000139963	0	-2.17402e-05	1.88824e-05	9.56101e-06	15.9587	0.068311	0.0656783	-0.0187817	-12.0613	36.187	35.3881	7.56153	0.0270642	0.00580806	0.0276804	12.1122	62946.7	293316	299995	-77.8878	0.0000000E+000	0.0000000E+000	0.0000000E+000	77.8878	0.0000000E+000	0.0000000E+000	0.0000000E+000	-77.8878	0.0000000E+000	0.0000000E+000	0.0000000E+000	-12.1122	0.0000000E+000	0.0000000E+000	0.0000000E+000	12.1122	4.65976	77.8878	-1.13945e-06	-1.24209e-06	-1.29391e-10	-1.24197e-06	0.181244	26452.3	2.75557	26449.5
10.0032	36.6999	5.92216	37.1746	-9.16666	12.1638	0.181275	-0.00680954	2686.59	68.1819	1	11	0.00505514	0.000135984	0	-2.32135e-05	-5.75098e-05	7.32969e-06	-14.4313	0.0539013	0.0522005	0.0134332	-9.17427	37.2283	36.7521	5.9356	0.0265565	0.00428536	0.0269001	9.16666	68181.9	422525	427991	-80.8333	0.0000000E+000	0.0000000E+000	0.0000000E+000	80.8333	0.0000000E+000	0.0000000E+000	0.0000000E+000	-80.8333	0.0000000E+000	0.0000000E+000	0.0000000E+000	-9.16666	0.0000000E+000	0.0000000E+000	0.0000000E+000	9.16666	6.19703	80.8333	-1.47323e-06	-1.2344e-06	3.91615e-10	-1.23479e-06	0.181332	26620.7	8.44547	26629.1
6.81719	37.5795	4.52632	37.8511	-6.86799	12.5035	0.181268	-0.00733519	5157.86	73.7569	1	11	0.00505597	0.000133575	0	-2.37557e-05	-1.93137e-05	5.23881e-06	-125.16	0.0392199	-0.022585	0.0320643	-6.92029	37.8325	37.5569	4.55838	0.0262297	0.00315928	0.0264193	6.86799	73756.9	612362	616788	-83.132	0.0000000E+000	0.0000000E+000	0.0000000E+000	83.132	0.0000000E+000	0.0000000E+000	0.0000000E+000	-83.132	0.0000000E+000	0.0000000E+000	0.0000000E+000	-6.86799	0.0000000E+000	0.0000000E+000	0.0000000E+000	6.86799	8.30245	83.132	-5.42224e-07	-1.32963e-06	1.41669e-10	-1.32977e-06	0.181287	24712.1	2.63302	24714.7
4.63925	38.1031	3.46586	38.2604	-5.19733	12.9874	0.181266	-0.00655624	9898.3	81.224	1	11	0.00505465	0.000132112	0	-2.32356e-05	-0.000153	6.48407e-06	-14.4994	0.0490802	0.047517	0.0122882	-5.2092	38.3088	38.1506	3.47815	0.0260292	0.00236762	0.0261367	5.19733	81224	892963	896649	-84.8027	0.0000000E+000	0.0000000E+000	0.0000000E+000	84.8027	0.0000000E+000	0.0000000E+000	0.0000000E+000	-84.8027	0.0000000E+000	0.0000000E+000	0.0000000E+000	-5.19733	0.0000000E+000	0.0000000E+000	0.0000000E+000	5.19733	10.9938	84.8027	5.20045e-07	-1.18843e-06	1.0031e-09	-1.18943e-06	0.181419	27647.9	23.3366	27671.3
3.1604	38.4927	2.80243	38.5946	-4.16402	13.6804	0.181264	-0.00611006	17969.9	94.7458	1	11	0.00505108	0.000130875	0	-2.48415e-05	0.000171667	7.33702e-06	26.9678	0.0560611	0.0499651	-0.0254231	-4.12104	38.6426	38.5427	2.777	0.025842	0.0018814	0.0259104	4.16402	94745.8	1.30138e+06	1.30482e+06	-85.836	0.0000000E+000	0.0000000E+000	0.0000000E+000	85.836	0.0000000E+000	0.0000000E+000	0.0000000E+000	-85.836	0.0000000E+000	0.0000000E+000	0.0000000E+000	-4.16402	0.0000000E+000	0.0000000E+000	0.0000000E+000	4.16402	13.7355	85.836	-1.60591e-06	-1.10753e-06	-1.04889e-09	-1.10648e-06	0.181092	29666.4	28.0958	29638.3
2.15577	38.8017	2.36489	38.8737	-3.48775	14.684	0.181289	-0.00485909	31218.1	115.536	1	11	0.00505398	0.00013001	0	-2.84992e-05	1.88824e-05	4.05757e-06	24.0684	0.0312096	0.0284963	-0.0127281	-3.46649	38.9014	38.8302	2.35216	0.0256767	0.00156494	0.0257243	3.48775	115536	1.89564e+06	1.89916e+06	-86.5122	0.0000000E+000	0.0000000E+000	0.0000000E+000	86.5122	0.0000000E+000	0.0000000E+000	0.0000000E+000	-86.5122	0.0000000E+000	0.0000000E+000	0.0000000E+000	-3.48775	0.0000000E+000	0.0000000E+000	0.0000000E+000	3.48775	16.4074	86.5122	-3.65761e-06	-8.80898e-07	-9.17512e-11	-8.80807e-07	0.18127	37309.2	3.88599	37305.3
1.46631	39.0754	2.12345	39.133	-3.11054	16.8725	0.181296	-0.0044997	51115.4	150.505	1	12	0.00505631	0.000129208	0	-3.32286e-05	0.000267157	2.54294e-06	-74.8632	0.0196809	0.00513919	0.0189981	-3.1379	39.1392	39.0805	2.14245	0.0255162	0.00138662	0.0255539	3.11054	150505	2.76956e+06	2.77365e+06	-86.8895	0.0000000E+000	0.0000000E+000	0.0000000E+000	86.8895	0.0000000E+000	0.0000000E+000	0.0000000E+000	-86.8895	0.0000000E+000	0.0000000E+000	0.0000000E+000	-3.11054	0.0000000E+000	0.0000000E+000	0.0000000E+000	3.11054	18.4018	86.8895	-4.72949e-06	-8.15778e-07	-1.20213e-09	-8.14576e-07	0.181029	40290.6	59.3721	40231.2
1.00006	39.3656	2.11838	39.4226	-3.08028	19.0006	0.181287	-0.00482211	75125.8	216.923	1	12	0.00505771	0.000128295	0	-3.38815e-05	-1.93137e-05	2.42472e-06	40.0317	0.0188996	0.0144712	-0.0121564	-3.06151	39.4364	39.3801	2.10622	0.0253295	0.00136305	0.0253662	3.08028	216923	4.03106e+06	4.0369e+06	-86.9197	0.0000000E+000	0.0000000E+000	0.0000000E+000	86.9197	0.0000000E+000	0.0000000E+000	0.0000000E+000	-86.9197	0.0000000E+000	0.0000000E+000	0.0000000E+000	-3.08028	0.0000000E+000	0.0000000E+000	0.0000000E+000	3.08028	18.5829	86.9197	-6.52885e-07	-8.74184e-07	9.31327e-11	-8.74277e-07	0.181306	37594.9	4.00524	37598.9
0.681362	39.6524	2.23621	39.7154	-3.22779	22.1108	0.181285	-0.00476444	104455	331.159	1	12	0.00505247	0.000127217	0	-3.25888e-05	-3.84117e-05	1.92797e-06	7.90866	0.015155	0.0150109	-0.00208524	-3.22357	39.7303	39.6674	2.23412	0.0251392	0.00141773	0.0251791	3.22779	331158	5.8721e+06	5.88143e+06	-86.7722	0.0000000E+000	0.0000000E+000	0.0000000E+000	86.7722	0.0000000E+000	0.0000000E+000	0.0000000E+000	-86.7722	0.0000000E+000	0.0000000E+000	0.0000000E+000	-3.22779	0.0000000E+000	0.0000000E+000	0.0000000E+000	3.22779	17.732	86.7722	1.29268e-06	-8.63719e-07	1.8301e-10	-8.63902e-07	0.181323	38049.5	8.06217	38057.6
0.464091	39.9928	2.50906	40.0715	-3.58991	26.6675	0.181269	-0.00427133	136680	535.869	1	12	0.00505602	0.000126175	0	-3.10003e-05	-2.15648e-07	1.04812e-05	32.6333	0.083069	0.0699557	-0.0447958	-3.51984	40.1385	40.0628	2.46427	0.0249064	0.00156258	0.0249554	3.58991	535869	8.5414e+06	8.5582e+06	-86.4101	0.0000000E+000	0.0000000E+000	0.0000000E+000	86.4101	0.0000000E+000	0.0000000E+000	0.0000000E+000	-86.4101	0.0000000E+000	0.0000000E+000	0.0000000E+000	-3.58991	0.0000000E+000	0.0000000E+000	0.0000000E+000	3.58991	15.9394	86.4101	1.58853e-06	-7.7426e-07	9.21105e-13	-7.74261e-07	0.18127	42438.6	0.0504875	42438.7
0.316193	40.4821	2.77624	40.5772	-3.92318	33.342	0.181293	-0.00274326	181305	848.714	1	12	0.0050574	0.000124637	0	-3.28909e-05	9.52745e-05	2.75467e-06	-22.8235	0.0221016	0.0203712	0.00857308	-3.93328	40.5981	40.5025	2.78482	0.0245866	0.00168614	0.0246444	3.92318	848714	1.23756e+07	1.24047e+07	-86.0768	0.0000000E+000	0.0000000E+000	0.0000000E+000	86.0768	0.0000000E+000	0.0000000E+000	0.0000000E+000	-86.0768	0.0000000E+000	0.0000000E+000	0.0000000E+000	-3.92318	0.0000000E+000	0.0000000E+000	0.0000000E+000	3.92318	14.5816	86.0768	-1.8906e-06	-4.97334e-07	-2.61362e-10	-4.97073e-07	0.181198	66087	34.7305	66052.2
0.215268	40.9494	3.34483	41.0858	-4.66966	43.1354	0.181274	-0.00221657	221038	1464.98	1	12	0.00504838	0.000122874	0	-4.4723e-05	7.61765e-05	1.4415e-06	106.78	0.0117315	-0.00338678	-0.011232	-4.65443	41.0815	40.946	3.33359	0.0242585	0.00198148	0.0243393	4.66966	1.46498e+06	1.79352e+07	1.79949e+07	-85.3303	0.0000000E+000	0.0000000E+000	0.0000000E+000	85.3303	0.0000000E+000	0.0000000E+000	0.0000000E+000	-85.3303	0.0000000E+000	0.0000000E+000	0.0000000E+000	-4.66966	0.0000000E+000	0.0000000E+000	0.0000000E+000	4.66966	12.2426	85.3303	-1.1832e-05	-4.01806e-07	-1.68851e-10	-4.01637e-07	0.181197	81781.1	34.3668	81746.7
0.146929	41.4559	4.05812	41.6541	-5.59086	57.4738	0.181282	-0.00134896	266925	2533.51	1	12	0.0050576	0.000121419	0	-7.11805e-05	0.000114373	2.10771e-06	-18.7422	0.017359	0.0164385	0.00557763	-5.5963	41.671	41.4724	4.06369	0.023893	0.00233889	0.0240073	5.59086	2.53351e+06	2.58812e+07	2.60049e+07	-84.4091	0.0000000E+000	0.0000000E+000	0.0000000E+000	84.4091	0.0000000E+000	0.0000000E+000	0.0000000E+000	-84.4091	0.0000000E+000	0.0000000E+000	0.0000000E+000	-5.59086	0.0000000E+000	0.0000000E+000	0.0000000E+000	5.59086	10.2156	84.4091	-2.64575e-05	-2.44542e-07	-1.54284e-10	-2.44387e-07	0.181168	134387	84.786	134302
0.0999041	42.0758	5.01623	42.3738	-6.79865	78.5499	0.181283	-0.00133429	317585	4450.61	1	12	0.00505422	0.000119277	0	-0.000113185	-7.66078e-05	2.6884e-06	-30.8474	0.0225391	0.0193506	0.011557	-6.81106	42.3944	42.0952	5.02779	0.0234336	0.00279372	0.0235995	6.79865	4.45061e+06	3.73315e+07	3.75958e+07	-83.2014	0.0000000E+000	0.0000000E+000	0.0000000E+000	83.2014	0.0000000E+000	0.0000000E+000	0.0000000E+000	-83.2014	0.0000000E+000	0.0000000E+000	0.0000000E+000	-6.79865	0.0000000E+000	0.0000000E+000	0.0000000E+000	6.79865	8.38794	83.2014	-4.20047e-05	-2.41885e-07	1.02217e-10	-2.41987e-07	0.18136	135864	57.4145	135922
0.0680626	42.9102	6.36221	43.3793	-8.4337	109.477	0.181283	-0.00165578	367539	7905.97	1	12	0.00505552	0.000116542	0	-0.000161307	0.000248059	2.12195e-06	-44.7655	0.0182076	0.0129273	0.0128219	-8.44794	43.3939	42.9231	6.37503	0.0228032	0.00338099	0.0230525	8.4337	7.90597e+06	5.33221e+07	5.3905e+07	-81.5663	0.0000000E+000	0.0000000E+000	0.0000000E+000	81.5663	0.0000000E+000	0.0000000E+000	0.0000000E+000	-81.5663	0.0000000E+000	0.0000000E+000	0.0000000E+000	-8.4337	0.0000000E+000	0.0000000E+000	0.0000000E+000	8.4337	6.74454	81.5663	-4.81219e-05	-3.00164e-07	-4.1073e-10	-2.99753e-07	0.181035	109485	149.814	109335
0.0464052	43.9714	8.37226	44.7614	-10.7802	154.829	0.18128	-0.00185389	409648	14331.4	1	12	0.00505569	0.000112948	0	-0.000197055	-7.66078e-05	2.21152e-06	65.0538	0.0195801	0.00825824	-0.0177533	-10.7559	44.7662	43.9797	8.35451	0.0219464	0.00417865	0.0223407	10.7802	1.43314e+07	7.52692e+07	7.66214e+07	-79.2198	0.0000000E+000	0.0000000E+000	0.0000000E+000	79.2198	0.0000000E+000	0.0000000E+000	0.0000000E+000	-79.2198	0.0000000E+000	0.0000000E+000	0.0000000E+000	-10.7802	0.0000000E+000	0.0000000E+000	0.0000000E+000	10.7802	5.25203	79.2198	-3.57483e-05	-3.36073e-07	1.42022e-10	-3.36215e-07	0.181357	97783.7	41.3228	97825.1
0.0315922	44.9818	11.1196	46.3358	-13.8853	221.434	0.181274	-0.00160444	453056	26091.3	1	12	0.00506043	0.000109212	0	-0.000177126	0.000209863	1.15595e-06	-30.3472	0.0105845	0.00913417	0.00534767	-13.889	46.346	44.9909	11.1249	0.0209509	0.00517911	0.0215816	13.8853	2.60913e+07	1.05546e+08	1.08724e+08	-76.1147	0.0000000E+000	0.0000000E+000	0.0000000E+000	76.1147	0.0000000E+000	0.0000000E+000	0.0000000E+000	-76.1147	0.0000000E+000	0.0000000E+000	0.0000000E+000	-13.8853	0.0000000E+000	0.0000000E+000	0.0000000E+000	13.8853	4.04528	76.1147	1.99298e-05	-2.90843e-07	-3.36712e-10	-2.90506e-07	0.181064	112983	130.801	112852
0.0215268	46.3846	14.4211	48.5747	-17.2706	319.173	0.181267	-0.000980144	512675	45187.7	1	12	0.00505964	0.000104162	0	-7.30211e-05	-9.57058e-05	9.99372e-07	38.0503	0.00959439	0.00755529	-0.00591354	-17.2613	48.5801	46.3922	14.4152	0.0196587	0.00611194	0.0205869	17.2706	4.51877e+07	1.45343e+08	1.52206e+08	-72.7294	0.0000000E+000	0.0000000E+000	0.0000000E+000	72.7294	0.0000000E+000	0.0000000E+000	0.0000000E+000	-72.7294	0.0000000E+000	0.0000000E+000	0.0000000E+000	-17.2706	0.0000000E+000	0.0000000E+000	0.0000000E+000	17.2706	3.21643	72.7294	0.000104105	-1.77667e-07	9.38055e-11	-1.77761e-07	0.181362	184939	97.6447	185036
0.0146812	48.8568	18.9018	52.3858	-21.1505	462.475	0.181264	-0.000382188	573530	74668.2	1	12	0.00505519	9.64992e-05	0	8.78841e-05	-5.75098e-05	1.32565e-06	-26.1673	0.0137374	0.0123294	0.00605809	-21.1518	52.3995	48.8692	18.9079	0.0178032	0.00688773	0.0190892	21.1505	7.46682e+07	1.93e+08	2.06941e+08	-68.8495	0.0000000E+000	0.0000000E+000	0.0000000E+000	68.8495	0.0000000E+000	0.0000000E+000	0.0000000E+000	-68.8495	0.0000000E+000	0.0000000E+000	0.0000000E+000	-21.1505	0.0000000E+000	0.0000000E+000	0.0000000E+000	21.1505	2.58477	68.8495	0.000160905	-6.92768e-08	2.19795e-11	-6.92988e-08	0.181321	474278	150.475	474429
0.0100092	52.2552	25.2996	58.0575	-25.8342	672.657	0.181266	7.05638e-05	628504	119349	1	12	0.00506353	8.72157e-05	0	0.000197552	0.000190765	2.23572e-06	-11.9811	0.0256344	0.025076	0.00532144	-25.8281	58.0824	52.2803	25.3049	0.0155029	0.0075058	0.0172243	25.8342	1.19349e+08	2.4651e+08	2.73882e+08	-64.1658	0.0000000E+000	0.0000000E+000	0.0000000E+000	64.1658	0.0000000E+000	0.0000000E+000	0.0000000E+000	-64.1658	0.0000000E+000	0.0000000E+000	0.0000000E+000	-25.8342	0.0000000E+000	0.0000000E+000	0.0000000E+000	25.8342	2.06545	64.1658	0.000109668	1.27908e-08	1.34611e-11	1.27774e-08	0.181076	2.56883e+06	2703.44	2.56613e+06