File: txt/19155_R306_UA712_SOC00_C03.mpt
EC-Lab ASCII FILE
Nb header lines : 65

Potentio Electrochemical Impedance Spectroscopy

Run on channel : 3 (SN 65921)
Grouped channel(s) : 1, 2, 3, 4
User :
CE vs. WE compliance from -10 V to 10 V
Electrode connection : standard
Potential control : Ewe
Ewe ctrl range : min = -10.00 V, max = 10.00 V
Safety Limits :
	Do not start on E overload
Acquisition started on : 11/12/2025 13:00:33.882
Loaded Setting File :  C:\Users\Celltest\OneDrive - store-dot.com\Documents\EC-Lab\Data\@Biologic Test Protocols\anode half cell EIS SOC00.mps
Saved on :
	File : 19153_R306_UA712_SOC00_C03.mpr
	Directory : C:\Users\Celltest\OneDrive - store-dot.com\Documents\EC-Lab\Data\Charmaine\
	Host : 169.254.61.224
Device : VMP-3e (SN .003165)
Address : USB
EC-LAB for windows v11.62 (software)
Internet server v27.00 (firmware)
Command interpretor v12.03 (firmware)
Electrode material :
Initial state :
Electrolyte :
Comments :
Electrode surface area : 0.001 cm²
Characteristic mass : 0.001 g
Equivalent Weight : 0.000 g/eq.
Density : 0.000 g/cm3
Volume (V) : 0.001 cm³
Record Ece
Cycle Definition : Charge/Discharge alternance
Mode                Single sine
E (V)               0.0000
vs.                 Eoc
tE (h:m:s)          0:00:0.0000
record              0
dI                  0.000
unit dI             mA
dt (s)              0.000
fi                  100.000
unit fi             kHz
ff                  10.000
unit ff             mHz
Nd                  6
Points              per decade
spacing             Logarithmic
Va (mV)             5.0
pw                  0.10
Na                  2
corr                0
E range min (V)     -10.000
E range max (V)     10.000
I Range             Auto
Bandwidth           5
nc cycles           0
goto Ns'            0
nr cycles           0
inc. cycle          0

freq/Hz	Re(Z)/Ohm	-Im(Z)/Ohm	|Z|/Ohm	Phase(Z)/deg	time/s	<Ewe>/V	<I>/mA	Cs/µF	Cp/µF	cycle number	I Range	|Ewe|/V	|I|/A	Ns	(Q-Qo)/mA.h	<Ece>/V	|Ece|/V	Phase(Zce)/deg	|Zce|/Ohm	Re(Zce)/Ohm	-Im(Zce)/Ohm	Phase(Zwe-ce)/deg	|Zwe-ce|/Ohm	Re(Zwe-ce)/Ohm	-Im(Zwe-ce)/Ohm	Re(Y)/Ohm-1	Im(Y)/Ohm-1	|Y|/Ohm-1	Phase(Y)/deg	Re(C)/nF	Im(C)/nF	|C|/nF	Phase(C)/deg	Re(M)	Im(M)	|M|	Phase(M)/deg	Re(Permittivity)	Im(Permittivity)	|Permittivity|	Phase(Permittivity)/deg	Re(Resistivity)/Ohm.cm	Im(Resistivity)/Ohm.cm	|Resistivity|/Ohm.cm	Phase(Resistivity)/deg	Re(Conductivity)/mS/cm	Im(Conductivity)/mS/cm	|Conductivity|/mS/cm	Phase(Conductivity)/deg	Tan(Delta)	Loss Angle(Delta)/deg	dq/mA.h	Pwe/W	Pce/W	Pwe-ce/W	<Ewe-Ece>/V	Rwe/Ohm	Rce/Ohm	Rwe-ce/Ohm		Ewe-Ece/V
100004	2.05202	0.855933	2.22338	-22.6419	1.91052	0.285356	-0.00552587	1.85936	0.275561	1	9	0.00453969	0.0020418	0	-4.05376e-06	2.13995e-05	2.56679e-05	95.7976	0.0125712	-0.00126987	-0.0125069	-22.3562	2.21742	2.05075	0.843427	0.415102	0.173147	0.449766	22.6419	275.561	660.631	715.799	-67.3581	0.0000000E+000	0.0000000E+000	0.0000000E+000	67.3581	0.0000000E+000	0.0000000E+000	0.0000000E+000	-67.3581	0.0000000E+000	0.0000000E+000	0.0000000E+000	-22.6419	0.0000000E+000	0.0000000E+000	0.0000000E+000	22.6419	2.39741	67.3581	-4.05376e-06	-1.57684e-06	-1.18251e-10	-1.57672e-06	0.285334	51639.9	3.87261	51636
68132	2.29731	0.988177	2.50082	-23.2748	2.41952	0.285372	-0.00384766	2.36393	0.369095	1	9	0.00508128	0.00203185	0	-9.79504e-06	-0.000169541	2.85931e-05	82.2472	0.0140725	0.00189836	-0.0139438	-22.9637	2.49709	2.2992	0.974233	0.367328	0.158005	0.399869	23.2748	369.095	858.069	934.084	-66.7252	0.0000000E+000	0.0000000E+000	0.0000000E+000	66.7252	0.0000000E+000	0.0000000E+000	0.0000000E+000	-66.7252	0.0000000E+000	0.0000000E+000	0.0000000E+000	-23.2748	0.0000000E+000	0.0000000E+000	0.0000000E+000	23.2748	2.32479	66.7252	-5.74128e-06	-1.09801e-06	6.52336e-10	-1.09867e-06	0.285542	74167.8	44.0635	74211.9
46420.4	2.60188	1.11082	2.82908	-23.119	2.92652	0.28535	-0.00164734	3.08652	0.475844	1	9	0.00516221	0.0018247	0	2.21575e-06	4.04936e-05	1.75087e-05	39.3588	0.00959539	0.00741906	-0.00608516	-22.947	2.83352	2.60929	1.10473	0.325085	0.138788	0.353472	23.119	475.844	1114.57	1211.9	-66.881	0.0000000E+000	0.0000000E+000	0.0000000E+000	66.881	0.0000000E+000	0.0000000E+000	0.0000000E+000	-66.881	0.0000000E+000	0.0000000E+000	0.0000000E+000	-23.119	0.0000000E+000	0.0000000E+000	0.0000000E+000	23.119	2.34231	66.881	1.20108e-05	-4.70069e-07	-6.67069e-11	-4.70002e-07	0.285309	173218	24.5811	173194
31621.1	2.89527	1.20402	3.13564	-22.5803	3.30953	0.285359	0.00480444	4.18032	0.616343	1	9	0.00531686	0.00169562	0	8.07265e-06	-0.000112259	8.02754e-06	-51.2829	0.00473428	0.00296118	0.00369389	-22.6218	3.1398	2.89823	1.20771	0.294466	0.122456	0.318914	22.5803	616.343	1482.1	1605.15	-67.4197	0.0000000E+000	0.0000000E+000	0.0000000E+000	67.4197	0.0000000E+000	0.0000000E+000	0.0000000E+000	-67.4197	0.0000000E+000	0.0000000E+000	0.0000000E+000	-22.5803	0.0000000E+000	0.0000000E+000	0.0000000E+000	22.5803	2.40467	67.4197	5.8569e-06	1.37099e-06	-5.39341e-10	1.37153e-06	0.285471	59394.8	23.3657	59418.2
21544.7	3.21954	1.29273	3.46938	-21.8767	3.69256	0.285346	-0.00362392	5.71443	0.793383	1	9	0.00492704	0.00142015	0	7.34627e-06	-0.000360482	5.46382e-06	109.608	0.00384735	-0.00129108	-0.00362426	-21.8291	3.46683	3.21825	1.2891	0.267479	0.1074	0.288236	21.8767	793.383	1975.92	2129.26	-68.1233	0.0000000E+000	0.0000000E+000	0.0000000E+000	68.1233	0.0000000E+000	0.0000000E+000	0.0000000E+000	-68.1233	0.0000000E+000	0.0000000E+000	0.0000000E+000	-21.8767	0.0000000E+000	0.0000000E+000	0.0000000E+000	21.8767	2.49051	68.1233	-7.26375e-07	-1.03407e-06	1.30636e-09	-1.03538e-06	0.285707	78739.7	99.4728	78839.1
14678.6	3.54495	1.3592	3.79659	-20.9777	4.07753	0.285356	-0.00560048	7.97724	1.02242	1	9	0.0048673	0.00128202	0	4.9983e-06	-3.58827e-05	1.65965e-05	0.885367	0.0129456	0.0129441	-0.000200035	-20.9052	3.80861	3.5579	1.359	0.245936	0.0942964	0.263394	20.9777	1022.42	2666.6	2855.89	-69.0223	0.0000000E+000	0.0000000E+000	0.0000000E+000	69.0223	0.0000000E+000	0.0000000E+000	0.0000000E+000	-69.0223	0.0000000E+000	0.0000000E+000	0.0000000E+000	-20.9777	0.0000000E+000	0.0000000E+000	0.0000000E+000	20.9777	2.60812	69.0223	-2.34797e-06	-1.59813e-06	2.0096e-10	-1.59833e-06	0.285392	50952	6.40706	50958.4
10002.2	3.87031	1.41607	4.12123	-20.0965	4.33654	0.285337	-0.00940443	11.2367	1.32664	1	9	0.00460431	0.00111722	0	4.91739e-06	-0.000284106	6.2092e-06	-17.393	0.00555774	0.00530362	0.00166134	-20.0929	4.12679	3.87562	1.41773	0.227872	0.0833738	0.242646	20.0965	1326.64	3625.89	3860.97	-69.9035	0.0000000E+000	0.0000000E+000	0.0000000E+000	69.9035	0.0000000E+000	0.0000000E+000	0.0000000E+000	-69.9035	0.0000000E+000	0.0000000E+000	0.0000000E+000	-20.0965	0.0000000E+000	0.0000000E+000	0.0000000E+000	20.0965	2.73314	69.9035	-8.09132e-08	-2.68344e-06	2.67185e-09	-2.68611e-06	0.285622	30340.7	30.2098	30371
6810.42	4.16428	1.50945	4.42941	-19.9244	4.87454	0.285391	-0.0208898	15.482	1.79793	1	10	0.00506308	0.00114306	0	2.37307e-06	-0.000207729	2.52588e-05	100.722	0.0220975	-0.00411104	-0.0217117	-19.6778	4.41819	4.16017	1.48774	0.21225	0.0769356	0.225764	19.9244	1797.93	4960.15	5275.95	-70.0756	0.0000000E+000	0.0000000E+000	0.0000000E+000	70.0756	0.0000000E+000	0.0000000E+000	0.0000000E+000	-70.0756	0.0000000E+000	0.0000000E+000	0.0000000E+000	-19.9244	0.0000000E+000	0.0000000E+000	0.0000000E+000	19.9244	2.7588	70.0756	-2.54432e-06	-5.96178e-06	4.33943e-09	-5.96611e-06	0.285599	13661.8	9.94404	13671.7
4646	4.48288	1.61317	4.7643	-19.7914	5.1396	0.285374	-0.0285191	21.2354	2.43458	1	10	0.00504712	0.00105936	0	1.17195e-06	-0.000570517	1.81619e-05	-4.33227	0.0171441	0.0170951	0.00129507	-19.7366	4.78082	4.49997	1.61447	0.197497	0.0710695	0.209895	19.7914	2434.58	6765.5	7190.22	-70.2086	0.0000000E+000	0.0000000E+000	0.0000000E+000	70.2086	0.0000000E+000	0.0000000E+000	0.0000000E+000	-70.2086	0.0000000E+000	0.0000000E+000	0.0000000E+000	-19.7914	0.0000000E+000	0.0000000E+000	0.0000000E+000	19.7914	2.77892	70.2086	-1.20112e-06	-8.13862e-06	1.62706e-08	-8.15489e-06	0.285945	10006.4	20.0047	10026.4
3163.08	4.85224	1.77521	5.16678	-20.0952	5.51363	0.285283	-0.0243614	28.3439	3.34595	1	10	0.00500819	0.000969305	0	-1.17007e-06	0.00021234	8.72983e-06	44.0732	0.00900628	0.00647057	-0.00626456	-20.0054	5.17071	4.85871	1.76895	0.181762	0.0664982	0.193544	20.0952	3345.95	9145.6	9738.45	-69.9048	0.0000000E+000	0.0000000E+000	0.0000000E+000	69.9048	0.0000000E+000	0.0000000E+000	0.0000000E+000	-69.9048	0.0000000E+000	0.0000000E+000	0.0000000E+000	-20.0952	0.0000000E+000	0.0000000E+000	0.0000000E+000	20.0952	2.73333	69.9048	-2.34202e-06	-6.94989e-06	-5.17291e-09	-6.94472e-06	0.28507	11710.4	8.71625	11701.7
2155.69	5.26386	1.96887	5.62003	-20.5076	5.96483	0.28534	-0.00373696	37.4987	4.6023	1	10	0.00497192	0.000884679	0	-2.2365e-06	7.86817e-05	1.16422e-05	-35.2792	0.0131598	0.0107429	0.00760058	-20.5418	5.63275	5.2746	1.97648	0.166659	0.0623364	0.177935	20.5076	4602.3	12304.4	13137	-69.4924	0.0000000E+000	0.0000000E+000	0.0000000E+000	69.4924	0.0000000E+000	0.0000000E+000	0.0000000E+000	-69.4924	0.0000000E+000	0.0000000E+000	0.0000000E+000	-20.5076	0.0000000E+000	0.0000000E+000	0.0000000E+000	20.5076	2.67354	69.4924	-1.06643e-06	-1.06631e-06	-2.9403e-10	-1.06601e-06	0.285262	76356.3	21.055	76335.2
1468.59	5.68995	2.20305	6.10156	-21.1655	6.41606	0.285347	-0.00257728	49.1921	6.41302	1	10	0.00492242	0.000806748	0	-2.46693e-06	-0.000245917	9.66298e-06	63.6917	0.0119777	0.00530852	-0.0107371	-21.0535	6.10264	5.69526	2.19231	0.152837	0.0591757	0.163893	21.1655	6413.02	16563.3	17761.5	-68.8345	0.0000000E+000	0.0000000E+000	0.0000000E+000	68.8345	0.0000000E+000	0.0000000E+000	0.0000000E+000	-68.8345	0.0000000E+000	0.0000000E+000	0.0000000E+000	-21.1655	0.0000000E+000	0.0000000E+000	0.0000000E+000	21.1655	2.58276	68.8345	-2.30428e-07	-7.3542e-07	6.33798e-10	-7.36054e-07	0.285593	110716	95.4174	110812
1000.32	6.19092	2.48128	6.66965	-21.8406	6.86681	0.285354	-0.00222677	64.1216	8.87465	1	10	0.00490167	0.000734922	0	-2.19823e-06	2.30547e-06	9.63598e-06	-3.89052	0.0131116	0.0130814	0.000889624	-21.806	6.68213	6.204	2.48217	0.139171	0.0557789	0.149933	21.8406	8874.65	22142.7	23854.9	-68.1594	0.0000000E+000	0.0000000E+000	0.0000000E+000	68.1594	0.0000000E+000	0.0000000E+000	0.0000000E+000	-68.1594	0.0000000E+000	0.0000000E+000	0.0000000E+000	-21.8406	0.0000000E+000	0.0000000E+000	0.0000000E+000	21.8406	2.49505	68.1594	2.68697e-07	-6.35419e-07	-5.13376e-12	-6.35414e-07	0.285352	128147	1.03534	128146
681.09	6.75041	2.83661	7.32218	-22.7928	7.31751	0.285358	-0.00201796	82.379	12.3633	1	10	0.00489139	0.000668024	0	-2.8252e-06	0.00011687	7.1214e-06	-124.716	0.0106604	-0.0060712	0.00876268	-22.8744	7.31999	6.74434	2.84537	0.125907	0.0529076	0.136571	22.7928	12363.3	29421.5	31913.6	-67.2072	0.0000000E+000	0.0000000E+000	0.0000000E+000	67.2072	0.0000000E+000	0.0000000E+000	0.0000000E+000	-67.2072	0.0000000E+000	0.0000000E+000	0.0000000E+000	-22.7928	0.0000000E+000	0.0000000E+000	0.0000000E+000	22.7928	2.37975	67.2072	-6.26965e-07	-5.7584e-07	-2.35838e-10	-5.75605e-07	0.285241	141409	57.915	141352
463.961	7.34382	3.29608	8.04959	-24.1717	7.76931	0.285349	-0.00371833	104.074	17.4498	1	10	0.00486913	0.000604891	0	-2.95113e-06	-9.31649e-05	1.00509e-05	18.8142	0.0166161	0.0157283	-0.00535869	-24.0912	8.06175	7.35955	3.29073	0.113338	0.0508687	0.12423	24.1717	17449.8	38878.9	42615.3	-65.8283	0.0000000E+000	0.0000000E+000	0.0000000E+000	65.8283	0.0000000E+000	0.0000000E+000	0.0000000E+000	-65.8283	0.0000000E+000	0.0000000E+000	0.0000000E+000	-24.1717	0.0000000E+000	0.0000000E+000	0.0000000E+000	24.1717	2.22804	65.8283	-1.2594e-07	-1.06102e-06	3.46417e-10	-1.06137e-06	0.285442	76741.2	25.0556	76766.3
316.316	8.07021	3.86955	8.94996	-25.6171	8.21708	0.285341	-0.00463937	130.028	24.3062	1	10	0.00486215	0.00054326	0	-3.70841e-06	-0.000284106	5.5822e-06	-26.3968	0.0102754	0.00920404	0.00456829	-25.618	8.96023	8.07942	3.87412	0.100749	0.048308	0.111732	25.6171	24306.2	50692.3	56218.3	-64.3829	0.0000000E+000	0.0000000E+000	0.0000000E+000	64.3829	0.0000000E+000	0.0000000E+000	0.0000000E+000	-64.3829	0.0000000E+000	0.0000000E+000	0.0000000E+000	-25.6171	0.0000000E+000	0.0000000E+000	0.0000000E+000	25.6171	2.08557	64.3829	-7.57279e-07	-1.3238e-06	1.31807e-09	-1.32512e-06	0.285625	61504.3	61.238	61565.5
215.345	8.99251	4.57923	10.0913	-26.9864	8.66757	0.285352	-0.00263323	161.396	33.2341	1	10	0.00486317	0.000481916	0	-3.68183e-06	-0.000207729	3.19715e-06	-43.4137	0.00663424	0.00481918	0.00455946	-26.9971	10.0977	8.99733	4.58379	0.0883051	0.0449674	0.0990952	26.9864	33234.1	65263.7	73238.4	-63.0136	0.0000000E+000	0.0000000E+000	0.0000000E+000	63.0136	0.0000000E+000	0.0000000E+000	0.0000000E+000	-63.0136	0.0000000E+000	0.0000000E+000	0.0000000E+000	-26.9864	0.0000000E+000	0.0000000E+000	0.0000000E+000	26.9864	1.96376	63.0136	2.65864e-08	-7.51396e-07	5.46998e-10	-7.51943e-07	0.28556	108366	78.8877	108445
146.737	10.1087	5.36159	11.4426	-27.9412	9.11353	0.28534	-0.00581024	202.295	44.4145	1	10	0.0048442	0.000423348	0	-3.66992e-06	0.000269622	1.13597e-05	-99.3681	0.0268329	-0.00436776	0.026475	-28.0684	11.4512	10.1043	5.38806	0.0772054	0.0409492	0.0873929	27.9412	44414.5	83738.9	94788.5	-62.0588	0.0000000E+000	0.0000000E+000	0.0000000E+000	62.0588	0.0000000E+000	0.0000000E+000	0.0000000E+000	-62.0588	0.0000000E+000	0.0000000E+000	0.0000000E+000	-27.9412	0.0000000E+000	0.0000000E+000	0.0000000E+000	27.9412	1.88539	62.0588	1.19052e-08	-1.65789e-06	-1.56657e-09	-1.65632e-06	0.28507	49109.8	46.4047	49063.4
100.032	11.6472	6.21388	13.2011	-28.0804	9.56481	0.285351	-0.00220814	256.046	56.7316	1	10	0.00485312	0.00036763	0	-4.50418e-06	-1.67886e-05	6.37653e-06	66.2844	0.017345	0.0069761	-0.0158802	-28.0053	13.1998	11.6541	6.198	0.0668345	0.0356569	0.0757514	28.0804	56731.6	106336	120523	-61.9196	0.0000000E+000	0.0000000E+000	0.0000000E+000	61.9196	0.0000000E+000	0.0000000E+000	0.0000000E+000	-61.9196	0.0000000E+000	0.0000000E+000	0.0000000E+000	-28.0804	0.0000000E+000	0.0000000E+000	0.0000000E+000	28.0804	1.87438	61.9196	-8.34254e-07	-6.30094e-07	3.70715e-11	-6.30131e-07	0.285368	129227	7.60306	129235
68.104	13.4827	6.90825	15.1495	-27.1297	10.0275	0.285361	-1.92841e-05	338.283	70.3429	1	10	0.00484947	0.000320108	0	-4.80345e-06	-0.000322294	5.89355e-06	70.607	0.0184111	0.00611333	-0.0173665	-27.0606	15.147	13.4888	6.89088	0.0587464	0.0301004	0.0660089	27.1297	70342.9	137287	154259	-62.8703	0.0000000E+000	0.0000000E+000	0.0000000E+000	62.8703	0.0000000E+000	0.0000000E+000	0.0000000E+000	-62.8703	0.0000000E+000	0.0000000E+000	0.0000000E+000	-27.1297	0.0000000E+000	0.0000000E+000	0.0000000E+000	27.1297	1.95168	62.8703	-2.99272e-07	-5.50292e-09	6.21514e-12	-5.50914e-09	0.285683	1.47977e+07	16712.9	1.48144e+07
46.4415	15.5892	7.37051	17.2437	-25.3046	10.4647	0.285335	-0.00683568	464.961	84.947	1	10	0.00484182	0.000280787	0	-5.53374e-06	0.000193246	7.38293e-06	-3.81371	0.0262937	0.0262355	0.00174887	-25.2727	17.2682	15.6154	7.37225	0.0524276	0.0247876	0.0579921	25.3046	84947	179669	198739	-64.6954	0.0000000E+000	0.0000000E+000	0.0000000E+000	64.6954	0.0000000E+000	0.0000000E+000	0.0000000E+000	-64.6954	0.0000000E+000	0.0000000E+000	0.0000000E+000	-25.3046	0.0000000E+000	0.0000000E+000	0.0000000E+000	25.3046	2.11507	64.6954	-7.30293e-07	-1.95046e-06	-1.32097e-09	-1.94914e-06	0.285142	41742.1	28.2702	41713.8
31.6296	17.8746	7.50069	19.3845	-22.7643	11.1296	0.28538	-0.00644828	670.851	100.442	1	11	0.00484932	0.000250164	0	-6.59559e-06	-0.000188635	6.80298e-06	-57.0037	0.0271941	0.0148095	0.0228078	-22.8095	19.407	17.8894	7.52349	0.047569	0.0199613	0.0515875	22.7643	100442	239360	259580	-67.2357	0.0000000E+000	0.0000000E+000	0.0000000E+000	67.2357	0.0000000E+000	0.0000000E+000	0.0000000E+000	-67.2357	0.0000000E+000	0.0000000E+000	0.0000000E+000	-22.7643	0.0000000E+000	0.0000000E+000	0.0000000E+000	22.7643	2.38306	67.2357	-1.06185e-06	-1.84021e-06	1.21637e-09	-1.84143e-06	0.285569	44256.8	29.2536	44286.1
21.5517	20.011	7.23373	21.2783	-19.8743	11.5505	0.285383	-0.00656276	1020.88	117.985	1	11	0.00483526	0.000227239	0	-7.23212e-06	-0.000360482	5.33124e-06	23.0704	0.0234609	0.0215846	-0.00919343	-19.8313	21.2955	20.0326	7.22453	0.0441972	0.0159767	0.0469962	19.8743	117985	326387	347057	-70.1257	0.0000000E+000	0.0000000E+000	0.0000000E+000	70.1257	0.0000000E+000	0.0000000E+000	0.0000000E+000	-70.1257	0.0000000E+000	0.0000000E+000	0.0000000E+000	-19.8743	0.0000000E+000	0.0000000E+000	0.0000000E+000	19.8743	2.76634	70.1257	-6.3653e-07	-1.8729e-06	2.36576e-09	-1.87527e-06	0.285744	43485.3	54.9284	43540.2
14.6852	22.0084	6.74753	23.0195	-17.045	12.0102	0.28539	-0.00571292	1606.19	138.005	1	11	0.0048436	0.000210413	0	-7.1297e-06	0.000135964	8.86507e-06	101.066	0.0421318	-0.00808674	-0.0413484	-16.9524	22.9997	22.0003	6.70618	0.0415332	0.0127336	0.0434414	17.045	138005	450129	470810	-72.955	0.0000000E+000	0.0000000E+000	0.0000000E+000	72.955	0.0000000E+000	0.0000000E+000	0.0000000E+000	-72.955	0.0000000E+000	0.0000000E+000	0.0000000E+000	-17.045	0.0000000E+000	0.0000000E+000	0.0000000E+000	17.045	3.2617	72.955	1.02424e-07	-1.63041e-06	-7.76751e-10	-1.62963e-06	0.285254	49955.3	23.7994	49931.5
10.0032	23.7652	6.08775	24.5326	-14.3681	12.4608	0.285382	-0.0058233	2613.51	160.936	1	11	0.00485034	0.00019771	0	-7.73181e-06	-0.000265011	8.36845e-06	88.8542	0.0423268	0.000846397	-0.0423184	-14.2718	24.5229	23.7661	6.04543	0.0394872	0.0101151	0.0407622	14.3681	160936	628257	648542	-75.6319	0.0000000E+000	0.0000000E+000	0.0000000E+000	75.6319	0.0000000E+000	0.0000000E+000	0.0000000E+000	-75.6319	0.0000000E+000	0.0000000E+000	0.0000000E+000	-14.3681	0.0000000E+000	0.0000000E+000	0.0000000E+000	14.3681	3.90378	75.6319	-6.02112e-07	-1.66187e-06	1.54324e-09	-1.66341e-06	0.285647	49007	45.5088	49052.5
6.81719	25.1809	5.36066	25.7452	-12.018	12.8005	0.285381	-0.00605934	4355.09	188.816	1	11	0.00484006	0.000187998	0	-7.53449e-06	-0.000169541	6.73514e-06	-133.317	0.0358255	-0.0245774	0.0260657	-12.0862	25.7266	25.1564	5.38672	0.0379908	0.00808769	0.0388422	12.018	188816	886938	906814	-77.982	0.0000000E+000	0.0000000E+000	0.0000000E+000	77.982	0.0000000E+000	0.0000000E+000	0.0000000E+000	-77.982	0.0000000E+000	0.0000000E+000	0.0000000E+000	-12.018	0.0000000E+000	0.0000000E+000	0.0000000E+000	12.018	4.69736	77.982	1.97317e-07	-1.72922e-06	1.02731e-09	-1.73025e-06	0.285551	47097.7	27.9801	47125.7
4.63925	26.3706	4.75643	26.7962	-10.2244	13.2845	0.285394	-0.00520279	7212.58	227.252	1	11	0.00484519	0.000180816	0	-1.02666e-05	-0.000207729	6.02748e-06	10.6501	0.0333348	0.0327606	-0.0061606	-10.1991	26.8273	26.4034	4.75027	0.0367262	0.00662425	0.0373188	10.2244	227252	1.25993e+06	1.28026e+06	-79.7756	0.0000000E+000	0.0000000E+000	0.0000000E+000	79.7756	0.0000000E+000	0.0000000E+000	0.0000000E+000	-79.7756	0.0000000E+000	0.0000000E+000	0.0000000E+000	-10.2244	0.0000000E+000	0.0000000E+000	0.0000000E+000	10.2244	5.5442	79.7756	-2.73216e-06	-1.48484e-06	1.08077e-09	-1.48593e-06	0.285602	54854	39.9265	54894
3.1604	27.4446	4.15137	27.7568	-8.60157	13.9774	0.285392	-0.0052921	12130.7	271.351	1	11	0.00484834	0.000174672	0	-1.19555e-05	-5.49767e-05	5.31334e-06	21.052	0.0304189	0.0283886	-0.0109269	-8.57054	27.7832	27.473	4.14045	0.035622	0.00538832	0.0360272	8.60157	271351	1.79389e+06	1.8143e+06	-81.3984	0.0000000E+000	0.0000000E+000	0.0000000E+000	81.3984	0.0000000E+000	0.0000000E+000	0.0000000E+000	-81.3984	0.0000000E+000	0.0000000E+000	0.0000000E+000	-8.60157	0.0000000E+000	0.0000000E+000	0.0000000E+000	8.60157	6.61097	81.3984	-1.68881e-06	-1.51032e-06	2.90942e-10	-1.51061e-06	0.285447	53927.9	10.3885	53938.3
2.15577	28.2642	3.6462	28.4984	-7.35079	14.9811	0.285396	-0.00458452	20247.8	331.449	1	11	0.00484792	0.000170112	0	-1.09046e-05	9.77758e-05	5.60347e-06	8.70477	0.0329399	0.0325605	-0.00498523	-7.33249	28.5301	28.2968	3.64121	0.0348013	0.00448951	0.0350897	7.35079	331449	2.56929e+06	2.59058e+06	-82.6492	0.0000000E+000	0.0000000E+000	0.0000000E+000	82.6492	0.0000000E+000	0.0000000E+000	0.0000000E+000	-82.6492	0.0000000E+000	0.0000000E+000	0.0000000E+000	-7.35079	0.0000000E+000	0.0000000E+000	0.0000000E+000	7.35079	7.75169	82.6492	1.05082e-06	-1.3084e-06	-4.48255e-10	-1.30795e-06	0.285298	62252.1	21.3274	62230.8
1.46631	28.9723	3.19282	29.1477	-6.28875	16.4425	0.285391	-0.00431658	33995.4	407.905	1	11	0.00484905	0.000166361	0	-8.81357e-06	-0.000131353	5.64827e-06	0.796796	0.0339518	0.0339485	-0.000472143	-6.28053	29.1814	29.0063	3.19234	0.0341016	0.00375807	0.034308	6.28875	407905	3.70142e+06	3.72383e+06	-83.7113	0.0000000E+000	0.0000000E+000	0.0000000E+000	83.7113	0.0000000E+000	0.0000000E+000	0.0000000E+000	-83.7113	0.0000000E+000	0.0000000E+000	0.0000000E+000	-6.28875	0.0000000E+000	0.0000000E+000	0.0000000E+000	6.28875	9.07422	83.7113	2.09108e-06	-1.23191e-06	5.66996e-10	-1.23248e-06	0.285522	66114.9	30.4299	66145.4
1.00006	29.5534	2.8467	29.6902	-5.50197	19.6159	0.285391	-0.00394227	55905.1	513.933	1	12	0.00484821	0.000163293	0	-1.01573e-05	-0.000150447	3.6853e-06	-15.2945	0.0225686	0.0217693	0.00595315	-5.50937	29.7125	29.5752	2.85265	0.033526	0.00322934	0.0336811	5.50197	513933	5.33548e+06	5.36018e+06	-84.498	0.0000000E+000	0.0000000E+000	0.0000000E+000	84.498	0.0000000E+000	0.0000000E+000	0.0000000E+000	-84.498	0.0000000E+000	0.0000000E+000	0.0000000E+000	-5.50197	0.0000000E+000	0.0000000E+000	0.0000000E+000	5.50197	10.3817	84.498	-1.34375e-06	-1.12509e-06	5.93102e-10	-1.12568e-06	0.285541	72392.5	38.1626	72430.7
0.681362	30.0504	2.62656	30.165	-4.99524	22.7281	0.285393	-0.00308952	88931.4	674.253	1	12	0.00484914	0.000160754	0	-1.66981e-05	-0.000226823	2.16963e-06	-6.5279	0.0134966	0.0134091	0.00153439	-4.99593	30.1785	30.0638	2.62809	0.0330251	0.00288656	0.033151	4.99524	674253	7.71412e+06	7.74353e+06	-85.0048	0.0000000E+000	0.0000000E+000	0.0000000E+000	85.0048	0.0000000E+000	0.0000000E+000	0.0000000E+000	-85.0048	0.0000000E+000	0.0000000E+000	0.0000000E+000	-4.99524	0.0000000E+000	0.0000000E+000	0.0000000E+000	4.99524	11.441	85.0048	-6.54074e-06	-8.81726e-07	7.00775e-10	-8.82427e-07	0.285619	92374.4	73.417	92447.8
0.464091	30.4562	2.548	30.5626	-4.78229	27.2848	0.285398	-0.00272495	134592	935.482	1	12	0.00484654	0.000158577	0	-3.00904e-05	2.13995e-05	3.93133e-06	-12.3732	0.0247912	0.0242154	0.00531222	-4.78842	30.5872	30.4805	2.55331	0.0326058	0.00272783	0.0327197	4.78229	935482	1.11818e+07	1.12209e+07	-85.2177	0.0000000E+000	0.0000000E+000	0.0000000E+000	85.2177	0.0000000E+000	0.0000000E+000	0.0000000E+000	-85.2177	0.0000000E+000	0.0000000E+000	0.0000000E+000	-4.78229	0.0000000E+000	0.0000000E+000	0.0000000E+000	4.78229	11.953	85.2177	-1.33923e-05	-7.77694e-07	-5.83126e-11	-7.77636e-07	0.285376	104735	7.85319	104727
0.316193	30.8784	2.6178	30.9892	-4.84581	33.9597	0.285394	-0.0027475	192279	1372.09	1	12	0.00484755	0.000156427	0	-4.7902e-05	-0.000112259	1.83321e-06	10.6765	0.0117193	0.0115164	-0.00217115	-4.84002	31.0005	30.8899	2.61563	0.032154	0.00272594	0.0322693	4.84581	1.37209e+06	1.61846e+07	1.62427e+07	-85.1542	0.0000000E+000	0.0000000E+000	0.0000000E+000	85.1542	0.0000000E+000	0.0000000E+000	0.0000000E+000	-85.1542	0.0000000E+000	0.0000000E+000	0.0000000E+000	-4.84581	0.0000000E+000	0.0000000E+000	0.0000000E+000	4.84581	11.7956	85.1542	-1.78116e-05	-7.84118e-07	3.08431e-10	-7.84426e-07	0.285506	103874	40.8586	103915
0.215268	31.3372	2.91146	31.4722	-5.30797	43.7521	0.285394	-0.00312787	253939	2173.19	1	12	0.00484939	0.000154085	0	-6.40121e-05	-0.00039867	3.07489e-06	-0.570184	0.0199558	0.0199548	0.000198589	-5.30497	31.4921	31.3572	2.91166	0.0316378	0.00293939	0.0317741	5.30797	2.17319e+06	2.3391e+07	2.34917e+07	-84.692	0.0000000E+000	0.0000000E+000	0.0000000E+000	84.692	0.0000000E+000	0.0000000E+000	0.0000000E+000	-84.692	0.0000000E+000	0.0000000E+000	0.0000000E+000	-5.30797	0.0000000E+000	0.0000000E+000	0.0000000E+000	5.30797	10.7634	84.692	-1.61101e-05	-8.92677e-07	1.24699e-09	-8.93924e-07	0.285793	91242.4	127.457	91369.8
0.146929	31.7926	3.47737	31.9822	-6.242	58.0905	0.285397	-0.00321024	311503	3682.53	1	12	0.00484633	0.000151532	0	-6.83485e-05	-0.000322294	2.11597e-06	-12.1038	0.0139638	0.0136534	0.00292799	-6.24456	31.9961	31.8063	3.4803	0.031082	0.00339964	0.0312673	6.242	3.68253e+06	3.36684e+07	3.38691e+07	-83.758	0.0000000E+000	0.0000000E+000	0.0000000E+000	83.758	0.0000000E+000	0.0000000E+000	0.0000000E+000	-83.758	0.0000000E+000	0.0000000E+000	0.0000000E+000	-6.242	0.0000000E+000	0.0000000E+000	0.0000000E+000	6.242	9.14273	83.758	-4.33645e-06	-9.16194e-07	1.03464e-09	-9.17228e-07	0.285719	88901.9	100.395	89002.3
0.0999041	32.2785	4.25703	32.558	-7.51305	79.1676	0.285389	-0.00303492	374223	6397.75	1	12	0.00484667	0.000148862	0	-5.18233e-05	2.13995e-05	1.84136e-06	-17.0425	0.0123695	0.0118263	0.00362527	-7.51665	32.5702	32.2904	4.26065	0.0304507	0.00401597	0.0307144	7.51305	6.39775e+06	4.85103e+07	4.89304e+07	-82.4869	0.0000000E+000	0.0000000E+000	0.0000000E+000	82.4869	0.0000000E+000	0.0000000E+000	0.0000000E+000	-82.4869	0.0000000E+000	0.0000000E+000	0.0000000E+000	-7.51305	0.0000000E+000	0.0000000E+000	0.0000000E+000	7.51305	7.58241	82.4869	1.65252e-05	-8.66132e-07	-6.49458e-11	-8.66067e-07	0.285368	94035.2	7.05111	94028.1
0.0680626	32.9138	5.27369	33.3336	-9.10298	110.095	0.285394	-0.00211896	443401	11098.4	1	12	0.00484415	0.000145323	0	-1.40093e-05	5.95877e-05	2.16247e-06	-21.8762	0.0148804	0.0138089	0.00554448	-9.10863	33.3481	32.9276	5.27924	0.0296219	0.00474624	0.0299997	9.10298	1.10984e+07	6.92667e+07	7.01502e+07	-80.897	0.0000000E+000	0.0000000E+000	0.0000000E+000	80.897	0.0000000E+000	0.0000000E+000	0.0000000E+000	-80.897	0.0000000E+000	0.0000000E+000	0.0000000E+000	-9.10298	0.0000000E+000	0.0000000E+000	0.0000000E+000	9.10298	6.24113	80.897	3.7814e-05	-6.04739e-07	-1.26264e-10	-6.04613e-07	0.285334	134686	28.1211	134658
0.0464052	33.9112	6.60419	34.5483	-11.0204	155.445	0.285388	-0.000681735	519319	18976.7	1	12	0.00484881	0.000140349	0	4.12227e-05	-0.000150447	1.78423e-06	-41.3973	0.0127128	0.00953641	0.00840666	-11.031	34.5592	33.9207	6.61259	0.0284113	0.00553308	0.028945	11.0204	1.89767e+07	9.74415e+07	9.92721e+07	-78.9796	0.0000000E+000	0.0000000E+000	0.0000000E+000	78.9796	0.0000000E+000	0.0000000E+000	0.0000000E+000	-78.9796	0.0000000E+000	0.0000000E+000	0.0000000E+000	-11.0204	0.0000000E+000	0.0000000E+000	0.0000000E+000	11.0204	5.1348	78.9796	5.5232e-05	-1.94559e-07	1.02565e-10	-1.94661e-07	0.285538	418620	220.683	418841
0.0315922	35.0928	8.64294	36.1415	-13.8359	222.05	0.285389	0.00022009	582879	33334.2	1	12	0.00484773	0.000134132	0	6.516e-05	-9.31649e-05	1.14106e-06	9.97129	0.00850695	0.00837845	-0.00147302	-13.8305	36.1493	35.1012	8.64147	0.0268662	0.00661683	0.027669	13.8359	3.33342e+07	1.35346e+08	1.39391e+08	-76.1641	0.0000000E+000	0.0000000E+000	0.0000000E+000	76.1641	0.0000000E+000	0.0000000E+000	0.0000000E+000	-76.1641	0.0000000E+000	0.0000000E+000	0.0000000E+000	-13.8359	0.0000000E+000	0.0000000E+000	0.0000000E+000	13.8359	4.06029	76.1641	2.39373e-05	6.28113e-08	-2.05047e-11	6.28318e-08	0.285482	1.29669e+06	423.303	1.29712e+06
0.0215268	36.3064	11.2967	38.0233	-17.2835	319.788	0.28539	0.00037247	654470	57768.8	1	12	0.00484819	0.000127506	0	-1.0069e-05	-5.49767e-05	1.66748e-06	40.2313	0.0130777	0.00998405	-0.00844653	-17.2669	38.0303	36.3164	11.2882	0.0251122	0.00781362	0.0262997	17.2835	5.77688e+07	1.85663e+08	1.94443e+08	-72.7165	0.0000000E+000	0.0000000E+000	0.0000000E+000	72.7165	0.0000000E+000	0.0000000E+000	0.0000000E+000	-72.7165	0.0000000E+000	0.0000000E+000	0.0000000E+000	-17.2835	0.0000000E+000	0.0000000E+000	0.0000000E+000	17.2835	3.2139	72.7165	-7.5229e-05	1.06299e-07	-2.04772e-11	1.0632e-07	0.285445	766211	147.601	766358
0.0146812	37.8243	14.533	40.5202	-21.018	463.09	0.285393	0.000119734	745940	95956.1	1	12	0.00484795	0.000119643	0	-0.000229957	0.000155058	1.44364e-06	-18.5599	0.0120662	0.0114387	0.00384064	-21.0173	40.5322	37.8357	14.5368	0.0230371	0.00885143	0.0246791	21.018	9.59561e+07	2.4974e+08	2.6754e+08	-68.982	0.0000000E+000	0.0000000E+000	0.0000000E+000	68.982	0.0000000E+000	0.0000000E+000	0.0000000E+000	-68.982	0.0000000E+000	0.0000000E+000	0.0000000E+000	-21.018	0.0000000E+000	0.0000000E+000	0.0000000E+000	21.018	2.60265	68.982	-0.000219888	3.41713e-08	1.85657e-11	3.41527e-08	0.285238	2.38355e+06	1295.02	2.38226e+06
0.0100092	40.2682	18.9388	44.4995	-25.1884	673.272	0.285387	-0.000324879	839595	152077	1	12	0.00484972	0.000108984	0	-0.000546759	2.30547e-06	2.2258e-06	-1.74964	0.0204232	0.0204137	0.000623568	-25.1779	44.5182	40.2886	18.9394	0.0203354	0.00956406	0.0224722	25.1884	1.52077e+08	3.23351e+08	3.57328e+08	-64.8116	0.0000000E+000	0.0000000E+000	0.0000000E+000	64.8116	0.0000000E+000	0.0000000E+000	0.0000000E+000	-64.8116	0.0000000E+000	0.0000000E+000	0.0000000E+000	-25.1884	0.0000000E+000	0.0000000E+000	0.0000000E+000	25.1884	2.12623	64.8116	-0.000316802	-9.27163e-08	-7.48999e-13	-9.27155e-08	0.285385	878441	7.0964	878434