File: txt/19158_R306_UA713_SOC00_C06.mpt
EC-Lab ASCII FILE
Nb header lines : 65

Potentio Electrochemical Impedance Spectroscopy

Run on channel : 6 (SN 65795)
Grouped channel(s) : 5, 6, 7, 8
User :
CE vs. WE compliance from -10 V to 10 V
Electrode connection : standard
Potential control : Ewe
Ewe ctrl range : min = -10.00 V, max = 10.00 V
Safety Limits :
	Do not start on E overload
Acquisition started on : 11/12/2025 13:01:01.674
Loaded Setting File :  C:\Users\Celltest\OneDrive - store-dot.com\Documents\EC-Lab\Data\@Biologic Test Protocols\anode half cell EIS SOC00.mps
Saved on :
	File : 19157_R306_UA713_SOC00_C06.mpr
	Directory : C:\Users\Celltest\OneDrive - store-dot.com\Documents\EC-Lab\Data\Charmaine\
	Host : 169.254.61.224
Device : VMP-3e (SN .003165)
Address : USB
EC-LAB for windows v11.62 (software)
Internet server v27.00 (firmware)
Command interpretor v12.03 (firmware)
Electrode material :
Initial state :
Electrolyte :
Comments :
Electrode surface area : 0.001 cm²
Characteristic mass : 0.001 g
Equivalent Weight : 0.000 g/eq.
Density : 0.000 g/cm3
Volume (V) : 0.001 cm³
Record Ece
Cycle Definition : Charge/Discharge alternance
Mode                Single sine
E (V)               0.0000
vs.                 Eoc
tE (h:m:s)          0:00:0.0000
record              0
dI                  0.000
unit dI             mA
dt (s)              0.000
fi                  100.000
unit fi             kHz
ff                  10.000
unit ff             mHz
Nd                  6
Points              per decade
spacing             Logarithmic
Va (mV)             5.0
pw                  0.10
Na                  2
corr                0
E range min (V)     -10.000
E range max (V)     10.000
I Range             Auto
Bandwidth           5
nc cycles           0
goto Ns'            0
nr cycles           0
inc. cycle          0

freq/Hz	Re(Z)/Ohm	-Im(Z)/Ohm	|Z|/Ohm	Phase(Z)/deg	time/s	<Ewe>/V	<I>/mA	Cs/µF	Cp/µF	cycle number	I Range	|Ewe|/V	|I|/A	Ns	(Q-Qo)/mA.h	<Ece>/V	|Ece|/V	Phase(Zce)/deg	|Zce|/Ohm	Re(Zce)/Ohm	-Im(Zce)/Ohm	Phase(Zwe-ce)/deg	|Zwe-ce|/Ohm	Re(Zwe-ce)/Ohm	-Im(Zwe-ce)/Ohm	Re(Y)/Ohm-1	Im(Y)/Ohm-1	|Y|/Ohm-1	Phase(Y)/deg	Re(C)/nF	Im(C)/nF	|C|/nF	Phase(C)/deg	Re(M)	Im(M)	|M|	Phase(M)/deg	Re(Permittivity)	Im(Permittivity)	|Permittivity|	Phase(Permittivity)/deg	Re(Resistivity)/Ohm.cm	Im(Resistivity)/Ohm.cm	|Resistivity|/Ohm.cm	Phase(Resistivity)/deg	Re(Conductivity)/mS/cm	Im(Conductivity)/mS/cm	|Conductivity|/mS/cm	Phase(Conductivity)/deg	Tan(Delta)	Loss Angle(Delta)/deg	dq/mA.h	Pwe/W	Pce/W	Pwe-ce/W	<Ewe-Ece>/V	Rwe/Ohm	Rce/Ohm	Rwe-ce/Ohm		Ewe-Ece/V
100004	2.68907	0.823357	2.8123	-17.0239	2.18554	0.278973	-0.0023536	1.93293	0.16568	1	9	0.00465556	0.00165543	0	1.41541e-06	6.86329e-05	2.67818e-05	93.3877	0.0161782	-0.000956015	-0.0161499	-16.7143	2.8067	2.68812	0.807208	0.34	0.104103	0.355581	17.0239	165.68	541.107	565.903	-72.9761	0.0000000E+000	0.0000000E+000	0.0000000E+000	72.9761	0.0000000E+000	0.0000000E+000	0.0000000E+000	-72.9761	0.0000000E+000	0.0000000E+000	0.0000000E+000	-17.0239	0.0000000E+000	0.0000000E+000	0.0000000E+000	17.0239	3.26599	72.9761	1.41541e-06	-6.56592e-07	-1.61535e-10	-6.56431e-07	0.278904	118530	29.1608	118501
68132	2.8996	0.914408	3.04036	-17.503	2.69254	0.278935	-0.00425335	2.55463	0.231078	1	9	0.00506764	0.00166679	0	2.3327e-06	0.000125927	1.89458e-05	69.5673	0.0113666	0.00396817	-0.0106515	-17.2891	3.04096	2.90357	0.903757	0.31368	0.0989212	0.328908	17.503	231.078	732.75	768.322	-72.497	0.0000000E+000	0.0000000E+000	0.0000000E+000	72.497	0.0000000E+000	0.0000000E+000	0.0000000E+000	-72.497	0.0000000E+000	0.0000000E+000	0.0000000E+000	-17.503	0.0000000E+000	0.0000000E+000	0.0000000E+000	17.503	3.17101	72.497	9.17289e-07	-1.18641e-06	-5.35612e-10	-1.18587e-06	0.278809	65580	29.6065	65550.4
46420.4	3.17175	1.01956	3.33159	-17.82	3.19957	0.278944	-0.00101261	3.36278	0.314935	1	9	0.00514661	0.00154479	0	-5.55124e-06	-6.50534e-05	1.28499e-05	15.8356	0.00831824	0.00800255	-0.00226987	-17.7409	3.33852	3.17976	1.01729	0.285756	0.0918564	0.300157	17.82	314.935	979.731	1029.1	-72.18	0.0000000E+000	0.0000000E+000	0.0000000E+000	72.18	0.0000000E+000	0.0000000E+000	0.0000000E+000	-72.18	0.0000000E+000	0.0000000E+000	0.0000000E+000	-17.82	0.0000000E+000	0.0000000E+000	0.0000000E+000	17.82	3.1109	72.18	-7.88394e-06	-2.82461e-07	6.58737e-11	-2.82527e-07	0.279009	275470	64.2433	275534
31621.1	3.41279	1.10719	3.5879	-17.9743	3.58256	0.278972	0.00256338	4.54592	0.432896	1	9	0.00520598	0.00145098	0	-4.84084e-06	0.000316907	1.72599e-05	-77.8684	0.0118953	0.0024999	0.0116297	-18.1383	3.59388	3.41529	1.11882	0.265112	0.0860085	0.278715	17.9743	432.896	1334.36	1402.82	-72.0257	0.0000000E+000	0.0000000E+000	0.0000000E+000	72.0257	0.0000000E+000	0.0000000E+000	0.0000000E+000	-72.0257	0.0000000E+000	0.0000000E+000	0.0000000E+000	-17.9743	0.0000000E+000	0.0000000E+000	0.0000000E+000	17.9743	3.0824	72.0257	7.10396e-07	7.15113e-07	8.12355e-10	7.14301e-07	0.278655	108830	123.629	108706
21544.7	3.68379	1.2071	3.87652	-18.1429	3.84154	0.278948	0.0126954	6.1198	0.593388	1	9	0.00485324	0.00125196	0	-3.74275e-06	0.000183221	5.35589e-06	-14.63	0.00427801	0.00413931	0.00108052	-18.139	3.88079	3.68793	1.20818	0.245138	0.0803264	0.257963	18.1429	593.388	1810.88	1905.63	-71.8571	0.0000000E+000	0.0000000E+000	0.0000000E+000	71.8571	0.0000000E+000	0.0000000E+000	0.0000000E+000	-71.8571	0.0000000E+000	0.0000000E+000	0.0000000E+000	-18.1429	0.0000000E+000	0.0000000E+000	0.0000000E+000	18.1429	3.05177	71.8571	1.0981e-06	3.54135e-06	2.32606e-09	3.53902e-06	0.278765	21972.4	14.4321	21958
14678.6	3.966	1.29318	4.1715	-18.0594	4.10053	0.278944	-0.00343387	8.38452	0.805764	1	9	0.00455019	0.00109078	0	-2.9861e-06	0.000316907	1.22427e-05	-15.8506	0.0112238	0.010797	0.00306555	-18.0534	4.18272	3.9768	1.29624	0.227912	0.0743142	0.239722	18.0594	805.763	2471.17	2599.22	-71.9406	0.0000000E+000	0.0000000E+000	0.0000000E+000	71.9406	0.0000000E+000	0.0000000E+000	0.0000000E+000	-71.9406	0.0000000E+000	0.0000000E+000	0.0000000E+000	-18.0594	0.0000000E+000	0.0000000E+000	0.0000000E+000	18.0594	3.06687	71.9406	7.56642e-07	-9.57856e-07	-1.08822e-09	-9.56768e-07	0.278627	81233.1	92.2888	81140.9
10002.2	4.28805	1.35666	4.49754	-17.5564	4.63856	0.279014	-0.0131703	11.7288	1.0672	1	10	0.00458796	0.0010201	0	-4.30678e-06	0.000183221	2.94533e-05	-32.311	0.0288728	0.0244021	0.0154329	-17.6495	4.52547	4.31245	1.37209	0.211987	0.0670688	0.222344	17.5564	1067.2	3373.13	3537.92	-72.4436	0.0000000E+000	0.0000000E+000	0.0000000E+000	72.4436	0.0000000E+000	0.0000000E+000	0.0000000E+000	-72.4436	0.0000000E+000	0.0000000E+000	0.0000000E+000	-17.5564	0.0000000E+000	0.0000000E+000	0.0000000E+000	17.5564	3.16074	72.4436	-1.32067e-06	-3.6747e-06	-2.41308e-09	-3.67229e-06	0.278831	21185.1	13.9117	21171.1
6810.42	4.57685	1.48132	4.8106	-17.9344	4.89752	0.279022	-0.0126672	15.776	1.49588	1	10	0.00478413	0.000994497	0	-4.47032e-06	0.000183221	3.53257e-05	-10.8792	0.0355211	0.0348827	0.00670423	-17.8828	4.84585	4.61173	1.48802	0.197774	0.0640104	0.207874	17.9344	1495.88	4621.84	4857.88	-72.0656	0.0000000E+000	0.0000000E+000	0.0000000E+000	72.0656	0.0000000E+000	0.0000000E+000	0.0000000E+000	-72.0656	0.0000000E+000	0.0000000E+000	0.0000000E+000	-17.9344	0.0000000E+000	0.0000000E+000	0.0000000E+000	17.9344	3.08971	72.0656	-1.63543e-07	-3.53444e-06	-2.3209e-09	-3.53211e-06	0.278839	22027.1	14.4642	22012.6
4646	4.93473	1.60487	5.18914	-18.0156	5.16462	0.278994	-0.0205116	21.3452	2.04169	1	10	0.00484582	0.000933839	0	-6.31521e-06	3.04368e-05	1.57746e-05	-83.938	0.0168922	0.00178389	0.0167977	-18.1856	5.19605	4.93651	1.62167	0.183262	0.0596005	0.19271	18.0156	2041.69	6277.88	6601.54	-71.9844	0.0000000E+000	0.0000000E+000	0.0000000E+000	71.9844	0.0000000E+000	0.0000000E+000	0.0000000E+000	-71.9844	0.0000000E+000	0.0000000E+000	0.0000000E+000	-18.0156	0.0000000E+000	0.0000000E+000	0.0000000E+000	18.0156	3.07484	71.9844	-1.84488e-06	-5.72263e-06	-6.24309e-10	-5.72201e-06	0.278964	13601.8	1.48388	13600.3
3163.08	5.29106	1.79364	5.58682	-18.7264	5.53867	0.278952	-0.014251	28.0527	2.89146	1	10	0.0048247	0.000863586	0	-7.50064e-06	6.86329e-05	9.02404e-06	167.147	0.0104495	-0.0101877	-0.00232447	-18.7374	5.57642	5.28088	1.79132	0.169517	0.0574655	0.178993	18.7264	2891.46	8529.51	9006.28	-71.2736	0.0000000E+000	0.0000000E+000	0.0000000E+000	71.2736	0.0000000E+000	0.0000000E+000	0.0000000E+000	-71.2736	0.0000000E+000	0.0000000E+000	0.0000000E+000	-18.7264	0.0000000E+000	0.0000000E+000	0.0000000E+000	18.7264	2.9499	71.2736	-1.18543e-06	-3.97535e-06	-9.78089e-10	-3.97437e-06	0.278883	19574.2	4.816	19569.3
2155.69	5.70036	2.02192	6.04832	-19.5296	5.98978	0.279004	0.00189988	36.5149	4.08063	1	10	0.00479315	0.000792476	0	-7.76991e-06	0.000125927	8.15561e-06	-44.7497	0.0102913	0.00730877	0.00724519	-19.5711	6.05763	5.70766	2.02916	0.155823	0.0552705	0.165335	19.5296	4080.63	11504.5	12206.7	-70.4704	0.0000000E+000	0.0000000E+000	0.0000000E+000	70.4704	0.0000000E+000	0.0000000E+000	0.0000000E+000	-70.4704	0.0000000E+000	0.0000000E+000	0.0000000E+000	-19.5296	0.0000000E+000	0.0000000E+000	0.0000000E+000	19.5296	2.81928	70.4704	-2.69269e-07	5.30073e-07	2.39246e-10	5.29834e-07	0.278878	146854	66.2817	146788
1468.59	6.14845	2.2926	6.56197	-20.4492	6.44102	0.279006	0.003588	47.2707	5.77003	1	10	0.0047616	0.000725636	0	-7.07292e-06	4.95349e-05	8.9352e-06	-51.3326	0.0123136	0.00769353	0.00961429	-20.5043	6.57254	6.15615	2.30221	0.14279	0.0532425	0.152393	20.4492	5770.03	15474.5	16515.2	-69.5508	0.0000000E+000	0.0000000E+000	0.0000000E+000	69.5508	0.0000000E+000	0.0000000E+000	0.0000000E+000	-69.5508	0.0000000E+000	0.0000000E+000	0.0000000E+000	-20.4492	0.0000000E+000	0.0000000E+000	0.0000000E+000	20.4492	2.68187	69.5508	6.9699e-07	1.00107e-06	1.77731e-10	1.0009e-06	0.278957	77760.9	13.8057	77747
1000.32	6.68235	2.60606	7.17254	-21.3053	6.89284	0.278996	0.00307373	61.0516	8.0597	1	10	0.0047402	0.000660881	0	-6.32506e-06	0.000145025	8.8158e-06	110.515	0.0133395	-0.00467482	-0.0124935	-21.2258	7.16365	6.67768	2.59356	0.129892	0.0506568	0.139421	21.3053	8059.7	20666.4	22182.4	-68.6947	0.0000000E+000	0.0000000E+000	0.0000000E+000	68.6947	0.0000000E+000	0.0000000E+000	0.0000000E+000	-68.6947	0.0000000E+000	0.0000000E+000	0.0000000E+000	-21.3053	0.0000000E+000	0.0000000E+000	0.0000000E+000	21.3053	2.56416	68.6947	7.47856e-07	8.57561e-07	4.45768e-10	8.57115e-07	0.278851	90767.9	47.182	90720.7
681.09	7.25452	2.99541	7.8486	-22.4358	7.3426	0.279003	0.00148622	78.0118	11.3628	1	10	0.00471839	0.000601176	0	-5.8199e-06	0.000355103	1.21393e-05	-5.74972	0.0201925	0.0200909	0.00202295	-22.3936	7.86794	7.27461	2.99743	0.117767	0.0486263	0.127411	22.4358	11362.8	27519.5	29773.1	-67.5642	0.0000000E+000	0.0000000E+000	0.0000000E+000	67.5642	0.0000000E+000	0.0000000E+000	0.0000000E+000	-67.5642	0.0000000E+000	0.0000000E+000	0.0000000E+000	-22.4358	0.0000000E+000	0.0000000E+000	0.0000000E+000	22.4358	2.42188	67.5642	5.05158e-07	4.1466e-07	5.27763e-10	4.14132e-07	0.278648	187726	238.93	187487
463.961	7.91907	3.46399	8.64355	-23.6257	7.79433	0.278997	0.00176198	99.0289	15.9049	1	10	0.00471225	0.000545176	0	-5.75411e-06	0.000297809	6.50594e-06	-7.95141	0.0119337	0.0118189	0.00165082	-23.6044	8.65504	7.93089	3.46564	0.105996	0.0463652	0.115693	23.6257	15904.9	36360.4	39686.9	-66.3743	0.0000000E+000	0.0000000E+000	0.0000000E+000	66.3743	0.0000000E+000	0.0000000E+000	0.0000000E+000	-66.3743	0.0000000E+000	0.0000000E+000	0.0000000E+000	-23.6257	0.0000000E+000	0.0000000E+000	0.0000000E+000	23.6257	2.28611	66.3743	6.5797e-08	4.91588e-07	5.24735e-10	4.91063e-07	0.278699	158343	169.019	158174
316.316	8.70144	4.05041	9.59797	-24.9614	8.24207	0.278992	0.00137815	124.222	22.1228	1	10	0.00471016	0.000490745	0	-5.1889e-06	1.13388e-05	6.22983e-06	21.8245	0.0126946	0.0117848	-0.00471941	-24.9062	9.60666	8.71323	4.0457	0.0944567	0.0439684	0.104189	24.9614	22122.8	47526.1	52422.8	-65.0386	0.0000000E+000	0.0000000E+000	0.0000000E+000	65.0386	0.0000000E+000	0.0000000E+000	0.0000000E+000	-65.0386	0.0000000E+000	0.0000000E+000	0.0000000E+000	-24.9614	0.0000000E+000	0.0000000E+000	0.0000000E+000	24.9614	2.14828	65.0386	5.65211e-07	3.84493e-07	1.56266e-11	3.84478e-07	0.278981	202440	8.22755	202432
215.345	9.61048	4.78411	10.7354	-26.4642	8.69155	0.279005	0.00281287	154.484	30.6796	1	10	0.00469695	0.000437519	0	-4.98899e-06	0.000183221	5.07637e-06	-45.8868	0.0116026	0.00807633	0.00833029	-26.4848	10.7464	9.61856	4.79244	0.0833888	0.041511	0.0931496	26.4642	30679.6	61630.2	68844.2	-63.5358	0.0000000E+000	0.0000000E+000	0.0000000E+000	63.5358	0.0000000E+000	0.0000000E+000	0.0000000E+000	-63.5358	0.0000000E+000	0.0000000E+000	0.0000000E+000	-26.4642	0.0000000E+000	0.0000000E+000	0.0000000E+000	26.4642	2.00883	63.5358	1.99908e-07	7.84806e-07	5.15378e-10	7.8429e-07	0.278822	99188.6	65.1366	99123.4
146.737	10.8351	5.62693	12.209	-27.444	9.13751	0.278998	0.00200793	192.756	40.9438	1	10	0.00469254	0.00038435	0	-4.87881e-06	0.000145025	1.07126e-05	-58.435	0.027872	0.01459	0.0237482	-27.5113	12.2329	10.8496	5.65068	0.0726889	0.0377493	0.0819065	27.444	40943.8	78840.1	88837.8	-62.556	0.0000000E+000	0.0000000E+000	0.0000000E+000	62.556	0.0000000E+000	0.0000000E+000	0.0000000E+000	-62.556	0.0000000E+000	0.0000000E+000	0.0000000E+000	-27.444	0.0000000E+000	0.0000000E+000	0.0000000E+000	27.444	1.92557	62.556	1.10176e-07	5.6021e-07	2.91201e-10	5.59919e-07	0.278853	138948	72.226	138876
100.032	12.4272	6.50321	14.026	-27.6233	9.58879	0.279	0.00191849	244.654	52.595	1	10	0.00469517	0.000334749	0	-4.63774e-06	0.000183221	9.55205e-06	27.0778	0.028535	0.0254072	-0.0129891	-27.5282	14.0425	12.4526	6.49022	0.0631697	0.033057	0.0712964	27.6233	52595	100506	113435	-62.3767	0.0000000E+000	0.0000000E+000	0.0000000E+000	62.3767	0.0000000E+000	0.0000000E+000	0.0000000E+000	-62.3767	0.0000000E+000	0.0000000E+000	0.0000000E+000	-27.6233	0.0000000E+000	0.0000000E+000	0.0000000E+000	27.6233	1.91093	62.3767	2.41066e-07	5.35259e-07	3.51509e-10	5.34908e-07	0.278816	145426	95.5026	145331
68.104	14.3319	7.27025	16.0704	-26.8977	10.0514	0.27901	0.00393456	321.439	65.7872	1	10	0.0046946	0.000292126	0	-4.0339e-06	-4.59553e-05	1.63302e-06	25.9836	0.00559013	0.00502508	-0.00244911	-26.8818	16.0738	14.3369	7.2678	0.0554941	0.028151	0.062226	26.8977	65787.2	129686	145418	-63.1023	0.0000000E+000	0.0000000E+000	0.0000000E+000	63.1023	0.0000000E+000	0.0000000E+000	0.0000000E+000	-63.1023	0.0000000E+000	0.0000000E+000	0.0000000E+000	-26.8977	0.0000000E+000	0.0000000E+000	0.0000000E+000	26.8977	1.9713	63.1023	6.03846e-07	1.09778e-06	-1.80814e-10	1.09796e-06	0.279055	70912.5	11.6799	70924.2
46.4415	16.5688	7.77894	18.304	-25.1497	10.4876	0.278994	-0.001223	440.548	79.5683	1	10	0.00469121	0.000256294	0	-4.10734e-06	0.000145025	6.76818e-06	-104.325	0.0264079	-0.00653386	0.0255868	-25.2309	18.309	16.5623	7.80453	0.0494536	0.0232181	0.0546328	25.1497	79568.3	169477	187226	-64.8503	0.0000000E+000	0.0000000E+000	0.0000000E+000	64.8503	0.0000000E+000	0.0000000E+000	0.0000000E+000	-64.8503	0.0000000E+000	0.0000000E+000	0.0000000E+000	-25.1497	0.0000000E+000	0.0000000E+000	0.0000000E+000	25.1497	2.12996	64.8503	-7.34456e-08	-3.41209e-07	-1.77365e-10	-3.41031e-07	0.278849	228124	118.582	228005
31.6296	18.9714	7.92657	20.5607	-22.6761	11.1525	0.279027	-0.000711489	634.807	94.3488	1	11	0.00468793	0.000228004	0	-4.36963e-06	1.13388e-05	4.36277e-06	-12.3888	0.0191346	0.018689	0.00410523	-22.6665	20.5795	18.99	7.93068	0.0448768	0.0187504	0.0486365	22.6761	94348.8	225813	244731	-67.3239	0.0000000E+000	0.0000000E+000	0.0000000E+000	67.3239	0.0000000E+000	0.0000000E+000	0.0000000E+000	-67.3239	0.0000000E+000	0.0000000E+000	0.0000000E+000	-22.6761	0.0000000E+000	0.0000000E+000	0.0000000E+000	22.6761	2.39339	67.3239	-2.6229e-07	-1.98525e-07	-8.06743e-12	-1.98516e-07	0.279015	392173	15.9367	392157
21.5517	21.3116	7.46197	22.5802	-19.297	11.5734	0.279023	-0.000952114	989.657	108.077	1	11	0.00468295	0.000207392	0	-4.51144e-06	0.000259613	5.45525e-05	76.2985	0.263041	0.0623047	-0.255555	-18.632	22.5561	21.3739	7.20641	0.0417985	0.0146351	0.0442865	19.297	108077	308673	327047	-70.703	0.0000000E+000	0.0000000E+000	0.0000000E+000	70.703	0.0000000E+000	0.0000000E+000	0.0000000E+000	-70.703	0.0000000E+000	0.0000000E+000	0.0000000E+000	-19.297	0.0000000E+000	0.0000000E+000	0.0000000E+000	19.297	2.85603	70.703	-1.41811e-07	-2.65662e-07	-2.47181e-10	-2.65415e-07	0.278764	293057	272.67	292784
14.6852	23.3715	7.15547	24.4424	-17.0226	12.0342	0.279012	-0.000701045	1514.62	129.806	1	11	0.00468934	0.000191853	0	-4.64943e-06	0.000316907	1.04099e-05	-103.509	0.05426	-0.0126747	0.0527589	-17.1495	24.4457	23.3588	7.20823	0.0391202	0.0119771	0.0409126	17.0226	129806	423977	443403	-72.9774	0.0000000E+000	0.0000000E+000	0.0000000E+000	72.9774	0.0000000E+000	0.0000000E+000	0.0000000E+000	-72.9774	0.0000000E+000	0.0000000E+000	0.0000000E+000	-17.0226	0.0000000E+000	0.0000000E+000	0.0000000E+000	17.0226	3.26624	72.9774	-1.37987e-07	-1.956e-07	-2.22166e-10	-1.95378e-07	0.278695	397995	452.05	397543
10.0032	25.1647	6.46769	25.9825	-14.4139	12.4848	0.279012	-0.00062606	2459.98	152.429	1	11	0.00468748	0.000180409	0	-3.39644e-06	0.000145025	7.26712e-06	24.7611	0.0402814	0.036578	-0.0168713	-14.3578	26.0138	25.2013	6.45081	0.0372759	0.00958044	0.0384874	14.4139	152429	593075	612350	-75.5861	0.0000000E+000	0.0000000E+000	0.0000000E+000	75.5861	0.0000000E+000	0.0000000E+000	0.0000000E+000	-75.5861	0.0000000E+000	0.0000000E+000	0.0000000E+000	-14.4139	0.0000000E+000	0.0000000E+000	0.0000000E+000	14.4139	3.89083	75.5861	1.253e-06	-1.74678e-07	-9.07943e-11	-1.74587e-07	0.278867	445663	231.647	445432
6.81719	26.7148	5.75349	27.3273	-12.154	12.8245	0.279016	-0.000983825	4057.73	179.868	1	11	0.00468114	0.000171299	0	-4.36205e-06	0.000240515	4.5883e-06	58.6222	0.0267854	0.0139466	-0.0228681	-12.101	27.3361	26.7287	5.73062	0.0357732	0.00770439	0.0365934	12.154	179868	835166	854315	-77.846	0.0000000E+000	0.0000000E+000	0.0000000E+000	77.846	0.0000000E+000	0.0000000E+000	0.0000000E+000	-77.846	0.0000000E+000	0.0000000E+000	0.0000000E+000	-12.154	0.0000000E+000	0.0000000E+000	0.0000000E+000	12.154	4.64323	77.846	-9.65618e-07	-2.74503e-07	-2.36625e-10	-2.74266e-07	0.278775	283603	244.469	283358
4.63925	27.9792	4.98934	28.4205	-10.1109	13.3084	0.279022	-0.000373871	6875.9	211.91	1	11	0.00468459	0.000164831	0	-5.61052e-06	0.000145025	7.45747e-06	-77.0011	0.0452431	0.0101766	0.0440837	-10.1947	28.4383	27.9893	5.03342	0.0346394	0.00617701	0.0351858	10.1109	211909	1.18834e+06	1.20709e+06	-79.8891	0.0000000E+000	0.0000000E+000	0.0000000E+000	79.8891	0.0000000E+000	0.0000000E+000	0.0000000E+000	-79.8891	0.0000000E+000	0.0000000E+000	0.0000000E+000	-10.1109	0.0000000E+000	0.0000000E+000	0.0000000E+000	10.1109	5.60779	79.8891	-1.24846e-06	-1.04318e-07	-5.42206e-11	-1.04264e-07	0.278877	746306	387.901	745919
3.1604	29.0823	4.38448	29.4109	-8.57341	14.0015	0.279026	-0.00024927	11485.8	255.258	1	11	0.00468624	0.000159337	0	-4.14197e-06	-0.000160544	3.87231e-06	-64.4697	0.0243027	0.0104742	0.0219297	-8.61259	29.4246	29.0928	4.40641	0.033621	0.00506874	0.034001	8.57341	255258	1.69313e+06	1.71226e+06	-81.4266	0.0000000E+000	0.0000000E+000	0.0000000E+000	81.4266	0.0000000E+000	0.0000000E+000	0.0000000E+000	-81.4266	0.0000000E+000	0.0000000E+000	0.0000000E+000	-8.57341	0.0000000E+000	0.0000000E+000	0.0000000E+000	8.57341	6.63301	81.4266	1.46855e-06	-6.95529e-08	4.00187e-11	-6.95929e-08	0.279187	1.11938e+06	644.055	1.12002e+06
2.15577	29.9624	3.7814	30.2001	-7.19298	15.0051	0.279038	0.00069075	19523.9	306.094	1	11	0.00468411	0.000155103	0	-1.26941e-06	0.000125927	4.59172e-06	-68.3725	0.0296044	0.0109113	0.0275202	-7.24216	30.2144	29.9733	3.80892	0.0328519	0.00414607	0.0331125	7.19298	306094	2.42537e+06	2.44461e+06	-82.807	0.0000000E+000	0.0000000E+000	0.0000000E+000	82.807	0.0000000E+000	0.0000000E+000	0.0000000E+000	-82.807	0.0000000E+000	0.0000000E+000	0.0000000E+000	-7.19298	0.0000000E+000	0.0000000E+000	0.0000000E+000	7.19298	7.92363	82.807	2.87256e-06	1.92745e-07	8.69841e-11	1.92658e-07	0.278912	403963	182.305	403781
1.46631	30.7261	3.32178	30.9051	-6.17026	16.4655	0.279019	0.000781687	32675.5	377.489	1	11	0.00468356	0.000151546	0	1.22173e-08	-4.59553e-05	2.96214e-06	40.497	0.0195461	0.0148636	-0.0126934	-6.14391	30.9186	30.741	3.30909	0.0321696	0.00347784	0.0323571	6.17026	377489	3.49173e+06	3.51207e+06	-83.8297	0.0000000E+000	0.0000000E+000	0.0000000E+000	83.8297	0.0000000E+000	0.0000000E+000	0.0000000E+000	-83.8297	0.0000000E+000	0.0000000E+000	0.0000000E+000	-6.17026	0.0000000E+000	0.0000000E+000	0.0000000E+000	6.17026	9.24988	83.8297	1.28163e-06	2.18105e-07	-3.59227e-11	2.18141e-07	0.279065	356945	58.7899	357003
1.00006	31.3233	2.96359	31.4632	-5.40483	19.64	0.279021	0.000775852	53700	476.436	1	12	0.00468947	0.000149046	0	-2.40955e-06	0.000221417	3.48075e-06	15.271	0.0233535	0.0225289	-0.00615098	-5.38982	31.4851	31.3459	2.95744	0.0316418	0.00299373	0.0317831	5.40483	476436	5.03563e+06	5.05812e+06	-84.5952	0.0000000E+000	0.0000000E+000	0.0000000E+000	84.5952	0.0000000E+000	0.0000000E+000	0.0000000E+000	-84.5952	0.0000000E+000	0.0000000E+000	0.0000000E+000	-5.40483	0.0000000E+000	0.0000000E+000	0.0000000E+000	5.40483	10.5694	84.5952	-2.42176e-06	2.16479e-07	1.71787e-10	2.16307e-07	0.278799	359631	285.386	359346
0.681362	31.8163	2.70877	31.9314	-4.8663	22.7522	0.279019	0.000857289	86232.2	620.551	1	12	0.00468751	0.000146799	0	-8.24639e-06	-0.00038972	2.1773e-06	-132.991	0.0148318	-0.0101136	0.0108488	-4.88724	31.9223	31.8062	2.71962	0.0312042	0.00265666	0.0313171	4.8663	620551	7.28878e+06	7.31515e+06	-85.1337	0.0000000E+000	0.0000000E+000	0.0000000E+000	85.1337	0.0000000E+000	0.0000000E+000	0.0000000E+000	-85.1337	0.0000000E+000	0.0000000E+000	0.0000000E+000	-4.8663	0.0000000E+000	0.0000000E+000	0.0000000E+000	4.8663	11.7457	85.1337	-5.83685e-06	2.392e-07	-3.34103e-10	2.39534e-07	0.279409	325467	454.596	325922
0.464091	32.2668	2.60013	32.3714	-4.60706	27.3088	0.279012	0.000180586	131893	850.921	1	12	0.00468879	0.000144844	0	-1.43512e-05	0.000183221	2.54187e-06	-88.8274	0.0175491	0.000359143	0.0175454	-4.63796	32.3732	32.2672	2.61767	0.0307917	0.00248126	0.0308915	4.60706	850920	1.05597e+07	1.05939e+07	-85.3929	0.0000000E+000	0.0000000E+000	0.0000000E+000	85.3929	0.0000000E+000	0.0000000E+000	0.0000000E+000	-85.3929	0.0000000E+000	0.0000000E+000	0.0000000E+000	-4.60706	0.0000000E+000	0.0000000E+000	0.0000000E+000	4.60706	12.4097	85.3929	-6.10484e-06	5.03858e-08	3.30872e-11	5.03527e-08	0.278829	1.54504e+06	1014.59	1.54402e+06
0.316193	32.6785	2.67828	32.7881	-4.68539	33.9848	0.279028	-4.62018e-05	187937	1253.98	1	12	0.00468519	0.000142893	0	-1.48808e-05	0.000125927	2.72581e-06	33.8115	0.0190759	0.0158496	-0.010615	-4.66465	32.803	32.6944	2.66766	0.0303969	0.00249128	0.0304989	4.68539	1.25398e+06	1.53002e+07	1.53515e+07	-85.3146	0.0000000E+000	0.0000000E+000	0.0000000E+000	85.3146	0.0000000E+000	0.0000000E+000	0.0000000E+000	-85.3146	0.0000000E+000	0.0000000E+000	0.0000000E+000	-4.68539	0.0000000E+000	0.0000000E+000	0.0000000E+000	4.68539	12.2013	85.3146	-5.296e-07	-1.28916e-08	-5.81805e-12	-1.28858e-08	0.278902	6.03933e+06	2725.59	6.03661e+06
0.215268	33.0685	2.99553	33.2039	-5.17605	43.7785	0.279011	-0.000927806	246812	2008.8	1	12	0.00468956	0.000141235	0	-5.82466e-06	6.86329e-05	1.48051e-06	-57.9784	0.0104826	0.00555827	0.00888762	-5.19046	33.2102	33.074	3.00442	0.0299941	0.00271704	0.030117	5.17605	2.0088e+06	2.21757e+07	2.22665e+07	-84.824	0.0000000E+000	0.0000000E+000	0.0000000E+000	84.824	0.0000000E+000	0.0000000E+000	0.0000000E+000	-84.824	0.0000000E+000	0.0000000E+000	0.0000000E+000	-5.17605	0.0000000E+000	0.0000000E+000	0.0000000E+000	5.17605	11.0393	84.824	9.05617e-06	-2.58868e-07	-6.3678e-11	-2.58804e-07	0.278942	300721	73.9733	300647
0.146929	33.4683	3.4727	33.648	-5.92386	58.1168	0.279037	-9.42081e-05	311922	3322.48	1	12	0.00469155	0.00013943	0	1.85415e-05	8.77309e-05	1.69821e-06	-54.0291	0.0121796	0.007154	0.00985717	-5.93929	33.6561	33.4754	3.48255	0.0295608	0.00306725	0.0297195	5.92386	3.32248e+06	3.20206e+07	3.21925e+07	-84.0761	0.0000000E+000	0.0000000E+000	0.0000000E+000	84.0761	0.0000000E+000	0.0000000E+000	0.0000000E+000	-84.0761	0.0000000E+000	0.0000000E+000	0.0000000E+000	-5.92386	0.0000000E+000	0.0000000E+000	0.0000000E+000	5.92386	9.63755	84.0761	2.43662e-05	-2.62876e-08	-8.26497e-12	-2.62793e-08	0.278949	2.96192e+06	931.246	2.96099e+06
0.0999041	34.0404	4.21325	34.3001	-7.05574	79.193	0.279021	-3.46e-05	378111	5705.09	1	12	0.00468805	0.000136677	0	5.31537e-05	8.77309e-05	1.23426e-06	-44.4208	0.00903047	0.00644973	0.00632063	-7.06489	34.3073	34.0468	4.21957	0.0289336	0.00358118	0.0291544	7.05574	5.70509e+06	4.60935e+07	4.64452e+07	-82.9443	0.0000000E+000	0.0000000E+000	0.0000000E+000	82.9443	0.0000000E+000	0.0000000E+000	0.0000000E+000	-82.9443	0.0000000E+000	0.0000000E+000	0.0000000E+000	-7.05574	0.0000000E+000	0.0000000E+000	0.0000000E+000	7.05574	8.07936	82.9443	3.46122e-05	-9.65411e-09	-3.03549e-12	-9.65108e-09	0.278933	8.0642e+06	2535.58	8.06166e+06
0.0680626	34.7927	5.32417	35.1977	-8.70023	110.12	0.279015	0.000591467	439197	10049.3	1	12	0.00468762	0.00013318	0	8.55096e-05	0.000431496	1.19681e-06	32.2008	0.0089864	0.00760416	-0.00478875	-8.69066	35.2045	34.8003	5.31938	0.0280841	0.00429758	0.028411	8.70023	1.00493e+07	6.56707e+07	6.64351e+07	-81.2998	0.0000000E+000	0.0000000E+000	0.0000000E+000	81.2998	0.0000000E+000	0.0000000E+000	0.0000000E+000	-81.2998	0.0000000E+000	0.0000000E+000	0.0000000E+000	-8.70023	0.0000000E+000	0.0000000E+000	0.0000000E+000	8.70023	6.53485	81.2998	3.23559e-05	1.65028e-07	2.55215e-10	1.64773e-07	0.278584	471734	729.534	471005
0.0464052	35.6891	6.94637	36.3588	-11.0141	155.472	0.279025	0.00117769	493737	18021.5	1	12	0.00468581	0.000128877	0	8.79359e-05	-7.75924e-06	1.55693e-06	-71.2927	0.0120807	0.00387471	0.0114425	-11.0306	36.3648	35.693	6.95781	0.026997	0.00525457	0.0275036	11.0141	1.80215e+07	9.25911e+07	9.43286e+07	-78.9859	0.0000000E+000	0.0000000E+000	0.0000000E+000	78.9859	0.0000000E+000	0.0000000E+000	0.0000000E+000	-78.9859	0.0000000E+000	0.0000000E+000	0.0000000E+000	-11.0141	0.0000000E+000	0.0000000E+000	0.0000000E+000	11.0141	5.13781	78.9859	2.42625e-06	3.28605e-07	-9.13801e-12	3.28615e-07	0.279032	236925	6.58851	236931
0.0315922	36.6419	8.94334	37.7176	-13.7162	222.076	0.279016	0.000768011	563301	31670.4	1	12	0.00468229	0.000124141	0	1.91754e-05	-8.41514e-05	6.78359e-07	-30.3379	0.00546443	0.00471614	0.00276008	-13.7186	37.7228	36.6466	8.9461	0.0257568	0.00628656	0.0265129	13.7162	3.16704e+07	1.29757e+08	1.33566e+08	-76.2838	0.0000000E+000	0.0000000E+000	0.0000000E+000	76.2838	0.0000000E+000	0.0000000E+000	0.0000000E+000	-76.2838	0.0000000E+000	0.0000000E+000	0.0000000E+000	-13.7162	0.0000000E+000	0.0000000E+000	0.0000000E+000	13.7162	4.09712	76.2838	-6.87605e-05	2.14287e-07	-6.46292e-11	2.14352e-07	0.2791	363297	109.571	363406
0.0215268	38.0065	11.3976	39.6787	-16.6933	319.815	0.279026	0.00035121	648674	53523	1	12	0.00469187	0.000118247	0	-0.000128745	-0.00029423	1.62913e-06	-31.2886	0.0137774	0.0117736	0.00715528	-16.6983	39.692	38.0183	11.4048	0.0241403	0.00723935	0.0252024	16.6933	5.3523e+07	1.78478e+08	1.8633e+08	-73.3067	0.0000000E+000	0.0000000E+000	0.0000000E+000	73.3067	0.0000000E+000	0.0000000E+000	0.0000000E+000	-73.3067	0.0000000E+000	0.0000000E+000	0.0000000E+000	-16.6933	0.0000000E+000	0.0000000E+000	0.0000000E+000	16.6933	3.3346	73.3067	-0.000147921	9.79968e-08	-1.03336e-10	9.81001e-08	0.27932	794470	837.76	795308
0.0146812	40.0014	14.9131	42.6909	-20.4461	463.116	0.279016	-0.000355729	726929	88706.4	1	12	0.00468686	0.000109786	0	-0.000308464	-6.50534e-05	1.00879e-06	-47.0389	0.00918869	0.00626211	0.00672443	-20.4516	42.6992	40.0077	14.9198	0.0219485	0.00818268	0.0234242	20.4461	8.87064e+07	2.37938e+08	2.53936e+08	-69.5539	0.0000000E+000	0.0000000E+000	0.0000000E+000	69.5539	0.0000000E+000	0.0000000E+000	0.0000000E+000	-69.5539	0.0000000E+000	0.0000000E+000	0.0000000E+000	-20.4461	0.0000000E+000	0.0000000E+000	0.0000000E+000	20.4461	2.68231	69.5539	-0.000179719	-9.92541e-08	2.31414e-11	-9.92773e-08	0.279081	784349	182.873	784532
0.0100092	42.3432	20.0609	46.8549	-25.3501	673.298	0.27902	-0.00052291	792633	145299	1	12	0.00468801	0.000100054	0	-0.000380204	-7.75924e-06	2.91433e-06	54.9089	0.0291277	0.0167449	-0.0238334	-25.315	46.8599	42.3599	20.037	0.0192874	0.00913775	0.0213425	25.3501	1.45299e+08	3.06687e+08	3.39365e+08	-64.6499	0.0000000E+000	0.0000000E+000	0.0000000E+000	64.6499	0.0000000E+000	0.0000000E+000	0.0000000E+000	-64.6499	0.0000000E+000	0.0000000E+000	0.0000000E+000	-25.3501	0.0000000E+000	0.0000000E+000	0.0000000E+000	25.3501	2.11074	64.6499	-7.17395e-05	-1.45902e-07	4.05739e-12	-1.45907e-07	0.279028	533592	14.8386	533606