File: txt/19151_R306_UA711_SOC00_C07.mpt
EC-Lab ASCII FILE
Nb header lines : 65

Potentio Electrochemical Impedance Spectroscopy

Run on channel : 7 (SN 66126)
Grouped channel(s) : 3, 4, 5, 6, 7
User :
CE vs. WE compliance from -10 V to 10 V
Electrode connection : standard
Potential control : Ewe
Ewe ctrl range : min = -10.00 V, max = 10.00 V
Safety Limits :
	Do not start on E overload
Acquisition started on : 11/12/2025 11:40:22.150
Loaded Setting File :  C:\Users\Celltest\OneDrive - store-dot.com\Documents\EC-Lab\Data\@Biologic Test Protocols\anode half cell EIS SOC00.mps
Saved on :
	File : 19147_R306_UA711_SOC00_C07.mpr
	Directory : C:\Users\Celltest\OneDrive - store-dot.com\Documents\EC-Lab\Data\Charmaine\
	Host : 169.254.61.224
Device : VMP-3e (SN .003165)
Address : USB
EC-LAB for windows v11.62 (software)
Internet server v27.00 (firmware)
Command interpretor v12.03 (firmware)
Electrode material :
Initial state :
Electrolyte :
Comments :
Electrode surface area : 0.001 cm²
Characteristic mass : 0.001 g
Equivalent Weight : 0.000 g/eq.
Density : 0.000 g/cm3
Volume (V) : 0.001 cm³
Record Ece
Cycle Definition : Charge/Discharge alternance
Mode                Single sine
E (V)               0.0000
vs.                 Eoc
tE (h:m:s)          0:00:0.0000
record              0
dI                  0.000
unit dI             mA
dt (s)              0.000
fi                  100.000
unit fi             kHz
ff                  10.000
unit ff             mHz
Nd                  6
Points              per decade
spacing             Logarithmic
Va (mV)             5.0
pw                  0.10
Na                  2
corr                0
E range min (V)     -10.000
E range max (V)     10.000
I Range             Auto
Bandwidth           5
nc cycles           0
goto Ns'            0
nr cycles           0
inc. cycle          0

freq/Hz	Re(Z)/Ohm	-Im(Z)/Ohm	|Z|/Ohm	Phase(Z)/deg	time/s	<Ewe>/V	<I>/mA	Cs/µF	Cp/µF	cycle number	I Range	|Ewe|/V	|I|/A	Ns	(Q-Qo)/mA.h	<Ece>/V	|Ece|/V	Phase(Zce)/deg	|Zce|/Ohm	Re(Zce)/Ohm	-Im(Zce)/Ohm	Phase(Zwe-ce)/deg	|Zwe-ce|/Ohm	Re(Zwe-ce)/Ohm	-Im(Zwe-ce)/Ohm	Re(Y)/Ohm-1	Im(Y)/Ohm-1	|Y|/Ohm-1	Phase(Y)/deg	Re(C)/nF	Im(C)/nF	|C|/nF	Phase(C)/deg	Re(M)	Im(M)	|M|	Phase(M)/deg	Re(Permittivity)	Im(Permittivity)	|Permittivity|	Phase(Permittivity)/deg	Re(Resistivity)/Ohm.cm	Im(Resistivity)/Ohm.cm	|Resistivity|/Ohm.cm	Phase(Resistivity)/deg	Re(Conductivity)/mS/cm	Im(Conductivity)/mS/cm	|Conductivity|/mS/cm	Phase(Conductivity)/deg	Tan(Delta)	Loss Angle(Delta)/deg	dq/mA.h	Pwe/W	Pce/W	Pwe-ce/W	<Ewe-Ece>/V	Rwe/Ohm	Rce/Ohm	Rwe-ce/Ohm		Ewe-Ece/V
100004	1.97069	1.10537	2.25952	-29.2882	1.91056	0.166836	0.0462545	1.43979	0.34457	1	9	0.00468492	0.00207341	0	7.29593e-06	-8.68658e-05	3.60438e-05	88.9723	0.0173838	0.000311797	-0.017381	-28.8986	2.25134	1.971	1.08798	0.385998	0.216507	0.442572	29.2882	344.57	614.311	704.348	-60.7118	0.0000000E+000	0.0000000E+000	0.0000000E+000	60.7118	0.0000000E+000	0.0000000E+000	0.0000000E+000	-60.7118	0.0000000E+000	0.0000000E+000	0.0000000E+000	-29.2882	0.0000000E+000	0.0000000E+000	0.0000000E+000	29.2882	1.78284	60.7118	7.29593e-06	7.7169e-06	-4.01793e-09	7.72091e-06	0.166922	3606.9	1.878	3608.78
68132	2.255	1.35571	2.63116	-31.0142	2.41751	0.166846	0.0421213	1.72307	0.457447	1	9	0.00508055	0.00193092	0	1.85251e-05	-0.00027762	2.6303e-05	84.5351	0.013622	0.0012973	-0.0135601	-30.746	2.62531	2.2563	1.34215	0.325727	0.195827	0.380061	31.0142	457.447	760.892	887.814	-58.9858	0.0000000E+000	0.0000000E+000	0.0000000E+000	58.9858	0.0000000E+000	0.0000000E+000	0.0000000E+000	-58.9858	0.0000000E+000	0.0000000E+000	0.0000000E+000	-31.0142	0.0000000E+000	0.0000000E+000	0.0000000E+000	31.0142	1.66334	58.9858	1.12292e-05	7.02778e-06	-1.16937e-08	7.03947e-06	0.167124	3961.09	6.59097	3967.68
46420.4	2.63635	1.64793	3.10902	-32.0087	2.92455	0.166849	0.0459566	2.08052	0.584524	1	9	0.00510469	0.00164189	0	1.48489e-05	-0.000105941	1.87755e-05	26.5782	0.0114352	0.0102268	-0.00511634	-31.8292	3.115	2.64658	1.64281	0.272744	0.170487	0.321644	32.0087	584.524	935.119	1102.78	-57.9913	0.0000000E+000	0.0000000E+000	0.0000000E+000	57.9913	0.0000000E+000	0.0000000E+000	0.0000000E+000	-57.9913	0.0000000E+000	0.0000000E+000	0.0000000E+000	-32.0087	0.0000000E+000	0.0000000E+000	0.0000000E+000	32.0087	1.5998	57.9913	-3.67617e-06	7.66781e-06	-4.8687e-09	7.67268e-06	0.166955	3630.58	2.30524	3632.88
31621.1	3.0898	1.90663	3.63072	-31.6776	3.30756	0.166877	0.0471109	2.63983	0.727988	1	9	0.00516065	0.00142139	0	1.91197e-05	-6.77904e-05	8.3561e-06	-57.3597	0.00587884	0.00317083	0.00495041	-31.7178	3.63602	3.09297	1.91158	0.234393	0.144638	0.275427	31.6776	727.988	1179.74	1386.28	-58.3224	0.0000000E+000	0.0000000E+000	0.0000000E+000	58.3224	0.0000000E+000	0.0000000E+000	0.0000000E+000	-58.3224	0.0000000E+000	0.0000000E+000	0.0000000E+000	-31.6776	0.0000000E+000	0.0000000E+000	0.0000000E+000	31.6776	1.62055	58.3224	4.27078e-06	7.86174e-06	-3.19367e-09	7.86493e-06	0.166945	3542.22	1.43895	3543.66
21544.7	3.62134	2.13185	4.20225	-30.485	3.69056	0.166894	0.0417117	3.46516	0.891814	1	9	0.00475454	0.00113143	0	2.24006e-05	-0.000105941	6.63497e-06	20.8064	0.00586424	0.00548181	-0.00208305	-30.4227	4.20592	3.62682	2.12977	0.205072	0.120724	0.237968	30.485	891.814	1514.91	1757.92	-59.515	0.0000000E+000	0.0000000E+000	0.0000000E+000	59.515	0.0000000E+000	0.0000000E+000	0.0000000E+000	-59.515	0.0000000E+000	0.0000000E+000	0.0000000E+000	-30.485	0.0000000E+000	0.0000000E+000	0.0000000E+000	30.485	1.69868	59.515	3.28087e-06	6.96141e-06	-4.41898e-09	6.96583e-06	0.167	4001.13	2.53985	4003.67
14678.6	4.26659	2.29103	4.84279	-28.2345	4.22856	0.166841	-0.00744476	4.73265	1.05919	1	10	0.00466934	0.000964183	0	2.34097e-05	-4.87149e-05	1.14033e-05	-41.3886	0.0118269	0.00887302	0.00781949	-28.2662	4.85431	4.27546	2.29885	0.181924	0.0976876	0.206492	28.2345	1059.19	1972.54	2238.93	-61.7655	0.0000000E+000	0.0000000E+000	0.0000000E+000	61.7655	0.0000000E+000	0.0000000E+000	0.0000000E+000	-61.7655	0.0000000E+000	0.0000000E+000	0.0000000E+000	-28.2345	0.0000000E+000	0.0000000E+000	0.0000000E+000	28.2345	1.8623	61.7655	1.00908e-06	-1.24209e-06	3.62671e-10	-1.24245e-06	0.16689	22410.5	6.54352	22417.1
10002.2	4.86839	2.39584	5.42598	-26.2028	4.48752	0.166841	-0.00994646	6.64149	1.29487	1	10	0.00482114	0.000888529	0	2.2087e-05	-0.000258545	7.77035e-06	-137.823	0.00874519	-0.00648078	0.00587177	-26.2887	5.42276	4.8619	2.40171	0.165359	0.081377	0.184299	26.2028	1294.87	2631.19	2932.55	-63.7972	0.0000000E+000	0.0000000E+000	0.0000000E+000	63.7972	0.0000000E+000	0.0000000E+000	0.0000000E+000	-63.7972	0.0000000E+000	0.0000000E+000	0.0000000E+000	-26.2028	0.0000000E+000	0.0000000E+000	0.0000000E+000	26.2028	2.03202	63.7972	-1.32265e-06	-1.65947e-06	2.5716e-09	-1.66205e-06	0.167099	16773.9	25.9936	16799.9
6810.42	5.48381	2.49382	6.02423	-24.4542	4.74656	0.166879	-0.00674861	9.37089	1.60586	1	10	0.00476526	0.000791015	0	2.09082e-05	-0.000258545	2.73463e-05	13.9736	0.0345712	0.0335481	-0.00834808	-24.2507	6.05135	5.51736	2.48547	0.151105	0.0687167	0.165996	24.4542	1605.86	3531.23	3879.22	-65.5458	0.0000000E+000	0.0000000E+000	0.0000000E+000	65.5458	0.0000000E+000	0.0000000E+000	0.0000000E+000	-65.5458	0.0000000E+000	0.0000000E+000	0.0000000E+000	-24.4542	0.0000000E+000	0.0000000E+000	0.0000000E+000	24.4542	2.19896	65.5458	-1.17885e-06	-1.1262e-06	1.74482e-09	-1.12795e-06	0.167138	24727.9	38.3108	24766.2
4646	6.04796	2.55597	6.56588	-22.9097	5.01062	0.16681	-0.0181365	13.4025	2.031	1	10	0.00466536	0.000710547	0	1.93396e-05	-0.00027762	2.15114e-05	-69.1554	0.0302745	0.0107727	0.028293	-23.0999	6.58685	6.05873	2.58426	0.140289	0.0592883	0.152302	22.9097	2031	4805.78	5217.32	-67.0903	0.0000000E+000	0.0000000E+000	0.0000000E+000	67.0903	0.0000000E+000	0.0000000E+000	0.0000000E+000	-67.0903	0.0000000E+000	0.0000000E+000	0.0000000E+000	-22.9097	0.0000000E+000	0.0000000E+000	0.0000000E+000	22.9097	2.36621	67.0903	-1.56856e-06	-3.02536e-06	5.03506e-09	-3.03039e-06	0.167088	9197.47	15.3072	9212.77
3163.08	6.6149	2.71176	7.14917	-22.291	5.38362	0.166729	-0.00639124	18.5549	2.66962	1	10	0.00461151	0.000645042	0	1.85222e-05	-0.000105941	1.57361e-06	-56.061	0.00243955	0.00136203	0.00202393	-22.3019	7.15119	6.61627	2.71378	0.129423	0.0530567	0.139876	22.291	2669.62	6512.12	7038.09	-67.709	0.0000000E+000	0.0000000E+000	0.0000000E+000	67.709	0.0000000E+000	0.0000000E+000	0.0000000E+000	-67.709	0.0000000E+000	0.0000000E+000	0.0000000E+000	-22.291	0.0000000E+000	0.0000000E+000	0.0000000E+000	22.291	2.43934	67.709	-8.17452e-07	-1.0656e-06	6.77095e-10	-1.06628e-06	0.166835	26087.1	16.576	26103.6
2155.69	7.16417	2.92526	7.73837	-22.2111	5.83577	0.166768	0.00661608	25.2388	3.60661	1	10	0.00456842	0.000590359	0	1.96663e-05	-0.000220394	8.94207e-06	-83.1183	0.0151468	0.0018149	0.0150377	-22.309	7.74575	7.16598	2.9403	0.119637	0.04885	0.129226	22.2111	3606.61	8832.83	9540.78	-67.7889	0.0000000E+000	0.0000000E+000	0.0000000E+000	67.7889	0.0000000E+000	0.0000000E+000	0.0000000E+000	-67.7889	0.0000000E+000	0.0000000E+000	0.0000000E+000	-22.2111	0.0000000E+000	0.0000000E+000	0.0000000E+000	22.2111	2.44907	67.7889	1.14416e-06	1.10335e-06	-1.45814e-09	1.10481e-06	0.166988	25206.5	33.3118	25239.8
1468.59	7.71769	3.22728	8.36529	-22.693	6.28709	0.166769	0.00584547	33.5802	4.99798	1	10	0.0045397	0.000542683	0	2.09103e-05	-0.000105941	2.80696e-06	-83.6808	0.00517237	0.000569306	0.00514095	-22.724	8.3678	7.71826	3.23242	0.110287	0.0461184	0.119542	22.693	4997.98	11952.1	12955	-67.307	0.0000000E+000	0.0000000E+000	0.0000000E+000	67.307	0.0000000E+000	0.0000000E+000	0.0000000E+000	-67.307	0.0000000E+000	0.0000000E+000	0.0000000E+000	-22.693	0.0000000E+000	0.0000000E+000	0.0000000E+000	22.693	2.39139	67.307	1.24401e-06	9.74846e-07	-6.19276e-10	9.75465e-07	0.166875	28529.7	18.1236	28547.8
1000.32	8.28797	3.76485	9.103	-24.4301	6.73782	0.166763	0.00594971	42.2604	7.22869	1	10	0.00452409	0.000496989	0	2.14393e-05	-8.68658e-05	7.8527e-06	46.0825	0.0158005	0.0109596	-0.0113817	-24.3364	9.10828	8.29893	3.75347	0.100018	0.0454338	0.109854	24.4301	7228.69	15913.3	17478.2	-65.5699	0.0000000E+000	0.0000000E+000	0.0000000E+000	65.5699	0.0000000E+000	0.0000000E+000	0.0000000E+000	-65.5699	0.0000000E+000	0.0000000E+000	0.0000000E+000	-24.4301	0.0000000E+000	0.0000000E+000	0.0000000E+000	24.4301	2.20141	65.5699	5.28941e-07	9.9219e-07	-5.16826e-10	9.92707e-07	0.16685	28028.8	14.6	28043.4
681.09	8.96306	4.47154	10.0165	-26.5139	7.18757	0.166766	0.00660491	52.2587	10.4145	1	10	0.00450373	0.00044963	0	2.2556e-05	-2.96395e-05	5.49339e-06	48.5337	0.0122176	0.00809024	-0.0091552	-26.4464	10.0197	8.97115	4.46238	0.0893348	0.0445678	0.0998349	26.5139	10414.5	20875.5	23329.1	-63.4861	0.0000000E+000	0.0000000E+000	0.0000000E+000	63.4861	0.0000000E+000	0.0000000E+000	0.0000000E+000	-63.4861	0.0000000E+000	0.0000000E+000	0.0000000E+000	-26.5139	0.0000000E+000	0.0000000E+000	0.0000000E+000	26.5139	2.00447	63.4861	1.11674e-06	1.10147e-06	-1.95766e-10	1.10167e-06	0.166795	25248.7	4.4875	25253.2
463.961	9.80922	5.53718	11.2642	-29.4442	7.85434	0.166767	0.00573378	61.9513	14.9703	1	10	0.00499633	0.00044356	0	2.33934e-05	6.57376e-05	6.60239e-06	-3.55316	0.014885	0.0148564	0.000922492	-29.4112	11.2775	9.82407	5.53811	0.0773103	0.0436407	0.0887772	29.4442	14970.3	26520.2	30453.7	-60.5558	0.0000000E+000	0.0000000E+000	0.0000000E+000	60.5558	0.0000000E+000	0.0000000E+000	0.0000000E+000	-60.5558	0.0000000E+000	0.0000000E+000	0.0000000E+000	-29.4442	0.0000000E+000	0.0000000E+000	0.0000000E+000	29.4442	1.77152	60.5558	8.37354e-07	9.56208e-07	3.76925e-10	9.55832e-07	0.166702	29085.1	11.465	29073.6
316.316	10.9298	6.86986	12.9095	-32.1513	8.302	0.16676	0.00484777	73.2405	20.741	1	10	0.0049809	0.000385833	0	2.42752e-05	4.66622e-05	8.37465e-06	5.24186	0.0217054	0.0216146	-0.001983	-32.0929	12.9267	10.9514	6.86788	0.0655833	0.0412222	0.0774625	32.1513	20741	32998.4	38975.4	-57.8487	0.0000000E+000	0.0000000E+000	0.0000000E+000	57.8487	0.0000000E+000	0.0000000E+000	0.0000000E+000	-57.8487	0.0000000E+000	0.0000000E+000	0.0000000E+000	-32.1513	0.0000000E+000	0.0000000E+000	0.0000000E+000	32.1513	1.59097	57.8487	8.81781e-07	8.08411e-07	2.26207e-10	8.08185e-07	0.166713	34399.3	9.6255	34389.7
215.345	12.6717	8.53887	15.2802	-33.9743	8.75257	0.166772	0.00601671	86.5537	27.0291	1	10	0.00497362	0.000325495	0	2.4882e-05	-0.000105941	6.06276e-06	-56.413	0.0186263	0.0103041	0.0155166	-34.0009	15.2974	12.682	8.55439	0.0542722	0.0365717	0.0654443	33.9743	27029.1	40111	48368	-56.0257	0.0000000E+000	0.0000000E+000	0.0000000E+000	56.0257	0.0000000E+000	0.0000000E+000	0.0000000E+000	-56.0257	0.0000000E+000	0.0000000E+000	0.0000000E+000	-33.9743	0.0000000E+000	0.0000000E+000	0.0000000E+000	33.9743	1.484	56.0257	6.06816e-07	1.00342e-06	-6.37417e-10	1.00406e-06	0.166878	27718.2	17.6078	27735.8
146.737	15.037	10.4006	18.2834	-34.6705	9.19852	0.166752	0.00420745	104.284	33.7462	1	10	0.00496757	0.000271698	0	2.50134e-05	-8.68658e-05	6.01196e-06	69.9709	0.0221274	0.00757855	-0.0207891	-34.6034	18.2778	15.0445	10.3799	0.0449826	0.0311132	0.0546944	34.6705	33746.2	48789.3	59322.8	-55.3295	0.0000000E+000	0.0000000E+000	0.0000000E+000	55.3295	0.0000000E+000	0.0000000E+000	0.0000000E+000	-55.3295	0.0000000E+000	0.0000000E+000	0.0000000E+000	-34.6705	0.0000000E+000	0.0000000E+000	0.0000000E+000	34.6705	1.44577	55.3295	1.31461e-07	7.01602e-07	-3.65483e-10	7.01967e-07	0.166839	39632.7	20.6457	39653.3
100.032	18.4059	11.9917	21.9677	-33.0847	9.64981	0.166773	0.00704047	132.679	39.536	1	10	0.00496805	0.000226153	0	2.61365e-05	-0.000163167	5.25375e-06	-115.309	0.023231	-0.0099311	0.0210013	-33.1447	21.9708	18.396	12.0127	0.0381408	0.0248491	0.0455214	33.0847	39536	60683.5	72426.4	-56.9153	0.0000000E+000	0.0000000E+000	0.0000000E+000	56.9153	0.0000000E+000	0.0000000E+000	0.0000000E+000	-56.9153	0.0000000E+000	0.0000000E+000	0.0000000E+000	-33.0847	0.0000000E+000	0.0000000E+000	0.0000000E+000	33.0847	1.53489	56.9153	1.12307e-06	1.17416e-06	-1.14877e-09	1.17531e-06	0.166936	23687.8	23.1757	23711
68.104	22.5769	12.9468	26.0257	-29.8322	10.3635	0.166819	0.000430962	180.504	44.6688	1	11	0.00498069	0.000191376	0	2.69692e-05	-0.000105941	8.43887e-06	4.15289	0.0440958	0.04398	-0.00319334	-29.778	26.0623	22.6209	12.9436	0.0333319	0.0191142	0.0384236	29.8322	44668.8	77894.7	89793.6	-60.1678	0.0000000E+000	0.0000000E+000	0.0000000E+000	60.1678	0.0000000E+000	0.0000000E+000	0.0000000E+000	-60.1678	0.0000000E+000	0.0000000E+000	0.0000000E+000	-29.8322	0.0000000E+000	0.0000000E+000	0.0000000E+000	29.8322	1.74383	60.1678	8.32684e-07	7.18927e-08	-4.56566e-11	7.19384e-08	0.166925	387086	245.825	387332
46.4415	26.8582	12.7611	29.7356	-25.4137	10.7997	0.166804	-0.000193	268.551	49.4592	1	11	0.00496715	0.000167044	0	2.68985e-05	-0.000182243	6.84352e-06	-27.666	0.0409684	0.0362844	0.0190223	-25.4168	29.7765	26.8944	12.7801	0.0303755	0.0144322	0.0336297	25.4137	49459.2	104097	115249	-64.5863	0.0000000E+000	0.0000000E+000	0.0000000E+000	64.5863	0.0000000E+000	0.0000000E+000	0.0000000E+000	-64.5863	0.0000000E+000	0.0000000E+000	0.0000000E+000	-25.4137	0.0000000E+000	0.0000000E+000	0.0000000E+000	25.4137	2.10469	64.5863	-7.06588e-08	-3.21933e-08	3.5173e-11	-3.22285e-08	0.166987	864269	944.262	865213
31.6296	30.8253	11.5593	32.9214	-20.5558	11.2295	0.166802	-0.000201947	435.305	53.6665	1	11	0.00497207	0.000151028	0	2.6891e-05	8.51134e-06	1.53683e-05	-33.9329	0.101758	0.0844276	0.0568033	-20.5966	33.0204	30.9098	11.6161	0.0284414	0.0106654	0.0303754	20.5558	53666.5	143113	152844	-69.4442	0.0000000E+000	0.0000000E+000	0.0000000E+000	69.4442	0.0000000E+000	0.0000000E+000	0.0000000E+000	-69.4442	0.0000000E+000	0.0000000E+000	0.0000000E+000	-20.5558	0.0000000E+000	0.0000000E+000	0.0000000E+000	20.5558	2.6667	69.4442	-7.50515e-09	-3.36851e-08	-1.71884e-12	-3.36834e-08	0.166793	825966	42.1463	825924
21.5517	33.9376	9.71134	35.2997	-15.9686	11.6505	0.166807	-0.000545984	760.43	57.554	1	11	0.00497775	0.000141014	0	2.69397e-05	6.57376e-05	6.58305e-06	9.88767	0.0466837	0.0459903	-0.00801639	-15.9356	35.3417	33.9836	9.70332	0.0272357	0.00779358	0.0283289	15.9686	57554	201130	209203	-74.0314	0.0000000E+000	0.0000000E+000	0.0000000E+000	74.0314	0.0000000E+000	0.0000000E+000	0.0000000E+000	-74.0314	0.0000000E+000	0.0000000E+000	0.0000000E+000	-15.9686	0.0000000E+000	0.0000000E+000	0.0000000E+000	15.9686	3.49463	74.0314	4.86869e-08	-9.1074e-08	-3.58916e-11	-9.10381e-08	0.166741	305517	120.402	305396
14.6852	36.0835	7.78028	36.9128	-12.1678	12.1102	0.166812	0.000249437	1392.98	61.8847	1	11	0.00497776	0.000134852	0	2.75931e-05	0.000161115	5.77166e-06	74.6254	0.0428	0.0113475	-0.0412684	-12.1014	36.9152	36.0949	7.73902	0.0264823	0.00571007	0.0270909	12.1678	61884.7	287010	293606	-77.8322	0.0000000E+000	0.0000000E+000	0.0000000E+000	77.8322	0.0000000E+000	0.0000000E+000	0.0000000E+000	-77.8322	0.0000000E+000	0.0000000E+000	0.0000000E+000	-12.1678	0.0000000E+000	0.0000000E+000	0.0000000E+000	12.1678	4.63782	77.8322	6.53428e-07	4.1609e-08	4.01879e-11	4.15689e-08	0.166651	668755	645.914	668109
10.0032	37.3806	6.2105	37.893	-9.43308	12.5608	0.166806	2.68491e-06	2561.86	68.8159	1	11	0.00496334	0.000130983	0	2.74276e-05	-0.000105941	7.00176e-06	56.2942	0.0534555	0.029664	-0.0444695	-9.35944	37.915	37.4103	6.16603	0.0260332	0.00432521	0.0263901	9.43308	68815.9	414199	419877	-80.5669	0.0000000E+000	0.0000000E+000	0.0000000E+000	80.5669	0.0000000E+000	0.0000000E+000	0.0000000E+000	-80.5669	0.0000000E+000	0.0000000E+000	0.0000000E+000	-9.43308	0.0000000E+000	0.0000000E+000	0.0000000E+000	9.43308	6.01894	80.5669	-1.65508e-07	4.47858e-10	-2.84442e-13	4.48143e-10	0.166912	6.21272e+07	39458	6.21667e+07
6.81719	38.3771	4.90495	38.6893	-7.28345	12.9005	0.166823	0.000750022	4759.71	76.5012	1	11	0.00497122	0.000128491	0	2.82608e-05	-0.000258545	1.4875e-05	101.514	0.115767	-0.023108	-0.113437	-7.121	38.6521	38.354	4.79151	0.0256384	0.00327683	0.025847	7.28345	76501.2	598557	603426	-82.7166	0.0000000E+000	0.0000000E+000	0.0000000E+000	82.7166	0.0000000E+000	0.0000000E+000	0.0000000E+000	-82.7166	0.0000000E+000	0.0000000E+000	0.0000000E+000	-7.28345	0.0000000E+000	0.0000000E+000	0.0000000E+000	7.28345	7.82415	82.7166	8.33169e-07	1.25121e-07	-1.93914e-10	1.25315e-07	0.167082	222424	344.716	222769
4.63925	39.3106	3.87494	39.5011	-5.62959	13.3845	0.1668	0.000518553	8853.34	85.1958	1	11	0.00500768	0.000126773	0	2.69779e-05	-6.77904e-05	3.03977e-05	-154.076	0.23978	-0.215652	0.104828	-5.81254	39.297	39.095	3.97977	0.0251936	0.00248339	0.0253157	5.62959	85195.7	864296	868485	-84.3704	0.0000000E+000	0.0000000E+000	0.0000000E+000	84.3704	0.0000000E+000	0.0000000E+000	0.0000000E+000	-84.3704	0.0000000E+000	0.0000000E+000	0.0000000E+000	-5.62959	0.0000000E+000	0.0000000E+000	0.0000000E+000	5.62959	10.1448	84.3704	-1.28288e-06	8.64947e-08	-3.51529e-11	8.65298e-08	0.166868	321665	130.73	321796
3.1604	39.6104	3.3986	39.7559	-4.904	14.0774	0.166817	0.000991183	14817.6	108.287	1	11	0.00497074	0.000125032	0	2.63562e-05	-0.000239469	4.0284e-06	127.221	0.032219	-0.019489	-0.0256563	-4.86955	39.7343	39.5909	3.37294	0.0250614	0.00215029	0.0251535	4.904	108287	1.26207e+06	1.26671e+06	-85.096	0.0000000E+000	0.0000000E+000	0.0000000E+000	85.096	0.0000000E+000	0.0000000E+000	0.0000000E+000	-85.096	0.0000000E+000	0.0000000E+000	0.0000000E+000	-4.904	0.0000000E+000	0.0000000E+000	0.0000000E+000	4.904	11.6549	85.096	-6.21694e-07	1.65346e-07	-2.37358e-10	1.65584e-07	0.167057	168301	241.599	168543
2.15577	40.1179	3.09285	40.237	-4.40843	15.0811	0.166828	0.00144984	23870.4	141.035	1	11	0.0049691	0.000123496	0	2.81447e-05	-0.000220394	5.29457e-06	85.3102	0.0428725	0.00350527	-0.0427289	-4.34738	40.2372	40.1214	3.05012	0.0247792	0.00191033	0.0248528	4.40843	141035	1.82939e+06	1.83482e+06	-85.5916	0.0000000E+000	0.0000000E+000	0.0000000E+000	85.5916	0.0000000E+000	0.0000000E+000	0.0000000E+000	-85.5916	0.0000000E+000	0.0000000E+000	0.0000000E+000	-4.40843	0.0000000E+000	0.0000000E+000	0.0000000E+000	4.40843	12.9712	85.5916	1.78848e-06	2.41874e-07	-3.19535e-10	2.42193e-07	0.167049	115067	152.013	115219
1.46631	40.6822	2.87989	40.784	-4.04921	17.2693	0.166836	0.00123703	37689.3	187.928	1	12	0.00497686	0.00012203	0	3.20243e-05	-6.77904e-05	2.92331e-06	68.8993	0.0239557	0.00862426	-0.0223494	-4.01704	40.791	40.6908	2.85754	0.0244582	0.0017314	0.0245194	4.04921	187928	2.65472e+06	2.66136e+06	-85.9508	0.0000000E+000	0.0000000E+000	0.0000000E+000	85.9508	0.0000000E+000	0.0000000E+000	0.0000000E+000	-85.9508	0.0000000E+000	0.0000000E+000	0.0000000E+000	-4.04921	0.0000000E+000	0.0000000E+000	0.0000000E+000	4.04921	14.1263	85.9508	3.87959e-06	2.06381e-07	-8.38587e-11	2.06465e-07	0.166903	134868	54.8009	134923
1.00006	41.2114	2.76456	41.3041	-3.83779	19.3968	0.166831	0.00140581	57566	257.889	1	12	0.00497508	0.00012045	0	3.35798e-05	2.75868e-05	3.90244e-06	-65.6523	0.0323988	0.0133572	0.0295173	-3.87739	41.3194	41.2248	2.79408	0.0241564	0.00162047	0.0242107	3.83779	257889	3.84436e+06	3.853e+06	-86.1622	0.0000000E+000	0.0000000E+000	0.0000000E+000	86.1622	0.0000000E+000	0.0000000E+000	0.0000000E+000	-86.1622	0.0000000E+000	0.0000000E+000	0.0000000E+000	-3.83779	0.0000000E+000	0.0000000E+000	0.0000000E+000	3.83779	14.907	86.1622	1.55554e-06	2.34533e-07	3.87818e-11	2.34494e-07	0.166803	118672	19.6234	118653
0.681362	41.7182	2.80771	41.8125	-3.8503	22.5088	0.166825	0.00149029	83193.7	375.129	1	12	0.00497483	0.000118979	0	3.22475e-05	-1.05641e-05	1.6794e-06	93.034	0.0141151	-0.000747096	-0.0140953	-3.8311	41.8108	41.7174	2.79361	0.0238623	0.00160597	0.0239163	3.8503	375129	5.57384e+06	5.58644e+06	-86.1497	0.0000000E+000	0.0000000E+000	0.0000000E+000	86.1497	0.0000000E+000	0.0000000E+000	0.0000000E+000	-86.1497	0.0000000E+000	0.0000000E+000	0.0000000E+000	-3.8503	0.0000000E+000	0.0000000E+000	0.0000000E+000	3.8503	14.8584	86.1497	-1.3323e-06	2.48617e-07	-1.57436e-11	2.48633e-07	0.166835	111941	7.08861	111948
0.464091	42.1403	2.87653	42.2384	-3.905	27.0652	0.166825	0.00146025	119220	552.933	1	12	0.00496682	0.00011759	0	2.68806e-05	-0.000296695	1.06678e-05	66.5114	0.0907198	0.0361579	-0.0832027	-3.78914	42.2688	42.1764	2.79333	0.0236202	0.00161233	0.0236752	3.905	552933	8.1003e+06	8.11915e+06	-86.095	0.0000000E+000	0.0000000E+000	0.0000000E+000	86.095	0.0000000E+000	0.0000000E+000	0.0000000E+000	-86.095	0.0000000E+000	0.0000000E+000	0.0000000E+000	-3.905	0.0000000E+000	0.0000000E+000	0.0000000E+000	3.905	14.6497	86.095	-5.36698e-06	2.43607e-07	-4.33251e-10	2.4404e-07	0.167122	114244	203.181	114447
0.316193	42.69	3.09024	42.8017	-4.1403	33.7411	0.166829	0.00112816	162883	849.058	1	12	0.00497402	0.000116211	0	1.94768e-05	-1.05641e-05	1.55403e-06	58.8089	0.0133725	0.00692555	-0.0114394	-4.12436	42.8078	42.6969	3.0788	0.0233026	0.00168682	0.0233635	4.1403	849058	1.17293e+07	1.176e+07	-85.8597	0.0000000E+000	0.0000000E+000	0.0000000E+000	85.8597	0.0000000E+000	0.0000000E+000	0.0000000E+000	-85.8597	0.0000000E+000	0.0000000E+000	0.0000000E+000	-4.1403	0.0000000E+000	0.0000000E+000	0.0000000E+000	4.1403	13.8145	85.8597	-7.40375e-06	1.88211e-07	-1.1918e-11	1.88222e-07	0.16684	147876	9.36396	147886
0.215268	43.2547	3.52333	43.3979	-4.65678	43.5344	0.166825	0.000314955	209839	1383.11	1	12	0.00497551	0.000114649	0	1.4936e-05	0.000142039	1.26441e-06	-62.9535	0.0110286	0.00501483	0.00982245	-4.66916	43.4037	43.2597	3.53316	0.0229665	0.00187075	0.0230426	4.65678	1.38311e+06	1.69799e+07	1.70362e+07	-85.3432	0.0000000E+000	0.0000000E+000	0.0000000E+000	85.3432	0.0000000E+000	0.0000000E+000	0.0000000E+000	-85.3432	0.0000000E+000	0.0000000E+000	0.0000000E+000	-4.65678	0.0000000E+000	0.0000000E+000	0.0000000E+000	4.65678	12.2766	85.3432	-4.54082e-06	5.25425e-08	4.4736e-11	5.24977e-08	0.166683	529679	450.982	529228
0.146929	43.8157	4.21219	44.0177	-5.49122	57.8726	0.166826	-0.000256216	257161	2354.87	1	12	0.00497454	0.000113012	0	2.06333e-05	-6.77904e-05	1.72776e-06	28.4859	0.0152882	0.0134373	-0.0072916	-5.4801	44.0304	43.8291	4.2049	0.0226139	0.00217397	0.0227181	5.49122	2.35487e+06	2.44956e+07	2.46085e+07	-84.5088	0.0000000E+000	0.0000000E+000	0.0000000E+000	84.5088	0.0000000E+000	0.0000000E+000	0.0000000E+000	-84.5088	0.0000000E+000	0.0000000E+000	0.0000000E+000	-5.49122	0.0000000E+000	0.0000000E+000	0.0000000E+000	5.49122	10.4021	84.5088	5.69728e-06	-4.27435e-08	1.7369e-11	-4.27609e-08	0.166894	651116	264.583	651381
0.0999041	44.3564	5.17713	44.6575	-6.65725	78.9497	0.166831	-0.000342319	307715	4135.59	1	12	0.00497219	0.00011134	0	4.40924e-05	8.4813e-05	1.92344e-06	0.078274	0.0172753	0.0172752	-2.36004e-05	-6.65465	44.6746	44.3737	5.1771	0.0222417	0.00259597	0.0223927	6.65725	4.13559e+06	3.54327e+07	3.56732e+07	-83.3428	0.0000000E+000	0.0000000E+000	0.0000000E+000	83.3428	0.0000000E+000	0.0000000E+000	0.0000000E+000	-83.3428	0.0000000E+000	0.0000000E+000	0.0000000E+000	-6.65725	0.0000000E+000	0.0000000E+000	0.0000000E+000	6.65725	8.56776	83.3428	2.34592e-05	-5.71095e-08	-2.90331e-11	-5.70804e-08	0.166746	487356	247.76	487108
0.0680626	45.0389	6.46636	45.5007	-8.17029	109.876	0.166827	-0.000242565	361619	7303.57	1	12	0.00497564	0.000109353	0	8.51061e-05	-0.000372997	2.88849e-06	-21.1004	0.0264143	0.0246433	0.00950924	-8.17773	45.5264	45.0635	6.47587	0.0217546	0.00312337	0.0219777	8.17029	7.30357e+06	5.08701e+07	5.13918e+07	-81.8297	0.0000000E+000	0.0000000E+000	0.0000000E+000	81.8297	0.0000000E+000	0.0000000E+000	0.0000000E+000	-81.8297	0.0000000E+000	0.0000000E+000	0.0000000E+000	-8.17029	0.0000000E+000	0.0000000E+000	0.0000000E+000	8.17029	6.9651	81.8297	4.10137e-05	-4.04663e-08	9.04762e-11	-4.05568e-08	0.1672	687759	1537.72	689297
0.0464052	46.0553	8.18461	46.7769	-10.077	155.227	0.16683	0.000632659	419040	12828.9	1	12	0.00497557	0.000106368	0	0.000142718	8.51134e-06	1.54647e-06	-17.85	0.0145388	0.013839	0.00445653	-10.0794	46.7913	46.0691	8.18907	0.0210483	0.00374055	0.0213781	10.077	1.28289e+07	7.21889e+07	7.332e+07	-79.923	0.0000000E+000	0.0000000E+000	0.0000000E+000	79.923	0.0000000E+000	0.0000000E+000	0.0000000E+000	-79.923	0.0000000E+000	0.0000000E+000	0.0000000E+000	-10.077	0.0000000E+000	0.0000000E+000	0.0000000E+000	10.077	5.62706	79.923	5.76118e-05	1.05546e-07	5.38477e-12	1.05541e-07	0.166821	263696	13.4533	263683
0.0315922	47.3007	10.9698	48.556	-13.057	221.833	0.166829	0.000945292	459242	23439.7	1	12	0.00497338	0.000102426	0	0.000179947	-0.000125017	9.50605e-07	51.887	0.00928093	0.00572832	-0.0073022	-13.0471	48.56	47.3064	10.9625	0.0200623	0.00465277	0.0205948	13.057	2.34397e+07	1.0107e+08	1.03752e+08	-76.943	0.0000000E+000	0.0000000E+000	0.0000000E+000	76.943	0.0000000E+000	0.0000000E+000	0.0000000E+000	-76.943	0.0000000E+000	0.0000000E+000	0.0000000E+000	-13.057	0.0000000E+000	0.0000000E+000	0.0000000E+000	13.057	4.3119	76.943	3.72293e-05	1.57702e-07	-1.18177e-10	1.5782e-07	0.166954	176484	132.252	176616
0.0215268	48.6014	14.711	50.779	-16.8403	319.57	0.166825	0.000764547	502574	42180.7	1	12	0.00497267	9.79277e-05	0	0.000140094	-0.000315771	1.67948e-06	8.77235	0.0171502	0.0169496	-0.00261557	-16.832	50.7945	48.6183	14.7083	0.0188487	0.00570522	0.0196932	16.8403	4.21807e+07	1.39355e+08	1.45598e+08	-73.1597	0.0000000E+000	0.0000000E+000	0.0000000E+000	73.1597	0.0000000E+000	0.0000000E+000	0.0000000E+000	-73.1597	0.0000000E+000	0.0000000E+000	0.0000000E+000	-16.8403	0.0000000E+000	0.0000000E+000	0.0000000E+000	16.8403	3.30376	73.1597	-3.98532e-05	1.27545e-07	-2.41422e-10	1.27787e-07	0.16714	218201	413.017	218614
0.0146812	50.5625	19.2394	54.0992	-20.8322	462.873	0.166825	0.000505002	563467	71263.8	1	12	0.00497328	9.19289e-05	0	-1.06226e-05	-0.000182243	2.2891e-06	40.0383	0.0249007	0.0190644	-0.0160186	-20.8091	54.1113	50.5816	19.2234	0.0172762	0.0065737	0.0184846	20.8322	7.12638e+07	1.87287e+08	2.00387e+08	-69.1678	0.0000000E+000	0.0000000E+000	0.0000000E+000	69.1678	0.0000000E+000	0.0000000E+000	0.0000000E+000	-69.1678	0.0000000E+000	0.0000000E+000	0.0000000E+000	-20.8322	0.0000000E+000	0.0000000E+000	0.0000000E+000	20.8322	2.62807	69.1678	-0.000150717	8.42472e-08	-9.20331e-11	8.43392e-08	0.167008	330346	360.875	330707
0.0100092	54.0109	25.2766	59.6329	-25.0792	673.054	0.16683	0.000115701	629076	113024	1	12	0.00497612	8.34458e-05	0	-0.000229865	-0.000296695	1.41135e-06	-83.985	0.0169133	0.00177233	0.0168202	-25.0931	59.6416	54.0127	25.2934	0.0151883	0.00710799	0.0167693	25.0792	1.13024e+08	2.41508e+08	2.66647e+08	-64.9208	0.0000000E+000	0.0000000E+000	0.0000000E+000	64.9208	0.0000000E+000	0.0000000E+000	0.0000000E+000	-64.9208	0.0000000E+000	0.0000000E+000	0.0000000E+000	-25.0792	0.0000000E+000	0.0000000E+000	0.0000000E+000	25.0792	2.13679	64.9208	-0.000219243	1.93023e-08	-3.43279e-11	1.93367e-08	0.167127	1.44191e+06	2564.34	1.44447e+06