File: txt/19153_R306_UA712_SOC00_C01.mpt
EC-Lab ASCII FILE
Nb header lines : 66

Potentio Electrochemical Impedance Spectroscopy

Run on channel : 1 (SN 66354)
Grouped channel(s) : 1, 2, 3, 4
User :
CE vs. WE compliance from -10 V to 10 V
Electrode connection : standard
Potential control : Ewe
Ewe ctrl range : min = -10.00 V, max = 10.00 V
Safety Limits :
	Do not start on E overload
Acquisition started on : 11/12/2025 13:00:33.882
Technique started on : 11/12/2025 13:00:35.793
Loaded Setting File :  C:\Users\Celltest\OneDrive - store-dot.com\Documents\EC-Lab\Data\@Biologic Test Protocols\anode half cell EIS SOC00.mps
Saved on :
	File : 19153_R306_UA712_SOC00_C01.mpr
	Directory : C:\Users\Celltest\OneDrive - store-dot.com\Documents\EC-Lab\Data\Charmaine\
	Host : 169.254.61.224
Device : VMP-3e (SN .003165)
Address : USB
EC-LAB for windows v11.62 (software)
Internet server v27.00 (firmware)
Command interpretor v12.03 (firmware)
Electrode material :
Initial state :
Electrolyte :
Comments :
Electrode surface area : 0.001 cm²
Characteristic mass : 0.001 g
Equivalent Weight : 0.000 g/eq.
Density : 0.000 g/cm3
Volume (V) : 0.001 cm³
Record Ece
Cycle Definition : Charge/Discharge alternance
Mode                Single sine
E (V)               0.0000
vs.                 Eoc
tE (h:m:s)          0:00:0.0000
record              0
dI                  0.000
unit dI             mA
dt (s)              0.000
fi                  100.000
unit fi             kHz
ff                  10.000
unit ff             mHz
Nd                  6
Points              per decade
spacing             Logarithmic
Va (mV)             5.0
pw                  0.10
Na                  2
corr                0
E range min (V)     -10.000
E range max (V)     10.000
I Range             Auto
Bandwidth           5
nc cycles           0
goto Ns'            0
nr cycles           0
inc. cycle          0

freq/Hz	Re(Z)/Ohm	-Im(Z)/Ohm	|Z|/Ohm	Phase(Z)/deg	time/s	<Ewe>/V	<I>/mA	Cs/µF	Cp/µF	cycle number	I Range	|Ewe|/V	|I|/A	Ns	(Q-Qo)/mA.h	<Ece>/V	|Ece|/V	Phase(Zce)/deg	|Zce|/Ohm	Re(Zce)/Ohm	-Im(Zce)/Ohm	Phase(Zwe-ce)/deg	|Zwe-ce|/Ohm	Re(Zwe-ce)/Ohm	-Im(Zwe-ce)/Ohm	Re(Y)/Ohm-1	Im(Y)/Ohm-1	|Y|/Ohm-1	Phase(Y)/deg	Re(C)/nF	Im(C)/nF	|C|/nF	Phase(C)/deg	Re(M)	Im(M)	|M|	Phase(M)/deg	Re(Permittivity)	Im(Permittivity)	|Permittivity|	Phase(Permittivity)/deg	Re(Resistivity)/Ohm.cm	Im(Resistivity)/Ohm.cm	|Resistivity|/Ohm.cm	Phase(Resistivity)/deg	Re(Conductivity)/mS/cm	Im(Conductivity)/mS/cm	|Conductivity|/mS/cm	Phase(Conductivity)/deg	Tan(Delta)	Loss Angle(Delta)/deg	dq/mA.h	Pwe/W	Pce/W	Pwe-ce/W	<Ewe-Ece>/V	Rwe/Ohm	Rce/Ohm	Rwe-ce/Ohm		Ewe-Ece/V
100004	1.79977	0.75356	1.95116	-22.7189	1.91055	0.283289	0.0501398	2.11196	0.315017	1	9	0.00474462	0.00243169	0	2.62447e-06	9.11209e-06	4.48128e-05	94.0527	0.0184287	-0.00130242	-0.0183826	-22.2337	1.94293	1.79847	0.735177	0.472749	0.197938	0.512515	22.7189	315.017	752.375	815.662	-67.2811	0.0000000E+000	0.0000000E+000	0.0000000E+000	67.2811	0.0000000E+000	0.0000000E+000	0.0000000E+000	-67.2811	0.0000000E+000	0.0000000E+000	0.0000000E+000	-22.7189	0.0000000E+000	0.0000000E+000	0.0000000E+000	22.7189	2.38836	67.2811	2.62447e-06	1.4204e-05	4.56878e-10	1.42036e-05	0.28328	5649.98	0.181734	5649.8
68132	2.01254	0.861352	2.18912	-23.1705	2.41755	0.283288	0.0474575	2.71199	0.419864	1	9	0.00509047	0.00232535	0	8.7028e-06	-9.96522e-06	1.32452e-05	73.5878	0.00569601	0.00160938	-0.00546392	-23.0224	2.18846	2.01415	0.855888	0.419957	0.179738	0.456804	23.1705	419.864	981.01	1067.08	-66.8295	0.0000000E+000	0.0000000E+000	0.0000000E+000	66.8295	0.0000000E+000	0.0000000E+000	0.0000000E+000	-66.8295	0.0000000E+000	0.0000000E+000	0.0000000E+000	-23.1705	0.0000000E+000	0.0000000E+000	0.0000000E+000	23.1705	2.33649	66.8295	6.07833e-06	1.34441e-05	-4.72924e-10	1.34446e-05	0.283298	5969.3	0.209982	5969.51
46420.4	2.27095	0.965648	2.46773	-23.036	2.92453	0.283304	0.0591181	3.55053	0.543669	1	9	0.00510799	0.00206991	0	1.95775e-05	0.000295272	2.40341e-05	69.6325	0.0116112	0.00404115	-0.0108852	-22.7667	2.46722	2.27499	0.954763	0.372917	0.158571	0.405231	23.036	543.669	1278.57	1389.36	-66.964	0.0000000E+000	0.0000000E+000	0.0000000E+000	66.964	0.0000000E+000	0.0000000E+000	0.0000000E+000	-66.964	0.0000000E+000	0.0000000E+000	0.0000000E+000	-23.036	0.0000000E+000	0.0000000E+000	0.0000000E+000	23.036	2.35174	66.964	1.08747e-05	1.67484e-05	1.74559e-08	1.67309e-05	0.283009	4792.18	4.99461	4787.18
31621.1	2.50367	1.05387	2.71643	-22.8278	3.43152	0.283302	0.0455947	4.77589	0.718841	1	9	0.00499573	0.00183908	0	2.81285e-05	4.72667e-05	5.0427e-06	-98.3967	0.00274197	-0.000400402	0.00271258	-22.8838	2.71712	2.50327	1.05659	0.339296	0.14282	0.36813	22.8278	718.841	1707.74	1852.86	-67.1722	0.0000000E+000	0.0000000E+000	0.0000000E+000	67.1722	0.0000000E+000	0.0000000E+000	0.0000000E+000	-67.1722	0.0000000E+000	0.0000000E+000	0.0000000E+000	-22.8278	0.0000000E+000	0.0000000E+000	0.0000000E+000	22.8278	2.37568	67.1722	8.55104e-06	1.29171e-05	2.15511e-09	1.29149e-05	0.283255	6213.49	1.03667	6212.45
21544.7	2.77623	1.12688	2.99622	-22.0924	3.81652	0.283285	0.0406771	6.55542	0.927282	1	9	0.00479699	0.00160101	0	3.16174e-05	0.000409736	6.14332e-06	129.514	0.00383715	-0.00244146	-0.00296023	-22.0575	2.99285	2.77379	1.12392	0.309249	0.125525	0.333754	22.0924	927.282	2284.49	2465.51	-67.9076	0.0000000E+000	0.0000000E+000	0.0000000E+000	67.9076	0.0000000E+000	0.0000000E+000	0.0000000E+000	-67.9076	0.0000000E+000	0.0000000E+000	0.0000000E+000	-22.0924	0.0000000E+000	0.0000000E+000	0.0000000E+000	22.0924	2.46364	67.9076	3.48892e-06	1.15232e-05	1.66669e-08	1.15065e-05	0.282875	6964.22	10.0729	6954.15
14678.6	3.04717	1.18156	3.26823	-21.1942	4.19952	0.28327	0.0421301	9.17654	1.19941	1	9	0.00491745	0.00150462	0	3.6941e-05	9.11209e-06	1.29333e-05	145.512	0.0085957	-0.007085	-0.00486712	-21.1595	3.25986	3.04008	1.1767	0.28528	0.11062	0.305976	21.1942	1199.41	3093.19	3317.6	-68.8058	0.0000000E+000	0.0000000E+000	0.0000000E+000	68.8058	0.0000000E+000	0.0000000E+000	0.0000000E+000	-68.8058	0.0000000E+000	0.0000000E+000	0.0000000E+000	-21.1942	0.0000000E+000	0.0000000E+000	0.0000000E+000	21.1942	2.57893	68.8058	5.32357e-06	1.19342e-05	3.83893e-10	1.19338e-05	0.283261	6723.71	0.216285	6723.5
10002.2	3.35318	1.26879	3.5852	-20.7258	4.46052	0.283304	0.0459673	12.5411	1.57067	1	9	0.00460353	0.00128404	0	4.10361e-05	0.000123576	1.17649e-05	-34.2886	0.00916246	0.00757011	0.00516178	-20.7601	3.59411	3.36075	1.27395	0.260874	0.0987103	0.278925	20.7258	1570.67	4151.01	4438.23	-69.2742	0.0000000E+000	0.0000000E+000	0.0000000E+000	69.2742	0.0000000E+000	0.0000000E+000	0.0000000E+000	-69.2742	0.0000000E+000	0.0000000E+000	0.0000000E+000	-20.7258	0.0000000E+000	0.0000000E+000	0.0000000E+000	20.7258	2.64282	69.2742	4.09505e-06	1.30227e-05	5.68045e-09	1.3017e-05	0.28318	6163.16	2.68835	6160.47
6810.42	3.63391	1.31427	3.86427	-19.8834	4.84353	0.283286	0.0396713	17.7813	2.05681	1	9	0.00497482	0.00128739	0	4.5231e-05	0.000180808	4.64969e-05	-94.1382	0.0361172	-0.00260629	0.0360231	-20.3975	3.87423	3.6313	1.35029	0.243354	0.0880133	0.258781	19.8834	2056.81	5687.03	6047.54	-70.1166	0.0000000E+000	0.0000000E+000	0.0000000E+000	70.1166	0.0000000E+000	0.0000000E+000	0.0000000E+000	-70.1166	0.0000000E+000	0.0000000E+000	0.0000000E+000	-19.8834	0.0000000E+000	0.0000000E+000	0.0000000E+000	19.8834	2.76497	70.1166	4.19491e-06	1.12383e-05	7.17288e-09	1.12312e-05	0.283106	7140.84	4.55765	7136.29
4646	3.96145	1.48865	4.23192	-20.5955	5.26759	0.283296	-0.0182811	23.0116	2.84747	1	10	0.00505819	0.00119525	0	4.54535e-05	0.000390658	8.8228e-06	102.155	0.00738158	-0.00155419	-0.00721611	-20.5114	4.22793	3.95989	1.48144	0.221197	0.0831225	0.236299	20.5955	2847.47	7577.38	8094.74	-69.4045	0.0000000E+000	0.0000000E+000	0.0000000E+000	69.4045	0.0000000E+000	0.0000000E+000	0.0000000E+000	-69.4045	0.0000000E+000	0.0000000E+000	0.0000000E+000	-20.5955	0.0000000E+000	0.0000000E+000	0.0000000E+000	20.5955	2.66109	69.4045	2.22547e-07	-5.17895e-06	-7.14165e-09	-5.17181e-06	0.282905	15496.7	21.3695	15475.3
3163.08	4.28577	1.64187	4.5895	-20.9617	5.64165	0.283221	-0.0185643	30.6459	3.92208	1	10	0.00499604	0.00108858	0	4.2953e-05	-9.96522e-06	6.1407e-06	-17.6483	0.00564102	0.00537553	0.00171021	-20.9576	4.59513	4.29114	1.64358	0.203469	0.0779483	0.217889	20.9617	3922.08	10237.8	10963.4	-69.0383	0.0000000E+000	0.0000000E+000	0.0000000E+000	69.0383	0.0000000E+000	0.0000000E+000	0.0000000E+000	-69.0383	0.0000000E+000	0.0000000E+000	0.0000000E+000	-20.9617	0.0000000E+000	0.0000000E+000	0.0000000E+000	20.9617	2.6103	69.0383	-2.50049e-06	-5.2578e-06	1.84998e-10	-5.25799e-06	0.283231	15256.2	0.536794	15256.7
2155.69	4.65394	1.82256	4.99809	-21.3861	6.09284	0.283222	-0.0110508	40.5091	5.3865	1	10	0.00494205	0.000988787	0	4.14981e-05	0.000123576	4.34673e-06	24.794	0.00439602	0.0039908	-0.0018435	-21.3498	5.00113	4.65793	1.82071	0.1863	0.072958	0.200076	21.3861	5386.5	13754.6	14771.7	-68.6139	0.0000000E+000	0.0000000E+000	0.0000000E+000	68.6139	0.0000000E+000	0.0000000E+000	0.0000000E+000	-68.6139	0.0000000E+000	0.0000000E+000	0.0000000E+000	-21.3861	0.0000000E+000	0.0000000E+000	0.0000000E+000	21.3861	2.55352	68.6139	-1.45495e-06	-3.12983e-06	-1.36561e-09	-3.12847e-06	0.283099	25629.1	11.1825	25617.9
1468.59	5.06348	2.04139	5.45949	-21.9573	6.54411	0.283228	-0.00955258	53.0877	7.42234	1	10	0.00490182	0.000897853	0	3.98078e-05	0.000276194	7.34743e-06	14.1977	0.00818334	0.00793338	-0.00200711	-21.9067	5.4661	5.07141	2.03938	0.169881	0.068489	0.183167	21.9573	7422.34	18410.4	19850.3	-68.0427	0.0000000E+000	0.0000000E+000	0.0000000E+000	68.0427	0.0000000E+000	0.0000000E+000	0.0000000E+000	-68.0427	0.0000000E+000	0.0000000E+000	0.0000000E+000	-21.9573	0.0000000E+000	0.0000000E+000	0.0000000E+000	21.9573	2.48041	68.0427	-1.69024e-06	-2.70556e-06	-2.63837e-09	-2.70292e-06	0.282952	29649.4	28.9131	29620.4
1000.32	5.51295	2.32382	5.98271	-22.8564	6.9948	0.283235	-0.00944823	68.4665	10.3297	1	10	0.0048713	0.00081423	0	3.91252e-05	6.6344e-05	7.21649e-06	10.4165	0.00886296	0.0087169	-0.00160244	-22.8099	5.99012	5.52167	2.32222	0.154024	0.0649243	0.167148	22.8564	10329.7	24505.9	26594	-67.1436	0.0000000E+000	0.0000000E+000	0.0000000E+000	67.1436	0.0000000E+000	0.0000000E+000	0.0000000E+000	-67.1436	0.0000000E+000	0.0000000E+000	0.0000000E+000	-22.8564	0.0000000E+000	0.0000000E+000	0.0000000E+000	22.8564	2.37236	67.1436	-6.82623e-07	-2.67607e-06	-6.26834e-10	-2.67544e-06	0.283168	29977.5	7.02184	29970.5
681.09	6.00061	2.67388	6.5694	-24.0178	7.44456	0.283219	-0.0115838	87.3924	14.4779	1	10	0.00484412	0.000737377	0	3.72089e-05	-2.90425e-05	1.327e-05	-93.4858	0.0179962	-0.0010942	0.0179629	-24.1646	6.57573	5.99952	2.69184	0.139041	0.061957	0.152221	24.0178	14477.9	32490.8	35570.5	-65.9822	0.0000000E+000	0.0000000E+000	0.0000000E+000	65.9822	0.0000000E+000	0.0000000E+000	0.0000000E+000	-65.9822	0.0000000E+000	0.0000000E+000	0.0000000E+000	-24.0178	0.0000000E+000	0.0000000E+000	0.0000000E+000	24.0178	2.24416	65.9822	-1.91629e-06	-3.28075e-06	3.36422e-10	-3.28108e-06	0.283248	24449.7	2.50717	24452.2
463.961	6.58059	3.13068	7.28733	-25.4425	7.89635	0.283222	-0.00898237	109.572	20.2227	1	10	0.00484236	0.00066449	0	3.58823e-05	0.000180808	4.50524e-06	1.13743	0.00678001	0.00677867	-0.000134587	-25.4187	7.2934	6.58736	3.13055	0.123916	0.0589524	0.137224	25.4425	20222.7	42507.5	47072.8	-64.5575	0.0000000E+000	0.0000000E+000	0.0000000E+000	64.5575	0.0000000E+000	0.0000000E+000	0.0000000E+000	-64.5575	0.0000000E+000	0.0000000E+000	0.0000000E+000	-25.4425	0.0000000E+000	0.0000000E+000	0.0000000E+000	25.4425	2.10197	64.5575	-1.32662e-06	-2.544e-06	-1.62408e-09	-2.54238e-06	0.283041	31530.8	20.1292	31510.7
316.316	7.25223	3.70875	8.14553	-27.085	8.34407	0.283225	-0.0107974	135.666	28.1247	1	10	0.00482639	0.000592521	0	3.49288e-05	0.000199885	3.97575e-06	-30.8419	0.00670989	0.00576102	0.00343997	-27.088	8.15222	7.25799	3.71219	0.109303	0.0558971	0.122767	27.085	28124.7	54996.1	61770.3	-62.915	0.0000000E+000	0.0000000E+000	0.0000000E+000	62.915	0.0000000E+000	0.0000000E+000	0.0000000E+000	-62.915	0.0000000E+000	0.0000000E+000	0.0000000E+000	-27.085	0.0000000E+000	0.0000000E+000	0.0000000E+000	27.085	1.95544	62.915	-9.53541e-07	-3.0581e-06	-2.15824e-09	-3.05594e-06	0.283026	26230.9	18.5124	26212.4
215.345	8.13947	4.42244	9.26332	-28.5167	8.79353	0.283223	-0.01057	167.118	38.0904	1	10	0.00483204	0.000521632	0	3.42975e-05	-9.96522e-06	8.36396e-06	-102.524	0.0160342	-0.00347702	0.0156527	-28.612	9.26775	8.136	4.4381	0.0948557	0.0515382	0.107953	28.5167	38090.4	70105.1	79784.7	-61.4833	0.0000000E+000	0.0000000E+000	0.0000000E+000	61.4833	0.0000000E+000	0.0000000E+000	0.0000000E+000	-61.4833	0.0000000E+000	0.0000000E+000	0.0000000E+000	-28.5167	0.0000000E+000	0.0000000E+000	0.0000000E+000	28.5167	1.84049	61.4833	-6.31231e-07	-2.99368e-06	1.05333e-10	-2.99379e-06	0.283233	26794.9	0.942779	26795.8
146.737	9.27179	5.20733	10.634	-29.3199	9.23954	0.283216	-0.0123441	208.288	49.9458	1	10	0.00481985	0.000453248	0	3.35635e-05	0.000276194	4.77901e-06	60.607	0.0105439	0.00517492	-0.00918664	-29.2631	10.634	9.27697	5.19814	0.0819915	0.046049	0.0940378	29.3199	49945.8	88929.9	101996	-60.6801	0.0000000E+000	0.0000000E+000	0.0000000E+000	60.6801	0.0000000E+000	0.0000000E+000	0.0000000E+000	-60.6801	0.0000000E+000	0.0000000E+000	0.0000000E+000	-29.3199	0.0000000E+000	0.0000000E+000	0.0000000E+000	29.3199	1.78053	60.6801	-7.34029e-07	-3.49604e-06	-3.40936e-09	-3.49263e-06	0.28294	22943.5	22.3747	22921.1
100.032	10.7784	6.07156	12.3709	-29.3928	9.69081	0.283205	-0.010734	262.048	63.122	1	10	0.00482078	0.000389688	0	3.17746e-05	9.11209e-06	1.60665e-05	-25.4406	0.0412291	0.0372312	0.017711	-29.3797	12.412	10.8157	6.08927	0.0704296	0.0396734	0.0808351	29.3928	63122	112056	128612	-60.6072	0.0000000E+000	0.0000000E+000	0.0000000E+000	60.6072	0.0000000E+000	0.0000000E+000	0.0000000E+000	-60.6072	0.0000000E+000	0.0000000E+000	0.0000000E+000	-29.3928	0.0000000E+000	0.0000000E+000	0.0000000E+000	29.3928	1.77523	60.6072	-1.78888e-06	-3.03994e-06	-9.78095e-11	-3.03984e-06	0.283196	26383.8	0.848896	26383
68.104	12.577	6.68732	14.2443	-28.0001	10.1535	0.283234	-0.00689529	349.458	77.0221	1	10	0.00481792	0.000338234	0	3.07047e-05	0.000371581	2.82693e-06	-147.058	0.0083579	-0.00701409	0.004545	-28.0294	14.2403	12.57	6.69187	0.0619858	0.0329585	0.0702033	28.0001	77022.1	144857	164061	-61.9999	0.0000000E+000	0.0000000E+000	0.0000000E+000	61.9999	0.0000000E+000	0.0000000E+000	0.0000000E+000	-61.9999	0.0000000E+000	0.0000000E+000	0.0000000E+000	-28.0001	0.0000000E+000	0.0000000E+000	0.0000000E+000	28.0001	1.88072	61.9999	-1.06994e-06	-1.95298e-06	-2.56216e-09	-1.95042e-06	0.282862	41076.4	53.8891	41022.5
46.4415	14.602	7.11149	16.2417	-25.9671	10.5897	0.283218	-0.0131826	481.895	92.3872	1	10	0.00481316	0.000296346	0	2.93557e-05	-8.62745e-05	9.64508e-06	25.1462	0.0325467	0.0294621	-0.01383	-25.8778	16.2621	14.6315	7.09766	0.0553542	0.0269587	0.0615699	25.9671	92387.2	189699	211000	-64.0329	0.0000000E+000	0.0000000E+000	0.0000000E+000	64.0329	0.0000000E+000	0.0000000E+000	0.0000000E+000	-64.0329	0.0000000E+000	0.0000000E+000	0.0000000E+000	-25.9671	0.0000000E+000	0.0000000E+000	0.0000000E+000	25.9671	2.0533	64.0329	-1.34899e-06	-3.73356e-06	1.13733e-09	-3.73469e-06	0.283304	21484.1	6.54455	21490.7
31.6296	16.8489	7.14855	18.3027	-22.9902	11.2546	0.283283	-0.00663903	703.897	107.378	1	11	0.00481261	0.000262946	0	2.80229e-05	0.000371581	1.20146e-05	-20.8007	0.0456924	0.0427143	0.0162262	-22.9848	18.3483	16.8916	7.16478	0.0502971	0.0213398	0.0546369	22.9902	107378	253087	274924	-67.0097	0.0000000E+000	0.0000000E+000	0.0000000E+000	67.0097	0.0000000E+000	0.0000000E+000	0.0000000E+000	-67.0097	0.0000000E+000	0.0000000E+000	0.0000000E+000	-22.9902	0.0000000E+000	0.0000000E+000	0.0000000E+000	22.9902	2.35697	67.0097	-1.33278e-06	-1.88073e-06	-2.46694e-09	-1.87826e-06	0.282912	42669.4	55.9691	42613.4
21.5517	18.8773	6.86813	20.0879	-19.9929	11.6754	0.283281	-0.00686545	1075.23	125.692	1	11	0.00480661	0.000239279	0	2.7437e-05	0.000199885	3.66501e-06	64.0081	0.0153169	0.00671253	-0.0137677	-19.9494	20.0895	18.884	6.85436	0.0467811	0.0170204	0.0497812	19.9929	125692	345469	367623	-70.0071	0.0000000E+000	0.0000000E+000	0.0000000E+000	70.0071	0.0000000E+000	0.0000000E+000	0.0000000E+000	-70.0071	0.0000000E+000	0.0000000E+000	0.0000000E+000	-19.9929	0.0000000E+000	0.0000000E+000	0.0000000E+000	19.9929	2.74854	70.0071	-5.8592e-07	-1.94485e-06	-1.3723e-09	-1.94348e-06	0.283081	41261.9	29.1147	41232.8
14.6852	20.735	6.30938	21.6737	-16.9243	12.1362	0.283283	-0.00623387	1717.73	145.567	1	11	0.00481037	0.000221945	0	2.77255e-05	8.54213e-05	3.64116e-06	-71.2108	0.0164057	0.00528407	0.0155314	-16.9595	21.6833	20.7403	6.32491	0.0441406	0.0134314	0.0461389	16.9243	145567	478388	500045	-73.0757	0.0000000E+000	0.0000000E+000	0.0000000E+000	73.0757	0.0000000E+000	0.0000000E+000	0.0000000E+000	-73.0757	0.0000000E+000	0.0000000E+000	0.0000000E+000	-16.9243	0.0000000E+000	0.0000000E+000	0.0000000E+000	16.9243	3.28638	73.0757	2.88465e-07	-1.76595e-06	-5.32505e-10	-1.76542e-06	0.283197	45442.5	13.7028	45428.8
10.0032	22.3023	5.6414	23.0047	-14.1953	12.5868	0.28329	-0.00634112	2820.29	169.604	1	11	0.00480821	0.00020901	0	2.64094e-05	0.000104499	6.55609e-06	65.5506	0.0313674	0.0129826	-0.0285546	-14.1185	23.0103	22.3152	5.61285	0.0421421	0.0106599	0.0434694	14.1953	169604	670497	691615	-75.8047	0.0000000E+000	0.0000000E+000	0.0000000E+000	75.8047	0.0000000E+000	0.0000000E+000	0.0000000E+000	-75.8047	0.0000000E+000	0.0000000E+000	0.0000000E+000	-14.1953	0.0000000E+000	0.0000000E+000	0.0000000E+000	14.1953	3.95332	75.8047	-1.31603e-06	-1.79637e-06	-6.62638e-10	-1.79571e-06	0.283185	44675	16.4795	44658.5
6.81719	23.6073	5.01	24.1331	-11.9817	12.9265	0.283301	-0.0048955	4659.9	200.83	1	11	0.00480572	0.000199134	0	2.73589e-05	-0.000105352	8.01588e-06	-17.3893	0.0402536	0.0384139	0.0120303	-11.9907	24.1731	23.6457	5.02203	0.0405342	0.00860227	0.0414369	11.9817	200830	946316	967392	-78.0183	0.0000000E+000	0.0000000E+000	0.0000000E+000	78.0183	0.0000000E+000	0.0000000E+000	0.0000000E+000	-78.0183	0.0000000E+000	0.0000000E+000	0.0000000E+000	-11.9817	0.0000000E+000	0.0000000E+000	0.0000000E+000	11.9817	4.71203	78.0183	9.49507e-07	-1.3869e-06	5.15749e-10	-1.38741e-06	0.283406	57869.6	21.5201	57891.2
4.63925	24.7652	4.35963	25.146	-9.98398	13.4115	0.283289	-0.00539636	7869.05	236.529	1	11	0.00481355	0.000191424	0	2.47961e-05	0.000295272	3.9422e-06	65.2122	0.0205941	0.00863426	-0.0186967	-9.93863	25.1513	24.7738	4.34094	0.0391655	0.00689465	0.0397678	9.98398	236529	1.34362e+06	1.36428e+06	-80.016	0.0000000E+000	0.0000000E+000	0.0000000E+000	80.016	0.0000000E+000	0.0000000E+000	0.0000000E+000	-80.016	0.0000000E+000	0.0000000E+000	0.0000000E+000	-9.98398	0.0000000E+000	0.0000000E+000	0.0000000E+000	9.98398	5.68057	80.016	-2.56286e-06	-1.52873e-06	-1.59339e-09	-1.52714e-06	0.282994	52496.3	54.7168	52441.6
3.1604	25.6977	3.79528	25.9765	-8.40124	14.1044	0.283308	-0.00424344	13268.9	283.245	1	11	0.00481358	0.000185305	0	2.23231e-05	0.000314349	4.17685e-06	88.0998	0.0225404	0.000747423	-0.022528	-8.35184	25.9739	25.6985	3.77275	0.0380833	0.00562449	0.0384964	8.40124	283245	1.91784e+06	1.93865e+06	-81.5988	0.0000000E+000	0.0000000E+000	0.0000000E+000	81.5988	0.0000000E+000	0.0000000E+000	0.0000000E+000	-81.5988	0.0000000E+000	0.0000000E+000	0.0000000E+000	-8.40124	0.0000000E+000	0.0000000E+000	0.0000000E+000	8.40124	6.77098	81.5988	-2.47298e-06	-1.2022e-06	-1.33392e-09	-1.20087e-06	0.282994	66763.8	74.0788	66689.8
2.15577	26.477	3.31948	26.6842	-7.14603	15.108	0.283296	-0.00421104	22240.7	344.175	1	11	0.00481427	0.000180416	0	2.26608e-05	0.000161731	8.18314e-06	-5.13903	0.045357	0.0451747	0.00406276	-7.14263	26.7296	26.5221	3.32355	0.0371842	0.00466188	0.0374753	7.14603	344175	2.74522e+06	2.76671e+06	-82.854	0.0000000E+000	0.0000000E+000	0.0000000E+000	82.854	0.0000000E+000	0.0000000E+000	0.0000000E+000	-82.854	0.0000000E+000	0.0000000E+000	0.0000000E+000	-7.14603	0.0000000E+000	0.0000000E+000	0.0000000E+000	7.14603	7.97623	82.854	3.37745e-07	-1.19297e-06	-6.81054e-10	-1.19229e-06	0.283134	67274.5	38.4063	67236.1
1.46631	27.1071	2.92047	27.2639	-6.14923	16.5695	0.2833	-0.00380923	37165.6	426.452	1	11	0.00481625	0.000176653	0	2.53133e-05	0.000295272	2.63227e-06	40.2263	0.0149008	0.0113768	-0.00962309	-6.12657	27.2742	27.1184	2.91085	0.0364675	0.00392894	0.0366785	6.14923	426452	3.95822e+06	3.98112e+06	-83.8508	0.0000000E+000	0.0000000E+000	0.0000000E+000	83.8508	0.0000000E+000	0.0000000E+000	0.0000000E+000	-83.8508	0.0000000E+000	0.0000000E+000	0.0000000E+000	-6.14923	0.0000000E+000	0.0000000E+000	0.0000000E+000	6.14923	9.28175	83.8508	2.65245e-06	-1.07915e-06	-1.12476e-09	-1.07803e-06	0.283005	74372.1	77.5148	74294.6
1.00006	27.6127	2.61363	27.7361	-5.40712	19.744	0.283293	-0.00402808	60890.3	540.685	1	12	0.00481535	0.000173613	0	2.60962e-05	-6.71971e-05	2.7266e-06	23.7332	0.0157051	0.0143769	-0.00632093	-5.39133	27.7498	27.6271	2.60731	0.0358936	0.00339744	0.0360541	5.40712	540686	5.71228e+06	5.73781e+06	-84.5929	0.0000000E+000	0.0000000E+000	0.0000000E+000	84.5929	0.0000000E+000	0.0000000E+000	0.0000000E+000	-84.5929	0.0000000E+000	0.0000000E+000	0.0000000E+000	-5.40712	0.0000000E+000	0.0000000E+000	0.0000000E+000	5.40712	10.5649	84.5929	7.82918e-07	-1.14113e-06	2.70675e-10	-1.1414e-06	0.28336	70329.5	16.6822	70346.2
0.681362	28.0746	2.40269	28.1773	-4.89158	22.8552	0.283297	-0.00300073	97217.4	706.874	1	12	0.00481372	0.000170837	0	2.20162e-05	6.6344e-05	3.56336e-06	-1.47202	0.0208582	0.0208514	0.000535821	-4.88905	28.1981	28.0955	2.40323	0.0353603	0.00302622	0.0354896	4.89158	706874	8.25959e+06	8.28978e+06	-85.1084	0.0000000E+000	0.0000000E+000	0.0000000E+000	85.1084	0.0000000E+000	0.0000000E+000	0.0000000E+000	-85.1084	0.0000000E+000	0.0000000E+000	0.0000000E+000	-4.89158	0.0000000E+000	0.0000000E+000	0.0000000E+000	4.89158	11.6847	85.1084	-4.07998e-06	-8.50098e-07	-1.99081e-10	-8.49899e-07	0.28323	94409.1	22.1093	94387
0.464091	28.4464	2.36608	28.5446	-4.75473	27.4118	0.283295	-0.00249213	144940	995.861	1	12	0.00481496	0.000168682	0	9.98466e-06	-4.81198e-05	1.73739e-06	39.7098	0.0102998	0.00792351	-0.00658051	-4.74026	28.5519	28.4543	2.3595	0.0349123	0.0029039	0.0350329	4.75473	995861	1.19728e+07	1.20142e+07	-85.2453	0.0000000E+000	0.0000000E+000	0.0000000E+000	85.2453	0.0000000E+000	0.0000000E+000	0.0000000E+000	-85.2453	0.0000000E+000	0.0000000E+000	0.0000000E+000	-4.75473	0.0000000E+000	0.0000000E+000	0.0000000E+000	4.75473	12.0226	85.2453	-1.20316e-05	-7.06009e-07	1.19921e-10	-7.06129e-07	0.283343	113676	19.3087	113695
0.316193	28.8148	2.44438	28.9183	-4.84882	34.0859	0.283295	-0.00227729	205920	1471.26	1	12	0.00481759	0.000166593	0	-9.6172e-06	0.000161731	3.25635e-06	-13.782	0.0195468	0.018984	0.00465658	-4.85483	28.9376	28.8338	2.44903	0.0344564	0.00292295	0.0345801	4.84882	1.47126e+06	1.73435e+07	1.74058e+07	-85.1512	0.0000000E+000	0.0000000E+000	0.0000000E+000	85.1512	0.0000000E+000	0.0000000E+000	0.0000000E+000	-85.1512	0.0000000E+000	0.0000000E+000	0.0000000E+000	-4.84882	0.0000000E+000	0.0000000E+000	0.0000000E+000	4.84882	11.7882	85.1512	-1.96019e-05	-6.45145e-07	-3.68308e-10	-6.44777e-07	0.283133	124400	71.0187	124329
0.215268	29.2218	2.71302	29.3474	-5.30427	43.8791	0.283292	-0.0026552	272514	2328.92	1	12	0.00481342	0.000164015	0	-3.17185e-05	0.000276194	1.67361e-06	-36.8486	0.010204	0.0081655	0.00611937	-5.31469	29.3561	29.2299	2.71914	0.0339286	0.00315002	0.0340745	5.30427	2.32892e+06	2.50846e+07	2.51925e+07	-84.6957	0.0000000E+000	0.0000000E+000	0.0000000E+000	84.6957	0.0000000E+000	0.0000000E+000	0.0000000E+000	-84.6957	0.0000000E+000	0.0000000E+000	0.0000000E+000	-5.30427	0.0000000E+000	0.0000000E+000	0.0000000E+000	5.30427	10.7709	84.6957	-2.21013e-05	-7.52198e-07	-7.33352e-10	-7.51465e-07	0.283016	106693	104.02	106589
0.146929	29.6935	3.25533	29.8714	-6.25641	58.2176	0.28329	-0.0031915	332750	3951.81	1	12	0.00481705	0.000161259	0	-4.63578e-05	0.00023804	2.70053e-06	-19.6829	0.0167465	0.015768	0.00564046	-6.26386	29.8877	29.7093	3.26097	0.0332774	0.00364824	0.0334768	6.25641	3.95181e+06	3.60465e+07	3.62624e+07	-83.7436	0.0000000E+000	0.0000000E+000	0.0000000E+000	83.7436	0.0000000E+000	0.0000000E+000	0.0000000E+000	-83.7436	0.0000000E+000	0.0000000E+000	0.0000000E+000	-6.25641	0.0000000E+000	0.0000000E+000	0.0000000E+000	6.25641	9.12151	83.7436	-1.46393e-05	-9.04118e-07	-7.59703e-10	-9.03358e-07	0.283052	88763.8	74.5856	88689.2
0.0999041	30.1665	4.05788	30.4382	-7.66123	79.2936	0.283293	-0.00305184	392588	6977.48	1	12	0.00481177	0.000158083	0	-3.93302e-05	2.81894e-05	3.81227e-06	5.73718	0.0241156	0.0239948	-0.00241072	-7.65072	30.4617	30.1905	4.05547	0.0325602	0.00437988	0.0328535	7.66123	6.97748e+06	5.18709e+07	5.23381e+07	-82.3388	0.0000000E+000	0.0000000E+000	0.0000000E+000	82.3388	0.0000000E+000	0.0000000E+000	0.0000000E+000	-82.3388	0.0000000E+000	0.0000000E+000	0.0000000E+000	-7.66123	0.0000000E+000	0.0000000E+000	0.0000000E+000	7.66123	7.43404	82.3388	7.02754e-06	-8.64565e-07	-8.60295e-11	-8.64479e-07	0.283265	92827.1	9.23686	92817.9
0.0680626	30.7327	5.11171	31.1549	-9.44345	110.222	0.283292	-0.00251973	457452	12314.7	1	12	0.00481344	0.0001545	0	-5.19333e-06	9.11209e-06	1.70149e-06	-16.053	0.0110128	0.0105834	0.00304534	-9.44578	31.1658	30.7432	5.11475	0.0316627	0.0052664	0.0320977	9.44345	1.23147e+07	7.40389e+07	7.5056e+07	-80.5565	0.0000000E+000	0.0000000E+000	0.0000000E+000	80.5565	0.0000000E+000	0.0000000E+000	0.0000000E+000	-80.5565	0.0000000E+000	0.0000000E+000	0.0000000E+000	-9.44345	0.0000000E+000	0.0000000E+000	0.0000000E+000	9.44345	6.01221	80.5565	3.41369e-05	-7.13821e-07	-2.296e-11	-7.13798e-07	0.283283	112429	3.61629	112426
0.0464052	31.593	6.37106	32.229	-11.4014	155.573	0.283296	-0.000910984	538321	21036.4	1	12	0.00481344	0.000149351	0	6.75229e-05	0.000314349	2.18354e-06	-35.1713	0.0146202	0.011951	0.00842155	-11.4119	32.2424	31.6049	6.37949	0.0304157	0.00613364	0.031028	11.4014	2.10364e+07	1.04316e+08	1.06416e+08	-78.5986	0.0000000E+000	0.0000000E+000	0.0000000E+000	78.5986	0.0000000E+000	0.0000000E+000	0.0000000E+000	-78.5986	0.0000000E+000	0.0000000E+000	0.0000000E+000	-11.4014	0.0000000E+000	0.0000000E+000	0.0000000E+000	11.4014	4.95883	78.5986	7.27163e-05	-2.58079e-07	-2.86367e-10	-2.57792e-07	0.282982	310978	345.065	310633
0.0315922	32.7828	8.31778	33.8216	-14.2369	222.179	0.283293	0.000124025	605665	36631.9	1	12	0.0048153	0.000142374	0	0.000135721	8.54213e-05	2.29943e-06	-8.56316	0.0161506	0.0159706	0.00240482	-14.2342	33.8377	32.7988	8.32019	0.0286588	0.00727143	0.0295669	14.2369	3.66319e+07	1.44377e+08	1.48952e+08	-75.7631	0.0000000E+000	0.0000000E+000	0.0000000E+000	75.7631	0.0000000E+000	0.0000000E+000	0.0000000E+000	-75.7631	0.0000000E+000	0.0000000E+000	0.0000000E+000	-14.2369	0.0000000E+000	0.0000000E+000	0.0000000E+000	14.2369	3.94129	75.7631	6.81976e-05	3.51356e-08	1.05944e-11	3.5125e-08	0.283208	2.28416e+06	688.74	2.28347e+06
0.0215268	34.0232	11.0666	35.7778	-18.018	319.917	0.283293	0.00050179	668076	63919	1	12	0.00481345	0.000134538	0	0.000121171	0.00023804	2.35551e-06	23.2042	0.0175082	0.0160919	-0.00689841	-17.9995	35.7909	34.0393	11.0597	0.0265796	0.00864548	0.0279503	18.018	6.3919e+07	1.96512e+08	2.06646e+08	-71.982	0.0000000E+000	0.0000000E+000	0.0000000E+000	71.982	0.0000000E+000	0.0000000E+000	0.0000000E+000	-71.982	0.0000000E+000	0.0000000E+000	0.0000000E+000	-18.018	0.0000000E+000	0.0000000E+000	0.0000000E+000	18.018	3.0744	71.982	-1.45492e-05	1.42154e-07	1.19446e-10	1.42034e-07	0.283055	564566	474.381	564091
0.0146812	35.4351	14.4704	38.2758	-22.2133	463.22	0.283298	0.000443513	749167	107076	1	12	0.00481463	0.000125788	0	-5.50019e-05	6.6344e-05	2.18266e-06	-12.6713	0.0173519	0.0169293	0.00380628	-22.209	38.2929	35.452	14.4742	0.0241871	0.00987715	0.0261261	22.2133	1.07076e+08	2.62207e+08	2.83227e+08	-67.7867	0.0000000E+000	0.0000000E+000	0.0000000E+000	67.7867	0.0000000E+000	0.0000000E+000	0.0000000E+000	-67.7867	0.0000000E+000	0.0000000E+000	0.0000000E+000	-22.2133	0.0000000E+000	0.0000000E+000	0.0000000E+000	22.2133	2.4488	67.7867	-0.000176173	1.25646e-07	2.94244e-11	1.25617e-07	0.283232	638759	149.587	638609
0.0100092	37.652	18.785	42.0779	-26.5151	673.401	0.283292	2.62453e-05	846468	168704	1	12	0.00481477	0.000114425	0	-0.000394376	0.000371581	1.88706e-06	-22.5405	0.0164916	0.0152318	0.00632184	-26.5136	42.0944	37.6673	18.7913	0.0212657	0.0106097	0.0237654	26.5151	1.68704e+08	3.38144e+08	3.77892e+08	-63.4849	0.0000000E+000	0.0000000E+000	0.0000000E+000	63.4849	0.0000000E+000	0.0000000E+000	0.0000000E+000	-63.4849	0.0000000E+000	0.0000000E+000	0.0000000E+000	-26.5151	0.0000000E+000	0.0000000E+000	0.0000000E+000	26.5151	2.00436	63.4849	-0.000339374	7.43508e-09	9.75224e-12	7.42533e-09	0.282921	1.0794e+07	14158	1.07799e+07