File: txt/19159_R306_UA713_SOC00_C07.mpt
EC-Lab ASCII FILE
Nb header lines : 65

Potentio Electrochemical Impedance Spectroscopy

Run on channel : 7 (SN 66126)
Grouped channel(s) : 5, 6, 7, 8
User :
CE vs. WE compliance from -10 V to 10 V
Electrode connection : standard
Potential control : Ewe
Ewe ctrl range : min = -10.00 V, max = 10.00 V
Safety Limits :
	Do not start on E overload
Acquisition started on : 11/12/2025 13:01:01.674
Loaded Setting File :  C:\Users\Celltest\OneDrive - store-dot.com\Documents\EC-Lab\Data\@Biologic Test Protocols\anode half cell EIS SOC00.mps
Saved on :
	File : 19157_R306_UA713_SOC00_C07.mpr
	Directory : C:\Users\Celltest\OneDrive - store-dot.com\Documents\EC-Lab\Data\Charmaine\
	Host : 169.254.61.224
Device : VMP-3e (SN .003165)
Address : USB
EC-LAB for windows v11.62 (software)
Internet server v27.00 (firmware)
Command interpretor v12.03 (firmware)
Electrode material :
Initial state :
Electrolyte :
Comments :
Electrode surface area : 0.001 cm²
Characteristic mass : 0.001 g
Equivalent Weight : 0.000 g/eq.
Density : 0.000 g/cm3
Volume (V) : 0.001 cm³
Record Ece
Cycle Definition : Charge/Discharge alternance
Mode                Single sine
E (V)               0.0000
vs.                 Eoc
tE (h:m:s)          0:00:0.0000
record              0
dI                  0.000
unit dI             mA
dt (s)              0.000
fi                  100.000
unit fi             kHz
ff                  10.000
unit ff             mHz
Nd                  6
Points              per decade
spacing             Logarithmic
Va (mV)             5.0
pw                  0.10
Na                  2
corr                0
E range min (V)     -10.000
E range max (V)     10.000
I Range             Auto
Bandwidth           5
nc cycles           0
goto Ns'            0
nr cycles           0
inc. cycle          0

freq/Hz	Re(Z)/Ohm	-Im(Z)/Ohm	|Z|/Ohm	Phase(Z)/deg	time/s	<Ewe>/V	<I>/mA	Cs/µF	Cp/µF	cycle number	I Range	|Ewe|/V	|I|/A	Ns	(Q-Qo)/mA.h	<Ece>/V	|Ece|/V	Phase(Zce)/deg	|Zce|/Ohm	Re(Zce)/Ohm	-Im(Zce)/Ohm	Phase(Zwe-ce)/deg	|Zwe-ce|/Ohm	Re(Zwe-ce)/Ohm	-Im(Zwe-ce)/Ohm	Re(Y)/Ohm-1	Im(Y)/Ohm-1	|Y|/Ohm-1	Phase(Y)/deg	Re(C)/nF	Im(C)/nF	|C|/nF	Phase(C)/deg	Re(M)	Im(M)	|M|	Phase(M)/deg	Re(Permittivity)	Im(Permittivity)	|Permittivity|	Phase(Permittivity)/deg	Re(Resistivity)/Ohm.cm	Im(Resistivity)/Ohm.cm	|Resistivity|/Ohm.cm	Phase(Resistivity)/deg	Re(Conductivity)/mS/cm	Im(Conductivity)/mS/cm	|Conductivity|/mS/cm	Phase(Conductivity)/deg	Tan(Delta)	Loss Angle(Delta)/deg	dq/mA.h	Pwe/W	Pce/W	Pwe-ce/W	<Ewe-Ece>/V	Rwe/Ohm	Rce/Ohm	Rwe-ce/Ohm		Ewe-Ece/V
100004	2.83265	1.1436	3.05479	-21.9849	2.04251	0.283539	0.0432756	1.39165	0.195036	1	9	0.00463371	0.00151687	0	3.76039e-06	-0.000246909	2.36268e-05	85.0046	0.0155761	0.0013563	-0.0155169	-21.7051	3.05028	2.83401	1.12808	0.30355	0.122549	0.327355	21.9849	195.036	483.097	520.982	-68.0151	0.0000000E+000	0.0000000E+000	0.0000000E+000	68.0151	0.0000000E+000	0.0000000E+000	0.0000000E+000	-68.0151	0.0000000E+000	0.0000000E+000	0.0000000E+000	-21.9849	0.0000000E+000	0.0000000E+000	0.0000000E+000	21.9849	2.47696	68.0151	3.76039e-06	1.22703e-05	-1.06851e-08	1.2281e-05	0.283786	6551.94	5.70549	6557.65
68132	3.16028	1.31398	3.42256	-22.5766	2.55152	0.283542	0.0404829	1.77778	0.262034	1	9	0.00508149	0.0014847	0	1.53787e-05	-0.000494889	3.18338e-05	43.7296	0.0214411	0.0154936	-0.0148213	-22.2488	3.43123	3.17577	1.29916	0.269789	0.112173	0.292179	22.5766	262.034	630.22	682.524	-67.4234	0.0000000E+000	0.0000000E+000	0.0000000E+000	67.4234	0.0000000E+000	0.0000000E+000	0.0000000E+000	-67.4234	0.0000000E+000	0.0000000E+000	0.0000000E+000	-22.5766	0.0000000E+000	0.0000000E+000	0.0000000E+000	22.5766	2.40511	67.4234	1.16183e-05	1.14786e-05	-2.00345e-08	1.14987e-05	0.284037	7004.01	12.2246	7016.23
46420.4	3.53519	1.48696	3.83518	-22.8124	3.06055	0.283541	0.0426426	2.30575	0.346608	1	9	0.00511929	0.00133482	0	2.08088e-05	2.01473e-05	1.66969e-05	7.53902	0.0125087	0.0124005	-0.00164116	-22.7182	3.84598	3.54759	1.48532	0.240348	0.101094	0.260744	22.8124	346.608	824.048	893.975	-67.1876	0.0000000E+000	0.0000000E+000	0.0000000E+000	67.1876	0.0000000E+000	0.0000000E+000	0.0000000E+000	-67.1876	0.0000000E+000	0.0000000E+000	0.0000000E+000	-22.8124	0.0000000E+000	0.0000000E+000	0.0000000E+000	22.8124	2.37747	67.1876	5.43005e-06	1.20909e-05	8.59133e-10	1.20901e-05	0.283521	6649.25	0.472469	6648.77
31621.1	3.90767	1.62121	4.23063	-22.5326	3.44352	0.283573	0.0421213	3.10458	0.455904	1	9	0.00509955	0.00120539	0	2.55813e-05	-0.000132456	1.22602e-05	-4.51578	0.0101712	0.0101396	0.000800812	-22.49	4.2403	3.91781	1.62201	0.218328	0.0905796	0.236372	22.5326	455.904	1098.88	1189.7	-67.4674	0.0000000E+000	0.0000000E+000	0.0000000E+000	67.4674	0.0000000E+000	0.0000000E+000	0.0000000E+000	-67.4674	0.0000000E+000	0.0000000E+000	0.0000000E+000	-22.5326	0.0000000E+000	0.0000000E+000	0.0000000E+000	22.5326	2.41034	67.4674	4.77251e-06	1.19445e-05	-5.57922e-09	1.195e-05	0.283706	6732.3	3.14464	6735.45
21544.7	4.38736	1.73347	4.7174	-21.5592	3.98155	0.283579	-0.0115584	4.26151	0.575428	1	10	0.00489441	0.00103752	0	2.65381e-05	-0.00032321	7.9092e-06	-12.6199	0.00762316	0.00743899	0.00166552	-21.5449	4.72493	4.3948	1.73514	0.197151	0.0778952	0.211981	21.5592	575.428	1456.39	1565.95	-68.4408	0.0000000E+000	0.0000000E+000	0.0000000E+000	68.4408	0.0000000E+000	0.0000000E+000	0.0000000E+000	-68.4408	0.0000000E+000	0.0000000E+000	0.0000000E+000	-21.5592	0.0000000E+000	0.0000000E+000	0.0000000E+000	21.5592	2.53097	68.4408	9.56861e-07	-3.27773e-06	3.7358e-09	-3.28146e-06	0.283902	24534.4	27.9632	24562.4
14678.6	4.82347	1.82579	5.15746	-20.7328	4.36652	0.283603	-0.00870678	5.93861	0.744243	1	10	0.00502265	0.000973862	0	2.51707e-05	1.07189e-06	1.29224e-05	-130.983	0.0132692	-0.00870239	0.010017	-20.8712	5.15288	4.81477	1.83581	0.181338	0.0686403	0.193894	20.7328	744.243	1966.18	2102.32	-69.2672	0.0000000E+000	0.0000000E+000	0.0000000E+000	69.2672	0.0000000E+000	0.0000000E+000	0.0000000E+000	-69.2672	0.0000000E+000	0.0000000E+000	0.0000000E+000	-20.7328	0.0000000E+000	0.0000000E+000	0.0000000E+000	20.7328	2.64185	69.2672	-1.36745e-06	-2.46927e-06	-9.33273e-12	-2.46926e-06	0.283602	32572.7	0.12311	32572.6
10002.2	5.26846	1.92498	5.60912	-20.0712	4.74955	0.283606	-0.00990551	8.26604	0.973553	1	10	0.00516737	0.000921243	0	2.48796e-05	-0.000361361	2.23803e-05	61.2713	0.0242935	0.011677	-0.0213032	-19.826	5.61283	5.28014	1.90368	0.167453	0.0611838	0.178281	20.0712	973.553	2664.51	2836.8	-69.9288	0.0000000E+000	0.0000000E+000	0.0000000E+000	69.9288	0.0000000E+000	0.0000000E+000	0.0000000E+000	-69.9288	0.0000000E+000	0.0000000E+000	0.0000000E+000	-20.0712	0.0000000E+000	0.0000000E+000	0.0000000E+000	20.0712	2.73689	69.9288	-2.91109e-07	-2.80926e-06	3.57946e-09	-2.81284e-06	0.283968	28631.2	36.4808	28667.7
6810.42	5.69353	2.04899	6.051	-19.7928	5.00853	0.283586	-0.012303	11.4053	1.30777	1	10	0.00528574	0.000873532	0	2.34303e-05	-0.000285059	3.30442e-05	-14.2978	0.0378282	0.0366565	0.00934211	-19.7587	6.08866	5.73018	2.05833	0.155499	0.055961	0.165262	19.7928	1307.77	3633.9	3862.06	-70.2072	0.0000000E+000	0.0000000E+000	0.0000000E+000	70.2072	0.0000000E+000	0.0000000E+000	0.0000000E+000	-70.2072	0.0000000E+000	0.0000000E+000	0.0000000E+000	-19.7928	0.0000000E+000	0.0000000E+000	0.0000000E+000	19.7928	2.7787	70.2072	-1.4493e-06	-3.48895e-06	3.50708e-09	-3.49246e-06	0.283871	23050.2	23.17	23073.4
4646	6.17696	2.18228	6.55112	-19.4579	5.2746	0.283551	-0.0185051	15.6975	1.74188	1	10	0.00528815	0.000807213	0	2.28353e-05	-0.000170607	8.68354e-06	-53.2321	0.0107574	0.00643913	0.00861742	-19.5102	6.56007	6.1834	2.19089	0.143927	0.0508485	0.152646	19.4579	1741.88	4930.42	5229.08	-70.5421	0.0000000E+000	0.0000000E+000	0.0000000E+000	70.5421	0.0000000E+000	0.0000000E+000	0.0000000E+000	-70.5421	0.0000000E+000	0.0000000E+000	0.0000000E+000	-19.4579	0.0000000E+000	0.0000000E+000	0.0000000E+000	19.4579	2.83052	70.5421	-5.9499e-07	-5.24713e-06	3.15709e-09	-5.25029e-06	0.283722	15322.9	9.21946	15332.1
3163.08	6.68432	2.3713	7.09248	-19.5324	5.64761	0.283514	-0.00935827	21.2189	2.37193	1	10	0.00524918	0.000740105	0	2.22724e-05	1.07189e-06	1.07979e-05	-55.8081	0.0145896	0.00819887	0.012068	-19.6021	7.10424	6.69252	2.38337	0.132881	0.0471402	0.140994	19.5324	2371.93	6686.08	7094.34	-70.4676	0.0000000E+000	0.0000000E+000	0.0000000E+000	70.4676	0.0000000E+000	0.0000000E+000	0.0000000E+000	-70.4676	0.0000000E+000	0.0000000E+000	0.0000000E+000	-19.5324	0.0000000E+000	0.0000000E+000	0.0000000E+000	19.5324	2.81884	70.4676	-5.62879e-07	-2.6532e-06	-1.00311e-11	-2.65319e-06	0.283513	30295.6	0.11454	30295.5
2155.69	7.20403	2.61146	7.66275	-19.9256	6.09978	0.283539	-0.00116448	28.2716	3.28358	1	10	0.00519337	0.000677742	0	2.25546e-05	-0.000342286	7.20686e-06	33.9561	0.0106336	0.00882025	-0.0059395	-19.8614	7.66903	7.21285	2.60552	0.122689	0.0444747	0.130501	19.9256	3283.58	9058.15	9634.94	-70.0744	0.0000000E+000	0.0000000E+000	0.0000000E+000	70.0744	0.0000000E+000	0.0000000E+000	0.0000000E+000	-70.0744	0.0000000E+000	0.0000000E+000	0.0000000E+000	-19.9256	0.0000000E+000	0.0000000E+000	0.0000000E+000	19.9256	2.75862	70.0744	2.82227e-07	-3.30177e-07	3.98586e-10	-3.30575e-07	0.283882	243490	293.938	243784
1468.59	7.81651	2.9045	8.3387	-20.3843	6.55106	0.283532	-0.000297079	37.3119	4.52683	1	10	0.00516855	0.000619827	0	2.25844e-05	0.000172751	1.0661e-05	-49.5482	0.0171999	0.0111594	0.0130883	-20.4418	8.35373	7.82767	2.91759	0.112413	0.041771	0.119923	20.3843	4526.83	12182.5	12996.3	-69.6157	0.0000000E+000	0.0000000E+000	0.0000000E+000	69.6157	0.0000000E+000	0.0000000E+000	0.0000000E+000	-69.6157	0.0000000E+000	0.0000000E+000	0.0000000E+000	-20.3843	0.0000000E+000	0.0000000E+000	0.0000000E+000	20.3843	2.69117	69.6157	2.97364e-08	-8.42314e-08	-5.13206e-11	-8.41801e-08	0.283359	954398	581.497	953817
1000.32	8.4953	3.23085	9.08892	-20.8223	7.0018	0.283536	-0.000907613	49.2453	6.22262	1	10	0.00514571	0.000566152	0	2.21236e-05	-0.000189682	8.43854e-06	62.3175	0.0149051	0.00692449	-0.013199	-20.729	9.09071	8.50222	3.21765	0.102838	0.0391104	0.110024	20.8223	6222.61	16362	17505.3	-69.1777	0.0000000E+000	0.0000000E+000	0.0000000E+000	69.1777	0.0000000E+000	0.0000000E+000	0.0000000E+000	-69.1777	0.0000000E+000	0.0000000E+000	0.0000000E+000	-20.8223	0.0000000E+000	0.0000000E+000	0.0000000E+000	20.8223	2.62943	69.1777	-4.60758e-07	-2.57341e-07	1.72158e-10	-2.57513e-07	0.283726	312398	208.99	312607
681.09	9.2147	3.6367	9.90637	-21.5373	7.4526	0.283536	-0.00127989	64.2552	8.65952	1	10	0.00512233	0.000517074	0	2.23331e-05	-7.52298e-05	7.60065e-06	-96.222	0.0146993	-0.00159314	0.0146128	-21.6193	9.91026	9.2131	3.65131	0.093897	0.0370577	0.100945	21.5373	8659.52	21941.6	23588.5	-68.4627	0.0000000E+000	0.0000000E+000	0.0000000E+000	68.4627	0.0000000E+000	0.0000000E+000	0.0000000E+000	-68.4627	0.0000000E+000	0.0000000E+000	0.0000000E+000	-21.5373	0.0000000E+000	0.0000000E+000	0.0000000E+000	21.5373	2.53381	68.4627	2.09488e-07	-3.62894e-07	9.62857e-11	-3.62991e-07	0.283611	221532	58.7784	221591
463.961	10.0622	4.06552	10.8525	-22.0005	7.90433	0.283549	0.000395351	84.3768	11.8412	1	10	0.00511284	0.000471121	0	2.21386e-05	-5.61544e-05	8.95103e-06	32.6258	0.0189994	0.0160015	-0.0102435	-21.9188	10.8635	10.0782	4.05527	0.0854346	0.0345188	0.0921446	22.0005	11841.2	29307.1	31608.9	-67.9995	0.0000000E+000	0.0000000E+000	0.0000000E+000	67.9995	0.0000000E+000	0.0000000E+000	0.0000000E+000	-67.9995	0.0000000E+000	0.0000000E+000	0.0000000E+000	-22.0005	0.0000000E+000	0.0000000E+000	0.0000000E+000	22.0005	2.47502	67.9995	-1.94553e-07	1.12101e-07	-2.22007e-11	1.12123e-07	0.283605	717207	142.037	717349
316.316	10.9925	4.64446	11.9334	-22.9047	8.35206	0.28354	-0.00127617	108.334	16.4099	1	10	0.00510904	0.00042813	0	2.21529e-05	-0.000170607	1.26774e-05	-21.2329	0.0296111	0.027601	0.0107239	-22.9005	11.963	11.0201	4.65519	0.0771913	0.0326143	0.0837985	22.9047	16409.9	38838.9	42163.4	-67.0953	0.0000000E+000	0.0000000E+000	0.0000000E+000	67.0953	0.0000000E+000	0.0000000E+000	0.0000000E+000	-67.0953	0.0000000E+000	0.0000000E+000	0.0000000E+000	-22.9047	0.0000000E+000	0.0000000E+000	0.0000000E+000	22.9047	2.36679	67.0953	1.43575e-08	-3.61844e-07	2.17723e-10	-3.62062e-07	0.28371	222180	133.687	222314
215.345	12.1478	5.34441	13.2715	-23.747	8.80255	0.283539	-0.00157772	138.289	22.4257	1	10	0.00511947	0.000385749	0	2.16271e-05	-0.000151531	9.6195e-06	23.8995	0.0249372	0.022799	-0.0101029	-23.6675	13.2883	12.1706	5.3343	0.0689698	0.0303431	0.0753494	23.747	22425.7	50973.6	55688.6	-66.2531	0.0000000E+000	0.0000000E+000	0.0000000E+000	66.2531	0.0000000E+000	0.0000000E+000	0.0000000E+000	-66.2531	0.0000000E+000	0.0000000E+000	0.0000000E+000	-23.747	0.0000000E+000	0.0000000E+000	0.0000000E+000	23.747	2.273	66.2531	-5.25857e-07	-4.47344e-07	2.39074e-10	-4.47583e-07	0.283691	179715	96.0449	179811
146.737	13.4307	6.08456	14.7447	-24.3722	9.24847	0.283532	-0.00176758	178.258	30.3556	1	10	0.00509713	0.000345693	0	2.09286e-05	-0.000246909	8.37544e-06	-127.434	0.024228	-0.014727	0.0192382	-24.4639	14.7392	13.4159	6.1038	0.0617773	0.0279872	0.0678212	24.3722	30355.6	67005.1	73560.5	-65.6278	0.0000000E+000	0.0000000E+000	0.0000000E+000	65.6278	0.0000000E+000	0.0000000E+000	0.0000000E+000	-65.6278	0.0000000E+000	0.0000000E+000	0.0000000E+000	-24.3722	0.0000000E+000	0.0000000E+000	0.0000000E+000	24.3722	2.20734	65.6278	-6.98491e-07	-5.01164e-07	4.3643e-10	-5.01601e-07	0.283779	160407	139.688	160547
100.032	15.1136	6.96628	16.6418	-24.7463	9.6998	0.283541	-0.00122405	228.391	40.0203	1	10	0.0051027	0.000306619	0	2.11745e-05	0.000249052	7.10077e-06	-26.392	0.0231583	0.0207446	0.0102941	-24.7486	16.665	15.1344	6.97658	0.0545716	0.0251536	0.0600896	24.7463	40020.3	86825.5	95604.9	-65.2537	0.0000000E+000	0.0000000E+000	0.0000000E+000	65.2537	0.0000000E+000	0.0000000E+000	0.0000000E+000	-65.2537	0.0000000E+000	0.0000000E+000	0.0000000E+000	-24.7463	0.0000000E+000	0.0000000E+000	0.0000000E+000	24.7463	2.16954	65.2537	2.45969e-07	-3.4707e-07	-3.04854e-10	-3.46765e-07	0.283292	231641	203.465	231437
68.104	17.1757	7.63662	18.7969	-23.9708	10.1625	0.283544	0.00134092	306.017	50.5099	1	10	0.00510726	0.000271708	0	2.16223e-05	-0.000494889	9.71227e-06	17.4412	0.0357453	0.0341019	-0.0107138	-23.8988	18.8237	17.2098	7.62591	0.0486119	0.0216137	0.0532003	23.9708	50509.9	113603	124326	-66.0292	0.0000000E+000	0.0000000E+000	0.0000000E+000	66.0292	0.0000000E+000	0.0000000E+000	0.0000000E+000	-66.0292	0.0000000E+000	0.0000000E+000	0.0000000E+000	-23.9708	0.0000000E+000	0.0000000E+000	0.0000000E+000	23.9708	2.24912	66.0292	4.47793e-07	3.80212e-07	-6.63609e-10	3.80875e-07	0.284039	211454	369.066	211824
46.4415	19.4669	8.09884	21.0844	-22.5888	10.8386	0.283572	-0.00436131	423.146	62.4327	1	11	0.00510733	0.000242232	0	2.14252e-05	-3.7079e-05	4.40346e-06	37.3339	0.0181787	0.0144541	-0.0110246	-22.5461	21.0936	19.4814	8.08782	0.0437899	0.0182179	0.0474284	22.5888	62432.8	150068	162537	-67.4112	0.0000000E+000	0.0000000E+000	0.0000000E+000	67.4112	0.0000000E+000	0.0000000E+000	0.0000000E+000	-67.4112	0.0000000E+000	0.0000000E+000	0.0000000E+000	-22.5888	0.0000000E+000	0.0000000E+000	0.0000000E+000	22.5888	2.40367	67.4112	-1.97153e-07	-1.23675e-06	1.61713e-10	-1.23691e-06	0.283609	65019.9	8.50178	65028.4
31.6296	21.8765	8.2154	23.3682	-20.5829	11.2696	0.283572	-0.00426664	612.489	75.7014	1	11	0.00509996	0.000218243	0	2.0445e-05	1.07189e-06	1.08568e-05	1.85424	0.0497465	0.0497205	-0.00160964	-20.5365	23.4142	21.9262	8.21379	0.0400614	0.0150445	0.0427931	20.5829	75701.4	201583	215328	-69.4171	0.0000000E+000	0.0000000E+000	0.0000000E+000	69.4171	0.0000000E+000	0.0000000E+000	0.0000000E+000	-69.4171	0.0000000E+000	0.0000000E+000	0.0000000E+000	-20.5829	0.0000000E+000	0.0000000E+000	0.0000000E+000	20.5829	2.66287	69.4171	-9.80207e-07	-1.2099e-06	-4.57338e-12	-1.2099e-06	0.283571	66462.7	0.251227	66462.4
21.5517	24.0134	7.9741	25.3027	-18.3697	11.6905	0.283576	-0.00460769	926.097	91.9782	1	11	0.00505602	0.000199821	0	1.98431e-05	5.82982e-05	5.54455e-05	10.3529	0.277476	0.272958	-0.0498653	-18.0707	25.5464	24.2863	7.92423	0.0375075	0.0124551	0.0395214	18.3697	91978.2	276985	291857	-71.6303	0.0000000E+000	0.0000000E+000	0.0000000E+000	71.6303	0.0000000E+000	0.0000000E+000	0.0000000E+000	-71.6303	0.0000000E+000	0.0000000E+000	0.0000000E+000	-18.3697	0.0000000E+000	0.0000000E+000	0.0000000E+000	18.3697	3.01142	71.6303	-6.01852e-07	-1.30663e-06	-2.6862e-10	-1.30636e-06	0.283518	61544	12.6523	61531.4
14.6852	26.372	7.42603	27.3976	-15.7266	12.1512	0.283583	-0.00377798	1459.44	107.219	1	11	0.0050995	0.00018613	0	1.90102e-05	-0.000227833	2.3878e-06	-62.9625	0.0128287	0.00583158	0.0114266	-15.7463	27.4063	26.3778	7.43745	0.0351333	0.00989309	0.0364996	15.7266	107220	380768	395576	-74.2734	0.0000000E+000	0.0000000E+000	0.0000000E+000	74.2734	0.0000000E+000	0.0000000E+000	0.0000000E+000	-74.2734	0.0000000E+000	0.0000000E+000	0.0000000E+000	-15.7266	0.0000000E+000	0.0000000E+000	0.0000000E+000	15.7266	3.55129	74.2734	-8.32871e-07	-1.07137e-06	8.6075e-10	-1.07223e-06	0.283811	75061.9	60.3055	75122.2
10.0032	28.2182	6.75471	29.0154	-13.4618	12.6018	0.283568	-0.00411494	2355.45	127.653	1	11	0.00509197	0.000175492	0	1.99455e-05	-0.000304135	9.18733e-06	-33.4283	0.0523517	0.0436915	0.0288402	-13.4971	29.0646	28.2619	6.78355	0.0335176	0.00802326	0.0344645	13.4618	127653	533278	548344	-76.5382	0.0000000E+000	0.0000000E+000	0.0000000E+000	76.5382	0.0000000E+000	0.0000000E+000	0.0000000E+000	-76.5382	0.0000000E+000	0.0000000E+000	0.0000000E+000	-13.4618	0.0000000E+000	0.0000000E+000	0.0000000E+000	13.4618	4.17755	76.5382	9.35258e-07	-1.16687e-06	1.2515e-09	-1.16812e-06	0.283872	68911.9	73.91	68985.8
6.81719	29.8803	6.03267	30.4832	-11.4143	12.9415	0.283591	-0.00292255	3869.95	151.566	1	11	0.0050971	0.00016721	0	1.84103e-05	-1.80035e-05	6.51849e-06	83.1219	0.0389838	0.00466863	-0.0387033	-11.3412	30.4802	29.885	5.99397	0.0321561	0.00649214	0.0328049	11.4143	151566	750720	765868	-78.5857	0.0000000E+000	0.0000000E+000	0.0000000E+000	78.5857	0.0000000E+000	0.0000000E+000	0.0000000E+000	-78.5857	0.0000000E+000	0.0000000E+000	0.0000000E+000	-11.4143	0.0000000E+000	0.0000000E+000	0.0000000E+000	11.4143	4.95308	78.5857	-1.53522e-06	-8.2881e-07	5.26163e-11	-8.28863e-07	0.283609	97035.5	6.16021	97041.7
4.63925	31.0793	5.32386	31.532	-9.72037	13.4254	0.283573	-0.00361547	6443.86	183.694	1	11	0.00507748	0.000161026	0	1.73405e-05	-0.000265984	2.0083e-05	-25.4861	0.124718	0.112582	0.0536654	-9.78171	31.6521	31.1919	5.37752	0.0312585	0.00535455	0.0317138	9.72037	183694	1.07236e+06	1.08798e+06	-80.2796	0.0000000E+000	0.0000000E+000	0.0000000E+000	80.2796	0.0000000E+000	0.0000000E+000	0.0000000E+000	-80.2796	0.0000000E+000	0.0000000E+000	0.0000000E+000	-9.72037	0.0000000E+000	0.0000000E+000	0.0000000E+000	9.72037	5.83775	80.2796	-1.0698e-06	-1.02525e-06	9.61657e-10	-1.02621e-06	0.283839	78433.1	73.5683	78506.7
3.1604	32.3932	4.68381	32.7301	-8.22751	14.1184	0.283592	-0.00287167	10751.8	220.183	1	11	0.00510141	0.000155863	0	1.87049e-05	-0.000399512	6.53143e-06	0.891965	0.0419049	0.0418998	-0.000652337	-8.2159	32.7714	32.4351	4.68316	0.0302385	0.00437225	0.0305529	8.22751	220183	1.52279e+06	1.53862e+06	-81.7725	0.0000000E+000	0.0000000E+000	0.0000000E+000	81.7725	0.0000000E+000	0.0000000E+000	0.0000000E+000	-81.7725	0.0000000E+000	0.0000000E+000	0.0000000E+000	-8.22751	0.0000000E+000	0.0000000E+000	0.0000000E+000	8.22751	6.916	81.7725	1.36443e-06	-8.14383e-07	1.14727e-09	-8.1553e-07	0.283991	98754.8	139.122	98893.9
2.15577	33.3532	4.06814	33.6004	-6.9541	15.122	0.283594	-0.00214242	18147.7	266.027	1	11	0.00509897	0.000151753	0	2.02576e-05	-0.000208758	5.84622e-06	-40.1985	0.0385245	0.0294255	0.0248652	-6.99008	33.6326	33.3826	4.09301	0.0295426	0.00360336	0.0297616	6.9541	266027	2.18106e+06	2.19722e+06	-83.0459	0.0000000E+000	0.0000000E+000	0.0000000E+000	83.0459	0.0000000E+000	0.0000000E+000	0.0000000E+000	-83.0459	0.0000000E+000	0.0000000E+000	0.0000000E+000	-6.9541	0.0000000E+000	0.0000000E+000	0.0000000E+000	6.9541	8.19864	83.0459	1.55271e-06	-6.07575e-07	4.47246e-10	-6.08022e-07	0.283802	132371	97.4404	132468
1.46631	34.1888	3.63174	34.3812	-6.06357	17.3114	0.283592	-0.00221649	29886.8	333.479	1	12	0.00510131	0.000148375	0	1.82551e-05	-5.61544e-05	3.19402e-06	34.7036	0.0215267	0.0176972	-0.0122558	-6.04015	34.3975	34.2065	3.61949	0.028923	0.00307237	0.0290857	6.06357	333479	3.13933e+06	3.15699e+06	-83.9364	0.0000000E+000	0.0000000E+000	0.0000000E+000	83.9364	0.0000000E+000	0.0000000E+000	0.0000000E+000	-83.9364	0.0000000E+000	0.0000000E+000	0.0000000E+000	-6.06357	0.0000000E+000	0.0000000E+000	0.0000000E+000	6.06357	9.41389	83.9364	-2.00253e-06	-6.2858e-07	1.24466e-10	-6.28704e-07	0.283648	127946	25.3348	127972
1.00006	34.8512	3.22871	35.0004	-5.29293	19.44	0.283588	-0.00196819	49290.6	419.444	1	12	0.00510075	0.000145734	0	1.24063e-05	-9.43052e-05	3.26519e-06	31.6227	0.0224051	0.0190784	-0.0117475	-5.27091	35.0183	34.8703	3.21696	0.0284493	0.00263561	0.0285711	5.29293	419444	4.52755e+06	4.54694e+06	-84.7071	0.0000000E+000	0.0000000E+000	0.0000000E+000	84.7071	0.0000000E+000	0.0000000E+000	0.0000000E+000	-84.7071	0.0000000E+000	0.0000000E+000	0.0000000E+000	-5.29293	0.0000000E+000	0.0000000E+000	0.0000000E+000	5.29293	10.7942	84.7071	-5.8488e-06	-5.58155e-07	1.85611e-10	-5.5834e-07	0.283682	144086	47.9147	144134
0.681362	35.4167	2.95298	35.5396	-4.7662	22.5521	0.283592	-0.00182951	79100.9	546.108	1	12	0.00509792	0.000143444	0	5.17347e-06	-0.000189682	2.6668e-06	6.93978	0.0185913	0.0184551	-0.00224631	-4.76012	35.5578	35.4351	2.95073	0.0280404	0.00233796	0.0281377	4.7662	546108	6.54976e+06	6.57249e+06	-85.2338	0.0000000E+000	0.0000000E+000	0.0000000E+000	85.2338	0.0000000E+000	0.0000000E+000	0.0000000E+000	-85.2338	0.0000000E+000	0.0000000E+000	0.0000000E+000	-4.7662	0.0000000E+000	0.0000000E+000	0.0000000E+000	4.7662	11.9935	85.2338	-7.23284e-06	-5.18835e-07	3.47027e-10	-5.19182e-07	0.283781	155009	103.679	155113
0.464091	35.958	2.87043	36.0724	-4.56409	27.1088	0.283594	-0.00223295	119473	756.51	1	12	0.00510202	0.000141439	0	-1.79406e-07	-0.000113381	2.56527e-06	-6.72141	0.018137	0.0180123	0.00212278	-4.56517	36.0905	35.976	2.87255	0.0276341	0.00220596	0.027722	4.56409	756510	9.47683e+06	9.50698e+06	-85.4359	0.0000000E+000	0.0000000E+000	0.0000000E+000	85.4359	0.0000000E+000	0.0000000E+000	0.0000000E+000	-85.4359	0.0000000E+000	0.0000000E+000	0.0000000E+000	-4.56409	0.0000000E+000	0.0000000E+000	0.0000000E+000	4.56409	12.5271	85.4359	-5.35287e-06	-6.3325e-07	2.53173e-10	-6.33503e-07	0.283707	127004	50.7762	127055
0.316193	36.4155	2.99977	36.5389	-4.70916	33.7837	0.28359	-0.00251418	167795	1130.95	1	12	0.00510109	0.000139607	0	5.84747e-07	-9.43052e-05	2.24042e-06	-50.7476	0.016048	0.0101542	0.0124271	-4.72727	36.55	36.4257	3.01219	0.0272757	0.00224686	0.0273681	4.70916	1.13095e+06	1.37292e+07	1.37757e+07	-85.2908	0.0000000E+000	0.0000000E+000	0.0000000E+000	85.2908	0.0000000E+000	0.0000000E+000	0.0000000E+000	-85.2908	0.0000000E+000	0.0000000E+000	0.0000000E+000	-4.70916	0.0000000E+000	0.0000000E+000	0.0000000E+000	4.70916	12.1395	85.2908	7.64153e-07	-7.12995e-07	2.371e-10	-7.13232e-07	0.283684	112796	37.5094	112834
0.215268	36.8598	3.29616	37.0069	-5.11004	43.5761	0.283593	-0.00229358	224302	1779.44	1	12	0.00510367	0.000137911	0	1.08133e-05	-1.80035e-05	1.93163e-06	-34.9909	0.0140063	0.0114746	0.00803189	-5.12084	37.019	36.8713	3.30419	0.0269146	0.00240682	0.027022	5.11004	1.77945e+06	1.98989e+07	1.99783e+07	-84.89	0.0000000E+000	0.0000000E+000	0.0000000E+000	84.89	0.0000000E+000	0.0000000E+000	0.0000000E+000	-84.89	0.0000000E+000	0.0000000E+000	0.0000000E+000	-5.11004	0.0000000E+000	0.0000000E+000	0.0000000E+000	5.11004	11.1826	84.89	1.02286e-05	-6.50444e-07	4.12926e-11	-6.50485e-07	0.283611	123646	7.84952	123654
0.146929	37.3794	3.76751	37.5688	-5.75546	57.9146	0.283598	-0.00151166	287514	2891.43	1	12	0.00510211	0.000135807	0	2.91436e-05	0.000115524	4.21629e-06	-50.5788	0.0310462	0.0197148	0.0239831	-5.78882	37.5909	37.3992	3.79149	0.0264836	0.00266931	0.0266178	5.75546	2.89143e+06	2.86874e+07	2.88327e+07	-84.2445	0.0000000E+000	0.0000000E+000	0.0000000E+000	84.2445	0.0000000E+000	0.0000000E+000	0.0000000E+000	-84.2445	0.0000000E+000	0.0000000E+000	0.0000000E+000	-5.75546	0.0000000E+000	0.0000000E+000	0.0000000E+000	5.75546	9.92152	84.2445	1.83303e-05	-4.28704e-07	-1.74634e-10	-4.2853e-07	0.283483	187607	76.4222	187531
0.0999041	38.097	4.54868	38.3675	-6.80874	78.9917	0.283593	-0.000690052	350228	4922.6	1	12	0.00510075	0.000132944	0	4.66731e-05	-0.000265984	1.69454e-06	-19.5158	0.0127462	0.0120139	0.0042581	-6.81293	38.38	38.109	4.55294	0.0258799	0.00308999	0.0260637	6.80874	4.9226e+06	4.12287e+07	4.15215e+07	-83.1913	0.0000000E+000	0.0000000E+000	0.0000000E+000	83.1913	0.0000000E+000	0.0000000E+000	0.0000000E+000	-83.1913	0.0000000E+000	0.0000000E+000	0.0000000E+000	-6.80874	0.0000000E+000	0.0000000E+000	0.0000000E+000	6.80874	8.37538	83.1913	1.75295e-05	-1.95694e-07	1.83543e-10	-1.95877e-07	0.283859	410973	385.455	411358
0.0680626	38.955	5.72557	39.3735	-8.36141	109.918	0.283592	0.000156281	408407	8636.18	1	12	0.00510261	0.000129595	0	4.99184e-05	-0.000170607	1.2935e-06	-75.3284	0.00998112	0.002528	0.00965568	-8.37478	39.3774	38.9575	5.73523	0.0251278	0.00369326	0.0253978	8.36141	8.63618e+06	5.87579e+07	5.93892e+07	-81.6386	0.0000000E+000	0.0000000E+000	0.0000000E+000	81.6386	0.0000000E+000	0.0000000E+000	0.0000000E+000	-81.6386	0.0000000E+000	0.0000000E+000	0.0000000E+000	-8.36141	0.0000000E+000	0.0000000E+000	0.0000000E+000	8.36141	6.80369	81.6386	3.24526e-06	4.43201e-08	-2.66627e-11	4.43468e-08	0.283762	1.81462e+06	1091.66	1.81571e+06
0.0464052	39.8427	7.2967	40.5053	-10.378	155.27	0.283594	0.000458798	470032	15253	1	12	0.00510149	0.000125946	0	9.11579e-06	-0.000113381	3.37913e-06	36.2061	0.02683	0.021649	-0.0158483	-10.3505	40.5238	39.8643	7.28085	0.0242842	0.00444736	0.0246881	10.378	1.5253e+07	8.32871e+07	8.46723e+07	-79.622	0.0000000E+000	0.0000000E+000	0.0000000E+000	79.622	0.0000000E+000	0.0000000E+000	0.0000000E+000	-79.622	0.0000000E+000	0.0000000E+000	0.0000000E+000	-10.378	0.0000000E+000	0.0000000E+000	0.0000000E+000	10.378	5.46037	79.622	-4.08026e-05	1.30112e-07	-5.20188e-11	1.30164e-07	0.283707	618123	247.125	618370
0.0315922	40.9703	9.15439	41.9805	-12.5953	221.875	0.283597	7.71087e-05	550314	26168.2	1	12	0.00509948	0.000121473	0	-9.42747e-05	-0.000380437	1.48008e-06	61.3276	0.0121845	0.00584614	-0.0106904	-12.5793	41.9839	40.9761	9.1437	0.0232473	0.00519438	0.0238206	12.5953	2.61682e+07	1.17115e+08	1.20003e+08	-77.4047	0.0000000E+000	0.0000000E+000	0.0000000E+000	77.4047	0.0000000E+000	0.0000000E+000	0.0000000E+000	-77.4047	0.0000000E+000	0.0000000E+000	0.0000000E+000	-12.5953	0.0000000E+000	0.0000000E+000	0.0000000E+000	12.5953	4.47548	77.4047	-0.00010339	2.18678e-08	-2.9335e-11	2.18972e-08	0.283978	3.67789e+06	4933.77	3.68282e+06
0.0215268	42.6515	11.6496	44.2139	-15.2768	319.614	0.283596	-0.000493861	634643	44059.1	1	12	0.00510435	0.000115447	0	-0.00024403	-0.000113381	2.58317e-06	-44.868	0.0223754	0.0158582	0.0157853	-15.2912	44.2333	42.6674	11.6654	0.0218181	0.00595929	0.0226173	15.2768	4.40591e+07	1.61309e+08	1.67218e+08	-74.7232	0.0000000E+000	0.0000000E+000	0.0000000E+000	74.7232	0.0000000E+000	0.0000000E+000	0.0000000E+000	-74.7232	0.0000000E+000	0.0000000E+000	0.0000000E+000	-15.2768	0.0000000E+000	0.0000000E+000	0.0000000E+000	15.2768	3.6612	74.7232	-0.000149755	-1.40057e-07	5.59943e-11	-1.40113e-07	0.283709	574242	229.58	574471
0.0146812	44.7131	15.3762	47.2831	-18.9774	462.917	0.283593	-0.00082945	705034	74558.5	1	12	0.00510199	0.000107903	0	-0.000362015	0.000153675	3.18392e-06	-19.5859	0.0295072	0.0277999	0.00989138	-18.9778	47.3126	44.7409	15.3861	0.0199997	0.00687762	0.0211492	18.9774	7.45585e+07	2.16812e+08	2.29273e+08	-71.0226	0.0000000E+000	0.0000000E+000	0.0000000E+000	71.0226	0.0000000E+000	0.0000000E+000	0.0000000E+000	-71.0226	0.0000000E+000	0.0000000E+000	0.0000000E+000	-18.9774	0.0000000E+000	0.0000000E+000	0.0000000E+000	18.9774	2.90794	71.0226	-0.000117985	-2.35226e-07	-1.27466e-10	-2.35099e-07	0.283439	341905	185.274	341720
0.0100092	46.8569	20.4536	51.1265	-23.5819	673.098	0.283594	-0.000859614	777412	124423	1	12	0.00510509	9.98521e-05	0	-0.000321611	-0.000246909	2.96369e-06	18.269	0.0296808	0.0281847	-0.0093043	-23.5597	51.1486	46.8851	20.4443	0.0179259	0.00782489	0.0195593	23.5819	1.24423e+08	2.85038e+08	3.11011e+08	-66.4181	0.0000000E+000	0.0000000E+000	0.0000000E+000	66.4181	0.0000000E+000	0.0000000E+000	0.0000000E+000	-66.4181	0.0000000E+000	0.0000000E+000	0.0000000E+000	-23.5819	0.0000000E+000	0.0000000E+000	0.0000000E+000	23.5819	2.29088	66.4181	4.0404e-05	-2.43782e-07	2.12246e-10	-2.43994e-07	0.283841	329909	287.232	330196