File: txt/19157_R306_UA713_SOC00_C05.mpt
EC-Lab ASCII FILE
Nb header lines : 66

Potentio Electrochemical Impedance Spectroscopy

Run on channel : 5 (SN 65912)
Grouped channel(s) : 5, 6, 7, 8
User :
CE vs. WE compliance from -10 V to 10 V
Electrode connection : standard
Potential control : Ewe
Ewe ctrl range : min = -10.00 V, max = 10.00 V
Safety Limits :
	Do not start on E overload
Acquisition started on : 11/12/2025 13:01:01.674
Loaded Setting File :  C:\Users\Celltest\OneDrive - store-dot.com\Documents\EC-Lab\Data\@Biologic Test Protocols\anode half cell EIS SOC00.mps
Saved on :
	File : 19157_R306_UA713_SOC00_C05.mpr
	Directory : C:\Users\Celltest\OneDrive - store-dot.com\Documents\EC-Lab\Data\Charmaine\
	Host : 169.254.61.224
Device : VMP-3e (SN .003165)
Address : USB
EC-LAB for windows v11.62 (software)
Internet server v27.00 (firmware)
Command interpretor v12.03 (firmware)
Electrode material :
Initial state :
Electrolyte :
Comments :
Electrode surface area : 0.001 cm²
Characteristic mass : 0.001 g
Equivalent Weight : 0.000 g/eq.
Density : 0.000 g/cm3
Volume (V) : 0.001 cm³
Record Ece
Cycle Definition : Charge/Discharge alternance
Mode                Single sine
E (V)               0.0000
vs.                 Eoc
tE (h:m:s)          0:00:0.0000
record              0
dI                  0.000
unit dI             mA
dt (s)              0.000
fi                  100.000
unit fi             kHz
ff                  10.000
unit ff             mHz
Nd                  6
Points              per decade
spacing             Logarithmic
Va (mV)             5.0
pw                  0.10
Na                  2
corr                0
E range min (V)     -10.000
E range max (V)     10.000
I Range             Auto
Bandwidth           5
nc cycles           0
goto Ns'            0
nr cycles           0
inc. cycle          0

freq/Hz	Re(Z)/Ohm	-Im(Z)/Ohm	|Z|/Ohm	Phase(Z)/deg	time/s	<Ewe>/V	<I>/mA	Cs/µF	Cp/µF	cycle number	I Range	|Ewe|/V	|I|/A	Ns	(Q-Qo)/mA.h	<Ece>/V	|Ece|/V	Phase(Zce)/deg	|Zce|/Ohm	Re(Zce)/Ohm	-Im(Zce)/Ohm	Phase(Zwe-ce)/deg	|Zwe-ce|/Ohm	Re(Zwe-ce)/Ohm	-Im(Zwe-ce)/Ohm	Re(Y)/Ohm-1	Im(Y)/Ohm-1	|Y|/Ohm-1	Phase(Y)/deg	Re(C)/nF	Im(C)/nF	|C|/nF	Phase(C)/deg	Re(M)	Im(M)	|M|	Phase(M)/deg	Re(Permittivity)	Im(Permittivity)	|Permittivity|	Phase(Permittivity)/deg	Re(Resistivity)/Ohm.cm	Im(Resistivity)/Ohm.cm	|Resistivity|/Ohm.cm	Phase(Resistivity)/deg	Re(Conductivity)/mS/cm	Im(Conductivity)/mS/cm	|Conductivity|/mS/cm	Phase(Conductivity)/deg	Tan(Delta)	Loss Angle(Delta)/deg	dq/mA.h	Pwe/W	Pce/W	Pwe-ce/W	<Ewe-Ece>/V	Rwe/Ohm	Rce/Ohm	Rwe-ce/Ohm		Ewe-Ece/V
100004	2.92011	0.756272	3.01646	-14.5199	2.05356	0.290788	-0.000170504	2.10439	0.132278	1	9	0.004874	0.0016158	0	-1.97224e-06	5.67187e-05	2.81011e-05	55.2883	0.0173915	0.00990351	-0.0142963	-14.2104	3.0225	2.93002	0.741976	0.320926	0.0831159	0.331515	14.5199	132.278	510.751	527.603	-75.4801	0.0000000E+000	0.0000000E+000	0.0000000E+000	75.4801	0.0000000E+000	0.0000000E+000	0.0000000E+000	-75.4801	0.0000000E+000	0.0000000E+000	0.0000000E+000	-14.5199	0.0000000E+000	0.0000000E+000	0.0000000E+000	14.5199	3.86119	75.4801	-1.97224e-06	-4.95806e-08	-9.67077e-12	-4.9571e-08	0.290732	1.70546e+06	332.653	1.70513e+06
68132	3.09517	0.902229	3.22398	-16.2512	2.43555	0.290777	0.00571339	2.58912	0.202768	1	9	0.00529419	0.00164213	0	-4.70395e-06	5.67187e-05	1.85437e-05	30.638	0.0112925	0.00971608	-0.00575478	-16.105	3.23171	3.10488	0.896474	0.297782	0.0868023	0.310175	16.2512	202.768	695.612	724.563	-73.7488	0.0000000E+000	0.0000000E+000	0.0000000E+000	73.7488	0.0000000E+000	0.0000000E+000	0.0000000E+000	-73.7488	0.0000000E+000	0.0000000E+000	0.0000000E+000	-16.2512	0.0000000E+000	0.0000000E+000	0.0000000E+000	16.2512	3.43058	73.7488	-2.73171e-06	1.66132e-06	3.24056e-10	1.66099e-06	0.29072	50893.9	9.92733	50884
46420.4	3.32206	1.07588	3.49194	-17.9451	2.82057	0.290762	0.00526651	3.18674	0.302513	1	9	0.00533411	0.00152755	0	-3.20134e-06	5.67187e-05	1.34494e-05	3.7895	0.00880456	0.00878531	-0.000581903	-17.8917	3.50012	3.33085	1.0753	0.272443	0.0882332	0.286374	17.9451	302.513	934.086	981.85	-72.0549	0.0000000E+000	0.0000000E+000	0.0000000E+000	72.0549	0.0000000E+000	0.0000000E+000	0.0000000E+000	-72.0549	0.0000000E+000	0.0000000E+000	0.0000000E+000	-17.9451	0.0000000E+000	0.0000000E+000	0.0000000E+000	17.9451	3.08776	72.0549	1.50261e-06	1.5313e-06	2.98709e-10	1.531e-06	0.290706	55209.7	10.7697	55198.9
31621.1	3.62714	1.2316	3.83054	-18.755	3.20355	0.29075	-0.000505659	4.08669	0.422468	1	9	0.00536347	0.00140019	0	1.05124e-06	-0.000191467	1.37815e-05	8.52745	0.00984261	0.0097338	-0.00145949	-18.6877	3.83929	3.63688	1.23014	0.247198	0.0839366	0.26106	18.755	422.468	1244.19	1313.96	-71.245	0.0000000E+000	0.0000000E+000	0.0000000E+000	71.245	0.0000000E+000	0.0000000E+000	0.0000000E+000	-71.245	0.0000000E+000	0.0000000E+000	0.0000000E+000	-18.755	0.0000000E+000	0.0000000E+000	0.0000000E+000	18.755	2.94506	71.245	4.25259e-06	-1.4702e-07	9.6817e-11	-1.47117e-07	0.290941	574992	378.649	575371
21544.7	3.94678	1.35988	4.17449	-19.0116	3.58852	0.290753	-0.00225593	5.43224	0.576468	1	9	0.0053631	0.00128473	0	3.77017e-06	-3.87374e-05	4.86594e-06	104.874	0.00378752	-0.00097222	-0.00366061	-18.9685	4.17237	3.94581	1.35622	0.226484	0.078036	0.23955	19.0116	576.468	1673.08	1769.61	-70.9884	0.0000000E+000	0.0000000E+000	0.0000000E+000	70.9884	0.0000000E+000	0.0000000E+000	0.0000000E+000	-70.9884	0.0000000E+000	0.0000000E+000	0.0000000E+000	-19.0116	0.0000000E+000	0.0000000E+000	0.0000000E+000	19.0116	2.9023	70.9884	2.71893e-06	-6.5592e-07	8.7389e-11	-6.56007e-07	0.290792	128884	17.1713	128901
14678.6	4.29295	1.49432	4.54559	-19.1923	4.25255	0.290754	-0.00733352	7.25593	0.784147	1	10	0.00494051	0.00108688	0	3.73156e-06	7.58099e-05	1.02498e-05	10.8918	0.00943049	0.00926061	-0.00178194	-19.1328	4.55375	4.30221	1.49254	0.207766	0.0723206	0.219993	19.1923	784.147	2252.74	2385.31	-70.8077	0.0000000E+000	0.0000000E+000	0.0000000E+000	70.8077	0.0000000E+000	0.0000000E+000	0.0000000E+000	-70.8077	0.0000000E+000	0.0000000E+000	0.0000000E+000	-19.1923	0.0000000E+000	0.0000000E+000	0.0000000E+000	19.1923	2.87285	70.8077	-3.86111e-08	-2.13225e-06	-5.55953e-10	-2.13169e-06	0.290678	39647.2	10.3375	39636.9
10002.2	4.65791	1.61556	4.93012	-19.1287	4.63554	0.290763	-0.00786597	9.84919	1.05762	1	10	0.00526927	0.00106879	0	1.52811e-06	-5.54966e-07	2.93884e-05	42.4464	0.0274968	0.0202902	-0.0185576	-18.8484	4.94327	4.6782	1.597	0.191635	0.0664672	0.202835	19.1287	1057.62	3049.29	3227.5	-70.8713	0.0000000E+000	0.0000000E+000	0.0000000E+000	70.8713	0.0000000E+000	0.0000000E+000	0.0000000E+000	-70.8713	0.0000000E+000	0.0000000E+000	0.0000000E+000	-19.1287	0.0000000E+000	0.0000000E+000	0.0000000E+000	19.1287	2.88315	70.8713	-2.20345e-06	-2.28713e-06	4.36535e-12	-2.28714e-06	0.290764	36964.7	0.0705529	36964.8
6810.42	5.03074	1.74978	5.32635	-19.1786	5.01852	0.290754	-0.00783618	13.3556	1.44135	1	10	0.00516213	0.000969168	0	1.73273e-06	-1.96462e-05	2.20484e-05	-64.7148	0.0227498	0.009717	0.0205703	-19.3527	5.34231	5.04045	1.77035	0.177326	0.061677	0.187746	19.1786	1441.35	4143.98	4387.49	-70.8214	0.0000000E+000	0.0000000E+000	0.0000000E+000	70.8214	0.0000000E+000	0.0000000E+000	0.0000000E+000	-70.8214	0.0000000E+000	0.0000000E+000	0.0000000E+000	-19.1786	0.0000000E+000	0.0000000E+000	0.0000000E+000	19.1786	2.87507	70.8214	2.04619e-07	-2.2784e-06	1.53951e-10	-2.27856e-06	0.290774	37104.1	2.50711	37106.6
4646	5.44908	1.92127	5.77787	-19.422	5.40962	0.290751	-0.0078697	17.83	1.97149	1	10	0.00515153	0.000891597	0	8.23985e-07	-3.87374e-05	7.40689e-06	89.1264	0.00830744	0.000126661	-0.00830648	-19.3438	5.77524	5.44921	1.91297	0.163225	0.0575511	0.173074	19.422	1971.49	5591.5	5928.88	-70.578	0.0000000E+000	0.0000000E+000	0.0000000E+000	70.578	0.0000000E+000	0.0000000E+000	0.0000000E+000	-70.578	0.0000000E+000	0.0000000E+000	0.0000000E+000	-19.422	0.0000000E+000	0.0000000E+000	0.0000000E+000	19.422	2.83618	70.578	-9.08744e-07	-2.28812e-06	3.04852e-10	-2.28843e-06	0.29079	36945.6	4.92235	36950.6
3163.08	5.87861	2.10683	6.24474	-19.7171	5.78368	0.290719	-0.0108373	23.8826	2.71838	1	10	0.00547083	0.00087607	0	5.29628e-08	1.85363e-05	1.48419e-05	-60.7697	0.0169415	0.00827287	0.0147842	-19.819	6.25753	5.88688	2.12161	0.150746	0.0540257	0.160135	19.7171	2718.38	7585	8057.41	-70.2829	0.0000000E+000	0.0000000E+000	0.0000000E+000	70.2829	0.0000000E+000	0.0000000E+000	0.0000000E+000	-70.2829	0.0000000E+000	0.0000000E+000	0.0000000E+000	-19.7171	0.0000000E+000	0.0000000E+000	0.0000000E+000	19.7171	2.79027	70.2829	-7.71022e-07	-3.15059e-06	-2.00882e-10	-3.15039e-06	0.2907	26825.9	1.71042	26824.2
2155.69	6.3512	2.3536	6.77326	-20.3335	6.44883	0.290751	-0.00669311	31.3691	3.78765	1	10	0.00512009	0.000755927	0	-2.32758e-06	0.000190357	8.82195e-06	30.4494	0.0116704	0.0100608	-0.00591428	-20.2571	6.78065	6.36126	2.34768	0.138439	0.0513022	0.147639	20.3335	3787.65	10221	10900.2	-69.6665	0.0000000E+000	0.0000000E+000	0.0000000E+000	69.6665	0.0000000E+000	0.0000000E+000	0.0000000E+000	-69.6665	0.0000000E+000	0.0000000E+000	0.0000000E+000	-20.3335	0.0000000E+000	0.0000000E+000	0.0000000E+000	20.3335	2.69851	69.6665	-2.38055e-06	-1.94603e-06	-1.27408e-09	-1.94476e-06	0.290561	43440.4	28.4408	43411.9
1468.59	6.88433	2.64761	7.3759	-21.036	6.90007	0.290749	-0.00664099	40.9322	5.27405	1	10	0.00507759	0.000688402	0	-3.05658e-06	-5.54966e-07	9.77824e-06	-1.84432	0.0142043	0.0141969	0.000457147	-20.9998	7.38932	6.89853	2.64807	0.126541	0.0486659	0.135577	21.036	5274.05	13713.6	14692.8	-68.964	0.0000000E+000	0.0000000E+000	0.0000000E+000	68.964	0.0000000E+000	0.0000000E+000	0.0000000E+000	-68.964	0.0000000E+000	0.0000000E+000	0.0000000E+000	-21.036	0.0000000E+000	0.0000000E+000	0.0000000E+000	21.036	2.6002	68.964	-7.29001e-07	-1.93086e-06	3.68552e-12	-1.93087e-06	0.29075	43781.1	0.0835669	43781.1
1000.32	7.48333	3.003	8.06339	-21.8652	7.35086	0.290754	-0.00557981	52.9817	7.34855	1	10	0.00501977	0.000622539	0	-4.08318e-06	-0.000172376	1.00513e-05	159.154	0.0161456	-0.0150888	-0.00574543	-21.8672	8.04724	7.46824	2.99725	0.115096	0.0461871	0.124017	21.8652	7348.55	18312.2	19731.7	-68.1348	0.0000000E+000	0.0000000E+000	0.0000000E+000	68.1348	0.0000000E+000	0.0000000E+000	0.0000000E+000	-68.1348	0.0000000E+000	0.0000000E+000	0.0000000E+000	-21.8652	0.0000000E+000	0.0000000E+000	0.0000000E+000	21.8652	2.49195	68.1348	-1.02659e-06	-1.62235e-06	9.61826e-10	-1.62331e-06	0.290926	52108.1	30.8928	52139
681.09	8.17125	3.43321	8.8632	-22.7901	7.8006	0.290756	-0.00616067	68.0636	10.2126	1	10	0.00497556	0.000561373	0	-4.4372e-06	-0.000115102	1.03572e-05	-147.189	0.0184497	-0.0155062	0.00999746	-22.8886	8.85279	8.15574	3.44321	0.104018	0.0437039	0.112826	22.7901	10212.6	24306.6	26364.8	-67.2099	0.0000000E+000	0.0000000E+000	0.0000000E+000	67.2099	0.0000000E+000	0.0000000E+000	0.0000000E+000	-67.2099	0.0000000E+000	0.0000000E+000	0.0000000E+000	-22.7901	0.0000000E+000	0.0000000E+000	0.0000000E+000	22.7901	2.38006	67.2099	-3.54027e-07	-1.79125e-06	7.09107e-10	-1.79196e-06	0.290871	47195.6	18.6834	47214.3
463.961	8.9443	3.90503	9.7596	-23.5858	8.25233	0.290747	-0.00507343	87.8444	14.0637	1	10	0.00494443	0.000506622	0	-4.84064e-06	0.000362178	5.49781e-06	61.8235	0.0108519	0.00512416	-0.00956592	-23.5223	9.76047	8.94942	3.89547	0.0939036	0.0409978	0.102463	23.5858	14063.7	32212.3	35148.5	-66.4142	0.0000000E+000	0.0000000E+000	0.0000000E+000	66.4142	0.0000000E+000	0.0000000E+000	0.0000000E+000	-66.4142	0.0000000E+000	0.0000000E+000	0.0000000E+000	-23.5858	0.0000000E+000	0.0000000E+000	0.0000000E+000	23.5858	2.29045	66.4142	-4.03438e-07	-1.47509e-06	-1.83749e-09	-1.47325e-06	0.290385	57307.7	71.3872	57236.3
316.316	9.78625	4.5122	10.7764	-24.7533	8.70006	0.29075	-0.00573992	111.509	19.5497	1	10	0.00490895	0.000455528	0	-5.88444e-06	1.85363e-05	8.22641e-06	32.9117	0.0180591	0.0151608	-0.00981231	-24.6722	10.7861	9.80142	4.50239	0.0842693	0.0388545	0.0927954	24.7533	19549.7	42400.3	46690.2	-65.2468	0.0000000E+000	0.0000000E+000	0.0000000E+000	65.2468	0.0000000E+000	0.0000000E+000	0.0000000E+000	-65.2468	0.0000000E+000	0.0000000E+000	0.0000000E+000	-24.7533	0.0000000E+000	0.0000000E+000	0.0000000E+000	24.7533	2.16884	65.2468	-1.04379e-06	-1.66888e-06	-1.06397e-10	-1.66878e-06	0.290731	50654	3.22936	50650.7
215.345	10.8572	5.27355	12.0702	-25.9067	9.1496	0.29075	-0.00587769	140.147	26.7523	1	10	0.00490174	0.000406103	0	-6.99616e-06	-0.000115102	1.05652e-05	-84.6698	0.026016	0.00241676	0.0259035	-26.0121	12.0837	10.8596	5.29945	0.074523	0.0361972	0.0828487	25.9067	26752.3	55077.8	61231.1	-64.0933	0.0000000E+000	0.0000000E+000	0.0000000E+000	64.0933	0.0000000E+000	0.0000000E+000	0.0000000E+000	-64.0933	0.0000000E+000	0.0000000E+000	0.0000000E+000	-25.9067	0.0000000E+000	0.0000000E+000	0.0000000E+000	25.9067	2.05881	64.0933	-1.11172e-06	-1.70894e-06	6.76536e-10	-1.70961e-06	0.290865	49466.7	19.5829	49486.3
146.737	12.1068	6.19996	13.602	-27.1173	9.59549	0.290744	-0.00625376	174.94	36.3468	1	10	0.00488381	0.000359052	0	-8.18141e-06	0.000113992	1.15157e-05	7.0438	0.0320725	0.0318304	-0.00393299	-27.0416	13.6285	12.1386	6.19603	0.0654373	0.0335109	0.0735188	27.1173	36346.8	70974.9	79740.3	-62.8827	0.0000000E+000	0.0000000E+000	0.0000000E+000	62.8827	0.0000000E+000	0.0000000E+000	0.0000000E+000	-62.8827	0.0000000E+000	0.0000000E+000	0.0000000E+000	-27.1173	0.0000000E+000	0.0000000E+000	0.0000000E+000	27.1173	1.95271	62.8827	-1.18525e-06	-1.81824e-06	-7.12881e-10	-1.81753e-06	0.29063	46491.1	18.2278	46472.9
100.032	13.782	7.13856	15.5211	-27.3824	10.0468	0.290752	-0.00524099	222.88	47.1464	1	10	0.00488609	0.000314804	0	-8.45948e-06	0.000247631	4.99383e-06	-41.5599	0.0158633	0.0118699	0.0105238	-27.3967	15.5364	13.7939	7.14908	0.0572098	0.0296325	0.0644286	27.3824	47146.4	91023	102508	-62.6176	0.0000000E+000	0.0000000E+000	0.0000000E+000	62.6176	0.0000000E+000	0.0000000E+000	0.0000000E+000	-62.6176	0.0000000E+000	0.0000000E+000	0.0000000E+000	-27.3824	0.0000000E+000	0.0000000E+000	0.0000000E+000	27.3824	1.93065	62.6176	-2.78067e-07	-1.52383e-06	-1.29783e-09	-1.52253e-06	0.290505	55476.6	47.2489	55429.3
68.104	15.8042	8.08079	17.7503	-27.0809	10.5094	0.290752	-0.00508088	289.197	59.9364	1	10	0.00487783	0.000274803	0	-8.87206e-06	-9.6011e-05	6.82704e-06	-43.7167	0.0248434	0.017956	0.0171691	-27.1039	17.7741	15.8222	8.09796	0.0501606	0.0256474	0.0563371	27.0809	59936.4	117222	131656	-62.9191	0.0000000E+000	0.0000000E+000	0.0000000E+000	62.9191	0.0000000E+000	0.0000000E+000	0.0000000E+000	-62.9191	0.0000000E+000	0.0000000E+000	0.0000000E+000	-27.0809	0.0000000E+000	0.0000000E+000	0.0000000E+000	27.0809	1.95578	62.9191	-4.12582e-07	-1.47728e-06	4.87821e-10	-1.47777e-06	0.290848	57224.8	18.8965	57243.7
46.4415	18.2227	8.8437	20.2554	-25.8878	11.1846	0.290758	-0.00441369	387.507	73.87	1	11	0.00488901	0.000241369	0	-9.28115e-06	0.000209448	9.84449e-06	84.0124	0.0407861	0.0042545	-0.0405636	-25.7793	20.2415	18.227	8.80314	0.0444154	0.0215553	0.0493697	25.8878	73870	152212	169190	-64.1122	0.0000000E+000	0.0000000E+000	0.0000000E+000	64.1122	0.0000000E+000	0.0000000E+000	0.0000000E+000	-64.1122	0.0000000E+000	0.0000000E+000	0.0000000E+000	-25.8878	0.0000000E+000	0.0000000E+000	0.0000000E+000	25.8878	2.06053	64.1122	-4.09085e-07	-1.28332e-06	-9.24441e-10	-1.28239e-06	0.290549	65876.4	47.4542	65829
31.6296	20.9187	9.23705	22.8674	-23.8247	11.6156	0.290753	-0.00467208	544.746	88.8849	1	11	0.00488775	0.000213743	0	-1.02758e-05	-3.87374e-05	9.39758e-06	52.5395	0.0439667	0.0267412	-0.0348996	-23.7177	22.8778	20.9455	9.20215	0.040004	0.0176645	0.0437304	23.8247	88884.9	201294	220045	-66.1753	0.0000000E+000	0.0000000E+000	0.0000000E+000	66.1753	0.0000000E+000	0.0000000E+000	0.0000000E+000	-66.1753	0.0000000E+000	0.0000000E+000	0.0000000E+000	-23.8247	0.0000000E+000	0.0000000E+000	0.0000000E+000	23.8247	2.26466	66.1753	-9.94659e-07	-1.35842e-06	1.80984e-10	-1.3586e-06	0.290792	62232	8.29125	62240.3
21.5517	23.5744	9.39842	25.3788	-21.7357	12.0364	0.290756	-0.00483218	785.748	107.758	1	11	0.00488245	0.000192383	0	-1.08821e-05	1.85363e-05	5.58281e-05	-101.911	0.290193	-0.059891	0.283945	-22.38	25.4299	23.5145	9.68237	0.0366015	0.0145919	0.039403	21.7357	107758	270294	290983	-68.2643	0.0000000E+000	0.0000000E+000	0.0000000E+000	68.2643	0.0000000E+000	0.0000000E+000	0.0000000E+000	-68.2643	0.0000000E+000	0.0000000E+000	0.0000000E+000	-21.7357	0.0000000E+000	0.0000000E+000	0.0000000E+000	21.7357	2.50834	68.2643	-6.06266e-07	-1.40498e-06	-8.95705e-11	-1.40489e-06	0.290737	60170.7	3.836	60166.9
14.6852	26.184	8.72974	27.6009	-18.4384	12.4971	0.290759	-0.00422865	1241.48	124.193	1	11	0.00486794	0.000176369	0	-1.16694e-05	-0.00022965	7.73773e-06	-21.6004	0.0438725	0.0407915	0.0161508	-18.4434	27.6447	26.2248	8.74589	0.0343707	0.0114592	0.0362307	18.4384	124193	372504	392661	-71.5616	0.0000000E+000	0.0000000E+000	0.0000000E+000	71.5616	0.0000000E+000	0.0000000E+000	0.0000000E+000	-71.5616	0.0000000E+000	0.0000000E+000	0.0000000E+000	-18.4384	0.0000000E+000	0.0000000E+000	0.0000000E+000	18.4384	2.9994	71.5616	-7.8733e-07	-1.22952e-06	9.71108e-10	-1.23049e-06	0.290989	68759.4	54.308	68813.7
10.0032	28.5598	8.08891	29.6832	-15.8136	12.9478	0.290754	-0.0042387	1966.94	146.066	1	11	0.00487532	0.000164245	0	-1.08668e-05	9.49011e-05	8.27071e-06	139.31	0.0503559	-0.0381824	-0.0328302	-15.7726	29.6375	28.5216	8.05608	0.0324141	0.00918054	0.0336891	15.8136	146066	515721	536006	-74.1864	0.0000000E+000	0.0000000E+000	0.0000000E+000	74.1864	0.0000000E+000	0.0000000E+000	0.0000000E+000	-74.1864	0.0000000E+000	0.0000000E+000	0.0000000E+000	-15.8136	0.0000000E+000	0.0000000E+000	0.0000000E+000	15.8136	3.53074	74.1864	8.02593e-07	-1.23242e-06	-4.02258e-10	-1.23202e-06	0.290659	68595.1	22.3892	68572.7
6.81719	30.5748	7.32123	31.4391	-13.4661	13.2875	0.290755	-0.00425472	3188.82	172.925	1	11	0.00487538	0.000155074	0	-1.23194e-05	0.000133084	6.2286e-06	-103.64	0.0401654	-0.00947156	0.0390327	-13.5393	31.439	30.5653	7.36026	0.0309331	0.00740703	0.0318075	13.4661	172925	722167	742582	-76.5339	0.0000000E+000	0.0000000E+000	0.0000000E+000	76.5339	0.0000000E+000	0.0000000E+000	0.0000000E+000	-76.5339	0.0000000E+000	0.0000000E+000	0.0000000E+000	-13.4661	0.0000000E+000	0.0000000E+000	0.0000000E+000	13.4661	4.17618	76.5339	-1.45264e-06	-1.23708e-06	-5.66233e-10	-1.23651e-06	0.290622	68337.1	31.2791	68305.9
4.63925	32.1794	6.40577	32.8108	-11.2584	13.7715	0.290764	-0.00402574	5355.51	204.132	1	11	0.00486362	0.000148232	0	-1.35792e-05	-1.96462e-05	7.1053e-06	45.9106	0.0479335	0.0333511	-0.0344285	-11.1881	32.8368	32.2127	6.37134	0.0298913	0.00595029	0.0304778	11.2584	204132	1.02546e+06	1.04558e+06	-78.7416	0.0000000E+000	0.0000000E+000	0.0000000E+000	78.7416	0.0000000E+000	0.0000000E+000	0.0000000E+000	-78.7416	0.0000000E+000	0.0000000E+000	0.0000000E+000	-11.2584	0.0000000E+000	0.0000000E+000	0.0000000E+000	11.2584	5.0235	78.7416	-1.25974e-06	-1.17054e-06	7.90904e-11	-1.17062e-06	0.290784	72226.2	4.88014	72231.1
3.1604	33.6474	5.7126	34.1289	-9.6357	14.4645	0.290758	-0.00388053	8815.46	246.984	1	11	0.00487175	0.000142746	0	-1.26753e-05	-0.000134193	1.00105e-05	-85.061	0.0701283	0.00603773	0.0698679	-9.74958	34.1466	33.6534	5.78246	0.0288873	0.00490444	0.0293007	9.6357	246983	1.45474e+06	1.47556e+06	-80.3643	0.0000000E+000	0.0000000E+000	0.0000000E+000	80.3643	0.0000000E+000	0.0000000E+000	0.0000000E+000	-80.3643	0.0000000E+000	0.0000000E+000	0.0000000E+000	-9.6357	0.0000000E+000	0.0000000E+000	0.0000000E+000	9.6357	5.89003	80.3643	9.03863e-07	-1.1283e-06	5.20742e-10	-1.12882e-06	0.290892	74927.3	34.5812	74961.9
2.15577	34.8652	4.96644	35.2171	-8.10707	15.468	0.290761	-0.00324405	14865.3	295.635	1	11	0.00487263	0.00013836	0	-1.14178e-05	0.000400361	3.52228e-06	-21.765	0.0254574	0.0236426	0.00943963	-8.11684	35.2419	34.8888	4.97588	0.0281115	0.0040044	0.0283953	8.10707	295635	2.0754e+06	2.09635e+06	-81.8929	0.0000000E+000	0.0000000E+000	0.0000000E+000	81.8929	0.0000000E+000	0.0000000E+000	0.0000000E+000	-81.8929	0.0000000E+000	0.0000000E+000	0.0000000E+000	-8.10707	0.0000000E+000	0.0000000E+000	0.0000000E+000	8.10707	7.02016	81.8929	1.25752e-06	-9.43244e-07	-1.29879e-09	-9.41945e-07	0.290361	89629	123.414	89505.5
1.46631	35.8699	4.39304	36.1379	-6.98232	17.6576	0.290759	-0.00278159	24707.5	365.118	1	12	0.00487352	0.000134859	0	-1.34054e-05	-9.6011e-05	3.1796e-06	8.27513	0.0235772	0.0233317	-0.00339339	-6.97249	36.1607	35.8932	4.38965	0.0274665	0.00336387	0.0276718	6.98232	365118	2.98125e+06	3.00352e+06	-83.0177	0.0000000E+000	0.0000000E+000	0.0000000E+000	83.0177	0.0000000E+000	0.0000000E+000	0.0000000E+000	-83.0177	0.0000000E+000	0.0000000E+000	0.0000000E+000	-6.98232	0.0000000E+000	0.0000000E+000	0.0000000E+000	6.98232	8.16517	83.0177	-1.98757e-06	-8.08773e-07	2.67064e-10	-8.0904e-07	0.290855	104530	34.5166	104564
1.00006	36.7117	3.89748	36.918	-6.06007	19.7866	0.29076	-0.00246458	40832.8	455.092	1	12	0.00487518	0.000132054	0	-1.89314e-05	3.76275e-05	2.91727e-06	-60.7199	0.0220915	0.0108045	0.019269	-6.08803	36.9308	36.7225	3.91675	0.0269357	0.00285961	0.027087	6.06007	455092	4.28667e+06	4.31076e+06	-83.9399	0.0000000E+000	0.0000000E+000	0.0000000E+000	83.9399	0.0000000E+000	0.0000000E+000	0.0000000E+000	-83.9399	0.0000000E+000	0.0000000E+000	0.0000000E+000	-6.06007	0.0000000E+000	0.0000000E+000	0.0000000E+000	6.06007	9.41936	83.9399	-5.52605e-06	-7.16601e-07	-9.2736e-11	-7.16508e-07	0.290722	117975	15.2673	117960
0.681362	37.4223	3.54012	37.5894	-5.40405	22.8969	0.290762	-0.00234379	65981.8	585.234	1	12	0.00487314	0.000129641	0	-2.63583e-05	5.67187e-05	2.85861e-06	-48.5887	0.0220501	0.0145853	0.0165372	-5.42704	37.6055	37.4369	3.55666	0.026485	0.00250546	0.0266033	5.40405	585234	6.18646e+06	6.21408e+06	-84.5959	0.0000000E+000	0.0000000E+000	0.0000000E+000	84.5959	0.0000000E+000	0.0000000E+000	0.0000000E+000	-84.5959	0.0000000E+000	0.0000000E+000	0.0000000E+000	-5.40405	0.0000000E+000	0.0000000E+000	0.0000000E+000	5.40405	10.5709	84.5959	-7.42683e-06	-6.81486e-07	-1.32937e-10	-6.81353e-07	0.290705	124056	24.1995	124032
0.464091	38.0667	3.32665	38.2118	-4.99439	27.4534	0.290756	-0.00264701	103088	781.321	1	12	0.00487683	0.000127626	0	-3.30054e-05	5.67187e-05	1.66687e-06	-6.88715	0.0130606	0.0129664	0.00156615	-4.99504	38.2249	38.0797	3.32822	0.0260706	0.00227831	0.0261699	4.99439	781321	8.94062e+06	8.9747e+06	-85.0056	0.0000000E+000	0.0000000E+000	0.0000000E+000	85.0056	0.0000000E+000	0.0000000E+000	0.0000000E+000	-85.0056	0.0000000E+000	0.0000000E+000	0.0000000E+000	-4.99439	0.0000000E+000	0.0000000E+000	0.0000000E+000	4.99439	11.443	85.0056	-6.64712e-06	-7.69634e-07	-1.50135e-10	-7.69483e-07	0.290699	109843	21.4275	109822
0.316193	38.6114	3.38661	38.7597	-5.01259	34.1279	0.290762	-0.0027585	148629	1134.68	1	12	0.0048775	0.00012584	0	-3.46933e-05	0.000133084	2.03861e-06	-18.6123	0.0162	0.0153528	0.00517045	-5.01822	38.7754	38.6268	3.39178	0.0257013	0.00225427	0.0258	5.01259	1.13468e+06	1.29367e+07	1.29864e+07	-84.9874	0.0000000E+000	0.0000000E+000	0.0000000E+000	84.9874	0.0000000E+000	0.0000000E+000	0.0000000E+000	-84.9874	0.0000000E+000	0.0000000E+000	0.0000000E+000	-5.01259	0.0000000E+000	0.0000000E+000	0.0000000E+000	5.01259	11.4012	84.9874	-1.68791e-06	-8.02065e-07	-3.6711e-10	-8.01698e-07	0.290629	105406	48.245	105358
0.215268	39.0897	3.64561	39.2594	-5.32815	43.9213	0.290753	-0.0027563	202801	1748.74	1	12	0.00487606	0.000124201	0	-2.84047e-05	-0.000115102	2.56091e-06	-34.517	0.020619	0.0169892	0.0116838	-5.34281	39.2774	39.1067	3.6573	0.0253616	0.00236529	0.0254716	5.32815	1.74874e+06	1.87507e+07	1.88321e+07	-84.6719	0.0000000E+000	0.0000000E+000	0.0000000E+000	84.6719	0.0000000E+000	0.0000000E+000	0.0000000E+000	-84.6719	0.0000000E+000	0.0000000E+000	0.0000000E+000	-5.32815	0.0000000E+000	0.0000000E+000	0.0000000E+000	5.32815	10.7224	84.6719	6.28862e-06	-8.01402e-07	3.17256e-10	-8.01719e-07	0.290868	105487	41.7597	105529
0.146929	39.6349	4.07321	39.8436	-5.86759	58.2597	0.290761	-0.0019258	265935	2779.28	1	12	0.00487298	0.000122303	0	-1.3573e-05	0.000152175	2.44796e-06	-23.7237	0.0200156	0.0183242	0.00805278	-5.87641	39.8627	39.6532	4.08126	0.0249666	0.00256578	0.0250981	5.86759	2.77928e+06	2.70441e+07	2.71866e+07	-84.1324	0.0000000E+000	0.0000000E+000	0.0000000E+000	84.1324	0.0000000E+000	0.0000000E+000	0.0000000E+000	-84.1324	0.0000000E+000	0.0000000E+000	0.0000000E+000	-5.86759	0.0000000E+000	0.0000000E+000	0.0000000E+000	5.86759	9.73062	84.1324	1.48316e-05	-5.59948e-07	-2.93058e-10	-5.59655e-07	0.290609	150982	79.0189	150903
0.0999041	40.3788	4.80148	40.6633	-6.78125	79.3358	0.290756	-0.0011686	331789	4626.02	1	12	0.00487699	0.000119936	0	2.4366e-06	0.000209448	2.1776e-06	16.9436	0.0181564	0.0173682	-0.00529132	-6.77096	40.6799	40.3962	4.79619	0.0244202	0.00290382	0.0245922	6.78125	4.62601e+06	3.89032e+07	3.91773e+07	-83.2188	0.0000000E+000	0.0000000E+000	0.0000000E+000	83.2188	0.0000000E+000	0.0000000E+000	0.0000000E+000	-83.2188	0.0000000E+000	0.0000000E+000	0.0000000E+000	-6.78125	0.0000000E+000	0.0000000E+000	0.0000000E+000	6.78125	8.40966	83.2188	1.60096e-05	-3.39777e-07	-2.44761e-10	-3.39532e-07	0.290546	248807	179.23	248628
0.0680626	41.2635	5.96966	41.6931	-8.23195	110.262	0.290757	-0.000296563	391708	8030.31	1	12	0.00487621	0.000116955	0	8.18352e-06	-3.87374e-05	1.44722e-06	34.0615	0.0123742	0.0102513	-0.00693059	-8.22051	41.7023	41.2738	5.96273	0.0237376	0.00343416	0.0239848	8.23195	8.0303e+06	5.55072e+07	5.6085e+07	-81.7681	0.0000000E+000	0.0000000E+000	0.0000000E+000	81.7681	0.0000000E+000	0.0000000E+000	0.0000000E+000	-81.7681	0.0000000E+000	0.0000000E+000	0.0000000E+000	-8.23195	0.0000000E+000	0.0000000E+000	0.0000000E+000	8.23195	6.91221	81.7681	5.74693e-06	-8.62276e-08	1.14881e-11	-8.62391e-08	0.290796	980424	130.621	980554
0.0464052	42.2065	7.60648	42.8864	-10.2162	155.613	0.290759	0.000195336	450889	14184	1	12	0.00487725	0.000113725	0	-2.38648e-05	0.000171266	2.00818e-06	-4.69455	0.0176582	0.017599	0.00144521	-10.214	42.904	42.2241	7.60793	0.0229477	0.00413566	0.0233174	10.2162	1.4184e+07	7.87033e+07	7.99713e+07	-79.7838	0.0000000E+000	0.0000000E+000	0.0000000E+000	79.7838	0.0000000E+000	0.0000000E+000	0.0000000E+000	-79.7838	0.0000000E+000	0.0000000E+000	0.0000000E+000	-10.2162	0.0000000E+000	0.0000000E+000	0.0000000E+000	10.2162	5.54875	79.7838	-3.20483e-05	5.67957e-08	3.34545e-11	5.67623e-08	0.290587	1.4885e+06	876.775	1.48763e+06
0.0315922	43.3558	9.55421	44.3961	-12.4275	222.219	0.290756	-8.87095e-05	527285	24420	1	12	0.00487192	0.000109738	0	-0.000115934	0.000438543	1.79011e-06	31.5308	0.0163126	0.0139042	-0.00853079	-12.4129	44.4078	43.3697	9.54568	0.0219968	0.00484737	0.0225245	12.4275	2.442e+07	1.10815e+08	1.13474e+08	-77.5725	0.0000000E+000	0.0000000E+000	0.0000000E+000	77.5725	0.0000000E+000	0.0000000E+000	0.0000000E+000	-77.5725	0.0000000E+000	0.0000000E+000	0.0000000E+000	-12.4275	0.0000000E+000	0.0000000E+000	0.0000000E+000	12.4275	4.53787	77.5725	-9.20689e-05	-2.57928e-08	-3.89029e-11	-2.57539e-08	0.290317	3.27761e+06	4943.58	3.27267e+06
0.0215268	45.0417	12.1201	46.6439	-15.0608	319.958	0.290763	-0.000429174	610008	41186.8	1	12	0.00487676	0.000104553	0	-0.000259204	-0.000115102	2.06677e-06	-30.0463	0.0197677	0.0171113	0.00989765	-15.067	46.6629	45.0588	12.13	0.0207026	0.00557079	0.0214391	15.0608	4.11868e+07	1.53062e+08	1.58506e+08	-74.9392	0.0000000E+000	0.0000000E+000	0.0000000E+000	74.9392	0.0000000E+000	0.0000000E+000	0.0000000E+000	-74.9392	0.0000000E+000	0.0000000E+000	0.0000000E+000	-15.0608	0.0000000E+000	0.0000000E+000	0.0000000E+000	15.0608	3.71628	74.9392	-0.00014327	-1.24788e-07	4.93989e-11	-1.24838e-07	0.290878	677495	268.195	677763
0.0146812	47.2584	15.9079	49.864	-18.604	463.26	0.290757	-0.000779569	681471	69358	1	12	0.00487385	9.77429e-05	0	-0.000392474	0.000152175	1.89798e-06	6.89673	0.0194181	0.0192776	-0.00233173	-18.5944	49.8815	47.2777	15.9055	0.0190066	0.0063979	0.0200545	18.604	6.9358e+07	2.06046e+08	2.17406e+08	-71.396	0.0000000E+000	0.0000000E+000	0.0000000E+000	71.396	0.0000000E+000	0.0000000E+000	0.0000000E+000	-71.396	0.0000000E+000	0.0000000E+000	0.0000000E+000	-18.604	0.0000000E+000	0.0000000E+000	0.0000000E+000	18.604	2.97076	71.396	-0.00013327	-2.26665e-07	-1.18631e-10	-2.26547e-07	0.290605	372972	195.204	372777

0.0100092	49.6221	21.1853	53.9553	-23.1192	673.442	0.29076	-0.000849274	750565	115715	1	12	0.00487456	9.03444e-05	0	-0.000396833	-3.87374e-05	1.84381e-06	19.1442	0.0204087	0.01928	-0.00669297	-23.1046	53.9704	49.6414	21.1786	0.0170454	0.00727723	0.0185339	23.1192	1.15715e+08	2.71038e+08	2.94705e+08	-66.8808	0.0000000E+000	0.0000000E+000	0.0000000E+000	66.8808	0.0000000E+000	0.0000000E+000	0.0000000E+000	-66.8808	0.0000000E+000	0.0000000E+000	0.0000000E+000	-23.1192	0.0000000E+000	0.0000000E+000	0.0000000E+000	23.1192	2.34229	66.8808	-4.35858e-06	-2.46935e-07	3.28987e-11	-2.46968e-07	0.290799	342363	45.6123	342408