File: txt/19156_R306_UA712_SOC00_C04.mpt
EC-Lab ASCII FILE
Nb header lines : 65

Potentio Electrochemical Impedance Spectroscopy

Run on channel : 4 (SN 66756)
Grouped channel(s) : 1, 2, 3, 4
User :
CE vs. WE compliance from -10 V to 10 V
Electrode connection : standard
Potential control : Ewe
Ewe ctrl range : min = -10.00 V, max = 10.00 V
Safety Limits :
	Do not start on E overload
Acquisition started on : 11/12/2025 13:00:33.882
Loaded Setting File :  C:\Users\Celltest\OneDrive - store-dot.com\Documents\EC-Lab\Data\@Biologic Test Protocols\anode half cell EIS SOC00.mps
Saved on :
	File : 19153_R306_UA712_SOC00_C04.mpr
	Directory : C:\Users\Celltest\OneDrive - store-dot.com\Documents\EC-Lab\Data\Charmaine\
	Host : 169.254.61.224
Device : VMP-3e (SN .003165)
Address : USB
EC-LAB for windows v11.62 (software)
Internet server v27.00 (firmware)
Command interpretor v12.03 (firmware)
Electrode material :
Initial state :
Electrolyte :
Comments :
Electrode surface area : 0.001 cm²
Characteristic mass : 0.001 g
Equivalent Weight : 0.000 g/eq.
Density : 0.000 g/cm3
Volume (V) : 0.001 cm³
Record Ece
Cycle Definition : Charge/Discharge alternance
Mode                Single sine
E (V)               0.0000
vs.                 Eoc
tE (h:m:s)          0:00:0.0000
record              0
dI                  0.000
unit dI             mA
dt (s)              0.000
fi                  100.000
unit fi             kHz
ff                  10.000
unit ff             mHz
Nd                  6
Points              per decade
spacing             Logarithmic
Va (mV)             5.0
pw                  0.10
Na                  2
corr                0
E range min (V)     -10.000
E range max (V)     10.000
I Range             Auto
Bandwidth           5
nc cycles           0
goto Ns'            0
nr cycles           0
inc. cycle          0

freq/Hz	Re(Z)/Ohm	-Im(Z)/Ohm	|Z|/Ohm	Phase(Z)/deg	time/s	<Ewe>/V	<I>/mA	Cs/µF	Cp/µF	cycle number	I Range	|Ewe|/V	|I|/A	Ns	(Q-Qo)/mA.h	<Ece>/V	|Ece|/V	Phase(Zce)/deg	|Zce|/Ohm	Re(Zce)/Ohm	-Im(Zce)/Ohm	Phase(Zwe-ce)/deg	|Zwe-ce|/Ohm	Re(Zwe-ce)/Ohm	-Im(Zwe-ce)/Ohm	Re(Y)/Ohm-1	Im(Y)/Ohm-1	|Y|/Ohm-1	Phase(Y)/deg	Re(C)/nF	Im(C)/nF	|C|/nF	Phase(C)/deg	Re(M)	Im(M)	|M|	Phase(M)/deg	Re(Permittivity)	Im(Permittivity)	|Permittivity|	Phase(Permittivity)/deg	Re(Resistivity)/Ohm.cm	Im(Resistivity)/Ohm.cm	|Resistivity|/Ohm.cm	Phase(Resistivity)/deg	Re(Conductivity)/mS/cm	Im(Conductivity)/mS/cm	|Conductivity|/mS/cm	Phase(Conductivity)/deg	Tan(Delta)	Loss Angle(Delta)/deg	dq/mA.h	Pwe/W	Pce/W	Pwe-ce/W	<Ewe-Ece>/V	Rwe/Ohm	Rce/Ohm	Rwe-ce/Ohm		Ewe-Ece/V
100004	2.0692	0.862166	2.24163	-22.6199	1.91054	0.282962	-0.0369096	1.84592	0.273066	1	9	0.00454952	0.00202956	0	-5.74673e-06	-2.49133e-05	2.40575e-05	93.593	0.0118536	-0.000742849	-0.0118303	-22.3474	2.23642	2.06845	0.850336	0.411788	0.171578	0.446104	22.6199	273.065	655.357	709.97	-67.3801	0.0000000E+000	0.0000000E+000	0.0000000E+000	67.3801	0.0000000E+000	0.0000000E+000	0.0000000E+000	-67.3801	0.0000000E+000	0.0000000E+000	0.0000000E+000	-22.6199	0.0000000E+000	0.0000000E+000	0.0000000E+000	22.6199	2.4	67.3801	-5.74673e-06	-1.0444e-05	9.19542e-10	-1.0445e-05	0.282987	7666.34	0.674981	7667.02
68132	2.32608	0.983844	2.52559	-22.9265	2.41757	0.282966	-0.0473902	2.37434	0.360303	1	9	0.00504117	0.00199604	0	-4.17353e-06	-0.000177793	3.823e-05	61.6579	0.019153	0.00909257	-0.0168571	-22.4942	2.52747	2.33518	0.966987	0.364669	0.154241	0.395947	22.9265	360.303	851.859	924.923	-67.0735	0.0000000E+000	0.0000000E+000	0.0000000E+000	67.0735	0.0000000E+000	0.0000000E+000	0.0000000E+000	-67.0735	0.0000000E+000	0.0000000E+000	0.0000000E+000	-22.9265	0.0000000E+000	0.0000000E+000	0.0000000E+000	22.9265	2.36428	67.0735	1.5732e-06	-1.34098e-05	8.42564e-09	-1.34182e-05	0.283143	5970.97	3.75168	5974.73
46420.4	2.57812	1.08199	2.79597	-22.7669	2.92454	0.282988	-0.0411242	3.16875	0.474538	1	9	0.00505144	0.00180669	0	-6.94513e-06	-5.80336e-06	5.50254e-06	-33.7266	0.00304565	0.00253305	0.00169104	-22.7787	2.79896	2.58066	1.08368	0.329792	0.138407	0.357658	22.7669	474.538	1130.71	1226.25	-67.2331	0.0000000E+000	0.0000000E+000	0.0000000E+000	67.2331	0.0000000E+000	0.0000000E+000	0.0000000E+000	-67.2331	0.0000000E+000	0.0000000E+000	0.0000000E+000	-22.7669	0.0000000E+000	0.0000000E+000	0.0000000E+000	22.7669	2.38276	67.2331	-2.7716e-06	-1.16377e-05	2.38659e-10	-1.16379e-05	0.282994	6881.29	0.141118	6881.43
31621.1	2.87721	1.16729	3.10498	-22.0824	3.30754	0.282982	-0.0371707	4.31186	0.6094	1	9	0.00535156	0.00172354	0	-1.5818e-05	-8.22432e-05	1.30078e-05	8.54802	0.00754713	0.00746329	-0.00112179	-22.0116	3.11148	2.88467	1.16616	0.298438	0.121077	0.322063	22.0824	609.401	1502.09	1621	-67.9176	0.0000000E+000	0.0000000E+000	0.0000000E+000	67.9176	0.0000000E+000	0.0000000E+000	0.0000000E+000	-67.9176	0.0000000E+000	0.0000000E+000	0.0000000E+000	-22.0824	0.0000000E+000	0.0000000E+000	0.0000000E+000	22.0824	2.46487	67.9176	-8.87291e-06	-1.05187e-05	3.05704e-09	-1.05217e-05	0.283064	7613.03	2.21258	7615.25
21544.7	3.16641	1.22684	3.39578	-21.1791	3.69055	0.282973	-0.0367978	6.02133	0.78594	1	9	0.0052106	0.00153444	0	-2.38295e-05	0.000261736	9.57366e-06	-17.1631	0.0062392	0.00596137	0.00184114	-21.1717	3.402	3.17237	1.22868	0.274593	0.106392	0.294484	21.1791	785.94	2028.47	2175.41	-68.8209	0.0000000E+000	0.0000000E+000	0.0000000E+000	68.8209	0.0000000E+000	0.0000000E+000	0.0000000E+000	-68.8209	0.0000000E+000	0.0000000E+000	0.0000000E+000	-21.1791	0.0000000E+000	0.0000000E+000	0.0000000E+000	21.1791	2.58095	68.8209	-8.01146e-06	-1.04128e-05	-9.6313e-09	-1.04031e-05	0.282711	7689.94	7.11282	7682.83
14678.6	3.46824	1.30226	3.70467	-20.5802	4.07456	0.282991	-0.0285924	8.32602	1.02881	1	9	0.00500585	0.00135123	0	-2.40404e-05	-0.000235123	2.04776e-05	-107.383	0.0151549	-0.00452762	0.0144627	-20.8142	3.70555	3.46372	1.31672	0.252703	0.0948853	0.269929	20.5802	1028.81	2739.97	2926.75	-69.4198	0.0000000E+000	0.0000000E+000	0.0000000E+000	69.4198	0.0000000E+000	0.0000000E+000	0.0000000E+000	-69.4198	0.0000000E+000	0.0000000E+000	0.0000000E+000	-20.5802	0.0000000E+000	0.0000000E+000	0.0000000E+000	20.5802	2.66324	69.4198	-2.109e-07	-8.09139e-06	6.72272e-09	-8.09811e-06	0.283226	9897.44	8.22327	9905.66
10002.2	3.81391	1.36823	4.05191	-19.7353	4.33554	0.282969	-0.0450032	11.6296	1.32606	1	9	0.00503218	0.00124193	0	-2.66941e-05	-0.000177793	1.28554e-05	-13.7266	0.0103512	0.0100556	0.00245624	-19.7201	4.0622	3.82397	1.37069	0.232301	0.0833374	0.246797	19.7353	1326.06	3696.36	3927.02	-70.2647	0.0000000E+000	0.0000000E+000	0.0000000E+000	70.2647	0.0000000E+000	0.0000000E+000	0.0000000E+000	-70.2647	0.0000000E+000	0.0000000E+000	0.0000000E+000	-19.7353	0.0000000E+000	0.0000000E+000	0.0000000E+000	19.7353	2.78747	70.2647	-2.65369e-06	-1.27345e-05	8.00125e-09	-1.27425e-05	0.283147	6287.76	3.95067	6291.71
6810.42	4.07968	1.45442	4.33118	-19.6214	4.75051	0.282992	-0.0173811	16.0677	1.81186	1	10	0.00479563	0.00110723	0	-2.95181e-05	0.000127966	5.70139e-05	-56.0215	0.0514922	0.028778	0.0426998	-20.0218	4.37274	4.10846	1.49712	0.217477	0.0775314	0.230884	19.6214	1811.86	5082.29	5395.6	-70.3786	0.0000000E+000	0.0000000E+000	0.0000000E+000	70.3786	0.0000000E+000	0.0000000E+000	0.0000000E+000	-70.3786	0.0000000E+000	0.0000000E+000	0.0000000E+000	-19.6214	0.0000000E+000	0.0000000E+000	0.0000000E+000	19.6214	2.80502	70.3786	-2.82404e-06	-4.91871e-06	-2.2242e-09	-4.91649e-06	0.282864	16281.5	7.36237	16274.2
4646	4.4438	1.60724	4.72552	-19.8841	5.01462	0.282974	-0.021406	21.3138	2.46559	1	10	0.00495711	0.00104901	0	-3.03985e-05	7.06365e-05	1.42901e-05	28.4809	0.0136225	0.0119739	-0.00649609	-19.7609	4.73458	4.45577	1.60074	0.199001	0.0719747	0.211617	19.8841	2465.59	6817.04	7249.22	-70.1159	0.0000000E+000	0.0000000E+000	0.0000000E+000	70.1159	0.0000000E+000	0.0000000E+000	0.0000000E+000	-70.1159	0.0000000E+000	0.0000000E+000	0.0000000E+000	-19.8841	0.0000000E+000	0.0000000E+000	0.0000000E+000	19.8841	2.76487	70.1159	-8.80364e-07	-6.05734e-06	-1.51204e-09	-6.05583e-06	0.282904	13219.4	3.29985	13216.1
3163.08	4.80506	1.75842	5.1167	-20.1002	5.38868	0.282929	-0.0210815	28.6145	3.3795	1	10	0.0049448	0.000966404	0	-3.31009e-05	-0.000139573	5.64252e-06	25.1045	0.00583867	0.00528713	-0.00247718	-20.0539	5.12082	4.81035	1.75595	0.183535	0.067165	0.195438	20.1002	3379.5	9234.82	9833.76	-69.8998	0.0000000E+000	0.0000000E+000	0.0000000E+000	69.8998	0.0000000E+000	0.0000000E+000	0.0000000E+000	-69.8998	0.0000000E+000	0.0000000E+000	0.0000000E+000	-20.1002	0.0000000E+000	0.0000000E+000	0.0000000E+000	20.1002	2.7326	69.8998	-2.70244e-06	-5.96456e-06	2.9424e-09	-5.96751e-06	0.283069	13420.8	6.62066	13427.4
2155.69	5.19956	1.95972	5.55661	-20.6515	5.83978	0.282935	-0.0150274	37.6739	4.68606	1	10	0.00489962	0.000881764	0	-3.42811e-05	0.000147076	9.83059e-06	93.5044	0.0111488	-0.000681479	-0.0111279	-20.5465	5.55205	5.19887	1.94859	0.168402	0.0634708	0.179966	20.6515	4686.06	12433.1	13286.9	-69.3485	0.0000000E+000	0.0000000E+000	0.0000000E+000	69.3485	0.0000000E+000	0.0000000E+000	0.0000000E+000	-69.3485	0.0000000E+000	0.0000000E+000	0.0000000E+000	-20.6515	0.0000000E+000	0.0000000E+000	0.0000000E+000	20.6515	2.65322	69.3485	-1.18015e-06	-4.25177e-06	-2.21017e-09	-4.24956e-06	0.282787	18827.9	9.78722	18818.1
1468.59	5.6477	2.21194	6.06541	-21.3879	6.29112	0.282932	-0.014908	48.9944	6.51587	1	10	0.00485937	0.000801161	0	-3.67027e-05	0.000127966	5.36849e-06	-63.1874	0.0067009	0.0030226	0.00598046	-21.4301	6.07041	5.65073	2.21792	0.153515	0.0601247	0.164869	21.3879	6515.87	16636.8	17867.3	-68.6121	0.0000000E+000	0.0000000E+000	0.0000000E+000	68.6121	0.0000000E+000	0.0000000E+000	0.0000000E+000	-68.6121	0.0000000E+000	0.0000000E+000	0.0000000E+000	-21.3879	0.0000000E+000	0.0000000E+000	0.0000000E+000	21.3879	2.55328	68.6121	-2.42158e-06	-4.21796e-06	-1.90773e-09	-4.21605e-06	0.282804	18978.5	8.58372	18969.9
1000.32	6.13757	2.49919	6.6269	-22.1559	6.74182	0.282937	-0.0133041	63.6623	9.0544	1	10	0.00482483	0.000728068	0	-3.8191e-05	-0.000426222	8.18043e-06	40.9483	0.0112358	0.00848641	-0.0073637	-22.0693	6.63199	6.14606	2.49182	0.139758	0.0569087	0.1509	22.1559	9054.4	22236	24008.8	-67.8441	0.0000000E+000	0.0000000E+000	0.0000000E+000	67.8441	0.0000000E+000	0.0000000E+000	0.0000000E+000	-67.8441	0.0000000E+000	0.0000000E+000	0.0000000E+000	-22.1559	0.0000000E+000	0.0000000E+000	0.0000000E+000	22.1559	2.45583	67.8441	-1.48833e-06	-3.76421e-06	5.67049e-09	-3.76988e-06	0.283363	21266.9	32.037	21299
681.09	6.66292	2.85344	7.24821	-23.1834	7.19158	0.282942	-0.0138934	81.8931	12.6918	1	10	0.00479314	0.000661286	0	-4.03903e-05	5.15265e-05	2.47576e-06	40.3014	0.00374385	0.00285526	-0.00242155	-23.1569	7.24988	6.66577	2.85102	0.126824	0.0543134	0.137965	23.1834	12691.8	29635.9	32239.2	-66.8166	0.0000000E+000	0.0000000E+000	0.0000000E+000	66.8166	0.0000000E+000	0.0000000E+000	0.0000000E+000	-66.8166	0.0000000E+000	0.0000000E+000	0.0000000E+000	-23.1834	0.0000000E+000	0.0000000E+000	0.0000000E+000	23.1834	2.33505	66.8166	-2.19926e-06	-3.93104e-06	-7.1588e-10	-3.93032e-06	0.282891	20365.2	3.7087	20361.5
463.961	7.29714	3.28829	8.00382	-24.2576	7.64328	0.282906	-0.0153668	104.32	17.6082	1	10	0.00478061	0.000597291	0	-4.2171e-05	-0.000292453	7.58001e-06	-3.47507	0.0126906	0.0126673	0.000769234	-24.2254	8.01569	7.30981	3.28906	0.113909	0.0513305	0.12494	24.2576	17608.2	39074.8	42859	-65.7424	0.0000000E+000	0.0000000E+000	0.0000000E+000	65.7424	0.0000000E+000	0.0000000E+000	0.0000000E+000	-65.7424	0.0000000E+000	0.0000000E+000	0.0000000E+000	-24.2576	0.0000000E+000	0.0000000E+000	0.0000000E+000	24.2576	2.21913	65.7424	-1.78069e-06	-4.34738e-06	4.49408e-09	-4.35187e-06	0.283199	18410.2	19.0314	18429.2
316.316	8.02818	3.85998	8.90792	-25.6784	8.09101	0.282949	-0.0132966	130.351	24.4755	1	10	0.00477464	0.000535999	0	-4.37098e-05	-0.000330673	7.46125e-06	-33.8463	0.0139203	0.0115613	0.00775313	-25.6911	8.9217	8.03974	3.86773	0.101173	0.0486443	0.11226	25.6784	24475.5	50905.3	56483.6	-64.3216	0.0000000E+000	0.0000000E+000	0.0000000E+000	64.3216	0.0000000E+000	0.0000000E+000	0.0000000E+000	-64.3216	0.0000000E+000	0.0000000E+000	0.0000000E+000	-25.6784	0.0000000E+000	0.0000000E+000	0.0000000E+000	25.6784	2.07985	64.3216	-1.53883e-06	-3.76226e-06	4.39682e-09	-3.76665e-06	0.283279	21279.8	24.869	21304.7
215.345	8.93256	4.54604	10.0228	-26.9729	8.54056	0.282946	-0.0141322	162.575	33.4456	1	10	0.00476173	0.000475089	0	-4.48527e-05	1.33066e-05	8.77216e-06	96.2627	0.0184643	-0.00201421	-0.0183541	-26.8845	10.0127	8.93055	4.52769	0.0889191	0.0452535	0.0997722	26.9729	33445.6	65717.5	73738.7	-63.0271	0.0000000E+000	0.0000000E+000	0.0000000E+000	63.0271	0.0000000E+000	0.0000000E+000	0.0000000E+000	-63.0271	0.0000000E+000	0.0000000E+000	0.0000000E+000	-26.9729	0.0000000E+000	0.0000000E+000	0.0000000E+000	26.9729	1.96491	63.0271	-1.14292e-06	-3.99863e-06	-1.88051e-10	-3.99844e-06	0.282932	20021.4	0.941583	20020.5
146.737	10.099	5.36068	11.4336	-27.96	8.98652	0.282943	-0.0141284	202.33	44.4771	1	10	0.00475964	0.000416287	0	-4.58872e-05	-0.000311563	7.6582e-06	72.2937	0.0183964	0.00559504	-0.017525	-27.8693	11.4303	10.1046	5.34315	0.0772529	0.0410069	0.0874619	27.96	44477.1	83790.4	94863.3	-62.04	0.0000000E+000	0.0000000E+000	0.0000000E+000	62.04	0.0000000E+000	0.0000000E+000	0.0000000E+000	-62.04	0.0000000E+000	0.0000000E+000	0.0000000E+000	-27.96	0.0000000E+000	0.0000000E+000	0.0000000E+000	27.96	1.8839	62.04	-1.0345e-06	-3.99754e-06	4.40189e-09	-4.00195e-06	0.283255	20026.5	22.0522	20048.6
100.032	11.5862	6.17613	13.1295	-28.0603	9.43782	0.282936	-0.0137368	257.611	57.0035	1	10	0.00475684	0.000362302	0	-4.79596e-05	0.000147076	9.95462e-06	-21.9836	0.027476	0.0254783	0.0102854	-28.0477	13.1568	11.6116	6.18641	0.0672115	0.0358278	0.0761644	28.0603	57003.5	106936	121181	-61.9397	0.0000000E+000	0.0000000E+000	0.0000000E+000	61.9397	0.0000000E+000	0.0000000E+000	0.0000000E+000	-61.9397	0.0000000E+000	0.0000000E+000	0.0000000E+000	-28.0603	0.0000000E+000	0.0000000E+000	0.0000000E+000	28.0603	1.87596	61.9397	-2.07236e-06	-3.88662e-06	-2.02035e-09	-3.8846e-06	0.282789	20597	10.7068	20586.3
68.104	13.4582	6.81617	15.0859	-26.8608	9.90041	0.282948	-0.0108944	342.852	69.9917	1	10	0.00475193	0.000314992	0	-4.95845e-05	5.15265e-05	9.1404e-06	19.2285	0.0290179	0.0273991	-0.00955666	-26.7815	15.106	13.4856	6.80661	0.0591352	0.0299501	0.0662871	26.8608	69991.7	138195	154909	-63.1392	0.0000000E+000	0.0000000E+000	0.0000000E+000	63.1392	0.0000000E+000	0.0000000E+000	0.0000000E+000	-63.1392	0.0000000E+000	0.0000000E+000	0.0000000E+000	-26.8608	0.0000000E+000	0.0000000E+000	0.0000000E+000	26.8608	1.97446	63.1392	-1.62494e-06	-3.08255e-06	-5.61349e-10	-3.08198e-06	0.282897	25972	4.72964	25967.2
46.4415	15.5216	7.2603	17.1357	-25.068	10.3367	0.282926	-0.0158294	472.019	84.7353	1	10	0.00474715	0.000277033	0	-5.13058e-05	3.24166e-05	9.37181e-06	12.1163	0.0338292	0.0330756	-0.00710067	-24.9998	17.1627	15.5547	7.2532	0.0528607	0.0247258	0.0583577	25.068	84735.3	181153	199992	-64.932	0.0000000E+000	0.0000000E+000	0.0000000E+000	64.932	0.0000000E+000	0.0000000E+000	0.0000000E+000	-64.932	0.0000000E+000	0.0000000E+000	0.0000000E+000	-25.068	0.0000000E+000	0.0000000E+000	0.0000000E+000	25.068	2.13787	64.932	-1.7213e-06	-4.47856e-06	-5.13135e-10	-4.47804e-06	0.282894	17873.5	2.04787	17871.4
31.6296	17.7925	7.284	19.2257	-22.2636	11.0015	0.282963	-0.0064112	690.808	99.159	1	11	0.00474549	0.000246831	0	-5.28387e-05	8.97464e-05	5.81017e-06	11.5364	0.0235391	0.0230635	-0.00470758	-22.2246	19.2453	17.8155	7.27929	0.0481361	0.0197063	0.0520137	22.2636	99159	242213	261725	-67.7364	0.0000000E+000	0.0000000E+000	0.0000000E+000	67.7364	0.0000000E+000	0.0000000E+000	0.0000000E+000	-67.7364	0.0000000E+000	0.0000000E+000	0.0000000E+000	-22.2636	0.0000000E+000	0.0000000E+000	0.0000000E+000	22.2636	2.44268	67.7364	-1.53285e-06	-1.81413e-06	-5.75382e-10	-1.81356e-06	0.282873	44135.8	13.9984	44121.8
21.5517	19.9096	6.96624	21.0931	-19.2846	11.4225	0.282975	-0.00586314	1060.08	115.626	1	11	0.00475346	0.000225356	0	-5.33617e-05	-0.000120463	4.38428e-06	-6.30561	0.0194549	0.0193372	0.00213676	-19.2728	21.1121	19.9289	6.96837	0.0447487	0.0156573	0.0474089	19.2846	115626	330460	350104	-70.7154	0.0000000E+000	0.0000000E+000	0.0000000E+000	70.7154	0.0000000E+000	0.0000000E+000	0.0000000E+000	-70.7154	0.0000000E+000	0.0000000E+000	0.0000000E+000	-19.2846	0.0000000E+000	0.0000000E+000	0.0000000E+000	19.2846	2.85801	70.7154	-5.2307e-07	-1.65912e-06	7.06293e-10	-1.65983e-06	0.283095	48263.3	20.5458	48283.9
14.6852	21.7764	6.48765	22.7223	-16.5899	11.8831	0.282989	-0.00534643	1670.53	136.184	1	11	0.00475405	0.000209224	0	-5.30193e-05	-0.000158683	4.3844e-06	-24.9091	0.0209555	0.0190061	0.00882602	-16.5975	22.743	21.7954	6.49648	0.0421777	0.0125656	0.0440097	16.5899	136184	457114	476969	-73.4101	0.0000000E+000	0.0000000E+000	0.0000000E+000	73.4101	0.0000000E+000	0.0000000E+000	0.0000000E+000	-73.4101	0.0000000E+000	0.0000000E+000	0.0000000E+000	-16.5899	0.0000000E+000	0.0000000E+000	0.0000000E+000	16.5899	3.35659	73.4101	3.42422e-07	-1.51298e-06	8.48388e-10	-1.51383e-06	0.283148	52930.5	29.6802	52960.1
10.0032	23.3304	5.81541	24.0443	-13.9965	12.3339	0.282978	-0.00563967	2735.9	160.044	1	11	0.00474061	0.000197162	0	-5.48255e-05	-8.22432e-05	1.17438e-05	-112.811	0.0595643	-0.0230928	0.0549057	-14.1368	24.0352	23.3073	5.87032	0.0403551	0.0100591	0.0415899	13.9965	160044	642067	661712	-76.0035	0.0000000E+000	0.0000000E+000	0.0000000E+000	76.0035	0.0000000E+000	0.0000000E+000	0.0000000E+000	-76.0035	0.0000000E+000	0.0000000E+000	0.0000000E+000	-13.9965	0.0000000E+000	0.0000000E+000	0.0000000E+000	13.9965	4.01182	76.0035	-1.80624e-06	-1.5959e-06	4.63824e-10	-1.59637e-06	0.28306	50176.3	14.583	50190.9
6.81719	24.6997	5.12044	25.2249	-11.712	12.6735	0.282979	-0.00508005	4559.4	187.873	1	11	0.00473546	0.00018773	0	-5.36064e-05	-0.000292453	2.43702e-06	-74.8209	0.0129815	0.00339906	0.0125286	-11.7383	25.2308	24.7031	5.13297	0.038818	0.00804728	0.0396434	11.712	187873	906250	925519	-78.288	0.0000000E+000	0.0000000E+000	0.0000000E+000	78.288	0.0000000E+000	0.0000000E+000	0.0000000E+000	-78.288	0.0000000E+000	0.0000000E+000	0.0000000E+000	-11.712	0.0000000E+000	0.0000000E+000	0.0000000E+000	11.712	4.82375	78.288	1.2192e-06	-1.43755e-06	1.48568e-09	-1.43904e-06	0.283272	55704	57.5688	55761.6
4.63925	25.8162	4.51208	26.2075	-9.91386	13.1574	0.28299	-0.00482263	7603.18	225.37	1	11	0.00473918	0.000180833	0	-5.54042e-05	-0.000158683	7.1025e-06	-54.3591	0.0392766	0.0228866	0.0319195	-9.97392	26.2356	25.8391	4.544	0.0375872	0.00656938	0.038157	9.91386	225370	1.28947e+06	1.30902e+06	-80.0861	0.0000000E+000	0.0000000E+000	0.0000000E+000	80.0861	0.0000000E+000	0.0000000E+000	0.0000000E+000	-80.0861	0.0000000E+000	0.0000000E+000	0.0000000E+000	-9.91386	0.0000000E+000	0.0000000E+000	0.0000000E+000	9.91386	5.72157	80.0861	-1.79789e-06	-1.36476e-06	7.6527e-10	-1.36552e-06	0.283149	58679.6	32.9038	58712.5
3.1604	26.816	3.89792	27.0978	-8.27046	13.8505	0.282996	-0.00395746	12919.5	267.326	1	11	0.00475013	0.000175295	0	-5.84211e-05	-0.000139573	5.33594e-06	33.1585	0.0304397	0.0254829	-0.0166492	-8.22791	27.1207	26.8415	3.88127	0.0365195	0.0053084	0.0369033	8.27046	267326	1.83909e+06	1.85842e+06	-81.7295	0.0000000E+000	0.0000000E+000	0.0000000E+000	81.7295	0.0000000E+000	0.0000000E+000	0.0000000E+000	-81.7295	0.0000000E+000	0.0000000E+000	0.0000000E+000	-8.27046	0.0000000E+000	0.0000000E+000	0.0000000E+000	8.27046	6.87958	81.7295	-3.01686e-06	-1.11994e-06	5.52355e-10	-1.1205e-06	0.283135	71509.4	35.2683	71544.6
2.15577	27.6176	3.40579	27.8268	-7.03019	14.8541	0.282986	-0.00401883	21677.1	324.72	1	11	0.00475482	0.000170872	0	-5.94413e-05	-0.000177793	4.96313e-06	12.2347	0.0290459	0.0283862	-0.00615533	-7.01047	27.8542	27.646	3.39963	0.0356664	0.00439836	0.0359366	7.03019	324720	2.63316e+06	2.65311e+06	-82.9698	0.0000000E+000	0.0000000E+000	0.0000000E+000	82.9698	0.0000000E+000	0.0000000E+000	0.0000000E+000	-82.9698	0.0000000E+000	0.0000000E+000	0.0000000E+000	-7.03019	0.0000000E+000	0.0000000E+000	0.0000000E+000	7.03019	8.10902	82.9698	-1.02021e-06	-1.13727e-06	7.1452e-10	-1.13799e-06	0.283164	70414.9	44.2399	70459.1
1.46631	28.2473	2.9701	28.403	-6.00239	16.3155	0.282979	-0.0043939	36544.6	399.61	1	11	0.00475761	0.000167504	0	-5.78188e-05	-2.49133e-05	5.28943e-06	2.79346	0.031578	0.0315405	-0.00153898	-5.99266	28.4342	28.2788	2.96856	0.0350145	0.00368165	0.0352075	6.00239	399610	3.80051e+06	3.82147e+06	-83.9976	0.0000000E+000	0.0000000E+000	0.0000000E+000	83.9976	0.0000000E+000	0.0000000E+000	0.0000000E+000	-83.9976	0.0000000E+000	0.0000000E+000	0.0000000E+000	-6.00239	0.0000000E+000	0.0000000E+000	0.0000000E+000	6.00239	9.51055	83.9976	1.62252e-06	-1.24338e-06	1.09467e-10	-1.24349e-06	0.283004	64402.8	5.66998	64408.5
1.00006	28.7707	2.6489	28.8923	-5.26037	19.4898	0.282986	-0.00359623	60079.5	505.002	1	12	0.00474855	0.000164353	0	-5.56014e-05	-0.000196903	4.77604e-06	-25.6743	0.0290596	0.0261906	0.0125902	-5.28045	28.9196	28.7969	2.66149	0.0344655	0.00317322	0.0346112	5.26037	505002	5.485e+06	5.5082e+06	-84.7396	0.0000000E+000	0.0000000E+000	0.0000000E+000	84.7396	0.0000000E+000	0.0000000E+000	0.0000000E+000	-84.7396	0.0000000E+000	0.0000000E+000	0.0000000E+000	-5.26037	0.0000000E+000	0.0000000E+000	0.0000000E+000	5.26037	10.8613	84.7396	2.2174e-06	-1.01768e-06	7.08109e-10	-1.01839e-06	0.283183	78689.5	54.7525	78744.2
0.681362	29.2395	2.45555	29.3424	-4.80048	22.602	0.282984	-0.00289453	95124.7	666.193	1	12	0.00474855	0.000161832	0	-5.62471e-05	-0.000196903	2.93397e-06	-74.0394	0.0181296	0.00498522	0.0174308	-4.83357	29.3488	29.2444	2.47298	0.0339608	0.00285206	0.0340804	4.80048	666193	7.93269e+06	7.96062e+06	-85.1995	0.0000000E+000	0.0000000E+000	0.0000000E+000	85.1995	0.0000000E+000	0.0000000E+000	0.0000000E+000	-85.1995	0.0000000E+000	0.0000000E+000	0.0000000E+000	-4.80048	0.0000000E+000	0.0000000E+000	0.0000000E+000	4.80048	11.9075	85.1995	-6.45704e-07	-8.19107e-07	5.69942e-10	-8.19677e-07	0.283181	97765	68.0258	97833
0.464091	29.6261	2.43178	29.7258	-4.69245	27.1585	0.282979	-0.00213521	141024	943.79	1	12	0.00475004	0.000159795	0	-6.39853e-05	5.15265e-05	4.92463e-06	2.85045	0.0308184	0.0307803	-0.00153257	-4.68466	29.7563	29.6569	2.43025	0.0335281	0.00275206	0.0336408	4.69245	943789	1.14981e+07	1.15368e+07	-85.3076	0.0000000E+000	0.0000000E+000	0.0000000E+000	85.3076	0.0000000E+000	0.0000000E+000	0.0000000E+000	-85.3076	0.0000000E+000	0.0000000E+000	0.0000000E+000	-4.69245	0.0000000E+000	0.0000000E+000	0.0000000E+000	4.69245	12.1829	85.3076	-7.73819e-06	-6.04219e-07	-1.1002e-10	-6.04109e-07	0.282928	132530	24.1319	132506
0.316193	29.9756	2.52923	30.0821	-4.82299	33.8331	0.282975	-0.00175356	199012	1406.83	1	12	0.00474988	0.000157897	0	-8.1063e-05	-2.49133e-05	3.45159e-06	4.93346	0.0218597	0.0217787	-0.00187991	-4.81594	30.1036	29.9974	2.52735	0.0331247	0.00279494	0.0332424	4.82299	1.40683e+06	1.66732e+07	1.67325e+07	-85.177	0.0000000E+000	0.0000000E+000	0.0000000E+000	85.177	0.0000000E+000	0.0000000E+000	0.0000000E+000	-85.177	0.0000000E+000	0.0000000E+000	0.0000000E+000	-4.82299	0.0000000E+000	0.0000000E+000	0.0000000E+000	4.82299	11.8517	85.177	-1.70777e-05	-4.96213e-07	4.3687e-11	-4.96257e-07	0.283	161372	14.2073	161386
0.215268	30.3649	2.82243	30.4958	-5.31041	43.6263	0.28298	-0.00184122	261949	2243.8	1	12	0.0047513	0.000155802	0	-0.000105318	-0.000254233	4.02614e-06	-11.0031	0.0258415	0.0253664	0.00493216	-5.31522	30.5215	30.3903	2.82736	0.0326506	0.00303489	0.0327914	5.31041	2.2438e+06	2.41397e+07	2.42438e+07	-84.6896	0.0000000E+000	0.0000000E+000	0.0000000E+000	84.6896	0.0000000E+000	0.0000000E+000	0.0000000E+000	-84.6896	0.0000000E+000	0.0000000E+000	0.0000000E+000	-5.31041	0.0000000E+000	0.0000000E+000	0.0000000E+000	5.31041	10.7584	84.6896	-2.42551e-05	-5.21027e-07	4.68098e-10	-5.21496e-07	0.283234	153691	138.079	153830
0.146929	30.8797	3.34547	31.0604	-6.18325	57.9647	0.282978	-0.00242469	323784	3756.27	1	12	0.00475082	0.000152954	0	-0.000129533	-6.31332e-05	2.68463e-06	-8.47813	0.0175518	0.01736	0.0025877	-6.18454	31.0779	30.8971	3.34806	0.032008	0.00346772	0.0321953	6.18325	3.75627e+06	3.46715e+07	3.48744e+07	-83.8167	0.0000000E+000	0.0000000E+000	0.0000000E+000	83.8167	0.0000000E+000	0.0000000E+000	0.0000000E+000	-83.8167	0.0000000E+000	0.0000000E+000	0.0000000E+000	-6.18325	0.0000000E+000	0.0000000E+000	0.0000000E+000	6.18325	9.23029	83.8167	-2.42151e-05	-6.86133e-07	1.53078e-10	-6.86286e-07	0.283041	116707	26.0377	116733
0.0999041	31.4325	4.21132	31.7134	-7.63103	79.0408	0.282974	-0.00274582	378284	6670.67	1	12	0.00474971	0.00014977	0	-0.00013931	-0.000101353	2.84977e-06	-4.63671	0.0190276	0.0189654	0.00153815	-7.62923	31.7324	31.4515	4.21286	0.0312531	0.00418729	0.0315324	7.63103	6.67067e+06	4.97887e+07	5.02336e+07	-82.369	0.0000000E+000	0.0000000E+000	0.0000000E+000	82.369	0.0000000E+000	0.0000000E+000	0.0000000E+000	-82.369	0.0000000E+000	0.0000000E+000	0.0000000E+000	-7.63103	0.0000000E+000	0.0000000E+000	0.0000000E+000	7.63103	7.46382	82.369	-9.77657e-06	-7.76995e-07	2.78298e-10	-7.77274e-07	0.283075	103056	36.9118	103093
0.0680626	32.054	5.36001	32.499	-9.49307	109.967	0.282978	-0.00251707	436261	11866.9	1	12	0.00475327	0.000146259	0	-0.000122694	0.000185296	2.27498e-06	-8.46125	0.0155545	0.0153852	0.00228869	-9.49258	32.5146	32.0693	5.3623	0.0303488	0.00507487	0.0307702	9.49307	1.18669e+07	7.09664e+07	7.19517e+07	-80.5069	0.0000000E+000	0.0000000E+000	0.0000000E+000	80.5069	0.0000000E+000	0.0000000E+000	0.0000000E+000	-80.5069	0.0000000E+000	0.0000000E+000	0.0000000E+000	-9.49307	0.0000000E+000	0.0000000E+000	0.0000000E+000	9.49307	5.98021	80.5069	1.66162e-05	-7.12276e-07	-4.66404e-10	-7.11809e-07	0.282792	112423	73.6157	112350
0.0464052	32.8337	6.70675	33.5116	-11.5447	155.319	0.282973	-0.00147116	511377	20482.1	1	12	0.00474954	0.000141728	0	-5.72303e-05	0.000166186	3.31118e-06	6.43029	0.0233629	0.0232159	-0.00261651	-11.5324	33.5339	32.8569	6.70413	0.0292367	0.00597201	0.0298404	11.5447	2.04821e+07	1.00272e+08	1.02343e+08	-78.4553	0.0000000E+000	0.0000000E+000	0.0000000E+000	78.4553	0.0000000E+000	0.0000000E+000	0.0000000E+000	-78.4553	0.0000000E+000	0.0000000E+000	0.0000000E+000	-11.5447	0.0000000E+000	0.0000000E+000	0.0000000E+000	11.5447	4.89561	78.4553	6.54633e-05	-4.163e-07	-2.44487e-10	-4.16055e-07	0.282807	192346	112.962	192233
0.0315922	34.0677	8.5656	35.128	-14.1133	221.924	0.282979	-0.000310625	588142	34969.5	1	12	0.00475212	0.00013528	0	3.80892e-05	0.000166186	1.71057e-06	4.0911	0.0126447	0.0126124	-0.000902101	-14.1068	35.1401	34.0803	8.5647	0.027608	0.00694144	0.0284673	14.1133	3.49695e+07	1.39083e+08	1.43412e+08	-75.8867	0.0000000E+000	0.0000000E+000	0.0000000E+000	75.8867	0.0000000E+000	0.0000000E+000	0.0000000E+000	-75.8867	0.0000000E+000	0.0000000E+000	0.0000000E+000	-14.1133	0.0000000E+000	0.0000000E+000	0.0000000E+000	14.1133	3.97727	75.8867	9.53195e-05	-8.79003e-08	-5.16216e-11	-8.78487e-08	0.282813	911000	535.006	910465
0.0215268	35.5493	11.3253	37.3097	-17.6709	319.663	0.282976	0.000218644	652816	60151.6	1	12	0.00475305	0.000127394	0	9.42394e-05	0.000108856	3.13544e-06	-20.9497	0.0246121	0.0229851	0.00879999	-17.673	37.3343	35.5723	11.3341	0.025538	0.00813591	0.0268027	17.6709	6.01516e+07	1.88811e+08	1.98161e+08	-72.3291	0.0000000E+000	0.0000000E+000	0.0000000E+000	72.3291	0.0000000E+000	0.0000000E+000	0.0000000E+000	-72.3291	0.0000000E+000	0.0000000E+000	0.0000000E+000	-17.6709	0.0000000E+000	0.0000000E+000	0.0000000E+000	17.6709	3.13892	72.3291	5.61502e-05	6.18708e-08	2.38008e-11	6.1847e-08	0.282867	1.29423e+06	497.871	1.29373e+06
0.0146812	37.0603	15.0086	39.984	-22.0468	462.964	0.282977	0.000426978	722304	101772	1	12	0.00475085	0.000118819	0	1.1267e-05	-0.000120463	1.55106e-06	11.114	0.013054	0.0128092	-0.00251633	-22.0366	39.9949	37.0731	15.0061	0.0231812	0.00938787	0.02501	22.0468	1.01772e+08	2.51302e+08	2.71127e+08	-67.9531	0.0000000E+000	0.0000000E+000	0.0000000E+000	67.9531	0.0000000E+000	0.0000000E+000	0.0000000E+000	-67.9531	0.0000000E+000	0.0000000E+000	0.0000000E+000	-22.0468	0.0000000E+000	0.0000000E+000	0.0000000E+000	22.0468	2.46927	67.9531	-8.29725e-05	1.20825e-07	-5.14351e-11	1.20876e-07	0.283098	662744	282.13	663027
0.0100092	39.073	19.4829	43.661	-26.5022	673.146	0.28298	0.000129752	816147	162513	1	12	0.00474885	0.000108766	0	-0.000276397	-0.000330673	1.42545e-06	-23.7225	0.0131056	0.0119983	0.00527249	-26.5013	43.674	39.085	19.4882	0.020497	0.0102204	0.0229038	26.5022	1.62513e+08	3.25921e+08	3.64191e+08	-63.4978	0.0000000E+000	0.0000000E+000	0.0000000E+000	63.4978	0.0000000E+000	0.0000000E+000	0.0000000E+000	-63.4978	0.0000000E+000	0.0000000E+000	0.0000000E+000	-26.5022	0.0000000E+000	0.0000000E+000	0.0000000E+000	26.5022	2.0055	63.4978	-0.000287664	3.67172e-08	-4.29055e-11	3.67601e-08	0.28331	2.18092e+06	2548.49	2.18347e+06