File: txt/19161_R306_UA713_SOC00_C01.mpt
EC-Lab ASCII FILE
Nb header lines : 65

Potentio Electrochemical Impedance Spectroscopy

Run on channel : 1 (SN 66354)
User :
CE vs. WE compliance from -10 V to 10 V
Electrode connection : standard
Potential control : Ewe
Ewe ctrl range : min = -10.00 V, max = 10.00 V
Safety Limits :
	Do not start on E overload
Acquisition started on : 11/12/2025 15:31:56.562
Technique started on : 11/12/2025 15:31:58.474
Loaded Setting File :  C:\Users\Celltest\OneDrive - store-dot.com\Documents\EC-Lab\Data\@Biologic Test Protocols\anode half cell EIS SOC00.mps
Saved on :
	File : 19161_R306_UA713_SOC00_C01.mpr
	Directory : C:\Users\Celltest\OneDrive - store-dot.com\Documents\EC-Lab\Data\Charmaine\
	Host : 169.254.61.224
Device : VMP-3e (SN .003165)
Address : USB
EC-LAB for windows v11.62 (software)
Internet server v27.00 (firmware)
Command interpretor v12.03 (firmware)
Electrode material :
Initial state :
Electrolyte :
Comments :
Electrode surface area : 0.001 cm²
Characteristic mass : 0.001 g
Equivalent Weight : 0.000 g/eq.
Density : 0.000 g/cm3
Volume (V) : 0.001 cm³
Record Ece
Cycle Definition : Charge/Discharge alternance
Mode                Single sine
E (V)               0.0000
vs.                 Eoc
tE (h:m:s)          0:00:0.0000
record              0
dI                  0.000
unit dI             mA
dt (s)              0.000
fi                  100.000
unit fi             kHz
ff                  10.000
unit ff             mHz
Nd                  6
Points              per decade
spacing             Logarithmic
Va (mV)             5.0
pw                  0.10
Na                  2
corr                0
E range min (V)     -10.000
E range max (V)     10.000
I Range             Auto
Bandwidth           5
nc cycles           0
goto Ns'            0
nr cycles           0
inc. cycle          0

freq/Hz	Re(Z)/Ohm	-Im(Z)/Ohm	|Z|/Ohm	Phase(Z)/deg	time/s	<Ewe>/V	<I>/mA	Cs/µF	Cp/µF	cycle number	I Range	|Ewe|/V	|I|/A	Ns	(Q-Qo)/mA.h	<Ece>/V	|Ece|/V	Phase(Zce)/deg	|Zce|/Ohm	Re(Zce)/Ohm	-Im(Zce)/Ohm	Phase(Zwe-ce)/deg	|Zwe-ce|/Ohm	Re(Zwe-ce)/Ohm	-Im(Zwe-ce)/Ohm	Re(Y)/Ohm-1	Im(Y)/Ohm-1	|Y|/Ohm-1	Phase(Y)/deg	Re(C)/nF	Im(C)/nF	|C|/nF	Phase(C)/deg	Re(M)	Im(M)	|M|	Phase(M)/deg	Re(Permittivity)	Im(Permittivity)	|Permittivity|	Phase(Permittivity)/deg	Re(Resistivity)/Ohm.cm	Im(Resistivity)/Ohm.cm	|Resistivity|/Ohm.cm	Phase(Resistivity)/deg	Re(Conductivity)/mS/cm	Im(Conductivity)/mS/cm	|Conductivity|/mS/cm	Phase(Conductivity)/deg	Tan(Delta)	Loss Angle(Delta)/deg	dq/mA.h	Pwe/W	Pce/W	Pwe-ce/W	<Ewe-Ece>/V	Rwe/Ohm	Rce/Ohm	Rwe-ce/Ohm		Ewe-Ece/V
100004	2.21173	0.927244	2.39824	-22.7453	1.91156	0.289479	0.0536417	1.71637	0.256575	1	9	0.00457673	0.00190838	0	8.56013e-06	0.00012515	4.15281e-05	91.708	0.021761	-0.000648606	-0.0217513	-22.2703	2.38931	2.21108	0.905493	0.384546	0.161217	0.416973	22.7453	256.575	612.002	663.609	-67.2547	0.0000000E+000	0.0000000E+000	0.0000000E+000	67.2547	0.0000000E+000	0.0000000E+000	0.0000000E+000	-67.2547	0.0000000E+000	0.0000000E+000	0.0000000E+000	-22.7453	0.0000000E+000	0.0000000E+000	0.0000000E+000	22.7453	2.38527	67.2547	8.56013e-06	1.55281e-05	6.71323e-09	1.55214e-05	0.289354	5396.53	2.33307	5394.2
68132	2.48257	1.06317	2.70065	-23.1832	2.41856	0.28946	0.0522632	2.19719	0.340514	1	9	0.00506284	0.00187468	0	9.49112e-06	-0.000103778	2.52363e-05	91.4969	0.0134617	-0.000351668	-0.0134571	-22.9231	2.69505	2.48222	1.04971	0.340382	0.14577	0.370282	23.1832	340.514	795.125	864.97	-66.8168	0.0000000E+000	0.0000000E+000	0.0000000E+000	66.8168	0.0000000E+000	0.0000000E+000	0.0000000E+000	-66.8168	0.0000000E+000	0.0000000E+000	0.0000000E+000	-23.1832	0.0000000E+000	0.0000000E+000	0.0000000E+000	23.1832	2.33507	66.8168	9.30994e-07	1.51281e-05	-5.42378e-09	1.51335e-05	0.289564	5538.5	1.98568	5540.49
46420.4	2.8013	1.2123	3.05237	-23.4012	2.92554	0.289473	0.0555416	2.82814	0.446117	1	9	0.00514825	0.00168664	0	2.20869e-05	0.000335	2.27583e-05	15.6421	0.0134932	0.0129935	-0.00363814	-23.2422	3.06286	2.81429	1.20866	0.300667	0.130118	0.327615	23.4012	446.117	1030.86	1123.25	-66.5988	0.0000000E+000	0.0000000E+000	0.0000000E+000	66.5988	0.0000000E+000	0.0000000E+000	0.0000000E+000	-66.5988	0.0000000E+000	0.0000000E+000	0.0000000E+000	-23.4012	0.0000000E+000	0.0000000E+000	0.0000000E+000	23.4012	2.31073	66.5988	1.25958e-05	1.60778e-05	1.86064e-08	1.60592e-05	0.289138	5211.83	6.03151	5205.79
31621.1	3.10966	1.31757	3.37727	-22.9625	3.30854	0.289465	0.052524	3.82005	0.581413	1	9	0.00506338	0.00149925	0	2.86779e-05	6.79177e-05	1.35299e-05	-22.8703	0.0090244	0.00831496	0.0035073	-22.9622	3.38629	3.11797	1.32108	0.272635	0.115516	0.296097	22.9625	581.413	1372.22	1490.31	-67.0375	0.0000000E+000	0.0000000E+000	0.0000000E+000	67.0375	0.0000000E+000	0.0000000E+000	0.0000000E+000	-67.0375	0.0000000E+000	0.0000000E+000	0.0000000E+000	-22.9625	0.0000000E+000	0.0000000E+000	0.0000000E+000	22.9625	2.36015	67.0375	6.59103e-06	1.52039e-05	3.56731e-09	1.52003e-05	0.289397	5511.1	1.29308	5509.81
21544.7	3.45408	1.41428	3.7324	-22.2667	3.69152	0.289465	0.046228	5.22331	0.749958	1	9	0.00490466	0.00131408	0	3.57153e-05	0.000182382	1.29094e-05	16.4273	0.00982397	0.00942295	-0.0027782	-22.1726	3.74008	3.4635	1.4115	0.247945	0.101521	0.267924	22.2667	749.958	1831.62	1979.21	-67.7333	0.0000000E+000	0.0000000E+000	0.0000000E+000	67.7333	0.0000000E+000	0.0000000E+000	0.0000000E+000	-67.7333	0.0000000E+000	0.0000000E+000	0.0000000E+000	-22.2667	0.0000000E+000	0.0000000E+000	0.0000000E+000	22.2667	2.4423	67.7333	7.03736e-06	1.33814e-05	8.43114e-09	1.3373e-05	0.289283	6261.68	3.94526	6257.73
14678.6	3.8203	1.52058	4.1118	-21.7039	4.07451	0.289473	0.044179	7.1306	0.975174	1	9	0.00504339	0.00122657	0	4.19347e-05	2.97631e-05	8.59864e-06	-53.2877	0.00701034	0.00419076	0.00561982	-21.755	4.11777	3.82449	1.5262	0.225961	0.0899386	0.243203	21.7039	975.174	2450.02	2636.96	-68.2961	0.0000000E+000	0.0000000E+000	0.0000000E+000	68.2961	0.0000000E+000	0.0000000E+000	0.0000000E+000	-68.2961	0.0000000E+000	0.0000000E+000	0.0000000E+000	-21.7039	0.0000000E+000	0.0000000E+000	0.0000000E+000	21.7039	2.5124	68.2961	6.21939e-06	1.27886e-05	1.31491e-09	1.27873e-05	0.289443	6552.27	0.673693	6551.6
10002.2	4.19127	1.59116	4.48314	-20.7886	4.48955	0.289523	-0.00995509	10.0002	1.25972	1	10	0.0046517	0.0010376	0	4.30616e-05	0.000163304	8.557e-06	6.66693	0.00824692	0.00819115	-0.000957447	-20.7401	4.49046	4.19946	1.5902	0.208536	0.0791678	0.223058	20.7886	1259.72	3318.21	3549.29	-69.2114	0.0000000E+000	0.0000000E+000	0.0000000E+000	69.2114	0.0000000E+000	0.0000000E+000	0.0000000E+000	-69.2114	0.0000000E+000	0.0000000E+000	0.0000000E+000	-20.7886	0.0000000E+000	0.0000000E+000	0.0000000E+000	20.7886	2.6341	69.2114	1.12692e-06	-2.88222e-06	-1.62571e-09	-2.8806e-06	0.289359	29082.9	16.4041	29066.5
6810.42	4.56299	1.7223	4.87721	-20.679	4.74852	0.289526	-0.00938114	13.5687	1.69204	1	10	0.00478086	0.000980245	0	4.32259e-05	0.000411309	1.17441e-05	60.5294	0.0119808	0.00589427	-0.0104306	-20.54	4.87906	4.56888	1.71187	0.191826	0.0724045	0.205035	20.679	1692.04	4482.83	4791.54	-69.321	0.0000000E+000	0.0000000E+000	0.0000000E+000	69.321	0.0000000E+000	0.0000000E+000	0.0000000E+000	-69.321	0.0000000E+000	0.0000000E+000	0.0000000E+000	-20.679	0.0000000E+000	0.0000000E+000	0.0000000E+000	20.679	2.64936	69.321	1.64293e-07	-2.71609e-06	-3.85855e-09	-2.71223e-06	0.289115	30862.6	43.8443	30818.7
4646	4.95107	1.86324	5.29006	-20.6229	5.01363	0.289499	-0.0189855	18.3854	2.28081	1	10	0.00476292	0.000900354	0	4.22879e-05	0.000182382	1.11744e-05	-38.2049	0.0124111	0.00975272	0.00767599	-20.6634	5.30189	4.96082	1.87091	0.17692	0.0665806	0.189034	20.6229	2280.81	6060.64	6475.61	-69.3771	0.0000000E+000	0.0000000E+000	0.0000000E+000	69.3771	0.0000000E+000	0.0000000E+000	0.0000000E+000	-69.3771	0.0000000E+000	0.0000000E+000	0.0000000E+000	-20.6229	0.0000000E+000	0.0000000E+000	0.0000000E+000	20.6229	2.65724	69.3771	-9.37977e-07	-5.49628e-06	-3.4626e-09	-5.49281e-06	0.289317	15248.5	9.60638	15238.9
3163.08	5.38593	2.05337	5.76408	-20.8692	5.38668	0.28944	-0.0103874	24.5044	3.10969	1	10	0.00471969	0.000818811	0	4.18501e-05	0.000296845	1.63134e-05	-66.4624	0.0199233	0.00795641	0.0182657	-21.0103	5.77804	5.39389	2.07163	0.162107	0.0618026	0.173488	20.8692	3109.69	8156.64	8729.31	-69.1308	0.0000000E+000	0.0000000E+000	0.0000000E+000	69.1308	0.0000000E+000	0.0000000E+000	0.0000000E+000	-69.1308	0.0000000E+000	0.0000000E+000	0.0000000E+000	-20.8692	0.0000000E+000	0.0000000E+000	0.0000000E+000	20.8692	2.62298	69.1308	-4.37811e-07	-3.00653e-06	-3.08346e-09	-3.00345e-06	0.289143	27864.5	28.5774	27835.9
2155.69	5.84938	2.27236	6.27525	-21.2301	5.83784	0.289455	-0.000891184	32.4906	4.26037	1	10	0.00466768	0.000743824	0	4.11555e-05	0.000144227	1.72423e-05	70.908	0.0231807	0.00758208	-0.0219056	-21.0185	6.27443	5.85696	2.25045	0.148541	0.057705	0.159356	21.2301	4260.37	10966.8	11765.3	-68.7699	0.0000000E+000	0.0000000E+000	0.0000000E+000	68.7699	0.0000000E+000	0.0000000E+000	0.0000000E+000	-68.7699	0.0000000E+000	0.0000000E+000	0.0000000E+000	-21.2301	0.0000000E+000	0.0000000E+000	0.0000000E+000	21.2301	2.57415	68.7699	-6.94662e-07	-2.57957e-07	-1.28533e-10	-2.57829e-07	0.289311	324798	161.838	324636
1468.59	6.37829	2.55858	6.87233	-21.8577	6.28912	0.289457	-0.00127506	42.3565	5.87099	1	10	0.00464276	0.000675573	0	4.16447e-05	6.79177e-05	2.63856e-06	4.92993	0.00390566	0.00389121	-0.000335642	-21.843	6.87582	6.38218	2.55825	0.13505	0.0541741	0.145511	21.8577	5870.99	14635.8	15769.4	-68.1423	0.0000000E+000	0.0000000E+000	0.0000000E+000	68.1423	0.0000000E+000	0.0000000E+000	0.0000000E+000	-68.1423	0.0000000E+000	0.0000000E+000	0.0000000E+000	-21.8577	0.0000000E+000	0.0000000E+000	0.0000000E+000	21.8577	2.4929	68.1423	4.89204e-07	-3.69075e-07	-8.65992e-11	-3.68989e-07	0.289389	227014	53.2663	226961
1000.32	6.95257	2.8669	7.52046	-22.4088	6.73978	0.28946	-0.00139805	55.4969	8.06499	1	10	0.00461472	0.000613621	0	4.13626e-05	0.000106072	5.96497e-06	-14.3926	0.00972094	0.00941585	0.00241629	-22.3985	7.53009	6.96199	2.86931	0.12293	0.0506901	0.132971	22.4088	8064.99	19558.6	21156.1	-67.5912	0.0000000E+000	0.0000000E+000	0.0000000E+000	67.5912	0.0000000E+000	0.0000000E+000	0.0000000E+000	-67.5912	0.0000000E+000	0.0000000E+000	0.0000000E+000	-22.4088	0.0000000E+000	0.0000000E+000	0.0000000E+000	22.4088	2.42512	67.5912	-2.82091e-07	-4.04679e-07	-1.48294e-10	-4.0453e-07	0.289354	207046	75.8718	206970
681.09	7.59676	3.2444	8.26056	-23.1262	7.19058	0.289469	-0.00082783	72.0247	11.1104	1	10	0.00459581	0.000556356	0	4.1674e-05	1.06858e-05	7.92599e-06	54.106	0.0142463	0.0083524	-0.0115409	-23.0299	8.26372	7.60511	3.23286	0.111329	0.0475461	0.121057	23.1262	11110.4	26015.1	28288.3	-66.8738	0.0000000E+000	0.0000000E+000	0.0000000E+000	66.8738	0.0000000E+000	0.0000000E+000	0.0000000E+000	-66.8738	0.0000000E+000	0.0000000E+000	0.0000000E+000	-23.1262	0.0000000E+000	0.0000000E+000	0.0000000E+000	23.1262	2.3415	66.8738	3.11446e-07	-2.39631e-07	-8.84603e-12	-2.39622e-07	0.289458	349672	12.9082	349659
463.961	8.32944	3.70017	9.11432	-23.9521	7.64233	0.289466	-0.00073093	92.708	15.2796	1	10	0.00459045	0.000503652	0	4.12323e-05	0.000220536	8.96784e-06	47.047	0.0178056	0.0121327	-0.0130322	-23.8464	9.12013	8.34157	3.68714	0.100269	0.0445424	0.109717	23.9521	15279.6	34395.9	37637	-66.0479	0.0000000E+000	0.0000000E+000	0.0000000E+000	66.0479	0.0000000E+000	0.0000000E+000	0.0000000E+000	-66.0479	0.0000000E+000	0.0000000E+000	0.0000000E+000	-23.9521	0.0000000E+000	0.0000000E+000	0.0000000E+000	23.9521	2.2511	66.0479	-4.41729e-07	-2.11579e-07	-1.61196e-10	-2.11418e-07	0.289245	396024	301.72	395722
316.316	9.16142	4.259	10.103	-24.9329	8.09006	0.289463	-0.0013347	118.139	20.9945	1	10	0.00457668	0.000453002	0	4.14333e-05	0.000220536	8.16e-06	-33.4386	0.0180132	0.0150316	0.00992603	-24.948	10.1208	9.17646	4.26892	0.0897556	0.0417259	0.0989804	24.9329	20994.5	45160.7	49802.2	-65.067	0.0000000E+000	0.0000000E+000	0.0000000E+000	65.067	0.0000000E+000	0.0000000E+000	0.0000000E+000	-65.067	0.0000000E+000	0.0000000E+000	0.0000000E+000	-24.9329	0.0000000E+000	0.0000000E+000	0.0000000E+000	24.9329	2.15108	65.067	2.01007e-07	-3.86345e-07	-2.94349e-10	-3.86051e-07	0.289242	216876	165.233	216710
215.345	10.1644	4.92778	11.2959	-25.8646	8.53951	0.289461	-0.000950823	149.981	28.5428	1	10	0.00457102	0.000404662	0	4.16233e-05	-6.56234e-05	7.07015e-06	-2.40672	0.0174717	0.0174563	0.000733688	-25.8293	11.3119	10.1818	4.92851	0.0796598	0.0386198	0.0885278	25.8646	28542.8	58874.2	65428.3	-64.1355	0.0000000E+000	0.0000000E+000	0.0000000E+000	64.1355	0.0000000E+000	0.0000000E+000	0.0000000E+000	-64.1355	0.0000000E+000	0.0000000E+000	0.0000000E+000	-25.8646	0.0000000E+000	0.0000000E+000	0.0000000E+000	25.8646	2.06267	64.1355	1.90001e-07	-2.75226e-07	6.23963e-11	-2.75289e-07	0.289527	304432	69.0175	304501
146.737	11.4257	5.72272	12.7787	-26.6047	8.98547	0.28946	-0.00198319	189.53	38.0108	1	10	0.00456272	0.000357057	0	4.17824e-05	-6.56234e-05	4.75986e-06	-8.81511	0.0133308	0.0131734	0.0020429	-26.5864	12.7914	11.4388	5.72476	0.0699693	0.0350452	0.0782551	26.6047	38010.8	75890.4	84877.4	-63.3953	0.0000000E+000	0.0000000E+000	0.0000000E+000	63.3953	0.0000000E+000	0.0000000E+000	0.0000000E+000	-63.3953	0.0000000E+000	0.0000000E+000	0.0000000E+000	-26.6047	0.0000000E+000	0.0000000E+000	0.0000000E+000	26.6047	1.99655	63.3953	1.5912e-07	-5.74054e-07	1.30144e-10	-5.74184e-07	0.289526	145957	33.0899	145990
100.032	13.0202	6.52138	14.5621	-26.6048	9.43684	0.289464	-0.000850199	243.973	48.9299	1	10	0.00458017	0.000314527	0	4.12993e-05	-0.000199165	2.93028e-05	37.4355	0.0931645	0.0739762	-0.0566317	-26.2761	14.6031	13.0942	6.46475	0.0614004	0.0307534	0.0686716	26.6048	48929.9	97690.5	109259	-63.3952	0.0000000E+000	0.0000000E+000	0.0000000E+000	63.3952	0.0000000E+000	0.0000000E+000	0.0000000E+000	-63.3952	0.0000000E+000	0.0000000E+000	0.0000000E+000	-26.6048	0.0000000E+000	0.0000000E+000	0.0000000E+000	26.6048	1.99654	63.3952	-4.83157e-07	-2.46102e-07	1.6933e-10	-2.46271e-07	0.289663	340466	234.256	340700
68.104	14.8207	7.28294	16.5135	-26.1696	9.89943	0.289478	0.00184438	320.879	62.4134	1	10	0.00456195	0.000276256	0	4.13417e-05	1.06858e-05	2.40938e-06	-88.6003	0.00872154	0.000213036	0.00871894	-26.1965	16.5175	14.8209	7.29166	0.0543491	0.0267073	0.0605566	26.1696	62413.4	127011	141517	-63.8304	0.0000000E+000	0.0000000E+000	0.0000000E+000	63.8304	0.0000000E+000	0.0000000E+000	0.0000000E+000	-63.8304	0.0000000E+000	0.0000000E+000	0.0000000E+000	-26.1696	0.0000000E+000	0.0000000E+000	0.0000000E+000	26.1696	2.03499	63.8304	4.24098e-08	5.33907e-07	1.97087e-11	5.33887e-07	0.289467	156952	5.79372	156946
46.4415	17.1055	7.86615	18.8275	-24.6958	10.5746	0.289512	-0.00383232	435.663	76.0482	1	11	0.00457021	0.000242741	0	4.01298e-05	8.6995e-05	1.36726e-05	15.3662	0.0563257	0.0543122	-0.0149256	-24.5857	18.8707	17.1599	7.85123	0.0482559	0.0221909	0.0531137	24.6958	76048.2	165373	182020	-65.3042	0.0000000E+000	0.0000000E+000	0.0000000E+000	65.3042	0.0000000E+000	0.0000000E+000	0.0000000E+000	-65.3042	0.0000000E+000	0.0000000E+000	0.0000000E+000	-24.6958	0.0000000E+000	0.0000000E+000	0.0000000E+000	24.6958	2.17458	65.3042	-1.2119e-06	-1.1095e-06	-3.33393e-10	-1.10917e-06	0.289425	75544.9	22.7004	75522.2
31.6296	19.4977	8.02788	21.0857	-22.3787	11.0055	0.289501	-0.00394069	626.796	90.8559	1	11	0.00456832	0.000216655	0	4.01614e-05	0.000373155	8.31674e-06	-18.3392	0.038387	0.0364373	0.0120782	-22.3714	21.124	19.5341	8.03996	0.0438538	0.0180562	0.0474256	22.3787	90855.9	220666	238638	-67.6213	0.0000000E+000	0.0000000E+000	0.0000000E+000	67.6213	0.0000000E+000	0.0000000E+000	0.0000000E+000	-67.6213	0.0000000E+000	0.0000000E+000	0.0000000E+000	-22.3787	0.0000000E+000	0.0000000E+000	0.0000000E+000	22.3787	2.42874	67.6213	3.16061e-08	-1.14083e-06	-1.47049e-09	-1.13936e-06	0.289128	73464.7	94.6928	73370
21.5517	21.8603	7.8546	23.2286	-19.7638	11.4265	0.28948	-0.00379508	940.187	107.502	1	11	0.00457229	0.000196839	0	3.9817e-05	0.000163304	1.14094e-05	15.1687	0.0579633	0.0559438	-0.0151668	-19.6821	23.2762	21.9163	7.83943	0.0405144	0.0145572	0.0430503	19.7638	107502	299191	317918	-70.2362	0.0000000E+000	0.0000000E+000	0.0000000E+000	70.2362	0.0000000E+000	0.0000000E+000	0.0000000E+000	-70.2362	0.0000000E+000	0.0000000E+000	0.0000000E+000	-19.7638	0.0000000E+000	0.0000000E+000	0.0000000E+000	19.7638	2.78313	70.2362	-3.44373e-07	-1.0986e-06	-6.19753e-10	-1.09798e-06	0.289317	76277.8	43.0305	76234.8
14.6852	23.9706	7.38022	25.0811	-17.1129	11.8872	0.289507	-0.00322718	1468.49	127.151	1	11	0.00455629	0.000181662	0	3.98553e-05	0.000411309	7.97183e-06	-50.9426	0.0438826	0.0276504	0.0340755	-17.1686	25.1175	23.9983	7.4143	0.0381055	0.0117322	0.0398707	17.1129	127151	412981	432112	-72.8871	0.0000000E+000	0.0000000E+000	0.0000000E+000	72.8871	0.0000000E+000	0.0000000E+000	0.0000000E+000	-72.8871	0.0000000E+000	0.0000000E+000	0.0000000E+000	-17.1129	0.0000000E+000	0.0000000E+000	0.0000000E+000	17.1129	3.24796	72.8871	3.82577e-08	-9.34292e-07	-1.32737e-09	-9.32965e-07	0.289096	89708.9	127.451	89581.4
10.0032	25.8478	6.73239	26.7102	-14.5991	12.3378	0.289509	-0.00327783	2363.26	150.14	1	11	0.00455556	0.000170555	0	3.80472e-05	-0.000141933	5.60149e-06	3.85836	0.0328427	0.0327682	-0.00220999	-14.5768	26.7413	25.8806	6.73018	0.0362302	0.00943661	0.0374389	14.5991	150140	576436	595668	-75.4009	0.0000000E+000	0.0000000E+000	0.0000000E+000	75.4009	0.0000000E+000	0.0000000E+000	0.0000000E+000	-75.4009	0.0000000E+000	0.0000000E+000	0.0000000E+000	-14.5991	0.0000000E+000	0.0000000E+000	0.0000000E+000	14.5991	3.83932	75.4009	-1.80808e-06	-9.48963e-07	4.65231e-10	-9.49428e-07	0.289651	88323.5	43.3008	88366.8
6.81719	27.5278	6.05767	28.1865	-12.4105	12.6775	0.289532	-0.00221428	3853.97	178.008	1	11	0.00455785	0.000161704	0	3.91498e-05	0.000106072	7.87271e-06	-45.3962	0.048686	0.0341873	0.0346635	-12.4643	28.2273	27.562	6.09234	0.034649	0.00762473	0.035478	12.4105	178008	808920	828274	-77.5895	0.0000000E+000	0.0000000E+000	0.0000000E+000	77.5895	0.0000000E+000	0.0000000E+000	0.0000000E+000	-77.5895	0.0000000E+000	0.0000000E+000	0.0000000E+000	-12.4105	0.0000000E+000	0.0000000E+000	0.0000000E+000	12.4105	4.54429	77.5895	1.10266e-06	-6.41106e-07	-2.34874e-10	-6.40871e-07	0.289426	130757	47.9037	130709
4.63925	28.9393	5.28515	29.4179	-10.3498	13.1624	0.289507	-0.00264961	6491.04	209.51	1	11	0.00456307	0.000155112	0	3.92598e-05	0.000182382	9.87696e-06	-105.098	0.0636764	-0.0165861	0.0614783	-10.4734	29.4127	28.9227	5.34663	0.0334398	0.00610707	0.0339929	10.3498	209510	1.14719e+06	1.16616e+06	-79.6502	0.0000000E+000	0.0000000E+000	0.0000000E+000	79.6502	0.0000000E+000	0.0000000E+000	0.0000000E+000	-79.6502	0.0000000E+000	0.0000000E+000	0.0000000E+000	-10.3498	0.0000000E+000	0.0000000E+000	0.0000000E+000	10.3498	5.47558	79.6502	1.0992e-07	-7.67079e-07	-4.8324e-10	-7.66595e-07	0.289324	109264	68.8334	109195
3.1604	30.0489	4.67123	30.4098	-8.83614	13.8554	0.289523	-0.00142965	10780.7	254.379	1	11	0.00455978	0.000149944	0	3.70468e-05	0.000144227	6.62378e-06	-26.8667	0.0441749	0.0394067	0.0199634	-8.86187	30.4518	30.0883	4.69119	0.0324938	0.0050513	0.0328841	8.83614	254379	1.63636e+06	1.65602e+06	-81.1639	0.0000000E+000	0.0000000E+000	0.0000000E+000	81.1639	0.0000000E+000	0.0000000E+000	0.0000000E+000	-81.1639	0.0000000E+000	0.0000000E+000	0.0000000E+000	-8.83614	0.0000000E+000	0.0000000E+000	0.0000000E+000	8.83614	6.43277	81.1639	-2.21296e-06	-4.13917e-07	-2.06195e-10	-4.13711e-07	0.289379	202513	100.882	202412
2.15577	31.0421	4.02789	31.3024	-7.39314	14.859	0.289527	-0.00115315	18329.1	303.488	1	11	0.00456237	0.000145752	0	3.48109e-05	-0.000103778	1.64734e-06	-90.3255	0.0113024	-6.42173e-05	0.0113022	-7.41367	31.3038	31.0421	4.03919	0.0316809	0.00411077	0.0319465	7.39314	303488	2.33892e+06	2.35853e+06	-82.6069	0.0000000E+000	0.0000000E+000	0.0000000E+000	82.6069	0.0000000E+000	0.0000000E+000	0.0000000E+000	-82.6069	0.0000000E+000	0.0000000E+000	0.0000000E+000	-7.39314	0.0000000E+000	0.0000000E+000	0.0000000E+000	7.39314	7.7068	82.6069	-2.2359e-06	-3.33868e-07	1.19672e-10	-3.33988e-07	0.28963	251074	89.9951	251164
1.46631	31.8929	3.55112	32.09	-6.35345	16.3205	0.289519	-0.00141271	30565.3	374.302	1	11	0.00456539	0.000142268	0	3.48048e-05	0.000563928	3.4776e-06	28.778	0.0244439	0.0214249	-0.0117677	-6.32835	32.11	31.9143	3.53935	0.030971	0.00344848	0.0311624	6.35345	374301	3.36163e+06	3.3824e+06	-83.6466	0.0000000E+000	0.0000000E+000	0.0000000E+000	83.6466	0.0000000E+000	0.0000000E+000	0.0000000E+000	-83.6466	0.0000000E+000	0.0000000E+000	0.0000000E+000	-6.35345	0.0000000E+000	0.0000000E+000	0.0000000E+000	6.35345	8.98107	83.6466	-6.06622e-09	-4.09005e-07	-7.96664e-10	-4.08208e-07	0.288955	204939	399.183	204540
1.00006	32.528	3.14553	32.6798	-5.52344	19.495	0.289516	-0.00211392	50594	468.735	1	12	0.00456324	0.000139635	0	3.7555e-05	6.79177e-05	2.8878e-06	-45.9763	0.020681	0.0143724	0.0148708	-5.54696	32.6955	32.5424	3.1604	0.0304579	0.00294534	0.0306	5.52344	468736	4.84722e+06	4.86983e+06	-84.4766	0.0000000E+000	0.0000000E+000	0.0000000E+000	84.4766	0.0000000E+000	0.0000000E+000	0.0000000E+000	-84.4766	0.0000000E+000	0.0000000E+000	0.0000000E+000	-5.52344	0.0000000E+000	0.0000000E+000	0.0000000E+000	5.52344	10.341	84.4766	2.75013e-06	-6.12015e-07	-1.43573e-10	-6.11871e-07	0.289448	136957	32.1287	136925
0.681362	33.0908	2.85107	33.2134	-4.92438	22.6072	0.28951	-0.00214662	81928.5	603.703	1	12	0.00455907	0.000137266	0	4.13337e-05	0.000201459	1.86016e-06	94.7657	0.0135515	-0.00112587	-0.0135046	-4.90134	33.2111	33.0896	2.83756	0.0299972	0.00258453	0.0301084	4.92438	603704	7.00686e+06	7.03282e+06	-85.0756	0.0000000E+000	0.0000000E+000	0.0000000E+000	85.0756	0.0000000E+000	0.0000000E+000	0.0000000E+000	-85.0756	0.0000000E+000	0.0000000E+000	0.0000000E+000	-4.92438	0.0000000E+000	0.0000000E+000	0.0000000E+000	4.92438	11.6065	85.0756	3.77871e-06	-6.21467e-07	-4.32456e-10	-6.21035e-07	0.289308	134868	93.8494	134774
0.464091	33.6307	2.73779	33.742	-4.65403	27.1639	0.289519	-0.00122496	125262	824.661	1	12	0.00456477	0.000135284	0	4.24417e-05	0.000201459	4.57334e-06	36.5874	0.0338054	0.027144	-0.0201496	-4.61622	33.7674	33.6579	2.71764	0.0295389	0.00240468	0.0296367	4.65403	824661	1.01301e+07	1.01636e+07	-85.346	0.0000000E+000	0.0000000E+000	0.0000000E+000	85.346	0.0000000E+000	0.0000000E+000	0.0000000E+000	-85.346	0.0000000E+000	0.0000000E+000	0.0000000E+000	-4.65403	0.0000000E+000	0.0000000E+000	0.0000000E+000	4.65403	12.2839	85.346	1.10804e-06	-3.54649e-07	-2.46779e-10	-3.54403e-07	0.289318	236350	164.462	236185
0.316193	34.1064	2.81545	34.2224	-4.71902	33.84	0.289524	-0.000512876	178780	1210.03	1	12	0.00456214	0.000133309	0	3.65406e-05	-8.3915e-06	3.26546e-06	59.5955	0.0244955	0.0123972	-0.0211267	-4.68207	34.233	34.1188	2.79432	0.0291216	0.00240396	0.0292206	4.71902	1.21003e+06	1.46583e+07	1.47081e+07	-85.281	0.0000000E+000	0.0000000E+000	0.0000000E+000	85.281	0.0000000E+000	0.0000000E+000	0.0000000E+000	-85.281	0.0000000E+000	0.0000000E+000	0.0000000E+000	-4.71902	0.0000000E+000	0.0000000E+000	0.0000000E+000	4.71902	12.114	85.281	-5.90115e-06	-1.4849e-07	4.3038e-12	-1.48494e-07	0.289532	564511	16.3617	564527
0.215268	34.5721	3.07986	34.709	-5.09077	43.6335	0.28952	-0.000357316	240055	1890.12	1	12	0.00456436	0.000131504	0	2.01112e-05	0.000144227	2.62769e-06	-26.5418	0.0199819	0.0178759	0.00892892	-5.10283	34.7276	34.5899	3.08879	0.0286974	0.00255651	0.028811	5.09077	1.89012e+06	2.12169e+07	2.1301e+07	-84.9092	0.0000000E+000	0.0000000E+000	0.0000000E+000	84.9092	0.0000000E+000	0.0000000E+000	0.0000000E+000	-84.9092	0.0000000E+000	0.0000000E+000	0.0000000E+000	-5.09077	0.0000000E+000	0.0000000E+000	0.0000000E+000	5.09077	11.2252	84.9092	-1.64294e-05	-1.0345e-07	-5.15346e-11	-1.03398e-07	0.289375	810262	403.64	809858
0.146929	35.1271	3.50782	35.3018	-5.7027	57.9719	0.28951	-0.000782753	308799	3049	1	12	0.00456224	0.000129235	0	-7.40991e-06	8.6995e-05	2.87255e-06	19.9823	0.0222273	0.0208892	-0.00759574	-5.68708	35.3218	35.148	3.50023	0.028187	0.00281478	0.0283272	5.7027	3.049e+06	3.05324e+07	3.06843e+07	-84.2973	0.0000000E+000	0.0000000E+000	0.0000000E+000	84.2973	0.0000000E+000	0.0000000E+000	0.0000000E+000	-84.2973	0.0000000E+000	0.0000000E+000	0.0000000E+000	-5.7027	0.0000000E+000	0.0000000E+000	0.0000000E+000	5.7027	10.0139	84.2973	-2.75211e-05	-2.26615e-07	-6.80956e-11	-2.26547e-07	0.289423	369862	111.14	369751
0.0999041	35.8635	4.26594	36.1163	-6.78343	79.0491	0.289513	-0.00128715	373441	5210.1	1	12	0.00456727	0.00012646	0	-3.72222e-05	0.000277768	2.12437e-06	-28.9647	0.0167987	0.0146975	0.00813514	-6.79349	36.1318	35.8782	4.27408	0.0274945	0.00327046	0.0276883	6.78343	5.2101e+06	4.38009e+07	4.41097e+07	-83.2166	0.0000000E+000	0.0000000E+000	0.0000000E+000	83.2166	0.0000000E+000	0.0000000E+000	0.0000000E+000	-83.2166	0.0000000E+000	0.0000000E+000	0.0000000E+000	-6.78343	0.0000000E+000	0.0000000E+000	0.0000000E+000	6.78343	8.40693	83.2166	-2.98123e-05	-3.72645e-07	-3.57528e-10	-3.72288e-07	0.289235	224926	215.802	224710
0.0680626	36.737	5.41547	37.134	-8.38568	109.976	0.289519	-0.00157012	431793	9183.39	1	12	0.00456811	0.000123017	0	-5.66218e-05	0.000144227	3.05192e-06	-0.352286	0.024809	0.0248085	0.000152538	-8.38033	37.1586	36.7618	5.41562	0.0266416	0.00392728	0.0269295	8.38568	9.18339e+06	6.22976e+07	6.29708e+07	-81.6143	0.0000000E+000	0.0000000E+000	0.0000000E+000	81.6143	0.0000000E+000	0.0000000E+000	0.0000000E+000	-81.6143	0.0000000E+000	0.0000000E+000	0.0000000E+000	-8.38568	0.0000000E+000	0.0000000E+000	0.0000000E+000	8.38568	6.78372	81.6143	-1.93995e-05	-4.5458e-07	-2.26454e-10	-4.54354e-07	0.289375	184393	91.8572	184301
0.0464052	37.675	6.97985	38.3161	-10.4959	155.328	0.289516	-0.00164785	491369	16305.6	1	12	0.00456768	0.00011921	0	-3.80344e-05	-0.000180087	2.21894e-06	15.0027	0.0186136	0.0179792	-0.00481842	-10.4839	38.3329	37.693	6.97503	0.025662	0.00475426	0.0260987	10.4959	1.63056e+07	8.80124e+07	8.95101e+07	-79.5041	0.0000000E+000	0.0000000E+000	0.0000000E+000	79.5041	0.0000000E+000	0.0000000E+000	0.0000000E+000	-79.5041	0.0000000E+000	0.0000000E+000	0.0000000E+000	-10.4959	0.0000000E+000	0.0000000E+000	0.0000000E+000	10.4959	5.39769	79.5041	1.85874e-05	-4.77078e-07	2.96757e-10	-4.77375e-07	0.289696	175693	109.286	175802
0.0315922	38.7952	8.86029	39.7941	-12.8649	221.932	0.28952	-0.000985256	568581	28187.1	1	12	0.00456577	0.000114735	0	4.09287e-05	8.6995e-05	2.46952e-06	11.444	0.0215237	0.0210958	-0.00427054	-12.8522	39.8137	38.8162	8.85602	0.0244986	0.00559514	0.0251294	12.8649	2.81871e+07	1.23419e+08	1.26597e+08	-77.1351	0.0000000E+000	0.0000000E+000	0.0000000E+000	77.1351	0.0000000E+000	0.0000000E+000	0.0000000E+000	-77.1351	0.0000000E+000	0.0000000E+000	0.0000000E+000	-12.8649	0.0000000E+000	0.0000000E+000	0.0000000E+000	12.8649	4.37854	77.1351	7.8963e-05	-2.85251e-07	-8.57124e-11	-2.85165e-07	0.289433	293852	88.2969	293764
0.0215268	40.4338	11.3816	42.0051	-15.7213	319.671	0.289518	-0.000308685	649587	47691.4	1	12	0.00456483	0.000108673	0	0.00016457	0.000487619	2.1372e-06	-16.2877	0.0196663	0.018877	0.00551562	-15.7215	42.0248	40.4527	11.3871	0.022916	0.00645059	0.0238066	15.7213	4.76914e+07	1.69426e+08	1.7601e+08	-74.2787	0.0000000E+000	0.0000000E+000	0.0000000E+000	74.2787	0.0000000E+000	0.0000000E+000	0.0000000E+000	-74.2787	0.0000000E+000	0.0000000E+000	0.0000000E+000	-15.7213	0.0000000E+000	0.0000000E+000	0.0000000E+000	15.7213	3.55255	74.2787	0.000123642	-8.93697e-08	-1.5052e-10	-8.92192e-08	0.28903	937909	1579.67	936329
0.0146812	42.4282	15.1107	45.0387	-19.6032	462.972	0.28952	0.000216666	717424	80755.1	1	12	0.00456565	0.000101372	0	0.000263479	0.000163304	2.40038e-06	7.18952	0.023679	0.0234928	-0.00296346	-19.5896	45.0599	42.4517	15.1077	0.0209162	0.00744922	0.0222031	19.6032	8.07551e+07	2.26747e+08	2.40698e+08	-70.3968	0.0000000E+000	0.0000000E+000	0.0000000E+000	70.3968	0.0000000E+000	0.0000000E+000	0.0000000E+000	-70.3968	0.0000000E+000	0.0000000E+000	0.0000000E+000	-19.6032	0.0000000E+000	0.0000000E+000	0.0000000E+000	19.6032	2.80784	70.3968	9.89088e-05	6.27291e-08	3.53825e-11	6.26937e-08	0.289356	1.33625e+06	753.714	1.33549e+06
0.0100092	44.5647	20.2559	48.9521	-24.4431	673.154	0.289519	0.000320991	785001	134410	1	12	0.00456518	9.3258e-05	0	0.00020931	0.000239613	2.51802e-06	-3.34111	0.0270006	0.0269547	0.0015736	-24.4318	48.9773	44.5916	20.2575	0.0185972	0.00845295	0.0204281	24.4431	1.3441e+08	2.95712e+08	3.24826e+08	-65.5569	0.0000000E+000	0.0000000E+000	0.0000000E+000	65.5569	0.0000000E+000	0.0000000E+000	0.0000000E+000	-65.5569	0.0000000E+000	0.0000000E+000	0.0000000E+000	-24.4431	0.0000000E+000	0.0000000E+000	0.0000000E+000	24.4431	2.20008	65.5569	-5.41696e-05	9.2933e-08	7.69137e-11	9.28561e-08	0.28928	901956	746.482	901210