File: txt/19160_R306_UA713_SOC00_C08.mpt
EC-Lab ASCII FILE
Nb header lines : 65

Potentio Electrochemical Impedance Spectroscopy

Run on channel : 8 (SN 65398)
Grouped channel(s) : 5, 6, 7, 8
User :
CE vs. WE compliance from -10 V to 10 V
Electrode connection : standard
Potential control : Ewe
Ewe ctrl range : min = -10.00 V, max = 10.00 V
Safety Limits :
	Do not start on E overload
Acquisition started on : 11/12/2025 13:01:01.674
Loaded Setting File :  C:\Users\Celltest\OneDrive - store-dot.com\Documents\EC-Lab\Data\@Biologic Test Protocols\anode half cell EIS SOC00.mps
Saved on :
	File : 19157_R306_UA713_SOC00_C08.mpr
	Directory : C:\Users\Celltest\OneDrive - store-dot.com\Documents\EC-Lab\Data\Charmaine\
	Host : 169.254.61.224
Device : VMP-3e (SN .003165)
Address : USB
EC-LAB for windows v11.62 (software)
Internet server v27.00 (firmware)
Command interpretor v12.03 (firmware)
Electrode material :
Initial state :
Electrolyte :
Comments :
Electrode surface area : 0.001 cm²
Characteristic mass : 0.001 g
Equivalent Weight : 0.000 g/eq.
Density : 0.000 g/cm3
Volume (V) : 0.001 cm³
Record Ece
Cycle Definition : Charge/Discharge alternance
Mode                Single sine
E (V)               0.0000
vs.                 Eoc
tE (h:m:s)          0:00:0.0000
record              0
dI                  0.000
unit dI             mA
dt (s)              0.000
fi                  100.000
unit fi             kHz
ff                  10.000
unit ff             mHz
Nd                  6
Points              per decade
spacing             Logarithmic
Va (mV)             5.0
pw                  0.10
Na                  2
corr                0
E range min (V)     -10.000
E range max (V)     10.000
I Range             Auto
Bandwidth           5
nc cycles           0
goto Ns'            0
nr cycles           0
inc. cycle          0

freq/Hz	Re(Z)/Ohm	-Im(Z)/Ohm	|Z|/Ohm	Phase(Z)/deg	time/s	<Ewe>/V	<I>/mA	Cs/µF	Cp/µF	cycle number	I Range	|Ewe|/V	|I|/A	Ns	(Q-Qo)/mA.h	<Ece>/V	|Ece|/V	Phase(Zce)/deg	|Zce|/Ohm	Re(Zce)/Ohm	-Im(Zce)/Ohm	Phase(Zwe-ce)/deg	|Zwe-ce|/Ohm	Re(Zwe-ce)/Ohm	-Im(Zwe-ce)/Ohm	Re(Y)/Ohm-1	Im(Y)/Ohm-1	|Y|/Ohm-1	Phase(Y)/deg	Re(C)/nF	Im(C)/nF	|C|/nF	Phase(C)/deg	Re(M)	Im(M)	|M|	Phase(M)/deg	Re(Permittivity)	Im(Permittivity)	|Permittivity|	Phase(Permittivity)/deg	Re(Resistivity)/Ohm.cm	Im(Resistivity)/Ohm.cm	|Resistivity|/Ohm.cm	Phase(Resistivity)/deg	Re(Conductivity)/mS/cm	Im(Conductivity)/mS/cm	|Conductivity|/mS/cm	Phase(Conductivity)/deg	Tan(Delta)	Loss Angle(Delta)/deg	dq/mA.h	Pwe/W	Pce/W	Pwe-ce/W	<Ewe-Ece>/V	Rwe/Ohm	Rce/Ohm	Rwe-ce/Ohm		Ewe-Ece/V
100004	2.20913	0.829192	2.35962	-20.5735	1.91055	0.286535	-0.049923	1.91933	0.237014	1	9	0.00450497	0.00190919	0	-8.3778e-06	-2.46612e-05	4.20637e-05	102.601	0.0220322	-0.0048065	-0.0215015	-20.1234	2.34764	2.20432	0.807691	0.396768	0.148926	0.423797	20.5735	237.014	631.452	674.468	-69.4265	0.0000000E+000	0.0000000E+000	0.0000000E+000	69.4265	0.0000000E+000	0.0000000E+000	0.0000000E+000	-69.4265	0.0000000E+000	0.0000000E+000	0.0000000E+000	-20.5735	0.0000000E+000	0.0000000E+000	0.0000000E+000	20.5735	2.6642	69.4265	-8.3778e-06	-1.43047e-05	1.23116e-09	-1.43059e-05	0.286559	5739.53	0.493984	5740.02
68132	2.43841	0.986006	2.63022	-22.0167	2.41956	0.286536	-0.0402876	2.36913	0.332939	1	9	0.00509543	0.00193727	0	-1.67844e-05	0.000204395	3.26413e-05	81.6803	0.0168492	0.00243801	-0.0166718	-21.6595	2.62628	2.44085	0.969334	0.352471	0.142527	0.380197	22.0167	332.939	823.364	888.131	-67.9833	0.0000000E+000	0.0000000E+000	0.0000000E+000	67.9833	0.0000000E+000	0.0000000E+000	0.0000000E+000	-67.9833	0.0000000E+000	0.0000000E+000	0.0000000E+000	-22.0167	0.0000000E+000	0.0000000E+000	0.0000000E+000	22.0167	2.47302	67.9833	-8.40656e-06	-1.15439e-05	-8.23461e-09	-1.15356e-05	0.286331	7112.25	5.07341	7107.18
46420.4	2.71691	1.1488	2.9498	-22.9203	2.92655	0.28653	-0.0437846	2.98446	0.452659	1	9	0.00519447	0.00176096	0	-2.52983e-05	0.000108955	1.75112e-05	30.2897	0.00994412	0.00858661	-0.00501554	-22.766	2.95577	2.72549	1.14379	0.31224	0.132026	0.339006	22.9203	452.659	1070.53	1162.3	-67.0797	0.0000000E+000	0.0000000E+000	0.0000000E+000	67.0797	0.0000000E+000	0.0000000E+000	0.0000000E+000	-67.0797	0.0000000E+000	0.0000000E+000	0.0000000E+000	-22.9203	0.0000000E+000	0.0000000E+000	0.0000000E+000	22.9203	2.36499	67.0797	-8.51397e-06	-1.25456e-05	-4.77057e-09	-1.25408e-05	0.286421	6544.07	2.48843	6541.59
31621.1	3.02323	1.27849	3.28245	-22.923	3.30955	0.286525	-0.0455704	3.9368	0.597236	1	9	0.00511183	0.00155732	0	-3.06652e-05	-2.46612e-05	6.40617e-06	-55.4099	0.00411358	0.00233529	0.00338644	-22.9616	3.28592	3.02556	1.28188	0.280592	0.11866	0.304651	22.923	597.236	1412.27	1533.36	-67.077	0.0000000E+000	0.0000000E+000	0.0000000E+000	67.077	0.0000000E+000	0.0000000E+000	0.0000000E+000	-67.077	0.0000000E+000	0.0000000E+000	0.0000000E+000	-22.923	0.0000000E+000	0.0000000E+000	0.0000000E+000	22.923	2.36468	67.077	-5.36684e-06	-1.3057e-05	1.12382e-09	-1.30582e-05	0.28655	6287.53	0.541167	6288.07
21544.7	3.35841	1.38431	3.63253	-22.401	3.69252	0.286533	-0.045496	5.33638	0.774989	1	9	0.00496026	0.00136551	0	-3.31302e-05	3.2603e-05	3.13749e-06	-119.115	0.00229766	-0.00111795	0.00200735	-22.437	3.63226	3.35729	1.38632	0.254517	0.10491	0.275291	22.401	774.989	1880.17	2033.63	-67.599	0.0000000E+000	0.0000000E+000	0.0000000E+000	67.599	0.0000000E+000	0.0000000E+000	0.0000000E+000	-67.599	0.0000000E+000	0.0000000E+000	0.0000000E+000	-22.401	0.0000000E+000	0.0000000E+000	0.0000000E+000	22.401	2.42606	67.599	-2.46505e-06	-1.30361e-05	-1.4833e-09	-1.30346e-05	0.2865	6297.99	0.716613	6297.27
14678.6	3.70855	1.46151	3.98614	-21.5089	4.07555	0.286543	-0.049365	7.41883	0.99731	1	9	0.00496313	0.0012451	0	-4.01713e-05	0.000204395	1.30294e-05	-29.6514	0.0104645	0.00909423	0.00517704	-21.5302	3.9965	3.71764	1.46668	0.233399	0.0919802	0.250869	21.5089	997.31	2530.66	2720.09	-68.4911	0.0000000E+000	0.0000000E+000	0.0000000E+000	68.4911	0.0000000E+000	0.0000000E+000	0.0000000E+000	-68.4911	0.0000000E+000	0.0000000E+000	0.0000000E+000	-21.5089	0.0000000E+000	0.0000000E+000	0.0000000E+000	21.5089	2.53749	68.4911	-7.04104e-06	-1.41452e-05	-1.009e-08	-1.41351e-05	0.286339	5804.59	4.14049	5800.45
10002.2	4.07712	1.56931	4.36871	-21.052	4.49056	0.28663	-0.0220628	10.1395	1.30835	1	10	0.00455557	0.00104277	0	-4.48387e-05	-6.28373e-05	1.88752e-05	-37.9455	0.018101	0.0142744	0.0111305	-21.1207	4.38603	4.09139	1.58044	0.213623	0.0822246	0.228901	21.052	1308.35	3399.15	3642.26	-68.948	0.0000000E+000	0.0000000E+000	0.0000000E+000	68.948	0.0000000E+000	0.0000000E+000	0.0000000E+000	-68.948	0.0000000E+000	0.0000000E+000	0.0000000E+000	-21.052	0.0000000E+000	0.0000000E+000	0.0000000E+000	21.052	2.59804	68.948	-4.66746e-06	-6.32387e-06	1.38637e-09	-6.32525e-06	0.286693	12991.5	2.8481	12994.4
6810.42	4.42638	1.69401	4.73947	-20.9422	4.75155	0.286624	-0.023164	13.7953	1.76239	1	10	0.00468018	0.00098749	0	-4.60727e-05	0.000147131	3.5055e-05	13.8328	0.0354991	0.0344695	-0.00848744	-20.6989	4.76867	4.46085	1.68552	0.197056	0.0754148	0.210994	20.9422	1762.39	4605.07	4930.79	-69.0578	0.0000000E+000	0.0000000E+000	0.0000000E+000	69.0578	0.0000000E+000	0.0000000E+000	0.0000000E+000	-69.0578	0.0000000E+000	0.0000000E+000	0.0000000E+000	-20.9422	0.0000000E+000	0.0000000E+000	0.0000000E+000	20.9422	2.61297	69.0578	-1.23401e-06	-6.63936e-06	-3.40814e-09	-6.63595e-06	0.286477	12373.7	6.35174	12367.4
4646	4.83915	1.83926	5.1769	-20.8107	5.01762	0.28659	-0.0329847	18.6251	2.35095	1	10	0.00469563	0.000907036	0	-4.78767e-05	-0.000101013	1.11292e-05	31.6908	0.0122699	0.0104404	-0.0064458	-20.7031	5.18437	4.84959	1.83281	0.180564	0.0686283	0.193166	20.8107	2350.95	6185.45	6617.16	-69.1893	0.0000000E+000	0.0000000E+000	0.0000000E+000	69.1893	0.0000000E+000	0.0000000E+000	0.0000000E+000	-69.1893	0.0000000E+000	0.0000000E+000	0.0000000E+000	-20.8107	0.0000000E+000	0.0000000E+000	0.0000000E+000	20.8107	2.63104	69.1893	-1.80398e-06	-9.45309e-06	3.33189e-09	-9.45642e-06	0.286691	8688.59	3.06243	8691.66
3163.08	5.25626	2.01174	5.62809	-20.9434	5.39067	0.286521	-0.0226655	25.0114	3.19565	1	10	0.00464648	0.000825588	0	-5.07616e-05	0.000108955	8.09447e-06	67.4245	0.0098045	0.00376396	-0.00905322	-20.8437	5.62838	5.26003	2.00269	0.165941	0.0635111	0.17768	20.9434	3195.65	8349.58	8940.23	-69.0566	0.0000000E+000	0.0000000E+000	0.0000000E+000	69.0566	0.0000000E+000	0.0000000E+000	0.0000000E+000	-69.0566	0.0000000E+000	0.0000000E+000	0.0000000E+000	-20.9434	0.0000000E+000	0.0000000E+000	0.0000000E+000	20.9434	2.61279	69.0566	-2.88483e-06	-6.49413e-06	-2.46952e-09	-6.49166e-06	0.286412	12641.3	4.8071	12636.5
2155.69	5.71505	2.23708	6.13729	-21.3772	5.8418	0.286582	-0.00167745	33.0029	4.38493	1	10	0.00459565	0.000748808	0	-5.13895e-05	8.98672e-05	9.38753e-06	-141.142	0.0125366	-0.00976234	0.00786537	-21.4789	6.13107	5.70528	2.24494	0.151728	0.0593921	0.162938	21.3772	4384.93	11202.1	12029.8	-68.6228	0.0000000E+000	0.0000000E+000	0.0000000E+000	68.6228	0.0000000E+000	0.0000000E+000	0.0000000E+000	-68.6228	0.0000000E+000	0.0000000E+000	0.0000000E+000	-21.3772	0.0000000E+000	0.0000000E+000	0.0000000E+000	21.3772	2.55469	68.6228	-6.27925e-07	-4.80727e-07	-1.50748e-10	-4.80576e-07	0.286492	170843	53.5736	170790
1468.59	6.21754	2.50328	6.70256	-21.9305	6.29307	0.286596	-3.69487e-05	43.2922	6.03877	1	10	0.00455876	0.000680152	0	-5.19359e-05	-2.46612e-05	4.81239e-06	-2.78876	0.00707547	0.00706709	0.000344249	-21.9107	6.70924	6.22461	2.50363	0.138401	0.0557223	0.149197	21.9305	6038.77	14998.8	16168.9	-68.0695	0.0000000E+000	0.0000000E+000	0.0000000E+000	68.0695	0.0000000E+000	0.0000000E+000	0.0000000E+000	-68.0695	0.0000000E+000	0.0000000E+000	0.0000000E+000	-21.9305	0.0000000E+000	0.0000000E+000	0.0000000E+000	21.9305	2.48375	68.0695	-5.46441e-07	-1.05894e-08	9.11198e-13	-1.05903e-08	0.286621	7.7566e+06	667.443	7.75727e+06
1000.32	6.78265	2.81289	7.3428	-22.5247	6.74378	0.28659	-0.00204945	56.5624	8.30063	1	10	0.00453014	0.00061695	0	-5.18681e-05	0.000185307	1.41429e-05	18.9588	0.022924	0.0216804	-0.00744773	-22.4065	7.35999	6.80433	2.80545	0.125799	0.0521711	0.136188	22.5247	8300.63	20015.1	21668	-67.4753	0.0000000E+000	0.0000000E+000	0.0000000E+000	67.4753	0.0000000E+000	0.0000000E+000	0.0000000E+000	-67.4753	0.0000000E+000	0.0000000E+000	0.0000000E+000	-22.5247	0.0000000E+000	0.0000000E+000	0.0000000E+000	22.5247	2.41127	67.4753	6.78516e-08	-5.87352e-07	-3.79778e-10	-5.86972e-07	0.286405	139837	90.4181	139747
681.09	7.42397	3.19992	8.08424	-23.3173	7.19354	0.286585	-0.00184485	73.0258	11.4413	1	10	0.00451314	0.000558264	0	-5.26092e-05	-0.00013919	1.23734e-05	37.2628	0.0221641	0.0176397	-0.0134198	-23.1806	8.09515	7.44161	3.1865	0.113595	0.0489622	0.123698	23.3173	11441.3	26544.5	28905.2	-66.6827	0.0000000E+000	0.0000000E+000	0.0000000E+000	66.6827	0.0000000E+000	0.0000000E+000	0.0000000E+000	-66.6827	0.0000000E+000	0.0000000E+000	0.0000000E+000	-23.3173	0.0000000E+000	0.0000000E+000	0.0000000E+000	23.3173	2.32005	66.6827	-7.41131e-07	-5.28706e-07	2.56784e-10	-5.28963e-07	0.286724	155343	75.4474	155418
463.961	8.16243	3.6493	8.94107	-24.0887	7.64534	0.286567	-0.00123478	94.0002	15.6592	1	10	0.00451444	0.000504911	0	-5.29165e-05	-0.000215542	1.11817e-05	-75.0274	0.022146	0.00572155	0.0213941	-24.1987	8.95504	8.16815	3.6707	0.102104	0.045649	0.111843	24.0887	15659.2	35025.1	38366.3	-65.9113	0.0000000E+000	0.0000000E+000	0.0000000E+000	65.9113	0.0000000E+000	0.0000000E+000	0.0000000E+000	-65.9113	0.0000000E+000	0.0000000E+000	0.0000000E+000	-24.0887	0.0000000E+000	0.0000000E+000	0.0000000E+000	24.0887	2.23671	65.9113	-3.07295e-07	-3.53848e-07	2.66147e-10	-3.54114e-07	0.286783	232079	174.559	232254
316.316	8.98042	4.19321	9.91115	-25.0292	8.09307	0.286562	-0.00409543	119.992	21.4782	1	10	0.00449311	0.000453339	0	-5.30479e-05	0.000280748	1.37726e-05	-19.6252	0.0303803	0.0286155	0.0102037	-25.0127	9.9414	9.00903	4.20342	0.0914215	0.0426873	0.100896	25.0292	21478.2	45998.9	50766.2	-64.9708	0.0000000E+000	0.0000000E+000	0.0000000E+000	64.9708	0.0000000E+000	0.0000000E+000	0.0000000E+000	-64.9708	0.0000000E+000	0.0000000E+000	0.0000000E+000	-25.0292	0.0000000E+000	0.0000000E+000	0.0000000E+000	25.0292	2.14166	64.9708	-1.31378e-07	-1.17359e-06	-1.14978e-09	-1.17245e-06	0.286281	69971	68.5514	69902.5
215.345	9.99901	4.9129	11.1408	-26.1667	8.54252	0.286574	-0.00299061	150.435	29.2546	1	10	0.00450213	0.000404113	0	-5.29152e-05	-0.000120101	5.98104e-06	-12.7351	0.0148004	0.0144363	0.00326265	-26.149	11.1552	10.0134	4.91616	0.0805613	0.0395829	0.0897604	26.1667	29254.6	59540.5	66339.3	-63.8333	0.0000000E+000	0.0000000E+000	0.0000000E+000	63.8333	0.0000000E+000	0.0000000E+000	0.0000000E+000	-63.8333	0.0000000E+000	0.0000000E+000	0.0000000E+000	-26.1667	0.0000000E+000	0.0000000E+000	0.0000000E+000	26.1667	2.03526	63.8333	1.32682e-07	-8.57029e-07	3.59176e-10	-8.57388e-07	0.286694	95824.5	40.1596	95864.7
146.737	11.2412	5.67842	12.594	-26.8004	9.20051	0.286566	-0.00294597	191.008	38.8311	1	10	0.00487877	0.000387388	0	-5.34536e-05	3.2603e-05	7.60013e-06	-27.6389	0.0196189	0.0173802	0.00910118	-26.8017	12.6136	11.2586	5.68753	0.0708736	0.0358014	0.0794029	26.8004	38831.1	76871.3	86122.3	-63.1996	0.0000000E+000	0.0000000E+000	0.0000000E+000	63.1996	0.0000000E+000	0.0000000E+000	0.0000000E+000	-63.1996	0.0000000E+000	0.0000000E+000	0.0000000E+000	-26.8004	0.0000000E+000	0.0000000E+000	0.0000000E+000	26.8004	1.97963	63.1996	-5.38399e-07	-8.44213e-07	-9.60474e-11	-8.44117e-07	0.286533	97273.8	11.067	97262.8
100.032	12.7801	6.48032	14.3292	-26.8878	9.65179	0.286577	-0.00232846	245.519	50.2148	1	10	0.00488058	0.000340603	0	-5.40688e-05	0.000166219	1.06428e-05	14.5288	0.0312469	0.0302477	-0.00783883	-26.8053	14.3527	12.8104	6.47248	0.062243	0.031561	0.0697874	26.8878	50214.8	99031.1	111035	-63.1122	0.0000000E+000	0.0000000E+000	0.0000000E+000	63.1122	0.0000000E+000	0.0000000E+000	0.0000000E+000	-63.1122	0.0000000E+000	0.0000000E+000	0.0000000E+000	-26.8878	0.0000000E+000	0.0000000E+000	0.0000000E+000	26.8878	1.97215	63.1122	-6.15177e-07	-6.67283e-07	-3.87034e-10	-6.66896e-07	0.286411	123076	71.3861	123005
68.104	14.6696	7.13446	16.3125	-25.9356	10.1144	0.286586	0.00146591	327.557	62.6566	1	10	0.0048697	0.000298526	0	-5.40196e-05	0.000128043	5.21527e-06	35.4831	0.0174701	0.0142257	-0.0101407	-25.8818	16.3209	14.6838	7.12432	0.0551286	0.0268114	0.0613026	25.9356	62656.6	128832	143261	-64.0644	0.0000000E+000	0.0000000E+000	0.0000000E+000	64.0644	0.0000000E+000	0.0000000E+000	0.0000000E+000	-64.0644	0.0000000E+000	0.0000000E+000	0.0000000E+000	-25.9356	0.0000000E+000	0.0000000E+000	0.0000000E+000	25.9356	2.05616	64.0644	4.92212e-08	4.20108e-07	1.877e-10	4.19921e-07	0.286458	195500	87.3474	195413
46.4415	16.8015	7.56486	18.426	-24.2396	10.5507	0.286554	-0.00743225	453.015	76.3576	1	10	0.00486671	0.000264122	0	-5.48054e-05	0.000185307	1.49429e-06	25.6325	0.0056576	0.00510082	-0.00244746	-24.2262	18.4296	16.8066	7.56242	0.0494864	0.0222812	0.0542711	24.2396	76357.6	169590	185987	-65.7604	0.0000000E+000	0.0000000E+000	0.0000000E+000	65.7604	0.0000000E+000	0.0000000E+000	0.0000000E+000	-65.7604	0.0000000E+000	0.0000000E+000	0.0000000E+000	-24.2396	0.0000000E+000	0.0000000E+000	0.0000000E+000	24.2396	2.22099	65.7604	-7.8587e-07	-2.12974e-06	-1.37725e-09	-2.12837e-06	0.286369	38555.6	24.9329	38530.6
31.6296	19.1337	7.68294	20.6186	-21.8774	11.2156	0.286608	-0.00326113	654.937	90.9358	1	11	0.00487248	0.000236315	0	-5.55385e-05	3.2603e-05	3.02894e-06	69.2062	0.0128174	0.00455026	-0.0119825	-21.8418	20.6184	19.1383	7.67096	0.045007	0.0180721	0.0484998	21.8774	90935.8	226468	244043	-68.1226	0.0000000E+000	0.0000000E+000	0.0000000E+000	68.1226	0.0000000E+000	0.0000000E+000	0.0000000E+000	-68.1226	0.0000000E+000	0.0000000E+000	0.0000000E+000	-21.8774	0.0000000E+000	0.0000000E+000	0.0000000E+000	21.8774	2.49042	68.1226	-7.33104e-07	-9.34666e-07	-1.06323e-10	-9.34559e-07	0.286575	87885.9	9.99744	87875.9
21.5517	21.4707	7.29808	22.6771	-18.7734	11.6365	0.286593	-0.00334861	1011.88	104.803	1	11	0.00488988	0.000215631	0	-5.58186e-05	0.000166219	6.33175e-05	35.1591	0.293639	0.240066	-0.169091	-18.1782	22.8512	21.7107	7.12899	0.0417513	0.0141917	0.0440973	18.7734	104803	308325	325650	-71.2266	0.0000000E+000	0.0000000E+000	0.0000000E+000	71.2266	0.0000000E+000	0.0000000E+000	0.0000000E+000	-71.2266	0.0000000E+000	0.0000000E+000	0.0000000E+000	-18.7734	0.0000000E+000	0.0000000E+000	0.0000000E+000	18.7734	2.94196	71.2266	-2.8005e-07	-9.59689e-07	-5.56604e-10	-9.59133e-07	0.286427	85585.8	49.6383	85536.1
14.6852	23.3523	6.93888	24.3614	-16.5488	12.0972	0.28661	-0.00232533	1561.9	126.715	1	11	0.00486996	0.000199905	0	-5.55342e-05	-2.46612e-05	6.47412e-06	14.3778	0.032386	0.0313717	-0.0080419	-16.5097	24.3892	23.3837	6.93084	0.0393482	0.0116919	0.0410486	16.5488	126715	426449	444877	-73.4512	0.0000000E+000	0.0000000E+000	0.0000000E+000	73.4512	0.0000000E+000	0.0000000E+000	0.0000000E+000	-73.4512	0.0000000E+000	0.0000000E+000	0.0000000E+000	-16.5488	0.0000000E+000	0.0000000E+000	0.0000000E+000	16.5488	3.36542	73.4512	2.84402e-07	-6.66462e-07	5.73454e-11	-6.6652e-07	0.286634	123255	10.6054	123266
10.0032	25.1045	6.29187	25.881	-14.07	12.5478	0.286607	-0.002724	2528.73	149.451	1	11	0.00486699	0.000188053	0	-5.52729e-05	-0.000196454	6.29899e-06	12.5846	0.0334958	0.0326911	-0.00729809	-14.0368	25.9109	25.1372	6.28457	0.0374793	0.00939331	0.0386384	14.07	149451	596310	614753	-75.93	0.0000000E+000	0.0000000E+000	0.0000000E+000	75.93	0.0000000E+000	0.0000000E+000	0.0000000E+000	-75.93	0.0000000E+000	0.0000000E+000	0.0000000E+000	-14.07	0.0000000E+000	0.0000000E+000	0.0000000E+000	14.07	3.99	75.93	2.61244e-07	-7.80716e-07	5.35139e-10	-7.81251e-07	0.286803	105215	72.1196	105288
6.81719	26.6338	5.61447	27.2191	-11.9038	12.8875	0.286608	-0.00254235	4158.2	176.919	1	11	0.00486972	0.000178908	0	-5.53136e-05	0.000338012	6.28739e-06	-38.0727	0.0351432	0.0276657	0.0216714	-11.9364	27.2507	26.6615	5.63614	0.0359488	0.0075781	0.0367389	11.9038	176919	839265	857710	-78.0962	0.0000000E+000	0.0000000E+000	0.0000000E+000	78.0962	0.0000000E+000	0.0000000E+000	0.0000000E+000	-78.0962	0.0000000E+000	0.0000000E+000	0.0000000E+000	-11.9038	0.0000000E+000	0.0000000E+000	0.0000000E+000	11.9038	4.74377	78.0962	-4.07111e-08	-7.28658e-07	-8.59343e-10	-7.27798e-07	0.28627	112734	132.953	112601
4.63925	27.8633	4.91566	28.2936	-10.0052	13.3714	0.286608	-0.00232906	6978.95	210.657	1	11	0.00487005	0.000172125	0	-5.75582e-05	0.000242572	7.34227e-06	74.4983	0.0426565	0.0114007	-0.0411048	-9.91922	28.2977	27.8747	4.87456	0.0348061	0.00614051	0.0353436	10.0052	210657	1.19407e+06	1.2125e+06	-79.9948	0.0000000E+000	0.0000000E+000	0.0000000E+000	79.9948	0.0000000E+000	0.0000000E+000	0.0000000E+000	-79.9948	0.0000000E+000	0.0000000E+000	0.0000000E+000	-10.0052	0.0000000E+000	0.0000000E+000	0.0000000E+000	10.0052	5.66828	79.9948	-2.24456e-06	-6.67527e-07	-5.64963e-10	-6.66962e-07	0.286366	123058	104.15	122954
3.1604	28.9667	4.32433	29.2877	-8.49078	14.0644	0.286616	-0.002016	11645.5	253.879	1	11	0.00487003	0.000166282	0	-5.78367e-05	-4.37492e-05	3.48135e-06	-3.17322	0.0209364	0.0209043	0.00115893	-8.48698	29.3085	28.9876	4.32549	0.0337698	0.00504137	0.034144	8.49078	253879	1.70062e+06	1.71946e+06	-81.5092	0.0000000E+000	0.0000000E+000	0.0000000E+000	81.5092	0.0000000E+000	0.0000000E+000	0.0000000E+000	-81.5092	0.0000000E+000	0.0000000E+000	0.0000000E+000	-8.49078	0.0000000E+000	0.0000000E+000	0.0000000E+000	8.49078	6.69853	81.5092	-2.78534e-07	-5.7782e-07	8.81986e-11	-5.77908e-07	0.28666	142171	21.701	142192
2.15577	29.7921	3.81695	30.0356	-7.30094	15.0681	0.286641	-0.000870819	19342	312.365	1	11	0.00486604	0.000162009	0	-5.53753e-05	0.000108955	3.46599e-06	-8.97095	0.0213938	0.0211321	0.00333601	-7.30213	30.057	29.8132	3.82029	0.0330239	0.00423101	0.0332938	7.30094	312365	2.43807e+06	2.458e+06	-82.6991	0.0000000E+000	0.0000000E+000	0.0000000E+000	82.6991	0.0000000E+000	0.0000000E+000	0.0000000E+000	-82.6991	0.0000000E+000	0.0000000E+000	0.0000000E+000	-7.30094	0.0000000E+000	0.0000000E+000	0.0000000E+000	7.30094	7.8052	82.6991	2.46142e-06	-2.49613e-07	-9.48803e-11	-2.49518e-07	0.286532	329163	125.118	329038
1.46631	30.6015	3.30038	30.779	-6.15557	16.5283	0.286629	-0.000870072	32887.4	378.138	1	11	0.00486946	0.000158207	0	-5.26018e-05	0.000185307	4.91763e-06	6.83267	0.0310835	0.0308627	-0.00369801	-6.14258	30.8093	30.6324	3.29669	0.0323024	0.00348382	0.0324897	6.15557	378138	3.50614e+06	3.52647e+06	-83.8444	0.0000000E+000	0.0000000E+000	0.0000000E+000	83.8444	0.0000000E+000	0.0000000E+000	0.0000000E+000	-83.8444	0.0000000E+000	0.0000000E+000	0.0000000E+000	-6.15557	0.0000000E+000	0.0000000E+000	0.0000000E+000	6.15557	9.27211	83.8444	2.77348e-06	-2.49388e-07	-1.61231e-10	-2.49226e-07	0.286444	329431	212.98	329218
1.00006	31.2049	2.95436	31.3444	-5.40842	19.7016	0.286626	-0.000481124	53867.8	478.559	1	12	0.00487523	0.000155537	0	-5.29047e-05	5.16911e-05	1.63301e-06	-138.136	0.0104992	-0.00781904	0.00700681	-5.42253	31.3373	31.1971	2.96137	0.0317616	0.00300706	0.0319036	5.40842	478559	5.05469e+06	5.07729e+06	-84.5916	0.0000000E+000	0.0000000E+000	0.0000000E+000	84.5916	0.0000000E+000	0.0000000E+000	0.0000000E+000	-84.5916	0.0000000E+000	0.0000000E+000	0.0000000E+000	-5.40842	0.0000000E+000	0.0000000E+000	0.0000000E+000	5.40842	10.5623	84.5916	-3.02879e-07	-1.37903e-07	-2.48698e-11	-1.37878e-07	0.286574	595742	107.438	595634
0.681362	31.7228	2.7142	31.8387	-4.8903	22.8144	0.286619	-0.000297918	86059.9	625.421	1	12	0.00487387	0.00015308	0	-5.84583e-05	-0.000158278	3.26166e-06	0.132396	0.0213069	0.0213068	-4.92346e-05	-4.88695	31.8599	31.7441	2.71415	0.031294	0.00267751	0.0314083	4.8903	625421	7.30976e+06	7.33646e+06	-85.1097	0.0000000E+000	0.0000000E+000	0.0000000E+000	85.1097	0.0000000E+000	0.0000000E+000	0.0000000E+000	-85.1097	0.0000000E+000	0.0000000E+000	0.0000000E+000	-4.8903	0.0000000E+000	0.0000000E+000	0.0000000E+000	4.8903	11.6877	85.1097	-5.55359e-06	-8.5389e-08	4.71538e-11	-8.54362e-08	0.286777	962072	531.278	962603
0.464091	32.1424	2.59441	32.2469	-4.61469	27.3709	0.286619	-0.000374429	132184	855.617	1	12	0.00487198	0.000151084	0	-6.85524e-05	0.000147131	5.15193e-06	6.98287	0.0340999	0.033847	-0.00414562	-4.60252	32.2803	32.1763	2.59027	0.0309102	0.00249495	0.0310107	4.61469	855617	1.06003e+07	1.06348e+07	-85.3853	0.0000000E+000	0.0000000E+000	0.0000000E+000	85.3853	0.0000000E+000	0.0000000E+000	0.0000000E+000	-85.3853	0.0000000E+000	0.0000000E+000	0.0000000E+000	-4.61469	0.0000000E+000	0.0000000E+000	0.0000000E+000	4.61469	12.3891	85.3853	-1.00941e-05	-1.07319e-07	-5.50903e-11	-1.07263e-07	0.286472	765483	392.948	765090
0.316193	32.5861	2.63232	32.6923	-4.61835	34.047	0.286624	-0.000770661	191218	1239.7	1	12	0.00487185	0.000149021	0	-7.88609e-05	8.98672e-05	2.69407e-06	-46.2343	0.0180784	0.012505	0.0130558	-4.63938	32.7058	32.5986	2.64537	0.030489	0.00246291	0.0305883	4.61835	1.2397e+06	1.53465e+07	1.53965e+07	-85.3817	0.0000000E+000	0.0000000E+000	0.0000000E+000	85.3817	0.0000000E+000	0.0000000E+000	0.0000000E+000	-85.3817	0.0000000E+000	0.0000000E+000	0.0000000E+000	-4.61835	0.0000000E+000	0.0000000E+000	0.0000000E+000	4.61835	12.3792	85.3817	-1.03085e-05	-2.2089e-07	-6.92571e-11	-2.2082e-07	0.286534	371919	116.611	371802
0.215268	33.0165	2.91672	33.1451	-5.04847	43.8406	0.286613	-0.00156838	253481	1962.89	1	12	0.00487097	0.000146959	0	-8.3348e-05	0.000128043	1.90005e-06	-2.18646	0.0129292	0.0129197	0.000493269	-5.04736	33.158	33.0295	2.91721	0.0300533	0.00265495	0.0301704	5.04847	1.96289e+06	2.22195e+07	2.2306e+07	-84.9515	0.0000000E+000	0.0000000E+000	0.0000000E+000	84.9515	0.0000000E+000	0.0000000E+000	0.0000000E+000	-84.9515	0.0000000E+000	0.0000000E+000	0.0000000E+000	-5.04847	0.0000000E+000	0.0000000E+000	0.0000000E+000	5.04847	11.3197	84.9515	-4.48706e-06	-4.49517e-07	-2.0082e-10	-4.49316e-07	0.286485	182745	81.6407	182663
0.146929	33.4244	3.43279	33.6002	-5.86389	58.1789	0.286627	-0.00138363	315549	3293.64	1	12	0.00487643	0.000145131	0	-7.30266e-05	-8.19253e-05	3.01075e-06	-16.4401	0.0207451	0.0198969	0.00587112	-5.87038	33.6206	33.4443	3.43866	0.029606	0.00304062	0.0297617	5.86389	3.29363e+06	3.20695e+07	3.22382e+07	-84.1361	0.0000000E+000	0.0000000E+000	0.0000000E+000	84.1361	0.0000000E+000	0.0000000E+000	0.0000000E+000	-84.1361	0.0000000E+000	0.0000000E+000	0.0000000E+000	-5.86389	0.0000000E+000	0.0000000E+000	0.0000000E+000	5.86389	9.73682	84.1361	1.03214e-05	-3.96585e-07	1.13354e-10	-3.96698e-07	0.286709	207157	59.2106	207216
0.0999041	33.9023	4.15319	34.1558	-6.98419	79.2562	0.28661	-0.00154635	383580	5671.4	1	12	0.00487487	0.000142725	0	-4.2941e-05	-5.57311e-06	2.01746e-06	-1.77152	0.0141353	0.0141286	0.000436978	-6.98204	34.1698	33.9164	4.15362	0.0290604	0.00356003	0.0292776	6.98419	5.6714e+06	4.62954e+07	4.66415e+07	-83.0158	0.0000000E+000	0.0000000E+000	0.0000000E+000	83.0158	0.0000000E+000	0.0000000E+000	0.0000000E+000	-83.0158	0.0000000E+000	0.0000000E+000	0.0000000E+000	-6.98419	0.0000000E+000	0.0000000E+000	0.0000000E+000	6.98419	8.16296	83.0158	3.00855e-05	-4.43201e-07	8.618e-12	-4.43209e-07	0.286616	185346	3.60403	185349
0.0680626	34.5492	5.14737	34.9305	-8.47398	110.184	0.286613	-0.000837829	454282	9864.76	1	12	0.00487506	0.000139565	0	1.6445e-06	0.000128043	3.05235e-06	4.39609	0.0218705	0.0218062	-0.00167639	-8.46599	34.9519	34.571	5.1457	0.0283157	0.00421866	0.0286282	8.47398	9.86476e+06	6.62123e+07	6.69431e+07	-81.526	0.0000000E+000	0.0000000E+000	0.0000000E+000	81.526	0.0000000E+000	0.0000000E+000	0.0000000E+000	-81.526	0.0000000E+000	0.0000000E+000	0.0000000E+000	-8.47398	0.0000000E+000	0.0000000E+000	0.0000000E+000	8.47398	6.71201	81.526	4.45855e-05	-2.40132e-07	-1.07278e-10	-2.40025e-07	0.286485	342090	152.828	341937
0.0464052	35.5077	6.56595	36.1097	-10.4766	155.534	0.286622	0.00041219	522343	17270.5	1	12	0.00486586	0.000134752	0	4.86096e-05	3.2603e-05	3.17283e-06	-9.67792	0.0235457	0.0232106	0.00395826	-10.4761	36.1332	35.5309	6.56991	0.0272317	0.00503559	0.0276934	10.4766	1.72705e+07	9.33961e+07	9.49795e+07	-79.5234	0.0000000E+000	0.0000000E+000	0.0000000E+000	79.5234	0.0000000E+000	0.0000000E+000	0.0000000E+000	-79.5234	0.0000000E+000	0.0000000E+000	0.0000000E+000	-10.4766	0.0000000E+000	0.0000000E+000	0.0000000E+000	10.4766	5.40786	79.5234	4.69651e-05	1.18143e-07	1.34386e-11	1.18129e-07	0.286589	695363	79.097	695284
0.0315922	36.5485	8.65203	37.5586	-13.3183	222.14	0.286617	0.000767711	582267	30898.7	1	12	0.00487072	0.000129683	0	4.50629e-05	0.000166219	2.26533e-06	3.84007	0.0174682	0.017429	-0.00116987	-13.3105	37.5753	36.5659	8.65086	0.025909	0.00613337	0.0266251	13.3183	3.08986e+07	1.30524e+08	1.34132e+08	-76.6817	0.0000000E+000	0.0000000E+000	0.0000000E+000	76.6817	0.0000000E+000	0.0000000E+000	0.0000000E+000	-76.6817	0.0000000E+000	0.0000000E+000	0.0000000E+000	-13.3183	0.0000000E+000	0.0000000E+000	0.0000000E+000	13.3183	4.22427	76.6817	-3.54669e-06	2.20039e-07	1.27608e-10	2.19912e-07	0.286451	373340	216.513	373124
0.0215268	37.6885	11.2462	39.3307	-16.6151	319.877	0.286616	0.000532881	657406	53750.9	1	12	0.00487535	0.000123958	0	-6.38641e-05	-2.46612e-05	3.3989e-06	3.57381	0.0274198	0.0273665	-0.0017092	-16.6013	39.3564	37.7159	11.2445	0.0243639	0.00727017	0.0254254	16.6151	5.37509e+07	1.8013e+08	1.87979e+08	-73.3849	0.0000000E+000	0.0000000E+000	0.0000000E+000	73.3849	0.0000000E+000	0.0000000E+000	0.0000000E+000	-73.3849	0.0000000E+000	0.0000000E+000	0.0000000E+000	-16.6151	0.0000000E+000	0.0000000E+000	0.0000000E+000	16.6151	3.35121	73.3849	-0.000108927	1.52732e-07	-1.31415e-11	1.52745e-07	0.28664	537861	46.2789	537907
0.0146812	39.3282	14.4893	41.9124	-20.2248	463.18	0.286615	6.66459e-05	748191	89417.2	1	12	0.00487096	0.000116218	0	-0.00029218	-5.57311e-06	3.42822e-06	8.05866	0.0294982	0.0292069	-0.00413526	-20.2057	41.9384	39.3574	14.4852	0.0223882	0.00824825	0.0238593	20.2248	8.94172e+07	2.42705e+08	2.58653e+08	-69.7752	0.0000000E+000	0.0000000E+000	0.0000000E+000	69.7752	0.0000000E+000	0.0000000E+000	0.0000000E+000	-69.7752	0.0000000E+000	0.0000000E+000	0.0000000E+000	-20.2248	0.0000000E+000	0.0000000E+000	0.0000000E+000	20.2248	2.7143	69.7752	-0.000228316	1.91017e-08	-3.71425e-13	1.91021e-08	0.286621	4.30057e+06	83.6227	4.30065e+06
0.0100092	41.8378	19.1769	46.0234	-24.625	673.362	0.286617	-0.000385935	829170	143960	1	12	0.00487015	0.000105819	0	-0.00055113	0.000108955	1.59035e-06	29.3545	0.0150289	0.0130993	-0.00736736	-24.6098	46.0323	41.8509	19.1695	0.019752	0.00905359	0.0217281	24.625	1.4396e+08	3.14075e+08	3.45496e+08	-65.375	0.0000000E+000	0.0000000E+000	0.0000000E+000	65.375	0.0000000E+000	0.0000000E+000	0.0000000E+000	-65.375	0.0000000E+000	0.0000000E+000	0.0000000E+000	-24.625	0.0000000E+000	0.0000000E+000	0.0000000E+000	24.625	2.18168	65.375	-0.00025895	-1.10615e-07	-4.20496e-11	-1.10573e-07	0.286508	742656	282.315	742373