File: txt/19187_R297_UC94_SOC50_C05.mpt
EC-Lab ASCII FILE
Nb header lines : 66

Potentio Electrochemical Impedance Spectroscopy

Run on channel : 5 (SN 65912)
Grouped channel(s) : 5, 6, 7, 8
User :
CE vs. WE compliance from -10 V to 10 V
Electrode connection : standard
Potential control : Ewe
Ewe ctrl range : min = -10.00 V, max = 10.00 V
Safety Limits :
	Do not start on E overload
Acquisition started on : 11/11/2025 16:20:58.367
Loaded Setting File :  C:\Users\Celltest\OneDrive - store-dot.com\Documents\EC-Lab\Data\@Biologic Test Protocols\cathode half cell EIS SOC50.mps
Saved on :
	File : 19187_R297_UC94_SOC50_C05.mpr
	Directory : C:\Users\Celltest\OneDrive - store-dot.com\Documents\EC-Lab\Data\Michael\
	Host : 169.254.61.224
Device : VMP-3e (SN .003165)
Address : USB
EC-LAB for windows v11.62 (software)
Internet server v27.00 (firmware)
Command interpretor v12.03 (firmware)
Electrode material :
Initial state :
Electrolyte :
Comments :
Electrode surface area : 0.001 cm²
Characteristic mass : 0.001 g
Equivalent Weight : 0.000 g/eq.
Density : 0.000 g/cm3
Volume (V) : 0.001 cm³
Record Ece
Cycle Definition : Charge/Discharge alternance
Mode                Multi sine
E (V)               0.0000
vs.                 Eoc
tE (h:m:s)          0:00:0.0000
record              0
dI                  0.000
unit dI             mA
dt (s)              0.000
fi                  1.000
unit fi             MHz
ff                  0.100
unit ff             mHz
Nd                  10
Points              per decade
spacing             Logarithmic
Va (mV)             5.0
pw                  0.10
Na                  2
corr                0
E range min (V)     -10.000
E range max (V)     10.000
I Range             Auto
Bandwidth           5
nc cycles           0
goto Ns'            0
nr cycles           0
inc. cycle          0

freq/Hz	Re(Z)/Ohm	-Im(Z)/Ohm	|Z|/Ohm	Phase(Z)/deg	time/s	<Ewe>/V	<I>/mA	Cs/µF	Cp/µF	cycle number	I Range	|Ewe|/V	|I|/A	Ns	(Q-Qo)/mA.h	<Ece>/V	|Ece|/V	Phase(Zce)/deg	|Zce|/Ohm	Re(Zce)/Ohm	-Im(Zce)/Ohm	Phase(Zwe-ce)/deg	|Zwe-ce|/Ohm	Re(Zwe-ce)/Ohm	-Im(Zwe-ce)/Ohm	Re(Y)/Ohm-1	Im(Y)/Ohm-1	|Y|/Ohm-1	Phase(Y)/deg	Re(C)/nF	Im(C)/nF	|C|/nF	Phase(C)/deg	Re(M)	Im(M)	|M|	Phase(M)/deg	Re(Permittivity)	Im(Permittivity)	|Permittivity|	Phase(Permittivity)/deg	Re(Resistivity)/Ohm.cm	Im(Resistivity)/Ohm.cm	|Resistivity|/Ohm.cm	Phase(Resistivity)/deg	Re(Conductivity)/mS/cm	Im(Conductivity)/mS/cm	|Conductivity|/mS/cm	Phase(Conductivity)/deg	Tan(Delta)	Loss Angle(Delta)/deg	dq/mA.h	Pwe/W	Pce/W	Pwe-ce/W	<Ewe-Ece>/V	Rwe/Ohm	Rce/Ohm	Rwe-ce/Ohm		Ewe-Ece/V
1.00002e+06	0.961846	-0.175076	0.97765	10.3161	2.69452	3.88212	0.074607	-0.909047	-0.0291522	1	9	0.000216172	0.000221114	0	2.38754e-05	0.000237322	0.000182726	-1.0247	0.826389	0.826257	0.0147787	5.12266	1.79527	1.7881	-0.160297	1.00633	-0.183172	1.02286	-10.3161	-29.1522	160.159	162.79	-100.316	0.0000000E+000	0.0000000E+000	0.0000000E+000	100.316	0.0000000E+000	0.0000000E+000	0.0000000E+000	-100.316	0.0000000E+000	0.0000000E+000	0.0000000E+000	10.3161	0.0000000E+000	0.0000000E+000	0.0000000E+000	-10.3161	5.49389	79.6839	2.38754e-05	0.000289633	1.77058e-08	0.000289615	3.88188	52034.3	3.18096	52031.1
630957	0.418513	0.141228	0.441699	-18.647	3.46256	3.88096	-0.0120873	1.78608	0.182594	1	9	0.000165051	0.000373673	0	2.64554e-05	0.000141866	0.000102756	-107.317	0.274988	-0.0818522	0.262524	-50.1776	0.525695	0.33666	0.403751	2.14514	0.723881	2.26398	18.647	182.594	541.098	571.076	-71.353	0.0000000E+000	0.0000000E+000	0.0000000E+000	71.353	0.0000000E+000	0.0000000E+000	0.0000000E+000	-71.353	0.0000000E+000	0.0000000E+000	0.0000000E+000	-18.647	0.0000000E+000	0.0000000E+000	0.0000000E+000	18.647	2.96339	71.353	-1.36794e-07	-4.69102e-05	-1.71477e-09	-4.69085e-05	3.88082	321078	11.7368	321066
398103	0.585717	0.0734184	0.5903	-7.14465	4.22855	3.88072	-0.0356973	5.44527	0.0842333	1	9	0.000614173	0.00104044	0	2.0678e-05	0.000122774	4.19056e-05	164.024	0.0402768	-0.0387212	-0.0110857	-6.50109	0.550535	0.546995	0.0623328	1.6809	0.210698	1.69405	7.14465	84.2333	671.995	677.254	-82.8553	0.0000000E+000	0.0000000E+000	0.0000000E+000	82.8553	0.0000000E+000	0.0000000E+000	0.0000000E+000	-82.8553	0.0000000E+000	0.0000000E+000	0.0000000E+000	-7.14465	0.0000000E+000	0.0000000E+000	0.0000000E+000	7.14465	7.97779	82.8553	-2.9128e-06	-0.000138531	-4.38271e-09	-0.000138527	3.8806	108712	3.43932	108708
251206	0.695077	0.190458	0.720698	-15.3235	4.99656	3.88051	-0.0429963	3.32653	0.232317	1	9	0.00197395	0.00273895	0	9.85929e-06	-0.000220868	6.32399e-05	112.28	0.0230891	-0.00875373	-0.0213654	-13.8406	0.706846	0.686323	0.169092	1.33822	0.366684	1.38754	15.3235	232.317	847.843	879.096	-74.6765	0.0000000E+000	0.0000000E+000	0.0000000E+000	74.6765	0.0000000E+000	0.0000000E+000	0.0000000E+000	-74.6765	0.0000000E+000	0.0000000E+000	0.0000000E+000	-15.3235	0.0000000E+000	0.0000000E+000	0.0000000E+000	15.3235	3.64951	74.6765	-6.47726e-06	-0.000166848	9.49648e-09	-0.000166857	3.88073	90252.3	5.1369	90257.5
158486	0.786599	0.289371	0.838137	-20.1974	5.76255	3.88038	-0.0383784	3.47035	0.41367	1	9	0.00504769	0.00602251	0	-2.20579e-05	0.000256413	5.66112e-05	87.6054	0.00939993	0.000392735	-0.00939172	-19.5835	0.835311	0.786992	0.279979	1.11976	0.411931	1.19312	20.1974	413.67	1124.48	1198.16	-69.8026	0.0000000E+000	0.0000000E+000	0.0000000E+000	69.8026	0.0000000E+000	0.0000000E+000	0.0000000E+000	-69.8026	0.0000000E+000	0.0000000E+000	0.0000000E+000	-20.1974	0.0000000E+000	0.0000000E+000	0.0000000E+000	20.1974	2.71831	69.8026	-1.80057e-05	-0.000148923	-9.84072e-09	-0.000148913	3.88012	101108	6.68117	101102
100004	0.889795	0.375386	0.965738	-22.8739	6.52851	3.88027	-0.0497738	4.23961	0.640565	1	9	0.00530161	0.00548969	0	-5.22275e-05	0.000160957	3.98406e-05	91.8857	0.00725734	-0.000238808	-0.00725341	-22.4816	0.962721	0.889556	0.368132	0.95405	0.402494	1.03548	22.8739	640.565	1518.36	1647.95	-67.1262	0.0000000E+000	0.0000000E+000	0.0000000E+000	67.1262	0.0000000E+000	0.0000000E+000	0.0000000E+000	-67.1262	0.0000000E+000	0.0000000E+000	0.0000000E+000	-22.8739	0.0000000E+000	0.0000000E+000	0.0000000E+000	22.8739	2.37035	67.1262	-2.38203e-05	-0.000193136	-8.01143e-09	-0.000193128	3.88011	77958	3.23376	77954.8
63093.8	0.998633	0.464551	1.1014	-24.9472	7.29454	3.88025	-0.0316753	5.43	0.966004	1	9	0.00531022	0.00482135	0	-4.89233e-05	-6.81378e-05	2.21897e-05	94.3568	0.00460238	-0.000349628	-0.00458908	-24.738	1.09915	0.998283	0.459962	0.823224	0.382953	0.907938	24.9472	966.004	2076.59	2290.28	-65.0528	0.0000000E+000	0.0000000E+000	0.0000000E+000	65.0528	0.0000000E+000	0.0000000E+000	0.0000000E+000	-65.0528	0.0000000E+000	0.0000000E+000	0.0000000E+000	-24.9472	0.0000000E+000	0.0000000E+000	0.0000000E+000	24.9472	2.14967	65.0528	5.85136e-06	-0.000122908	2.15829e-09	-0.00012291	3.88032	122501	2.15113	122503
39814.1	1.13644	0.564157	1.26876	-26.401	8.06053	3.88023	-0.051971	7.08572	1.40095	1	9	0.00540907	0.00426326	0	-6.4724e-05	-0.000125411	1.24809e-05	75.8526	0.00292754	0.000715538	-0.00283874	-26.2718	1.26814	1.13715	0.561318	0.705967	0.350461	0.78817	26.401	1400.95	2822.07	3150.67	-63.599	0.0000000E+000	0.0000000E+000	0.0000000E+000	63.599	0.0000000E+000	0.0000000E+000	0.0000000E+000	-63.599	0.0000000E+000	0.0000000E+000	0.0000000E+000	-26.401	0.0000000E+000	0.0000000E+000	0.0000000E+000	26.401	2.0144	63.599	-9.56344e-06	-0.00020166	6.51776e-09	-0.000201666	3.88036	74661.4	2.4131	74663.8
25116.9	1.29989	0.693952	1.47353	-28.0956	8.95053	3.88023	-0.0327925	9.13113	2.02519	1	9	0.00541105	0.00367216	0	-7.87767e-05	2.73182e-05	3.61797e-06	38.7642	0.000985241	0.000768222	-0.000616876	-28.0604	1.47392	1.30066	0.693335	0.598673	0.319603	0.678642	28.0956	2025.19	3793.53	4300.26	-61.9044	0.0000000E+000	0.0000000E+000	0.0000000E+000	61.9044	0.0000000E+000	0.0000000E+000	0.0000000E+000	-61.9044	0.0000000E+000	0.0000000E+000	0.0000000E+000	-28.0956	0.0000000E+000	0.0000000E+000	0.0000000E+000	28.0956	1.87318	61.9044	-6.92696e-06	-0.000127242	-8.95834e-10	-0.000127242	3.8802	118327	0.833063	118326
15847.7	1.49964	0.832531	1.71523	-29.0371	9.59255	3.88023	-0.0294782	12.063	2.84191	1	9	0.00498236	0.00290478	0	-8.68454e-05	0.000160957	5.69725e-06	-57.5895	0.00196134	0.00105124	0.00165582	-29.0684	1.71695	1.50069	0.834187	0.509731	0.28298	0.583012	29.0371	2841.91	5119.12	5855.07	-60.9629	0.0000000E+000	0.0000000E+000	0.0000000E+000	60.9629	0.0000000E+000	0.0000000E+000	0.0000000E+000	-60.9629	0.0000000E+000	0.0000000E+000	0.0000000E+000	-29.0371	0.0000000E+000	0.0000000E+000	0.0000000E+000	29.0371	1.8013	60.9629	-3.07775e-06	-0.000114382	-4.74472e-09	-0.000114378	3.88007	131631	5.46019	131625
10002.2	1.73184	1.00047	2.00005	-30.0145	10.3585	3.88025	-0.0302602	15.9045	3.97963	1	9	0.00493851	0.00246919	0	-9.0028e-05	4.64095e-05	9.60083e-06	40.7061	0.00388826	0.00294755	-0.00253584	-29.9095	2.00134	1.73479	0.997931	0.432937	0.250103	0.499986	30.0145	3979.63	6888.88	7955.76	-59.9855	0.0000000E+000	0.0000000E+000	0.0000000E+000	59.9855	0.0000000E+000	0.0000000E+000	0.0000000E+000	-59.9855	0.0000000E+000	0.0000000E+000	0.0000000E+000	-30.0145	0.0000000E+000	0.0000000E+000	0.0000000E+000	30.0145	1.73104	59.9855	2.11592e-06	-0.000117417	-1.40436e-09	-0.000117416	3.8802	128229	1.53368	128228
6309.38	2.01386	1.19673	2.34261	-30.7208	10.8805	3.88025	-0.0349153	21.0784	5.50087	1	9	0.00454296	0.00193928	0	-9.40441e-05	-4.90466e-05	1.6951e-05	-103.608	0.00874088	-0.00205656	0.0084955	-30.9249	2.34519	2.01181	1.20523	0.36697	0.218071	0.426875	30.7208	5500.87	9256.87	10768	-59.2792	0.0000000E+000	0.0000000E+000	0.0000000E+000	59.2792	0.0000000E+000	0.0000000E+000	0.0000000E+000	-59.2792	0.0000000E+000	0.0000000E+000	0.0000000E+000	-30.7208	0.0000000E+000	0.0000000E+000	0.0000000E+000	30.7208	1.6828	59.2792	-5.4894e-07	-0.00013548	1.71248e-09	-0.000135482	3.8803	111133	1.40473	111135
3983.6	2.35831	1.42144	2.75356	-31.079	11.5671	3.88009	-0.125855	28.107	7.49002	1	9	0.0049222	0.00178758	0	-0.000106123	0.000141866	2.14426e-06	-14.596	0.00119954	0.00116082	0.000302286	-31.0719	2.75472	2.35947	1.42174	0.311036	0.187473	0.363166	31.079	7490.02	12426.7	14509.4	-58.921	0.0000000E+000	0.0000000E+000	0.0000000E+000	58.921	0.0000000E+000	0.0000000E+000	0.0000000E+000	-58.921	0.0000000E+000	0.0000000E+000	0.0000000E+000	-31.079	0.0000000E+000	0.0000000E+000	0.0000000E+000	31.079	1.6591	58.921	-8.27869e-06	-0.000488328	-1.78545e-08	-0.00048831	3.87995	30829.9	1.12722	30828.7
2510.8	2.77745	1.71776	3.26572	-31.7354	12.3918	3.88016	0.05379	36.9016	10.2097	1	9	0.0048306	0.00147918	0	-0.00011275	-1.08642e-05	4.40755e-06	32.8793	0.00297972	0.00250242	-0.0016176	-31.6882	3.267	2.77995	1.71614	0.260428	0.161066	0.306211	31.7354	10209.7	16508.1	19410.1	-58.2646	0.0000000E+000	0.0000000E+000	0.0000000E+000	58.2646	0.0000000E+000	0.0000000E+000	0.0000000E+000	-58.2646	0.0000000E+000	0.0000000E+000	0.0000000E+000	-31.7354	0.0000000E+000	0.0000000E+000	0.0000000E+000	31.7354	1.6169	58.2646	6.18128e-06	0.000208714	-5.84384e-10	0.000208714	3.88017	72135.4	0.201974	72135.6
1585.51	3.24721	2.04052	3.83511	-32.145	13.5388	3.88015	-0.0340453	49.1938	13.9263	1	10	0.00496704	0.00129515	0	-0.000109088	-6.81378e-05	5.47514e-06	108.751	0.00422742	-0.00135891	-0.00400305	-32.1051	3.83183	3.24585	2.03652	0.220777	0.138735	0.260749	32.145	13926.3	22161.8	26174.2	-57.855	0.0000000E+000	0.0000000E+000	0.0000000E+000	57.855	0.0000000E+000	0.0000000E+000	0.0000000E+000	-57.855	0.0000000E+000	0.0000000E+000	0.0000000E+000	-32.145	0.0000000E+000	0.0000000E+000	0.0000000E+000	32.145	1.59136	57.855	-2.40603e-06	-0.000132101	2.31977e-09	-0.000132103	3.88021	113970	2.00139	113972
1000.32	3.8488	2.45978	4.56769	-32.5828	14.4408	3.88014	-0.0335277	64.6822	18.7579	1	10	0.00486003	0.001064	0	-0.000116437	-6.81378e-05	1.00307e-05	-79.4414	0.00942735	0.00172748	0.00926773	-32.6689	4.57414	3.85053	2.46905	0.184473	0.117897	0.218929	32.5828	18757.9	29350.4	34832.5	-57.4172	0.0000000E+000	0.0000000E+000	0.0000000E+000	57.4172	0.0000000E+000	0.0000000E+000	0.0000000E+000	-57.4172	0.0000000E+000	0.0000000E+000	0.0000000E+000	-32.5828	0.0000000E+000	0.0000000E+000	0.0000000E+000	32.5828	1.56469	57.4172	-3.29082e-06	-0.000130092	2.28451e-09	-0.000130095	3.88021	115729	2.03228	115731
631.01	4.66642	2.91811	5.50371	-32.0195	15.3416	3.88014	-0.0334607	86.4336	24.2982	1	10	0.00480859	0.0008737	0	-0.000125201	-0.000220868	3.23437e-06	147.296	0.00370193	-0.00311506	-0.00200017	-32.019	5.50001	4.66331	2.91611	0.154054	0.0963363	0.181696	32.0195	24298.2	38855.9	45827.7	-57.9805	0.0000000E+000	0.0000000E+000	0.0000000E+000	57.9805	0.0000000E+000	0.0000000E+000	0.0000000E+000	-57.9805	0.0000000E+000	0.0000000E+000	0.0000000E+000	-32.0195	0.0000000E+000	0.0000000E+000	0.0000000E+000	32.0195	1.59912	57.9805	-4.706e-06	-0.000129832	7.39038e-09	-0.00012984	3.88036	115961	6.6008	115968
398.089	5.73613	3.32954	6.63242	-30.133	16.2438	3.88014	-0.0324852	120.076	30.2607	1	10	0.00477194	0.000719488	0	-0.00013308	-8.72291e-05	1.47216e-05	85.8137	0.0204612	0.00149365	-0.0204066	-29.9739	6.62349	5.73762	3.30913	0.130399	0.0756902	0.150775	30.133	30260.7	52133.2	60279.2	-59.867	0.0000000E+000	0.0000000E+000	0.0000000E+000	59.867	0.0000000E+000	0.0000000E+000	0.0000000E+000	-59.867	0.0000000E+000	0.0000000E+000	0.0000000E+000	-30.133	0.0000000E+000	0.0000000E+000	0.0000000E+000	30.133	1.7228	59.867	-3.38231e-06	-0.000126047	2.83365e-09	-0.00012605	3.88023	119444	2.6852	119446
251.044	7.05024	3.53223	7.88559	-26.6113	17.142	3.88014	-0.0332485	179.482	36.0123	1	10	0.00476355	0.000604083	0	-0.000141395	0.000122774	4.45785e-06	-53.92	0.00737955	0.00434592	0.00596411	-26.6359	7.89215	7.05458	3.5382	0.11338	0.0568043	0.126814	26.6113	36012.3	71879.5	80396.2	-63.3887	0.0000000E+000	0.0000000E+000	0.0000000E+000	63.3887	0.0000000E+000	0.0000000E+000	0.0000000E+000	-63.3887	0.0000000E+000	0.0000000E+000	0.0000000E+000	-26.6113	0.0000000E+000	0.0000000E+000	0.0000000E+000	26.6113	1.99597	63.3887	-3.80778e-06	-0.000129009	-4.08206e-09	-0.000129005	3.88002	116701	3.69263	116698
158.428	8.38546	3.32018	9.01884	-21.6009	18.0468	3.88015	-0.0322059	302.569	41.006	1	10	0.00474406	0.000526017	0	-0.00014914	0.000313686	7.85924e-06	-14.2465	0.014941	0.0144815	0.00367691	-21.5887	9.03366	8.39994	3.32386	0.103092	0.0408188	0.110879	21.6009	41006	103565	111387	-68.3991	0.0000000E+000	0.0000000E+000	0.0000000E+000	68.3991	0.0000000E+000	0.0000000E+000	0.0000000E+000	-68.3991	0.0000000E+000	0.0000000E+000	0.0000000E+000	-21.6009	0.0000000E+000	0.0000000E+000	0.0000000E+000	21.6009	2.5256	68.3991	-3.63414e-06	-0.000124964	-1.01026e-08	-0.000124954	3.87983	120479	9.74002	120469
100.032	9.51747	2.85045	9.93516	-16.6728	18.9468	3.88015	-0.0306458	558.171	45.9457	1	10	0.00474892	0.000477992	0	-0.000156695	0.000313686	1.10517e-05	15.6403	0.0231211	0.022265	-0.00623338	-16.6016	9.95471	9.53974	2.84422	0.0964211	0.0288778	0.100653	16.6728	45945.7	153410	160142	-73.3272	0.0000000E+000	0.0000000E+000	0.0000000E+000	73.3272	0.0000000E+000	0.0000000E+000	0.0000000E+000	-73.3272	0.0000000E+000	0.0000000E+000	0.0000000E+000	-16.6728	0.0000000E+000	0.0000000E+000	0.0000000E+000	16.6728	3.33894	73.3272	-4.16475e-06	-0.00011891	-9.61318e-09	-0.000118901	3.87984	126613	10.2359	126602
63.0823	10.3074	2.26381	10.5531	-12.3872	19.862	3.88017	-0.0279575	1114.48	51.2855	1	10	0.00474495	0.000449627	0	-0.000163492	-0.000201776	1.6424e-05	20.3424	0.0365282	0.03425	-0.0126983	-12.2802	10.5838	10.3417	2.25111	0.0925532	0.0203274	0.0947591	12.3872	51285.5	233509	239075	-77.6128	0.0000000E+000	0.0000000E+000	0.0000000E+000	77.6128	0.0000000E+000	0.0000000E+000	0.0000000E+000	-77.6128	0.0000000E+000	0.0000000E+000	0.0000000E+000	-12.3872	0.0000000E+000	0.0000000E+000	0.0000000E+000	12.3872	4.55313	77.6128	-3.51211e-06	-0.00010848	5.64117e-09	-0.000108486	3.88037	138788	7.21725	138795
39.8089	10.8197	1.70242	10.9528	-8.94192	20.7629	3.88016	-0.0307203	2348.4	56.7361	1	10	0.00473762	0.00043255	0	-0.000169726	8.22703e-06	7.75796e-06	-73.185	0.0179354	0.0051884	0.0171686	-9.02636	10.9606	10.8248	1.71959	0.0901915	0.0141912	0.0913011	8.94192	56736.1	360583	365019	-81.0581	0.0000000E+000	0.0000000E+000	0.0000000E+000	81.0581	0.0000000E+000	0.0000000E+000	0.0000000E+000	-81.0581	0.0000000E+000	0.0000000E+000	0.0000000E+000	-8.94192	0.0000000E+000	0.0000000E+000	0.0000000E+000	8.94192	6.35544	81.0581	-3.11858e-06	-0.0001192	-2.52737e-10	-0.000119199	3.88015	126306	0.267804	126306
25.1044	11.1491	1.20149	11.2137	-6.15075	21.6421	3.88016	-0.0322432	5276.56	60.5749	1	10	0.00474765	0.000423381	0	-0.000177249	8.22703e-06	8.08922e-06	-44.6301	0.0191063	0.0135971	0.0134227	-6.21141	11.2286	11.1627	1.21491	0.0886635	0.00955483	0.0891769	6.15075	60574.9	562101	565356	-83.8493	0.0000000E+000	0.0000000E+000	0.0000000E+000	83.8493	0.0000000E+000	0.0000000E+000	0.0000000E+000	-83.8493	0.0000000E+000	0.0000000E+000	0.0000000E+000	-6.15075	0.0000000E+000	0.0000000E+000	0.0000000E+000	6.15075	9.27944	83.8493	-4.08701e-06	-0.000125109	-2.65265e-10	-0.000125108	3.88015	120341	0.255156	120340
15.8576	11.3338	0.937635	11.3725	-4.72927	22.5201	3.88017	-0.0344884	10704.1	72.7623	1	10	0.00474954	0.000417634	0	-0.00018247	2.73182e-05	1.61174e-05	37.1667	0.0385921	0.0307533	-0.0233149	-4.59976	11.4012	11.3645	0.91432	0.0876322	0.00724975	0.0879315	4.72927	72762.3	879522	882527	-85.2707	0.0000000E+000	0.0000000E+000	0.0000000E+000	85.2707	0.0000000E+000	0.0000000E+000	0.0000000E+000	-85.2707	0.0000000E+000	0.0000000E+000	0.0000000E+000	-4.72927	0.0000000E+000	0.0000000E+000	0.0000000E+000	4.72927	12.0876	85.2707	-2.28576e-06	-0.000133821	-9.42162e-10	-0.00013382	3.88014	112506	0.7921	112506
10.0032	11.4555	0.680662	11.4757	-3.40041	23.5018	3.88015	-0.0311373	23374.9	82.2351	1	10	0.00474678	0.000413639	0	-0.000192132	-0.00010632	6.43567e-06	-10.2014	0.0155587	0.0153127	0.00275557	-3.4096	11.4911	11.4708	0.683417	0.0869875	0.00516863	0.087141	3.40041	82235	1.38401e+06	1.38645e+06	-86.5996	0.0000000E+000	0.0000000E+000	0.0000000E+000	86.5996	0.0000000E+000	0.0000000E+000	0.0000000E+000	-86.5996	0.0000000E+000	0.0000000E+000	0.0000000E+000	-3.40041	0.0000000E+000	0.0000000E+000	0.0000000E+000	3.40041	16.8299	86.5996	-5.5601e-06	-0.000120818	3.31053e-09	-0.000120821	3.88026	124614	3.41456	124618
6.31058	11.6007	0.57572	11.615	-2.84113	24.7233	3.88017	-0.0185094	43806.6	107.627	1	11	0.0047432	0.000408368	0	-0.000201559	0.000141866	9.95839e-06	-113.089	0.0243858	-0.00956327	0.0224324	-2.95407	11.6066	11.5912	0.598152	0.0859895	0.00426747	0.0860954	2.84113	107627	2.16868e+06	2.17135e+06	-87.1589	0.0000000E+000	0.0000000E+000	0.0000000E+000	87.1589	0.0000000E+000	0.0000000E+000	0.0000000E+000	-87.1589	0.0000000E+000	0.0000000E+000	0.0000000E+000	-2.84113	0.0000000E+000	0.0000000E+000	0.0000000E+000	2.84113	20.15	87.1589	-5.36342e-06	-7.18194e-05	-2.62584e-09	-7.18168e-05	3.88003	209633	7.66453	209625
3.97785	11.695	0.498603	11.7057	-2.44126	25.7303	3.88019	-0.0162859	80244.7	145.591	1	11	0.00474599	0.000405444	0	-0.000199525	-6.81378e-05	1.99011e-06	-134.51	0.00490846	-0.00344098	0.00350038	-2.4591	11.7024	11.6916	0.502104	0.0853513	0.00363885	0.0854288	2.44126	145591	3.41493e+06	3.41803e+06	-87.5587	0.0000000E+000	0.0000000E+000	0.0000000E+000	87.5587	0.0000000E+000	0.0000000E+000	0.0000000E+000	-87.5587	0.0000000E+000	0.0000000E+000	0.0000000E+000	-2.44126	0.0000000E+000	0.0000000E+000	0.0000000E+000	2.44126	23.4556	87.5587	1.0399e-06	-6.31923e-05	1.10968e-09	-6.31934e-05	3.88026	238255	4.18387	238260
2.51367	11.782	0.513417	11.7932	-2.49517	27.29	3.8802	-0.0153384	123322	233.734	1	11	0.00474314	0.000402195	0	-0.000215645	-8.72291e-05	5.28436e-06	6.9105	0.0131388	0.0130434	-0.00158084	-2.48475	11.8061	11.795	0.511836	0.0847146	0.00369156	0.084795	2.49517	233734	5.36376e+06	5.36885e+06	-87.5048	0.0000000E+000	0.0000000E+000	0.0000000E+000	87.5048	0.0000000E+000	0.0000000E+000	0.0000000E+000	-87.5048	0.0000000E+000	0.0000000E+000	0.0000000E+000	-2.49517	0.0000000E+000	0.0000000E+000	0.0000000E+000	2.49517	22.9482	87.5048	-1.00806e-05	-5.95161e-05	1.33796e-09	-5.95174e-05	3.88029	252973	5.68697	252978
1.58469	11.8993	0.572948	11.9131	-2.75665	29.7254	3.8802	-0.0157583	175292	405.456	1	11	0.0047428	0.000398117	0	-0.000222768	-0.000182685	1.99208e-06	-8.55402	0.00500377	0.00494811	0.000744269	-2.75908	11.9181	11.9042	0.573692	0.0838442	0.00403707	0.0839413	2.75665	405456	8.42073e+06	8.43049e+06	-87.2434	0.0000000E+000	0.0000000E+000	0.0000000E+000	87.2434	0.0000000E+000	0.0000000E+000	0.0000000E+000	-87.2434	0.0000000E+000	0.0000000E+000	0.0000000E+000	-2.75665	0.0000000E+000	0.0000000E+000	0.0000000E+000	2.75665	20.7686	87.2434	-2.26434e-07	-6.11452e-05	2.8788e-09	-6.11481e-05	3.88038	246232	11.593	246244
1.00469	12.4999	0.659504	12.5173	-3.02016	240.542	3.88017	-0.012711	240198	666.78	1	11	0.00507521	0.000405456	0	-0.00245936	-0.000316324	5.76214e-07	-7.11351	0.00142115	0.00141021	0.000175989	-3.02063	12.5187	12.5013	0.65968	0.0797785	0.00420916	0.0798894	3.02016	666780	1.26378e+07	1.26554e+07	-86.9798	0.0000000E+000	0.0000000E+000	0.0000000E+000	86.9798	0.0000000E+000	0.0000000E+000	0.0000000E+000	-86.9798	0.0000000E+000	0.0000000E+000	0.0000000E+000	-3.02016	0.0000000E+000	0.0000000E+000	0.0000000E+000	3.02016	18.9535	86.9798	-0.00223995	-4.93209e-05	4.0208e-09	-4.9325e-05	3.88049	305260	24.8858	305285
0.632957	12.6498	0.805393	12.6754	-3.64301	240.544	3.88017	-0.012711	312204	1260.46	1	11	0.00508942	0.000401519	0	-0.00245936	-0.000316324	8.50501e-07	3.26797	0.00211821	0.00211477	-0.000120751	-3.64186	12.6775	12.6519	0.805272	0.0787334	0.00501282	0.0788928	3.64301	1.26046e+06	1.97972e+07	1.98373e+07	-86.357	0.0000000E+000	0.0000000E+000	0.0000000E+000	86.357	0.0000000E+000	0.0000000E+000	0.0000000E+000	-86.357	0.0000000E+000	0.0000000E+000	0.0000000E+000	-3.64301	0.0000000E+000	0.0000000E+000	0.0000000E+000	3.64301	15.7064	86.357	0.000000000000000E+000	-4.93209e-05	4.0208e-09	-4.9325e-05	3.88049	305260	24.8858	305285
0.401878	12.7774	1.02697	12.8186	-4.59523	240.545	3.88017	-0.012711	385627	2475.17	1	11	0.00510208	0.000398022	0	-0.00245936	-0.000316324	6.70402e-07	-12.656	0.00168434	0.00164341	0.000369033	-4.59628	12.8203	12.779	1.02734	0.0777609	0.00624998	0.0780117	4.59523	2.47517e+06	3.07955e+07	3.08949e+07	-85.4048	0.0000000E+000	0.0000000E+000	0.0000000E+000	85.4048	0.0000000E+000	0.0000000E+000	0.0000000E+000	-85.4048	0.0000000E+000	0.0000000E+000	0.0000000E+000	-4.59523	0.0000000E+000	0.0000000E+000	0.0000000E+000	4.59523	12.4418	85.4048	0.000000000000000E+000	-4.93209e-05	4.0208e-09	-4.9325e-05	3.88049	305260	24.8858	305285
0.251173	13.0958	1.3294	13.1631	-5.79644	240.546	3.88017	-0.012711	476641	4861.69	1	11	0.00510405	0.000387755	0	-0.00245936	-0.000316324	5.49827e-07	-7.87586	0.00141797	0.0014046	0.000194301	-5.79667	13.1645	13.0972	1.32959	0.0755817	0.00767257	0.0759702	5.79644	4.86169e+06	4.7892e+07	4.81381e+07	-84.2036	0.0000000E+000	0.0000000E+000	0.0000000E+000	84.2036	0.0000000E+000	0.0000000E+000	0.0000000E+000	-84.2036	0.0000000E+000	0.0000000E+000	0.0000000E+000	-5.79644	0.0000000E+000	0.0000000E+000	0.0000000E+000	5.79644	9.8509	84.2036	0.000000000000000E+000	-4.93209e-05	4.0208e-09	-4.9325e-05	3.88049	305260	24.8858	305285
0.160751	13.4113	1.58512	13.5046	-6.74069	240.547	3.88017	-0.012711	624605	8605.26	1	11	0.00509646	0.000377387	0	-0.00245936	-0.000316324	7.77525e-07	3.87272	0.00206029	0.00205558	-0.000139152	-6.73908	13.5066	13.4133	1.58498	0.0735369	0.00869155	0.0740488	6.74069	8.60525e+06	7.28068e+07	7.33136e+07	-83.2593	0.0000000E+000	0.0000000E+000	0.0000000E+000	83.2593	0.0000000E+000	0.0000000E+000	0.0000000E+000	-83.2593	0.0000000E+000	0.0000000E+000	0.0000000E+000	-6.74069	0.0000000E+000	0.0000000E+000	0.0000000E+000	6.74069	8.46074	83.2593	0.000000000000000E+000	-4.93209e-05	4.0208e-09	-4.9325e-05	3.88049	305260	24.8858	305285
0.100469	13.8569	2.16352	14.0248	-8.87412	240.549	3.88017	-0.012711	732194	17424.3	1	11	0.00509945	0.000363604	0	-0.00245936	-0.000316324	6.36977e-07	-27.5153	0.00175185	0.00155369	0.000809328	-8.87641	14.0264	13.8584	2.16433	0.0704489	0.0109994	0.0713024	8.87412	1.74243e+07	1.11599e+08	1.12951e+08	-81.1259	0.0000000E+000	0.0000000E+000	0.0000000E+000	81.1259	0.0000000E+000	0.0000000E+000	0.0000000E+000	-81.1259	0.0000000E+000	0.0000000E+000	0.0000000E+000	-8.87412	0.0000000E+000	0.0000000E+000	0.0000000E+000	8.87412	6.40479	81.1259	0.000000000000000E+000	-4.93209e-05	4.0208e-09	-4.9325e-05	3.88049	305260	24.8858	305285
0.0602816	14.5507	2.64036	14.7883	-10.285	240.55	3.88017	-0.012711	999934	31875.8	1	11	0.00509333	0.000344415	0	-0.00245936	-0.000316324	8.50299e-07	-2.07336	0.00246882	0.0024672	8.93194e-05	-10.2836	14.7908	14.5532	2.64045	0.0665344	0.0120733	0.0676209	10.285	3.18758e+07	1.75663e+08	1.78532e+08	-79.7151	0.0000000E+000	0.0000000E+000	0.0000000E+000	79.7151	0.0000000E+000	0.0000000E+000	0.0000000E+000	-79.7151	0.0000000E+000	0.0000000E+000	0.0000000E+000	-10.285	0.0000000E+000	0.0000000E+000	0.0000000E+000	10.285	5.51087	79.7151	0.000000000000000E+000	-4.93209e-05	4.0208e-09	-4.9325e-05	3.88049	305260	24.8858	305285
0.0401878	15.4232	2.95508	15.7038	-10.8464	240.551	3.88017	-0.012711	1.34016e+06	47455.5	1	11	0.00509592	0.000324503	0	-0.00245936	-0.000316324	9.51446e-07	-34.4272	0.00293201	0.00241845	0.00165764	-10.8506	15.7065	15.4257	2.95673	0.0625413	0.0119829	0.0636789	10.8464	4.74555e+07	2.47682e+08	2.52187e+08	-79.1536	0.0000000E+000	0.0000000E+000	0.0000000E+000	79.1536	0.0000000E+000	0.0000000E+000	0.0000000E+000	-79.1536	0.0000000E+000	0.0000000E+000	0.0000000E+000	-10.8464	0.0000000E+000	0.0000000E+000	0.0000000E+000	10.8464	5.21923	79.1536	0.000000000000000E+000	-4.93209e-05	4.0208e-09	-4.9325e-05	3.88049	305260	24.8858	305285
0.0200939	17.0074	3.98065	17.467	-13.1732	240.553	3.88017	-0.012711	1.98977e+06	103341	1	11	0.00509421	0.000291647	0	-0.00245936	-0.000316324	7.39328e-07	-33.4197	0.00253501	0.00211586	0.0013962	-13.1761	17.4694	17.0095	3.98205	0.0557443	0.0130472	0.0572508	13.1732	1.03341e+08	4.41526e+08	4.53459e+08	-76.8268	0.0000000E+000	0.0000000E+000	0.0000000E+000	76.8268	0.0000000E+000	0.0000000E+000	0.0000000E+000	-76.8268	0.0000000E+000	0.0000000E+000	0.0000000E+000	-13.1732	0.0000000E+000	0.0000000E+000	0.0000000E+000	13.1732	4.27251	76.8268	0.000000000000000E+000	-4.93209e-05	4.0208e-09	-4.9325e-05	3.88049	305260	24.8858	305285
0.00796479	19.3529	4.43942	19.8555	-12.9198	20329.4	3.88018	-0.00133721	4.50111e+06	225014	1	11	0.00508788	0.000256245	0	-0.035904	4.64095e-05	1.38813e-07	96.271	0.000541719	-5.91731e-05	-0.000538477	-12.9183	19.8554	19.3528	4.43888	0.0490888	0.0112606	0.0503638	12.9198	2.25014e+08	9.80908e+08	1.00639e+09	-77.0802	0.0000000E+000	0.0000000E+000	0.0000000E+000	77.0802	0.0000000E+000	0.0000000E+000	0.0000000E+000	-77.0802	0.0000000E+000	0.0000000E+000	0.0000000E+000	-12.9198	0.0000000E+000	0.0000000E+000	0.0000000E+000	12.9198	4.35932	77.0802	-0.0334447	-5.18861e-06	-6.2059e-11	-5.18854e-06	3.88014	2.90171e+06	34.7063	2.90167e+06
0.00497799	20.5861	4.76614	21.1307	-13.0356	20329.4	3.88018	-0.00133721	6.70809e+06	341277	1	11	0.00509616	0.000241174	0	-0.035904	4.64095e-05	4.46841e-07	-96.4448	0.00185278	-0.000207968	0.00184107	-13.0406	21.1309	20.5859	4.76798	0.0461051	0.0106743	0.0473246	13.0356	3.41277e+08	1.47406e+09	1.51305e+09	-76.9644	0.0000000E+000	0.0000000E+000	0.0000000E+000	76.9644	0.0000000E+000	0.0000000E+000	0.0000000E+000	-76.9644	0.0000000E+000	0.0000000E+000	0.0000000E+000	-13.0356	0.0000000E+000	0.0000000E+000	0.0000000E+000	13.0356	4.31924	76.9644	0.000000000000000E+000	-5.18861e-06	-6.2059e-11	-5.18854e-06	3.88014	2.90171e+06	34.7063	2.90167e+06
0.00318591	21.4188	6.28158	22.3209	-16.3451	20329.5	3.88018	-0.00133721	7.95274e+06	629842	1	11	0.00509985	0.000228479	0	-0.035904	4.64095e-05	5.46238e-07	-127.389	0.00239076	-0.00145173	0.00189953	-16.3508	22.32	21.4173	6.28348	0.0429904	0.012608	0.0448011	16.3451	6.29842e+08	2.14762e+09	2.23807e+09	-73.6549	0.0000000E+000	0.0000000E+000	0.0000000E+000	73.6549	0.0000000E+000	0.0000000E+000	0.0000000E+000	-73.6549	0.0000000E+000	0.0000000E+000	0.0000000E+000	-16.3451	0.0000000E+000	0.0000000E+000	0.0000000E+000	16.3451	3.40978	73.6549	0.000000000000000E+000	-5.18861e-06	-6.2059e-11	-5.18854e-06	3.88014	2.90171e+06	34.7063	2.90167e+06
0.0019912	22.1583	7.87157	23.5149	-19.5572	20329.5	3.88018	-0.00133721	1.01542e+07	1.13784e+06	1	11	0.00510123	0.000216936	0	-0.035904	4.64095e-05	6.11734e-07	-61.1175	0.00281988	0.00136204	0.00246912	-19.5618	23.517	22.1596	7.87403	0.0400728	0.0142356	0.0425263	19.5572	1.13784e+09	3.20299e+09	3.39909e+09	-70.4428	0.0000000E+000	0.0000000E+000	0.0000000E+000	70.4428	0.0000000E+000	0.0000000E+000	0.0000000E+000	-70.4428	0.0000000E+000	0.0000000E+000	0.0000000E+000	-19.5572	0.0000000E+000	0.0000000E+000	0.0000000E+000	19.5572	2.81497	70.4428	0.000000000000000E+000	-5.18861e-06	-6.2059e-11	-5.18854e-06	3.88014	2.90171e+06	34.7063	2.90167e+06
0.00129428	21.8116	10.5362	24.2231	-25.7832	20329.5	3.88018	-0.00133721	1.1671e+07	2.2081e+06	1	11	0.00510133	0.000210598	0	-0.035904	4.64095e-05	4.41393e-07	-72.8409	0.0020959	0.000618347	0.00200261	-25.7868	24.2245	21.8122	10.5382	0.0371731	0.0179567	0.0412829	25.7832	2.2081e+09	4.5711e+09	5.07648e+09	-64.2168	0.0000000E+000	0.0000000E+000	0.0000000E+000	64.2168	0.0000000E+000	0.0000000E+000	0.0000000E+000	-64.2168	0.0000000E+000	0.0000000E+000	0.0000000E+000	-25.7832	0.0000000E+000	0.0000000E+000	0.0000000E+000	25.7832	2.07015	64.2168	0.000000000000000E+000	-5.18861e-06	-6.2059e-11	-5.18854e-06	3.88014	2.90171e+06	34.7063	2.90167e+06
0.000796479	23.9688	15.4746	28.5301	-32.8468	20329.5	3.88018	-0.00133721	1.2913e+07	3.79891e+06	1	11	0.00510076	0.000178786	0	-0.035904	4.64095e-05	5.73283e-07	-16.894	0.00320654	0.00306816	0.000931828	-32.8451	28.5331	23.9718	15.4755	0.029447	0.0190114	0.0350507	32.8468	3.79891e+09	5.88419e+09	7.00395e+09	-57.1532	0.0000000E+000	0.0000000E+000	0.0000000E+000	57.1532	0.0000000E+000	0.0000000E+000	0.0000000E+000	-57.1532	0.0000000E+000	0.0000000E+000	0.0000000E+000	-32.8468	0.0000000E+000	0.0000000E+000	0.0000000E+000	32.8468	1.54891	57.1532	0.000000000000000E+000	-5.18861e-06	-6.2059e-11	-5.18854e-06	3.88014	2.90171e+06	34.7063	2.90167e+06
0.000497799	24.0649	21.8692	32.5174	-42.2633	20329.5	3.88018	-0.00133721	1.46195e+07	6.61253e+06	1	11	0.00510154	0.000156886	0	-0.035904	4.64095e-05	5.06569e-07	-134.871	0.00322889	-0.00227801	0.00228832	-42.269	32.5173	24.0626	21.8715	0.0227589	0.0206824	0.0307528	42.2633	6.61253e+09	7.27643e+09	9.83219e+09	-47.7367	0.0000000E+000	0.0000000E+000	0.0000000E+000	47.7367	0.0000000E+000	0.0000000E+000	0.0000000E+000	-47.7367	0.0000000E+000	0.0000000E+000	0.0000000E+000	-42.2633	0.0000000E+000	0.0000000E+000	0.0000000E+000	42.2633	1.1004	47.7367	0.000000000000000E+000	-5.18861e-06	-6.2059e-11	-5.18854e-06	3.88014	2.90171e+06	34.7063	2.90167e+06
0.000298679	23.131	33.9911	41.115	-55.7646	20329.5	3.88018	-0.00133721	1.56765e+07	1.07147e+07	1	11	0.005102	0.000124091	0	-0.035904	4.64095e-05	7.98366e-07	-22.9606	0.00643371	0.00592399	0.00250978	-55.7597	41.1204	23.137	33.9936	0.0136834	0.0201078	0.024322	55.7646	1.07147e+10	7.29138e+09	1.29603e+10	-34.2354	0.0000000E+000	0.0000000E+000	0.0000000E+000	34.2354	0.0000000E+000	0.0000000E+000	0.0000000E+000	-34.2354	0.0000000E+000	0.0000000E+000	0.0000000E+000	-55.7646	0.0000000E+000	0.0000000E+000	0.0000000E+000	55.7646	0.680503	34.2354	0.000000000000000E+000	-5.18861e-06	-6.2059e-11	-5.18854e-06	3.88014	2.90171e+06	34.7063	2.90167e+06
0.00019912	21.5725	50.6607	55.0625	-66.9346	20329.5	3.88018	-0.00133721	1.57774e+07	1.33557e+07	1	11	0.0051022	9.2662e-05	0	-0.035904	4.64095e-05	1.60931e-06	-77.2356	0.0173675	0.0038372	0.0169383	-66.9378	55.0796	21.5763	50.6776	0.00711522	0.0167094	0.0181612	66.9346	1.33557e+10	5.68715e+09	1.45161e+10	-23.0654	0.0000000E+000	0.0000000E+000	0.0000000E+000	23.0654	0.0000000E+000	0.0000000E+000	0.0000000E+000	-23.0654	0.0000000E+000	0.0000000E+000	0.0000000E+000	-66.9346	0.0000000E+000	0.0000000E+000	0.0000000E+000	66.9346	0.425822	23.0654	0.000000000000000E+000	-5.18861e-06	-6.2059e-11	-5.18854e-06	3.88014	2.90171e+06	34.7063	2.90167e+06

9.95598e-05	26.3288	137.971	140.461	-79.1963	20329.5	3.88018	-0.00133721	1.15864e+07	1.11793e+07	1	11	0.00509945	3.63051e-05	0	-0.035904	4.64095e-05	1.34577e-06	-38.5077	0.0370685	0.029007	0.0230796	-79.1864	140.489	26.3578	137.994	0.0013345	0.00699322	0.00711941	79.1963	1.11793e+10	2.13332e+09	1.1381e+10	-10.8037	0.0000000E+000	0.0000000E+000	0.0000000E+000	10.8037	0.0000000E+000	0.0000000E+000	0.0000000E+000	-10.8037	0.0000000E+000	0.0000000E+000	0.0000000E+000	-79.1963	0.0000000E+000	0.0000000E+000	0.0000000E+000	79.1963	0.190828	10.8037	0.000000000000000E+000	-5.18861e-06	-6.2059e-11	-5.18854e-06	3.88014	2.90171e+06	34.7063	2.90167e+06