File: txt/19189_R297_UC94_SOC50_C06.mpt
EC-Lab ASCII FILE
Nb header lines : 65

Potentio Electrochemical Impedance Spectroscopy

Run on channel : 6 (SN 65795)
Grouped channel(s) : 5, 6, 7, 8
User :
CE vs. WE compliance from -10 V to 10 V
Electrode connection : standard
Potential control : Ewe
Ewe ctrl range : min = -10.00 V, max = 10.00 V
Safety Limits :
	Do not start on E overload
Acquisition started on : 11/11/2025 16:20:58.367
Loaded Setting File :  C:\Users\Celltest\OneDrive - store-dot.com\Documents\EC-Lab\Data\@Biologic Test Protocols\cathode half cell EIS SOC50.mps
Saved on :
	File : 19187_R297_UC94_SOC50_C06.mpr
	Directory : C:\Users\Celltest\OneDrive - store-dot.com\Documents\EC-Lab\Data\Michael\
	Host : 169.254.61.224
Device : VMP-3e (SN .003165)
Address : USB
EC-LAB for windows v11.62 (software)
Internet server v27.00 (firmware)
Command interpretor v12.03 (firmware)
Electrode material :
Initial state :
Electrolyte :
Comments :
Electrode surface area : 0.001 cm²
Characteristic mass : 0.001 g
Equivalent Weight : 0.000 g/eq.
Density : 0.000 g/cm3
Volume (V) : 0.001 cm³
Record Ece
Cycle Definition : Charge/Discharge alternance
Mode                Multi sine
E (V)               0.0000
vs.                 Eoc
tE (h:m:s)          0:00:0.0000
record              0
dI                  0.000
unit dI             mA
dt (s)              0.000
fi                  1.000
unit fi             MHz
ff                  0.100
unit ff             mHz
Nd                  10
Points              per decade
spacing             Logarithmic
Va (mV)             5.0
pw                  0.10
Na                  2
corr                0
E range min (V)     -10.000
E range max (V)     10.000
I Range             Auto
Bandwidth           5
nc cycles           0
goto Ns'            0
nr cycles           0
inc. cycle          0

freq/Hz	Re(Z)/Ohm	-Im(Z)/Ohm	|Z|/Ohm	Phase(Z)/deg	time/s	<Ewe>/V	<I>/mA	Cs/µF	Cp/µF	cycle number	I Range	|Ewe|/V	|I|/A	Ns	(Q-Qo)/mA.h	<Ece>/V	|Ece|/V	Phase(Zce)/deg	|Zce|/Ohm	Re(Zce)/Ohm	-Im(Zce)/Ohm	Phase(Zwe-ce)/deg	|Zwe-ce|/Ohm	Re(Zwe-ce)/Ohm	-Im(Zwe-ce)/Ohm	Re(Y)/Ohm-1	Im(Y)/Ohm-1	|Y|/Ohm-1	Phase(Y)/deg	Re(C)/nF	Im(C)/nF	|C|/nF	Phase(C)/deg	Re(M)	Im(M)	|M|	Phase(M)/deg	Re(Permittivity)	Im(Permittivity)	|Permittivity|	Phase(Permittivity)/deg	Re(Resistivity)/Ohm.cm	Im(Resistivity)/Ohm.cm	|Resistivity|/Ohm.cm	Phase(Resistivity)/deg	Re(Conductivity)/mS/cm	Im(Conductivity)/mS/cm	|Conductivity|/mS/cm	Phase(Conductivity)/deg	Tan(Delta)	Loss Angle(Delta)/deg	dq/mA.h	Pwe/W	Pce/W	Pwe-ce/W	<Ewe-Ece>/V	Rwe/Ohm	Rce/Ohm	Rwe-ce/Ohm		Ewe-Ece/V
1.00002e+06	2.28767	2.60568	3.46742	-48.7183	2.23452	3.87773	-0.0051098	0.0610789	0.0344922	1	10	0.000197333	5.69107e-05	0	-1.53949e-05	2.58056e-05	0.000196426	-61.7825	3.45148	1.63193	3.0413	-55.2353	6.87398	3.9196	5.64698	0.190275	0.216725	0.288399	48.7183	34.4922	30.2826	45.8993	-41.2817	0.0000000E+000	0.0000000E+000	0.0000000E+000	41.2817	0.0000000E+000	0.0000000E+000	0.0000000E+000	-41.2817	0.0000000E+000	0.0000000E+000	0.0000000E+000	-48.7183	0.0000000E+000	0.0000000E+000	0.0000000E+000	48.7183	0.877956	41.2817	-1.53949e-05	-1.98144e-05	-1.31861e-10	-1.98143e-05	3.8777	758880	5.05022	758875
630957	0.312762	0.0222439	0.313552	-4.06808	3.1776	3.87754	0.0572463	11.3399	0.0570706	1	9	9.55425e-05	0.00030471	0	-9.67311e-06	4.49036e-05	0.00011694	-89.5664	0.383776	0.00290428	0.383765	-52.1354	0.514284	0.315666	0.406008	3.18123	0.226252	3.18926	4.06808	57.0706	802.445	804.472	-85.9319	0.0000000E+000	0.0000000E+000	0.0000000E+000	85.9319	0.0000000E+000	0.0000000E+000	0.0000000E+000	-85.9319	0.0000000E+000	0.0000000E+000	0.0000000E+000	-4.06808	0.0000000E+000	0.0000000E+000	0.0000000E+000	4.06808	14.0606	85.9319	1.98403e-06	0.000221975	2.57057e-09	0.000221972	3.8775	67734.4	0.784394	67733.6
398103	0.535383	-0.0282123	0.536126	3.01644	4.17752	3.87766	0.0740088	-14.1705	-0.0392401	1	9	0.000449916	0.000839198	0	5.28916e-06	8.30997e-05	2.92551e-05	143.359	0.0348608	-0.0279718	-0.0208051	5.51782	0.509773	0.507411	-0.0490174	1.86265	-0.0981534	1.86523	-3.01644	-39.24	744.656	745.689	-93.0164	0.0000000E+000	0.0000000E+000	0.0000000E+000	93.0164	0.0000000E+000	0.0000000E+000	0.0000000E+000	-93.0164	0.0000000E+000	0.0000000E+000	0.0000000E+000	3.01644	0.0000000E+000	0.0000000E+000	0.0000000E+000	-3.01644	18.9769	86.9836	6.84053e-06	0.000286981	6.15011e-09	0.000286975	3.87758	52394.6	1.12284	52393.5
251206	0.655407	0.139496	0.670088	-12.0154	4.94355	3.87754	0.0483436	4.54181	0.196828	1	9	0.0014924	0.00222717	0	1.78602e-05	-0.000184273	7.49065e-05	64.6798	0.033633	0.014384	-0.0304019	-9.25095	0.678618	0.669791	0.109094	1.45965	0.310669	1.49234	12.0154	196.828	924.778	945.492	-77.9846	0.0000000E+000	0.0000000E+000	0.0000000E+000	77.9846	0.0000000E+000	0.0000000E+000	0.0000000E+000	-77.9846	0.0000000E+000	0.0000000E+000	0.0000000E+000	-12.0154	0.0000000E+000	0.0000000E+000	0.0000000E+000	12.0154	4.6984	77.9846	7.29108e-06	0.000187454	-8.90841e-09	0.000187463	3.87772	80207.9	3.81173	80211.7
158486	0.729093	0.256443	0.772878	-19.3783	5.58752	3.87751	0.0492005	3.91595	0.43112	1	9	0.00489927	0.00633899	0	1.82417e-05	-0.000203371	0.000108244	62.3101	0.017076	0.00793496	-0.0151203	-18.1298	0.77553	0.737028	0.241323	1.22057	0.429309	1.29387	19.3783	431.12	1225.72	1299.33	-70.6217	0.0000000E+000	0.0000000E+000	0.0000000E+000	70.6217	0.0000000E+000	0.0000000E+000	0.0000000E+000	-70.6217	0.0000000E+000	0.0000000E+000	0.0000000E+000	-19.3783	0.0000000E+000	0.0000000E+000	0.0000000E+000	19.3783	2.8431	70.6217	-1.61085e-06	0.000190775	-1.00059e-08	0.000190785	3.87771	78810.3	4.13351	78814.5
100004	0.819241	0.342823	0.888078	-22.7076	6.35353	3.87743	0.0408937	4.64231	0.691786	1	9	0.00531698	0.00598707	0	3.70015e-06	2.58056e-05	5.33828e-05	72.3811	0.00891636	0.00269884	-0.0084981	-22.1341	0.887332	0.821939	0.334325	1.03875	0.434678	1.12603	22.7076	691.786	1653.15	1792.06	-67.2924	0.0000000E+000	0.0000000E+000	0.0000000E+000	67.2924	0.0000000E+000	0.0000000E+000	0.0000000E+000	-67.2924	0.0000000E+000	0.0000000E+000	0.0000000E+000	-22.7076	0.0000000E+000	0.0000000E+000	0.0000000E+000	22.7076	2.38969	67.2924	-1.7537e-05	0.000158563	1.05529e-09	0.000158562	3.87741	94817.3	0.63104	94816.6
63093.8	0.927983	0.431257	1.0233	-24.9255	7.12156	3.87743	0.0360512	5.84922	1.03888	1	9	0.00530975	0.00518887	0	2.61006e-05	-5.05865e-05	3.81522e-05	73.9314	0.00735271	0.00203514	-0.00706544	-24.5182	1.02219	0.930018	0.424191	0.886212	0.411845	0.977235	24.9255	1038.88	2235.48	2465.09	-65.0745	0.0000000E+000	0.0000000E+000	0.0000000E+000	65.0745	0.0000000E+000	0.0000000E+000	0.0000000E+000	-65.0745	0.0000000E+000	0.0000000E+000	0.0000000E+000	-24.9255	0.0000000E+000	0.0000000E+000	0.0000000E+000	24.9255	2.15181	65.0745	-1.76654e-07	0.000139786	-1.82371e-09	0.000139788	3.87748	107553	1.40319	107555
39814.1	1.05472	0.522688	1.17713	-26.3617	7.88752	3.87741	0.0439482	7.64788	1.50792	1	9	0.00523294	0.00444551	0	3.54039e-05	-0.000126979	1.60446e-05	47.2489	0.00360918	0.00244996	-0.00265025	-26.1933	1.17815	1.05717	0.520038	0.761181	0.37722	0.849524	26.3617	1507.92	3042.79	3395.94	-63.6383	0.0000000E+000	0.0000000E+000	0.0000000E+000	63.6383	0.0000000E+000	0.0000000E+000	0.0000000E+000	-63.6383	0.0000000E+000	0.0000000E+000	0.0000000E+000	-26.3617	0.0000000E+000	0.0000000E+000	0.0000000E+000	26.3617	2.01787	63.6383	6.09425e-06	0.000170405	-5.58049e-09	0.000170411	3.87753	88226.7	2.88928	88229.6
25116.9	1.21634	0.627195	1.36852	-27.2775	8.65356	3.87739	0.0325124	10.103	2.12204	1	9	0.00523082	0.00382224	0	4.92429e-05	0.000102198	1.21161e-05	48.5553	0.00316989	0.00209814	-0.00237614	-27.1489	1.3693	1.21844	0.624819	0.649458	0.334887	0.730715	27.2775	2122.04	4115.33	4630.22	-62.7225	0.0000000E+000	0.0000000E+000	0.0000000E+000	62.7225	0.0000000E+000	0.0000000E+000	0.0000000E+000	-62.7225	0.0000000E+000	0.0000000E+000	0.0000000E+000	-27.2775	0.0000000E+000	0.0000000E+000	0.0000000E+000	27.2775	1.93933	62.7225	4.31105e-06	0.000126063	3.3227e-09	0.00012606	3.87729	119259	3.14335	119256
15847.7	1.3958	0.738737	1.57924	-27.8904	9.42152	3.87739	0.0316557	13.5945	2.97475	1	9	0.00517675	0.00327801	0	5.35867e-05	-1.23905e-05	7.69475e-06	70.1799	0.00234738	0.000795923	-0.00220833	-27.806	1.57891	1.39659	0.736529	0.559666	0.296208	0.633218	27.8904	2974.75	5620.61	6359.27	-62.1096	0.0000000E+000	0.0000000E+000	0.0000000E+000	62.1096	0.0000000E+000	0.0000000E+000	0.0000000E+000	-62.1096	0.0000000E+000	0.0000000E+000	0.0000000E+000	-27.8904	0.0000000E+000	0.0000000E+000	0.0000000E+000	27.8904	1.88944	62.1096	5.24894e-06	0.000122741	-3.92228e-10	0.000122742	3.8774	122486	0.391414	122487
10002.2	1.61008	0.865796	1.8281	-28.2684	10.1875	3.87739	0.0290481	18.3784	4.12228	1	9	0.00514662	0.00281527	0	5.92733e-05	0.000216786	4.5941e-06	83.5687	0.00163185	0.000182785	-0.00162158	-28.2209	1.8275	1.61026	0.864174	0.481777	0.259068	0.547015	28.2684	4122.27	7666.01	8704.07	-61.7316	0.0000000E+000	0.0000000E+000	0.0000000E+000	61.7316	0.0000000E+000	0.0000000E+000	0.0000000E+000	-61.7316	0.0000000E+000	0.0000000E+000	0.0000000E+000	-28.2684	0.0000000E+000	0.0000000E+000	0.0000000E+000	28.2684	1.85966	61.7316	1.74775e-06	0.000112631	6.29723e-09	0.000112625	3.87717	133481	7.46299	133474
6309.38	1.85792	1.0174	2.11825	-28.7051	10.8315	3.87738	0.0368334	24.7938	5.71966	1	9	0.00530576	0.00250479	0	6.0222e-05	0.000121296	7.50641e-06	-107.96	0.00299682	-0.000924064	0.0028508	-28.7847	2.11881	1.857	1.02025	0.414071	0.226745	0.472089	28.7051	5719.66	10445	11908.5	-61.2949	0.0000000E+000	0.0000000E+000	0.0000000E+000	61.2949	0.0000000E+000	0.0000000E+000	0.0000000E+000	-61.2949	0.0000000E+000	0.0000000E+000	0.0000000E+000	-28.7051	0.0000000E+000	0.0000000E+000	0.0000000E+000	28.7051	1.82615	61.2949	-2.31872e-07	0.000142817	4.46773e-09	0.000142813	3.87726	105268	3.2931	105265
3983.6	2.15618	1.21726	2.47605	-29.4466	11.394	3.87736	0.00975264	32.8217	7.93245	1	9	0.00536234	0.00216568	0	6.47932e-05	-8.87826e-05	5.98606e-06	40.6514	0.00276405	0.00209705	-0.00180066	-29.3865	2.477	2.15828	1.21546	0.351695	0.198547	0.403869	29.4466	7932.45	14051.1	16135.6	-60.5534	0.0000000E+000	0.0000000E+000	0.0000000E+000	60.5534	0.0000000E+000	0.0000000E+000	0.0000000E+000	-60.5534	0.0000000E+000	0.0000000E+000	0.0000000E+000	-29.4466	0.0000000E+000	0.0000000E+000	0.0000000E+000	29.4466	1.77134	60.5534	7.88635e-07	3.78145e-05	-8.65865e-10	3.78154e-05	3.87745	397570	9.10344	397579
2510.8	2.48472	1.39844	2.85123	-29.3715	12.2188	3.8773	0.0128816	45.3277	10.9041	1	9	0.0051796	0.00181662	0	6.42549e-05	6.40017e-05	9.79204e-06	10.5519	0.00539024	0.00529909	-0.000987096	-29.3021	2.85536	2.49002	1.39745	0.305643	0.172021	0.350726	29.3715	10904.1	19374.1	22231.9	-60.6285	0.0000000E+000	0.0000000E+000	0.0000000E+000	60.6285	0.0000000E+000	0.0000000E+000	0.0000000E+000	-60.6285	0.0000000E+000	0.0000000E+000	0.0000000E+000	-29.3715	0.0000000E+000	0.0000000E+000	0.0000000E+000	29.3715	1.77678	60.6285	2.34623e-06	4.9946e-05	8.24446e-10	4.99452e-05	3.87724	300995	4.96845	300990
1585.51	2.88495	1.676	3.33645	-30.1542	13.1208	3.87731	0.00323388	59.8933	15.1132	1	9	0.00500976	0.00150152	0	6.63742e-05	0.00017859	2.84205e-05	22.7919	0.0189278	0.0174498	-0.00733232	-29.8957	3.34789	2.9024	1.66867	0.25916	0.150558	0.29972	30.1542	15113.2	26014.8	30086.2	-59.8458	0.0000000E+000	0.0000000E+000	0.0000000E+000	59.8458	0.0000000E+000	0.0000000E+000	0.0000000E+000	-59.8458	0.0000000E+000	0.0000000E+000	0.0000000E+000	-30.1542	0.0000000E+000	0.0000000E+000	0.0000000E+000	30.1542	1.72133	59.8458	-3.09457e-07	1.25388e-05	5.77539e-10	1.25382e-05	3.87713	1.19896e+06	55.2246	1.19891e+06
1000.32	3.39088	1.97326	3.92324	-30.1964	14.2678	3.87732	-0.039178	80.6301	20.3974	1	10	0.00502959	0.001282	0	5.64365e-05	-0.000317959	7.69138e-06	62.6722	0.00599953	0.00275426	-0.00532995	-30.1089	3.92295	3.39364	1.96793	0.220304	0.128202	0.254891	30.1964	20397.4	35051.2	40554.2	-59.8036	0.0000000E+000	0.0000000E+000	0.0000000E+000	59.8036	0.0000000E+000	0.0000000E+000	0.0000000E+000	-59.8036	0.0000000E+000	0.0000000E+000	0.0000000E+000	-30.1964	0.0000000E+000	0.0000000E+000	0.0000000E+000	30.1964	1.71842	59.8036	-3.91331e-06	-0.000151906	1.2457e-08	-0.000151918	3.87764	98966.9	8.11576	98975
631.01	4.03807	2.32287	4.65852	-29.9093	15.1685	3.87733	-0.0389469	108.582	26.9969	1	10	0.00493345	0.00105902	0	4.57186e-05	6.70757e-06	7.76005e-06	0.64324	0.0073276	0.00732714	-8.22627e-05	-29.8636	4.66483	4.0454	2.32279	0.186071	0.107036	0.214661	29.9093	26996.9	46931.4	54142.3	-60.0907	0.0000000E+000	0.0000000E+000	0.0000000E+000	60.0907	0.0000000E+000	0.0000000E+000	0.0000000E+000	-60.0907	0.0000000E+000	0.0000000E+000	0.0000000E+000	-29.9093	0.0000000E+000	0.0000000E+000	0.0000000E+000	29.9093	1.7384	60.0907	-5.62525e-06	-0.00015101	-2.61239e-10	-0.00015101	3.87732	99554.1	0.172223	99553.9
398.089	4.8735	2.63771	5.54153	-28.4238	16.0698	3.87734	-0.0365358	151.57	34.3405	1	10	0.00486902	0.000878643	0	3.59696e-05	2.58056e-05	3.57919e-06	-14.4733	0.00407355	0.00394427	0.00101809	-28.4136	5.54548	4.87745	2.63872	0.158702	0.0858949	0.180456	28.4238	34340.5	63448.6	72145.7	-61.5762	0.0000000E+000	0.0000000E+000	0.0000000E+000	61.5762	0.0000000E+000	0.0000000E+000	0.0000000E+000	-61.5762	0.0000000E+000	0.0000000E+000	0.0000000E+000	-28.4238	0.0000000E+000	0.0000000E+000	0.0000000E+000	28.4238	1.84763	61.5762	-5.23201e-06	-0.000141662	-9.42829e-10	-0.000141661	3.87731	106124	0.70631	106123
251.044	5.89878	2.79118	6.52582	-25.3226	16.9681	3.87733	-0.0377097	227.134	41.5516	1	10	0.00484103	0.000741827	0	2.74075e-05	-6.96846e-05	1.05776e-05	-45.4057	0.0142589	0.0100109	0.0101537	-25.3655	6.53921	5.90879	2.80134	0.138513	0.0655418	0.153237	25.3226	41551.6	87813.6	97148.2	-64.6774	0.0000000E+000	0.0000000E+000	0.0000000E+000	64.6774	0.0000000E+000	0.0000000E+000	0.0000000E+000	-64.6774	0.0000000E+000	0.0000000E+000	0.0000000E+000	-25.3226	0.0000000E+000	0.0000000E+000	0.0000000E+000	25.3226	2.11336	64.6774	-4.51845e-06	-0.000146213	2.62779e-09	-0.000146216	3.8774	102820	1.84792	102822
158.428	6.97191	2.6562	7.46076	-20.8561	17.8729	3.87733	-0.0365955	378.204	47.9382	1	10	0.00482403	0.000646587	0	1.9093e-05	-5.05865e-05	1.08038e-05	20.5651	0.0167089	0.0156441	-0.00586936	-20.7714	7.4733	6.98755	2.65033	0.125252	0.0477194	0.134035	20.8561	47938.2	125827	134649	-69.1439	0.0000000E+000	0.0000000E+000	0.0000000E+000	69.1439	0.0000000E+000	0.0000000E+000	0.0000000E+000	-69.1439	0.0000000E+000	0.0000000E+000	0.0000000E+000	-20.8561	0.0000000E+000	0.0000000E+000	0.0000000E+000	20.8561	2.62477	69.1439	-4.44928e-06	-0.000141893	1.85124e-09	-0.000141895	3.87738	105951	1.38232	105953
100.032	7.87108	2.26954	8.19175	-16.0843	18.7719	3.87733	-0.0385221	701.041	53.8104	1	10	0.00481592	0.000587899	0	1.01088e-05	2.58056e-05	4.08824e-06	-94.0555	0.00695397	-0.000491807	0.00693656	-16.1319	8.1932	7.87059	2.27648	0.117295	0.0338209	0.122074	16.0843	53810.4	186622	194225	-73.9157	0.0000000E+000	0.0000000E+000	0.0000000E+000	73.9157	0.0000000E+000	0.0000000E+000	0.0000000E+000	-73.9157	0.0000000E+000	0.0000000E+000	0.0000000E+000	-16.0843	0.0000000E+000	0.0000000E+000	0.0000000E+000	16.0843	3.46814	73.9157	-3.94279e-06	-0.000149363	-9.94086e-10	-0.000149362	3.87731	100652	0.669891	100651
63.0823	8.50361	1.79659	8.69132	-11.9297	19.6869	3.87734	-0.0361334	1404.31	60.0053	1	10	0.0048051	0.000552862	0	1.03236e-06	-6.96846e-05	8.10033e-06	-74.8228	0.0146516	0.00383588	0.0141406	-12.0156	8.69801	8.50744	1.81073	0.112572	0.0237836	0.115057	11.9297	60005.3	284017	290286	-78.0703	0.0000000E+000	0.0000000E+000	0.0000000E+000	78.0703	0.0000000E+000	0.0000000E+000	0.0000000E+000	-78.0703	0.0000000E+000	0.0000000E+000	0.0000000E+000	-11.9297	0.0000000E+000	0.0000000E+000	0.0000000E+000	11.9297	4.73319	78.0703	-4.8443e-06	-0.000140101	2.51794e-09	-0.000140104	3.8774	107306	1.92854	107308
39.8089	8.9432	1.34852	9.0443	-8.57488	20.5879	3.87735	-0.035444	2964.71	65.9094	1	10	0.00481409	0.000532279	0	-8.5989e-06	0.000140394	1.0171e-05	-67.3678	0.0191084	0.00735318	0.017637	-8.6783	9.05422	8.95055	1.36616	0.109331	0.0164857	0.110567	8.57488	65909.4	437102	442043	-81.4251	0.0000000E+000	0.0000000E+000	0.0000000E+000	81.4251	0.0000000E+000	0.0000000E+000	0.0000000E+000	-81.4251	0.0000000E+000	0.0000000E+000	0.0000000E+000	-8.57488	0.0000000E+000	0.0000000E+000	0.0000000E+000	8.57488	6.63186	81.4251	-4.62413e-06	-0.000137429	-4.97611e-09	-0.000137424	3.87721	109394	3.96101	109390
25.1044	9.17231	0.977461	9.22425	-6.08285	21.4671	3.87735	-0.0352278	6485.9	72.8295	1	10	0.0048025	0.000520639	0	-1.70092e-05	-6.96846e-05	1.08923e-05	29.6243	0.0209211	0.0181864	-0.0103415	-6.00715	9.24124	9.1905	0.96712	0.1078	0.0114878	0.10841	6.08285	72829.5	683418	687288	-83.9171	0.0000000E+000	0.0000000E+000	0.0000000E+000	83.9171	0.0000000E+000	0.0000000E+000	0.0000000E+000	-83.9171	0.0000000E+000	0.0000000E+000	0.0000000E+000	-6.08285	0.0000000E+000	0.0000000E+000	0.0000000E+000	6.08285	9.38381	83.9171	-4.47449e-06	-0.000136591	2.45484e-09	-0.000136593	3.87742	110065	1.97811	110067
15.8576	9.34996	0.758592	9.38068	-4.63843	22.345	3.87733	-0.0384811	13230.5	86.5213	1	10	0.00481883	0.000513698	0	-2.65316e-05	0.000197688	3.5348e-06	71.4435	0.00688109	0.00218983	-0.00652334	-4.59764	9.38234	9.35215	0.752069	0.106253	0.00862065	0.106602	4.63843	86521.4	1.06641e+06	1.06991e+06	-85.3616	0.0000000E+000	0.0000000E+000	0.0000000E+000	85.3616	0.0000000E+000	0.0000000E+000	0.0000000E+000	-85.3616	0.0000000E+000	0.0000000E+000	0.0000000E+000	-4.63843	0.0000000E+000	0.0000000E+000	0.0000000E+000	4.63843	12.3254	85.3616	-4.76161e-06	-0.000149204	-7.60725e-09	-0.000149196	3.87713	100759	5.13727	100754
10.0032	9.43946	0.588752	9.4578	-3.56899	23.3258	3.87733	-0.0376501	27023.9	104.721	1	10	0.00480752	0.000508313	0	-3.48476e-05	0.000159492	1.02468e-05	-52.8554	0.0201585	0.0121723	0.0160686	-3.66143	9.47097	9.45163	0.604821	0.105528	0.00658191	0.105733	3.56899	104721	1.67899e+06	1.68225e+06	-86.431	0.0000000E+000	0.0000000E+000	0.0000000E+000	86.431	0.0000000E+000	0.0000000E+000	0.0000000E+000	-86.431	0.0000000E+000	0.0000000E+000	0.0000000E+000	-3.56899	0.0000000E+000	0.0000000E+000	0.0000000E+000	3.56899	16.033	86.431	-7.06121e-06	-0.000145982	-6.00488e-09	-0.000145976	3.87717	102983	4.23616	102979
6.31058	9.52592	0.495148	9.53878	-2.9755	24.2503	3.87732	-0.0407431	50935	137.246	1	10	0.00480687	0.00050393	0	-4.52917e-05	0.000102198	9.46173e-06	-92.2059	0.0187759	-0.000722684	0.018762	-3.08826	9.53905	9.5252	0.51391	0.104694	0.00544188	0.104835	2.9755	137246	2.64041e+06	2.64398e+06	-87.0245	0.0000000E+000	0.0000000E+000	0.0000000E+000	87.0245	0.0000000E+000	0.0000000E+000	0.0000000E+000	-87.0245	0.0000000E+000	0.0000000E+000	0.0000000E+000	-2.9755	0.0000000E+000	0.0000000E+000	0.0000000E+000	2.9755	19.2385	87.0245	-8.88124e-06	-0.000157974	-4.16386e-09	-0.00015797	3.87722	95165.1	2.50834	95162.6
3.97785	9.64744	0.468665	9.65882	-2.78119	25.5034	3.87735	-0.0339779	85370.8	200.995	1	11	0.00481638	0.000498651	0	-5.52872e-05	6.70757e-06	5.93557e-06	121.751	0.0119033	-0.0062638	-0.0101219	-2.72299	9.65208	9.64118	0.458543	0.10341	0.00502359	0.103532	2.78119	200995	4.13748e+06	4.14236e+06	-87.2188	0.0000000E+000	0.0000000E+000	0.0000000E+000	87.2188	0.0000000E+000	0.0000000E+000	0.0000000E+000	-87.2188	0.0000000E+000	0.0000000E+000	0.0000000E+000	-2.78119	0.0000000E+000	0.0000000E+000	0.0000000E+000	2.78119	20.585	87.2188	-7.01409e-06	-0.000131744	-2.27909e-10	-0.000131744	3.87734	114114	0.19741	114114
2.51367	9.7163	0.488305	9.72856	-2.87705	27.063	3.87735	-0.0344236	129664	326.667	1	11	0.00480656	0.000494067	0	-7.90475e-05	8.30997e-05	6.14515e-06	63.4379	0.0124379	0.00556182	-0.0111251	-2.81001	9.73356	9.72186	0.47718	0.102661	0.00515934	0.10279	2.87705	326667	6.50002e+06	6.50822e+06	-87.1229	0.0000000E+000	0.0000000E+000	0.0000000E+000	87.1229	0.0000000E+000	0.0000000E+000	0.0000000E+000	-87.1229	0.0000000E+000	0.0000000E+000	0.0000000E+000	-2.87705	0.0000000E+000	0.0000000E+000	0.0000000E+000	2.87705	19.898	87.1229	-1.03347e-05	-0.000133472	-2.86059e-09	-0.000133469	3.87726	112636	2.41403	112634
1.58469	9.83019	0.565563	9.84645	-3.29278	29.4985	3.87736	-0.0339115	177581	585.867	1	11	0.00481128	0.000488631	0	-8.48028e-05	6.40017e-05	2.21521e-06	-32.3716	0.0045335	0.00382896	0.00242728	-3.3056	9.85041	9.83402	0.56799	0.101392	0.0058334	0.101559	3.29278	585867	1.01831e+07	1.01999e+07	-86.7072	0.0000000E+000	0.0000000E+000	0.0000000E+000	86.7072	0.0000000E+000	0.0000000E+000	0.0000000E+000	-86.7072	0.0000000E+000	0.0000000E+000	0.0000000E+000	-3.29278	0.0000000E+000	0.0000000E+000	0.0000000E+000	3.29278	17.3812	86.7072	-2.12456e-06	-0.000131487	-2.17039e-09	-0.000131485	3.87729	114338	1.88732	114336
1.00469	10.2367	0.641381	10.2568	-3.58518	240.317	3.87734	-0.0283797	246985	965.782	1	11	0.00500299	0.000487773	0	-0.00350689	6.40017e-05	6.88443e-07	-3.27621	0.0014114	0.00140909	8.06609e-05	-3.58513	10.2582	10.2381	0.641462	0.0973055	0.00609667	0.0974964	3.58518	965782	1.54143e+07	1.54445e+07	-86.4148	0.0000000E+000	0.0000000E+000	0.0000000E+000	86.4148	0.0000000E+000	0.0000000E+000	0.0000000E+000	-86.4148	0.0000000E+000	0.0000000E+000	0.0000000E+000	-3.58518	0.0000000E+000	0.0000000E+000	0.0000000E+000	3.58518	15.9604	86.4148	-0.00341227	-0.000110038	-1.81635e-09	-0.000110036	3.87728	136624	2.2552	136622
0.632957	10.3873	0.810423	10.4188	-4.46122	240.317	3.87734	-0.0283797	310266	1877.23	1	11	0.00501509	0.000481348	0	-0.00350689	6.40017e-05	8.00049e-07	0.726173	0.0016621	0.00166197	-2.10651e-05	-4.46039	10.4205	10.3889	0.810401	0.0956891	0.00746573	0.0959799	4.46122	1.87723e+06	2.40607e+07	2.41338e+07	-85.5388	0.0000000E+000	0.0000000E+000	0.0000000E+000	85.5388	0.0000000E+000	0.0000000E+000	0.0000000E+000	-85.5388	0.0000000E+000	0.0000000E+000	0.0000000E+000	-4.46122	0.0000000E+000	0.0000000E+000	0.0000000E+000	4.46122	12.8171	85.5388	0.000000000000000E+000	-0.000110038	-1.81635e-09	-0.000110036	3.87728	136624	2.2552	136622
0.401878	10.5487	1.01388	10.5974	-5.49005	240.318	3.87734	-0.0283797	390607	3575.34	1	11	0.00502841	0.000474496	0	-0.00350689	6.40017e-05	6.44318e-07	-2.06365	0.0013579	0.00135702	4.88974e-05	-5.48961	10.5987	10.5501	1.01393	0.0939303	0.009028	0.0943631	5.49005	3.57534e+06	3.71991e+07	3.73705e+07	-84.5099	0.0000000E+000	0.0000000E+000	0.0000000E+000	84.5099	0.0000000E+000	0.0000000E+000	0.0000000E+000	-84.5099	0.0000000E+000	0.0000000E+000	0.0000000E+000	-5.49005	0.0000000E+000	0.0000000E+000	0.0000000E+000	5.49005	10.4043	84.5099	0.000000000000000E+000	-0.000110038	-1.81635e-09	-0.000110036	3.87728	136624	2.2552	136622
0.251173	10.8362	1.32593	10.9171	-6.97609	240.318	3.87734	-0.0283797	477887	7049.47	1	11	0.00502871	0.000460629	0	-0.00350689	6.40017e-05	7.66541e-07	-13.7355	0.00166412	0.00161653	0.000395128	-6.97712	10.9187	10.8379	1.32633	0.0909216	0.0111253	0.0915998	6.97609	7.04947e+06	5.76121e+07	5.80418e+07	-83.0239	0.0000000E+000	0.0000000E+000	0.0000000E+000	83.0239	0.0000000E+000	0.0000000E+000	0.0000000E+000	-83.0239	0.0000000E+000	0.0000000E+000	0.0000000E+000	-6.97609	0.0000000E+000	0.0000000E+000	0.0000000E+000	6.97609	8.17254	83.0239	0.000000000000000E+000	-0.000110038	-1.81635e-09	-0.000110036	3.87728	136624	2.2552	136622
0.160751	11.1711	1.49742	11.2711	-7.63461	240.318	3.87734	-0.0283797	661186	11670.2	1	11	0.00502568	0.000445893	0	-0.00350689	6.40017e-05	8.29507e-07	-13.7148	0.00186033	0.00180729	0.000441062	-7.63561	11.2729	11.173	1.49786	0.0879363	0.0117873	0.0887228	7.63461	1.16702e+07	8.70632e+07	8.78419e+07	-82.3654	0.0000000E+000	0.0000000E+000	0.0000000E+000	82.3654	0.0000000E+000	0.0000000E+000	0.0000000E+000	-82.3654	0.0000000E+000	0.0000000E+000	0.0000000E+000	-7.63461	0.0000000E+000	0.0000000E+000	0.0000000E+000	7.63461	7.46028	82.3654	0.000000000000000E+000	-0.000110038	-1.81635e-09	-0.000110036	3.87728	136624	2.2552	136622
0.100469	11.5415	2.03924	11.7202	-10.0201	240.319	3.87734	-0.0283797	776816	23517	1	11	0.00502905	0.000429091	0	-0.00350689	6.40017e-05	7.65082e-07	8.56848	0.00178303	0.00176313	-0.000265656	-10.0173	11.7219	11.5432	2.03897	0.0840211	0.0148455	0.0853226	10.0201	2.3517e+07	1.33099e+08	1.35161e+08	-79.9799	0.0000000E+000	0.0000000E+000	0.0000000E+000	79.9799	0.0000000E+000	0.0000000E+000	0.0000000E+000	-79.9799	0.0000000E+000	0.0000000E+000	0.0000000E+000	-10.0201	0.0000000E+000	0.0000000E+000	0.0000000E+000	10.0201	5.65969	79.9799	0.000000000000000E+000	-0.000110038	-1.81635e-09	-0.000110036	3.87728	136624	2.2552	136622
0.0602816	12.1597	2.49672	12.4133	-11.6032	240.319	3.87734	-0.0283797	1.05746e+06	42778.7	1	11	0.00502165	0.000404537	0	-0.00350689	6.40017e-05	1.01218e-06	-29.1391	0.00250207	0.00218541	0.00121834	-11.6066	12.4157	12.1618	2.49794	0.0789123	0.0162029	0.0805585	11.6032	4.27787e+07	2.08343e+08	2.1269e+08	-78.3968	0.0000000E+000	0.0000000E+000	0.0000000E+000	78.3968	0.0000000E+000	0.0000000E+000	0.0000000E+000	-78.3968	0.0000000E+000	0.0000000E+000	0.0000000E+000	-11.6032	0.0000000E+000	0.0000000E+000	0.0000000E+000	11.6032	4.87025	78.3968	0.000000000000000E+000	-0.000110038	-1.81635e-09	-0.000110036	3.87728	136624	2.2552	136622
0.0401878	12.9109	2.87492	13.2271	-12.5535	240.319	3.87734	-0.0283797	1.37753e+06	65076.5	1	11	0.00502536	0.000379929	0	-0.00350689	6.40017e-05	9.42103e-07	-91.4303	0.00247968	-6.18943e-05	0.00247891	-12.564	13.2276	12.9108	2.8774	0.073795	0.0164323	0.0756024	12.5535	6.50765e+07	2.92249e+08	2.99407e+08	-77.4465	0.0000000E+000	0.0000000E+000	0.0000000E+000	77.4465	0.0000000E+000	0.0000000E+000	0.0000000E+000	-77.4465	0.0000000E+000	0.0000000E+000	0.0000000E+000	-12.5535	0.0000000E+000	0.0000000E+000	0.0000000E+000	12.5535	4.49086	77.4465	0.000000000000000E+000	-0.000110038	-1.81635e-09	-0.000110036	3.87728	136624	2.2552	136622
0.0200939	14.5287	4.1176	15.1009	-15.8234	240.32	3.87734	-0.0283797	1.92359e+06	143019	1	11	0.0050202	0.000332444	0	-0.00350689	6.40017e-05	8.04271e-07	56.0303	0.00241927	0.00135178	-0.00200638	-15.8146	15.1017	14.53	4.1156	0.0637119	0.0180567	0.0662212	15.8234	1.43019e+08	5.04634e+08	5.2451e+08	-74.1766	0.0000000E+000	0.0000000E+000	0.0000000E+000	74.1766	0.0000000E+000	0.0000000E+000	0.0000000E+000	-74.1766	0.0000000E+000	0.0000000E+000	0.0000000E+000	-15.8234	0.0000000E+000	0.0000000E+000	0.0000000E+000	15.8234	3.52843	74.1766	0.000000000000000E+000	-0.000110038	-1.81635e-09	-0.000110036	3.87728	136624	2.2552	136622
0.00796479	17.0875	4.74187	17.7332	-15.5097	20329.2	3.87734	0.000228728	4.21402e+06	301316	1	11	0.00501588	0.000282853	0	-0.0332805	-0.000165175	3.99183e-07	-162.629	0.00141128	-0.00134691	0.000421348	-15.5121	17.732	17.0861	4.74229	0.0543379	0.0150791	0.0563914	15.5097	3.01316e+08	1.0858e+09	1.12683e+09	-74.4903	0.0000000E+000	0.0000000E+000	0.0000000E+000	74.4903	0.0000000E+000	0.0000000E+000	0.0000000E+000	-74.4903	0.0000000E+000	0.0000000E+000	0.0000000E+000	-15.5097	0.0000000E+000	0.0000000E+000	0.0000000E+000	15.5097	3.60352	74.4903	-0.0297736	8.86856e-07	-3.77801e-11	8.86893e-07	3.8775	1.69517e+07	722.145	1.69525e+07
0.00497799	18.471	4.99239	19.1338	-15.1247	20329.2	3.87734	0.000228728	6.4041e+06	435986	1	11	0.00502181	0.000262458	0	-0.0332805	-0.000165175	7.20306e-07	-133.36	0.00274446	-0.00188429	0.00199538	-15.1319	19.1325	18.4691	4.99438	0.0504532	0.0136366	0.0522636	15.1247	4.35986e+08	1.61308e+09	1.67096e+09	-74.8753	0.0000000E+000	0.0000000E+000	0.0000000E+000	74.8753	0.0000000E+000	0.0000000E+000	0.0000000E+000	-74.8753	0.0000000E+000	0.0000000E+000	0.0000000E+000	-15.1247	0.0000000E+000	0.0000000E+000	0.0000000E+000	15.1247	3.69983	74.8753	0.000000000000000E+000	8.86856e-07	-3.77801e-11	8.86893e-07	3.8775	1.69517e+07	722.145	1.69525e+07
0.00318591	19.4778	6.52065	20.5403	-18.5092	20329.2	3.87734	0.000228728	7.66117e+06	772084	1	11	0.00502424	0.000244604	0	-0.0332805	-0.000165175	5.54811e-07	-145.688	0.0022682	-0.00187349	0.00127859	-18.5142	20.5389	19.4759	6.52193	0.0461665	0.0154553	0.0486848	18.5092	7.72084e+08	2.30628e+09	2.43209e+09	-71.4908	0.0000000E+000	0.0000000E+000	0.0000000E+000	71.4908	0.0000000E+000	0.0000000E+000	0.0000000E+000	-71.4908	0.0000000E+000	0.0000000E+000	0.0000000E+000	-18.5092	0.0000000E+000	0.0000000E+000	0.0000000E+000	18.5092	2.98709	71.4908	0.000000000000000E+000	8.86856e-07	-3.77801e-11	8.86893e-07	3.8775	1.69517e+07	722.145	1.69525e+07
0.0019912	20.3472	7.93286	21.8389	-21.2995	20329.2	3.87734	0.000228728	1.00757e+07	1.32945e+06	1	11	0.00503069	0.000230354	0	-0.0332805	-0.000165175	3.92348e-07	58.3578	0.00170324	0.000893542	-0.00145003	-21.2951	21.8392	20.3481	7.93141	0.0426621	0.0166329	0.0457898	21.2995	1.32945e+09	3.40995e+09	3.65995e+09	-68.7005	0.0000000E+000	0.0000000E+000	0.0000000E+000	68.7005	0.0000000E+000	0.0000000E+000	0.0000000E+000	-68.7005	0.0000000E+000	0.0000000E+000	0.0000000E+000	-21.2995	0.0000000E+000	0.0000000E+000	0.0000000E+000	21.2995	2.56493	68.7005	0.000000000000000E+000	8.86856e-07	-3.77801e-11	8.86893e-07	3.8775	1.69517e+07	722.145	1.69525e+07
0.00129428	19.9597	10.3238	22.4715	-27.3493	20329.2	3.87734	0.000228728	1.19112e+07	2.514e+06	1	11	0.00503201	0.000223928	0	-0.0332805	-0.000165175	1.37208e-06	71.9077	0.00612731	0.00190283	-0.00582436	-27.3339	22.4706	19.9616	10.3179	0.0395265	0.0204443	0.0445007	27.3493	2.514e+09	4.8605e+09	5.47217e+09	-62.6506	0.0000000E+000	0.0000000E+000	0.0000000E+000	62.6506	0.0000000E+000	0.0000000E+000	0.0000000E+000	-62.6506	0.0000000E+000	0.0000000E+000	0.0000000E+000	-27.3493	0.0000000E+000	0.0000000E+000	0.0000000E+000	27.3493	1.93338	62.6506	0.000000000000000E+000	8.86856e-07	-3.77801e-11	8.86893e-07	3.8775	1.69517e+07	722.145	1.69525e+07
0.000796479	22.2359	15.0008	26.8227	-34.0045	20329.2	3.87734	0.000228728	1.33208e+07	4.16634e+06	1	11	0.00502701	0.000187416	0	-0.0332805	-0.000165175	1.20934e-06	81.8364	0.00645272	0.000916288	-0.00638733	-33.992	26.8199	22.2368	14.9944	0.0309064	0.0208501	0.0372818	34.0045	4.16634e+09	6.17582e+09	7.44978e+09	-55.9955	0.0000000E+000	0.0000000E+000	0.0000000E+000	55.9955	0.0000000E+000	0.0000000E+000	0.0000000E+000	-55.9955	0.0000000E+000	0.0000000E+000	0.0000000E+000	-34.0045	0.0000000E+000	0.0000000E+000	0.0000000E+000	34.0045	1.48231	55.9955	0.000000000000000E+000	8.86856e-07	-3.77801e-11	8.86893e-07	3.8775	1.69517e+07	722.145	1.69525e+07
0.000497799	22.1676	20.9593	30.5073	-43.3951	20329.2	3.87734	0.000228728	1.52542e+07	7.20004e+06	1	11	0.00503039	0.000164891	0	-0.0332805	-0.000165175	5.60644e-07	94.5032	0.00340008	-0.000266954	-0.00338958	-43.3908	30.5048	22.1673	20.9559	0.0238184	0.02252	0.0327791	43.3951	7.20005e+09	7.61514e+09	1.048e+10	-46.6049	0.0000000E+000	0.0000000E+000	0.0000000E+000	46.6049	0.0000000E+000	0.0000000E+000	0.0000000E+000	-46.6049	0.0000000E+000	0.0000000E+000	0.0000000E+000	-43.3951	0.0000000E+000	0.0000000E+000	0.0000000E+000	43.3951	1.05765	46.6049	0.000000000000000E+000	8.86856e-07	-3.77801e-11	8.86893e-07	3.8775	1.69517e+07	722.145	1.69525e+07
0.000298679	21.1651	32.3085	38.6238	-56.7715	20329.2	3.87734	0.000228728	1.6493e+07	1.15404e+07	1	11	0.00503201	0.000130283	0	-0.0332805	-0.000165175	4.3398e-06	-70.8865	0.0333106	0.0109073	0.0314743	-56.7835	38.6561	21.176	32.3399	0.0141876	0.0216574	0.0258908	56.7715	1.15404e+10	7.56005e+09	1.37962e+10	-33.2285	0.0000000E+000	0.0000000E+000	0.0000000E+000	33.2285	0.0000000E+000	0.0000000E+000	0.0000000E+000	-33.2285	0.0000000E+000	0.0000000E+000	0.0000000E+000	-56.7715	0.0000000E+000	0.0000000E+000	0.0000000E+000	56.7715	0.655093	33.2285	0.000000000000000E+000	8.86856e-07	-3.77801e-11	8.86893e-07	3.8775	1.69517e+07	722.145	1.69525e+07
9.95598e-05	22.1017	137.384	139.15	-80.8608	20329.2	3.87734	0.000228728	1.16359e+07	1.13424e+07	1	11	0.00503655	3.61951e-05	0	-0.0332805	-0.000165175	3.91787e-06	127.707	0.108243	-0.0662034	-0.0856371	-80.8821	139.055	22.0355	137.298	0.00114146	0.00709525	0.00718648	80.8608	1.13424e+10	1.82472e+09	1.14882e+10	-9.13921	0.0000000E+000	0.0000000E+000	0.0000000E+000	9.13921	0.0000000E+000	0.0000000E+000	0.0000000E+000	-9.13921	0.0000000E+000	0.0000000E+000	0.0000000E+000	-80.8608	0.0000000E+000	0.0000000E+000	0.0000000E+000	80.8608	0.160876	9.13922	0.000000000000000E+000	8.86856e-07	-3.77801e-11	8.86893e-07	3.8775	1.69517e+07	722.145	1.69525e+07