File: txt/19191_R297_UC94_SOC50_C08.mpt
EC-Lab ASCII FILE
Nb header lines : 65

Potentio Electrochemical Impedance Spectroscopy

Run on channel : 8 (SN 65398)
Grouped channel(s) : 5, 6, 7, 8
User :
CE vs. WE compliance from -10 V to 10 V
Electrode connection : standard
Potential control : Ewe
Ewe ctrl range : min = -10.00 V, max = 10.00 V
Safety Limits :
	Do not start on E overload
Acquisition started on : 11/11/2025 16:20:58.367
Loaded Setting File :  C:\Users\Celltest\OneDrive - store-dot.com\Documents\EC-Lab\Data\@Biologic Test Protocols\cathode half cell EIS SOC50.mps
Saved on :
	File : 19187_R297_UC94_SOC50_C08.mpr
	Directory : C:\Users\Celltest\OneDrive - store-dot.com\Documents\EC-Lab\Data\Michael\
	Host : 169.254.61.224
Device : VMP-3e (SN .003165)
Address : USB
EC-LAB for windows v11.62 (software)
Internet server v27.00 (firmware)
Command interpretor v12.03 (firmware)
Electrode material :
Initial state :
Electrolyte :
Comments :
Electrode surface area : 0.001 cm²
Characteristic mass : 0.001 g
Equivalent Weight : 0.000 g/eq.
Density : 0.000 g/cm3
Volume (V) : 0.001 cm³
Record Ece
Cycle Definition : Charge/Discharge alternance
Mode                Multi sine
E (V)               0.0000
vs.                 Eoc
tE (h:m:s)          0:00:0.0000
record              0
dI                  0.000
unit dI             mA
dt (s)              0.000
fi                  1.000
unit fi             MHz
ff                  0.100
unit ff             mHz
Nd                  10
Points              per decade
spacing             Logarithmic
Va (mV)             5.0
pw                  0.10
Na                  2
corr                0
E range min (V)     -10.000
E range max (V)     10.000
I Range             Auto
Bandwidth           5
nc cycles           0
goto Ns'            0
nr cycles           0
inc. cycle          0

freq/Hz	Re(Z)/Ohm	-Im(Z)/Ohm	|Z|/Ohm	Phase(Z)/deg	time/s	<Ewe>/V	<I>/mA	Cs/µF	Cp/µF	cycle number	I Range	|Ewe|/V	|I|/A	Ns	(Q-Qo)/mA.h	<Ece>/V	|Ece|/V	Phase(Zce)/deg	|Zce|/Ohm	Re(Zce)/Ohm	-Im(Zce)/Ohm	Phase(Zwe-ce)/deg	|Zwe-ce|/Ohm	Re(Zwe-ce)/Ohm	-Im(Zwe-ce)/Ohm	Re(Y)/Ohm-1	Im(Y)/Ohm-1	|Y|/Ohm-1	Phase(Y)/deg	Re(C)/nF	Im(C)/nF	|C|/nF	Phase(C)/deg	Re(M)	Im(M)	|M|	Phase(M)/deg	Re(Permittivity)	Im(Permittivity)	|Permittivity|	Phase(Permittivity)/deg	Re(Resistivity)/Ohm.cm	Im(Resistivity)/Ohm.cm	|Resistivity|/Ohm.cm	Phase(Resistivity)/deg	Re(Conductivity)/mS/cm	Im(Conductivity)/mS/cm	|Conductivity|/mS/cm	Phase(Conductivity)/deg	Tan(Delta)	Loss Angle(Delta)/deg	dq/mA.h	Pwe/W	Pce/W	Pwe-ce/W	<Ewe-Ece>/V	Rwe/Ohm	Rce/Ohm	Rwe-ce/Ohm		Ewe-Ece/V
1.00002e+06	1.05998	-0.282746	1.09704	14.9356	2.69356	3.881	-0.0603397	-0.562881	-0.0373903	1	9	0.000245267	0.00022357	0	-1.71198e-05	0.000420472	0.00020112	1.25335	0.899582	0.899367	-0.0196769	8.77427	1.98255	1.95935	-0.302422	0.880744	-0.234935	0.91154	-14.9356	-37.3903	140.172	145.073	-104.936	0.0000000E+000	0.0000000E+000	0.0000000E+000	104.936	0.0000000E+000	0.0000000E+000	0.0000000E+000	-104.936	0.0000000E+000	0.0000000E+000	0.0000000E+000	14.9356	0.0000000E+000	0.0000000E+000	0.0000000E+000	-14.9356	3.74889	75.0644	-1.71198e-05	-0.000234178	-2.53712e-08	-0.000234153	3.88058	64319.1	6.96842	64312.2
630957	0.516056	0.133572	0.533062	-14.5116	3.45956	3.88054	-0.099402	1.88844	0.118572	1	9	0.000191489	0.000359224	0	-3.40275e-05	0.000115063	0.000121369	-104.139	0.337865	-0.0825335	0.32763	-46.772	0.632968	0.433522	0.461202	1.81611	0.470069	1.87595	14.5116	118.572	458.102	473.198	-75.4884	0.0000000E+000	0.0000000E+000	0.0000000E+000	75.4884	0.0000000E+000	0.0000000E+000	0.0000000E+000	-75.4884	0.0000000E+000	0.0000000E+000	0.0000000E+000	-14.5116	0.0000000E+000	0.0000000E+000	0.0000000E+000	14.5116	3.86349	75.4884	-7.64533e-06	-0.000385733	-1.14375e-08	-0.000385722	3.88042	39038.8	1.15756	39037.7
398103	0.692133	0.0512037	0.694025	-4.23101	4.22552	3.88067	-0.0552057	7.8077	0.0424987	1	9	0.000703323	0.0010134	0	-4.73707e-05	1.96231e-05	5.50215e-05	165.837	0.0542941	-0.0526437	-0.013285	-3.3934	0.640613	0.63949	0.0379187	1.43694	0.106304	1.44087	4.23101	42.4986	574.465	576.035	-85.769	0.0000000E+000	0.0000000E+000	0.0000000E+000	85.769	0.0000000E+000	0.0000000E+000	0.0000000E+000	-85.769	0.0000000E+000	0.0000000E+000	0.0000000E+000	-4.23101	0.0000000E+000	0.0000000E+000	0.0000000E+000	4.23101	13.5173	85.769	-5.2528e-06	-0.000214235	-1.08331e-09	-0.000214234	3.88065	70294.7	0.355454	70294.4
251206	0.787481	0.178524	0.807464	-12.7732	4.99253	3.88056	-0.0773782	3.54889	0.173476	1	9	0.00218758	0.0027092	0	-6.28513e-05	0.00015324	7.66528e-05	83.9033	0.0282935	0.00300496	-0.0281335	-10.7718	0.804665	0.790486	0.150391	1.2078	0.273811	1.23845	12.7732	173.476	765.216	784.633	-77.2268	0.0000000E+000	0.0000000E+000	0.0000000E+000	77.2268	0.0000000E+000	0.0000000E+000	0.0000000E+000	-77.2268	0.0000000E+000	0.0000000E+000	0.0000000E+000	-12.7732	0.0000000E+000	0.0000000E+000	0.0000000E+000	12.7732	4.41107	77.2268	-5.87022e-06	-0.000300271	-1.18574e-08	-0.000300259	3.8804	50150.5	1.9804	50148.5
158486	0.853344	0.270661	0.895239	-17.5978	5.76052	3.8805	-0.0726907	3.71026	0.339138	1	9	0.00507513	0.00566903	0	-6.99388e-05	-0.00034305	8.96177e-05	80.9365	0.0158083	0.00249027	-0.0156109	-16.5947	0.89303	0.855834	0.25505	1.06475	0.337712	1.11702	17.5978	339.138	1069.24	1121.73	-72.4022	0.0000000E+000	0.0000000E+000	0.0000000E+000	72.4022	0.0000000E+000	0.0000000E+000	0.0000000E+000	-72.4022	0.0000000E+000	0.0000000E+000	0.0000000E+000	-17.5978	0.0000000E+000	0.0000000E+000	0.0000000E+000	17.5978	3.15282	72.4022	-8.94022e-06	-0.000282076	2.49365e-08	-0.000282101	3.88085	53383.8	4.71931	53388.5
100004	0.945429	0.353267	1.00927	-20.4886	6.52656	3.88049	-0.0627205	4.50506	0.551937	1	9	0.00528002	0.00523151	0	-5.14061e-05	-0.000171257	6.19368e-05	93.444	0.0118392	-0.000711218	-0.0118178	-19.8714	1.00453	0.944717	0.341449	0.928135	0.346805	0.990812	20.4886	551.937	1477.12	1576.87	-69.5114	0.0000000E+000	0.0000000E+000	0.0000000E+000	69.5114	0.0000000E+000	0.0000000E+000	0.0000000E+000	-69.5114	0.0000000E+000	0.0000000E+000	0.0000000E+000	-20.4886	0.0000000E+000	0.0000000E+000	0.0000000E+000	20.4886	2.67624	69.5114	1.19712e-05	-0.000243386	1.07414e-08	-0.000243397	3.88066	61869.5	2.73049	61872.3
63093.8	1.05239	0.439045	1.1403	-22.6453	7.29454	3.8805	-0.0402876	5.74545	0.85173	1	9	0.00528592	0.00463554	0	-5.6836e-05	0.00015324	4.14209e-05	85.6152	0.0089355	0.000683157	-0.00890935	-22.2179	1.13753	1.05308	0.430136	0.809352	0.337652	0.87696	22.6453	851.73	2041.6	2212.14	-67.3547	0.0000000E+000	0.0000000E+000	0.0000000E+000	67.3547	0.0000000E+000	0.0000000E+000	0.0000000E+000	-67.3547	0.0000000E+000	0.0000000E+000	0.0000000E+000	-22.6453	0.0000000E+000	0.0000000E+000	0.0000000E+000	22.6453	2.397	67.3547	-1.31561e-05	-0.000156336	-6.17364e-09	-0.00015633	3.88035	96320.2	3.80364	96316.4
39814.1	1.17461	0.53097	1.28904	-24.3249	8.06052	3.88049	-0.0525643	7.5286	1.27738	1	9	0.00534252	0.00414457	0	-6.54195e-05	0.000191416	2.50491e-05	82.3365	0.00604383	0.000805976	-0.00598985	-24.0672	1.28732	1.17541	0.52498	0.706901	0.319548	0.77577	24.3249	1277.38	2825.81	3101.11	-65.6751	0.0000000E+000	0.0000000E+000	0.0000000E+000	65.6751	0.0000000E+000	0.0000000E+000	0.0000000E+000	-65.6751	0.0000000E+000	0.0000000E+000	0.0000000E+000	-24.3249	0.0000000E+000	0.0000000E+000	0.0000000E+000	24.3249	2.21219	65.6751	4.29116e-06	-0.000203975	-1.00616e-08	-0.000203965	3.88029	73823.6	3.64155	73819.9
25116.9	1.3317	0.654094	1.48366	-26.1591	8.95055	3.88049	-0.0416269	9.68755	1.88289	1	9	0.0053897	0.0036327	0	-5.2757e-05	0.000229592	8.17443e-06	109.031	0.00225023	-0.000733749	-0.00212724	-26.0978	1.48207	1.33096	0.651967	0.604972	0.297146	0.674008	26.1591	1882.89	3833.44	4270.9	-63.8409	0.0000000E+000	0.0000000E+000	0.0000000E+000	63.8409	0.0000000E+000	0.0000000E+000	0.0000000E+000	-63.8409	0.0000000E+000	0.0000000E+000	0.0000000E+000	-26.1591	0.0000000E+000	0.0000000E+000	0.0000000E+000	26.1591	2.03594	63.8409	-8.94393e-07	-0.000161533	-9.55719e-09	-0.000161523	3.88026	93220.9	5.51547	93215.4
15847.7	1.51968	0.775726	1.70621	-27.0422	9.59252	3.88049	-0.0463888	12.9463	2.67606	1	9	0.00498542	0.00292192	0	-6.13176e-05	9.59754e-05	5.31934e-06	-100.213	0.00182049	-0.000322783	0.00179165	-27.1007	1.70674	1.51935	0.777517	0.522016	0.266466	0.586093	27.0422	2676.06	5242.5	5886.01	-62.9578	0.0000000E+000	0.0000000E+000	0.0000000E+000	62.9578	0.0000000E+000	0.0000000E+000	0.0000000E+000	-62.9578	0.0000000E+000	0.0000000E+000	0.0000000E+000	-27.0422	0.0000000E+000	0.0000000E+000	0.0000000E+000	27.0422	1.95904	62.9578	-3.81671e-06	-0.000180011	-4.45218e-09	-0.000180007	3.88039	83651.4	2.06894	83649.4
10002.2	1.73916	0.935754	1.97492	-28.2825	10.3586	3.88048	-0.0435986	17.0044	3.81757	1	9	0.0049037	0.00248299	0	-7.37036e-05	-7.58172e-05	5.43952e-06	-8.2804	0.00219071	0.00216788	0.000315502	-28.2608	1.97698	1.74133	0.93607	0.445903	0.239918	0.50635	28.2825	3817.57	7095.19	8057.01	-61.7175	0.0000000E+000	0.0000000E+000	0.0000000E+000	61.7175	0.0000000E+000	0.0000000E+000	0.0000000E+000	-61.7175	0.0000000E+000	0.0000000E+000	0.0000000E+000	-28.2825	0.0000000E+000	0.0000000E+000	0.0000000E+000	28.2825	1.85856	61.7175	-6.63135e-06	-0.000169184	3.30552e-09	-0.000169187	3.88056	89004.8	1.73898	89006.5
6309.38	1.99299	1.10958	2.28104	-29.1066	10.8805	3.88048	-0.0544245	22.7339	5.37929	1	9	0.00450465	0.00197482	0	-7.73104e-05	-9.49052e-05	7.12693e-06	-149.402	0.0036089	-0.00310641	0.00183695	-29.1849	2.27923	1.98988	1.11142	0.383033	0.213251	0.438396	29.1066	5379.29	9662.07	11058.6	-60.8934	0.0000000E+000	0.0000000E+000	0.0000000E+000	60.8934	0.0000000E+000	0.0000000E+000	0.0000000E+000	-60.8934	0.0000000E+000	0.0000000E+000	0.0000000E+000	-29.1066	0.0000000E+000	0.0000000E+000	0.0000000E+000	29.1066	1.79616	60.8934	-2.6902e-06	-0.000211193	5.16517e-09	-0.000211198	3.88057	71300.2	1.7438	71302
3983.6	2.32213	1.32652	2.67431	-29.7372	11.567	3.88029	-0.129685	30.1183	7.41025	1	9	0.00491563	0.00183809	0	-9.16744e-05	7.68873e-05	9.2595e-06	61.5288	0.00503756	0.00240149	-0.00442831	-29.6293	2.67421	2.32453	1.32209	0.324685	0.185476	0.373928	29.7372	7410.25	12972	14939.4	-60.2628	0.0000000E+000	0.0000000E+000	0.0000000E+000	60.2628	0.0000000E+000	0.0000000E+000	0.0000000E+000	-60.2628	0.0000000E+000	0.0000000E+000	0.0000000E+000	-29.7372	0.0000000E+000	0.0000000E+000	0.0000000E+000	29.7372	1.75055	60.2628	-1.12331e-05	-0.000503214	-9.9711e-09	-0.000503204	3.88021	29921	0.592879	29920.4
2510.8	2.68934	1.60064	3.12963	-30.7602	12.3919	3.88043	0.0642506	39.6018	10.3589	1	9	0.00480645	0.00153579	0	-0.000102769	0.000229592	1.13728e-05	-56.4698	0.0074052	0.00409046	0.00617294	-30.8189	3.13631	2.69343	1.60681	0.274574	0.16342	0.319526	30.7602	10358.9	17404.7	20254.2	-59.2398	0.0000000E+000	0.0000000E+000	0.0000000E+000	59.2398	0.0000000E+000	0.0000000E+000	0.0000000E+000	-59.2398	0.0000000E+000	0.0000000E+000	0.0000000E+000	-30.7602	0.0000000E+000	0.0000000E+000	0.0000000E+000	30.7602	1.68017	59.2398	6.61793e-06	0.00024932	1.47514e-08	0.000249305	3.8802	60395.2	3.57338	60391.6
1585.51	3.14519	1.92137	3.68563	-31.4204	13.5388	3.8804	-0.0476822	52.2446	14.1984	1	10	0.00494844	0.00134263	0	-9.70755e-05	0.000286856	6.46747e-06	-26.1611	0.00481701	0.00432355	0.0021238	-31.4135	3.69042	3.14951	1.92349	0.231539	0.141445	0.271324	31.4204	14198.4	23242.1	27235.8	-58.5796	0.0000000E+000	0.0000000E+000	0.0000000E+000	58.5796	0.0000000E+000	0.0000000E+000	0.0000000E+000	-58.5796	0.0000000E+000	0.0000000E+000	0.0000000E+000	-31.4204	0.0000000E+000	0.0000000E+000	0.0000000E+000	31.4204	1.63695	58.5796	-2.19423e-07	-0.000185026	-1.36779e-08	-0.000185012	3.88011	81380.3	6.01599	81374.3
1000.32	3.73056	2.30641	4.38595	-31.7264	14.4408	3.8804	-0.0467374	68.9833	19.0761	1	10	0.00485587	0.00110714	0	-0.00010921	-0.000171257	2.4969e-05	-19.4872	0.0225527	0.0212608	0.00752348	-31.6642	4.408	3.75182	2.31394	0.19393	0.119897	0.228001	31.7264	19076.1	30855.1	36275.8	-58.2736	0.0000000E+000	0.0000000E+000	0.0000000E+000	58.2736	0.0000000E+000	0.0000000E+000	0.0000000E+000	-58.2736	0.0000000E+000	0.0000000E+000	0.0000000E+000	-31.7264	0.0000000E+000	0.0000000E+000	0.0000000E+000	31.7264	1.61747	58.2736	-5.49042e-06	-0.00018136	8.00412e-09	-0.000181368	3.88057	83025.7	3.66425	83029.3
631.01	4.49721	2.72962	5.26077	-31.256	15.3406	3.8804	-0.0454465	92.4022	24.8764	1	10	0.00479457	0.000911381	0	-0.00011918	-7.58172e-05	2.10428e-05	55.6105	0.0230889	0.013041	-0.0190534	-31.005	5.26208	4.51025	2.71056	0.162497	0.0986286	0.190086	31.256	24876.4	40985.3	47944.1	-58.744	0.0000000E+000	0.0000000E+000	0.0000000E+000	58.744	0.0000000E+000	0.0000000E+000	0.0000000E+000	-58.744	0.0000000E+000	0.0000000E+000	0.0000000E+000	-31.256	0.0000000E+000	0.0000000E+000	0.0000000E+000	31.256	1.64756	58.744	-5.24144e-06	-0.000176351	3.44563e-09	-0.000176354	3.88048	85383.9	1.66827	85385.6
398.089	5.49157	3.10115	6.30671	-29.4539	16.2428	3.88041	-0.04394	128.919	31.1715	1	10	0.00475259	0.000753577	0	-0.000130021	0.000210504	1.0579e-05	143.422	0.0140384	-0.0112735	-0.00836576	-29.4381	6.29278	5.4803	3.09279	0.138068	0.0779683	0.158561	29.4539	31171.5	55199	63392.4	-60.5461	0.0000000E+000	0.0000000E+000	0.0000000E+000	60.5461	0.0000000E+000	0.0000000E+000	0.0000000E+000	-60.5461	0.0000000E+000	0.0000000E+000	0.0000000E+000	-29.4539	0.0000000E+000	0.0000000E+000	0.0000000E+000	29.4539	1.77082	60.5461	-5.68501e-06	-0.000170505	-9.24953e-09	-0.000170496	3.8802	88311.5	4.79071	88306.8
251.044	6.70793	3.25995	7.45812	-25.9191	17.141	3.8804	-0.0453275	194.473	37.1554	1	10	0.00474235	0.000635864	0	-0.000141627	5.3507e-07	7.74644e-06	-34.0352	0.0121825	0.0100956	0.00681859	-25.9322	7.47018	6.71802	3.26677	0.120595	0.0586074	0.134082	25.9191	37155.4	76453.8	85004.2	-64.0809	0.0000000E+000	0.0000000E+000	0.0000000E+000	64.0809	0.0000000E+000	0.0000000E+000	0.0000000E+000	-64.0809	0.0000000E+000	0.0000000E+000	0.0000000E+000	-25.9191	0.0000000E+000	0.0000000E+000	0.0000000E+000	25.9191	2.05768	64.0809	-5.97203e-06	-0.000175889	-2.42534e-11	-0.000175889	3.8804	85608.1	0.0118045	85608.1
158.428	7.94937	3.09317	8.52996	-21.2615	18.0459	3.8804	-0.0448514	324.775	42.7069	1	10	0.00473992	0.00055568	0	-0.000153584	-0.000228522	8.8678e-06	42.2587	0.0159585	0.0118111	-0.0107317	-21.1656	8.53709	7.96118	3.08244	0.109254	0.0425119	0.117234	21.2615	42706.9	109755	117772	-68.7385	0.0000000E+000	0.0000000E+000	0.0000000E+000	68.7385	0.0000000E+000	0.0000000E+000	0.0000000E+000	-68.7385	0.0000000E+000	0.0000000E+000	0.0000000E+000	-21.2615	0.0000000E+000	0.0000000E+000	0.0000000E+000	21.2615	2.56997	68.7385	-5.81405e-06	-0.000174041	1.02495e-08	-0.000174051	3.88062	86516.8	5.09509	86521.9
100.032	8.99228	2.6304	9.36911	-16.3051	18.9448	3.88039	-0.0438135	604.865	47.6768	1	10	0.00473679	0.000505575	0	-0.000164059	-0.000133081	6.76267e-06	-83.7786	0.0133762	0.00144958	0.0132974	-16.3807	9.37424	8.99373	2.6437	0.102441	0.0299658	0.106734	16.3051	47676.8	162988	169818	-73.6949	0.0000000E+000	0.0000000E+000	0.0000000E+000	73.6949	0.0000000E+000	0.0000000E+000	0.0000000E+000	-73.6949	0.0000000E+000	0.0000000E+000	0.0000000E+000	-16.3051	0.0000000E+000	0.0000000E+000	0.0000000E+000	16.3051	3.41859	73.6949	-4.99678e-06	-0.000170014	5.83076e-09	-0.000170019	3.88053	88566.2	3.03745	88569.2
63.0823	9.7294	2.07727	9.94868	-12.0519	19.8609	3.88041	-0.0421358	1214.56	52.9509	1	10	0.00474324	0.00047677	0	-0.00017467	-0.000171257	1.06531e-05	-49.6915	0.0223442	0.0144545	0.0170391	-12.1304	9.96639	9.74386	2.0943	0.0983003	0.0209875	0.100516	12.0519	52950.9	248009	253599	-77.9481	0.0000000E+000	0.0000000E+000	0.0000000E+000	77.9481	0.0000000E+000	0.0000000E+000	0.0000000E+000	-77.9481	0.0000000E+000	0.0000000E+000	0.0000000E+000	-12.0519	0.0000000E+000	0.0000000E+000	0.0000000E+000	12.0519	4.68375	77.9481	-4.68664e-06	-0.000163504	7.21607e-09	-0.000163511	3.88058	92092.9	4.06442	92097
39.8089	10.1986	1.53548	10.3136	-8.56201	20.7618	3.88041	-0.043687	2603.72	57.7119	1	10	0.00473508	0.000459111	0	-0.00018546	5.77992e-05	9.57579e-06	-46.2247	0.0208573	0.0144297	0.0150602	-8.6327	10.3301	10.2131	1.55054	0.0958789	0.0144353	0.0969595	8.56201	57711.9	383321	387641	-81.438	0.0000000E+000	0.0000000E+000	0.0000000E+000	81.438	0.0000000E+000	0.0000000E+000	0.0000000E+000	-81.438	0.0000000E+000	0.0000000E+000	0.0000000E+000	-8.56201	0.0000000E+000	0.0000000E+000	0.0000000E+000	8.56201	6.64197	81.438	-5.3711e-06	-0.000169523	-2.52508e-09	-0.000169521	3.88035	88822.9	1.32303	88821.6
25.1044	10.4523	1.10755	10.5109	-6.0486	21.641	3.88041	-0.0446505	5724.09	63.5561	1	10	0.00473158	0.000450162	0	-0.000196978	-7.58172e-05	1.24244e-05	32.8591	0.0275999	0.0231841	-0.014975	-5.9543	10.5323	10.4755	1.09258	0.0946101	0.0100251	0.0951398	6.0486	63556.1	599801	603159	-83.9514	0.0000000E+000	0.0000000E+000	0.0000000E+000	83.9514	0.0000000E+000	0.0000000E+000	0.0000000E+000	-83.9514	0.0000000E+000	0.0000000E+000	0.0000000E+000	-6.0486	0.0000000E+000	0.0000000E+000	0.0000000E+000	6.0486	9.43735	83.9514	-4.77217e-06	-0.000173262	3.38527e-09	-0.000173265	3.88048	86906.3	1.69801	86908
15.8576	10.6392	0.815852	10.6704	-4.38509	22.5191	3.8804	-0.0495422	12301.9	71.9175	1	10	0.00473075	0.000443353	0	-0.000209784	-3.7641e-05	1.21769e-05	35.7318	0.0274655	0.0222954	-0.0160396	-4.29025	10.6914	10.6614	0.799813	0.093443	0.00716558	0.0937173	4.38509	71917.5	937843	940596	-85.6149	0.0000000E+000	0.0000000E+000	0.0000000E+000	85.6149	0.0000000E+000	0.0000000E+000	0.0000000E+000	-85.6149	0.0000000E+000	0.0000000E+000	0.0000000E+000	-4.38509	0.0000000E+000	0.0000000E+000	0.0000000E+000	4.38509	13.0405	85.6149	-7.2178e-06	-0.000192244	1.86482e-09	-0.000192245	3.88043	78325	0.759777	78325.8
10.0032	10.7448	0.644132	10.7641	-3.43067	23.4998	3.88041	-0.0438023	24700.5	88.4501	1	10	0.00473287	0.000439689	0	-0.000218125	0.000115063	7.16105e-06	75.4836	0.0162866	0.00408236	-0.0157667	-3.34562	10.7673	10.7489	0.628366	0.0927347	0.00555927	0.0929012	3.43067	88450.1	1.47545e+06	1.47809e+06	-86.5693	0.0000000E+000	0.0000000E+000	0.0000000E+000	86.5693	0.0000000E+000	0.0000000E+000	0.0000000E+000	-86.5693	0.0000000E+000	0.0000000E+000	0.0000000E+000	-3.43067	0.0000000E+000	0.0000000E+000	0.0000000E+000	3.43067	16.6811	86.5693	-1.66665e-06	-0.000169971	-5.04005e-09	-0.000169966	3.8803	88589.2	2.62688	88586.5
6.31058	10.8687	0.541044	10.8821	-2.84984	24.7213	3.88045	-0.0266242	46614.2	115.227	1	11	0.00473612	0.00043522	0	-0.000226829	-7.58172e-05	6.70095e-06	103.79	0.0153967	-0.00367005	-0.0149529	-2.77214	10.8777	10.865	0.526091	0.09178	0.00456882	0.0918937	2.84984	115227	2.31472e+06	2.31759e+06	-87.1502	0.0000000E+000	0.0000000E+000	0.0000000E+000	87.1502	0.0000000E+000	0.0000000E+000	0.0000000E+000	-87.1502	0.0000000E+000	0.0000000E+000	0.0000000E+000	-2.84984	0.0000000E+000	0.0000000E+000	0.0000000E+000	2.84984	20.0883	87.1502	-1.03257e-06	-0.000103314	2.01857e-09	-0.000103316	3.88052	145749	2.84768	145752
3.97785	10.9554	0.498509	10.9667	-2.60537	25.7283	3.88046	-0.0245475	80259.8	165.841	1	11	0.00473675	0.00043192	0	-0.000238996	0.000172328	4.58214e-06	6.19139	0.0106088	0.0105469	-0.00114416	-2.5969	10.9772	10.9659	0.497365	0.0910907	0.00414495	0.0911849	2.60537	165840	3.64456e+06	3.64833e+06	-87.3946	0.0000000E+000	0.0000000E+000	0.0000000E+000	87.3946	0.0000000E+000	0.0000000E+000	0.0000000E+000	-87.3946	0.0000000E+000	0.0000000E+000	0.0000000E+000	-2.60537	0.0000000E+000	0.0000000E+000	0.0000000E+000	2.60537	21.9763	87.3946	-4.38767e-06	-9.52555e-05	-4.23021e-09	-9.52512e-05	3.88029	158080	7.02018	158073
2.51367	11.0446	0.505307	11.0561	-2.61955	27.288	3.88046	-0.0239282	125301	261.734	1	11	0.00473788	0.00042853	0	-0.00023934	0.000191416	8.06608e-06	-19.4392	0.0188227	0.0177497	0.00626431	-2.64773	11.0741	11.0623	0.511571	0.0903531	0.0041338	0.0904476	2.61955	261734	5.72077e+06	5.72675e+06	-87.3805	0.0000000E+000	0.0000000E+000	0.0000000E+000	87.3805	0.0000000E+000	0.0000000E+000	0.0000000E+000	-87.3805	0.0000000E+000	0.0000000E+000	0.0000000E+000	-2.61955	0.0000000E+000	0.0000000E+000	0.0000000E+000	2.61955	21.8571	87.3805	-1.13143e-06	-9.28524e-05	-4.58023e-09	-9.28478e-05	3.88027	162171	7.99959	162163
1.58469	11.1617	0.574033	11.1764	-2.94406	29.7224	3.88047	-0.0221474	174961	461.537	1	11	0.00474364	0.000424432	0	-0.000266738	-1.8553e-05	3.2673e-06	-73.3914	0.00769807	0.00220035	0.00737691	-2.98124	11.179	11.1639	0.58141	0.0893558	0.00459546	0.0894739	2.94406	461537	8.97428e+06	8.98614e+06	-87.0559	0.0000000E+000	0.0000000E+000	0.0000000E+000	87.0559	0.0000000E+000	0.0000000E+000	0.0000000E+000	-87.0559	0.0000000E+000	0.0000000E+000	0.0000000E+000	-2.94406	0.0000000E+000	0.0000000E+000	0.0000000E+000	2.94406	19.4443	87.0559	-1.75858e-05	-8.59421e-05	4.109e-10	-8.59425e-05	3.88049	175211	0.837707	175212
1.00469	11.3917	0.630675	11.4091	-3.16881	240.54	3.88045	-0.0178361	251178	767.513	1	11	0.00519841	0.000455635	0	-0.00304567	7.68873e-05	9.83994e-07	-3.30163	0.00215961	0.00215602	0.000124377	-3.16884	11.4113	11.3939	0.630799	0.087515	0.00484506	0.087649	3.16881	767512	1.38634e+07	1.38846e+07	-86.8312	0.0000000E+000	0.0000000E+000	0.0000000E+000	86.8312	0.0000000E+000	0.0000000E+000	0.0000000E+000	-86.8312	0.0000000E+000	0.0000000E+000	0.0000000E+000	-3.16881	0.0000000E+000	0.0000000E+000	0.0000000E+000	3.16881	18.0627	86.8312	-0.00275979	-6.9212e-05	-1.37137e-09	-6.92106e-05	3.88037	217562	4.31077	217557
0.632957	11.5463	0.775846	11.5723	-3.84418	240.541	3.88045	-0.0178361	324094	1456.73	1	11	0.00521031	0.000450239	0	-0.00304567	7.68873e-05	1.24187e-06	-1.29853	0.00275825	0.00275754	6.25064e-05	-3.84357	11.5751	11.549	0.775909	0.0862187	0.00579341	0.0864131	3.84418	1.45673e+06	2.16794e+07	2.17283e+07	-86.1558	0.0000000E+000	0.0000000E+000	0.0000000E+000	86.1558	0.0000000E+000	0.0000000E+000	0.0000000E+000	-86.1558	0.0000000E+000	0.0000000E+000	0.0000000E+000	-3.84418	0.0000000E+000	0.0000000E+000	0.0000000E+000	3.84418	14.8822	86.1558	0.000000000000000E+000	-6.9212e-05	-1.37137e-09	-6.92106e-05	3.88037	217562	4.31077	217557
0.401878	11.6909	0.96513	11.7306	-4.71931	240.543	3.88045	-0.0178361	410337	2777.6	1	11	0.00522454	0.000445376	0	-0.00304567	7.68873e-05	8.62398e-07	-5.08042	0.00193634	0.00192873	0.00017147	-4.71937	11.7326	11.6928	0.965302	0.0849578	0.00701363	0.0852469	4.71931	2.7776e+06	3.36457e+07	3.37602e+07	-85.2807	0.0000000E+000	0.0000000E+000	0.0000000E+000	85.2807	0.0000000E+000	0.0000000E+000	0.0000000E+000	-85.2807	0.0000000E+000	0.0000000E+000	0.0000000E+000	-4.71931	0.0000000E+000	0.0000000E+000	0.0000000E+000	4.71931	12.1133	85.2807	0.000000000000000E+000	-6.9212e-05	-1.37137e-09	-6.92106e-05	3.88037	217562	4.31077	217557
0.251173	11.9754	1.24709	12.0401	-5.94523	240.545	3.88045	-0.0178361	508100	5451.07	1	11	0.00522482	0.000433951	0	-0.00304567	7.68873e-05	1.14197e-06	-9.06317	0.00263156	0.00259871	0.000414533	-5.94591	12.0428	11.978	1.2475	0.0826089	0.00860271	0.0830556	5.94523	5.45107e+06	5.23448e+07	5.26278e+07	-84.0548	0.0000000E+000	0.0000000E+000	0.0000000E+000	84.0548	0.0000000E+000	0.0000000E+000	0.0000000E+000	-84.0548	0.0000000E+000	0.0000000E+000	0.0000000E+000	-5.94523	0.0000000E+000	0.0000000E+000	0.0000000E+000	5.94523	9.60266	84.0548	0.000000000000000E+000	-6.9212e-05	-1.37137e-09	-6.92106e-05	3.88037	217562	4.31077	217557
0.160751	12.2781	1.42798	12.3609	-6.63385	240.547	3.88045	-0.0178361	693339	9253.17	1	11	0.00522026	0.000422322	0	-0.00304567	7.68873e-05	7.3071e-07	-5.23671	0.00173022	0.001723	0.000157918	-6.63366	12.3626	12.2798	1.42813	0.0803589	0.00934596	0.0809006	6.63385	9.25317e+06	7.95611e+07	8.00973e+07	-83.3662	0.0000000E+000	0.0000000E+000	0.0000000E+000	83.3662	0.0000000E+000	0.0000000E+000	0.0000000E+000	-83.3662	0.0000000E+000	0.0000000E+000	0.0000000E+000	-6.63385	0.0000000E+000	0.0000000E+000	0.0000000E+000	6.63385	8.59825	83.3662	0.000000000000000E+000	-6.9212e-05	-1.37137e-09	-6.92106e-05	3.88037	217562	4.31077	217557
0.100469	12.6099	1.97153	12.7631	-8.88613	240.549	3.88045	-0.0178361	803495	19172.5	1	11	0.00522279	0.000409211	0	-0.00304567	7.68873e-05	8.78511e-07	-5.40972	0.00214684	0.00213728	0.000202398	-8.88554	12.7652	12.612	1.97173	0.0774105	0.012103	0.0783509	8.88613	1.91725e+07	1.22627e+08	1.24117e+08	-81.1139	0.0000000E+000	0.0000000E+000	0.0000000E+000	81.1139	0.0000000E+000	0.0000000E+000	0.0000000E+000	-81.1139	0.0000000E+000	0.0000000E+000	0.0000000E+000	-8.88613	0.0000000E+000	0.0000000E+000	0.0000000E+000	8.88613	6.396	81.1139	0.000000000000000E+000	-6.9212e-05	-1.37137e-09	-6.92106e-05	3.88037	217562	4.31077	217557
0.0602816	13.2256	2.42143	13.4455	-10.3751	240.55	3.88045	-0.0178361	1.09035e+06	35363.4	1	11	0.00521722	0.000388028	0	-0.00304567	7.68873e-05	7.4022e-07	-3.63482	0.00190764	0.00190381	0.000120939	-10.3742	13.4474	13.2275	2.42155	0.0731584	0.0133943	0.0743745	10.3751	3.53634e+07	1.93152e+08	1.96363e+08	-79.6249	0.0000000E+000	0.0000000E+000	0.0000000E+000	79.6249	0.0000000E+000	0.0000000E+000	0.0000000E+000	-79.6249	0.0000000E+000	0.0000000E+000	0.0000000E+000	-10.3751	0.0000000E+000	0.0000000E+000	0.0000000E+000	10.3751	5.46192	79.6249	0.000000000000000E+000	-6.9212e-05	-1.37137e-09	-6.92106e-05	3.88037	217562	4.31077	217557
0.0401878	13.9944	2.85279	14.2822	-11.522	240.552	3.88045	-0.0178361	1.38821e+06	55386.9	1	11	0.00521703	0.000365282	0	-0.00304567	7.68873e-05	1.0372e-06	-9.21668	0.00283945	0.00280279	0.00045479	-11.5216	14.285	13.9972	2.85325	0.0686063	0.0139856	0.0700173	11.522	5.53869e+07	2.717e+08	2.77288e+08	-78.478	0.0000000E+000	0.0000000E+000	0.0000000E+000	78.478	0.0000000E+000	0.0000000E+000	0.0000000E+000	-78.478	0.0000000E+000	0.0000000E+000	0.0000000E+000	-11.522	0.0000000E+000	0.0000000E+000	0.0000000E+000	11.522	4.9055	78.478	0.000000000000000E+000	-6.9212e-05	-1.37137e-09	-6.92106e-05	3.88037	217562	4.31077	217557
0.0200939	15.6057	4.03125	16.118	-14.484	240.554	3.88045	-0.0178361	1.96479e+06	122906	1	11	0.00521644	0.000323641	0	-0.00304567	7.68873e-05	7.40172e-07	39.431	0.00228702	0.00176647	-0.0014526	-14.4774	16.1193	15.6075	4.0298	0.0600706	0.0155174	0.0620424	14.484	1.22906e+08	4.75793e+08	4.91411e+08	-75.5161	0.0000000E+000	0.0000000E+000	0.0000000E+000	75.5161	0.0000000E+000	0.0000000E+000	0.0000000E+000	-75.5161	0.0000000E+000	0.0000000E+000	0.0000000E+000	-14.484	0.0000000E+000	0.0000000E+000	0.0000000E+000	14.484	3.87119	75.5161	0.000000000000000E+000	-6.9212e-05	-1.37137e-09	-6.92106e-05	3.88037	217562	4.31077	217557
0.00796479	17.3331	4.4504	17.8953	-14.4001	20329.5	3.8805	-0.000976533	4.49001e+06	277694	1	11	0.00521199	0.000291249	0	-0.0380766	0.00015324	3.34693e-07	-59.7139	0.00114916	0.000579545	0.000992325	-14.4027	17.8961	17.3337	4.45139	0.054125	0.013897	0.0558806	14.4001	2.77694e+08	1.08154e+09	1.11662e+09	-75.5999	0.0000000E+000	0.0000000E+000	0.0000000E+000	75.5999	0.0000000E+000	0.0000000E+000	0.0000000E+000	-75.5999	0.0000000E+000	0.0000000E+000	0.0000000E+000	-14.4001	0.0000000E+000	0.0000000E+000	0.0000000E+000	14.4001	3.89472	75.5999	-0.0350309	-3.78944e-06	-1.49643e-10	-3.78929e-06	3.88035	3.97376e+06	156.922	3.9736e+06
0.00497799	18.6085	4.58867	19.1659	-13.8522	20329.5	3.8805	-0.000976533	6.96754e+06	399387	1	11	0.00522057	0.000272388	0	-0.0380766	0.00015324	3.1929e-07	-40.0867	0.00117219	0.000896807	0.000754825	-13.8538	19.167	18.6094	4.58942	0.0506585	0.0124919	0.052176	13.8522	3.99387e+08	1.61964e+09	1.66816e+09	-76.1478	0.0000000E+000	0.0000000E+000	0.0000000E+000	76.1478	0.0000000E+000	0.0000000E+000	0.0000000E+000	-76.1478	0.0000000E+000	0.0000000E+000	0.0000000E+000	-13.8522	0.0000000E+000	0.0000000E+000	0.0000000E+000	13.8522	4.05532	76.1478	0.000000000000000E+000	-3.78944e-06	-1.49643e-10	-3.78929e-06	3.88035	3.97376e+06	156.922	3.9736e+06
0.00318591	19.4444	6.1502	20.3939	-17.552	20329.5	3.8805	-0.000976533	8.12263e+06	738714	1	11	0.00522286	0.000256099	0	-0.0380766	0.00015324	5.86219e-07	-60.5023	0.00228903	0.00112709	0.00199232	-17.5564	20.3955	19.4455	6.15219	0.0467515	0.0147873	0.0490344	17.552	7.38714e+08	2.33551e+09	2.44955e+09	-72.448	0.0000000E+000	0.0000000E+000	0.0000000E+000	72.448	0.0000000E+000	0.0000000E+000	0.0000000E+000	-72.448	0.0000000E+000	0.0000000E+000	0.0000000E+000	-17.552	0.0000000E+000	0.0000000E+000	0.0000000E+000	17.552	3.16159	72.448	0.000000000000000E+000	-3.78944e-06	-1.49643e-10	-3.78929e-06	3.88035	3.97376e+06	156.922	3.9736e+06
0.0019912	20.162	7.68389	21.5765	-20.8622	20329.5	3.8805	-0.000976533	1.04022e+07	1.31924e+06	1	11	0.00522693	0.00024225	0	-0.0380766	0.00015324	8.79958e-07	59.0907	0.00363243	0.00186591	-0.00311656	-20.8528	21.5772	20.1638	7.68077	0.0433081	0.0165051	0.0463467	20.8622	1.31924e+09	3.46159e+09	3.70446e+09	-69.1377	0.0000000E+000	0.0000000E+000	0.0000000E+000	69.1377	0.0000000E+000	0.0000000E+000	0.0000000E+000	-69.1377	0.0000000E+000	0.0000000E+000	0.0000000E+000	-20.8622	0.0000000E+000	0.0000000E+000	0.0000000E+000	20.8622	2.62393	69.1377	0.000000000000000E+000	-3.78944e-06	-1.49643e-10	-3.78929e-06	3.88035	3.97376e+06	156.922	3.9736e+06
0.00129428	19.5987	10.0704	22.0346	-27.1954	20329.5	3.8805	-0.000976533	1.22109e+07	2.55053e+06	1	11	0.00522874	0.000237297	0	-0.0380766	0.00015324	1.90995e-06	115.119	0.00804875	-0.00341665	-0.00728759	-27.1826	22.0282	19.5953	10.0631	0.0403662	0.0207414	0.0453832	27.1954	2.55053e+09	4.96376e+09	5.58069e+09	-62.8046	0.0000000E+000	0.0000000E+000	0.0000000E+000	62.8046	0.0000000E+000	0.0000000E+000	0.0000000E+000	-62.8046	0.0000000E+000	0.0000000E+000	0.0000000E+000	-27.1954	0.0000000E+000	0.0000000E+000	0.0000000E+000	27.1954	1.94617	62.8046	0.000000000000000E+000	-3.78944e-06	-1.49643e-10	-3.78929e-06	3.88035	3.97376e+06	156.922	3.9736e+06
0.000796479	21.7192	14.8498	26.3105	-34.3611	20329.5	3.8805	-0.000976533	1.34563e+07	4.28656e+06	1	11	0.00522441	0.000198568	0	-0.0380766	0.00015324	3.16944e-06	-42.646	0.0159615	0.0117405	0.0108134	-34.3661	26.3263	21.731	14.8606	0.0313752	0.0214518	0.0380077	34.3611	4.28656e+09	6.26949e+09	7.59481e+09	-55.6389	0.0000000E+000	0.0000000E+000	0.0000000E+000	55.6389	0.0000000E+000	0.0000000E+000	0.0000000E+000	-55.6389	0.0000000E+000	0.0000000E+000	0.0000000E+000	-34.3611	0.0000000E+000	0.0000000E+000	0.0000000E+000	34.3611	1.46259	55.6389	0.000000000000000E+000	-3.78944e-06	-1.49643e-10	-3.78929e-06	3.88035	3.97376e+06	156.922	3.9736e+06
0.000497799	21.4408	20.9461	29.9741	-44.3313	20329.5	3.8805	-0.000976533	1.52638e+07	7.45378e+06	1	11	0.00522858	0.000174437	0	-0.0380766	0.00015324	1.31153e-06	11.9152	0.00751867	0.00735668	-0.00155234	-44.3193	29.9783	21.4482	20.9445	0.0238643	0.0233137	0.0333622	44.3313	7.45378e+09	7.62983e+09	1.06665e+10	-45.6687	0.0000000E+000	0.0000000E+000	0.0000000E+000	45.6687	0.0000000E+000	0.0000000E+000	0.0000000E+000	-45.6687	0.0000000E+000	0.0000000E+000	0.0000000E+000	-44.3313	0.0000000E+000	0.0000000E+000	0.0000000E+000	44.3313	1.02362	45.6687	0.000000000000000E+000	-3.78944e-06	-1.49643e-10	-3.78929e-06	3.88035	3.97376e+06	156.922	3.9736e+06
0.000298679	20.1428	32.6043	38.3246	-58.2923	20329.5	3.8805	-0.000976533	1.63433e+07	1.18286e+07	1	11	0.00522988	0.000136463	0	-0.0380766	0.00015324	5.99356e-06	83.1845	0.0439208	0.00521222	-0.0436104	-58.2514	38.2902	20.1481	32.5607	0.0137141	0.0221983	0.0260929	58.2923	1.18286e+10	7.3077e+09	1.39039e+10	-31.7077	0.0000000E+000	0.0000000E+000	0.0000000E+000	31.7077	0.0000000E+000	0.0000000E+000	0.0000000E+000	-31.7077	0.0000000E+000	0.0000000E+000	0.0000000E+000	-58.2923	0.0000000E+000	0.0000000E+000	0.0000000E+000	58.2923	0.617798	31.7077	0.000000000000000E+000	-3.78944e-06	-1.49643e-10	-3.78929e-06	3.88035	3.97376e+06	156.922	3.9736e+06
9.95598e-05	19.8762	141.884	143.27	-82.0255	20329.5	3.8805	-0.000976533	1.12668e+07	1.105e+07	1	11	0.00523055	3.65084e-05	0	-0.0380766	0.00015324	3.77354e-06	-43.9333	0.103361	0.074435	0.0717138	-82	143.351	19.9507	141.956	0.000968336	0.00691235	0.00697985	82.0255	1.105e+10	1.54797e+09	1.11579e+10	-7.97454	0.0000000E+000	0.0000000E+000	0.0000000E+000	7.97454	0.0000000E+000	0.0000000E+000	0.0000000E+000	-7.97454	0.0000000E+000	0.0000000E+000	0.0000000E+000	-82.0255	0.0000000E+000	0.0000000E+000	0.0000000E+000	82.0255	0.140088	7.97455	0.000000000000000E+000	-3.78944e-06	-1.49643e-10	-3.78929e-06	3.88035	3.97376e+06	156.922	3.9736e+06