File: txt/19190_R297_UC94_SOC50_C07.mpt
EC-Lab ASCII FILE
Nb header lines : 65

Potentio Electrochemical Impedance Spectroscopy

Run on channel : 7 (SN 66126)
Grouped channel(s) : 5, 6, 7, 8
User :
CE vs. WE compliance from -10 V to 10 V
Electrode connection : standard
Potential control : Ewe
Ewe ctrl range : min = -10.00 V, max = 10.00 V
Safety Limits :
	Do not start on E overload
Acquisition started on : 11/11/2025 16:20:58.367
Loaded Setting File :  C:\Users\Celltest\OneDrive - store-dot.com\Documents\EC-Lab\Data\@Biologic Test Protocols\cathode half cell EIS SOC50.mps
Saved on :
	File : 19187_R297_UC94_SOC50_C07.mpr
	Directory : C:\Users\Celltest\OneDrive - store-dot.com\Documents\EC-Lab\Data\Michael\
	Host : 169.254.61.224
Device : VMP-3e (SN .003165)
Address : USB
EC-LAB for windows v11.62 (software)
Internet server v27.00 (firmware)
Command interpretor v12.03 (firmware)
Electrode material :
Initial state :
Electrolyte :
Comments :
Electrode surface area : 0.001 cm²
Characteristic mass : 0.001 g
Equivalent Weight : 0.000 g/eq.
Density : 0.000 g/cm3
Volume (V) : 0.001 cm³
Record Ece
Cycle Definition : Charge/Discharge alternance
Mode                Multi sine
E (V)               0.0000
vs.                 Eoc
tE (h:m:s)          0:00:0.0000
record              0
dI                  0.000
unit dI             mA
dt (s)              0.000
fi                  1.000
unit fi             MHz
ff                  0.100
unit ff             mHz
Nd                  10
Points              per decade
spacing             Logarithmic
Va (mV)             5.0
pw                  0.10
Na                  2
corr                0
E range min (V)     -10.000
E range max (V)     10.000
I Range             Auto
Bandwidth           5
nc cycles           0
goto Ns'            0
nr cycles           0
inc. cycle          0

freq/Hz	Re(Z)/Ohm	-Im(Z)/Ohm	|Z|/Ohm	Phase(Z)/deg	time/s	<Ewe>/V	<I>/mA	Cs/µF	Cp/µF	cycle number	I Range	|Ewe|/V	|I|/A	Ns	(Q-Qo)/mA.h	<Ece>/V	|Ece|/V	Phase(Zce)/deg	|Zce|/Ohm	Re(Zce)/Ohm	-Im(Zce)/Ohm	Phase(Zwe-ce)/deg	|Zwe-ce|/Ohm	Re(Zwe-ce)/Ohm	-Im(Zwe-ce)/Ohm	Re(Y)/Ohm-1	Im(Y)/Ohm-1	|Y|/Ohm-1	Phase(Y)/deg	Re(C)/nF	Im(C)/nF	|C|/nF	Phase(C)/deg	Re(M)	Im(M)	|M|	Phase(M)/deg	Re(Permittivity)	Im(Permittivity)	|Permittivity|	Phase(Permittivity)/deg	Re(Resistivity)/Ohm.cm	Im(Resistivity)/Ohm.cm	|Resistivity|/Ohm.cm	Phase(Resistivity)/deg	Re(Conductivity)/mS/cm	Im(Conductivity)/mS/cm	|Conductivity|/mS/cm	Phase(Conductivity)/deg	Tan(Delta)	Loss Angle(Delta)/deg	dq/mA.h	Pwe/W	Pce/W	Pwe-ce/W	<Ewe-Ece>/V	Rwe/Ohm	Rce/Ohm	Rwe-ce/Ohm		Ewe-Ece/V
1.00002e+06	2.76187	2.6552	3.83119	-43.8719	2.23353	3.87901	-0.0451191	0.0599398	0.0287901	1	10	0.000216607	5.6538e-05	0	-2.39801e-05	7.0268e-05	0.000204231	-62.4465	3.61227	1.67095	3.20257	-52.8837	7.34597	4.43282	5.85777	0.188164	0.180897	0.261016	43.8719	28.7901	29.9467	41.5412	-46.1281	0.0000000E+000	0.0000000E+000	0.0000000E+000	46.1281	0.0000000E+000	0.0000000E+000	0.0000000E+000	-46.1281	0.0000000E+000	0.0000000E+000	0.0000000E+000	-43.8719	0.0000000E+000	0.0000000E+000	0.0000000E+000	43.8719	1.04017	46.1281	-2.39801e-05	-0.000175017	-3.17043e-09	-0.000175014	3.87894	85972.6	1.55739	85971.1
630957	0.488417	0.051937	0.491171	-6.06988	3.40453	3.87912	0.0469619	4.85672	0.0543041	1	9	0.000151382	0.000308206	0	-1.78235e-05	-0.000101411	0.000125016	-99.3677	0.405626	-0.0660239	0.400216	-46.949	0.618756	0.422393	0.452153	2.02454	0.215284	2.03595	6.06988	54.3041	510.677	513.556	-83.9301	0.0000000E+000	0.0000000E+000	0.0000000E+000	83.9301	0.0000000E+000	0.0000000E+000	0.0000000E+000	-83.9301	0.0000000E+000	0.0000000E+000	0.0000000E+000	-6.06988	0.0000000E+000	0.0000000E+000	0.0000000E+000	6.06988	9.40402	83.9301	4.87569e-06	0.000182171	-4.76245e-09	0.000182176	3.87922	82601.3	2.15942	82603.5
398103	0.657513	0.0263165	0.65804	-2.292	4.17055	3.87932	0.069043	15.1914	0.0242967	1	9	0.000574787	0.000873483	0	-3.7567e-06	-4.41845e-05	5.04039e-05	172.998	0.0577045	-0.0572741	-0.00703443	-1.83993	0.600549	0.600239	0.019282	1.51845	0.0607748	1.51966	2.292	24.2967	607.05	607.536	-87.708	0.0000000E+000	0.0000000E+000	0.0000000E+000	87.708	0.0000000E+000	0.0000000E+000	0.0000000E+000	-87.708	0.0000000E+000	0.0000000E+000	0.0000000E+000	-2.292	0.0000000E+000	0.0000000E+000	0.0000000E+000	2.292	24.9849	87.708	7.66759e-06	0.00026784	-3.05063e-09	0.000267843	3.87937	56187.1	0.639957	56187.7
251206	0.763079	0.173218	0.782492	-12.7893	4.93956	3.87923	0.0682238	3.65761	0.179235	1	9	0.00183374	0.00234346	0	7.76007e-06	-0.000139562	5.58398e-05	91.9655	0.0238279	-0.000817241	-0.0238139	-11.0894	0.776765	0.762261	0.149404	1.24626	0.2829	1.27797	12.7893	179.235	789.586	809.674	-77.2107	0.0000000E+000	0.0000000E+000	0.0000000E+000	77.2107	0.0000000E+000	0.0000000E+000	0.0000000E+000	-77.2107	0.0000000E+000	0.0000000E+000	0.0000000E+000	-12.7893	0.0000000E+000	0.0000000E+000	0.0000000E+000	12.7893	4.40532	77.2107	6.27984e-06	0.000264656	-9.52143e-09	0.000264665	3.87936	56860.3	2.04564	56862.3
158486	0.835734	0.286709	0.883546	-18.9351	5.70752	3.87919	0.0555264	3.50258	0.368817	1	9	0.00503149	0.00569466	0	3.17395e-05	-6.32599e-05	8.01108e-05	82.2746	0.0140677	0.00189107	-0.01394	-18.0376	0.880919	0.837625	0.272769	1.07056	0.367267	1.1318	18.9351	368.817	1075.08	1136.58	-71.0649	0.0000000E+000	0.0000000E+000	0.0000000E+000	71.0649	0.0000000E+000	0.0000000E+000	0.0000000E+000	-71.0649	0.0000000E+000	0.0000000E+000	0.0000000E+000	-18.9351	0.0000000E+000	0.0000000E+000	0.0000000E+000	18.9351	2.91493	71.0649	1.72655e-05	0.000215397	-3.5126e-09	0.000215401	3.87925	69862	1.13928	69863.1
100004	0.931702	0.37988	1.00617	-22.1821	6.47556	3.87923	0.0633832	4.18945	0.597184	1	9	0.00531079	0.00527823	0	7.97805e-05	-0.000120486	5.71083e-05	79.6447	0.0108196	0.00194484	-0.0106434	-21.5777	1.00401	0.933647	0.369237	0.920311	0.375236	0.993868	22.1821	597.184	1464.67	1581.73	-67.8179	0.0000000E+000	0.0000000E+000	0.0000000E+000	67.8179	0.0000000E+000	0.0000000E+000	0.0000000E+000	-67.8179	0.0000000E+000	0.0000000E+000	0.0000000E+000	-22.1821	0.0000000E+000	0.0000000E+000	0.0000000E+000	22.1821	2.45262	67.8179	2.4675e-05	0.000245878	-7.6368e-09	0.000245886	3.87935	61202.7	1.90092	61204.6
63093.8	1.04863	0.464851	1.14704	-23.9074	7.24152	3.87924	0.0646865	5.4265	0.891224	1	9	0.00531909	0.00463722	0	0.000105353	-0.000292165	4.05209e-05	73.0029	0.00873819	0.00255438	-0.0083565	-23.4737	1.14603	1.05118	0.456494	0.797007	0.353308	0.871806	23.9074	891.224	2010.46	2199.14	-66.0926	0.0000000E+000	0.0000000E+000	0.0000000E+000	66.0926	0.0000000E+000	0.0000000E+000	0.0000000E+000	-66.0926	0.0000000E+000	0.0000000E+000	0.0000000E+000	-23.9074	0.0000000E+000	0.0000000E+000	0.0000000E+000	23.9074	2.25584	66.0926	5.55632e-06	0.000250934	-1.88991e-08	0.000250953	3.87953	59969.9	4.51663	59974.4
39814.1	1.19285	0.571014	1.32248	-25.5803	8.00753	3.87925	0.0637183	7.00062	1.30513	1	9	0.00532541	0.00402684	0	0.000115979	-4.41845e-05	1.94879e-05	35.344	0.00483951	0.00394756	-0.00279958	-25.3974	1.32484	1.1968	0.568215	0.682038	0.326489	0.756155	25.5803	1305.13	2726.41	3022.7	-64.4197	0.0000000E+000	0.0000000E+000	0.0000000E+000	64.4197	0.0000000E+000	0.0000000E+000	0.0000000E+000	-64.4197	0.0000000E+000	0.0000000E+000	0.0000000E+000	-25.5803	0.0000000E+000	0.0000000E+000	0.0000000E+000	25.5803	2.08901	64.4197	2.75167e-06	0.000247179	-2.81536e-09	0.000247182	3.87929	60881.2	0.693435	60881.9
25116.9	1.36278	0.67308	1.51993	-26.2849	8.77552	3.87925	0.0698994	9.41428	1.84617	1	9	0.00531626	0.00349769	0	0.000119677	-0.000349391	1.01893e-05	56.9343	0.00291314	0.00158941	-0.00244134	-26.1759	1.52028	1.36437	0.670639	0.589896	0.291352	0.657924	26.2849	1846.17	3737.92	4168.98	-63.7151	0.0000000E+000	0.0000000E+000	0.0000000E+000	63.7151	0.0000000E+000	0.0000000E+000	0.0000000E+000	-63.7151	0.0000000E+000	0.0000000E+000	0.0000000E+000	-26.2849	0.0000000E+000	0.0000000E+000	0.0000000E+000	26.2849	2.02469	63.7151	4.60912e-06	0.000271157	-2.44223e-08	0.000271182	3.8796	55497.5	4.99848	55502.5
15847.7	1.55429	0.790285	1.74366	-26.9513	9.54152	3.87924	0.0662875	12.7078	2.61044	1	9	0.00511885	0.00293569	0	0.000127377	-8.23354e-05	4.61208e-06	-32.4874	0.00157104	0.00132518	0.000843825	-26.9563	1.74523	1.55561	0.791129	0.511218	0.259932	0.573506	26.9513	2610.44	5134.06	5759.6	-63.0487	0.0000000E+000	0.0000000E+000	0.0000000E+000	63.0487	0.0000000E+000	0.0000000E+000	0.0000000E+000	-63.0487	0.0000000E+000	0.0000000E+000	0.0000000E+000	-26.9513	0.0000000E+000	0.0000000E+000	0.0000000E+000	26.9513	1.96674	63.0487	4.14479e-06	0.000257145	-5.45781e-09	0.000257151	3.87932	58521.4	1.24209	58522.6
10002.2	1.78951	0.914102	2.00946	-27.0584	10.1835	3.87925	0.0598085	17.4072	3.60212	1	9	0.00527461	0.00262489	0	0.000136439	-0.000349391	8.20473e-06	44.587	0.00312575	0.00222611	-0.00219425	-26.9739	2.01045	1.79174	0.911908	0.443175	0.226378	0.497645	27.0584	3602.12	7051.77	7918.51	-62.9416	0.0000000E+000	0.0000000E+000	0.0000000E+000	62.9416	0.0000000E+000	0.0000000E+000	0.0000000E+000	-62.9416	0.0000000E+000	0.0000000E+000	0.0000000E+000	-27.0584	0.0000000E+000	0.0000000E+000	0.0000000E+000	27.0584	1.95768	62.9416	4.66263e-06	0.000232012	-2.08966e-08	0.000232033	3.8796	64861.2	5.84184	64867
6309.38	2.05315	1.05947	2.31039	-27.2948	10.7036	3.87927	0.0503505	23.8091	5.00671	1	9	0.00513396	0.00222212	0	0.00014147	-4.41845e-05	7.83157e-06	104.114	0.00352437	-0.000859398	-0.00341798	-27.2292	2.30806	2.05229	1.05606	0.384636	0.198481	0.432827	27.2948	5006.71	9702.48	10918.1	-62.7052	0.0000000E+000	0.0000000E+000	0.0000000E+000	62.7052	0.0000000E+000	0.0000000E+000	0.0000000E+000	-62.7052	0.0000000E+000	0.0000000E+000	0.0000000E+000	-27.2948	0.0000000E+000	0.0000000E+000	0.0000000E+000	27.2948	1.9379	62.7052	1.51132e-06	0.000195323	-2.22471e-09	0.000195325	3.87931	77045.3	0.877539	77046.1
3983.6	2.33321	1.23284	2.6389	-27.8515	11.2661	3.87914	-0.0165628	32.4068	7.07308	1	9	0.00493493	0.00187008	0	0.000144779	-0.000234939	1.3293e-05	-89.5149	0.00710825	6.01825e-05	0.007108	-27.9872	2.64228	2.33327	1.23995	0.33505	0.177037	0.378946	27.8515	7073.08	13386.1	15139.9	-62.1485	0.0000000E+000	0.0000000E+000	0.0000000E+000	62.1485	0.0000000E+000	0.0000000E+000	0.0000000E+000	-62.1485	0.0000000E+000	0.0000000E+000	0.0000000E+000	-27.8515	0.0000000E+000	0.0000000E+000	0.0000000E+000	27.8515	1.89254	62.1485	-2.10028e-06	-6.42493e-05	3.89123e-09	-6.42532e-05	3.87938	234209	14.1848	234223
2510.8	2.67259	1.44784	3.03956	-28.446	12.0908	3.87911	0.0175082	43.7813	9.93354	1	9	0.0048044	0.00158062	0	0.000143856	-0.000368467	6.47417e-06	-17.276	0.00409597	0.00391118	0.0012164	-28.431	3.04358	2.6765	1.44905	0.289274	0.15671	0.328994	28.446	9933.54	18336.5	20854.3	-61.554	0.0000000E+000	0.0000000E+000	0.0000000E+000	61.554	0.0000000E+000	0.0000000E+000	0.0000000E+000	-61.554	0.0000000E+000	0.0000000E+000	0.0000000E+000	-28.446	0.0000000E+000	0.0000000E+000	0.0000000E+000	28.446	1.84592	61.554	8.98016e-07	6.79163e-05	-6.4512e-09	6.79227e-05	3.87947	221559	21.0453	221580
1585.51	3.08558	1.74001	3.54238	-29.4194	13.2378	3.87915	-0.0345464	57.69	13.9192	1	10	0.00488783	0.00137982	0	0.000144596	-0.000101411	3.5624e-05	-122.787	0.0258179	-0.0139808	0.0217049	-29.8364	3.54096	3.0716	1.76171	0.245894	0.138663	0.282296	29.4194	13919.2	24683.1	28337.2	-60.5806	0.0000000E+000	0.0000000E+000	0.0000000E+000	60.5806	0.0000000E+000	0.0000000E+000	0.0000000E+000	-60.5806	0.0000000E+000	0.0000000E+000	0.0000000E+000	-29.4194	0.0000000E+000	0.0000000E+000	0.0000000E+000	29.4194	1.77331	60.5806	-1.11769e-06	-0.000134011	3.50338e-09	-0.000134014	3.87925	112288	2.93549	112291
1000.32	3.57963	2.13035	4.16559	-30.7582	14.1408	3.87916	-0.0335785	74.6844	19.5335	1	10	0.0047655	0.00114402	0	0.000135772	-0.000463844	1.11641e-05	4.45175	0.00975867	0.00972923	-0.000757463	-30.681	4.17356	3.58936	2.12959	0.206293	0.122772	0.240062	30.7582	19533.5	32822.1	38194.8	-59.2418	0.0000000E+000	0.0000000E+000	0.0000000E+000	59.2418	0.0000000E+000	0.0000000E+000	0.0000000E+000	-59.2418	0.0000000E+000	0.0000000E+000	0.0000000E+000	-30.7582	0.0000000E+000	0.0000000E+000	0.0000000E+000	30.7582	1.6803	59.2418	-4.46988e-06	-0.000130256	1.55752e-08	-0.000130272	3.87962	115525	13.8137	115539
631.01	4.26455	2.57539	4.98187	-31.128	15.0416	3.87915	-0.0334184	97.9359	26.1723	1	10	0.00469622	0.000942661	0	0.000128641	-0.000254014	8.37728e-06	2.63159	0.00888684	0.00887746	-0.000408029	-31.0713	4.98926	4.27343	2.57498	0.171826	0.103767	0.200728	31.128	26172.3	43338.4	50628.1	-58.872	0.0000000E+000	0.0000000E+000	0.0000000E+000	58.872	0.0000000E+000	0.0000000E+000	0.0000000E+000	-58.872	0.0000000E+000	0.0000000E+000	0.0000000E+000	-31.128	0.0000000E+000	0.0000000E+000	0.0000000E+000	31.128	1.65589	58.872	-3.40471e-06	-0.000129635	8.48876e-09	-0.000129644	3.8794	116078	7.60102	116086
398.089	5.21733	2.97983	6.00832	-29.7324	15.9429	3.87915	-0.0345688	134.168	33.0009	1	10	0.00465177	0.000774222	0	0.000120553	-0.00031124	2.46049e-05	105.824	0.0317802	-0.00866595	-0.0305759	-29.5194	5.98567	5.20866	2.94925	0.144525	0.082544	0.166436	29.7324	33000.9	57780.6	66540.6	-60.2676	0.0000000E+000	0.0000000E+000	0.0000000E+000	60.2676	0.0000000E+000	0.0000000E+000	0.0000000E+000	-60.2676	0.0000000E+000	0.0000000E+000	0.0000000E+000	-29.7324	0.0000000E+000	0.0000000E+000	0.0000000E+000	29.7324	1.75088	60.2676	-3.92462e-06	-0.000134098	1.07592e-08	-0.000134108	3.87946	112215	9.00351	112224
251.044	6.39686	3.19687	7.15121	-26.5538	16.841	3.87916	-0.034781	198.31	39.631	1	10	0.00463533	0.000648188	0	0.000111617	-0.000254014	4.78551e-06	153.795	0.00738291	-0.00662408	-0.0032602	-26.5542	7.14382	6.39024	3.19361	0.125086	0.0625123	0.139837	26.5538	39631	79300.8	88652.4	-63.4462	0.0000000E+000	0.0000000E+000	0.0000000E+000	63.4462	0.0000000E+000	0.0000000E+000	0.0000000E+000	-63.4462	0.0000000E+000	0.0000000E+000	0.0000000E+000	-26.5538	0.0000000E+000	0.0000000E+000	0.0000000E+000	26.5538	2.00098	63.4462	-4.3322e-06	-0.000134921	8.83486e-09	-0.00013493	3.87941	111531	7.30325	111538
158.428	7.63053	3.07318	8.22614	-21.937	17.7459	3.87914	-0.0342151	326.888	45.6229	1	10	0.00462636	0.000562397	0	0.000102127	-0.000101411	6.67821e-06	-18.5477	0.0118746	0.0112578	0.00377723	-21.9321	8.238	7.64179	3.07696	0.112762	0.0454146	0.121564	21.937	45622.9	113279	122121	-68.063	0.0000000E+000	0.0000000E+000	0.0000000E+000	68.063	0.0000000E+000	0.0000000E+000	0.0000000E+000	-68.063	0.0000000E+000	0.0000000E+000	0.0000000E+000	-21.937	0.0000000E+000	0.0000000E+000	0.0000000E+000	21.937	2.48294	68.063	-4.46664e-06	-0.000132725	3.46978e-09	-0.000132729	3.87924	113375	2.96392	113378
100.032	8.6879	2.65268	9.08385	-16.979	18.6448	3.87915	-0.034364	599.786	51.1477	1	10	0.00461413	0.000507949	0	9.42066e-05	-0.000215863	6.2489e-06	-156.377	0.0123022	-0.0112713	0.00492966	-17.0296	9.07451	8.67663	2.65761	0.105287	0.0321473	0.110085	16.979	51147.6	167516	175150	-73.021	0.0000000E+000	0.0000000E+000	0.0000000E+000	73.021	0.0000000E+000	0.0000000E+000	0.0000000E+000	-73.021	0.0000000E+000	0.0000000E+000	0.0000000E+000	-16.979	0.0000000E+000	0.0000000E+000	0.0000000E+000	16.979	3.27514	73.021	-4.19474e-06	-0.000133303	7.41794e-09	-0.000133311	3.87936	112884	6.28166	112890
63.0823	9.44915	2.11786	9.68358	-12.6331	19.5619	3.87916	-0.0291373	1191.28	56.9821	1	10	0.00461066	0.000476132	0	8.63411e-05	-0.000254014	5.82343e-06	41.1406	0.0122307	0.00921091	-0.00804669	-12.5747	9.69081	9.45836	2.10981	0.100768	0.0225853	0.103268	12.6331	56982.1	254234	260541	-77.3669	0.0000000E+000	0.0000000E+000	0.0000000E+000	77.3669	0.0000000E+000	0.0000000E+000	0.0000000E+000	-77.3669	0.0000000E+000	0.0000000E+000	0.0000000E+000	-12.6331	0.0000000E+000	0.0000000E+000	0.0000000E+000	12.6331	4.46165	77.3669	-3.52056e-06	-0.000113028	7.40128e-09	-0.000113035	3.87941	133134	8.71784	133142
39.8089	9.97365	1.60821	10.1025	-9.15988	20.4628	3.87916	-0.0324803	2485.97	62.9981	1	10	0.00462168	0.000457479	0	7.9321e-05	-0.00027309	1.02829e-05	-28.0171	0.0224773	0.0198432	0.0105584	-9.201	10.1238	9.9935	1.61877	0.0977233	0.0157575	0.0989856	9.15988	62998.1	390695	395742	-80.8401	0.0000000E+000	0.0000000E+000	0.0000000E+000	80.8401	0.0000000E+000	0.0000000E+000	0.0000000E+000	-80.8401	0.0000000E+000	0.0000000E+000	0.0000000E+000	-9.15988	0.0000000E+000	0.0000000E+000	0.0000000E+000	9.15988	6.2017	80.8401	-3.65434e-06	-0.000125996	8.87004e-09	-0.000126005	3.87943	119431	8.40785	119439
25.1044	10.2668	1.17878	10.3343	-6.54972	21.3421	3.87915	-0.0337163	5378.2	69.9751	1	10	0.00461963	0.000447021	0	7.11719e-05	-8.23354e-05	5.35533e-06	44.2107	0.0119801	0.00858707	-0.00835368	-6.49831	10.3418	10.2754	1.17043	0.0961339	0.0110376	0.0967655	6.54972	69975.1	609462	613466	-83.4503	0.0000000E+000	0.0000000E+000	0.0000000E+000	83.4503	0.0000000E+000	0.0000000E+000	0.0000000E+000	-83.4503	0.0000000E+000	0.0000000E+000	0.0000000E+000	-6.54972	0.0000000E+000	0.0000000E+000	0.0000000E+000	6.54972	8.70969	83.4503	-3.87749e-06	-0.000130791	2.77604e-09	-0.000130793	3.87924	115053	2.44201	115055
15.8576	10.4548	0.885141	10.4922	-4.83932	22.222	3.87916	-0.0342375	11338.9	80.6977	1	10	0.00461568	0.000439915	0	6.44569e-05	-0.000234939	1.41881e-05	9.84212	0.0322519	0.0317772	-0.00551294	-4.79481	10.5234	10.4866	0.879628	0.094969	0.0080404	0.0953087	4.83932	80697.7	953158	956568	-85.1607	0.0000000E+000	0.0000000E+000	0.0000000E+000	85.1607	0.0000000E+000	0.0000000E+000	0.0000000E+000	-85.1607	0.0000000E+000	0.0000000E+000	0.0000000E+000	-4.83932	0.0000000E+000	0.0000000E+000	0.0000000E+000	4.83932	11.8115	85.1607	-3.30256e-06	-0.000132813	8.04371e-09	-0.000132821	3.87939	113302	6.86204	113308
10.0032	10.5845	0.657547	10.6049	-3.55485	23.2029	3.87915	-0.0329159	24196.6	93.0237	1	10	0.00461784	0.000435444	0	5.65136e-05	-0.000292165	1.09295e-05	45.0158	0.0250998	0.0177434	-0.0177531	-3.45333	10.6215	10.6023	0.639794	0.0941145	0.00584672	0.0942959	3.55485	93023.7	1.4974e+06	1.50029e+06	-86.4452	0.0000000E+000	0.0000000E+000	0.0000000E+000	86.4452	0.0000000E+000	0.0000000E+000	0.0000000E+000	-86.4452	0.0000000E+000	0.0000000E+000	0.0000000E+000	-3.55485	0.0000000E+000	0.0000000E+000	0.0000000E+000	3.55485	16.097	86.4452	-2.24674e-06	-0.000127686	9.61687e-09	-0.000127695	3.87944	117850	8.87611	117859
6.31058	10.6883	0.572124	10.7036	-3.06399	24.3313	3.8792	-0.0229657	44082	125.944	1	11	0.00461249	0.000430927	0	4.86415e-05	-0.000139562	5.3626e-06	-37.8191	0.0124443	0.00983042	0.00763051	-3.10193	10.7139	10.6982	0.579754	0.0932925	0.00499374	0.0934261	3.06399	125944	2.35287e+06	2.35624e+06	-86.936	0.0000000E+000	0.0000000E+000	0.0000000E+000	86.936	0.0000000E+000	0.0000000E+000	0.0000000E+000	-86.936	0.0000000E+000	0.0000000E+000	0.0000000E+000	-3.06399	0.0000000E+000	0.0000000E+000	0.0000000E+000	3.06399	18.6819	86.936	-2.59194e-06	-8.90886e-05	3.20513e-09	-8.90918e-05	3.87934	168913	6.07695	168919
3.97785	10.7834	0.531637	10.7965	-2.82248	25.3384	3.87919	-0.0226321	75258.6	182.482	1	11	0.0046157	0.000427518	0	4.29619e-05	-0.000120486	6.79921e-06	-117.351	0.0159039	-0.007307	0.0141259	-2.89931	10.7899	10.7761	0.545763	0.0925102	0.00456088	0.0926226	2.82248	182482	3.70136e+06	3.70585e+06	-87.1775	0.0000000E+000	0.0000000E+000	0.0000000E+000	87.1775	0.0000000E+000	0.0000000E+000	0.0000000E+000	-87.1775	0.0000000E+000	0.0000000E+000	0.0000000E+000	-2.82248	0.0000000E+000	0.0000000E+000	0.0000000E+000	2.82248	20.2834	87.1775	3.41809e-07	-8.77944e-05	2.72686e-09	-8.77971e-05	3.87931	171402	5.32368	171407
2.51367	10.8889	0.547105	10.9026	-2.87637	26.898	3.8792	-0.0209195	115728	291.421	1	11	0.00461875	0.000423637	0	3.71442e-05	-8.23354e-05	8.07373e-06	-6.52358	0.0190581	0.0189347	0.00216523	-2.88273	10.9216	10.9078	0.54927	0.0916056	0.00460267	0.0917211	2.87637	291421	5.80007e+06	5.80738e+06	-87.1236	0.0000000E+000	0.0000000E+000	0.0000000E+000	87.1236	0.0000000E+000	0.0000000E+000	0.0000000E+000	-87.1236	0.0000000E+000	0.0000000E+000	0.0000000E+000	-2.87637	0.0000000E+000	0.0000000E+000	0.0000000E+000	2.87637	19.9027	87.1236	-6.49204e-06	-8.11509e-05	1.72242e-09	-8.11526e-05	3.87928	185434	3.93582	185438
1.58469	10.9963	0.607487	11.013	-3.16209	29.3334	3.8792	-0.0208719	165326	503.039	1	11	0.00461425	0.000418981	0	8.46442e-06	-0.000330316	2.29268e-06	-43.5883	0.00547203	0.00396346	0.00377281	-3.18054	11.0172	11.0002	0.61126	0.0906634	0.00500869	0.0908016	3.16209	503039	9.10561e+06	9.11949e+06	-86.8379	0.0000000E+000	0.0000000E+000	0.0000000E+000	86.8379	0.0000000E+000	0.0000000E+000	0.0000000E+000	-86.8379	0.0000000E+000	0.0000000E+000	0.0000000E+000	-3.16209	0.0000000E+000	0.0000000E+000	0.0000000E+000	3.16209	18.1012	86.8379	-1.48697e-05	-8.09663e-05	6.89432e-09	-8.09731e-05	3.87953	185858	15.8259	185873
1.00469	11.3463	0.67102	11.3661	-3.38454	240.153	3.87916	-0.0171766	236076	822.809	1	11	0.00505705	0.000444924	0	-0.00267934	-0.000387542	4.36041e-07	12.4967	0.000980035	0.000956817	-0.000212063	-3.38318	11.367	11.3472	0.670808	0.0878275	0.00519413	0.0879809	3.38454	822809	1.39129e+07	1.39372e+07	-86.6155	0.0000000E+000	0.0000000E+000	0.0000000E+000	86.6155	0.0000000E+000	0.0000000E+000	0.0000000E+000	-86.6155	0.0000000E+000	0.0000000E+000	0.0000000E+000	-3.38454	0.0000000E+000	0.0000000E+000	0.0000000E+000	3.38454	16.909	86.6155	-0.00267853	-6.66306e-05	6.65664e-09	-6.66373e-05	3.87954	225840	22.5623	225863
0.632957	11.5119	0.823875	11.5414	-4.09352	240.155	3.87916	-0.0171766	305200	1555.23	1	11	0.00507207	0.000439469	0	-0.00267934	-0.000387542	3.72619e-07	3.56603	0.000847884	0.000846242	-5.27373e-05	-4.09296	11.5422	11.5128	0.823822	0.0864239	0.00618511	0.0866449	4.09352	1.55522e+06	2.1731e+07	2.17866e+07	-85.9065	0.0000000E+000	0.0000000E+000	0.0000000E+000	85.9065	0.0000000E+000	0.0000000E+000	0.0000000E+000	-85.9065	0.0000000E+000	0.0000000E+000	0.0000000E+000	-4.09352	0.0000000E+000	0.0000000E+000	0.0000000E+000	4.09352	13.9729	85.9065	0.000000000000000E+000	-6.66306e-05	6.65664e-09	-6.66373e-05	3.87954	225840	22.5623	225863
0.401878	11.6712	1.02416	11.7161	-5.01491	240.157	3.87916	-0.0171766	386685	2954.81	1	11	0.00508529	0.000434043	0	-0.00267934	-0.000387542	2.55695e-07	-37.8519	0.0005891	0.000465153	0.000361485	-5.01647	11.7166	11.6717	1.02452	0.0850259	0.0074611	0.0853527	5.01491	2.95481e+06	3.36727e+07	3.38021e+07	-84.9851	0.0000000E+000	0.0000000E+000	0.0000000E+000	84.9851	0.0000000E+000	0.0000000E+000	0.0000000E+000	-84.9851	0.0000000E+000	0.0000000E+000	0.0000000E+000	-5.01491	0.0000000E+000	0.0000000E+000	0.0000000E+000	5.01491	11.3959	84.9851	0.000000000000000E+000	-6.66306e-05	6.65664e-09	-6.66373e-05	3.87954	225840	22.5623	225863
0.251173	11.9723	1.33794	12.0468	-6.37655	240.159	3.87916	-0.0171766	473597	5841.72	1	11	0.00508959	0.000422484	0	-0.00267934	-0.000387542	3.82932e-07	15.6415	0.000906381	0.000872815	-0.000244376	-6.37493	12.0476	11.9731	1.3377	0.082496	0.00921922	0.0830096	6.37655	5.84172e+06	5.22732e+07	5.25986e+07	-83.6235	0.0000000E+000	0.0000000E+000	0.0000000E+000	83.6235	0.0000000E+000	0.0000000E+000	0.0000000E+000	-83.6235	0.0000000E+000	0.0000000E+000	0.0000000E+000	-6.37655	0.0000000E+000	0.0000000E+000	0.0000000E+000	6.37655	8.94826	83.6235	0.000000000000000E+000	-6.66306e-05	6.65664e-09	-6.66373e-05	3.87954	225840	22.5623	225863
0.160751	12.2963	1.50941	12.3886	-6.99821	240.16	3.87916	-0.0171766	655933	9737.05	1	11	0.00507709	0.000409819	0	-0.00267934	-0.000387542	6.24587e-07	19.8323	0.00152406	0.00143366	-0.000517063	-6.99503	12.39	12.2978	1.50889	0.0801179	0.00983469	0.0807192	6.99821	9.73704e+06	7.93224e+07	7.99178e+07	-83.0018	0.0000000E+000	0.0000000E+000	0.0000000E+000	83.0018	0.0000000E+000	0.0000000E+000	0.0000000E+000	-83.0018	0.0000000E+000	0.0000000E+000	0.0000000E+000	-6.99821	0.0000000E+000	0.0000000E+000	0.0000000E+000	6.99821	8.14645	83.0018	0.000000000000000E+000	-6.66306e-05	6.65664e-09	-6.66373e-05	3.87954	225840	22.5623	225863
0.100469	12.6705	2.05479	12.836	-9.21157	240.162	3.87916	-0.0171766	770937	19755.8	1	11	0.00508112	0.00039585	0	-0.00267934	-0.000387542	5.28353e-07	-26.7829	0.00133473	0.00119154	0.000601445	-9.21337	12.8373	12.6716	2.05539	0.0769013	0.0124712	0.077906	9.21157	1.97558e+07	1.2182e+08	1.23412e+08	-80.7884	0.0000000E+000	0.0000000E+000	0.0000000E+000	80.7884	0.0000000E+000	0.0000000E+000	0.0000000E+000	-80.7884	0.0000000E+000	0.0000000E+000	0.0000000E+000	-9.21157	0.0000000E+000	0.0000000E+000	0.0000000E+000	9.21157	6.1663	80.7884	0.000000000000000E+000	-6.66306e-05	6.65664e-09	-6.66373e-05	3.87954	225840	22.5623	225863
0.0602816	13.3181	2.5146	13.5534	-10.6921	240.164	3.87916	-0.0171766	1.04995e+06	36141.3	1	11	0.00507609	0.000374524	0	-0.00267934	-0.000387542	2.53915e-07	-110.037	0.000677968	-0.00023229	0.000636932	-10.695	13.5533	13.3179	2.51523	0.072501	0.0136889	0.073782	10.6921	3.61413e+07	1.91416e+08	1.94798e+08	-79.3079	0.0000000E+000	0.0000000E+000	0.0000000E+000	79.3079	0.0000000E+000	0.0000000E+000	0.0000000E+000	-79.3079	0.0000000E+000	0.0000000E+000	0.0000000E+000	-10.6921	0.0000000E+000	0.0000000E+000	0.0000000E+000	10.6921	5.29633	79.3079	0.000000000000000E+000	-6.66306e-05	6.65664e-09	-6.66373e-05	3.87954	225840	22.5623	225863
0.0401878	14.1014	2.89959	14.3964	-11.6195	240.166	3.87916	-0.0171766	1.36581e+06	55405.7	1	11	0.0050787	0.000352775	0	-0.00267934	-0.000387542	8.12868e-07	-22.0895	0.00230421	0.00213508	0.000866508	-11.6211	14.3987	14.1035	2.90046	0.0680382	0.0139903	0.0694617	11.6195	5.54057e+07	2.69451e+08	2.75088e+08	-78.3805	0.0000000E+000	0.0000000E+000	0.0000000E+000	78.3805	0.0000000E+000	0.0000000E+000	0.0000000E+000	-78.3805	0.0000000E+000	0.0000000E+000	0.0000000E+000	-11.6195	0.0000000E+000	0.0000000E+000	0.0000000E+000	11.6195	4.86323	78.3805	0.000000000000000E+000	-6.66306e-05	6.65664e-09	-6.66373e-05	3.87954	225840	22.5623	225863
0.0200939	15.7429	4.05071	16.2557	-14.4294	240.167	3.87916	-0.0171766	1.95535e+06	121416	1	11	0.0050779	0.000312376	0	-0.00267934	-0.000387542	4.91138e-07	-33.8839	0.00157226	0.00130525	0.000876557	-14.4313	16.2572	15.7442	4.05159	0.0595763	0.0153292	0.0615168	14.4294	1.21416e+08	4.71878e+08	4.87248e+08	-75.5706	0.0000000E+000	0.0000000E+000	0.0000000E+000	75.5706	0.0000000E+000	0.0000000E+000	0.0000000E+000	-75.5706	0.0000000E+000	0.0000000E+000	0.0000000E+000	-14.4294	0.0000000E+000	0.0000000E+000	0.0000000E+000	14.4294	3.88646	75.5706	0.000000000000000E+000	-6.66306e-05	6.65664e-09	-6.66373e-05	3.87954	225840	22.5623	225863
0.00796479	17.98	4.54627	18.5459	-14.1899	20329.1	3.87912	-0.000640609	4.39532e+06	264124	1	11	0.00507197	0.000273483	0	-0.0344273	-0.00027309	3.8446e-07	4.01647	0.00140579	0.00140234	-9.84661e-05	-14.1886	18.5472	17.9814	4.54617	0.0522752	0.0132179	0.0539204	14.1899	2.64124e+08	1.04458e+09	1.07745e+09	-75.8101	0.0000000E+000	0.0000000E+000	0.0000000E+000	75.8101	0.0000000E+000	0.0000000E+000	0.0000000E+000	-75.8101	0.0000000E+000	0.0000000E+000	0.0000000E+000	-14.1899	0.0000000E+000	0.0000000E+000	0.0000000E+000	14.1899	3.95489	75.8101	-0.0317479	-2.485e-06	1.74944e-10	-2.48517e-06	3.87939	6.05536e+06	426.297	6.05579e+06
0.00497799	19.2058	4.82338	19.8022	-14.0978	20329.1	3.87912	-0.000640609	6.62849e+06	393268	1	11	0.00507935	0.000256504	0	-0.0344273	-0.00027309	1.92344e-07	86.6503	0.00074987	4.38154e-05	-0.000748589	-14.0956	19.8021	19.2059	4.82263	0.0489784	0.0123005	0.0504994	14.0978	3.93268e+08	1.56592e+09	1.61455e+09	-75.9022	0.0000000E+000	0.0000000E+000	0.0000000E+000	75.9022	0.0000000E+000	0.0000000E+000	0.0000000E+000	-75.9022	0.0000000E+000	0.0000000E+000	0.0000000E+000	-14.0978	0.0000000E+000	0.0000000E+000	0.0000000E+000	14.0978	3.98182	75.9022	0.000000000000000E+000	-2.485e-06	1.74944e-10	-2.48517e-06	3.87939	6.05536e+06	426.297	6.05579e+06
0.00318591	20.0812	6.41124	21.0798	-17.7065	20329.1	3.87912	-0.000640609	7.79192e+06	720765	1	11	0.00508331	0.000241146	0	-0.0344273	-0.00027309	3.18721e-07	-113.855	0.00132169	-0.000534524	0.00120878	-17.7101	21.0797	20.0807	6.41245	0.0451914	0.014428	0.0474387	17.7065	7.20765e+08	2.25757e+09	2.36984e+09	-72.2935	0.0000000E+000	0.0000000E+000	0.0000000E+000	72.2935	0.0000000E+000	0.0000000E+000	0.0000000E+000	-72.2935	0.0000000E+000	0.0000000E+000	0.0000000E+000	-17.7065	0.0000000E+000	0.0000000E+000	0.0000000E+000	17.7065	3.13219	72.2935	0.000000000000000E+000	-2.485e-06	1.74944e-10	-2.48517e-06	3.87939	6.05536e+06	426.297	6.05579e+06
0.0019912	20.8337	8.04855	22.3344	-21.1227	20329.1	3.87912	-0.000640609	9.93089e+06	1.28967e+06	1	11	0.00508068	0.000227483	0	-0.0344273	-0.00027309	1.01957e-06	-78.0504	0.00448198	0.000927998	0.00438486	-21.1323	22.3368	20.8347	8.05294	0.0417657	0.0161351	0.0447741	21.1227	1.28967e+09	3.33831e+09	3.57876e+09	-68.8773	0.0000000E+000	0.0000000E+000	0.0000000E+000	68.8773	0.0000000E+000	0.0000000E+000	0.0000000E+000	-68.8773	0.0000000E+000	0.0000000E+000	0.0000000E+000	-21.1227	0.0000000E+000	0.0000000E+000	0.0000000E+000	21.1227	2.58851	68.8773	0.000000000000000E+000	-2.485e-06	1.74944e-10	-2.48517e-06	3.87939	6.05536e+06	426.297	6.05579e+06
0.00129428	20.3653	10.755	23.0307	-27.8387	20329.1	3.87912	-0.000640609	1.14336e+07	2.49337e+06	1	11	0.00508042	0.000220593	0	-0.0344273	-0.00027309	2.76802e-06	-29.6089	0.0125481	0.0109095	0.00619971	-27.8396	23.0433	20.3762	10.7612	0.038395	0.0202765	0.0434202	27.8387	2.49337e+09	4.72137e+09	5.33931e+09	-62.1613	0.0000000E+000	0.0000000E+000	0.0000000E+000	62.1613	0.0000000E+000	0.0000000E+000	0.0000000E+000	-62.1613	0.0000000E+000	0.0000000E+000	0.0000000E+000	-27.8387	0.0000000E+000	0.0000000E+000	0.0000000E+000	27.8387	1.89357	62.1613	0.000000000000000E+000	-2.485e-06	1.74944e-10	-2.48517e-06	3.87939	6.05536e+06	426.297	6.05579e+06
0.000796479	22.7333	15.9066	27.7457	-34.9807	20329.1	3.87912	-0.000640609	1.25623e+07	4.12889e+06	1	11	0.00508615	0.000183313	0	-0.0344273	-0.00027309	2.11995e-06	-158.652	0.0115646	-0.0107712	0.00420983	-35.0006	27.7392	22.7225	15.9108	0.0295306	0.0206627	0.0360417	34.9807	4.12889e+09	5.90089e+09	7.20197e+09	-55.0193	0.0000000E+000	0.0000000E+000	0.0000000E+000	55.0193	0.0000000E+000	0.0000000E+000	0.0000000E+000	-55.0193	0.0000000E+000	0.0000000E+000	0.0000000E+000	-34.9807	0.0000000E+000	0.0000000E+000	0.0000000E+000	34.9807	1.42917	55.0193	0.000000000000000E+000	-2.485e-06	1.74944e-10	-2.48517e-06	3.87939	6.05536e+06	426.297	6.05579e+06
0.000497799	22.8723	22.2442	31.9053	-44.2024	20329.1	3.87912	-0.000640609	1.43731e+07	6.98647e+06	1	11	0.0050825	0.0001593	0	-0.0344273	-0.00027309	1.05166e-06	-109.598	0.00660175	-0.0022143	0.00621932	-44.2132	31.908	22.8701	22.2504	0.022469	0.021852	0.0313428	44.2024	6.98647e+09	7.18374e+09	1.00208e+10	-45.7976	0.0000000E+000	0.0000000E+000	0.0000000E+000	45.7976	0.0000000E+000	0.0000000E+000	0.0000000E+000	-45.7976	0.0000000E+000	0.0000000E+000	0.0000000E+000	-44.2024	0.0000000E+000	0.0000000E+000	0.0000000E+000	44.2024	1.02824	45.7976	0.000000000000000E+000	-2.485e-06	1.74944e-10	-2.48517e-06	3.87939	6.05536e+06	426.297	6.05579e+06
0.000298679	21.9238	34.3325	40.7354	-57.4389	20329.1	3.87912	-0.000640609	1.55206e+07	1.10249e+07	1	11	0.00508219	0.000124761	0	-0.0344273	-0.00027309	7.08733e-06	-107.452	0.0568072	-0.0170366	0.0541923	-57.5	40.7719	21.9067	34.3867	0.0132121	0.0206901	0.0245487	57.4389	1.10249e+10	7.04022e+09	1.30811e+10	-32.5611	0.0000000E+000	0.0000000E+000	0.0000000E+000	32.5611	0.0000000E+000	0.0000000E+000	0.0000000E+000	-32.5611	0.0000000E+000	0.0000000E+000	0.0000000E+000	-57.4389	0.0000000E+000	0.0000000E+000	0.0000000E+000	57.4389	0.638571	32.5611	0.000000000000000E+000	-2.485e-06	1.74944e-10	-2.48517e-06	3.87939	6.05536e+06	426.297	6.05579e+06
9.95598e-05	23.8388	144.747	146.697	-80.6478	20329.1	3.87912	-0.000640609	1.1044e+07	1.07523e+07	1	11	0.00508052	3.46327e-05	0	-0.0344273	-0.00027309	4.86209e-06	-49.4514	0.14039	0.0912666	0.106676	-80.6194	146.817	23.9301	144.854	0.00110775	0.00672615	0.00681675	80.6478	1.07523e+10	1.77083e+09	1.08972e+10	-9.35223	0.0000000E+000	0.0000000E+000	0.0000000E+000	9.35223	0.0000000E+000	0.0000000E+000	0.0000000E+000	-9.35223	0.0000000E+000	0.0000000E+000	0.0000000E+000	-80.6478	0.0000000E+000	0.0000000E+000	0.0000000E+000	80.6478	0.164693	9.35223	0.000000000000000E+000	-2.485e-06	1.74944e-10	-2.48517e-06	3.87939	6.05536e+06	426.297	6.05579e+06