File: txt/19254_UA646_UC61_FC_SOC0_C01.mpt
EC-Lab ASCII FILE
Nb header lines : 65

Potentio Electrochemical Impedance Spectroscopy

Run on channel : 1 (SN 66354)
User :
CE vs. WE compliance from -10 V to 10 V
Electrode connection : standard
Potential control : Ewe
Ewe ctrl range : min = -5.00 V, max = 5.00 V
Safety Limits :
	Do not start on E overload
Acquisition started on : 12/11/2025 11:03:24.246
Technique started on : 12/11/2025 11:03:26.940
Loaded Setting File :  C:\Users\Celltest\OneDrive - store-dot.com\Documents\EC-Lab\Data\@Biologic Test Protocols\cathode half cell EIS SOC50.mps
Saved on :
	File : 19254_UA646_UC61_FC_SOC0_C01.mpr
	Directory : C:\Users\Celltest\OneDrive - store-dot.com\Documents\EC-Lab\Data\John\
	Host : 169.254.61.224
Device : VMP-3e (SN .003165)
Address : USB
EC-LAB for windows v11.62 (software)
Internet server v27.00 (firmware)
Command interpretor v12.03 (firmware)
Electrode material :
Initial state :
Electrolyte :
Comments :
Electrode surface area : 0.001 cm²
Characteristic mass : 0.001 g
Equivalent Weight : 0.000 g/eq.
Density : 0.000 g/cm3
Volume (V) : 0.001 cm³
Record Ece
Cycle Definition : Charge/Discharge alternance
Mode                Multi sine
E (V)               0.0000
vs.                 Eoc
tE (h:m:s)          0:00:0.0000
record              0
dI                  0.000
unit dI             mA
dt (s)              0.000
fi                  1.000
unit fi             MHz
ff                  0.100
unit ff             mHz
Nd                  10
Points              per decade
spacing             Logarithmic
Va (mV)             5.0
pw                  0.10
Na                  2
corr                0
E range min (V)     -5.000
E range max (V)     5.000
I Range             Auto
Bandwidth           5
nc cycles           0
goto Ns'            0
nr cycles           0
inc. cycle          0

freq/Hz	Re(Z)/Ohm	-Im(Z)/Ohm	|Z|/Ohm	Phase(Z)/deg	time/s	<Ewe>/V	<I>/mA	Cs/µF	Cp/µF	cycle number	I Range	|Ewe|/V	|I|/A	Ns	(Q-Qo)/mA.h	<Ece>/V	|Ece|/V	Phase(Zce)/deg	|Zce|/Ohm	Re(Zce)/Ohm	-Im(Zce)/Ohm	Phase(Zwe-ce)/deg	|Zwe-ce|/Ohm	Re(Zwe-ce)/Ohm	-Im(Zwe-ce)/Ohm	Re(Y)/Ohm-1	Im(Y)/Ohm-1	|Y|/Ohm-1	Phase(Y)/deg	Re(C)/nF	Im(C)/nF	|C|/nF	Phase(C)/deg	Re(M)	Im(M)	|M|	Phase(M)/deg	Re(Permittivity)	Im(Permittivity)	|Permittivity|	Phase(Permittivity)/deg	Re(Resistivity)/Ohm.cm	Im(Resistivity)/Ohm.cm	|Resistivity|/Ohm.cm	Phase(Resistivity)/deg	Re(Conductivity)/mS/cm	Im(Conductivity)/mS/cm	|Conductivity|/mS/cm	Phase(Conductivity)/deg	Tan(Delta)	Loss Angle(Delta)/deg	dq/mA.h	Pwe/W	Pce/W	Pwe-ce/W	<Ewe-Ece>/V	Rwe/Ohm	Rce/Ohm	Rwe-ce/Ohm		Ewe-Ece/V
1.00002e+06	2.1512	2.70742	3.458	-51.5308	2.69356	2.64991	0.00455386	0.0587837	0.0360344	1	10	0.000231253	6.68747e-05	0	6.77408e-07	-0.000254775	0.000191658	-75.2464	2.86592	0.729843	2.77143	-62.2625	6.19017	2.88104	5.47885	0.1799	0.226415	0.289184	51.5308	36.0344	28.6314	46.0243	-38.4692	0.0000000E+000	0.0000000E+000	0.0000000E+000	38.4692	0.0000000E+000	0.0000000E+000	0.0000000E+000	-38.4692	0.0000000E+000	0.0000000E+000	0.0000000E+000	-51.5308	0.0000000E+000	0.0000000E+000	0.0000000E+000	51.5308	0.794558	38.4692	6.77408e-07	1.20673e-05	-1.16021e-09	1.20685e-05	2.65017	581905	55.9471	581961
630957	0.981626	0.104721	0.987196	-6.08935	3.86455	2.64958	0.0383301	2.40872	0.0271049	1	9	0.000322852	0.00032704	0	1.05942e-05	-6.76987e-06	0.00012426	-114.645	0.379952	-0.15844	0.345341	-28.6669	0.938185	0.823186	0.450062	1.00725	0.107455	1.01297	6.08935	27.1049	254.074	255.515	-83.9107	0.0000000E+000	0.0000000E+000	0.0000000E+000	83.9107	0.0000000E+000	0.0000000E+000	0.0000000E+000	-83.9107	0.0000000E+000	0.0000000E+000	0.0000000E+000	-6.08935	0.0000000E+000	0.0000000E+000	0.0000000E+000	6.08935	9.37373	83.9107	4.07124e-06	0.000101559	-2.5949e-10	0.000101559	2.64959	69125.4	0.17662	69125.6
398103	1.35167	0.265512	1.3775	-11.1133	4.63054	2.64962	0.0424281	1.5057	0.0559402	1	9	0.00129971	0.000943529	0	2.07841e-05	0.000260312	6.32735e-05	173.367	0.0670605	-0.0666116	-0.00774607	-11.3423	1.31066	1.28506	0.257766	0.712338	0.139926	0.725951	11.1133	55.9402	284.781	290.223	-78.8867	0.0000000E+000	0.0000000E+000	0.0000000E+000	78.8867	0.0000000E+000	0.0000000E+000	0.0000000E+000	-78.8867	0.0000000E+000	0.0000000E+000	0.0000000E+000	-11.1133	0.0000000E+000	0.0000000E+000	0.0000000E+000	11.1133	5.09081	78.8867	5.47997e-06	0.000112418	1.10446e-08	0.000112407	2.64936	62449.7	6.13538	62443.6
251206	1.55215	0.46023	1.61894	-16.5157	5.39652	2.64955	0.041534	1.37662	0.111251	1	9	0.00417658	0.00257982	0	2.96565e-05	0.000107694	6.09328e-05	106.783	0.023619	-0.00682006	-0.0226129	-15.8114	1.6061	1.54533	0.437617	0.592203	0.175595	0.617688	16.5157	111.251	375.198	391.344	-73.4843	0.0000000E+000	0.0000000E+000	0.0000000E+000	73.4843	0.0000000E+000	0.0000000E+000	0.0000000E+000	-73.4843	0.0000000E+000	0.0000000E+000	0.0000000E+000	-16.5157	0.0000000E+000	0.0000000E+000	0.0000000E+000	16.5157	3.37255	73.4843	4.99765e-06	0.000110046	4.47296e-09	0.000110042	2.64944	63792.2	2.59291	63789.6
158486	1.74834	0.568765	1.83853	-18.0206	6.16255	2.64951	0.058224	1.76561	0.168974	1	9	0.00538067	0.00292662	0	2.99683e-05	0.000164926	4.76932e-05	98.4077	0.0162964	-0.00238278	-0.0161212	-17.564	1.83134	1.74596	0.552644	0.517231	0.168264	0.543913	18.0206	168.974	519.414	546.208	-71.9794	0.0000000E+000	0.0000000E+000	0.0000000E+000	71.9794	0.0000000E+000	0.0000000E+000	0.0000000E+000	-71.9794	0.0000000E+000	0.0000000E+000	0.0000000E+000	-18.0206	0.0000000E+000	0.0000000E+000	0.0000000E+000	18.0206	3.07392	71.9794	-1.75664e-06	0.000154265	9.60264e-09	0.000154255	2.64934	45505.5	2.83261	45502.6
100004	1.9403	0.635187	2.04162	-18.1267	6.92852	2.64951	0.0528966	2.50555	0.242525	1	9	0.00544388	0.00266645	0	4.38604e-05	3.13847e-05	3.59978e-05	87.5296	0.0135003	0.00058191	-0.0134877	-17.7612	2.03802	1.94088	0.621699	0.465498	0.152388	0.489807	18.1267	242.525	740.836	779.523	-71.8733	0.0000000E+000	0.0000000E+000	0.0000000E+000	71.8733	0.0000000E+000	0.0000000E+000	0.0000000E+000	-71.8733	0.0000000E+000	0.0000000E+000	0.0000000E+000	-18.1267	0.0000000E+000	0.0000000E+000	0.0000000E+000	18.1267	3.05468	71.8733	-1.04772e-06	0.00014015	1.66015e-09	0.000140148	2.64948	50088.4	0.593323	50087.8
63093.8	2.14378	0.708794	2.25792	-18.2953	7.69455	2.64952	0.0574789	3.55888	0.3507	1	9	0.00544599	0.00241195	0	6.55476e-05	0.000432008	2.29527e-05	87.3544	0.00951622	0.000439256	-0.00950607	-18.0625	2.25537	2.14422	0.699288	0.420498	0.139028	0.442885	18.2953	350.7	1060.71	1117.18	-71.7047	0.0000000E+000	0.0000000E+000	0.0000000E+000	71.7047	0.0000000E+000	0.0000000E+000	0.0000000E+000	-71.7047	0.0000000E+000	0.0000000E+000	0.0000000E+000	-18.2953	0.0000000E+000	0.0000000E+000	0.0000000E+000	18.2953	3.02455	71.7047	7.47413e-06	0.000152292	2.48313e-08	0.000152267	2.64909	46095.6	7.51595	46088.1
39814.1	2.36257	0.78814	2.49056	-18.4484	8.70853	2.64951	0.0629552	5.07201	0.507917	1	9	0.00494339	0.00198485	0	8.25336e-05	3.13847e-05	1.58461e-05	54.3122	0.00798354	0.00465735	-0.00648429	-18.2732	2.49294	2.36723	0.781656	0.380882	0.12706	0.401516	18.4484	507.917	1522.56	1605.04	-71.5516	0.0000000E+000	0.0000000E+000	0.0000000E+000	71.5516	0.0000000E+000	0.0000000E+000	0.0000000E+000	-71.5516	0.0000000E+000	0.0000000E+000	0.0000000E+000	-18.4484	0.0000000E+000	0.0000000E+000	0.0000000E+000	18.4484	2.99765	71.5516	1.25556e-05	0.0001668	1.97583e-09	0.000166798	2.64948	42085.6	0.498525	42085.1
25116.9	2.59919	0.865428	2.73948	-18.4157	9.35251	2.64951	0.0559514	7.32189	0.730717	1	9	0.00470055	0.00171585	0	9.26578e-05	0.000241235	1.03084e-05	8.81401	0.00600775	0.00593681	-0.000920553	-18.3584	2.74482	2.60512	0.864508	0.346339	0.115318	0.365033	18.4157	730.717	2194.6	2313.06	-71.5843	0.0000000E+000	0.0000000E+000	0.0000000E+000	71.5843	0.0000000E+000	0.0000000E+000	0.0000000E+000	-71.5843	0.0000000E+000	0.0000000E+000	0.0000000E+000	-18.4157	0.0000000E+000	0.0000000E+000	0.0000000E+000	18.4157	3.00335	71.5843	5.26723e-06	0.000148244	1.34974e-08	0.000148231	2.64927	47353.8	4.31151	47349.5
15847.7	2.87265	0.911419	3.01377	-17.6029	10.1185	2.6495	0.0535671	11.0189	1.00775	1	9	0.00489174	0.00162313	0	0.000105304	0.000432008	1.06181e-05	-34.7478	0.00654175	0.00537514	0.00372857	-17.6395	3.02002	2.87802	0.915147	0.316274	0.100346	0.331811	17.6029	1007.75	3176.27	3332.31	-72.3971	0.0000000E+000	0.0000000E+000	0.0000000E+000	72.3971	0.0000000E+000	0.0000000E+000	0.0000000E+000	-72.3971	0.0000000E+000	0.0000000E+000	0.0000000E+000	-17.6029	0.0000000E+000	0.0000000E+000	0.0000000E+000	17.6029	3.15184	72.3971	5.91405e-06	0.000141926	2.31414e-08	0.000141903	2.64907	49461.3	8.0648	49453.3
10002.2	3.1341	0.949852	3.27487	-16.8605	10.7605	2.64951	0.0530828	16.752	1.40926	1	9	0.00499969	0.00152668	0	0.000114618	3.13847e-05	5.7771e-05	20.4029	0.0378408	0.0354669	-0.013192	-16.4633	3.30507	3.16956	0.93666	0.292229	0.0885661	0.305355	16.8605	1409.26	4649.94	4858.8	-73.1395	0.0000000E+000	0.0000000E+000	0.0000000E+000	73.1395	0.0000000E+000	0.0000000E+000	0.0000000E+000	-73.1395	0.0000000E+000	0.0000000E+000	0.0000000E+000	-16.8605	0.0000000E+000	0.0000000E+000	0.0000000E+000	16.8605	3.29956	73.1395	5.33183e-06	0.000140643	1.66599e-09	0.000140642	2.64948	49912.7	0.591241	49912.1
6309.38	3.40707	0.998582	3.5504	-16.3354	11.2786	2.6495	0.0471221	25.2609	1.99831	1	9	0.00483077	0.00136063	0	0.000122356	-8.30791e-05	7.97611e-06	74.8341	0.00586208	0.0015336	-0.00565792	-16.2408	3.55028	3.40861	0.992925	0.270289	0.0792191	0.281659	16.3354	1998.31	6818.06	7104.87	-73.6646	0.0000000E+000	0.0000000E+000	0.0000000E+000	73.6646	0.0000000E+000	0.0000000E+000	0.0000000E+000	-73.6646	0.0000000E+000	0.0000000E+000	0.0000000E+000	-16.3354	0.0000000E+000	0.0000000E+000	0.0000000E+000	16.3354	3.41191	73.6646	2.5374e-06	0.00012485	-3.91487e-09	0.000124854	2.64959	56226.3	1.76306	56228.1
3983.6	3.68124	1.07038	3.8337	-16.2126	11.8411	2.64926	-0.0105476	37.3255	2.90968	1	9	0.00476854	0.00124385	0	0.000125253	5.0462e-05	1.19207e-05	60.4298	0.00958372	0.00472947	-0.00833546	-16.0734	3.83593	3.68597	1.06205	0.250471	0.0728285	0.260844	16.2126	2909.69	10007	10421.4	-73.7874	0.0000000E+000	0.0000000E+000	0.0000000E+000	73.7874	0.0000000E+000	0.0000000E+000	0.0000000E+000	-73.7874	0.0000000E+000	0.0000000E+000	0.0000000E+000	-16.2126	0.0000000E+000	0.0000000E+000	0.0000000E+000	16.2126	3.43919	73.7874	-1.38965e-06	-2.79433e-05	-5.32253e-10	-2.79427e-05	2.64921	251172	4.78423	251167
2510.8	3.96665	1.19734	4.14342	-16.7965	12.8748	2.64947	-0.0108719	52.9408	4.42085	1	10	0.00482756	0.00116511	0	0.000126532	1.23074e-05	1.06262e-05	1.51022	0.00912029	0.00911712	-0.000240367	-16.757	4.15208	3.97577	1.1971	0.23105	0.0697427	0.241346	16.7965	4420.85	14645.8	15298.5	-73.2035	0.0000000E+000	0.0000000E+000	0.0000000E+000	73.2035	0.0000000E+000	0.0000000E+000	0.0000000E+000	-73.2035	0.0000000E+000	0.0000000E+000	0.0000000E+000	-16.7965	0.0000000E+000	0.0000000E+000	0.0000000E+000	16.7965	3.31289	73.2035	-1.58456e-06	-2.88048e-05	-1.33805e-10	-2.88047e-05	2.64946	243699	1.13204	243697
1585.51	4.24778	1.39006	4.46944	-18.1203	13.7768	2.64947	-0.0110806	72.2137	6.98518	1	10	0.00478409	0.0010704	0	0.000124706	0.000164926	6.25555e-06	-105.683	0.00584413	-0.00157977	0.00562656	-18.1952	4.46969	4.2462	1.39568	0.212645	0.0695866	0.223742	18.1203	6985.18	21345.6	22459.4	-71.8797	0.0000000E+000	0.0000000E+000	0.0000000E+000	71.8797	0.0000000E+000	0.0000000E+000	0.0000000E+000	-71.8797	0.0000000E+000	0.0000000E+000	0.0000000E+000	-18.1203	0.0000000E+000	0.0000000E+000	0.0000000E+000	18.1203	3.05584	71.8797	-6.55173e-07	-2.93578e-05	-1.82748e-09	-2.93559e-05	2.6493	239108	14.8842	239093
1000.32	4.56498	1.65483	4.85566	-19.9258	14.6778	2.64948	-0.0109017	96.1454	11.167	1	10	0.00475317	0.000978891	0	0.000122255	0.000107694	8.47336e-06	12.6557	0.00865608	0.00844577	-0.00189648	-19.8709	4.86296	4.57342	1.65293	0.193616	0.0701868	0.205945	19.9258	11167	30805.1	32766.7	-70.0742	0.0000000E+000	0.0000000E+000	0.0000000E+000	70.0742	0.0000000E+000	0.0000000E+000	0.0000000E+000	-70.0742	0.0000000E+000	0.0000000E+000	0.0000000E+000	-19.9258	0.0000000E+000	0.0000000E+000	0.0000000E+000	19.9258	2.75858	70.0742	-5.46047e-07	-2.88839e-05	-1.17405e-09	-2.88827e-05	2.64937	243033	9.87861	243023
631.01	4.94449	2.06649	5.35895	-22.6819	15.5795	2.64948	-0.0115279	122.054	18.1492	1	10	0.00472261	0.000881256	0	0.000119301	-2.58472e-05	5.58555e-06	81.9202	0.00633817	0.000890848	-0.00627525	-22.6163	5.35736	4.94538	2.06021	0.172172	0.071957	0.186604	22.6819	18149.2	43425.6	47065.7	-67.3181	0.0000000E+000	0.0000000E+000	0.0000000E+000	67.3181	0.0000000E+000	0.0000000E+000	0.0000000E+000	-67.3181	0.0000000E+000	0.0000000E+000	0.0000000E+000	-22.6819	0.0000000E+000	0.0000000E+000	0.0000000E+000	22.6819	2.3927	67.3181	-2.02801e-06	-3.05428e-05	2.97963e-10	-3.05431e-05	2.6495	229832	2.24215	229835
398.089	5.46078	2.6198	6.05669	-25.6293	16.4808	2.64948	-0.0121279	152.606	28.5521	1	10	0.00470409	0.000776677	0	0.000116223	-6.76987e-06	1.82453e-05	120.003	0.0234915	-0.0117468	-0.0203436	-25.5035	6.03731	5.44903	2.59946	0.148862	0.0714164	0.165107	25.6293	28552.1	59514.7	66009.2	-64.3707	0.0000000E+000	0.0000000E+000	0.0000000E+000	64.3707	0.0000000E+000	0.0000000E+000	0.0000000E+000	-64.3707	0.0000000E+000	0.0000000E+000	0.0000000E+000	-25.6293	0.0000000E+000	0.0000000E+000	0.0000000E+000	25.6293	2.08442	64.3707	-9.89321e-07	-3.21326e-05	8.21044e-11	-3.21327e-05	2.64949	218461	0.558206	218462
251.044	6.20234	3.37915	7.06312	-28.5824	17.3791	2.64947	-0.0122844	187.613	42.9421	1	10	0.00470474	0.0006661	0	0.000113746	6.95394e-05	3.76033e-06	-23.0531	0.00564529	0.00519447	0.00221061	-28.5779	7.06874	6.20754	3.38136	0.124326	0.0677351	0.14158	28.5824	42942.1	78819.2	89758	-61.4176	0.0000000E+000	0.0000000E+000	0.0000000E+000	61.4176	0.0000000E+000	0.0000000E+000	0.0000000E+000	-61.4176	0.0000000E+000	0.0000000E+000	0.0000000E+000	-28.5824	0.0000000E+000	0.0000000E+000	0.0000000E+000	28.5824	1.83547	61.4176	-9.29625e-07	-3.25473e-05	-8.54252e-10	-3.25464e-05	2.6494	215677	5.66077	215671
158.428	7.25745	4.26176	8.41625	-30.4225	18.2839	2.64948	-0.0116658	235.721	60.4421	1	10	0.00469374	0.0005577	0	0.000112057	0.000298467	7.38478e-06	-19.8739	0.0132415	0.0124529	0.00450146	-30.4061	8.42926	7.2699	4.26626	0.102458	0.0601661	0.118818	30.4225	60442.1	102928	119363	-59.5775	0.0000000E+000	0.0000000E+000	0.0000000E+000	59.5775	0.0000000E+000	0.0000000E+000	0.0000000E+000	-59.5775	0.0000000E+000	0.0000000E+000	0.0000000E+000	-30.4225	0.0000000E+000	0.0000000E+000	0.0000000E+000	30.4225	1.70292	59.5775	-9.25741e-07	-3.09082e-05	-3.48185e-09	-3.09048e-05	2.64918	227116	25.5849	227090
100.032	8.77768	5.13962	10.1717	-30.3504	19.1838	2.64947	-0.0126534	309.564	79.0361	1	10	0.00469624	0.000461696	0	0.000108865	0.000355699	4.04863e-06	44.5475	0.00876904	0.00624942	-0.00615148	-30.3027	10.174	8.78393	5.13347	0.0848385	0.0496758	0.098312	30.3504	79036.1	134981	156418	-59.6496	0.0000000E+000	0.0000000E+000	0.0000000E+000	59.6496	0.0000000E+000	0.0000000E+000	0.0000000E+000	-59.6496	0.0000000E+000	0.0000000E+000	0.0000000E+000	-30.3504	0.0000000E+000	0.0000000E+000	0.0000000E+000	30.3504	1.70785	59.6496	-1.7953e-06	-3.35249e-05	-4.50081e-09	-3.35204e-05	2.64912	209388	28.1109	209360
63.0823	10.6834	5.78773	12.1504	-28.4466	20.1	2.64947	-0.0102905	435.918	98.9095	1	10	0.00468849	0.00038587	0	0.00010653	0.000107694	9.96266e-06	-11.0112	0.0258187	0.0253434	0.00493139	-28.4102	12.1751	10.7087	5.79266	0.0723647	0.0392036	0.0823017	28.4466	98909.5	182574	207645	-61.5534	0.0000000E+000	0.0000000E+000	0.0000000E+000	61.5534	0.0000000E+000	0.0000000E+000	0.0000000E+000	-61.5534	0.0000000E+000	0.0000000E+000	0.0000000E+000	-28.4466	0.0000000E+000	0.0000000E+000	0.0000000E+000	28.4466	1.84587	61.5534	-1.43829e-06	-2.72645e-05	-1.10823e-09	-2.72633e-05	2.64936	257467	10.4653	257456
39.8089	12.8169	6.02171	14.161	-25.1653	21.0008	2.64948	-0.013123	663.926	120.052	1	10	0.00469081	0.000331248	0	0.000103586	-4.49245e-05	5.53417e-06	91.1374	0.016707	-0.00033163	-0.0167038	-25.1047	14.1536	12.8166	6.00501	0.0639138	0.0300283	0.0706163	25.1653	120052	255525	282322	-64.8347	0.0000000E+000	0.0000000E+000	0.0000000E+000	64.8347	0.0000000E+000	0.0000000E+000	0.0000000E+000	-64.8347	0.0000000E+000	0.0000000E+000	0.0000000E+000	-25.1653	0.0000000E+000	0.0000000E+000	0.0000000E+000	25.1653	2.12845	64.8347	-1.40653e-06	-3.47692e-05	5.89545e-10	-3.47697e-05	2.64952	201896	3.42334	201899
25.1044	14.8306	5.84593	15.9412	-21.5134	21.88	2.64947	-0.0142858	1084.47	145.842	1	10	0.00468422	0.000293844	0	0.000100272	8.86167e-05	6.99309e-06	120.261	0.0237987	-0.0119931	-0.0205558	-21.4604	15.9225	14.8186	5.82537	0.0583603	0.0230045	0.0627306	21.5134	145842	369987	397694	-68.4866	0.0000000E+000	0.0000000E+000	0.0000000E+000	68.4866	0.0000000E+000	0.0000000E+000	0.0000000E+000	-68.4866	0.0000000E+000	0.0000000E+000	0.0000000E+000	-21.5134	0.0000000E+000	0.0000000E+000	0.0000000E+000	21.5134	2.53691	68.4866	-1.9439e-06	-3.78498e-05	-1.26596e-09	-3.78485e-05	2.64938	185461	6.20312	185455
15.8576	16.6219	5.53143	17.5181	-18.4064	23.005	2.64951	-0.01112	1814.45	180.904	1	11	0.00469017	0.000267733	0	9.85099e-05	-0.000140311	1.11027e-05	67.7027	0.0414692	0.0157339	-0.0383684	-18.2712	17.5209	16.6376	5.49306	0.0541635	0.0180246	0.0570839	18.4064	180904	543614	572924	-71.5936	0.0000000E+000	0.0000000E+000	0.0000000E+000	71.5936	0.0000000E+000	0.0000000E+000	0.0000000E+000	-71.5936	0.0000000E+000	0.0000000E+000	0.0000000E+000	-18.4064	0.0000000E+000	0.0000000E+000	0.0000000E+000	18.4064	3.00498	71.5936	-1.60298e-07	-2.94626e-05	1.56026e-09	-2.94641e-05	2.64965	238265	12.6179	238277
10.0032	18.1085	5.30681	18.8701	-16.3336	23.9868	2.64952	-0.0104836	2998.11	237.12	1	11	0.00468803	0.000248438	0	9.46069e-05	1.23074e-05	7.71867e-06	40.373	0.0310688	0.0236696	-0.0201252	-16.2548	18.8871	18.1321	5.28668	0.0508552	0.0149035	0.052994	16.3336	237120	809127	843156	-73.6664	0.0000000E+000	0.0000000E+000	0.0000000E+000	73.6664	0.0000000E+000	0.0000000E+000	0.0000000E+000	-73.6664	0.0000000E+000	0.0000000E+000	0.0000000E+000	-16.3336	0.0000000E+000	0.0000000E+000	0.0000000E+000	16.3336	3.41231	73.6664	-3.11681e-06	-2.77765e-05	-1.29026e-10	-2.77764e-05	2.6495	252730	1.17397	252729
6.31058	19.4801	5.22023	20.1674	-15.0015	24.9103	2.64953	-0.0101898	4831.27	323.699	1	11	0.00468445	0.000232278	0	9.36164e-05	1.23074e-05	7.04511e-06	40.2871	0.0303305	0.0231365	-0.0196122	-14.9308	20.1847	19.5032	5.20062	0.0478951	0.0128348	0.049585	15.0015	323698	1.20793e+06	1.25055e+06	-74.9985	0.0000000E+000	0.0000000E+000	0.0000000E+000	74.9985	0.0000000E+000	0.0000000E+000	0.0000000E+000	-74.9985	0.0000000E+000	0.0000000E+000	0.0000000E+000	-15.0015	0.0000000E+000	0.0000000E+000	0.0000000E+000	15.0015	3.73165	74.9985	-1.66019e-06	-2.69981e-05	-1.2541e-10	-2.6998e-05	2.64952	260018	1.20782	260017
3.97785	20.8322	5.38267	21.5163	-14.4874	25.9173	2.64953	-0.00980306	7433.16	465.193	1	11	0.00468331	0.000217663	0	9.01314e-05	-0.000197543	9.22991e-06	86.7882	0.0424045	0.00237583	-0.0423379	-14.3766	21.5081	20.8345	5.34033	0.0449985	0.0116268	0.0464764	14.4874	465194	1.8004e+06	1.85953e+06	-75.5126	0.0000000E+000	0.0000000E+000	0.0000000E+000	75.5126	0.0000000E+000	0.0000000E+000	0.0000000E+000	-75.5126	0.0000000E+000	0.0000000E+000	0.0000000E+000	-14.4874	0.0000000E+000	0.0000000E+000	0.0000000E+000	14.4874	3.87023	75.5126	-8.44591e-08	-2.59735e-05	1.93652e-09	-2.59755e-05	2.64973	270276	20.1512	270296
2.51367	22.3065	5.6668	23.015	-14.2541	27.4769	2.64954	-0.00892464	11173.1	677.371	1	11	0.00468675	0.000203639	0	8.90791e-05	0.000184003	2.88241e-06	-23.1386	0.0141545	0.0130159	0.00556212	-14.2595	23.029	22.3195	5.67236	0.0421122	0.0106983	0.0434499	14.2541	677371	2.66636e+06	2.75106e+06	-75.7459	0.0000000E+000	0.0000000E+000	0.0000000E+000	75.7459	0.0000000E+000	0.0000000E+000	0.0000000E+000	-75.7459	0.0000000E+000	0.0000000E+000	0.0000000E+000	-14.2541	0.0000000E+000	0.0000000E+000	0.0000000E+000	14.2541	3.93634	75.7459	-1.95774e-06	-2.36461e-05	-1.64216e-09	-2.36445e-05	2.64935	296879	20.6174	296858
1.58469	23.8613	6.08697	24.6254	-14.3108	29.9125	2.64953	-0.00954569	16499.7	1008.12	1	11	0.00468856	0.000190395	0	7.57577e-05	0.000145849	3.603e-06	-9.94525	0.0189238	0.0186394	0.00326827	-14.3075	24.6443	23.8799	6.09023	0.0393483	0.0100377	0.0406085	14.3108	1.00812e+06	3.95188e+06	4.07844e+06	-75.6892	0.0000000E+000	0.0000000E+000	0.0000000E+000	75.6892	0.0000000E+000	0.0000000E+000	0.0000000E+000	-75.6892	0.0000000E+000	0.0000000E+000	0.0000000E+000	-14.3108	0.0000000E+000	0.0000000E+000	0.0000000E+000	14.3108	3.92006	75.6892	-7.41336e-06	-2.52916e-05	-1.39223e-09	-2.52902e-05	2.64938	277563	15.279	277547
1.00469	25.7333	6.70234	26.5918	-14.5986	240.731	2.64946	-0.0184941	23635.2	1501.47	1	11	0.00500964	0.000188391	0	-0.00126675	-4.49245e-05	1.20094e-06	-10.9982	0.00637473	0.00625765	0.00121616	-14.5977	26.5981	25.7395	6.70355	0.0363915	0.00947832	0.0376056	14.5986	1.50147e+06	5.76483e+06	5.95716e+06	-75.4014	0.0000000E+000	0.0000000E+000	0.0000000E+000	75.4014	0.0000000E+000	0.0000000E+000	0.0000000E+000	-75.4014	0.0000000E+000	0.0000000E+000	0.0000000E+000	-14.5986	0.0000000E+000	0.0000000E+000	0.0000000E+000	14.5986	3.83945	75.4014	-0.0013368	-4.89995e-05	8.3084e-10	-4.90003e-05	2.6495	143259	2.42912	143262
0.632957	27.6104	7.39002	28.5823	-14.9842	240.732	2.64946	-0.0184941	34025.2	2274.56	1	11	0.00502339	0.000175752	0	-0.00126675	-4.49245e-05	1.36651e-06	8.48305	0.00777526	0.00769019	-0.00114698	-14.978	28.5894	27.6181	7.38888	0.033797	0.0090459	0.0349867	14.9842	2.27456e+06	8.49816e+06	8.79729e+06	-75.0158	0.0000000E+000	0.0000000E+000	0.0000000E+000	75.0158	0.0000000E+000	0.0000000E+000	0.0000000E+000	-75.0158	0.0000000E+000	0.0000000E+000	0.0000000E+000	-14.9842	0.0000000E+000	0.0000000E+000	0.0000000E+000	14.9842	3.73617	75.0158	0.000000000000000E+000	-4.89995e-05	8.3084e-10	-4.90003e-05	2.6495	143259	2.42912	143262
0.401878	29.5005	8.22219	30.6249	-15.5739	240.733	2.64946	-0.0184941	48165.8	3471.88	1	11	0.00503656	0.00016446	0	-0.00126675	-4.49245e-05	1.3593e-06	1.05474	0.00826524	0.00826384	-0.000152144	-15.5695	30.6328	29.5088	8.22204	0.0314543	0.00876674	0.0326532	15.5739	3.47188e+06	1.24568e+07	1.29316e+07	-74.4261	0.0000000E+000	0.0000000E+000	0.0000000E+000	74.4261	0.0000000E+000	0.0000000E+000	0.0000000E+000	-74.4261	0.0000000E+000	0.0000000E+000	0.0000000E+000	-15.5739	0.0000000E+000	0.0000000E+000	0.0000000E+000	15.5739	3.58791	74.4261	0.000000000000000E+000	-4.89995e-05	8.3084e-10	-4.90003e-05	2.6495	143259	2.42912	143262
0.251173	31.7439	9.40827	33.1088	-16.5088	240.733	2.64946	-0.0184941	67349.9	5438.38	1	11	0.0050388	0.000152189	0	-0.00126675	-4.49245e-05	1.23601e-06	0.957823	0.00812153	0.0081204	-0.000135763	-16.5046	33.1165	31.752	9.40813	0.0289584	0.00858269	0.0302035	16.5088	5.43838e+06	1.83493e+07	1.91383e+07	-73.4912	0.0000000E+000	0.0000000E+000	0.0000000E+000	73.4912	0.0000000E+000	0.0000000E+000	0.0000000E+000	-73.4912	0.0000000E+000	0.0000000E+000	0.0000000E+000	-16.5088	0.0000000E+000	0.0000000E+000	0.0000000E+000	16.5088	3.37404	73.4912	0.000000000000000E+000	-4.89995e-05	8.3084e-10	-4.90003e-05	2.6495	143259	2.42912	143262
0.160751	33.922	10.8162	35.6047	-17.6852	240.734	2.64946	-0.0184941	91535.7	8447.48	1	11	0.00503108	0.000141304	0	-0.00126675	-4.49245e-05	1.25325e-06	6.32899	0.00886919	0.00881513	-0.000977714	-17.6794	35.6128	33.9309	10.8153	0.0267588	0.0085322	0.0280862	17.6852	8.44748e+06	2.64931e+07	2.78073e+07	-72.3148	0.0000000E+000	0.0000000E+000	0.0000000E+000	72.3148	0.0000000E+000	0.0000000E+000	0.0000000E+000	-72.3148	0.0000000E+000	0.0000000E+000	0.0000000E+000	-17.6852	0.0000000E+000	0.0000000E+000	0.0000000E+000	17.6852	3.13622	72.3148	0.000000000000000E+000	-4.89995e-05	8.3084e-10	-4.90003e-05	2.6495	143259	2.42912	143262
0.100469	36.3652	13.3611	38.7421	-20.174	240.735	2.64946	-0.0184941	118562	14101.4	1	11	0.00503404	0.000129937	0	-0.00126675	-4.49245e-05	7.94641e-07	-6.40484	0.00611557	0.0060774	0.000682209	-20.1718	38.748	36.3713	13.3617	0.0242282	0.00890174	0.0258117	20.174	1.41014e+07	3.83802e+07	4.08887e+07	-69.826	0.0000000E+000	0.0000000E+000	0.0000000E+000	69.826	0.0000000E+000	0.0000000E+000	0.0000000E+000	-69.826	0.0000000E+000	0.0000000E+000	0.0000000E+000	-20.174	0.0000000E+000	0.0000000E+000	0.0000000E+000	20.174	2.72173	69.826	0.000000000000000E+000	-4.89995e-05	8.3084e-10	-4.90003e-05	2.6495	143259	2.42912	143262
0.0602816	39.7505	16.5271	43.0494	-22.5761	240.736	2.64946	-0.0184941	159749	23545	1	11	0.00502986	0.000116839	0	-0.00126675	-4.49245e-05	6.77548e-07	-34.2808	0.00579897	0.00479162	0.00326627	-22.5777	43.055	39.7553	16.5304	0.0214491	0.00891792	0.0232292	22.5761	2.3545e+07	5.66297e+07	6.13294e+07	-67.4239	0.0000000E+000	0.0000000E+000	0.0000000E+000	67.4239	0.0000000E+000	0.0000000E+000	0.0000000E+000	-67.4239	0.0000000E+000	0.0000000E+000	0.0000000E+000	-22.5761	0.0000000E+000	0.0000000E+000	0.0000000E+000	22.5761	2.40517	67.4239	0.000000000000000E+000	-4.89995e-05	8.3084e-10	-4.90003e-05	2.6495	143259	2.42912	143262
0.0401878	43.529	20.3438	48.0484	-25.0496	240.737	2.64946	-0.0184941	194668	34898	1	11	0.00503029	0.000104692	0	-0.00126675	-4.49245e-05	1.83172e-06	-22.3939	0.0174963	0.0161768	0.00666557	-25.0486	48.0658	43.5452	20.3504	0.0188548	0.008812	0.0208124	25.0496	3.4898e+07	7.46704e+07	8.24229e+07	-64.9504	0.0000000E+000	0.0000000E+000	0.0000000E+000	64.9504	0.0000000E+000	0.0000000E+000	0.0000000E+000	-64.9504	0.0000000E+000	0.0000000E+000	0.0000000E+000	-25.0496	0.0000000E+000	0.0000000E+000	0.0000000E+000	25.0496	2.13967	64.9504	0.000000000000000E+000	-4.89995e-05	8.3084e-10	-4.90003e-05	2.6495	143259	2.42912	143262
0.0200939	50.0131	31.3179	59.0095	-32.0545	240.737	2.64946	-0.0184941	252909	71236.8	1	11	0.00503084	8.52547e-05	0	-0.00126675	-4.49245e-05	1.24805e-06	23.998	0.0146391	0.0133737	-0.00595379	-32.0427	59.0177	50.0265	31.3119	0.0143628	0.0089939	0.0169464	32.0545	7.12368e+07	1.13762e+08	1.34225e+08	-57.9455	0.0000000E+000	0.0000000E+000	0.0000000E+000	57.9455	0.0000000E+000	0.0000000E+000	0.0000000E+000	-57.9455	0.0000000E+000	0.0000000E+000	0.0000000E+000	-32.0545	0.0000000E+000	0.0000000E+000	0.0000000E+000	32.0545	1.59695	57.9455	0.000000000000000E+000	-4.89995e-05	8.3084e-10	-4.90003e-05	2.6495	143259	2.42912	143262
0.00796479	68.5668	60.158	91.2162	-41.2625	20329.6	2.64942	-0.00318609	332164	144476	1	11	0.00502189	5.50548e-05	0	-0.0392235	0.000412931	1.99157e-06	-1.95488	0.0361743	0.0361533	0.00123399	-41.2481	91.2442	68.603	60.1593	0.00824081	0.00723018	0.010963	41.2625	1.44476e+08	1.64671e+08	2.19065e+08	-48.7375	0.0000000E+000	0.0000000E+000	0.0000000E+000	48.7375	0.0000000E+000	0.0000000E+000	0.0000000E+000	-48.7375	0.0000000E+000	0.0000000E+000	0.0000000E+000	-41.2625	0.0000000E+000	0.0000000E+000	0.0000000E+000	41.2625	1.13978	48.7375	-0.0379568	-8.44129e-06	-1.31564e-09	-8.43997e-06	2.649	831556	129.604	831426
0.00497799	80.0066	82.6496	115.031	-45.9309	20329.6	2.64942	-0.00318609	386834	199701	1	11	0.00503019	4.37292e-05	0	-0.0392235	0.000412931	1.47154e-06	-14.7969	0.0336513	0.0325353	0.00859431	-45.9222	115.059	80.0392	82.6582	0.00604644	0.00624618	0.00869334	45.9309	1.99701e+08	1.93315e+08	2.77941e+08	-44.0691	0.0000000E+000	0.0000000E+000	0.0000000E+000	44.0691	0.0000000E+000	0.0000000E+000	0.0000000E+000	-44.0691	0.0000000E+000	0.0000000E+000	0.0000000E+000	-45.9309	0.0000000E+000	0.0000000E+000	0.0000000E+000	45.9309	0.968022	44.0691	0.000000000000000E+000	-8.44129e-06	-1.31564e-09	-8.43997e-06	2.649	831556	129.604	831426
0.00318591	92.168	114.115	146.688	-51.0731	20329.6	2.64942	-0.00318609	437766	264937	1	11	0.00503303	3.43112e-05	0	-0.0392235	0.000412931	1.38489e-06	-20.4058	0.0403627	0.0378298	0.0140731	-51.0651	146.722	92.2058	114.13	0.00428344	0.00530343	0.00681721	51.0731	2.64937e+08	2.13983e+08	3.40559e+08	-38.9269	0.0000000E+000	0.0000000E+000	0.0000000E+000	38.9269	0.0000000E+000	0.0000000E+000	0.0000000E+000	-38.9269	0.0000000E+000	0.0000000E+000	0.0000000E+000	-51.0731	0.0000000E+000	0.0000000E+000	0.0000000E+000	51.0731	0.807673	38.9269	0.000000000000000E+000	-8.44129e-06	-1.31564e-09	-8.43997e-06	2.649	831556	129.604	831426
0.0019912	113.115	161.924	197.521	-55.0632	20329.6	2.64942	-0.00318609	493621	331736	1	11	0.00503456	2.54888e-05	0	-0.0392235	0.000412931	9.88133e-07	-19.0425	0.0387674	0.0366459	0.0126486	-55.0566	197.552	113.151	161.937	0.0028993	0.00415037	0.00506276	55.0632	3.31736e+08	2.31739e+08	4.04663e+08	-34.9368	0.0000000E+000	0.0000000E+000	0.0000000E+000	34.9368	0.0000000E+000	0.0000000E+000	0.0000000E+000	-34.9368	0.0000000E+000	0.0000000E+000	0.0000000E+000	-55.0632	0.0000000E+000	0.0000000E+000	0.0000000E+000	55.0632	0.698564	34.9368	0.000000000000000E+000	-8.44129e-06	-1.31564e-09	-8.43997e-06	2.649	831556	129.604	831426
0.00129428	129.089	206.056	243.153	-57.9338	20329.6	2.64942	-0.00318609	596770	428569	1	11	0.00503571	2.07101e-05	0	-0.0392235	0.000412931	7.03334e-07	-37.7935	0.033961	0.0268368	0.0208119	-57.9311	243.185	129.116	206.077	0.00218339	0.0034852	0.00411264	57.9338	4.28569e+08	2.68488e+08	5.05724e+08	-32.0662	0.0000000E+000	0.0000000E+000	0.0000000E+000	32.0662	0.0000000E+000	0.0000000E+000	0.0000000E+000	-32.0662	0.0000000E+000	0.0000000E+000	0.0000000E+000	-57.9338	0.0000000E+000	0.0000000E+000	0.0000000E+000	57.9338	0.626476	32.0661	0.000000000000000E+000	-8.44129e-06	-1.31564e-09	-8.43997e-06	2.649	831556	129.604	831426
0.000796479	168.969	331.697	372.254	-63.0054	20329.6	2.64942	-0.00318609	602427	478308	1	11	0.00503713	1.35314e-05	0	-0.0392235	0.000412931	1.27114e-06	-17.3642	0.0939401	0.089659	0.0280359	-62.995	372.32	169.058	331.725	0.00121935	0.00239366	0.00268634	63.0054	4.78308e+08	2.43654e+08	5.36792e+08	-26.9946	0.0000000E+000	0.0000000E+000	0.0000000E+000	26.9946	0.0000000E+000	0.0000000E+000	0.0000000E+000	-26.9946	0.0000000E+000	0.0000000E+000	0.0000000E+000	-63.0054	0.0000000E+000	0.0000000E+000	0.0000000E+000	63.0054	0.509407	26.9946	0.000000000000000E+000	-8.44129e-06	-1.31564e-09	-8.43997e-06	2.649	831556	129.604	831426
0.000497799	250.297	452.414	517.037	-61.0465	20329.6	2.64942	-0.00318609	706692	541077	1	11	0.00503733	9.74269e-06	0	-0.0392235	0.000412931	9.55425e-07	14.6406	0.0980659	0.0948817	-0.0247867	-61.036	517.061	250.392	452.389	0.000936296	0.00169236	0.0019341	61.0465	5.41077e+08	2.9935e+08	6.18364e+08	-28.9535	0.0000000E+000	0.0000000E+000	0.0000000E+000	28.9535	0.0000000E+000	0.0000000E+000	0.0000000E+000	-28.9535	0.0000000E+000	0.0000000E+000	0.0000000E+000	-61.0465	0.0000000E+000	0.0000000E+000	0.0000000E+000	61.0465	0.553249	28.9535	0.000000000000000E+000	-8.44129e-06	-1.31564e-09	-8.43997e-06	2.649	831556	129.604	831426
0.000298679	323.655	604.579	685.761	-61.8381	20329.6	2.64942	-0.00318609	881377	685050	1	11	0.00503545	7.34286e-06	0	-0.0392235	0.000412931	5.76832e-07	7.08374	0.0785568	0.0779572	-0.00968762	-61.832	685.789	323.733	604.569	0.000688235	0.00128561	0.00145823	61.8381	6.8505e+08	3.66734e+08	7.77038e+08	-28.1619	0.0000000E+000	0.0000000E+000	0.0000000E+000	28.1619	0.0000000E+000	0.0000000E+000	0.0000000E+000	-28.1619	0.0000000E+000	0.0000000E+000	0.0000000E+000	-61.8381	0.0000000E+000	0.0000000E+000	0.0000000E+000	61.8381	0.535339	28.1619	0.000000000000000E+000	-8.44129e-06	-1.31564e-09	-8.43997e-06	2.649	831556	129.604	831426
9.95598e-05	-937.042	1294.18	1597.8	-125.906	20329.6	2.64942	-0.00318609	1.23521e+06	810379	1	11	0.00504068	3.15477e-06	0	-0.0392235	0.000412931	2.23585e-06	-107.709	0.708721	-0.215576	0.675139	-125.898	1598.47	-937.258	1294.86	-0.000367042	0.000506935	0.000625861	125.906	8.10379e+08	-5.86748e+08	1.00049e+09	35.9061	0.0000000E+000	0.0000000E+000	0.0000000E+000	-35.9061	0.0000000E+000	0.0000000E+000	0.0000000E+000	35.9061	0.0000000E+000	0.0000000E+000	0.0000000E+000	-125.906	0.0000000E+000	0.0000000E+000	0.0000000E+000	125.906	0.724042	35.9061	0.000000000000000E+000	-8.44129e-06	-1.31564e-09	-8.43997e-06	2.649	831556	129.604	831426