File: txt/19255_UA646_UC61_FC_SOC0_C02.mpt
EC-Lab ASCII FILE
Nb header lines : 65

Potentio Electrochemical Impedance Spectroscopy

Run on channel : 2 (SN 66139)
User :
CE vs. WE compliance from -10 V to 10 V
Electrode connection : standard
Potential control : Ewe
Ewe ctrl range : min = -5.00 V, max = 5.00 V
Safety Limits :
	Do not start on E overload
Acquisition started on : 12/11/2025 11:03:37.991
Technique started on : 12/11/2025 11:03:40.225
Loaded Setting File :  C:\Users\Celltest\OneDrive - store-dot.com\Documents\EC-Lab\Data\John\19254_UA646_UC61_FC_SOC0.mps
Saved on :
	File : 19255_UA646_UC61_FC_SOC0_C02.mpr
	Directory : C:\Users\Celltest\OneDrive - store-dot.com\Documents\EC-Lab\Data\John\
	Host : 169.254.61.224
Device : VMP-3e (SN .003165)
Address : USB
EC-LAB for windows v11.62 (software)
Internet server v27.00 (firmware)
Command interpretor v12.03 (firmware)
Electrode material :
Initial state :
Electrolyte :
Comments :
Electrode surface area : 0.001 cm²
Characteristic mass : 0.001 g
Equivalent Weight : 0.000 g/eq.
Density : 0.000 g/cm3
Volume (V) : 0.001 cm³
Record Ece
Cycle Definition : Charge/Discharge alternance
Mode                Multi sine
E (V)               0.0000
vs.                 Eoc
tE (h:m:s)          0:00:0.0000
record              0
dI                  0.000
unit dI             mA
dt (s)              0.000
fi                  1.000
unit fi             MHz
ff                  0.100
unit ff             mHz
Nd                  10
Points              per decade
spacing             Logarithmic
Va (mV)             5.0
pw                  0.10
Na                  2
corr                0
E range min (V)     -5.000
E range max (V)     5.000
I Range             Auto
Bandwidth           5
nc cycles           0
goto Ns'            0
nr cycles           0
inc. cycle          0

freq/Hz	Re(Z)/Ohm	-Im(Z)/Ohm	|Z|/Ohm	Phase(Z)/deg	time/s	<Ewe>/V	<I>/mA	Cs/µF	Cp/µF	cycle number	I Range	|Ewe|/V	|I|/A	Ns	(Q-Qo)/mA.h	<Ece>/V	|Ece|/V	Phase(Zce)/deg	|Zce|/Ohm	Re(Zce)/Ohm	-Im(Zce)/Ohm	Phase(Zwe-ce)/deg	|Zwe-ce|/Ohm	Re(Zwe-ce)/Ohm	-Im(Zwe-ce)/Ohm	Re(Y)/Ohm-1	Im(Y)/Ohm-1	|Y|/Ohm-1	Phase(Y)/deg	Re(C)/nF	Im(C)/nF	|C|/nF	Phase(C)/deg	Re(M)	Im(M)	|M|	Phase(M)/deg	Re(Permittivity)	Im(Permittivity)	|Permittivity|	Phase(Permittivity)/deg	Re(Resistivity)/Ohm.cm	Im(Resistivity)/Ohm.cm	|Resistivity|/Ohm.cm	Phase(Resistivity)/deg	Re(Conductivity)/mS/cm	Im(Conductivity)/mS/cm	|Conductivity|/mS/cm	Phase(Conductivity)/deg	Tan(Delta)	Loss Angle(Delta)/deg	dq/mA.h	Pwe/W	Pce/W	Pwe-ce/W	<Ewe-Ece>/V	Rwe/Ohm	Rce/Ohm	Rwe-ce/Ohm		Ewe-Ece/V
1.00002e+06	1.98126	2.63061	3.29325	-53.0145	2.23353	2.6487	-0.0125724	0.0605	0.0386028	1	10	0.000210701	6.39796e-05	0	-5.76389e-06	0.000156172	0.000172542	-72.7246	2.69683	0.800864	2.57518	-61.8786	5.90258	2.78213	5.20579	0.18268	0.242553	0.303651	53.0145	38.6028	29.074	48.3267	-36.9855	0.0000000E+000	0.0000000E+000	0.0000000E+000	36.9855	0.0000000E+000	0.0000000E+000	0.0000000E+000	-36.9855	0.0000000E+000	0.0000000E+000	0.0000000E+000	-53.0145	0.0000000E+000	0.0000000E+000	0.0000000E+000	53.0145	0.753157	36.9855	-5.76389e-06	-3.33005e-05	-1.96345e-09	-3.32986e-05	2.64855	210676	12.4218	210664
630957	1.01923	-0.0355921	1.01985	2	3.40652	2.64867	-0.00226977	-7.08707	-0.00863187	1	9	0.0003047	0.000298771	0	-7.8223e-06	2.25357e-05	0.000108901	-105.358	0.364498	-0.0965363	0.351482	-18.8991	0.975265	0.922689	0.31589	0.979942	-0.0342203	0.98054	-2	-8.63187	247.184	247.335	-92	0.0000000E+000	0.0000000E+000	0.0000000E+000	92	0.0000000E+000	0.0000000E+000	0.0000000E+000	-92	0.0000000E+000	0.0000000E+000	0.0000000E+000	2	0.0000000E+000	0.0000000E+000	0.0000000E+000	-2	28.6363	88	-6.14607e-07	-6.01187e-06	-5.11508e-11	-6.01182e-06	2.64865	1.16693e+06	9.92863	1.16692e+06
398103	1.34518	0.13439	1.35188	-5.70519	4.17253	2.6488	0.00294467	2.9748	0.0293979	1	9	0.00120268	0.000889638	0	-7.76113e-06	-7.29185e-05	4.20538e-05	2.23866	0.0472706	0.0472346	-0.00184648	-5.43758	1.39871	1.39242	0.132544	0.736047	0.0735345	0.739711	5.70519	29.3978	294.259	295.724	-84.2948	0.0000000E+000	0.0000000E+000	0.0000000E+000	84.2948	0.0000000E+000	0.0000000E+000	0.0000000E+000	-84.2948	0.0000000E+000	0.0000000E+000	0.0000000E+000	-5.70519	0.0000000E+000	0.0000000E+000	0.0000000E+000	5.70519	10.0095	84.2948	9.25832e-08	7.79984e-06	-2.14721e-10	7.80005e-06	2.64887	899522	24.7629	899547
251206	1.49875	0.354137	1.54002	-13.2945	4.94056	2.64874	0.00175284	1.78903	0.0946035	1	9	0.00378692	0.002459	0	-6.87658e-06	-1.5646e-05	2.5736e-05	96.5582	0.010466	-0.00119535	-0.0103976	-12.9274	1.5365	1.49756	0.343739	0.63194	0.14932	0.649341	13.2945	94.6035	400.374	411.399	-76.7055	0.0000000E+000	0.0000000E+000	0.0000000E+000	76.7055	0.0000000E+000	0.0000000E+000	0.0000000E+000	-76.7055	0.0000000E+000	0.0000000E+000	0.0000000E+000	-13.2945	0.0000000E+000	0.0000000E+000	0.0000000E+000	13.2945	4.23212	76.7055	-1.50252e-07	4.64282e-06	-2.7425e-11	4.64285e-06	2.64875	1.51111e+06	8.92606	1.51112e+06
158486	1.65094	0.462635	1.71453	-15.6542	5.70855	2.64863	-0.00264216	2.17065	0.158043	1	9	0.00537547	0.00313524	0	4.02404e-07	4.16265e-05	2.08086e-05	110.465	0.006637	-0.00232051	-0.00621812	-15.4746	1.71063	1.64862	0.456416	0.561615	0.157379	0.583249	15.6542	158.043	563.985	585.71	-74.3458	0.0000000E+000	0.0000000E+000	0.0000000E+000	74.3458	0.0000000E+000	0.0000000E+000	0.0000000E+000	-74.3458	0.0000000E+000	0.0000000E+000	0.0000000E+000	-15.6542	0.0000000E+000	0.0000000E+000	0.0000000E+000	15.6542	3.56856	74.3458	9.07935e-06	-6.99812e-06	-1.09984e-10	-6.99801e-06	2.64859	1.00245e+06	15.7547	1.00243e+06
100004	1.81004	0.544477	1.89015	-16.7418	6.47656	2.6486	-0.000928849	2.92297	0.242543	1	9	0.00541254	0.00286354	0	5.70952e-06	-5.38277e-05	1.9093e-05	67.9359	0.00666762	0.00250465	-0.00617931	-16.5406	1.89079	1.81254	0.538298	0.506632	0.1524	0.529057	16.7418	242.543	806.3	841.989	-73.2582	0.0000000E+000	0.0000000E+000	0.0000000E+000	73.2582	0.0000000E+000	0.0000000E+000	0.0000000E+000	-73.2582	0.0000000E+000	0.0000000E+000	0.0000000E+000	-16.7418	0.0000000E+000	0.0000000E+000	0.0000000E+000	16.7418	3.32436	73.2582	5.50644e-06	-2.46014e-06	4.99978e-11	-2.46019e-06	2.64865	2.85148e+06	57.951	2.85154e+06
63093.8	1.97931	0.621856	2.0747	-17.4416	7.24452	2.64859	-0.00524938	4.05643	0.36443	1	9	0.00535826	0.00258267	0	3.26097e-07	-1.5646e-05	2.32935e-05	52.1297	0.00901916	0.00553665	-0.00711974	-17.2085	2.07786	1.98484	0.614736	0.459838	0.144471	0.481998	17.4416	364.43	1159.95	1215.85	-72.5584	0.0000000E+000	0.0000000E+000	0.0000000E+000	72.5584	0.0000000E+000	0.0000000E+000	0.0000000E+000	-72.5584	0.0000000E+000	0.0000000E+000	0.0000000E+000	-17.4416	0.0000000E+000	0.0000000E+000	0.0000000E+000	17.4416	3.1829	72.5584	-2.06616e-06	-1.39035e-05	8.21318e-11	-1.39035e-05	2.64861	504553	2.98054	504556
39814.1	2.17481	0.703177	2.28566	-17.9175	8.01252	2.64859	-0.00212073	5.68485	0.538052	1	9	0.00528473	0.00231212	0	-6.93863e-07	0.000175262	1.71905e-05	-10.0965	0.00743494	0.0073198	0.00130339	-17.8922	2.29303	2.18213	0.704481	0.416291	0.134599	0.43751	17.9175	538.052	1664.1	1748.93	-72.0825	0.0000000E+000	0.0000000E+000	0.0000000E+000	72.0825	0.0000000E+000	0.0000000E+000	0.0000000E+000	-72.0825	0.0000000E+000	0.0000000E+000	0.0000000E+000	-17.9175	0.0000000E+000	0.0000000E+000	0.0000000E+000	17.9175	3.09283	72.0825	-2.52846e-06	-5.61695e-06	-3.71685e-10	-5.61658e-06	2.64841	1.2489e+06	82.6424	1.24882e+06
25116.9	2.3959	0.779592	2.51954	-18.0242	8.77856	2.64858	0.00175282	8.12806	0.778177	1	9	0.00509124	0.0020207	0	-1.31865e-06	0.000251626	6.84928e-06	-68.9008	0.00338956	0.00122019	0.00316232	-18.0839	2.52168	2.39712	0.782754	0.37742	0.122807	0.396898	18.0242	778.177	2391.55	2514.97	-71.9758	0.0000000E+000	0.0000000E+000	0.0000000E+000	71.9758	0.0000000E+000	0.0000000E+000	0.0000000E+000	-71.9758	0.0000000E+000	0.0000000E+000	0.0000000E+000	-18.0242	0.0000000E+000	0.0000000E+000	0.0000000E+000	18.0242	3.07327	71.9758	-5.392e-07	4.64249e-06	4.41055e-10	4.64205e-06	2.64833	1.51104e+06	143.555	1.51089e+06
15847.7	2.63768	0.848207	2.77071	-17.8264	9.54455	2.64858	0.00387583	11.84	1.10962	1	9	0.00507266	0.00183082	0	-3.26212e-06	-9.20094e-05	2.52083e-05	-73.8448	0.0137688	0.00383105	0.0132251	-18.0618	2.77843	2.64151	0.861432	0.343591	0.110489	0.360919	17.8264	1109.62	3450.61	3624.63	-72.1736	0.0000000E+000	0.0000000E+000	0.0000000E+000	72.1736	0.0000000E+000	0.0000000E+000	0.0000000E+000	-72.1736	0.0000000E+000	0.0000000E+000	0.0000000E+000	-17.8264	0.0000000E+000	0.0000000E+000	0.0000000E+000	17.8264	3.10971	72.1736	-1.98988e-06	1.02654e-05	-3.56613e-10	1.02658e-05	2.64867	683357	23.7392	683380
10002.2	2.89783	0.890003	3.03142	-17.0732	10.0625	2.64858	-0.00513767	17.8785	1.54107	1	9	0.00537115	0.00177182	0	-3.95976e-06	-3.47368e-05	1.72807e-05	60.7805	0.00975307	0.00476102	-0.00851206	-16.8931	3.03349	2.90259	0.881491	0.315341	0.0968498	0.329878	17.0732	1541.07	5017.69	5249.01	-72.9268	0.0000000E+000	0.0000000E+000	0.0000000E+000	72.9268	0.0000000E+000	0.0000000E+000	0.0000000E+000	-72.9268	0.0000000E+000	0.0000000E+000	0.0000000E+000	-17.0732	0.0000000E+000	0.0000000E+000	0.0000000E+000	17.0732	3.25598	72.9268	-5.10041e-07	-1.36075e-05	1.78467e-10	-1.36077e-05	2.64861	515521	6.7612	515528
6309.38	3.13683	0.979517	3.28621	-17.3417	10.5806	2.64858	0.00491872	25.7526	2.288	1	9	0.00537708	0.00163626	0	-2.45826e-06	-0.000149282	7.44266e-06	163.706	0.00454859	-0.00436591	-0.00127615	-17.3431	3.28166	3.13246	0.978241	0.29047	0.0907031	0.304302	17.3417	2288	7327.14	7676.06	-72.6583	0.0000000E+000	0.0000000E+000	0.0000000E+000	72.6583	0.0000000E+000	0.0000000E+000	0.0000000E+000	-72.6583	0.0000000E+000	0.0000000E+000	0.0000000E+000	-17.3417	0.0000000E+000	0.0000000E+000	0.0000000E+000	17.3417	3.20243	72.6583	1.02875e-06	1.30276e-05	-7.34276e-10	1.30284e-05	2.64873	538470	30.3497	538500
3983.6	3.39544	1.08062	3.56325	-17.6541	11.1471	2.64848	-0.00390856	36.9717	3.40038	1	9	0.00531195	0.00149076	0	-4.94223e-06	-0.000149282	7.8239e-06	132.246	0.00524826	-0.0035285	-0.00388509	-17.6117	3.55871	3.39191	1.07674	0.267426	0.0851104	0.280643	17.6541	3400.38	10684.3	11212.4	-72.3459	0.0000000E+000	0.0000000E+000	0.0000000E+000	72.3459	0.0000000E+000	0.0000000E+000	0.0000000E+000	-72.3459	0.0000000E+000	0.0000000E+000	0.0000000E+000	-17.6541	0.0000000E+000	0.0000000E+000	0.0000000E+000	17.6541	3.14211	72.3459	-7.92829e-07	-1.03517e-05	5.83477e-10	-1.03523e-05	2.64863	677609	38.1936	677648
2510.8	3.64731	1.22603	3.84786	-18.5799	12.2168	2.64855	-0.0173965	51.702	5.24892	1	10	0.00534706	0.00138962	0	-9.83649e-06	-1.5646e-05	2.17079e-05	-9.64603	0.0156215	0.0154006	0.00261755	-18.5439	3.86329	3.66271	1.22865	0.24634	0.0828061	0.259885	18.5799	5248.92	15615	16473.6	-71.4201	0.0000000E+000	0.0000000E+000	0.0000000E+000	71.4201	0.0000000E+000	0.0000000E+000	0.0000000E+000	-71.4201	0.0000000E+000	0.0000000E+000	0.0000000E+000	-18.5799	0.0000000E+000	0.0000000E+000	0.0000000E+000	18.5799	2.9749	71.4201	-3.73349e-06	-4.60755e-05	2.72186e-10	-4.60758e-05	2.64856	152246	0.899376	152247
1585.51	3.9371	1.44184	4.19281	-20.1137	13.1188	2.64855	-0.01743	69.62	8.23303	1	10	0.005312	0.00126693	0	-1.39455e-05	9.88991e-05	7.11278e-06	60.4916	0.00561418	0.00276527	-0.00488592	-20.0381	4.19373	3.93986	1.43696	0.223958	0.0820178	0.238504	20.1137	8233.03	22481.1	23941.3	-69.8863	0.0000000E+000	0.0000000E+000	0.0000000E+000	69.8863	0.0000000E+000	0.0000000E+000	0.0000000E+000	-69.8863	0.0000000E+000	0.0000000E+000	0.0000000E+000	-20.1137	0.0000000E+000	0.0000000E+000	0.0000000E+000	20.1137	2.7306	69.8863	-9.93153e-07	-4.61644e-05	-1.72381e-09	-4.61626e-05	2.64845	151953	5.67406	151948
1000.32	4.26928	1.76919	4.62134	-22.5092	14.0219	2.64854	-0.0176945	89.9302	13.1802	1	10	0.00526702	0.00113972	0	-1.71409e-05	9.88991e-05	9.57863e-06	-49.5593	0.0084044	0.0054516	0.0063964	-22.5565	4.62883	4.27473	1.77559	0.199903	0.0828399	0.216387	22.5092	13180.2	31805.3	34428.1	-67.4908	0.0000000E+000	0.0000000E+000	0.0000000E+000	67.4908	0.0000000E+000	0.0000000E+000	0.0000000E+000	-67.4908	0.0000000E+000	0.0000000E+000	0.0000000E+000	-22.5092	0.0000000E+000	0.0000000E+000	0.0000000E+000	22.5092	2.41312	67.4908	-1.61556e-06	-4.68648e-05	-1.74997e-09	-4.6863e-05	2.64845	149682	5.58924	149676
631.01	4.69718	2.22937	5.19938	-25.3899	14.9235	2.64854	-0.0188866	113.136	20.8	1	10	0.00523703	0.00100724	0	-2.26777e-05	0.000175262	6.93036e-06	94.4596	0.00688053	-0.00053501	-0.0068597	-25.3241	5.19596	4.69664	2.22251	0.173753	0.0824668	0.192331	25.3899	20800	43824.6	48510.1	-64.6101	0.0000000E+000	0.0000000E+000	0.0000000E+000	64.6101	0.0000000E+000	0.0000000E+000	0.0000000E+000	-64.6101	0.0000000E+000	0.0000000E+000	0.0000000E+000	-25.3899	0.0000000E+000	0.0000000E+000	0.0000000E+000	25.3899	2.10695	64.6101	-2.95228e-06	-5.0022e-05	-3.31011e-09	-5.00187e-05	2.64837	140234	9.27972	140225
398.089	5.25573	2.87978	5.99298	-28.7197	15.8248	2.64854	-0.0173742	138.829	32.0563	1	10	0.00520485	0.000868491	0	-2.69783e-05	9.88991e-05	1.0684e-05	60.0918	0.0123018	0.00613382	-0.0106635	-28.6021	5.99325	5.26186	2.86911	0.146335	0.0801813	0.166862	28.7197	32056.3	58504.2	66710.9	-61.2803	0.0000000E+000	0.0000000E+000	0.0000000E+000	61.2803	0.0000000E+000	0.0000000E+000	0.0000000E+000	-61.2803	0.0000000E+000	0.0000000E+000	0.0000000E+000	-28.7197	0.0000000E+000	0.0000000E+000	0.0000000E+000	28.7197	1.82505	61.2803	-1.50006e-06	-4.60162e-05	-1.71829e-09	-4.60145e-05	2.64844	152441	5.6923	152436
251.044	6.04898	3.70371	7.09278	-31.4786	16.7231	2.64854	-0.0181565	171.172	46.6738	1	10	0.00517699	0.000729896	0	-3.16885e-05	0.00011799	8.2412e-06	80.5606	0.0112909	0.00185175	-0.0111381	-31.394	7.08855	6.05083	3.69257	0.12024	0.0736213	0.140988	31.4786	46673.8	76228.6	89382.6	-58.5214	0.0000000E+000	0.0000000E+000	0.0000000E+000	58.5214	0.0000000E+000	0.0000000E+000	0.0000000E+000	-58.5214	0.0000000E+000	0.0000000E+000	0.0000000E+000	-31.4786	0.0000000E+000	0.0000000E+000	0.0000000E+000	31.4786	1.63322	58.5214	-1.91691e-06	-4.80881e-05	-2.14228e-09	-4.8086e-05	2.64842	145873	6.4985	145867
158.428	7.22994	4.69234	8.61917	-32.9842	17.6278	2.64855	-0.0172438	214.091	63.452	1	10	0.00516624	0.000599389	0	-3.58252e-05	-0.000168373	3.7832e-06	61.8691	0.00631175	0.00297591	-0.00556616	-32.9423	8.61864	7.23292	4.68677	0.0973204	0.0631623	0.11602	32.9842	63452	97766.7	116552	-57.0158	0.0000000E+000	0.0000000E+000	0.0000000E+000	57.0158	0.0000000E+000	0.0000000E+000	0.0000000E+000	-57.0158	0.0000000E+000	0.0000000E+000	0.0000000E+000	-32.9842	0.0000000E+000	0.0000000E+000	0.0000000E+000	32.9842	1.5408	57.0158	-2.05498e-06	-4.5671e-05	2.90339e-09	-4.56739e-05	2.64871	153594	9.76425	153604
100.032	8.88835	5.65963	10.5373	-32.4868	18.5268	2.64855	-0.0178622	281.121	81.0984	1	10	0.00516272	0.000489948	0	-4.03602e-05	0.000194353	7.82133e-06	-65.708	0.0159636	0.00656722	0.0145502	-32.5343	10.5506	8.89492	5.67418	0.0800506	0.050972	0.0949012	32.4868	81098.4	127364	150992	-57.5132	0.0000000E+000	0.0000000E+000	0.0000000E+000	57.5132	0.0000000E+000	0.0000000E+000	0.0000000E+000	-57.5132	0.0000000E+000	0.0000000E+000	0.0000000E+000	-32.4868	0.0000000E+000	0.0000000E+000	0.0000000E+000	32.4868	1.57048	57.5132	-2.82052e-06	-4.73088e-05	-3.47157e-09	-4.73054e-05	2.64835	148277	10.8807	148266
63.0823	10.9772	6.34171	12.6774	-30.0158	19.444	2.64854	-0.016767	397.838	99.5544	1	10	0.00515328	0.000406494	0	-4.44723e-05	0.00011799	7.41243e-06	-72.8251	0.018235	0.0053846	0.0174219	-30.0717	12.6908	10.9826	6.35913	0.0683018	0.0394592	0.0788807	30.0158	99554.4	172324	199014	-59.9842	0.0000000E+000	0.0000000E+000	0.0000000E+000	59.9842	0.0000000E+000	0.0000000E+000	0.0000000E+000	-59.9842	0.0000000E+000	0.0000000E+000	0.0000000E+000	-30.0158	0.0000000E+000	0.0000000E+000	0.0000000E+000	30.0158	1.73095	59.9842	-2.26515e-06	-4.44081e-05	-1.97833e-09	-4.44061e-05	2.64843	157962	7.03704	157955
39.8089	13.3026	6.60409	14.8517	-26.4022	20.3449	2.64854	-0.0183576	605.379	119.702	1	10	0.0051512	0.000346843	0	-4.84921e-05	0.000175262	1.13901e-05	121.891	0.0328394	-0.0173494	-0.0278824	-26.3355	14.8238	13.2852	6.5762	0.0603093	0.0299406	0.0673324	26.4022	119702	241115	269193	-63.5978	0.0000000E+000	0.0000000E+000	0.0000000E+000	63.5978	0.0000000E+000	0.0000000E+000	0.0000000E+000	-63.5978	0.0000000E+000	0.0000000E+000	0.0000000E+000	-26.4022	0.0000000E+000	0.0000000E+000	0.0000000E+000	26.4022	2.0143	63.5978	-2.01555e-06	-4.86209e-05	-3.21741e-09	-4.86177e-05	2.64836	144274	9.54711	144265
25.1044	15.4705	6.49526	16.7787	-22.775	21.468	2.64856	-0.0130233	976.053	146.268	1	11	0.00515018	0.000306947	0	-5.31503e-05	-7.29185e-05	6.25968e-06	37.0044	0.0203934	0.0162859	-0.0122743	-22.7148	16.789	15.4868	6.48298	0.0549525	0.0230716	0.0595993	22.775	146268	348383	377842	-67.225	0.0000000E+000	0.0000000E+000	0.0000000E+000	67.225	0.0000000E+000	0.0000000E+000	0.0000000E+000	-67.225	0.0000000E+000	0.0000000E+000	0.0000000E+000	-22.775	0.0000000E+000	0.0000000E+000	0.0000000E+000	22.775	2.38182	67.225	-2.84182e-06	-3.4493e-05	9.49641e-10	-3.4494e-05	2.64864	203371	5.59908	203377
15.8576	17.3725	6.202	18.4464	-19.6466	22.346	2.64856	-0.0135412	1618.27	182.933	1	11	0.00514088	0.000278693	0	-5.56283e-05	6.07174e-05	3.07723e-05	-40.1799	0.110417	0.0843606	0.0712397	-19.7662	18.5498	17.4569	6.27324	0.0510552	0.0182267	0.0542111	19.6466	182933	512417	544091	-70.3534	0.0000000E+000	0.0000000E+000	0.0000000E+000	70.3534	0.0000000E+000	0.0000000E+000	0.0000000E+000	-70.3534	0.0000000E+000	0.0000000E+000	0.0000000E+000	-19.6466	0.0000000E+000	0.0000000E+000	0.0000000E+000	19.6466	2.80112	70.3534	-9.13189e-07	-3.58647e-05	-8.22186e-10	-3.58639e-05	2.6485	195593	4.4839	195588
10.0032	19.1459	6.087	20.0902	-17.6369	23.3278	2.64857	-0.0127817	2613.83	239.948	1	11	0.00516235	0.000256959	0	-5.95859e-05	2.25357e-05	5.17299e-06	107.08	0.0201316	-0.00591266	-0.0192437	-17.5897	20.0787	19.1399	6.06776	0.0474359	0.0150812	0.0497756	17.6369	239948	754724	791949	-72.3631	0.0000000E+000	0.0000000E+000	0.0000000E+000	72.3631	0.0000000E+000	0.0000000E+000	0.0000000E+000	-72.3631	0.0000000E+000	0.0000000E+000	0.0000000E+000	-17.6369	0.0000000E+000	0.0000000E+000	0.0000000E+000	17.6369	3.14537	72.3631	-3.62348e-06	-3.38532e-05	-2.88044e-10	-3.38529e-05	2.64854	207215	1.76312	207214
6.31058	20.7405	6.10319	21.6198	-16.3973	24.2523	2.64857	-0.0128402	4132.32	329.309	1	11	0.00515338	0.000238364	0	-6.22303e-05	6.07174e-05	1.04136e-05	32.3074	0.043688	0.0369248	-0.0233495	-16.3104	21.6487	20.7774	6.07984	0.0443726	0.0130573	0.0462539	16.3973	329309	1.11909e+06	1.16654e+06	-73.6027	0.0000000E+000	0.0000000E+000	0.0000000E+000	73.6027	0.0000000E+000	0.0000000E+000	0.0000000E+000	-73.6027	0.0000000E+000	0.0000000E+000	0.0000000E+000	-16.3973	0.0000000E+000	0.0000000E+000	0.0000000E+000	16.3973	3.3983	73.6027	-3.19493e-06	-3.40082e-05	-7.79626e-10	-3.40075e-05	2.64851	206271	4.72868	206266
3.97785	22.3518	6.25435	23.2103	-15.6324	25.2594	2.64858	-0.0126311	6397.2	464.505	1	11	0.00515042	0.000221902	0	-6.39517e-05	-0.0001111	8.11576e-06	14.8087	0.0365736	0.0353588	-0.00934795	-15.5867	23.2419	22.3872	6.245	0.0414906	0.0116096	0.0430842	15.6324	464505	1.66005e+06	1.72381e+06	-74.3676	0.0000000E+000	0.0000000E+000	0.0000000E+000	74.3676	0.0000000E+000	0.0000000E+000	0.0000000E+000	-74.3676	0.0000000E+000	0.0000000E+000	0.0000000E+000	-15.6324	0.0000000E+000	0.0000000E+000	0.0000000E+000	15.6324	3.5738	74.3676	6.66692e-07	-3.34544e-05	1.40331e-09	-3.34558e-05	2.64869	209688	8.79579	209696
2.51367	24.1629	6.63716	25.0579	-15.3594	26.8189	2.64858	-0.0117361	9539.57	669.274	1	11	0.00515656	0.000205786	0	-6.96135e-05	0.000137081	3.02121e-06	31.7533	0.0146814	0.0124839	-0.00772627	-15.3348	25.0679	24.1754	6.62944	0.0384822	0.0105704	0.0399076	15.3594	669273	2.43652e+06	2.52677e+06	-74.6406	0.0000000E+000	0.0000000E+000	0.0000000E+000	74.6406	0.0000000E+000	0.0000000E+000	0.0000000E+000	-74.6406	0.0000000E+000	0.0000000E+000	0.0000000E+000	-15.3594	0.0000000E+000	0.0000000E+000	0.0000000E+000	15.3594	3.64055	74.6406	-4.84137e-06	-3.1084e-05	-1.60879e-09	-3.10823e-05	2.64844	225678	11.6803	225666
1.58469	26.1045	7.01089	27.0295	-15.0332	29.2545	2.64859	-0.0123205	14325.3	963.769	1	11	0.00515335	0.000190656	0	-8.32624e-05	-0.000244736	1.55447e-06	2.58101	0.00815327	0.008145	-0.000367157	-15.028	27.0373	26.1126	7.01052	0.0357304	0.00959613	0.0369966	15.0332	963769	3.58851e+06	3.71568e+06	-74.9668	0.0000000E+000	0.0000000E+000	0.0000000E+000	74.9668	0.0000000E+000	0.0000000E+000	0.0000000E+000	-74.9668	0.0000000E+000	0.0000000E+000	0.0000000E+000	-15.0332	0.0000000E+000	0.0000000E+000	0.0000000E+000	15.0332	3.72342	74.9668	-6.3539e-06	-3.26319e-05	3.01527e-09	-3.26349e-05	2.64883	214974	19.8642	214994
1.00469	28.4576	7.60674	29.4567	-14.9653	240.985	2.6485	-0.0201177	20825.1	1388.73	1	11	0.0049809	0.000169092	0	-0.00154088	7.98082e-05	1.27589e-06	-15.056	0.00754551	0.00728649	0.00196004	-14.9654	29.4642	28.4649	7.6087	0.0327967	0.00876659	0.0339481	14.9653	1.38873e+06	5.19537e+06	5.37777e+06	-75.0347	0.0000000E+000	0.0000000E+000	0.0000000E+000	75.0347	0.0000000E+000	0.0000000E+000	0.0000000E+000	-75.0347	0.0000000E+000	0.0000000E+000	0.0000000E+000	-14.9653	0.0000000E+000	0.0000000E+000	0.0000000E+000	14.9653	3.7411	75.0347	-0.00145166	-5.32815e-05	-1.60555e-09	-5.32799e-05	2.64842	131650	3.96707	131646
0.632957	30.6489	8.15938	31.7164	-14.9076	240.986	2.6485	-0.0201177	30816.9	2039.55	1	11	0.00499465	0.000157478	0	-0.00154088	7.98082e-05	1.33493e-06	-3.61744	0.00847689	0.00846	0.000534844	-14.9046	31.7247	30.6574	8.15992	0.0304682	0.00811127	0.0315294	14.9076	2.03955e+06	7.66112e+06	7.92796e+06	-75.0924	0.0000000E+000	0.0000000E+000	0.0000000E+000	75.0924	0.0000000E+000	0.0000000E+000	0.0000000E+000	-75.0924	0.0000000E+000	0.0000000E+000	0.0000000E+000	-14.9076	0.0000000E+000	0.0000000E+000	0.0000000E+000	14.9076	3.75628	75.0924	0.000000000000000E+000	-5.32815e-05	-1.60555e-09	-5.32799e-05	2.64842	131650	3.96707	131646
0.401878	32.7777	8.79072	33.936	-15.013	240.988	2.6485	-0.0201177	45050.8	3022.93	1	11	0.00500783	0.000147567	0	-0.00154088	7.98082e-05	1.04508e-06	7.0479	0.0070821	0.00702858	-0.000868967	-15.0085	33.9426	32.7847	8.78985	0.0284614	0.00763312	0.0294672	15.013	3.02294e+06	1.12715e+07	1.16699e+07	-74.987	0.0000000E+000	0.0000000E+000	0.0000000E+000	74.987	0.0000000E+000	0.0000000E+000	0.0000000E+000	-74.987	0.0000000E+000	0.0000000E+000	0.0000000E+000	-15.013	0.0000000E+000	0.0000000E+000	0.0000000E+000	15.013	3.72867	74.987	0.000000000000000E+000	-5.32815e-05	-1.60555e-09	-5.32799e-05	2.64842	131650	3.96707	131646
0.251173	35.2122	9.7129	36.5272	-15.421	240.99	2.6485	-0.0201177	65237.5	4612.78	1	11	0.00500903	0.000137131	0	-0.00154088	7.98082e-05	1.31466e-06	-13.4428	0.00958688	0.00932422	0.00222871	-15.4204	36.5368	35.2215	9.71513	0.0263912	0.00727974	0.0273769	15.421	4.61278e+06	1.67227e+07	1.73472e+07	-74.579	0.0000000E+000	0.0000000E+000	0.0000000E+000	74.579	0.0000000E+000	0.0000000E+000	0.0000000E+000	-74.579	0.0000000E+000	0.0000000E+000	0.0000000E+000	-15.421	0.0000000E+000	0.0000000E+000	0.0000000E+000	15.421	3.6253	74.579	0.000000000000000E+000	-5.32815e-05	-1.60555e-09	-5.32799e-05	2.64842	131650	3.96707	131646
0.160751	37.4772	10.8358	39.0123	-16.1262	240.992	2.6485	-0.0201177	91370	7048.98	1	11	0.00500286	0.000128238	0	-0.00154088	7.98082e-05	8.71174e-07	16.1389	0.00679341	0.00652568	-0.00188835	-16.1209	39.018	37.4838	10.834	0.0246243	0.00711967	0.0256329	16.1262	7.04898e+06	2.43798e+07	2.53784e+07	-73.8738	0.0000000E+000	0.0000000E+000	0.0000000E+000	73.8738	0.0000000E+000	0.0000000E+000	0.0000000E+000	-73.8738	0.0000000E+000	0.0000000E+000	0.0000000E+000	-16.1262	0.0000000E+000	0.0000000E+000	0.0000000E+000	16.1262	3.45864	73.8738	0.000000000000000E+000	-5.32815e-05	-1.60555e-09	-5.32799e-05	2.64842	131650	3.96707	131646
0.100469	39.9362	13.0882	42.0262	-18.1454	240.994	2.6485	-0.0201177	121034	11738.8	1	11	0.00500672	0.000119133	0	-0.00154088	7.98082e-05	7.28524e-07	-21.4978	0.0061152	0.00568978	0.002241	-18.1458	42.0323	39.9419	13.0904	0.0226114	0.00741036	0.0237947	18.1454	1.17388e+07	3.5819e+07	3.76935e+07	-71.8546	0.0000000E+000	0.0000000E+000	0.0000000E+000	71.8546	0.0000000E+000	0.0000000E+000	0.0000000E+000	-71.8546	0.0000000E+000	0.0000000E+000	0.0000000E+000	-18.1454	0.0000000E+000	0.0000000E+000	0.0000000E+000	18.1454	3.05132	71.8546	0.000000000000000E+000	-5.32815e-05	-1.60555e-09	-5.32799e-05	2.64842	131650	3.96707	131646
0.0602816	43.1898	15.8208	45.9963	-20.1182	240.996	2.6485	-0.0201177	166881	19743.2	1	11	0.00500177	0.000108743	0	-0.00154088	7.98082e-05	2.54086e-07	-45.3879	0.00233657	0.00164098	0.00166335	-20.1195	45.9984	43.1914	15.8225	0.0204144	0.00747797	0.0217409	20.1182	1.97433e+07	5.38978e+07	5.74001e+07	-69.8818	0.0000000E+000	0.0000000E+000	0.0000000E+000	69.8818	0.0000000E+000	0.0000000E+000	0.0000000E+000	-69.8818	0.0000000E+000	0.0000000E+000	0.0000000E+000	-20.1182	0.0000000E+000	0.0000000E+000	0.0000000E+000	20.1182	2.72994	69.8818	0.000000000000000E+000	-5.32815e-05	-1.60555e-09	-5.32799e-05	2.64842	131650	3.96707	131646
0.0401878	46.8161	19.1936	50.5978	-22.2926	240.998	2.6485	-0.0201177	206334	29690.6	1	11	0.00500247	9.88673e-05	0	-0.00154088	7.98082e-05	1.21101e-06	-17.5821	0.0122489	0.0116767	0.00370003	-22.2914	50.61	46.8277	19.1973	0.0182865	0.00749709	0.0197637	22.2926	2.96906e+07	7.24199e+07	7.82699e+07	-67.7074	0.0000000E+000	0.0000000E+000	0.0000000E+000	67.7074	0.0000000E+000	0.0000000E+000	0.0000000E+000	-67.7074	0.0000000E+000	0.0000000E+000	0.0000000E+000	-22.2926	0.0000000E+000	0.0000000E+000	0.0000000E+000	22.2926	2.43915	67.7074	0.000000000000000E+000	-5.32815e-05	-1.60555e-09	-5.32799e-05	2.64842	131650	3.96707	131646
0.0200939	52.6799	29.5965	60.4246	-29.328	240.999	2.6485	-0.0201177	267618	64205.1	1	11	0.00500281	8.27944e-05	0	-0.00154088	7.98082e-05	9.31754e-07	4.65073	0.0112538	0.0112168	-0.000912476	-29.3221	60.4339	52.6912	29.5956	0.0144284	0.00810612	0.0165496	29.328	6.42051e+07	1.14281e+08	1.31082e+08	-60.672	0.0000000E+000	0.0000000E+000	0.0000000E+000	60.672	0.0000000E+000	0.0000000E+000	0.0000000E+000	-60.672	0.0000000E+000	0.0000000E+000	0.0000000E+000	-29.328	0.0000000E+000	0.0000000E+000	0.0000000E+000	29.328	1.77994	60.672	0.000000000000000E+000	-5.32815e-05	-1.60555e-09	-5.32799e-05	2.64842	131650	3.96707	131646
0.00796479	70.2359	57.2064	90.585	-39.1625	20329.9	2.64843	-0.00239454	349302	139309	1	11	0.00499455	5.51366e-05	0	-0.0377812	0.000194353	2.26811e-06	-7.27794	0.0411363	0.0408049	0.00521126	-39.1487	90.62	70.2767	57.2116	0.00855945	0.00697159	0.0110394	39.1625	1.39309e+08	1.71038e+08	2.20592e+08	-50.8375	0.0000000E+000	0.0000000E+000	0.0000000E+000	50.8375	0.0000000E+000	0.0000000E+000	0.0000000E+000	-50.8375	0.0000000E+000	0.0000000E+000	0.0000000E+000	-39.1625	0.0000000E+000	0.0000000E+000	0.0000000E+000	39.1625	1.22776	50.8375	-0.0362403	-6.34178e-06	-4.65387e-10	-6.34131e-06	2.64824	1.10603e+06	81.1652	1.10595e+06
0.00497799	80.8627	79.2307	113.209	-44.416	20329.9	2.64843	-0.00239454	403527	197650	1	11	0.00500243	4.41876e-05	0	-0.0377812	0.000194353	1.665e-06	-8.4363	0.0376802	0.0372725	0.00552805	-44.4048	113.24	80.9	79.2363	0.00630937	0.00618204	0.00883322	44.416	1.9765e+08	2.01722e+08	2.82413e+08	-45.584	0.0000000E+000	0.0000000E+000	0.0000000E+000	45.584	0.0000000E+000	0.0000000E+000	0.0000000E+000	-45.584	0.0000000E+000	0.0000000E+000	0.0000000E+000	-44.416	0.0000000E+000	0.0000000E+000	0.0000000E+000	44.416	1.0206	45.584	0.000000000000000E+000	-6.34178e-06	-4.65387e-10	-6.34131e-06	2.64824	1.10603e+06	81.1652	1.10595e+06
0.00318591	92.7051	109.972	143.834	-49.8695	20329.9	2.64843	-0.00239454	454259	265551	1	11	0.00500537	3.47998e-05	0	-0.0377812	0.000194353	1.67132e-06	-24.4939	0.0480268	0.0437046	0.0199117	-49.8613	143.877	92.7488	109.992	0.00448109	0.00531572	0.00695248	49.8695	2.65551e+08	2.23856e+08	3.47317e+08	-40.1305	0.0000000E+000	0.0000000E+000	0.0000000E+000	40.1305	0.0000000E+000	0.0000000E+000	0.0000000E+000	-40.1305	0.0000000E+000	0.0000000E+000	0.0000000E+000	-49.8695	0.0000000E+000	0.0000000E+000	0.0000000E+000	49.8695	0.842988	40.1305	0.000000000000000E+000	-6.34178e-06	-4.65387e-10	-6.34131e-06	2.64824	1.10603e+06	81.1652	1.10595e+06
0.0019912	113.16	156.37	193.02	-54.1079	20329.9	2.64843	-0.00239454	511156	335471	1	11	0.00500809	2.5946e-05	0	-0.0377812	0.000194353	1.2853e-06	-39.1072	0.0495375	0.0384395	0.031247	-54.1041	193.068	113.198	156.401	0.00303731	0.00419709	0.00518081	54.1079	3.35471e+08	2.4277e+08	4.14099e+08	-35.8921	0.0000000E+000	0.0000000E+000	0.0000000E+000	35.8921	0.0000000E+000	0.0000000E+000	0.0000000E+000	-35.8921	0.0000000E+000	0.0000000E+000	0.0000000E+000	-54.1079	0.0000000E+000	0.0000000E+000	0.0000000E+000	54.1079	0.723669	35.8921	0.000000000000000E+000	-6.34178e-06	-4.65387e-10	-6.34131e-06	2.64824	1.10603e+06	81.1652	1.10595e+06
0.00129428	128.734	198.741	236.792	-57.0669	20329.9	2.64843	-0.00239454	618735	435858	1	11	0.00500802	2.11494e-05	0	-0.0377812	0.000194353	4.21908e-07	-93.9839	0.0199489	-0.00138598	0.0199007	-57.0698	236.808	128.733	198.761	0.00229593	0.00354448	0.00422311	57.0669	4.35858e+08	2.82326e+08	5.19308e+08	-32.9331	0.0000000E+000	0.0000000E+000	0.0000000E+000	32.9331	0.0000000E+000	0.0000000E+000	0.0000000E+000	-32.9331	0.0000000E+000	0.0000000E+000	0.0000000E+000	-57.0669	0.0000000E+000	0.0000000E+000	0.0000000E+000	57.0669	0.647748	32.9331	0.000000000000000E+000	-6.34178e-06	-4.65387e-10	-6.34131e-06	2.64824	1.10603e+06	81.1652	1.10595e+06
0.000796479	168.825	320.656	362.384	-62.2333	20329.9	2.64843	-0.00239454	623170	487918	1	11	0.00500858	1.38212e-05	0	-0.0377812	0.000194353	1.04947e-06	-31.2672	0.0759321	0.0649034	0.039411	-62.2271	362.449	168.89	320.696	0.00128558	0.00244175	0.0027595	62.2333	4.87918e+08	2.56888e+08	5.51413e+08	-27.7667	0.0000000E+000	0.0000000E+000	0.0000000E+000	27.7667	0.0000000E+000	0.0000000E+000	0.0000000E+000	-27.7667	0.0000000E+000	0.0000000E+000	0.0000000E+000	-62.2333	0.0000000E+000	0.0000000E+000	0.0000000E+000	62.2333	0.526498	27.7667	0.000000000000000E+000	-6.34178e-06	-4.65387e-10	-6.34131e-06	2.64824	1.10603e+06	81.1652	1.10595e+06
0.000497799	251.005	434.059	501.408	-59.9603	20329.9	2.64843	-0.00239454	736576	551990	1	11	0.00500952	9.99091e-06	0	-0.0377812	0.000194353	1.26704e-06	16.3965	0.126819	0.121662	-0.035799	-59.9462	501.438	251.126	434.023	0.000998387	0.0017265	0.00199438	59.9603	5.5199e+08	3.19202e+08	6.37639e+08	-30.0397	0.0000000E+000	0.0000000E+000	0.0000000E+000	30.0397	0.0000000E+000	0.0000000E+000	0.0000000E+000	-30.0397	0.0000000E+000	0.0000000E+000	0.0000000E+000	-59.9603	0.0000000E+000	0.0000000E+000	0.0000000E+000	59.9603	0.578274	30.0397	0.000000000000000E+000	-6.34178e-06	-4.65387e-10	-6.34131e-06	2.64824	1.10603e+06	81.1652	1.10595e+06
0.000298679	321.642	570.791	655.177	-60.5986	20329.9	2.64843	-0.00239454	933550	708558	1	11	0.00500655	7.64153e-06	0	-0.0377812	0.000194353	1.05094e-06	-86.6562	0.137531	0.00802171	0.137296	-60.6039	655.3	321.65	570.929	0.000749301	0.00132972	0.00152631	60.5986	7.08558e+08	3.99274e+08	8.13311e+08	-29.4014	0.0000000E+000	0.0000000E+000	0.0000000E+000	29.4014	0.0000000E+000	0.0000000E+000	0.0000000E+000	-29.4014	0.0000000E+000	0.0000000E+000	0.0000000E+000	-60.5986	0.0000000E+000	0.0000000E+000	0.0000000E+000	60.5986	0.563502	29.4014	0.000000000000000E+000	-6.34178e-06	-4.65387e-10	-6.34131e-06	2.64824	1.10603e+06	81.1652	1.10595e+06
9.95598e-05	-846.775	1143.75	1423.09	-126.514	20329.9	2.64843	-0.00239454	1.39767e+06	902819	1	11	0.00501575	3.52454e-06	0	-0.0377812	0.000194353	2.34203e-06	95.675	0.664492	-0.0657087	-0.661236	-126.532	1422.6	-846.841	1143.09	-0.00041812	0.000564761	0.000702694	126.514	9.02819e+08	-6.68401e+08	1.12332e+09	36.5144	0.0000000E+000	0.0000000E+000	0.0000000E+000	-36.5144	0.0000000E+000	0.0000000E+000	0.0000000E+000	36.5144	0.0000000E+000	0.0000000E+000	0.0000000E+000	-126.514	0.0000000E+000	0.0000000E+000	0.0000000E+000	126.514	0.740349	36.5143	0.000000000000000E+000	-6.34178e-06	-4.65387e-10	-6.34131e-06	2.64824	1.10603e+06	81.1652	1.10595e+06