File: txt/19317_R313_UC97_SOC50_C01.mpt
EC-Lab ASCII FILE
Nb header lines : 65

Potentio Electrochemical Impedance Spectroscopy

Run on channel : 1 (SN 66354)
User :
CE vs. WE compliance from -10 V to 10 V
Electrode connection : standard
Potential control : Ewe
Ewe ctrl range : min = -10.00 V, max = 10.00 V
Safety Limits :
	Do not start on E overload
Acquisition started on : 11/18/2025 16:31:48.690
Technique started on : 11/18/2025 16:31:51.384
Loaded Setting File :  C:\Users\Celltest\OneDrive - store-dot.com\Documents\EC-Lab\Data\txt_done\19191_R297_UC94_SOC50_C08.mpr
Saved on :
	File : 19317_R313_UC97_SOC50_C01.mpr
	Directory : C:\Users\Celltest\OneDrive - store-dot.com\Documents\EC-Lab\Data\Michael\
	Host : 169.254.61.224
Device : VMP-3e (SN .003165)
Address : USB
EC-LAB for windows v11.62 (software)
Internet server v27.00 (firmware)
Command interpretor v12.03 (firmware)
Electrode material :
Initial state :
Electrolyte :
Comments :
Electrode surface area : 0.001 cm²
Characteristic mass : 0.001 g
Equivalent Weight : 0.000 g/eq.
Density : 0.000 g/cm3
Volume (V) : 0.001 cm³
Record Ece
Cycle Definition : Charge/Discharge alternance
Mode                Multi sine
E (V)               0.0000
vs.                 Eoc
tE (h:m:s)          0:00:0.0000
record              0
dI                  0.000
unit dI             mA
dt (s)              0.000
fi                  1.000
unit fi             MHz
ff                  0.100
unit ff             mHz
Nd                  10
Points              per decade
spacing             Logarithmic
Va (mV)             5.0
pw                  0.10
Na                  2
corr                0
E range min (V)     -10.000
E range max (V)     10.000
I Range             Auto
Bandwidth           5
nc cycles           0
goto Ns'            0
nr cycles           0
inc. cycle          0

freq/Hz	Re(Z)/Ohm	-Im(Z)/Ohm	|Z|/Ohm	Phase(Z)/deg	time/s	<Ewe>/V	<I>/mA	Cs/µF	Cp/µF	cycle number	I Range	|Ewe|/V	|I|/A	Ns	(Q-Qo)/mA.h	<Ece>/V	|Ece|/V	Phase(Zce)/deg	|Zce|/Ohm	Re(Zce)/Ohm	-Im(Zce)/Ohm	Phase(Zwe-ce)/deg	|Zwe-ce|/Ohm	Re(Zwe-ce)/Ohm	-Im(Zwe-ce)/Ohm	Re(Y)/Ohm-1	Im(Y)/Ohm-1	|Y|/Ohm-1	Phase(Y)/deg	Re(C)/nF	Im(C)/nF	|C|/nF	Phase(C)/deg	Re(M)	Im(M)	|M|	Phase(M)/deg	Re(Permittivity)	Im(Permittivity)	|Permittivity|	Phase(Permittivity)/deg	Re(Resistivity)/Ohm.cm	Im(Resistivity)/Ohm.cm	|Resistivity|/Ohm.cm	Phase(Resistivity)/deg	Re(Conductivity)/mS/cm	Im(Conductivity)/mS/cm	|Conductivity|/mS/cm	Phase(Conductivity)/deg	Tan(Delta)	Loss Angle(Delta)/deg	dq/mA.h	Pwe/W	Pce/W	Pwe-ce/W	<Ewe-Ece>/V	Rwe/Ohm	Rce/Ohm	Rwe-ce/Ohm		Ewe-Ece/V
1.00002e+06	1.06136	-0.236012	1.08728	12.5368	2.69352	3.88354	0.0863137	-0.67434	-0.0317733	1	9	0.000215991	0.000198653	0	-1.35195e-05	-0.000389938	0.000192914	-4.86594	0.971112	0.967612	0.0823742	4.33028	2.03478	2.02897	-0.153637	0.897797	-0.199641	0.919726	-12.5368	-31.7733	142.886	146.376	-102.537	0.0000000E+000	0.0000000E+000	0.0000000E+000	102.537	0.0000000E+000	0.0000000E+000	0.0000000E+000	-102.537	0.0000000E+000	0.0000000E+000	0.0000000E+000	12.5368	0.0000000E+000	0.0000000E+000	0.0000000E+000	-12.5368	4.49705	77.4632	-1.35195e-05	0.000335203	-3.3657e-08	0.000335237	3.88393	44993.4	4.51768	44997.9
630957	0.410679	0.191264	0.453033	-24.9726	3.45955	3.88325	0.0332635	1.31883	0.235068	1	9	0.000145518	0.000321208	0	-7.01945e-06	-0.000122855	0.000123964	-113.894	0.38593	-0.15632	0.352854	-64.9453	0.600635	0.254359	0.544118	2.00098	0.931907	2.20734	24.9726	235.068	504.734	556.789	-65.0274	0.0000000E+000	0.0000000E+000	0.0000000E+000	65.0274	0.0000000E+000	0.0000000E+000	0.0000000E+000	-65.0274	0.0000000E+000	0.0000000E+000	0.0000000E+000	-24.9726	0.0000000E+000	0.0000000E+000	0.0000000E+000	24.9726	2.14719	65.0274	3.76596e-06	0.000129171	-4.0866e-09	0.000129175	3.88338	116742	3.6934	116746
398103	0.599168	0.128376	0.612766	-12.0931	4.22756	3.88329	0.0527103	3.11417	0.136684	1	9	0.000575664	0.000939452	0	2.24137e-06	0.000315923	6.29536e-05	167.785	0.0670109	-0.0654939	-0.014178	-12.0782	0.545755	0.533674	0.114197	1.59573	0.341895	1.63194	12.0931	136.684	637.945	652.423	-77.9069	0.0000000E+000	0.0000000E+000	0.0000000E+000	77.9069	0.0000000E+000	0.0000000E+000	0.0000000E+000	-77.9069	0.0000000E+000	0.0000000E+000	0.0000000E+000	-12.0931	0.0000000E+000	0.0000000E+000	0.0000000E+000	12.0931	4.66731	77.9069	5.99321e-06	0.000204689	1.66524e-08	0.000204673	3.88297	73672.3	5.99357	73666.3
251206	0.72642	0.258201	0.770943	-19.5674	4.99454	3.88324	0.039038	2.45376	0.275235	1	9	0.0019516	0.00253144	0	9.77051e-06	-8.3915e-06	6.10797e-05	113.889	0.0241284	-0.00977106	-0.0220615	-18.2373	0.754551	0.716649	0.23614	1.2222	0.434423	1.29711	19.5674	275.235	774.342	821.802	-70.4326	0.0000000E+000	0.0000000E+000	0.0000000E+000	70.4326	0.0000000E+000	0.0000000E+000	0.0000000E+000	-70.4326	0.0000000E+000	0.0000000E+000	0.0000000E+000	-19.5674	0.0000000E+000	0.0000000E+000	0.0000000E+000	19.5674	2.81339	70.4326	3.25371e-06	0.000151594	-3.27587e-10	0.000151594	3.88325	99473.5	0.214957	99473.7
158486	0.845719	0.368257	0.922417	-23.53	5.76053	3.88319	0.0359459	2.72696	0.434635	1	9	0.00507783	0.00550491	0	3.63663e-06	-8.47007e-05	5.72592e-05	91.8969	0.0104015	-0.000344307	-0.0103958	-22.9437	0.918	0.845375	0.357861	0.993965	0.432808	1.08411	23.53	434.635	998.16	1088.68	-66.47	0.0000000E+000	0.0000000E+000	0.0000000E+000	66.47	0.0000000E+000	0.0000000E+000	0.0000000E+000	-66.47	0.0000000E+000	0.0000000E+000	0.0000000E+000	-23.53	0.0000000E+000	0.0000000E+000	0.0000000E+000	23.53	2.29655	66.47	-9.70014e-06	0.000139585	-3.04465e-09	0.000139588	3.88328	108029	2.35634	108031
100004	0.998708	0.428977	1.08694	-23.2451	6.52656	3.88319	0.0334126	3.70997	0.577865	1	9	0.00532703	0.00490094	0	-1.73016e-05	-8.47007e-05	3.83883e-05	85.7104	0.00783285	0.00058588	-0.00781091	-22.8536	1.08442	0.999294	0.421166	0.845332	0.363097	0.920014	23.2451	577.865	1345.34	1464.19	-66.7549	0.0000000E+000	0.0000000E+000	0.0000000E+000	66.7549	0.0000000E+000	0.0000000E+000	0.0000000E+000	-66.7549	0.0000000E+000	0.0000000E+000	0.0000000E+000	-23.2451	0.0000000E+000	0.0000000E+000	0.0000000E+000	23.2451	2.32812	66.7549	-4.93859e-06	0.000129747	-2.83007e-09	0.00012975	3.88327	116219	2.53499	116222
63093.8	1.16123	0.454621	1.24705	-21.3803	7.29256	3.88319	0.0396713	5.54861	0.737422	1	9	0.00532184	0.00426755	0	-1.22334e-05	0.000163304	2.93493e-05	56.609	0.00687733	0.00378493	-0.00574211	-21.0716	1.2485	1.16501	0.448878	0.746708	0.292336	0.801894	21.3803	737.422	1883.58	2022.79	-68.6197	0.0000000E+000	0.0000000E+000	0.0000000E+000	68.6197	0.0000000E+000	0.0000000E+000	0.0000000E+000	-68.6197	0.0000000E+000	0.0000000E+000	0.0000000E+000	-21.3803	0.0000000E+000	0.0000000E+000	0.0000000E+000	21.3803	2.55428	68.6197	7.04965e-06	0.000154051	6.4785e-09	0.000154045	3.88302	97883.9	4.11643	97879.8
39814.1	1.3117	0.451478	1.38723	-18.9931	8.06052	3.88317	0.0336734	8.85415	0.937833	1	9	0.00527759	0.00380442	0	-5.77495e-06	-8.47007e-05	1.61928e-05	52.8245	0.0042563	0.00257191	-0.00339137	-18.8262	1.38856	1.31428	0.448087	0.681617	0.234607	0.720863	18.9931	937.833	2724.74	2881.62	-71.0069	0.0000000E+000	0.0000000E+000	0.0000000E+000	71.0069	0.0000000E+000	0.0000000E+000	0.0000000E+000	-71.0069	0.0000000E+000	0.0000000E+000	0.0000000E+000	-18.9931	0.0000000E+000	0.0000000E+000	0.0000000E+000	18.9931	2.90535	71.0069	-3.73986e-06	0.000130759	-2.85216e-09	0.000130762	3.88326	115319	2.51536	115321
25116.9	1.44604	0.438191	1.51097	-16.8583	8.82655	3.88318	0.0406027	14.4607	1.2162	1	9	0.00521658	0.00345246	0	9.62169e-06	0.000220536	9.45242e-06	-36.1961	0.00273788	0.00220947	0.00161686	-16.8926	1.51356	1.44825	0.439808	0.633383	0.191933	0.661825	16.8583	1216.2	4013.47	4193.7	-73.1417	0.0000000E+000	0.0000000E+000	0.0000000E+000	73.1417	0.0000000E+000	0.0000000E+000	0.0000000E+000	-73.1417	0.0000000E+000	0.0000000E+000	0.0000000E+000	-16.8583	0.0000000E+000	0.0000000E+000	0.0000000E+000	16.8583	3.30002	73.1417	1.22649e-05	0.000157668	8.95436e-09	0.000157659	3.88296	95638.6	5.43157	95633.2
15847.7	1.56194	0.435594	1.62155	-15.5827	9.59355	3.88318	0.0374733	23.0554	1.66371	1	9	0.00508558	0.00313626	0	2.16269e-05	0.000220536	6.60328e-06	22.6478	0.00210547	0.00194311	-0.000810742	-15.5367	1.6232	1.56389	0.434784	0.594028	0.165662	0.616696	15.5827	1663.71	5965.7	6193.35	-74.4173	0.0000000E+000	0.0000000E+000	0.0000000E+000	74.4173	0.0000000E+000	0.0000000E+000	0.0000000E+000	-74.4173	0.0000000E+000	0.0000000E+000	0.0000000E+000	-15.5827	0.0000000E+000	0.0000000E+000	0.0000000E+000	15.5827	3.58577	74.4173	5.13801e-06	0.000145516	8.26422e-09	0.000145507	3.88296	103625	5.88516	103619
10002.2	1.66923	0.436065	1.72524	-14.6406	10.2375	3.88318	0.0440673	36.4898	2.33117	1	9	0.00536921	0.00311214	0	2.70373e-05	0.000182382	3.4259e-06	-107.207	0.00110082	-0.000325646	0.00105155	-14.6772	1.7252	1.6689	0.437117	0.560808	0.146504	0.579628	14.6406	2331.17	8923.54	9223.01	-75.3594	0.0000000E+000	0.0000000E+000	0.0000000E+000	75.3594	0.0000000E+000	0.0000000E+000	0.0000000E+000	-75.3594	0.0000000E+000	0.0000000E+000	0.0000000E+000	-14.6406	0.0000000E+000	0.0000000E+000	0.0000000E+000	14.6406	3.82793	75.3594	8.81808e-07	0.000171121	8.03707e-09	0.000171113	3.88299	88119.2	4.1387	88115
6309.38	1.77574	0.457769	1.83379	-14.4556	10.8796	3.88317	0.0414968	55.1044	3.43383	1	9	0.00521302	0.00284275	0	3.33873e-05	-0.000256397	8.37547e-06	-23.4393	0.00294625	0.00270313	0.00117195	-14.47	1.8367	1.77844	0.458941	0.528054	0.136128	0.545318	14.4556	3433.83	13320.2	13755.7	-75.5444	0.0000000E+000	0.0000000E+000	0.0000000E+000	75.5444	0.0000000E+000	0.0000000E+000	0.0000000E+000	-75.5444	0.0000000E+000	0.0000000E+000	0.0000000E+000	-14.4556	0.0000000E+000	0.0000000E+000	0.0000000E+000	14.4556	3.87911	75.5444	9.5098e-07	0.000161139	-1.06396e-08	0.00016115	3.88343	93577.7	6.17871	93583.9
3983.6	1.89856	0.502115	1.96384	-14.8139	11.4421	3.88306	-0.0154651	79.5685	5.20161	1	9	0.00522995	0.00266313	0	3.49699e-05	0.000163304	1.57353e-05	-32.0998	0.00590859	0.0050053	0.00313979	-14.865	1.96948	1.90356	0.505255	0.492282	0.130195	0.509208	14.8139	5201.61	19667.9	20344.1	-75.1861	0.0000000E+000	0.0000000E+000	0.0000000E+000	75.1861	0.0000000E+000	0.0000000E+000	0.0000000E+000	-75.1861	0.0000000E+000	0.0000000E+000	0.0000000E+000	-14.8139	0.0000000E+000	0.0000000E+000	0.0000000E+000	14.8139	3.78112	75.1861	-2.48472e-06	-6.0052e-05	-2.52552e-09	-6.00495e-05	3.8829	251085	10.5595	251074
2510.8	2.0249	0.566466	2.10265	-15.6289	12.2669	3.88305	0.000628755	111.901	8.12173	1	9	0.00520161	0.00247384	0	2.98919e-05	0.000277768	1.00424e-05	-124.013	0.00405943	-0.00227077	0.0033649	-15.734	2.10137	2.02263	0.569831	0.458007	0.128127	0.475591	15.6289	8121.73	29032.2	30146.8	-74.3711	0.0000000E+000	0.0000000E+000	0.0000000E+000	74.3711	0.0000000E+000	0.0000000E+000	0.0000000E+000	-74.3711	0.0000000E+000	0.0000000E+000	0.0000000E+000	-15.6289	0.0000000E+000	0.0000000E+000	0.0000000E+000	15.6289	3.57463	74.3711	-1.31437e-06	2.44149e-06	1.74648e-10	2.44131e-06	3.88278	6.17579e+06	441.775	6.17534e+06
1585.51	2.1539	0.666312	2.25461	-17.1895	13.1689	3.88306	-0.00320845	150.652	13.1579	1	9	0.00515023	0.00228431	0	2.82659e-05	0.000373155	8.06964e-06	-19.5634	0.00353264	0.0033287	0.0011829	-17.1932	2.25814	2.15723	0.667495	0.423724	0.131079	0.443535	17.1895	13157.9	42533.9	44522.6	-72.8105	0.0000000E+000	0.0000000E+000	0.0000000E+000	72.8105	0.0000000E+000	0.0000000E+000	0.0000000E+000	-72.8105	0.0000000E+000	0.0000000E+000	0.0000000E+000	-17.1895	0.0000000E+000	0.0000000E+000	0.0000000E+000	17.1895	3.23257	72.8105	2.06766e-07	-1.24586e-05	-1.19725e-09	-1.24574e-05	3.88268	1.21026e+06	116.304	1.21014e+06
1000.32	2.32758	0.812459	2.46531	-19.2419	14.0708	3.88306	0.00208166	195.83	21.2687	1	9	0.00512641	0.00207942	0	2.90815e-05	0.000163304	1.31613e-05	75.5598	0.00632931	0.00157834	-0.00612936	-19.0953	2.46479	2.32916	0.80633	0.382969	0.133678	0.405629	19.2419	21268.7	60931.9	64537.2	-70.7581	0.0000000E+000	0.0000000E+000	0.0000000E+000	70.7581	0.0000000E+000	0.0000000E+000	0.0000000E+000	-70.7581	0.0000000E+000	0.0000000E+000	0.0000000E+000	-19.2419	0.0000000E+000	0.0000000E+000	0.0000000E+000	19.2419	2.86486	70.7581	1.97957e-06	8.08321e-06	3.39944e-10	8.08287e-06	3.8829	1.86537e+06	78.4491	1.86529e+06
631.01	2.56331	1.01251	2.75603	-21.554	14.9715	3.88306	0.00576983	249.107	33.6212	1	9	0.00510393	0.00185191	0	2.95153e-05	-0.000294551	1.42172e-05	4.5103	0.00767705	0.00765327	-0.00060371	-21.4841	2.76293	2.57096	1.0119	0.337467	0.1333	0.36284	21.554	33621.2	85116.9	91516.5	-68.446	0.0000000E+000	0.0000000E+000	0.0000000E+000	68.446	0.0000000E+000	0.0000000E+000	0.0000000E+000	-68.446	0.0000000E+000	0.0000000E+000	0.0000000E+000	-21.554	0.0000000E+000	0.0000000E+000	0.0000000E+000	21.554	2.53165	68.446	-5.34264e-07	2.24046e-05	-1.69951e-09	2.24063e-05	3.88335	672993	51.0502	673044
398.089	2.93504	1.24734	3.18909	-23.0247	16.1189	3.88309	-0.0512682	320.519	49.0335	1	10	0.00513013	0.00160865	0	1.97522e-05	8.6995e-05	1.69964e-05	5.50821	0.0105656	0.0105168	-0.00101418	-22.9343	3.19838	2.94555	1.24633	0.288589	0.122646	0.313569	23.0247	49033.5	115377	125364	-66.9753	0.0000000E+000	0.0000000E+000	0.0000000E+000	66.9753	0.0000000E+000	0.0000000E+000	0.0000000E+000	-66.9753	0.0000000E+000	0.0000000E+000	0.0000000E+000	-23.0247	0.0000000E+000	0.0000000E+000	0.0000000E+000	23.0247	2.35303	66.9753	-5.57637e-06	-0.000199079	-4.46008e-09	-0.000199075	3.883	75740.8	1.69686	75739.1
251.044	3.41438	1.4368	3.70438	-22.8217	17.017	3.88309	-0.0509551	441.239	66.3797	1	10	0.00509349	0.00137499	0	6.0467e-06	0.000106072	1.54547e-05	77.115	0.0112398	0.00250642	-0.0109568	-22.6504	3.70245	3.41689	1.42584	0.248818	0.104705	0.269951	22.8217	66379.7	157744	171141	-67.1783	0.0000000E+000	0.0000000E+000	0.0000000E+000	67.1783	0.0000000E+000	0.0000000E+000	0.0000000E+000	-67.1783	0.0000000E+000	0.0000000E+000	0.0000000E+000	-22.8217	0.0000000E+000	0.0000000E+000	0.0000000E+000	22.8217	2.37638	67.1783	-6.35352e-06	-0.000197864	-5.40493e-09	-0.000197858	3.88299	76206.1	2.08168	76204
158.428	3.99511	1.47026	4.25707	-20.2044	17.9219	3.8831	-0.0485587	683.27	81.5007	1	10	0.00507157	0.00119133	0	-8.24468e-06	0.000373155	8.5189e-06	121.432	0.00715075	-0.00372904	-0.00610144	-20.1446	4.25146	3.99139	1.46416	0.220449	0.0811286	0.234904	20.2044	81500.7	221460	235981	-69.7956	0.0000000E+000	0.0000000E+000	0.0000000E+000	69.7956	0.0000000E+000	0.0000000E+000	0.0000000E+000	-69.7956	0.0000000E+000	0.0000000E+000	0.0000000E+000	-20.2044	0.0000000E+000	0.0000000E+000	0.0000000E+000	20.2044	2.71728	69.7956	-6.57954e-06	-0.000188559	-1.81199e-08	-0.00018854	3.88273	79967.2	7.68461	79959.5
100.032	4.54849	1.33578	4.74057	-16.3662	18.8208	3.8831	-0.0493302	1191.1	94.5699	1	10	0.00506104	0.0010676	0	-2.03275e-05	2.97631e-05	8.18736e-06	-84.0692	0.00766893	0.000792408	0.00762788	-16.4519	4.74349	4.54928	1.3434	0.202398	0.0594391	0.210945	16.3662	94569.9	322023	335622	-73.6338	0.0000000E+000	0.0000000E+000	0.0000000E+000	73.6338	0.0000000E+000	0.0000000E+000	0.0000000E+000	-73.6338	0.0000000E+000	0.0000000E+000	0.0000000E+000	-16.3662	0.0000000E+000	0.0000000E+000	0.0000000E+000	16.3662	3.40513	73.6338	-7.00159e-06	-0.000191554	-1.46822e-09	-0.000191553	3.88307	78716.5	0.603345	78715.9
63.0823	4.98292	1.09576	5.10198	-12.4022	19.738	3.8831	-0.0477314	2302.48	106.207	1	10	0.00506059	0.000991887	0	-3.26564e-05	0.00012515	5.60579e-06	-25.3096	0.00565164	0.00510914	0.00241613	-12.4163	5.10749	4.98803	1.09818	0.191428	0.0420958	0.196002	12.4022	106207	482968	494508	-77.5978	0.0000000E+000	0.0000000E+000	0.0000000E+000	77.5978	0.0000000E+000	0.0000000E+000	0.0000000E+000	-77.5978	0.0000000E+000	0.0000000E+000	0.0000000E+000	-12.4022	0.0000000E+000	0.0000000E+000	0.0000000E+000	12.4022	4.54744	77.5978	-5.78255e-06	-0.000185346	-5.97356e-09	-0.00018534	3.88297	81353.2	2.62196	81350.6
39.8089	5.26901	0.824538	5.33314	-8.89398	20.6389	3.88309	-0.0495166	4848.74	115.9	1	10	0.00506234	0.000949224	0	-4.26519e-05	0.000354077	6.76817e-06	11.0922	0.00713022	0.00699702	-0.00137177	-8.86783	5.33984	5.27601	0.823166	0.185252	0.0289898	0.187507	8.89398	115900	740634	749647	-81.106	0.0000000E+000	0.0000000E+000	0.0000000E+000	81.106	0.0000000E+000	0.0000000E+000	0.0000000E+000	-81.106	0.0000000E+000	0.0000000E+000	0.0000000E+000	-8.89398	0.0000000E+000	0.0000000E+000	0.0000000E+000	8.89398	6.39026	81.106	-5.11505e-06	-0.000192278	-1.75327e-08	-0.00019226	3.88274	78420.1	7.15069	78413
25.1044	5.43104	0.59661	5.46371	-6.26891	21.5181	3.88308	-0.0494457	10626.2	126.702	1	10	0.00505826	0.000925792	0	-5.43288e-05	0.000411309	8.53445e-06	20.3237	0.00921854	0.00864465	-0.00320183	-6.2257	5.47196	5.43969	0.593408	0.181931	0.0199855	0.183026	6.26891	126702	1.15339e+06	1.16033e+06	-83.7311	0.0000000E+000	0.0000000E+000	0.0000000E+000	83.7311	0.0000000E+000	0.0000000E+000	0.0000000E+000	-83.7311	0.0000000E+000	0.0000000E+000	0.0000000E+000	-6.26891	0.0000000E+000	0.0000000E+000	0.0000000E+000	6.26891	9.10317	83.7311	-6.33277e-06	-0.000192002	-2.03375e-08	-0.000191982	3.88267	78532.2	8.3184	78523.9
15.8576	5.51567	0.441747	5.53333	-4.57902	22.396	3.88309	-0.0513987	22720.1	144.805	1	10	0.00505103	0.000912838	0	-6.16761e-05	-0.000180087	1.23634e-05	81.5438	0.0135439	0.00199168	-0.0133967	-4.43912	5.53426	5.51766	0.428351	0.180146	0.0144278	0.180723	4.57902	144805	1.80804e+06	1.81383e+06	-85.421	0.0000000E+000	0.0000000E+000	0.0000000E+000	85.421	0.0000000E+000	0.0000000E+000	0.0000000E+000	-85.421	0.0000000E+000	0.0000000E+000	0.0000000E+000	-4.57902	0.0000000E+000	0.0000000E+000	0.0000000E+000	4.57902	12.486	85.421	-2.86777e-06	-0.000199585	9.25624e-09	-0.000199595	3.88327	75548.4	3.50374	75551.9
10.0032	5.59109	0.318984	5.60018	-3.26531	23.3778	3.88308	-0.049196	49878.4	161.825	1	10	0.00506103	0.000903725	0	-7.80249e-05	0.000220536	1.23662e-05	-37.5507	0.0136835	0.0108485	0.00833962	-3.34401	5.61149	5.60194	0.327323	0.178276	0.010171	0.178566	3.26531	161825	2.83644e+06	2.84105e+06	-86.7347	0.0000000E+000	0.0000000E+000	0.0000000E+000	86.7347	0.0000000E+000	0.0000000E+000	0.0000000E+000	-86.7347	0.0000000E+000	0.0000000E+000	0.0000000E+000	-3.26531	0.0000000E+000	0.0000000E+000	0.0000000E+000	3.26531	17.5278	86.7347	-7.0832e-06	-0.000191032	-1.08495e-08	-0.000191021	3.88286	78930.8	4.4828	78926.3
6.31058	5.63335	0.238559	5.6384	-2.42489	24.3013	3.8831	-0.0457113	105719	189.25	1	10	0.00505966	0.000897357	0	-8.18334e-05	0.000468541	8.21003e-06	-103.259	0.00914912	-0.00209834	0.00890524	-2.51624	5.63668	5.63125	0.247464	0.177197	0.00750387	0.177355	2.42489	189250	4.46896e+06	4.47296e+06	-87.5751	0.0000000E+000	0.0000000E+000	0.0000000E+000	87.5751	0.0000000E+000	0.0000000E+000	0.0000000E+000	-87.5751	0.0000000E+000	0.0000000E+000	0.0000000E+000	-2.42489	0.0000000E+000	0.0000000E+000	0.0000000E+000	2.42489	23.614	87.5751	1.00102e-06	-0.000177502	-2.14176e-08	-0.00017748	3.88264	84948.4	10.25	84938.1
3.97785	5.65677	0.218013	5.66097	-2.20709	25.3083	3.88311	-0.0378214	183523	272.189	1	10	0.00505271	0.000892552	0	-0.000106549	1.06858e-05	4.91148e-06	-73.8013	0.00550274	0.00153509	0.00528428	-2.25992	5.66271	5.65831	0.223297	0.176517	0.00680299	0.176648	2.20709	272189	7.0625e+06	7.06774e+06	-87.7929	0.0000000E+000	0.0000000E+000	0.0000000E+000	87.7929	0.0000000E+000	0.0000000E+000	0.0000000E+000	-87.7929	0.0000000E+000	0.0000000E+000	0.0000000E+000	-2.20709	0.0000000E+000	0.0000000E+000	0.0000000E+000	2.20709	25.947	87.7929	-9.93588e-06	-0.000146865	-4.04152e-10	-0.000146864	3.8831	102670	0.282533	102669
2.51367	5.70206	0.211437	5.70597	-2.1236	27.311	3.88313	-0.0377037	299454	411.181	1	11	0.00505922	0.000886654	0	-0.000106009	0.000144227	2.46853e-06	-134.075	0.0027841	-0.00193661	0.00200018	-2.1444	5.70411	5.70012	0.213437	0.175135	0.00649414	0.175255	2.1236	411181	1.10888e+07	1.10964e+07	-87.8764	0.0000000E+000	0.0000000E+000	0.0000000E+000	87.8764	0.0000000E+000	0.0000000E+000	0.0000000E+000	-87.8764	0.0000000E+000	0.0000000E+000	0.0000000E+000	-2.1236	0.0000000E+000	0.0000000E+000	0.0000000E+000	2.1236	26.9681	87.8764	-2.34041e-06	-0.000146408	-5.4379e-09	-0.000146403	3.88298	102990	3.82527	102987
1.58469	5.73666	0.227611	5.74118	-2.27211	29.7465	3.88313	-0.0367002	441248	693.536	1	11	0.00505725	0.000880872	0	-0.000161684	-8.3915e-06	1.02437e-06	-8.31512	0.0011629	0.00115068	0.000168176	-2.27333	5.74233	5.73782	0.22778	0.174043	0.00690545	0.17418	2.27211	693536	1.74797e+07	1.74935e+07	-87.7279	0.0000000E+000	0.0000000E+000	0.0000000E+000	87.7279	0.0000000E+000	0.0000000E+000	0.0000000E+000	-87.7279	0.0000000E+000	0.0000000E+000	0.0000000E+000	-2.27211	0.0000000E+000	0.0000000E+000	0.0000000E+000	2.27211	25.2038	87.7279	-3.27891e-05	-0.000142512	3.0797e-10	-0.000142512	3.88314	105807	0.22865	105807
1.00469	5.81832	0.252244	5.82378	-2.48241	240.565	3.8831	-0.0292995	628009	1178.14	1	11	0.00500898	0.00086009	0	-0.00530549	-4.65461e-05	5.96966e-07	-1.30779	0.000694073	0.000693892	1.58411e-05	-2.48227	5.82447	5.81901	0.25226	0.171549	0.00743722	0.17171	2.48241	1.17814e+06	2.71753e+07	2.72008e+07	-87.5176	0.0000000E+000	0.0000000E+000	0.0000000E+000	87.5176	0.0000000E+000	0.0000000E+000	0.0000000E+000	-87.5176	0.0000000E+000	0.0000000E+000	0.0000000E+000	-2.48241	0.0000000E+000	0.0000000E+000	0.0000000E+000	2.48241	23.0662	87.5176	-0.00511686	-0.000113773	1.36378e-09	-0.000113774	3.88315	132531	1.58863	132533
0.632957	5.87212	0.311432	5.88037	-3.03588	240.566	3.8831	-0.0292995	807389	2264.64	1	11	0.00502183	0.000853998	0	-0.00530549	-4.65461e-05	4.87268e-07	1.77697	0.000570573	0.000570299	-1.76929e-05	-3.03541	5.88094	5.87269	0.311414	0.169819	0.00900644	0.170057	3.03588	2.26464e+06	4.27003e+07	4.27603e+07	-86.9641	0.0000000E+000	0.0000000E+000	0.0000000E+000	86.9641	0.0000000E+000	0.0000000E+000	0.0000000E+000	-86.9641	0.0000000E+000	0.0000000E+000	0.0000000E+000	-3.03588	0.0000000E+000	0.0000000E+000	0.0000000E+000	3.03588	18.8552	86.9641	0.000000000000000E+000	-0.000113773	1.36378e-09	-0.000113774	3.88315	132531	1.58863	132533
0.401878	5.92464	0.394805	5.93778	-3.81243	240.567	3.8831	-0.0292995	1.0031e+06	4434.66	1	11	0.00503554	0.000848051	0	-0.00530549	-4.65461e-05	3.41274e-07	12.7934	0.000402422	0.000392432	-8.91108e-05	-3.81132	5.93817	5.92504	0.394716	0.16804	0.0111978	0.168413	3.81243	4.43467e+06	6.65487e+07	6.66963e+07	-86.1876	0.0000000E+000	0.0000000E+000	0.0000000E+000	86.1876	0.0000000E+000	0.0000000E+000	0.0000000E+000	-86.1876	0.0000000E+000	0.0000000E+000	0.0000000E+000	-3.81243	0.0000000E+000	0.0000000E+000	0.0000000E+000	3.81243	15.0065	86.1876	0.000000000000000E+000	-0.000113773	1.36378e-09	-0.000113774	3.88315	132531	1.58863	132533
0.251173	6.02534	0.52101	6.04782	-4.94207	240.567	3.8831	-0.0292995	1.21619e+06	9025.99	1	11	0.00503636	0.000832756	0	-0.00530549	-4.65461e-05	4.56047e-07	-2.64204	0.000547635	0.000547053	2.52437e-05	-4.94186	6.04837	6.02589	0.521036	0.164734	0.0142445	0.165349	4.94207	9.02599e+06	1.04383e+08	1.04773e+08	-85.0579	0.0000000E+000	0.0000000E+000	0.0000000E+000	85.0579	0.0000000E+000	0.0000000E+000	0.0000000E+000	-85.0579	0.0000000E+000	0.0000000E+000	0.0000000E+000	-4.94207	0.0000000E+000	0.0000000E+000	0.0000000E+000	4.94207	11.5647	85.0579	0.000000000000000E+000	-0.000113773	1.36378e-09	-0.000113774	3.88315	132531	1.58863	132533
0.160751	6.16805	0.619328	6.19906	-5.7338	240.568	3.8831	-0.0292995	1.59862e+06	15956.4	1	11	0.00503129	0.000811621	0	-0.00530549	-4.65461e-05	4.58152e-07	-13.0327	0.00056449	0.00054995	0.000127297	-5.73447	6.19962	6.1686	0.619456	0.160508	0.0161164	0.161315	5.7338	1.59564e+07	1.58914e+08	1.59713e+08	-84.2662	0.0000000E+000	0.0000000E+000	0.0000000E+000	84.2662	0.0000000E+000	0.0000000E+000	0.0000000E+000	-84.2662	0.0000000E+000	0.0000000E+000	0.0000000E+000	-5.7338	0.0000000E+000	0.0000000E+000	0.0000000E+000	5.7338	9.95925	84.2662	0.000000000000000E+000	-0.000113773	1.36378e-09	-0.000113774	3.88315	132531	1.58863	132533
0.100469	6.29917	0.867363	6.3586	-7.84004	240.569	3.8831	-0.0292995	1.82636e+06	33983.2	1	11	0.00503252	0.000791451	0	-0.00530549	-4.65461e-05	7.36683e-07	-25.4628	0.0009308	0.000840386	0.000400173	-7.84258	6.35949	6.30001	0.867763	0.155797	0.0214525	0.157267	7.84004	3.39832e+07	2.46801e+08	2.49129e+08	-82.16	0.0000000E+000	0.0000000E+000	0.0000000E+000	82.16	0.0000000E+000	0.0000000E+000	0.0000000E+000	-82.16	0.0000000E+000	0.0000000E+000	0.0000000E+000	-7.84004	0.0000000E+000	0.0000000E+000	0.0000000E+000	7.84004	7.26243	82.16	0.000000000000000E+000	-0.000113773	1.36378e-09	-0.000113774	3.88315	132531	1.58863	132533
0.0602816	6.56081	1.08365	6.6497	-9.37884	240.57	3.8831	-0.0292995	2.4364e+06	64702.1	1	11	0.005029	0.000756275	0	-0.00530549	-4.65461e-05	7.49832e-07	10.3946	0.00099148	0.000975209	-0.00017889	-9.37595	6.65063	6.56178	1.08347	0.148372	0.0245066	0.150383	9.37884	6.47021e+07	3.91732e+08	3.97039e+08	-80.6212	0.0000000E+000	0.0000000E+000	0.0000000E+000	80.6212	0.0000000E+000	0.0000000E+000	0.0000000E+000	-80.6212	0.0000000E+000	0.0000000E+000	0.0000000E+000	-9.37884	0.0000000E+000	0.0000000E+000	0.0000000E+000	9.37884	6.05438	80.6212	0.000000000000000E+000	-0.000113773	1.36378e-09	-0.000113774	3.88315	132531	1.58863	132533
0.0401878	6.87627	1.32261	7.00231	-10.8875	240.571	3.8831	-0.0292995	2.9943e+06	106826	1	11	0.00502902	0.000718194	0	-0.00530549	-4.65461e-05	6.13207e-07	-16.9685	0.000853817	0.000816647	0.000249184	-10.8883	7.00316	6.87708	1.32286	0.140239	0.0269742	0.14281	10.8875	1.06825e+08	5.55388e+08	5.65568e+08	-79.1125	0.0000000E+000	0.0000000E+000	0.0000000E+000	79.1125	0.0000000E+000	0.0000000E+000	0.0000000E+000	-79.1125	0.0000000E+000	0.0000000E+000	0.0000000E+000	-10.8875	0.0000000E+000	0.0000000E+000	0.0000000E+000	10.8875	5.19902	79.1125	0.000000000000000E+000	-0.000113773	1.36378e-09	-0.000113774	3.88315	132531	1.58863	132533
0.0200939	7.62337	2.00149	7.88174	-14.7108	240.571	3.8831	-0.0292995	3.95733e+06	255192	1	11	0.00502893	0.000638048	0	-0.00530549	-4.65461e-05	4.85212e-07	-18.873	0.000760463	0.000719579	0.000245988	-14.7112	7.8825	7.62409	2.00174	0.122717	0.0322189	0.126876	14.7108	2.55192e+08	9.71985e+08	1.00493e+09	-75.2892	0.0000000E+000	0.0000000E+000	0.0000000E+000	75.2892	0.0000000E+000	0.0000000E+000	0.0000000E+000	-75.2892	0.0000000E+000	0.0000000E+000	0.0000000E+000	-14.7108	0.0000000E+000	0.0000000E+000	0.0000000E+000	14.7108	3.80884	75.2892	0.000000000000000E+000	-0.000113773	1.36378e-09	-0.000113774	3.88315	132531	1.58863	132533
0.00796479	8.35501	2.36072	8.68212	-15.7777	20329.5	3.88316	-4.02775e-06	8.4645e+06	625806	1	11	0.00502293	0.000578538	0	-0.0661997	-4.65461e-05	4.07308e-07	-8.48939	0.000704029	0.000696316	0.000103933	-15.7771	8.68281	8.3557	2.36082	0.11084	0.031318	0.115179	15.7777	6.25806e+08	2.21484e+09	2.30155e+09	-74.2223	0.0000000E+000	0.0000000E+000	0.0000000E+000	74.2223	0.0000000E+000	0.0000000E+000	0.0000000E+000	-74.2223	0.0000000E+000	0.0000000E+000	0.0000000E+000	-15.7777	0.0000000E+000	0.0000000E+000	0.0000000E+000	15.7777	3.53918	74.2223	-0.0608942	-1.56404e-08	1.87476e-13	-1.56406e-08	3.8832	9.64101e+08	11556.4	9.64112e+08
0.00497799	9.04973	2.52734	9.39602	-15.6036	20329.5	3.88316	-4.02775e-06	1.26504e+07	915255	1	11	0.0050298	0.000535312	0	-0.0661997	-4.65461e-05	4.27648e-07	-11.2872	0.000798877	0.000783425	0.000156361	-15.6032	9.39681	9.05052	2.52749	0.102506	0.028627	0.106428	15.6036	9.15255e+08	3.27729e+09	3.40269e+09	-74.3964	0.0000000E+000	0.0000000E+000	0.0000000E+000	74.3964	0.0000000E+000	0.0000000E+000	0.0000000E+000	-74.3964	0.0000000E+000	0.0000000E+000	0.0000000E+000	-15.6036	0.0000000E+000	0.0000000E+000	0.0000000E+000	15.6036	3.58074	74.3964	0.000000000000000E+000	-1.56404e-08	1.87476e-13	-1.56406e-08	3.8832	9.64101e+08	11556.4	9.64112e+08
0.00318591	9.5302	3.28848	10.0816	-19.0375	20329.5	3.88316	-4.02775e-06	1.51912e+07	1.6163e+06	1	11	0.0050323	0.000499157	0	-0.0661997	-4.65461e-05	4.47967e-07	-18.764	0.000897448	0.00084975	0.000288683	-19.0374	10.0825	9.53105	3.28877	0.0937654	0.0323546	0.0991906	19.0375	1.6163e+09	4.68413e+09	4.95515e+09	-70.9625	0.0000000E+000	0.0000000E+000	0.0000000E+000	70.9625	0.0000000E+000	0.0000000E+000	0.0000000E+000	-70.9625	0.0000000E+000	0.0000000E+000	0.0000000E+000	-19.0375	0.0000000E+000	0.0000000E+000	0.0000000E+000	19.0375	2.89806	70.9625	0.000000000000000E+000	-1.56404e-08	1.87476e-13	-1.56406e-08	3.8832	9.64101e+08	11556.4	9.64112e+08
0.0019912	9.92208	4.05081	10.7171	-22.2083	20329.5	3.88316	-4.02775e-06	1.97317e+07	2.81897e+06	1	11	0.00503471	0.000469782	0	-0.0661997	-4.65461e-05	6.18125e-07	-46.7356	0.00131577	0.000901786	0.000958143	-22.2112	10.7183	9.92299	4.05177	0.0863866	0.0352683	0.0933086	22.2083	2.81897e+09	6.90482e+09	7.45809e+09	-67.7917	0.0000000E+000	0.0000000E+000	0.0000000E+000	67.7917	0.0000000E+000	0.0000000E+000	0.0000000E+000	-67.7917	0.0000000E+000	0.0000000E+000	0.0000000E+000	-22.2083	0.0000000E+000	0.0000000E+000	0.0000000E+000	22.2083	2.44941	67.7917	0.000000000000000E+000	-1.56404e-08	1.87476e-13	-1.56406e-08	3.8832	9.64101e+08	11556.4	9.64112e+08
0.00129428	9.62514	5.33947	11.007	-29.019	20329.5	3.88316	-4.02775e-06	2.303e+07	5.41946e+06	1	11	0.00503683	0.000457604	0	-0.0661997	-4.65461e-05	2.77856e-07	-50.2494	0.000607198	0.000388271	0.000466835	-29.0201	11.0075	9.62553	5.33994	0.079446	0.044072	0.0908516	29.019	5.41946e+09	9.76933e+09	1.11719e+10	-60.981	0.0000000E+000	0.0000000E+000	0.0000000E+000	60.981	0.0000000E+000	0.0000000E+000	0.0000000E+000	-60.981	0.0000000E+000	0.0000000E+000	0.0000000E+000	-29.019	0.0000000E+000	0.0000000E+000	0.0000000E+000	29.019	1.80264	60.981	0.000000000000000E+000	-1.56404e-08	1.87476e-13	-1.56406e-08	3.8832	9.64101e+08	11556.4	9.64112e+08
0.000796479	10.6925	7.97322	13.338	-36.7112	20329.5	3.88316	-4.02775e-06	2.50618e+07	8.95567e+06	1	11	0.00503359	0.000377387	0	-0.0661997	-4.65461e-05	6.89304e-07	-28.2811	0.00182652	0.00160849	0.0008654	-36.7101	13.3398	10.6941	7.97409	0.0601033	0.044818	0.0749737	36.7112	8.95567e+09	1.201e+10	1.49815e+10	-53.2888	0.0000000E+000	0.0000000E+000	0.0000000E+000	53.2888	0.0000000E+000	0.0000000E+000	0.0000000E+000	-53.2888	0.0000000E+000	0.0000000E+000	0.0000000E+000	-36.7112	0.0000000E+000	0.0000000E+000	0.0000000E+000	36.7112	1.34105	53.2888	0.000000000000000E+000	-1.56404e-08	1.87476e-13	-1.56406e-08	3.8832	9.64101e+08	11556.4	9.64112e+08
0.000497799	10.5713	11.2138	15.4111	-46.6894	20329.5	3.88316	-4.02775e-06	2.85111e+07	1.50957e+07	1	11	0.00503922	0.000326987	0	-0.0661997	-4.65461e-05	5.34578e-07	-8.72044	0.00163486	0.00161596	0.000247866	-46.6857	15.4123	10.5729	11.214	0.0445104	0.0472159	0.0648885	46.6894	1.50957e+10	1.42307e+10	2.0746e+10	-43.3106	0.0000000E+000	0.0000000E+000	0.0000000E+000	43.3106	0.0000000E+000	0.0000000E+000	0.0000000E+000	-43.3106	0.0000000E+000	0.0000000E+000	0.0000000E+000	-46.6894	0.0000000E+000	0.0000000E+000	0.0000000E+000	46.6894	0.9427	43.3106	0.000000000000000E+000	-1.56404e-08	1.87476e-13	-1.56406e-08	3.8832	9.64101e+08	11556.4	9.64112e+08
0.000298679	9.70178	17.5794	20.0789	-61.1065	20329.5	3.88316	-4.02775e-06	3.03117e+07	2.32349e+07	1	11	0.00504069	0.000251045	0	-0.0661997	-4.65461e-05	2.75872e-07	112.012	0.00109889	-0.000411858	-0.00101879	-61.1061	20.0778	9.70136	17.5784	0.0240643	0.043604	0.0498036	61.1065	2.32349e+10	1.28229e+10	2.65384e+10	-28.8935	0.0000000E+000	0.0000000E+000	0.0000000E+000	28.8935	0.0000000E+000	0.0000000E+000	0.0000000E+000	-28.8935	0.0000000E+000	0.0000000E+000	0.0000000E+000	-61.1065	0.0000000E+000	0.0000000E+000	0.0000000E+000	61.1065	0.551882	28.8935	0.000000000000000E+000	-1.56404e-08	1.87476e-13	-1.56406e-08	3.8832	9.64101e+08	11556.4	9.64112e+08
9.95598e-05	5.9119	80.299	80.5163	-85.7893	20329.5	3.88316	-4.02775e-06	1.99079e+07	1.98006e+07	1	11	0.00503242	6.25019e-05	0	-0.0661997	-4.65461e-05	1.37564e-06	-49.2394	0.0220096	0.0143701	0.016671	-85.7799	80.534	5.92627	80.3157	0.000911925	0.0123863	0.0124198	85.7893	1.98006e+10	1.45779e+09	1.98542e+10	-4.21072	0.0000000E+000	0.0000000E+000	0.0000000E+000	4.21072	0.0000000E+000	0.0000000E+000	0.0000000E+000	-4.21072	0.0000000E+000	0.0000000E+000	0.0000000E+000	-85.7893	0.0000000E+000	0.0000000E+000	0.0000000E+000	85.7893	0.0736236	4.21072	0.000000000000000E+000	-1.56404e-08	1.87476e-13	-1.56406e-08	3.8832	9.64101e+08	11556.4	9.64112e+08