File: txt/19318_R313_UC97_SOC50_C02.mpt
EC-Lab ASCII FILE
Nb header lines : 65

Potentio Electrochemical Impedance Spectroscopy

Run on channel : 2 (SN 66139)
User :
CE vs. WE compliance from -10 V to 10 V
Electrode connection : standard
Potential control : Ewe
Ewe ctrl range : min = -10.00 V, max = 10.00 V
Safety Limits :
	Do not start on E overload
Acquisition started on : 11/18/2025 16:32:09.434
Technique started on : 11/18/2025 16:32:11.208
Loaded Setting File :  C:\Users\Celltest\OneDrive - store-dot.com\Documents\EC-Lab\Data\txt_done\19191_R297_UC94_SOC50_C08.mpr
Saved on :
	File : 19318_R313_UC97_SOC50_C02.mpr
	Directory : C:\Users\Celltest\OneDrive - store-dot.com\Documents\EC-Lab\Data\Michael\
	Host : 169.254.61.224
Device : VMP-3e (SN .003165)
Address : USB
EC-LAB for windows v11.62 (software)
Internet server v27.00 (firmware)
Command interpretor v12.03 (firmware)
Electrode material :
Initial state :
Electrolyte :
Comments :
Electrode surface area : 0.001 cm²
Characteristic mass : 0.001 g
Equivalent Weight : 0.000 g/eq.
Density : 0.000 g/cm3
Volume (V) : 0.001 cm³
Record Ece
Cycle Definition : Charge/Discharge alternance
Mode                Multi sine
E (V)               0.0000
vs.                 Eoc
tE (h:m:s)          0:00:0.0000
record              0
dI                  0.000
unit dI             mA
dt (s)              0.000
fi                  1.000
unit fi             MHz
ff                  0.100
unit ff             mHz
Nd                  10
Points              per decade
spacing             Logarithmic
Va (mV)             5.0
pw                  0.10
Na                  2
corr                0
E range min (V)     -10.000
E range max (V)     10.000
I Range             Auto
Bandwidth           5
nc cycles           0
goto Ns'            0
nr cycles           0
inc. cycle          0

freq/Hz	Re(Z)/Ohm	-Im(Z)/Ohm	|Z|/Ohm	Phase(Z)/deg	time/s	<Ewe>/V	<I>/mA	Cs/µF	Cp/µF	cycle number	I Range	|Ewe|/V	|I|/A	Ns	(Q-Qo)/mA.h	<Ece>/V	|Ece|/V	Phase(Zce)/deg	|Zce|/Ohm	Re(Zce)/Ohm	-Im(Zce)/Ohm	Phase(Zwe-ce)/deg	|Zwe-ce|/Ohm	Re(Zwe-ce)/Ohm	-Im(Zwe-ce)/Ohm	Re(Y)/Ohm-1	Im(Y)/Ohm-1	|Y|/Ohm-1	Phase(Y)/deg	Re(C)/nF	Im(C)/nF	|C|/nF	Phase(C)/deg	Re(M)	Im(M)	|M|	Phase(M)/deg	Re(Permittivity)	Im(Permittivity)	|Permittivity|	Phase(Permittivity)/deg	Re(Resistivity)/Ohm.cm	Im(Resistivity)/Ohm.cm	|Resistivity|/Ohm.cm	Phase(Resistivity)/deg	Re(Conductivity)/mS/cm	Im(Conductivity)/mS/cm	|Conductivity|/mS/cm	Phase(Conductivity)/deg	Tan(Delta)	Loss Angle(Delta)/deg	dq/mA.h	Pwe/W	Pce/W	Pwe-ce/W	<Ewe-Ece>/V	Rwe/Ohm	Rce/Ohm	Rwe-ce/Ohm		Ewe-Ece/V
1.00002e+06	1.88969	2.84832	3.41816	-56.4381	1.77355	3.88295	-0.118123	0.0558757	0.0387985	1	10	0.000195033	5.70579e-05	0	-5.19871e-05	-0.000131766	0.000178165	-68.8219	3.12253	1.12807	2.91164	-62.3491	6.50262	3.01776	5.75996	0.161735	0.243783	0.292555	56.4381	38.7985	25.7404	46.5607	-33.5619	0.0000000E+000	0.0000000E+000	0.0000000E+000	33.5619	0.0000000E+000	0.0000000E+000	0.0000000E+000	-33.5619	0.0000000E+000	0.0000000E+000	0.0000000E+000	-56.4381	0.0000000E+000	0.0000000E+000	0.0000000E+000	56.4381	0.663439	33.5619	-5.19871e-05	-0.000458665	1.55646e-08	-0.000458681	3.88308	32872.2	1.1155	32873.3
630957	0.476289	0.0821268	0.483318	-9.78333	2.94453	3.88288	-0.0861103	3.0714	0.0886827	1	9	0.000125343	0.000259338	0	-8.4409e-05	0.000250051	0.000104955	-95.0947	0.404706	-0.0359387	0.403107	-47.7762	0.655256	0.440351	0.485234	2.03894	0.351575	2.06903	9.78333	88.6827	514.31	521.9	-80.2167	0.0000000E+000	0.0000000E+000	0.0000000E+000	80.2167	0.0000000E+000	0.0000000E+000	0.0000000E+000	-80.2167	0.0000000E+000	0.0000000E+000	0.0000000E+000	-9.78333	0.0000000E+000	0.0000000E+000	0.0000000E+000	9.78333	5.79944	80.2167	-9.33436e-06	-0.000334356	-2.1532e-08	-0.000334335	3.88263	45092	2.90384	45089.1
398103	0.663913	0.0676995	0.667355	-5.82235	3.71055	3.88304	-0.0645822	5.90526	0.0607708	1	9	0.000511597	0.000766604	0	-9.95304e-05	0.000173687	4.8191e-05	168.916	0.062863	-0.0616904	-0.0120847	-5.27626	0.604785	0.602222	0.0556148	1.49072	0.15201	1.49845	5.82235	60.7709	595.965	599.055	-84.1776	0.0000000E+000	0.0000000E+000	0.0000000E+000	84.1776	0.0000000E+000	0.0000000E+000	0.0000000E+000	-84.1776	0.0000000E+000	0.0000000E+000	0.0000000E+000	-5.82235	0.0000000E+000	0.0000000E+000	0.0000000E+000	5.82235	9.80676	84.1776	-7.44255e-06	-0.000250775	-1.12171e-08	-0.000250764	3.88286	60125.5	2.6894	60122.9
251206	0.766167	0.235105	0.801427	-17.0591	4.47653	3.88295	-0.0686047	2.69481	0.231912	1	9	0.00170912	0.00213259	0	-0.000112338	0.000250051	3.24095e-05	77.6494	0.0151972	0.00325058	-0.0148455	-15.9747	0.800323	0.769417	0.22026	1.19287	0.366045	1.24777	17.0591	231.912	755.761	790.543	-72.9409	0.0000000E+000	0.0000000E+000	0.0000000E+000	72.9409	0.0000000E+000	0.0000000E+000	0.0000000E+000	-72.9409	0.0000000E+000	0.0000000E+000	0.0000000E+000	-17.0591	0.0000000E+000	0.0000000E+000	0.0000000E+000	17.0591	3.25882	72.9409	-7.91915e-06	-0.000266389	-1.71547e-08	-0.000266372	3.8827	56599	3.64481	56595.3
158486	0.8722	0.35052	0.939998	-21.8942	5.11854	3.88293	-0.0769477	2.86494	0.398371	1	9	0.00522086	0.00555412	0	-0.000124225	-0.000150857	2.66282e-05	41.367	0.00479431	0.00359809	-0.00316846	-21.6338	0.942165	0.875798	0.347352	0.987102	0.396697	1.06383	21.8942	398.371	991.267	1068.32	-68.1058	0.0000000E+000	0.0000000E+000	0.0000000E+000	68.1058	0.0000000E+000	0.0000000E+000	0.0000000E+000	-68.1058	0.0000000E+000	0.0000000E+000	0.0000000E+000	-21.8942	0.0000000E+000	0.0000000E+000	0.0000000E+000	21.8942	2.4883	68.1058	-7.69171e-07	-0.000298782	1.16081e-08	-0.000298794	3.88308	50461.9	1.96051	50463.9
100004	1.01154	0.419202	1.09497	-22.51	5.88453	3.88288	-0.0762773	3.79648	0.55645	1	9	0.00539869	0.00493047	0	-0.000149137	5.91423e-05	2.3719e-05	40.3365	0.0048107	0.00366698	-0.00311385	-22.2865	1.09717	1.01521	0.416088	0.843691	0.349641	0.913271	22.51	556.45	1342.73	1453.46	-67.49	0.0000000E+000	0.0000000E+000	0.0000000E+000	67.49	0.0000000E+000	0.0000000E+000	0.0000000E+000	-67.49	0.0000000E+000	0.0000000E+000	0.0000000E+000	-22.51	0.0000000E+000	0.0000000E+000	0.0000000E+000	22.51	2.41302	67.49	-7.07655e-06	-0.000296176	-4.51121e-09	-0.000296171	3.88282	50904.8	0.77536	50904.1
63093.8	1.17016	0.451418	1.25422	-21.0953	6.65253	3.88286	-0.0766498	5.58798	0.72388	1	9	0.00529795	0.00422411	0	-0.000177605	4.00515e-05	1.74009e-05	53.3782	0.00411942	0.00245736	-0.00330621	-20.9141	1.25533	1.17262	0.448112	0.743877	0.286968	0.79731	21.0953	723.879	1876.44	2011.22	-68.9047	0.0000000E+000	0.0000000E+000	0.0000000E+000	68.9047	0.0000000E+000	0.0000000E+000	0.0000000E+000	-68.9047	0.0000000E+000	0.0000000E+000	0.0000000E+000	-21.0953	0.0000000E+000	0.0000000E+000	0.0000000E+000	21.0953	2.5922	68.9047	-1.29889e-05	-0.00029762	-3.06994e-09	-0.000297617	3.88282	50657.2	0.522526	50656.6
39814.1	1.31515	0.453038	1.39099	-19.0076	7.41856	3.88286	-0.072143	8.82366	0.935983	1	9	0.00523432	0.003763	0	-0.000196669	1.86979e-06	5.42421e-06	22.4224	0.00144146	0.00133248	-0.000549818	-18.9684	1.39208	1.31648	0.452489	0.679712	0.234145	0.71891	19.0076	935.983	2717.12	2873.81	-70.9924	0.0000000E+000	0.0000000E+000	0.0000000E+000	70.9924	0.0000000E+000	0.0000000E+000	0.0000000E+000	-70.9924	0.0000000E+000	0.0000000E+000	0.0000000E+000	-19.0076	0.0000000E+000	0.0000000E+000	0.0000000E+000	19.0076	2.90296	70.9924	-1.52564e-05	-0.000280121	-1.34892e-10	-0.000280121	3.88286	53821.7	0.0259178	53821.6
25116.9	1.45356	0.445401	1.52027	-17.0362	8.18656	3.88286	-0.0699455	14.2267	1.22114	1	9	0.00523576	0.00344398	0	-0.000216203	-9.35844e-05	8.486e-06	21.2813	0.00246401	0.00229599	-0.000894306	-16.9787	1.5222	1.45585	0.444506	0.628916	0.192713	0.65778	17.0362	1221.14	3985.17	4168.06	-72.9638	0.0000000E+000	0.0000000E+000	0.0000000E+000	72.9638	0.0000000E+000	0.0000000E+000	0.0000000E+000	-72.9638	0.0000000E+000	0.0000000E+000	0.0000000E+000	-17.0362	0.0000000E+000	0.0000000E+000	0.0000000E+000	17.0362	3.26348	72.9638	-9.45769e-06	-0.000271588	6.54581e-09	-0.000271595	3.88295	55512.6	1.33796	55513.9
15847.7	1.57512	0.445156	1.63681	-15.7812	8.95452	3.88284	-0.0735584	22.5602	1.66866	1	9	0.00522291	0.0031909	0	-0.000234808	0.000211869	1.06424e-05	23.6616	0.00333525	0.00305486	-0.00133855	-15.7072	1.63939	1.57817	0.443817	0.587915	0.166155	0.610943	15.7812	1668.66	5904.31	6135.57	-74.2188	0.0000000E+000	0.0000000E+000	0.0000000E+000	74.2188	0.0000000E+000	0.0000000E+000	0.0000000E+000	-74.2188	0.0000000E+000	0.0000000E+000	0.0000000E+000	-15.7812	0.0000000E+000	0.0000000E+000	0.0000000E+000	15.7812	3.53835	74.2188	-6.19526e-06	-0.000285615	-1.55847e-08	-0.0002856	3.88263	52785.8	2.88028	52782.9
10002.2	1.68848	0.453555	1.74833	-15.0357	9.72252	3.88284	-0.0760539	35.0828	2.36104	1	9	0.00521854	0.00298487	0	-0.000247231	-0.000112675	1.17331e-05	1.75702	0.00393086	0.00392901	-0.000120524	-14.9986	1.7521	1.69241	0.453434	0.552391	0.148382	0.571973	15.0357	2361.04	8789.62	9101.21	-74.9643	0.0000000E+000	0.0000000E+000	0.0000000E+000	74.9643	0.0000000E+000	0.0000000E+000	0.0000000E+000	-74.9643	0.0000000E+000	0.0000000E+000	0.0000000E+000	-15.0357	0.0000000E+000	0.0000000E+000	0.0000000E+000	15.0357	3.72277	74.9643	-4.16781e-06	-0.000295305	8.56939e-09	-0.000295314	3.88296	51053.9	1.48152	51055.4
6309.38	1.80174	0.486237	1.8662	-15.1027	10.4886	3.88284	-0.0692751	51.8783	3.52182	1	9	0.00516608	0.00276824	0	-0.000268698	0.000135506	1.19794e-05	-46.6719	0.00432744	0.00296938	0.00314794	-15.1721	1.86988	1.80471	0.489385	0.517342	0.139615	0.53585	15.1027	3521.82	13050	13516.9	-74.8973	0.0000000E+000	0.0000000E+000	0.0000000E+000	74.8973	0.0000000E+000	0.0000000E+000	0.0000000E+000	-74.8973	0.0000000E+000	0.0000000E+000	0.0000000E+000	-15.1027	0.0000000E+000	0.0000000E+000	0.0000000E+000	15.1027	3.70547	74.8973	-9.34549e-06	-0.000268984	-9.38717e-09	-0.000268975	3.88271	56049.6	1.95605	56047.6
3983.6	1.92724	0.536906	2.00063	-15.5672	11.3191	3.88285	-0.0624591	74.4126	5.35932	1	9	0.00512788	0.00256313	0	-0.000281332	-5.54027e-05	1.12839e-05	45.6456	0.00440239	0.00307769	-0.00314783	-15.4568	2.00275	1.93031	0.533758	0.481507	0.134142	0.499843	15.5672	5359.32	19237.4	19970	-74.4328	0.0000000E+000	0.0000000E+000	0.0000000E+000	74.4328	0.0000000E+000	0.0000000E+000	0.0000000E+000	-74.4328	0.0000000E+000	0.0000000E+000	0.0000000E+000	-15.5672	0.0000000E+000	0.0000000E+000	0.0000000E+000	15.5672	3.58953	74.4328	-2.31039e-06	-0.000242519	3.46041e-09	-0.000242523	3.8829	62166.3	0.887024	62167.1
2510.8	2.06829	0.620736	2.15943	-16.7056	12.3208	3.88282	-0.068344	102.118	8.43793	1	9	0.00525743	0.00243464	0	-0.000304552	0.000135506	7.96832e-06	102.833	0.0032729	-0.000726937	-0.00319115	-16.63	2.15782	2.06756	0.617545	0.44354	0.133116	0.463085	16.7056	8437.93	28115.2	29354.1	-73.2944	0.0000000E+000	0.0000000E+000	0.0000000E+000	73.2944	0.0000000E+000	0.0000000E+000	0.0000000E+000	-73.2944	0.0000000E+000	0.0000000E+000	0.0000000E+000	-16.7056	0.0000000E+000	0.0000000E+000	0.0000000E+000	16.7056	3.332	73.2944	-8.51738e-06	-0.000265367	-9.261e-09	-0.000265358	3.88269	56812.9	1.9827	56810.9
1585.51	2.22481	0.735033	2.34309	-18.2825	13.2228	3.88283	-0.0693496	136.567	13.4394	1	9	0.00538415	0.00229788	0	-0.000322951	-7.44936e-05	6.36462e-06	-72.2457	0.00276977	0.000844601	0.00263786	-18.3372	2.34472	2.22566	0.737671	0.405243	0.133884	0.426787	18.2825	13439.4	40678.7	42841.3	-71.7175	0.0000000E+000	0.0000000E+000	0.0000000E+000	71.7175	0.0000000E+000	0.0000000E+000	0.0000000E+000	-71.7175	0.0000000E+000	0.0000000E+000	0.0000000E+000	-18.2825	0.0000000E+000	0.0000000E+000	0.0000000E+000	18.2825	3.02682	71.7175	-9.7177e-06	-0.000269273	5.1661e-09	-0.000269278	3.8829	55989.2	1.07417	55990.2
1000.32	2.42439	0.876826	2.57808	-19.8835	14.1248	3.88282	-0.0645077	181.454	20.9895	1	9	0.0053535	0.00207655	0	-0.000340279	0.000135506	1.11884e-05	-25.5097	0.00538799	0.00486273	0.00232042	-19.8952	2.58344	2.42925	0.879146	0.364762	0.131923	0.387886	19.8835	20989.5	58035.1	61714.1	-70.1165	0.0000000E+000	0.0000000E+000	0.0000000E+000	70.1165	0.0000000E+000	0.0000000E+000	0.0000000E+000	-70.1165	0.0000000E+000	0.0000000E+000	0.0000000E+000	-19.8835	0.0000000E+000	0.0000000E+000	0.0000000E+000	19.8835	2.76496	70.1165	-6.75345e-06	-0.000250472	-8.74116e-09	-0.000250463	3.88269	60191.6	2.10061	60189.5
631.01	2.68814	1.07122	2.89372	-21.7272	15.0276	3.88283	-0.073037	235.453	32.2664	1	9	0.00528819	0.00182747	0	-0.000355933	-7.44936e-05	8.33632e-06	-37.3776	0.00456168	0.00362495	0.00276923	-21.7516	2.89811	2.69177	1.07399	0.321025	0.127928	0.345576	21.7272	32266.4	80969.8	87162.1	-68.2728	0.0000000E+000	0.0000000E+000	0.0000000E+000	68.2728	0.0000000E+000	0.0000000E+000	0.0000000E+000	-68.2728	0.0000000E+000	0.0000000E+000	0.0000000E+000	-21.7272	0.0000000E+000	0.0000000E+000	0.0000000E+000	21.7272	2.50941	68.2728	-9.03494e-06	-0.00028359	5.44079e-09	-0.000283596	3.88291	53162.6	1.01994	53163.6
398.089	3.04596	1.27866	3.30346	-22.7721	16.1749	3.88284	-0.0887456	312.669	46.8443	1	10	0.00527132	0.0015957	0	-0.00038412	0.000345505	9.5108e-06	129.293	0.00596028	-0.00377458	-0.00461275	-22.7236	3.29819	3.04219	1.27405	0.279117	0.11717	0.302713	22.7721	46844.3	111590	121024	-67.2279	0.0000000E+000	0.0000000E+000	0.0000000E+000	67.2279	0.0000000E+000	0.0000000E+000	0.0000000E+000	-67.2279	0.0000000E+000	0.0000000E+000	0.0000000E+000	-22.7721	0.0000000E+000	0.0000000E+000	0.0000000E+000	22.7721	2.38215	67.2279	-1.19264e-05	-0.000344585	-3.06621e-08	-0.000344554	3.88249	43752.4	3.89321	43748.5
251.044	3.53607	1.4413	3.81853	-22.1758	17.073	3.88283	-0.0879931	439.861	62.666	1	10	0.00521524	0.00136577	0	-0.000406454	0.000116415	8.72064e-06	-78.6491	0.00638514	0.0012567	0.00626025	-22.2556	3.82206	3.53733	1.44756	0.24251	0.0988468	0.261881	22.1758	62666	153744	166025	-67.8242	0.0000000E+000	0.0000000E+000	0.0000000E+000	67.8242	0.0000000E+000	0.0000000E+000	0.0000000E+000	-67.8242	0.0000000E+000	0.0000000E+000	0.0000000E+000	-22.1758	0.0000000E+000	0.0000000E+000	0.0000000E+000	22.1758	2.45339	67.8242	-1.18143e-05	-0.000341662	-1.02437e-08	-0.000341652	3.88271	44126.5	1.323	44125.2
158.428	4.11688	1.47447	4.37296	-19.7051	17.9798	3.88284	-0.0861491	681.32	77.4591	1	10	0.00519247	0.0011874	0	-0.000429948	2.09606e-05	1.27429e-05	-81.4199	0.0107317	0.00160109	0.0106116	-19.8288	4.37805	4.11848	1.48508	0.215287	0.0771055	0.228678	19.7051	77459.1	216274	229727	-70.2949	0.0000000E+000	0.0000000E+000	0.0000000E+000	70.2949	0.0000000E+000	0.0000000E+000	0.0000000E+000	-70.2949	0.0000000E+000	0.0000000E+000	0.0000000E+000	-19.7051	0.0000000E+000	0.0000000E+000	0.0000000E+000	19.7051	2.79211	70.2949	-1.14919e-05	-0.000334503	-1.80574e-09	-0.000334501	3.88282	45071.1	0.243306	45070.9
100.032	4.6666	1.34509	4.85659	-16.0789	18.8788	3.88283	-0.0858288	1182.85	90.7336	1	10	0.00517283	0.00106512	0	-0.000450523	-0.000150857	9.09405e-06	-62.4991	0.00853808	0.00394257	0.00757331	-16.1518	4.86248	4.67055	1.35266	0.197851	0.0570279	0.205906	16.0789	90733.6	314789	327604	-73.9211	0.0000000E+000	0.0000000E+000	0.0000000E+000	73.9211	0.0000000E+000	0.0000000E+000	0.0000000E+000	-73.9211	0.0000000E+000	0.0000000E+000	0.0000000E+000	-16.0789	0.0000000E+000	0.0000000E+000	0.0000000E+000	16.0789	3.46938	73.9211	-9.44174e-06	-0.000333259	1.29479e-08	-0.000333272	3.88298	45239.3	1.75765	45241.1
63.0823	5.09584	1.095	5.21216	-12.1274	19.7949	3.88284	-0.0835787	2304.08	101.693	1	10	0.00515862	0.000989727	0	-0.00047238	9.7324e-05	8.59505e-06	73.2858	0.00868426	0.00249758	-0.00831736	-12.0322	5.21287	5.09834	1.08668	0.187577	0.0403069	0.191859	12.1274	101693	473252	484055	-77.8726	0.0000000E+000	0.0000000E+000	0.0000000E+000	77.8726	0.0000000E+000	0.0000000E+000	0.0000000E+000	-77.8726	0.0000000E+000	0.0000000E+000	0.0000000E+000	-12.1274	0.0000000E+000	0.0000000E+000	0.0000000E+000	12.1274	4.65373	77.8726	-1.00958e-05	-0.000324523	-8.13422e-09	-0.000324515	3.88274	46457.3	1.16446	46456.1
39.8089	5.38025	0.83016	5.44392	-8.77142	20.6958	3.88283	-0.0833105	4815.91	111.99	1	10	0.00516236	0.00094828	0	-0.000493787	0.000116415	7.73819e-06	-135.723	0.00816023	-0.00584254	0.00569685	-8.84012	5.43902	5.37441	0.835856	0.181543	0.0280116	0.183691	8.77142	111990	725803	734392	-81.2286	0.0000000E+000	0.0000000E+000	0.0000000E+000	81.2286	0.0000000E+000	0.0000000E+000	0.0000000E+000	-81.2286	0.0000000E+000	0.0000000E+000	0.0000000E+000	-8.77142	0.0000000E+000	0.0000000E+000	0.0000000E+000	8.77142	6.48099	81.2286	-1.08947e-05	-0.000323481	-9.69858e-09	-0.000323471	3.88272	46606.7	1.39736	46605.3
25.1044	5.53558	0.611346	5.56924	-6.30217	21.5751	3.88283	-0.0837464	10370.1	124.958	1	10	0.00515005	0.000924731	0	-0.000515017	0.000154597	1.11517e-05	87.0035	0.0120594	0.000630407	-0.0120429	-6.17829	5.56855	5.53621	0.599303	0.178473	0.0197104	0.179558	6.30217	124958	1.13147e+06	1.13835e+06	-83.6978	0.0000000E+000	0.0000000E+000	0.0000000E+000	83.6978	0.0000000E+000	0.0000000E+000	0.0000000E+000	-83.6978	0.0000000E+000	0.0000000E+000	0.0000000E+000	-6.30217	0.0000000E+000	0.0000000E+000	0.0000000E+000	6.30217	9.05475	83.6978	-9.17384e-06	-0.000325173	-1.29469e-08	-0.00032516	3.88268	46364.1	1.84601	46362.3
15.8576	5.63295	0.425407	5.64899	-4.31884	22.453	3.88282	-0.0843387	23592.8	133.797	1	10	0.00514622	0.000910999	0	-0.000539607	0.000116415	1.64836e-05	-64.3884	0.018094	0.00782147	0.0163162	-4.47763	5.65804	5.64077	0.441723	0.17652	0.013331	0.177023	4.31884	133797	1.77165e+06	1.77669e+06	-85.6812	0.0000000E+000	0.0000000E+000	0.0000000E+000	85.6812	0.0000000E+000	0.0000000E+000	0.0000000E+000	-85.6812	0.0000000E+000	0.0000000E+000	0.0000000E+000	-4.31884	0.0000000E+000	0.0000000E+000	0.0000000E+000	4.31884	13.2413	85.6812	-1.34131e-05	-0.000327472	-9.81828e-09	-0.000327462	3.8827	46038.4	1.38033	46037
10.0032	5.70202	0.332303	5.71169	-3.33531	23.4349	3.88283	-0.081053	47879.2	162.063	1	10	0.00515903	0.00090324	0	-0.000556601	5.91423e-05	9.52593e-06	32.046	0.0105464	0.00893936	-0.00559593	-3.27415	5.7203	5.71096	0.326707	0.174783	0.010186	0.175079	3.33531	162063	2.78086e+06	2.78558e+06	-86.6647	0.0000000E+000	0.0000000E+000	0.0000000E+000	86.6647	0.0000000E+000	0.0000000E+000	0.0000000E+000	-86.6647	0.0000000E+000	0.0000000E+000	0.0000000E+000	-3.33531	0.0000000E+000	0.0000000E+000	0.0000000E+000	3.33531	17.1591	86.6647	-2.68865e-06	-0.000314715	-4.79367e-09	-0.00031471	3.88277	47904.8	0.729674	47904.1
6.31058	5.74549	0.264472	5.75158	-2.63554	24.3593	3.88284	-0.082219	95361	201.631	1	10	0.0051531	0.000895945	0	-0.000580665	0.000154597	2.83397e-06	-4.30676	0.0031631	0.00315417	0.000237537	-2.63645	5.75474	5.74865	0.26471	0.173681	0.00799478	0.173865	2.63554	201631	4.3803e+06	4.38494e+06	-87.3645	0.0000000E+000	0.0000000E+000	0.0000000E+000	87.3645	0.0000000E+000	0.0000000E+000	0.0000000E+000	-87.3645	0.0000000E+000	0.0000000E+000	0.0000000E+000	-2.63554	0.0000000E+000	0.0000000E+000	0.0000000E+000	2.63554	21.7244	87.3645	-3.68093e-06	-0.000319244	-1.27108e-08	-0.000319231	3.88269	47225.6	1.8803	47223.7
3.97785	5.78485	0.245751	5.79007	-2.43256	25.3664	3.88283	-0.0757483	162808	293.291	1	10	0.00516339	0.000891768	0	-0.000603109	0.000173687	3.67619e-05	-33.9266	0.0412236	0.0342054	0.0230081	-2.64438	5.82526	5.81905	0.268759	0.172554	0.0073304	0.17271	2.43256	293291	6.90393e+06	6.91016e+06	-87.5674	0.0000000E+000	0.0000000E+000	0.0000000E+000	87.5674	0.0000000E+000	0.0000000E+000	0.0000000E+000	-87.5674	0.0000000E+000	0.0000000E+000	0.0000000E+000	-2.43256	0.0000000E+000	0.0000000E+000	0.0000000E+000	2.43256	23.5395	87.5674	-1.92542e-05	-0.000294118	-1.31565e-08	-0.000294105	3.88266	51259.6	2.29295	51257.3
2.51367	5.81587	0.242166	5.82091	-2.38435	27.368	3.88286	-0.0748395	261456	452.525	1	11	0.00515551	0.000885689	0	-0.000647761	0.000250051	2.95295e-06	-157.532	0.00333408	-0.003081	0.00127418	-2.39815	5.81788	5.81279	0.24344	0.171646	0.00714713	0.171794	2.38435	452525	1.08679e+07	1.08773e+07	-87.6156	0.0000000E+000	0.0000000E+000	0.0000000E+000	87.6156	0.0000000E+000	0.0000000E+000	0.0000000E+000	-87.6156	0.0000000E+000	0.0000000E+000	0.0000000E+000	-2.38435	0.0000000E+000	0.0000000E+000	0.0000000E+000	2.38435	24.016	87.6156	-1.98378e-05	-0.000290591	-1.87137e-08	-0.000290572	3.88261	51882.5	3.34116	51879.1
1.58469	5.86155	0.270497	5.86779	-2.6422	29.8036	3.88285	-0.0719162	371291	789.026	1	11	0.00515347	0.000878264	0	-0.000678394	-0.000169948	2.6173e-06	30.1678	0.00298008	0.00257645	-0.00149759	-2.62644	5.87029	5.86413	0.269	0.170241	0.00785623	0.170422	2.6422	789026	1.70978e+07	1.7116e+07	-87.3578	0.0000000E+000	0.0000000E+000	0.0000000E+000	87.3578	0.0000000E+000	0.0000000E+000	0.0000000E+000	-87.3578	0.0000000E+000	0.0000000E+000	0.0000000E+000	-2.6422	0.0000000E+000	0.0000000E+000	0.0000000E+000	2.6422	21.6695	87.3578	-2.38707e-05	-0.00027924	1.2222e-08	-0.000279252	3.88302	53991.4	2.36314	53993.8
1.00469	5.92887	0.297104	5.93631	-2.86877	240.623	3.88282	-0.0501566	533185	1335.55	1	11	0.00497975	0.000838863	0	-0.00714527	0.000135506	3.43039e-07	33.395	0.000408934	0.000341417	-0.00022508	-2.86644	5.93664	5.92921	0.296879	0.168244	0.00843093	0.168455	2.86877	1.33556e+06	2.66517e+07	2.66852e+07	-87.1312	0.0000000E+000	0.0000000E+000	0.0000000E+000	87.1312	0.0000000E+000	0.0000000E+000	0.0000000E+000	-87.1312	0.0000000E+000	0.0000000E+000	0.0000000E+000	-2.86877	0.0000000E+000	0.0000000E+000	0.0000000E+000	2.86877	19.9555	87.1312	-0.00641777	-0.000194749	-6.7965e-09	-0.000194742	3.88268	77413.9	2.70165	77411.2
0.632957	5.99542	0.374241	6.00709	-3.57183	240.625	3.88282	-0.0501566	671885	2607.76	1	11	0.00499209	0.000831033	0	-0.00714527	0.000135506	1.82004e-07	-44.2902	0.000219009	0.000156769	0.000152932	-3.57319	6.00726	5.99558	0.374394	0.166146	0.010371	0.16647	3.57183	2.60776e+06	4.1777e+07	4.18583e+07	-86.4282	0.0000000E+000	0.0000000E+000	0.0000000E+000	86.4282	0.0000000E+000	0.0000000E+000	0.0000000E+000	-86.4282	0.0000000E+000	0.0000000E+000	0.0000000E+000	-3.57183	0.0000000E+000	0.0000000E+000	0.0000000E+000	3.57183	16.0202	86.4282	0.000000000000000E+000	-0.000194749	-6.7965e-09	-0.000194742	3.88268	77413.9	2.70165	77411.2
0.401878	6.06664	0.470609	6.08486	-4.43574	240.626	3.88282	-0.0501566	841523	5033.68	1	11	0.00500556	0.000822626	0	-0.00714527	0.000135506	2.15287e-07	21.9795	0.000261707	0.000242686	-9.79503e-05	-4.43465	6.0851	6.06688	0.470512	0.16385	0.0127104	0.164342	4.43574	5.03368e+06	6.48893e+07	6.50842e+07	-85.5643	0.0000000E+000	0.0000000E+000	0.0000000E+000	85.5643	0.0000000E+000	0.0000000E+000	0.0000000E+000	-85.5643	0.0000000E+000	0.0000000E+000	0.0000000E+000	-4.43574	0.0000000E+000	0.0000000E+000	0.0000000E+000	4.43574	12.891	85.5643	0.000000000000000E+000	-0.000194749	-6.7965e-09	-0.000194742	3.88268	77413.9	2.70165	77411.2
0.251173	6.18636	0.624361	6.21778	-5.76309	240.627	3.88282	-0.0501566	1.01487e+06	10233.2	1	11	0.00500638	0.000805171	0	-0.00714527	0.000135506	3.93234e-07	89.2925	0.000488386	6.03051e-06	-0.000488349	-5.7586	6.21774	6.18636	0.623872	0.160016	0.0161497	0.160829	5.76309	1.02332e+07	1.01394e+08	1.01909e+08	-84.2369	0.0000000E+000	0.0000000E+000	0.0000000E+000	84.2369	0.0000000E+000	0.0000000E+000	0.0000000E+000	-84.2369	0.0000000E+000	0.0000000E+000	0.0000000E+000	-5.76309	0.0000000E+000	0.0000000E+000	0.0000000E+000	5.76309	9.9083	84.2369	0.000000000000000E+000	-0.000194749	-6.7965e-09	-0.000194742	3.88268	77413.9	2.70165	77411.2
0.160751	6.36238	0.724506	6.4035	-6.49648	240.629	3.88282	-0.0501566	1.36655e+06	17493.4	1	11	0.00500135	0.000781034	0	-0.00714527	0.000135506	4.39258e-07	10.1573	0.000562406	0.000553592	-9.91812e-05	-6.49503	6.40404	6.36294	0.724406	0.155162	0.0176688	0.156165	6.49648	1.74934e+07	1.53621e+08	1.54614e+08	-83.5035	0.0000000E+000	0.0000000E+000	0.0000000E+000	83.5035	0.0000000E+000	0.0000000E+000	0.0000000E+000	-83.5035	0.0000000E+000	0.0000000E+000	0.0000000E+000	-6.49648	0.0000000E+000	0.0000000E+000	0.0000000E+000	6.49648	8.78169	83.5035	0.000000000000000E+000	-0.000194749	-6.7965e-09	-0.000194742	3.88268	77413.9	2.70165	77411.2
0.100469	6.51618	1.00014	6.59248	-8.72602	240.63	3.88282	-0.0501566	1.58389e+06	36454.4	1	11	0.00500442	0.00075911	0	-0.00714527	0.000135506	5.29411e-07	1.81577	0.000697411	0.000697061	-2.20981e-05	-8.72491	6.59317	6.51687	1.00012	0.149932	0.0230125	0.151688	8.72602	3.64544e+07	2.3751e+08	2.40291e+08	-81.274	0.0000000E+000	0.0000000E+000	0.0000000E+000	81.274	0.0000000E+000	0.0000000E+000	0.0000000E+000	-81.274	0.0000000E+000	0.0000000E+000	0.0000000E+000	-8.72602	0.0000000E+000	0.0000000E+000	0.0000000E+000	8.72602	6.51524	81.274	0.000000000000000E+000	-0.000194749	-6.7965e-09	-0.000194742	3.88268	77413.9	2.70165	77411.2
0.0602816	6.82337	1.2301	6.93336	-10.2194	240.631	3.88282	-0.0501566	2.14632e+06	67559.6	1	11	0.00499939	0.000721062	0	-0.00714527	0.000135506	4.78649e-07	-50.3875	0.00066381	0.00042324	0.000511383	-10.2229	6.93387	6.8238	1.23061	0.141942	0.0255889	0.14423	10.2194	6.75596e+07	3.74754e+08	3.80795e+08	-79.7806	0.0000000E+000	0.0000000E+000	0.0000000E+000	79.7806	0.0000000E+000	0.0000000E+000	0.0000000E+000	-79.7806	0.0000000E+000	0.0000000E+000	0.0000000E+000	-10.2194	0.0000000E+000	0.0000000E+000	0.0000000E+000	10.2194	5.54701	79.7806	0.000000000000000E+000	-0.000194749	-6.7965e-09	-0.000194742	3.88268	77413.9	2.70165	77411.2
0.0401878	7.17914	1.49949	7.33407	-11.7976	240.633	3.88282	-0.0501566	2.64109e+06	110403	1	11	0.0049998	0.000681722	0	-0.00714527	0.000135506	2.38493e-07	-34.9331	0.000349839	0.000286805	0.000200325	-11.7987	7.33439	7.17943	1.49969	0.13347	0.0278774	0.13635	11.7976	1.10403e+08	5.28578e+08	5.39985e+08	-78.2024	0.0000000E+000	0.0000000E+000	0.0000000E+000	78.2024	0.0000000E+000	0.0000000E+000	0.0000000E+000	-78.2024	0.0000000E+000	0.0000000E+000	0.0000000E+000	-11.7976	0.0000000E+000	0.0000000E+000	0.0000000E+000	11.7976	4.78773	78.2024	0.000000000000000E+000	-0.000194749	-6.7965e-09	-0.000194742	3.88268	77413.9	2.70165	77411.2
0.0200939	8.04744	2.26524	8.36018	-15.7212	240.634	3.88282	-0.0501566	3.49657e+06	256708	1	11	0.00500024	0.000598102	0	-0.00714527	0.000135506	7.71727e-07	-34.4666	0.00129029	0.00106379	0.000730211	-15.724	8.3614	8.0485	2.26597	0.11514	0.0324103	0.119615	15.7212	2.56708e+08	9.11975e+08	9.47416e+08	-74.2788	0.0000000E+000	0.0000000E+000	0.0000000E+000	74.2788	0.0000000E+000	0.0000000E+000	0.0000000E+000	-74.2788	0.0000000E+000	0.0000000E+000	0.0000000E+000	-15.7212	0.0000000E+000	0.0000000E+000	0.0000000E+000	15.7212	3.55258	74.2788	0.000000000000000E+000	-0.000194749	-6.7965e-09	-0.000194742	3.88268	77413.9	2.70165	77411.2
0.00796479	8.87034	2.53385	9.22515	-15.9422	20329.6	3.88287	-0.000757868	7.88614e+06	594950	1	11	0.00499432	0.00054138	0	-0.0692563	0.000326414	2.31232e-07	-83.0134	0.000427116	5.19535e-05	0.000423945	-15.9447	9.22532	8.87039	2.53428	0.10423	0.0297738	0.108399	15.9422	5.9495e+08	2.08276e+09	2.16607e+09	-74.0578	0.0000000E+000	0.0000000E+000	0.0000000E+000	74.0578	0.0000000E+000	0.0000000E+000	0.0000000E+000	-74.0578	0.0000000E+000	0.0000000E+000	0.0000000E+000	-15.9422	0.0000000E+000	0.0000000E+000	0.0000000E+000	15.9422	3.50073	74.0578	-0.0621111	-2.9427e-06	-2.47379e-10	-2.94246e-06	3.88255	5.12342e+06	430.701	5.12299e+06
0.00497799	9.63901	2.62695	9.99057	-15.2448	20329.6	3.88287	-0.000757868	1.21707e+07	841468	1	11	0.00500199	0.000500671	0	-0.0692563	0.000326414	3.43252e-07	-94.3052	0.000685584	-5.14666e-05	0.00068365	-15.2486	9.9907	9.63896	2.62763	0.0965722	0.0263191	0.100094	15.2448	8.41468e+08	3.08758e+09	3.20019e+09	-74.7552	0.0000000E+000	0.0000000E+000	0.0000000E+000	74.7552	0.0000000E+000	0.0000000E+000	0.0000000E+000	-74.7552	0.0000000E+000	0.0000000E+000	0.0000000E+000	-15.2448	0.0000000E+000	0.0000000E+000	0.0000000E+000	15.2448	3.66928	74.7552	0.000000000000000E+000	-2.9427e-06	-2.47379e-10	-2.94246e-06	3.88255	5.12342e+06	430.701	5.12299e+06
0.00318591	10.1579	3.42578	10.7201	-18.6368	20329.6	3.88287	-0.000757868	1.45823e+07	1.48919e+06	1	11	0.0050049	0.000466872	0	-0.0692563	0.000326414	2.04978e-07	52.027	0.000439046	0.00027014	-0.0003461	-18.6346	10.7202	10.1582	3.42544	0.0883916	0.0298102	0.093283	18.6368	1.48919e+09	4.41567e+09	4.66003e+09	-71.3632	0.0000000E+000	0.0000000E+000	0.0000000E+000	71.3632	0.0000000E+000	0.0000000E+000	0.0000000E+000	-71.3632	0.0000000E+000	0.0000000E+000	0.0000000E+000	-18.6368	0.0000000E+000	0.0000000E+000	0.0000000E+000	18.6368	2.96514	71.3632	0.000000000000000E+000	-2.9427e-06	-2.47379e-10	-2.94246e-06	3.88255	5.12342e+06	430.701	5.12299e+06
0.0019912	10.5617	4.17188	11.3558	-21.554	20329.6	3.88287	-0.000757868	1.9159e+07	2.58583e+06	1	11	0.00500581	0.000440814	0	-0.0692563	0.000326414	9.43591e-07	-50.9227	0.00214057	0.00134935	0.00166171	-21.5593	11.3577	10.5631	4.17355	0.0819025	0.0323515	0.0880605	21.554	2.58583e+09	6.54641e+09	7.03861e+09	-68.446	0.0000000E+000	0.0000000E+000	0.0000000E+000	68.446	0.0000000E+000	0.0000000E+000	0.0000000E+000	-68.446	0.0000000E+000	0.0000000E+000	0.0000000E+000	-21.554	0.0000000E+000	0.0000000E+000	0.0000000E+000	21.554	2.53165	68.446	0.000000000000000E+000	-2.9427e-06	-2.47379e-10	-2.94246e-06	3.88255	5.12342e+06	430.701	5.12299e+06
0.00129428	10.2529	5.42301	11.5988	-27.8754	20329.6	3.88287	-0.000757868	2.26752e+07	4.95688e+06	1	11	0.00501106	0.000432034	0	-0.0692563	0.000326414	9.65056e-07	-139.172	0.00223375	-0.00169022	0.00146041	-27.8857	11.598	10.2512	5.42447	0.076212	0.0403103	0.0862159	27.8754	4.95688e+09	9.37165e+09	1.06018e+10	-62.1246	0.0000000E+000	0.0000000E+000	0.0000000E+000	62.1246	0.0000000E+000	0.0000000E+000	0.0000000E+000	-62.1246	0.0000000E+000	0.0000000E+000	0.0000000E+000	-27.8754	0.0000000E+000	0.0000000E+000	0.0000000E+000	27.8754	1.89063	62.1246	0.000000000000000E+000	-2.9427e-06	-2.47379e-10	-2.94246e-06	3.88255	5.12342e+06	430.701	5.12299e+06
0.000796479	11.3775	7.98264	13.8986	-35.0541	20329.6	3.88287	-0.000757868	2.50322e+07	8.25759e+06	1	11	0.00500205	0.000359897	0	-0.0692563	0.000326414	1.45548e-06	-36.4179	0.00404416	0.00325437	0.0024009	-35.0545	13.9026	11.3807	7.98504	0.0588989	0.0413245	0.0719499	35.0541	8.25759e+09	1.17694e+10	1.43773e+10	-54.9459	0.0000000E+000	0.0000000E+000	0.0000000E+000	54.9459	0.0000000E+000	0.0000000E+000	0.0000000E+000	-54.9459	0.0000000E+000	0.0000000E+000	0.0000000E+000	-35.0541	0.0000000E+000	0.0000000E+000	0.0000000E+000	35.0541	1.42528	54.9459	0.000000000000000E+000	-2.9427e-06	-2.47379e-10	-2.94246e-06	3.88255	5.12342e+06	430.701	5.12299e+06
0.000497799	11.1573	11.2015	15.8101	-45.1132	20329.6	3.88287	-0.000757868	2.85424e+07	1.43276e+07	1	11	0.00501082	0.000316938	0	-0.0692563	0.000326414	1.73488e-06	95.0406	0.0054739	-0.000480945	-0.00545273	-45.1005	15.8059	11.1568	11.196	0.0446366	0.0448133	0.0632507	45.1132	1.43276e+10	1.42711e+10	2.02223e+10	-44.8868	0.0000000E+000	0.0000000E+000	0.0000000E+000	44.8868	0.0000000E+000	0.0000000E+000	0.0000000E+000	-44.8868	0.0000000E+000	0.0000000E+000	0.0000000E+000	-45.1132	0.0000000E+000	0.0000000E+000	0.0000000E+000	45.1132	0.996057	44.8868	0.000000000000000E+000	-2.9427e-06	-2.47379e-10	-2.94246e-06	3.88255	5.12342e+06	430.701	5.12299e+06
0.000298679	10.2407	17.5719	20.3383	-59.7668	20329.6	3.88287	-0.000757868	3.03246e+07	2.26363e+07	1	11	0.00501578	0.000246618	0	-0.0692563	0.000326414	2.64093e-06	100.755	0.0107086	-0.00199825	-0.0105205	-59.7567	20.3282	10.2387	17.5614	0.0247573	0.0424806	0.0491684	59.7668	2.26363e+10	1.31922e+10	2.61999e+10	-30.2332	0.0000000E+000	0.0000000E+000	0.0000000E+000	30.2332	0.0000000E+000	0.0000000E+000	0.0000000E+000	-30.2332	0.0000000E+000	0.0000000E+000	0.0000000E+000	-59.7668	0.0000000E+000	0.0000000E+000	0.0000000E+000	59.7668	0.58279	30.2332	0.000000000000000E+000	-2.9427e-06	-2.47379e-10	-2.94246e-06	3.88255	5.12342e+06	430.701	5.12299e+06
9.95598e-05	7.57804	79.8847	80.2433	-84.581	20329.6	3.88287	-0.000757868	2.00112e+07	1.98327e+07	1	11	0.00500362	6.23556e-05	0	-0.0692563	0.000326414	3.95592e-06	-67.1216	0.0634413	0.0246645	0.0584505	-84.5674	80.3039	7.6027	79.9432	0.0011769	0.0124064	0.0124621	84.581	1.98327e+10	1.88137e+09	1.99217e+10	-5.41899	0.0000000E+000	0.0000000E+000	0.0000000E+000	5.41899	0.0000000E+000	0.0000000E+000	0.0000000E+000	-5.41899	0.0000000E+000	0.0000000E+000	0.0000000E+000	-84.581	0.0000000E+000	0.0000000E+000	0.0000000E+000	84.581	0.0948622	5.41899	0.000000000000000E+000	-2.9427e-06	-2.47379e-10	-2.94246e-06	3.88255	5.12342e+06	430.701	5.12299e+06