File: txt/19319_R313_UC98_SOC50_C03.mpt
EC-Lab ASCII FILE
Nb header lines : 65

Potentio Electrochemical Impedance Spectroscopy

Run on channel : 3 (SN 65921)
User :
CE vs. WE compliance from -10 V to 10 V
Electrode connection : standard
Potential control : Ewe
Ewe ctrl range : min = -10.00 V, max = 10.00 V
Safety Limits :
	Do not start on E overload
Acquisition started on : 11/18/2025 16:32:29.919
Technique started on : 11/18/2025 16:32:32.154
Loaded Setting File :  C:\Users\Celltest\OneDrive - store-dot.com\Documents\EC-Lab\Data\txt_done\19191_R297_UC94_SOC50_C08.mpr
Saved on :
	File : 19319_R313_UC98_SOC50_C03.mpr
	Directory : C:\Users\Celltest\OneDrive - store-dot.com\Documents\EC-Lab\Data\Michael\
	Host : 169.254.61.224
Device : VMP-3e (SN .003165)
Address : USB
EC-LAB for windows v11.62 (software)
Internet server v27.00 (firmware)
Command interpretor v12.03 (firmware)
Electrode material :
Initial state :
Electrolyte :
Comments :
Electrode surface area : 0.001 cm²
Characteristic mass : 0.001 g
Equivalent Weight : 0.000 g/eq.
Density : 0.000 g/cm3
Volume (V) : 0.001 cm³
Record Ece
Cycle Definition : Charge/Discharge alternance
Mode                Multi sine
E (V)               0.0000
vs.                 Eoc
tE (h:m:s)          0:00:0.0000
record              0
dI                  0.000
unit dI             mA
dt (s)              0.000
fi                  1.000
unit fi             MHz
ff                  0.100
unit ff             mHz
Nd                  10
Points              per decade
spacing             Logarithmic
Va (mV)             5.0
pw                  0.10
Na                  2
corr                0
E range min (V)     -10.000
E range max (V)     10.000
I Range             Auto
Bandwidth           5
nc cycles           0
goto Ns'            0
nr cycles           0
inc. cycle          0

freq/Hz	Re(Z)/Ohm	-Im(Z)/Ohm	|Z|/Ohm	Phase(Z)/deg	time/s	<Ewe>/V	<I>/mA	Cs/µF	Cp/µF	cycle number	I Range	|Ewe|/V	|I|/A	Ns	(Q-Qo)/mA.h	<Ece>/V	|Ece|/V	Phase(Zce)/deg	|Zce|/Ohm	Re(Zce)/Ohm	-Im(Zce)/Ohm	Phase(Zwe-ce)/deg	|Zwe-ce|/Ohm	Re(Zwe-ce)/Ohm	-Im(Zwe-ce)/Ohm	Re(Y)/Ohm-1	Im(Y)/Ohm-1	|Y|/Ohm-1	Phase(Y)/deg	Re(C)/nF	Im(C)/nF	|C|/nF	Phase(C)/deg	Re(M)	Im(M)	|M|	Phase(M)/deg	Re(Permittivity)	Im(Permittivity)	|Permittivity|	Phase(Permittivity)/deg	Re(Resistivity)/Ohm.cm	Im(Resistivity)/Ohm.cm	|Resistivity|/Ohm.cm	Phase(Resistivity)/deg	Re(Conductivity)/mS/cm	Im(Conductivity)/mS/cm	|Conductivity|/mS/cm	Phase(Conductivity)/deg	Tan(Delta)	Loss Angle(Delta)/deg	dq/mA.h	Pwe/W	Pce/W	Pwe-ce/W	<Ewe-Ece>/V	Rwe/Ohm	Rce/Ohm	Rwe-ce/Ohm		Ewe-Ece/V
1.00002e+06	0.986054	-0.217418	1.00974	12.4343	2.23455	3.88461	0.0416877	-0.73201	-0.0339382	1	9	0.000222313	0.000220169	0	-2.64876e-05	0.000231434	0.000202562	3.90295	0.920032	0.917898	-0.0626235	8.36731	1.92444	1.90395	-0.280041	0.967125	-0.213244	0.990355	-12.4343	-33.9382	153.92	157.617	-102.434	0.0000000E+000	0.0000000E+000	0.0000000E+000	102.434	0.0000000E+000	0.0000000E+000	0.0000000E+000	-102.434	0.0000000E+000	0.0000000E+000	0.0000000E+000	12.4343	0.0000000E+000	0.0000000E+000	0.0000000E+000	-12.4343	4.53529	77.5657	-2.64876e-05	0.00016194	9.64797e-09	0.000161931	3.88437	93183.4	5.55161	93177.8
630957	0.41812	0.191484	0.459881	-24.6061	3.00154	3.88422	-0.0217486	1.31731	0.228382	1	9	0.00015897	0.000345676	0	-3.17956e-05	-0.000284106	0.000121147	-104.544	0.350462	-0.0880081	0.339232	-58.1179	0.625007	0.330111	0.530716	1.97702	0.905403	2.17448	24.6061	228.382	498.69	548.499	-65.3939	0.0000000E+000	0.0000000E+000	0.0000000E+000	65.3939	0.0000000E+000	0.0000000E+000	0.0000000E+000	-65.3939	0.0000000E+000	0.0000000E+000	0.0000000E+000	-24.6061	0.0000000E+000	0.0000000E+000	0.0000000E+000	24.6061	2.18358	65.3939	-2.62729e-06	-8.44765e-05	6.1789e-09	-8.44827e-05	3.88451	178596	13.0632	178609
398103	0.610465	0.130052	0.624164	-12.0264	3.76756	3.8843	-0.00123714	3.07402	0.133458	1	9	0.000599544	0.000960554	0	-3.57763e-05	2.13995e-05	5.42052e-05	164.788	0.0564312	-0.0544538	-0.0148075	-11.7099	0.567829	0.556011	0.115245	1.56698	0.333826	1.60214	12.0264	133.458	626.451	640.509	-77.9736	0.0000000E+000	0.0000000E+000	0.0000000E+000	77.9736	0.0000000E+000	0.0000000E+000	0.0000000E+000	-77.9736	0.0000000E+000	0.0000000E+000	0.0000000E+000	-12.0264	0.0000000E+000	0.0000000E+000	0.0000000E+000	12.0264	4.694	77.9736	-1.31542e-06	-4.80543e-06	-2.64742e-11	-4.8054e-06	3.88428	3.13974e+06	17.2976	3.13972e+06
251206	0.749713	0.260706	0.793749	-19.1747	4.53352	3.88419	-0.0229792	2.43018	0.262165	1	9	0.00203392	0.00256242	0	-3.99292e-05	-0.000284106	5.08975e-05	94.84	0.0198631	-0.00167592	-0.0197923	-17.8517	0.785875	0.748037	0.240914	1.18995	0.413794	1.25984	19.1747	262.165	753.908	798.19	-70.8253	0.0000000E+000	0.0000000E+000	0.0000000E+000	70.8253	0.0000000E+000	0.0000000E+000	0.0000000E+000	-70.8253	0.0000000E+000	0.0000000E+000	0.0000000E+000	-19.1747	0.0000000E+000	0.0000000E+000	0.0000000E+000	19.1747	2.8757	70.8253	-7.11682e-07	-8.92556e-05	6.52853e-09	-8.92621e-05	3.88447	169030	12.3636	169043
158486	0.873465	0.360005	0.944746	-22.3994	5.30152	3.88415	-0.0220468	2.78946	0.405049	1	9	0.00510402	0.00540253	0	-5.66667e-05	4.04936e-05	5.78838e-05	90.929	0.0107142	-0.000173713	-0.0107128	-21.8001	0.940554	0.873291	0.349292	0.978623	0.403347	1.05849	22.3994	405.049	982.753	1062.95	-67.6006	0.0000000E+000	0.0000000E+000	0.0000000E+000	67.6006	0.0000000E+000	0.0000000E+000	0.0000000E+000	-67.6006	0.0000000E+000	0.0000000E+000	0.0000000E+000	-22.3994	0.0000000E+000	0.0000000E+000	0.0000000E+000	22.3994	2.42626	67.6006	-1.58135e-05	-8.56331e-05	-8.92756e-10	-8.56322e-05	3.88411	176177	1.83671	176175
100004	1.02065	0.409157	1.09961	-21.8448	6.06752	3.88411	-0.0197346	3.88968	0.538539	1	9	0.00533576	0.00485241	0	-3.50191e-05	-0.000131353	4.52e-05	84.4455	0.00931494	0.000901614	-0.00927121	-21.3778	1.09703	1.02155	0.399886	0.844114	0.338387	0.909414	21.8448	538.539	1343.4	1447.32	-68.1552	0.0000000E+000	0.0000000E+000	0.0000000E+000	68.1552	0.0000000E+000	0.0000000E+000	0.0000000E+000	-68.1552	0.0000000E+000	0.0000000E+000	0.0000000E+000	-21.8448	0.0000000E+000	0.0000000E+000	0.0000000E+000	21.8448	2.49452	68.1552	1.57641e-05	-7.66515e-05	2.5922e-09	-7.66541e-05	3.88424	196817	6.65596	196823
63093.8	1.17291	0.429167	1.24896	-20.0975	6.83553	3.88411	-0.0249558	5.8777	0.694002	1	9	0.00532028	0.00425976	0	-5.43376e-05	-9.31649e-05	2.53297e-05	80.58	0.00594627	0.000973228	-0.00586609	-19.8292	1.24787	1.17389	0.423301	0.751912	0.275124	0.800665	20.0975	694.002	1896.71	2019.69	-69.9025	0.0000000E+000	0.0000000E+000	0.0000000E+000	69.9025	0.0000000E+000	0.0000000E+000	0.0000000E+000	-69.9025	0.0000000E+000	0.0000000E+000	0.0000000E+000	-20.0975	0.0000000E+000	0.0000000E+000	0.0000000E+000	20.0975	2.733	69.9025	-9.7677e-06	-9.6931e-05	2.325e-09	-9.69333e-05	3.88421	155640	3.7332	155644
39814.1	1.30905	0.429756	1.37779	-18.1748	7.60153	3.8841	-0.0197347	9.30169	0.904983	1	9	0.00530261	0.00384864	0	-5.67313e-05	-5.49767e-05	1.5055e-05	28.7843	0.00391177	0.00342843	-0.00188357	-18.0561	1.38046	1.31248	0.427872	0.68959	0.22639	0.725801	18.1748	904.983	2756.61	2901.36	-71.8252	0.0000000E+000	0.0000000E+000	0.0000000E+000	71.8252	0.0000000E+000	0.0000000E+000	0.0000000E+000	-71.8252	0.0000000E+000	0.0000000E+000	0.0000000E+000	-18.1748	0.0000000E+000	0.0000000E+000	0.0000000E+000	18.1748	3.04603	71.8252	3.4535e-06	-7.66515e-05	1.08495e-09	-7.66526e-05	3.88416	196816	2.78579	196819
25116.9	1.43759	0.422811	1.49848	-16.3892	8.36754	3.88411	-0.020667	14.9867	1.19316	1	9	0.00518162	0.00345791	0	-5.85362e-05	-1.67886e-05	2.17785e-06	60.9202	0.000629817	0.000306109	-0.000550425	-16.3657	1.49862	1.4379	0.422261	0.640226	0.188297	0.667342	16.3892	1193.16	4056.84	4228.66	-73.6108	0.0000000E+000	0.0000000E+000	0.0000000E+000	73.6108	0.0000000E+000	0.0000000E+000	0.0000000E+000	-73.6108	0.0000000E+000	0.0000000E+000	0.0000000E+000	-16.3892	0.0000000E+000	0.0000000E+000	0.0000000E+000	16.3892	3.40008	73.6108	-3.8961e-06	-8.02729e-05	3.4697e-10	-8.02732e-05	3.88412	187937	0.812337	187938
15847.7	1.55231	0.4182	1.60765	-15.0778	9.13554	3.8841	-0.0238743	24.0143	1.625	1	9	0.00519197	0.00322953	0	-6.83934e-05	0.00011687	9.09015e-06	-40.1844	0.0028147	0.00215035	0.00181618	-15.1203	1.6102	1.55446	0.420016	0.60061	0.161807	0.622024	15.0778	1625	6031.8	6246.86	-74.9222	0.0000000E+000	0.0000000E+000	0.0000000E+000	74.9222	0.0000000E+000	0.0000000E+000	0.0000000E+000	-74.9222	0.0000000E+000	0.0000000E+000	0.0000000E+000	-15.0778	0.0000000E+000	0.0000000E+000	0.0000000E+000	15.0778	3.71188	74.9222	-4.14396e-06	-9.273e-05	-2.79018e-09	-9.27272e-05	3.88398	162690	4.89522	162685
10002.2	1.65562	0.427947	1.71004	-14.4927	9.77956	3.8841	-0.0131337	37.182	2.32864	1	9	0.00529992	0.0030993	0	-7.18405e-05	-0.000284106	4.31423e-06	-16.6954	0.001392	0.00133332	0.000399898	-14.4945	1.71143	1.65696	0.428347	0.566175	0.146345	0.584783	14.4927	2328.64	9008.94	9305.03	-75.5073	0.0000000E+000	0.0000000E+000	0.0000000E+000	75.5073	0.0000000E+000	0.0000000E+000	0.0000000E+000	-75.5073	0.0000000E+000	0.0000000E+000	0.0000000E+000	-14.4927	0.0000000E+000	0.0000000E+000	0.0000000E+000	14.4927	3.86875	75.5073	-2.68857e-06	-5.10126e-05	3.73136e-09	-5.10164e-05	3.88438	295735	21.6318	295756
6309.38	1.76131	0.456087	1.8194	-14.5177	10.2975	3.8841	-0.0124624	55.3077	3.47554	1	9	0.00543147	0.0029853	0	-7.57196e-05	0.000288716	8.17222e-06	-96.0282	0.00273748	-0.000287485	0.00272234	-14.603	1.81981	1.76102	0.458809	0.532081	0.137781	0.549631	14.5177	3475.54	13421.8	13864.5	-75.4823	0.0000000E+000	0.0000000E+000	0.0000000E+000	75.4823	0.0000000E+000	0.0000000E+000	0.0000000E+000	-75.4823	0.0000000E+000	0.0000000E+000	0.0000000E+000	-14.5177	0.0000000E+000	0.0000000E+000	0.0000000E+000	14.5177	3.86179	75.4823	2.82594e-07	-4.84053e-05	-3.59811e-09	-4.84017e-05	3.88381	311664	23.1669	311641
3983.6	1.88177	0.511512	1.95005	-15.207	10.8621	3.88399	-0.0607203	78.1068	5.37412	1	9	0.00543116	0.00278514	0	-7.93228e-05	-0.000169541	7.93117e-06	-48.8763	0.00284768	0.00187288	0.00214513	-15.2533	1.95242	1.88364	0.513657	0.49485	0.134513	0.512807	15.207	5374.12	19770.5	20487.9	-74.793	0.0000000E+000	0.0000000E+000	0.0000000E+000	74.793	0.0000000E+000	0.0000000E+000	0.0000000E+000	-74.793	0.0000000E+000	0.0000000E+000	0.0000000E+000	-15.207	0.0000000E+000	0.0000000E+000	0.0000000E+000	15.207	3.67884	74.793	-2.57756e-06	-0.000235837	1.02946e-08	-0.000235847	3.88416	63965.2	2.79216	63968
2510.8	2.01302	0.585174	2.09635	-16.2088	11.6868	3.88402	-0.0218977	108.323	8.44042	1	9	0.00537232	0.0025627	0	-8.77467e-05	0.000135964	6.55223e-06	-91.1985	0.00255677	-5.34781e-05	0.00255621	-16.2763	2.09702	2.01297	0.58773	0.458058	0.133155	0.477019	16.2088	8440.42	29035.4	30237.3	-73.7912	0.0000000E+000	0.0000000E+000	0.0000000E+000	73.7912	0.0000000E+000	0.0000000E+000	0.0000000E+000	-73.7912	0.0000000E+000	0.0000000E+000	0.0000000E+000	-16.2088	0.0000000E+000	0.0000000E+000	0.0000000E+000	16.2088	3.44004	73.7912	-2.45804e-06	-8.50511e-05	-2.9773e-09	-8.50482e-05	3.88388	177371	6.20904	177365
1585.51	2.15186	0.699703	2.26276	-18.0125	12.5878	3.88401	-0.0301023	143.462	13.7179	1	9	0.00532001	0.00235111	0	-9.57432e-05	7.86817e-05	5.23385e-06	-66.9674	0.00222611	0.000870977	0.00204865	-18.055	2.26423	2.15273	0.701752	0.420278	0.136658	0.441937	18.0125	13717.9	42187.9	44362.2	-71.9875	0.0000000E+000	0.0000000E+000	0.0000000E+000	71.9875	0.0000000E+000	0.0000000E+000	0.0000000E+000	-71.9875	0.0000000E+000	0.0000000E+000	0.0000000E+000	-18.0125	0.0000000E+000	0.0000000E+000	0.0000000E+000	18.0125	3.07539	71.9875	-3.34183e-06	-0.000116918	-2.3685e-09	-0.000116915	3.88393	129027	2.61381	129024
1000.32	2.34589	0.84828	2.49455	-19.8801	13.4898	3.88401	-0.0250677	187.561	21.6888	1	9	0.00529008	0.00212066	0	-0.000102944	-7.40708e-05	8.2272e-06	-0.87589	0.00387955	0.0038791	5.9305e-05	-19.8512	2.49822	2.34977	0.848339	0.376984	0.136319	0.400874	19.8801	21688.9	59979.7	63780.7	-70.1199	0.0000000E+000	0.0000000E+000	0.0000000E+000	70.1199	0.0000000E+000	0.0000000E+000	0.0000000E+000	-70.1199	0.0000000E+000	0.0000000E+000	0.0000000E+000	-19.8801	0.0000000E+000	0.0000000E+000	0.0000000E+000	19.8801	2.76546	70.1199	-5.57002e-06	-9.73632e-05	1.85678e-09	-9.73651e-05	3.88409	154941	2.95483	154944
631.01	2.59293	1.04135	2.79422	-21.881	14.3915	3.88401	-0.0314449	242.208	33.6402	1	9	0.00525922	0.00188218	0	-0.000110473	2.13995e-05	4.18793e-06	144.164	0.00222504	-0.00180384	-0.00130268	-21.8699	2.79206	2.59112	1.04005	0.3321	0.133375	0.357881	21.881	33640.2	83763	90265.8	-68.119	0.0000000E+000	0.0000000E+000	0.0000000E+000	68.119	0.0000000E+000	0.0000000E+000	0.0000000E+000	-68.119	0.0000000E+000	0.0000000E+000	0.0000000E+000	-21.881	0.0000000E+000	0.0000000E+000	0.0000000E+000	21.881	2.48997	68.119	-2.75531e-06	-0.000122132	-6.72906e-10	-0.000122132	3.88399	123518	0.680541	123517
398.089	2.95636	1.2414	3.20642	-22.7779	15.5388	3.88404	-0.0693876	322.054	48.2736	1	10	0.00527828	0.00164616	0	-0.000126979	2.30547e-06	1.72154e-05	68.2166	0.0104579	0.00388092	-0.00971116	-22.591	3.20626	2.96024	1.23169	0.287552	0.120745	0.311874	22.7779	48273.6	114962	124686	-67.2221	0.0000000E+000	0.0000000E+000	0.0000000E+000	67.2221	0.0000000E+000	0.0000000E+000	0.0000000E+000	-67.2221	0.0000000E+000	0.0000000E+000	0.0000000E+000	-22.7779	0.0000000E+000	0.0000000E+000	0.0000000E+000	22.7779	2.38148	67.2221	-7.37229e-06	-0.000269505	-1.59971e-10	-0.000269504	3.88404	55976	0.033226	55976
251.044	3.44629	1.40967	3.72345	-22.2465	16.437	3.88404	-0.0698463	449.731	64.4608	1	10	0.00526127	0.00141301	0	-0.000143999	7.86817e-05	2.91927e-06	-138.405	0.00206599	-0.00154506	0.00137154	-22.275	3.72254	3.44475	1.41104	0.248577	0.101678	0.268568	22.2465	64460.8	157591	170264	-67.7535	0.0000000E+000	0.0000000E+000	0.0000000E+000	67.7535	0.0000000E+000	0.0000000E+000	0.0000000E+000	-67.7535	0.0000000E+000	0.0000000E+000	0.0000000E+000	-22.2465	0.0000000E+000	0.0000000E+000	0.0000000E+000	22.2465	2.44475	67.7535	-7.6402e-06	-0.000271286	-5.49563e-09	-0.00027128	3.88396	55608.3	1.1265	55607.2
158.428	4.00931	1.43343	4.25785	-19.6733	17.3419	3.88405	-0.0679856	700.825	79.4297	1	10	0.00523922	0.00123048	0	-0.000159884	-0.000436858	8.17214e-06	63.6013	0.0066414	0.00295286	-0.00594885	-19.5845	4.25864	4.01227	1.42748	0.221151	0.0790671	0.23486	19.6733	79429.7	222165	235937	-70.3267	0.0000000E+000	0.0000000E+000	0.0000000E+000	70.3267	0.0000000E+000	0.0000000E+000	0.0000000E+000	-70.3267	0.0000000E+000	0.0000000E+000	0.0000000E+000	-19.6733	0.0000000E+000	0.0000000E+000	0.0000000E+000	19.6733	2.797	70.3267	-7.97175e-06	-0.000264059	2.97001e-08	-0.000264089	3.88449	57130.5	6.42574	57136.9
100.032	4.54696	1.29922	4.72894	-15.9464	18.2418	3.88405	-0.0674374	1224.61	92.435	1	10	0.00523405	0.00110681	0	-0.00017646	-0.000188635	3.31138e-06	-75.8028	0.00299181	0.00073377	0.00290043	-15.9777	4.73044	4.5477	1.30212	0.203327	0.0580972	0.211464	15.9464	92435	323501	336448	-74.0536	0.0000000E+000	0.0000000E+000	0.0000000E+000	74.0536	0.0000000E+000	0.0000000E+000	0.0000000E+000	-74.0536	0.0000000E+000	0.0000000E+000	0.0000000E+000	-15.9464	0.0000000E+000	0.0000000E+000	0.0000000E+000	15.9464	3.49977	74.0536	-8.85454e-06	-0.000261931	1.27211e-08	-0.000261943	3.88424	57594.9	2.79719	57597.7
63.0823	4.96215	1.03718	5.06938	-11.8059	19.157	3.88405	-0.0653418	2432.53	101.825	1	10	0.00523614	0.0010329	0	-0.000192065	-0.000150447	9.87753e-06	-35.1582	0.00956296	0.00781834	0.00550669	-11.8487	5.07817	4.96997	1.04269	0.19309	0.0403593	0.197263	11.8059	101825	487160	497688	-78.1941	0.0000000E+000	0.0000000E+000	0.0000000E+000	78.1941	0.0000000E+000	0.0000000E+000	0.0000000E+000	-78.1941	0.0000000E+000	0.0000000E+000	0.0000000E+000	-11.8059	0.0000000E+000	0.0000000E+000	0.0000000E+000	11.8059	4.78427	78.1941	-8.74062e-06	-0.000253791	9.83049e-09	-0.000253801	3.8842	59442	2.30246	59444.3
39.8089	5.22247	0.792719	5.28229	-8.63104	20.0578	3.88404	-0.0668446	5043.36	113.583	1	10	0.00523018	0.000990134	0	-0.000207302	0.000155058	1.53965e-06	35.6196	0.00155499	0.00126405	-0.000905629	-8.61928	5.28341	5.22374	0.791814	0.187168	0.0284102	0.189312	8.63104	113583	748292	756863	-81.369	0.0000000E+000	0.0000000E+000	0.0000000E+000	81.369	0.0000000E+000	0.0000000E+000	0.0000000E+000	-81.369	0.0000000E+000	0.0000000E+000	0.0000000E+000	-8.63104	0.0000000E+000	0.0000000E+000	0.0000000E+000	8.63104	6.58805	81.369	-7.50328e-06	-0.000259627	-1.03648e-08	-0.000259617	3.88389	58105.6	2.31968	58103.2
25.1044	5.37726	0.575976	5.40802	-6.11383	20.937	3.88405	-0.0658191	11006.9	124.853	1	10	0.00522878	0.000966857	0	-0.0002223	-0.000226823	8.08506e-06	152.877	0.00836221	-0.00744262	-0.00381234	-6.08202	5.40021	5.36981	0.572164	0.183859	0.0196938	0.184911	6.11383	124853	1.16561e+06	1.17228e+06	-83.8862	0.0000000E+000	0.0000000E+000	0.0000000E+000	83.8862	0.0000000E+000	0.0000000E+000	0.0000000E+000	-83.8862	0.0000000E+000	0.0000000E+000	0.0000000E+000	-6.11383	0.0000000E+000	0.0000000E+000	0.0000000E+000	6.11383	9.3359	83.8862	-9.02918e-06	-0.000255645	1.49293e-08	-0.00025566	3.88428	59010.9	3.44616	59014.4
15.8576	5.44215	0.431475	5.45922	-4.53316	21.815	3.88402	-0.0710619	23260.9	145.304	1	10	0.00519913	0.000952356	0	-0.000233505	-0.000360482	1.58869e-05	42.8966	0.0166817	0.0122207	-0.0113548	-4.40449	5.47052	5.45437	0.420121	0.182603	0.0144775	0.183176	4.53316	145304	1.8327e+06	1.83845e+06	-85.4668	0.0000000E+000	0.0000000E+000	0.0000000E+000	85.4668	0.0000000E+000	0.0000000E+000	0.0000000E+000	-85.4668	0.0000000E+000	0.0000000E+000	0.0000000E+000	-4.53316	0.0000000E+000	0.0000000E+000	0.0000000E+000	4.53316	12.6129	85.4668	-4.2569e-06	-0.000276006	2.56165e-08	-0.000276032	3.88438	54656.9	5.07278	54662
10.0032	5.52038	0.319912	5.52964	-3.31664	22.7958	3.88404	-0.0644133	49733.7	166.463	1	10	0.00522471	0.000944856	0	-0.000255121	-0.000150447	7.40842e-06	17.1443	0.0078408	0.0074924	-0.00231131	-3.28828	5.53699	5.52787	0.3176	0.180541	0.0104625	0.180843	3.31664	166463	2.87247e+06	2.87729e+06	-86.6834	0.0000000E+000	0.0000000E+000	0.0000000E+000	86.6834	0.0000000E+000	0.0000000E+000	0.0000000E+000	-86.6834	0.0000000E+000	0.0000000E+000	0.0000000E+000	-3.31664	0.0000000E+000	0.0000000E+000	0.0000000E+000	3.31664	17.256	86.6834	-1.52034e-05	-0.000250184	9.6908e-09	-0.000250194	3.88419	60298.7	2.33565	60301
6.31058	5.5671	0.264917	5.5734	-2.72443	23.7203	3.88403	-0.0709426	95200.7	215.09	1	10	0.00522382	0.000937275	0	-0.000266152	2.30547e-06	3.40179e-06	-42.9192	0.00362945	0.0026579	0.00247153	-2.7485	5.57618	5.56976	0.267389	0.179221	0.00852844	0.179424	2.72443	215090	4.52001e+06	4.52512e+06	-87.2756	0.0000000E+000	0.0000000E+000	0.0000000E+000	87.2756	0.0000000E+000	0.0000000E+000	0.0000000E+000	-87.2756	0.0000000E+000	0.0000000E+000	0.0000000E+000	-2.72443	0.0000000E+000	0.0000000E+000	0.0000000E+000	2.72443	21.0145	87.2756	-1.04813e-05	-0.000275543	-1.63556e-10	-0.000275543	3.88402	54748.9	0.0324977	54748.8
3.97785	5.60787	0.229231	5.61255	-2.34076	24.7273	3.88405	-0.0625657	174541	291.155	1	10	0.00522808	0.000931497	0	-0.000284344	-0.000169541	7.95331e-06	27.6232	0.0085382	0.00756498	-0.00395877	-2.29728	5.61995	5.61544	0.225273	0.178023	0.00727701	0.178172	2.34076	291155	7.12276e+06	7.12871e+06	-87.6592	0.0000000E+000	0.0000000E+000	0.0000000E+000	87.6592	0.0000000E+000	0.0000000E+000	0.0000000E+000	-87.6592	0.0000000E+000	0.0000000E+000	0.0000000E+000	-2.34076	0.0000000E+000	0.0000000E+000	0.0000000E+000	2.34076	24.4638	87.6592	-2.38063e-06	-0.000243008	1.06075e-08	-0.000243019	3.88422	62079.6	2.70981	62082.3
2.51367	5.63913	0.241788	5.64431	-2.45516	26.2869	3.88406	-0.0546238	261864	480.534	1	10	0.00522455	0.000925631	0	-0.000298684	5.95877e-05	6.39823e-06	-67.25	0.00691229	0.00267306	0.00637452	-2.51861	5.64726	5.6418	0.248163	0.177007	0.0075895	0.17717	2.45516	480535	1.12073e+07	1.12176e+07	-87.5448	0.0000000E+000	0.0000000E+000	0.0000000E+000	87.5448	0.0000000E+000	0.0000000E+000	0.0000000E+000	-87.5448	0.0000000E+000	0.0000000E+000	0.0000000E+000	-2.45516	0.0000000E+000	0.0000000E+000	0.0000000E+000	2.45516	23.3226	87.5448	-1.42163e-05	-0.000212162	-3.2549e-09	-0.000212159	3.884	71105.7	1.09087	71104.6
1.58469	5.68686	0.266811	5.69311	-2.68618	29.2676	3.88407	-0.0555912	376421	826.762	1	11	0.00522377	0.000917558	0	-0.000370352	-9.31649e-05	6.07434e-06	28.1424	0.00662012	0.00583748	-0.00312247	-2.65207	5.6988	5.6927	0.263688	0.175458	0.00823196	0.175651	2.68618	826762	1.76218e+07	1.76412e+07	-87.3138	0.0000000E+000	0.0000000E+000	0.0000000E+000	87.3138	0.0000000E+000	0.0000000E+000	0.0000000E+000	-87.3138	0.0000000E+000	0.0000000E+000	0.0000000E+000	-2.68618	0.0000000E+000	0.0000000E+000	0.0000000E+000	2.68618	21.3142	87.3138	-2.92256e-05	-0.00021592	5.17915e-09	-0.000215925	3.88416	69868.4	1.67589	69870
1.00469	5.7453	0.28972	5.7526	-2.88682	240.086	3.88405	-0.0393068	546775	1386.87	1	11	0.00503787	0.000875755	0	-0.00621775	5.95877e-05	6.59911e-07	-1.16187	0.000753534	0.000753379	1.52794e-05	-2.8866	5.75335	5.74605	0.289735	0.173614	0.00875487	0.173834	2.88682	1.38687e+06	2.75024e+07	2.75374e+07	-87.1132	0.0000000E+000	0.0000000E+000	0.0000000E+000	87.1132	0.0000000E+000	0.0000000E+000	0.0000000E+000	-87.1132	0.0000000E+000	0.0000000E+000	0.0000000E+000	-2.88682	0.0000000E+000	0.0000000E+000	0.0000000E+000	2.88682	19.8305	87.1132	-0.00583254	-0.00015267	-2.3422e-09	-0.000152667	3.88399	98813.8	1.51596	98812.2
0.632957	5.81382	0.361633	5.82505	-3.55935	240.087	3.88405	-0.0393068	695308	2679.88	1	11	0.00505116	0.000867144	0	-0.00621775	5.95877e-05	6.1808e-07	-22.4502	0.000712776	0.000658756	0.000272196	-3.56162	5.82573	5.81448	0.361906	0.171341	0.0106578	0.171672	3.55935	2.67988e+06	4.30832e+07	4.31664e+07	-86.4407	0.0000000E+000	0.0000000E+000	0.0000000E+000	86.4407	0.0000000E+000	0.0000000E+000	0.0000000E+000	-86.4407	0.0000000E+000	0.0000000E+000	0.0000000E+000	-3.55935	0.0000000E+000	0.0000000E+000	0.0000000E+000	3.55935	16.0765	86.4407	0.000000000000000E+000	-0.00015267	-2.3422e-09	-0.000152667	3.88399	98813.8	1.51596	98812.2
0.401878	5.88837	0.450974	5.90562	-4.37958	240.089	3.88405	-0.0393068	878162	5120.91	1	11	0.00506547	0.000857737	0	-0.00621775	5.95877e-05	6.44908e-07	17.0659	0.000751872	0.000718765	-0.000220653	-4.37691	5.90632	5.88909	0.450754	0.168836	0.0129307	0.16933	4.37958	5.12092e+06	6.68638e+07	6.70596e+07	-85.6204	0.0000000E+000	0.0000000E+000	0.0000000E+000	85.6204	0.0000000E+000	0.0000000E+000	0.0000000E+000	-85.6204	0.0000000E+000	0.0000000E+000	0.0000000E+000	-4.37958	0.0000000E+000	0.0000000E+000	0.0000000E+000	4.37958	13.057	85.6204	0.000000000000000E+000	-0.00015267	-2.3422e-09	-0.000152667	3.88399	98813.8	1.51596	98812.2
0.251173	6.0096	0.593016	6.03879	-5.6356	240.091	3.88405	-0.0393068	1.06851e+06	10304.2	1	11	0.00506712	0.000839096	0	-0.00621775	5.95877e-05	4.48988e-07	-10.4019	0.000535085	0.000526291	9.66101e-05	-5.63602	6.03932	6.01012	0.593113	0.164796	0.0162618	0.165596	5.6356	1.03042e+07	1.04422e+08	1.04929e+08	-84.3644	0.0000000E+000	0.0000000E+000	0.0000000E+000	84.3644	0.0000000E+000	0.0000000E+000	0.0000000E+000	-84.3644	0.0000000E+000	0.0000000E+000	0.0000000E+000	-5.6356	0.0000000E+000	0.0000000E+000	0.0000000E+000	5.6356	10.1339	84.3644	0.000000000000000E+000	-0.00015267	-2.3422e-09	-0.000152667	3.88399	98813.8	1.51596	98812.2
0.160751	6.17159	0.667453	6.20757	-6.17251	240.093	3.88405	-0.0393068	1.48336e+06	17149.2	1	11	0.00505817	0.000814838	0	-0.00621775	5.95877e-05	6.26007e-07	23.75	0.00076826	0.000703197	-0.000309414	-6.16898	6.20824	6.17229	0.667144	0.16016	0.0173212	0.161094	6.17251	1.71492e+07	1.58569e+08	1.59494e+08	-83.8275	0.0000000E+000	0.0000000E+000	0.0000000E+000	83.8275	0.0000000E+000	0.0000000E+000	0.0000000E+000	-83.8275	0.0000000E+000	0.0000000E+000	0.0000000E+000	-6.17251	0.0000000E+000	0.0000000E+000	0.0000000E+000	6.17251	9.24647	83.8275	0.000000000000000E+000	-0.00015267	-2.3422e-09	-0.000152667	3.88399	98813.8	1.51596	98812.2
0.100469	6.31034	0.915103	6.37635	-8.2513	240.095	3.88405	-0.0393068	1.73108e+06	35654.3	1	11	0.00506251	0.000793951	0	-0.00621775	5.95877e-05	8.57797e-07	-29.134	0.00108042	0.000943726	0.000526005	-8.25476	6.37736	6.31129	0.915629	0.155206	0.0225074	0.156829	8.2513	3.56543e+07	2.45864e+08	2.48436e+08	-81.7487	0.0000000E+000	0.0000000E+000	0.0000000E+000	81.7487	0.0000000E+000	0.0000000E+000	0.0000000E+000	-81.7487	0.0000000E+000	0.0000000E+000	0.0000000E+000	-8.2513	0.0000000E+000	0.0000000E+000	0.0000000E+000	8.2513	6.89578	81.7487	0.000000000000000E+000	-0.00015267	-2.3422e-09	-0.000152667	3.88399	98813.8	1.51596	98812.2
0.0602816	6.58669	1.12263	6.68168	-9.67249	240.097	3.88405	-0.0393068	2.35179e+06	66389.7	1	11	0.00505813	0.000757015	0	-0.00621775	5.95877e-05	4.58013e-07	32.7456	0.000605026	0.000508875	-0.000327264	-9.66899	6.68213	6.5872	1.1223	0.147535	0.0251458	0.149663	9.67249	6.63897e+07	3.89522e+08	3.95139e+08	-80.3275	0.0000000E+000	0.0000000E+000	0.0000000E+000	80.3275	0.0000000E+000	0.0000000E+000	0.0000000E+000	-80.3275	0.0000000E+000	0.0000000E+000	0.0000000E+000	-9.67249	0.0000000E+000	0.0000000E+000	0.0000000E+000	9.67249	5.8672	80.3275	0.000000000000000E+000	-0.00015267	-2.3422e-09	-0.000152667	3.88399	98813.8	1.51596	98812.2
0.0401878	6.90922	1.36146	7.04208	-11.1473	240.099	3.88405	-0.0393068	2.90886e+06	108725	1	11	0.00506158	0.000718762	0	-0.00621775	5.95877e-05	6.55154e-07	-16.0071	0.000911503	0.000876162	0.000251353	-11.1479	7.04299	6.9101	1.36171	0.139324	0.0274537	0.142003	11.1473	1.08725e+08	5.51764e+08	5.62374e+08	-78.8527	0.0000000E+000	0.0000000E+000	0.0000000E+000	78.8527	0.0000000E+000	0.0000000E+000	0.0000000E+000	-78.8527	0.0000000E+000	0.0000000E+000	0.0000000E+000	-11.1473	0.0000000E+000	0.0000000E+000	0.0000000E+000	11.1473	5.07488	78.8527	0.000000000000000E+000	-0.00015267	-2.3422e-09	-0.000152667	3.88399	98813.8	1.51596	98812.2
0.0200939	7.68514	2.06538	7.95784	-15.0428	240.1	3.88405	-0.0393068	3.83492e+06	258325	1	11	0.00505838	0.000635647	0	-0.00621775	5.95877e-05	6.51423e-07	-58.041	0.00102482	0.000542448	0.000869484	-15.0478	7.95859	7.68568	2.06625	0.121356	0.0326144	0.125662	15.0428	2.58325e+08	9.6121e+08	9.95317e+08	-74.9572	0.0000000E+000	0.0000000E+000	0.0000000E+000	74.9572	0.0000000E+000	0.0000000E+000	0.0000000E+000	-74.9572	0.0000000E+000	0.0000000E+000	0.0000000E+000	-15.0428	0.0000000E+000	0.0000000E+000	0.0000000E+000	15.0428	3.72094	74.9572	0.000000000000000E+000	-0.00015267	-2.3422e-09	-0.000152667	3.88399	98813.8	1.51596	98812.2
0.00796479	8.40073	2.38744	8.73339	-15.8648	20328.9	3.88409	-0.000625648	8.36978e+06	625478	1	11	0.00505352	0.000578643	0	-0.0706661	-0.000112259	3.30212e-07	12.9658	0.000570665	0.000556116	-0.00012804	-15.863	8.73389	8.40129	2.38731	0.110142	0.0313016	0.114503	15.8648	6.25478e+08	2.20088e+09	2.28804e+09	-74.1352	0.0000000E+000	0.0000000E+000	0.0000000E+000	74.1352	0.0000000E+000	0.0000000E+000	0.0000000E+000	-74.1352	0.0000000E+000	0.0000000E+000	0.0000000E+000	-15.8648	0.0000000E+000	0.0000000E+000	0.0000000E+000	15.8648	3.51872	74.1352	-0.0644484	-2.43008e-06	7.02346e-11	-2.43015e-06	3.88421	6.20811e+06	179.428	6.20829e+06
0.00497799	9.11896	2.51742	9.46007	-15.4329	20328.9	3.88409	-0.000625648	1.27002e+07	899360	1	11	0.00506175	0.000535065	0	-0.0706661	-0.000112259	8.24572e-07	-148.11	0.00154107	-0.00130846	0.000814142	-15.4398	9.45902	9.11765	2.51824	0.101896	0.0281299	0.105708	15.4329	8.9936e+08	3.25779e+09	3.37965e+09	-74.5671	0.0000000E+000	0.0000000E+000	0.0000000E+000	74.5671	0.0000000E+000	0.0000000E+000	0.0000000E+000	-74.5671	0.0000000E+000	0.0000000E+000	0.0000000E+000	-15.4329	0.0000000E+000	0.0000000E+000	0.0000000E+000	15.4329	3.62234	74.5671	0.000000000000000E+000	-2.43008e-06	7.02346e-11	-2.43015e-06	3.88421	6.20811e+06	179.428	6.20829e+06
0.00318591	9.61879	3.30166	10.1697	-18.9448	20328.9	3.88409	-0.000625648	1.51305e+07	1.5948e+06	1	11	0.00506336	0.000497889	0	-0.0706661	-0.000112259	7.20389e-07	-2.53639	0.00144689	0.00144547	6.40304e-05	-18.9425	10.1711	9.62024	3.30172	0.0930052	0.0319241	0.0983317	18.9448	1.5948e+09	4.64615e+09	4.91224e+09	-71.0552	0.0000000E+000	0.0000000E+000	0.0000000E+000	71.0552	0.0000000E+000	0.0000000E+000	0.0000000E+000	-71.0552	0.0000000E+000	0.0000000E+000	0.0000000E+000	-18.9448	0.0000000E+000	0.0000000E+000	0.0000000E+000	18.9448	2.91332	71.0552	0.000000000000000E+000	-2.43008e-06	7.02346e-11	-2.43015e-06	3.88421	6.20811e+06	179.428	6.20829e+06
0.0019912	10.0163	4.0387	10.7998	-21.96	20328.9	3.88409	-0.000625648	1.97909e+07	2.76766e+06	1	11	0.00506519	0.000469006	0	-0.0706661	-0.000112259	4.04884e-07	2.84723	0.000863282	0.000862216	-4.28818e-05	-21.9581	10.8006	10.0171	4.03865	0.0858758	0.0346263	0.0925939	21.96	2.76766e+09	6.86399e+09	7.40097e+09	-68.04	0.0000000E+000	0.0000000E+000	0.0000000E+000	68.04	0.0000000E+000	0.0000000E+000	0.0000000E+000	-68.04	0.0000000E+000	0.0000000E+000	0.0000000E+000	-21.96	0.0000000E+000	0.0000000E+000	0.0000000E+000	21.96	2.48007	68.04	0.000000000000000E+000	-2.43008e-06	7.02346e-11	-2.43015e-06	3.88421	6.20811e+06	179.428	6.20829e+06
0.00129428	9.70457	5.26588	11.0412	-28.4851	20328.9	3.88409	-0.000625648	2.33519e+07	5.31166e+06	1	11	0.00506565	0.000458795	0	-0.0706661	-0.000112259	4.92235e-07	-48.2989	0.00107289	0.000713732	0.000801044	-28.487	11.0422	9.70528	5.26668	0.0796056	0.0431954	0.0905698	28.4851	5.31166e+09	9.78895e+09	1.11372e+10	-61.5149	0.0000000E+000	0.0000000E+000	0.0000000E+000	61.5149	0.0000000E+000	0.0000000E+000	0.0000000E+000	-61.5149	0.0000000E+000	0.0000000E+000	0.0000000E+000	-28.4851	0.0000000E+000	0.0000000E+000	0.0000000E+000	28.4851	1.84292	61.5149	0.000000000000000E+000	-2.43008e-06	7.02346e-11	-2.43015e-06	3.88421	6.20811e+06	179.428	6.20829e+06
0.000796479	10.7859	7.79066	13.3053	-35.8405	20328.9	3.88409	-0.000625648	2.56491e+07	8.79369e+06	1	11	0.0050658	0.000380736	0	-0.0706661	-0.000112259	1.21767e-06	-132.758	0.0031982	-0.00217128	0.0023482	-35.8541	13.3049	10.7838	7.793	0.0609269	0.0440073	0.075158	35.8405	8.79369e+09	1.21746e+10	1.50183e+10	-54.1595	0.0000000E+000	0.0000000E+000	0.0000000E+000	54.1595	0.0000000E+000	0.0000000E+000	0.0000000E+000	-54.1595	0.0000000E+000	0.0000000E+000	0.0000000E+000	-35.8405	0.0000000E+000	0.0000000E+000	0.0000000E+000	35.8405	1.38447	54.1595	0.000000000000000E+000	-2.43008e-06	7.02346e-11	-2.43015e-06	3.88421	6.20811e+06	179.428	6.20829e+06
0.000497799	10.5959	10.9496	15.237	-45.9406	20328.9	3.88409	-0.000625648	2.9199e+07	1.50788e+07	1	11	0.0050687	0.000332657	0	-0.0706661	-0.000112259	4.79308e-07	-92.76	0.00144085	-6.93802e-05	0.00143918	-45.9446	15.238	10.5958	10.951	0.0456392	0.0471628	0.0656297	45.9406	1.50788e+10	1.45916e+10	2.09829e+10	-44.0594	0.0000000E+000	0.0000000E+000	0.0000000E+000	44.0594	0.0000000E+000	0.0000000E+000	0.0000000E+000	-44.0594	0.0000000E+000	0.0000000E+000	0.0000000E+000	-45.9406	0.0000000E+000	0.0000000E+000	0.0000000E+000	45.9406	0.967694	44.0594	0.000000000000000E+000	-2.43008e-06	7.02346e-11	-2.43015e-06	3.88421	6.20811e+06	179.428	6.20829e+06
0.000298679	9.71273	17.1883	19.7428	-60.5302	20328.9	3.88409	-0.000625648	3.10014e+07	2.34981e+07	1	11	0.00506933	0.000256769	0	-0.0706661	-0.000112259	1.69266e-06	-77.0494	0.00659214	0.00147737	0.00642446	-60.5357	19.7491	9.71421	17.1948	0.0249187	0.044098	0.0506515	60.5302	2.34981e+10	1.32782e+10	2.69903e+10	-29.4698	0.0000000E+000	0.0000000E+000	0.0000000E+000	29.4698	0.0000000E+000	0.0000000E+000	0.0000000E+000	-29.4698	0.0000000E+000	0.0000000E+000	0.0000000E+000	-60.5302	0.0000000E+000	0.0000000E+000	0.0000000E+000	60.5302	0.565077	29.4698	0.000000000000000E+000	-2.43008e-06	7.02346e-11	-2.43015e-06	3.88421	6.20811e+06	179.428	6.20829e+06
9.95598e-05	6.30228	78.7997	79.0513	-85.4273	20328.9	3.88409	-0.000625648	2.02867e+07	2.01578e+07	1	11	0.00506574	6.40817e-05	0	-0.0706661	-0.000112259	1.53525e-06	32.8052	0.0239578	0.0201369	-0.0129799	-85.412	79.04	6.32242	78.7867	0.00100851	0.0126097	0.01265	85.4273	2.01578e+10	1.61219e+09	2.02221e+10	-4.5727	0.0000000E+000	0.0000000E+000	0.0000000E+000	4.5727	0.0000000E+000	0.0000000E+000	0.0000000E+000	-4.5727	0.0000000E+000	0.0000000E+000	0.0000000E+000	-85.4273	0.0000000E+000	0.0000000E+000	0.0000000E+000	85.4273	0.0799785	4.57269	0.000000000000000E+000	-2.43008e-06	7.02346e-11	-2.43015e-06	3.88421	6.20811e+06	179.428	6.20829e+06