File: txt/19322_R313_UC98_SOC50_C06.mpt
EC-Lab ASCII FILE
Nb header lines : 65

Potentio Electrochemical Impedance Spectroscopy

Run on channel : 6 (SN 65795)
User :
CE vs. WE compliance from -10 V to 10 V
Electrode connection : standard
Potential control : Ewe
Ewe ctrl range : min = -10.00 V, max = 10.00 V
Safety Limits :
	Do not start on E overload
Acquisition started on : 11/18/2025 16:33:31.777
Technique started on : 11/18/2025 16:33:34.012
Loaded Setting File :  C:\Users\Celltest\OneDrive - store-dot.com\Documents\EC-Lab\Data\txt_done\19191_R297_UC94_SOC50_C08.mpr
Saved on :
	File : 19322_R313_UC98_SOC50_C06.mpr
	Directory : C:\Users\Celltest\OneDrive - store-dot.com\Documents\EC-Lab\Data\Michael\
	Host : 169.254.61.224
Device : VMP-3e (SN .003165)
Address : USB
EC-LAB for windows v11.62 (software)
Internet server v27.00 (firmware)
Command interpretor v12.03 (firmware)
Electrode material :
Initial state :
Electrolyte :
Comments :
Electrode surface area : 0.001 cm²
Characteristic mass : 0.001 g
Equivalent Weight : 0.000 g/eq.
Density : 0.000 g/cm3
Volume (V) : 0.001 cm³
Record Ece
Cycle Definition : Charge/Discharge alternance
Mode                Multi sine
E (V)               0.0000
vs.                 Eoc
tE (h:m:s)          0:00:0.0000
record              0
dI                  0.000
unit dI             mA
dt (s)              0.000
fi                  1.000
unit fi             MHz
ff                  0.100
unit ff             mHz
Nd                  10
Points              per decade
spacing             Logarithmic
Va (mV)             5.0
pw                  0.10
Na                  2
corr                0
E range min (V)     -10.000
E range max (V)     10.000
I Range             Auto
Bandwidth           5
nc cycles           0
goto Ns'            0
nr cycles           0
inc. cycle          0

freq/Hz	Re(Z)/Ohm	-Im(Z)/Ohm	|Z|/Ohm	Phase(Z)/deg	time/s	<Ewe>/V	<I>/mA	Cs/µF	Cp/µF	cycle number	I Range	|Ewe|/V	|I|/A	Ns	(Q-Qo)/mA.h	<Ece>/V	|Ece|/V	Phase(Zce)/deg	|Zce|/Ohm	Re(Zce)/Ohm	-Im(Zce)/Ohm	Phase(Zwe-ce)/deg	|Zwe-ce|/Ohm	Re(Zwe-ce)/Ohm	-Im(Zwe-ce)/Ohm	Re(Y)/Ohm-1	Im(Y)/Ohm-1	|Y|/Ohm-1	Phase(Y)/deg	Re(C)/nF	Im(C)/nF	|C|/nF	Phase(C)/deg	Re(M)	Im(M)	|M|	Phase(M)/deg	Re(Permittivity)	Im(Permittivity)	|Permittivity|	Phase(Permittivity)/deg	Re(Resistivity)/Ohm.cm	Im(Resistivity)/Ohm.cm	|Resistivity|/Ohm.cm	Phase(Resistivity)/deg	Re(Conductivity)/mS/cm	Im(Conductivity)/mS/cm	|Conductivity|/mS/cm	Phase(Conductivity)/deg	Tan(Delta)	Loss Angle(Delta)/deg	dq/mA.h	Pwe/W	Pce/W	Pwe-ce/W	<Ewe-Ece>/V	Rwe/Ohm	Rce/Ohm	Rwe-ce/Ohm		Ewe-Ece/V
1.00002e+06	2.44222	2.47222	3.47509	-45.3498	2.23454	3.87588	0.0421504	0.0643762	0.0325811	1	10	0.000205745	5.92056e-05	0	2.46212e-06	-0.000179642	0.000197099	-62.5455	3.32906	1.53484	2.95413	-53.7617	6.72772	3.97706	5.42635	0.202233	0.204717	0.287762	45.3498	32.5811	32.1857	45.7979	-44.6502	0.0000000E+000	0.0000000E+000	0.0000000E+000	44.6502	0.0000000E+000	0.0000000E+000	0.0000000E+000	-44.6502	0.0000000E+000	0.0000000E+000	0.0000000E+000	-45.3498	0.0000000E+000	0.0000000E+000	0.0000000E+000	45.3498	0.987865	44.6502	2.46212e-06	0.00016337	-7.57197e-09	0.000163378	3.87606	91953.6	4.26192	91957.9
630957	0.395702	0.0432952	0.398064	-6.2441	3.40356	3.87576	0.101462	5.82614	0.0689215	1	9	0.000130312	0.000327366	0	2.46182e-05	-0.000103249	0.000109916	-87.083	0.335758	0.0170866	0.335323	-42.5277	0.560131	0.412789	0.378618	2.49726	0.273234	2.51216	6.2441	68.9215	629.917	633.677	-83.7559	0.0000000E+000	0.0000000E+000	0.0000000E+000	83.7559	0.0000000E+000	0.0000000E+000	0.0000000E+000	-83.7559	0.0000000E+000	0.0000000E+000	0.0000000E+000	-6.2441	0.0000000E+000	0.0000000E+000	0.0000000E+000	6.2441	9.13963	83.7559	1.06964e-05	0.000393242	-1.04759e-08	0.000393252	3.87586	38199.1	1.01762	38200.1
398103	0.585413	0.0535287	0.587855	-5.22445	4.16952	3.87585	0.11368	7.46858	0.0619256	1	9	0.000528164	0.000898459	0	4.87516e-05	0.0003933	2.0135e-05	139.162	0.0224106	-0.016955	-0.0146548	-3.91206	0.569786	0.568458	0.0388738	1.69403	0.154898	1.7011	5.22445	61.9255	677.245	680.07	-84.7756	0.0000000E+000	0.0000000E+000	0.0000000E+000	84.7756	0.0000000E+000	0.0000000E+000	0.0000000E+000	-84.7756	0.0000000E+000	0.0000000E+000	0.0000000E+000	-5.22445	0.0000000E+000	0.0000000E+000	0.0000000E+000	5.22445	10.9364	84.7756	1.2647e-05	0.000440606	4.47103e-08	0.000440562	3.87546	34094.4	3.45971	34090.9
251206	0.717647	0.227946	0.752978	-17.6214	4.93556	3.87574	0.101686	2.77944	0.254717	1	9	0.00178131	0.00236568	0	6.79365e-05	0.0003933	7.27475e-05	62.8258	0.0307511	0.0140439	-0.0273569	-15.3307	0.758688	0.731691	0.200589	1.26574	0.402038	1.32806	17.6214	254.717	801.928	841.409	-72.3786	0.0000000E+000	0.0000000E+000	0.0000000E+000	72.3786	0.0000000E+000	0.0000000E+000	0.0000000E+000	-72.3786	0.0000000E+000	0.0000000E+000	0.0000000E+000	-17.6214	0.0000000E+000	0.0000000E+000	0.0000000E+000	17.6214	3.14831	72.3786	8.11428e-06	0.000394106	3.99929e-08	0.000394066	3.87534	38114.9	3.8678	38111.1
158486	0.843978	0.332333	0.907053	-21.493	5.70152	3.87568	0.0848114	3.02173	0.405637	1	9	0.00503071	0.00554622	0	8.02325e-05	0.000221417	8.77691e-05	68.2547	0.015825	0.00586288	-0.0146989	-20.4936	0.90726	0.849841	0.317634	1.02581	0.403932	1.10247	21.493	405.637	1030.14	1107.12	-68.507	0.0000000E+000	0.0000000E+000	0.0000000E+000	68.507	0.0000000E+000	0.0000000E+000	0.0000000E+000	-68.507	0.0000000E+000	0.0000000E+000	0.0000000E+000	-21.493	0.0000000E+000	0.0000000E+000	0.0000000E+000	21.493	2.53956	68.507	-2.33938e-06	0.000328702	1.87787e-08	0.000328683	3.87545	45697.6	2.6107	45695
100004	0.986608	0.370056	1.05373	-20.56	6.46754	3.8756	0.0769516	4.30067	0.530416	1	9	0.00533104	0.00505923	0	0.000101364	8.77309e-05	5.47457e-05	87.7262	0.010821	0.000429316	-0.0108125	-19.9995	1.05038	0.987038	0.359244	0.888566	0.333282	0.949014	20.56	530.416	1414.14	1510.35	-69.44	0.0000000E+000	0.0000000E+000	0.0000000E+000	69.44	0.0000000E+000	0.0000000E+000	0.0000000E+000	-69.44	0.0000000E+000	0.0000000E+000	0.0000000E+000	-20.56	0.0000000E+000	0.0000000E+000	0.0000000E+000	20.56	2.66611	69.44	1.363e-05	0.000298234	6.75104e-09	0.000298227	3.87551	50364.1	1.14008	50363
63093.8	1.11377	0.375512	1.17537	-18.6316	7.23553	3.87558	0.0711034	6.71754	0.685654	1	9	0.00530501	0.00451347	0	0.0001029	3.04368e-05	5.58817e-05	95.2127	0.0123811	-0.00112486	-0.0123299	-18.0773	1.17042	1.11265	0.363182	0.806205	0.271814	0.850794	18.6316	685.654	2033.66	2146.14	-71.3684	0.0000000E+000	0.0000000E+000	0.0000000E+000	71.3684	0.0000000E+000	0.0000000E+000	0.0000000E+000	-71.3684	0.0000000E+000	0.0000000E+000	0.0000000E+000	-18.6316	0.0000000E+000	0.0000000E+000	0.0000000E+000	18.6316	2.96602	71.3684	6.16361e-06	0.000275567	2.16416e-09	0.000275565	3.87555	54506.3	0.428064	54505.8
39814.1	1.22644	0.370375	1.28115	-16.8039	8.00353	3.87559	0.0716994	10.793	0.902045	1	9	0.00532258	0.00415455	0	0.000119593	1.13388e-05	1.77349e-05	45.2594	0.0042688	0.00300481	-0.00303213	-16.6355	1.28315	1.22945	0.367343	0.747221	0.225655	0.780551	16.8039	902.045	2986.98	3120.22	-73.1961	0.0000000E+000	0.0000000E+000	0.0000000E+000	73.1961	0.0000000E+000	0.0000000E+000	0.0000000E+000	-73.1961	0.0000000E+000	0.0000000E+000	0.0000000E+000	-16.8039	0.0000000E+000	0.0000000E+000	0.0000000E+000	16.8039	3.31135	73.1961	9.30822e-06	0.000277877	8.12985e-10	0.000277877	3.87558	54053.3	0.158143	54053.1
25116.9	1.3303	0.379878	1.38348	-15.9371	8.77354	3.87559	0.0727051	16.6805	1.25764	1	9	0.00531834	0.00384419	0	0.000143173	6.86329e-05	1.54355e-05	33.4343	0.00401529	0.00335083	-0.00221235	-15.8112	1.38609	1.33365	0.377666	0.695035	0.198473	0.722817	15.9371	1257.64	4404.13	4580.18	-74.0629	0.0000000E+000	0.0000000E+000	0.0000000E+000	74.0629	0.0000000E+000	0.0000000E+000	0.0000000E+000	-74.0629	0.0000000E+000	0.0000000E+000	0.0000000E+000	-15.9371	0.0000000E+000	0.0000000E+000	0.0000000E+000	15.9371	3.50191	74.0629	1.20375e-05	0.000281775	4.98996e-09	0.00028177	3.87552	53305.6	0.94399	53304.6
15847.7	1.428	0.393904	1.48134	-15.4211	9.41756	3.87558	0.0797081	25.4955	1.80276	1	9	0.00527123	0.00355843	0	0.000163255	-2.68573e-05	8.37169e-06	-115.393	0.00235264	-0.00100887	0.00212534	-15.5108	1.48093	1.42699	0.396029	0.650762	0.179508	0.675067	15.4211	1802.76	6535.47	6779.55	-74.5789	0.0000000E+000	0.0000000E+000	0.0000000E+000	74.5789	0.0000000E+000	0.0000000E+000	0.0000000E+000	-74.5789	0.0000000E+000	0.0000000E+000	0.0000000E+000	-15.4211	0.0000000E+000	0.0000000E+000	0.0000000E+000	15.4211	3.62526	74.5789	8.09188e-06	0.000308915	-2.14074e-09	0.000308917	3.87561	48622.2	0.336946	48622.5
10002.2	1.52919	0.423835	1.58683	-15.4915	9.93555	3.87557	0.0741951	37.5428	2.67829	1	9	0.00497958	0.00313806	0	0.00017895	0.0003933	6.58561e-06	-104.704	0.00209863	-0.000532691	0.00202989	-15.5672	1.58687	1.52865	0.425865	0.607291	0.168319	0.630185	15.4915	2678.29	9663.18	10027.5	-74.5085	0.0000000E+000	0.0000000E+000	0.0000000E+000	74.5085	0.0000000E+000	0.0000000E+000	0.0000000E+000	-74.5085	0.0000000E+000	0.0000000E+000	0.0000000E+000	-15.4915	0.0000000E+000	0.0000000E+000	0.0000000E+000	15.4915	3.60797	74.5085	7.55854e-06	0.000287548	2.91809e-08	0.000287519	3.87517	52234.8	5.30088	52229.5
6309.38	1.63485	0.4699	1.70104	-16.0361	10.4535	3.87557	0.0809001	53.682	4.09647	1	9	0.00473705	0.0027848	0	0.000186217	0.000278711	5.0991e-06	2.65571	0.00183105	0.00182908	-8.48402e-05	-16.0163	1.70277	1.63668	0.469815	0.565001	0.162397	0.587876	16.0361	4096.47	14252.2	14829.3	-73.9639	0.0000000E+000	0.0000000E+000	0.0000000E+000	73.9639	0.0000000E+000	0.0000000E+000	0.0000000E+000	-73.9639	0.0000000E+000	0.0000000E+000	0.0000000E+000	-16.0361	0.0000000E+000	0.0000000E+000	0.0000000E+000	16.0361	3.47914	73.9639	3.78613e-06	0.000313534	2.25478e-08	0.000313511	3.87529	47905.7	3.44513	47902.2
3983.6	1.76587	0.537793	1.84595	-16.938	11.0161	3.87541	-0.0208668	74.2898	6.3055	1	9	0.00462055	0.00250307	0	0.000190223	0.000145025	7.28913e-06	-109.506	0.00291207	-0.000972347	0.00274494	-17.0283	1.84582	1.7649	0.540538	0.518227	0.157825	0.541727	16.938	6305.5	20704.5	21643.3	-73.062	0.0000000E+000	0.0000000E+000	0.0000000E+000	73.062	0.0000000E+000	0.0000000E+000	0.0000000E+000	-73.062	0.0000000E+000	0.0000000E+000	0.0000000E+000	-16.938	0.0000000E+000	0.0000000E+000	0.0000000E+000	16.938	3.28356	73.062	-1.05764e-06	-8.08674e-05	-3.02621e-09	-8.08644e-05	3.87527	185721	6.95004	185714
2510.8	1.91318	0.6338	2.01543	-18.329	11.8408	3.87544	0.0404839	100.013	9.89064	1	9	0.00454821	0.0022567	0	0.000191929	0.000145025	9.35099e-06	-90.8816	0.00414367	-6.37545e-05	0.00414318	-18.4414	2.01668	1.91312	0.637943	0.470999	0.156033	0.496172	18.329	9890.63	29855.7	31451.4	-71.671	0.0000000E+000	0.0000000E+000	0.0000000E+000	71.671	0.0000000E+000	0.0000000E+000	0.0000000E+000	-71.671	0.0000000E+000	0.0000000E+000	0.0000000E+000	-18.329	0.0000000E+000	0.0000000E+000	0.0000000E+000	18.329	3.01859	71.671	6.64622e-06	0.000156893	5.87117e-09	0.000156887	3.87529	95728	3.58229	95724.4
1585.51	2.07037	0.747529	2.20119	-19.8527	12.7428	3.87544	0.0430913	134.284	15.487	1	9	0.00450543	0.00204682	0	0.000201611	0.000240515	7.28195e-06	2.4378	0.00355769	0.00355447	-0.000151325	-19.8176	2.20448	2.07392	0.747378	0.427301	0.154282	0.454301	19.8527	15487	42892.9	45603.2	-70.1473	0.0000000E+000	0.0000000E+000	0.0000000E+000	70.1473	0.0000000E+000	0.0000000E+000	0.0000000E+000	-70.1473	0.0000000E+000	0.0000000E+000	0.0000000E+000	-19.8527	0.0000000E+000	0.0000000E+000	0.0000000E+000	19.8527	2.76961	70.1473	3.20671e-06	0.000166998	1.03641e-08	0.000166988	3.8752	89935.4	5.58152	89929.8
1000.32	2.29427	0.897141	2.46344	-21.3573	13.8588	3.87542	0.0424208	177.346	23.5212	1	9	0.00497727	0.00202046	0	0.000213163	8.77309e-05	6.71507e-06	-5.41717	0.00332354	0.00330869	0.000313764	-21.3361	2.46663	2.29758	0.897455	0.37806	0.147835	0.405937	21.3573	23521.2	60150.9	64586.2	-68.6427	0.0000000E+000	0.0000000E+000	0.0000000E+000	68.6427	0.0000000E+000	0.0000000E+000	0.0000000E+000	-68.6427	0.0000000E+000	0.0000000E+000	0.0000000E+000	-21.3573	0.0000000E+000	0.0000000E+000	0.0000000E+000	21.3573	2.55731	68.6427	4.67229e-06	0.000164399	3.72162e-09	0.000164395	3.87533	91356.6	2.06811	91354.5
631.01	2.56903	1.09367	2.79214	-23.06	14.7605	3.87544	0.0434266	230.621	35.3831	1	9	0.00496454	0.00177804	0	0.000221887	-0.000122347	6.11138e-06	16.9832	0.00343714	0.00328725	-0.00100396	-23.0147	2.79477	2.57232	1.09266	0.329531	0.140285	0.358149	23.06	35383.1	83115.1	90333.2	-66.94	0.0000000E+000	0.0000000E+000	0.0000000E+000	66.94	0.0000000E+000	0.0000000E+000	0.0000000E+000	-66.94	0.0000000E+000	0.0000000E+000	0.0000000E+000	-23.06	0.0000000E+000	0.0000000E+000	0.0000000E+000	23.06	2.34901	66.94	4.48144e-06	0.000168297	-5.31313e-09	0.000168302	3.87556	89241.1	2.81734	89244
398.089	2.96107	1.31038	3.23806	-23.8711	15.9078	3.87548	-0.0197216	305.1	49.9653	1	10	0.00500548	0.00154583	0	0.00022038	0.000164123	3.93629e-05	-110.639	0.0254639	-0.00897544	0.0238297	-24.3208	3.23959	2.95209	1.33421	0.28241	0.124977	0.308827	23.8711	49965.3	112907	123468	-66.1289	0.0000000E+000	0.0000000E+000	0.0000000E+000	66.1289	0.0000000E+000	0.0000000E+000	0.0000000E+000	-66.1289	0.0000000E+000	0.0000000E+000	0.0000000E+000	-23.8711	0.0000000E+000	0.0000000E+000	0.0000000E+000	23.8711	2.2597	66.1289	-2.06553e-06	-7.64307e-05	-3.23677e-09	-7.64274e-05	3.87532	196509	8.322	196501
251.044	3.45979	1.43835	3.74686	-22.5743	16.8061	3.87548	-0.0212309	440.764	64.9528	1	10	0.00496582	0.00132533	0	0.000216563	-4.59553e-05	6.19705e-06	-5.92567	0.00467586	0.00465088	0.000482728	-22.5538	3.75134	3.46444	1.43883	0.246442	0.102454	0.26689	22.5743	64952.8	156237	169201	-67.4257	0.0000000E+000	0.0000000E+000	0.0000000E+000	67.4257	0.0000000E+000	0.0000000E+000	0.0000000E+000	-67.4257	0.0000000E+000	0.0000000E+000	0.0000000E+000	-22.5743	0.0000000E+000	0.0000000E+000	0.0000000E+000	22.5743	2.40539	67.4257	-1.49859e-06	-8.22797e-05	9.75671e-10	-8.22807e-05	3.87553	182540	2.16455	182542
158.428	4.03693	1.43797	4.28539	-19.6061	17.7109	3.87548	-0.0219389	698.614	78.6606	1	10	0.00495083	0.00115528	0	0.00021397	0.000145025	1.04026e-05	21.3404	0.00900435	0.00838696	-0.00327675	-19.5273	4.29219	4.04531	1.43469	0.219822	0.0783015	0.233351	19.6061	78660.6	220830	234421	-70.3939	0.0000000E+000	0.0000000E+000	0.0000000E+000	70.3939	0.0000000E+000	0.0000000E+000	0.0000000E+000	-70.3939	0.0000000E+000	0.0000000E+000	0.0000000E+000	-19.6061	0.0000000E+000	0.0000000E+000	0.0000000E+000	19.6061	2.80738	70.3939	-1.8186e-06	-8.50237e-05	-3.18169e-09	-8.50206e-05	3.87533	176649	6.6104	176642
100.032	4.55308	1.28525	4.731	-15.7634	18.6098	3.87547	-0.0238991	1237.92	91.3615	1	10	0.00493546	0.00104322	0	0.000207864	0.000125927	1.09363e-05	-68.7114	0.0104833	0.00380611	0.00976794	-15.8646	4.73733	4.55688	1.29502	0.203422	0.0574225	0.211372	15.7634	91361.5	323653	336301	-74.2366	0.0000000E+000	0.0000000E+000	0.0000000E+000	74.2366	0.0000000E+000	0.0000000E+000	0.0000000E+000	-74.2366	0.0000000E+000	0.0000000E+000	0.0000000E+000	-15.7634	0.0000000E+000	0.0000000E+000	0.0000000E+000	15.7634	3.54255	74.2366	-3.35083e-06	-9.26201e-05	-3.00954e-09	-9.26171e-05	3.87534	162160	5.26912	162154
63.0823	4.95384	1.01662	5.05708	-11.5972	19.527	3.87547	-0.0200235	2481.72	100.294	1	10	0.00493929	0.000976709	0	0.000203293	0.000202319	6.96138e-06	-117.371	0.00712738	-0.00327682	0.00632945	-11.6749	5.05515	4.95056	1.02295	0.193706	0.0397521	0.197743	11.5972	100294	488714	498899	-78.4028	0.0000000E+000	0.0000000E+000	0.0000000E+000	78.4028	0.0000000E+000	0.0000000E+000	0.0000000E+000	-78.4028	0.0000000E+000	0.0000000E+000	0.0000000E+000	-11.5972	0.0000000E+000	0.0000000E+000	0.0000000E+000	11.5972	4.87284	78.4028	-3.08751e-06	-7.76003e-05	-4.05113e-09	-7.75962e-05	3.87527	193546	10.1041	193536
39.8089	5.19381	0.765676	5.24995	-8.3862	20.4278	3.87546	-0.020288	5221.49	111.065	1	10	0.00493925	0.000940819	0	0.000197439	0.000297809	3.73448e-06	-12.4835	0.0039694	0.00387555	0.000858022	-8.38929	5.2539	5.19769	0.766535	0.188441	0.0277802	0.190478	8.3862	111065	753384	761526	-81.6138	0.0000000E+000	0.0000000E+000	0.0000000E+000	81.6138	0.0000000E+000	0.0000000E+000	0.0000000E+000	-81.6138	0.0000000E+000	0.0000000E+000	0.0000000E+000	-8.3862	0.0000000E+000	0.0000000E+000	0.0000000E+000	8.3862	6.7833	81.6138	-2.55746e-06	-7.86256e-05	-6.04197e-09	-7.86196e-05	3.87517	191022	14.6791	191007
25.1044	5.33201	0.558429	5.36118	-5.97887	21.307	3.87549	-0.0188682	11352.8	123.173	1	10	0.00493325	0.000920181	0	0.000193151	0.000431496	8.42308e-06	-115.747	0.00915373	-0.00397639	0.00824494	-6.07098	5.35809	5.32804	0.566674	0.185512	0.0194289	0.186526	5.97887	123173	1.17609e+06	1.18252e+06	-84.0211	0.0000000E+000	0.0000000E+000	0.0000000E+000	84.0211	0.0000000E+000	0.0000000E+000	0.0000000E+000	-84.0211	0.0000000E+000	0.0000000E+000	0.0000000E+000	-5.97887	0.0000000E+000	0.0000000E+000	0.0000000E+000	5.97887	9.54824	84.0211	-3.01877e-06	-7.31236e-05	-8.14155e-09	-7.31155e-05	3.87506	205398	22.8689	205375
15.8576	5.40839	0.405281	5.42355	-4.28549	22.1851	3.87545	-0.0246332	24764.3	138.284	1	10	0.00492526	0.000908125	0	0.000189087	-8.41514e-05	1.09405e-05	11.204	0.0120473	0.0118177	-0.00234083	-4.25157	5.43516	5.4202	0.402941	0.183866	0.0137781	0.184381	4.28549	138284	1.84537e+06	1.85054e+06	-85.7145	0.0000000E+000	0.0000000E+000	0.0000000E+000	85.7145	0.0000000E+000	0.0000000E+000	0.0000000E+000	-85.7145	0.0000000E+000	0.0000000E+000	0.0000000E+000	-4.28549	0.0000000E+000	0.0000000E+000	0.0000000E+000	4.28549	13.3448	85.7145	-1.62432e-06	-9.54649e-05	2.07292e-09	-9.5467e-05	3.87554	157326	3.41618	157330
10.0032	5.47115	0.303615	5.47957	-3.1763	23.1658	3.8755	-0.0184099	52403.2	160.884	1	10	0.00493795	0.000901157	0	0.000184324	0.000106829	3.07586e-06	73.2024	0.00341323	0.000986394	-0.00326759	-3.14162	5.48037	5.47214	0.300347	0.182216	0.0101118	0.182496	3.1763	160883	2.89913e+06	2.90359e+06	-86.8237	0.0000000E+000	0.0000000E+000	0.0000000E+000	86.8237	0.0000000E+000	0.0000000E+000	0.0000000E+000	-86.8237	0.0000000E+000	0.0000000E+000	0.0000000E+000	-3.1763	0.0000000E+000	0.0000000E+000	0.0000000E+000	3.1763	18.02	86.8237	-8.6805e-06	-7.13473e-05	-1.96671e-09	-7.13454e-05	3.87539	210512	5.80281	210506
6.31058	5.51002	0.250004	5.51569	-2.59788	24.0903	3.87546	-0.0282741	100880	207.252	1	10	0.0049312	0.000894032	0	0.000179093	-0.000122347	6.93861e-06	-111.483	0.00776103	-0.00284232	0.00722183	-2.67419	5.51318	5.50718	0.257226	0.181115	0.00821765	0.181301	2.59788	207252	4.56777e+06	4.57247e+06	-87.4021	0.0000000E+000	0.0000000E+000	0.0000000E+000	87.4021	0.0000000E+000	0.0000000E+000	0.0000000E+000	-87.4021	0.0000000E+000	0.0000000E+000	0.0000000E+000	-2.59788	0.0000000E+000	0.0000000E+000	0.0000000E+000	2.59788	22.0397	87.4021	-1.12148e-05	-0.000109575	3.45926e-09	-0.000109578	3.87558	137068	4.3272	137072
3.97785	5.54958	0.227207	5.55423	-2.34445	25.0974	3.87548	-0.0176999	176096	294.677	1	10	0.00494058	0.000889517	0	0.000184864	0.000202319	1.94186e-05	-37.8372	0.0218305	0.0172408	0.0133913	-2.47479	5.57202	5.56682	0.240598	0.179892	0.00736502	0.180043	2.34445	294676	7.19754e+06	7.20357e+06	-87.6555	0.0000000E+000	0.0000000E+000	0.0000000E+000	87.6555	0.0000000E+000	0.0000000E+000	0.0000000E+000	-87.6555	0.0000000E+000	0.0000000E+000	0.0000000E+000	-2.34445	0.0000000E+000	0.0000000E+000	0.0000000E+000	2.34445	24.4252	87.6555	8.31141e-06	-6.85958e-05	-3.58104e-09	-6.85922e-05	3.87528	218954	11.4305	218943
2.51367	5.57951	0.231743	5.58432	-2.37839	26.6569	3.87549	-0.0115157	273215	470.518	1	10	0.00493483	0.000883694	0	0.000169974	1.13388e-05	4.13037e-06	32.016	0.00467398	0.00396307	-0.00247794	-2.35132	5.58818	5.58347	0.229265	0.178919	0.00743131	0.179073	2.37839	470518	1.13283e+07	1.13381e+07	-87.6216	0.0000000E+000	0.0000000E+000	0.0000000E+000	87.6216	0.0000000E+000	0.0000000E+000	0.0000000E+000	-87.6216	0.0000000E+000	0.0000000E+000	0.0000000E+000	-2.37839	0.0000000E+000	0.0000000E+000	0.0000000E+000	2.37839	24.0763	87.6216	-1.44565e-05	-4.4629e-05	-1.30574e-10	-4.46288e-05	3.87547	336539	0.984637	336538
1.58469	5.62661	0.262396	5.63272	-2.67005	29.6376	3.87549	-0.0150503	382754	830.612	1	11	0.00493424	0.000875996	0	0.000153782	-8.41514e-05	3.40178e-06	3.42463	0.00388333	0.0038764	-0.000231973	-2.66586	5.63658	5.63048	0.262164	0.177341	0.0082703	0.177534	2.67005	830613	1.78109e+07	1.78303e+07	-87.3299	0.0000000E+000	0.0000000E+000	0.0000000E+000	87.3299	0.0000000E+000	0.0000000E+000	0.0000000E+000	-87.3299	0.0000000E+000	0.0000000E+000	0.0000000E+000	-2.67005	0.0000000E+000	0.0000000E+000	0.0000000E+000	2.67005	21.4432	87.3299	3.32984e-06	-5.83271e-05	1.2665e-09	-5.83284e-05	3.87558	257503	5.59136	257509
1.00469	5.67336	0.286001	5.68057	-2.88591	240.456	3.87548	-0.0169629	553884	1404.01	1	11	0.00500382	0.000880867	0	-0.00395736	0.000202319	6.41638e-07	2.46221	0.000728416	0.000727744	-3.12931e-05	-2.88522	5.68129	5.67409	0.28597	0.175815	0.00886307	0.176039	2.88591	1.40401e+06	2.78512e+07	2.78865e+07	-87.1141	0.0000000E+000	0.0000000E+000	0.0000000E+000	87.1141	0.0000000E+000	0.0000000E+000	0.0000000E+000	-87.1141	0.0000000E+000	0.0000000E+000	0.0000000E+000	-2.88591	0.0000000E+000	0.0000000E+000	0.0000000E+000	2.88591	19.8369	87.1141	-0.00412725	-6.57395e-05	-3.43193e-09	-6.57361e-05	3.87528	228468	11.9271	228456
0.632957	5.74018	0.361316	5.75154	-3.60174	240.457	3.87548	-0.0169629	695919	2746.41	1	11	0.00501631	0.000872169	0	-0.00395736	0.000202319	8.37372e-07	1.69821	0.000960104	0.000959682	-2.84527e-05	-3.60085	5.75249	5.74114	0.361288	0.173523	0.0109224	0.173867	3.60174	2.74641e+06	4.36318e+07	4.37182e+07	-86.3983	0.0000000E+000	0.0000000E+000	0.0000000E+000	86.3983	0.0000000E+000	0.0000000E+000	0.0000000E+000	-86.3983	0.0000000E+000	0.0000000E+000	0.0000000E+000	-3.60174	0.0000000E+000	0.0000000E+000	0.0000000E+000	3.60174	15.8869	86.3983	0.000000000000000E+000	-6.57395e-05	-3.43193e-09	-6.57361e-05	3.87528	228468	11.9271	228456
0.401878	5.81208	0.455589	5.82991	-4.48206	240.459	3.87548	-0.0169629	869266	5308.55	1	11	0.00502926	0.000862665	0	-0.00395736	0.000202319	7.44554e-07	-17.0376	0.000863086	0.000825208	0.000252884	-4.4839	5.83076	5.81291	0.455842	0.171005	0.0134045	0.171529	4.48206	5.30855e+06	6.77227e+07	6.79304e+07	-85.5179	0.0000000E+000	0.0000000E+000	0.0000000E+000	85.5179	0.0000000E+000	0.0000000E+000	0.0000000E+000	-85.5179	0.0000000E+000	0.0000000E+000	0.0000000E+000	-4.48206	0.0000000E+000	0.0000000E+000	0.0000000E+000	4.48206	12.7573	85.5179	0.000000000000000E+000	-6.57395e-05	-3.43193e-09	-6.57361e-05	3.87528	228468	11.9271	228456
0.251173	5.93287	0.600284	5.96316	-5.77749	240.46	3.87548	-0.0169629	1.05558e+06	10696.7	1	11	0.00502983	0.000843483	0	-0.00395736	0.000202319	7.26278e-07	-11.9331	0.000861046	0.000842439	0.000178038	-5.77838	5.96402	5.93371	0.600462	0.166844	0.0168812	0.167696	5.77749	1.06967e+07	1.0572e+08	1.0626e+08	-84.2225	0.0000000E+000	0.0000000E+000	0.0000000E+000	84.2225	0.0000000E+000	0.0000000E+000	0.0000000E+000	-84.2225	0.0000000E+000	0.0000000E+000	0.0000000E+000	-5.77749	0.0000000E+000	0.0000000E+000	0.0000000E+000	5.77749	9.88344	84.2225	0.000000000000000E+000	-6.57395e-05	-3.43193e-09	-6.57361e-05	3.87528	228468	11.9271	228456
0.160751	6.09789	0.681655	6.13587	-6.37835	240.461	3.87548	-0.0169629	1.45245e+06	17925.8	1	11	0.0050253	0.000819003	0	-0.00395736	0.000202319	5.33385e-07	-23.9655	0.000651261	0.000595116	0.000264534	-6.38019	6.13649	6.09849	0.68192	0.161967	0.0181056	0.162976	6.37835	1.79258e+07	1.60359e+08	1.61358e+08	-83.6217	0.0000000E+000	0.0000000E+000	0.0000000E+000	83.6217	0.0000000E+000	0.0000000E+000	0.0000000E+000	-83.6217	0.0000000E+000	0.0000000E+000	0.0000000E+000	-6.37835	0.0000000E+000	0.0000000E+000	0.0000000E+000	6.37835	8.94571	83.6217	0.000000000000000E+000	-6.57395e-05	-3.43193e-09	-6.57361e-05	3.87528	228468	11.9271	228456
0.100469	6.23873	0.939987	6.30915	-8.56828	240.462	3.87548	-0.0169629	1.68525e+06	37408.2	1	11	0.00502756	0.000796868	0	-0.00395736	0.000202319	9.3877e-07	-19.2638	0.00117808	0.00111211	0.000388668	-8.57026	6.3103	6.23984	0.940375	0.156731	0.0236146	0.1585	8.56828	3.74082e+07	2.4828e+08	2.51082e+08	-81.4317	0.0000000E+000	0.0000000E+000	0.0000000E+000	81.4317	0.0000000E+000	0.0000000E+000	0.0000000E+000	-81.4317	0.0000000E+000	0.0000000E+000	0.0000000E+000	-8.56828	0.0000000E+000	0.0000000E+000	0.0000000E+000	8.56828	6.63704	81.4317	0.000000000000000E+000	-6.57395e-05	-3.43193e-09	-6.57361e-05	3.87528	228468	11.9271	228456
0.0602816	6.52465	1.15575	6.62622	-10.0449	240.464	3.87548	-0.0169629	2.2844e+06	69497	1	11	0.00502415	0.000758223	0	-0.00395736	0.000202319	8.35292e-07	-15.6065	0.00110164	0.00106103	0.000296374	-10.0459	6.62732	6.52571	1.15605	0.148602	0.0263227	0.150915	10.0449	6.9497e+07	3.92338e+08	3.98446e+08	-79.9551	0.0000000E+000	0.0000000E+000	0.0000000E+000	79.9551	0.0000000E+000	0.0000000E+000	0.0000000E+000	-79.9551	0.0000000E+000	0.0000000E+000	0.0000000E+000	-10.0449	0.0000000E+000	0.0000000E+000	0.0000000E+000	10.0449	5.64539	79.9551	0.000000000000000E+000	-6.57395e-05	-3.43193e-09	-6.57361e-05	3.87528	228468	11.9271	228456
0.0401878	6.85368	1.40085	6.99538	-11.5518	240.465	3.87548	-0.0169629	2.82707e+06	113369	1	11	0.00502457	0.000718271	0	-0.00395736	0.000202319	1.18569e-06	0.0201354	0.00165075	0.00165075	-5.80122e-07	-11.5491	6.99699	6.85533	1.40085	0.140056	0.0286265	0.142952	11.5518	1.13369e+08	5.54661e+08	5.66129e+08	-78.4482	0.0000000E+000	0.0000000E+000	0.0000000E+000	78.4482	0.0000000E+000	0.0000000E+000	0.0000000E+000	-78.4482	0.0000000E+000	0.0000000E+000	0.0000000E+000	-11.5518	0.0000000E+000	0.0000000E+000	0.0000000E+000	11.5518	4.89253	78.4482	0.000000000000000E+000	-6.57395e-05	-3.43193e-09	-6.57361e-05	3.87528	228468	11.9271	228456
0.0200939	7.67233	2.10345	7.95544	-15.3315	240.466	3.87548	-0.0169629	3.76551e+06	263245	1	11	0.00502356	0.000631462	0	-0.00395736	0.000202319	8.06663e-07	-2.53991	0.00127745	0.0012762	5.66106e-05	-15.3295	7.95669	7.6736	2.10351	0.121227	0.0332356	0.1257	15.3315	2.63245e+08	9.60184e+08	9.95616e+08	-74.6685	0.0000000E+000	0.0000000E+000	0.0000000E+000	74.6685	0.0000000E+000	0.0000000E+000	0.0000000E+000	-74.6685	0.0000000E+000	0.0000000E+000	0.0000000E+000	-15.3315	0.0000000E+000	0.0000000E+000	0.0000000E+000	15.3315	3.64749	74.6685	0.000000000000000E+000	-6.57395e-05	-3.43193e-09	-6.57361e-05	3.87528	228468	11.9271	228456
0.00796479	8.35701	2.41459	8.69884	-16.1156	20329.4	3.87552	-0.000166526	8.27565e+06	637627	1	11	0.00501721	0.000576767	0	-0.0626179	1.13388e-05	2.82489e-07	-159.315	0.00048978	-0.000458206	0.000173008	-16.1175	8.69845	8.35655	2.41477	0.11044	0.0319095	0.114958	16.1156	6.37627e+08	2.20686e+09	2.29712e+09	-73.8844	0.0000000E+000	0.0000000E+000	0.0000000E+000	73.8844	0.0000000E+000	0.0000000E+000	0.0000000E+000	-73.8844	0.0000000E+000	0.0000000E+000	0.0000000E+000	-16.1156	0.0000000E+000	0.0000000E+000	0.0000000E+000	16.1156	3.46104	73.8844	-0.0586605	-6.45374e-07	-1.8882e-12	-6.45372e-07	3.87551	2.32728e+07	68.0904	2.32728e+07
0.00497799	9.10898	2.48222	9.44113	-15.2431	20329.4	3.87552	-0.000166526	1.28803e+07	890345	1	11	0.0050234	0.000532076	0	-0.0626179	1.13388e-05	3.97841e-07	-130.32	0.000747715	-0.000483809	0.000570094	-15.2472	9.44082	9.1085	2.48279	0.102193	0.0278479	0.105919	15.2431	8.90345e+08	3.26729e+09	3.38643e+09	-74.7569	0.0000000E+000	0.0000000E+000	0.0000000E+000	74.7569	0.0000000E+000	0.0000000E+000	0.0000000E+000	-74.7569	0.0000000E+000	0.0000000E+000	0.0000000E+000	-15.2431	0.0000000E+000	0.0000000E+000	0.0000000E+000	15.2431	3.66969	74.7569	0.000000000000000E+000	-6.45374e-07	-1.8882e-12	-6.45372e-07	3.87551	2.32728e+07	68.0904	2.32728e+07
0.00318591	9.63634	3.26051	10.173	-18.6936	20329.4	3.87552	-0.000166526	1.53215e+07	1.57389e+06	1	11	0.00502524	0.000493978	0	-0.0626179	1.13388e-05	6.44026e-07	-157.637	0.00130375	-0.0012057	0.000496047	-18.6984	10.172	9.63513	3.26101	0.0931137	0.0315056	0.0982994	18.6936	1.57389e+09	4.65157e+09	4.91063e+09	-71.3064	0.0000000E+000	0.0000000E+000	0.0000000E+000	71.3064	0.0000000E+000	0.0000000E+000	0.0000000E+000	-71.3064	0.0000000E+000	0.0000000E+000	0.0000000E+000	-18.6936	0.0000000E+000	0.0000000E+000	0.0000000E+000	18.6936	2.95547	71.3064	0.000000000000000E+000	-6.45374e-07	-1.8882e-12	-6.45372e-07	3.87551	2.32728e+07	68.0904	2.32728e+07
0.0019912	10.0445	3.9154	10.7806	-21.2962	20329.4	3.87552	-0.000166526	2.04141e+07	2.69275e+06	1	11	0.00502808	0.000466401	0	-0.0626179	1.13388e-05	7.09483e-07	-33.0293	0.00152119	0.00127535	0.00082915	-21.2979	10.7821	10.0457	3.91623	0.0864251	0.0336892	0.0927592	21.2962	2.69275e+09	6.9079e+09	7.41418e+09	-68.7038	0.0000000E+000	0.0000000E+000	0.0000000E+000	68.7038	0.0000000E+000	0.0000000E+000	0.0000000E+000	-68.7038	0.0000000E+000	0.0000000E+000	0.0000000E+000	-21.2962	0.0000000E+000	0.0000000E+000	0.0000000E+000	21.2962	2.56537	68.7038	0.000000000000000E+000	-6.45374e-07	-1.8882e-12	-6.45372e-07	3.87551	2.32728e+07	68.0904	2.32728e+07
0.00129428	9.74376	5.03995	10.9701	-27.3502	20329.4	3.87552	-0.000166526	2.43987e+07	5.14994e+06	1	11	0.00503157	0.000458665	0	-0.0626179	1.13388e-05	8.40194e-07	-7.4616	0.00183183	0.00181631	0.000237884	-27.347	10.9718	9.74558	5.04019	0.0809672	0.0418802	0.0911573	27.3502	5.14994e+09	9.95639e+09	1.12094e+10	-62.6498	0.0000000E+000	0.0000000E+000	0.0000000E+000	62.6498	0.0000000E+000	0.0000000E+000	0.0000000E+000	-62.6498	0.0000000E+000	0.0000000E+000	0.0000000E+000	-27.3502	0.0000000E+000	0.0000000E+000	0.0000000E+000	27.3502	1.9333	62.6498	0.000000000000000E+000	-6.45374e-07	-1.8882e-12	-6.45372e-07	3.87551	2.32728e+07	68.0904	2.32728e+07
0.000796479	10.7895	7.34253	13.0509	-34.2363	20329.4	3.87552	-0.000166526	2.72145e+07	8.61412e+06	1	11	0.00502793	0.000385255	0	-0.0626179	1.13388e-05	1.88805e-06	-24.5581	0.00490077	0.00445745	0.00203684	-34.2327	13.0557	10.794	7.34457	0.0633462	0.0431087	0.0766231	34.2363	8.61411e+09	1.2658e+10	1.53111e+10	-55.7637	0.0000000E+000	0.0000000E+000	0.0000000E+000	55.7637	0.0000000E+000	0.0000000E+000	0.0000000E+000	-55.7637	0.0000000E+000	0.0000000E+000	0.0000000E+000	-34.2363	0.0000000E+000	0.0000000E+000	0.0000000E+000	34.2363	1.46945	55.7637	0.000000000000000E+000	-6.45374e-07	-1.8882e-12	-6.45372e-07	3.87551	2.32728e+07	68.0904	2.32728e+07
0.000497799	10.4661	10.3841	14.7434	-44.7747	20329.4	3.87552	-0.000166526	3.07892e+07	1.52735e+07	1	11	0.00503317	0.000341385	0	-0.0626179	1.13388e-05	1.96366e-06	96.0166	0.00575205	-0.000602909	-0.00572036	-44.7606	14.7389	10.4655	10.3784	0.0481492	0.047772	0.067827	44.7747	1.52735e+10	1.53941e+10	2.16855e+10	-45.2253	0.0000000E+000	0.0000000E+000	0.0000000E+000	45.2253	0.0000000E+000	0.0000000E+000	0.0000000E+000	-45.2253	0.0000000E+000	0.0000000E+000	0.0000000E+000	-44.7747	0.0000000E+000	0.0000000E+000	0.0000000E+000	44.7747	1.0079	45.2253	0.000000000000000E+000	-6.45374e-07	-1.8882e-12	-6.45372e-07	3.87551	2.32728e+07	68.0904	2.32728e+07
0.000298679	9.66112	16.2572	18.9112	-59.2783	20329.4	3.87552	-0.000166526	3.2777e+07	2.42227e+07	1	11	0.00503749	0.000266376	0	-0.0626179	1.13388e-05	3.59215e-06	95.6447	0.0134852	-0.00132641	-0.0134198	-59.261	18.899	9.65979	16.2438	0.0270141	0.0454577	0.0528788	59.2783	2.42227e+10	1.43948e+10	2.81771e+10	-30.7217	0.0000000E+000	0.0000000E+000	0.0000000E+000	30.7217	0.0000000E+000	0.0000000E+000	0.0000000E+000	-30.7217	0.0000000E+000	0.0000000E+000	0.0000000E+000	-59.2783	0.0000000E+000	0.0000000E+000	0.0000000E+000	59.2783	0.594268	30.7217	0.000000000000000E+000	-6.45374e-07	-1.8882e-12	-6.45372e-07	3.87551	2.32728e+07	68.0904	2.32728e+07
9.95598e-05	8.46986	71.9859	72.4825	-83.2894	20329.4	3.87552	-0.000166526	2.22069e+07	2.19037e+07	1	11	0.00502876	6.93789e-05	0	-0.0626179	1.13388e-05	7.10164e-06	-72.7758	0.10236	0.0303101	0.0977696	-83.2747	72.5832	8.50017	72.0837	0.00161217	0.0137019	0.0137964	83.2894	2.19037e+10	2.57719e+09	2.20548e+10	-6.71056	0.0000000E+000	0.0000000E+000	0.0000000E+000	6.71056	0.0000000E+000	0.0000000E+000	0.0000000E+000	-6.71056	0.0000000E+000	0.0000000E+000	0.0000000E+000	-83.2894	0.0000000E+000	0.0000000E+000	0.0000000E+000	83.2894	0.11766	6.71057	0.000000000000000E+000	-6.45374e-07	-1.8882e-12	-6.45372e-07	3.87551	2.32728e+07	68.0904	2.32728e+07