File: txt/19321_R313_UC98_SOC50_C05.mpt
EC-Lab ASCII FILE
Nb header lines : 65

Potentio Electrochemical Impedance Spectroscopy

Run on channel : 5 (SN 65912)
User :
CE vs. WE compliance from -10 V to 10 V
Electrode connection : standard
Potential control : Ewe
Ewe ctrl range : min = -10.00 V, max = 10.00 V
Safety Limits :
	Do not start on E overload
Acquisition started on : 11/18/2025 16:33:09.639
Technique started on : 11/18/2025 16:33:10.525
Loaded Setting File :  C:\Users\Celltest\OneDrive - store-dot.com\Documents\EC-Lab\Data\txt_done\19191_R297_UC94_SOC50_C08.mpr
Saved on :
	File : 19321_R313_UC98_SOC50_C05.mpr
	Directory : C:\Users\Celltest\OneDrive - store-dot.com\Documents\EC-Lab\Data\Michael\
	Host : 169.254.61.224
Device : VMP-3e (SN .003165)
Address : USB
EC-LAB for windows v11.62 (software)
Internet server v27.00 (firmware)
Command interpretor v12.03 (firmware)
Electrode material :
Initial state :
Electrolyte :
Comments :
Electrode surface area : 0.001 cm²
Characteristic mass : 0.001 g
Equivalent Weight : 0.000 g/eq.
Density : 0.000 g/cm3
Volume (V) : 0.001 cm³
Record Ece
Cycle Definition : Charge/Discharge alternance
Mode                Multi sine
E (V)               0.0000
vs.                 Eoc
tE (h:m:s)          0:00:0.0000
record              0
dI                  0.000
unit dI             mA
dt (s)              0.000
fi                  1.000
unit fi             MHz
ff                  0.100
unit ff             mHz
Nd                  10
Points              per decade
spacing             Logarithmic
Va (mV)             5.0
pw                  0.10
Na                  2
corr                0
E range min (V)     -10.000
E range max (V)     10.000
I Range             Auto
Bandwidth           5
nc cycles           0
goto Ns'            0
nr cycles           0
inc. cycle          0

freq/Hz	Re(Z)/Ohm	-Im(Z)/Ohm	|Z|/Ohm	Phase(Z)/deg	time/s	<Ewe>/V	<I>/mA	Cs/µF	Cp/µF	cycle number	I Range	|Ewe|/V	|I|/A	Ns	(Q-Qo)/mA.h	<Ece>/V	|Ece|/V	Phase(Zce)/deg	|Zce|/Ohm	Re(Zce)/Ohm	-Im(Zce)/Ohm	Phase(Zwe-ce)/deg	|Zwe-ce|/Ohm	Re(Zwe-ce)/Ohm	-Im(Zwe-ce)/Ohm	Re(Y)/Ohm-1	Im(Y)/Ohm-1	|Y|/Ohm-1	Phase(Y)/deg	Re(C)/nF	Im(C)/nF	|C|/nF	Phase(C)/deg	Re(M)	Im(M)	|M|	Phase(M)/deg	Re(Permittivity)	Im(Permittivity)	|Permittivity|	Phase(Permittivity)/deg	Re(Resistivity)/Ohm.cm	Im(Resistivity)/Ohm.cm	|Resistivity|/Ohm.cm	Phase(Resistivity)/deg	Re(Conductivity)/mS/cm	Im(Conductivity)/mS/cm	|Conductivity|/mS/cm	Phase(Conductivity)/deg	Tan(Delta)	Loss Angle(Delta)/deg	dq/mA.h	Pwe/W	Pce/W	Pwe-ce/W	<Ewe-Ece>/V	Rwe/Ohm	Rce/Ohm	Rwe-ce/Ohm		Ewe-Ece/V
1.00002e+06	-67.6433	-357.159	363.508	100.724	0.88553	3.87553	-0.0771111	-0.000445606	-0.000430175	1	12	0.000169932	4.67478e-07	0	-7.71296e-06	-0.000181206	0.000174195	96.8113	372.626	-44.1934	-369.996	98.7436	735.705	-111.837	-727.155	-0.000511913	-0.00270292	0.00275097	-100.724	-0.430175	-0.081472	0.437822	169.276	0.0000000E+000	0.0000000E+000	0.0000000E+000	-169.276	0.0000000E+000	0.0000000E+000	0.0000000E+000	169.276	0.0000000E+000	0.0000000E+000	0.0000000E+000	100.724	0.0000000E+000	0.0000000E+000	0.0000000E+000	-100.724	0.189393	10.7244	-7.71296e-06	-0.000298847	1.3973e-08	-0.000298861	3.87571	50259.1	2.34993	50261.4
630957	0.360897	0.213937	0.419542	-30.6591	2.98852	3.87632	0.0503266	1.17906	0.306588	1	9	0.000154077	0.000367251	0	3.1482e-06	-2.84759e-05	0.000110877	-108.606	0.30191	-0.0963275	0.286131	-62.1182	0.565742	0.264569	0.500068	2.05037	1.21544	2.38355	30.6591	306.588	517.193	601.236	-59.3409	0.0000000E+000	0.0000000E+000	0.0000000E+000	59.3409	0.0000000E+000	0.0000000E+000	0.0000000E+000	-59.3409	0.0000000E+000	0.0000000E+000	0.0000000E+000	-30.6591	0.0000000E+000	0.0000000E+000	0.0000000E+000	30.6591	1.68693	59.3409	5.54293e-06	0.000195082	-1.43309e-09	0.000195084	3.87635	77023.3	0.565821	77023.9
398103	0.560451	0.139364	0.577519	-13.9641	3.75457	3.8761	0.0239609	2.86863	0.167048	1	9	0.00059846	0.00103626	0	1.03589e-05	-0.000219388	4.35194e-05	162.858	0.0419966	-0.040131	-0.0123782	-13.7151	0.535592	0.52032	0.126985	1.68037	0.417847	1.73155	13.9641	167.048	671.784	692.242	-76.0359	0.0000000E+000	0.0000000E+000	0.0000000E+000	76.0359	0.0000000E+000	0.0000000E+000	0.0000000E+000	-76.0359	0.0000000E+000	0.0000000E+000	0.0000000E+000	-13.9641	0.0000000E+000	0.0000000E+000	0.0000000E+000	13.9641	4.02151	76.0359	3.75958e-06	9.28746e-05	-5.25673e-09	9.28799e-05	3.87632	161768	9.1561	161777
251206	0.69551	0.259669	0.742403	-20.4731	4.52255	3.87586	-0.0174497	2.43989	0.29849	1	9	0.0020291	0.00273315	0	9.88876e-06	0.000238801	5.05236e-05	100.001	0.0184855	-0.0032103	-0.0182046	-19.228	0.733201	0.692299	0.241464	1.2619	0.47113	1.34698	20.4731	298.491	799.492	853.395	-69.5269	0.0000000E+000	0.0000000E+000	0.0000000E+000	69.5269	0.0000000E+000	0.0000000E+000	0.0000000E+000	-69.5269	0.0000000E+000	0.0000000E+000	0.0000000E+000	-20.4731	0.0000000E+000	0.0000000E+000	0.0000000E+000	20.4731	2.67845	69.5269	1.43363e-06	-6.76328e-05	-4.16702e-09	-6.76286e-05	3.87562	222115	13.6851	222102
158486	0.822705	0.35881	0.897545	-23.5637	5.29056	3.87571	-0.035511	2.79876	0.447281	1	9	0.00508463	0.00566504	0	1.90688e-05	0.000200619	5.75179e-05	81.8922	0.0101531	0.00143196	-0.0100517	-22.9371	0.894893	0.824137	0.348758	1.02125	0.445401	1.11415	23.5637	447.281	1025.56	1118.85	-66.4363	0.0000000E+000	0.0000000E+000	0.0000000E+000	66.4363	0.0000000E+000	0.0000000E+000	0.0000000E+000	-66.4363	0.0000000E+000	0.0000000E+000	0.0000000E+000	-23.5637	0.0000000E+000	0.0000000E+000	0.0000000E+000	23.5637	2.29287	66.4363	4.86898e-06	-0.00013763	-7.12417e-09	-0.000137623	3.87551	109141	5.64948	109135
100004	0.974967	0.410905	1.05802	-22.8533	6.05855	3.87559	-0.0472043	3.87313	0.584196	1	9	0.00532308	0.00503118	0	-1.12577e-05	4.7889e-05	3.94092e-05	88.2192	0.00783299	0.000243418	-0.0078292	-22.4564	1.05523	0.975211	0.403076	0.87097	0.367075	0.945162	22.8533	584.196	1386.14	1504.22	-67.1467	0.0000000E+000	0.0000000E+000	0.0000000E+000	67.1467	0.0000000E+000	0.0000000E+000	0.0000000E+000	-67.1467	0.0000000E+000	0.0000000E+000	0.0000000E+000	-22.8533	0.0000000E+000	0.0000000E+000	0.0000000E+000	22.8533	2.37273	67.1467	-2.45688e-05	-0.000182945	-2.26057e-09	-0.000182942	3.87555	82102.6	1.01451	82101.6
63093.8	1.12397	0.42883	1.203	-20.8834	6.82453	3.8756	-0.0430707	5.88231	0.747462	1	9	0.00535295	0.00444968	0	-1.71478e-05	-0.000181206	2.51685e-05	81.2017	0.00565625	0.000865164	-0.00558969	-20.6198	1.20183	1.12484	0.423241	0.776649	0.296316	0.831257	20.8834	747.461	1959.11	2096.85	-69.1166	0.0000000E+000	0.0000000E+000	0.0000000E+000	69.1166	0.0000000E+000	0.0000000E+000	0.0000000E+000	-69.1166	0.0000000E+000	0.0000000E+000	0.0000000E+000	-20.8834	0.0000000E+000	0.0000000E+000	0.0000000E+000	20.8834	2.62101	69.1166	1.13454e-06	-0.000166925	7.80465e-09	-0.000166932	3.87578	89982.2	4.20717	89986.4
39814.1	1.26591	0.422498	1.33455	-18.4565	7.59053	3.87559	-0.0340959	9.46147	0.948285	1	9	0.00540027	0.00404651	0	-1.84814e-05	0.000124254	1.3826e-05	37.9418	0.00341677	0.00269459	-0.00210084	-18.3345	1.33644	1.2686	0.420398	0.710774	0.237222	0.749316	18.4565	948.285	2841.29	2995.36	-71.5435	0.0000000E+000	0.0000000E+000	0.0000000E+000	71.5435	0.0000000E+000	0.0000000E+000	0.0000000E+000	-71.5435	0.0000000E+000	0.0000000E+000	0.0000000E+000	-18.4565	0.0000000E+000	0.0000000E+000	0.0000000E+000	18.4565	2.99624	71.5435	7.37973e-06	-0.000132142	-4.23655e-09	-0.000132137	3.87546	113667	3.64424	113664
25116.9	1.38828	0.422913	1.45127	-16.9423	8.35654	3.87558	-0.0358462	14.9832	1.27236	1	9	0.00529829	0.0036508	0	-3.21446e-05	0.000105163	6.82941e-06	-16.2016	0.00187066	0.00179637	0.000521948	-16.9414	1.45314	1.39008	0.423435	0.659147	0.200796	0.689053	16.9423	1272.36	4176.73	4366.23	-73.0577	0.0000000E+000	0.0000000E+000	0.0000000E+000	73.0577	0.0000000E+000	0.0000000E+000	0.0000000E+000	-73.0577	0.0000000E+000	0.0000000E+000	0.0000000E+000	-16.9423	0.0000000E+000	0.0000000E+000	0.0000000E+000	16.9423	3.28266	73.0577	-2.27035e-06	-0.000138925	-3.76968e-09	-0.000138921	3.87547	108117	2.93372	108114
15847.7	1.50352	0.424259	1.56223	-15.7579	8.99854	3.87557	-0.0413205	23.6714	1.7458	1	9	0.00474271	0.00303585	0	-3.51522e-05	0.000162436	9.54529e-06	-1.58369	0.00314419	0.00314299	8.68959e-05	-15.7297	1.56528	1.50666	0.424346	0.616054	0.173836	0.64011	15.7579	1745.8	6186.9	6428.49	-74.2421	0.0000000E+000	0.0000000E+000	0.0000000E+000	74.2421	0.0000000E+000	0.0000000E+000	0.0000000E+000	-74.2421	0.0000000E+000	0.0000000E+000	0.0000000E+000	-15.7579	0.0000000E+000	0.0000000E+000	0.0000000E+000	15.7579	3.54387	74.2421	-2.67377e-06	-0.00016014	-6.71194e-09	-0.000160134	3.87541	93793.1	3.93113	93789.1
10002.2	1.607	0.439675	1.66606	-15.3016	9.64055	3.87557	-0.0365538	36.1903	2.52041	1	9	0.00476995	0.00286301	0	-3.72999e-05	-2.84759e-05	1.26478e-05	-112.149	0.00441767	-0.00166556	0.00409166	-15.4525	1.66554	1.60534	0.443767	0.578939	0.158398	0.600217	15.3016	2520.41	9212.06	9550.63	-74.6984	0.0000000E+000	0.0000000E+000	0.0000000E+000	74.6984	0.0000000E+000	0.0000000E+000	0.0000000E+000	-74.6984	0.0000000E+000	0.0000000E+000	0.0000000E+000	-15.3016	0.0000000E+000	0.0000000E+000	0.0000000E+000	15.3016	3.65498	74.6984	-2.81885e-07	-0.000141667	1.0409e-09	-0.000141668	3.8756	106024	0.779013	106025
6309.38	1.71742	0.4729	1.78134	-15.3951	10.1585	3.87558	-0.0334629	53.3413	3.75931	1	9	0.0044952	0.00252349	0	-4.60354e-05	0.000124254	8.81777e-06	22.2662	0.00349428	0.00323372	-0.00132402	-15.3266	1.78411	1.72066	0.471576	0.541231	0.14903	0.561374	15.3951	3759.31	13652.6	14160.7	-74.6049	0.0000000E+000	0.0000000E+000	0.0000000E+000	74.6049	0.0000000E+000	0.0000000E+000	0.0000000E+000	-74.6049	0.0000000E+000	0.0000000E+000	0.0000000E+000	-15.3951	0.0000000E+000	0.0000000E+000	0.0000000E+000	15.3951	3.63168	74.6049	-4.38757e-06	-0.000129688	-4.15789e-09	-0.000129684	3.87546	115817	3.71319	115814
3983.6	1.84345	0.530305	1.91821	-16.049	10.845	3.87541	-0.135835	75.3388	5.75809	1	9	0.00490865	0.00255898	0	-5.89977e-05	0.000143345	6.90866e-06	-13.5094	0.00269977	0.00262508	0.00063068	-16.0454	1.92091	1.84607	0.530936	0.501002	0.144123	0.52132	16.049	5758.09	20016.3	20828	-73.951	0.0000000E+000	0.0000000E+000	0.0000000E+000	73.951	0.0000000E+000	0.0000000E+000	0.0000000E+000	-73.951	0.0000000E+000	0.0000000E+000	0.0000000E+000	-16.049	0.0000000E+000	0.0000000E+000	0.0000000E+000	16.049	3.4762	73.951	-8.27585e-06	-0.000526417	-1.94713e-08	-0.000526397	3.87527	28530.2	1.05529	28529.2
2510.8	1.9692	0.617094	2.06363	-17.3995	11.6698	3.8755	-0.0216206	102.72	9.18534	1	9	0.00482272	0.00233701	0	-7.36193e-05	2.87978e-05	6.65216e-06	22.5857	0.00284644	0.00262814	-0.00109322	-17.3488	2.06581	1.97183	0.616001	0.46241	0.144906	0.484583	17.3995	9185.34	29311.3	30716.8	-72.6004	0.0000000E+000	0.0000000E+000	0.0000000E+000	72.6004	0.0000000E+000	0.0000000E+000	0.0000000E+000	-72.6004	0.0000000E+000	0.0000000E+000	0.0000000E+000	-17.3995	0.0000000E+000	0.0000000E+000	0.0000000E+000	17.3995	3.19109	72.6004	-1.17711e-06	-8.37907e-05	-6.22626e-10	-8.379e-05	3.87547	179250	1.33196	179249
1585.51	2.12932	0.749447	2.25736	-19.3903	12.5718	3.87551	-0.0208014	133.94	14.7635	1	9	0.00479564	0.00212445	0	-7.94329e-05	-0.000123932	1.24238e-05	9.71066	0.00584804	0.00576425	-0.000986404	-19.3183	2.26247	2.13509	0.74846	0.417868	0.147075	0.442995	19.3903	14763.5	41946	44468.3	-70.6097	0.0000000E+000	0.0000000E+000	0.0000000E+000	70.6097	0.0000000E+000	0.0000000E+000	0.0000000E+000	-70.6097	0.0000000E+000	0.0000000E+000	0.0000000E+000	-19.3903	0.0000000E+000	0.0000000E+000	0.0000000E+000	19.3903	2.84119	70.6097	-3.25223e-06	-8.0616e-05	2.57795e-09	-8.06185e-05	3.87564	186311	5.95788	186317
1000.32	2.32446	0.921713	2.50053	-21.6298	13.4738	3.87551	-0.0181201	172.618	23.4538	1	9	0.00477432	0.00190932	0	-8.46024e-05	-0.000333935	5.77088e-06	152.429	0.00302248	-0.00267922	-0.00139897	-21.6226	2.49752	2.32178	0.920314	0.371755	0.147412	0.399915	21.6298	23453.8	59147.8	63628.1	-68.3702	0.0000000E+000	0.0000000E+000	0.0000000E+000	68.3702	0.0000000E+000	0.0000000E+000	0.0000000E+000	-68.3702	0.0000000E+000	0.0000000E+000	0.0000000E+000	-21.6298	0.0000000E+000	0.0000000E+000	0.0000000E+000	21.6298	2.52188	68.3702	-4.58252e-06	-7.02245e-05	6.05094e-09	-7.02306e-05	3.87584	213879	18.429	213897
631.01	2.60021	1.12334	2.83249	-23.3653	14.3755	3.8755	-0.0203917	224.529	35.3151	1	9	0.00475303	0.00167804	0	-8.85279e-05	8.60714e-05	2.24063e-06	60.5467	0.00133526	0.000656567	-0.00116269	-23.3385	2.83263	2.60087	1.12218	0.324095	0.140015	0.353047	23.3653	35315.1	81744.1	89046.3	-66.6347	0.0000000E+000	0.0000000E+000	0.0000000E+000	66.6347	0.0000000E+000	0.0000000E+000	0.0000000E+000	-66.6347	0.0000000E+000	0.0000000E+000	0.0000000E+000	-23.3653	0.0000000E+000	0.0000000E+000	0.0000000E+000	23.3653	2.31471	66.6347	-1.03031e-06	-7.90281e-05	-1.75514e-09	-7.90263e-05	3.87541	190053	4.2209	190048
398.089	2.99775	1.36942	3.29573	-24.5516	15.5228	3.8755	-0.0598858	291.947	50.4048	1	10	0.0048082	0.00145892	0	-0.00010611	6.69802e-05	2.21775e-05	-73.7329	0.0152013	0.00425813	0.0145928	-24.751	3.30569	3.00201	1.38401	0.27599	0.126076	0.303423	24.5516	50404.8	110340	121308	-65.4484	0.0000000E+000	0.0000000E+000	0.0000000E+000	65.4484	0.0000000E+000	0.0000000E+000	0.0000000E+000	-65.4484	0.0000000E+000	0.0000000E+000	0.0000000E+000	-24.5516	0.0000000E+000	0.0000000E+000	0.0000000E+000	24.5516	2.18908	65.4484	-8.28327e-06	-0.000232087	-4.01116e-09	-0.000232083	3.87544	64714.9	1.11847	64713.8
251.044	3.52986	1.54512	3.85322	-23.6404	16.421	3.8755	-0.059774	410.306	65.9758	1	10	0.00477586	0.00123945	0	-0.00011958	0.000143345	2.493e-06	83.7038	0.00201139	0.000220584	-0.00199925	-23.6118	3.85262	3.53008	1.54312	0.237744	0.104067	0.259523	23.6404	65975.8	150723	164530	-66.3596	0.0000000E+000	0.0000000E+000	0.0000000E+000	66.3596	0.0000000E+000	0.0000000E+000	0.0000000E+000	-66.3596	0.0000000E+000	0.0000000E+000	0.0000000E+000	-23.6404	0.0000000E+000	0.0000000E+000	0.0000000E+000	23.6404	2.28452	66.3596	-7.23935e-06	-0.000231654	-8.56831e-09	-0.000231646	3.87535	64835.8	2.39812	64833.4
158.428	4.13784	1.57482	4.42739	-20.8363	17.3259	3.87549	-0.0589326	637.906	80.709	1	10	0.00474726	0.00107225	0	-0.000132536	-2.84759e-05	1.49272e-05	53.287	0.0139214	0.0083223	-0.0111599	-20.6632	4.43122	4.14616	1.56366	0.211095	0.0803406	0.225867	20.8363	80709	212063	226902	-69.1637	0.0000000E+000	0.0000000E+000	0.0000000E+000	69.1637	0.0000000E+000	0.0000000E+000	0.0000000E+000	-69.1637	0.0000000E+000	0.0000000E+000	0.0000000E+000	-20.8363	0.0000000E+000	0.0000000E+000	0.0000000E+000	20.8363	2.6275	69.1637	-6.88708e-06	-0.000228393	1.67816e-09	-0.000228394	3.87552	65761.5	0.483194	65761.9
100.032	4.73348	1.41538	4.94056	-16.6474	18.2248	3.87549	-0.05719	1124.11	92.2576	1	10	0.00475228	0.000961892	0	-0.00014679	6.69802e-05	1.14624e-05	65.4308	0.0119165	0.00495477	-0.0108375	-16.5106	4.94221	4.73843	1.40454	0.193923	0.0579857	0.202406	16.6474	92257.6	308539	322037	-73.3526	0.0000000E+000	0.0000000E+000	0.0000000E+000	73.3526	0.0000000E+000	0.0000000E+000	0.0000000E+000	-73.3526	0.0000000E+000	0.0000000E+000	0.0000000E+000	-16.6474	0.0000000E+000	0.0000000E+000	0.0000000E+000	16.6474	3.34432	73.3526	-6.04073e-06	-0.000221639	-3.8306e-09	-0.000221635	3.87542	67765.2	1.17119	67764
63.0823	5.16064	1.1383	5.28469	-12.4387	19.14	3.87551	-0.0552315	2216.44	102.832	1	10	0.00474108	0.000897134	0	-0.000160581	0.000124254	6.73567e-06	33.1273	0.00750798	0.00628762	-0.00410312	-12.3807	5.28995	5.16693	1.1342	0.184784	0.0407584	0.189226	12.4387	102832	466205	477412	-77.5612	0.0000000E+000	0.0000000E+000	0.0000000E+000	77.5612	0.0000000E+000	0.0000000E+000	0.0000000E+000	-77.5612	0.0000000E+000	0.0000000E+000	0.0000000E+000	-12.4387	0.0000000E+000	0.0000000E+000	0.0000000E+000	12.4387	4.53364	77.5612	-7.47353e-06	-0.00021405	-6.86273e-09	-0.000214043	3.87538	70168.4	2.24969	70166.2
39.8089	5.45127	0.84928	5.51703	-8.85521	20.0409	3.87549	-0.0575177	4707.48	111.553	1	10	0.00474448	0.000859971	0	-0.000176046	0.000181527	1.31064e-05	65.8636	0.0152405	0.006232	-0.0139081	-8.70264	5.52106	5.4575	0.835372	0.179097	0.0279024	0.181257	8.85521	111553	716023	724661	-81.1448	0.0000000E+000	0.0000000E+000	0.0000000E+000	81.1448	0.0000000E+000	0.0000000E+000	0.0000000E+000	-81.1448	0.0000000E+000	0.0000000E+000	0.0000000E+000	-8.85521	0.0000000E+000	0.0000000E+000	0.0000000E+000	8.85521	6.41869	81.1448	-7.46105e-06	-0.000222909	-1.0441e-08	-0.000222899	3.87531	67379.1	3.15603	67376
25.1044	5.61657	0.616476	5.6503	-6.26372	20.9201	3.8755	-0.0565012	10283.8	122.417	1	10	0.00474698	0.000840129	0	-0.000189611	0.000162436	3.09028e-06	35.1887	0.00367834	0.00300616	-0.00211972	-6.23904	5.65306	5.61958	0.614356	0.175925	0.0193096	0.176982	6.26372	122417	1.11532e+06	1.12201e+06	-83.7363	0.0000000E+000	0.0000000E+000	0.0000000E+000	83.7363	0.0000000E+000	0.0000000E+000	0.0000000E+000	-83.7363	0.0000000E+000	0.0000000E+000	0.0000000E+000	-6.26372	0.0000000E+000	0.0000000E+000	0.0000000E+000	6.26372	9.11077	83.7363	-7.31457e-06	-0.00021897	-9.17784e-09	-0.000218961	3.87534	68591.5	2.87492	68588.6
15.8576	5.69951	0.447072	5.71701	-4.48513	21.7981	3.87549	-0.0607049	22449.4	137.285	1	10	0.0047302	0.000827391	0	-0.000204175	-2.84759e-05	2.34099e-05	-51.3952	0.0282936	0.0176537	0.0221106	-4.69151	5.73638	5.71716	0.469183	0.174381	0.0136785	0.174916	4.48513	137285	1.75018e+06	1.75555e+06	-85.5149	0.0000000E+000	0.0000000E+000	0.0000000E+000	85.5149	0.0000000E+000	0.0000000E+000	0.0000000E+000	-85.5149	0.0000000E+000	0.0000000E+000	0.0000000E+000	-4.48513	0.0000000E+000	0.0000000E+000	0.0000000E+000	4.48513	12.7485	85.5149	-7.27149e-06	-0.000235261	1.72862e-09	-0.000235263	3.87552	63841.4	0.469087	63841.9
10.0032	5.7749	0.347085	5.78532	-3.43948	22.7789	3.8755	-0.0569778	45840	164.992	1	10	0.00474967	0.000820986	0	-0.000217819	-0.000123932	7.42528e-06	-70.4434	0.00904435	0.00302749	0.00852259	-3.52188	5.78886	5.77793	0.355608	0.17254	0.0103701	0.172851	3.43948	164992	2.74518e+06	2.75013e+06	-86.5605	0.0000000E+000	0.0000000E+000	0.0000000E+000	86.5605	0.0000000E+000	0.0000000E+000	0.0000000E+000	-86.5605	0.0000000E+000	0.0000000E+000	0.0000000E+000	-3.43948	0.0000000E+000	0.0000000E+000	0.0000000E+000	3.43948	16.6383	86.5605	-1.13816e-05	-0.000220817	7.06137e-09	-0.000220824	3.87562	68017.7	2.17509	68019.9
6.31058	5.81027	0.262713	5.8162	-2.58888	23.7033	3.87547	-0.0683342	95999.7	195.863	1	10	0.00474084	0.00081511	0	-0.000235007	0.000296075	6.66375e-06	72.4801	0.00817528	0.00246106	-0.00779605	-2.51109	5.81831	5.81273	0.254916	0.171758	0.00776608	0.171933	2.58888	195863	4.33179e+06	4.33622e+06	-87.4111	0.0000000E+000	0.0000000E+000	0.0000000E+000	87.4111	0.0000000E+000	0.0000000E+000	0.0000000E+000	-87.4111	0.0000000E+000	0.0000000E+000	0.0000000E+000	-2.58888	0.0000000E+000	0.0000000E+000	0.0000000E+000	2.58888	22.1164	87.4111	-1.47077e-05	-0.000264827	-2.0232e-08	-0.000264807	3.87517	56713.4	4.33275	56709.1
3.97785	5.86794	0.238854	5.8728	-2.33093	24.7104	3.87553	-0.0507187	167510	277.085	1	10	0.0047579	0.000810159	0	-0.000237774	-9.38465e-06	1.20376e-05	54.0794	0.0148583	0.00871684	-0.0120327	-2.21034	5.88103	5.87665	0.226821	0.170136	0.00692535	0.170277	2.33093	277086	6.80718e+06	6.81282e+06	-87.6691	0.0000000E+000	0.0000000E+000	0.0000000E+000	87.6691	0.0000000E+000	0.0000000E+000	0.0000000E+000	-87.6691	0.0000000E+000	0.0000000E+000	0.0000000E+000	-2.33093	0.0000000E+000	0.0000000E+000	0.0000000E+000	2.33093	24.5671	87.6691	1.42027e-06	-0.000196562	4.75977e-10	-0.000196562	3.87554	76412.1	0.185033	76412.3
2.51367	5.89686	0.243989	5.90191	-2.36932	26.7129	3.87551	-0.0415584	259502	443.503	1	11	0.00474672	0.00080427	0	-0.000277814	0.000143345	4.38431e-06	57.5677	0.00545129	0.00292354	-0.00460103	-2.32354	5.90464	5.89978	0.239388	0.169292	0.00700463	0.169437	2.36932	443503	1.07188e+07	1.0728e+07	-87.6307	0.0000000E+000	0.0000000E+000	0.0000000E+000	87.6307	0.0000000E+000	0.0000000E+000	0.0000000E+000	-87.6307	0.0000000E+000	0.0000000E+000	0.0000000E+000	-2.36932	0.0000000E+000	0.0000000E+000	0.0000000E+000	2.36932	24.1686	87.6307	-2.89889e-05	-0.00016106	-5.95719e-09	-0.000161054	3.87537	93254.6	3.44924	93251.2
1.58469	5.94453	0.265034	5.95044	-2.55281	29.1484	3.87552	-0.0417793	378944	751.763	1	11	0.00474622	0.000797625	0	-0.000292353	-6.66583e-05	2.00177e-06	79.3858	0.00250967	0.000462267	-0.00246672	-2.52889	5.95079	5.94499	0.262567	0.167888	0.00748521	0.168055	2.55281	751764	1.68615e+07	1.68783e+07	-87.4472	0.0000000E+000	0.0000000E+000	0.0000000E+000	87.4472	0.0000000E+000	0.0000000E+000	0.0000000E+000	-87.4472	0.0000000E+000	0.0000000E+000	0.0000000E+000	-2.55281	0.0000000E+000	0.0000000E+000	0.0000000E+000	2.55281	22.4293	87.4472	-1.27316e-06	-0.000161917	2.78494e-09	-0.000161919	3.87559	92761.7	1.59549	92763.3
1.00469	6.01321	0.291017	6.02025	-2.77074	239.965	3.8755	-0.0335911	544337	1271.97	1	11	0.00507557	0.000843084	0	-0.0055557	-0.000162114	8.27234e-07	-0.740758	0.0009812	0.000981118	1.26852e-05	-2.77041	6.02123	6.01419	0.29103	0.165912	0.00802952	0.166106	2.77074	1.27197e+06	2.62823e+07	2.63131e+07	-87.2293	0.0000000E+000	0.0000000E+000	0.0000000E+000	87.2293	0.0000000E+000	0.0000000E+000	0.0000000E+000	-87.2293	0.0000000E+000	0.0000000E+000	0.0000000E+000	-2.77074	0.0000000E+000	0.0000000E+000	0.0000000E+000	2.77074	20.6627	87.2293	-0.00526487	-0.000130182	5.4456e-09	-0.000130188	3.87566	115373	4.82611	115378
0.632957	6.08073	0.360843	6.09143	-3.39607	239.967	3.8755	-0.0335911	696831	2445.27	1	11	0.00508852	0.000835358	0	-0.0055557	-0.000162114	7.78717e-07	3.53081	0.000932195	0.000930426	-5.74095e-05	-3.39501	6.09235	6.08166	0.360786	0.163877	0.0097248	0.164165	3.39607	2.44527e+06	4.12063e+07	4.12788e+07	-86.6039	0.0000000E+000	0.0000000E+000	0.0000000E+000	86.6039	0.0000000E+000	0.0000000E+000	0.0000000E+000	-86.6039	0.0000000E+000	0.0000000E+000	0.0000000E+000	-3.39607	0.0000000E+000	0.0000000E+000	0.0000000E+000	3.39607	16.8514	86.6039	0.000000000000000E+000	-0.000130182	5.4456e-09	-0.000130188	3.87566	115373	4.82611	115378
0.401878	6.14991	0.4529	6.16656	-4.21185	239.968	3.8755	-0.0335911	874429	4716.74	1	11	0.0051013	0.000827251	0	-0.0055557	-0.000162114	5.51784e-07	-3.58266	0.000667009	0.000665705	4.16804e-05	-4.21178	6.16723	6.15058	0.452941	0.161727	0.0119101	0.162165	4.21185	4.71674e+06	6.40485e+07	6.42219e+07	-85.7882	0.0000000E+000	0.0000000E+000	0.0000000E+000	85.7882	0.0000000E+000	0.0000000E+000	0.0000000E+000	-85.7882	0.0000000E+000	0.0000000E+000	0.0000000E+000	-4.21185	0.0000000E+000	0.0000000E+000	0.0000000E+000	4.21185	13.579	85.7882	0.000000000000000E+000	-0.000130182	5.4456e-09	-0.000130188	3.87566	115373	4.82611	115378
0.251173	6.27604	0.594156	6.3041	-5.40811	239.969	3.8755	-0.0335911	1.06646e+06	9473.29	1	11	0.00510505	0.000809798	0	-0.0055557	-0.000162114	9.00116e-07	-6.05095	0.00111153	0.00110534	0.00011717	-5.40822	6.30521	6.27714	0.594274	0.157921	0.0149505	0.158627	5.40811	9.4733e+06	1.00066e+08	1.00513e+08	-84.5919	0.0000000E+000	0.0000000E+000	0.0000000E+000	84.5919	0.0000000E+000	0.0000000E+000	0.0000000E+000	-84.5919	0.0000000E+000	0.0000000E+000	0.0000000E+000	-5.40811	0.0000000E+000	0.0000000E+000	0.0000000E+000	5.40811	10.5629	84.5919	0.000000000000000E+000	-0.000130182	5.4456e-09	-0.000130188	3.87566	115373	4.82611	115378
0.160751	6.43467	0.680886	6.4706	-6.04028	239.97	3.8755	-0.0335911	1.45409e+06	16101	1	11	0.00509643	0.000787629	0	-0.0055557	-0.000162114	7.37118e-07	-32.5911	0.00093587	0.000788505	0.000504097	-6.04398	6.47143	6.43546	0.68139	0.153687	0.0162624	0.154545	6.04028	1.6101e+07	1.52161e+08	1.53011e+08	-83.9597	0.0000000E+000	0.0000000E+000	0.0000000E+000	83.9597	0.0000000E+000	0.0000000E+000	0.0000000E+000	-83.9597	0.0000000E+000	0.0000000E+000	0.0000000E+000	-6.04028	0.0000000E+000	0.0000000E+000	0.0000000E+000	6.04028	9.45045	83.9597	0.000000000000000E+000	-0.000130182	5.4456e-09	-0.000130188	3.87566	115373	4.82611	115378
0.100469	6.58254	0.936609	6.64884	-8.09808	239.972	3.8755	-0.0335911	1.69133e+06	33562.4	1	11	0.00510032	0.0007671	0	-0.0055557	-0.000162114	6.74139e-07	-9.27948	0.000878815	0.000867315	0.000141709	-8.09824	6.64971	6.5834	0.93675	0.148903	0.0211869	0.150402	8.09808	3.35624e+07	2.35879e+08	2.38254e+08	-81.9019	0.0000000E+000	0.0000000E+000	0.0000000E+000	81.9019	0.0000000E+000	0.0000000E+000	0.0000000E+000	-81.9019	0.0000000E+000	0.0000000E+000	0.0000000E+000	-8.09808	0.0000000E+000	0.0000000E+000	0.0000000E+000	8.09808	7.02805	81.9019	0.000000000000000E+000	-0.000130182	5.4456e-09	-0.000130188	3.87566	115373	4.82611	115378
0.0602816	6.87251	1.14679	6.96753	-9.47346	239.973	3.8755	-0.0335911	2.30224e+06	62367.9	1	11	0.00509452	0.000731179	0	-0.0055557	-0.000162114	8.70272e-07	-32.0873	0.00119023	0.00100841	0.000632264	-9.47722	6.96863	6.87352	1.14742	0.141565	0.0236225	0.143523	9.47346	6.23679e+07	3.7376e+08	3.78927e+08	-80.5265	0.0000000E+000	0.0000000E+000	0.0000000E+000	80.5265	0.0000000E+000	0.0000000E+000	0.0000000E+000	-80.5265	0.0000000E+000	0.0000000E+000	0.0000000E+000	-9.47346	0.0000000E+000	0.0000000E+000	0.0000000E+000	9.47346	5.99282	80.5265	0.000000000000000E+000	-0.000130182	5.4456e-09	-0.000130188	3.87566	115373	4.82611	115378
0.0401878	7.21461	1.37853	7.34513	-10.8174	239.974	3.8755	-0.0335911	2.87283e+06	101191	1	11	0.00509442	0.000693578	0	-0.0055557	-0.000162114	5.52315e-07	-35.3154	0.000796326	0.000649788	0.000460338	-10.82	7.34586	7.21526	1.37899	0.133725	0.0255515	0.136145	10.8174	1.01191e+08	5.2959e+08	5.39171e+08	-79.1826	0.0000000E+000	0.0000000E+000	0.0000000E+000	79.1826	0.0000000E+000	0.0000000E+000	0.0000000E+000	-79.1826	0.0000000E+000	0.0000000E+000	0.0000000E+000	-10.8174	0.0000000E+000	0.0000000E+000	0.0000000E+000	10.8174	5.23355	79.1826	0.000000000000000E+000	-0.000130182	5.4456e-09	-0.000130188	3.87566	115373	4.82611	115378
0.0200939	8.00077	2.03469	8.25544	-14.2685	239.976	3.8755	-0.0335911	3.89276e+06	236469	1	11	0.00509429	0.000617083	0	-0.0055557	-0.000162114	4.32226e-07	2.15637	0.000700433	0.000699937	-2.63551e-05	-14.2672	8.25611	8.00147	2.03466	0.117395	0.0298551	0.121132	14.2685	2.36469e+08	9.29839e+08	9.59436e+08	-75.7315	0.0000000E+000	0.0000000E+000	0.0000000E+000	75.7315	0.0000000E+000	0.0000000E+000	0.0000000E+000	-75.7315	0.0000000E+000	0.0000000E+000	0.0000000E+000	-14.2685	0.0000000E+000	0.0000000E+000	0.0000000E+000	14.2685	3.93218	75.7315	0.000000000000000E+000	-0.000130182	5.4456e-09	-0.000130188	3.87566	115373	4.82611	115378
0.00796479	8.61937	2.31001	8.92355	-15.0029	20328.9	3.87552	-0.00161753	8.6503e+06	579676	1	11	0.00508803	0.00057018	0	-0.0752399	4.7889e-05	1.33889e-07	48.5423	0.000234819	0.000155466	-0.000175984	-15.0015	8.92365	8.61952	2.30984	0.108243	0.0290095	0.112063	15.0029	5.79676e+08	2.16295e+09	2.23928e+09	-74.9971	0.0000000E+000	0.0000000E+000	0.0000000E+000	74.9971	0.0000000E+000	0.0000000E+000	0.0000000E+000	-74.9971	0.0000000E+000	0.0000000E+000	0.0000000E+000	-15.0029	0.0000000E+000	0.0000000E+000	0.0000000E+000	15.0029	3.73131	74.9971	-0.0696842	-6.26876e-06	-7.74617e-11	-6.26868e-06	3.87548	2.39596e+06	29.6063	2.39593e+06
0.00497799	9.30988	2.41729	9.61859	-14.5553	20328.9	3.87552	-0.00161753	1.32262e+07	835358	1	11	0.00509642	0.000529851	0	-0.0752399	4.7889e-05	3.30623e-07	-92.4129	0.000623992	-2.6271e-05	0.000623439	-14.559	9.61872	9.30986	2.41792	0.100629	0.026128	0.103965	14.5553	8.35358e+08	3.21727e+09	3.32395e+09	-75.4447	0.0000000E+000	0.0000000E+000	0.0000000E+000	75.4447	0.0000000E+000	0.0000000E+000	0.0000000E+000	-75.4447	0.0000000E+000	0.0000000E+000	0.0000000E+000	-14.5553	0.0000000E+000	0.0000000E+000	0.0000000E+000	14.5553	3.85137	75.4447	0.000000000000000E+000	-6.26876e-06	-7.74617e-11	-6.26868e-06	3.87548	2.39596e+06	29.6063	2.39593e+06
0.00318591	9.78276	3.17393	10.2848	-17.9752	20328.9	3.87552	-0.00161753	1.57394e+07	1.49898e+06	1	11	0.00509865	0.000495749	0	-0.0752399	4.7889e-05	4.51337e-07	-160.599	0.000910415	-0.000858718	0.000302421	-17.9783	10.284	9.7819	3.17423	0.0924854	0.0300061	0.0972313	17.9752	1.49898e+09	4.62019e+09	4.85727e+09	-72.0248	0.0000000E+000	0.0000000E+000	0.0000000E+000	72.0248	0.0000000E+000	0.0000000E+000	0.0000000E+000	-72.0248	0.0000000E+000	0.0000000E+000	0.0000000E+000	-17.9752	0.0000000E+000	0.0000000E+000	0.0000000E+000	17.9752	3.08222	72.0248	0.000000000000000E+000	-6.26876e-06	-7.74617e-11	-6.26868e-06	3.87548	2.39596e+06	29.6063	2.39593e+06
0.0019912	10.1648	3.88818	10.8831	-20.9325	20328.9	3.87552	-0.00161753	2.0557e+07	2.6239e+06	1	11	0.00510061	0.000468673	0	-0.0752399	4.7889e-05	6.78168e-07	-52.2916	0.001447	0.000885046	0.00114477	-20.9365	10.8843	10.1657	3.88933	0.0858213	0.0328278	0.0918856	20.9325	2.6239e+09	6.85964e+09	7.34435e+09	-69.0675	0.0000000E+000	0.0000000E+000	0.0000000E+000	69.0675	0.0000000E+000	0.0000000E+000	0.0000000E+000	-69.0675	0.0000000E+000	0.0000000E+000	0.0000000E+000	-20.9325	0.0000000E+000	0.0000000E+000	0.0000000E+000	20.9325	2.61429	69.0675	0.000000000000000E+000	-6.26876e-06	-7.74617e-11	-6.26868e-06	3.87548	2.39596e+06	29.6063	2.39593e+06
0.00129428	9.83764	5.08967	11.0763	-27.3556	20328.9	3.87552	-0.00161753	2.41603e+07	5.10146e+06	1	11	0.0051012	0.000460552	0	-0.0752399	4.7889e-05	5.4284e-07	-64.8497	0.00117867	0.00050093	0.00106693	-27.3593	11.0772	9.83814	5.09074	0.0801869	0.0414861	0.0902831	27.3556	5.10146e+09	9.86043e+09	1.11019e+10	-62.6444	0.0000000E+000	0.0000000E+000	0.0000000E+000	62.6444	0.0000000E+000	0.0000000E+000	0.0000000E+000	-62.6444	0.0000000E+000	0.0000000E+000	0.0000000E+000	-27.3556	0.0000000E+000	0.0000000E+000	0.0000000E+000	27.3556	1.93286	62.6444	0.000000000000000E+000	-6.26876e-06	-7.74617e-11	-6.26868e-06	3.87548	2.39596e+06	29.6063	2.39593e+06
0.000796479	10.8625	7.56824	13.2391	-34.8661	20328.9	3.87552	-0.00161753	2.64029e+07	8.62833e+06	1	11	0.00510073	0.000385279	0	-0.0752399	4.7889e-05	5.26645e-07	-67.0945	0.00136692	0.000532021	0.00125913	-34.8692	13.2402	10.8631	7.5695	0.061975	0.0431798	0.0755341	34.8661	8.62833e+09	1.2384e+10	1.50935e+10	-55.1339	0.0000000E+000	0.0000000E+000	0.0000000E+000	55.1339	0.0000000E+000	0.0000000E+000	0.0000000E+000	-55.1339	0.0000000E+000	0.0000000E+000	0.0000000E+000	-34.8661	0.0000000E+000	0.0000000E+000	0.0000000E+000	34.8661	1.43528	55.1339	0.000000000000000E+000	-6.26876e-06	-7.74617e-11	-6.26868e-06	3.87548	2.39596e+06	29.6063	2.39593e+06
0.000497799	10.617	10.7118	15.0819	-45.2547	20328.9	3.87552	-0.00161753	2.98471e+07	1.50563e+07	1	11	0.00510113	0.000338228	0	-0.0752399	4.7889e-05	3.89082e-07	-124.688	0.00115035	-0.000654672	0.000945894	-45.259	15.0821	10.6163	10.7128	0.0466755	0.0470924	0.0663046	45.2547	1.50563e+10	1.4923e+10	2.11987e+10	-44.7453	0.0000000E+000	0.0000000E+000	0.0000000E+000	44.7453	0.0000000E+000	0.0000000E+000	0.0000000E+000	-44.7453	0.0000000E+000	0.0000000E+000	0.0000000E+000	-45.2547	0.0000000E+000	0.0000000E+000	0.0000000E+000	45.2547	0.991147	44.7453	0.000000000000000E+000	-6.26876e-06	-7.74617e-11	-6.26868e-06	3.87548	2.39596e+06	29.6063	2.39593e+06
0.000298679	9.74576	16.793	19.4161	-59.8714	20328.9	3.87552	-0.00161753	3.17312e+07	2.37367e+07	1	11	0.00510339	0.000262844	0	-0.0752399	4.7889e-05	1.2597e-06	-107.62	0.00479257	-0.00145069	0.00456773	-59.8818	19.4193	9.74431	16.7975	0.0258519	0.0445456	0.0515037	59.8714	2.37367e+10	1.37755e+10	2.74444e+10	-30.1286	0.0000000E+000	0.0000000E+000	0.0000000E+000	30.1286	0.0000000E+000	0.0000000E+000	0.0000000E+000	-30.1286	0.0000000E+000	0.0000000E+000	0.0000000E+000	-59.8714	0.0000000E+000	0.0000000E+000	0.0000000E+000	59.8714	0.580347	30.1286	0.000000000000000E+000	-6.26876e-06	-7.74617e-11	-6.26868e-06	3.87548	2.39596e+06	29.6063	2.39593e+06
9.95598e-05	7.3221	75.412	75.7666	-84.4543	20328.9	3.87552	-0.00161753	2.1198e+07	2.10001e+07	1	11	0.00509763	6.72806e-05	0	-0.0752399	4.7889e-05	1.54146e-06	70.7399	0.0229109	0.00755731	-0.0216286	-84.447	75.7458	7.32966	75.3904	0.0012755	0.0131366	0.0131984	84.4543	2.10001e+10	2.03899e+09	2.10988e+10	-5.54573	0.0000000E+000	0.0000000E+000	0.0000000E+000	5.54573	0.0000000E+000	0.0000000E+000	0.0000000E+000	-5.54573	0.0000000E+000	0.0000000E+000	0.0000000E+000	-84.4543	0.0000000E+000	0.0000000E+000	0.0000000E+000	84.4543	0.0970946	5.54573	0.000000000000000E+000	-6.26876e-06	-7.74617e-11	-6.26868e-06	3.87548	2.39596e+06	29.6063	2.39593e+06