File: txt/19320_R313_UC98_SOC50_C04.mpt
EC-Lab ASCII FILE
Nb header lines : 65

Potentio Electrochemical Impedance Spectroscopy

Run on channel : 4 (SN 66756)
User :
CE vs. WE compliance from -10 V to 10 V
Electrode connection : standard
Potential control : Ewe
Ewe ctrl range : min = -10.00 V, max = 10.00 V
Safety Limits :
	Do not start on E overload
Acquisition started on : 11/18/2025 16:32:44.421
Technique started on : 11/18/2025 16:32:46.655
Loaded Setting File :  C:\Users\Celltest\OneDrive - store-dot.com\Documents\EC-Lab\Data\txt_done\19191_R297_UC94_SOC50_C08.mpr
Saved on :
	File : 19320_R313_UC98_SOC50_C04.mpr
	Directory : C:\Users\Celltest\OneDrive - store-dot.com\Documents\EC-Lab\Data\Michael\
	Host : 169.254.61.224
Device : VMP-3e (SN .003165)
Address : USB
EC-LAB for windows v11.62 (software)
Internet server v27.00 (firmware)
Command interpretor v12.03 (firmware)
Electrode material :
Initial state :
Electrolyte :
Comments :
Electrode surface area : 0.001 cm²
Characteristic mass : 0.001 g
Equivalent Weight : 0.000 g/eq.
Density : 0.000 g/cm3
Volume (V) : 0.001 cm³
Record Ece
Cycle Definition : Charge/Discharge alternance
Mode                Multi sine
E (V)               0.0000
vs.                 Eoc
tE (h:m:s)          0:00:0.0000
record              0
dI                  0.000
unit dI             mA
dt (s)              0.000
fi                  1.000
unit fi             MHz
ff                  0.100
unit ff             mHz
Nd                  10
Points              per decade
spacing             Logarithmic
Va (mV)             5.0
pw                  0.10
Na                  2
corr                0
E range min (V)     -10.000
E range max (V)     10.000
I Range             Auto
Bandwidth           5
nc cycles           0
goto Ns'            0
nr cycles           0
inc. cycle          0

freq/Hz	Re(Z)/Ohm	-Im(Z)/Ohm	|Z|/Ohm	Phase(Z)/deg	time/s	<Ewe>/V	<I>/mA	Cs/µF	Cp/µF	cycle number	I Range	|Ewe|/V	|I|/A	Ns	(Q-Qo)/mA.h	<Ece>/V	|Ece|/V	Phase(Zce)/deg	|Zce|/Ohm	Re(Zce)/Ohm	-Im(Zce)/Ohm	Phase(Zwe-ce)/deg	|Zwe-ce|/Ohm	Re(Zwe-ce)/Ohm	-Im(Zwe-ce)/Ohm	Re(Y)/Ohm-1	Im(Y)/Ohm-1	|Y|/Ohm-1	Phase(Y)/deg	Re(C)/nF	Im(C)/nF	|C|/nF	Phase(C)/deg	Re(M)	Im(M)	|M|	Phase(M)/deg	Re(Permittivity)	Im(Permittivity)	|Permittivity|	Phase(Permittivity)/deg	Re(Resistivity)/Ohm.cm	Im(Resistivity)/Ohm.cm	|Resistivity|/Ohm.cm	Phase(Resistivity)/deg	Re(Conductivity)/mS/cm	Im(Conductivity)/mS/cm	|Conductivity|/mS/cm	Phase(Conductivity)/deg	Tan(Delta)	Loss Angle(Delta)/deg	dq/mA.h	Pwe/W	Pce/W	Pwe-ce/W	<Ewe-Ece>/V	Rwe/Ohm	Rce/Ohm	Rwe-ce/Ohm		Ewe-Ece/V
1.00002e+06	0.929294	-0.121457	0.937197	7.44626	2.23353	3.87656	0.177289	-1.31035	-0.0220076	1	9	0.000190277	0.000203027	0	3.14692e-06	-0.000216013	0.000189937	5.44461	0.935523	0.931303	-0.0887657	6.44633	1.87244	1.8606	-0.210223	1.05801	-0.138281	1.06701	-7.44626	-22.0076	168.385	169.817	-97.4463	0.0000000E+000	0.0000000E+000	0.0000000E+000	97.4463	0.0000000E+000	0.0000000E+000	0.0000000E+000	-97.4463	0.0000000E+000	0.0000000E+000	0.0000000E+000	7.44626	0.0000000E+000	0.0000000E+000	0.0000000E+000	-7.44626	7.6512	82.5537	3.14692e-06	0.00068727	-3.82966e-08	0.000687309	3.87678	21865.8	1.21842	21867
630957	0.338894	0.230646	0.409935	-34.2385	2.99954	3.87552	-0.00114158	1.09364	0.346207	1	9	0.000138888	0.000338806	0	6.66201e-06	-0.000292453	0.000101766	-96.9313	0.300367	-0.0362479	0.298172	-60.2172	0.609297	0.302646	0.528817	2.01667	1.37251	2.43941	34.2385	346.207	508.692	615.326	-55.7615	0.0000000E+000	0.0000000E+000	0.0000000E+000	55.7615	0.0000000E+000	0.0000000E+000	0.0000000E+000	-55.7615	0.0000000E+000	0.0000000E+000	0.0000000E+000	-34.2385	0.0000000E+000	0.0000000E+000	0.0000000E+000	34.2385	1.46933	55.7615	-3.80965e-07	-4.42422e-06	3.33859e-10	-4.42456e-06	3.87581	3.39486e+06	256.182	3.39512e+06
398103	0.537792	0.128638	0.552963	-13.4523	3.76756	3.87538	-0.0192681	3.1078	0.168191	1	9	0.000528275	0.000955354	0	-9.80525e-07	-0.000216013	3.60133e-05	-3.20259	0.0376963	0.0376375	0.00210596	-12.801	0.590096	0.575429	0.130744	1.75882	0.420706	1.80844	13.4523	168.191	703.148	722.983	-76.5477	0.0000000E+000	0.0000000E+000	0.0000000E+000	76.5477	0.0000000E+000	0.0000000E+000	0.0000000E+000	-76.5477	0.0000000E+000	0.0000000E+000	0.0000000E+000	-13.4523	0.0000000E+000	0.0000000E+000	0.0000000E+000	13.4523	4.18065	76.5477	-4.10125e-06	-7.4671e-05	4.16215e-09	-7.46752e-05	3.8756	201130	11.2109	201141
251206	0.677201	0.234303	0.716588	-19.085	4.53356	3.87518	-0.0769669	2.70403	0.289087	1	9	0.00183377	0.00255903	0	-1.41407e-05	-0.000120463	4.40665e-05	77.2457	0.01722	0.00380165	-0.0167951	-17.7132	0.714894	0.681002	0.217508	1.3188	0.456288	1.3955	19.085	289.087	835.541	884.138	-70.915	0.0000000E+000	0.0000000E+000	0.0000000E+000	70.915	0.0000000E+000	0.0000000E+000	0.0000000E+000	-70.915	0.0000000E+000	0.0000000E+000	0.0000000E+000	-19.085	0.0000000E+000	0.0000000E+000	0.0000000E+000	19.085	2.89027	70.915	-6.47313e-06	-0.000298261	9.27168e-09	-0.00029827	3.8753	50348.7	1.56513	50350.2
158486	0.803285	0.311194	0.861457	-21.1764	5.29952	3.87508	-0.060929	3.22699	0.421107	1	9	0.00503304	0.00584248	0	-3.73562e-05	-0.000521772	5.47145e-05	74.8181	0.00936495	0.00245253	-0.00903811	-20.5563	0.860529	0.805737	0.302156	1.08244	0.419337	1.16082	21.1764	421.107	1087	1165.72	-68.8236	0.0000000E+000	0.0000000E+000	0.0000000E+000	68.8236	0.0000000E+000	0.0000000E+000	0.0000000E+000	-68.8236	0.0000000E+000	0.0000000E+000	0.0000000E+000	-21.1764	0.0000000E+000	0.0000000E+000	0.0000000E+000	21.1764	2.5813	68.8236	-1.53109e-05	-0.000236104	3.1791e-08	-0.000236136	3.8756	63599.9	8.56361	63608.5
100004	0.929585	0.334683	0.987998	-19.8006	6.06553	3.87504	-0.0637636	4.75522	0.545664	1	9	0.00530415	0.00536858	0	-4.01259e-05	-0.000158683	2.47327e-05	93.7606	0.00460693	-0.000302156	-0.00459701	-19.5553	0.986166	0.929283	0.330086	0.952306	0.342863	1.01215	19.8006	545.663	1515.59	1610.82	-70.1994	0.0000000E+000	0.0000000E+000	0.0000000E+000	70.1994	0.0000000E+000	0.0000000E+000	0.0000000E+000	-70.1994	0.0000000E+000	0.0000000E+000	0.0000000E+000	-19.8006	0.0000000E+000	0.0000000E+000	0.0000000E+000	19.8006	2.77751	70.1994	7.55575e-06	-0.000247087	1.01182e-08	-0.000247097	3.8752	60772	2.48861	60774.5
63093.8	1.03889	0.340898	1.09339	-18.1665	6.83153	3.87503	-0.0779739	7.3996	0.719291	1	9	0.00530124	0.00484842	0	-6.98872e-05	-0.000254233	1.66427e-05	89.6627	0.00343261	2.02101e-05	-0.00343255	-17.9951	1.09235	1.03891	0.337466	0.868995	0.285149	0.914583	18.1665	719.291	2192.05	2307.05	-71.8335	0.0000000E+000	0.0000000E+000	0.0000000E+000	71.8335	0.0000000E+000	0.0000000E+000	0.0000000E+000	-71.8335	0.0000000E+000	0.0000000E+000	0.0000000E+000	-18.1665	0.0000000E+000	0.0000000E+000	0.0000000E+000	18.1665	3.04752	71.8335	-3.58369e-06	-0.000302151	1.98235e-08	-0.000302171	3.87529	49696.5	3.26049	49699.8
39814.1	1.13426	0.349302	1.18682	-17.1166	7.59755	3.87504	-0.0493296	11.4441	0.991316	1	9	0.00528283	0.00445123	0	-7.40454e-05	-0.000120463	1.56541e-05	42.0704	0.00351681	0.00261061	-0.00235642	-16.971	1.18863	1.13687	0.346945	0.805265	0.247987	0.842585	17.1166	991.316	3219.01	3368.2	-72.8835	0.0000000E+000	0.0000000E+000	0.0000000E+000	72.8835	0.0000000E+000	0.0000000E+000	0.0000000E+000	-72.8835	0.0000000E+000	0.0000000E+000	0.0000000E+000	-17.1166	0.0000000E+000	0.0000000E+000	0.0000000E+000	17.1166	3.24721	72.8835	-5.56221e-07	-0.000191154	5.94239e-09	-0.00019116	3.87516	78554	2.44201	78556.5
25116.9	1.22661	0.366032	1.28006	-16.6156	8.36357	3.87503	-0.0600339	17.3115	1.41551	1	9	0.00523066	0.00408626	0	-8.67898e-05	-0.000101353	1.09995e-05	53.9086	0.00269182	0.00158569	-0.0021752	-16.5021	1.28096	1.2282	0.363857	0.748594	0.223387	0.781213	16.6156	1415.51	4743.51	4950.21	-73.3844	0.0000000E+000	0.0000000E+000	0.0000000E+000	73.3844	0.0000000E+000	0.0000000E+000	0.0000000E+000	-73.3844	0.0000000E+000	0.0000000E+000	0.0000000E+000	-16.6156	0.0000000E+000	0.0000000E+000	0.0000000E+000	16.6156	3.3511	73.3844	-8.43745e-06	-0.000232633	6.08462e-09	-0.000232639	3.87513	64547.3	1.68827	64549
15847.7	1.32026	0.397235	1.37873	-16.7453	9.12956	3.87505	-0.0591388	25.2817	2.09867	1	9	0.0051458	0.00373228	0	-9.53554e-05	-8.22432e-05	5.9802e-06	-102.059	0.00160229	-0.000334763	0.00156693	-16.8116	1.37886	1.31993	0.398802	0.694549	0.208973	0.725306	16.7453	2098.67	6975.21	7284.09	-73.2547	0.0000000E+000	0.0000000E+000	0.0000000E+000	73.2547	0.0000000E+000	0.0000000E+000	0.0000000E+000	-73.2547	0.0000000E+000	0.0000000E+000	0.0000000E+000	-16.7453	0.0000000E+000	0.0000000E+000	0.0000000E+000	16.7453	3.32363	73.2547	-5.74799e-06	-0.000229166	4.86376e-09	-0.000229171	3.87514	65524.7	1.39068	65526.1
10002.2	1.42679	0.440347	1.4932	-17.1516	9.77155	3.87503	-0.0623091	36.135	3.14255	1	9	0.00528351	0.00353838	0	-0.000107118	-6.31332e-05	1.27181e-05	-103.77	0.00359434	-0.000855537	0.00349104	-17.2893	1.49342	1.42594	0.443838	0.639919	0.197496	0.669702	17.1516	3142.55	10182.4	10656.3	-72.8484	0.0000000E+000	0.0000000E+000	0.0000000E+000	72.8484	0.0000000E+000	0.0000000E+000	0.0000000E+000	-72.8484	0.0000000E+000	0.0000000E+000	0.0000000E+000	-17.1516	0.0000000E+000	0.0000000E+000	0.0000000E+000	17.1516	3.24016	72.8484	-6.45562e-06	-0.00024145	3.93377e-09	-0.000241453	3.87509	62190.5	1.01323	62191.5
6309.38	1.53942	0.508539	1.62124	-18.2807	10.2896	3.87502	-0.0514929	49.6031	4.88046	1	9	0.00533642	0.00329156	0	-0.000114453	-0.000196903	9.76263e-06	160.863	0.00296596	-0.00280205	-0.000972332	-18.2791	1.61828	1.53662	0.507567	0.585681	0.193476	0.61681	18.2807	4880.46	14773.9	15559.1	-71.7193	0.0000000E+000	0.0000000E+000	0.0000000E+000	71.7193	0.0000000E+000	0.0000000E+000	0.0000000E+000	-71.7193	0.0000000E+000	0.0000000E+000	0.0000000E+000	-18.2807	0.0000000E+000	0.0000000E+000	0.0000000E+000	18.2807	3.02714	71.7193	-4.83095e-06	-0.000199536	1.01391e-08	-0.000199546	3.87522	75253.6	3.82389	75257.5
3983.6	1.6793	0.590537	1.78011	-19.3745	10.8541	3.87493	-0.151673	67.6546	7.44557	1	9	0.00525696	0.00295317	0	-0.000131798	-4.40233e-05	8.15865e-06	-89.3706	0.00276268	3.03473e-05	0.00276251	-19.4581	1.78106	1.67933	0.593299	0.529951	0.18636	0.561763	19.3745	7445.57	21172.9	22443.9	-70.6255	0.0000000E+000	0.0000000E+000	0.0000000E+000	70.6255	0.0000000E+000	0.0000000E+000	0.0000000E+000	-70.6255	0.0000000E+000	0.0000000E+000	0.0000000E+000	-19.3745	0.0000000E+000	0.0000000E+000	0.0000000E+000	19.3745	2.84369	70.6255	-1.30343e-05	-0.000587724	6.67716e-09	-0.000587731	3.87498	25547.9	0.29025	25548.2
2510.8	1.8382	0.69977	1.96689	-20.8409	11.6788	3.87492	-0.110796	90.5841	11.4658	1	9	0.00515518	0.00262098	0	-0.000163697	-0.000158683	4.14232e-06	-72.6869	0.00158045	0.00047033	0.00150884	-20.8771	1.96787	1.83867	0.701279	0.475152	0.180882	0.508417	20.8409	11465.7	30118.9	32227.5	-69.1591	0.0000000E+000	0.0000000E+000	0.0000000E+000	69.1591	0.0000000E+000	0.0000000E+000	0.0000000E+000	-69.1591	0.0000000E+000	0.0000000E+000	0.0000000E+000	-20.8409	0.0000000E+000	0.0000000E+000	0.0000000E+000	20.8409	2.62686	69.1591	-1.73026e-05	-0.000429324	1.75814e-08	-0.000429341	3.87508	34973.6	1.43221	34975
1585.51	2.04088	0.845025	2.2089	-22.492	12.5809	3.87491	-0.111355	118.791	17.3847	1	9	0.00510099	0.00230929	0	-0.000188443	-0.000139573	7.75879e-06	-45.5041	0.00335982	0.00235476	0.00239656	-22.526	2.212	2.04323	0.847421	0.418277	0.173187	0.452713	22.492	17384.7	41987.1	45443.9	-67.508	0.0000000E+000	0.0000000E+000	0.0000000E+000	67.508	0.0000000E+000	0.0000000E+000	0.0000000E+000	-67.508	0.0000000E+000	0.0000000E+000	0.0000000E+000	-22.492	0.0000000E+000	0.0000000E+000	0.0000000E+000	22.492	2.41517	67.508	-1.16792e-05	-0.000431491	1.55422e-08	-0.000431507	3.87505	34797.8	1.25341	34799.1
1000.32	2.27903	1.01531	2.49496	-24.013	13.4828	3.87492	-0.114376	156.705	25.9508	1	9	0.00504942	0.00202384	0	-0.000212677	-4.40233e-05	1.15051e-05	-17.3235	0.00568476	0.0054269	0.00169273	-23.9978	2.50061	2.28446	1.017	0.366119	0.163106	0.400808	24.013	25950.8	58251	63770.1	-65.987	0.0000000E+000	0.0000000E+000	0.0000000E+000	65.987	0.0000000E+000	0.0000000E+000	0.0000000E+000	-65.987	0.0000000E+000	0.0000000E+000	0.0000000E+000	-24.013	0.0000000E+000	0.0000000E+000	0.0000000E+000	24.013	2.24467	65.987	-1.12011e-05	-0.000443199	5.03521e-09	-0.000443204	3.87497	33878.8	0.384899	33879.2
631.01	2.5935	1.21297	2.86314	-25.0652	14.3835	3.87491	-0.0973686	207.939	37.3206	1	9	0.00502166	0.0017539	0	-0.000238612	-0.000216013	7.53633e-06	36.2398	0.00429689	0.00346566	-0.00254018	-24.9898	2.8652	2.59697	1.21043	0.316375	0.147967	0.349267	25.0652	37320.6	79797.1	88093.1	-64.9348	0.0000000E+000	0.0000000E+000	0.0000000E+000	64.9348	0.0000000E+000	0.0000000E+000	0.0000000E+000	-64.9348	0.0000000E+000	0.0000000E+000	0.0000000E+000	-25.0652	0.0000000E+000	0.0000000E+000	0.0000000E+000	25.0652	2.13815	64.9348	-1.35229e-05	-0.000377294	2.10329e-08	-0.000377315	3.87512	39796.3	2.21851	39798.5
398.089	3.04136	1.41376	3.35389	-24.9311	15.5309	3.87496	-0.0652356	282.791	50.2478	1	10	0.00504717	0.00150487	0	-0.000262078	1.33066e-05	1.27939e-05	82.2342	0.00850168	0.00114878	-0.00842371	-24.7922	3.35139	3.04251	1.40533	0.270377	0.125683	0.298161	24.9311	50247.8	108096	119204	-65.0689	0.0000000E+000	0.0000000E+000	0.0000000E+000	65.0689	0.0000000E+000	0.0000000E+000	0.0000000E+000	-65.0689	0.0000000E+000	0.0000000E+000	0.0000000E+000	-24.9311	0.0000000E+000	0.0000000E+000	0.0000000E+000	24.9311	2.15126	65.0689	-8.03976e-06	-0.000252785	-8.68063e-10	-0.000252784	3.87495	59399.5	0.203978	59399.3
251.044	3.59666	1.54804	3.91566	-23.2876	16.429	3.87495	-0.0691411	409.531	64.0092	1	10	0.00502348	0.00128292	0	-0.000282074	1.33066e-05	8.75081e-06	-75.2167	0.00682101	0.00174047	0.00659522	-23.3661	3.91987	3.5984	1.55464	0.234579	0.100965	0.255385	23.2876	64009.2	148716	161907	-66.7124	0.0000000E+000	0.0000000E+000	0.0000000E+000	66.7124	0.0000000E+000	0.0000000E+000	0.0000000E+000	-66.7124	0.0000000E+000	0.0000000E+000	0.0000000E+000	-23.2876	0.0000000E+000	0.0000000E+000	0.0000000E+000	23.2876	2.32336	66.7124	-8.78229e-06	-0.000267918	-9.20032e-10	-0.000267917	3.87494	56044.1	0.192456	56043.9
158.428	4.19418	1.51656	4.45995	-19.8793	17.3338	3.87496	-0.0699281	662.41	76.5929	1	10	0.00499887	0.00112084	0	-0.000302307	-0.000101353	6.32437e-06	-47.905	0.00564255	0.00378255	0.00418697	-19.9134	4.46493	4.19796	1.52075	0.210857	0.0762432	0.224218	19.8793	76592.9	211824	225246	-70.1207	0.0000000E+000	0.0000000E+000	0.0000000E+000	70.1207	0.0000000E+000	0.0000000E+000	0.0000000E+000	-70.1207	0.0000000E+000	0.0000000E+000	0.0000000E+000	-19.8793	0.0000000E+000	0.0000000E+000	0.0000000E+000	19.8793	2.76558	70.1207	-9.42063e-06	-0.000270969	7.08743e-09	-0.000270976	3.87506	55413.5	1.44939	55414.9
100.032	4.7425	1.35029	4.93098	-15.8928	18.2328	3.87497	-0.11215	1178.29	88.3572	1	10	0.00498977	0.00101192	0	-0.000322548	-0.000426222	7.73773e-06	-16.8145	0.00764656	0.00731965	0.00221195	-15.8942	4.93863	4.74982	1.3525	0.195048	0.0555343	0.202799	15.8928	88357.2	310328	322662	-74.1072	0.0000000E+000	0.0000000E+000	0.0000000E+000	74.1072	0.0000000E+000	0.0000000E+000	0.0000000E+000	-74.1072	0.0000000E+000	0.0000000E+000	0.0000000E+000	-15.8928	0.0000000E+000	0.0000000E+000	0.0000000E+000	15.8928	3.5122	74.1072	-1.14174e-05	-0.000434578	4.78008e-08	-0.000434626	3.8754	34551.7	3.80047	34555.5
63.0823	5.18281	1.05412	5.28892	-11.4964	19.15	3.87497	-0.0936147	2393.44	95.0753	1	10	0.00499212	0.000943882	0	-0.000342419	-0.000101353	1.19621e-05	23.0817	0.0126733	0.0116588	-0.00496849	-11.4187	5.29936	5.19447	1.04915	0.185281	0.0376838	0.189074	11.4964	95075.3	467459	477030	-78.5036	0.0000000E+000	0.0000000E+000	0.0000000E+000	78.5036	0.0000000E+000	0.0000000E+000	0.0000000E+000	-78.5036	0.0000000E+000	0.0000000E+000	0.0000000E+000	-11.4964	0.0000000E+000	0.0000000E+000	0.0000000E+000	11.4964	4.91672	78.5036	-9.27315e-06	-0.000362754	9.48815e-09	-0.000362764	3.87507	41392.7	1.08266	41393.8
39.8089	5.43578	0.787777	5.49257	-8.24614	20.0519	3.87496	-0.0644261	5075	104.398	1	10	0.00499409	0.000909245	0	-0.000359107	0.000166186	4.91721e-06	32.1984	0.00540802	0.00457631	-0.00288168	-8.20957	5.49669	5.44036	0.784896	0.180182	0.0261127	0.182064	8.24614	104398	720362	727887	-81.7539	0.0000000E+000	0.0000000E+000	0.0000000E+000	81.7539	0.0000000E+000	0.0000000E+000	0.0000000E+000	-81.7539	0.0000000E+000	0.0000000E+000	0.0000000E+000	-8.24614	0.0000000E+000	0.0000000E+000	0.0000000E+000	8.24614	6.90015	81.7539	-8.02373e-06	-0.000249648	-1.07067e-08	-0.000249638	3.87479	60145.8	2.57949	60143.2
25.1044	5.41435	0.395507	5.42877	-4.17791	20.9311	3.87496	-0.0700624	16029.4	85.0785	1	10	0.00498347	0.000917973	0	-0.00037694	0.000127966	7.146e-06	39.9516	0.00778455	0.00596753	-0.00499877	-4.12077	5.43436	5.42032	0.390508	0.183714	0.0134199	0.184204	4.17791	85078.6	1.1647e+06	1.1678e+06	-85.8221	0.0000000E+000	0.0000000E+000	0.0000000E+000	85.8221	0.0000000E+000	0.0000000E+000	0.0000000E+000	-85.8221	0.0000000E+000	0.0000000E+000	0.0000000E+000	-4.17791	0.0000000E+000	0.0000000E+000	0.0000000E+000	4.17791	13.6897	85.8221	-9.64532e-06	-0.000271489	-8.96563e-09	-0.00027148	3.87483	55307.2	1.82646	55305.4
15.8576	5.62656	0.519308	5.65047	-5.27322	21.8091	3.87497	-0.12117	19326.7	163.245	1	10	0.00498253	0.00088179	0	-0.000395211	-0.000235123	2.69887e-05	5.20866	0.0306067	0.0304803	-0.00277857	-5.21706	5.68057	5.65704	0.516529	0.176227	0.016265	0.176976	5.27322	163245	1.76871e+06	1.77623e+06	-84.7268	0.0000000E+000	0.0000000E+000	0.0000000E+000	84.7268	0.0000000E+000	0.0000000E+000	0.0000000E+000	-84.7268	0.0000000E+000	0.0000000E+000	0.0000000E+000	-5.27322	0.0000000E+000	0.0000000E+000	0.0000000E+000	5.27322	10.8347	84.7268	-8.6919e-06	-0.000469528	2.84897e-08	-0.000469557	3.87521	31979.7	1.94044	31981.7
10.0032	5.68443	0.292981	5.69198	-2.95047	22.7908	3.87496	-0.0599462	54305.2	143.878	1	10	0.00499346	0.000877281	0	-0.000419142	-6.31332e-05	1.10009e-05	67.7372	0.0125398	0.00475075	-0.011605	-2.83143	5.69614	5.68918	0.281376	0.175453	0.00904301	0.175686	2.95047	143878	2.79153e+06	2.79523e+06	-87.0495	0.0000000E+000	0.0000000E+000	0.0000000E+000	87.0495	0.0000000E+000	0.0000000E+000	0.0000000E+000	-87.0495	0.0000000E+000	0.0000000E+000	0.0000000E+000	-2.95047	0.0000000E+000	0.0000000E+000	0.0000000E+000	2.95047	19.4021	87.0495	-5.19872e-06	-0.000232289	3.7846e-09	-0.000232293	3.87502	64640.7	1.05317	64641.7
6.31058	5.73211	0.268095	5.73838	-2.67781	23.7153	3.87496	-0.0650341	94072.5	205.334	1	10	0.00498687	0.000869039	0	-0.000428807	1.33066e-05	8.99089e-06	1.67709	0.0103458	0.0103414	-0.000302786	-2.66998	5.7487	5.74246	0.267792	0.174075	0.00814159	0.174265	2.67781	205334	4.39023e+06	4.39503e+06	-87.3222	0.0000000E+000	0.0000000E+000	0.0000000E+000	87.3222	0.0000000E+000	0.0000000E+000	0.0000000E+000	-87.3222	0.0000000E+000	0.0000000E+000	0.0000000E+000	-2.67781	0.0000000E+000	0.0000000E+000	0.0000000E+000	2.67781	21.3809	87.3222	1.25338e-06	-0.000252005	-8.65383e-10	-0.000252004	3.87495	59583.5	0.204609	59583.3
3.97785	5.71802	0.229887	5.72264	-2.30227	24.7223	3.87499	-0.0571299	174043	280.862	1	10	0.00499021	0.000872011	0	-0.00045925	-0.000216013	2.40431e-05	-49.8829	0.027572	0.0177661	0.0210851	-2.5054	5.74128	5.73579	0.250972	0.174603	0.00701974	0.174744	2.30227	280862	6.98593e+06	6.99157e+06	-87.6977	0.0000000E+000	0.0000000E+000	0.0000000E+000	87.6977	0.0000000E+000	0.0000000E+000	0.0000000E+000	-87.6977	0.0000000E+000	0.0000000E+000	0.0000000E+000	-2.30227	0.0000000E+000	0.0000000E+000	0.0000000E+000	2.30227	24.8732	87.6977	-1.61747e-05	-0.000221378	1.23408e-08	-0.00022139	3.87521	67827.7	3.78108	67831.5
2.51367	5.71835	0.288545	5.72562	-2.88866	26.7249	3.87499	-0.055524	219431	557.286	1	11	0.00498789	0.000871152	0	-0.000469909	0.000108856	2.94061e-06	56.3542	0.00337555	0.00187024	-0.00281007	-2.85964	5.72735	5.72022	0.285734	0.174431	0.00880171	0.174653	2.88866	557287	1.10442e+07	1.10583e+07	-87.1113	0.0000000E+000	0.0000000E+000	0.0000000E+000	87.1113	0.0000000E+000	0.0000000E+000	0.0000000E+000	-87.1113	0.0000000E+000	0.0000000E+000	0.0000000E+000	-2.88866	0.0000000E+000	0.0000000E+000	0.0000000E+000	2.88866	19.8179	87.1113	-5.46495e-06	-0.000215155	-6.04415e-09	-0.000215149	3.87488	69789.4	1.96053	69787.5
1.58469	5.79824	0.271089	5.80457	-2.67685	29.1606	3.87498	-0.0456473	370480	808.071	1	11	0.00498973	0.00085962	0	-0.000526867	5.15265e-05	5.76756e-06	6.34561	0.00670943	0.00666832	-0.000741562	-2.66647	5.8112	5.8049	0.270348	0.17209	0.00804586	0.172278	2.67685	808070	1.72835e+07	1.73024e+07	-87.3232	0.0000000E+000	0.0000000E+000	0.0000000E+000	87.3232	0.0000000E+000	0.0000000E+000	0.0000000E+000	-87.3232	0.0000000E+000	0.0000000E+000	0.0000000E+000	-2.67685	0.0000000E+000	0.0000000E+000	0.0000000E+000	2.67685	21.3886	87.3232	-3.65551e-05	-0.000176883	-2.35205e-09	-0.00017688	3.87493	84889.6	1.1288	84888.5
1.00469	5.88428	0.294618	5.89165	-2.86633	239.98	3.87496	-0.0418832	537684	1344.54	1	11	0.00506341	0.000859421	0	-0.00638467	-0.000139573	4.34607e-07	-12.8681	0.000505698	0.000492997	0.000112623	-2.86719	5.89215	5.88477	0.294731	0.169519	0.00848762	0.169732	2.86633	1.34454e+06	2.68538e+07	2.68875e+07	-87.1337	0.0000000E+000	0.0000000E+000	0.0000000E+000	87.1337	0.0000000E+000	0.0000000E+000	0.0000000E+000	-87.1337	0.0000000E+000	0.0000000E+000	0.0000000E+000	-2.86633	0.0000000E+000	0.0000000E+000	0.0000000E+000	2.86633	19.9725	87.1337	-0.00581624	-0.000162296	5.84576e-09	-0.000162301	3.8751	92518.3	3.33244	92521.7
0.632957	5.95362	0.374682	5.9654	-3.60107	239.981	3.87496	-0.0418832	671093	2647.46	1	11	0.00507622	0.000850945	0	-0.00638467	-0.000139573	2.84564e-07	23.0385	0.000334409	0.000307737	-0.000130871	-3.59963	5.9657	5.95393	0.374551	0.167302	0.0105289	0.167633	3.60107	2.64746e+06	4.20676e+07	4.21509e+07	-86.3989	0.0000000E+000	0.0000000E+000	0.0000000E+000	86.3989	0.0000000E+000	0.0000000E+000	0.0000000E+000	-86.3989	0.0000000E+000	0.0000000E+000	0.0000000E+000	-3.60107	0.0000000E+000	0.0000000E+000	0.0000000E+000	3.60107	15.8898	86.3989	0.000000000000000E+000	-0.000162296	5.84576e-09	-0.000162301	3.8751	92518.3	3.33244	92521.7
0.401878	6.02385	0.468464	6.04204	-4.44684	239.981	3.87496	-0.0418832	845376	5082.01	1	11	0.00508959	0.000842363	0	-0.00638467	-0.000139573	5.59583e-07	-23.2913	0.000664302	0.000610165	0.000262669	-4.44887	6.04267	6.02446	0.468727	0.165009	0.0128324	0.165507	4.44684	5.08201e+06	6.53482e+07	6.55455e+07	-85.5532	0.0000000E+000	0.0000000E+000	0.0000000E+000	85.5532	0.0000000E+000	0.0000000E+000	0.0000000E+000	-85.5532	0.0000000E+000	0.0000000E+000	0.0000000E+000	-4.44684	0.0000000E+000	0.0000000E+000	0.0000000E+000	4.44684	12.8587	85.5532	0.000000000000000E+000	-0.000162296	5.84576e-09	-0.000162301	3.8751	92518.3	3.33244	92521.7
0.251173	6.1562	0.623316	6.18767	-5.7815	239.982	3.87496	-0.0418832	1.01657e+06	10315.7	1	11	0.00509141	0.000822832	0	-0.00638467	-0.000139573	7.94102e-07	-15.7512	0.000965083	0.000928844	0.000261982	-5.78305	6.18862	6.15712	0.623577	0.16079	0.01628	0.161612	5.7815	1.03157e+07	1.01884e+08	1.02405e+08	-84.2185	0.0000000E+000	0.0000000E+000	0.0000000E+000	84.2185	0.0000000E+000	0.0000000E+000	0.0000000E+000	-84.2185	0.0000000E+000	0.0000000E+000	0.0000000E+000	-5.7815	0.0000000E+000	0.0000000E+000	0.0000000E+000	5.7815	9.87653	84.2185	0.000000000000000E+000	-0.000162296	5.84576e-09	-0.000162301	3.8751	92518.3	3.33244	92521.7
0.160751	6.30798	0.710134	6.34783	-6.42315	239.983	3.87496	-0.0418832	1.3942e+06	17448.4	1	11	0.00508578	0.000801184	0	-0.00638467	-0.000139573	3.83925e-07	-3.69601	0.000479198	0.000478201	3.08904e-05	-6.42294	6.34831	6.30846	0.710165	0.156545	0.0176234	0.157534	6.42315	1.74484e+07	1.54991e+08	1.5597e+08	-83.5769	0.0000000E+000	0.0000000E+000	0.0000000E+000	83.5769	0.0000000E+000	0.0000000E+000	0.0000000E+000	-83.5769	0.0000000E+000	0.0000000E+000	0.0000000E+000	-6.42315	0.0000000E+000	0.0000000E+000	0.0000000E+000	6.42315	8.8828	83.5769	0.000000000000000E+000	-0.000162296	5.84576e-09	-0.000162301	3.8751	92518.3	3.33244	92521.7
0.100469	6.46209	0.976114	6.5354	-8.58973	239.983	3.87496	-0.0418832	1.62288e+06	36202.9	1	11	0.00508715	0.000778399	0	-0.00638467	-0.000139573	5.17588e-07	-56.1836	0.000664938	0.00037006	0.000552448	-8.59403	6.53584	6.46246	0.976666	0.151297	0.0228537	0.153013	8.58973	3.62029e+07	2.39671e+08	2.4239e+08	-81.4103	0.0000000E+000	0.0000000E+000	0.0000000E+000	81.4103	0.0000000E+000	0.0000000E+000	0.0000000E+000	-81.4103	0.0000000E+000	0.0000000E+000	0.0000000E+000	-8.58973	0.0000000E+000	0.0000000E+000	0.0000000E+000	8.58973	6.62022	81.4103	0.000000000000000E+000	-0.000162296	5.84576e-09	-0.000162301	3.8751	92518.3	3.33244	92521.7
0.0602816	6.77336	1.21243	6.88101	-10.1484	239.984	3.87496	-0.0418832	2.17761e+06	67606.1	1	11	0.00508261	0.000738642	0	-0.00638467	-0.000139573	6.72121e-07	31.6541	0.000909941	0.000774571	-0.000477527	-10.1434	6.88169	6.77413	1.21195	0.143054	0.0256065	0.145327	10.1484	6.76061e+07	3.77689e+08	3.83692e+08	-79.8516	0.0000000E+000	0.0000000E+000	0.0000000E+000	79.8516	0.0000000E+000	0.0000000E+000	0.0000000E+000	-79.8516	0.0000000E+000	0.0000000E+000	0.0000000E+000	-10.1484	0.0000000E+000	0.0000000E+000	0.0000000E+000	10.1484	5.58661	79.8516	0.000000000000000E+000	-0.000162296	5.84576e-09	-0.000162301	3.8751	92518.3	3.33244	92521.7
0.0401878	7.1208	1.47181	7.27132	-11.6781	239.985	3.87496	-0.0418832	2.69075e+06	110244	1	11	0.00508339	0.000699102	0	-0.00638467	-0.000139573	8.81968e-07	-50.364	0.00126157	0.000804767	0.000971554	-11.6844	7.2723	7.12161	1.47279	0.13468	0.0278373	0.137527	11.6781	1.10244e+08	5.33371e+08	5.44645e+08	-78.3219	0.0000000E+000	0.0000000E+000	0.0000000E+000	78.3219	0.0000000E+000	0.0000000E+000	0.0000000E+000	-78.3219	0.0000000E+000	0.0000000E+000	0.0000000E+000	-11.6781	0.0000000E+000	0.0000000E+000	0.0000000E+000	11.6781	4.83811	78.3219	0.000000000000000E+000	-0.000162296	5.84576e-09	-0.000162301	3.8751	92518.3	3.33244	92521.7
0.0200939	7.95638	2.22906	8.26273	-15.6508	239.985	3.87496	-0.0418832	3.55332e+06	258602	1	11	0.00508645	0.000615589	0	-0.00638467	-0.000139573	1.02383e-06	-20.1482	0.00166318	0.0015614	0.000572881	-15.6517	8.26439	7.95794	2.22964	0.116538	0.0326494	0.121025	15.6508	2.58602e+08	9.23049e+08	9.5859e+08	-74.3492	0.0000000E+000	0.0000000E+000	0.0000000E+000	74.3492	0.0000000E+000	0.0000000E+000	0.0000000E+000	-74.3492	0.0000000E+000	0.0000000E+000	0.0000000E+000	-15.6508	0.0000000E+000	0.0000000E+000	0.0000000E+000	15.6508	3.56938	74.3492	0.000000000000000E+000	-0.000162296	5.84576e-09	-0.000162301	3.8751	92518.3	3.33244	92521.7
0.00796479	8.64004	2.50744	8.99653	-16.1834	20328.9	3.87496	-0.00129625	7.96921e+06	619052	1	11	0.00507532	0.000564142	0	-0.0712528	-0.000273343	5.16612e-07	-33.7007	0.000915748	0.000761854	0.000508106	-16.1851	8.9974	8.6408	2.50795	0.106749	0.03098	0.111154	16.1834	6.19052e+08	2.1331e+09	2.22112e+09	-73.8166	0.0000000E+000	0.0000000E+000	0.0000000E+000	73.8166	0.0000000E+000	0.0000000E+000	0.0000000E+000	-73.8166	0.0000000E+000	0.0000000E+000	0.0000000E+000	-16.1834	0.0000000E+000	0.0000000E+000	0.0000000E+000	16.1834	3.44576	73.8166	-0.0648681	-5.02292e-06	3.5432e-10	-5.02327e-06	3.87523	2.98936e+06	210.872	2.98957e+06
0.00497799	9.42887	2.58209	9.77603	-15.3149	20328.9	3.87496	-0.00129625	1.23821e+07	863798	1	11	0.00508283	0.000519928	0	-0.0712528	-0.000273343	3.16896e-07	-30.5472	0.0006095	0.000524908	0.000309778	-15.3159	9.77662	9.42939	2.5824	0.0986585	0.0270176	0.102291	15.3149	8.63798e+08	3.15428e+09	3.27042e+09	-74.6851	0.0000000E+000	0.0000000E+000	0.0000000E+000	74.6851	0.0000000E+000	0.0000000E+000	0.0000000E+000	-74.6851	0.0000000E+000	0.0000000E+000	0.0000000E+000	-15.3149	0.0000000E+000	0.0000000E+000	0.0000000E+000	15.3149	3.65164	74.6851	0.000000000000000E+000	-5.02292e-06	3.5432e-10	-5.02327e-06	3.87523	2.98936e+06	210.872	2.98957e+06
0.00318591	9.99747	3.36514	10.5486	-18.6032	20328.9	3.87496	-0.00129625	1.48451e+07	1.51076e+06	1	11	0.0050853	0.000482082	0	-0.0712528	-0.000273343	3.1507e-07	2.24296	0.000653562	0.000653061	-2.55785e-05	-18.6019	10.5492	9.99813	3.36511	0.0898458	0.030242	0.094799	18.6032	1.51076e+09	4.48832e+09	4.73576e+09	-71.3968	0.0000000E+000	0.0000000E+000	0.0000000E+000	71.3968	0.0000000E+000	0.0000000E+000	0.0000000E+000	-71.3968	0.0000000E+000	0.0000000E+000	0.0000000E+000	-18.6032	0.0000000E+000	0.0000000E+000	0.0000000E+000	18.6032	2.9709	71.3968	0.000000000000000E+000	-5.02292e-06	3.5432e-10	-5.02327e-06	3.87523	2.98936e+06	210.872	2.98957e+06
0.0019912	10.4373	4.0046	11.1792	-20.991	20328.9	3.87496	-0.00129625	1.99594e+07	2.56122e+06	1	11	0.00508807	0.000455139	0	-0.0712528	-0.000273343	4.02192e-07	41.8364	0.000883669	0.000658379	-0.000589412	-20.9869	11.1796	10.4379	4.00401	0.0835159	0.0320436	0.0894522	20.991	2.56122e+09	6.67537e+09	7.14985e+09	-69.009	0.0000000E+000	0.0000000E+000	0.0000000E+000	69.009	0.0000000E+000	0.0000000E+000	0.0000000E+000	-69.009	0.0000000E+000	0.0000000E+000	0.0000000E+000	-20.991	0.0000000E+000	0.0000000E+000	0.0000000E+000	20.991	2.60632	69.009	0.000000000000000E+000	-5.02292e-06	3.5432e-10	-5.02327e-06	3.87523	2.98936e+06	210.872	2.98957e+06
0.00129428	10.1732	5.11816	11.3881	-26.7071	20328.9	3.87496	-0.00129625	2.40259e+07	4.85292e+06	1	11	0.00508989	0.000446948	0	-0.0712528	-0.000273343	1.0258e-06	14.8808	0.00229513	0.00221815	-0.00058941	-26.6995	11.3898	10.1754	5.11757	0.0784428	0.0394648	0.0878109	26.7071	4.85292e+09	9.64597e+09	1.07979e+10	-63.2929	0.0000000E+000	0.0000000E+000	0.0000000E+000	63.2929	0.0000000E+000	0.0000000E+000	0.0000000E+000	-63.2929	0.0000000E+000	0.0000000E+000	0.0000000E+000	-26.7071	0.0000000E+000	0.0000000E+000	0.0000000E+000	26.7071	1.98766	63.2929	0.000000000000000E+000	-5.02292e-06	3.5432e-10	-5.02327e-06	3.87523	2.98936e+06	210.872	2.98957e+06
0.000796479	11.22	7.39207	13.4362	-33.3781	20328.9	3.87496	-0.00129625	2.70321e+07	8.18203e+06	1	11	0.0050883	0.000378701	0	-0.0712528	-0.000273343	1.72572e-06	165.469	0.00455695	-0.00441119	-0.00114334	-33.3844	13.4319	11.2156	7.39093	0.06215	0.0409463	0.0744259	33.3781	8.18203e+09	1.2419e+10	1.4872e+10	-56.6219	0.0000000E+000	0.0000000E+000	0.0000000E+000	56.6219	0.0000000E+000	0.0000000E+000	0.0000000E+000	-56.6219	0.0000000E+000	0.0000000E+000	0.0000000E+000	-33.3781	0.0000000E+000	0.0000000E+000	0.0000000E+000	33.3781	1.51784	56.6219	0.000000000000000E+000	-5.02292e-06	3.5432e-10	-5.02327e-06	3.87523	2.98936e+06	210.872	2.98957e+06
0.000497799	10.9504	10.4131	15.1111	-43.5593	20328.9	3.87496	-0.00129625	3.07033e+07	1.458e+07	1	11	0.00509165	0.000336948	0	-0.0712528	-0.000273343	1.30162e-06	-54.5742	0.00386297	0.00223916	0.0031478	-43.5621	15.1149	10.9527	10.4163	0.0479557	0.0456027	0.0661767	43.5593	1.458e+10	1.53323e+10	2.11578e+10	-46.4407	0.0000000E+000	0.0000000E+000	0.0000000E+000	46.4407	0.0000000E+000	0.0000000E+000	0.0000000E+000	-46.4407	0.0000000E+000	0.0000000E+000	0.0000000E+000	-43.5593	0.0000000E+000	0.0000000E+000	0.0000000E+000	43.5593	1.0516	46.4407	0.000000000000000E+000	-5.02292e-06	3.5432e-10	-5.02327e-06	3.87523	2.98936e+06	210.872	2.98957e+06
0.000298679	10.1695	16.2407	19.1619	-57.9462	20328.9	3.87496	-0.00129625	3.28103e+07	2.3569e+07	1	11	0.00509203	0.000265737	0	-0.0712528	-0.000273343	3.85229e-06	-91.2894	0.0144966	-0.000326206	0.0144929	-57.97	19.174	10.1692	16.2552	0.0276964	0.044231	0.0521869	57.9462	2.3569e+10	1.47584e+10	2.78084e+10	-32.0538	0.0000000E+000	0.0000000E+000	0.0000000E+000	32.0538	0.0000000E+000	0.0000000E+000	0.0000000E+000	-32.0538	0.0000000E+000	0.0000000E+000	0.0000000E+000	-57.9462	0.0000000E+000	0.0000000E+000	0.0000000E+000	57.9462	0.626176	32.0538	0.000000000000000E+000	-5.02292e-06	3.5432e-10	-5.02327e-06	3.87523	2.98936e+06	210.872	2.98957e+06
9.95598e-05	9.58521	70.8007	71.4466	-82.29	20328.9	3.87496	-0.00129625	2.25787e+07	2.21723e+07	1	11	0.0050913	7.12603e-05	0	-0.0712528	-0.000273343	5.46492e-06	94.2534	0.0766896	-0.00568793	-0.0764783	-82.2863	71.37	9.57952	70.7242	0.00187776	0.0138699	0.0139965	82.29	2.21723e+10	3.00175e+09	2.23746e+10	-7.71	0.0000000E+000	0.0000000E+000	0.0000000E+000	7.71	0.0000000E+000	0.0000000E+000	0.0000000E+000	-7.71	0.0000000E+000	0.0000000E+000	0.0000000E+000	-82.29	0.0000000E+000	0.0000000E+000	0.0000000E+000	82.29	0.135383	7.70999	0.000000000000000E+000	-5.02292e-06	3.5432e-10	-5.02327e-06	3.87523	2.98936e+06	210.872	2.98957e+06