File: txt/19343_R279_UA714_SOC00_C02.mpt
EC-Lab ASCII FILE
Nb header lines : 65

Potentio Electrochemical Impedance Spectroscopy

Run on channel : 2 (SN 66139)
User :
CE vs. WE compliance from -10 V to 10 V
Electrode connection : standard
Potential control : Ewe
Ewe ctrl range : min = -10.00 V, max = 10.00 V
Safety Limits :
	Do not start on E overload
Acquisition started on : 11/20/2025 15:02:26.919
Technique started on : 11/20/2025 15:02:28.646
Loaded Setting File :  C:\Users\Celltest\OneDrive - store-dot.com\Documents\EC-Lab\Data\@Biologic Test Protocols\anode half cell EIS SOC00.mps
Saved on :
	File : 19343_R279_UA714_SOC00_C02.mpr
	Directory : C:\Users\Celltest\OneDrive - store-dot.com\Documents\EC-Lab\Data\Charmaine\
	Host : 169.254.61.224
Device : VMP-3e (SN .003165)
Address : USB
EC-LAB for windows v11.62 (software)
Internet server v27.00 (firmware)
Command interpretor v12.03 (firmware)
Electrode material :
Initial state :
Electrolyte :
Comments :
Electrode surface area : 0.001 cm²
Characteristic mass : 0.001 g
Equivalent Weight : 0.000 g/eq.
Density : 0.000 g/cm3
Volume (V) : 0.001 cm³
Record Ece
Cycle Definition : Charge/Discharge alternance
Mode                Single sine
E (V)               0.0000
vs.                 Eoc
tE (h:m:s)          0:00:0.0000
record              0
dI                  0.000
unit dI             mA
dt (s)              0.000
fi                  100.000
unit fi             kHz
ff                  10.000
unit ff             mHz
Nd                  6
Points              per decade
spacing             Logarithmic
Va (mV)             5.0
pw                  0.10
Na                  2
corr                0
E range min (V)     -10.000
E range max (V)     10.000
I Range             Auto
Bandwidth           5
nc cycles           0
goto Ns'            0
nr cycles           0
inc. cycle          0

freq/Hz	Re(Z)/Ohm	-Im(Z)/Ohm	|Z|/Ohm	Phase(Z)/deg	time/s	<Ewe>/V	<I>/mA	Cs/µF	Cp/µF	cycle number	I Range	|Ewe|/V	|I|/A	Ns	(Q-Qo)/mA.h	<Ece>/V	|Ece|/V	Phase(Zce)/deg	|Zce|/Ohm	Re(Zce)/Ohm	-Im(Zce)/Ohm	Phase(Zwe-ce)/deg	|Zwe-ce|/Ohm	Re(Zwe-ce)/Ohm	-Im(Zwe-ce)/Ohm	Re(Y)/Ohm-1	Im(Y)/Ohm-1	|Y|/Ohm-1	Phase(Y)/deg	Re(C)/nF	Im(C)/nF	|C|/nF	Phase(C)/deg	Re(M)	Im(M)	|M|	Phase(M)/deg	Re(Permittivity)	Im(Permittivity)	|Permittivity|	Phase(Permittivity)/deg	Re(Resistivity)/Ohm.cm	Im(Resistivity)/Ohm.cm	|Resistivity|/Ohm.cm	Phase(Resistivity)/deg	Re(Conductivity)/mS/cm	Im(Conductivity)/mS/cm	|Conductivity|/mS/cm	Phase(Conductivity)/deg	Tan(Delta)	Loss Angle(Delta)/deg	dq/mA.h	Pwe/W	Pce/W	Pwe-ce/W	<Ewe-Ece>/V	Rwe/Ohm	Rce/Ohm	Rwe-ce/Ohm		Ewe-Ece/V
100004	1.25073	0.607527	1.39047	-25.9076	1.72652	0.261586	-0.00159927	2.61962	0.500084	1	9	0.00459156	0.00330216	0	-3.02352e-06	4.00515e-05	2.46393e-05	97.052	0.00746157	-0.000916054	-0.00740513	-25.6488	1.38643	1.24982	0.600122	0.646902	0.314224	0.719179	25.9076	500.084	1029.54	1144.57	-64.0924	0.0000000E+000	0.0000000E+000	0.0000000E+000	64.0924	0.0000000E+000	0.0000000E+000	0.0000000E+000	-64.0924	0.0000000E+000	0.0000000E+000	0.0000000E+000	-25.9076	0.0000000E+000	0.0000000E+000	0.0000000E+000	25.9076	2.05873	64.0924	-3.02352e-06	-4.18347e-07	-6.40531e-11	-4.18282e-07	0.261546	163566	25.0436	163541
68132	1.42017	0.6811	1.57504	-25.622	2.23354	0.261571	-0.0112087	3.42971	0.641348	1	9	0.00506334	0.00321473	0	-9.39788e-07	0.000192778	1.44813e-05	84.7738	0.00450468	0.000410326	-0.00448595	-25.4683	1.57348	1.42058	0.676614	0.57247	0.274552	0.634903	25.622	641.348	1337.28	1483.12	-64.378	0.0000000E+000	0.0000000E+000	0.0000000E+000	64.378	0.0000000E+000	0.0000000E+000	0.0000000E+000	-64.378	0.0000000E+000	0.0000000E+000	0.0000000E+000	-25.622	0.0000000E+000	0.0000000E+000	0.0000000E+000	25.622	2.08511	64.378	2.08373e-06	-2.93188e-06	-2.1608e-09	-2.92972e-06	0.261378	23336.4	17.199	23319.2
46420.4	1.61522	0.745197	1.77883	-24.7667	2.74053	0.261563	-0.0132572	4.60088	0.807446	1	9	0.00512456	0.00288086	0	2.48241e-06	0.00023096	9.1467e-06	83.0529	0.00317499	0.000384022	-0.00315168	-24.6693	1.77786	1.6156	0.742045	0.510459	0.235506	0.562167	24.7667	807.446	1750.14	1927.42	-65.2333	0.0000000E+000	0.0000000E+000	0.0000000E+000	65.2333	0.0000000E+000	0.0000000E+000	0.0000000E+000	-65.2333	0.0000000E+000	0.0000000E+000	0.0000000E+000	-24.7667	0.0000000E+000	0.0000000E+000	0.0000000E+000	24.7667	2.1675	65.2333	3.4222e-06	-3.46761e-06	-3.06189e-09	-3.46455e-06	0.261332	19729.8	17.4214	19712.4
31621.1	1.7964	0.807058	1.96936	-24.1927	3.24753	0.261572	-0.0141139	6.23646	1.04736	1	9	0.00513131	0.00260557	0	1.48262e-05	5.91423e-05	1.40857e-05	-1.90592	0.00540601	0.00540302	0.000179795	-24.1332	1.97436	1.8018	0.807238	0.463182	0.208091	0.507779	24.1927	1047.36	2331.28	2555.74	-65.8073	0.0000000E+000	0.0000000E+000	0.0000000E+000	65.8073	0.0000000E+000	0.0000000E+000	0.0000000E+000	-65.8073	0.0000000E+000	0.0000000E+000	0.0000000E+000	-24.1927	0.0000000E+000	0.0000000E+000	0.0000000E+000	24.1927	2.22586	65.8073	1.23438e-05	-3.69181e-06	-8.34729e-10	-3.69097e-06	0.261513	18532.9	4.19036	18528.8
21544.7	2.00456	0.866242	2.18372	-23.3709	3.63054	0.26157	-0.00912297	8.52787	1.34191	1	9	0.00481821	0.00220642	0	1.38016e-05	0.000173687	1.05674e-05	-96.8624	0.00478938	-0.000572261	0.00475507	-23.4913	2.18509	2.00399	0.870997	0.420363	0.181653	0.457933	23.3709	1341.91	3105.31	3382.85	-66.6291	0.0000000E+000	0.0000000E+000	0.0000000E+000	66.6291	0.0000000E+000	0.0000000E+000	0.0000000E+000	-66.6291	0.0000000E+000	0.0000000E+000	0.0000000E+000	-23.3709	0.0000000E+000	0.0000000E+000	0.0000000E+000	23.3709	2.31409	66.6291	-1.02469e-06	-2.38629e-06	-1.58455e-09	-2.38471e-06	0.261396	28671.6	19.0385	28652.5
14678.6	2.2062	0.928268	2.39353	-22.8191	4.01353	0.26157	-0.00685098	11.6805	1.75683	1	9	0.00496561	0.00207459	0	1.50395e-05	0.000116415	1.26228e-05	-14.1089	0.00608445	0.00590091	0.00148318	-22.7971	2.39955	2.2121	0.929752	0.385093	0.16203	0.417793	22.8191	1756.83	4175.44	4529.98	-67.1809	0.0000000E+000	0.0000000E+000	0.0000000E+000	67.1809	0.0000000E+000	0.0000000E+000	0.0000000E+000	-67.1809	0.0000000E+000	0.0000000E+000	0.0000000E+000	-22.8191	0.0000000E+000	0.0000000E+000	0.0000000E+000	22.8191	2.37668	67.1809	1.23798e-06	-1.79201e-06	-7.97556e-10	-1.79122e-06	0.261454	38180	16.9924	38163
10002.2	2.40705	0.988895	2.60227	-22.3344	4.39654	0.261569	-0.00655302	16.0906	2.32364	1	9	0.00486423	0.00186923	0	1.59934e-05	0.000116415	6.10953e-06	-67.3746	0.00326848	0.0012574	0.00301694	-22.3853	2.60458	2.40831	0.991912	0.355451	0.146031	0.38428	22.3344	2323.64	5655.93	6114.64	-67.6656	0.0000000E+000	0.0000000E+000	0.0000000E+000	67.6656	0.0000000E+000	0.0000000E+000	0.0000000E+000	-67.6656	0.0000000E+000	0.0000000E+000	0.0000000E+000	-22.3344	0.0000000E+000	0.0000000E+000	0.0000000E+000	22.3344	2.43408	67.6656	9.53872e-07	-1.71406e-06	-7.62869e-10	-1.7133e-06	0.261452	39915.7	17.7651	39898
6810.42	2.62684	1.10023	2.84795	-22.726	4.65556	0.261562	-0.0103521	21.2404	3.17005	1	9	0.0046569	0.00163517	0	1.39236e-05	0.000288232	1.88744e-05	-12.111	0.0115428	0.0112859	0.00242174	-22.6834	2.8593	2.63813	1.10265	0.323869	0.13565	0.35113	22.726	3170.05	7568.6	8205.66	-67.274	0.0000000E+000	0.0000000E+000	0.0000000E+000	67.274	0.0000000E+000	0.0000000E+000	0.0000000E+000	-67.274	0.0000000E+000	0.0000000E+000	0.0000000E+000	-22.726	0.0000000E+000	0.0000000E+000	0.0000000E+000	22.726	2.38754	67.274	-2.06979e-06	-2.70772e-06	-2.98381e-09	-2.70474e-06	0.261274	25266.6	27.8429	25238.7
4646	2.81508	1.2343	3.07379	-23.6756	4.92163	0.26154	-0.033966	27.7536	4.47522	1	9	0.00455504	0.0014819	0	1.27209e-05	0.000345505	4.599e-06	38.8473	0.00310345	0.00241703	-0.00194663	-23.6243	3.07522	2.8175	1.23236	0.297949	0.130639	0.325331	23.6756	4475.22	10206.6	11144.7	-66.3244	0.0000000E+000	0.0000000E+000	0.0000000E+000	66.3244	0.0000000E+000	0.0000000E+000	0.0000000E+000	-66.3244	0.0000000E+000	0.0000000E+000	0.0000000E+000	-23.6756	0.0000000E+000	0.0000000E+000	0.0000000E+000	23.6756	2.2807	66.3244	-1.20268e-06	-8.88348e-06	-1.17354e-08	-8.87175e-06	0.261195	7700.06	10.1721	7689.89
3163.08	3.0612	1.44069	3.38328	-25.203	5.47368	0.261367	-0.0348599	34.9253	6.33294	1	9	0.00497917	0.0014717	0	8.72442e-06	0.000173687	7.33402e-06	-81.6618	0.00498337	0.000722671	0.00493069	-25.2733	3.38603	3.06193	1.44562	0.267435	0.125862	0.295572	25.203	6332.94	13456.4	14872.1	-64.797	0.0000000E+000	0.0000000E+000	0.0000000E+000	64.797	0.0000000E+000	0.0000000E+000	0.0000000E+000	-64.797	0.0000000E+000	0.0000000E+000	0.0000000E+000	-25.203	0.0000000E+000	0.0000000E+000	0.0000000E+000	25.203	2.12482	64.797	-3.99652e-06	-9.11124e-06	-6.05473e-09	-9.10518e-06	0.261193	7497.64	4.98244	7492.66
2155.69	3.3231	1.69326	3.72962	-27.0007	6.16979	0.261507	-0.0224554	43.6025	8.98724	1	10	0.00514357	0.00137911	0	1.14919e-05	1.86979e-06	8.79955e-06	75.2061	0.00638059	0.00162923	-0.00616908	-26.9049	3.72828	3.32473	1.68709	0.238898	0.121729	0.268124	27.0007	8987.24	17637.9	19795.6	-62.9993	0.0000000E+000	0.0000000E+000	0.0000000E+000	62.9993	0.0000000E+000	0.0000000E+000	0.0000000E+000	-62.9993	0.0000000E+000	0.0000000E+000	0.0000000E+000	-27.0007	0.0000000E+000	0.0000000E+000	0.0000000E+000	27.0007	1.96255	62.9993	2.76746e-06	-5.87223e-06	-4.19868e-11	-5.87219e-06	0.261505	11645.6	0.083267	11645.6
1468.59	3.61543	2.05229	4.15732	-29.5813	6.62104	0.261513	-0.0229508	52.8056	12.8687	1	10	0.00507721	0.00122127	0	8.08446e-06	7.82332e-05	6.08498e-06	-91.0784	0.00498249	-9.3769e-05	0.00498161	-29.6416	4.1597	3.61534	2.05728	0.209187	0.118745	0.24054	29.5813	12868.7	22670.1	26067.9	-60.4187	0.0000000E+000	0.0000000E+000	0.0000000E+000	60.4187	0.0000000E+000	0.0000000E+000	0.0000000E+000	-60.4187	0.0000000E+000	0.0000000E+000	0.0000000E+000	-29.5813	0.0000000E+000	0.0000000E+000	0.0000000E+000	29.5813	1.76165	60.4187	-3.40741e-06	-6.00193e-06	-1.79552e-09	-6.00013e-06	0.261434	11394.5	3.40873	11391.1
1000.32	3.95287	2.56056	4.70974	-32.9341	7.07179	0.261508	-0.0226155	62.1363	18.3663	1	10	0.00502545	0.00106703	0	4.79567e-06	0.000135506	5.72861e-06	-97.1772	0.00536873	-0.000670763	0.00532667	-32.9928	4.71208	3.9522	2.56589	0.178204	0.115436	0.212326	32.9341	18366.3	28353	33781.9	-57.0659	0.0000000E+000	0.0000000E+000	0.0000000E+000	57.0659	0.0000000E+000	0.0000000E+000	0.0000000E+000	-57.0659	0.0000000E+000	0.0000000E+000	0.0000000E+000	-32.9341	0.0000000E+000	0.0000000E+000	0.0000000E+000	32.9341	1.54375	57.0659	-3.28878e-06	-5.91414e-06	-3.06454e-09	-5.91108e-06	0.261372	11563.2	5.99171	11557.2
681.09	4.3799	3.25459	5.45673	-36.6151	7.52151	0.261503	-0.023409	71.7991	25.5416	1	10	0.00498258	0.000913107	0	1.74615e-06	4.00515e-05	3.50371e-06	-11.0782	0.00383713	0.00376563	0.000737302	-36.5978	5.46019	4.38367	3.25533	0.147095	0.109303	0.18326	36.6151	25541.6	34372.8	42823.6	-53.3849	0.0000000E+000	0.0000000E+000	0.0000000E+000	53.3849	0.0000000E+000	0.0000000E+000	0.0000000E+000	-53.3849	0.0000000E+000	0.0000000E+000	0.0000000E+000	-36.6151	0.0000000E+000	0.0000000E+000	0.0000000E+000	36.6151	1.34576	53.3849	-3.04952e-06	-6.12154e-06	-9.37566e-10	-6.1206e-06	0.261463	11171	1.71094	11169.3
463.961	4.96161	4.20043	6.50086	-40.2508	7.97334	0.261495	-0.022217	81.6667	34.095	1	10	0.00495774	0.000762629	0	-4.8863e-07	0.000192778	5.81146e-06	-7.31213	0.0076203	0.00755832	0.00096987	-40.2143	6.50726	4.96917	4.2014	0.117403	0.0993922	0.153826	40.2508	34095	40273.5	52767.7	-49.7492	0.0000000E+000	0.0000000E+000	0.0000000E+000	49.7492	0.0000000E+000	0.0000000E+000	0.0000000E+000	-49.7492	0.0000000E+000	0.0000000E+000	0.0000000E+000	-40.2508	0.0000000E+000	0.0000000E+000	0.0000000E+000	40.2508	1.18121	49.7492	-2.23478e-06	-5.80963e-06	-4.28295e-09	-5.80535e-06	0.261303	11770.1	8.67707	11761.4
316.316	5.80303	5.42607	7.94464	-43.0773	8.42102	0.261496	-0.0232563	92.7287	43.255	1	10	0.00493615	0.000621318	0	-3.6761e-06	1.86979e-06	5.99922e-06	-90.936	0.00965564	-0.000157729	0.00965435	-43.1289	7.95112	5.80287	5.43572	0.0919403	0.085968	0.125871	43.0773	43255	46259.9	63332.2	-46.9227	0.0000000E+000	0.0000000E+000	0.0000000E+000	46.9227	0.0000000E+000	0.0000000E+000	0.0000000E+000	-46.9227	0.0000000E+000	0.0000000E+000	0.0000000E+000	-43.0773	0.0000000E+000	0.0000000E+000	0.0000000E+000	43.0773	1.06947	46.9227	-3.18747e-06	-6.08142e-06	-4.34844e-11	-6.08138e-06	0.261494	11244.1	0.0803993	11244
215.345	7.03192	6.96251	9.89568	-44.7158	8.87151	0.261501	-0.0217215	106.15	52.5486	1	10	0.00491609	0.000496792	0	-6.20969e-06	0.000288232	9.52286e-06	-13.4338	0.0191687	0.0186442	0.0044533	-44.6583	9.91206	7.05056	6.96696	0.0718097	0.0711008	0.101054	44.7158	52548.6	53072.4	74686.3	-45.2842	0.0000000E+000	0.0000000E+000	0.0000000E+000	45.2842	0.0000000E+000	0.0000000E+000	0.0000000E+000	-45.2842	0.0000000E+000	0.0000000E+000	0.0000000E+000	-44.7158	0.0000000E+000	0.0000000E+000	0.0000000E+000	44.7158	1.00997	45.2842	-2.53359e-06	-5.68019e-06	-6.26084e-09	-5.67393e-06	0.261212	12038.8	13.2694	12025.5
146.737	8.90084	8.7455	12.4783	-44.4957	9.31748	0.261498	-0.0231893	124.021	60.9188	1	10	0.00491312	0.000393732	0	-8.35918e-06	0.000173687	2.0756e-05	10.6282	0.0527159	0.0518115	-0.00972265	-44.2976	12.5085	8.95265	8.73578	0.0571634	0.0561658	0.0801389	44.4957	60918.8	62000.8	86920.6	-45.5043	0.0000000E+000	0.0000000E+000	0.0000000E+000	45.5043	0.0000000E+000	0.0000000E+000	0.0000000E+000	-45.5043	0.0000000E+000	0.0000000E+000	0.0000000E+000	-44.4957	0.0000000E+000	0.0000000E+000	0.0000000E+000	44.4957	1.01776	45.5043	-2.14949e-06	-6.06394e-06	-4.02768e-09	-6.05991e-06	0.261324	11276.7	7.49	11269.2
100.032	11.5274	10.433	15.5476	-42.1471	9.76877	0.261493	-0.0222766	152.501	68.6696	1	10	0.00490901	0.000315741	0	-1.13886e-05	5.91423e-05	1.39424e-05	6.87247	0.0441576	0.0438404	-0.00528389	-42.0245	15.5766	11.5712	10.4277	0.0476874	0.0431602	0.0643186	42.1471	68669.6	75872.5	102334	-47.8529	0.0000000E+000	0.0000000E+000	0.0000000E+000	47.8529	0.0000000E+000	0.0000000E+000	0.0000000E+000	-47.8529	0.0000000E+000	0.0000000E+000	0.0000000E+000	-42.1471	0.0000000E+000	0.0000000E+000	0.0000000E+000	42.1471	1.10489	47.8529	-3.02937e-06	-5.82517e-06	-1.31749e-09	-5.82385e-06	0.261434	11738.5	2.65491	11735.8
68.104	15.0335	11.7592	19.0862	-38.0326	10.2314	0.261482	-0.0205332	198.733	75.4372	1	10	0.00491232	0.000257375	0	-1.41275e-05	1.86979e-06	3.1599e-06	-128.57	0.0122774	-0.00765456	0.00959907	-38.0694	19.0861	15.0258	11.7688	0.0412685	0.0322803	0.0523938	38.0326	75437.2	96442.1	122441	-51.9674	0.0000000E+000	0.0000000E+000	0.0000000E+000	51.9674	0.0000000E+000	0.0000000E+000	0.0000000E+000	-51.9674	0.0000000E+000	0.0000000E+000	0.0000000E+000	-38.0326	0.0000000E+000	0.0000000E+000	0.0000000E+000	38.0326	1.27844	51.9674	-2.73891e-06	-5.36906e-06	-3.83927e-11	-5.36902e-06	0.26148	12734.6	0.0910619	12734.5
46.4415	19.0867	12.2803	22.6959	-32.7571	10.9077	0.261539	-0.0106818	279.065	81.7006	1	11	0.00491063	0.000216366	0	-1.68789e-05	0.000135506	9.05828e-06	13.6648	0.0418655	0.0406805	-0.00989032	-32.6806	22.7248	19.1273	12.2704	0.0370539	0.0238403	0.0440607	32.7571	81700.6	126983	150996	-57.2429	0.0000000E+000	0.0000000E+000	0.0000000E+000	57.2429	0.0000000E+000	0.0000000E+000	0.0000000E+000	-57.2429	0.0000000E+000	0.0000000E+000	0.0000000E+000	-32.7571	0.0000000E+000	0.0000000E+000	0.0000000E+000	32.7571	1.55425	57.243	-2.75145e-06	-2.7937e-06	-1.44745e-09	-2.79226e-06	0.261403	24484.5	12.6857	24471.8
31.6296	23.0947	11.7309	25.9033	-26.9283	11.3375	0.261536	-0.0107985	428.938	87.9733	1	11	0.00490577	0.000189388	0	-1.79707e-05	-0.000169948	1.42003e-05	77.009	0.0749798	0.0168553	-0.0730607	-26.7672	25.8853	23.1115	11.6579	0.0344194	0.0174833	0.0386052	26.9283	87973.4	173193	194255	-63.0717	0.0000000E+000	0.0000000E+000	0.0000000E+000	63.0717	0.0000000E+000	0.0000000E+000	0.0000000E+000	-63.0717	0.0000000E+000	0.0000000E+000	0.0000000E+000	-26.9283	0.0000000E+000	0.0000000E+000	0.0000000E+000	26.9283	1.9687	63.0717	-1.09181e-06	-2.8242e-06	1.83518e-09	-2.82604e-06	0.261706	24219.7	15.7381	24235.4
21.5517	26.5573	10.3993	28.5208	-21.3842	11.7584	0.261529	-0.0107437	710.127	94.4096	1	11	0.00490659	0.000172035	0	-1.92669e-05	0.000154597	6.31898e-06	-39.6314	0.0367307	0.0282886	0.0234285	-21.4073	28.5557	26.5856	10.4227	0.0326483	0.0127843	0.0350621	21.3842	94409.6	241101	258926	-68.6158	0.0000000E+000	0.0000000E+000	0.0000000E+000	68.6158	0.0000000E+000	0.0000000E+000	0.0000000E+000	-68.6158	0.0000000E+000	0.0000000E+000	0.0000000E+000	-21.3842	0.0000000E+000	0.0000000E+000	0.0000000E+000	21.3842	2.55377	68.6158	-1.29622e-06	-2.80979e-06	-1.66094e-09	-2.80813e-06	0.261374	24342.5	14.3895	24328.2
14.6852	29.1428	8.68076	30.4082	-16.5872	12.2192	0.261532	-0.0100375	1248.49	101.746	1	11	0.00490893	0.000161434	0	-2.1023e-05	-9.35844e-05	5.3363e-06	-20.9538	0.0330556	0.0308696	0.0118212	-16.5919	30.4412	29.1737	8.69258	0.0315173	0.00938805	0.0328858	16.5872	101746	341579	356410	-73.4128	0.0000000E+000	0.0000000E+000	0.0000000E+000	73.4128	0.0000000E+000	0.0000000E+000	0.0000000E+000	-73.4128	0.0000000E+000	0.0000000E+000	0.0000000E+000	-16.5872	0.0000000E+000	0.0000000E+000	0.0000000E+000	16.5872	3.35718	73.4128	-1.75607e-06	-2.62514e-06	9.39355e-10	-2.62608e-06	0.261626	26055.5	9.32347	26064.8
10.0032	30.9731	7.00545	31.7554	-12.7447	12.6698	0.261538	-0.0101076	2271.15	110.53	1	11	0.00490666	0.000154514	0	-2.26784e-05	0.000192778	9.03802e-06	-145.618	0.0584931	-0.0482738	0.0330317	-12.8221	31.7156	30.9248	7.03848	0.0307149	0.00694705	0.0314907	12.7447	110530	488686	501030	-77.2553	0.0000000E+000	0.0000000E+000	0.0000000E+000	77.2553	0.0000000E+000	0.0000000E+000	0.0000000E+000	-77.2553	0.0000000E+000	0.0000000E+000	0.0000000E+000	-12.7447	0.0000000E+000	0.0000000E+000	0.0000000E+000	12.7447	4.42128	77.2553	-1.65542e-06	-2.64352e-06	-1.94853e-09	-2.64158e-06	0.261345	25875.3	19.0726	25856.3
6.81719	32.1901	5.61037	32.6754	-9.88667	13.0095	0.261541	-0.009649	4161.25	122.677	1	11	0.0049031	0.000150055	0	-2.38306e-05	-0.00022722	4.70742e-06	4.46565	0.0313714	0.0312761	-0.00244262	-9.87305	32.7058	32.2214	5.60792	0.0301496	0.00525472	0.0306041	9.88667	122677	703876	714486	-80.1133	0.0000000E+000	0.0000000E+000	0.0000000E+000	80.1133	0.0000000E+000	0.0000000E+000	0.0000000E+000	-80.1133	0.0000000E+000	0.0000000E+000	0.0000000E+000	-9.88667	0.0000000E+000	0.0000000E+000	0.0000000E+000	9.88667	5.73762	80.1133	-1.15218e-06	-2.52361e-06	2.19245e-09	-2.5258e-06	0.261768	27105.5	23.5486	27129.1
4.63925	33.0335	4.5725	33.3485	-7.8808	13.4945	0.26155	-0.00964155	7502.72	141.05	1	11	0.00490592	0.000147111	0	-2.34343e-05	0.000250051	1.05155e-05	-123.849	0.0714798	-0.0398145	0.0593647	-7.99131	33.3172	32.9937	4.63186	0.0297032	0.00411151	0.0299864	7.8808	141050	1.019e+06	1.02872e+06	-82.1192	0.0000000E+000	0.0000000E+000	0.0000000E+000	82.1192	0.0000000E+000	0.0000000E+000	0.0000000E+000	-82.1192	0.0000000E+000	0.0000000E+000	0.0000000E+000	-7.8808	0.0000000E+000	0.0000000E+000	0.0000000E+000	7.8808	7.22439	82.1192	3.96341e-07	-2.52175e-06	-2.41088e-09	-2.51934e-06	0.2613	27127.4	25.9347	27101.4
3.1604	33.7517	3.82922	33.9682	-6.47268	14.1874	0.261551	-0.00877243	13151.3	167.126	1	11	0.00491025	0.000144554	0	-2.50045e-05	0.000116415	6.22184e-06	41.6603	0.0430415	0.0321563	-0.0286102	-6.41866	33.997	33.7839	3.80061	0.0292516	0.00331867	0.0294393	6.47268	167126	1.47309e+06	1.48254e+06	-83.5273	0.0000000E+000	0.0000000E+000	0.0000000E+000	83.5273	0.0000000E+000	0.0000000E+000	0.0000000E+000	-83.5273	0.0000000E+000	0.0000000E+000	0.0000000E+000	-6.47268	0.0000000E+000	0.0000000E+000	0.0000000E+000	6.47268	8.81426	83.5273	-1.57024e-06	-2.29443e-06	-1.02124e-09	-2.29341e-06	0.261434	29815.1	13.2705	29801.8
2.15577	34.2762	3.42017	34.4464	-5.69826	15.1911	0.261555	-0.00803894	21585.9	212.803	1	11	0.00490249	0.000142322	0	-2.95248e-05	-9.35844e-05	5.11242e-06	-37.1082	0.0359214	0.0286472	0.0216722	-5.72938	34.477	34.3048	3.44184	0.0288872	0.00288244	0.0290306	5.69826	212803	2.13267e+06	2.14326e+06	-84.3017	0.0000000E+000	0.0000000E+000	0.0000000E+000	84.3017	0.0000000E+000	0.0000000E+000	0.0000000E+000	-84.3017	0.0000000E+000	0.0000000E+000	0.0000000E+000	-5.69826	0.0000000E+000	0.0000000E+000	0.0000000E+000	5.69826	10.0218	84.3017	-4.52025e-06	-2.10263e-06	7.52319e-10	-2.10338e-06	0.261649	32536	11.6414	32547.7
1.46631	34.9171	3.16485	35.0603	-5.17907	17.3793	0.261548	-0.00783642	34295.8	279.458	1	12	0.00490713	0.000139963	0	-3.71443e-05	9.7324e-05	2.76784e-06	-25.0639	0.0197755	0.0179134	0.00837748	-5.19006	35.0789	34.935	3.17323	0.0284059	0.00257468	0.0285223	5.17907	279458	3.08321e+06	3.09584e+06	-84.8209	0.0000000E+000	0.0000000E+000	0.0000000E+000	84.8209	0.0000000E+000	0.0000000E+000	0.0000000E+000	-84.8209	0.0000000E+000	0.0000000E+000	0.0000000E+000	-5.17907	0.0000000E+000	0.0000000E+000	0.0000000E+000	5.17907	11.0328	84.8209	-7.61957e-06	-2.0496e-06	-7.62672e-10	-2.04884e-06	0.261451	33376	12.4194	33363.5
1.00006	35.6012	3.11253	35.737	-4.99653	19.5079	0.261549	-0.00778975	51130.4	387.855	1	12	0.00490863	0.000137354	0	-4.0723e-05	0.000402778	4.30015e-06	-65.9513	0.031307	0.012758	0.0285895	-5.04039	35.7522	35.6139	3.14112	0.0278759	0.00243712	0.0279822	4.99653	387855	4.4363e+06	4.45322e+06	-85.0035	0.0000000E+000	0.0000000E+000	0.0000000E+000	85.0035	0.0000000E+000	0.0000000E+000	0.0000000E+000	-85.0035	0.0000000E+000	0.0000000E+000	0.0000000E+000	-4.99653	0.0000000E+000	0.0000000E+000	0.0000000E+000	4.99653	11.438	85.0035	-3.57869e-06	-2.0374e-06	-3.13754e-09	-2.03427e-06	0.261146	33576.1	51.7061	33524.3
0.681362	36.2657	3.10664	36.3985	-4.89618	22.62	0.26155	-0.00763808	75188.5	547.727	1	12	0.00490684	0.000134809	0	-4.23685e-05	7.82332e-05	3.23634e-06	-7.00712	0.0240069	0.0238276	0.00292867	-4.89757	36.4225	36.2896	3.10956	0.0273734	0.00234489	0.0274736	4.89618	547728	6.39397e+06	6.41738e+06	-85.1038	0.0000000E+000	0.0000000E+000	0.0000000E+000	85.1038	0.0000000E+000	0.0000000E+000	0.0000000E+000	-85.1038	0.0000000E+000	0.0000000E+000	0.0000000E+000	-4.89618	0.0000000E+000	0.0000000E+000	0.0000000E+000	4.89618	11.6736	85.1038	-1.64547e-06	-1.99774e-06	-5.97552e-10	-1.99714e-06	0.261471	34242.8	10.2425	34232.6
0.464091	37.0105	3.11925	37.1417	-4.81751	27.1767	0.261543	-0.00713581	109943	775.431	1	12	0.00490827	0.00013215	0	-4.31416e-05	-3.63119e-05	1.96402e-06	-64.7834	0.0148621	0.00633187	0.0134458	-4.83735	37.1492	37.0169	3.1327	0.0268288	0.00226113	0.0269239	4.81751	775430	9.20064e+06	9.23326e+06	-85.1825	0.0000000E+000	0.0000000E+000	0.0000000E+000	85.1825	0.0000000E+000	0.0000000E+000	0.0000000E+000	-85.1825	0.0000000E+000	0.0000000E+000	0.0000000E+000	-4.81751	0.0000000E+000	0.0000000E+000	0.0000000E+000	4.81751	11.8652	85.1825	-7.73129e-07	-1.86632e-06	2.59115e-10	-1.86658e-06	0.261579	36652.1	5.08868	36657.2
0.316193	37.8415	3.20503	37.977	-4.84117	33.8501	0.261549	-0.00605331	157049	1118.56	1	12	0.00490675	0.000129203	0	-4.73747e-05	0.000135506	1.18659e-06	55.5165	0.00918389	0.00519964	-0.00757018	-4.82913	37.9815	37.8467	3.19745	0.0262378	0.00222224	0.0263317	4.84117	1.11856e+06	1.32067e+07	1.3254e+07	-85.1588	0.0000000E+000	0.0000000E+000	0.0000000E+000	85.1588	0.0000000E+000	0.0000000E+000	0.0000000E+000	-85.1588	0.0000000E+000	0.0000000E+000	0.0000000E+000	-4.84117	0.0000000E+000	0.0000000E+000	0.0000000E+000	4.84117	11.8069	85.1588	-4.23309e-06	-1.58323e-06	-8.20257e-10	-1.58241e-06	0.261413	43207.6	22.3854	43185.2
0.215268	38.7035	3.38789	38.8515	-5.0026	43.6436	0.261551	-0.00482136	218228	1659.41	1	12	0.00490737	0.000126311	0	-6.18869e-05	0.000154597	2.38318e-06	-14.344	0.0188675	0.0182794	0.00467429	-5.00712	38.8702	38.7218	3.39257	0.025641	0.00224447	0.025739	5.0026	1.65941e+06	1.89572e+07	1.90297e+07	-84.9974	0.0000000E+000	0.0000000E+000	0.0000000E+000	84.9974	0.0000000E+000	0.0000000E+000	0.0000000E+000	-84.9974	0.0000000E+000	0.0000000E+000	0.0000000E+000	-5.0026	0.0000000E+000	0.0000000E+000	0.0000000E+000	5.0026	11.4241	84.9974	-1.45121e-05	-1.26103e-06	-7.45365e-10	-1.26028e-06	0.261396	54248.4	32.065	54216.3
0.146929	39.5804	3.66229	39.7495	-5.2864	57.9811	0.261543	-0.00373695	295774	2510.74	1	12	0.00490583	0.000123419	0	-9.35426e-05	0.000288232	1.93437e-06	26.1043	0.0156732	0.0140745	-0.00689633	-5.27463	39.7629	39.5945	3.65539	0.0250505	0.00231787	0.0251575	5.2864	2.51074e+06	2.7135e+07	2.72509e+07	-84.7136	0.0000000E+000	0.0000000E+000	0.0000000E+000	84.7136	0.0000000E+000	0.0000000E+000	0.0000000E+000	-84.7136	0.0000000E+000	0.0000000E+000	0.0000000E+000	-5.2864	0.0000000E+000	0.0000000E+000	0.0000000E+000	5.2864	10.8076	84.7136	-3.16557e-05	-9.77374e-07	-1.07711e-09	-9.76297e-07	0.261255	69988.5	77.1305	69911.4
0.0999041	40.5685	4.14648	40.7798	-5.8359	79.0584	0.261542	-0.00300064	384200	3972.14	1	12	0.00490581	0.0001203	0	-0.000145243	-7.44936e-05	2.07404e-06	3.44675	0.0172406	0.0172094	-0.00103652	-5.83199	40.7969	40.5857	4.14544	0.0243948	0.00249338	0.0245219	5.8359	3.97215e+06	3.88628e+07	3.90653e+07	-84.1641	0.0000000E+000	0.0000000E+000	0.0000000E+000	84.1641	0.0000000E+000	0.0000000E+000	0.0000000E+000	-84.1641	0.0000000E+000	0.0000000E+000	0.0000000E+000	-5.8359	0.0000000E+000	0.0000000E+000	0.0000000E+000	5.8359	9.78384	84.1641	-5.17002e-05	-7.84793e-07	2.23529e-10	-7.85016e-07	0.261616	87161.8	24.8259	87186.7
0.0680626	41.7155	4.93621	42.0065	-6.74845	109.986	0.26155	-0.00229432	473716	6541.42	1	12	0.00490804	0.00011684	0	-0.000209932	0.000192778	1.36678e-06	-23.3328	0.0116979	0.0107412	0.00463319	-6.753	42.0177	41.7262	4.94084	0.0236409	0.00279744	0.0238058	6.74845	6.54142e+06	5.52809e+07	5.56666e+07	-83.2515	0.0000000E+000	0.0000000E+000	0.0000000E+000	83.2515	0.0000000E+000	0.0000000E+000	0.0000000E+000	-83.2515	0.0000000E+000	0.0000000E+000	0.0000000E+000	-6.74845	0.0000000E+000	0.0000000E+000	0.0000000E+000	6.74845	8.45091	83.2515	-6.46895e-05	-6.0008e-07	-4.42296e-10	-5.99637e-07	0.261357	113999	84.024	113915
0.0464052	43.0818	6.18168	43.523	-8.16547	155.337	0.261547	-0.0023891	554814	11192.4	1	12	0.00490919	0.000112795	0	-0.000273747	4.00515e-05	6.14774e-07	-33.8244	0.00545035	0.00452786	0.00303393	-8.16858	43.5279	43.0863	6.18471	0.0227434	0.00326339	0.0229764	8.16547	1.11924e+07	7.80027e+07	7.88016e+07	-81.8345	0.0000000E+000	0.0000000E+000	0.0000000E+000	81.8345	0.0000000E+000	0.0000000E+000	0.0000000E+000	-81.8345	0.0000000E+000	0.0000000E+000	0.0000000E+000	-8.16547	0.0000000E+000	0.0000000E+000	0.0000000E+000	8.16547	6.96927	81.8345	-6.38144e-05	-6.2486e-07	-9.56869e-11	-6.24765e-07	0.261507	109475	16.7643	109458
0.0315922	44.54	8.08923	45.2686	-10.2937	221.943	0.261539	-0.00232423	622778	19886.3	1	12	0.00490654	0.000108387	0	-0.000299591	0.000269142	2.11154e-06	6.90341	0.0194814	0.0193402	-0.00234159	-10.2864	45.2872	44.5593	8.08689	0.0217348	0.00394742	0.0220904	10.2937	1.98863e+07	1.09495e+08	1.11287e+08	-79.7063	0.0000000E+000	0.0000000E+000	0.0000000E+000	79.7063	0.0000000E+000	0.0000000E+000	0.0000000E+000	-79.7063	0.0000000E+000	0.0000000E+000	0.0000000E+000	-10.2937	0.0000000E+000	0.0000000E+000	0.0000000E+000	10.2937	5.50609	79.7063	-2.58444e-05	-6.07877e-07	-6.25547e-10	-6.07252e-07	0.26127	112527	115.798	112411
0.0215268	46.1241	10.497	47.3035	-12.8211	319.682	0.261539	-0.00176387	704330	34683.2	1	12	0.00490779	0.000103751	0	-0.000244658	0.000269142	2.20031e-06	-17.388	0.0212076	0.0202385	0.00633769	-12.8231	47.3246	46.1443	10.5033	0.020613	0.00469114	0.0211401	12.8211	3.46832e+07	1.52399e+08	1.56296e+08	-77.1789	0.0000000E+000	0.0000000E+000	0.0000000E+000	77.1789	0.0000000E+000	0.0000000E+000	0.0000000E+000	-77.1789	0.0000000E+000	0.0000000E+000	0.0000000E+000	-12.8211	0.0000000E+000	0.0000000E+000	0.0000000E+000	12.8211	4.39403	77.1789	5.49333e-05	-4.61322e-07	-4.74732e-10	-4.60848e-07	0.26127	148276	152.585	148123
0.0146812	48.1471	13.433	49.9858	-15.589	462.984	0.261536	-0.000844138	807025	58282.4	1	12	0.00490811	9.81901e-05	0	-9.28872e-05	0.000211869	1.48847e-06	-83.0027	0.0151591	0.00184672	0.0150461	-15.6051	49.9917	48.1489	13.448	0.0192697	0.00537624	0.0200057	15.589	5.82824e+07	2.08898e+08	2.16876e+08	-74.411	0.0000000E+000	0.0000000E+000	0.0000000E+000	74.411	0.0000000E+000	0.0000000E+000	0.0000000E+000	-74.411	0.0000000E+000	0.0000000E+000	0.0000000E+000	-15.589	0.0000000E+000	0.0000000E+000	0.0000000E+000	15.589	3.58424	74.411	0.000151771	-2.20772e-07	-1.78847e-10	-2.20593e-07	0.261324	309826	250.989	309575
0.0100092	50.8211	17.4176	53.7229	-18.9179	673.166	0.261541	-9.92525e-05	912920	95960.4	1	12	0.00490746	9.13476e-05	0	9.81909e-05	1.86979e-06	3.11304e-06	10.2222	0.0340791	0.0335381	-0.00604787	-18.9002	53.7527	50.8546	17.4116	0.0176086	0.0060349	0.018614	18.9179	9.59604e+07	2.79992e+08	2.9598e+08	-71.0821	0.0000000E+000	0.0000000E+000	0.0000000E+000	71.0821	0.0000000E+000	0.0000000E+000	0.0000000E+000	-71.0821	0.0000000E+000	0.0000000E+000	0.0000000E+000	-18.9179	0.0000000E+000	0.0000000E+000	0.0000000E+000	18.9179	2.91779	71.0821	0.000191078	-2.59586e-08	-1.85581e-13	-2.59584e-08	0.261539	2.6351e+06	18.8387	2.63508e+06