File: txt/19344_R279_UA714_SOC00_C03.mpt
EC-Lab ASCII FILE
Nb header lines : 65

Potentio Electrochemical Impedance Spectroscopy

Run on channel : 3 (SN 65921)
User :
CE vs. WE compliance from -10 V to 10 V
Electrode connection : standard
Potential control : Ewe
Ewe ctrl range : min = -10.00 V, max = 10.00 V
Safety Limits :
	Do not start on E overload
Acquisition started on : 11/20/2025 15:02:36.770
Technique started on : 11/20/2025 15:02:38.692
Loaded Setting File :  C:\Users\Celltest\OneDrive - store-dot.com\Documents\EC-Lab\Data\@Biologic Test Protocols\anode half cell EIS SOC00.mps
Saved on :
	File : 19344_R279_UA714_SOC00_C03.mpr
	Directory : C:\Users\Celltest\OneDrive - store-dot.com\Documents\EC-Lab\Data\Charmaine\
	Host : 169.254.61.224
Device : VMP-3e (SN .003165)
Address : USB
EC-LAB for windows v11.62 (software)
Internet server v27.00 (firmware)
Command interpretor v12.03 (firmware)
Electrode material :
Initial state :
Electrolyte :
Comments :
Electrode surface area : 0.001 cm²
Characteristic mass : 0.001 g
Equivalent Weight : 0.000 g/eq.
Density : 0.000 g/cm3
Volume (V) : 0.001 cm³
Record Ece
Cycle Definition : Charge/Discharge alternance
Mode                Single sine
E (V)               0.0000
vs.                 Eoc
tE (h:m:s)          0:00:0.0000
record              0
dI                  0.000
unit dI             mA
dt (s)              0.000
fi                  100.000
unit fi             kHz
ff                  10.000
unit ff             mHz
Nd                  6
Points              per decade
spacing             Logarithmic
Va (mV)             5.0
pw                  0.10
Na                  2
corr                0
E range min (V)     -10.000
E range max (V)     10.000
I Range             Auto
Bandwidth           5
nc cycles           0
goto Ns'            0
nr cycles           0
inc. cycle          0

freq/Hz	Re(Z)/Ohm	-Im(Z)/Ohm	|Z|/Ohm	Phase(Z)/deg	time/s	<Ewe>/V	<I>/mA	Cs/µF	Cp/µF	cycle number	I Range	|Ewe|/V	|I|/A	Ns	(Q-Qo)/mA.h	<Ece>/V	|Ece|/V	Phase(Zce)/deg	|Zce|/Ohm	Re(Zce)/Ohm	-Im(Zce)/Ohm	Phase(Zwe-ce)/deg	|Zwe-ce|/Ohm	Re(Zwe-ce)/Ohm	-Im(Zwe-ce)/Ohm	Re(Y)/Ohm-1	Im(Y)/Ohm-1	|Y|/Ohm-1	Phase(Y)/deg	Re(C)/nF	Im(C)/nF	|C|/nF	Phase(C)/deg	Re(M)	Im(M)	|M|	Phase(M)/deg	Re(Permittivity)	Im(Permittivity)	|Permittivity|	Phase(Permittivity)/deg	Re(Resistivity)/Ohm.cm	Im(Resistivity)/Ohm.cm	|Resistivity|/Ohm.cm	Phase(Resistivity)/deg	Re(Conductivity)/mS/cm	Im(Conductivity)/mS/cm	|Conductivity|/mS/cm	Phase(Conductivity)/deg	Tan(Delta)	Loss Angle(Delta)/deg	dq/mA.h	Pwe/W	Pce/W	Pwe-ce/W	<Ewe-Ece>/V	Rwe/Ohm	Rce/Ohm	Rwe-ce/Ohm		Ewe-Ece/V
100004	0.467844	-0.931991	1.04283	63.3441	1.92151	0.26449	0.0422099	-1.70762	-1.36393	1	9	0.000268429	0.000257406	0	5.48951e-06	-0.000188635	1.46651e-05	86.7526	0.0569729	0.00322739	-0.0568815	64.5282	1.09534	0.471071	-0.988873	0.430207	-0.857015	0.958933	-63.3441	-1363.93	684.67	1526.13	-153.344	0.0000000E+000	0.0000000E+000	0.0000000E+000	153.344	0.0000000E+000	0.0000000E+000	0.0000000E+000	-153.344	0.0000000E+000	0.0000000E+000	0.0000000E+000	63.3441	0.0000000E+000	0.0000000E+000	0.0000000E+000	-63.3441	0.501983	26.6559	5.48951e-06	1.11641e-05	-7.96226e-09	1.1172e-05	0.264678	6266.07	4.46898	6270.53
68132	0.482934	-0.866584	0.992065	60.8697	2.30455	0.264488	0.0441864	-2.69562	-2.05683	1	9	0.000272246	0.000274423	0	9.59843e-06	-3.58827e-05	1.16236e-05	87.9633	0.0423564	0.00150533	-0.0423296	61.9429	1.02995	0.48444	-0.908913	0.490691	-0.880502	1.008	-60.8697	-2056.83	1146.24	2354.66	-150.87	0.0000000E+000	0.0000000E+000	0.0000000E+000	150.87	0.0000000E+000	0.0000000E+000	0.0000000E+000	-150.87	0.0000000E+000	0.0000000E+000	0.0000000E+000	60.8697	0.0000000E+000	0.0000000E+000	0.0000000E+000	-60.8697	0.557285	29.1303	4.10891e-06	1.16868e-05	-1.58553e-09	1.16884e-05	0.264524	5985.73	0.812074	5986.54
46420.4	-0.131224	-0.125087	0.181291	136.372	2.4596	0.264498	0.0516824	-27.4094	-13.0488	1	9	4.59212e-05	0.000253301	0	1.13707e-05	4.04936e-05	6.70651e-06	46.9161	0.0264765	0.0180853	-0.0193372	128.074	0.183463	-0.113139	-0.144424	-3.99264	-3.80591	5.51599	-136.372	-13048.8	-13689	18911.9	133.628	0.0000000E+000	0.0000000E+000	0.0000000E+000	-133.628	0.0000000E+000	0.0000000E+000	0.0000000E+000	133.628	0.0000000E+000	0.0000000E+000	0.0000000E+000	136.372	0.0000000E+000	0.0000000E+000	0.0000000E+000	-136.372	1.04907	46.3717	1.7723e-06	1.36699e-05	2.09281e-09	1.36678e-05	0.264457	5117.75	0.783508	5116.97
31621.1	2.08129	0.822076	2.23776	-21.5533	2.95256	0.264291	-0.104349	6.12253	0.826283	1	9	0.349216	0.156056	0	1.84202e-05	-0.000207729	8.361e-05	76.7659	0.000535768	0.000122653	-0.000521539	-21.5397	2.23768	2.08141	0.821554	0.415629	0.164167	0.446876	21.5533	826.283	2091.94	2249.21	-68.4467	0.0000000E+000	0.0000000E+000	0.0000000E+000	68.4467	0.0000000E+000	0.0000000E+000	0.0000000E+000	-68.4467	0.0000000E+000	0.0000000E+000	0.0000000E+000	-21.5533	0.0000000E+000	0.0000000E+000	0.0000000E+000	21.5533	2.53174	68.4467	7.04943e-06	-2.75785e-05	2.16764e-08	-2.76002e-05	0.264498	2532.75	1.99071	2534.74
21544.7	2.29159	0.872568	2.4521	-20.8453	3.70751	0.264476	0.00954074	8.46604	1.07202	1	9	0.00510918	0.0020836	0	-0.000124501	-0.000245917	5.14874e-06	10.728	0.00247109	0.0024279	-0.000459986	-20.8151	2.4542	2.29402	0.872109	0.381121	0.145119	0.407814	20.8453	1072.02	2815.41	3012.61	-69.1547	0.0000000E+000	0.0000000E+000	0.0000000E+000	69.1547	0.0000000E+000	0.0000000E+000	0.0000000E+000	-69.1547	0.0000000E+000	0.0000000E+000	0.0000000E+000	-20.8453	0.0000000E+000	0.0000000E+000	0.0000000E+000	20.8453	2.62626	69.1547	-0.000142921	2.5233e-06	-2.34623e-09	2.52564e-06	0.264722	27720.7	25.7755	27746.5
14678.6	2.48768	0.925443	2.65424	-20.4057	3.96654	0.264476	0.00666912	11.7162	1.42431	1	9	0.00462606	0.00174289	0	-0.000123341	-7.40708e-05	4.54743e-06	16.1926	0.00260912	0.00250562	-0.000727598	-20.3722	2.65634	2.49019	0.924715	0.353113	0.131362	0.376756	20.4057	1424.31	3828.68	4085.03	-69.5943	0.0000000E+000	0.0000000E+000	0.0000000E+000	69.5943	0.0000000E+000	0.0000000E+000	0.0000000E+000	-69.5943	0.0000000E+000	0.0000000E+000	0.0000000E+000	-20.4057	0.0000000E+000	0.0000000E+000	0.0000000E+000	20.4057	2.6881	69.5943	1.16017e-06	1.76382e-06	-4.93987e-10	1.76431e-06	0.26455	39656.8	11.1065	39667.9
10002.2	2.68704	1.00434	2.86861	-20.4944	4.34952	0.264474	0.0143143	15.8431	1.94207	1	9	0.00487767	0.00170036	0	-0.000123013	-0.000265011	8.95569e-06	-145.182	0.00526693	-0.00432396	0.0030073	-20.581	2.86561	2.68272	1.00735	0.326537	0.122051	0.348601	20.4944	1942.07	5195.84	5546.93	-69.5056	0.0000000E+000	0.0000000E+000	0.0000000E+000	69.5056	0.0000000E+000	0.0000000E+000	0.0000000E+000	-69.5056	0.0000000E+000	0.0000000E+000	0.0000000E+000	-20.4944	0.0000000E+000	0.0000000E+000	0.0000000E+000	20.4944	2.67542	69.5056	3.27372e-07	3.78576e-06	-3.79345e-09	3.78955e-06	0.264739	18476.2	18.5138	18494.7
6810.42	2.90639	1.10323	3.10873	-20.7862	4.60853	0.264477	0.00666911	21.1826	2.66776	1	9	0.00470993	0.00151506	0	-0.000123767	0.000155058	1.71723e-05	18.0718	0.0113343	0.0107752	-0.00351602	-20.6555	3.11756	2.91716	1.09972	0.300737	0.114157	0.321675	20.7862	2667.76	7028.03	7517.32	-69.2138	0.0000000E+000	0.0000000E+000	0.0000000E+000	69.2138	0.0000000E+000	0.0000000E+000	0.0000000E+000	-69.2138	0.0000000E+000	0.0000000E+000	0.0000000E+000	-20.7862	0.0000000E+000	0.0000000E+000	0.0000000E+000	20.7862	2.63443	69.2138	-7.53705e-07	1.76383e-06	1.0341e-09	1.76279e-06	0.264322	39657.1	23.2502	39633.9
4646	3.11297	1.23475	3.3489	-21.6355	4.87464	0.264429	-0.00932984	27.7436	3.77149	1	9	0.00462375	0.00138068	0	-0.000123722	0.000193246	1.01745e-05	-47.9022	0.00736921	0.0049403	0.00546796	-21.6912	3.35551	3.11791	1.24021	0.277568	0.110096	0.298605	21.6355	3771.49	9508.45	10229.1	-68.3644	0.0000000E+000	0.0000000E+000	0.0000000E+000	68.3644	0.0000000E+000	0.0000000E+000	0.0000000E+000	-68.3644	0.0000000E+000	0.0000000E+000	0.0000000E+000	-21.6355	0.0000000E+000	0.0000000E+000	0.0000000E+000	21.6355	2.52114	68.3644	4.56504e-08	-2.46708e-06	-1.80296e-09	-2.46528e-06	0.264236	28342.3	20.7127	28321.6
3163.08	3.34636	1.46128	3.6515	-23.5898	5.24764	0.264304	-0.00832292	34.4332	5.51442	1	9	0.00455984	0.00124876	0	-0.000124327	0.000155058	5.33099e-06	51.9149	0.00426903	0.00263327	-0.00336014	-23.5249	3.65257	3.34899	1.45792	0.250975	0.109595	0.27386	23.5898	5514.42	12628.2	13779.7	-66.4102	0.0000000E+000	0.0000000E+000	0.0000000E+000	66.4102	0.0000000E+000	0.0000000E+000	0.0000000E+000	-66.4102	0.0000000E+000	0.0000000E+000	0.0000000E+000	-23.5898	0.0000000E+000	0.0000000E+000	0.0000000E+000	23.5898	2.29002	66.4102	-6.05155e-07	-2.19978e-06	-1.29053e-09	-2.19849e-06	0.264149	31756.2	18.6302	31737.5
2155.69	3.56395	1.70322	3.95003	-25.5433	5.94378	0.264428	-0.0108144	43.3473	8.05946	1	10	0.00466095	0.00117998	0	-0.000119572	-3.58827e-05	1.13738e-05	59.6668	0.009639	0.00486797	-0.00831945	-25.404	3.95084	3.56882	1.6949	0.228419	0.109162	0.253163	25.5433	8059.46	16864.2	18691.1	-64.4567	0.0000000E+000	0.0000000E+000	0.0000000E+000	64.4567	0.0000000E+000	0.0000000E+000	0.0000000E+000	-64.4567	0.0000000E+000	0.0000000E+000	0.0000000E+000	-25.5433	0.0000000E+000	0.0000000E+000	0.0000000E+000	25.5433	2.09247	64.4567	4.75432e-06	-2.85963e-06	3.88048e-10	-2.86002e-06	0.264464	24451.6	3.31805	24454.9
1468.59	3.86515	2.08686	4.39254	-28.3654	6.39506	0.264441	-0.0108554	51.9308	11.7215	1	10	0.00462369	0.00105262	0	-0.000121577	2.13995e-05	9.77e-06	-20.0432	0.00928158	0.00871944	0.00318107	-28.3479	4.40172	3.87387	2.09005	0.200325	0.108159	0.227659	28.3654	11721.5	21709.8	24672	-61.6346	0.0000000E+000	0.0000000E+000	0.0000000E+000	61.6346	0.0000000E+000	0.0000000E+000	0.0000000E+000	-61.6346	0.0000000E+000	0.0000000E+000	0.0000000E+000	-28.3654	0.0000000E+000	0.0000000E+000	0.0000000E+000	28.3654	1.85213	61.6346	-2.00464e-06	-2.87061e-06	-2.323e-10	-2.87038e-06	0.26442	24360.4	1.97133	24358.4
1000.32	4.18733	2.60985	4.93407	-31.9342	6.8458	0.264434	-0.0104415	60.9628	17.0563	1	10	0.00457039	0.000926291	0	-0.000123109	9.77758e-05	4.20558e-06	6.64908	0.00454024	0.0045097	-0.000525705	-31.9013	4.93762	4.19184	2.60933	0.171999	0.107202	0.202672	31.9342	17056.3	27365.7	32246	-58.0658	0.0000000E+000	0.0000000E+000	0.0000000E+000	58.0658	0.0000000E+000	0.0000000E+000	0.0000000E+000	-58.0658	0.0000000E+000	0.0000000E+000	0.0000000E+000	-31.9342	0.0000000E+000	0.0000000E+000	0.0000000E+000	31.9342	1.60443	58.0658	-1.53212e-06	-2.76109e-06	-1.02092e-09	-2.76007e-06	0.264336	25325.3	9.36416	25316
681.09	4.60432	3.30653	5.66859	-35.6835	7.2966	0.264428	-0.0103259	70.6714	24.0457	1	10	0.00452418	0.000798114	0	-0.000124594	-5.49767e-05	1.96167e-05	-95.6428	0.0245789	-0.00241674	0.0244598	-35.8981	5.68093	4.6019	3.33099	0.14329	0.102902	0.176411	35.6835	24045.7	33483.6	41223.1	-54.3165	0.0000000E+000	0.0000000E+000	0.0000000E+000	54.3165	0.0000000E+000	0.0000000E+000	0.0000000E+000	-54.3165	0.0000000E+000	0.0000000E+000	0.0000000E+000	-35.6835	0.0000000E+000	0.0000000E+000	0.0000000E+000	35.6835	1.39249	54.3165	-1.48455e-06	-2.73046e-06	5.67684e-10	-2.73102e-06	0.264483	25608.2	5.32416	25613.6
463.961	5.16699	4.32344	6.7372	-39.9207	7.74832	0.264422	-0.0102849	79.3431	32.6745	1	10	0.00450935	0.000669321	0	-0.000125625	0.000135964	7.25519e-06	89.1295	0.0108396	0.000164679	-0.0108384	-39.849	6.73038	5.16715	4.3126	0.113836	0.0952512	0.14843	39.9207	32674.5	39049.6	50916.6	-50.0793	0.0000000E+000	0.0000000E+000	0.0000000E+000	50.0793	0.0000000E+000	0.0000000E+000	0.0000000E+000	-50.0793	0.0000000E+000	0.0000000E+000	0.0000000E+000	-39.9207	0.0000000E+000	0.0000000E+000	0.0000000E+000	39.9207	1.19511	50.0793	-1.03087e-06	-2.71955e-06	-1.39837e-09	-2.71815e-06	0.264286	25709.8	13.2198	25696.5
316.316	5.9706	5.65308	8.22225	-43.4353	8.40903	0.264421	-0.0107995	89.0049	42.0729	1	10	0.00499528	0.000607532	0	-0.000127386	-0.000188635	9.41924e-06	-21.1939	0.0155041	0.0144554	0.00560513	-43.3944	8.2366	5.98506	5.65869	0.0883154	0.0836188	0.121621	43.4353	42072.9	44436.1	61193.9	-46.5647	0.0000000E+000	0.0000000E+000	0.0000000E+000	46.5647	0.0000000E+000	0.0000000E+000	0.0000000E+000	-46.5647	0.0000000E+000	0.0000000E+000	0.0000000E+000	-43.4353	0.0000000E+000	0.0000000E+000	0.0000000E+000	43.4353	1.05617	46.5647	-1.76117e-06	-2.85561e-06	2.03716e-09	-2.85764e-06	0.264609	24484.6	17.4671	24502.1
215.345	7.18809	7.32945	10.2659	-45.5579	8.85952	0.264434	-0.0113812	100.836	51.3997	1	10	0.00497771	0.000484876	0	-0.000128131	-0.000131353	1.19859e-05	-71.2445	0.0247195	0.00794807	0.0234068	-45.6176	10.2882	7.19604	7.35286	0.068205	0.0695463	0.0974095	45.5579	51399.7	50408.3	71992.5	-44.4421	0.0000000E+000	0.0000000E+000	0.0000000E+000	44.4421	0.0000000E+000	0.0000000E+000	0.0000000E+000	-44.4421	0.0000000E+000	0.0000000E+000	0.0000000E+000	-45.5579	0.0000000E+000	0.0000000E+000	0.0000000E+000	45.5579	0.980713	44.4421	-7.45144e-07	-3.00957e-06	1.49495e-09	-3.01107e-06	0.264565	23234.3	11.5412	23245.9
146.737	9.00284	9.32198	12.9596	-45.9978	9.30548	0.26443	-0.0117653	116.351	60.2014	1	10	0.0049607	0.000382783	0	-0.000129027	0.00021234	4.89569e-06	18.303	0.0127897	0.0121427	-0.00401652	-45.9468	12.9651	9.01498	9.31797	0.0536041	0.0555043	0.077163	45.9978	60201.4	58140.3	83692.9	-44.0022	0.0000000E+000	0.0000000E+000	0.0000000E+000	44.0022	0.0000000E+000	0.0000000E+000	0.0000000E+000	-44.0022	0.0000000E+000	0.0000000E+000	0.0000000E+000	-45.9978	0.0000000E+000	0.0000000E+000	0.0000000E+000	45.9978	0.965764	44.0022	-8.95815e-07	-3.11109e-06	-2.49824e-09	-3.10859e-06	0.264217	22475.5	18.0481	22457.4
100.032	11.6798	11.4882	16.3828	-44.5262	9.75681	0.264421	-0.0103371	138.494	68.1017	1	10	0.00496324	0.000302955	0	-0.000130591	-0.000265011	8.89331e-06	86.375	0.0293553	0.00185602	-0.0292965	-44.4485	16.3636	11.6816	11.4589	0.043517	0.0428033	0.0610397	44.5262	68101.7	69237.3	97116.7	-45.4738	0.0000000E+000	0.0000000E+000	0.0000000E+000	45.4738	0.0000000E+000	0.0000000E+000	0.0000000E+000	-45.4738	0.0000000E+000	0.0000000E+000	0.0000000E+000	-44.5262	0.0000000E+000	0.0000000E+000	0.0000000E+000	44.5262	1.01668	45.4738	-1.56426e-06	-2.73334e-06	2.73945e-09	-2.73608e-06	0.264686	25579.8	25.6369	25605.4
68.104	15.4947	13.4114	20.4927	-40.8779	10.4704	0.264464	-0.00679284	174.25	74.6318	1	11	0.00497209	0.000242627	0	-0.000132122	-7.40708e-05	5.04317e-06	47.5068	0.0207857	0.0140408	-0.0153265	-40.8198	20.4933	15.5087	13.3961	0.0368963	0.0319357	0.0487978	40.8779	74631.8	86224.6	114038	-49.1221	0.0000000E+000	0.0000000E+000	0.0000000E+000	49.1221	0.0000000E+000	0.0000000E+000	0.0000000E+000	-49.1221	0.0000000E+000	0.0000000E+000	0.0000000E+000	-40.8779	0.0000000E+000	0.0000000E+000	0.0000000E+000	40.8779	1.15533	49.1221	-1.53146e-06	-1.79647e-06	5.03151e-10	-1.79697e-06	0.264539	38932.8	10.9042	38943.7
46.4415	20.0461	14.5315	24.7591	-35.9384	10.9067	0.264459	-0.0071333	235.833	81.2372	1	11	0.00496135	0.000200385	0	-0.000132984	2.30547e-06	9.6405e-06	35.0471	0.0481098	0.0393866	-0.0276271	-35.8332	24.7748	20.0855	14.5038	0.0327011	0.0237051	0.0403893	35.9384	81237.2	112066	138414	-54.0616	0.0000000E+000	0.0000000E+000	0.0000000E+000	54.0616	0.0000000E+000	0.0000000E+000	0.0000000E+000	-54.0616	0.0000000E+000	0.0000000E+000	0.0000000E+000	-35.9384	0.0000000E+000	0.0000000E+000	0.0000000E+000	35.9384	1.3795	54.0616	-8.61356e-07	-1.88647e-06	-1.64456e-11	-1.88645e-06	0.264457	37073.9	0.323198	37073.6
31.6296	24.9224	14.4231	28.795	-30.0589	11.3366	0.264456	-0.00724741	348.873	87.5289	1	11	0.00495494	0.000172076	0	-0.000133516	-0.000188635	9.55582e-06	107.456	0.0555324	-0.0166585	-0.052975	-29.9841	28.7541	24.9058	14.3702	0.0300577	0.017395	0.0347282	30.0589	87528.9	151245	174747	-59.9411	0.0000000E+000	0.0000000E+000	0.0000000E+000	59.9411	0.0000000E+000	0.0000000E+000	0.0000000E+000	-59.9411	0.0000000E+000	0.0000000E+000	0.0000000E+000	-30.0589	0.0000000E+000	0.0000000E+000	0.0000000E+000	30.0589	1.72795	59.9411	-5.32164e-07	-1.91662e-06	1.36712e-09	-1.91799e-06	0.264645	36489.8	26.0279	36515.8
21.5517	29.376	13.1688	32.1927	-24.146	11.7574	0.264455	-0.00734772	560.777	93.8364	1	11	0.00495361	0.000153874	0	-0.000134351	9.77758e-05	2.43883e-06	16.5564	0.0158496	0.0151924	-0.00451648	-24.1276	32.2047	29.3912	13.1643	0.0283451	0.0127067	0.031063	24.146	93836.5	209323	229393	-65.854	0.0000000E+000	0.0000000E+000	0.0000000E+000	65.854	0.0000000E+000	0.0000000E+000	0.0000000E+000	-65.854	0.0000000E+000	0.0000000E+000	0.0000000E+000	-24.146	0.0000000E+000	0.0000000E+000	0.0000000E+000	24.146	2.23072	65.854	-8.34916e-07	-1.94314e-06	-7.18429e-10	-1.94243e-06	0.264357	35991.5	13.307	35978.2
14.6852	32.8845	11.2046	34.741	-18.8153	12.2181	0.264454	-0.00639831	967.266	100.613	1	11	0.00495219	0.000142546	0	-0.000135263	-0.000150447	2.31025e-06	64.6434	0.016207	0.00694067	-0.0146456	-18.7887	34.7428	32.8915	11.1899	0.0272463	0.0092835	0.0287845	18.8153	100613	295291	311961	-71.1847	0.0000000E+000	0.0000000E+000	0.0000000E+000	71.1847	0.0000000E+000	0.0000000E+000	0.0000000E+000	-71.1847	0.0000000E+000	0.0000000E+000	0.0000000E+000	-18.8153	0.0000000E+000	0.0000000E+000	0.0000000E+000	18.8153	2.93492	71.1847	-9.11696e-07	-1.69206e-06	9.62608e-10	-1.69302e-06	0.264605	41331.9	23.5135	41355.4
10.0032	35.433	9.13287	36.5911	-14.4534	12.6688	0.26445	-0.00669589	1742.1	108.527	1	11	0.00495192	0.000135331	0	-0.000136921	-0.000150447	9.72316e-06	-61.2997	0.0718471	0.034503	0.0630203	-14.5354	36.6403	35.4675	9.19589	0.0264641	0.00682114	0.0273291	14.4534	108527	421055	434816	-75.5466	0.0000000E+000	0.0000000E+000	0.0000000E+000	75.5466	0.0000000E+000	0.0000000E+000	0.0000000E+000	-75.5466	0.0000000E+000	0.0000000E+000	0.0000000E+000	-14.4534	0.0000000E+000	0.0000000E+000	0.0000000E+000	14.4534	3.87972	75.5466	-1.65857e-06	-1.77073e-06	1.00738e-09	-1.77174e-06	0.264601	39494.4	22.4686	39516.9
6.81719	37.2313	7.36858	37.9534	-11.195	13.0085	0.264453	-0.00715903	3168.33	119.425	1	11	0.00495545	0.000130566	0	-0.000137181	0.000174152	6.75911e-06	15.1446	0.0517676	0.0499697	-0.0135246	-11.1603	37.9998	37.2812	7.35505	0.0258467	0.00511542	0.0263481	11.195	119425	603421	615125	-78.8051	0.0000000E+000	0.0000000E+000	0.0000000E+000	78.8051	0.0000000E+000	0.0000000E+000	0.0000000E+000	-78.8051	0.0000000E+000	0.0000000E+000	0.0000000E+000	-11.195	0.0000000E+000	0.0000000E+000	0.0000000E+000	11.195	5.05271	78.8051	-2.60212e-07	-1.89323e-06	-1.24676e-09	-1.89198e-06	0.264278	36939.7	24.3262	36915.4
4.63925	38.3714	5.86217	38.8166	-8.68617	13.4924	0.264463	-0.00628272	5852.13	133.474	1	11	0.00495187	0.000127571	0	-0.000136828	5.95877e-05	1.11487e-05	74.9323	0.0873919	0.0227183	-0.0843873	-8.558	38.8264	38.3941	5.77778	0.0254667	0.00389066	0.0257622	8.68617	133474	873664	883801	-81.3138	0.0000000E+000	0.0000000E+000	0.0000000E+000	81.3138	0.0000000E+000	0.0000000E+000	0.0000000E+000	-81.3138	0.0000000E+000	0.0000000E+000	0.0000000E+000	-8.68617	0.0000000E+000	0.0000000E+000	0.0000000E+000	8.68617	6.5456	81.3138	3.53488e-07	-1.66155e-06	-3.74372e-10	-1.66117e-06	0.264404	42093.8	9.48438	42084.3
3.1604	39.2385	4.89398	39.5425	-7.10945	14.1854	0.264454	-0.00600807	10290	157.62	1	11	0.00495153	0.00012522	0	-0.000138734	7.86817e-05	4.2643e-06	-36.0012	0.0340544	0.0275501	0.0200172	-7.13327	39.5723	39.266	4.914	0.0250948	0.00312992	0.0252892	7.10945	157621	1.26375e+06	1.27354e+06	-82.8905	0.0000000E+000	0.0000000E+000	0.0000000E+000	82.8905	0.0000000E+000	0.0000000E+000	0.0000000E+000	-82.8905	0.0000000E+000	0.0000000E+000	0.0000000E+000	-7.10945	0.0000000E+000	0.0000000E+000	0.0000000E+000	7.10945	8.0177	82.8905	-1.90597e-06	-1.58886e-06	-4.72726e-10	-1.58838e-06	0.264375	44016.4	13.096	44003.3
2.15577	40.0053	4.21513	40.2267	-6.01474	15.1891	0.264464	-0.00529406	17514.9	192.309	1	11	0.00495927	0.000123283	0	-0.000142413	-3.58827e-05	4.25266e-06	-12.5154	0.0344951	0.0336754	0.00747517	-6.0203	40.261	40.039	4.22261	0.0247222	0.00260484	0.0248591	6.01474	192309	1.82518e+06	1.83528e+06	-83.9853	0.0000000E+000	0.0000000E+000	0.0000000E+000	83.9853	0.0000000E+000	0.0000000E+000	0.0000000E+000	-83.9853	0.0000000E+000	0.0000000E+000	0.0000000E+000	-6.01474	0.0000000E+000	0.0000000E+000	0.0000000E+000	6.01474	9.49087	83.9853	-3.67966e-06	-1.40009e-06	1.89965e-10	-1.40028e-06	0.264499	49954.8	6.77791	49961.6
1.46631	40.6799	3.85619	40.8623	-5.41509	17.3764	0.264461	-0.00542226	28147.2	250.673	1	12	0.00495459	0.000121251	0	-0.000146973	9.77758e-05	4.55515e-06	37.773	0.0375679	0.0296953	-0.0230117	-5.37906	40.8897	40.7096	3.83318	0.0243632	0.00230948	0.0244725	5.41509	250674	2.64441e+06	2.65627e+06	-84.5849	0.0000000E+000	0.0000000E+000	0.0000000E+000	84.5849	0.0000000E+000	0.0000000E+000	0.0000000E+000	-84.5849	0.0000000E+000	0.0000000E+000	0.0000000E+000	-5.41509	0.0000000E+000	0.0000000E+000	0.0000000E+000	5.41509	10.5492	84.5849	-4.55985e-06	-1.43398e-06	-5.30166e-10	-1.43345e-06	0.264363	48773.2	18.0323	48755.2
1.00006	41.4078	3.68417	41.5714	-5.08438	19.5039	0.264469	-0.00531138	43196.9	339.268	1	12	0.00495566	0.000119208	0	-0.00014755	-5.49767e-05	4.93731e-06	9.03402	0.0414175	0.0409037	-0.00650341	-5.07047	41.6116	41.4487	3.67767	0.0239603	0.00213182	0.024055	5.08438	339268	3.81316e+06	3.82823e+06	-84.9156	0.0000000E+000	0.0000000E+000	0.0000000E+000	84.9156	0.0000000E+000	0.0000000E+000	0.0000000E+000	-84.9156	0.0000000E+000	0.0000000E+000	0.0000000E+000	-5.08438	0.0000000E+000	0.0000000E+000	0.0000000E+000	5.08438	11.2394	84.9156	-5.77208e-07	-1.4047e-06	2.92002e-10	-1.40499e-06	0.264524	49793	10.3507	49803.3
0.681362	42.1803	3.6124	42.3347	-4.89497	22.616	0.264463	-0.00522507	64661.6	470.809	1	12	0.00495617	0.000117071	0	-0.000146821	-0.000245917	3.62311e-06	13.6277	0.030948	0.0300767	-0.00729171	-4.88168	42.364	42.2104	3.60511	0.0235351	0.00201559	0.0236213	4.89497	470809	5.49742e+06	5.51754e+06	-85.105	0.0000000E+000	0.0000000E+000	0.0000000E+000	85.105	0.0000000E+000	0.0000000E+000	0.0000000E+000	-85.105	0.0000000E+000	0.0000000E+000	0.0000000E+000	-4.89497	0.0000000E+000	0.0000000E+000	0.0000000E+000	4.89497	11.6765	85.105	7.29215e-07	-1.38184e-06	1.28494e-09	-1.38312e-06	0.264709	50614.1	47.0649	50661.2
0.464091	43.0398	3.61583	43.1915	-4.80221	27.1726	0.264464	-0.00469452	94843.9	664.706	1	12	0.00495776	0.000114786	0	-0.000147091	-0.000226823	3.11764e-06	-100.203	0.0271606	-0.00481108	0.0267311	-4.83809	43.1889	43.035	3.64256	0.0230715	0.00193826	0.0231527	4.80221	664707	7.91211e+06	7.93998e+06	-85.1978	0.0000000E+000	0.0000000E+000	0.0000000E+000	85.1978	0.0000000E+000	0.0000000E+000	0.0000000E+000	-85.1978	0.0000000E+000	0.0000000E+000	0.0000000E+000	-4.80221	0.0000000E+000	0.0000000E+000	0.0000000E+000	4.80221	11.9032	85.1978	-2.70184e-07	-1.24153e-06	1.06483e-09	-1.24259e-06	0.264691	56334.6	48.3166	56382.9
0.316193	43.9809	3.6932	44.1357	-4.80002	33.8461	0.26446	-0.00407815	136290	954.311	1	12	0.00495641	0.000112299	0	-0.00015312	-0.000112259	1.96474e-06	3.78109	0.0174956	0.0174575	-0.00115374	-4.79664	44.153	43.9984	3.69205	0.0225779	0.00189593	0.0226574	4.80002	954312	1.13645e+07	1.14045e+07	-85.2	0.0000000E+000	0.0000000E+000	0.0000000E+000	85.2	0.0000000E+000	0.0000000E+000	0.0000000E+000	-85.2	0.0000000E+000	0.0000000E+000	0.0000000E+000	-4.80002	0.0000000E+000	0.0000000E+000	0.0000000E+000	4.80002	11.9086	85.2	-6.02851e-06	-1.07851e-06	4.57809e-10	-1.07897e-06	0.264573	64848.1	27.5269	64875.6
0.215268	44.9017	3.83101	45.0649	-4.87665	43.6395	0.26447	-0.00310903	192987	1394.69	1	12	0.00495872	0.000110035	0	-0.000169673	-0.000322294	2.66259e-06	13.6435	0.0241976	0.0235148	-0.00570773	-4.86689	45.0878	44.9252	3.8253	0.0221099	0.00188641	0.0221902	4.87665	1.39469e+06	1.63466e+07	1.6406e+07	-85.1233	0.0000000E+000	0.0000000E+000	0.0000000E+000	85.1233	0.0000000E+000	0.0000000E+000	0.0000000E+000	-85.1233	0.0000000E+000	0.0000000E+000	0.0000000E+000	-4.87665	0.0000000E+000	0.0000000E+000	0.0000000E+000	4.87665	11.7206	85.1233	-1.6553e-05	-8.22244e-07	1.00202e-09	-8.23246e-07	0.264792	85065.1	103.664	85168.8
0.146929	45.8682	4.0454	46.0462	-5.04023	57.9778	0.26446	-0.0026483	267764	2066.74	1	12	0.00495496	0.000107608	0	-0.000200312	-7.40708e-05	1.95786e-06	15.3907	0.0181943	0.0175418	-0.00482876	-5.03233	46.0633	45.8857	4.04057	0.0216333	0.00190798	0.0217173	5.04023	2.06674e+06	2.34335e+07	2.35244e+07	-84.9598	0.0000000E+000	0.0000000E+000	0.0000000E+000	84.9598	0.0000000E+000	0.0000000E+000	0.0000000E+000	-84.9598	0.0000000E+000	0.0000000E+000	0.0000000E+000	-5.04023	0.0000000E+000	0.0000000E+000	0.0000000E+000	5.04023	11.3384	84.9598	-3.06386e-05	-7.00368e-07	1.96161e-10	-7.00564e-07	0.264534	99860.3	27.9692	99888.3
0.0999041	46.9845	4.43731	47.1936	-5.39513	79.0538	0.264465	-0.00231165	359019	3173.89	1	12	0.00495972	0.000105093	0	-0.000242622	-3.58827e-05	1.84123e-06	-2.16551	0.01752	0.0175075	0.000662015	-5.39393	47.211	47.002	4.43797	0.0210955	0.0019923	0.0211893	5.39513	3.17388e+06	3.36067e+07	3.37562e+07	-84.6049	0.0000000E+000	0.0000000E+000	0.0000000E+000	84.6049	0.0000000E+000	0.0000000E+000	0.0000000E+000	-84.6049	0.0000000E+000	0.0000000E+000	0.0000000E+000	-5.39513	0.0000000E+000	0.0000000E+000	0.0000000E+000	5.39513	10.5885	84.6049	-4.23108e-05	-6.11349e-07	8.2948e-11	-6.11432e-07	0.264501	114405	15.5226	114421
0.0680626	48.1298	5.18714	48.4085	-6.15125	109.98	0.264468	-0.00213795	450800	5176.03	1	12	0.00495651	0.000102389	0	-0.000287948	-0.000169541	1.97649e-06	-6.20521	0.0193037	0.0191906	0.00208653	-6.15128	48.4278	48.149	5.18923	0.0205386	0.00221353	0.0206575	6.15125	5.17603e+06	4.80267e+07	4.83048e+07	-83.8487	0.0000000E+000	0.0000000E+000	0.0000000E+000	83.8487	0.0000000E+000	0.0000000E+000	0.0000000E+000	-83.8487	0.0000000E+000	0.0000000E+000	0.0000000E+000	-6.15125	0.0000000E+000	0.0000000E+000	0.0000000E+000	6.15125	9.27867	83.8487	-4.53258e-05	-5.65419e-07	3.6247e-10	-5.65781e-07	0.264638	123702	79.3009	123781
0.0464052	49.3702	6.41898	49.7858	-7.40788	155.331	0.26447	-0.00228849	534303	8881.96	1	12	0.00495724	9.95714e-05	0	-0.000317473	-0.000112259	1.68283e-06	-32.6961	0.0169008	0.0142228	0.00912951	-7.41619	49.8011	49.3845	6.42811	0.0199184	0.00258974	0.0200861	7.40788	8.88196e+06	6.83138e+07	6.88887e+07	-82.5921	0.0000000E+000	0.0000000E+000	0.0000000E+000	82.5921	0.0000000E+000	0.0000000E+000	0.0000000E+000	-82.5921	0.0000000E+000	0.0000000E+000	0.0000000E+000	-7.40788	0.0000000E+000	0.0000000E+000	0.0000000E+000	7.40788	7.69129	82.5921	-2.9525e-05	-6.05236e-07	2.56903e-10	-6.05493e-07	0.264582	115566	49.0538	115615
0.0315922	50.6461	8.1933	51.3045	-9.18944	221.937	0.264468	-0.00204679	614868	15681.5	1	12	0.00495704	9.66199e-05	0	-0.00030313	-9.31649e-05	2.40613e-06	16.6636	0.024903	0.0238572	-0.00714098	-9.17732	51.3269	50.6699	8.18615	0.0192413	0.00311277	0.0194915	9.18944	1.56815e+07	9.69337e+07	9.81939e+07	-80.8106	0.0000000E+000	0.0000000E+000	0.0000000E+000	80.8106	0.0000000E+000	0.0000000E+000	0.0000000E+000	-80.8106	0.0000000E+000	0.0000000E+000	0.0000000E+000	-9.18944	0.0000000E+000	0.0000000E+000	0.0000000E+000	9.18944	6.1814	80.8106	1.43431e-05	-5.41309e-07	1.90688e-10	-5.415e-07	0.264561	129211	45.5177	129257
0.0215268	52.1784	10.4528	53.2151	-11.328	319.674	0.264459	-0.00136033	707309	27290	1	12	0.00495905	9.31888e-05	0	-0.000224584	-5.49767e-05	2.49685e-06	-2.97066	0.0267935	0.0267575	0.00138856	-11.3238	53.2416	52.2051	10.4542	0.0184256	0.00369116	0.0187917	11.328	2.729e+07	1.36227e+08	1.38933e+08	-78.672	0.0000000E+000	0.0000000E+000	0.0000000E+000	78.672	0.0000000E+000	0.0000000E+000	0.0000000E+000	-78.672	0.0000000E+000	0.0000000E+000	0.0000000E+000	-11.328	0.0000000E+000	0.0000000E+000	0.0000000E+000	11.328	4.99182	78.672	7.85461e-05	-3.59751e-07	7.47863e-11	-3.59826e-07	0.264514	194409	40.4144	194449
0.0146812	54.2702	13.4908	55.9218	-13.9599	462.976	0.264461	-0.000477692	803568	46766.3	1	12	0.0049572	8.86452e-05	0	-9.58088e-05	0.000174152	2.53682e-06	1.89928	0.0286177	0.028602	-0.000948464	-13.9519	55.9494	54.2988	13.4898	0.0173539	0.00431394	0.0178821	13.9599	4.67663e+07	1.8813e+08	1.93855e+08	-76.0401	0.0000000E+000	0.0000000E+000	0.0000000E+000	76.0401	0.0000000E+000	0.0000000E+000	0.0000000E+000	-76.0401	0.0000000E+000	0.0000000E+000	0.0000000E+000	-13.9599	0.0000000E+000	0.0000000E+000	0.0000000E+000	13.9599	4.02276	76.0401	0.000128775	-1.26331e-07	-8.31911e-11	-1.26248e-07	0.264287	553623	364.57	553259
0.0100092	56.8204	17.9254	59.5809	-17.5092	673.157	0.264463	8.69057e-05	887058	80293.1	1	12	0.00495686	8.31955e-05	0	7.48877e-07	-1.67886e-05	1.59067e-06	-20.1824	0.0191197	0.0179457	0.00659648	-17.5101	59.6	56.8384	17.932	0.0160063	0.00504959	0.0167839	17.5092	8.0293e+07	2.54514e+08	2.66879e+08	-72.4908	0.0000000E+000	0.0000000E+000	0.0000000E+000	72.4908	0.0000000E+000	0.0000000E+000	0.0000000E+000	-72.4908	0.0000000E+000	0.0000000E+000	0.0000000E+000	-17.5092	0.0000000E+000	0.0000000E+000	0.0000000E+000	17.5092	3.16982	72.4908	9.65577e-05	2.29833e-08	-1.45902e-12	2.29848e-08	0.26448	3.0431e+06	193.182	3.0433e+06