File: txt/19345_R279_UA714_SOC00_C04.mpt
EC-Lab ASCII FILE
Nb header lines : 65

Potentio Electrochemical Impedance Spectroscopy

Run on channel : 4 (SN 66756)
User :
CE vs. WE compliance from -10 V to 10 V
Electrode connection : standard
Potential control : Ewe
Ewe ctrl range : min = -10.00 V, max = 10.00 V
Safety Limits :
	Do not start on E overload
Acquisition started on : 11/20/2025 15:02:47.228
Technique started on : 11/20/2025 15:02:49.139
Loaded Setting File :  C:\Users\Celltest\OneDrive - store-dot.com\Documents\EC-Lab\Data\@Biologic Test Protocols\anode half cell EIS SOC00.mps
Saved on :
	File : 19345_R279_UA714_SOC00_C04.mpr
	Directory : C:\Users\Celltest\OneDrive - store-dot.com\Documents\EC-Lab\Data\Charmaine\
	Host : 169.254.61.224
Device : VMP-3e (SN .003165)
Address : USB
EC-LAB for windows v11.62 (software)
Internet server v27.00 (firmware)
Command interpretor v12.03 (firmware)
Electrode material :
Initial state :
Electrolyte :
Comments :
Electrode surface area : 0.001 cm²
Characteristic mass : 0.001 g
Equivalent Weight : 0.000 g/eq.
Density : 0.000 g/cm3
Volume (V) : 0.001 cm³
Record Ece
Cycle Definition : Charge/Discharge alternance
Mode                Single sine
E (V)               0.0000
vs.                 Eoc
tE (h:m:s)          0:00:0.0000
record              0
dI                  0.000
unit dI             mA
dt (s)              0.000
fi                  100.000
unit fi             kHz
ff                  10.000
unit ff             mHz
Nd                  6
Points              per decade
spacing             Logarithmic
Va (mV)             5.0
pw                  0.10
Na                  2
corr                0
E range min (V)     -10.000
E range max (V)     10.000
I Range             Auto
Bandwidth           5
nc cycles           0
goto Ns'            0
nr cycles           0
inc. cycle          0

freq/Hz	Re(Z)/Ohm	-Im(Z)/Ohm	|Z|/Ohm	Phase(Z)/deg	time/s	<Ewe>/V	<I>/mA	Cs/µF	Cp/µF	cycle number	I Range	|Ewe|/V	|I|/A	Ns	(Q-Qo)/mA.h	<Ece>/V	|Ece|/V	Phase(Zce)/deg	|Zce|/Ohm	Re(Zce)/Ohm	-Im(Zce)/Ohm	Phase(Zwe-ce)/deg	|Zwe-ce|/Ohm	Re(Zwe-ce)/Ohm	-Im(Zwe-ce)/Ohm	Re(Y)/Ohm-1	Im(Y)/Ohm-1	|Y|/Ohm-1	Phase(Y)/deg	Re(C)/nF	Im(C)/nF	|C|/nF	Phase(C)/deg	Re(M)	Im(M)	|M|	Phase(M)/deg	Re(Permittivity)	Im(Permittivity)	|Permittivity|	Phase(Permittivity)/deg	Re(Resistivity)/Ohm.cm	Im(Resistivity)/Ohm.cm	|Resistivity|/Ohm.cm	Phase(Resistivity)/deg	Re(Conductivity)/mS/cm	Im(Conductivity)/mS/cm	|Conductivity|/mS/cm	Phase(Conductivity)/deg	Tan(Delta)	Loss Angle(Delta)/deg	dq/mA.h	Pwe/W	Pce/W	Pwe-ce/W	<Ewe-Ece>/V	Rwe/Ohm	Rce/Ohm	Rwe-ce/Ohm		Ewe-Ece/V
100004	1.32073	0.589296	1.44624	-24.0459	1.91056	0.263303	-0.0343361	2.70066	0.448392	1	9	0.00472137	0.00326459	0	-8.8643e-06	1.33066e-05	2.57401e-05	94.2524	0.00788466	-0.000584647	-0.00786295	-23.7701	1.44252	1.32015	0.581433	0.631445	0.281743	0.691449	24.0459	448.392	1004.94	1100.43	-65.9541	0.0000000E+000	0.0000000E+000	0.0000000E+000	65.9541	0.0000000E+000	0.0000000E+000	0.0000000E+000	-65.9541	0.0000000E+000	0.0000000E+000	0.0000000E+000	-24.0459	0.0000000E+000	0.0000000E+000	0.0000000E+000	24.0459	2.24121	65.9541	-8.8643e-06	-9.04078e-06	-4.56897e-10	-9.04033e-06	0.263289	7668.39	0.38754	7668
68132	1.48406	0.647803	1.61929	-23.5816	2.41755	0.263305	-0.0388864	3.606	0.577119	1	9	0.00504688	0.00311673	0	-1.97913e-05	-0.000273343	2.98045e-05	84.0724	0.00956272	0.000987551	-0.00951159	-23.2586	1.61641	1.48505	0.638292	0.565985	0.247057	0.617556	23.5816	577.119	1322.13	1442.6	-66.4184	0.0000000E+000	0.0000000E+000	0.0000000E+000	66.4184	0.0000000E+000	0.0000000E+000	0.0000000E+000	-66.4184	0.0000000E+000	0.0000000E+000	0.0000000E+000	-23.5816	0.0000000E+000	0.0000000E+000	0.0000000E+000	23.5816	2.29091	66.4184	-1.0927e-05	-1.0239e-05	1.06293e-08	-1.02496e-05	0.263578	6771.14	7.02927	6778.17
46420.4	1.65861	0.696379	1.79887	-22.7754	2.92456	0.263312	-0.0280329	4.92341	0.737833	1	9	0.00509723	0.00283357	0	-2.15653e-05	-0.000330673	1.35796e-05	77.8219	0.00479239	0.00101096	-0.00468454	-22.6253	1.79799	1.65962	0.691694	0.51256	0.215202	0.555905	22.7754	737.833	1757.34	1905.95	-67.2246	0.0000000E+000	0.0000000E+000	0.0000000E+000	67.2246	0.0000000E+000	0.0000000E+000	0.0000000E+000	-67.2246	0.0000000E+000	0.0000000E+000	0.0000000E+000	-22.7754	0.0000000E+000	0.0000000E+000	0.0000000E+000	22.7754	2.38176	67.2246	-1.774e-06	-7.38139e-06	9.2697e-09	-7.39066e-06	0.263643	9392.98	11.7959	9404.78
31621.1	1.83582	0.744498	1.98104	-22.0745	3.43152	0.263318	-0.0336648	6.7605	0.954819	1	9	0.00514312	0.00259617	0	-2.21444e-05	-8.22432e-05	1.05407e-05	41.4311	0.0040601	0.00304407	-0.00268664	-21.9695	1.98285	1.83886	0.741812	0.467783	0.189705	0.504786	22.0745	954.819	2354.44	2540.68	-67.9255	0.0000000E+000	0.0000000E+000	0.0000000E+000	67.9255	0.0000000E+000	0.0000000E+000	0.0000000E+000	-67.9255	0.0000000E+000	0.0000000E+000	0.0000000E+000	-22.0745	0.0000000E+000	0.0000000E+000	0.0000000E+000	22.0745	2.46585	67.9255	-5.79153e-07	-8.86455e-06	2.7687e-09	-8.86732e-06	0.263401	7821.78	2.443	7824.22
21544.7	2.02373	0.802445	2.17702	-21.6292	3.69053	0.263314	-0.0351567	9.20587	1.25075	1	9	0.00522605	0.00240056	0	-2.33194e-05	-2.49133e-05	5.71918e-06	-47.2647	0.00238244	0.00161675	0.00174989	-21.6563	2.17916	2.02535	0.804195	0.427001	0.169314	0.459344	21.6292	1250.75	3154.34	3393.27	-68.3708	0.0000000E+000	0.0000000E+000	0.0000000E+000	68.3708	0.0000000E+000	0.0000000E+000	0.0000000E+000	-68.3708	0.0000000E+000	0.0000000E+000	0.0000000E+000	-21.6292	0.0000000E+000	0.0000000E+000	0.0000000E+000	21.6292	2.52195	68.3708	-1.17496e-06	-9.25725e-06	8.75869e-10	-9.25812e-06	0.263339	7489.74	0.708637	7490.45
14678.6	2.20239	0.855972	2.36288	-21.2389	4.07351	0.263282	-0.0290772	12.6671	1.66231	1	9	0.00481989	0.00203983	0	-2.94542e-05	-0.000177793	7.71433e-06	17.7638	0.00378185	0.00360154	-0.00115382	-21.1813	2.36582	2.20599	0.854818	0.394466	0.153312	0.423212	21.2389	1662.31	4277.06	4588.74	-68.7611	0.0000000E+000	0.0000000E+000	0.0000000E+000	68.7611	0.0000000E+000	0.0000000E+000	0.0000000E+000	-68.7611	0.0000000E+000	0.0000000E+000	0.0000000E+000	-21.2389	0.0000000E+000	0.0000000E+000	0.0000000E+000	21.2389	2.57297	68.7611	-6.13478e-06	-7.65549e-06	5.16972e-09	-7.66066e-06	0.263459	9054.57	6.11451	9060.68
10002.2	2.38066	0.928314	2.55525	-21.3028	4.45653	0.263308	-0.0338513	17.1407	2.26231	1	9	0.00493692	0.00193207	0	-3.16657e-05	-0.000216013	1.74629e-05	-103.522	0.00903843	-0.0021133	0.0087879	-21.5035	2.55649	2.37855	0.937101	0.364611	0.142177	0.391351	21.3028	2262.31	5801.68	6227.16	-68.6972	0.0000000E+000	0.0000000E+000	0.0000000E+000	68.6972	0.0000000E+000	0.0000000E+000	0.0000000E+000	-68.6972	0.0000000E+000	0.0000000E+000	0.0000000E+000	-21.3028	0.0000000E+000	0.0000000E+000	0.0000000E+000	21.3028	2.5645	68.6972	-2.21153e-06	-8.91332e-06	7.31231e-09	-8.92063e-06	0.263524	7778.38	6.38123	7784.77
6810.42	2.59228	1.03448	2.79107	-21.755	4.71554	0.263299	-0.0351567	22.5904	3.10332	1	9	0.00475923	0.00170516	0	-3.24648e-05	-0.000273343	3.29007e-05	-48.3204	0.0192947	0.0128303	0.0144107	-21.9311	2.80834	2.60511	1.04889	0.332767	0.132795	0.358285	21.755	3103.32	7776.55	8372.89	-68.245	0.0000000E+000	0.0000000E+000	0.0000000E+000	68.245	0.0000000E+000	0.0000000E+000	0.0000000E+000	-68.245	0.0000000E+000	0.0000000E+000	0.0000000E+000	-21.755	0.0000000E+000	0.0000000E+000	0.0000000E+000	21.755	2.50588	68.245	-7.99121e-07	-9.25673e-06	9.60982e-09	-9.26633e-06	0.263573	7489.31	7.77499	7497.08
4646	2.77612	1.17595	3.01491	-22.9572	4.98164	0.263269	-0.0550361	29.1308	4.4318	1	9	0.00464112	0.00153939	0	-3.61092e-05	-8.22432e-05	7.25856e-06	-116.289	0.00471522	-0.00208835	0.00422754	-23.0467	3.01464	2.77403	1.18018	0.305414	0.129372	0.331685	22.9572	4431.8	10462.4	11362.3	-67.0428	0.0000000E+000	0.0000000E+000	0.0000000E+000	67.0428	0.0000000E+000	0.0000000E+000	0.0000000E+000	-67.0428	0.0000000E+000	0.0000000E+000	0.0000000E+000	-22.9572	0.0000000E+000	0.0000000E+000	0.0000000E+000	22.9572	2.36075	67.0428	-3.64439e-06	-1.44893e-05	4.52635e-09	-1.44938e-05	0.263351	4783.56	1.49435	4785.06
3163.08	2.99973	1.37705	3.3007	-24.6579	5.35361	0.263116	-0.0629432	36.5393	6.35984	1	9	0.00456803	0.00138396	0	-4.25467e-05	-0.000196903	4.50275e-06	-35.1923	0.00325354	0.00265886	0.00187509	-24.6682	3.3039	3.00239	1.37893	0.27534	0.126397	0.302966	24.6579	6359.84	13854.1	15244.2	-65.3421	0.0000000E+000	0.0000000E+000	0.0000000E+000	65.3421	0.0000000E+000	0.0000000E+000	0.0000000E+000	-65.3421	0.0000000E+000	0.0000000E+000	0.0000000E+000	-24.6579	0.0000000E+000	0.0000000E+000	0.0000000E+000	24.6579	2.17837	65.3421	-6.43746e-06	-1.65613e-05	1.23937e-08	-1.65737e-05	0.263313	4180.21	3.12826	4183.34
2155.69	3.24976	1.65137	3.64526	-26.9374	6.05083	0.263228	-0.0151393	44.7085	9.1753	1	10	0.00472505	0.00129622	0	-4.46975e-05	-0.000120463	1.27419e-05	30.6919	0.00983007	0.00845311	-0.00501748	-26.8071	3.65053	3.25821	1.64635	0.244565	0.124276	0.274329	26.9374	9175.3	18056.2	20253.7	-63.0626	0.0000000E+000	0.0000000E+000	0.0000000E+000	63.0626	0.0000000E+000	0.0000000E+000	0.0000000E+000	-63.0626	0.0000000E+000	0.0000000E+000	0.0000000E+000	-26.9374	0.0000000E+000	0.0000000E+000	0.0000000E+000	26.9374	1.96792	63.0626	-2.15082e-06	-3.98509e-06	1.82372e-09	-3.98691e-06	0.263349	17387.1	7.95699	17395.1
1468.59	3.523	2.01607	4.05907	-29.7808	6.5021	0.263232	-0.0147252	53.7544	13.2609	1	10	0.00466035	0.00114813	0	-4.56106e-05	0.000185296	1.00177e-05	-118.569	0.00872525	-0.00417252	0.0076629	-29.9039	4.05926	3.51882	2.02373	0.213825	0.122364	0.246362	29.7808	13260.9	23172.8	26698.9	-60.2192	0.0000000E+000	0.0000000E+000	0.0000000E+000	60.2192	0.0000000E+000	0.0000000E+000	0.0000000E+000	-60.2192	0.0000000E+000	0.0000000E+000	0.0000000E+000	-29.7808	0.0000000E+000	0.0000000E+000	0.0000000E+000	29.7808	1.74746	60.2192	-9.13095e-07	-3.87616e-06	-2.72853e-09	-3.87343e-06	0.263047	17876.3	12.5836	17863.7
1000.32	3.8426	2.52961	4.60049	-33.3572	6.95281	0.263245	-0.0148521	62.8967	19.0163	1	10	0.00460799	0.00100163	0	-4.68813e-05	-0.000311563	6.99189e-06	30.0995	0.00698051	0.00603922	-0.00350075	-33.2795	4.60361	3.84864	2.52611	0.181559	0.119521	0.217368	33.3572	19016.3	28886.7	34584.2	-56.6428	0.0000000E+000	0.0000000E+000	0.0000000E+000	56.6428	0.0000000E+000	0.0000000E+000	0.0000000E+000	-56.6428	0.0000000E+000	0.0000000E+000	0.0000000E+000	-33.3572	0.0000000E+000	0.0000000E+000	0.0000000E+000	33.3572	1.51905	56.6428	-1.27071e-06	-3.90972e-06	4.62735e-09	-3.91435e-06	0.263556	17724.4	20.9777	17745.4
681.09	4.25858	3.22687	5.34305	-37.1524	7.40351	0.263248	-0.0141396	72.4161	26.4131	1	10	0.00456907	0.000855143	0	-4.81312e-05	-0.000311563	5.03016e-06	-85.1958	0.00588225	0.000492644	0.00586158	-37.1993	5.34698	4.25907	3.23273	0.149172	0.113032	0.187159	37.1524	26413.1	34858	43734.8	-52.8476	0.0000000E+000	0.0000000E+000	0.0000000E+000	52.8476	0.0000000E+000	0.0000000E+000	0.0000000E+000	-52.8476	0.0000000E+000	0.0000000E+000	0.0000000E+000	-37.1524	0.0000000E+000	0.0000000E+000	0.0000000E+000	37.1524	1.31973	52.8476	-1.24989e-06	-3.72222e-06	4.40537e-09	-3.72662e-06	0.263559	18617.8	22.0347	18639.8
463.961	4.81282	4.1749	6.37126	-40.9401	7.85534	0.263228	-0.0149341	82.1662	35.2804	1	10	0.00453631	0.000711996	0	-5.01293e-05	-8.22432e-05	4.69936e-06	-45.212	0.00660027	0.0046498	0.00468433	-40.9445	6.37784	4.81747	4.17958	0.118563	0.102848	0.156955	40.9401	35280.4	40671.3	53841.1	-49.0599	0.0000000E+000	0.0000000E+000	0.0000000E+000	49.0599	0.0000000E+000	0.0000000E+000	0.0000000E+000	-49.0599	0.0000000E+000	0.0000000E+000	0.0000000E+000	-40.9401	0.0000000E+000	0.0000000E+000	0.0000000E+000	40.9401	1.1528	49.0599	-1.99812e-06	-3.93109e-06	1.22823e-09	-3.93231e-06	0.26331	17625.9	5.50706	17631.4
316.316	5.61033	5.43639	7.81218	-44.0979	8.30307	0.263245	-0.0144865	92.5526	44.8193	1	10	0.00451627	0.000578107	0	-5.14464e-05	-0.000349783	1.04387e-05	40.5201	0.0180567	0.0137263	-0.0117317	-43.9661	7.81389	5.62405	5.42465	0.0919273	0.0890772	0.128005	44.0979	44819.3	46253.4	64406.1	-45.9021	0.0000000E+000	0.0000000E+000	0.0000000E+000	45.9021	0.0000000E+000	0.0000000E+000	0.0000000E+000	-45.9021	0.0000000E+000	0.0000000E+000	0.0000000E+000	-44.0979	0.0000000E+000	0.0000000E+000	0.0000000E+000	44.0979	1.032	45.9021	-1.31707e-06	-3.81351e-06	5.06714e-09	-3.81857e-06	0.263595	18171.7	24.1454	18195.9
215.345	6.8165	7.01108	9.77854	-45.8062	8.75253	0.263256	-0.0147253	105.415	54.1904	1	10	0.00450687	0.000460894	0	-5.27565e-05	-0.000216013	4.29277e-06	-17.331	0.00931401	0.00889115	0.00277456	-45.7802	9.78673	6.82539	7.01385	0.0712875	0.0733223	0.102265	45.8062	54190.4	52686.5	75580.9	-44.1938	0.0000000E+000	0.0000000E+000	0.0000000E+000	44.1938	0.0000000E+000	0.0000000E+000	0.0000000E+000	-44.1938	0.0000000E+000	0.0000000E+000	0.0000000E+000	-45.8062	0.0000000E+000	0.0000000E+000	0.0000000E+000	45.8062	0.972248	44.1938	-1.31009e-06	-3.87652e-06	3.18085e-09	-3.8797e-06	0.263472	17877.9	14.6695	17892.5
146.737	8.63793	8.84105	12.3603	-45.6658	9.41052	0.263218	-0.0162099	122.681	62.7657	1	10	0.00500879	0.000405231	0	-5.54744e-05	1.33066e-05	5.65849e-05	-3.44207	0.139636	0.139384	0.00838366	-45.2344	12.4641	8.77732	8.84943	0.0565391	0.0578686	0.0809039	45.6658	62765.7	61323.7	87750.4	-44.3342	0.0000000E+000	0.0000000E+000	0.0000000E+000	44.3342	0.0000000E+000	0.0000000E+000	0.0000000E+000	-44.3342	0.0000000E+000	0.0000000E+000	0.0000000E+000	-45.6658	0.0000000E+000	0.0000000E+000	0.0000000E+000	45.6658	0.977026	44.3342	-2.71795e-06	-4.26673e-06	-2.15698e-10	-4.26651e-06	0.263204	16238.1	0.820895	16237.3
100.032	11.2678	10.8223	15.6233	-43.8446	9.86185	0.263236	-0.0147775	147.015	70.5435	1	10	0.00499453	0.000319686	0	-5.7476e-05	-0.000559992	6.84321e-06	33.4678	0.0214061	0.0178569	-0.0118048	-43.768	15.628	11.2857	10.8105	0.0461633	0.044338	0.0640071	43.8446	70543.5	73447.7	101838	-46.1554	0.0000000E+000	0.0000000E+000	0.0000000E+000	46.1554	0.0000000E+000	0.0000000E+000	0.0000000E+000	-46.1554	0.0000000E+000	0.0000000E+000	0.0000000E+000	-43.8446	0.0000000E+000	0.0000000E+000	0.0000000E+000	43.8446	1.04117	46.1554	-2.00156e-06	-3.88997e-06	8.27528e-09	-3.89824e-06	0.263796	17813.3	37.8949	17851.2
68.104	14.751	12.3965	19.2682	-40.0431	10.3245	0.263193	-0.0140165	188.516	78.0301	1	10	0.00498888	0.000258917	0	-5.91455e-05	0.000108856	2.85103e-06	67.937	0.0110114	0.00413616	-0.010205	-40.012	19.2648	14.7551	12.3863	0.0397317	0.0333899	0.0518989	40.0431	78030.1	92850.7	121285	-49.9569	0.0000000E+000	0.0000000E+000	0.0000000E+000	49.9569	0.0000000E+000	0.0000000E+000	0.0000000E+000	-49.9569	0.0000000E+000	0.0000000E+000	0.0000000E+000	-40.0431	0.0000000E+000	0.0000000E+000	0.0000000E+000	40.0431	1.18993	49.9569	-1.66952e-06	-3.68905e-06	-1.52579e-09	-3.68752e-06	0.263084	18777.3	7.76628	18769.5
46.4415	19.1337	13.2835	23.2927	-34.7702	11.0007	0.263293	-0.000869119	257.989	83.9048	1	11	0.00499032	0.000214244	0	-6.08199e-05	-0.000120463	3.00872e-06	-12.5196	0.0140434	0.0137095	0.00304425	-34.7571	23.3057	19.1474	13.2866	0.0352662	0.0244835	0.0429319	34.7702	83904.8	120857	147127	-55.2298	0.0000000E+000	0.0000000E+000	0.0000000E+000	55.2298	0.0000000E+000	0.0000000E+000	0.0000000E+000	-55.2298	0.0000000E+000	0.0000000E+000	0.0000000E+000	-34.7702	0.0000000E+000	0.0000000E+000	0.0000000E+000	34.7702	1.44041	55.2298	-1.67443e-06	-2.28833e-07	1.04697e-10	-2.28937e-07	0.263413	302942	138.604	303081
31.6296	23.5912	12.9931	26.9326	-28.8442	11.4305	0.263283	-0.0010579	387.271	90.1329	1	11	0.00499429	0.000185437	0	-6.05337e-05	-0.000349783	1.16362e-05	32.5148	0.0627502	0.0529143	-0.0337294	-28.7272	26.9627	23.6441	12.9594	0.0325232	0.0179125	0.0371297	28.8442	90132.9	163652	186831	-61.1558	0.0000000E+000	0.0000000E+000	0.0000000E+000	61.1558	0.0000000E+000	0.0000000E+000	0.0000000E+000	-61.1558	0.0000000E+000	0.0000000E+000	0.0000000E+000	-28.8442	0.0000000E+000	0.0000000E+000	0.0000000E+000	28.8442	1.81567	61.1558	2.86268e-07	-2.78527e-07	3.70034e-10	-2.78897e-07	0.263633	248874	330.639	249204
21.5517	27.5203	11.6871	29.8991	-23.0096	11.8515	0.263271	-0.00159065	631.875	96.5448	1	11	0.00497918	0.000166533	0	-6.05985e-05	1.33066e-05	1.01151e-05	24.7901	0.0607397	0.0551425	-0.0254678	-22.9235	29.9399	27.5755	11.6616	0.0307849	0.0130735	0.0334458	23.0096	96544.8	227340	246990	-66.9904	0.0000000E+000	0.0000000E+000	0.0000000E+000	66.9904	0.0000000E+000	0.0000000E+000	0.0000000E+000	-66.9904	0.0000000E+000	0.0000000E+000	0.0000000E+000	-23.0096	0.0000000E+000	0.0000000E+000	0.0000000E+000	23.0096	2.35476	66.9904	-6.48136e-08	-4.18774e-07	-2.11662e-11	-4.18753e-07	0.263258	165511	8.36549	165503
14.6852	30.5678	9.90691	32.1331	-17.9573	12.3122	0.263279	-0.00105118	1093.96	103.986	1	11	0.00498937	0.000155272	0	-6.03052e-05	-0.000407112	5.02925e-06	-164.72	0.0323899	-0.0312449	0.00853601	-17.989	32.106	30.5366	9.91545	0.0296045	0.00959472	0.0311205	17.9573	103986	320848	337278	-72.0427	0.0000000E+000	0.0000000E+000	0.0000000E+000	72.0427	0.0000000E+000	0.0000000E+000	0.0000000E+000	-72.0427	0.0000000E+000	0.0000000E+000	0.0000000E+000	-17.9573	0.0000000E+000	0.0000000E+000	0.0000000E+000	17.9573	3.0855	72.0427	2.93241e-07	-2.76755e-07	4.2795e-10	-2.77183e-07	0.263686	250460	387.289	250847
10.0032	32.6653	7.94573	33.6178	-13.6715	12.7628	0.263252	-0.00171526	2002.38	111.86	1	11	0.00499615	0.000148616	0	-6.17211e-05	-0.000177793	5.62501e-06	-153.272	0.0378492	-0.0338052	0.0170228	-13.7133	33.589	32.6315	7.96276	0.0289033	0.00703063	0.0297461	13.6715	111860	459863	473273	-76.3285	0.0000000E+000	0.0000000E+000	0.0000000E+000	76.3285	0.0000000E+000	0.0000000E+000	0.0000000E+000	-76.3285	0.0000000E+000	0.0000000E+000	0.0000000E+000	-13.6715	0.0000000E+000	0.0000000E+000	0.0000000E+000	13.6715	4.11105	76.3285	-1.41586e-06	-4.51547e-07	3.04962e-10	-4.51852e-07	0.26343	153476	103.653	153580
6.81719	34.1273	6.34385	34.7119	-10.5304	13.1025	0.26328	-0.000652737	3680.12	122.917	1	11	0.0049736	0.000143282	0	-6.06419e-05	-8.22432e-05	1.04105e-05	5.53187	0.0726576	0.0723192	-0.00700415	-10.4973	34.7817	34.1996	6.33685	0.0283234	0.00526497	0.0288085	10.5304	122917	661241	672568	-79.4696	0.0000000E+000	0.0000000E+000	0.0000000E+000	79.4696	0.0000000E+000	0.0000000E+000	0.0000000E+000	-79.4696	0.0000000E+000	0.0000000E+000	0.0000000E+000	-10.5304	0.0000000E+000	0.0000000E+000	0.0000000E+000	10.5304	5.37959	79.4696	1.07919e-06	-1.71853e-07	5.36832e-11	-1.71907e-07	0.263363	403348	125.997	403474
4.63925	35.1761	5.03937	35.5352	-8.1528	13.5874	0.263275	-0.000603864	6807.62	136.909	1	11	0.00498417	0.00014026	0	-6.03409e-05	-0.000292453	4.17935e-06	0.405522	0.0297972	0.0297964	-0.000210894	-8.14565	35.5647	35.2059	5.03916	0.0278567	0.00399079	0.0281411	8.1528	136909	955656	965413	-81.8472	0.0000000E+000	0.0000000E+000	0.0000000E+000	81.8472	0.0000000E+000	0.0000000E+000	0.0000000E+000	-81.8472	0.0000000E+000	0.0000000E+000	0.0000000E+000	-8.1528	0.0000000E+000	0.0000000E+000	0.0000000E+000	8.1528	6.98025	81.8472	3.01014e-07	-1.58982e-07	1.76602e-10	-1.59159e-07	0.263568	435984	484.302	436469
3.1604	35.8383	4.22978	36.0871	-6.73113	14.2805	0.263288	4.04423e-05	11905.9	163.566	1	11	0.00498314	0.000138086	0	-6.21109e-05	1.33066e-05	1.82758e-06	-112.206	0.0132351	-0.00500207	0.0122534	-6.75138	36.0836	35.8333	4.24203	0.0275197	0.00324799	0.0277107	6.73113	163566	1.38587e+06	1.39549e+06	-83.2689	0.0000000E+000	0.0000000E+000	0.0000000E+000	83.2689	0.0000000E+000	0.0000000E+000	0.0000000E+000	-83.2689	0.0000000E+000	0.0000000E+000	0.0000000E+000	-6.73113	0.0000000E+000	0.0000000E+000	0.0000000E+000	6.73113	8.47286	83.2689	-1.77004e-06	1.0648e-08	5.38149e-13	1.06474e-08	0.263275	6.51022e+06	329.027	6.5099e+06
2.15577	36.4807	3.58156	36.6561	-5.60714	15.2842	0.263286	0.000156936	20613.2	196.787	1	11	0.00498619	0.000136026	0	-6.38528e-05	1.33066e-05	7.21108e-06	-28.8648	0.0530125	0.0464263	0.0255915	-5.63982	36.7048	36.5272	3.60715	0.02715	0.0026655	0.0272806	5.60714	196787	2.00442e+06	2.01406e+06	-84.3929	0.0000000E+000	0.0000000E+000	0.0000000E+000	84.3929	0.0000000E+000	0.0000000E+000	0.0000000E+000	-84.3929	0.0000000E+000	0.0000000E+000	0.0000000E+000	-5.60714	0.0000000E+000	0.0000000E+000	0.0000000E+000	5.60714	10.1857	84.3929	-1.74182e-06	4.13189e-08	2.08828e-12	4.13168e-08	0.263272	1.67766e+06	84.7901	1.67758e+06
1.46631	37.0238	3.22565	37.1641	-4.97925	17.4713	0.263276	0.000215388	33649.3	253.492	1	12	0.00498828	0.000134223	0	-6.28229e-05	-4.40233e-05	4.07823e-06	-44.05	0.0303839	0.021838	0.0211255	-5.00875	37.1877	37.0457	3.24678	0.0268061	0.00233545	0.0269077	4.97925	253492	2.90957e+06	2.92059e+06	-85.0208	0.0000000E+000	0.0000000E+000	0.0000000E+000	85.0208	0.0000000E+000	0.0000000E+000	0.0000000E+000	-85.0208	0.0000000E+000	0.0000000E+000	0.0000000E+000	-4.97925	0.0000000E+000	0.0000000E+000	0.0000000E+000	4.97925	11.4779	85.0208	1.02986e-06	5.67064e-08	-9.48209e-12	5.67159e-08	0.26332	1.22233e+06	204.39	1.22254e+06
1.00006	37.6022	3.07128	37.7274	-4.66945	19.5988	0.263282	0.000275286	51817.1	343.398	1	12	0.00498486	0.000132128	0	-5.83955e-05	-0.000235123	3.09963e-06	-41.5351	0.0234593	0.0175604	0.0155553	-4.69081	37.7462	37.6198	3.08684	0.0264179	0.00215777	0.0265059	4.66945	343398	4.20428e+06	4.21828e+06	-85.3306	0.0000000E+000	0.0000000E+000	0.0000000E+000	85.3306	0.0000000E+000	0.0000000E+000	0.0000000E+000	-85.3306	0.0000000E+000	0.0000000E+000	0.0000000E+000	-4.66945	0.0000000E+000	0.0000000E+000	0.0000000E+000	4.66945	12.2432	85.3306	4.42741e-06	7.24777e-08	-6.4726e-11	7.25424e-08	0.263517	956394	854.104	957248
0.681362	38.2521	3.01371	38.3706	-4.50477	22.711	0.263273	0.000123612	77506.9	478.129	1	12	0.00498292	0.000129863	0	-5.34018e-05	-0.000101353	3.811e-06	65.8381	0.0293463	0.0120119	-0.0267754	-4.46351	38.3805	38.2641	2.98693	0.0259811	0.00204693	0.0260616	4.50477	478129	6.06875e+06	6.08756e+06	-85.4952	0.0000000E+000	0.0000000E+000	0.0000000E+000	85.4952	0.0000000E+000	0.0000000E+000	0.0000000E+000	-85.4952	0.0000000E+000	0.0000000E+000	0.0000000E+000	-4.50477	0.0000000E+000	0.0000000E+000	0.0000000E+000	4.50477	12.6927	85.4952	4.99367e-06	3.25438e-08	-1.25285e-11	3.25563e-08	0.263375	2.12984e+06	819.929	2.13066e+06
0.464091	38.9578	3.05219	39.0772	-4.47975	27.2677	0.263281	0.000580524	112358	685.461	1	12	0.00498851	0.000127658	0	-5.12798e-05	-0.000120463	3.22285e-06	-30.3208	0.025246	0.0217927	0.0127452	-4.49587	39.0999	38.9796	3.06494	0.0255122	0.00199878	0.0255904	4.47975	685461	8.74914e+06	8.77595e+06	-85.5202	0.0000000E+000	0.0000000E+000	0.0000000E+000	85.5202	0.0000000E+000	0.0000000E+000	0.0000000E+000	-85.5202	0.0000000E+000	0.0000000E+000	0.0000000E+000	-4.47975	0.0000000E+000	0.0000000E+000	0.0000000E+000	4.47975	12.7639	85.5202	2.12199e-06	1.52841e-07	-6.99318e-11	1.52911e-07	0.263402	453524	207.507	453731
0.316193	39.6695	3.19878	39.7983	-4.6101	33.9411	0.263289	0.000998665	157356	1016.54	1	12	0.00498072	0.000125149	0	-5.56018e-05	-2.49133e-05	1.60037e-06	9.03697	0.0127878	0.012629	-0.0020086	-4.60576	39.8107	39.6822	3.19677	0.0250454	0.00201955	0.0251267	4.6101	1.01653e+06	1.26065e+07	1.26475e+07	-85.3899	0.0000000E+000	0.0000000E+000	0.0000000E+000	85.3899	0.0000000E+000	0.0000000E+000	0.0000000E+000	-85.3899	0.0000000E+000	0.0000000E+000	0.0000000E+000	-4.6101	0.0000000E+000	0.0000000E+000	0.0000000E+000	4.6101	12.4015	85.3899	-4.322e-06	2.62938e-07	-2.48801e-11	2.62963e-07	0.263314	263641	24.9466	263666
0.215268	40.4139	3.34273	40.5519	-4.72831	43.7345	0.26327	0.000590602	221177	1502.87	1	12	0.00498326	0.000122886	0	-6.92198e-05	-4.40233e-05	3.16707e-06	21.5604	0.0257724	0.0239691	-0.0094709	-4.71219	40.575	40.4378	3.33326	0.0245759	0.00203273	0.0246598	4.72831	1.50287e+06	1.81698e+07	1.82318e+07	-85.2717	0.0000000E+000	0.0000000E+000	0.0000000E+000	85.2717	0.0000000E+000	0.0000000E+000	0.0000000E+000	-85.2717	0.0000000E+000	0.0000000E+000	0.0000000E+000	-4.72831	0.0000000E+000	0.0000000E+000	0.0000000E+000	4.72831	12.0901	85.2717	-1.3618e-05	1.55487e-07	-2.60002e-11	1.55513e-07	0.263314	445765	74.5397	445839
0.146929	41.2174	3.608	41.375	-5.00269	58.0729	0.263282	0.000500167	300225	2282.99	1	12	0.00498294	0.000120434	0	-8.8984e-05	-0.000254233	1.99424e-06	-4.5111	0.0165588	0.0165075	0.00130239	-5.00249	41.3915	41.2339	3.6093	0.0240771	0.00210761	0.0241692	5.00269	2.28299e+06	2.60806e+07	2.61804e+07	-84.9973	0.0000000E+000	0.0000000E+000	0.0000000E+000	84.9973	0.0000000E+000	0.0000000E+000	0.0000000E+000	-84.9973	0.0000000E+000	0.0000000E+000	0.0000000E+000	-5.00269	0.0000000E+000	0.0000000E+000	0.0000000E+000	5.00269	11.4239	84.9973	-1.97642e-05	1.31685e-07	-1.27159e-10	1.31812e-07	0.263537	526389	508.296	526897
0.0999041	42.0969	4.09487	42.2956	-5.55582	79.1501	0.26328	-0.000375721	389042	3646.58	1	12	0.00499039	0.000117988	0	-0.000107042	-0.000235123	2.7533e-06	15.9029	0.0233354	0.0224422	-0.00639407	-5.54426	42.3174	42.1194	4.08847	0.023532	0.00228902	0.0236431	5.55582	3.64658e+06	3.74884e+07	3.76653e+07	-84.4442	0.0000000E+000	0.0000000E+000	0.0000000E+000	84.4442	0.0000000E+000	0.0000000E+000	0.0000000E+000	-84.4442	0.0000000E+000	0.0000000E+000	0.0000000E+000	-5.55582	0.0000000E+000	0.0000000E+000	0.0000000E+000	5.55582	10.2804	84.4442	-1.80581e-05	-9.89198e-08	8.83405e-11	-9.90082e-08	0.263515	700733	625.791	701359
0.0680626	43.0053	4.90082	43.2836	-6.5013	110.077	0.263284	-0.000947385	477137	6116.92	1	12	0.00498982	0.000115282	0	-0.000112501	-0.000120463	3.61858e-06	5.20806	0.031389	0.0312594	-0.00284926	-6.49287	43.3144	43.0365	4.89797	0.0229549	0.0026159	0.0231034	6.5013	6.11692e+06	5.36767e+07	5.40241e+07	-83.4987	0.0000000E+000	0.0000000E+000	0.0000000E+000	83.4987	0.0000000E+000	0.0000000E+000	0.0000000E+000	-83.4987	0.0000000E+000	0.0000000E+000	0.0000000E+000	-6.5013	0.0000000E+000	0.0000000E+000	0.0000000E+000	6.5013	8.77512	83.4987	-5.45919e-06	-2.49431e-07	1.14125e-10	-2.49545e-07	0.263404	277906	127.153	278033
0.0464052	43.9399	6.10366	44.3618	-7.90831	155.429	0.263282	-0.00121883	561905	10637.2	1	12	0.00499017	0.000112488	0	-8.22724e-05	-0.000292453	1.62873e-06	-17.8658	0.0144791	0.0137809	0.00444204	-7.91155	44.376	43.9537	6.1081	0.0223275	0.0031015	0.0225419	7.90831	1.06372e+07	7.65763e+07	7.73116e+07	-82.0917	0.0000000E+000	0.0000000E+000	0.0000000E+000	82.0917	0.0000000E+000	0.0000000E+000	0.0000000E+000	-82.0917	0.0000000E+000	0.0000000E+000	0.0000000E+000	-7.90831	0.0000000E+000	0.0000000E+000	0.0000000E+000	7.90831	7.19894	82.0917	3.02289e-05	-3.20895e-07	3.56449e-10	-3.21251e-07	0.263574	216013	239.946	216253
0.0315922	45.0652	7.7173	45.7212	-9.7175	222.035	0.263277	-0.000901984	652792	18598.2	1	12	0.00498908	0.00010912	0	-4.01508e-06	0.000127966	2.25867e-06	-7.4081	0.020699	0.0205263	0.00266885	-9.71645	45.7419	45.0857	7.71997	0.0215579	0.00369173	0.0218717	9.7175	1.85982e+07	1.08604e+08	1.10185e+08	-80.2825	0.0000000E+000	0.0000000E+000	0.0000000E+000	80.2825	0.0000000E+000	0.0000000E+000	0.0000000E+000	-80.2825	0.0000000E+000	0.0000000E+000	0.0000000E+000	-9.7175	0.0000000E+000	0.0000000E+000	0.0000000E+000	9.7175	5.8395	80.2825	7.82573e-05	-2.37471e-07	-1.15424e-10	-2.37356e-07	0.263149	291886	141.872	291744
0.0215268	46.6712	9.95826	47.7218	-12.0446	319.773	0.263274	-0.000149281	742433	32328.9	1	12	0.00498721	0.000104506	0	0.000109323	5.15265e-05	2.09491e-06	28.8788	0.0200459	0.0175531	-0.00968133	-12.0289	47.7369	46.6888	9.94858	0.0204935	0.0043727	0.0209548	12.0446	3.23289e+07	1.51515e+08	1.54926e+08	-77.9554	0.0000000E+000	0.0000000E+000	0.0000000E+000	77.9554	0.0000000E+000	0.0000000E+000	0.0000000E+000	-77.9554	0.0000000E+000	0.0000000E+000	0.0000000E+000	-12.0446	0.0000000E+000	0.0000000E+000	0.0000000E+000	12.0446	4.68668	77.9554	0.000113338	-3.93018e-08	-7.69193e-12	-3.92941e-08	0.263222	1.76361e+06	345.164	1.76327e+06
0.0146812	48.6488	13.2465	50.42	-15.2317	463.076	0.263273	0.000515171	818386	56487.9	1	12	0.00498675	9.89043e-05	0	0.000193029	-0.000101353	2.76385e-06	-10.3582	0.0279447	0.0274893	0.00502451	-15.229	50.4478	48.6762	13.2515	0.0191367	0.0052107	0.0198334	15.2317	5.64879e+07	2.07456e+08	2.15009e+08	-74.7683	0.0000000E+000	0.0000000E+000	0.0000000E+000	74.7683	0.0000000E+000	0.0000000E+000	0.0000000E+000	-74.7683	0.0000000E+000	0.0000000E+000	0.0000000E+000	-15.2317	0.0000000E+000	0.0000000E+000	0.0000000E+000	15.2317	3.67257	74.7683	8.37064e-05	1.3563e-07	-5.22142e-11	1.35683e-07	0.263374	511040	196.737	511237
0.0100092	50.6189	17.5914	53.5885	-19.1637	673.257	0.263277	0.000499765	903902	97404.5	1	12	0.00498904	9.3099e-05	0	0.000138112	0.000242626	1.60656e-06	-5.75128	0.0172565	0.0171696	0.00172928	-19.1594	53.6053	50.6361	17.5931	0.0176266	0.00612572	0.0186607	19.1637	9.74045e+07	2.80279e+08	2.96722e+08	-70.8363	0.0000000E+000	0.0000000E+000	0.0000000E+000	70.8363	0.0000000E+000	0.0000000E+000	0.0000000E+000	-70.8363	0.0000000E+000	0.0000000E+000	0.0000000E+000	-19.1637	0.0000000E+000	0.0000000E+000	0.0000000E+000	19.1637	2.87748	70.8363	-5.49171e-05	1.31576e-07	1.21256e-10	1.31455e-07	0.263034	526801	485.48	526315