File: txt/19342_R279_UA714_SOC00_C01.mpt
EC-Lab ASCII FILE
Nb header lines : 65

Potentio Electrochemical Impedance Spectroscopy

Run on channel : 1 (SN 66354)
User :
CE vs. WE compliance from -10 V to 10 V
Electrode connection : standard
Potential control : Ewe
Ewe ctrl range : min = -10.00 V, max = 10.00 V
Safety Limits :
	Do not start on E overload
Acquisition started on : 11/20/2025 15:02:17.279
Technique started on : 11/20/2025 15:02:19.190
Loaded Setting File :  C:\Users\Celltest\OneDrive - store-dot.com\Documents\EC-Lab\Data\@Biologic Test Protocols\anode half cell EIS SOC00.mps
Saved on :
	File : 19342_R279_UA714_SOC00_C01.mpr
	Directory : C:\Users\Celltest\OneDrive - store-dot.com\Documents\EC-Lab\Data\Charmaine\
	Host : 169.254.61.224
Device : VMP-3e (SN .003165)
Address : USB
EC-LAB for windows v11.62 (software)
Internet server v27.00 (firmware)
Command interpretor v12.03 (firmware)
Electrode material :
Initial state :
Electrolyte :
Comments :
Electrode surface area : 0.001 cm²
Characteristic mass : 0.001 g
Equivalent Weight : 0.000 g/eq.
Density : 0.000 g/cm3
Volume (V) : 0.001 cm³
Record Ece
Cycle Definition : Charge/Discharge alternance
Mode                Single sine
E (V)               0.0000
vs.                 Eoc
tE (h:m:s)          0:00:0.0000
record              0
dI                  0.000
unit dI             mA
dt (s)              0.000
fi                  100.000
unit fi             kHz
ff                  10.000
unit ff             mHz
Nd                  6
Points              per decade
spacing             Logarithmic
Va (mV)             5.0
pw                  0.10
Na                  2
corr                0
E range min (V)     -10.000
E range max (V)     10.000
I Range             Auto
Bandwidth           5
nc cycles           0
goto Ns'            0
nr cycles           0
inc. cycle          0

freq/Hz	Re(Z)/Ohm	-Im(Z)/Ohm	|Z|/Ohm	Phase(Z)/deg	time/s	<Ewe>/V	<I>/mA	Cs/µF	Cp/µF	cycle number	I Range	|Ewe|/V	|I|/A	Ns	(Q-Qo)/mA.h	<Ece>/V	|Ece|/V	Phase(Zce)/deg	|Zce|/Ohm	Re(Zce)/Ohm	-Im(Zce)/Ohm	Phase(Zwe-ce)/deg	|Zwe-ce|/Ohm	Re(Zwe-ce)/Ohm	-Im(Zwe-ce)/Ohm	Re(Y)/Ohm-1	Im(Y)/Ohm-1	|Y|/Ohm-1	Phase(Y)/deg	Re(C)/nF	Im(C)/nF	|C|/nF	Phase(C)/deg	Re(M)	Im(M)	|M|	Phase(M)/deg	Re(Permittivity)	Im(Permittivity)	|Permittivity|	Phase(Permittivity)/deg	Re(Resistivity)/Ohm.cm	Im(Resistivity)/Ohm.cm	|Resistivity|/Ohm.cm	Phase(Resistivity)/deg	Re(Conductivity)/mS/cm	Im(Conductivity)/mS/cm	|Conductivity|/mS/cm	Phase(Conductivity)/deg	Tan(Delta)	Loss Angle(Delta)/deg	dq/mA.h	Pwe/W	Pce/W	Pwe-ce/W	<Ewe-Ece>/V	Rwe/Ohm	Rce/Ohm	Rwe-ce/Ohm		Ewe-Ece/V
100004	1.43088	0.63298	1.56463	-23.8633	1.91056	0.263662	0.0674258	2.51428	0.4115	1	9	0.00477629	0.00305266	0	8.44854e-06	0.00012515	3.76783e-05	89.577	0.0123428	9.11281e-05	-0.0123424	-23.4473	1.55976	1.43097	0.620637	0.584491	0.258562	0.639128	23.8633	411.5	930.212	1017.17	-66.1367	0.0000000E+000	0.0000000E+000	0.0000000E+000	66.1367	0.0000000E+000	0.0000000E+000	0.0000000E+000	-66.1367	0.0000000E+000	0.0000000E+000	0.0000000E+000	-23.8633	0.0000000E+000	0.0000000E+000	0.0000000E+000	23.8633	2.26054	66.1367	8.44854e-06	1.77776e-05	8.43831e-09	1.77692e-05	0.263537	3910.4	1.85611	3908.55
68132	1.60451	0.709413	1.75434	-23.852	2.41755	0.263668	0.0726414	3.29283	0.538442	1	9	0.00506167	0.00288522	0	1.31434e-05	-0.000275474	3.256e-05	84.2239	0.0112851	0.00113575	-0.0112278	-23.5009	1.75087	1.60564	0.698185	0.521331	0.2305	0.570014	23.852	538.442	1217.82	1331.54	-66.148	0.0000000E+000	0.0000000E+000	0.0000000E+000	66.148	0.0000000E+000	0.0000000E+000	0.0000000E+000	-66.148	0.0000000E+000	0.0000000E+000	0.0000000E+000	-23.852	0.0000000E+000	0.0000000E+000	0.0000000E+000	23.852	2.26174	66.148	4.69491e-06	1.91532e-05	-2.00108e-08	1.91732e-05	0.263943	3629.72	3.79224	3633.51
46420.4	1.81022	0.782679	1.97218	-23.3821	2.92456	0.263675	0.0687297	4.38054	0.689929	1	9	0.00514532	0.00260896	0	1.36706e-05	0.000277768	1.70591e-05	63.9053	0.00653867	0.00287608	-0.00587218	-23.1924	1.9725	1.81309	0.776807	0.465414	0.20123	0.507054	23.3821	689.929	1595.7	1738.47	-66.6179	0.0000000E+000	0.0000000E+000	0.0000000E+000	66.6179	0.0000000E+000	0.0000000E+000	0.0000000E+000	-66.6179	0.0000000E+000	0.0000000E+000	0.0000000E+000	-23.3821	0.0000000E+000	0.0000000E+000	0.0000000E+000	23.3821	2.31285	66.6179	5.27201e-07	1.81223e-05	1.90909e-08	1.81032e-05	0.263397	3836.4	4.04146	3832.36
31621.1	2.00593	0.855865	2.18088	-23.1064	3.43156	0.263668	0.0607573	5.88081	0.905698	1	9	0.00509867	0.00233789	0	2.61774e-05	0.000239613	1.45655e-05	3.20825	0.00623018	0.00622042	-0.000348674	-23.034	2.18647	2.01215	0.855517	0.421746	0.179945	0.45853	23.1064	905.698	2122.72	2307.86	-66.8936	0.0000000E+000	0.0000000E+000	0.0000000E+000	66.8936	0.0000000E+000	0.0000000E+000	0.0000000E+000	-66.8936	0.0000000E+000	0.0000000E+000	0.0000000E+000	-23.1064	0.0000000E+000	0.0000000E+000	0.0000000E+000	23.1064	2.34374	66.8936	1.25068e-05	1.60198e-05	1.45583e-08	1.60052e-05	0.263429	4339.7	3.94378	4335.76
21544.7	2.21582	0.92351	2.40057	-22.6254	3.81453	0.263669	0.0609808	7.99905	1.18384	1	9	0.00495664	0.00206478	0	3.52573e-05	-0.000141933	1.12017e-05	-29.8198	0.00542511	0.0047068	0.00269776	-22.6416	2.40595	2.22053	0.926208	0.384509	0.160255	0.416568	22.6254	1183.84	2840.44	3077.27	-67.3746	0.0000000E+000	0.0000000E+000	0.0000000E+000	67.3746	0.0000000E+000	0.0000000E+000	0.0000000E+000	-67.3746	0.0000000E+000	0.0000000E+000	0.0000000E+000	-22.6254	0.0000000E+000	0.0000000E+000	0.0000000E+000	22.6254	2.39935	67.3746	9.07989e-06	1.60788e-05	-8.65516e-09	1.60874e-05	0.263811	4323.81	2.3275	4326.14
14678.6	2.43291	0.984516	2.62456	-22.0315	4.19754	0.263668	0.0615023	11.0132	1.54969	1	9	0.00482711	0.00183921	0	3.96983e-05	0.000163304	1.28797e-05	46.3646	0.00700289	0.00483246	-0.00506831	-21.8895	2.62715	2.43774	0.979448	0.353193	0.142925	0.381016	22.0315	1549.69	3829.55	4131.23	-67.9685	0.0000000E+000	0.0000000E+000	0.0000000E+000	67.9685	0.0000000E+000	0.0000000E+000	0.0000000E+000	-67.9685	0.0000000E+000	0.0000000E+000	0.0000000E+000	-22.0315	0.0000000E+000	0.0000000E+000	0.0000000E+000	22.0315	2.47117	67.9685	4.44097e-06	1.62162e-05	1.00436e-08	1.62061e-05	0.263504	4287.12	2.65525	4284.46
10002.2	2.65671	1.0555	2.85871	-21.6678	4.58052	0.26367	0.065563	15.0752	2.05515	1	9	0.00497647	0.00174081	0	4.73799e-05	4.88404e-05	1.45504e-05	16.2169	0.00835839	0.00802583	-0.00233428	-21.5651	2.86531	2.66474	1.05317	0.325091	0.129158	0.349808	21.6678	2055.15	5172.83	5566.13	-68.3322	0.0000000E+000	0.0000000E+000	0.0000000E+000	68.3322	0.0000000E+000	0.0000000E+000	0.0000000E+000	-68.3322	0.0000000E+000	0.0000000E+000	0.0000000E+000	-21.6678	0.0000000E+000	0.0000000E+000	0.0000000E+000	21.6678	2.51701	68.3322	7.68158e-06	1.7287e-05	3.20213e-09	1.72838e-05	0.263621	4021.62	0.744938	4020.88
6810.42	2.88661	1.15755	3.11006	-21.8511	4.84154	0.263672	0.0597514	20.1886	2.79673	1	9	0.00480443	0.0015448	0	5.04606e-05	0.000258691	3.16289e-05	-9.40827	0.0204744	0.020199	0.00334692	-21.7704	3.13005	2.90681	1.1609	0.298436	0.119675	0.321537	21.8511	2796.73	6974.25	7514.11	-68.1489	0.0000000E+000	0.0000000E+000	0.0000000E+000	68.1489	0.0000000E+000	0.0000000E+000	0.0000000E+000	-68.1489	0.0000000E+000	0.0000000E+000	0.0000000E+000	-21.8511	0.0000000E+000	0.0000000E+000	0.0000000E+000	21.8511	2.49372	68.1489	3.08075e-06	1.57548e-05	1.54571e-08	1.57393e-05	0.263413	4412.82	4.32945	4408.49
4646	3.09516	1.30058	3.35731	-22.7921	5.10662	0.263637	0.0380693	26.3392	3.95271	1	9	0.00470285	0.00140078	0	5.31746e-05	-2.74688e-05	9.03215e-06	30.4663	0.00644796	0.00555767	-0.00326932	-22.704	3.36118	3.10072	1.29731	0.2746	0.115386	0.297857	22.7921	3952.71	9406.77	10203.5	-67.2079	0.0000000E+000	0.0000000E+000	0.0000000E+000	67.2079	0.0000000E+000	0.0000000E+000	0.0000000E+000	-67.2079	0.0000000E+000	0.0000000E+000	0.0000000E+000	-22.7921	0.0000000E+000	0.0000000E+000	0.0000000E+000	22.7921	2.37983	67.2079	2.71397e-06	1.00365e-05	-1.04572e-09	1.00375e-05	0.263664	6925.17	0.721547	6925.89
3163.08	3.35352	1.52479	3.68389	-24.4505	5.48063	0.263483	0.0474574	32.9989	5.65335	1	9	0.00462465	0.00125537	0	5.93674e-05	2.97631e-05	7.55566e-06	-77.1704	0.00601867	0.00133646	0.00586841	-24.5249	3.68754	3.35485	1.53066	0.247108	0.112356	0.271452	24.4505	5653.35	12433.6	13658.5	-65.5495	0.0000000E+000	0.0000000E+000	0.0000000E+000	65.5495	0.0000000E+000	0.0000000E+000	0.0000000E+000	-65.5495	0.0000000E+000	0.0000000E+000	0.0000000E+000	-24.4505	0.0000000E+000	0.0000000E+000	0.0000000E+000	24.4505	2.19933	65.5495	6.19285e-06	1.25042e-05	1.41248e-09	1.25028e-05	0.263453	5551.99	0.627154	5551.36
2155.69	3.64463	1.80116	4.06541	-26.2983	6.17686	0.263591	-0.0128509	40.9904	8.04596	1	10	0.00475962	0.00117076	0	6.71604e-05	0.000106072	5.78276e-06	24.0908	0.00493932	0.00450911	-0.00201615	-26.2447	4.06856	3.64914	1.79914	0.220519	0.108979	0.245978	26.2983	8045.96	16281	18160.6	-63.7017	0.0000000E+000	0.0000000E+000	0.0000000E+000	63.7017	0.0000000E+000	0.0000000E+000	0.0000000E+000	-63.7017	0.0000000E+000	0.0000000E+000	0.0000000E+000	-26.2983	0.0000000E+000	0.0000000E+000	0.0000000E+000	26.2983	2.02349	63.7017	7.79292e-06	-3.38739e-06	-1.36313e-09	-3.38603e-06	0.263485	20511.5	8.25407	20503.2
1468.59	3.95507	2.19194	4.52186	-28.9957	6.6281	0.263592	-0.012236	49.4413	11.6176	1	10	0.00471204	0.00104206	0	6.57548e-05	8.6995e-05	4.85257e-06	-8.03928	0.00465672	0.00461096	0.000651252	-28.9746	4.52621	3.95968	2.19259	0.193428	0.1072	0.221148	28.9957	11617.6	20962.3	23966.4	-61.0043	0.0000000E+000	0.0000000E+000	0.0000000E+000	61.0043	0.0000000E+000	0.0000000E+000	0.0000000E+000	-61.0043	0.0000000E+000	0.0000000E+000	0.0000000E+000	-28.9957	0.0000000E+000	0.0000000E+000	0.0000000E+000	28.9957	1.80437	61.0043	-1.40552e-06	-3.2253e-06	-1.06447e-09	-3.22424e-06	0.263505	21542.3	7.10977	21535.2
1000.32	4.3066	2.70989	5.08825	-32.1798	7.0788	0.263588	-0.0116583	58.7123	16.6531	1	10	0.00465841	0.000915523	0	6.36496e-05	-0.000122855	8.83126e-06	-106.816	0.00964614	-0.00279061	0.00923366	-32.2845	5.09082	4.30381	2.71913	0.16634	0.104668	0.196531	32.1798	16653.1	26465.4	31268.9	-57.8202	0.0000000E+000	0.0000000E+000	0.0000000E+000	57.8202	0.0000000E+000	0.0000000E+000	0.0000000E+000	-57.8202	0.0000000E+000	0.0000000E+000	0.0000000E+000	-32.1798	0.0000000E+000	0.0000000E+000	0.0000000E+000	32.1798	1.58922	57.8202	-2.10529e-06	-3.07299e-06	1.43228e-09	-3.07442e-06	0.263711	22609.5	10.538	22620
681.09	4.74265	3.44101	5.85946	-35.9626	7.52856	0.263592	-0.0127279	67.9094	23.4199	1	10	0.00462106	0.000788649	0	6.21573e-05	2.97631e-05	1.20404e-05	-58.7696	0.0152672	0.00791574	0.0130548	-36.0203	5.87354	4.75057	3.45406	0.138136	0.100224	0.170664	35.9626	23419.9	32279.1	39880.3	-54.0374	0.0000000E+000	0.0000000E+000	0.0000000E+000	54.0374	0.0000000E+000	0.0000000E+000	0.0000000E+000	-54.0374	0.0000000E+000	0.0000000E+000	0.0000000E+000	-35.9626	0.0000000E+000	0.0000000E+000	0.0000000E+000	35.9626	1.37827	54.0374	-1.49222e-06	-3.35498e-06	-3.78823e-10	-3.3546e-06	0.263562	20709.7	2.33841	20707.3
463.961	5.33963	4.43565	6.94166	-39.7165	7.98032	0.263601	-0.0119714	77.336	31.5769	1	10	0.00460338	0.000663153	0	6.12e-05	0.000296845	7.23385e-06	44.0444	0.0109083	0.00784088	-0.00758361	-39.6271	6.94286	5.34747	4.42807	0.110811	0.0920514	0.144058	39.7165	31576.9	38012.2	49416.9	-50.2835	0.0000000E+000	0.0000000E+000	0.0000000E+000	50.2835	0.0000000E+000	0.0000000E+000	0.0000000E+000	-50.2835	0.0000000E+000	0.0000000E+000	0.0000000E+000	-39.7165	0.0000000E+000	0.0000000E+000	0.0000000E+000	39.7165	1.2038	50.2835	-9.57305e-07	-3.15567e-06	-3.55365e-09	-3.15211e-06	0.263304	22019.3	24.7963	21994.5
316.316	6.16355	5.75186	8.43049	-43.0212	8.428	0.263589	-0.0125341	87.4764	40.7194	1	10	0.00458178	0.000543477	0	5.93415e-05	0.000163304	4.13721e-06	56.9262	0.00761248	0.00415427	-0.00637902	-42.9702	8.42918	6.1677	5.74548	0.0867211	0.0809287	0.118617	43.0212	40719.4	43633.9	59682.4	-46.9788	0.0000000E+000	0.0000000E+000	0.0000000E+000	46.9788	0.0000000E+000	0.0000000E+000	0.0000000E+000	-46.9788	0.0000000E+000	0.0000000E+000	0.0000000E+000	-43.0212	0.0000000E+000	0.0000000E+000	0.0000000E+000	43.0212	1.07157	46.9788	-1.85855e-06	-3.30386e-06	-2.04688e-09	-3.30182e-06	0.263426	21029.7	13.0288	21016.6
215.345	7.38753	7.41952	10.4702	-45.1238	8.87859	0.263589	-0.0121093	99.6117	50.0211	1	10	0.00456755	0.000436244	0	5.79453e-05	0.000315923	1.70381e-05	5.12759	0.0390563	0.0389	-0.00349062	-44.9599	10.4952	7.42643	7.41603	0.0673892	0.067681	0.0955093	45.1238	50021.1	49805.4	70588.1	-44.8762	0.0000000E+000	0.0000000E+000	0.0000000E+000	44.8762	0.0000000E+000	0.0000000E+000	0.0000000E+000	-44.8762	0.0000000E+000	0.0000000E+000	0.0000000E+000	-45.1238	0.0000000E+000	0.0000000E+000	0.0000000E+000	45.1238	0.995688	44.8762	-1.39623e-06	-3.19187e-06	-3.8256e-09	-3.18804e-06	0.263273	21767.5	26.0893	21741.4
146.737	9.36186	9.51137	13.3458	-45.4539	9.32452	0.26358	-0.013287	114.035	57.9206	1	10	0.00465065	0.000348473	0	5.68953e-05	-0.000141933	9.21881e-05	135.281	0.264549	-0.187978	-0.186146	-45.4687	13.0813	9.17388	9.32522	0.0525621	0.0534015	0.0749299	45.4539	57920.6	57010.1	81270.8	-44.5461	0.0000000E+000	0.0000000E+000	0.0000000E+000	44.5461	0.0000000E+000	0.0000000E+000	0.0000000E+000	-44.5461	0.0000000E+000	0.0000000E+000	0.0000000E+000	-45.4539	0.0000000E+000	0.0000000E+000	0.0000000E+000	45.4539	0.984281	44.5461	-1.04995e-06	-3.50218e-06	1.88586e-09	-3.50407e-06	0.263722	19837.4	10.6821	19848.1
100.032	12.0124	11.5083	16.6355	-43.7723	9.77581	0.263579	-0.0131267	138.251	66.1643	1	10	0.00457541	0.00027504	0	5.51029e-05	2.97631e-05	3.52003e-05	6.77381	0.127983	0.127089	-0.0150956	-43.4336	16.7171	12.1395	11.4932	0.043407	0.0415856	0.0601126	43.7723	66164.3	69062.2	95641.5	-46.2277	0.0000000E+000	0.0000000E+000	0.0000000E+000	46.2277	0.0000000E+000	0.0000000E+000	0.0000000E+000	-46.2277	0.0000000E+000	0.0000000E+000	0.0000000E+000	-43.7723	0.0000000E+000	0.0000000E+000	0.0000000E+000	43.7723	1.0438	46.2277	-1.7924e-06	-3.45993e-06	-3.90693e-10	-3.45954e-06	0.263549	20079.5	2.26737	20077.3
68.104	15.7964	13.5276	20.7971	-40.5758	10.4894	0.263648	-0.00499604	172.754	73.0905	1	11	0.0045846	0.000220444	0	5.36534e-05	0.000373155	9.32301e-06	68.8065	0.0422919	0.0152893	-0.0394315	-40.4658	20.7831	15.8117	13.4881	0.0365217	0.0312761	0.0480836	40.5758	73090.5	85349	112368	-49.4242	0.0000000E+000	0.0000000E+000	0.0000000E+000	49.4242	0.0000000E+000	0.0000000E+000	0.0000000E+000	-49.4242	0.0000000E+000	0.0000000E+000	0.0000000E+000	-40.5758	0.0000000E+000	0.0000000E+000	0.0000000E+000	40.5758	1.16772	49.4242	-1.44947e-06	-1.3172e-06	-1.8643e-09	-1.31533e-06	0.263275	52771.4	74.6901	52696.8
46.4415	20.3095	14.6542	25.0444	-35.8121	10.9257	0.263631	-0.00555053	233.857	80.0671	1	11	0.00456699	0.000182356	0	5.30774e-05	0.000144227	1.49567e-05	-32.9897	0.0820196	0.0687954	0.0446587	-35.8029	25.1263	20.3783	14.6989	0.0323801	0.0233637	0.039929	35.8121	80067.1	110966	136837	-54.1879	0.0000000E+000	0.0000000E+000	0.0000000E+000	54.1879	0.0000000E+000	0.0000000E+000	0.0000000E+000	-54.1879	0.0000000E+000	0.0000000E+000	0.0000000E+000	-35.8121	0.0000000E+000	0.0000000E+000	0.0000000E+000	35.8121	1.38592	54.1879	-5.76026e-07	-1.46329e-06	-8.00536e-10	-1.46249e-06	0.263487	47496.5	25.9843	47470.5
31.6296	25.2388	14.6599	29.1874	-30.15	11.3556	0.26363	-0.00553266	343.239	86.5894	1	11	0.00456192	0.000156297	0	5.24718e-05	-8.47007e-05	8.50801e-06	76.282	0.0544348	0.0129088	-0.0528821	-30.0475	29.1721	25.2517	14.607	0.0296262	0.0172083	0.0342613	30.15	86589.5	149074	172398	-59.85	0.0000000E+000	0.0000000E+000	0.0000000E+000	59.85	0.0000000E+000	0.0000000E+000	0.0000000E+000	-59.85	0.0000000E+000	0.0000000E+000	0.0000000E+000	-30.15	0.0000000E+000	0.0000000E+000	0.0000000E+000	30.15	1.72162	59.85	-6.05647e-07	-1.45857e-06	4.6862e-10	-1.45904e-06	0.263715	47649.7	15.3092	47665.1
21.5517	29.8621	13.5304	32.7844	-24.3751	11.7764	0.263619	-0.0054917	545.793	92.9638	1	11	0.0045654	0.000139255	0	5.176e-05	0.00012515	2.20208e-05	-48.1644	0.158133	0.105474	0.117819	-24.4861	32.9291	29.9676	13.6482	0.0277835	0.0125886	0.0305023	24.3751	92963.9	205175	225253	-65.6249	0.0000000E+000	0.0000000E+000	0.0000000E+000	65.6249	0.0000000E+000	0.0000000E+000	0.0000000E+000	-65.6249	0.0000000E+000	0.0000000E+000	0.0000000E+000	-24.3751	0.0000000E+000	0.0000000E+000	0.0000000E+000	24.3751	2.20704	65.6249	-7.11711e-07	-1.44772e-06	-6.87284e-10	-1.44703e-06	0.263494	48003.2	22.7889	47980.4
14.6852	33.5725	11.7156	35.5579	-19.2371	12.2372	0.263638	-0.00482363	925.078	100.423	1	11	0.00456624	0.000128417	0	5.06417e-05	0.000277768	7.9259e-06	-26.276	0.0617201	0.0553427	0.0273233	-19.2493	35.6192	33.6278	11.7429	0.0265528	0.00926595	0.0281231	19.2371	100423	287774	304793	-70.7629	0.0000000E+000	0.0000000E+000	0.0000000E+000	70.7629	0.0000000E+000	0.0000000E+000	0.0000000E+000	-70.7629	0.0000000E+000	0.0000000E+000	0.0000000E+000	-19.2371	0.0000000E+000	0.0000000E+000	0.0000000E+000	19.2371	2.86563	70.7629	-1.11836e-06	-1.27169e-06	-1.33985e-09	-1.27035e-06	0.26336	54655.5	57.5849	54597.9
10.0032	36.2329	9.54118	37.4681	-14.7527	12.6878	0.263634	-0.00504781	1667.55	108.133	1	11	0.00455751	0.000121637	0	5.00127e-05	-0.000256397	5.91813e-06	-0.321401	0.048654	0.0486532	0.000272924	-14.7342	37.5152	36.2816	9.54145	0.0258095	0.00679639	0.0266894	14.7527	108133	410640	424639	-75.2473	0.0000000E+000	0.0000000E+000	0.0000000E+000	75.2473	0.0000000E+000	0.0000000E+000	0.0000000E+000	-75.2473	0.0000000E+000	0.0000000E+000	0.0000000E+000	-14.7527	0.0000000E+000	0.0000000E+000	0.0000000E+000	14.7527	3.79753	75.2473	-6.2901e-07	-1.33077e-06	1.29424e-09	-1.33207e-06	0.26389	52227.4	50.7936	52278.2
6.81719	38.1235	7.68646	38.8907	-11.3992	13.0275	0.263654	-0.00373773	3037.3	118.645	1	11	0.00456267	0.000117321	0	4.91351e-05	1.06858e-05	7.27679e-06	-129.535	0.0620248	-0.0394815	0.047836	-11.4798	38.8614	38.084	7.7343	0.0252059	0.00508202	0.0257131	11.3992	118645	588460	600302	-78.6008	0.0000000E+000	0.0000000E+000	0.0000000E+000	78.6008	0.0000000E+000	0.0000000E+000	0.0000000E+000	-78.6008	0.0000000E+000	0.0000000E+000	0.0000000E+000	-11.3992	0.0000000E+000	0.0000000E+000	0.0000000E+000	11.3992	4.95982	78.6008	-8.77532e-07	-9.8547e-07	-3.99407e-11	-9.8543e-07	0.263644	70538.5	2.8589	70535.7
4.63925	39.3439	6.19218	39.8282	-8.94418	13.5115	0.26365	-0.00451007	5540.24	133.916	1	11	0.00456216	0.000114546	0	4.98159e-05	6.79177e-05	1.15184e-05	14.2721	0.100557	0.0974538	-0.0247902	-8.88729	39.9207	39.4414	6.16739	0.0248025	0.00390356	0.0251078	8.94418	133916	850879	861353	-81.0558	0.0000000E+000	0.0000000E+000	0.0000000E+000	81.0558	0.0000000E+000	0.0000000E+000	0.0000000E+000	-81.0558	0.0000000E+000	0.0000000E+000	0.0000000E+000	-8.94418	0.0000000E+000	0.0000000E+000	0.0000000E+000	8.94418	6.35381	81.0558	6.80739e-07	-1.18908e-06	-3.06314e-10	-1.18877e-06	0.263582	58457.9	15.0591	58442.9
3.1604	40.2737	5.08773	40.5938	-7.19997	14.2045	0.263656	-0.00332643	9898.17	155.483	1	11	0.00455654	0.000112247	0	4.97594e-05	0.000277768	8.20048e-06	38.4498	0.0730572	0.057215	-0.0454291	-7.12633	40.6449	40.3309	5.0423	0.0244401	0.00308749	0.0246343	7.19997	155483	1.23078e+06	1.24056e+06	-82.8	0.0000000E+000	0.0000000E+000	0.0000000E+000	82.8	0.0000000E+000	0.0000000E+000	0.0000000E+000	-82.8	0.0000000E+000	0.0000000E+000	0.0000000E+000	-7.19997	0.0000000E+000	0.0000000E+000	0.0000000E+000	7.19997	7.91585	82.8	-5.64635e-08	-8.77032e-07	-9.23976e-10	-8.76108e-07	0.263378	79260.9	83.5034	79177.4
2.15577	41.0578	4.42586	41.2956	-6.1525	15.2081	0.263654	-0.00271924	16680.9	191.606	1	11	0.00456083	0.000110444	0	4.76248e-05	0.000277768	4.69882e-06	3.73119	0.042545	0.0424548	-0.00276864	-6.14237	41.3375	41.1002	4.42309	0.0240762	0.00259531	0.0242156	6.1525	191606	1.77748e+06	1.78778e+06	-83.8475	0.0000000E+000	0.0000000E+000	0.0000000E+000	83.8475	0.0000000E+000	0.0000000E+000	0.0000000E+000	-83.8475	0.0000000E+000	0.0000000E+000	0.0000000E+000	-6.1525	0.0000000E+000	0.0000000E+000	0.0000000E+000	6.1525	9.27679	83.8475	-2.13464e-06	-7.16939e-07	-7.55319e-10	-7.16183e-07	0.263376	96958.4	102.149	96856.3
1.46631	41.8034	3.95378	41.9899	-5.40299	17.3963	0.263648	-0.00336485	27452.5	243.398	1	12	0.00456395	0.000108692	0	4.30608e-05	0.000487619	2.5307e-06	-74.2589	0.0232833	0.00631654	0.0224102	-5.43261	41.9983	41.8097	3.97619	0.0237094	0.00224245	0.0238152	5.40299	243398	2.57345e+06	2.58493e+06	-84.597	0.0000000E+000	0.0000000E+000	0.0000000E+000	84.597	0.0000000E+000	0.0000000E+000	0.0000000E+000	-84.597	0.0000000E+000	0.0000000E+000	0.0000000E+000	-5.40299	0.0000000E+000	0.0000000E+000	0.0000000E+000	5.40299	10.573	84.597	-4.56399e-06	-8.87137e-07	-1.64076e-09	-8.85496e-07	0.263161	78353.7	144.915	78208.8
1.00006	42.5693	3.73467	42.7328	-5.01381	19.5238	0.263659	-0.00330554	42612.8	325.478	1	12	0.00456013	0.000106713	0	4.07339e-05	-4.65461e-05	2.19877e-06	-23.9793	0.0206046	0.0188263	0.00837384	-5.02278	42.7523	42.5881	3.74304	0.0233117	0.00204517	0.0234012	5.01381	325478	3.70993e+06	3.72418e+06	-84.9862	0.0000000E+000	0.0000000E+000	0.0000000E+000	84.9862	0.0000000E+000	0.0000000E+000	0.0000000E+000	-84.9862	0.0000000E+000	0.0000000E+000	0.0000000E+000	-5.01381	0.0000000E+000	0.0000000E+000	0.0000000E+000	5.01381	11.3984	84.9862	-2.32691e-06	-8.71535e-07	1.5386e-10	-8.71688e-07	0.263705	79762.6	14.0812	79776.7
0.681362	43.4144	3.69488	43.5714	-4.86456	22.6359	0.26365	-0.00348528	63218.1	454.611	1	12	0.00456583	0.00010479	0	4.0437e-05	-4.65461e-05	2.19247e-06	-62.6204	0.0209226	0.00962196	0.0185788	-4.88783	43.5826	43.4241	3.71346	0.0228682	0.00194625	0.0229508	4.86456	454611	5.34162e+06	5.36094e+06	-85.1354	0.0000000E+000	0.0000000E+000	0.0000000E+000	85.1354	0.0000000E+000	0.0000000E+000	0.0000000E+000	-85.1354	0.0000000E+000	0.0000000E+000	0.0000000E+000	-4.86456	0.0000000E+000	0.0000000E+000	0.0000000E+000	4.86456	11.7499	85.1354	-2.96922e-07	-9.18893e-07	1.62226e-10	-9.19055e-07	0.263696	75646.8	13.3551	75660.1
0.464091	44.2662	3.69027	44.4198	-4.76547	27.1925	0.263653	-0.00324489	92930.6	641.391	1	12	0.00456326	0.00010273	0	4.28376e-05	-8.47007e-05	3.5717e-06	-8.57358	0.0347677	0.0343792	0.00518315	-4.76844	44.4545	44.3006	3.69546	0.0224347	0.00187028	0.0225125	4.76547	641392	7.69373e+06	7.72042e+06	-85.2345	0.0000000E+000	0.0000000E+000	0.0000000E+000	85.2345	0.0000000E+000	0.0000000E+000	0.0000000E+000	-85.2345	0.0000000E+000	0.0000000E+000	0.0000000E+000	-4.76547	0.0000000E+000	0.0000000E+000	0.0000000E+000	4.76547	11.9954	85.2345	2.40065e-06	-8.55524e-07	2.74844e-10	-8.55799e-07	0.263738	81251.8	26.1028	81277.9
0.316193	45.2271	3.70572	45.3787	-4.68411	33.8669	0.263649	-0.00289415	135830	905.809	1	12	0.00456159	0.000100523	0	4.52758e-05	0.000163304	2.69871e-06	15.6792	0.0268468	0.0258478	-0.00725537	-4.67232	45.4038	45.2529	3.69846	0.0219632	0.00179957	0.0220368	4.68411	905808	1.10551e+07	1.10922e+07	-85.3159	0.0000000E+000	0.0000000E+000	0.0000000E+000	85.3159	0.0000000E+000	0.0000000E+000	0.0000000E+000	-85.3159	0.0000000E+000	0.0000000E+000	0.0000000E+000	-4.68411	0.0000000E+000	0.0000000E+000	0.0000000E+000	4.68411	12.2047	85.3159	2.43814e-06	-7.63042e-07	-4.72627e-10	-7.62569e-07	0.263486	91097.3	56.4256	91040.9
0.215268	46.2791	3.87024	46.4406	-4.78043	43.6603	0.263646	-0.00234068	191031	1326.73	1	12	0.00456293	9.82528e-05	0	4.25011e-05	6.79177e-05	2.45015e-06	-4.18177	0.0249372	0.0248708	0.00181844	-4.7801	46.4656	46.304	3.87206	0.021458	0.00179449	0.0215329	4.78043	1.32673e+06	1.58646e+07	1.592e+07	-85.2196	0.0000000E+000	0.0000000E+000	0.0000000E+000	85.2196	0.0000000E+000	0.0000000E+000	0.0000000E+000	-85.2196	0.0000000E+000	0.0000000E+000	0.0000000E+000	-4.78043	0.0000000E+000	0.0000000E+000	0.0000000E+000	4.78043	11.9577	85.2196	-2.77464e-06	-6.1711e-07	-1.58973e-10	-6.16951e-07	0.263578	112637	29.0163	112608
0.146929	47.3146	4.13522	47.4949	-4.99486	57.9987	0.263652	-0.00154529	261948	1985.71	1	12	0.00456335	9.60808e-05	0	2.88123e-05	0.000258691	2.61141e-06	26.6459	0.0271794	0.0242928	-0.0121893	-4.97767	47.5181	47.3389	4.12303	0.0209749	0.00183317	0.0210549	4.99486	1.98571e+06	2.27203e+07	2.28069e+07	-85.0051	0.0000000E+000	0.0000000E+000	0.0000000E+000	85.0051	0.0000000E+000	0.0000000E+000	0.0000000E+000	-85.0051	0.0000000E+000	0.0000000E+000	0.0000000E+000	-4.99486	0.0000000E+000	0.0000000E+000	0.0000000E+000	4.99486	11.4419	85.0051	-1.36888e-05	-4.07418e-07	-3.99752e-10	-4.07019e-07	0.263393	170617	167.406	170449
0.0999041	48.4683	4.60591	48.6867	-5.42848	79.0749	0.263643	-0.00124177	345877	3095.51	1	12	0.00456113	9.36832e-05	0	-1.86796e-06	-4.65461e-05	1.71925e-06	-24.5258	0.0183517	0.016696	0.00761786	-5.43554	48.704	48.485	4.61353	0.0204474	0.0019431	0.0205395	5.42848	3.09551e+06	3.25742e+07	3.2721e+07	-84.5715	0.0000000E+000	0.0000000E+000	0.0000000E+000	84.5715	0.0000000E+000	0.0000000E+000	0.0000000E+000	-84.5715	0.0000000E+000	0.0000000E+000	0.0000000E+000	-5.42848	0.0000000E+000	0.0000000E+000	0.0000000E+000	5.42848	10.5231	84.5715	-3.06803e-05	-3.27384e-07	5.77995e-11	-3.27442e-07	0.26369	212313	37.4837	212350
0.0680626	49.7623	5.35941	50.05	-6.14708	110.002	0.26365	-0.000855797	436309	5002.88	1	12	0.00456185	9.11458e-05	0	-4.65527e-05	0.000468541	2.48466e-06	2.33995	0.0272603	0.0272376	-0.001113	-6.14247	50.077	49.7895	5.3583	0.0198651	0.00213948	0.01998	6.14708	5.00288e+06	4.64518e+07	4.67205e+07	-83.8529	0.0000000E+000	0.0000000E+000	0.0000000E+000	83.8529	0.0000000E+000	0.0000000E+000	0.0000000E+000	-83.8529	0.0000000E+000	0.0000000E+000	0.0000000E+000	-6.14708	0.0000000E+000	0.0000000E+000	0.0000000E+000	6.14708	9.28503	83.8529	-4.46848e-05	-2.25631e-07	-4.00976e-10	-2.2523e-07	0.263181	308075	547.491	307528
0.0464052	51.3041	6.50784	51.7152	-7.22927	155.353	0.263645	-0.00124066	527007	8345.53	1	12	0.00456318	8.82368e-05	0	-0.000101315	0.000277768	2.13586e-06	23.0841	0.024206	0.0222679	-0.00949076	-7.21574	51.7361	51.3264	6.49835	0.019183	0.00243333	0.0193367	7.22927	8.34553e+06	6.57914e+07	6.63186e+07	-82.7707	0.0000000E+000	0.0000000E+000	0.0000000E+000	82.7707	0.0000000E+000	0.0000000E+000	0.0000000E+000	-82.7707	0.0000000E+000	0.0000000E+000	0.0000000E+000	-7.22927	0.0000000E+000	0.0000000E+000	0.0000000E+000	7.22927	7.88343	82.7707	-5.47627e-05	-3.27095e-07	-3.44616e-10	-3.2675e-07	0.263367	212503	223.887	212280
0.0315922	53.0326	8.38959	53.6921	-8.98951	221.959	0.263639	-0.00144198	600482	14660.9	1	12	0.00456587	8.50381e-05	0	-0.000139023	0.000354077	1.92954e-06	-3.5536	0.0226903	0.0226467	0.0014064	-8.98722	53.7147	53.0553	8.39099	0.0183959	0.00291018	0.0186247	8.98951	1.46609e+07	9.26749e+07	9.38274e+07	-81.0105	0.0000000E+000	0.0000000E+000	0.0000000E+000	81.0105	0.0000000E+000	0.0000000E+000	0.0000000E+000	-81.0105	0.0000000E+000	0.0000000E+000	0.0000000E+000	-8.98951	0.0000000E+000	0.0000000E+000	0.0000000E+000	8.98951	6.32124	81.0105	-3.77072e-05	-3.80162e-07	-5.10572e-10	-3.79651e-07	0.263285	182832	245.55	182586
0.0215268	54.7869	10.9441	55.8693	-11.2966	319.696	0.263642	-0.00132271	675555	25922.4	1	12	0.00456491	8.1707e-05	0	-0.000122135	0.00012515	2.89421e-06	8.66076	0.0354217	0.0350178	-0.00533394	-11.2842	55.9026	54.8219	10.9388	0.0175522	0.00350618	0.0178989	11.2966	2.59224e+07	1.29769e+08	1.32333e+08	-78.7034	0.0000000E+000	0.0000000E+000	0.0000000E+000	78.7034	0.0000000E+000	0.0000000E+000	0.0000000E+000	-78.7034	0.0000000E+000	0.0000000E+000	0.0000000E+000	-11.2966	0.0000000E+000	0.0000000E+000	0.0000000E+000	11.2966	5.00606	78.7034	1.68874e-05	-3.48723e-07	-1.65537e-10	-3.48557e-07	0.263517	199319	94.6159	199225
0.0146812	56.8045	14.0549	58.5175	-13.8974	462.999	0.263647	-0.000804594	771314	44495.5	1	12	0.00456471	7.80059e-05	0	-1.62643e-05	0.000106072	2.17824e-06	-10.3222	0.0279241	0.0274721	0.00500354	-13.8957	58.5454	56.832	14.0599	0.0165887	0.00410447	0.0170889	13.8974	4.44955e+07	1.79834e+08	1.85257e+08	-76.1026	0.0000000E+000	0.0000000E+000	0.0000000E+000	76.1026	0.0000000E+000	0.0000000E+000	0.0000000E+000	-76.1026	0.0000000E+000	0.0000000E+000	0.0000000E+000	-13.8974	0.0000000E+000	0.0000000E+000	0.0000000E+000	13.8974	4.04161	76.1026	0.000105871	-2.12129e-07	-8.53452e-11	-2.12044e-07	0.263541	327677	131.833	327545
0.0100092	59.4906	18.0229	62.1607	-16.8543	673.179	0.263648	-0.000234363	882264	74167.5	1	12	0.00456335	7.34121e-05	0	0.000163499	0.000182382	4.55788e-06	22.8085	0.0620863	0.0572315	-0.0240678	-16.8178	62.2085	59.5478	17.9988	0.0153963	0.00466435	0.0160873	16.8543	7.41675e+07	2.44815e+08	2.55803e+08	-73.1457	0.0000000E+000	0.0000000E+000	0.0000000E+000	73.1457	0.0000000E+000	0.0000000E+000	0.0000000E+000	-73.1457	0.0000000E+000	0.0000000E+000	0.0000000E+000	-16.8543	0.0000000E+000	0.0000000E+000	0.0000000E+000	16.8543	3.30084	73.1457	0.000179763	-6.17892e-08	-4.27435e-11	-6.17465e-08	0.263465	1.12496e+06	778.202	1.12418e+06