File: txt/19346_R279_UA714_SOC00_C05.mpt
EC-Lab ASCII FILE
Nb header lines : 65

Potentio Electrochemical Impedance Spectroscopy

Run on channel : 5 (SN 65912)
User :
CE vs. WE compliance from -10 V to 10 V
Electrode connection : standard
Potential control : Ewe
Ewe ctrl range : min = -10.00 V, max = 10.00 V
Safety Limits :
	Do not start on E overload
Acquisition started on : 11/20/2025 15:02:57.166
Technique started on : 11/20/2025 15:02:59.220
Loaded Setting File :  C:\Users\Celltest\OneDrive - store-dot.com\Documents\EC-Lab\Data\@Biologic Test Protocols\anode half cell EIS SOC00.mps
Saved on :
	File : 19346_R279_UA714_SOC00_C05.mpr
	Directory : C:\Users\Celltest\OneDrive - store-dot.com\Documents\EC-Lab\Data\Charmaine\
	Host : 169.254.61.224
Device : VMP-3e (SN .003165)
Address : USB
EC-LAB for windows v11.62 (software)
Internet server v27.00 (firmware)
Command interpretor v12.03 (firmware)
Electrode material :
Initial state :
Electrolyte :
Comments :
Electrode surface area : 0.001 cm²
Characteristic mass : 0.001 g
Equivalent Weight : 0.000 g/eq.
Density : 0.000 g/cm3
Volume (V) : 0.001 cm³
Record Ece
Cycle Definition : Charge/Discharge alternance
Mode                Single sine
E (V)               0.0000
vs.                 Eoc
tE (h:m:s)          0:00:0.0000
record              0
dI                  0.000
unit dI             mA
dt (s)              0.000
fi                  100.000
unit fi             kHz
ff                  10.000
unit ff             mHz
Nd                  6
Points              per decade
spacing             Logarithmic
Va (mV)             5.0
pw                  0.10
Na                  2
corr                0
E range min (V)     -10.000
E range max (V)     10.000
I Range             Auto
Bandwidth           5
nc cycles           0
goto Ns'            0
nr cycles           0
inc. cycle          0

freq/Hz	Re(Z)/Ohm	-Im(Z)/Ohm	|Z|/Ohm	Phase(Z)/deg	time/s	<Ewe>/V	<I>/mA	Cs/µF	Cp/µF	cycle number	I Range	|Ewe|/V	|I|/A	Ns	(Q-Qo)/mA.h	<Ece>/V	|Ece|/V	Phase(Zce)/deg	|Zce|/Ohm	Re(Zce)/Ohm	-Im(Zce)/Ohm	Phase(Zwe-ce)/deg	|Zwe-ce|/Ohm	Re(Zwe-ce)/Ohm	-Im(Zwe-ce)/Ohm	Re(Y)/Ohm-1	Im(Y)/Ohm-1	|Y|/Ohm-1	Phase(Y)/deg	Re(C)/nF	Im(C)/nF	|C|/nF	Phase(C)/deg	Re(M)	Im(M)	|M|	Phase(M)/deg	Re(Permittivity)	Im(Permittivity)	|Permittivity|	Phase(Permittivity)/deg	Re(Resistivity)/Ohm.cm	Im(Resistivity)/Ohm.cm	|Resistivity|/Ohm.cm	Phase(Resistivity)/deg	Re(Conductivity)/mS/cm	Im(Conductivity)/mS/cm	|Conductivity|/mS/cm	Phase(Conductivity)/deg	Tan(Delta)	Loss Angle(Delta)/deg	dq/mA.h	Pwe/W	Pce/W	Pwe-ce/W	<Ewe-Ece>/V	Rwe/Ohm	Rce/Ohm	Rwe-ce/Ohm		Ewe-Ece/V
100004	1.26492	0.582207	1.39248	-24.7152	2.05353	0.258423	0.00724026	2.73355	0.477863	1	9	0.0049434	0.00355007	0	-1.00409e-06	-9.38465e-06	4.30959e-05	84.7021	0.0121395	0.00112089	-0.0120876	-24.2427	1.38849	1.26605	0.570119	0.652359	0.300261	0.718143	24.7152	477.863	1038.22	1142.92	-65.2848	0.0000000E+000	0.0000000E+000	0.0000000E+000	65.2848	0.0000000E+000	0.0000000E+000	0.0000000E+000	-65.2848	0.0000000E+000	0.0000000E+000	0.0000000E+000	-24.7152	0.0000000E+000	0.0000000E+000	0.0000000E+000	24.7152	2.17264	65.2848	-1.00409e-06	1.87105e-06	-6.79473e-11	1.87112e-06	0.258432	35692.5	1.29618	35693.8
68132	1.43259	0.649882	1.5731	-24.401	2.56256	0.258404	0.00351626	3.59447	0.613462	1	9	0.00505273	0.00321195	0	1.03982e-06	0.000143345	2.74278e-05	55.846	0.0085393	0.00479413	-0.00706655	-24.0948	1.57457	1.43738	0.642815	0.578904	0.262615	0.635686	24.401	613.462	1352.31	1484.95	-65.599	0.0000000E+000	0.0000000E+000	0.0000000E+000	65.599	0.0000000E+000	0.0000000E+000	0.0000000E+000	-65.599	0.0000000E+000	0.0000000E+000	0.0000000E+000	-24.401	0.0000000E+000	0.0000000E+000	0.0000000E+000	24.401	2.20438	65.599	2.04391e-06	9.08617e-07	5.04039e-10	9.08113e-07	0.258261	73488.3	40.7663	73447.5
46420.4	1.60598	0.704561	1.75373	-23.6876	2.94556	0.258391	-0.00534681	4.86624	0.785425	1	9	0.00543708	0.00310029	0	1.04514e-05	0.000162436	8.079e-06	17.3472	0.00260588	0.00248735	-0.000776974	-23.6318	1.7557	1.60846	0.703784	0.522172	0.229083	0.570213	23.6876	785.425	1790.3	1955.01	-66.3124	0.0000000E+000	0.0000000E+000	0.0000000E+000	66.3124	0.0000000E+000	0.0000000E+000	0.0000000E+000	-66.3124	0.0000000E+000	0.0000000E+000	0.0000000E+000	-23.6876	0.0000000E+000	0.0000000E+000	0.0000000E+000	23.6876	2.2794	66.3124	9.4116e-06	-1.38157e-06	-8.68516e-10	-1.3807e-06	0.258229	48326.2	30.38	48295.9
31621.1	1.78613	0.755689	1.93941	-22.9326	3.32853	0.258393	-0.00206971	6.66039	1.01122	1	9	0.00544029	0.00280512	0	5.96116e-06	-0.000200297	1.85261e-05	51.5689	0.0066044	0.00410512	-0.0051736	-22.7448	1.94119	1.79024	0.750515	0.474867	0.20091	0.51562	22.9326	1011.22	2390.09	2595.21	-67.0674	0.0000000E+000	0.0000000E+000	0.0000000E+000	67.0674	0.0000000E+000	0.0000000E+000	0.0000000E+000	-67.0674	0.0000000E+000	0.0000000E+000	0.0000000E+000	-22.9326	0.0000000E+000	0.0000000E+000	0.0000000E+000	22.9326	2.36358	67.0674	-4.49027e-06	-5.348e-07	4.14556e-10	-5.35214e-07	0.258594	124845	96.7753	124942
21544.7	1.96837	0.804792	2.12654	-22.2378	3.71354	0.258385	0.000537072	9.17902	1.31467	1	9	0.00533983	0.00251104	0	5.12233e-06	2.87978e-05	1.09001e-05	-40.5981	0.00434087	0.00329599	0.00282482	-22.2745	2.13066	1.97167	0.807617	0.435271	0.177965	0.470247	22.2378	1314.67	3215.43	3473.81	-67.7622	0.0000000E+000	0.0000000E+000	0.0000000E+000	67.7622	0.0000000E+000	0.0000000E+000	0.0000000E+000	-67.7622	0.0000000E+000	0.0000000E+000	0.0000000E+000	-22.2378	0.0000000E+000	0.0000000E+000	0.0000000E+000	22.2378	2.44582	67.7622	-8.38824e-07	1.38772e-07	1.54665e-11	1.38756e-07	0.258356	481100	53.6199	481046
14678.6	2.15407	0.849513	2.31553	-21.5231	4.09655	0.258381	-0.00132493	12.7634	1.71792	1	9	0.00529306	0.00228589	0	6.61258e-06	-6.66583e-05	1.01719e-05	-2.81057	0.00444985	0.00444449	0.000218194	-21.4878	2.31975	2.15851	0.849732	0.401752	0.158441	0.431866	21.5231	1717.92	4356.06	4682.58	-68.4769	0.0000000E+000	0.0000000E+000	0.0000000E+000	68.4769	0.0000000E+000	0.0000000E+000	0.0000000E+000	-68.4769	0.0000000E+000	0.0000000E+000	0.0000000E+000	-21.5231	0.0000000E+000	0.0000000E+000	0.0000000E+000	21.5231	2.53565	68.4769	1.49025e-06	-3.42336e-07	8.83173e-11	-3.42424e-07	0.258448	195016	50.311	195066
10002.2	2.34112	0.933872	2.52051	-21.747	4.47953	0.25838	-0.00158562	17.0387	2.33902	1	9	0.0051149	0.00202931	0	7.81098e-06	4.7889e-05	9.06635e-06	35.6767	0.0044677	0.00362921	-0.00260561	-21.6615	2.52292	2.34475	0.931266	0.368508	0.146998	0.396745	21.747	2339.02	5863.68	6312.99	-68.253	0.0000000E+000	0.0000000E+000	0.0000000E+000	68.253	0.0000000E+000	0.0000000E+000	0.0000000E+000	-68.253	0.0000000E+000	0.0000000E+000	0.0000000E+000	-21.747	0.0000000E+000	0.0000000E+000	0.0000000E+000	21.747	2.5069	68.253	1.1984e-06	-4.09692e-07	-7.59337e-11	-4.09616e-07	0.258332	162952	30.2021	162922
6810.42	2.54364	1.02652	2.74297	-21.9771	4.73852	0.25838	-0.00251662	22.7656	3.18839	1	9	0.00545718	0.00198952	0	7.91461e-06	0.000124254	2.21315e-05	-156.426	0.0111241	-0.0101957	0.00444886	-22.1435	2.73519	2.53345	1.03097	0.338077	0.136435	0.364569	21.9771	3188.39	7900.63	8519.73	-68.0229	0.0000000E+000	0.0000000E+000	0.0000000E+000	68.0229	0.0000000E+000	0.0000000E+000	0.0000000E+000	-68.0229	0.0000000E+000	0.0000000E+000	0.0000000E+000	-21.9771	0.0000000E+000	0.0000000E+000	0.0000000E+000	21.9771	2.47793	68.0229	1.03633e-07	-6.50244e-07	-3.12699e-10	-6.49932e-07	0.258256	102670	49.3734	102620
4646	2.7333	1.16728	2.97212	-23.1254	5.00364	0.258372	-0.0154388	29.3471	4.52674	1	9	0.0054615	0.00183758	0	5.71072e-06	0.000276984	1.00539e-05	21.8527	0.00547128	0.00507813	-0.00203653	-23.0509	2.97599	2.73838	1.16525	0.309425	0.132143	0.336461	23.1254	4526.74	10599.8	11525.9	-66.8746	0.0000000E+000	0.0000000E+000	0.0000000E+000	66.8746	0.0000000E+000	0.0000000E+000	0.0000000E+000	-66.8746	0.0000000E+000	0.0000000E+000	0.0000000E+000	-23.1254	0.0000000E+000	0.0000000E+000	0.0000000E+000	23.1254	2.34159	66.8746	-2.20389e-06	-3.98897e-06	-4.2763e-09	-3.98469e-06	0.258095	16735.2	17.9407	16717.3
3163.08	2.95178	1.3557	3.24822	-24.6685	5.37668	0.258264	-0.0433687	37.1146	6.46522	1	9	0.00540246	0.0016632	0	2.66676e-06	0.000105163	9.99438e-06	-140.904	0.00600911	-0.00466363	0.00378946	-24.7637	3.24557	2.94712	1.35949	0.279765	0.128491	0.307861	24.6685	6465.22	14076.8	15490.5	-65.3315	0.0000000E+000	0.0000000E+000	0.0000000E+000	65.3315	0.0000000E+000	0.0000000E+000	0.0000000E+000	-65.3315	0.0000000E+000	0.0000000E+000	0.0000000E+000	-24.6685	0.0000000E+000	0.0000000E+000	0.0000000E+000	24.6685	2.1773	65.3315	-3.04396e-06	-1.12006e-05	-4.56077e-09	-1.1196e-05	0.258158	5955.07	2.42485	5952.65
2155.69	3.18107	1.59836	3.56004	-26.6777	5.82778	0.258314	0.00426103	46.1913	9.311	1	9	0.00535504	0.00150421	0	3.07192e-06	0.000124254	2.18591e-05	-12.8145	0.014532	0.0141701	0.00322314	-26.6218	3.57415	3.19524	1.60158	0.250993	0.126114	0.280895	26.6777	9311	18530.9	20738.6	-63.3223	0.0000000E+000	0.0000000E+000	0.0000000E+000	63.3223	0.0000000E+000	0.0000000E+000	0.0000000E+000	-63.3223	0.0000000E+000	0.0000000E+000	0.0000000E+000	-26.6777	0.0000000E+000	0.0000000E+000	0.0000000E+000	26.6777	1.99021	63.3223	4.05167e-07	1.10068e-06	5.2945e-10	1.10015e-06	0.258189	60622.3	29.1605	60593.1
1468.59	3.44663	1.97502	3.9724	-29.814	6.52512	0.25833	-0.0118426	54.8717	13.5639	1	10	0.00540989	0.00136187	0	2.50122e-06	-9.38465e-06	1.15184e-05	59.4519	0.00845775	0.00429875	-0.00728384	-29.692	3.97252	3.45093	1.96774	0.218418	0.12516	0.251737	29.814	13563.9	23670.5	27281.4	-60.186	0.0000000E+000	0.0000000E+000	0.0000000E+000	60.186	0.0000000E+000	0.0000000E+000	0.0000000E+000	-60.186	0.0000000E+000	0.0000000E+000	0.0000000E+000	-29.814	0.0000000E+000	0.0000000E+000	0.0000000E+000	29.814	1.74511	60.186	-5.70702e-07	-3.05929e-06	1.11138e-10	-3.0594e-06	0.258339	21813.7	0.79245	21814.4
1000.32	3.76107	2.47921	4.50468	-33.392	6.97577	0.258331	-0.0123936	64.1752	19.4387	1	10	0.00531419	0.0011797	0	1.36843e-06	-6.66583e-05	1.38053e-05	-8.51091	0.0117024	0.0115735	0.00173193	-33.3295	4.5153	3.77264	2.48095	0.185346	0.122176	0.221991	33.392	19438.7	29489.3	35319.7	-56.608	0.0000000E+000	0.0000000E+000	0.0000000E+000	56.608	0.0000000E+000	0.0000000E+000	0.0000000E+000	-56.608	0.0000000E+000	0.0000000E+000	0.0000000E+000	-33.392	0.0000000E+000	0.0000000E+000	0.0000000E+000	33.392	1.51704	56.608	-1.13279e-06	-3.20165e-06	8.26138e-10	-3.20248e-06	0.258397	20843.8	5.37843	20849.2
681.09	4.20007	3.16017	5.25616	-36.9581	7.42554	0.258329	-0.0119803	73.9445	26.7293	1	10	0.00525819	0.00100039	0	-7.92263e-07	0.000410622	3.80694e-06	-80.0565	0.00380547	0.000657114	0.00374831	-36.9864	5.25894	4.20073	3.16392	0.152026	0.114386	0.190253	36.9581	26729.3	35525.1	44457.7	-53.0419	0.0000000E+000	0.0000000E+000	0.0000000E+000	53.0419	0.0000000E+000	0.0000000E+000	0.0000000E+000	-53.0419	0.0000000E+000	0.0000000E+000	0.0000000E+000	-36.9581	0.0000000E+000	0.0000000E+000	0.0000000E+000	36.9581	1.32907	53.0419	-2.16069e-06	-3.09487e-06	-4.91939e-09	-3.08995e-06	0.257919	21562.8	34.2747	21528.5
463.961	4.76788	4.07267	6.27051	-40.5036	7.87734	0.258326	-0.0118649	84.2286	35.5314	1	10	0.00520171	0.000829551	0	-2.1095e-06	0.000105163	7.66985e-06	97.0553	0.00924578	-0.00113564	-0.00917577	-40.4466	6.26369	4.76674	4.0635	0.12126	0.103579	0.159477	40.5036	35531.4	41596.6	54706.1	-49.4964	0.0000000E+000	0.0000000E+000	0.0000000E+000	49.4964	0.0000000E+000	0.0000000E+000	0.0000000E+000	-49.4964	0.0000000E+000	0.0000000E+000	0.0000000E+000	-40.5036	0.0000000E+000	0.0000000E+000	0.0000000E+000	40.5036	1.1707	49.4964	-1.31724e-06	-3.06502e-06	-1.24775e-09	-3.06377e-06	0.258221	21772.3	8.86333	21763.4
316.316	5.60816	5.26975	7.69557	-43.2181	8.32502	0.258326	-0.0124607	95.4792	44.7721	1	10	0.00517263	0.000672156	0	-3.39724e-06	0.000200619	5.90332e-06	-56.4117	0.00878266	0.00485875	0.00731626	-43.233	7.70412	5.61302	5.27707	0.0946976	0.0889834	0.129945	43.2181	44772.1	47647.3	65382	-46.7819	0.0000000E+000	0.0000000E+000	0.0000000E+000	46.7819	0.0000000E+000	0.0000000E+000	0.0000000E+000	-46.7819	0.0000000E+000	0.0000000E+000	0.0000000E+000	-43.2181	0.0000000E+000	0.0000000E+000	0.0000000E+000	43.2181	1.06422	46.7819	-1.28774e-06	-3.21892e-06	-2.49985e-09	-3.21642e-06	0.258126	20731.3	16.1001	20715.2
215.345	6.84436	6.74599	9.61008	-44.5853	8.7746	0.258326	-0.0117421	109.557	53.9856	1	10	0.00515013	0.000535909	0	-4.22837e-06	-0.000162114	8.81238e-06	51.7729	0.0164438	0.0101751	-0.0129177	-44.4878	9.60828	6.85454	6.73307	0.0741103	0.0730451	0.104057	44.5853	53985.6	54772.8	76905.8	-45.4147	0.0000000E+000	0.0000000E+000	0.0000000E+000	45.4147	0.0000000E+000	0.0000000E+000	0.0000000E+000	-45.4147	0.0000000E+000	0.0000000E+000	0.0000000E+000	-44.5853	0.0000000E+000	0.0000000E+000	0.0000000E+000	44.5853	1.01458	45.4147	-8.31128e-07	-3.03328e-06	1.90356e-09	-3.03519e-06	0.258488	22000.1	13.8063	22013.9
146.737	8.6823	8.38744	12.0719	-44.0104	9.22152	0.25832	-0.0123713	129.315	62.4245	1	10	0.00512754	0.000424749	0	-5.40832e-06	0.000124254	1.19725e-05	-1.60175	0.0281873	0.0281763	0.000787899	-43.9203	12.0928	8.71048	8.38823	0.0595774	0.0575541	0.0828368	44.0104	62424.5	64619.1	89846.8	-45.9896	0.0000000E+000	0.0000000E+000	0.0000000E+000	45.9896	0.0000000E+000	0.0000000E+000	0.0000000E+000	-45.9896	0.0000000E+000	0.0000000E+000	0.0000000E+000	-44.0104	0.0000000E+000	0.0000000E+000	0.0000000E+000	44.0104	1.03515	45.9896	-1.17995e-06	-3.19576e-06	-1.53718e-09	-3.19422e-06	0.258195	20880.5	10.0437	20870.5
100.032	11.3182	9.94436	15.0662	-41.3031	9.67285	0.258327	-0.0119171	159.994	69.7024	1	10	0.00512574	0.000340213	0	-7.01377e-06	4.7889e-05	7.20182e-06	-9.11903	0.0211685	0.020901	0.00335492	-41.2603	15.0842	11.3391	9.94772	0.0498617	0.0438094	0.0663735	41.3031	69702.5	79331.9	105603	-48.6969	0.0000000E+000	0.0000000E+000	0.0000000E+000	48.6969	0.0000000E+000	0.0000000E+000	0.0000000E+000	-48.6969	0.0000000E+000	0.0000000E+000	0.0000000E+000	-41.3031	0.0000000E+000	0.0000000E+000	0.0000000E+000	41.3031	1.13815	48.6969	-1.60545e-06	-3.07849e-06	-5.70696e-10	-3.07792e-06	0.258279	21677	4.01852	21673
68.104	14.626	11.0437	18.3271	-37.0554	10.1355	0.258325	-0.0105059	211.609	76.8378	1	10	0.00512092	0.000279419	0	-8.45391e-06	0.000124254	7.34943e-06	-44.7763	0.0263026	0.0186712	0.018526	-37.0665	18.3531	14.6446	11.0622	0.0435451	0.0328796	0.0545641	37.0554	76837.8	101762	127513	-52.9446	0.0000000E+000	0.0000000E+000	0.0000000E+000	52.9446	0.0000000E+000	0.0000000E+000	0.0000000E+000	-52.9446	0.0000000E+000	0.0000000E+000	0.0000000E+000	-37.0554	0.0000000E+000	0.0000000E+000	0.0000000E+000	37.0554	1.32438	52.9446	-1.44014e-06	-2.71394e-06	-1.3054e-09	-2.71263e-06	0.258201	24588.6	11.8271	24576.8
46.4415	18.4279	11.3678	21.6521	-31.6695	10.8116	0.25835	-0.00522758	301.466	83.0976	1	11	0.00513819	0.000237307	0	-1.04142e-05	-0.000219388	7.81179e-06	-68.4343	0.0329185	0.0120998	0.0306141	-31.7216	21.6785	18.44	11.3984	0.0393075	0.0242479	0.0461849	31.6695	83097.6	134707	158275	-58.3305	0.0000000E+000	0.0000000E+000	0.0000000E+000	58.3305	0.0000000E+000	0.0000000E+000	0.0000000E+000	-58.3305	0.0000000E+000	0.0000000E+000	0.0000000E+000	-31.6695	0.0000000E+000	0.0000000E+000	0.0000000E+000	31.6695	1.62107	58.3305	-1.96032e-06	-1.35055e-06	1.14687e-09	-1.35169e-06	0.258569	49420.5	41.9674	49462.5
31.6296	22.0297	10.7301	24.504	-25.9694	11.2415	0.25834	-0.00548337	468.948	89.9201	1	11	0.00512368	0.000209096	0	-1.0586e-05	-0.000295753	8.95667e-06	-30.8257	0.0428352	0.0367838	0.0219499	-25.9778	24.5466	22.0665	10.752	0.0366891	0.0178702	0.0408097	25.9694	89920.1	184614	205348	-64.0306	0.0000000E+000	0.0000000E+000	0.0000000E+000	64.0306	0.0000000E+000	0.0000000E+000	0.0000000E+000	-64.0306	0.0000000E+000	0.0000000E+000	0.0000000E+000	-25.9694	0.0000000E+000	0.0000000E+000	0.0000000E+000	25.9694	2.05309	64.0306	-1.71762e-07	-1.41657e-06	1.62172e-09	-1.4182e-06	0.258636	47113.4	53.9364	47167.3
21.5517	25.1033	9.4256	26.8145	-20.5798	11.6625	0.258343	-0.00565017	783.482	96.8071	1	11	0.00512866	0.000191264	0	-1.11181e-05	-0.000200297	1.03468e-05	-60.3179	0.054097	0.0267881	0.0469987	-20.6536	26.8561	25.1301	9.4726	0.0349133	0.013109	0.0372932	20.5798	96807.1	257828	275403	-69.4202	0.0000000E+000	0.0000000E+000	0.0000000E+000	69.4202	0.0000000E+000	0.0000000E+000	0.0000000E+000	-69.4202	0.0000000E+000	0.0000000E+000	0.0000000E+000	-20.5798	0.0000000E+000	0.0000000E+000	0.0000000E+000	20.5798	2.66331	69.4202	-5.32156e-07	-1.45968e-06	1.13171e-09	-1.46081e-06	0.258543	45723	35.4497	45758.5
14.6852	27.3741	7.82044	28.4693	-15.944	12.1231	0.25835	-0.00492005	1385.83	104.573	1	11	0.00512599	0.000180053	0	-1.12137e-05	9.70657e-06	5.10708e-06	94.1313	0.0283643	-0.00204344	-0.0282906	-15.8903	28.4596	27.3721	7.79215	0.0337743	0.00964888	0.0351255	15.944	104573	366039	380684	-74.056	0.0000000E+000	0.0000000E+000	0.0000000E+000	74.056	0.0000000E+000	0.0000000E+000	0.0000000E+000	-74.056	0.0000000E+000	0.0000000E+000	0.0000000E+000	-15.944	0.0000000E+000	0.0000000E+000	0.0000000E+000	15.944	3.50033	74.056	-9.55535e-08	-1.2711e-06	-4.77568e-11	-1.27105e-06	0.25834	52509.7	1.97286	52507.7
10.0032	28.9286	6.32825	29.6127	-12.3393	12.5738	0.25834	-0.00478862	2514.19	114.818	1	11	0.00512171	0.000172957	0	-1.32273e-05	4.7889e-05	9.35168e-06	-82.366	0.0540695	0.00718282	0.0535903	-12.4376	29.6312	28.9358	6.38184	0.0329892	0.00721652	0.0337693	12.3393	114818	524871	537283	-77.6607	0.0000000E+000	0.0000000E+000	0.0000000E+000	77.6607	0.0000000E+000	0.0000000E+000	0.0000000E+000	-77.6607	0.0000000E+000	0.0000000E+000	0.0000000E+000	-12.3393	0.0000000E+000	0.0000000E+000	0.0000000E+000	12.3393	4.57134	77.6607	-2.01362e-06	-1.23709e-06	-2.29322e-10	-1.23686e-06	0.258292	53948.8	10.0006	53938.8
6.81719	30.0994	5.16813	30.5399	-9.7428	12.9135	0.258331	-0.00549119	4517.33	129.364	1	11	0.00512681	0.000167873	0	-1.2329e-05	-6.66583e-05	9.54736e-06	-79.7382	0.0568726	0.0101317	0.0559629	-9.843	30.5594	30.1095	5.22409	0.0322718	0.00554114	0.0327441	9.7428	129364	753422	764448	-80.2572	0.0000000E+000	0.0000000E+000	0.0000000E+000	80.2572	0.0000000E+000	0.0000000E+000	0.0000000E+000	-80.2572	0.0000000E+000	0.0000000E+000	0.0000000E+000	-9.7428	0.0000000E+000	0.0000000E+000	0.0000000E+000	9.7428	5.82404	80.2572	8.98315e-07	-1.41854e-06	3.66033e-10	-1.41891e-06	0.258398	47044.6	12.1391	47056.8
4.63925	30.8828	4.2274	31.1708	-7.7945	13.3974	0.258334	-0.00475213	8115.19	149.262	1	11	0.00512195	0.000164319	0	-1.26376e-05	9.70657e-06	8.31141e-06	-96.0234	0.0505811	-0.00530769	0.0503018	-7.88742	31.1724	30.8775	4.2777	0.0317849	0.00435088	0.0320813	7.7945	149262	1.09042e+06	1.10059e+06	-82.2055	0.0000000E+000	0.0000000E+000	0.0000000E+000	82.2055	0.0000000E+000	0.0000000E+000	0.0000000E+000	-82.2055	0.0000000E+000	0.0000000E+000	0.0000000E+000	-7.7945	0.0000000E+000	0.0000000E+000	0.0000000E+000	7.7945	7.3054	82.2055	-3.08568e-07	-1.22764e-06	-4.61269e-11	-1.22759e-06	0.258324	54361.7	2.04257	54359.6
3.1604	31.5371	3.71898	31.7556	-6.72549	14.0904	0.258336	-0.00460023	13541.1	185.721	1	11	0.00512656	0.000161438	0	-1.56397e-05	-9.38465e-06	3.3001e-06	-49.8743	0.0204419	0.0131742	0.0156306	-6.7507	31.7706	31.5503	3.73461	0.0312738	0.00368793	0.0314905	6.72549	185721	1.57492e+06	1.58583e+06	-83.2745	0.0000000E+000	0.0000000E+000	0.0000000E+000	83.2745	0.0000000E+000	0.0000000E+000	0.0000000E+000	-83.2745	0.0000000E+000	0.0000000E+000	0.0000000E+000	-6.72549	0.0000000E+000	0.0000000E+000	0.0000000E+000	6.72549	8.48004	83.2745	-3.00215e-06	-1.1884e-06	4.31715e-11	-1.18845e-06	0.258345	56157.2	2.04004	56159.2
2.15577	32.1529	3.24204	32.3159	-5.7578	15.093	0.258352	-0.00374864	22771.9	229.195	1	11	0.0051218	0.000158491	0	-1.86187e-05	-0.000104841	3.06582e-06	26.6757	0.0193437	0.0172848	-0.00868419	-5.73941	32.3322	32.1702	3.23336	0.0307884	0.00310446	0.0309445	5.7578	229195	2.27303e+06	2.28456e+06	-84.2422	0.0000000E+000	0.0000000E+000	0.0000000E+000	84.2422	0.0000000E+000	0.0000000E+000	0.0000000E+000	-84.2422	0.0000000E+000	0.0000000E+000	0.0000000E+000	-5.7578	0.0000000E+000	0.0000000E+000	0.0000000E+000	5.7578	9.91747	84.2422	-2.97901e-06	-9.68466e-07	3.9301e-10	-9.68859e-07	0.258456	68918.8	27.9677	68946.7
1.46631	32.7873	3.03141	32.9271	-5.28237	16.5544	0.258355	-0.00366098	35805.5	303.481	1	11	0.00512583	0.000155672	0	-1.91192e-05	-4.75671e-05	2.12094e-06	-106.285	0.0136244	-0.00382048	0.0130778	-5.30564	32.9245	32.7835	3.04448	0.0302411	0.002796	0.0303701	5.28237	303481	3.28241e+06	3.29641e+06	-84.7176	0.0000000E+000	0.0000000E+000	0.0000000E+000	84.7176	0.0000000E+000	0.0000000E+000	0.0000000E+000	-84.7176	0.0000000E+000	0.0000000E+000	0.0000000E+000	-5.28237	0.0000000E+000	0.0000000E+000	0.0000000E+000	5.28237	10.8159	84.7176	-5.00498e-07	-9.45832e-07	1.74142e-10	-9.46006e-07	0.258402	70569.7	12.993	70582.7
1.00006	33.3501	2.89007	33.4751	-4.9528	19.7278	0.258344	-0.00368579	55066	410.447	1	12	0.0051254	0.000153111	0	-1.72993e-05	0.000276984	2.80442e-06	24.2358	0.0183163	0.016702	-0.00751871	-4.93752	33.4911	33.3668	2.88256	0.0297614	0.00257908	0.0298729	4.9528	410447	4.73637e+06	4.75412e+06	-85.0472	0.0000000E+000	0.0000000E+000	0.0000000E+000	85.0472	0.0000000E+000	0.0000000E+000	0.0000000E+000	-85.0472	0.0000000E+000	0.0000000E+000	0.0000000E+000	-4.9528	0.0000000E+000	0.0000000E+000	0.0000000E+000	4.9528	11.5395	85.0472	1.81995e-06	-9.52202e-07	-1.0209e-09	-9.51181e-07	0.258067	70092.1	75.1491	70016.9
0.681362	33.9578	2.77459	34.071	-4.67109	22.84	0.258345	-0.00335093	84186.5	558.306	1	12	0.0051223	0.000150342	0	-1.45013e-05	-0.000143023	4.04103e-06	28.5026	0.0268789	0.023621	-0.0128266	-4.64638	34.0935	33.9814	2.76177	0.029253	0.00239018	0.0293505	4.67109	558306	6.83302e+06	6.85579e+06	-85.3289	0.0000000E+000	0.0000000E+000	0.0000000E+000	85.3289	0.0000000E+000	0.0000000E+000	0.0000000E+000	-85.3289	0.0000000E+000	0.0000000E+000	0.0000000E+000	-4.67109	0.0000000E+000	0.0000000E+000	0.0000000E+000	4.67109	12.2388	85.3289	2.79799e-06	-8.65697e-07	4.7926e-10	-8.66176e-07	0.258488	77096.6	42.6816	77139.3
0.464091	34.6219	2.78636	34.7339	-4.60123	27.3966	0.258347	-0.0027253	123078	792.042	1	12	0.0051273	0.000147617	0	-1.58791e-05	-4.75671e-05	1.66452e-06	3.9266	0.011276	0.0112495	-0.000772159	-4.59847	34.745	34.6332	2.78559	0.0286975	0.00230957	0.0287903	4.60123	792042	9.84152e+06	9.87334e+06	-85.3988	0.0000000E+000	0.0000000E+000	0.0000000E+000	85.3988	0.0000000E+000	0.0000000E+000	0.0000000E+000	-85.3988	0.0000000E+000	0.0000000E+000	0.0000000E+000	-4.60123	0.0000000E+000	0.0000000E+000	0.0000000E+000	4.60123	12.4255	85.3988	-1.37783e-06	-7.04074e-07	1.29635e-10	-7.04204e-07	0.258395	94796	17.4539	94813.4
0.316193	35.2264	2.85409	35.3418	-4.63207	34.07	0.258342	-0.00204096	176360	1150.16	1	12	0.0051241	0.000144987	0	-2.64092e-05	-2.84759e-05	2.90456e-06	-25.0524	0.0200332	0.0181485	0.008483	-4.64339	35.3606	35.2445	2.86257	0.0282027	0.00228502	0.0282951	4.63207	1.15016e+06	1.41957e+07	1.42423e+07	-85.3679	0.0000000E+000	0.0000000E+000	0.0000000E+000	85.3679	0.0000000E+000	0.0000000E+000	0.0000000E+000	-85.3679	0.0000000E+000	0.0000000E+000	0.0000000E+000	-4.63207	0.0000000E+000	0.0000000E+000	0.0000000E+000	4.63207	12.3424	85.3679	-1.05301e-05	-5.27265e-07	5.81181e-11	-5.27324e-07	0.25837	126578	13.9522	126592
0.215268	35.8448	2.99872	35.97	-4.78215	43.8636	0.258344	-0.00163955	246550	1713.55	1	12	0.00512823	0.00014257	0	-4.84582e-05	-0.000123932	2.29734e-06	30.2445	0.0161138	0.0139205	-0.00811638	-4.76742	35.9832	35.8587	2.99061	0.0277042	0.00231769	0.0278009	4.78215	1.71355e+06	2.04826e+07	2.05542e+07	-85.2178	0.0000000E+000	0.0000000E+000	0.0000000E+000	85.2178	0.0000000E+000	0.0000000E+000	0.0000000E+000	-85.2178	0.0000000E+000	0.0000000E+000	0.0000000E+000	-4.78215	0.0000000E+000	0.0000000E+000	0.0000000E+000	4.78215	11.9533	85.2178	-2.2049e-05	-4.23568e-07	2.03193e-10	-4.23771e-07	0.258468	157570	75.589	157646
0.146929	36.5133	3.26915	36.6593	-5.11624	58.202	0.258357	-0.00144069	331343	2634.99	1	12	0.00512746	0.000139868	0	-7.96853e-05	0.000143345	1.29483e-06	-20.8319	0.0092575	0.00865232	0.00329222	-5.12015	36.6682	36.5219	3.27244	0.0271695	0.00243257	0.0272782	5.11624	2.63499e+06	2.94303e+07	2.9548e+07	-84.8838	0.0000000E+000	0.0000000E+000	0.0000000E+000	84.8838	0.0000000E+000	0.0000000E+000	0.0000000E+000	-84.8838	0.0000000E+000	0.0000000E+000	0.0000000E+000	-5.11624	0.0000000E+000	0.0000000E+000	0.0000000E+000	5.11624	11.169	84.8838	-3.12271e-05	-3.72211e-07	-2.06515e-10	-3.72005e-07	0.258214	179329	99.4978	179230
0.0999041	37.2601	3.80715	37.4541	-5.83411	79.2791	0.258359	-0.00188702	418443	4323.53	1	12	0.00512829	0.000136922	0	-0.000112337	-0.000238479	2.16384e-06	-29.4944	0.0158034	0.0137554	0.00778065	-5.8438	37.4686	37.2739	3.81493	0.0265611	0.00271395	0.0266993	5.83411	4.32353e+06	4.23138e+07	4.25341e+07	-84.1659	0.0000000E+000	0.0000000E+000	0.0000000E+000	84.1659	0.0000000E+000	0.0000000E+000	0.0000000E+000	-84.1659	0.0000000E+000	0.0000000E+000	0.0000000E+000	-5.83411	0.0000000E+000	0.0000000E+000	0.0000000E+000	5.83411	9.78687	84.1659	-3.26519e-05	-4.87528e-07	4.50015e-10	-4.87978e-07	0.258597	136914	126.379	137040
0.0680626	38.0679	4.67809	38.3543	-7.00584	110.207	0.258357	-0.0021679	499853	7436.22	1	12	0.00512765	0.000133692	0	-0.000131707	0.000124254	2.75944e-06	-12.1539	0.0206403	0.0201777	0.00434557	-7.0086	38.3749	38.0881	4.68244	0.025878	0.0031801	0.0260727	7.00584	7.43621e+06	6.05121e+07	6.09673e+07	-82.9942	0.0000000E+000	0.0000000E+000	0.0000000E+000	82.9942	0.0000000E+000	0.0000000E+000	0.0000000E+000	-82.9942	0.0000000E+000	0.0000000E+000	0.0000000E+000	-7.00584	0.0000000E+000	0.0000000E+000	0.0000000E+000	7.00584	8.13749	82.9942	-1.93697e-05	-5.60091e-07	-2.6937e-10	-5.59822e-07	0.258233	119174	57.3154	119117
0.0464052	38.8825	5.9532	39.3356	-8.70481	155.558	0.258353	-0.00214197	576107	13195.7	1	12	0.00512571	0.000130307	0	-0.000109566	0.000200619	2.39077e-06	3.85041	0.0183472	0.0183057	-0.00123204	-8.699	39.3535	38.9008	5.95196	0.0251294	0.0038475	0.0254223	8.70481	1.31957e+07	8.61859e+07	8.71903e+07	-81.2952	0.0000000E+000	0.0000000E+000	0.0000000E+000	81.2952	0.0000000E+000	0.0000000E+000	0.0000000E+000	-81.2952	0.0000000E+000	0.0000000E+000	0.0000000E+000	-8.70481	0.0000000E+000	0.0000000E+000	0.0000000E+000	8.70481	6.53136	81.2952	2.21411e-05	-5.53385e-07	-4.2972e-10	-5.52956e-07	0.258153	120615	93.6608	120521
0.0315922	39.9274	7.59005	40.6424	-10.7633	222.163	0.258353	-0.00139556	663736	23148.6	1	12	0.00512431	0.000126083	0	-2.73366e-05	0.000238801	1.0018e-06	3.38682	0.00794556	0.00793168	-0.000469398	-10.7605	40.6501	39.9354	7.58958	0.0241719	0.00459499	0.0246048	10.7633	2.31486e+07	1.21773e+08	1.23954e+08	-79.2367	0.0000000E+000	0.0000000E+000	0.0000000E+000	79.2367	0.0000000E+000	0.0000000E+000	0.0000000E+000	-79.2367	0.0000000E+000	0.0000000E+000	0.0000000E+000	-10.7633	0.0000000E+000	0.0000000E+000	0.0000000E+000	10.7633	5.2605	79.2367	8.22291e-05	-3.60546e-07	-3.33261e-10	-3.60213e-07	0.258114	185125	171.115	184954
0.0215268	41.4959	9.79368	42.636	-13.2797	319.902	0.258347	-0.00037321	754910	39832.2	1	12	0.00512688	0.000120248	0	9.91669e-05	0.000181527	2.36022e-06	6.82952	0.019628	0.0194887	-0.00233407	-13.2706	42.6544	41.5154	9.79135	0.0228272	0.00538758	0.0234544	13.2797	3.98322e+07	1.68769e+08	1.73406e+08	-76.7203	0.0000000E+000	0.0000000E+000	0.0000000E+000	76.7203	0.0000000E+000	0.0000000E+000	0.0000000E+000	-76.7203	0.0000000E+000	0.0000000E+000	0.0000000E+000	-13.2797	0.0000000E+000	0.0000000E+000	0.0000000E+000	13.2797	4.23701	76.7203	0.000126503	-9.64175e-08	-6.77478e-11	-9.63497e-08	0.258165	692229	486.395	691743
0.0146812	43.4254	12.9725	45.3217	-16.6325	463.205	0.258346	0.0004481	835670	68465.5	1	12	0.0051241	0.000113061	0	0.000195905	0.000105163	1.13238e-06	-5.13507	0.0100157	0.00997549	0.000896444	-16.63	45.3315	43.4354	12.9734	0.0211413	0.00631557	0.0220645	16.6325	6.84655e+07	2.29188e+08	2.39196e+08	-73.3675	0.0000000E+000	0.0000000E+000	0.0000000E+000	73.3675	0.0000000E+000	0.0000000E+000	0.0000000E+000	-73.3675	0.0000000E+000	0.0000000E+000	0.0000000E+000	-16.6325	0.0000000E+000	0.0000000E+000	0.0000000E+000	16.6325	3.34749	73.3675	9.6738e-05	1.15765e-07	4.71234e-11	1.15718e-07	0.258241	576536	234.686	576302
0.0100092	45.3368	17.1786	48.4823	-20.7522	673.386	0.258347	0.000472747	925624	116210	1	12	0.00512855	0.000105782	0	0.00013246	-0.000162114	2.93626e-06	-25.1845	0.0277577	0.0251191	0.0118119	-20.7547	48.51	45.362	17.1904	0.0192879	0.00730838	0.0206261	20.7522	1.1621e+08	3.06695e+08	3.27974e+08	-69.2478	0.0000000E+000	0.0000000E+000	0.0000000E+000	69.2478	0.0000000E+000	0.0000000E+000	0.0000000E+000	-69.2478	0.0000000E+000	0.0000000E+000	0.0000000E+000	-20.7522	0.0000000E+000	0.0000000E+000	0.0000000E+000	20.7522	2.63915	69.2478	-6.34454e-05	1.22133e-07	-7.66391e-11	1.2221e-07	0.258509	546481	342.92	546824