File: txt/19365_R311_UC99_SOC50_C04.mpt
EC-Lab ASCII FILE
Nb header lines : 65

Potentio Electrochemical Impedance Spectroscopy

Run on channel : 4 (SN 66756)
User :
CE vs. WE compliance from -10 V to 10 V
Electrode connection : standard
Potential control : Ewe
Ewe ctrl range : min = -10.00 V, max = 10.00 V
Safety Limits :
	Do not start on E overload
Acquisition started on : 11/19/2025 16:14:50.567
Technique started on : 11/19/2025 16:14:52.801
Loaded Setting File :  C:\Users\Celltest\OneDrive - store-dot.com\Documents\EC-Lab\Data\txt_done\19191_R297_UC94_SOC50_C08.mpr
Saved on :
	File : 19365_R311_UC99_SOC50_C04.mpr
	Directory : C:\Users\Celltest\OneDrive - store-dot.com\Documents\EC-Lab\Data\Gyutae\
	Host : 169.254.61.224
Device : VMP-3e (SN .003165)
Address : USB
EC-LAB for windows v11.62 (software)
Internet server v27.00 (firmware)
Command interpretor v12.03 (firmware)
Electrode material :
Initial state :
Electrolyte :
Comments :
Electrode surface area : 0.001 cm²
Characteristic mass : 0.001 g
Equivalent Weight : 0.000 g/eq.
Density : 0.000 g/cm3
Volume (V) : 0.001 cm³
Record Ece
Cycle Definition : Charge/Discharge alternance
Mode                Multi sine
E (V)               0.0000
vs.                 Eoc
tE (h:m:s)          0:00:0.0000
record              0
dI                  0.000
unit dI             mA
dt (s)              0.000
fi                  1.000
unit fi             MHz
ff                  0.100
unit ff             mHz
Nd                  10
Points              per decade
spacing             Logarithmic
Va (mV)             5.0
pw                  0.10
Na                  2
corr                0
E range min (V)     -10.000
E range max (V)     10.000
I Range             Auto
Bandwidth           5
nc cycles           0
goto Ns'            0
nr cycles           0
inc. cycle          0

freq/Hz	Re(Z)/Ohm	-Im(Z)/Ohm	|Z|/Ohm	Phase(Z)/deg	time/s	<Ewe>/V	<I>/mA	Cs/µF	Cp/µF	cycle number	I Range	|Ewe|/V	|I|/A	Ns	(Q-Qo)/mA.h	<Ece>/V	|Ece|/V	Phase(Zce)/deg	|Zce|/Ohm	Re(Zce)/Ohm	-Im(Zce)/Ohm	Phase(Zwe-ce)/deg	|Zwe-ce|/Ohm	Re(Zwe-ce)/Ohm	-Im(Zwe-ce)/Ohm	Re(Y)/Ohm-1	Im(Y)/Ohm-1	|Y|/Ohm-1	Phase(Y)/deg	Re(C)/nF	Im(C)/nF	|C|/nF	Phase(C)/deg	Re(M)	Im(M)	|M|	Phase(M)/deg	Re(Permittivity)	Im(Permittivity)	|Permittivity|	Phase(Permittivity)/deg	Re(Resistivity)/Ohm.cm	Im(Resistivity)/Ohm.cm	|Resistivity|/Ohm.cm	Phase(Resistivity)/deg	Re(Conductivity)/mS/cm	Im(Conductivity)/mS/cm	|Conductivity|/mS/cm	Phase(Conductivity)/deg	Tan(Delta)	Loss Angle(Delta)/deg	dq/mA.h	Pwe/W	Pce/W	Pwe-ce/W	<Ewe-Ece>/V	Rwe/Ohm	Rce/Ohm	Rwe-ce/Ohm		Ewe-Ece/V
1.00002e+06	4.17415	1.39344	4.40059	-18.4603	2.23354	3.90055	0.0235202	0.114215	0.0114519	1	10	0.000271168	6.16209e-05	0	3.91378e-06	1.33066e-05	0.000188226	-66.5744	3.05459	1.21437	2.80282	-37.9093	6.82969	5.38852	4.19626	0.215549	0.0719559	0.227242	18.4603	11.4519	34.3051	36.1661	-71.5397	0.0000000E+000	0.0000000E+000	0.0000000E+000	71.5397	0.0000000E+000	0.0000000E+000	0.0000000E+000	-71.5397	0.0000000E+000	0.0000000E+000	0.0000000E+000	-18.4603	0.0000000E+000	0.0000000E+000	0.0000000E+000	18.4603	2.99557	71.5397	3.91378e-06	9.17417e-05	3.12974e-10	9.17414e-05	3.90053	165838	0.565751	165837
630957	1.17529	-0.609376	1.32388	27.4063	3.52656	3.89952	-0.0232216	-0.413938	-0.0877023	1	9	0.000435097	0.000328653	0	-1.81569e-06	-0.000101353	0.000109876	-90.4033	0.334323	-0.00235352	0.334315	13.1977	1.20476	1.17294	-0.275061	0.67058	-0.347688	0.755357	-27.4063	-87.7023	169.15	190.534	-117.406	0.0000000E+000	0.0000000E+000	0.0000000E+000	117.406	0.0000000E+000	0.0000000E+000	0.0000000E+000	-117.406	0.0000000E+000	0.0000000E+000	0.0000000E+000	27.4063	0.0000000E+000	0.0000000E+000	0.0000000E+000	-27.4063	1.92868	62.5937	-2.36638e-06	-9.05531e-05	2.35358e-09	-9.05555e-05	3.89962	167927	4.36461	167931
398103	1.50485	-0.112458	1.50905	4.27378	4.29255	3.8994	-0.0292264	-3.55495	-0.0197427	1	9	0.00135948	0.000900884	0	-8.95651e-06	-0.000120463	3.49966e-05	164.449	0.0388469	-0.0374248	-0.0104148	4.78641	1.47256	1.46743	-0.122873	0.660826	-0.0493837	0.662669	-4.27378	-19.7427	264.187	264.923	-94.2738	0.0000000E+000	0.0000000E+000	0.0000000E+000	94.2738	0.0000000E+000	0.0000000E+000	0.0000000E+000	-94.2738	0.0000000E+000	0.0000000E+000	0.0000000E+000	4.27378	0.0000000E+000	0.0000000E+000	0.0000000E+000	-4.27378	13.3815	85.7262	-3.42246e-06	-0.000113965	3.52071e-09	-0.000113969	3.89952	133420	4.12172	133424
251206	1.58096	0.21107	1.59499	-7.60443	5.05852	3.89918	-0.0400426	3.00167	0.0525654	1	9	0.00388324	0.00243465	0	-1.87728e-05	-0.000464442	4.34022e-05	72.143	0.0178269	0.00546648	-0.0169681	-6.97555	1.59826	1.58643	0.194102	0.621449	0.0829679	0.626963	7.60443	52.5654	393.727	397.22	-82.3956	0.0000000E+000	0.0000000E+000	0.0000000E+000	82.3956	0.0000000E+000	0.0000000E+000	0.0000000E+000	-82.3956	0.0000000E+000	0.0000000E+000	0.0000000E+000	-7.60443	0.0000000E+000	0.0000000E+000	0.0000000E+000	7.60443	7.49023	82.3956	-3.90023e-06	-0.000156133	1.85975e-08	-0.000156152	3.89965	97375.8	11.5987	97387.4
158486	1.66661	0.376881	1.70869	-12.7423	5.82452	3.89909	-0.0338139	2.66455	0.12963	1	9	0.0053402	0.00312531	0	-3.06287e-05	-0.000273343	3.99972e-05	76.4175	0.0127978	0.00300551	-0.0124399	-12.3133	1.70893	1.66962	0.364441	0.570829	0.129085	0.585242	12.7423	129.63	573.238	587.712	-77.2577	0.0000000E+000	0.0000000E+000	0.0000000E+000	77.2577	0.0000000E+000	0.0000000E+000	0.0000000E+000	-77.2577	0.0000000E+000	0.0000000E+000	0.0000000E+000	-12.7423	0.0000000E+000	0.0000000E+000	0.0000000E+000	12.7423	4.42212	77.2577	-5.21961e-06	-0.000131844	9.24279e-09	-0.000131853	3.89937	115310	8.08373	115318
100004	1.78668	0.499829	1.85528	-15.6291	6.59056	3.89909	-0.0298604	3.18407	0.231103	1	9	0.00537221	0.00289563	0	-4.28436e-05	-0.000101353	2.70558e-05	72.4557	0.00934368	0.00281659	-0.00890905	-15.3407	1.85562	1.7895	0.49092	0.519073	0.145212	0.539002	15.6291	231.103	826.099	857.816	-74.3709	0.0000000E+000	0.0000000E+000	0.0000000E+000	74.3709	0.0000000E+000	0.0000000E+000	0.0000000E+000	-74.3709	0.0000000E+000	0.0000000E+000	0.0000000E+000	-15.6291	0.0000000E+000	0.0000000E+000	0.0000000E+000	15.6291	3.57459	74.3709	-4.74773e-06	-0.000116428	3.02645e-09	-0.000116432	3.89919	130577	3.39423	130581
63093.8	1.93691	0.642872	2.04081	-18.3613	7.35652	3.8991	-0.036835	3.92382	0.38936	1	9	0.0052914	0.00259279	0	-4.9436e-05	-0.000235123	1.41529e-05	53.1811	0.00545857	0.00327125	-0.00436977	-18.216	2.04255	1.94018	0.638502	0.465055	0.154354	0.490001	18.3613	389.36	1173.11	1236.03	-71.6387	0.0000000E+000	0.0000000E+000	0.0000000E+000	71.6387	0.0000000E+000	0.0000000E+000	0.0000000E+000	-71.6387	0.0000000E+000	0.0000000E+000	0.0000000E+000	-18.3613	0.0000000E+000	0.0000000E+000	0.0000000E+000	18.3613	3.01291	71.6387	-9.11743e-06	-0.000143623	8.66076e-09	-0.000143632	3.89933	105853	6.38313	105859
39814.1	2.11693	0.794715	2.26119	-20.5766	8.12253	3.89909	-0.0347091	5.03005	0.621328	1	9	0.00523241	0.00231401	0	-5.30746e-05	-0.000254233	1.83564e-05	28.0035	0.00793272	0.00700395	-0.00372462	-20.4262	2.26644	2.12394	0.79099	0.414031	0.155431	0.442245	20.5766	621.329	1655.07	1767.86	-69.4234	0.0000000E+000	0.0000000E+000	0.0000000E+000	69.4234	0.0000000E+000	0.0000000E+000	0.0000000E+000	-69.4234	0.0000000E+000	0.0000000E+000	0.0000000E+000	-20.5766	0.0000000E+000	0.0000000E+000	0.0000000E+000	20.5766	2.66376	69.4234	-1.49052e-06	-0.000135334	8.82419e-09	-0.000135343	3.89935	112336	7.32467	112344
25116.9	2.36037	0.976922	2.55455	-22.4839	8.88852	3.89909	-0.0272496	6.48626	0.948602	1	9	0.00519763	0.00203465	0	-6.46268e-05	-0.000120463	9.28592e-06	17.8998	0.00456389	0.00434297	-0.00140273	-22.4177	2.55803	2.36472	0.975519	0.361702	0.149703	0.391458	22.4839	948.602	2291.95	2480.5	-67.5161	0.0000000E+000	0.0000000E+000	0.0000000E+000	67.5161	0.0000000E+000	0.0000000E+000	0.0000000E+000	-67.5161	0.0000000E+000	0.0000000E+000	0.0000000E+000	-22.4839	0.0000000E+000	0.0000000E+000	0.0000000E+000	22.4839	2.41613	67.5161	-2.73663e-06	-0.000106249	3.28258e-09	-0.000106252	3.89921	143088	4.42072	143092
15847.7	2.64104	1.16219	2.88544	-23.7519	9.65455	3.89908	-0.042467	8.64126	1.40187	1	9	0.00510047	0.00176766	0	-7.20907e-05	-0.000216013	4.28655e-06	-110.289	0.00242499	-0.000840864	0.00227454	-23.8	2.88559	2.6402	1.16446	0.317213	0.13959	0.346568	23.7519	1401.87	3185.7	3480.5	-66.2481	0.0000000E+000	0.0000000E+000	0.0000000E+000	66.2481	0.0000000E+000	0.0000000E+000	0.0000000E+000	-66.2481	0.0000000E+000	0.0000000E+000	0.0000000E+000	-23.7519	0.0000000E+000	0.0000000E+000	0.0000000E+000	23.7519	2.27247	66.2481	-4.11331e-06	-0.000165582	9.17341e-09	-0.000165591	3.8993	91814.5	5.08661	91819.6
10002.2	2.95148	1.38583	3.26064	-25.1518	10.2966	3.8991	-0.0392594	11.4819	2.07409	1	9	0.00543749	0.00166761	0	-7.82749e-05	-0.000177793	6.1443e-06	5.70179	0.00368448	0.00366625	-0.000366057	-25.1186	3.2638	2.95515	1.38546	0.27761	0.130348	0.306688	25.1518	2074.09	4417.31	4880.01	-64.8482	0.0000000E+000	0.0000000E+000	0.0000000E+000	64.8482	0.0000000E+000	0.0000000E+000	0.0000000E+000	-64.8482	0.0000000E+000	0.0000000E+000	0.0000000E+000	-25.1518	0.0000000E+000	0.0000000E+000	0.0000000E+000	25.1518	2.12976	64.8482	-3.31037e-06	-0.000153076	6.98004e-09	-0.000153083	3.89928	99316.4	4.52867	99320.9
6309.38	3.32685	1.61467	3.69799	-25.8894	10.9405	3.89908	-0.0314643	15.6225	2.97842	1	9	0.00500383	0.00135312	0	-8.341e-05	-0.000254233	8.33922e-06	-146.624	0.00616294	-0.00514657	0.00339038	-25.9715	3.69484	3.32171	1.61806	0.243278	0.118074	0.270417	25.8894	2978.42	6136.72	6821.31	-64.1106	0.0000000E+000	0.0000000E+000	0.0000000E+000	64.1106	0.0000000E+000	0.0000000E+000	0.0000000E+000	-64.1106	0.0000000E+000	0.0000000E+000	0.0000000E+000	-25.8894	0.0000000E+000	0.0000000E+000	0.0000000E+000	25.8894	2.06039	64.1106	-1.61759e-06	-0.000122682	7.99925e-09	-0.00012269	3.89934	123921	8.08005	123929
3983.6	3.78234	1.9638	4.26176	-27.4385	11.6591	3.89907	-0.027087	20.3445	4.31981	1	10	0.0050424	0.00118317	0	-8.83947e-05	-0.000216013	9.5442e-06	-54.8283	0.0080666	0.0046466	0.00659388	-27.4883	4.26892	3.78698	1.9704	0.208249	0.108124	0.234645	27.4385	4319.81	8320.06	9374.66	-62.5615	0.0000000E+000	0.0000000E+000	0.0000000E+000	62.5615	0.0000000E+000	0.0000000E+000	0.0000000E+000	-62.5615	0.0000000E+000	0.0000000E+000	0.0000000E+000	-27.4385	0.0000000E+000	0.0000000E+000	0.0000000E+000	27.4385	1.92603	62.5615	-8.97088e-07	-0.000105614	5.85115e-09	-0.00010562	3.89929	143946	7.97477	143954
2510.8	4.3022	2.34917	4.90179	-28.6363	12.4838	3.89904	-0.0173662	26.9832	6.19745	1	10	0.00494231	0.00100827	0	-9.16935e-05	-8.22432e-05	3.19421e-05	-94.2011	0.0316802	-0.00232082	0.0315951	-28.9725	4.91497	4.29988	2.38077	0.179053	0.0977701	0.204007	28.6363	6197.45	11349.8	12931.6	-61.3637	0.0000000E+000	0.0000000E+000	0.0000000E+000	61.3637	0.0000000E+000	0.0000000E+000	0.0000000E+000	-61.3637	0.0000000E+000	0.0000000E+000	0.0000000E+000	-28.6363	0.0000000E+000	0.0000000E+000	0.0000000E+000	28.6363	1.83137	61.3637	-1.56275e-06	-6.77115e-05	1.42825e-09	-6.77129e-05	3.89912	224519	4.73582	224524
1585.51	4.92045	2.89305	5.70794	-30.454	13.3858	3.89903	-0.0183957	34.6973	8.91352	1	10	0.00483113	0.000846387	0	-9.59897e-05	-0.000330673	3.95048e-06	19.0642	0.00466746	0.00441147	-0.00152452	-30.4184	5.71097	4.92486	2.89153	0.151024	0.0887968	0.175195	30.454	8913.52	15160	17586.2	-59.546	0.0000000E+000	0.0000000E+000	0.0000000E+000	59.546	0.0000000E+000	0.0000000E+000	0.0000000E+000	-59.546	0.0000000E+000	0.0000000E+000	0.0000000E+000	-30.454	0.0000000E+000	0.0000000E+000	0.0000000E+000	30.454	1.70078	59.546	-2.6977e-06	-7.17255e-05	6.08297e-09	-7.17316e-05	3.89936	211953	17.9755	211971
1000.32	5.65559	3.58093	6.69394	-32.3406	14.2878	3.89903	-0.018019	44.4309	12.7149	1	10	0.00473333	0.000707107	0	-0.000100992	-6.31332e-05	1.74065e-06	-50.7453	0.00246165	0.00155765	0.00190615	-32.3472	6.69627	5.65715	3.58283	0.126216	0.0799158	0.149389	32.3406	12714.9	20081.5	23768.4	-57.6594	0.0000000E+000	0.0000000E+000	0.0000000E+000	57.6594	0.0000000E+000	0.0000000E+000	0.0000000E+000	-57.6594	0.0000000E+000	0.0000000E+000	0.0000000E+000	-32.3406	0.0000000E+000	0.0000000E+000	0.0000000E+000	32.3406	1.57936	57.6594	-2.71661e-06	-7.02566e-05	1.1376e-09	-7.02577e-05	3.89909	216384	3.5037	216388
631.01	6.57612	4.47319	7.95329	-34.2242	15.1886	3.89902	-0.0171238	56.3854	17.8364	1	10	0.00468604	0.000589194	0	-0.000104895	0.000223516	9.11656e-06	29.7724	0.0154729	0.0134306	-0.00768317	-34.1241	7.96009	6.58955	4.46551	0.103962	0.070717	0.125734	34.2242	17836.4	26221.7	31713	-55.7758	0.0000000E+000	0.0000000E+000	0.0000000E+000	55.7758	0.0000000E+000	0.0000000E+000	0.0000000E+000	-55.7758	0.0000000E+000	0.0000000E+000	0.0000000E+000	-34.2242	0.0000000E+000	0.0000000E+000	0.0000000E+000	34.2242	1.47012	55.7758	-1.66974e-06	-6.67659e-05	-3.82744e-09	-6.67621e-05	3.8988	227696	13.053	227683
398.089	7.8083	5.59446	9.6056	-35.6207	16.0898	3.89902	-0.0163852	71.463	24.2409	1	10	0.00466021	0.000485155	0	-0.000109061	8.97464e-05	1.55364e-05	-0.771357	0.0320236	0.0320207	0.000431111	-35.5118	9.6319	7.84032	5.59489	0.0846267	0.060633	0.104106	35.6207	24240.9	33833.5	41621.3	-54.3793	0.0000000E+000	0.0000000E+000	0.0000000E+000	54.3793	0.0000000E+000	0.0000000E+000	0.0000000E+000	-54.3793	0.0000000E+000	0.0000000E+000	0.0000000E+000	-35.6207	0.0000000E+000	0.0000000E+000	0.0000000E+000	35.6207	1.39572	54.3793	-2.30226e-06	-6.38862e-05	-1.47051e-09	-6.38847e-05	3.89893	237960	5.47729	237955
251.044	9.38797	7.03934	11.734	-36.8635	16.9881	3.89902	-0.0222378	90.0611	32.4124	1	10	0.00463235	0.000394781	0	-0.000113808	0.000127966	9.99438e-06	-0.591737	0.0253163	0.0253149	0.000261456	-36.7905	11.7544	9.41328	7.03961	0.0681837	0.0511259	0.0852226	36.8635	32412.4	43226.5	54028.7	-53.1365	0.0000000E+000	0.0000000E+000	0.0000000E+000	53.1365	0.0000000E+000	0.0000000E+000	0.0000000E+000	-53.1365	0.0000000E+000	0.0000000E+000	0.0000000E+000	-36.8635	0.0000000E+000	0.0000000E+000	0.0000000E+000	36.8635	1.33364	53.1365	-2.57922e-06	-8.67058e-05	-2.84569e-09	-8.6703e-05	3.89889	175333	5.75444	175327
158.428	11.6481	8.71194	14.5456	-36.7939	17.8928	3.89902	-0.0165381	115.311	41.3653	1	10	0.00462686	0.000318092	0	-0.000118653	-0.000273343	6.1489e-06	10.4951	0.0193305	0.0190071	-0.00352108	-36.738	14.5588	11.6671	8.70842	0.055054	0.0411765	0.0687491	36.7939	41365.3	55306.4	69064.4	-53.2061	0.0000000E+000	0.0000000E+000	0.0000000E+000	53.2061	0.0000000E+000	0.0000000E+000	0.0000000E+000	-53.2061	0.0000000E+000	0.0000000E+000	0.0000000E+000	-36.7939	0.0000000E+000	0.0000000E+000	0.0000000E+000	36.7939	1.33702	53.2061	-2.33509e-06	-6.44825e-05	4.52058e-09	-6.4487e-05	3.89929	235759	16.528	235776
100.032	14.7909	10.3756	18.0672	-35.0491	18.7918	3.89902	-0.0173364	153.344	50.5722	1	10	0.00461941	0.000255679	0	-0.000123471	-0.000254233	3.32726e-06	-64.2275	0.0130134	0.00565823	0.0117189	-35.0692	18.0786	14.7966	10.3873	0.0453119	0.0317856	0.0553488	35.0491	50572.1	72093.1	88062.2	-54.9509	0.0000000E+000	0.0000000E+000	0.0000000E+000	54.9509	0.0000000E+000	0.0000000E+000	0.0000000E+000	-54.9509	0.0000000E+000	0.0000000E+000	0.0000000E+000	-35.0491	0.0000000E+000	0.0000000E+000	0.0000000E+000	35.0491	1.42555	54.9509	-2.32648e-06	-6.7595e-05	4.40748e-09	-6.75994e-05	3.89928	224904	14.6647	224919
63.0823	19.1253	11.5015	22.3173	-31.0216	19.96	3.89905	-0.0077554	219.361	58.2618	1	11	0.00462475	0.000207228	0	-0.000127751	-0.000311563	3.07177e-06	159.102	0.0148232	-0.0138481	-0.00528743	-31.0283	22.3027	19.1114	11.4962	0.0383996	0.0230925	0.0448084	31.0216	58261.8	96881.1	113050	-58.9784	0.0000000E+000	0.0000000E+000	0.0000000E+000	58.9784	0.0000000E+000	0.0000000E+000	0.0000000E+000	-58.9784	0.0000000E+000	0.0000000E+000	0.0000000E+000	-31.0216	0.0000000E+000	0.0000000E+000	0.0000000E+000	31.0216	1.66286	58.9784	-1.96516e-06	-3.02387e-05	2.41629e-09	-3.02411e-05	3.89937	502754	40.1737	502794
39.8089	23.727	11.1356	26.2101	-25.1417	20.8609	3.89906	-0.00787292	359.026	64.8059	1	11	0.00462653	0.000176517	0	-0.000130146	-0.000158683	8.90704e-06	2.74504	0.05046	0.0504021	-0.00241662	-25.0902	26.2547	23.7774	11.1332	0.0345385	0.0162097	0.0381532	25.1417	64805.9	138084	152535	-64.8583	0.0000000E+000	0.0000000E+000	0.0000000E+000	64.8583	0.0000000E+000	0.0000000E+000	0.0000000E+000	-64.8583	0.0000000E+000	0.0000000E+000	0.0000000E+000	-25.1417	0.0000000E+000	0.0000000E+000	0.0000000E+000	25.1417	2.13073	64.8583	-1.15791e-06	-3.0697e-05	1.2493e-09	-3.06982e-05	3.89922	495249	20.1556	495269
25.1044	28.0502	9.33754	29.5636	-18.4119	21.74	3.89906	-0.00938165	678.949	67.7312	1	11	0.00462254	0.000156359	0	-0.000132408	-0.000196903	6.13761e-06	48.3474	0.0392533	0.0260882	-0.0293296	-18.342	29.5791	28.0763	9.30821	0.0320939	0.0106836	0.0338254	18.4119	67731.2	203466	214444	-71.5881	0.0000000E+000	0.0000000E+000	0.0000000E+000	71.5881	0.0000000E+000	0.0000000E+000	0.0000000E+000	-71.5881	0.0000000E+000	0.0000000E+000	0.0000000E+000	-18.4119	0.0000000E+000	0.0000000E+000	0.0000000E+000	18.4119	3.00403	71.5881	-9.4848e-07	-3.65796e-05	1.84727e-09	-3.65814e-05	3.89925	415605	20.9881	415626
15.8576	30.9527	8.20923	32.0228	-14.8539	22.618	3.89905	-0.00812811	1222.59	80.3465	1	11	0.00461596	0.000144146	0	-0.000135696	-4.40233e-05	1.01262e-05	52.5005	0.0702496	0.0427647	-0.0557332	-14.738	32.0499	30.9955	8.1535	0.0301842	0.00800541	0.0312277	14.8539	80346.5	302944	313418	-75.1461	0.0000000E+000	0.0000000E+000	0.0000000E+000	75.1461	0.0000000E+000	0.0000000E+000	0.0000000E+000	-75.1461	0.0000000E+000	0.0000000E+000	0.0000000E+000	-14.8539	0.0000000E+000	0.0000000E+000	0.0000000E+000	14.8539	3.77047	75.1461	-1.71581e-06	-3.16919e-05	3.57826e-10	-3.16923e-05	3.8991	479700	5.41618	479706
10.0032	31.7219	5.9774	32.2801	-10.6712	23.5988	3.89906	-0.0124476	2661.76	91.2689	1	11	0.00461575	0.00014299	0	-0.000137226	3.24166e-05	9.18529e-06	-15.31	0.0642371	0.0619575	0.0169612	-10.6804	32.3442	31.7838	5.99436	0.0304431	0.00573643	0.0309788	10.6712	91268.9	484361	492885	-79.3288	0.0000000E+000	0.0000000E+000	0.0000000E+000	79.3288	0.0000000E+000	0.0000000E+000	0.0000000E+000	-79.3288	0.0000000E+000	0.0000000E+000	0.0000000E+000	-10.6712	0.0000000E+000	0.0000000E+000	0.0000000E+000	10.6712	5.30697	79.3288	-9.87301e-07	-4.8534e-05	-4.03508e-10	-4.85336e-05	3.89903	313238	2.60424	313235
6.31058	32.9389	3.59425	33.1345	-6.2274	24.5223	3.89905	-0.0111724	7016.85	82.5657	1	11	0.00461059	0.000139148	0	-0.00014036	-0.000196903	1.36321e-05	161.588	0.0979684	-0.0929535	-0.030943	-6.19154	33.0387	32.846	3.56331	0.030002	0.00327378	0.0301801	6.2274	82565.7	756660	761151	-83.7726	0.0000000E+000	0.0000000E+000	0.0000000E+000	83.7726	0.0000000E+000	0.0000000E+000	0.0000000E+000	-83.7726	0.0000000E+000	0.0000000E+000	0.0000000E+000	-6.2274	0.0000000E+000	0.0000000E+000	0.0000000E+000	6.2274	9.16433	83.7726	-1.78073e-06	-4.35619e-05	2.19988e-09	-4.35641e-05	3.89925	348989	17.624	349007
3.97785	33.4009	2.79291	33.5175	-4.77983	25.5294	3.89907	-0.00645373	14325.6	99.4687	1	11	0.00461391	0.000137657	0	-0.000140783	-0.000235123	5.97314e-06	2.85167	0.0433915	0.0433378	-0.00215875	-4.77	33.5605	33.4442	2.79076	0.0297314	0.00248608	0.0298352	4.77983	99468.7	1.18956e+06	1.19371e+06	-85.2202	0.0000000E+000	0.0000000E+000	0.0000000E+000	85.2202	0.0000000E+000	0.0000000E+000	0.0000000E+000	-85.2202	0.0000000E+000	0.0000000E+000	0.0000000E+000	-4.77983	0.0000000E+000	0.0000000E+000	0.0000000E+000	4.77983	11.9592	85.2202	-3.99706e-07	-2.51635e-05	1.51742e-09	-2.5165e-05	3.8993	604157	36.4321	604193
2.51367	33.3936	1.8306	33.4438	-3.13775	27.0889	3.89907	-0.00694495	34587.4	103.627	1	11	0.00461506	0.000137995	0	-0.000147223	-0.000216013	3.75095e-06	29.8055	0.0271819	0.0235862	-0.013511	-3.11244	33.4666	33.4172	1.81709	0.0298561	0.00163668	0.0299009	3.13775	103627	1.89036e+06	1.8932e+06	-86.8623	0.0000000E+000	0.0000000E+000	0.0000000E+000	86.8623	0.0000000E+000	0.0000000E+000	0.0000000E+000	-86.8623	0.0000000E+000	0.0000000E+000	0.0000000E+000	-3.13775	0.0000000E+000	0.0000000E+000	0.0000000E+000	3.13775	18.2419	86.8623	-3.61354e-06	-2.70788e-05	1.5002e-09	-2.70803e-05	3.89928	561425	31.1036	561456
1.58469	34.2369	1.90466	34.2899	-3.18418	29.5245	3.89908	-0.00568011	52730.3	162.691	1	11	0.00461571	0.000134609	0	-0.000149026	-0.000101353	2.86591e-06	-15.4499	0.0212907	0.0205213	0.00567173	-3.19173	34.3107	34.2574	1.91033	0.0291181	0.00161989	0.0291631	3.18418	162691	2.92442e+06	2.92895e+06	-86.8158	0.0000000E+000	0.0000000E+000	0.0000000E+000	86.8158	0.0000000E+000	0.0000000E+000	0.0000000E+000	-86.8158	0.0000000E+000	0.0000000E+000	0.0000000E+000	-3.18418	0.0000000E+000	0.0000000E+000	0.0000000E+000	3.18418	17.9754	86.8158	2.07328e-07	-2.21472e-05	5.75697e-10	-2.21478e-05	3.89918	686444	17.8435	686462
1.00469	34.9346	1.51314	34.9673	-2.48013	241.255	3.89903	-0.00647177	104691	196.038	1	11	0.00506389	0.000144818	0	-0.00113971	-4.40233e-05	6.12217e-07	20.0376	0.0042275	0.0039716	-0.0014485	-2.47748	34.9712	34.9385	1.51169	0.0285713	0.00123753	0.0285981	2.48013	196038	4.52603e+06	4.53027e+06	-87.5199	0.0000000E+000	0.0000000E+000	0.0000000E+000	87.5199	0.0000000E+000	0.0000000E+000	0.0000000E+000	-87.5199	0.0000000E+000	0.0000000E+000	0.0000000E+000	-2.48013	0.0000000E+000	0.0000000E+000	0.0000000E+000	2.48013	23.0875	87.5199	-0.000990332	-2.52336e-05	2.84908e-10	-2.52339e-05	3.89907	602467	6.80235	602474
0.632957	35.146	1.46185	35.1764	-2.38176	241.257	3.89903	-0.00647177	172006	297.06	1	11	0.00507635	0.000144311	0	-0.00113971	-4.40233e-05	5.7942e-07	-29.641	0.00401508	0.00348967	0.00198571	-2.38475	35.18	35.1495	1.46383	0.0284036	0.0011814	0.0284281	2.38176	297060	7.14198e+06	7.14816e+06	-87.6182	0.0000000E+000	0.0000000E+000	0.0000000E+000	87.6182	0.0000000E+000	0.0000000E+000	0.0000000E+000	-87.6182	0.0000000E+000	0.0000000E+000	0.0000000E+000	-2.38176	0.0000000E+000	0.0000000E+000	0.0000000E+000	2.38176	24.0422	87.6182	0.000000000000000E+000	-2.52336e-05	2.84908e-10	-2.52339e-05	3.89907	602467	6.80235	602474
0.401878	35.2416	1.68601	35.2819	-2.73903	241.258	3.89903	-0.00647177	234891	536.394	1	11	0.00509027	0.000144274	0	-0.00113971	-4.40233e-05	3.16053e-07	14.8335	0.00219064	0.00211764	-0.000560829	-2.73796	35.284	35.2437	1.68545	0.0283108	0.00135443	0.0283432	2.73903	536393	1.12119e+07	1.12247e+07	-87.261	0.0000000E+000	0.0000000E+000	0.0000000E+000	87.261	0.0000000E+000	0.0000000E+000	0.0000000E+000	-87.261	0.0000000E+000	0.0000000E+000	0.0000000E+000	-2.73903	0.0000000E+000	0.0000000E+000	0.0000000E+000	2.73903	20.9023	87.261	0.000000000000000E+000	-2.52336e-05	2.84908e-10	-2.52339e-05	3.89907	602467	6.80235	602474
0.251173	35.8498	1.90903	35.9006	-3.04818	241.26	3.89903	-0.00647177	331919	938.55	1	11	0.00509122	0.000141815	0	-0.00113971	-4.40233e-05	4.7589e-07	-4.50441	0.00335572	0.00334536	0.000263545	-3.04831	35.9039	35.8531	1.9093	0.0278153	0.00148119	0.0278547	3.04818	938549	1.7625e+07	1.765e+07	-86.9518	0.0000000E+000	0.0000000E+000	0.0000000E+000	86.9518	0.0000000E+000	0.0000000E+000	0.0000000E+000	-86.9518	0.0000000E+000	0.0000000E+000	0.0000000E+000	-3.04818	0.0000000E+000	0.0000000E+000	0.0000000E+000	3.04818	18.779	86.9518	0.000000000000000E+000	-2.52336e-05	2.84908e-10	-2.52339e-05	3.89907	602467	6.80235	602474
0.160751	36.2175	2.12061	36.2795	-3.35097	241.261	3.89903	-0.00647177	466880	1595.16	1	11	0.00508753	0.000140232	0	-0.00113971	-4.40233e-05	3.03174e-07	3.87612	0.00216195	0.00215701	-0.000146147	-3.35054	36.2816	36.2196	2.12046	0.0275167	0.00161116	0.0275638	3.35097	1.59516e+06	2.72434e+07	2.72901e+07	-86.649	0.0000000E+000	0.0000000E+000	0.0000000E+000	86.649	0.0000000E+000	0.0000000E+000	0.0000000E+000	-86.649	0.0000000E+000	0.0000000E+000	0.0000000E+000	-3.35097	0.0000000E+000	0.0000000E+000	0.0000000E+000	3.35097	17.0788	86.649	0.000000000000000E+000	-2.52336e-05	2.84908e-10	-2.52339e-05	3.89907	602467	6.80235	602474
0.100469	36.5393	3.08372	36.6691	-4.82404	241.263	3.89903	-0.00647177	513702	3632.96	1	11	0.00508874	0.000138774	0	-0.00113971	-4.40233e-05	6.64373e-07	-46.2416	0.00478744	0.00331108	0.00345779	-4.82898	36.6727	36.5426	3.08718	0.0271743	0.00229337	0.0272709	4.82404	3.63296e+06	4.30472e+07	4.32002e+07	-85.176	0.0000000E+000	0.0000000E+000	0.0000000E+000	85.176	0.0000000E+000	0.0000000E+000	0.0000000E+000	-85.176	0.0000000E+000	0.0000000E+000	0.0000000E+000	-4.82404	0.0000000E+000	0.0000000E+000	0.0000000E+000	4.82404	11.8491	85.176	0.000000000000000E+000	-2.52336e-05	2.84908e-10	-2.52339e-05	3.89907	602467	6.80235	602474
0.0602816	37.1575	3.84802	37.3563	-5.91245	241.264	3.89903	-0.00647177	686117	7280.24	1	11	0.00508393	0.000136093	0	-0.00113971	-4.40233e-05	5.3283e-07	4.63621	0.00391519	0.00390238	-0.00031646	-5.91135	37.3601	37.1614	3.8477	0.0266269	0.00275747	0.0267693	5.91245	7.28023e+06	7.03e+07	7.0676e+07	-84.0876	0.0000000E+000	0.0000000E+000	0.0000000E+000	84.0876	0.0000000E+000	0.0000000E+000	0.0000000E+000	-84.0876	0.0000000E+000	0.0000000E+000	0.0000000E+000	-5.91245	0.0000000E+000	0.0000000E+000	0.0000000E+000	5.91245	9.65628	84.0876	0.000000000000000E+000	-2.52336e-05	2.84908e-10	-2.52339e-05	3.89907	602467	6.80235	602474
0.0401878	38.4436	5.01118	38.7688	-7.42672	241.266	3.89903	-0.00647177	790289	13203.9	1	11	0.00508381	0.000131131	0	-0.00113971	-4.40233e-05	5.99748e-07	-11.4063	0.00457363	0.0044833	0.000904508	-7.42719	38.7734	38.4481	5.01209	0.0255775	0.00333408	0.0257939	7.42672	1.32039e+07	1.01294e+08	1.02151e+08	-82.5733	0.0000000E+000	0.0000000E+000	0.0000000E+000	82.5733	0.0000000E+000	0.0000000E+000	0.0000000E+000	-82.5733	0.0000000E+000	0.0000000E+000	0.0000000E+000	-7.42672	0.0000000E+000	0.0000000E+000	0.0000000E+000	7.42672	7.67156	82.5733	0.000000000000000E+000	-2.52336e-05	2.84908e-10	-2.52339e-05	3.89907	602467	6.80235	602474
0.0200939	40.7371	8.46029	41.6063	-11.7324	241.267	3.89903	-0.00647177	936206	38709.9	1	11	0.00508325	0.000122175	0	-0.00113971	-4.40233e-05	7.57208e-07	12.3278	0.00619774	0.00605483	-0.00132324	-11.7289	41.612	40.7432	8.45896	0.0235327	0.00488727	0.0240348	11.7324	3.87099e+07	1.86392e+08	1.90369e+08	-78.2676	0.0000000E+000	0.0000000E+000	0.0000000E+000	78.2676	0.0000000E+000	0.0000000E+000	0.0000000E+000	-78.2676	0.0000000E+000	0.0000000E+000	0.0000000E+000	-11.7324	0.0000000E+000	0.0000000E+000	0.0000000E+000	11.7324	4.8151	78.2676	0.000000000000000E+000	-2.52336e-05	2.84908e-10	-2.52339e-05	3.89907	602467	6.80235	602474
0.00796479	36.5094	9.77229	37.7946	-14.9848	20330.2	3.89904	-0.00169201	2.04479e+06	136704	1	11	0.00507488	0.000134275	0	-0.0175383	0.000127966	2.45271e-07	-34.1978	0.00182663	0.00151081	0.00102666	-14.9857	37.7963	36.5109	9.77332	0.0255591	0.00684127	0.0264588	14.9848	1.36704e+08	5.10729e+08	5.28708e+08	-75.0152	0.0000000E+000	0.0000000E+000	0.0000000E+000	75.0152	0.0000000E+000	0.0000000E+000	0.0000000E+000	-75.0152	0.0000000E+000	0.0000000E+000	0.0000000E+000	-14.9848	0.0000000E+000	0.0000000E+000	0.0000000E+000	14.9848	3.73601	75.0152	-0.0163986	-6.59721e-06	-2.1652e-10	-6.59699e-06	3.89891	2.30438e+06	75.6298	2.30431e+06
0.00497799	40.8193	9.85383	41.9919	-13.5716	20330.2	3.89904	-0.00169201	3.2446e+06	178665	1	11	0.0050835	0.000121059	0	-0.0175383	0.000127966	4.36278e-07	1.09427	0.00360384	0.00360318	-6.88243e-05	-13.5704	41.9954	40.8229	9.85376	0.0231492	0.00558823	0.0238141	13.5716	1.78665e+08	7.40119e+08	7.61379e+08	-76.4284	0.0000000E+000	0.0000000E+000	0.0000000E+000	76.4284	0.0000000E+000	0.0000000E+000	0.0000000E+000	-76.4284	0.0000000E+000	0.0000000E+000	0.0000000E+000	-13.5716	0.0000000E+000	0.0000000E+000	0.0000000E+000	13.5716	4.14249	76.4284	0.000000000000000E+000	-6.59721e-06	-2.1652e-10	-6.59699e-06	3.89891	2.30438e+06	75.6298	2.30431e+06
0.00318591	43.012	13.0947	44.9611	-16.9326	20330.2	3.89904	-0.00169201	3.81495e+06	323600	1	11	0.00508501	0.000113098	0	-0.0175383	0.000127966	2.93167e-07	10.2782	0.00259216	0.00255056	-0.000462514	-16.931	44.9635	43.0146	13.0943	0.0212772	0.00647772	0.0222414	16.9326	3.236e+08	1.06292e+09	1.11109e+09	-73.0674	0.0000000E+000	0.0000000E+000	0.0000000E+000	73.0674	0.0000000E+000	0.0000000E+000	0.0000000E+000	-73.0674	0.0000000E+000	0.0000000E+000	0.0000000E+000	-16.9326	0.0000000E+000	0.0000000E+000	0.0000000E+000	16.9326	3.28468	73.0674	0.000000000000000E+000	-6.59721e-06	-2.1652e-10	-6.59699e-06	3.89891	2.30438e+06	75.6298	2.30431e+06
0.0019912	45.9371	14.4384	48.1527	-17.4484	20330.2	3.89904	-0.00169201	5.53587e+06	497719	1	11	0.00508988	0.000105703	0	-0.0175383	0.000127966	2.95996e-07	6.32499	0.00280027	0.00278322	-0.000308499	-17.447	48.1553	45.9399	14.4381	0.0198117	0.00622699	0.0207673	17.4484	4.97719e+08	1.58354e+09	1.65991e+09	-72.5516	0.0000000E+000	0.0000000E+000	0.0000000E+000	72.5516	0.0000000E+000	0.0000000E+000	0.0000000E+000	-72.5516	0.0000000E+000	0.0000000E+000	0.0000000E+000	-17.4484	0.0000000E+000	0.0000000E+000	0.0000000E+000	17.4484	3.18159	72.5516	0.000000000000000E+000	-6.59721e-06	-2.1652e-10	-6.59699e-06	3.89891	2.30438e+06	75.6298	2.30431e+06
0.00129428	47.0781	15.1316	49.4501	-17.8182	20330.2	3.89904	-0.00169201	8.12656e+06	760930	1	11	0.00509007	0.000102933	0	-0.0175383	0.000127966	8.88989e-07	-59.6604	0.00863654	0.00436252	0.00745374	-17.8249	49.4565	47.0824	15.1391	0.0192524	0.00618802	0.0202224	17.8182	7.6093e+08	2.36743e+09	2.48671e+09	-72.1818	0.0000000E+000	0.0000000E+000	0.0000000E+000	72.1818	0.0000000E+000	0.0000000E+000	0.0000000E+000	-72.1818	0.0000000E+000	0.0000000E+000	0.0000000E+000	-17.8182	0.0000000E+000	0.0000000E+000	0.0000000E+000	17.8182	3.11123	72.1818	0.000000000000000E+000	-6.59721e-06	-2.1652e-10	-6.59699e-06	3.89891	2.30438e+06	75.6298	2.30431e+06
0.000796479	50.8892	18.5152	54.1528	-19.9931	20330.2	3.89904	-0.00169201	1.07924e+07	1.26164e+06	1	11	0.00508936	9.39815e-05	0	-0.0175383	0.000127966	1.16058e-06	69.4072	0.012349	0.00434343	-0.0115599	-19.9801	54.1529	50.8935	18.5037	0.0173534	0.00631376	0.0184663	19.9931	1.26164e+09	3.46761e+09	3.68999e+09	-70.0069	0.0000000E+000	0.0000000E+000	0.0000000E+000	70.0069	0.0000000E+000	0.0000000E+000	0.0000000E+000	-70.0069	0.0000000E+000	0.0000000E+000	0.0000000E+000	-19.9931	0.0000000E+000	0.0000000E+000	0.0000000E+000	19.9931	2.7485	70.0069	0.000000000000000E+000	-6.59721e-06	-2.1652e-10	-6.59699e-06	3.89891	2.30438e+06	75.6298	2.30431e+06
0.000497799	48.6722	23.086	53.8697	-25.3757	20330.2	3.89904	-0.00169201	1.3849e+07	2.54346e+06	1	11	0.00508997	9.44867e-05	0	-0.0175383	0.000127966	2.12544e-06	-61.4911	0.0224946	0.0107366	0.019767	-25.3898	53.8878	48.6829	23.1057	0.0167723	0.00795535	0.0185633	25.3757	2.54346e+09	5.36239e+09	5.93501e+09	-64.6243	0.0000000E+000	0.0000000E+000	0.0000000E+000	64.6243	0.0000000E+000	0.0000000E+000	0.0000000E+000	-64.6243	0.0000000E+000	0.0000000E+000	0.0000000E+000	-25.3757	0.0000000E+000	0.0000000E+000	0.0000000E+000	25.3757	2.1083	64.6243	0.000000000000000E+000	-6.59721e-06	-2.1652e-10	-6.59699e-06	3.89891	2.30438e+06	75.6298	2.30431e+06
0.000298679	48.9531	36.2091	60.8893	-36.4892	20330.2	3.89904	-0.00169201	1.47162e+07	5.20416e+06	1	11	0.00509101	8.3611e-05	0	-0.0175383	0.000127966	2.80124e-06	-92.4917	0.0335032	-0.00145653	0.0334715	-36.5154	60.908	48.9516	36.2426	0.0132038	0.00976644	0.0164232	36.4892	5.20417e+09	7.03579e+09	8.75132e+09	-53.5108	0.0000000E+000	0.0000000E+000	0.0000000E+000	53.5108	0.0000000E+000	0.0000000E+000	0.0000000E+000	-53.5108	0.0000000E+000	0.0000000E+000	0.0000000E+000	-36.4892	0.0000000E+000	0.0000000E+000	0.0000000E+000	36.4892	1.35195	53.5108	0.000000000000000E+000	-6.59721e-06	-2.1652e-10	-6.59699e-06	3.89891	2.30438e+06	75.6298	2.30431e+06
9.95598e-05	68.1708	113.037	132.003	-58.9066	20330.2	3.89904	-0.00169201	1.41421e+07	1.03703e+07	1	11	0.00508809	3.85454e-05	0	-0.0175383	0.000127966	4.76346e-06	-39.631	0.123581	0.0951778	0.0788247	-58.8889	132.119	68.2659	113.116	0.00391231	0.00648719	0.00757561	58.9066	1.03703e+10	6.25416e+09	1.21103e+10	-31.0934	0.0000000E+000	0.0000000E+000	0.0000000E+000	31.0934	0.0000000E+000	0.0000000E+000	0.0000000E+000	-31.0934	0.0000000E+000	0.0000000E+000	0.0000000E+000	-58.9066	0.0000000E+000	0.0000000E+000	0.0000000E+000	58.9066	0.603082	31.0934	0.000000000000000E+000	-6.59721e-06	-2.1652e-10	-6.59699e-06	3.89891	2.30438e+06	75.6298	2.30431e+06