File: txt/19363_R311_UC99_SOC50_C02.mpt
EC-Lab ASCII FILE
Nb header lines : 65

Potentio Electrochemical Impedance Spectroscopy

Run on channel : 2 (SN 66139)
User :
CE vs. WE compliance from -10 V to 10 V
Electrode connection : standard
Potential control : Ewe
Ewe ctrl range : min = -10.00 V, max = 10.00 V
Safety Limits :
	Do not start on E overload
Acquisition started on : 11/19/2025 16:14:31.776
Technique started on : 11/19/2025 16:14:34.010
Loaded Setting File :  C:\Users\Celltest\OneDrive - store-dot.com\Documents\EC-Lab\Data\txt_done\19191_R297_UC94_SOC50_C08.mpr
Saved on :
	File : 19363_R311_UC99_SOC50_C02.mpr
	Directory : C:\Users\Celltest\OneDrive - store-dot.com\Documents\EC-Lab\Data\Michael\
	Host : 169.254.61.224
Device : VMP-3e (SN .003165)
Address : USB
EC-LAB for windows v11.62 (software)
Internet server v27.00 (firmware)
Command interpretor v12.03 (firmware)
Electrode material :
Initial state :
Electrolyte :
Comments :
Electrode surface area : 0.001 cm²
Characteristic mass : 0.001 g
Equivalent Weight : 0.000 g/eq.
Density : 0.000 g/cm3
Volume (V) : 0.001 cm³
Record Ece
Cycle Definition : Charge/Discharge alternance
Mode                Multi sine
E (V)               0.0000
vs.                 Eoc
tE (h:m:s)          0:00:0.0000
record              0
dI                  0.000
unit dI             mA
dt (s)              0.000
fi                  1.000
unit fi             MHz
ff                  0.100
unit ff             mHz
Nd                  10
Points              per decade
spacing             Logarithmic
Va (mV)             5.0
pw                  0.10
Na                  2
corr                0
E range min (V)     -10.000
E range max (V)     10.000
I Range             Auto
Bandwidth           5
nc cycles           0
goto Ns'            0
nr cycles           0
inc. cycle          0

freq/Hz	Re(Z)/Ohm	-Im(Z)/Ohm	|Z|/Ohm	Phase(Z)/deg	time/s	<Ewe>/V	<I>/mA	Cs/µF	Cp/µF	cycle number	I Range	|Ewe|/V	|I|/A	Ns	(Q-Qo)/mA.h	<Ece>/V	|Ece|/V	Phase(Zce)/deg	|Zce|/Ohm	Re(Zce)/Ohm	-Im(Zce)/Ohm	Phase(Zwe-ce)/deg	|Zwe-ce|/Ohm	Re(Zwe-ce)/Ohm	-Im(Zwe-ce)/Ohm	Re(Y)/Ohm-1	Im(Y)/Ohm-1	|Y|/Ohm-1	Phase(Y)/deg	Re(C)/nF	Im(C)/nF	|C|/nF	Phase(C)/deg	Re(M)	Im(M)	|M|	Phase(M)/deg	Re(Permittivity)	Im(Permittivity)	|Permittivity|	Phase(Permittivity)/deg	Re(Resistivity)/Ohm.cm	Im(Resistivity)/Ohm.cm	|Resistivity|/Ohm.cm	Phase(Resistivity)/deg	Re(Conductivity)/mS/cm	Im(Conductivity)/mS/cm	|Conductivity|/mS/cm	Phase(Conductivity)/deg	Tan(Delta)	Loss Angle(Delta)/deg	dq/mA.h	Pwe/W	Pce/W	Pwe-ce/W	<Ewe-Ece>/V	Rwe/Ohm	Rce/Ohm	Rwe-ce/Ohm		Ewe-Ece/V
1.00002e+06	2.47849	2.47196	3.5005	-44.9243	2.23355	3.90047	-0.045846	0.064383	0.0321065	1	10	0.00023238	6.63849e-05	0	-2.02394e-05	-0.000169948	0.000187259	-65.6437	2.82081	1.16333	2.56975	-54.1579	6.21946	3.64182	5.04171	0.202268	0.201735	0.285674	44.9243	32.1065	32.1914	45.4655	-45.0757	0.0000000E+000	0.0000000E+000	0.0000000E+000	45.0757	0.0000000E+000	0.0000000E+000	0.0000000E+000	-45.0757	0.0000000E+000	0.0000000E+000	0.0000000E+000	-44.9243	0.0000000E+000	0.0000000E+000	0.0000000E+000	44.9243	1.00264	45.0757	-2.02394e-05	-0.000178821	7.79143e-09	-0.000178829	3.90064	85077.5	3.70692	85081.2
630957	1.0781	-0.059085	1.07972	3.13695	3.40255	3.90038	-0.0433893	-4.26917	-0.0127843	1	9	0.000384604	0.000356208	0	-3.16733e-05	-5.54027e-05	0.00011222	-82.3433	0.31504	0.0419751	0.312231	-12.7354	1.14832	1.12007	0.253146	0.92478	-0.0506824	0.926168	-3.13695	-12.7843	233.27	233.62	-93.1369	0.0000000E+000	0.0000000E+000	0.0000000E+000	93.1369	0.0000000E+000	0.0000000E+000	0.0000000E+000	-93.1369	0.0000000E+000	0.0000000E+000	0.0000000E+000	3.13695	0.0000000E+000	0.0000000E+000	0.0000000E+000	-3.13695	18.2466	86.8631	-3.6725e-06	-0.000169235	2.40388e-09	-0.000169237	3.90044	89892.8	1.27688	89894
398103	1.40212	0.132801	1.4084	-5.41059	4.16851	3.90054	-0.0353069	3.01039	0.0267655	1	9	0.00136243	0.000967366	0	-3.72025e-05	0.000192778	4.41372e-05	-165.409	0.0456262	-0.0441548	0.0114937	-6.06537	1.36561	1.35797	0.144295	0.706864	0.0669501	0.710028	5.41059	26.7655	282.592	283.857	-84.5894	0.0000000E+000	0.0000000E+000	0.0000000E+000	84.5894	0.0000000E+000	0.0000000E+000	0.0000000E+000	-84.5894	0.0000000E+000	0.0000000E+000	0.0000000E+000	-5.41059	0.0000000E+000	0.0000000E+000	0.0000000E+000	5.41059	10.5581	84.5894	-2.17859e-06	-0.000137716	-6.8064e-09	-0.000137709	3.90034	110475	5.46007	110470
251206	1.56185	0.355968	1.6019	-12.8393	4.93452	3.90048	-0.0278949	1.77983	0.0878883	1	9	0.00416507	0.00260009	0	-4.25714e-05	-0.000246311	2.39178e-05	98.4703	0.00919886	-0.00135496	-0.00909852	-12.5321	1.59858	1.56049	0.34687	0.608651	0.138721	0.624259	12.8393	87.8883	385.619	395.508	-77.1607	0.0000000E+000	0.0000000E+000	0.0000000E+000	77.1607	0.0000000E+000	0.0000000E+000	0.0000000E+000	-77.1607	0.0000000E+000	0.0000000E+000	0.0000000E+000	-12.8393	0.0000000E+000	0.0000000E+000	0.0000000E+000	12.8393	4.3876	77.1607	-2.45537e-06	-0.000108803	6.87083e-09	-0.00010881	3.90072	139828	8.82997	139836
158486	1.71781	0.500357	1.78919	-16.2396	5.70052	3.9004	-0.0248407	2.00701	0.156962	1	9	0.00539996	0.0030181	0	-5.59583e-05	-0.000131766	2.07817e-05	104.744	0.0068857	-0.00175242	-0.00665897	-16.0502	1.78566	1.71605	0.493698	0.536611	0.156302	0.558911	16.2396	156.962	538.875	561.27	-73.7604	0.0000000E+000	0.0000000E+000	0.0000000E+000	73.7604	0.0000000E+000	0.0000000E+000	0.0000000E+000	-73.7604	0.0000000E+000	0.0000000E+000	0.0000000E+000	-16.2396	0.0000000E+000	0.0000000E+000	0.0000000E+000	16.2396	3.43316	73.7604	-1.02962e-05	-9.68888e-05	3.27317e-09	-9.68921e-05	3.90053	157016	5.30444	157022
100004	1.89394	0.600208	1.98677	-17.5839	6.46655	3.90038	-0.0209299	2.65156	0.241998	1	9	0.005452	0.00274416	0	-7.04212e-05	0.000307323	2.07874e-05	108.484	0.00757516	-0.00240165	-0.00718437	-17.407	1.98232	1.89153	0.593024	0.479812	0.152058	0.50333	17.5839	241.998	763.617	801.045	-72.4161	0.0000000E+000	0.0000000E+000	0.0000000E+000	72.4161	0.0000000E+000	0.0000000E+000	0.0000000E+000	-72.4161	0.0000000E+000	0.0000000E+000	0.0000000E+000	-17.5839	0.0000000E+000	0.0000000E+000	0.0000000E+000	17.5839	3.15547	72.4161	-2.44821e-06	-8.16346e-05	-6.43225e-09	-8.16282e-05	3.90008	186355	14.6835	186340
63093.8	2.08232	0.706616	2.19895	-18.7442	7.23256	3.90037	-0.0218983	3.56985	0.368627	1	9	0.00549652	0.00249962	0	-6.90957e-05	-0.000303584	1.54439e-05	67.9125	0.0061785	0.00232325	-0.00572507	-18.5835	2.19931	2.08464	0.70089	0.430644	0.146135	0.454763	18.7442	368.627	1086.31	1147.15	-71.2558	0.0000000E+000	0.0000000E+000	0.0000000E+000	71.2558	0.0000000E+000	0.0000000E+000	0.0000000E+000	-71.2558	0.0000000E+000	0.0000000E+000	0.0000000E+000	-18.7442	0.0000000E+000	0.0000000E+000	0.0000000E+000	18.7442	2.94689	71.2558	3.32984e-06	-8.54115e-05	6.64797e-09	-8.54182e-05	3.90067	178113	13.8633	178127
39814.1	2.30828	0.785954	2.43841	-18.8034	8.12452	3.90038	-0.0125868	5.08612	0.528404	1	9	0.00543448	0.00222869	0	-7.18435e-05	5.91423e-05	1.40038e-05	25.9312	0.00628341	0.00565079	-0.00274769	-18.6997	2.44288	2.31393	0.783207	0.388215	0.132185	0.410102	18.8034	528.403	1551.87	1639.37	-71.1966	0.0000000E+000	0.0000000E+000	0.0000000E+000	71.1966	0.0000000E+000	0.0000000E+000	0.0000000E+000	-71.1966	0.0000000E+000	0.0000000E+000	0.0000000E+000	-18.8034	0.0000000E+000	0.0000000E+000	0.0000000E+000	18.8034	2.93691	71.1966	-3.06481e-06	-4.90935e-05	-7.44415e-10	-4.90927e-05	3.90032	309878	4.69874	309873
25116.9	2.54016	0.883358	2.68937	-19.1755	8.76653	3.90038	-0.0179875	7.17327	0.773907	1	9	0.004592	0.00170746	0	-6.90079e-05	1.86979e-06	1.67585e-05	-22.6897	0.00981487	0.00905527	0.00378598	-19.1883	2.69917	2.54921	0.887144	0.351203	0.122133	0.371834	19.1755	773.907	2225.42	2356.15	-70.8245	0.0000000E+000	0.0000000E+000	0.0000000E+000	70.8245	0.0000000E+000	0.0000000E+000	0.0000000E+000	-70.8245	0.0000000E+000	0.0000000E+000	0.0000000E+000	-19.1755	0.0000000E+000	0.0000000E+000	0.0000000E+000	19.1755	2.87557	70.8245	-6.47012e-07	-7.01582e-05	-3.36329e-11	-7.01581e-05	3.90038	216838	0.103949	216838
15847.7	2.79004	1.01844	2.9701	-20.0534	9.53253	3.90038	-0.0151941	9.861	1.15943	1	9	0.00497012	0.00167338	0	-7.41061e-05	5.91423e-05	7.61106e-06	-127.382	0.00454831	-0.00276139	0.00361412	-20.1372	2.96875	2.78728	1.02205	0.316276	0.115449	0.336689	20.0534	1159.43	3176.3	3381.29	-69.9466	0.0000000E+000	0.0000000E+000	0.0000000E+000	69.9466	0.0000000E+000	0.0000000E+000	0.0000000E+000	-69.9466	0.0000000E+000	0.0000000E+000	0.0000000E+000	-20.0534	0.0000000E+000	0.0000000E+000	0.0000000E+000	20.0534	2.73953	69.9466	-2.90871e-06	-5.92626e-05	-8.98613e-10	-5.92617e-05	3.90032	256704	3.89246	256700
10002.2	3.0837	1.16795	3.29747	-20.7442	10.1746	3.90036	-0.0350089	13.6238	1.70918	1	9	0.00502225	0.00152306	0	-7.77302e-05	0.000116415	1.24758e-05	-95.8204	0.00819126	-0.000830679	0.00814903	-20.8817	3.29959	3.08286	1.1761	0.283603	0.107415	0.303263	20.7442	1709.18	4512.67	4825.51	-69.2558	0.0000000E+000	0.0000000E+000	0.0000000E+000	69.2558	0.0000000E+000	0.0000000E+000	0.0000000E+000	-69.2558	0.0000000E+000	0.0000000E+000	0.0000000E+000	-20.7442	0.0000000E+000	0.0000000E+000	0.0000000E+000	20.7442	2.64026	69.2558	-1.26753e-06	-0.000136547	-4.07555e-09	-0.000136543	3.90024	111410	3.32529	111407
6309.38	3.3975	1.33543	3.65053	-21.4579	10.6925	3.90035	-0.0291613	18.8891	2.52779	1	9	0.00482392	0.00132143	0	-8.29542e-05	-0.000150857	1.56771e-05	53.0605	0.0118637	0.00712976	-0.00948233	-21.2786	3.65372	3.40463	1.32595	0.254945	0.100209	0.273933	21.4579	2527.79	6431.03	6909.98	-68.5421	0.0000000E+000	0.0000000E+000	0.0000000E+000	68.5421	0.0000000E+000	0.0000000E+000	0.0000000E+000	-68.5421	0.0000000E+000	0.0000000E+000	0.0000000E+000	-21.4579	0.0000000E+000	0.0000000E+000	0.0000000E+000	21.4579	2.54413	68.5421	-2.88044e-06	-0.000113739	4.39918e-09	-0.000113744	3.9005	133751	5.17319	133756
3983.6	3.74508	1.56904	4.06048	-22.7318	11.4341	3.9003	-0.0488485	25.463	3.8021	1	10	0.00492796	0.00121364	0	-9.09946e-05	0.000173687	9.19547e-06	-123.676	0.00757678	-0.00420128	0.0063053	-22.8368	4.05905	3.74088	1.57535	0.227146	0.0951655	0.246276	22.7318	3802.1	9075.08	9839.36	-67.2682	0.0000000E+000	0.0000000E+000	0.0000000E+000	67.2682	0.0000000E+000	0.0000000E+000	0.0000000E+000	-67.2682	0.0000000E+000	0.0000000E+000	0.0000000E+000	-22.7318	0.0000000E+000	0.0000000E+000	0.0000000E+000	22.7318	2.38686	67.2682	-6.68316e-06	-0.000190524	-8.48437e-09	-0.000190516	3.90013	79844.9	3.55563	79841.3
2510.8	4.16543	1.8566	4.56046	-24.0233	12.2588	3.90031	-0.0351211	34.142	5.6586	1	10	0.00485284	0.00106411	0	-9.81106e-05	-0.000150857	7.64356e-06	-68.1812	0.00718304	0.00266974	0.00666848	-24.0861	4.56562	4.1681	1.86327	0.200282	0.0892692	0.219276	24.0233	5658.6	12695.5	13899.5	-65.9767	0.0000000E+000	0.0000000E+000	0.0000000E+000	65.9767	0.0000000E+000	0.0000000E+000	0.0000000E+000	-65.9767	0.0000000E+000	0.0000000E+000	0.0000000E+000	-24.0233	0.0000000E+000	0.0000000E+000	0.0000000E+000	24.0233	2.24358	65.9767	-3.4858e-06	-0.000136983	5.29826e-09	-0.000136989	3.90047	111053	4.29534	111058
1585.51	4.65534	2.22172	5.15832	-25.5124	13.1598	3.90031	-0.0344357	45.1817	8.38156	1	10	0.00478271	0.000927184	0	-0.000106828	0.000173687	1.24336e-05	-79.8572	0.0134101	0.00236154	0.0132005	-25.6332	5.16615	4.6577	2.23492	0.174959	0.0834974	0.193862	25.5124	8381.56	17562.5	19460	-64.4876	0.0000000E+000	0.0000000E+000	0.0000000E+000	64.4876	0.0000000E+000	0.0000000E+000	0.0000000E+000	-64.4876	0.0000000E+000	0.0000000E+000	0.0000000E+000	-25.5124	0.0000000E+000	0.0000000E+000	0.0000000E+000	25.5124	2.09538	64.4876	-4.72799e-06	-0.00013431	-5.98104e-09	-0.000134304	3.90013	113264	5.04382	113259
1000.32	5.24135	2.71523	5.9029	-27.3859	14.0618	3.90031	-0.0335118	58.597	12.3981	1	10	0.0047447	0.000803792	0	-0.000115521	4.00515e-05	7.17146e-06	20.6515	0.00892203	0.00834873	-0.00314664	-27.3216	5.90887	5.2497	2.71208	0.150422	0.0779248	0.169408	27.3859	12398.1	23932.8	26953.5	-62.6141	0.0000000E+000	0.0000000E+000	0.0000000E+000	62.6141	0.0000000E+000	0.0000000E+000	0.0000000E+000	-62.6141	0.0000000E+000	0.0000000E+000	0.0000000E+000	-27.3859	0.0000000E+000	0.0000000E+000	0.0000000E+000	27.3859	1.93035	62.6141	-4.62929e-06	-0.000130707	-1.3422e-09	-0.000130705	3.90027	116386	1.19514	116385
631.01	5.972	3.34826	6.84658	-29.2776	14.9626	3.9003	-0.0336869	75.3294	18.0159	1	10	0.00471142	0.000688143	0	-0.000123205	-5.54027e-05	5.35751e-06	49.6923	0.00778547	0.00503636	-0.00593705	-29.2137	6.84807	5.97703	3.34233	0.127401	0.0714287	0.146058	29.2776	18015.9	32133.4	36839.2	-60.7224	0.0000000E+000	0.0000000E+000	0.0000000E+000	60.7224	0.0000000E+000	0.0000000E+000	0.0000000E+000	-60.7224	0.0000000E+000	0.0000000E+000	0.0000000E+000	-29.2776	0.0000000E+000	0.0000000E+000	0.0000000E+000	29.2776	1.78361	60.7224	-3.58574e-06	-0.000131389	1.86635e-09	-0.000131391	3.90036	115781	1.64464	115783
398.089	6.97807	4.13556	8.11149	-30.6531	15.8638	3.90031	-0.0320888	96.673	25.1288	1	10	0.00470172	0.000579636	0	-0.000131111	-5.54027e-05	1.60578e-05	33.1491	0.0277032	0.0231945	-0.0151486	-30.4778	8.12376	7.00127	4.12041	0.106056	0.062854	0.123282	30.6531	25128.8	42400.7	49287.7	-59.3469	0.0000000E+000	0.0000000E+000	0.0000000E+000	59.3469	0.0000000E+000	0.0000000E+000	0.0000000E+000	-59.3469	0.0000000E+000	0.0000000E+000	0.0000000E+000	-30.6531	0.0000000E+000	0.0000000E+000	0.0000000E+000	30.6531	1.68733	59.3468	-3.63423e-06	-0.000125156	1.77781e-09	-0.000125158	3.90036	121547	1.72655	121549
251.044	8.36098	5.0575	9.77161	-31.1694	16.762	3.90031	-0.0326252	125.353	33.5794	1	10	0.00468983	0.000479945	0	-0.000139567	5.91423e-05	7.98104e-06	-34.7787	0.0166291	0.0136585	0.00948537	-31.1756	9.7882	8.37464	5.06698	0.0875639	0.0529668	0.102337	31.1694	33579.4	55513	64878.9	-58.8306	0.0000000E+000	0.0000000E+000	0.0000000E+000	58.8306	0.0000000E+000	0.0000000E+000	0.0000000E+000	-58.8306	0.0000000E+000	0.0000000E+000	0.0000000E+000	-31.1694	0.0000000E+000	0.0000000E+000	0.0000000E+000	31.1694	1.65319	58.8306	-3.99864e-06	-0.000127248	-1.92953e-09	-0.000127247	3.90025	119549	1.81278	119547
158.428	10.2232	5.87363	11.7904	-29.8791	17.6669	3.9003	-0.0315822	171.033	42.4461	1	10	0.004675	0.00039651	0	-0.000147814	-0.000150857	6.7623e-06	-7.20563	0.0170546	0.0169199	0.00213917	-29.8472	11.8061	10.2401	5.87577	0.0735411	0.0422523	0.0848149	29.8791	42446.1	73878.4	85203.8	-60.1209	0.0000000E+000	0.0000000E+000	0.0000000E+000	60.1209	0.0000000E+000	0.0000000E+000	0.0000000E+000	-60.1209	0.0000000E+000	0.0000000E+000	0.0000000E+000	-29.8791	0.0000000E+000	0.0000000E+000	0.0000000E+000	29.8791	1.74052	60.1209	-3.86712e-06	-0.00012318	4.76439e-09	-0.000123185	3.90046	123497	4.77665	123502
100.032	12.5947	6.19785	14.0371	-26.2018	18.5659	3.9003	-0.032249	256.708	50.0458	1	10	0.00467545	0.000333078	0	-0.000155734	4.00515e-05	3.1244e-06	-59.2734	0.00938038	0.00479284	0.00806352	-26.2227	14.045	12.5995	6.20592	0.0639195	0.0314548	0.0712398	26.2018	50045.8	101699	113345	-63.7982	0.0000000E+000	0.0000000E+000	0.0000000E+000	63.7982	0.0000000E+000	0.0000000E+000	0.0000000E+000	-63.7982	0.0000000E+000	0.0000000E+000	0.0000000E+000	-26.2018	0.0000000E+000	0.0000000E+000	0.0000000E+000	26.2018	2.03211	63.7982	-4.27812e-06	-0.000125781	-1.29162e-09	-0.000125779	3.90026	120943	1.24195	120942
63.0823	14.95	5.87606	16.0633	-21.4572	19.482	3.90031	-0.028859	429.365	57.4552	1	10	0.00467438	0.000290998	0	-0.000163259	-0.000112675	4.78039e-06	-104.312	0.0164276	-0.00406083	0.0159177	-21.5154	16.0653	14.9459	5.89197	0.057939	0.0227728	0.0622538	21.4572	57455.2	146179	157065	-68.5428	0.0000000E+000	0.0000000E+000	0.0000000E+000	68.5428	0.0000000E+000	0.0000000E+000	0.0000000E+000	-68.5428	0.0000000E+000	0.0000000E+000	0.0000000E+000	-21.4572	0.0000000E+000	0.0000000E+000	0.0000000E+000	21.4572	2.54422	68.5428	-3.48021e-06	-0.000112559	3.2517e-09	-0.000112563	3.90043	135151	3.90433	135154
39.8089	16.9683	5.00334	17.6905	-16.4289	20.3828	3.9003	-0.0305317	799.06	63.9172	1	10	0.00467446	0.000264235	0	-0.000170328	0.000211869	8.73038e-06	-1.98589	0.0330402	0.0330204	0.00114496	-16.4023	17.7225	17.0013	5.00449	0.0542194	0.0159874	0.0565274	16.4289	63917.2	216768	225995	-73.5711	0.0000000E+000	0.0000000E+000	0.0000000E+000	73.5711	0.0000000E+000	0.0000000E+000	0.0000000E+000	-73.5711	0.0000000E+000	0.0000000E+000	0.0000000E+000	-16.4289	0.0000000E+000	0.0000000E+000	0.0000000E+000	16.4289	3.39139	73.5711	-3.57035e-06	-0.000119083	-6.46871e-09	-0.000119076	3.90009	127746	6.93932	127739
25.1044	18.4186	3.93147	18.8335	-12.049	21.497	3.90035	-0.0256276	1612.56	70.2686	1	11	0.00467674	0.00024832	0	-0.000178457	2.09606e-05	9.34905e-06	82.268	0.0376492	0.00506532	-0.0373069	-11.9348	18.8307	18.4237	3.89416	0.0519271	0.0110839	0.0530968	12.049	70268.7	329203	336619	-77.951	0.0000000E+000	0.0000000E+000	0.0000000E+000	77.951	0.0000000E+000	0.0000000E+000	0.0000000E+000	-77.951	0.0000000E+000	0.0000000E+000	0.0000000E+000	-12.049	0.0000000E+000	0.0000000E+000	0.0000000E+000	12.049	4.68492	77.951	-3.2838e-06	-9.99564e-05	-5.3717e-10	-9.99558e-05	3.90033	152193	0.817894	152193
15.8576	19.2948	2.97461	19.5227	-8.7641	22.375	3.90036	-0.0254713	3374.06	78.3308	1	11	0.00467598	0.000239515	0	-0.000184646	4.00515e-05	2.05252e-06	-6.57671	0.00856948	0.00851309	0.000981492	-8.76314	19.5313	19.3033	2.97559	0.0506243	0.00780457	0.0512223	8.7641	78330.8	508092	514094	-81.2359	0.0000000E+000	0.0000000E+000	0.0000000E+000	81.2359	0.0000000E+000	0.0000000E+000	0.0000000E+000	-81.2359	0.0000000E+000	0.0000000E+000	0.0000000E+000	-8.7641	0.0000000E+000	0.0000000E+000	0.0000000E+000	8.7641	6.48649	81.2359	-2.93321e-06	-9.93475e-05	-1.02016e-09	-9.93465e-05	3.90032	153128	1.57241	153126
10.0032	19.8115	2.18193	19.9313	-6.28493	23.3558	3.90035	-0.0249948	7291.89	87.3881	1	11	0.00466768	0.000234189	0	-0.000191101	0.00023096	8.54896e-06	42.8148	0.0365046	0.0267781	-0.0248097	-6.2057	19.9552	19.8383	2.15712	0.0498709	0.00549252	0.0501724	6.28493	87388.2	793466	798263	-83.7151	0.0000000E+000	0.0000000E+000	0.0000000E+000	83.7151	0.0000000E+000	0.0000000E+000	0.0000000E+000	-83.7151	0.0000000E+000	0.0000000E+000	0.0000000E+000	-6.28493	0.0000000E+000	0.0000000E+000	0.0000000E+000	6.28493	9.07979	83.7151	-4.51752e-06	-9.74886e-05	-5.77281e-09	-9.74828e-05	3.90012	156046	9.24031	156037
6.31058	20.1414	1.59641	20.2046	-4.53179	24.2783	3.90035	-0.0248781	15798.1	98.6266	1	11	0.00466069	0.000230675	0	-0.000197654	-0.000131766	8.68155e-06	109.43	0.0376355	-0.0125197	-0.0354921	-4.43419	20.1894	20.1289	1.56092	0.0493389	0.0039106	0.0494936	4.53179	98626.5	1.24434e+06	1.24825e+06	-85.4682	0.0000000E+000	0.0000000E+000	0.0000000E+000	85.4682	0.0000000E+000	0.0000000E+000	0.0000000E+000	-85.4682	0.0000000E+000	0.0000000E+000	0.0000000E+000	-4.53179	0.0000000E+000	0.0000000E+000	0.0000000E+000	4.53179	12.6167	85.4682	-4.72629e-06	-9.70335e-05	3.2781e-09	-9.70368e-05	3.90049	156778	5.29646	156784
3.97785	20.3908	1.24568	20.4288	-3.49587	25.2853	3.90036	-0.0234745	32119.3	119.424	1	11	0.00466723	0.000228463	0	-0.000201093	-0.000131766	4.659e-06	-22.3376	0.0203928	0.0188625	0.00775057	-3.51432	20.4481	20.4097	1.25343	0.0488594	0.00298483	0.0489505	3.49587	119424	1.95488e+06	1.95852e+06	-86.5041	0.0000000E+000	0.0000000E+000	0.0000000E+000	86.5041	0.0000000E+000	0.0000000E+000	0.0000000E+000	-86.5041	0.0000000E+000	0.0000000E+000	0.0000000E+000	-3.49587	0.0000000E+000	0.0000000E+000	0.0000000E+000	3.49587	16.3692	86.5041	-8.52806e-07	-9.15591e-05	3.09315e-09	-9.15622e-05	3.90049	166153	5.61315	166158
2.51367	20.5589	1.02906	20.5846	-2.86551	26.845	3.90036	-0.0225847	61527.7	153.768	1	11	0.00466776	0.00022676	0	-0.000214172	0.000288232	2.62735e-06	56.4117	0.0115865	0.0064099	-0.00965193	-2.83779	20.5905	20.5653	1.01941	0.0485193	0.0024286	0.04858	2.86551	153768	3.07203e+06	3.07588e+06	-87.1345	0.0000000E+000	0.0000000E+000	0.0000000E+000	87.1345	0.0000000E+000	0.0000000E+000	0.0000000E+000	-87.1345	0.0000000E+000	0.0000000E+000	0.0000000E+000	-2.86551	0.0000000E+000	0.0000000E+000	0.0000000E+000	2.86551	19.9783	87.1345	-8.75132e-06	-8.80885e-05	-6.50965e-09	-8.8082e-05	3.90007	172699	12.7623	172686
1.58469	20.7224	0.913423	20.7425	-2.52391	29.2804	3.90036	-0.0224426	109952	213.219	1	11	0.00466929	0.000225107	0	-0.00023214	7.82332e-05	4.43329e-06	-93.99	0.0196941	-0.00137036	0.0196464	-2.57829	20.742	20.721	0.93307	0.0481634	0.002123	0.0482102	2.52391	213219	4.8372e+06	4.8419e+06	-87.4761	0.0000000E+000	0.0000000E+000	0.0000000E+000	87.4761	0.0000000E+000	0.0000000E+000	0.0000000E+000	-87.4761	0.0000000E+000	0.0000000E+000	0.0000000E+000	-2.52391	0.0000000E+000	0.0000000E+000	0.0000000E+000	2.52391	22.6865	87.4761	-7.94524e-06	-8.75341e-05	-1.75575e-09	-8.75323e-05	3.90028	173793	3.48593	173789
1.00469	20.9263	0.918843	20.9465	-2.51416	240.098	3.90032	-0.0172173	172403	331.746	1	11	0.00497856	0.00023768	0	-0.00223238	4.00515e-05	2.48e-07	118.376	0.00104342	-0.000495894	-0.000918048	-2.51171	20.9459	20.9258	0.917925	0.0476948	0.0020942	0.0477407	2.51416	331745	7.55539e+06	7.56267e+06	-87.4858	0.0000000E+000	0.0000000E+000	0.0000000E+000	87.4858	0.0000000E+000	0.0000000E+000	0.0000000E+000	-87.4858	0.0000000E+000	0.0000000E+000	0.0000000E+000	-2.51416	0.0000000E+000	0.0000000E+000	0.0000000E+000	2.51416	22.7746	87.4858	-0.00199471	-6.71529e-05	-6.89577e-10	-6.71523e-05	3.90028	226536	2.32624	226533
0.632957	21.0938	1.02425	21.1187	-2.77991	240.098	3.90032	-0.0172173	245495	577.454	1	11	0.00499038	0.000236302	0	-0.00223238	4.00515e-05	2.74394e-07	-8.0162	0.0011612	0.00114985	0.000161933	-2.7802	21.1198	21.095	1.02441	0.0472958	0.00229653	0.0473515	2.77991	577453	1.18924e+07	1.19064e+07	-87.2201	0.0000000E+000	0.0000000E+000	0.0000000E+000	87.2201	0.0000000E+000	0.0000000E+000	0.0000000E+000	-87.2201	0.0000000E+000	0.0000000E+000	0.0000000E+000	-2.77991	0.0000000E+000	0.0000000E+000	0.0000000E+000	2.77991	20.5945	87.2201	0.000000000000000E+000	-6.71529e-05	-6.89577e-10	-6.71523e-05	3.90028	226536	2.32624	226533
0.401878	21.2152	1.26273	21.2527	-3.40623	240.098	3.90032	-0.0172173	313629	1107.15	1	11	0.00500411	0.000235457	0	-0.00223238	4.00515e-05	1.16298e-07	-89.5402	0.000493922	3.96351e-06	0.000493906	-3.40756	21.2528	21.2152	1.26322	0.0469697	0.00279564	0.0470528	3.40623	1.10715e+06	1.86013e+07	1.86342e+07	-86.5938	0.0000000E+000	0.0000000E+000	0.0000000E+000	86.5938	0.0000000E+000	0.0000000E+000	0.0000000E+000	-86.5938	0.0000000E+000	0.0000000E+000	0.0000000E+000	-3.40623	0.0000000E+000	0.0000000E+000	0.0000000E+000	3.40623	16.801	86.5938	0.000000000000000E+000	-6.71529e-05	-6.89577e-10	-6.71523e-05	3.90028	226536	2.32624	226533
0.251173	21.5671	1.57033	21.6241	-4.16445	240.098	3.90032	-0.0172173	403511	2127.94	1	11	0.0050045	0.000231431	0	-0.00223238	4.00515e-05	4.25975e-07	164.4	0.00184061	-0.00177281	-0.000494971	-4.16348	21.6223	21.5653	1.56984	0.0461225	0.00335825	0.0462446	4.16445	2.12794e+06	2.92253e+07	2.93027e+07	-85.8356	0.0000000E+000	0.0000000E+000	0.0000000E+000	85.8356	0.0000000E+000	0.0000000E+000	0.0000000E+000	-85.8356	0.0000000E+000	0.0000000E+000	0.0000000E+000	-4.16445	0.0000000E+000	0.0000000E+000	0.0000000E+000	4.16445	13.7341	85.8356	0.000000000000000E+000	-6.71529e-05	-6.89577e-10	-6.71523e-05	3.90028	226536	2.32624	226533
0.160751	21.9422	1.92915	22.0268	-5.0245	240.098	3.90032	-0.0172173	513217	3936.66	1	11	0.00500077	0.000227031	0	-0.00223238	4.00515e-05	2.84497e-07	148.94	0.00125312	-0.00107346	-0.000646521	-5.02307	22.0257	21.9411	1.9285	0.0452247	0.00397614	0.0453992	5.0245	3.93666e+06	4.47757e+07	4.49484e+07	-84.9755	0.0000000E+000	0.0000000E+000	0.0000000E+000	84.9755	0.0000000E+000	0.0000000E+000	0.0000000E+000	-84.9755	0.0000000E+000	0.0000000E+000	0.0000000E+000	-5.0245	0.0000000E+000	0.0000000E+000	0.0000000E+000	5.0245	11.374	84.9755	0.000000000000000E+000	-6.71529e-05	-6.89577e-10	-6.71523e-05	3.90028	226536	2.32624	226533
0.100469	22.3216	2.77918	22.4939	-7.09717	240.099	3.90032	-0.0172173	569993	8701.06	1	11	0.00500337	0.000222432	0	-0.00223238	4.00515e-05	3.7257e-07	28.9073	0.00167499	0.00146629	-0.000809678	-7.09466	22.4953	22.3231	2.77837	0.0441158	0.0054927	0.0444564	7.09717	8.70106e+06	6.98844e+07	7.0424e+07	-82.9028	0.0000000E+000	0.0000000E+000	0.0000000E+000	82.9028	0.0000000E+000	0.0000000E+000	0.0000000E+000	-82.9028	0.0000000E+000	0.0000000E+000	0.0000000E+000	-7.09717	0.0000000E+000	0.0000000E+000	0.0000000E+000	7.09717	8.03171	82.9028	0.000000000000000E+000	-6.71529e-05	-6.89577e-10	-6.71523e-05	3.90028	226536	2.32624	226533
0.0602816	23.0899	3.52968	23.3582	-8.69131	240.099	3.90032	-0.0172173	747998	17080.2	1	11	0.00499922	0.000214025	0	-0.00223238	4.00515e-05	3.64735e-07	99.8105	0.00170417	-0.000290373	-0.00167925	-8.68735	23.3576	23.0896	3.528	0.04232	0.0064693	0.0428116	8.69131	1.70802e+07	1.11733e+08	1.13031e+08	-81.3087	0.0000000E+000	0.0000000E+000	0.0000000E+000	81.3087	0.0000000E+000	0.0000000E+000	0.0000000E+000	-81.3087	0.0000000E+000	0.0000000E+000	0.0000000E+000	-8.69131	0.0000000E+000	0.0000000E+000	0.0000000E+000	8.69131	6.54166	81.3087	0.000000000000000E+000	-6.71529e-05	-6.89577e-10	-6.71523e-05	3.90028	226536	2.32624	226533
0.0401878	24.2361	4.38704	24.6299	-10.2602	240.099	3.90032	-0.0172173	902724	28639.9	1	11	0.00499912	0.000202969	0	-0.00223238	4.00515e-05	8.1535e-07	44.0668	0.00401711	0.00288641	-0.00279389	-10.2526	24.6323	24.239	4.38425	0.0399518	0.00723178	0.040601	10.2602	2.86399e+07	1.5822e+08	1.60792e+08	-79.7398	0.0000000E+000	0.0000000E+000	0.0000000E+000	79.7398	0.0000000E+000	0.0000000E+000	0.0000000E+000	-79.7398	0.0000000E+000	0.0000000E+000	0.0000000E+000	-10.2602	0.0000000E+000	0.0000000E+000	0.0000000E+000	10.2602	5.52447	79.7398	0.000000000000000E+000	-6.71529e-05	-6.89577e-10	-6.71523e-05	3.90028	226536	2.32624	226533
0.0200939	26.4634	6.78589	27.3196	-14.3822	240.099	3.90032	-0.0172173	1.16721e+06	72013.6	1	11	0.00499758	0.00018293	0	-0.00223238	4.00515e-05	4.5487e-07	81.3738	0.00248658	0.000372955	-0.00245845	-14.377	27.3193	26.4638	6.78343	0.0354566	0.00909198	0.0366038	14.3822	7.20136e+07	2.80837e+08	2.89923e+08	-75.6178	0.0000000E+000	0.0000000E+000	0.0000000E+000	75.6178	0.0000000E+000	0.0000000E+000	0.0000000E+000	-75.6178	0.0000000E+000	0.0000000E+000	0.0000000E+000	-14.3822	0.0000000E+000	0.0000000E+000	0.0000000E+000	14.3822	3.89977	75.6178	0.000000000000000E+000	-6.71529e-05	-6.89577e-10	-6.71523e-05	3.90028	226536	2.32624	226533
0.00796479	28.0226	7.88086	29.1097	-15.7077	20329	3.90039	-0.0013955	2.53555e+06	185842	1	11	0.00499433	0.000171569	0	-0.0244241	0.000173687	2.05553e-07	-128.368	0.00119808	-0.000743654	0.000939341	-15.7099	29.1092	28.0219	7.8818	0.0330699	0.00930033	0.0343528	15.7077	1.85842e+08	6.60814e+08	6.86449e+08	-74.2923	0.0000000E+000	0.0000000E+000	0.0000000E+000	74.2923	0.0000000E+000	0.0000000E+000	0.0000000E+000	-74.2923	0.0000000E+000	0.0000000E+000	0.0000000E+000	-15.7077	0.0000000E+000	0.0000000E+000	0.0000000E+000	15.7077	3.55578	74.2923	-0.0221917	-5.443e-06	-2.42381e-10	-5.44276e-06	3.90022	2.79498e+06	124.462	2.79485e+06
0.00497799	30.9595	8.43548	32.0881	-15.2413	20329	3.90039	-0.0013955	3.79015e+06	261932	1	11	0.0050013	0.000155861	0	-0.0244241	0.000173687	3.60253e-07	-126.985	0.00231137	-0.00139054	0.00184629	-15.2452	32.0872	30.9581	8.43733	0.0300681	0.0081926	0.0311642	15.2413	2.61932e+08	9.61328e+08	9.96373e+08	-74.7587	0.0000000E+000	0.0000000E+000	0.0000000E+000	74.7587	0.0000000E+000	0.0000000E+000	0.0000000E+000	-74.7587	0.0000000E+000	0.0000000E+000	0.0000000E+000	-15.2413	0.0000000E+000	0.0000000E+000	0.0000000E+000	15.2413	3.67015	74.7587	0.000000000000000E+000	-5.443e-06	-2.42381e-10	-5.44276e-06	3.90022	2.79498e+06	124.462	2.79485e+06
0.00318591	33.0051	10.0037	34.4878	-16.8619	20329	3.90039	-0.0013955	4.99372e+06	420162	1	11	0.00500367	0.000145085	0	-0.0244241	0.000173687	3.65713e-07	-146.07	0.00252068	-0.00209146	0.001407	-16.8651	34.4862	33.003	10.0051	0.0277491	0.00841067	0.0289958	16.8619	4.20162e+08	1.38623e+09	1.44851e+09	-73.1381	0.0000000E+000	0.0000000E+000	0.0000000E+000	73.1381	0.0000000E+000	0.0000000E+000	0.0000000E+000	-73.1381	0.0000000E+000	0.0000000E+000	0.0000000E+000	-16.8619	0.0000000E+000	0.0000000E+000	0.0000000E+000	16.8619	3.29928	73.1381	0.000000000000000E+000	-5.443e-06	-2.42381e-10	-5.44276e-06	3.90022	2.79498e+06	124.462	2.79485e+06
0.0019912	35.3031	10.7092	36.8917	-16.8752	20329	3.90039	-0.0013955	7.46359e+06	628936	1	11	0.00500586	0.000135691	0	-0.0244241	0.000173687	6.17716e-07	-66.8238	0.00455239	0.00179164	0.00418501	-16.8806	36.8946	35.3049	10.7134	0.0259391	0.00786866	0.0271064	16.8752	6.28936e+08	2.0733e+09	2.16659e+09	-73.1248	0.0000000E+000	0.0000000E+000	0.0000000E+000	73.1248	0.0000000E+000	0.0000000E+000	0.0000000E+000	-73.1248	0.0000000E+000	0.0000000E+000	0.0000000E+000	-16.8752	0.0000000E+000	0.0000000E+000	0.0000000E+000	16.8752	3.29651	73.1248	0.000000000000000E+000	-5.443e-06	-2.42381e-10	-5.44276e-06	3.90022	2.79498e+06	124.462	2.79485e+06
0.00129428	36.0162	12.5627	38.1443	-19.2291	20329.1	3.90039	-0.0013955	9.78835e+06	1.06174e+06	1	11	0.00500738	0.000131275	0	-0.0244241	0.000173687	7.52825e-07	-51.4118	0.00573473	0.00357686	0.00448255	-19.2337	38.1491	36.0197	12.5672	0.0247536	0.00863425	0.0262163	19.2291	1.06174e+09	3.04391e+09	3.22376e+09	-70.7709	0.0000000E+000	0.0000000E+000	0.0000000E+000	70.7709	0.0000000E+000	0.0000000E+000	0.0000000E+000	-70.7709	0.0000000E+000	0.0000000E+000	0.0000000E+000	-19.2291	0.0000000E+000	0.0000000E+000	0.0000000E+000	19.2291	2.86691	70.7709	0.000000000000000E+000	-5.443e-06	-2.42381e-10	-5.44276e-06	3.90022	2.79498e+06	124.462	2.79485e+06
0.000796479	39.184	16.4861	42.5109	-22.8182	20329.1	3.90039	-0.0013955	1.21207e+07	1.8229e+06	1	11	0.00500775	0.000117799	0	-0.0244241	0.000173687	1.0861e-06	-130.176	0.00921994	-0.00594811	0.00704467	-22.83	42.5081	39.178	16.4931	0.0216825	0.00912256	0.0235234	22.8182	1.8229e+09	4.33266e+09	4.70052e+09	-67.1818	0.0000000E+000	0.0000000E+000	0.0000000E+000	67.1818	0.0000000E+000	0.0000000E+000	0.0000000E+000	-67.1818	0.0000000E+000	0.0000000E+000	0.0000000E+000	-22.8182	0.0000000E+000	0.0000000E+000	0.0000000E+000	22.8182	2.3768	67.1818	0.000000000000000E+000	-5.443e-06	-2.42381e-10	-5.44276e-06	3.90022	2.79498e+06	124.462	2.79485e+06
0.000497799	38.0775	21.5226	43.7392	-29.4765	20329.1	3.90039	-0.0013955	1.48549e+07	3.59683e+06	1	11	0.00501057	0.000114556	0	-0.0244241	0.000173687	1.66564e-06	111.752	0.0145401	-0.00538834	-0.0135048	-29.4646	43.7279	38.0721	21.5091	0.0199034	0.01125	0.0228628	29.4765	3.59683e+09	6.36345e+09	7.30963e+09	-60.5235	0.0000000E+000	0.0000000E+000	0.0000000E+000	60.5235	0.0000000E+000	0.0000000E+000	0.0000000E+000	-60.5235	0.0000000E+000	0.0000000E+000	0.0000000E+000	-29.4765	0.0000000E+000	0.0000000E+000	0.0000000E+000	29.4765	1.76918	60.5235	0.000000000000000E+000	-5.443e-06	-2.42381e-10	-5.44276e-06	3.90022	2.79498e+06	124.462	2.79485e+06
0.000298679	37.6134	32.1756	49.4978	-40.5447	20329.1	3.90039	-0.0013955	1.6561e+07	6.99793e+06	1	11	0.00501031	0.000101223	0	-0.0244241	0.000173687	1.12161e-06	88.0785	0.0110806	0.00037154	-0.0110744	-40.5347	49.4909	37.6137	32.1646	0.0153522	0.0131327	0.0202029	40.5447	6.99793e+09	8.18059e+09	1.07654e+10	-49.4553	0.0000000E+000	0.0000000E+000	0.0000000E+000	49.4553	0.0000000E+000	0.0000000E+000	0.0000000E+000	-49.4553	0.0000000E+000	0.0000000E+000	0.0000000E+000	-40.5447	0.0000000E+000	0.0000000E+000	0.0000000E+000	40.5447	1.169	49.4553	0.000000000000000E+000	-5.443e-06	-2.42381e-10	-5.44276e-06	3.90022	2.79498e+06	124.462	2.79485e+06
9.95598e-05	48.3756	105.842	116.373	-65.437	20329.1	3.90039	-0.0013955	1.51035e+07	1.24936e+07	1	11	0.00499742	4.29429e-05	0	-0.0244241	0.000173687	2.56757e-06	56.3239	0.0597902	0.0331535	-0.0497566	-65.412	116.342	48.4088	105.792	0.00357206	0.0078154	0.00859303	65.437	1.24936e+10	5.71025e+09	1.37367e+10	-24.563	0.0000000E+000	0.0000000E+000	0.0000000E+000	24.563	0.0000000E+000	0.0000000E+000	0.0000000E+000	-24.563	0.0000000E+000	0.0000000E+000	0.0000000E+000	-65.437	0.0000000E+000	0.0000000E+000	0.0000000E+000	65.437	0.457054	24.563	0.000000000000000E+000	-5.443e-06	-2.42381e-10	-5.44276e-06	3.90022	2.79498e+06	124.462	2.79485e+06