File: txt/19362_R311_UC99_SOC50_C01.mpt
EC-Lab ASCII FILE
Nb header lines : 65

Potentio Electrochemical Impedance Spectroscopy

Run on channel : 1 (SN 66354)
User :
CE vs. WE compliance from -10 V to 10 V
Electrode connection : standard
Potential control : Ewe
Ewe ctrl range : min = -10.00 V, max = 10.00 V
Safety Limits :
	Do not start on E overload
Acquisition started on : 11/19/2025 16:14:24.363
Technique started on : 11/19/2025 16:14:27.057
Loaded Setting File :  C:\Users\Celltest\OneDrive - store-dot.com\Documents\EC-Lab\Data\txt_done\19191_R297_UC94_SOC50_C08.mpr
Saved on :
	File : 19362_R311_UC99_SOC50_C01.mpr
	Directory : C:\Users\Celltest\OneDrive - store-dot.com\Documents\EC-Lab\Data\Gyutae\
	Host : 169.254.61.224
Device : VMP-3e (SN .003165)
Address : USB
EC-LAB for windows v11.62 (software)
Internet server v27.00 (firmware)
Command interpretor v12.03 (firmware)
Electrode material :
Initial state :
Electrolyte :
Comments :
Electrode surface area : 0.001 cm²
Characteristic mass : 0.001 g
Equivalent Weight : 0.000 g/eq.
Density : 0.000 g/cm3
Volume (V) : 0.001 cm³
Record Ece
Cycle Definition : Charge/Discharge alternance
Mode                Multi sine
E (V)               0.0000
vs.                 Eoc
tE (h:m:s)          0:00:0.0000
record              0
dI                  0.000
unit dI             mA
dt (s)              0.000
fi                  1.000
unit fi             MHz
ff                  0.100
unit ff             mHz
Nd                  10
Points              per decade
spacing             Logarithmic
Va (mV)             5.0
pw                  0.10
Na                  2
corr                0
E range min (V)     -10.000
E range max (V)     10.000
I Range             Auto
Bandwidth           5
nc cycles           0
goto Ns'            0
nr cycles           0
inc. cycle          0

freq/Hz	Re(Z)/Ohm	-Im(Z)/Ohm	|Z|/Ohm	Phase(Z)/deg	time/s	<Ewe>/V	<I>/mA	Cs/µF	Cp/µF	cycle number	I Range	|Ewe|/V	|I|/A	Ns	(Q-Qo)/mA.h	<Ece>/V	|Ece|/V	Phase(Zce)/deg	|Zce|/Ohm	Re(Zce)/Ohm	-Im(Zce)/Ohm	Phase(Zwe-ce)/deg	|Zwe-ce|/Ohm	Re(Zwe-ce)/Ohm	-Im(Zwe-ce)/Ohm	Re(Y)/Ohm-1	Im(Y)/Ohm-1	|Y|/Ohm-1	Phase(Y)/deg	Re(C)/nF	Im(C)/nF	|C|/nF	Phase(C)/deg	Re(M)	Im(M)	|M|	Phase(M)/deg	Re(Permittivity)	Im(Permittivity)	|Permittivity|	Phase(Permittivity)/deg	Re(Resistivity)/Ohm.cm	Im(Resistivity)/Ohm.cm	|Resistivity|/Ohm.cm	Phase(Resistivity)/deg	Re(Conductivity)/mS/cm	Im(Conductivity)/mS/cm	|Conductivity|/mS/cm	Phase(Conductivity)/deg	Tan(Delta)	Loss Angle(Delta)/deg	dq/mA.h	Pwe/W	Pce/W	Pwe-ce/W	<Ewe-Ece>/V	Rwe/Ohm	Rce/Ohm	Rwe-ce/Ohm		Ewe-Ece/V
1.00002e+06	2.58923	2.4645	3.57462	-43.5861	2.69356	3.91001	0.0134761	0.0645779	0.030696	1	10	0.000233565	6.53398e-05	0	5.71725e-06	0.000315923	0.000199005	-70.2438	3.04569	1.0295	2.86642	-55.8305	6.44313	3.61873	5.33091	0.202634	0.192872	0.27975	43.5861	30.696	32.2496	44.5228	-46.4139	0.0000000E+000	0.0000000E+000	0.0000000E+000	46.4139	0.0000000E+000	0.0000000E+000	0.0000000E+000	-46.4139	0.0000000E+000	0.0000000E+000	0.0000000E+000	-43.5861	0.0000000E+000	0.0000000E+000	0.0000000E+000	43.5861	1.05061	46.4139	5.71725e-06	5.26918e-05	4.25742e-09	5.26876e-05	3.90969	290143	23.4431	290119
630957	1.04181	-0.281263	1.07911	15.1083	3.86254	3.90971	0.0441045	-0.896824	-0.0609263	1	9	0.000354968	0.000328946	0	1.77641e-05	-0.00016101	0.000122652	-111.389	0.372864	-0.135981	0.347184	-4.16232	0.908221	0.905826	0.0659208	0.894661	-0.241537	0.926692	-15.1083	-60.9263	225.673	233.752	-105.108	0.0000000E+000	0.0000000E+000	0.0000000E+000	105.108	0.0000000E+000	0.0000000E+000	0.0000000E+000	-105.108	0.0000000E+000	0.0000000E+000	0.0000000E+000	15.1083	0.0000000E+000	0.0000000E+000	0.0000000E+000	-15.1083	3.70403	74.8917	4.91649e-06	0.000172436	-7.10127e-09	0.000172443	3.90987	88646.5	3.65065	88650.1
398103	1.41591	-0.0882001	1.41866	3.56447	4.62854	3.90975	0.0470104	-4.53268	-0.0175202	1	9	0.00134309	0.000946736	0	2.74811e-05	-8.3915e-06	6.29303e-05	170.258	0.0664708	-0.0655122	-0.011248	4.21186	1.35406	1.3504	-0.0994481	0.703529	-0.0438243	0.704893	-3.56447	-17.5202	281.259	281.804	-93.5645	0.0000000E+000	0.0000000E+000	0.0000000E+000	93.5645	0.0000000E+000	0.0000000E+000	0.0000000E+000	-93.5645	0.0000000E+000	0.0000000E+000	0.0000000E+000	3.56447	0.0000000E+000	0.0000000E+000	0.0000000E+000	-3.56447	16.0534	86.4355	6.04812e-06	0.000183799	-3.94487e-10	0.000183799	3.90976	83167.9	0.178503	83168.1
251206	1.51589	0.179028	1.52642	-6.73551	5.39453	3.90969	0.0470104	3.53889	0.0486812	1	9	0.00389784	0.00255358	0	4.08018e-05	-6.56234e-05	6.16175e-05	112.267	0.0241299	-0.00914335	-0.0223305	-5.93728	1.51487	1.50675	0.156698	0.650604	0.0768372	0.655126	6.73551	48.6812	412.199	415.063	-83.2645	0.0000000E+000	0.0000000E+000	0.0000000E+000	83.2645	0.0000000E+000	0.0000000E+000	0.0000000E+000	-83.2645	0.0000000E+000	0.0000000E+000	0.0000000E+000	-6.73551	0.0000000E+000	0.0000000E+000	0.0000000E+000	6.73551	8.46731	83.2645	5.88524e-06	0.000183796	-3.08498e-09	0.000183799	3.90975	83166.5	1.39593	83167.8
158486	1.59358	0.366662	1.63522	-12.9575	6.16254	3.90965	0.0549828	2.73882	0.137702	1	9	0.00535271	0.00327338	0	5.34396e-05	-0.000180087	5.44339e-05	104.589	0.0166292	-0.00418855	-0.0160931	-12.4384	1.6276	1.5894	0.350569	0.595966	0.137124	0.611538	12.9575	137.702	598.481	614.118	-77.0425	0.0000000E+000	0.0000000E+000	0.0000000E+000	77.0425	0.0000000E+000	0.0000000E+000	0.0000000E+000	-77.0425	0.0000000E+000	0.0000000E+000	0.0000000E+000	-12.9575	0.0000000E+000	0.0000000E+000	0.0000000E+000	12.9575	4.3462	77.0425	7.57698e-06	0.000214964	-9.90171e-09	0.000214973	3.90983	71106.7	3.27534	71110
100004	1.70936	0.490002	1.77821	-15.9953	6.92854	3.90966	0.0582985	3.24793	0.246624	1	9	0.00540648	0.00304041	0	6.06793e-05	0.00012515	4.3818e-05	99.8743	0.0144119	-0.00247145	-0.0141984	-15.576	1.77197	1.70689	0.475803	0.540591	0.154964	0.562364	15.9953	246.624	860.346	894.996	-74.0047	0.0000000E+000	0.0000000E+000	0.0000000E+000	74.0047	0.0000000E+000	0.0000000E+000	0.0000000E+000	-74.0047	0.0000000E+000	0.0000000E+000	0.0000000E+000	-15.9953	0.0000000E+000	0.0000000E+000	0.0000000E+000	15.9953	3.48849	74.0047	8.32646e-06	0.000227927	7.29603e-09	0.00022792	3.90953	67062.7	2.14671	67060.6
63093.8	1.86557	0.632517	1.96988	-18.7291	7.69652	3.90965	0.0548711	3.98805	0.411173	1	9	0.00538806	0.00273522	0	5.95189e-05	-0.000256397	2.19354e-05	80.737	0.00801963	0.0012909	-0.00791505	-18.4989	1.96858	1.86686	0.624602	0.480763	0.163001	0.507644	18.7291	411.173	1212.73	1280.54	-71.2709	0.0000000E+000	0.0000000E+000	0.0000000E+000	71.2709	0.0000000E+000	0.0000000E+000	0.0000000E+000	-71.2709	0.0000000E+000	0.0000000E+000	0.0000000E+000	-18.7291	0.0000000E+000	0.0000000E+000	0.0000000E+000	18.7291	2.94944	71.2709	-2.46533e-06	0.000214527	-1.40688e-08	0.000214541	3.9099	71251.5	4.67271	71256.2
39814.1	2.06065	0.777282	2.20238	-20.6666	8.46452	3.90965	0.0578887	5.14287	0.640588	1	9	0.00537511	0.00244059	0	7.2564e-05	-2.74688e-05	1.73912e-05	29.5699	0.00712581	0.0061977	-0.00351649	-20.5243	2.20694	2.06685	0.773765	0.424837	0.160249	0.454055	20.6666	640.588	1698.27	1815.06	-69.3334	0.0000000E+000	0.0000000E+000	0.0000000E+000	69.3334	0.0000000E+000	0.0000000E+000	0.0000000E+000	-69.3334	0.0000000E+000	0.0000000E+000	0.0000000E+000	-20.6666	0.0000000E+000	0.0000000E+000	0.0000000E+000	20.6666	2.6511	69.3334	7.35681e-06	0.000226324	-1.59013e-09	0.000226326	3.90968	67537.4	0.474511	67537.9
25116.9	2.30824	0.940013	2.49231	-22.1582	9.23255	3.90964	0.0558769	6.74093	0.958922	1	9	0.00506174	0.00203094	0	8.52203e-05	4.88404e-05	8.77678e-06	-14.9755	0.00432153	0.00417476	0.00111671	-22.1458	2.4966	2.31242	0.94113	0.371601	0.151331	0.401234	22.1582	958.921	2354.68	2542.45	-67.8418	0.0000000E+000	0.0000000E+000	0.0000000E+000	67.8418	0.0000000E+000	0.0000000E+000	0.0000000E+000	-67.8418	0.0000000E+000	0.0000000E+000	0.0000000E+000	-22.1582	0.0000000E+000	0.0000000E+000	0.0000000E+000	22.1582	2.45555	67.8418	5.5859e-06	0.000218459	2.72905e-09	0.000218456	3.90959	69968.8	0.874071	69968
15847.7	2.57717	1.08503	2.79627	-22.8319	9.75256	3.90965	0.056622	9.25574	1.39361	1	9	0.00523382	0.00187172	0	9.28857e-05	-8.47007e-05	7.06314e-06	-131.459	0.00377361	-0.00249847	0.00282804	-22.9052	2.79506	2.57467	1.08786	0.329599	0.138767	0.35762	22.8319	1393.61	3310.1	3591.5	-67.1681	0.0000000E+000	0.0000000E+000	0.0000000E+000	67.1681	0.0000000E+000	0.0000000E+000	0.0000000E+000	-67.1681	0.0000000E+000	0.0000000E+000	0.0000000E+000	-22.8319	0.0000000E+000	0.0000000E+000	0.0000000E+000	22.8319	2.3752	67.1681	5.55099e-06	0.000221372	-4.79592e-09	0.000221377	3.90974	69048.3	1.4959	69049.8
10002.2	2.88192	1.23782	3.1365	-23.2441	10.2705	3.90965	0.0574416	12.8548	2.00212	1	9	0.00499542	0.00159267	0	0.000100551	0.000163304	8.81175e-06	-78.88	0.00553268	0.00106706	0.00542881	-23.3275	3.13963	2.88299	1.24325	0.292948	0.125825	0.318826	23.2441	2002.12	4661.37	5073.15	-66.7559	0.0000000E+000	0.0000000E+000	0.0000000E+000	66.7559	0.0000000E+000	0.0000000E+000	0.0000000E+000	-66.7559	0.0000000E+000	0.0000000E+000	0.0000000E+000	-23.2441	0.0000000E+000	0.0000000E+000	0.0000000E+000	23.2441	2.32822	66.7559	5.32793e-06	0.000224576	9.38046e-09	0.000224567	3.90948	68063	2.84296	68060.1
6309.38	3.21599	1.43611	3.52208	-24.0633	10.7885	3.90963	0.0454457	17.5649	2.92027	1	9	0.00482688	0.00137046	0	0.000107404	0.000239613	1.36403e-05	45.3623	0.00995303	0.00699321	-0.00708222	-23.9118	3.52559	3.22299	1.42903	0.259249	0.115768	0.283923	24.0633	2920.27	6539.59	7162	-65.9367	0.0000000E+000	0.0000000E+000	0.0000000E+000	65.9367	0.0000000E+000	0.0000000E+000	0.0000000E+000	-65.9367	0.0000000E+000	0.0000000E+000	0.0000000E+000	-24.0633	0.0000000E+000	0.0000000E+000	0.0000000E+000	24.0633	2.23938	65.9367	4.14834e-06	0.000177676	1.08894e-08	0.000177665	3.90939	86028.7	5.27252	86023.4
3983.6	3.60647	1.68464	3.98054	-25.038	11.5291	3.90962	-0.0103762	23.7158	4.24784	1	10	0.00489319	0.00122928	0	0.000111469	0.000411309	2.5057e-06	6.24485	0.00203835	0.00202625	-0.000221727	-25.0228	3.98228	3.6085	1.68442	0.227614	0.106322	0.251222	25.038	4247.84	9093.77	10037	-64.962	0.0000000E+000	0.0000000E+000	0.0000000E+000	64.962	0.0000000E+000	0.0000000E+000	0.0000000E+000	-64.962	0.0000000E+000	0.0000000E+000	0.0000000E+000	-25.038	0.0000000E+000	0.0000000E+000	0.0000000E+000	25.038	2.1408	64.962	1.40914e-06	-4.05671e-05	-4.26784e-09	-4.05628e-05	3.90921	376786	39.6396	376746
2510.8	4.04128	2.03015	4.52255	-26.6728	12.3538	3.90958	-0.00626542	31.2233	6.29171	1	10	0.00481389	0.00106442	0	0.000110639	2.97631e-05	1.02028e-05	-34.9686	0.00958534	0.00785486	0.00549361	-26.6903	4.53204	4.04914	2.03565	0.197584	0.099257	0.221114	26.6728	6291.71	12524.5	14016	-63.3272	0.0000000E+000	0.0000000E+000	0.0000000E+000	63.3272	0.0000000E+000	0.0000000E+000	0.0000000E+000	-63.3272	0.0000000E+000	0.0000000E+000	0.0000000E+000	-26.6728	0.0000000E+000	0.0000000E+000	0.0000000E+000	26.6728	1.99063	63.3272	-7.39625e-07	-2.44952e-05	-1.86478e-10	-2.4495e-05	3.90955	623993	4.75038	623988
1585.51	4.52534	2.49148	5.16586	-28.8355	13.2558	3.90958	-0.00653003	40.2898	9.3718	1	10	0.00472096	0.000913877	0	0.000109422	6.79177e-05	1.55032e-05	-67.6621	0.0169643	0.00644756	0.0156912	-28.9532	5.17909	4.53179	2.50717	0.169576	0.0933622	0.193579	28.8355	9371.8	17022.3	19431.6	-61.1645	0.0000000E+000	0.0000000E+000	0.0000000E+000	61.1645	0.0000000E+000	0.0000000E+000	0.0000000E+000	-61.1645	0.0000000E+000	0.0000000E+000	0.0000000E+000	-28.8355	0.0000000E+000	0.0000000E+000	0.0000000E+000	28.8355	1.81633	61.1645	-4.16696e-07	-2.55297e-05	-4.43505e-10	-2.55292e-05	3.90951	598707	10.4008	598696
1000.32	5.13256	3.09398	5.99299	-31.0822	14.1578	3.90957	-0.00770403	51.4237	13.706	1	10	0.00465498	0.000776738	0	0.00010818	0.000201459	1.2105e-05	-8.5449	0.0155845	0.0154115	0.00231561	-31.0252	6.00739	5.14798	3.0963	0.142905	0.0861451	0.166862	31.0822	13706	22736.7	26548.3	-58.9178	0.0000000E+000	0.0000000E+000	0.0000000E+000	58.9178	0.0000000E+000	0.0000000E+000	0.0000000E+000	-58.9178	0.0000000E+000	0.0000000E+000	0.0000000E+000	-31.0822	0.0000000E+000	0.0000000E+000	0.0000000E+000	31.0822	1.65889	58.9178	-1.44344e-06	-3.01194e-05	-1.55205e-09	-3.01179e-05	3.90936	507470	26.1498	507444
631.01	5.90151	3.91357	7.08123	-33.5503	15.0596	3.90957	-0.00806554	64.4482	19.6852	1	10	0.00461136	0.000651209	0	0.000106478	-0.000180087	9.70745e-06	-41.851	0.0149068	0.0111038	0.00994575	-33.5676	7.09598	5.91261	3.92352	0.117692	0.0780469	0.141218	33.5503	19685.2	29684.5	35618.5	-56.4497	0.0000000E+000	0.0000000E+000	0.0000000E+000	56.4497	0.0000000E+000	0.0000000E+000	0.0000000E+000	-56.4497	0.0000000E+000	0.0000000E+000	0.0000000E+000	-33.5503	0.0000000E+000	0.0000000E+000	0.0000000E+000	33.5503	1.50796	56.4497	-5.68845e-07	-3.15328e-05	1.4525e-09	-3.15343e-05	3.90975	484726	22.328	484748
398.089	6.96925	5.02238	8.59039	-35.7784	15.9608	3.90957	-0.0069661	79.6031	27.2097	1	10	0.00460211	0.000535728	0	0.000104855	0.000258691	1.82631e-05	-1.44981	0.0340902	0.0340793	0.000862528	-35.6506	8.61856	7.00333	5.02325	0.094441	0.0680588	0.116409	35.7784	27209.7	37757.2	46540.1	-54.2216	0.0000000E+000	0.0000000E+000	0.0000000E+000	54.2216	0.0000000E+000	0.0000000E+000	0.0000000E+000	-54.2216	0.0000000E+000	0.0000000E+000	0.0000000E+000	-35.7784	0.0000000E+000	0.0000000E+000	0.0000000E+000	35.7784	1.38764	54.2216	-7.72866e-07	-2.72344e-05	-1.80207e-09	-2.72326e-05	3.90931	561228	37.1357	561191
251.044	8.43282	6.39187	10.5815	-37.1612	16.859	3.90956	-0.00789411	99.1841	36.1911	1	10	0.00458073	0.000432899	0	0.000102524	0.000182382	1.36643e-05	3.11	0.0315647	0.0315182	-0.00171248	-37.051	10.6056	8.46434	6.39015	0.0753143	0.0570863	0.0945044	37.1612	36191.1	47747.1	59913.1	-52.8388	0.0000000E+000	0.0000000E+000	0.0000000E+000	52.8388	0.0000000E+000	0.0000000E+000	0.0000000E+000	-52.8388	0.0000000E+000	0.0000000E+000	0.0000000E+000	-37.1612	0.0000000E+000	0.0000000E+000	0.0000000E+000	37.1612	1.3193	52.8388	-1.15242e-06	-3.08625e-05	-1.43974e-09	-3.08611e-05	3.90938	495250	23.1035	495227
158.428	10.6054	7.9918	13.2794	-37.0003	17.7639	3.90957	-0.0074357	125.702	45.5275	1	10	0.0045766	0.000344639	0	9.97883e-05	8.6995e-05	4.28534e-06	-7.39802	0.0124343	0.0123308	0.00160106	-36.9738	13.2902	10.6177	7.9934	0.0601406	0.0453197	0.0753045	37.0003	45527.5	60416.4	75649.8	-52.9997	0.0000000E+000	0.0000000E+000	0.0000000E+000	52.9997	0.0000000E+000	0.0000000E+000	0.0000000E+000	-52.9997	0.0000000E+000	0.0000000E+000	0.0000000E+000	-37.0003	0.0000000E+000	0.0000000E+000	0.0000000E+000	37.0003	1.32703	52.9997	-1.13603e-06	-2.90704e-05	-6.46869e-10	-2.90697e-05	3.90948	525784	11.6996	525772
100.032	13.6586	9.33645	16.5447	-34.3548	18.6629	3.90956	-0.00936998	170.412	54.2681	1	10	0.00456666	0.00027602	0	9.78374e-05	0.000144227	4.68379e-06	21.4264	0.016969	0.0157963	-0.00619887	-34.3063	16.5543	13.6744	9.33025	0.0498987	0.0341086	0.0604423	34.3548	54268.1	79390.8	96166.1	-55.6452	0.0000000E+000	0.0000000E+000	0.0000000E+000	55.6452	0.0000000E+000	0.0000000E+000	0.0000000E+000	-55.6452	0.0000000E+000	0.0000000E+000	0.0000000E+000	-34.3548	0.0000000E+000	0.0000000E+000	0.0000000E+000	34.3548	1.46294	55.6452	-1.04949e-06	-3.66325e-05	-1.3514e-09	-3.66311e-05	3.90941	417242	15.3924	417227
63.0823	17.4824	9.80181	20.0427	-29.278	19.5799	3.90957	-0.00583685	257.399	61.5614	1	10	0.00456847	0.000227937	0	9.59994e-05	0.000220536	4.50959e-06	-124.575	0.0197844	-0.0112273	0.0162901	-29.3343	20.0408	17.4711	9.8181	0.04352	0.0244003	0.0498936	29.278	61561.4	109800	125880	-60.722	0.0000000E+000	0.0000000E+000	0.0000000E+000	60.722	0.0000000E+000	0.0000000E+000	0.0000000E+000	-60.722	0.0000000E+000	0.0000000E+000	0.0000000E+000	-29.278	0.0000000E+000	0.0000000E+000	0.0000000E+000	29.278	1.78358	60.722	-5.5328e-07	-2.28196e-05	-1.28724e-09	-2.28183e-05	3.90935	669808	37.7834	669771
39.8089	21.5049	9.28593	23.4241	-23.355	20.7268	3.90962	-0.00279372	430.541	67.6612	1	11	0.00456608	0.000194931	0	9.52725e-05	6.79177e-05	1.39833e-05	-19.5402	0.0717344	0.067603	0.0239929	-23.3433	23.4957	21.5725	9.30992	0.0391933	0.0169239	0.0426911	23.355	67661.2	156694	170678	-66.645	0.0000000E+000	0.0000000E+000	0.0000000E+000	66.645	0.0000000E+000	0.0000000E+000	0.0000000E+000	-66.645	0.0000000E+000	0.0000000E+000	0.0000000E+000	-23.355	0.0000000E+000	0.0000000E+000	0.0000000E+000	23.355	2.31586	66.645	-2.31087e-07	-1.09224e-05	-1.89743e-10	-1.09222e-05	3.90955	1.39943e+06	24.3109	1.39941e+06
25.1044	24.6094	7.72867	25.7945	-17.4351	21.6061	3.90962	-0.00280899	820.285	73.6411	1	11	0.00456726	0.000177064	0	9.47938e-05	1.06858e-05	6.96868e-06	-32.3054	0.0393569	0.0332649	0.0210336	-17.4575	25.8325	24.6427	7.7497	0.0369869	0.0116158	0.038768	17.4351	73641.1	234486	245778	-72.5649	0.0000000E+000	0.0000000E+000	0.0000000E+000	72.5649	0.0000000E+000	0.0000000E+000	0.0000000E+000	-72.5649	0.0000000E+000	0.0000000E+000	0.0000000E+000	-17.4351	0.0000000E+000	0.0000000E+000	0.0000000E+000	17.4351	3.18417	72.5649	-5.4043e-07	-1.09821e-05	-3.00163e-11	-1.09821e-05	3.90961	1.39183e+06	3.80415	1.39182e+06
15.8576	26.6635	6.02483	27.3357	-12.7326	22.484	3.9096	-0.00350611	1665.86	80.9219	1	11	0.00456121	0.000166859	0	9.48535e-05	-4.65461e-05	1.1589e-05	-89.0698	0.0694536	0.00112751	0.0694445	-12.874	27.3522	26.6647	6.09427	0.0356826	0.00806274	0.0365822	12.7326	80921.9	358129	367158	-77.2674	0.0000000E+000	0.0000000E+000	0.0000000E+000	77.2674	0.0000000E+000	0.0000000E+000	0.0000000E+000	-77.2674	0.0000000E+000	0.0000000E+000	0.0000000E+000	-12.7326	0.0000000E+000	0.0000000E+000	0.0000000E+000	12.7326	4.42561	77.2674	2.48345e-07	-1.37075e-05	1.63196e-10	-1.37076e-05	3.90965	1.11508e+06	13.2757	1.1151e+06
10.0032	27.9544	4.32902	28.2876	-8.80288	23.4648	3.90962	-0.00305216	3675.29	86.0749	1	11	0.0045678	0.000161477	0	9.35437e-05	-8.47007e-05	9.01776e-06	25.2817	0.0558456	0.0504966	-0.0238499	-8.7396	28.3339	28.0049	4.30517	0.0349347	0.00540998	0.0353511	8.80288	86075	555825	562450	-81.1971	0.0000000E+000	0.0000000E+000	0.0000000E+000	81.1971	0.0000000E+000	0.0000000E+000	0.0000000E+000	-81.1971	0.0000000E+000	0.0000000E+000	0.0000000E+000	-8.80288	0.0000000E+000	0.0000000E+000	0.0000000E+000	8.80288	6.45746	81.1971	-1.66095e-06	-1.19328e-05	2.5852e-10	-1.19331e-05	3.90971	1.28094e+06	27.7511	1.28096e+06
6.31058	28.6729	3.16051	28.8466	-6.2901	24.3883	3.90963	-0.00261982	7979.84	95.7895	1	11	0.00455908	0.000158046	0	9.39551e-05	0.000144227	5.50639e-06	-39.0519	0.0348405	0.0270563	0.0219503	-6.32751	28.8759	28.7	3.18246	0.0344574	0.00379811	0.0346661	6.2901	95789.5	869028	874291	-83.7099	0.0000000E+000	0.0000000E+000	0.0000000E+000	83.7099	0.0000000E+000	0.0000000E+000	0.0000000E+000	-83.7099	0.0000000E+000	0.0000000E+000	0.0000000E+000	-6.2901	0.0000000E+000	0.0000000E+000	0.0000000E+000	6.2901	9.07227	83.7099	-8.95646e-07	-1.02425e-05	-3.77848e-10	-1.02421e-05	3.90949	1.49233e+06	55.0523	1.49228e+06
3.97785	29.1439	2.31379	29.2356	-4.53929	25.3954	3.90964	-0.001576	17292.1	108.31	1	11	0.00456355	0.000156096	0	9.31857e-05	1.06858e-05	8.55318e-06	-4.23257	0.0547945	0.0546451	0.00404411	-4.53872	29.2904	29.1986	2.31783	0.0340976	0.00270707	0.0342048	4.53929	108310	1.36425e+06	1.36855e+06	-85.4607	0.0000000E+000	0.0000000E+000	0.0000000E+000	85.4607	0.0000000E+000	0.0000000E+000	0.0000000E+000	-85.4607	0.0000000E+000	0.0000000E+000	0.0000000E+000	-4.53929	0.0000000E+000	0.0000000E+000	0.0000000E+000	4.53929	12.5958	85.4607	9.61708e-07	-6.1616e-06	-1.68409e-11	-6.16159e-06	3.90963	2.48073e+06	6.78032	2.48073e+06
2.51367	29.4772	1.77823	29.5307	-3.45222	26.9548	3.90963	-0.00122744	35606	129.107	1	11	0.00456757	0.000154672	0	9.43137e-05	-2.74688e-05	3.30344e-06	-39.279	0.0213577	0.0165324	0.0135215	-3.47646	29.5481	29.4937	1.79175	0.0338016	0.0020391	0.033863	3.45222	129107	2.14017e+06	2.14406e+06	-86.5478	0.0000000E+000	0.0000000E+000	0.0000000E+000	86.5478	0.0000000E+000	0.0000000E+000	0.0000000E+000	-86.5478	0.0000000E+000	0.0000000E+000	0.0000000E+000	-3.45222	0.0000000E+000	0.0000000E+000	0.0000000E+000	3.45222	16.5767	86.5478	-4.60926e-07	-4.79884e-06	3.37163e-11	-4.79887e-06	3.90966	3.18519e+06	22.3789	3.18521e+06
1.58469	29.6699	1.46316	29.706	-2.82323	29.3905	3.90964	-0.00143017	68641.4	166.525	1	11	0.00456238	0.000153585	0	8.7743e-05	0.00012515	3.0794e-06	0.544779	0.0200502	0.0200493	-0.000190638	-2.82096	29.726	29.69	1.46297	0.0336224	0.00165807	0.0336633	2.82323	166526	3.37681e+06	3.38091e+06	-87.1768	0.0000000E+000	0.0000000E+000	0.0000000E+000	87.1768	0.0000000E+000	0.0000000E+000	0.0000000E+000	-87.1768	0.0000000E+000	0.0000000E+000	0.0000000E+000	-2.82323	0.0000000E+000	0.0000000E+000	0.0000000E+000	2.82323	20.278	87.1768	-3.46973e-06	-5.59145e-06	-1.78985e-10	-5.59127e-06	3.90951	2.73368e+06	87.5068	2.7336e+06
1.00469	30.0024	1.34844	30.0327	-2.57339	241.12	3.90959	-0.00777282	117478	236.826	1	11	0.00500564	0.000166673	0	-0.000988528	-0.000180087	2.92705e-07	-19.1585	0.00175616	0.0016589	0.000576341	-2.57435	30.0344	30.004	1.34901	0.0332635	0.00149501	0.0332971	2.57339	236826	5.26932e+06	5.27464e+06	-87.4266	0.0000000E+000	0.0000000E+000	0.0000000E+000	87.4266	0.0000000E+000	0.0000000E+000	0.0000000E+000	-87.4266	0.0000000E+000	0.0000000E+000	0.0000000E+000	-2.57339	0.0000000E+000	0.0000000E+000	0.0000000E+000	2.57339	22.2497	87.4266	-0.00107489	-3.03886e-05	1.39979e-09	-3.039e-05	3.90977	502983	23.1688	503006
0.632957	30.2338	1.36362	30.2645	-2.58244	241.121	3.90959	-0.00777282	184396	374.345	1	11	0.00501778	0.000165797	0	-0.000988528	-0.000180087	3.78232e-07	-6.40082	0.00228129	0.00226707	0.000254326	-2.58272	30.2668	30.2361	1.36388	0.0330084	0.00148876	0.033042	2.58244	374345	8.29986e+06	8.30829e+06	-87.4176	0.0000000E+000	0.0000000E+000	0.0000000E+000	87.4176	0.0000000E+000	0.0000000E+000	0.0000000E+000	-87.4176	0.0000000E+000	0.0000000E+000	0.0000000E+000	-2.58244	0.0000000E+000	0.0000000E+000	0.0000000E+000	2.58244	22.1717	87.4176	0.000000000000000E+000	-3.03886e-05	1.39979e-09	-3.039e-05	3.90977	502983	23.1688	503006
0.401878	30.3979	1.53878	30.4368	-2.89791	241.122	3.90959	-0.00777282	257365	657.816	1	11	0.00503255	0.000165344	0	-0.000988528	-0.000180087	3.32187e-07	-6.48606	0.00200907	0.00199621	0.000226947	-2.89815	30.4388	30.3999	1.53901	0.0328129	0.00166103	0.0328549	2.89791	657816	1.29948e+07	1.30115e+07	-87.1021	0.0000000E+000	0.0000000E+000	0.0000000E+000	87.1021	0.0000000E+000	0.0000000E+000	0.0000000E+000	-87.1021	0.0000000E+000	0.0000000E+000	0.0000000E+000	-2.89791	0.0000000E+000	0.0000000E+000	0.0000000E+000	2.89791	19.7545	87.1021	0.000000000000000E+000	-3.03886e-05	1.39979e-09	-3.039e-05	3.90977	502983	23.1688	503006
0.251173	30.8785	1.77403	30.9294	-3.28814	241.123	3.90959	-0.00777282	357179	1175.07	1	11	0.0050323	0.000162703	0	-0.000988528	-0.000180087	3.63751e-07	22.8125	0.00223568	0.0020608	-0.000866812	-3.28632	30.9314	30.8806	1.77316	0.0322785	0.00185446	0.0323317	3.28814	1.17507e+06	2.04531e+07	2.04868e+07	-86.7119	0.0000000E+000	0.0000000E+000	0.0000000E+000	86.7119	0.0000000E+000	0.0000000E+000	0.0000000E+000	-86.7119	0.0000000E+000	0.0000000E+000	0.0000000E+000	-3.28814	0.0000000E+000	0.0000000E+000	0.0000000E+000	3.28814	17.4059	86.7119	0.000000000000000E+000	-3.03886e-05	1.39979e-09	-3.039e-05	3.90977	502983	23.1688	503006
0.160751	31.3046	2.01785	31.3696	-3.68809	241.124	3.90959	-0.00777282	490657	2030.19	1	11	0.00502914	0.000160319	0	-0.000988528	-0.000180087	1.88453e-07	-0.862197	0.00117549	0.00117536	1.76883e-05	-3.68799	31.3708	31.3058	2.01786	0.031812	0.00205055	0.031878	3.68809	2.03019e+06	3.14961e+07	3.15615e+07	-86.3119	0.0000000E+000	0.0000000E+000	0.0000000E+000	86.3119	0.0000000E+000	0.0000000E+000	0.0000000E+000	-86.3119	0.0000000E+000	0.0000000E+000	0.0000000E+000	-3.68809	0.0000000E+000	0.0000000E+000	0.0000000E+000	3.68809	15.5139	86.3119	0.000000000000000E+000	-3.03886e-05	1.39979e-09	-3.039e-05	3.90977	502983	23.1688	503006
0.100469	31.6728	2.81308	31.7974	-5.07553	241.125	3.90959	-0.00777282	563124	4407.42	1	11	0.00503213	0.000158256	0	-0.000988528	-0.000180087	2.51335e-07	6.06027	0.00158815	0.00157928	-0.000167669	-5.07497	31.799	31.6743	2.81291	0.0313258	0.00278226	0.0314491	5.07553	4.40742e+06	4.96236e+07	4.98189e+07	-84.9245	0.0000000E+000	0.0000000E+000	0.0000000E+000	84.9245	0.0000000E+000	0.0000000E+000	0.0000000E+000	-84.9245	0.0000000E+000	0.0000000E+000	0.0000000E+000	-5.07553	0.0000000E+000	0.0000000E+000	0.0000000E+000	5.07553	11.2591	84.9245	0.000000000000000E+000	-3.03886e-05	1.39979e-09	-3.039e-05	3.90977	502983	23.1688	503006
0.0602816	32.4067	3.57372	32.6032	-6.29298	241.126	3.90959	-0.00777282	738780	8876.37	1	11	0.00502588	0.000154153	0	-0.000988528	-0.000180087	4.48332e-07	10.9203	0.00290836	0.00285569	-0.000550969	-6.29147	32.606	32.4096	3.57317	0.030487	0.00336202	0.0306719	6.29298	8.87638e+06	8.04916e+07	8.09795e+07	-83.707	0.0000000E+000	0.0000000E+000	0.0000000E+000	83.707	0.0000000E+000	0.0000000E+000	0.0000000E+000	-83.707	0.0000000E+000	0.0000000E+000	0.0000000E+000	-6.29298	0.0000000E+000	0.0000000E+000	0.0000000E+000	6.29298	9.06807	83.707	0.000000000000000E+000	-3.03886e-05	1.39979e-09	-3.039e-05	3.90977	502983	23.1688	503006
0.0401878	33.593	4.47445	33.8897	-7.5869	241.127	3.90959	-0.00777282	885089	15428.8	1	11	0.00502621	0.000148311	0	-0.000988528	-0.000180087	7.11002e-07	74.3255	0.004794	0.0012952	-0.00461572	-7.57888	33.8904	33.5943	4.46983	0.0292492	0.00389587	0.0295075	7.5869	1.54287e+07	1.15835e+08	1.16858e+08	-82.4131	0.0000000E+000	0.0000000E+000	0.0000000E+000	82.4131	0.0000000E+000	0.0000000E+000	0.0000000E+000	-82.4131	0.0000000E+000	0.0000000E+000	0.0000000E+000	-7.5869	0.0000000E+000	0.0000000E+000	0.0000000E+000	7.5869	7.50774	82.4131	0.000000000000000E+000	-3.03886e-05	1.39979e-09	-3.039e-05	3.90977	502983	23.1688	503006
0.0200939	35.7785	6.77707	36.4147	-10.7257	241.128	3.90959	-0.00777282	1.16873e+06	40480.3	1	11	0.00502557	0.000138009	0	-0.000988528	-0.000180087	4.89729e-07	-74.1145	0.00354852	0.000971286	0.00341301	-10.7307	36.4163	35.7795	6.78048	0.0269816	0.00511079	0.0274614	10.7257	4.04803e+07	2.1371e+08	2.1751e+08	-79.2743	0.0000000E+000	0.0000000E+000	0.0000000E+000	79.2743	0.0000000E+000	0.0000000E+000	0.0000000E+000	-79.2743	0.0000000E+000	0.0000000E+000	0.0000000E+000	-10.7257	0.0000000E+000	0.0000000E+000	0.0000000E+000	10.7257	5.27935	79.2743	0.000000000000000E+000	-3.03886e-05	1.39979e-09	-3.039e-05	3.90977	502983	23.1688	503006
0.00796479	33.3489	7.87571	34.2663	-13.2876	20330	3.90965	-0.000275423	2.53721e+06	134030	1	11	0.00502023	0.000146507	0	-0.012506	0.000144227	5.98299e-07	-32.6826	0.00408376	0.0034372	0.00220517	-13.2898	34.2701	33.3523	7.87791	0.028402	0.00670743	0.0291832	13.2876	1.3403e+08	5.67537e+08	5.83149e+08	-76.7124	0.0000000E+000	0.0000000E+000	0.0000000E+000	76.7124	0.0000000E+000	0.0000000E+000	0.0000000E+000	-76.7124	0.0000000E+000	0.0000000E+000	0.0000000E+000	-13.2876	0.0000000E+000	0.0000000E+000	0.0000000E+000	13.2876	4.2344	76.7124	-0.0115174	-1.07681e-06	-3.97234e-11	-1.07677e-06	3.9095	1.41951e+07	523.657	1.41945e+07
0.00497799	36.4164	7.77689	37.2375	-12.0547	20330	3.90965	-0.000275423	4.11112e+06	179312	1	11	0.00502785	0.000135021	0	-0.012506	0.000144227	5.64816e-07	-0.934095	0.00418317	0.00418262	6.81953e-05	-12.0535	37.2416	36.4206	7.77696	0.0262624	0.00560847	0.0268546	12.0547	1.79312e+08	8.39656e+08	8.58589e+08	-77.9453	0.0000000E+000	0.0000000E+000	0.0000000E+000	77.9453	0.0000000E+000	0.0000000E+000	0.0000000E+000	-77.9453	0.0000000E+000	0.0000000E+000	0.0000000E+000	-12.0547	0.0000000E+000	0.0000000E+000	0.0000000E+000	12.0547	4.68264	77.9453	0.000000000000000E+000	-1.07681e-06	-3.97234e-11	-1.07677e-06	3.9095	1.41951e+07	523.657	1.41945e+07
0.00318591	38.0503	9.94471	39.3284	-14.647	20330	3.90965	-0.000275423	5.02336e+06	321192	1	11	0.00503033	0.000127906	0	-0.012506	0.000144227	7.58119e-07	-35.8364	0.00592717	0.00480511	0.00347019	-14.6501	39.3339	38.0551	9.94818	0.0246006	0.00642953	0.0254269	14.647	3.21192e+08	1.22894e+09	1.27022e+09	-75.353	0.0000000E+000	0.0000000E+000	0.0000000E+000	75.353	0.0000000E+000	0.0000000E+000	0.0000000E+000	-75.353	0.0000000E+000	0.0000000E+000	0.0000000E+000	-14.647	0.0000000E+000	0.0000000E+000	0.0000000E+000	14.647	3.82619	75.353	0.000000000000000E+000	-1.07681e-06	-3.97234e-11	-1.07677e-06	3.9095	1.41951e+07	523.657	1.41945e+07
0.0019912	39.9265	11.2999	41.4947	-15.8024	20330	3.90965	-0.000275423	7.07347e+06	524559	1	11	0.00503268	0.000121285	0	-0.012506	0.000144227	9.82337e-07	-20.589	0.00809942	0.00758208	0.00284826	-15.8034	41.5028	39.9341	11.3027	0.0231887	0.00656279	0.0240995	15.8024	5.24559e+08	1.85345e+09	1.92625e+09	-74.1976	0.0000000E+000	0.0000000E+000	0.0000000E+000	74.1976	0.0000000E+000	0.0000000E+000	0.0000000E+000	-74.1976	0.0000000E+000	0.0000000E+000	0.0000000E+000	-15.8024	0.0000000E+000	0.0000000E+000	0.0000000E+000	15.8024	3.53336	74.1976	0.000000000000000E+000	-1.07681e-06	-3.97234e-11	-1.07677e-06	3.9095	1.41951e+07	523.657	1.41945e+07
0.00129428	40.4336	12.695	42.3797	-17.4308	20330	3.90965	-0.000275423	9.68637e+06	869177	1	11	0.00503401	0.000118783	0	-0.012506	0.000144227	6.94769e-07	-0.084305	0.00584904	0.00584903	8.60627e-06	-17.4284	42.3853	40.4395	12.695	0.0225127	0.00706831	0.0235962	17.4308	8.69177e+08	2.76834e+09	2.90158e+09	-72.5692	0.0000000E+000	0.0000000E+000	0.0000000E+000	72.5692	0.0000000E+000	0.0000000E+000	0.0000000E+000	-72.5692	0.0000000E+000	0.0000000E+000	0.0000000E+000	-17.4308	0.0000000E+000	0.0000000E+000	0.0000000E+000	17.4308	3.18501	72.5692	0.000000000000000E+000	-1.07681e-06	-3.97234e-11	-1.07677e-06	3.9095	1.41951e+07	523.657	1.41945e+07
0.000796479	43.025	16.8083	46.1917	-21.3387	20330	3.90965	-0.000275423	1.18884e+07	1.57413e+06	1	11	0.00503312	0.000108962	0	-0.012506	0.000144227	9.52659e-07	0.292267	0.00874307	0.00874296	-4.45984e-05	-21.3347	46.1998	43.0338	16.8082	0.0201648	0.00787762	0.0216489	21.3387	1.57413e+09	4.02939e+09	4.32596e+09	-68.6613	0.0000000E+000	0.0000000E+000	0.0000000E+000	68.6613	0.0000000E+000	0.0000000E+000	0.0000000E+000	-68.6613	0.0000000E+000	0.0000000E+000	0.0000000E+000	-21.3387	0.0000000E+000	0.0000000E+000	0.0000000E+000	21.3387	2.55975	68.6613	0.000000000000000E+000	-1.07681e-06	-3.97234e-11	-1.07677e-06	3.9095	1.41951e+07	523.657	1.41945e+07
0.000497799	41.2221	22.2039	46.8217	-28.3087	20330	3.90965	-0.000275423	1.43992e+07	3.23818e+06	1	11	0.00503605	0.000107558	0	-0.012506	0.000144227	9.43034e-07	31.3325	0.00876766	0.00748902	-0.00455922	-28.2994	46.8261	41.2295	22.1993	0.0188034	0.0101283	0.0213576	28.3087	3.23818e+09	6.01176e+09	6.8284e+09	-61.6913	0.0000000E+000	0.0000000E+000	0.0000000E+000	61.6913	0.0000000E+000	0.0000000E+000	0.0000000E+000	-61.6913	0.0000000E+000	0.0000000E+000	0.0000000E+000	-28.3087	0.0000000E+000	0.0000000E+000	0.0000000E+000	28.3087	1.85653	61.6913	0.000000000000000E+000	-1.07681e-06	-3.97234e-11	-1.07677e-06	3.9095	1.41951e+07	523.657	1.41945e+07
0.000298679	40.6935	34.3409	53.2472	-40.1607	20330	3.90965	-0.000275423	1.55168e+07	6.45406e+06	1	11	0.00503569	9.45719e-05	0	-0.012506	0.000144227	8.35157e-07	10.5888	0.00883093	0.00868055	-0.00162276	-40.1534	53.2528	40.7022	34.3393	0.0143526	0.0121121	0.0187803	40.1607	6.45406e+09	7.64798e+09	1.00073e+10	-49.8393	0.0000000E+000	0.0000000E+000	0.0000000E+000	49.8393	0.0000000E+000	0.0000000E+000	0.0000000E+000	-49.8393	0.0000000E+000	0.0000000E+000	0.0000000E+000	-40.1607	0.0000000E+000	0.0000000E+000	0.0000000E+000	40.1607	1.18499	49.8393	0.000000000000000E+000	-1.07681e-06	-3.97234e-11	-1.07677e-06	3.9095	1.41951e+07	523.657	1.41945e+07
9.95598e-05	54.6971	113.064	125.6	-64.1837	20330	3.90965	-0.000275423	1.41387e+07	1.14573e+07	1	11	0.00502995	4.00474e-05	0	-0.012506	0.000144227	1.91382e-06	-77.6482	0.0477888	0.0102227	0.0466827	-64.1888	125.646	54.7073	113.111	0.00346725	0.00716717	0.00796179	64.1837	1.14573e+10	5.5427e+09	1.27276e+10	-25.8163	0.0000000E+000	0.0000000E+000	0.0000000E+000	25.8163	0.0000000E+000	0.0000000E+000	0.0000000E+000	-25.8163	0.0000000E+000	0.0000000E+000	0.0000000E+000	-64.1837	0.0000000E+000	0.0000000E+000	0.0000000E+000	64.1837	0.483769	25.8163	0.000000000000000E+000	-1.07681e-06	-3.97234e-11	-1.07677e-06	3.9095	1.41951e+07	523.657	1.41945e+07