File: txt/19364_R311_UC99_SOC50_C03.mpt
EC-Lab ASCII FILE
Nb header lines : 65

Potentio Electrochemical Impedance Spectroscopy

Run on channel : 3 (SN 65921)
User :
CE vs. WE compliance from -10 V to 10 V
Electrode connection : standard
Potential control : Ewe
Ewe ctrl range : min = -10.00 V, max = 10.00 V
Safety Limits :
	Do not start on E overload
Acquisition started on : 11/19/2025 16:14:41.664
Technique started on : 11/19/2025 16:14:43.899
Loaded Setting File :  C:\Users\Celltest\OneDrive - store-dot.com\Documents\EC-Lab\Data\txt_done\19191_R297_UC94_SOC50_C08.mpr
Saved on :
	File : 19364_R311_UC99_SOC50_C03.mpr
	Directory : C:\Users\Celltest\OneDrive - store-dot.com\Documents\EC-Lab\Data\Gyutae\
	Host : 169.254.61.224
Device : VMP-3e (SN .003165)
Address : USB
EC-LAB for windows v11.62 (software)
Internet server v27.00 (firmware)
Command interpretor v12.03 (firmware)
Electrode material :
Initial state :
Electrolyte :
Comments :
Electrode surface area : 0.001 cm²
Characteristic mass : 0.001 g
Equivalent Weight : 0.000 g/eq.
Density : 0.000 g/cm3
Volume (V) : 0.001 cm³
Record Ece
Cycle Definition : Charge/Discharge alternance
Mode                Multi sine
E (V)               0.0000
vs.                 Eoc
tE (h:m:s)          0:00:0.0000
record              0
dI                  0.000
unit dI             mA
dt (s)              0.000
fi                  1.000
unit fi             MHz
ff                  0.100
unit ff             mHz
Nd                  10
Points              per decade
spacing             Logarithmic
Va (mV)             5.0
pw                  0.10
Na                  2
corr                0
E range min (V)     -10.000
E range max (V)     10.000
I Range             Auto
Bandwidth           5
nc cycles           0
goto Ns'            0
nr cycles           0
inc. cycle          0

freq/Hz	Re(Z)/Ohm	-Im(Z)/Ohm	|Z|/Ohm	Phase(Z)/deg	time/s	<Ewe>/V	<I>/mA	Cs/µF	Cp/µF	cycle number	I Range	|Ewe|/V	|I|/A	Ns	(Q-Qo)/mA.h	<Ece>/V	|Ece|/V	Phase(Zce)/deg	|Zce|/Ohm	Re(Zce)/Ohm	-Im(Zce)/Ohm	Phase(Zwe-ce)/deg	|Zwe-ce|/Ohm	Re(Zwe-ce)/Ohm	-Im(Zwe-ce)/Ohm	Re(Y)/Ohm-1	Im(Y)/Ohm-1	|Y|/Ohm-1	Phase(Y)/deg	Re(C)/nF	Im(C)/nF	|C|/nF	Phase(C)/deg	Re(M)	Im(M)	|M|	Phase(M)/deg	Re(Permittivity)	Im(Permittivity)	|Permittivity|	Phase(Permittivity)/deg	Re(Resistivity)/Ohm.cm	Im(Resistivity)/Ohm.cm	|Resistivity|/Ohm.cm	Phase(Resistivity)/deg	Re(Conductivity)/mS/cm	Im(Conductivity)/mS/cm	|Conductivity|/mS/cm	Phase(Conductivity)/deg	Tan(Delta)	Loss Angle(Delta)/deg	dq/mA.h	Pwe/W	Pce/W	Pwe-ce/W	<Ewe-Ece>/V	Rwe/Ohm	Rce/Ohm	Rwe-ce/Ohm		Ewe-Ece/V
1.00002e+06	2.46899	2.84933	3.77023	-49.0905	2.23454	3.89965	-0.0147894	0.0558559	0.0319021	1	10	0.00022113	5.86515e-05	0	-1.08956e-05	-0.000188635	0.000197903	-65.6084	3.37421	1.39345	3.07304	-56.8885	7.07057	3.86245	5.92237	0.173694	0.200451	0.265236	49.0905	31.9021	27.6437	42.2128	-40.9095	0.0000000E+000	0.0000000E+000	0.0000000E+000	40.9095	0.0000000E+000	0.0000000E+000	0.0000000E+000	-40.9095	0.0000000E+000	0.0000000E+000	0.0000000E+000	-49.0905	0.0000000E+000	0.0000000E+000	0.0000000E+000	49.0905	0.866516	40.9095	-1.08956e-05	-5.76734e-05	2.7898e-09	-5.76762e-05	3.89984	263679	12.7548	263691
630957	0.941544	-0.250611	0.974326	14.9049	3.40356	3.89927	0.0110697	-1.00652	-0.0665905	1	9	0.000261371	0.000268258	0	-1.07397e-05	5.95877e-05	9.94151e-05	-102.568	0.370595	-0.0806382	0.361715	-7.35367	0.868046	0.860906	0.111104	0.991818	-0.263992	1.02635	-14.9049	-66.5905	250.18	258.89	-104.905	0.0000000E+000	0.0000000E+000	0.0000000E+000	104.905	0.0000000E+000	0.0000000E+000	0.0000000E+000	-104.905	0.0000000E+000	0.0000000E+000	0.0000000E+000	14.9049	0.0000000E+000	0.0000000E+000	0.0000000E+000	-14.9049	3.75699	75.0951	1.02719e-06	4.31638e-05	6.59619e-10	4.31632e-05	3.89921	352246	5.38294	352241
398103	1.30267	-0.0186055	1.3028	0.818278	4.16955	3.89935	0.0145007	-21.4874	-0.00438238	1	9	0.001	0.000767581	0	-8.48464e-06	5.95877e-05	4.96672e-05	156.268	0.0647062	-0.0592347	-0.0260412	2.05638	1.24423	1.24343	-0.0446466	0.7675	-0.0109619	0.767579	-0.818278	-4.38237	306.834	306.865	-90.8183	0.0000000E+000	0.0000000E+000	0.0000000E+000	90.8183	0.0000000E+000	0.0000000E+000	0.0000000E+000	-90.8183	0.0000000E+000	0.0000000E+000	0.0000000E+000	0.818278	0.0000000E+000	0.0000000E+000	0.0000000E+000	-0.818278	70.0152	89.1817	1.38021e-06	5.65434e-05	8.64065e-10	5.65425e-05	3.89929	268907	4.10928	268903
251206	1.38159	0.237905	1.40192	-9.77031	4.93655	3.89924	0.00972721	2.6631	0.076691	1	9	0.00294684	0.002102	0	-3.07246e-06	7.86817e-05	5.52851e-05	97.0731	0.0263012	-0.0032386	-0.0261011	-8.73599	1.39453	1.37835	0.211804	0.70296	0.121047	0.713306	9.77031	76.691	445.37	451.924	-80.2297	0.0000000E+000	0.0000000E+000	0.0000000E+000	80.2297	0.0000000E+000	0.0000000E+000	0.0000000E+000	-80.2297	0.0000000E+000	0.0000000E+000	0.0000000E+000	-9.77031	0.0000000E+000	0.0000000E+000	0.0000000E+000	9.77031	5.80732	80.2297	2.08926e-06	3.79287e-05	7.65353e-10	3.79279e-05	3.89916	400859	8.08883	400851
158486	1.48519	0.384838	1.53424	-14.5268	5.58055	3.89922	0.0099137	2.60946	0.164181	1	9	0.00531987	0.00346744	0	8.9686e-06	-0.000169541	5.76893e-05	74.1996	0.0166374	0.00453016	-0.0160088	-13.9058	1.5347	1.48972	0.368829	0.630952	0.163491	0.65179	14.5268	164.18	633.615	654.54	-75.4732	0.0000000E+000	0.0000000E+000	0.0000000E+000	75.4732	0.0000000E+000	0.0000000E+000	0.0000000E+000	-75.4732	0.0000000E+000	0.0000000E+000	0.0000000E+000	-14.5268	0.0000000E+000	0.0000000E+000	0.0000000E+000	14.5268	3.85926	75.4732	8.89285e-06	3.86557e-05	-1.68078e-09	3.86574e-05	3.89939	393316	17.1017	393333
100004	1.61224	0.48655	1.68406	-16.793	6.34656	3.89919	0.00748963	3.27097	0.273033	1	9	0.00533375	0.00316719	0	1.63384e-05	-1.67886e-05	3.39255e-05	63.9703	0.0107115	0.00470062	-0.00962502	-16.4336	1.68581	1.61695	0.476925	0.56848	0.171558	0.593803	16.793	273.033	904.73	945.031	-73.207	0.0000000E+000	0.0000000E+000	0.0000000E+000	73.207	0.0000000E+000	0.0000000E+000	0.0000000E+000	-73.207	0.0000000E+000	0.0000000E+000	0.0000000E+000	-16.793	0.0000000E+000	0.0000000E+000	0.0000000E+000	16.793	3.31363	73.207	-6.9508e-07	2.92035e-05	-1.2574e-10	2.92036e-05	3.89921	520613	2.24158	520615
63093.8	1.76796	0.583152	1.86165	-18.2548	7.11256	3.89919	0.0139414	4.32565	0.424441	1	9	0.00525206	0.00282118	0	2.49612e-05	-7.40708e-05	2.222e-05	56.6301	0.00787611	0.0043322	-0.00657763	-18.0211	1.86372	1.77229	0.576574	0.510123	0.168261	0.537157	18.2548	424.441	1286.79	1354.99	-71.7452	0.0000000E+000	0.0000000E+000	0.0000000E+000	71.7452	0.0000000E+000	0.0000000E+000	0.0000000E+000	-71.7452	0.0000000E+000	0.0000000E+000	0.0000000E+000	-18.2548	0.0000000E+000	0.0000000E+000	0.0000000E+000	18.2548	3.03173	71.7452	1.14844e-06	5.43602e-05	-1.03265e-09	5.43613e-05	3.89927	279684	5.31301	279689
39814.1	1.93444	0.696742	2.05609	-19.8079	7.87856	3.89919	0.00797442	5.73735	0.658825	1	9	0.00523361	0.00254542	0	3.26449e-05	-3.58827e-05	2.17946e-05	-4.1073	0.00856231	0.00854032	0.000613272	-19.7435	2.06434	1.94298	0.697356	0.457583	0.164811	0.486359	19.8079	658.825	1829.17	1944.2	-70.1921	0.0000000E+000	0.0000000E+000	0.0000000E+000	70.1921	0.0000000E+000	0.0000000E+000	0.0000000E+000	-70.1921	0.0000000E+000	0.0000000E+000	0.0000000E+000	-19.8079	0.0000000E+000	0.0000000E+000	0.0000000E+000	19.8079	2.77641	70.1921	5.78142e-06	3.10938e-05	-2.86143e-10	3.1094e-05	3.89922	488962	4.49972	488966
25116.9	2.14386	0.819742	2.29523	-20.9252	8.64456	3.89919	3.08833e-05	7.72995	0.986	1	9	0.0052416	0.00228369	0	3.62401e-05	-0.000245917	4.57307e-05	94.9818	0.0200249	-0.00173895	-0.0199493	-20.4739	2.28656	2.14212	0.799793	0.406951	0.155605	0.435685	20.9252	986	2578.67	2760.75	-69.0748	0.0000000E+000	0.0000000E+000	0.0000000E+000	69.0748	0.0000000E+000	0.0000000E+000	0.0000000E+000	-69.0748	0.0000000E+000	0.0000000E+000	0.0000000E+000	-20.9252	0.0000000E+000	0.0000000E+000	0.0000000E+000	20.9252	2.61528	69.0748	2.13454e-06	1.2042e-07	-7.59474e-12	1.20427e-07	3.89943	1.26256e+08	7962.79	1.26263e+08
15847.7	2.3684	0.939525	2.54794	-21.6379	9.41255	3.89919	0.000739454	10.6892	1.45339	1	9	0.00522618	0.00205114	0	3.66514e-05	0.000174152	8.64203e-06	28.215	0.00421328	0.00371266	-0.00199197	-21.5655	2.55066	2.37211	0.937533	0.364817	0.14472	0.392474	21.6379	1453.39	3663.78	3941.53	-68.3622	0.0000000E+000	0.0000000E+000	0.0000000E+000	68.3622	0.0000000E+000	0.0000000E+000	0.0000000E+000	-68.3622	0.0000000E+000	0.0000000E+000	0.0000000E+000	-21.6379	0.0000000E+000	0.0000000E+000	0.0000000E+000	21.6379	2.52084	68.3622	5.03104e-07	2.88328e-06	1.28777e-10	2.88315e-06	3.89902	5.27307e+06	235.514	5.27283e+06
10002.2	2.63333	1.09516	2.85198	-22.5817	10.1786	3.89919	-0.000528539	14.5293	2.14244	1	9	0.0051776	0.00181544	0	3.61e-05	4.04936e-05	9.0543e-06	-86.0025	0.00498739	0.000347687	0.00497525	-22.6712	2.85421	2.63368	1.10013	0.323752	0.134643	0.350634	22.5817	2142.44	5151.52	5579.27	-67.4183	0.0000000E+000	0.0000000E+000	0.0000000E+000	67.4183	0.0000000E+000	0.0000000E+000	0.0000000E+000	-67.4183	0.0000000E+000	0.0000000E+000	0.0000000E+000	-22.5817	0.0000000E+000	0.0000000E+000	0.0000000E+000	22.5817	2.40451	67.4183	-3.06974e-07	-2.06087e-06	-2.14024e-11	-2.06085e-06	3.89915	7.3773e+06	76.6142	7.37723e+06
6309.38	2.93368	1.29313	3.20603	-23.7873	10.9446	3.89919	0.000441081	19.507	3.1735	1	9	0.00501549	0.00156439	0	3.58086e-05	0.000135964	1.31899e-05	-10.6408	0.00843134	0.00828635	0.00155686	-23.7531	3.21425	2.94197	1.29469	0.285415	0.125807	0.311912	23.7873	3173.5	7199.62	7868.01	-66.2127	0.0000000E+000	0.0000000E+000	0.0000000E+000	66.2127	0.0000000E+000	0.0000000E+000	0.0000000E+000	-66.2127	0.0000000E+000	0.0000000E+000	0.0000000E+000	-23.7873	0.0000000E+000	0.0000000E+000	0.0000000E+000	23.7873	2.26867	66.2127	-1.65639e-06	1.71986e-06	5.99711e-11	1.7198e-06	3.89905	8.84007e+06	308.252	8.83976e+06
3983.6	3.27022	1.52105	3.60665	-24.9441	11.652	3.89918	0.00514007	26.2665	4.67175	1	9	0.00509962	0.00141395	0	4.0144e-05	2.30547e-06	6.97862e-06	19.8026	0.00493554	0.00464368	-0.00167207	-24.889	3.61015	3.27486	1.51937	0.251402	0.116933	0.277266	24.9441	4671.75	10044.2	11077.5	-65.0559	0.0000000E+000	0.0000000E+000	0.0000000E+000	65.0559	0.0000000E+000	0.0000000E+000	0.0000000E+000	-65.0559	0.0000000E+000	0.0000000E+000	0.0000000E+000	-24.9441	0.0000000E+000	0.0000000E+000	0.0000000E+000	24.9441	2.14998	65.0559	3.35097e-06	2.0042e-05	1.18503e-11	2.0042e-05	3.89918	758585	0.448529	758585
2510.8	3.65729	1.83704	4.09274	-26.6702	12.6858	3.89917	-0.0407573	34.5055	6.95182	1	10	0.00519134	0.00126843	0	2.91071e-05	-0.000284106	8.90975e-06	16.945	0.00702426	0.0067193	-0.00204725	-26.6024	4.09783	3.66401	1.83499	0.218339	0.109671	0.244335	26.6702	6951.82	13840.1	15487.9	-63.3298	0.0000000E+000	0.0000000E+000	0.0000000E+000	63.3298	0.0000000E+000	0.0000000E+000	0.0000000E+000	-63.3298	0.0000000E+000	0.0000000E+000	0.0000000E+000	-26.6702	0.0000000E+000	0.0000000E+000	0.0000000E+000	26.6702	1.99086	63.3298	-5.57957e-06	-0.00015892	1.15794e-08	-0.000158931	3.89946	95668.1	6.97067	95675
1585.51	4.12998	2.23077	4.69394	-28.3753	13.5868	3.89918	-0.0414397	44.9984	10.1632	1	10	0.00508966	0.0010843	0	1.90661e-05	0.000174152	7.32512e-06	-26.4755	0.0067556	0.0060471	0.00301175	-28.3725	4.70069	4.13603	2.23378	0.187445	0.101246	0.213041	28.3753	10163.2	18815.9	21385.2	-61.6247	0.0000000E+000	0.0000000E+000	0.0000000E+000	61.6247	0.0000000E+000	0.0000000E+000	0.0000000E+000	-61.6247	0.0000000E+000	0.0000000E+000	0.0000000E+000	-28.3753	0.0000000E+000	0.0000000E+000	0.0000000E+000	28.3753	1.85137	61.6247	-5.74444e-06	-0.000161581	-7.21681e-09	-0.000161573	3.899	94092.8	4.20254	94088.6
1000.32	4.70364	2.75238	5.44975	-30.3345	14.4888	3.89918	-0.0427112	57.8059	14.7447	1	10	0.00496521	0.000911089	0	8.31097e-06	-0.0003032	5.66743e-06	104.514	0.00622049	-0.00155896	-0.00602198	-30.2881	5.44537	4.70208	2.74636	0.158373	0.0926734	0.183494	30.3345	14744.7	25197.7	29194.7	-59.6655	0.0000000E+000	0.0000000E+000	0.0000000E+000	59.6655	0.0000000E+000	0.0000000E+000	0.0000000E+000	-59.6655	0.0000000E+000	0.0000000E+000	0.0000000E+000	-30.3345	0.0000000E+000	0.0000000E+000	0.0000000E+000	30.3345	1.70893	59.6655	-4.83176e-06	-0.000166539	1.295e-08	-0.000166552	3.89949	91291.7	7.09882	91298.8
631.01	5.4118	3.42788	6.40609	-32.3505	15.3906	3.89917	-0.0437292	73.5797	21.0681	1	10	0.00486384	0.000759254	0	-1.65451e-06	-0.000150447	4.35488e-06	56.4604	0.00573573	0.00316907	-0.00478076	-32.2993	6.40621	5.41497	3.4231	0.131873	0.0835296	0.156102	32.3505	21068.1	33261.4	39372.4	-57.6495	0.0000000E+000	0.0000000E+000	0.0000000E+000	57.6495	0.0000000E+000	0.0000000E+000	0.0000000E+000	-57.6495	0.0000000E+000	0.0000000E+000	0.0000000E+000	-32.3505	0.0000000E+000	0.0000000E+000	0.0000000E+000	32.3505	1.57876	57.6495	-5.25085e-06	-0.000170508	6.57893e-09	-0.000170514	3.89932	89166.3	3.44042	89169.7
398.089	6.32622	4.32244	7.66189	-34.3432	16.2919	3.89918	-0.0439082	92.4934	29.4372	1	10	0.00479794	0.000626208	0	-1.24998e-05	2.13995e-05	4.01922e-06	-3.2713	0.00641834	0.00640789	0.000366256	-34.3184	7.66739	6.33263	4.32281	0.107764	0.0736304	0.130516	34.3432	29437.2	43083.6	52180	-55.6568	0.0000000E+000	0.0000000E+000	0.0000000E+000	55.6568	0.0000000E+000	0.0000000E+000	0.0000000E+000	-55.6568	0.0000000E+000	0.0000000E+000	0.0000000E+000	-34.3432	0.0000000E+000	0.0000000E+000	0.0000000E+000	34.3432	1.46358	55.6568	-5.58561e-06	-0.000171206	-9.39615e-10	-0.000171205	3.89916	88802.9	0.48737	88802.5
251.044	7.61167	5.44498	9.35871	-35.5779	17.19	3.89918	-0.0445309	116.432	39.4126	1	10	0.00475963	0.000508578	0	-2.2874e-05	-0.000226823	1.28842e-05	104.668	0.0253337	-0.00641487	-0.0245081	-35.4785	9.33924	7.60526	5.42047	0.0869057	0.0621677	0.106852	35.5779	39412.6	55095.8	67741.4	-54.4221	0.0000000E+000	0.0000000E+000	0.0000000E+000	54.4221	0.0000000E+000	0.0000000E+000	0.0000000E+000	-54.4221	0.0000000E+000	0.0000000E+000	0.0000000E+000	-35.5779	0.0000000E+000	0.0000000E+000	0.0000000E+000	35.5779	1.39792	54.4221	-5.31061e-06	-0.000173634	1.01007e-08	-0.000173644	3.8994	87561	5.09361	87566.1
158.428	9.46114	6.74302	11.6182	-35.4777	18.0948	3.89918	-0.045452	148.982	50.1842	1	10	0.0047551	0.000409282	0	-3.31887e-05	5.95877e-05	6.65325e-06	25.8355	0.0162559	0.0146311	-0.00708413	-35.4075	11.626	9.47578	6.73594	0.0700921	0.0499551	0.0860722	35.4777	50184.2	70413.5	86466.9	-54.5223	0.0000000E+000	0.0000000E+000	0.0000000E+000	54.5223	0.0000000E+000	0.0000000E+000	0.0000000E+000	-54.5223	0.0000000E+000	0.0000000E+000	0.0000000E+000	-35.4777	0.0000000E+000	0.0000000E+000	0.0000000E+000	35.4777	1.4031	54.5223	-5.39914e-06	-0.000177226	-2.70838e-09	-0.000177223	3.89912	85786.9	1.311	85785.5
100.032	12.0723	7.84717	14.3986	-33.0244	18.9928	3.89918	-0.04647	202.753	60.2219	1	10	0.00473615	0.000328932	0	-4.45679e-05	-3.58827e-05	9.1052e-06	138.047	0.0276811	-0.0205863	-0.0185053	-33.0073	14.3712	12.0517	7.82866	0.0582306	0.0378506	0.0694513	33.0244	60221.9	92647.3	110500	-56.9756	0.0000000E+000	0.0000000E+000	0.0000000E+000	56.9756	0.0000000E+000	0.0000000E+000	0.0000000E+000	-56.9756	0.0000000E+000	0.0000000E+000	0.0000000E+000	-33.0244	0.0000000E+000	0.0000000E+000	0.0000000E+000	33.0244	1.53843	56.9756	-5.42882e-06	-0.000181195	1.66747e-09	-0.000181196	3.89921	83907.5	0.772169	83908.2
63.0823	15.2065	8.28281	17.316	-28.5766	19.91	3.89918	-0.0463096	304.604	69.6942	1	10	0.00473143	0.000273241	0	-5.60182e-05	-0.000188635	5.02294e-06	-9.01389	0.0183828	0.0181558	0.00288011	-28.5563	17.3333	15.2247	8.28569	0.0507149	0.0276239	0.0577502	28.5766	69694.2	127952	145702	-61.4234	0.0000000E+000	0.0000000E+000	0.0000000E+000	61.4234	0.0000000E+000	0.0000000E+000	0.0000000E+000	-61.4234	0.0000000E+000	0.0000000E+000	0.0000000E+000	-28.5766	0.0000000E+000	0.0000000E+000	0.0000000E+000	28.5766	1.83591	61.4234	-5.88935e-06	-0.000180569	8.73563e-09	-0.000180578	3.89937	84198	4.07335	84202
39.8089	18.4907	7.78613	20.0632	-22.8351	21.0568	3.89918	-0.048402	513.474	77.3326	1	11	0.00473756	0.000236132	0	-7.06553e-05	2.30547e-06	8.08537e-06	-137.354	0.0342409	-0.025186	0.023197	-22.9242	20.049	18.4655	7.80933	0.0459362	0.019343	0.0498426	22.8351	77332.6	183652	199269	-67.1649	0.0000000E+000	0.0000000E+000	0.0000000E+000	67.1649	0.0000000E+000	0.0000000E+000	0.0000000E+000	-67.1649	0.0000000E+000	0.0000000E+000	0.0000000E+000	-22.8351	0.0000000E+000	0.0000000E+000	0.0000000E+000	22.8351	2.37483	67.1649	-8.51943e-06	-0.000188728	-1.11589e-10	-0.000188728	3.89918	80558.3	0.0476317	80558.3
25.1044	21.0844	6.46727	22.054	-17.0525	21.9361	3.89919	-0.0490262	980.276	84.298	1	11	0.00473248	0.000214586	0	-8.2171e-05	9.77758e-05	6.37115e-06	-145.023	0.0296904	-0.0243277	0.01702	-17.1133	22.0357	21.0601	6.48429	0.0433499	0.0132968	0.0453433	17.0525	84298	274826	287464	-72.9475	0.0000000E+000	0.0000000E+000	0.0000000E+000	72.9475	0.0000000E+000	0.0000000E+000	0.0000000E+000	-72.9475	0.0000000E+000	0.0000000E+000	0.0000000E+000	-17.0525	0.0000000E+000	0.0000000E+000	0.0000000E+000	17.0525	3.26017	72.9475	-6.22951e-06	-0.000191163	-4.79358e-09	-0.000191158	3.89909	79532.7	1.99436	79530.7
15.8576	22.8063	4.93121	23.3333	-12.2007	22.814	3.89918	-0.0501278	2035.31	90.9041	1	11	0.00472644	0.000202562	0	-9.34176e-05	7.86817e-05	8.40316e-06	10.9534	0.0414844	0.0407286	-0.0078825	-12.1608	23.3715	22.847	4.92332	0.0418892	0.00905733	0.0428572	12.2007	90904.1	420422	430137	-77.7992	0.0000000E+000	0.0000000E+000	0.0000000E+000	77.7992	0.0000000E+000	0.0000000E+000	0.0000000E+000	-77.7992	0.0000000E+000	0.0000000E+000	0.0000000E+000	-12.2007	0.0000000E+000	0.0000000E+000	0.0000000E+000	12.2007	4.62489	77.7992	-5.26357e-06	-0.000195457	-3.94414e-09	-0.000195453	3.8991	77784.8	1.56962	77783.2
10.0032	23.8442	3.61334	24.1164	-8.61702	23.7958	3.89919	-0.0503925	4403.24	98.8474	1	11	0.00472893	0.000196088	0	-0.000107347	-0.000150447	7.02723e-06	-85.4787	0.0358371	0.00282502	0.0357256	-8.69991	24.1246	23.847	3.64906	0.0409975	0.00621275	0.0414656	8.61702	98847.3	652287	659734	-81.383	0.0000000E+000	0.0000000E+000	0.0000000E+000	81.383	0.0000000E+000	0.0000000E+000	0.0000000E+000	-81.383	0.0000000E+000	0.0000000E+000	0.0000000E+000	-8.61702	0.0000000E+000	0.0000000E+000	0.0000000E+000	8.61702	6.59893	81.383	-7.80338e-06	-0.00019649	7.58141e-09	-0.000196498	3.89934	77376.4	2.9855	77379.4
6.31058	24.4841	2.58392	24.6201	-6.02439	24.7203	3.89918	-0.05165	9760.49	107.511	1	11	0.00473038	0.000192135	0	-0.000119581	5.95877e-05	7.10451e-06	71.701	0.0369766	0.0116098	-0.0351068	-5.94033	24.6279	24.4957	2.54881	0.040393	0.00426286	0.0406173	6.02439	107511	1.01872e+06	1.02438e+06	-83.9756	0.0000000E+000	0.0000000E+000	0.0000000E+000	83.9756	0.0000000E+000	0.0000000E+000	0.0000000E+000	-83.9756	0.0000000E+000	0.0000000E+000	0.0000000E+000	-6.02439	0.0000000E+000	0.0000000E+000	0.0000000E+000	6.02439	9.47556	83.9756	-6.56343e-06	-0.000201392	-3.0777e-09	-0.000201389	3.89912	75492.3	1.15368	75491.2
3.97785	24.8171	1.91797	24.8911	-4.41927	25.7273	3.8992	-0.0509944	20860.8	123.858	1	11	0.00472897	0.000189987	0	-0.000132398	-9.31649e-05	7.23136e-06	-46.4493	0.0380625	0.0262249	0.0275864	-4.47786	24.9194	24.8433	1.94555	0.0400556	0.00309566	0.040175	4.41927	123858	1.60264e+06	1.60741e+06	-85.5807	0.0000000E+000	0.0000000E+000	0.0000000E+000	85.5807	0.0000000E+000	0.0000000E+000	0.0000000E+000	-85.5807	0.0000000E+000	0.0000000E+000	0.0000000E+000	-4.41927	0.0000000E+000	0.0000000E+000	0.0000000E+000	4.41927	12.9393	85.5807	-5.68201e-06	-0.000198837	4.75089e-09	-0.000198842	3.89929	76463.2	1.82696	76465.1
2.51367	25.0827	1.4887	25.1269	-3.39662	27.2869	3.8992	-0.0513606	42530.7	149.294	1	11	0.00472955	0.000188227	0	-0.000154286	2.13995e-05	6.29747e-06	-10.3496	0.0334568	0.0329125	0.00601063	-3.40584	25.1601	25.1157	1.49471	0.0397281	0.00235793	0.039798	3.39662	149294	2.51541e+06	2.51984e+06	-86.6034	0.0000000E+000	0.0000000E+000	0.0000000E+000	86.6034	0.0000000E+000	0.0000000E+000	0.0000000E+000	-86.6034	0.0000000E+000	0.0000000E+000	0.0000000E+000	-3.39662	0.0000000E+000	0.0000000E+000	0.0000000E+000	3.39662	16.8487	86.6034	-1.37063e-05	-0.000200265	-1.09909e-09	-0.000200264	3.89918	75918.2	0.416653	75917.8
1.58469	25.2582	1.23841	25.2885	-2.80698	29.7226	3.8992	-0.0525006	81098.3	194.489	1	11	0.00473074	0.000187071	0	-0.000195023	-1.67886e-05	3.01257e-06	28.063	0.0161039	0.0142106	-0.00757597	-2.78826	25.3023	25.2724	1.23084	0.0394962	0.00193651	0.0395437	2.80698	194490	3.96673e+06	3.97149e+06	-87.193	0.0000000E+000	0.0000000E+000	0.0000000E+000	87.193	0.0000000E+000	0.0000000E+000	0.0000000E+000	-87.193	0.0000000E+000	0.0000000E+000	0.0000000E+000	-2.80698	0.0000000E+000	0.0000000E+000	0.0000000E+000	2.80698	20.3956	87.193	-2.17468e-05	-0.000204711	8.81412e-10	-0.000204711	3.89922	74269.6	0.319779	74269.9
1.00469	25.6322	1.15331	25.6581	-2.57625	240.541	3.89918	-0.0703315	137354	277.511	1	11	0.00503654	0.000196294	0	-0.00503077	2.13995e-05	3.77497e-07	7.26604	0.00192312	0.00190768	-0.00024323	-2.57552	25.66	25.6341	1.15306	0.0389346	0.00175184	0.038974	2.57625	277511	6.16768e+06	6.17392e+06	-87.4238	0.0000000E+000	0.0000000E+000	0.0000000E+000	87.4238	0.0000000E+000	0.0000000E+000	0.0000000E+000	-87.4238	0.0000000E+000	0.0000000E+000	0.0000000E+000	-2.57625	0.0000000E+000	0.0000000E+000	0.0000000E+000	2.57625	22.225	87.4238	-0.00481254	-0.000274235	-1.50506e-09	-0.000274233	3.89915	55440	0.304267	55439.7
0.632957	25.8235	1.19981	25.8513	-2.66017	240.542	3.89918	-0.0703315	209572	451.433	1	11	0.00505049	0.000195367	0	-0.00503077	2.13995e-05	4.95977e-07	-5.90599	0.0025387	0.00252523	0.000261223	-2.66048	25.8539	25.826	1.20007	0.038641	0.00179534	0.0386827	2.66017	451432	9.71616e+06	9.72664e+06	-87.3398	0.0000000E+000	0.0000000E+000	0.0000000E+000	87.3398	0.0000000E+000	0.0000000E+000	0.0000000E+000	-87.3398	0.0000000E+000	0.0000000E+000	0.0000000E+000	-2.66017	0.0000000E+000	0.0000000E+000	0.0000000E+000	2.66017	21.5229	87.3398	0.000000000000000E+000	-0.000274235	-1.50506e-09	-0.000274233	3.89915	55440	0.304267	55439.7
0.401878	25.9638	1.40358	26.0017	-3.09435	240.544	3.89918	-0.0703315	282156	822.167	1	11	0.00506359	0.000194741	0	-0.00503077	2.13995e-05	3.54651e-07	-13.0442	0.00182114	0.00177415	0.000411037	-3.09504	26.0035	25.9655	1.40399	0.038403	0.00207603	0.038459	3.09435	822167	1.52087e+07	1.52309e+07	-86.9057	0.0000000E+000	0.0000000E+000	0.0000000E+000	86.9057	0.0000000E+000	0.0000000E+000	0.0000000E+000	-86.9057	0.0000000E+000	0.0000000E+000	0.0000000E+000	-3.09435	0.0000000E+000	0.0000000E+000	0.0000000E+000	3.09435	18.4983	86.9057	0.000000000000000E+000	-0.000274235	-1.50506e-09	-0.000274233	3.89915	55440	0.304267	55439.7
0.251173	26.3876	1.69248	26.4418	-3.66988	240.546	3.89918	-0.0703315	374389	1533.87	1	11	0.00506402	0.000191516	0	-0.00503077	2.13995e-05	2.55064e-07	-2.42508	0.00133182	0.00133062	5.63532e-05	-3.66982	26.4431	26.3889	1.69254	0.0377414	0.0024207	0.0378189	3.66988	1.53387e+06	2.39147e+07	2.39638e+07	-86.3301	0.0000000E+000	0.0000000E+000	0.0000000E+000	86.3301	0.0000000E+000	0.0000000E+000	0.0000000E+000	-86.3301	0.0000000E+000	0.0000000E+000	0.0000000E+000	-3.66988	0.0000000E+000	0.0000000E+000	0.0000000E+000	3.66988	15.5911	86.3301	0.000000000000000E+000	-0.000274235	-1.50506e-09	-0.000274233	3.89915	55440	0.304267	55439.7
0.160751	26.7904	1.92107	26.8592	-4.1015	240.548	3.89918	-0.0703315	515376	2636.46	1	11	0.00505847	0.000188333	0	-0.00503077	2.13995e-05	4.4191e-07	1.07352	0.00234643	0.00234602	-4.39611e-05	-4.10105	26.8616	26.7928	1.92102	0.0371358	0.0026629	0.0372312	4.1015	2.63647e+06	3.67671e+07	3.68615e+07	-85.8985	0.0000000E+000	0.0000000E+000	0.0000000E+000	85.8985	0.0000000E+000	0.0000000E+000	0.0000000E+000	-85.8985	0.0000000E+000	0.0000000E+000	0.0000000E+000	-4.1015	0.0000000E+000	0.0000000E+000	0.0000000E+000	4.1015	13.9456	85.8985	0.000000000000000E+000	-0.000274235	-1.50506e-09	-0.000274233	3.89915	55440	0.304267	55439.7
0.100469	27.1615	2.6911	27.2945	-5.65826	240.55	3.89918	-0.0703315	588650	5722.22	1	11	0.00506308	0.000185498	0	-0.00503077	2.13995e-05	3.01901e-07	1.37815	0.00162752	0.00162705	-3.91433e-05	-5.65784	27.2961	27.1632	2.69106	0.0364589	0.00361225	0.0366374	5.65826	5.72222e+06	5.7755e+07	5.80378e+07	-84.3417	0.0000000E+000	0.0000000E+000	0.0000000E+000	84.3417	0.0000000E+000	0.0000000E+000	0.0000000E+000	-84.3417	0.0000000E+000	0.0000000E+000	0.0000000E+000	-5.65826	0.0000000E+000	0.0000000E+000	0.0000000E+000	5.65826	10.0931	84.3417	0.000000000000000E+000	-0.000274235	-1.50506e-09	-0.000274233	3.89915	55440	0.304267	55439.7
0.0602816	27.8294	3.54395	28.0542	-7.25729	240.552	3.89918	-0.0703315	744985	11888.5	1	11	0.00505765	0.000180282	0	-0.00503077	2.13995e-05	2.10987e-07	-95.3242	0.00117032	-0.000108595	0.00116527	-7.25968	28.0542	27.8293	3.54512	0.0353597	0.0045029	0.0356453	7.25729	1.18885e+07	9.33564e+07	9.41104e+07	-82.7427	0.0000000E+000	0.0000000E+000	0.0000000E+000	82.7427	0.0000000E+000	0.0000000E+000	0.0000000E+000	-82.7427	0.0000000E+000	0.0000000E+000	0.0000000E+000	-7.25729	0.0000000E+000	0.0000000E+000	0.0000000E+000	7.25729	7.85266	82.7427	0.000000000000000E+000	-0.000274235	-1.50506e-09	-0.000274233	3.89915	55440	0.304267	55439.7
0.0401878	28.853	4.37361	29.1826	-8.61942	240.554	3.89918	-0.0703315	905497	20338.5	1	11	0.0050565	0.000173271	0	-0.00503077	2.13995e-05	5.18944e-07	-46.7356	0.00299498	0.00205266	0.00218094	-8.62305	29.1849	28.855	4.37579	0.03388	0.00513561	0.034267	8.61942	2.03385e+07	1.34174e+08	1.35707e+08	-81.3806	0.0000000E+000	0.0000000E+000	0.0000000E+000	81.3806	0.0000000E+000	0.0000000E+000	0.0000000E+000	-81.3806	0.0000000E+000	0.0000000E+000	0.0000000E+000	-8.61942	0.0000000E+000	0.0000000E+000	0.0000000E+000	8.61942	6.59707	81.3806	0.000000000000000E+000	-0.000274235	-1.50506e-09	-0.000274233	3.89915	55440	0.304267	55439.7
0.0200939	31.2274	6.6063	31.9186	-11.945	240.556	3.89918	-0.0703315	1.19894e+06	51360.3	1	11	0.00505548	0.000158387	0	-0.00503077	2.13995e-05	1.01705e-06	66.3834	0.0064213	0.00257247	-0.0058835	-11.9338	31.9199	31.23	6.60042	0.0306513	0.00648442	0.0313297	11.945	5.13603e+07	2.42776e+08	2.48149e+08	-78.0549	0.0000000E+000	0.0000000E+000	0.0000000E+000	78.0549	0.0000000E+000	0.0000000E+000	0.0000000E+000	-78.0549	0.0000000E+000	0.0000000E+000	0.0000000E+000	-11.945	0.0000000E+000	0.0000000E+000	0.0000000E+000	11.945	4.72692	78.0549	0.000000000000000E+000	-0.000274235	-1.50506e-09	-0.000274233	3.89915	55440	0.304267	55439.7
0.00796479	31.0186	8.10809	32.0608	-14.6491	20329.4	3.89917	-0.00161728	2.46449e+06	157622	1	11	0.0050527	0.000157598	0	-0.045419	2.13995e-05	7.77837e-07	1.26865	0.00493558	0.00493437	-0.000109275	-14.6466	32.0655	31.0235	8.10798	0.0301769	0.00788808	0.0311908	14.6491	1.57622e+08	6.03004e+08	6.23264e+08	-75.3509	0.0000000E+000	0.0000000E+000	0.0000000E+000	75.3509	0.0000000E+000	0.0000000E+000	0.0000000E+000	-75.3509	0.0000000E+000	0.0000000E+000	0.0000000E+000	-14.6491	0.0000000E+000	0.0000000E+000	0.0000000E+000	14.6491	3.82563	75.3509	-0.0403882	-6.30604e-06	-3.46089e-11	-6.30601e-06	3.89915	2.41095e+06	13.2318	2.41094e+06
0.00497799	34.2906	8.3383	35.2898	-13.6671	20329.4	3.89917	-0.00161728	3.83432e+06	214065	1	11	0.0050604	0.000143396	0	-0.045419	2.13995e-05	7.4031e-07	-131.576	0.00516271	-0.00342602	0.00386212	-13.6745	35.2874	34.2871	8.34216	0.0275344	0.00669543	0.0283368	13.6671	2.14065e+08	8.80323e+08	9.05976e+08	-76.3329	0.0000000E+000	0.0000000E+000	0.0000000E+000	76.3329	0.0000000E+000	0.0000000E+000	0.0000000E+000	-76.3329	0.0000000E+000	0.0000000E+000	0.0000000E+000	-13.6671	0.0000000E+000	0.0000000E+000	0.0000000E+000	13.6671	4.11242	76.3329	0.000000000000000E+000	-6.30604e-06	-3.46089e-11	-6.30601e-06	3.89915	2.41095e+06	13.2318	2.41094e+06
0.00318591	36.1549	10.6625	37.6944	-16.4314	20329.4	3.89917	-0.00161728	4.68519e+06	374879	1	11	0.00506242	0.000134302	0	-0.045419	2.13995e-05	9.32448e-07	-147.892	0.00694293	-0.00588099	0.00369029	-16.4393	37.6898	36.149	10.6662	0.0254457	0.00750421	0.0265292	16.4314	3.74879e+08	1.27116e+09	1.32529e+09	-73.5686	0.0000000E+000	0.0000000E+000	0.0000000E+000	73.5686	0.0000000E+000	0.0000000E+000	0.0000000E+000	-73.5686	0.0000000E+000	0.0000000E+000	0.0000000E+000	-16.4314	0.0000000E+000	0.0000000E+000	0.0000000E+000	16.4314	3.39085	73.5686	0.000000000000000E+000	-6.30604e-06	-3.46089e-11	-6.30601e-06	3.89915	2.41095e+06	13.2318	2.41094e+06
0.0019912	38.6126	11.6199	40.3231	-16.7484	20329.4	3.89917	-0.00161728	6.87867e+06	571214	1	11	0.00506569	0.000125627	0	-0.045419	2.13995e-05	2.90373e-07	22.9282	0.00231139	0.00212877	-0.000900463	-16.7463	40.3249	38.6147	11.619	0.0237476	0.00714649	0.0247997	16.7484	5.71214e+08	1.89813e+09	1.98222e+09	-73.2516	0.0000000E+000	0.0000000E+000	0.0000000E+000	73.2516	0.0000000E+000	0.0000000E+000	0.0000000E+000	-73.2516	0.0000000E+000	0.0000000E+000	0.0000000E+000	-16.7484	0.0000000E+000	0.0000000E+000	0.0000000E+000	16.7484	3.32298	73.2516	0.000000000000000E+000	-6.30604e-06	-3.46089e-11	-6.30601e-06	3.89915	2.41095e+06	13.2318	2.41094e+06
0.00129428	39.2635	12.7773	41.2902	-18.0261	20329.4	3.89917	-0.00161728	9.62396e+06	921587	1	11	0.00506703	0.000122717	0	-0.045419	2.13995e-05	3.64702e-07	140.203	0.00297189	-0.00228336	-0.0019022	-18.0246	41.2875	39.2612	12.7754	0.02303	0.00749452	0.0242188	18.0261	9.21587e+08	2.83196e+09	2.97814e+09	-71.9739	0.0000000E+000	0.0000000E+000	0.0000000E+000	71.9739	0.0000000E+000	0.0000000E+000	0.0000000E+000	-71.9739	0.0000000E+000	0.0000000E+000	0.0000000E+000	-18.0261	0.0000000E+000	0.0000000E+000	0.0000000E+000	18.0261	3.07292	71.9739	0.000000000000000E+000	-6.30604e-06	-3.46089e-11	-6.30601e-06	3.89915	2.41095e+06	13.2318	2.41094e+06
0.000796479	43.1857	15.9163	46.0253	-20.2316	20329.4	3.89917	-0.00161728	1.25547e+07	1.50139e+06	1	11	0.0050643	0.000110033	0	-0.045419	2.13995e-05	6.91638e-07	3.33003	0.00628574	0.00627513	-0.000365122	-20.2285	46.0311	43.1919	15.9159	0.0203867	0.00751359	0.0217272	20.2316	1.50139e+09	4.07373e+09	4.34159e+09	-69.7684	0.0000000E+000	0.0000000E+000	0.0000000E+000	69.7684	0.0000000E+000	0.0000000E+000	0.0000000E+000	-69.7684	0.0000000E+000	0.0000000E+000	0.0000000E+000	-20.2316	0.0000000E+000	0.0000000E+000	0.0000000E+000	20.2316	2.7133	69.7684	0.000000000000000E+000	-6.30604e-06	-3.46089e-11	-6.30601e-06	3.89915	2.41095e+06	13.2318	2.41094e+06
0.000497799	41.7191	19.4715	46.0393	-25.0198	20329.4	3.89917	-0.00161728	1.64198e+07	2.93702e+06	1	11	0.00506618	0.00011004	0	-0.045419	2.13995e-05	1.33716e-06	-98.9487	0.0121516	-0.00189018	0.0120037	-25.0343	46.0427	41.7172	19.4835	0.0196823	0.00918629	0.0217206	25.0198	2.93702e+09	6.29278e+09	6.94444e+09	-64.9802	0.0000000E+000	0.0000000E+000	0.0000000E+000	64.9802	0.0000000E+000	0.0000000E+000	0.0000000E+000	-64.9802	0.0000000E+000	0.0000000E+000	0.0000000E+000	-25.0198	0.0000000E+000	0.0000000E+000	0.0000000E+000	25.0198	2.14258	64.9802	0.000000000000000E+000	-6.30604e-06	-3.46089e-11	-6.30601e-06	3.89915	2.41095e+06	13.2318	2.41094e+06
0.000298679	40.7731	29.925	50.5761	-36.2764	20329.4	3.89917	-0.00161728	1.78066e+07	6.23386e+06	1	11	0.0050673	0.000100192	0	-0.045419	2.13995e-05	1.69904e-06	-108.008	0.0169579	-0.00524253	0.0161272	-36.2947	50.5815	40.7678	29.9411	0.0159398	0.0116988	0.0197722	36.2764	6.23386e+09	8.49369e+09	1.05358e+10	-53.7236	0.0000000E+000	0.0000000E+000	0.0000000E+000	53.7236	0.0000000E+000	0.0000000E+000	0.0000000E+000	-53.7236	0.0000000E+000	0.0000000E+000	0.0000000E+000	-36.2764	0.0000000E+000	0.0000000E+000	0.0000000E+000	36.2764	1.36251	53.7236	0.000000000000000E+000	-6.30604e-06	-3.46089e-11	-6.30601e-06	3.89915	2.41095e+06	13.2318	2.41094e+06
9.95598e-05	55.0674	112.19	124.976	-63.8563	20329.4	3.89917	-0.00161728	1.42489e+07	1.14825e+07	1	11	0.00506702	4.0544e-05	0	-0.045419	2.13995e-05	1.65932e-06	107.212	0.0409264	-0.0121107	-0.0390935	-63.8534	124.935	55.0553	112.151	0.00352567	0.00718292	0.00800154	63.8563	1.14825e+10	5.63609e+09	1.27912e+10	-26.1437	0.0000000E+000	0.0000000E+000	0.0000000E+000	26.1437	0.0000000E+000	0.0000000E+000	0.0000000E+000	-26.1437	0.0000000E+000	0.0000000E+000	0.0000000E+000	-63.8563	0.0000000E+000	0.0000000E+000	0.0000000E+000	63.8563	0.490841	26.1437	0.000000000000000E+000	-6.30604e-06	-3.46089e-11	-6.30601e-06	3.89915	2.41095e+06	13.2318	2.41094e+06