File: txt/19496_R316_UA715_SOC00_C06.mpt
EC-Lab ASCII FILE
Nb header lines : 65

Potentio Electrochemical Impedance Spectroscopy

Run on channel : 6 (SN 65795)
User :
CE vs. WE compliance from -10 V to 10 V
Electrode connection : standard
Potential control : Ewe
Ewe ctrl range : min = -10.00 V, max = 10.00 V
Safety Limits :
	Do not start on E overload
Acquisition started on : 12/04/2025 13:10:34.416
Technique started on : 12/04/2025 13:10:36.328
Loaded Setting File :  C:\Users\Celltest\OneDrive - store-dot.com\Documents\EC-Lab\Data\Charmaine\19495_R316_UA628_SOC00_C05.mpr
Saved on :
	File : 19496_R316_UA715_SOC00_C06.mpr
	Directory : C:\Users\Celltest\OneDrive - store-dot.com\Documents\EC-Lab\Data\Charmaine\
	Host : 169.254.61.224
Device : VMP-3e (SN .003165)
Address : USB
EC-LAB for windows v11.62 (software)
Internet server v27.00 (firmware)
Command interpretor v12.03 (firmware)
Electrode material :
Initial state :
Electrolyte :
Comments :
Electrode surface area : 0.001 cm²
Characteristic mass : 0.001 g
Equivalent Weight : 0.000 g/eq.
Density : 0.000 g/cm3
Volume (V) : 0.001 cm³
Record Ece
Cycle Definition : Charge/Discharge alternance
Mode                Single sine
E (V)               0.0000
vs.                 Eoc
tE (h:m:s)          0:00:0.0000
record              0
dI                  0.000
unit dI             mA
dt (s)              0.000
fi                  100.000
unit fi             kHz
ff                  10.000
unit ff             mHz
Nd                  6
Points              per decade
spacing             Logarithmic
Va (mV)             5.0
pw                  0.10
Na                  2
corr                0
E range min (V)     -10.000
E range max (V)     10.000
I Range             Auto
Bandwidth           5
nc cycles           0
goto Ns'            0
nr cycles           0
inc. cycle          0

freq/Hz	Re(Z)/Ohm	-Im(Z)/Ohm	|Z|/Ohm	Phase(Z)/deg	time/s	<Ewe>/V	<I>/mA	Cs/µF	Cp/µF	cycle number	I Range	|Ewe|/V	|I|/A	Ns	(Q-Qo)/mA.h	<Ece>/V	|Ece|/V	Phase(Zce)/deg	|Zce|/Ohm	Re(Zce)/Ohm	-Im(Zce)/Ohm	Phase(Zwe-ce)/deg	|Zwe-ce|/Ohm	Re(Zwe-ce)/Ohm	-Im(Zwe-ce)/Ohm	Re(Y)/Ohm-1	Im(Y)/Ohm-1	|Y|/Ohm-1	Phase(Y)/deg	Re(C)/nF	Im(C)/nF	|C|/nF	Phase(C)/deg	Re(M)	Im(M)	|M|	Phase(M)/deg	Re(Permittivity)	Im(Permittivity)	|Permittivity|	Phase(Permittivity)/deg	Re(Resistivity)/Ohm.cm	Im(Resistivity)/Ohm.cm	|Resistivity|/Ohm.cm	Phase(Resistivity)/deg	Re(Conductivity)/mS/cm	Im(Conductivity)/mS/cm	|Conductivity|/mS/cm	Phase(Conductivity)/deg	Tan(Delta)	Loss Angle(Delta)/deg	dq/mA.h	Pwe/W	Pce/W	Pwe-ce/W	<Ewe-Ece>/V	Rwe/Ohm	Rce/Ohm	Rwe-ce/Ohm		Ewe-Ece/V
100004	1.17119	0.463841	1.2597	-21.6056	1.91152	0.277284	0.0311342	3.43111	0.465199	1	9	0.0045862	0.00364071	0	5.3458e-07	0.000469692	5.19832e-05	89.8588	0.0142783	3.51887e-05	-0.0142783	-20.9987	1.25455	1.17123	0.449562	0.738065	0.292304	0.79384	21.6056	465.199	1174.62	1263.39	-68.3944	0.0000000E+000	0.0000000E+000	0.0000000E+000	68.3944	0.0000000E+000	0.0000000E+000	0.0000000E+000	-68.3944	0.0000000E+000	0.0000000E+000	0.0000000E+000	-21.6056	0.0000000E+000	0.0000000E+000	0.0000000E+000	21.6056	2.52499	68.3944	5.3458e-07	8.63299e-06	1.46235e-08	8.61837e-06	0.276814	8906.09	15.0861	8891
68132	1.29087	0.522551	1.39263	-22.0383	2.41854	0.277268	0.0334437	4.47034	0.6294	1	9	0.00504096	0.00361975	0	5.3222e-06	-0.000160544	2.93308e-05	71.8294	0.00810299	0.00252689	-0.00769891	-21.7056	1.3921	1.2934	0.514852	0.6656	0.269438	0.718067	22.0383	629.4	1554.83	1677.39	-67.9617	0.0000000E+000	0.0000000E+000	0.0000000E+000	67.9617	0.0000000E+000	0.0000000E+000	0.0000000E+000	-67.9617	0.0000000E+000	0.0000000E+000	0.0000000E+000	-22.0383	0.0000000E+000	0.0000000E+000	0.0000000E+000	22.0383	2.47033	67.9617	4.78762e-06	9.27286e-06	-5.36916e-09	9.27823e-06	0.277429	8290.6	4.80042	8295.4
46420.4	1.43007	0.578102	1.5425	-22.0108	2.92753	0.277276	0.0335926	5.93071	0.833037	1	9	0.00506151	0.00328136	0	2.55589e-05	0.000336005	1.90484e-05	67.2021	0.00580504	0.00224935	-0.00535154	-21.7952	1.54259	1.43232	0.572751	0.601045	0.24297	0.648297	22.0108	833.037	2060.72	2222.73	-67.9892	0.0000000E+000	0.0000000E+000	0.0000000E+000	67.9892	0.0000000E+000	0.0000000E+000	0.0000000E+000	-67.9892	0.0000000E+000	0.0000000E+000	0.0000000E+000	-22.0108	0.0000000E+000	0.0000000E+000	0.0000000E+000	22.0108	2.47374	67.9892	2.02367e-05	9.31444e-06	1.12873e-08	9.30315e-06	0.27694	8254.07	10.0023	8244.07
31621.1	1.57307	0.641528	1.69885	-22.1866	3.43455	0.277265	0.0365726	7.84562	1.11879	1	9	0.0050964	0.00299991	0	4.22926e-05	0.000106829	1.55169e-05	64.4469	0.00517245	0.00223112	-0.00466651	-22.0125	1.69916	1.5753	0.636861	0.54505	0.222282	0.588633	22.1866	1118.79	2743.33	2962.7	-67.8134	0.0000000E+000	0.0000000E+000	0.0000000E+000	67.8134	0.0000000E+000	0.0000000E+000	0.0000000E+000	-67.8134	0.0000000E+000	0.0000000E+000	0.0000000E+000	-22.1866	0.0000000E+000	0.0000000E+000	0.0000000E+000	22.1866	2.45206	67.8134	1.67337e-05	1.01403e-05	3.90702e-09	1.01364e-05	0.277158	7581.2	2.92101	7578.28
21544.7	1.72516	0.712334	1.86644	-22.4361	3.81753	0.277262	0.0389566	10.3704	1.51055	1	9	0.0053325	0.00285704	0	3.99831e-05	-7.75924e-06	1.25704e-05	38.7563	0.00439981	0.00343105	-0.00275432	-22.3179	1.86857	1.7286	0.70958	0.495223	0.204482	0.535778	22.4361	1510.55	3658.31	3957.9	-67.5639	0.0000000E+000	0.0000000E+000	0.0000000E+000	67.5639	0.0000000E+000	0.0000000E+000	0.0000000E+000	-67.5639	0.0000000E+000	0.0000000E+000	0.0000000E+000	-22.4361	0.0000000E+000	0.0000000E+000	0.0000000E+000	22.4361	2.42185	67.5639	-2.30951e-06	1.08012e-05	-3.02274e-10	1.08015e-05	0.27727	7117.19	0.199176	7117.39
14678.6	1.89554	0.786146	2.05209	-22.5255	4.07655	0.277256	0.0262171	13.7922	2.02416	1	9	0.00521308	0.00254037	0	4.05691e-05	0.000526986	5.73664e-06	-18.6301	0.00225819	0.00213986	0.000721394	-22.5212	2.05435	1.89768	0.786867	0.45013	0.186685	0.487307	22.5255	2024.16	4880.61	5283.7	-67.4745	0.0000000E+000	0.0000000E+000	0.0000000E+000	67.4745	0.0000000E+000	0.0000000E+000	0.0000000E+000	-67.4745	0.0000000E+000	0.0000000E+000	0.0000000E+000	-22.5255	0.0000000E+000	0.0000000E+000	0.0000000E+000	22.5255	2.41118	67.4745	5.86027e-07	7.26887e-06	1.38161e-08	7.25505e-06	0.276729	10575.4	20.1008	10555.3
10002.2	2.06996	0.879562	2.24908	-23.0215	4.33556	0.277265	0.0407446	18.0908	2.76682	1	9	0.0048667	0.00216386	0	4.39857e-05	0.000202319	1.2284e-05	67.9985	0.0056769	0.00212674	-0.00526347	-22.8769	2.24898	2.07208	0.874298	0.409216	0.173883	0.444627	23.0215	2766.82	6511.42	7074.88	-66.9785	0.0000000E+000	0.0000000E+000	0.0000000E+000	66.9785	0.0000000E+000	0.0000000E+000	0.0000000E+000	-66.9785	0.0000000E+000	0.0000000E+000	0.0000000E+000	-23.0215	0.0000000E+000	0.0000000E+000	0.0000000E+000	23.0215	2.3534	66.9785	3.41657e-06	1.1297e-05	8.24341e-09	1.12888e-05	0.277063	6804.95	4.96555	6799.98
6810.42	2.26755	0.950491	2.4587	-22.742	4.59656	0.277267	0.0300911	24.5866	3.67436	1	9	0.00464117	0.00188765	0	4.73353e-05	0.000183221	8.48096e-05	-111.544	0.0449287	-0.0164983	0.0417899	-23.7882	2.46005	2.25105	0.99228	0.375098	0.15723	0.406718	22.742	3674.36	8765.79	9504.73	-67.258	0.0000000E+000	0.0000000E+000	0.0000000E+000	67.258	0.0000000E+000	0.0000000E+000	0.0000000E+000	-67.258	0.0000000E+000	0.0000000E+000	0.0000000E+000	-22.742	0.0000000E+000	0.0000000E+000	0.0000000E+000	22.742	2.38567	67.258	3.34964e-06	8.34326e-06	5.51333e-09	8.33775e-06	0.277083	9214.24	6.08888	9208.15
4646	2.48538	1.09787	2.71707	-23.8326	4.86161	0.277222	0.00967813	31.2024	5.09438	1	9	0.00451109	0.00166028	0	4.70183e-05	0.000183221	1.01017e-05	-72.5187	0.00608434	0.0018277	0.00580333	-23.9288	2.72109	2.48721	1.10368	0.336661	0.148714	0.368044	23.8326	5094.38	11532.8	12607.8	-66.1674	0.0000000E+000	0.0000000E+000	0.0000000E+000	66.1674	0.0000000E+000	0.0000000E+000	0.0000000E+000	-66.1674	0.0000000E+000	0.0000000E+000	0.0000000E+000	-23.8326	0.0000000E+000	0.0000000E+000	0.0000000E+000	23.8326	2.26382	66.1674	-3.16995e-07	2.68299e-06	1.77324e-09	2.68122e-06	0.277039	28644.2	18.9315	28625.3
3163.08	2.73229	1.25385	3.00625	-24.6504	5.41161	0.277013	-0.0301421	40.1297	6.98078	1	9	0.00482528	0.00160508	0	4.44647e-05	0.0003933	6.76294e-06	25.1477	0.00421345	0.00381408	-0.00179052	-24.5891	3.00897	2.7361	1.25206	0.302327	0.138738	0.33264	24.6504	6980.78	15212	16737.3	-65.3496	0.0000000E+000	0.0000000E+000	0.0000000E+000	65.3496	0.0000000E+000	0.0000000E+000	0.0000000E+000	-65.3496	0.0000000E+000	0.0000000E+000	0.0000000E+000	-24.6504	0.0000000E+000	0.0000000E+000	0.0000000E+000	24.6504	2.17913	65.3496	-2.55364e-06	-8.34976e-06	-1.18549e-08	-8.3379e-06	0.27662	9190.26	13.0482	9177.21
2155.69	2.99334	1.44675	3.32464	-25.7955	5.86382	0.277164	0.0621633	51.0317	9.66362	1	9	0.00476919	0.0014345	0	5.12845e-05	0.000374201	1.02583e-05	-153.371	0.00715112	-0.00639258	0.00320521	-25.8933	3.32028	2.98695	1.44996	0.270812	0.13089	0.300785	25.7955	9663.62	19994.1	22207	-64.2045	0.0000000E+000	0.0000000E+000	0.0000000E+000	64.2045	0.0000000E+000	0.0000000E+000	0.0000000E+000	-64.2045	0.0000000E+000	0.0000000E+000	0.0000000E+000	-25.7955	0.0000000E+000	0.0000000E+000	0.0000000E+000	25.7955	2.06901	64.2045	6.81988e-06	1.72294e-05	2.32616e-08	1.72061e-05	0.276789	4458.64	6.01965	4452.62
1468.59	3.2783	1.68261	3.68489	-27.1694	6.56003	0.277164	-0.013651	64.4075	13.4293	1	10	0.00486643	0.00132064	0	5.60204e-05	0.000221417	6.21168e-06	-57.5805	0.00470352	0.00252163	0.00397046	-27.2064	3.68895	3.28082	1.68658	0.241434	0.123918	0.271378	27.1694	13429.3	26164.9	29410	-62.8306	0.0000000E+000	0.0000000E+000	0.0000000E+000	62.8306	0.0000000E+000	0.0000000E+000	0.0000000E+000	-62.8306	0.0000000E+000	0.0000000E+000	0.0000000E+000	-27.1694	0.0000000E+000	0.0000000E+000	0.0000000E+000	27.1694	1.94835	62.8306	4.73585e-06	-3.78358e-06	-3.02257e-09	-3.78055e-06	0.276943	20303.5	16.2198	20287.3
1000.32	3.58467	2.01034	4.10991	-29.2844	7.01082	0.277154	-0.0142175	79.1428	18.9359	1	10	0.00481747	0.00117216	0	5.53779e-05	0.000183221	9.16441e-06	60.7904	0.00781839	0.00381542	-0.00682421	-29.1754	4.10991	3.58849	2.00352	0.212219	0.119016	0.243314	29.2844	18935.9	33764.9	38712.3	-60.7156	0.0000000E+000	0.0000000E+000	0.0000000E+000	60.7156	0.0000000E+000	0.0000000E+000	0.0000000E+000	-60.7156	0.0000000E+000	0.0000000E+000	0.0000000E+000	-29.2844	0.0000000E+000	0.0000000E+000	0.0000000E+000	29.2844	1.78312	60.7156	-6.42458e-07	-3.94044e-06	-2.60494e-09	-3.93783e-06	0.276971	19493.9	12.887	19481
681.09	3.91307	2.46407	4.62426	-32.1987	7.46058	0.277167	-0.014892	94.8337	26.9268	1	10	0.00477087	0.00103171	0	5.32903e-05	0.000125927	5.76148e-06	23.1927	0.00558442	0.00513311	-0.00219929	-32.1418	4.62743	3.9182	2.46187	0.182993	0.115231	0.216251	32.1987	26926.8	42761.2	50532.9	-57.8013	0.0000000E+000	0.0000000E+000	0.0000000E+000	57.8013	0.0000000E+000	0.0000000E+000	0.0000000E+000	-57.8013	0.0000000E+000	0.0000000E+000	0.0000000E+000	-32.1987	0.0000000E+000	0.0000000E+000	0.0000000E+000	32.1987	1.58805	57.8013	-2.08762e-06	-4.12757e-06	-1.8753e-09	-4.1257e-06	0.277041	18611.8	8.45602	18603.4
463.961	4.31541	3.09747	5.31198	-35.6696	7.91228	0.277147	-0.0138411	110.747	37.6559	1	10	0.0047444	0.000893152	0	5.10726e-05	0.000202319	1.09136e-05	12.8571	0.0122192	0.0119129	-0.00271903	-35.571	5.32008	4.32733	3.09475	0.152936	0.109773	0.188254	35.6696	37655.9	52462.5	64577.7	-54.3304	0.0000000E+000	0.0000000E+000	0.0000000E+000	54.3304	0.0000000E+000	0.0000000E+000	0.0000000E+000	-54.3304	0.0000000E+000	0.0000000E+000	0.0000000E+000	-35.6696	0.0000000E+000	0.0000000E+000	0.0000000E+000	35.6696	1.39321	54.3304	-2.21772e-06	-3.83602e-06	-2.80032e-09	-3.83322e-06	0.276945	20023.5	14.6173	20008.9
316.316	4.8723	3.95203	6.27358	-39.0463	8.36007	0.277175	-0.0146237	127.315	50.5229	1	10	0.00471837	0.000752101	0	5.00554e-05	0.000145025	7.0098e-06	13.8226	0.0093203	0.00905038	-0.00222677	-38.9785	6.27921	4.88135	3.9498	0.123795	0.100413	0.159399	39.0463	50522.9	62287.6	80201.7	-50.9537	0.0000000E+000	0.0000000E+000	0.0000000E+000	50.9537	0.0000000E+000	0.0000000E+000	0.0000000E+000	-50.9537	0.0000000E+000	0.0000000E+000	0.0000000E+000	-39.0463	0.0000000E+000	0.0000000E+000	0.0000000E+000	39.0463	1.23286	50.9537	-1.01718e-06	-4.05332e-06	-2.1208e-09	-4.0512e-06	0.27703	18953.9	9.91714	18943.9
215.345	5.66519	5.10936	7.62888	-42.0469	8.81056	0.277172	-0.0133604	144.651	64.8829	1	10	0.00470499	0.000616734	0	4.86813e-05	4.95349e-05	8.25079e-06	111.095	0.0133782	-0.00481511	-0.0124816	-42.0014	7.61695	5.66037	5.09687	0.0973402	0.0877899	0.131081	42.0469	64882.9	71941.3	96878	-47.9531	0.0000000E+000	0.0000000E+000	0.0000000E+000	47.9531	0.0000000E+000	0.0000000E+000	0.0000000E+000	-47.9531	0.0000000E+000	0.0000000E+000	0.0000000E+000	-42.0469	0.0000000E+000	0.0000000E+000	0.0000000E+000	42.0469	1.10879	47.9531	-1.37407e-06	-3.70312e-06	-6.61805e-10	-3.70246e-06	0.277122	20745.8	3.70759	20742.1
146.737	6.87521	6.52511	9.47869	-43.5034	9.25648	0.27717	-0.0158646	166.223	78.7717	1	10	0.00469792	0.000495629	0	4.6234e-05	0.000125927	4.46637e-06	-4.37267	0.00901152	0.00898528	0.000687069	-43.4691	9.48569	6.8842	6.5258	0.0765225	0.0726258	0.1055	43.5034	78771.7	82998.2	114428	-46.4966	0.0000000E+000	0.0000000E+000	0.0000000E+000	46.4966	0.0000000E+000	0.0000000E+000	0.0000000E+000	-46.4966	0.0000000E+000	0.0000000E+000	0.0000000E+000	-43.5034	0.0000000E+000	0.0000000E+000	0.0000000E+000	43.5034	1.05365	46.4966	-2.44739e-06	-4.39721e-06	-1.99779e-09	-4.39521e-06	0.277045	17471	7.93759	17463
100.032	8.73057	8.10559	11.9132	-42.8741	9.70786	0.277136	-0.0142995	196.289	90.8681	1	10	0.00469182	0.000393835	0	4.49844e-05	0.000164123	6.63643e-06	56.4712	0.0168508	0.00930762	-0.014047	-42.7941	11.9104	8.73988	8.09154	0.0615161	0.0571124	0.0839408	42.8741	90868.1	97874.5	133553	-47.1259	0.0000000E+000	0.0000000E+000	0.0000000E+000	47.1259	0.0000000E+000	0.0000000E+000	0.0000000E+000	-47.1259	0.0000000E+000	0.0000000E+000	0.0000000E+000	-42.8741	0.0000000E+000	0.0000000E+000	0.0000000E+000	42.8741	1.07711	47.1259	-1.24957e-06	-3.9629e-06	-2.34687e-09	-3.96055e-06	0.276972	19380.8	11.4776	19369.4
68.104	11.2831	9.57687	14.7995	-40.324	10.1704	0.277177	-0.0115754	244.019	102.183	1	10	0.00468148	0.000316328	0	4.37792e-05	-7.75924e-06	8.69773e-06	37.4155	0.0274959	0.0218387	-0.0167063	-40.22	14.8053	11.3049	9.56016	0.0515152	0.0437252	0.06757	40.324	102183	120388	157907	-49.676	0.0000000E+000	0.0000000E+000	0.0000000E+000	49.676	0.0000000E+000	0.0000000E+000	0.0000000E+000	-49.676	0.0000000E+000	0.0000000E+000	0.0000000E+000	-40.324	0.0000000E+000	0.0000000E+000	0.0000000E+000	40.324	1.17816	49.676	-1.20515e-06	-3.20843e-06	8.98161e-11	-3.20852e-06	0.277185	23945.4	0.670324	23946.1
46.4415	14.4602	10.5904	17.9236	-36.2184	10.6066	0.277157	-0.0171913	323.594	112.974	1	10	0.0046837	0.000261315	0	4.16248e-05	0.000412398	7.75985e-06	31.4752	0.0296953	0.0253262	-0.0155048	-36.1306	17.9349	14.4855	10.5749	0.0450117	0.0329658	0.0557925	36.2184	112974	154255	191200	-53.7816	0.0000000E+000	0.0000000E+000	0.0000000E+000	53.7816	0.0000000E+000	0.0000000E+000	0.0000000E+000	-53.7816	0.0000000E+000	0.0000000E+000	0.0000000E+000	-36.2184	0.0000000E+000	0.0000000E+000	0.0000000E+000	36.2184	1.36541	53.7816	-2.15447e-06	-4.76468e-06	-7.08965e-09	-4.75759e-06	0.276744	16121.9	23.9887	16097.9
31.6296	18.2216	10.6484	21.1049	-30.3014	11.2715	0.277191	-0.00625666	472.543	120.295	1	11	0.00468961	0.000222205	0	3.9678e-05	-7.75924e-06	9.47773e-06	-44.7168	0.042653	0.030309	0.0300108	-30.3302	21.1462	18.2519	10.6784	0.0409092	0.0239067	0.0473824	30.3014	120295	205849	238421	-59.6986	0.0000000E+000	0.0000000E+000	0.0000000E+000	59.6986	0.0000000E+000	0.0000000E+000	0.0000000E+000	-59.6986	0.0000000E+000	0.0000000E+000	0.0000000E+000	-30.3014	0.0000000E+000	0.0000000E+000	0.0000000E+000	30.3014	1.7112	59.6986	-1.94672e-06	-1.73429e-06	4.8547e-11	-1.73434e-06	0.277198	44303.3	1.24016	44304.5
21.5517	21.5745	9.87136	23.7256	-24.5863	11.6925	0.2772	-0.00632605	748.103	129.504	1	11	0.00469256	0.000197785	0	3.88426e-05	0.000374201	8.07193e-06	-20.0457	0.0408116	0.0383392	0.013989	-24.5786	23.7662	21.6128	9.88534	0.0383272	0.0175365	0.0421486	24.5863	129504	283039	311259	-65.4137	0.0000000E+000	0.0000000E+000	0.0000000E+000	65.4137	0.0000000E+000	0.0000000E+000	0.0000000E+000	-65.4137	0.0000000E+000	0.0000000E+000	0.0000000E+000	-24.5863	0.0000000E+000	0.0000000E+000	0.0000000E+000	24.5863	2.18557	65.4137	-8.35489e-07	-1.75358e-06	-2.36722e-09	-1.75121e-06	0.276826	43818.8	59.1524	43759.6
14.6852	24.262	8.53529	25.7195	-19.3817	12.1532	0.277189	-0.00571834	1269.77	139.841	1	11	0.00469163	0.000182415	0	3.75418e-05	0.000183221	9.14691e-06	65.9561	0.0501434	0.0204302	-0.0457927	-19.2704	25.7237	24.2824	8.4895	0.0366775	0.012903	0.0388809	19.3817	139841	397504	421384	-70.6183	0.0000000E+000	0.0000000E+000	0.0000000E+000	70.6183	0.0000000E+000	0.0000000E+000	0.0000000E+000	-70.6183	0.0000000E+000	0.0000000E+000	0.0000000E+000	-19.3817	0.0000000E+000	0.0000000E+000	0.0000000E+000	19.3817	2.84255	70.6183	-1.30073e-06	-1.58506e-06	-1.04772e-09	-1.58402e-06	0.277006	48473.8	32.041	48441.7
10.0032	26.2126	7.08695	27.1538	-15.129	12.6039	0.277183	-0.00599627	2245.03	152.926	1	11	0.00468949	0.000172701	0	3.82289e-05	0.000469692	1.60799e-05	34.8106	0.0931082	0.0764459	-0.0531523	-14.979	27.2138	26.2891	7.0338	0.0355509	0.00961168	0.0368273	15.129	152926	565629	585937	-74.871	0.0000000E+000	0.0000000E+000	0.0000000E+000	74.871	0.0000000E+000	0.0000000E+000	0.0000000E+000	-74.871	0.0000000E+000	0.0000000E+000	0.0000000E+000	-15.129	0.0000000E+000	0.0000000E+000	0.0000000E+000	15.129	3.69872	74.871	6.87089e-07	-1.66207e-06	-2.8164e-09	-1.65925e-06	0.276714	46226	78.3306	46147.6
6.81719	27.5561	5.71944	28.1434	-11.7256	12.9435	0.277184	-0.00612759	4081.89	168.584	1	11	0.00467566	0.000166137	0	3.62193e-05	-0.00019874	8.90468e-06	23.2664	0.0535984	0.0492397	-0.0211717	-11.6631	28.1873	27.6053	5.69827	0.0347908	0.00722106	0.0355323	11.7256	168584	812231	829542	-78.2744	0.0000000E+000	0.0000000E+000	0.0000000E+000	78.2744	0.0000000E+000	0.0000000E+000	0.0000000E+000	-78.2744	0.0000000E+000	0.0000000E+000	0.0000000E+000	-11.7256	0.0000000E+000	0.0000000E+000	0.0000000E+000	11.7256	4.81797	78.2744	-2.00962e-06	-1.69847e-06	1.21779e-09	-1.69969e-06	0.277383	45235.4	32.4336	45267.8
4.63925	28.5962	4.64745	28.9714	-9.23099	13.4285	0.277186	-0.00573625	7381.73	189.954	1	11	0.00468143	0.000161588	0	3.53461e-05	0.000106829	1.00125e-05	95.763	0.0619633	-0.00622195	-0.0616502	-9.11255	28.9554	28.59	4.58579	0.0340698	0.00553702	0.0345168	9.23099	189954	1.1688e+06	1.18414e+06	-80.769	0.0000000E+000	0.0000000E+000	0.0000000E+000	80.769	0.0000000E+000	0.0000000E+000	0.0000000E+000	-80.769	0.0000000E+000	0.0000000E+000	0.0000000E+000	-9.23099	0.0000000E+000	0.0000000E+000	0.0000000E+000	9.23099	6.1531	80.769	-8.73176e-07	-1.59001e-06	-6.12797e-10	-1.5894e-06	0.27708	48321.9	18.6235	48303.3
3.1604	29.3256	3.82711	29.5742	-7.43531	14.1215	0.27718	-0.00552939	13158.6	220.354	1	11	0.0046836	0.000158368	0	3.64387e-05	0.000221417	7.81266e-06	-4.33809	0.0493325	0.0491911	0.00373159	-7.43015	29.6235	29.3748	3.83084	0.0335289	0.00437566	0.0338132	7.43531	220354	1.68849e+06	1.7028e+06	-82.5647	0.0000000E+000	0.0000000E+000	0.0000000E+000	82.5647	0.0000000E+000	0.0000000E+000	0.0000000E+000	-82.5647	0.0000000E+000	0.0000000E+000	0.0000000E+000	-7.43531	0.0000000E+000	0.0000000E+000	0.0000000E+000	7.43531	7.6626	82.5647	1.09254e-06	-1.53263e-06	-1.2243e-09	-1.53141e-06	0.276958	50128.5	40.0437	50088.4
2.15577	29.9887	3.17239	30.156	-6.03864	15.1252	0.277194	-0.00434641	23271.9	257.547	1	11	0.00469108	0.00015556	0	3.6892e-05	0.000240515	2.38838e-05	-29.8284	0.153534	0.133194	0.0763687	-6.15576	30.2966	30.1219	3.24875	0.0329769	0.0034885	0.0331609	6.03864	257547	2.4346e+06	2.44819e+06	-83.9614	0.0000000E+000	0.0000000E+000	0.0000000E+000	83.9614	0.0000000E+000	0.0000000E+000	0.0000000E+000	-83.9614	0.0000000E+000	0.0000000E+000	0.0000000E+000	-6.03864	0.0000000E+000	0.0000000E+000	0.0000000E+000	6.03864	9.45304	83.9614	4.53297e-07	-1.2048e-06	-1.04538e-09	-1.20375e-06	0.276953	63775.4	55.3365	63720
1.46631	30.4918	2.82453	30.6223	-5.29235	16.5854	0.277204	-0.00336302	38428	326.937	1	11	0.0046915	0.000153205	0	3.42136e-05	0.000412398	2.49695e-06	-134.115	0.0162981	-0.0113451	0.0117011	-5.31612	30.6121	30.4804	2.83623	0.0325167	0.00301211	0.0326559	5.29235	326937	3.5294e+06	3.54451e+06	-84.7076	0.0000000E+000	0.0000000E+000	0.0000000E+000	84.7076	0.0000000E+000	0.0000000E+000	0.0000000E+000	-84.7076	0.0000000E+000	0.0000000E+000	0.0000000E+000	-5.29235	0.0000000E+000	0.0000000E+000	0.0000000E+000	5.29235	10.7953	84.7076	-2.67834e-06	-9.32243e-07	-1.3869e-09	-9.30856e-07	0.276792	82427.3	122.627	82304.6
1.00006	30.8744	2.54832	30.9794	-4.7184	19.7589	0.277197	-0.00363493	62450.9	422.571	1	12	0.00468489	0.000151226	0	2.61852e-05	0.000355103	2.23115e-06	-26.8345	0.0147537	0.013165	0.00666005	-4.72866	30.9931	30.8876	2.55498	0.0321701	0.00265526	0.0322795	4.7184	422572	5.11971e+06	5.13712e+06	-85.2816	0.0000000E+000	0.0000000E+000	0.0000000E+000	85.2816	0.0000000E+000	0.0000000E+000	0.0000000E+000	-85.2816	0.0000000E+000	0.0000000E+000	0.0000000E+000	-4.7184	0.0000000E+000	0.0000000E+000	0.0000000E+000	4.7184	12.1156	85.2816	-8.02842e-06	-1.00759e-06	-1.29078e-09	-1.0063e-06	0.276842	76259.2	97.6919	76161.5
0.681362	31.3056	2.39612	31.3971	-4.37687	22.8711	0.277189	-0.0037448	97483.9	567.768	1	12	0.00468506	0.000149219	0	1.7635e-05	0.000221417	2.04578e-06	-39.6227	0.0137099	0.0105602	0.0087432	-4.39131	31.4083	31.3161	2.40487	0.0317571	0.00243069	0.03185	4.37687	567768	7.41794e+06	7.43964e+06	-85.6231	0.0000000E+000	0.0000000E+000	0.0000000E+000	85.6231	0.0000000E+000	0.0000000E+000	0.0000000E+000	-85.6231	0.0000000E+000	0.0000000E+000	0.0000000E+000	-4.37687	0.0000000E+000	0.0000000E+000	0.0000000E+000	4.37687	13.0651	85.6231	-8.55016e-06	-1.03802e-06	-8.29164e-10	-1.03719e-06	0.276967	74019.6	59.1265	73960.5
0.464091	31.7332	2.4297	31.8261	-4.37839	27.4277	0.277185	-0.00406064	141145	822.627	1	12	0.00468641	0.000147251	0	1.09126e-05	0.000145025	3.12052e-06	21.3161	0.0211919	0.0197421	-0.00770354	-4.36186	31.8452	31.753	2.42199	0.0313291	0.00239875	0.0314208	4.37839	822627	1.0744e+07	1.07754e+07	-85.6216	0.0000000E+000	0.0000000E+000	0.0000000E+000	85.6216	0.0000000E+000	0.0000000E+000	0.0000000E+000	-85.6216	0.0000000E+000	0.0000000E+000	0.0000000E+000	-4.37839	0.0000000E+000	0.0000000E+000	0.0000000E+000	4.37839	13.0606	85.6216	-6.72241e-06	-1.12555e-06	-5.88894e-10	-1.12496e-06	0.27704	68261.4	35.7148	68225.7
0.316193	32.1012	2.61433	32.2075	-4.65591	34.1028	0.277189	-0.00392362	192534	1268.57	1	12	0.00468391	0.000145429	0	1.0646e-05	0.000202319	2.52185e-06	-36.8844	0.0173408	0.01387	0.010408	-4.67235	32.2222	32.1151	2.62474	0.0309462	0.00252027	0.0310487	4.65591	1.26857e+06	1.55767e+07	1.56283e+07	-85.3441	0.0000000E+000	0.0000000E+000	0.0000000E+000	85.3441	0.0000000E+000	0.0000000E+000	0.0000000E+000	-85.3441	0.0000000E+000	0.0000000E+000	0.0000000E+000	-4.65591	0.0000000E+000	0.0000000E+000	0.0000000E+000	4.65591	12.2789	85.3441	-2.6665e-07	-1.08758e-06	-7.93823e-10	-1.08679e-06	0.276986	70646.2	51.5644	70594.6
0.215268	32.5025	2.92488	32.6338	-5.14215	43.8952	0.27718	-0.00378442	252775	2030.54	1	12	0.00468407	0.000143534	0	1.8669e-05	0.000164123	9.01011e-07	-100.69	0.00627733	-0.00116438	0.00616839	-5.15312	32.6332	32.5013	2.93104	0.0305197	0.00274645	0.030643	5.14215	2.03054e+06	2.25643e+07	2.26555e+07	-84.8578	0.0000000E+000	0.0000000E+000	0.0000000E+000	84.8578	0.0000000E+000	0.0000000E+000	0.0000000E+000	-84.8578	0.0000000E+000	0.0000000E+000	0.0000000E+000	-5.14215	0.0000000E+000	0.0000000E+000	0.0000000E+000	5.14215	11.1124	84.8578	8.02297e-06	-1.04896e-06	-6.2111e-10	-1.04834e-06	0.277015	73242.3	43.3681	73199
0.146929	32.9974	3.3585	33.1679	-5.81159	58.2336	0.277185	-0.0025016	322528	3306.91	1	12	0.00468616	0.000141286	0	3.29689e-05	-0.000122347	2.58578e-06	-2.77772	0.0183017	0.0182802	0.000886925	-5.80992	33.1862	33.0157	3.35939	0.0299947	0.00305288	0.0301496	5.81159	3.30691e+06	3.24906e+07	3.26584e+07	-84.1884	0.0000000E+000	0.0000000E+000	0.0000000E+000	84.1884	0.0000000E+000	0.0000000E+000	0.0000000E+000	-84.1884	0.0000000E+000	0.0000000E+000	0.0000000E+000	-5.81159	0.0000000E+000	0.0000000E+000	0.0000000E+000	5.81159	9.82504	84.1884	1.42999e-05	-6.93405e-07	3.06064e-10	-6.93711e-07	0.277307	110803	48.9077	110852
0.0999041	33.6393	4.05437	33.8828	-6.87241	79.3107	0.277183	-0.00119807	392929	5626.04	1	12	0.00468818	0.000138365	0	4.29289e-05	0.000374201	2.04392e-06	29.8486	0.014772	0.0128124	-0.00735215	-6.85748	33.8946	33.6521	4.04702	0.0293015	0.00353155	0.0295135	6.87241	5.62603e+06	4.66795e+07	4.70173e+07	-83.1276	0.0000000E+000	0.0000000E+000	0.0000000E+000	83.1276	0.0000000E+000	0.0000000E+000	0.0000000E+000	-83.1276	0.0000000E+000	0.0000000E+000	0.0000000E+000	-6.87241	0.0000000E+000	0.0000000E+000	0.0000000E+000	6.87241	8.29706	83.1276	9.96001e-06	-3.32086e-07	-4.48321e-10	-3.31638e-07	0.276809	231357	312.336	231045
0.0680626	34.3678	5.09152	34.7429	-8.42697	110.237	0.277183	-8.11433e-05	459265	9863.42	1	12	0.00468217	0.000134766	0	3.59676e-05	0.000221417	2.58602e-06	20.1412	0.0191889	0.0180155	-0.00660742	-8.41184	34.7597	34.3858	5.08492	0.0284721	0.00421809	0.0287829	8.42697	9.86342e+06	6.65781e+07	6.73047e+07	-81.573	0.0000000E+000	0.0000000E+000	0.0000000E+000	81.573	0.0000000E+000	0.0000000E+000	0.0000000E+000	-81.573	0.0000000E+000	0.0000000E+000	0.0000000E+000	-8.42697	0.0000000E+000	0.0000000E+000	0.0000000E+000	8.42697	6.75	81.573	-6.96128e-06	-2.24915e-08	-1.79665e-11	-2.24736e-08	0.276962	3.41597e+06	2728.72	3.41324e+06
0.0464052	35.0973	6.46106	35.6871	-10.4308	155.588	0.277181	0.000363361	530823	17399.4	1	12	0.0046879	0.000131361	0	-1.61179e-05	1.13388e-05	2.15033e-06	-22.715	0.0163696	0.0150999	0.00632107	-10.4364	35.7031	35.1124	6.46738	0.0275583	0.00507319	0.0280213	10.4308	1.73994e+07	9.4516e+07	9.61042e+07	-79.5692	0.0000000E+000	0.0000000E+000	0.0000000E+000	79.5692	0.0000000E+000	0.0000000E+000	0.0000000E+000	-79.5692	0.0000000E+000	0.0000000E+000	0.0000000E+000	-10.4308	0.0000000E+000	0.0000000E+000	0.0000000E+000	10.4308	5.43214	79.5692	-5.20855e-05	1.00717e-07	4.12008e-12	1.00713e-07	0.27717	762825	31.2053	762794
0.0315922	36.0336	8.12568	36.9384	-12.7078	222.194	0.277178	8.77046e-05	619984	30001.5	1	12	0.00468532	0.000126841	0	-0.000127406	1.13388e-05	2.32525e-06	20.6446	0.0183319	0.0171547	-0.00646329	-12.6922	36.9537	36.0507	8.11921	0.026409	0.00595529	0.0270721	12.7078	3.00015e+07	1.33043e+08	1.36384e+08	-77.2922	0.0000000E+000	0.0000000E+000	0.0000000E+000	77.2922	0.0000000E+000	0.0000000E+000	0.0000000E+000	-77.2922	0.0000000E+000	0.0000000E+000	0.0000000E+000	-12.7078	0.0000000E+000	0.0000000E+000	0.0000000E+000	12.7078	4.43453	77.2922	-0.000111288	2.43098e-08	9.94465e-13	2.43088e-08	0.277167	3.16036e+06	129.284	3.16023e+06
0.0215268	37.456	10.4909	38.8975	-15.6468	319.932	0.27718	-0.000556758	704737	51264	1	12	0.00468504	0.000120446	0	-0.000272868	4.95349e-05	8.71926e-07	-11.0199	0.00723916	0.00710567	0.00138377	-15.646	38.9047	37.4631	10.4923	0.0247559	0.0069338	0.0257086	15.6468	5.1264e+07	1.83029e+08	1.90073e+08	-74.3531	0.0000000E+000	0.0000000E+000	0.0000000E+000	74.3531	0.0000000E+000	0.0000000E+000	0.0000000E+000	-74.3531	0.0000000E+000	0.0000000E+000	0.0000000E+000	-15.6468	0.0000000E+000	0.0000000E+000	0.0000000E+000	15.6468	3.57032	74.3531	-0.000145461	-1.54322e-07	-2.75789e-11	-1.54295e-07	0.277131	497847	88.9702	497758
0.0146812	39.1923	13.9778	41.6102	-19.6286	463.235	0.277175	-0.000895566	775572	87517.8	1	12	0.0046908	0.000112732	0	-0.000363443	0.000183221	2.2242e-06	4.43135	0.01973	0.019671	-0.00152443	-19.6175	41.6282	39.2119	13.9762	0.022636	0.00807304	0.0240326	19.6286	8.75178e+07	2.45392e+08	2.60531e+08	-70.3714	0.0000000E+000	0.0000000E+000	0.0000000E+000	70.3714	0.0000000E+000	0.0000000E+000	0.0000000E+000	-70.3714	0.0000000E+000	0.0000000E+000	0.0000000E+000	-19.6286	0.0000000E+000	0.0000000E+000	0.0000000E+000	19.6286	2.8039	70.3714	-9.05754e-05	-2.48228e-07	-1.64087e-10	-2.48064e-07	0.276991	309497	204.587	309292
0.0100092	40.9537	18.465	44.9239	-24.2694	673.416	0.277177	-0.000634344	861138	145484	1	12	0.00468222	0.000104225	0	-0.000268194	6.86329e-05	1.55097e-06	70.3207	0.0148809	0.00501122	-0.0140117	-24.2505	44.9228	40.9587	18.451	0.0202926	0.00914942	0.0222598	24.2694	1.45484e+08	3.22671e+08	3.53952e+08	-65.7306	0.0000000E+000	0.0000000E+000	0.0000000E+000	65.7306	0.0000000E+000	0.0000000E+000	0.0000000E+000	-65.7306	0.0000000E+000	0.0000000E+000	0.0000000E+000	-24.2694	0.0000000E+000	0.0000000E+000	0.0000000E+000	24.2694	2.21791	65.7306	9.52486e-05	-1.75825e-07	-4.35368e-11	-1.75782e-07	0.277108	436951	108.195	436842