File: txt/19498_R316_UA715_SOC00_C08.mpt
EC-Lab ASCII FILE
Nb header lines : 65

Potentio Electrochemical Impedance Spectroscopy

Run on channel : 8 (SN 65398)
User :
CE vs. WE compliance from -10 V to 10 V
Electrode connection : standard
Potential control : Ewe
Ewe ctrl range : min = -10.00 V, max = 10.00 V
Safety Limits :
	Do not start on E overload
Acquisition started on : 12/04/2025 13:10:46.563
Technique started on : 12/04/2025 13:10:48.433
Loaded Setting File :  NONE
Saved on :
	File : 19498_R316_UA715_SOC00_C08.mpr
	Directory : C:\Users\Celltest\OneDrive - store-dot.com\Documents\EC-Lab\Data\Charmaine\
	Host : 169.254.61.224
Device : VMP-3e (SN .003165)
Address : USB
EC-LAB for windows v11.62 (software)
Internet server v27.00 (firmware)
Command interpretor v12.03 (firmware)
Electrode material :
Initial state :
Electrolyte :
Comments :
Electrode surface area : 0.001 cm²
Characteristic mass : 0.001 g
Equivalent Weight : 0.000 g/eq.
Density : 0.000 g/cm3
Volume (V) : 0.001 cm³
Record Ece
Cycle Definition : Charge/Discharge alternance
Mode                Single sine
E (V)               0.0000
vs.                 Eoc
tE (h:m:s)          0:00:0.0000
record              0
dI                  0.000
unit dI             mA
dt (s)              0.000
fi                  100.000
unit fi             kHz
ff                  10.000
unit ff             mHz
Nd                  6
Points              per decade
spacing             Logarithmic
Va (mV)             5.0
pw                  0.10
Na                  2
corr                0
E range min (V)     -10.000
E range max (V)     10.000
I Range             Auto
Bandwidth           5
nc cycles           0
goto Ns'            0
nr cycles           0
inc. cycle          0

freq/Hz	Re(Z)/Ohm	-Im(Z)/Ohm	|Z|/Ohm	Phase(Z)/deg	time/s	<Ewe>/V	<I>/mA	Cs/µF	Cp/µF	cycle number	I Range	|Ewe|/V	|I|/A	Ns	(Q-Qo)/mA.h	<Ece>/V	|Ece|/V	Phase(Zce)/deg	|Zce|/Ohm	Re(Zce)/Ohm	-Im(Zce)/Ohm	Phase(Zwe-ce)/deg	|Zwe-ce|/Ohm	Re(Zwe-ce)/Ohm	-Im(Zwe-ce)/Ohm	Re(Y)/Ohm-1	Im(Y)/Ohm-1	|Y|/Ohm-1	Phase(Y)/deg	Re(C)/nF	Im(C)/nF	|C|/nF	Phase(C)/deg	Re(M)	Im(M)	|M|	Phase(M)/deg	Re(Permittivity)	Im(Permittivity)	|Permittivity|	Phase(Permittivity)/deg	Re(Resistivity)/Ohm.cm	Im(Resistivity)/Ohm.cm	|Resistivity|/Ohm.cm	Phase(Resistivity)/deg	Re(Conductivity)/mS/cm	Im(Conductivity)/mS/cm	|Conductivity|/mS/cm	Phase(Conductivity)/deg	Tan(Delta)	Loss Angle(Delta)/deg	dq/mA.h	Pwe/W	Pce/W	Pwe-ce/W	<Ewe-Ece>/V	Rwe/Ohm	Rce/Ohm	Rwe-ce/Ohm		Ewe-Ece/V
100004	1.02742	0.42845	1.11318	-22.6369	1.86956	0.272119	0.0261556	3.71453	0.55027	1	9	0.00493163	0.00443023	0	-1.8488e-06	8.98672e-05	5.95957e-05	80.4903	0.013452	0.00222247	-0.0132672	-21.9608	1.1102	1.02964	0.415183	0.829124	0.345758	0.898329	22.6369	550.27	1319.54	1429.68	-67.3631	0.0000000E+000	0.0000000E+000	0.0000000E+000	67.3631	0.0000000E+000	0.0000000E+000	0.0000000E+000	-67.3631	0.0000000E+000	0.0000000E+000	0.0000000E+000	-22.6369	0.0000000E+000	0.0000000E+000	0.0000000E+000	22.6369	2.39799	67.3631	-1.8488e-06	7.11744e-06	2.35053e-09	7.11509e-06	0.272029	10403.8	3.43586	10400.4
68132	1.13759	0.492544	1.23964	-23.4112	2.25256	0.272116	0.0278297	4.74268	0.74872	1	9	0.00547834	0.00441929	0	-1.41178e-05	0.0003571	3.86606e-05	60.7513	0.00874816	0.00427436	-0.00763283	-23.0092	1.24056	1.14187	0.484911	0.740275	0.320517	0.806683	23.4112	748.72	1729.27	1884.39	-66.5888	0.0000000E+000	0.0000000E+000	0.0000000E+000	66.5888	0.0000000E+000	0.0000000E+000	0.0000000E+000	-66.5888	0.0000000E+000	0.0000000E+000	0.0000000E+000	-23.4112	0.0000000E+000	0.0000000E+000	0.0000000E+000	23.4112	2.30963	66.5888	-1.2269e-05	7.57292e-06	9.938e-09	7.56298e-06	0.271759	9777.89	12.8316	9765.06
46420.4	1.26277	0.550808	1.37767	-23.5663	2.63556	0.272112	0.0298386	6.2246	0.994992	1	9	0.00548695	0.00398277	0	-2.49971e-05	0.000242572	9.5184e-06	30.9507	0.0023899	0.0020496	-0.00122912	-23.4855	1.37906	1.26482	0.549579	0.665323	0.290207	0.725862	23.5663	994.992	2281.1	2488.66	-66.4337	0.0000000E+000	0.0000000E+000	0.0000000E+000	66.4337	0.0000000E+000	0.0000000E+000	0.0000000E+000	-66.4337	0.0000000E+000	0.0000000E+000	0.0000000E+000	-23.5663	0.0000000E+000	0.0000000E+000	0.0000000E+000	23.5663	2.29258	66.4337	-1.08793e-05	8.11943e-06	7.238e-09	8.1122e-06	0.271869	9119.44	8.12945	9111.31
31621.1	1.40211	0.612245	1.52995	-23.589	3.01854	0.27211	0.025486	8.22086	1.31648	1	9	0.0054771	0.00357992	0	-2.09841e-05	0.000147131	1.67594e-05	34.94	0.00468149	0.00383766	-0.00268118	-23.4397	1.5324	1.40595	0.609564	0.598999	0.261559	0.653616	23.589	1316.48	3014.87	3289.77	-66.411	0.0000000E+000	0.0000000E+000	0.0000000E+000	66.411	0.0000000E+000	0.0000000E+000	0.0000000E+000	-66.411	0.0000000E+000	0.0000000E+000	0.0000000E+000	-23.589	0.0000000E+000	0.0000000E+000	0.0000000E+000	23.589	2.29011	66.411	4.01295e-06	6.93497e-06	3.74978e-09	6.93122e-06	0.271962	10676.8	5.77304	10671.1
21544.7	1.54377	0.674945	1.68486	-23.6153	3.40153	0.272114	0.023663	10.9449	1.75638	1	9	0.00542293	0.00321862	0	-2.07619e-05	3.2603e-05	1.33094e-05	39.2552	0.00413512	0.00320197	-0.0026166	-23.4903	1.68675	1.54697	0.672328	0.543816	0.23776	0.59352	23.6153	1756.38	4017.28	4384.45	-66.3847	0.0000000E+000	0.0000000E+000	0.0000000E+000	66.3847	0.0000000E+000	0.0000000E+000	0.0000000E+000	-66.3847	0.0000000E+000	0.0000000E+000	0.0000000E+000	-23.6153	0.0000000E+000	0.0000000E+000	0.0000000E+000	23.6153	2.28725	66.3847	2.22201e-07	6.43905e-06	7.71486e-10	6.43828e-06	0.272082	11499.5	1.3778	11498.2
14678.6	1.70475	0.746599	1.86107	-23.6511	3.78452	0.272105	0.0263788	14.5227	2.33721	1	9	0.00537688	0.00288914	0	-1.85486e-05	1.35149e-05	1.01959e-05	-94.3272	0.00352904	-0.000266275	0.00351898	-23.7536	1.86224	1.70448	0.750118	0.492193	0.215557	0.537326	23.6511	2337.21	5336.68	5826.04	-66.3489	0.0000000E+000	0.0000000E+000	0.0000000E+000	66.3489	0.0000000E+000	0.0000000E+000	0.0000000E+000	-66.3489	0.0000000E+000	0.0000000E+000	0.0000000E+000	-23.6511	0.0000000E+000	0.0000000E+000	0.0000000E+000	23.6511	2.28335	66.3489	2.21335e-06	7.1778e-06	3.56508e-10	7.17744e-06	0.272091	10315.3	0.512341	10314.8
10002.2	1.86844	0.840908	2.04895	-24.2305	4.16755	0.27211	0.0197568	18.9223	3.18719	1	9	0.00528663	0.00258017	0	-1.67255e-05	3.2603e-05	9.24788e-06	-98.978	0.00358422	-0.000559336	0.00354031	-24.3272	2.0499	1.86788	0.844448	0.445058	0.200302	0.488054	24.2305	3187.19	7081.73	7765.9	-65.7695	0.0000000E+000	0.0000000E+000	0.0000000E+000	65.7695	0.0000000E+000	0.0000000E+000	0.0000000E+000	-65.7695	0.0000000E+000	0.0000000E+000	0.0000000E+000	-24.2305	0.0000000E+000	0.0000000E+000	0.0000000E+000	24.2305	2.22193	65.7695	1.82307e-06	5.37602e-06	6.44131e-10	5.37538e-06	0.272077	13773	1.65022	13771.3
6810.42	2.06033	0.931528	2.26113	-24.3289	4.55056	0.272105	0.0256347	25.0871	4.25786	1	9	0.00515376	0.00227929	0	-9.28935e-06	0.000108955	5.85202e-05	-98.0255	0.0256748	-0.00358458	0.0254234	-24.9514	2.26847	2.05675	0.956951	0.402983	0.182199	0.442257	24.3289	4257.86	9417.43	10335.2	-65.6711	0.0000000E+000	0.0000000E+000	0.0000000E+000	65.6711	0.0000000E+000	0.0000000E+000	0.0000000E+000	-65.6711	0.0000000E+000	0.0000000E+000	0.0000000E+000	-24.3289	0.0000000E+000	0.0000000E+000	0.0000000E+000	24.3289	2.21178	65.6711	7.43616e-06	6.97534e-06	2.79304e-09	6.97255e-06	0.271996	10614.7	4.2503	10610.4
4646	2.26036	1.07579	2.50331	-25.4516	4.94161	0.272113	0.0165574	31.8429	5.88085	1	9	0.00499013	0.00199342	0	-7.6544e-06	-0.000101013	1.46344e-05	18.8105	0.00734139	0.00694929	-0.00236716	-25.3346	2.50857	2.26731	1.07343	0.360702	0.171672	0.399471	25.4516	5880.85	12356.3	13684.4	-64.5484	0.0000000E+000	0.0000000E+000	0.0000000E+000	64.5484	0.0000000E+000	0.0000000E+000	0.0000000E+000	-64.5484	0.0000000E+000	0.0000000E+000	0.0000000E+000	-25.4516	0.0000000E+000	0.0000000E+000	0.0000000E+000	25.4516	2.10111	64.5484	1.63495e-06	4.50549e-06	-1.67252e-09	4.50716e-06	0.272214	16434.6	6.10081	16440.7
3163.08	2.49476	1.22888	2.781	-26.224	5.31462	0.272039	-0.0113815	40.9451	7.99494	1	9	0.00498905	0.00179397	0	-7.86069e-06	7.07791e-05	8.4338e-06	-24.7256	0.00470118	0.00427019	0.00196637	-26.2215	2.7857	2.49903	1.23084	0.322572	0.158893	0.359583	26.224	7994.94	16230.7	18092.9	-63.776	0.0000000E+000	0.0000000E+000	0.0000000E+000	63.776	0.0000000E+000	0.0000000E+000	0.0000000E+000	-63.776	0.0000000E+000	0.0000000E+000	0.0000000E+000	-26.224	0.0000000E+000	0.0000000E+000	0.0000000E+000	26.224	2.03012	63.776	-2.06296e-07	-3.09621e-06	-8.05573e-10	-3.0954e-06	0.271968	23901.8	6.21879	23895.6
2155.69	2.73787	1.42552	3.08675	-27.5046	5.76681	0.272078	0.0210588	51.7917	11.046	1	9	0.00490157	0.00158794	0	-5.90868e-06	0.000299836	6.38007e-06	11.0593	0.00401783	0.00394321	-0.000770716	-27.4581	3.08989	2.74181	1.42475	0.287349	0.149614	0.323966	27.5046	11046	21215	23918.4	-62.4954	0.0000000E+000	0.0000000E+000	0.0000000E+000	62.4954	0.0000000E+000	0.0000000E+000	0.0000000E+000	-62.4954	0.0000000E+000	0.0000000E+000	0.0000000E+000	-27.5046	0.0000000E+000	0.0000000E+000	0.0000000E+000	27.5046	1.92061	62.4954	1.95201e-06	5.72965e-06	6.31419e-09	5.72333e-06	0.271778	12919.9	14.238	12905.7
1468.59	2.98624	1.66687	3.41996	-29.1695	6.46403	0.272083	-0.0136185	65.0156	15.4447	1	10	0.00493719	0.00144364	0	-6.71026e-06	0.000223484	7.5568e-06	152.116	0.00523455	-0.00462679	-0.00244811	-29.1715	3.41472	2.98161	1.66442	0.255319	0.142515	0.292401	29.1695	15444.7	27669.6	31688.3	-60.8305	0.0000000E+000	0.0000000E+000	0.0000000E+000	60.8305	0.0000000E+000	0.0000000E+000	0.0000000E+000	-60.8305	0.0000000E+000	0.0000000E+000	0.0000000E+000	-29.1695	0.0000000E+000	0.0000000E+000	0.0000000E+000	29.1695	1.79153	60.8305	-8.01578e-07	-3.70536e-06	-3.04352e-09	-3.70232e-06	0.271859	19978.9	16.4103	19962.4
1000.32	3.27216	2.02823	3.84978	-31.7925	6.91483	0.272063	-0.0138715	78.4446	21.7735	1	10	0.004853	0.00126059	0	-9.41059e-06	0.000204395	6.55608e-06	70.8434	0.00520079	0.00170665	-0.0049128	-31.717	3.84864	3.27387	2.02332	0.220782	0.136851	0.259755	31.7925	21773.5	35127.3	41328.1	-58.2075	0.0000000E+000	0.0000000E+000	0.0000000E+000	58.2075	0.0000000E+000	0.0000000E+000	0.0000000E+000	-58.2075	0.0000000E+000	0.0000000E+000	0.0000000E+000	-31.7925	0.0000000E+000	0.0000000E+000	0.0000000E+000	31.7925	1.61331	58.2075	-2.70034e-06	-3.77391e-06	-2.83527e-09	-3.77108e-06	0.271858	19613.1	14.7349	19598.4
681.09	3.58351	2.51507	4.37803	-35.063	7.36459	0.272072	-0.0134102	92.9105	30.6627	1	10	0.00476176	0.00108765	0	-1.06583e-05	-0.000120101	6.64047e-06	-21.3192	0.00610533	0.00568754	0.00221967	-35.044	4.38396	3.58919	2.51729	0.186961	0.131218	0.228413	35.063	30662.7	43688.5	53374.9	-54.937	0.0000000E+000	0.0000000E+000	0.0000000E+000	54.937	0.0000000E+000	0.0000000E+000	0.0000000E+000	-54.937	0.0000000E+000	0.0000000E+000	0.0000000E+000	-35.063	0.0000000E+000	0.0000000E+000	0.0000000E+000	35.063	1.42481	54.937	-1.24771e-06	-3.64855e-06	1.61059e-09	-3.65016e-06	0.272192	20288.4	8.95597	20297.4
463.961	3.99307	3.19905	5.1165	-38.7	7.81632	0.272076	-0.0138008	107.23	41.9194	1	10	0.00470866	0.00092029	0	-1.17472e-05	3.2603e-05	5.68193e-06	56.2056	0.00617407	0.00343411	-0.00513089	-38.6311	5.11597	3.9965	3.19392	0.152532	0.122201	0.195446	38.7	41919.4	52324	67045	-51.3	0.0000000E+000	0.0000000E+000	0.0000000E+000	51.3	0.0000000E+000	0.0000000E+000	0.0000000E+000	-51.3	0.0000000E+000	0.0000000E+000	0.0000000E+000	-38.7	0.0000000E+000	0.0000000E+000	0.0000000E+000	38.7	1.2482	51.3	-1.08889e-06	-3.75486e-06	-4.49948e-10	-3.75441e-06	0.272043	19714.5	2.3624	19712.1
316.316	4.54918	4.1454	6.15462	-42.3411	8.26401	0.272069	-0.0143402	121.376	55.0634	1	10	0.00466789	0.000758436	0	-1.40904e-05	-6.28373e-05	6.88928e-06	-27.0474	0.00908354	0.00809008	0.00413054	-42.3188	6.16338	4.55727	4.14953	0.120096	0.109437	0.16248	42.3411	55063.4	60426.8	81751.9	-47.6589	0.0000000E+000	0.0000000E+000	0.0000000E+000	47.6589	0.0000000E+000	0.0000000E+000	0.0000000E+000	-47.6589	0.0000000E+000	0.0000000E+000	0.0000000E+000	-42.3411	0.0000000E+000	0.0000000E+000	0.0000000E+000	42.3411	1.0974	47.6589	-2.34325e-06	-3.90153e-06	9.011e-10	-3.90243e-06	0.272132	18972.4	4.38189	18976.8
215.345	5.35117	5.42611	7.62087	-45.3984	8.7136	0.272071	-0.0126662	136.207	69.0503	1	10	0.00464292	0.000609238	0	-1.5898e-05	-8.19253e-05	1.43012e-05	-23.0502	0.0234739	0.0215998	0.00919089	-45.3315	7.64259	5.37277	5.4353	0.0921382	0.0934284	0.131219	45.3984	69050.2	68096.7	96979.9	-44.6016	0.0000000E+000	0.0000000E+000	0.0000000E+000	44.6016	0.0000000E+000	0.0000000E+000	0.0000000E+000	-44.6016	0.0000000E+000	0.0000000E+000	0.0000000E+000	-45.3984	0.0000000E+000	0.0000000E+000	0.0000000E+000	45.3984	0.98619	44.6016	-1.80758e-06	-3.44611e-06	1.03769e-09	-3.44715e-06	0.272153	21480	6.46801	21486.5
146.737	6.60718	7.0203	9.64051	-46.7364	9.16046	0.272066	-0.0135367	154.498	81.9285	1	10	0.00462836	0.000480095	0	-1.69856e-05	0.000242572	4.70748e-06	-40.4427	0.00980529	0.00746237	0.00636057	-46.73	9.65026	6.61464	7.02666	0.0710912	0.0755363	0.103729	46.7364	81928.5	77107.3	112507	-43.2636	0.0000000E+000	0.0000000E+000	0.0000000E+000	43.2636	0.0000000E+000	0.0000000E+000	0.0000000E+000	-43.2636	0.0000000E+000	0.0000000E+000	0.0000000E+000	-46.7364	0.0000000E+000	0.0000000E+000	0.0000000E+000	46.7364	0.941153	43.2636	-1.08754e-06	-3.68288e-06	-3.28362e-09	-3.67959e-06	0.271823	20098.4	17.9195	20080.5
100.032	8.47874	8.83114	12.2425	-46.1663	9.61181	0.272084	-0.0128932	180.163	93.7475	1	10	0.00461316	0.000376816	0	-1.89492e-05	0.000108955	1.18681e-05	71.8954	0.0314957	0.00978737	-0.0299364	-46.036	12.2277	8.48853	8.8012	0.0565709	0.0589222	0.0816829	46.1663	93747.5	90006.6	129961	-43.8337	0.0000000E+000	0.0000000E+000	0.0000000E+000	43.8337	0.0000000E+000	0.0000000E+000	0.0000000E+000	-43.8337	0.0000000E+000	0.0000000E+000	0.0000000E+000	-46.1663	0.0000000E+000	0.0000000E+000	0.0000000E+000	46.1663	0.960096	43.8337	-1.96366e-06	-3.50802e-06	-1.40478e-09	-3.50661e-06	0.271975	21103	8.45063	21094.5
68.104	11.2621	10.625	15.483	-43.3327	10.0744	0.272073	-0.0125881	219.948	103.577	1	10	0.00461332	0.00029796	0	-2.06465e-05	-0.000158278	1.24975e-05	-18.6722	0.0419437	0.039736	0.0134284	-43.2681	15.5212	11.3018	10.6384	0.0469792	0.0443216	0.0645868	43.3327	103577	109788	150935	-46.6673	0.0000000E+000	0.0000000E+000	0.0000000E+000	46.6673	0.0000000E+000	0.0000000E+000	0.0000000E+000	-46.6673	0.0000000E+000	0.0000000E+000	0.0000000E+000	-43.3327	0.0000000E+000	0.0000000E+000	0.0000000E+000	43.3327	1.05996	46.6673	-1.69726e-06	-3.42489e-06	1.99242e-09	-3.42688e-06	0.272232	21613.5	12.5736	21626.1
46.4415	14.828	11.946	19.0415	-38.8563	10.7507	0.272069	-0.0091756	286.873	112.911	1	11	0.0046203	0.000242644	0	-2.23665e-05	0.000147131	7.76111e-06	0.278638	0.0319856	0.0319852	-0.00015555	-38.7956	19.0663	14.86	11.9459	0.0408961	0.0329475	0.0525169	38.8563	112911	140151	179975	-51.1437	0.0000000E+000	0.0000000E+000	0.0000000E+000	51.1437	0.0000000E+000	0.0000000E+000	0.0000000E+000	-51.1437	0.0000000E+000	0.0000000E+000	0.0000000E+000	-38.8563	0.0000000E+000	0.0000000E+000	0.0000000E+000	38.8563	1.24125	51.1437	-1.72006e-06	-2.4964e-06	-1.35002e-09	-2.49505e-06	0.271922	29651.4	16.0351	29635.4
31.6296	18.9505	12.3306	22.609	-33.0509	11.1806	0.272075	-0.00922027	408.078	121.38	1	11	0.00461655	0.000204191	0	-2.34434e-05	7.07791e-05	7.34756e-06	42.7908	0.0359838	0.0264063	-0.0244446	-32.9625	22.6178	18.9769	12.3061	0.0370732	0.0241225	0.0442302	33.0509	121380	186546	222560	-56.9491	0.0000000E+000	0.0000000E+000	0.0000000E+000	56.9491	0.0000000E+000	0.0000000E+000	0.0000000E+000	-56.9491	0.0000000E+000	0.0000000E+000	0.0000000E+000	-33.0509	0.0000000E+000	0.0000000E+000	0.0000000E+000	33.0509	1.53687	56.9491	-1.07687e-06	-2.50861e-06	-6.52602e-10	-2.50795e-06	0.272004	29508.4	7.67647	29500.7
21.5517	22.8805	11.6456	25.6737	-26.9749	11.6014	0.272074	-0.00926419	634.128	130.474	1	11	0.00460492	0.000179363	0	-2.46149e-05	-0.000101013	1.04775e-05	12.8242	0.0584146	0.0569575	-0.0129658	-26.8916	25.7186	22.9375	11.6326	0.0347128	0.0176679	0.0389504	26.9749	130474	256347	287640	-63.0251	0.0000000E+000	0.0000000E+000	0.0000000E+000	63.0251	0.0000000E+000	0.0000000E+000	0.0000000E+000	-63.0251	0.0000000E+000	0.0000000E+000	0.0000000E+000	-26.9749	0.0000000E+000	0.0000000E+000	0.0000000E+000	26.9749	1.96474	63.0251	-1.17151e-06	-2.52055e-06	9.35808e-10	-2.52149e-06	0.272175	29368.4	10.9036	29379.3
14.6852	26.2409	10.2593	28.1751	-21.3539	12.0621	0.272078	-0.00848361	1056.38	140.065	1	11	0.0046087	0.000163573	0	-2.63929e-05	0.000242572	6.71397e-06	29.958	0.0410456	0.0355616	-0.0204968	-21.2888	28.2008	26.2765	10.2388	0.0330557	0.0129237	0.0354923	21.3539	140065	358251	384659	-68.6461	0.0000000E+000	0.0000000E+000	0.0000000E+000	68.6461	0.0000000E+000	0.0000000E+000	0.0000000E+000	-68.6461	0.0000000E+000	0.0000000E+000	0.0000000E+000	-21.3539	0.0000000E+000	0.0000000E+000	0.0000000E+000	21.3539	2.55776	68.6461	-1.77796e-06	-2.3082e-06	-2.05788e-09	-2.30615e-06	0.271835	32071	28.593	32042.4
10.0032	28.7236	8.53966	29.9662	-16.5574	12.5128	0.272073	-0.00844788	1863.12	151.307	1	11	0.00460786	0.000153768	0	-2.72746e-05	-0.000196454	1.2252e-05	91.3161	0.079678	-0.00183013	-0.079657	-16.4123	29.9418	28.7218	8.46	0.0319872	0.00950993	0.0333709	16.5574	151307	508929	530945	-73.4426	0.0000000E+000	0.0000000E+000	0.0000000E+000	73.4426	0.0000000E+000	0.0000000E+000	0.0000000E+000	-73.4426	0.0000000E+000	0.0000000E+000	0.0000000E+000	-16.5574	0.0000000E+000	0.0000000E+000	0.0000000E+000	16.5574	3.36356	73.4426	-8.81713e-07	-2.29844e-06	1.65962e-09	-2.3001e-06	0.272269	32206	23.2548	32229.3
6.81719	30.3997	6.95245	31.1846	-12.8821	12.8525	0.272083	-0.00869356	3357.97	166.907	1	11	0.00459378	0.00014731	0	-2.89013e-05	0.000185307	1.10898e-05	-34.3294	0.075282	0.0621686	0.0424553	-12.9325	31.2546	30.4618	6.99491	0.0312601	0.00714922	0.0320672	12.8821	166907	729801	748644	-77.1179	0.0000000E+000	0.0000000E+000	0.0000000E+000	77.1179	0.0000000E+000	0.0000000E+000	0.0000000E+000	-77.1179	0.0000000E+000	0.0000000E+000	0.0000000E+000	-12.8821	0.0000000E+000	0.0000000E+000	0.0000000E+000	12.8821	4.37251	77.1179	-1.62671e-06	-2.36537e-06	-1.61098e-09	-2.36376e-06	0.271897	31297.1	21.3155	31275.7
4.63925	31.7532	5.6416	32.2505	-10.0746	13.3365	0.272093	-0.0083913	6080.92	186.081	1	11	0.00460942	0.000142926	0	-2.84812e-05	8.98672e-05	8.92324e-06	-14.5922	0.0624327	0.0604188	0.0157292	-10.0834	32.3127	31.8136	5.65733	0.0305292	0.00542413	0.0310073	10.0746	186081	1.04734e+06	1.06374e+06	-79.9254	0.0000000E+000	0.0000000E+000	0.0000000E+000	79.9254	0.0000000E+000	0.0000000E+000	0.0000000E+000	-79.9254	0.0000000E+000	0.0000000E+000	0.0000000E+000	-10.0746	0.0000000E+000	0.0000000E+000	0.0000000E+000	10.0746	5.6284	79.9254	4.20128e-07	-2.28322e-06	-7.54102e-10	-2.28246e-06	0.272003	32425.6	10.7096	32414.9
3.1604	32.6658	4.60468	32.9887	-8.02374	14.0294	0.272081	-0.00771625	10936.5	213.082	1	11	0.00460771	0.000139675	0	-2.89764e-05	-5.57311e-06	9.45678e-06	-27.7043	0.0677054	0.0599436	0.0314768	-8.06327	33.0525	32.7257	4.63616	0.0300166	0.00423124	0.0303134	8.02374	213082	1.51161e+06	1.52656e+06	-81.9763	0.0000000E+000	0.0000000E+000	0.0000000E+000	81.9763	0.0000000E+000	0.0000000E+000	0.0000000E+000	-81.9763	0.0000000E+000	0.0000000E+000	0.0000000E+000	-8.02374	0.0000000E+000	0.0000000E+000	0.0000000E+000	8.02374	7.09404	81.9763	-4.95215e-07	-2.09944e-06	4.30035e-11	-2.09949e-06	0.272087	35260.8	0.722256	35261.5
2.15577	33.2331	4.00414	33.4735	-6.87025	15.033	0.272086	-0.00674239	18437.8	263.831	1	11	0.00458431	0.000136954	0	-3.22837e-05	0.000528892	3.44376e-05	26.1194	0.251455	0.225776	-0.110701	-6.63736	33.6846	33.4589	3.89344	0.0296599	0.00357362	0.0298744	6.87025	263831	2.18972e+06	2.20555e+06	-83.1298	0.0000000E+000	0.0000000E+000	0.0000000E+000	83.1298	0.0000000E+000	0.0000000E+000	0.0000000E+000	-83.1298	0.0000000E+000	0.0000000E+000	0.0000000E+000	-6.87025	0.0000000E+000	0.0000000E+000	0.0000000E+000	6.87025	8.29969	83.1298	-3.30737e-06	-1.83451e-06	-3.566e-09	-1.83095e-06	0.271557	40354.6	78.4429	40276.2
1.46631	34.0038	3.43522	34.1769	-5.76871	17.2226	0.27209	-0.00652569	31596.6	319.215	1	12	0.00460694	0.000134797	0	-3.96845e-05	-4.37492e-05	5.38023e-06	-6.6928	0.0399137	0.0396417	0.00465177	-5.76979	34.2168	34.0434	3.43987	0.0291114	0.00294096	0.0292595	5.76871	319215	3.15978e+06	3.17586e+06	-84.2313	0.0000000E+000	0.0000000E+000	0.0000000E+000	84.2313	0.0000000E+000	0.0000000E+000	0.0000000E+000	-84.2313	0.0000000E+000	0.0000000E+000	0.0000000E+000	-5.76871	0.0000000E+000	0.0000000E+000	0.0000000E+000	5.76871	9.89859	84.2313	-7.40072e-06	-1.77557e-06	2.85494e-10	-1.77586e-06	0.272134	41695.2	6.70416	41701.9
1.00006	34.646	3.06879	34.7817	-5.06179	19.3527	0.272085	-0.00656881	51859.2	403.7	1	12	0.00461168	0.000132589	0	-4.46366e-05	-5.57311e-06	4.97801e-06	46.0106	0.0375446	0.0260756	-0.0270121	-5.01371	34.8053	34.6721	3.04177	0.0286387	0.00253668	0.0287508	5.06179	403700	4.55769e+06	4.57554e+06	-84.9382	0.0000000E+000	0.0000000E+000	0.0000000E+000	84.9382	0.0000000E+000	0.0000000E+000	0.0000000E+000	-84.9382	0.0000000E+000	0.0000000E+000	0.0000000E+000	-5.06179	0.0000000E+000	0.0000000E+000	0.0000000E+000	5.06179	11.2898	84.9382	-4.95218e-06	-1.78727e-06	3.66087e-11	-1.78731e-06	0.272091	41420.8	0.84842	41421.6
0.681362	35.1493	2.90213	35.2689	-4.71997	22.4648	0.272094	-0.00641192	80486.9	544.974	1	12	0.00461432	0.000130833	0	-4.75865e-05	3.2603e-05	5.05332e-06	1.38227	0.0386243	0.038613	-0.000931724	-4.71331	35.3073	35.1879	2.9012	0.0282575	0.0023331	0.0283536	4.71997	544974	6.60047e+06	6.62293e+06	-85.28	0.0000000E+000	0.0000000E+000	0.0000000E+000	85.28	0.0000000E+000	0.0000000E+000	0.0000000E+000	-85.28	0.0000000E+000	0.0000000E+000	0.0000000E+000	-4.71997	0.0000000E+000	0.0000000E+000	0.0000000E+000	4.71997	12.1115	85.28	-2.94986e-06	-1.74464e-06	-2.09048e-10	-1.74444e-06	0.272062	42435.7	5.08475	42430.6
0.464091	35.5555	2.87084	35.6712	-4.6162	27.0213	0.272087	-0.00616062	119456	773.734	1	12	0.00460715	0.000129156	0	-4.76161e-05	1.35149e-05	6.93744e-06	35.7655	0.0537136	0.0435841	-0.0313939	-4.56037	35.7121	35.599	2.83945	0.0279429	0.00225618	0.0280338	4.6162	773734	9.58272e+06	9.61391e+06	-85.3838	0.0000000E+000	0.0000000E+000	0.0000000E+000	85.3838	0.0000000E+000	0.0000000E+000	0.0000000E+000	-85.3838	0.0000000E+000	0.0000000E+000	0.0000000E+000	-4.6162	0.0000000E+000	0.0000000E+000	0.0000000E+000	4.6162	12.385	85.3838	-2.95672e-08	-1.67623e-06	-8.32605e-11	-1.67614e-06	0.272073	44165.5	2.19376	44163.3
0.316193	36.0164	2.91979	36.1346	-4.63473	33.6958	0.272078	-0.00543257	172392	1125.57	1	12	0.00460684	0.000127491	0	-4.72936e-05	7.07791e-05	4.15864e-06	30.0763	0.0326191	0.0282272	-0.0163472	-4.6053	36.1614	36.0447	2.90344	0.0275838	0.00223617	0.0276743	4.63473	1.12557e+06	1.38842e+07	1.39298e+07	-85.3653	0.0000000E+000	0.0000000E+000	0.0000000E+000	85.3653	0.0000000E+000	0.0000000E+000	0.0000000E+000	-85.3653	0.0000000E+000	0.0000000E+000	0.0000000E+000	-4.63473	0.0000000E+000	0.0000000E+000	0.0000000E+000	4.63473	12.3353	85.3653	3.22469e-07	-1.47808e-06	-3.84513e-10	-1.4777e-06	0.272007	50082.7	13.0287	50069.7
0.215268	36.5611	3.19379	36.7003	-4.99239	43.4882	0.272092	-0.00390916	231491	1753.1	1	12	0.00461352	0.000125708	0	-5.12336e-05	0.000147131	2.93288e-06	20.7375	0.0233309	0.0218193	-0.00826116	-4.97658	36.7214	36.5829	3.18553	0.0271443	0.00237119	0.0272477	4.99239	1.7531e+06	2.00687e+07	2.01452e+07	-85.0076	0.0000000E+000	0.0000000E+000	0.0000000E+000	85.0076	0.0000000E+000	0.0000000E+000	0.0000000E+000	-85.0076	0.0000000E+000	0.0000000E+000	0.0000000E+000	-4.99239	0.0000000E+000	0.0000000E+000	0.0000000E+000	4.99239	11.4476	85.0076	-3.94004e-06	-1.06365e-06	-5.7516e-10	-1.06308e-06	0.271945	69603.7	37.6376	69566
0.146929	37.1243	3.69624	37.3078	-5.68587	57.8266	0.272087	-0.00281638	293057	2876.57	1	12	0.00461066	0.000123584	0	-6.88182e-05	-4.37492e-05	3.56732e-06	-11.0012	0.0288655	0.028335	0.0055084	-5.68997	37.3366	37.1526	3.70175	0.0266722	0.00265559	0.026804	5.68587	2.87657e+06	2.88916e+07	2.90344e+07	-84.3141	0.0000000E+000	0.0000000E+000	0.0000000E+000	84.3141	0.0000000E+000	0.0000000E+000	0.0000000E+000	-84.3141	0.0000000E+000	0.0000000E+000	0.0000000E+000	-5.68587	0.0000000E+000	0.0000000E+000	0.0000000E+000	5.68587	10.0438	84.3141	-1.75845e-05	-7.66299e-07	1.23214e-10	-7.66422e-07	0.27213	96608.7	15.5339	96624.2
0.0999041	37.7378	4.41492	37.9951	-6.67267	78.9039	0.272087	-0.0018353	360840	4871.96	1	12	0.00461232	0.000121392	0	-0.000107606	-2.46612e-05	3.48603e-06	18.6202	0.0287171	0.0272139	-0.00916917	-6.65418	38.0211	37.765	4.40575	0.0261409	0.0030582	0.0263192	6.67267	4.87196e+06	4.16444e+07	4.19284e+07	-83.3273	0.0000000E+000	0.0000000E+000	0.0000000E+000	83.3273	0.0000000E+000	0.0000000E+000	0.0000000E+000	-83.3273	0.0000000E+000	0.0000000E+000	0.0000000E+000	-6.67267	0.0000000E+000	0.0000000E+000	0.0000000E+000	6.67267	8.54779	83.3273	-3.87878e-05	-4.99362e-07	4.52607e-11	-4.99408e-07	0.272112	148252	13.4371	148265
0.0680626	38.4828	5.36167	38.8545	-7.93176	109.83	0.272084	-0.00131899	436125	8304.79	1	12	0.00461093	0.000118671	0	-0.000166809	3.2603e-05	1.43817e-06	-17.6035	0.0121189	0.0115514	0.0036651	-7.93476	38.8665	38.4944	5.36534	0.0254908	0.00355154	0.025737	7.93176	8.30479e+06	5.96067e+07	6.01824e+07	-82.0682	0.0000000E+000	0.0000000E+000	0.0000000E+000	82.0682	0.0000000E+000	0.0000000E+000	0.0000000E+000	-82.0682	0.0000000E+000	0.0000000E+000	0.0000000E+000	-7.93176	0.0000000E+000	0.0000000E+000	0.0000000E+000	7.93176	7.17739	82.0682	-5.92026e-05	-3.58877e-07	-4.30032e-11	-3.58834e-07	0.272051	206281	24.7181	206256
0.0464052	39.5102	6.57505	40.0536	-9.44823	155.182	0.272088	-0.0014154	521621	14056.3	1	12	0.00460745	0.000115032	0	-0.000243192	7.07791e-05	5.16889e-06	-13.9548	0.0449342	0.043608	0.0108362	-9.45327	40.0984	39.5538	6.58588	0.0246279	0.00409842	0.0249666	9.44823	1.40563e+07	8.44657e+07	8.56273e+07	-80.5518	0.0000000E+000	0.0000000E+000	0.0000000E+000	80.5518	0.0000000E+000	0.0000000E+000	0.0000000E+000	-80.5518	0.0000000E+000	0.0000000E+000	0.0000000E+000	-9.44823	0.0000000E+000	0.0000000E+000	0.0000000E+000	9.44823	6.00912	80.5518	-7.63838e-05	-3.85115e-07	-1.00181e-10	-3.85014e-07	0.272017	192233	50.0063	192183
0.0315922	40.7429	8.47365	41.6147	-11.7488	221.786	0.272087	-0.00159187	594524	24650	1	12	0.00460743	0.000110716	0	-0.000301269	0.000128043	3.86585e-06	28.0459	0.0349167	0.0308165	-0.0164171	-11.7181	41.6416	40.7737	8.45723	0.0235265	0.00489302	0.02403	11.7488	2.465e+07	1.18522e+08	1.21058e+08	-78.2512	0.0000000E+000	0.0000000E+000	0.0000000E+000	78.2512	0.0000000E+000	0.0000000E+000	0.0000000E+000	-78.2512	0.0000000E+000	0.0000000E+000	0.0000000E+000	-11.7488	0.0000000E+000	0.0000000E+000	0.0000000E+000	11.7488	4.80818	78.2512	-5.80771e-05	-4.33127e-07	-2.03828e-10	-4.32923e-07	0.271959	170922	80.4357	170842
0.0215268	41.9932	11.037	43.4194	-14.7259	319.525	0.272079	-0.00151253	669869	43283.7	1	12	0.00461106	0.000106198	0	-0.000287511	0.000338012	2.66245e-06	-5.05616	0.0250706	0.0249731	0.00220953	-14.7203	43.4441	42.0182	11.0392	0.0222747	0.00585441	0.0230312	14.7259	4.32837e+07	1.64684e+08	1.70277e+08	-75.2741	0.0000000E+000	0.0000000E+000	0.0000000E+000	75.2741	0.0000000E+000	0.0000000E+000	0.0000000E+000	-75.2741	0.0000000E+000	0.0000000E+000	0.0000000E+000	-14.7259	0.0000000E+000	0.0000000E+000	0.0000000E+000	14.7259	3.80477	75.2741	1.37587e-05	-4.11527e-07	-5.11252e-10	-4.11015e-07	0.271741	179884	223.475	179660
0.0146812	43.453	14.0447	45.6663	-17.9116	462.828	0.272082	-0.000840744	771876	73009.4	1	12	0.00461016	0.000100953	0	-0.000148039	-0.000310982	1.83556e-06	10.5084	0.0181824	0.0178774	-0.00331609	-17.9008	45.6823	43.4708	14.0414	0.0208366	0.00673472	0.021898	17.9116	7.30094e+07	2.25885e+08	2.37391e+08	-72.0884	0.0000000E+000	0.0000000E+000	0.0000000E+000	72.0884	0.0000000E+000	0.0000000E+000	0.0000000E+000	-72.0884	0.0000000E+000	0.0000000E+000	0.0000000E+000	-17.9116	0.0000000E+000	0.0000000E+000	0.0000000E+000	17.9116	3.09391	72.0884	0.000139472	-2.28752e-07	2.61456e-10	-2.29013e-07	0.272393	323621	369.889	323990
0.0100092	45.6708	17.8772	49.045	-21.3772	673.009	0.272089	-0.000100723	889451	118177	1	12	0.00460731	9.39404e-05	0	0.000105666	-0.000120101	5.0666e-06	30.3635	0.0539342	0.0465363	-0.0272629	-21.3278	49.0784	45.7173	17.85	0.0189867	0.00743208	0.0203894	21.3772	1.18177e+08	3.01905e+08	3.24211e+08	-68.6228	0.0000000E+000	0.0000000E+000	0.0000000E+000	68.6228	0.0000000E+000	0.0000000E+000	0.0000000E+000	-68.6228	0.0000000E+000	0.0000000E+000	0.0000000E+000	-21.3772	0.0000000E+000	0.0000000E+000	0.0000000E+000	21.3772	2.55469	68.6228	0.000253704	-2.74055e-08	1.20969e-11	-2.74176e-08	0.272209	2.70137e+06	1192.4	2.70256e+06