File: txt/19497_R316_UA715_SOC00_C07.mpt
EC-Lab ASCII FILE
Nb header lines : 65

Potentio Electrochemical Impedance Spectroscopy

Run on channel : 7 (SN 66126)
User :
CE vs. WE compliance from -10 V to 10 V
Electrode connection : standard
Potential control : Ewe
Ewe ctrl range : min = -10.00 V, max = 10.00 V
Safety Limits :
	Do not start on E overload
Acquisition started on : 12/04/2025 13:10:40.560
Technique started on : 12/04/2025 13:10:42.471
Loaded Setting File :  NONE
Saved on :
	File : 19497_R316_UA715_SOC00_C07.mpr
	Directory : C:\Users\Celltest\OneDrive - store-dot.com\Documents\EC-Lab\Data\Charmaine\
	Host : 169.254.61.224
Device : VMP-3e (SN .003165)
Address : USB
EC-LAB for windows v11.62 (software)
Internet server v27.00 (firmware)
Command interpretor v12.03 (firmware)
Electrode material :
Initial state :
Electrolyte :
Comments :
Electrode surface area : 0.001 cm²
Characteristic mass : 0.001 g
Equivalent Weight : 0.000 g/eq.
Density : 0.000 g/cm3
Volume (V) : 0.001 cm³
Record Ece
Cycle Definition : Charge/Discharge alternance
Mode                Single sine
E (V)               0.0000
vs.                 Eoc
tE (h:m:s)          0:00:0.0000
record              0
dI                  0.000
unit dI             mA
dt (s)              0.000
fi                  100.000
unit fi             kHz
ff                  10.000
unit ff             mHz
Nd                  6
Points              per decade
spacing             Logarithmic
Va (mV)             5.0
pw                  0.10
Na                  2
corr                0
E range min (V)     -10.000
E range max (V)     10.000
I Range             Auto
Bandwidth           5
nc cycles           0
goto Ns'            0
nr cycles           0
inc. cycle          0

freq/Hz	Re(Z)/Ohm	-Im(Z)/Ohm	|Z|/Ohm	Phase(Z)/deg	time/s	<Ewe>/V	<I>/mA	Cs/µF	Cp/µF	cycle number	I Range	|Ewe|/V	|I|/A	Ns	(Q-Qo)/mA.h	<Ece>/V	|Ece|/V	Phase(Zce)/deg	|Zce|/Ohm	Re(Zce)/Ohm	-Im(Zce)/Ohm	Phase(Zwe-ce)/deg	|Zwe-ce|/Ohm	Re(Zwe-ce)/Ohm	-Im(Zwe-ce)/Ohm	Re(Y)/Ohm-1	Im(Y)/Ohm-1	|Y|/Ohm-1	Phase(Y)/deg	Re(C)/nF	Im(C)/nF	|C|/nF	Phase(C)/deg	Re(M)	Im(M)	|M|	Phase(M)/deg	Re(Permittivity)	Im(Permittivity)	|Permittivity|	Phase(Permittivity)/deg	Re(Resistivity)/Ohm.cm	Im(Resistivity)/Ohm.cm	|Resistivity|/Ohm.cm	Phase(Resistivity)/deg	Re(Conductivity)/mS/cm	Im(Conductivity)/mS/cm	|Conductivity|/mS/cm	Phase(Conductivity)/deg	Tan(Delta)	Loss Angle(Delta)/deg	dq/mA.h	Pwe/W	Pce/W	Pwe-ce/W	<Ewe-Ece>/V	Rwe/Ohm	Rce/Ohm	Rwe-ce/Ohm		Ewe-Ece/V
100004	1.07312	0.445374	1.16187	-22.5397	1.91055	0.269409	0.0653567	3.57338	0.525061	1	9	0.00470877	0.00405274	0	5.07896e-06	-1.80035e-05	3.8681e-05	91.8055	0.00954442	-0.00030071	-0.00953968	-22.1094	1.15797	1.07282	0.435834	0.794934	0.329918	0.860678	22.5397	525.061	1265.13	1369.76	-67.4603	0.0000000E+000	0.0000000E+000	0.0000000E+000	67.4603	0.0000000E+000	0.0000000E+000	0.0000000E+000	-67.4603	0.0000000E+000	0.0000000E+000	0.0000000E+000	-22.5397	0.0000000E+000	0.0000000E+000	0.0000000E+000	22.5397	2.40949	67.4603	5.07896e-06	1.76077e-05	-1.17665e-09	1.76089e-05	0.269427	4122.14	0.275466	4122.42
68132	1.18994	0.506186	1.29313	-23.0443	2.41752	0.269429	0.063048	4.61486	0.707122	1	9	0.00503691	0.00389513	0	8.71445e-06	2.01473e-05	3.09325e-05	84.5504	0.00794133	0.000754195	-0.00790543	-22.7082	1.29075	1.1907	0.49828	0.711609	0.302709	0.773317	23.0443	707.122	1662.3	1806.45	-66.9557	0.0000000E+000	0.0000000E+000	0.0000000E+000	66.9557	0.0000000E+000	0.0000000E+000	0.0000000E+000	-66.9557	0.0000000E+000	0.0000000E+000	0.0000000E+000	-23.0443	0.0000000E+000	0.0000000E+000	0.0000000E+000	23.0443	2.3508	66.9557	3.63549e-06	1.69869e-05	1.27025e-09	1.69857e-05	0.269409	4273.39	0.319555	4273.07
46420.4	1.32423	0.560556	1.43799	-22.9432	2.92456	0.269437	0.0717985	6.11636	0.929435	1	9	0.00507858	0.00353172	0	1.48879e-05	-0.000132456	1.83241e-05	67.0172	0.00518844	0.00202585	-0.0047766	-22.7365	1.438	1.32626	0.555779	0.640402	0.271086	0.695415	22.9432	929.435	2195.66	2384.27	-67.0568	0.0000000E+000	0.0000000E+000	0.0000000E+000	67.0568	0.0000000E+000	0.0000000E+000	0.0000000E+000	-67.0568	0.0000000E+000	0.0000000E+000	0.0000000E+000	-22.9432	0.0000000E+000	0.0000000E+000	0.0000000E+000	22.9432	2.36236	67.0568	6.17341e-06	1.93451e-05	-9.51014e-09	1.93546e-05	0.269569	3752.68	1.84483	3754.52
31621.1	1.4613	0.629583	1.59116	-23.3082	3.43352	0.269433	0.0637183	7.99446	1.25161	1	9	0.00513724	0.00322862	0	2.4222e-05	-1.80035e-05	2.22884e-05	5.39695	0.00690339	0.00687279	-0.000649301	-23.1892	1.59722	1.46818	0.628934	0.577183	0.248672	0.628473	23.3082	1251.61	2905.07	3163.22	-66.6918	0.0000000E+000	0.0000000E+000	0.0000000E+000	66.6918	0.0000000E+000	0.0000000E+000	0.0000000E+000	-66.6918	0.0000000E+000	0.0000000E+000	0.0000000E+000	-23.3082	0.0000000E+000	0.0000000E+000	0.0000000E+000	23.3082	2.32106	66.6918	9.33417e-06	1.71678e-05	-1.14715e-09	1.7169e-05	0.269452	4228.51	0.282549	4228.8
21544.7	1.61574	0.701601	1.76149	-23.4719	3.81656	0.26943	0.064314	10.5291	1.67035	1	9	0.00525702	0.00298441	0	3.22808e-05	-0.000113381	7.28052e-06	69.6336	0.00243952	0.000849007	-0.00228702	-23.3926	1.76136	1.61659	0.699314	0.520726	0.226114	0.5677	23.4719	1670.35	3846.71	4193.71	-66.5281	0.0000000E+000	0.0000000E+000	0.0000000E+000	66.5281	0.0000000E+000	0.0000000E+000	0.0000000E+000	-66.5281	0.0000000E+000	0.0000000E+000	0.0000000E+000	-23.4719	0.0000000E+000	0.0000000E+000	0.0000000E+000	23.4719	2.30294	66.5281	8.05878e-06	1.73281e-05	-7.29197e-09	1.73354e-05	0.269543	4189.29	1.76292	4191.05
14678.6	1.77052	0.78196	1.93551	-23.8289	4.19956	0.269444	0.0633831	13.866	2.26323	1	9	0.0050016	0.00258412	0	3.49761e-05	-7.52298e-05	1.98547e-05	-149.965	0.00768335	-0.00665166	0.00384568	-24.013	1.93099	1.76387	0.785805	0.472617	0.208734	0.516659	23.8289	2263.23	5124.42	5601.96	-66.1711	0.0000000E+000	0.0000000E+000	0.0000000E+000	66.1711	0.0000000E+000	0.0000000E+000	0.0000000E+000	-66.1711	0.0000000E+000	0.0000000E+000	0.0000000E+000	-23.8289	0.0000000E+000	0.0000000E+000	0.0000000E+000	23.8289	2.26421	66.1711	2.69528e-06	1.70782e-05	-4.7683e-09	1.7083e-05	0.269519	4251.04	1.18691	4252.22
10002.2	1.95354	0.871138	2.13897	-24.0334	4.58251	0.269443	0.0638299	18.2657	3.02971	1	9	0.00485719	0.00227081	0	4.1196e-05	-0.000246909	1.03773e-05	-148.555	0.00456989	-0.00389876	0.00238402	-24.1344	2.13638	1.94964	0.873522	0.426985	0.190405	0.467514	24.0334	3029.71	6794.16	7439.07	-65.9666	0.0000000E+000	0.0000000E+000	0.0000000E+000	65.9666	0.0000000E+000	0.0000000E+000	0.0000000E+000	-65.9666	0.0000000E+000	0.0000000E+000	0.0000000E+000	-24.0334	0.0000000E+000	0.0000000E+000	0.0000000E+000	24.0334	2.24251	65.9666	6.21994e-06	1.71985e-05	-1.57602e-08	1.72143e-05	0.26969	4221.27	3.86823	4225.14
6810.42	2.15295	0.965863	2.35968	-24.1621	4.84152	0.269431	0.0567551	24.1953	4.05375	1	9	0.00458505	0.00194308	0	4.48065e-05	-0.000132456	3.36762e-05	12.8634	0.0173313	0.0168964	-0.00385844	-23.9102	2.37354	2.16984	0.962004	0.386659	0.173465	0.423787	24.1621	4053.75	9035.97	9903.62	-65.8379	0.0000000E+000	0.0000000E+000	0.0000000E+000	65.8379	0.0000000E+000	0.0000000E+000	0.0000000E+000	-65.8379	0.0000000E+000	0.0000000E+000	0.0000000E+000	-24.1621	0.0000000E+000	0.0000000E+000	0.0000000E+000	24.1621	2.22904	65.8379	3.61051e-06	1.52916e-05	-7.51755e-09	1.52991e-05	0.269564	4747.26	2.33382	4749.59
4646	2.35555	1.09547	2.59782	-24.9413	5.23464	0.269405	0.0417862	31.2708	5.56062	1	9	0.00494337	0.00190289	0	5.08803e-05	-0.000208758	8.07819e-06	-52.1136	0.00424522	0.00260698	0.00335045	-24.984	2.6016	2.35816	1.09882	0.349038	0.162324	0.384938	24.9413	5560.62	11956.8	13186.5	-65.0587	0.0000000E+000	0.0000000E+000	0.0000000E+000	65.0587	0.0000000E+000	0.0000000E+000	0.0000000E+000	-65.0587	0.0000000E+000	0.0000000E+000	0.0000000E+000	-24.9413	0.0000000E+000	0.0000000E+000	0.0000000E+000	24.9413	2.15026	65.0587	6.07372e-06	1.12574e-05	-8.72319e-09	1.12661e-05	0.269614	6447.24	4.99586	6452.24
3163.08	2.59097	1.24947	2.8765	-25.7452	5.60768	0.26922	-0.0104933	40.2703	7.59809	1	9	0.00485813	0.0016889	0	4.98678e-05	5.82982e-05	4.71117e-06	11.4018	0.00278949	0.00273444	-0.000551449	-25.7117	2.87873	2.5937	1.24891	0.313135	0.151006	0.347644	25.7452	7598.09	15755.9	17492.2	-64.2548	0.0000000E+000	0.0000000E+000	0.0000000E+000	64.2548	0.0000000E+000	0.0000000E+000	0.0000000E+000	-64.2548	0.0000000E+000	0.0000000E+000	0.0000000E+000	-25.7452	0.0000000E+000	0.0000000E+000	0.0000000E+000	25.7452	2.07366	64.2548	-1.01244e-06	-2.82501e-06	-6.11739e-10	-2.8244e-06	0.269162	25656.4	5.55576	25650.9
2155.69	2.83988	1.44884	3.18811	-27.0295	6.05879	0.269351	0.0789105	50.9582	10.5241	1	9	0.00480438	0.00150697	0	6.0378e-05	1.07189e-06	6.38548e-06	164.392	0.00423731	-0.00408105	-0.0011401	-27.0446	3.18396	2.8358	1.4477	0.279404	0.142545	0.313665	27.0295	10524.1	20628.5	23157.9	-62.9705	0.0000000E+000	0.0000000E+000	0.0000000E+000	62.9705	0.0000000E+000	0.0000000E+000	0.0000000E+000	-62.9705	0.0000000E+000	0.0000000E+000	0.0000000E+000	-27.0295	0.0000000E+000	0.0000000E+000	0.0000000E+000	27.0295	1.96011	62.9705	1.05101e-05	2.12546e-05	8.45836e-11	2.12545e-05	0.26935	3413.37	0.0135837	3413.36
1468.59	3.10719	1.69954	3.54162	-28.6774	6.75612	0.269352	-0.0168484	63.7657	14.6841	1	10	0.0049235	0.00139018	0	6.4787e-05	-0.000132456	1.02443e-05	20.215	0.00736902	0.00691511	-0.00254632	-28.5877	3.54647	3.1141	1.697	0.247722	0.135497	0.282357	28.6774	14684.1	26846.2	30599.7	-61.3226	0.0000000E+000	0.0000000E+000	0.0000000E+000	61.3226	0.0000000E+000	0.0000000E+000	0.0000000E+000	-61.3226	0.0000000E+000	0.0000000E+000	0.0000000E+000	-28.6774	0.0000000E+000	0.0000000E+000	0.0000000E+000	28.6774	1.82825	61.3226	4.40902e-06	-4.53817e-06	2.23168e-09	-4.5404e-06	0.269485	15986.8	7.86162	15994.6
1000.32	3.38533	2.06327	3.96454	-31.3612	7.20678	0.269366	-0.0161039	77.1124	20.8859	1	10	0.00486415	0.00122692	0	6.31154e-05	0.000153675	7.82966e-06	-17.546	0.00638158	0.00608468	0.00192386	-31.3393	3.97073	3.39141	2.0652	0.215385	0.131272	0.252236	31.3612	20885.9	34268.7	40131.8	-58.6387	0.0000000E+000	0.0000000E+000	0.0000000E+000	58.6387	0.0000000E+000	0.0000000E+000	0.0000000E+000	-58.6387	0.0000000E+000	0.0000000E+000	0.0000000E+000	-31.3612	0.0000000E+000	0.0000000E+000	0.0000000E+000	31.3612	1.64076	58.6387	-1.6716e-06	-4.33785e-06	-2.47477e-09	-4.33537e-06	0.269213	16726.8	9.54274	16717.2
681.09	3.70633	2.57525	4.51318	-34.7925	7.65756	0.269347	-0.0174292	90.7394	29.544	1	10	0.00482302	0.00106865	0	6.03069e-05	-0.000151531	7.45622e-06	7.52097	0.00697723	0.0069172	-0.000913242	-34.733	4.51835	3.71325	2.57434	0.181961	0.126431	0.221573	34.7925	29544	42520.1	51776.5	-55.2075	0.0000000E+000	0.0000000E+000	0.0000000E+000	55.2075	0.0000000E+000	0.0000000E+000	0.0000000E+000	-55.2075	0.0000000E+000	0.0000000E+000	0.0000000E+000	-34.7925	0.0000000E+000	0.0000000E+000	0.0000000E+000	34.7925	1.43921	55.2075	-2.80849e-06	-4.69449e-06	2.64107e-09	-4.69714e-06	0.269498	15453.8	8.69412	15462.5
463.961	4.10184	3.28913	5.25771	-38.725	8.10929	0.269351	-0.0166363	104.293	40.8157	1	10	0.00478534	0.000910157	0	5.87695e-05	1.07189e-06	5.36549e-06	-154.325	0.00589513	-0.00531308	0.00255415	-38.783	5.25517	4.09653	3.29169	0.148384	0.118984	0.190197	38.725	40815.7	50900.8	65244.3	-51.275	0.0000000E+000	0.0000000E+000	0.0000000E+000	51.275	0.0000000E+000	0.0000000E+000	0.0000000E+000	-51.275	0.0000000E+000	0.0000000E+000	0.0000000E+000	-38.725	0.0000000E+000	0.0000000E+000	0.0000000E+000	38.725	1.24709	51.275	-1.53739e-06	-4.48099e-06	-1.78323e-11	-4.48097e-06	0.26935	16190.6	0.0644312	16190.5
316.316	4.66863	4.27967	6.33337	-42.5111	8.55707	0.269346	-0.0181589	117.568	53.6832	1	10	0.00477183	0.000753442	0	5.61063e-05	-0.000285059	9.19057e-06	-70.5219	0.0121981	0.00406742	0.0115	-42.5628	6.34415	4.67269	4.29117	0.116391	0.106694	0.157894	42.5111	53683.2	58562.3	79444.5	-47.4889	0.0000000E+000	0.0000000E+000	0.0000000E+000	47.4889	0.0000000E+000	0.0000000E+000	0.0000000E+000	-47.4889	0.0000000E+000	0.0000000E+000	0.0000000E+000	-42.5111	0.0000000E+000	0.0000000E+000	0.0000000E+000	42.5111	1.09089	47.489	-2.66323e-06	-4.89103e-06	5.17636e-09	-4.8962e-06	0.269632	14832.8	15.6981	14848.5
215.345	5.50641	5.61798	7.86653	-45.5746	9.00756	0.269353	-0.0174925	131.555	67.0965	1	10	0.00475554	0.000604529	0	5.36145e-05	9.6449e-05	6.84986e-06	-22.5008	0.0113309	0.0104683	0.00433629	-45.5423	7.87695	5.51688	5.62231	0.0889821	0.090785	0.127121	45.5746	67096.6	65764.1	93951.4	-44.4254	0.0000000E+000	0.0000000E+000	0.0000000E+000	44.4254	0.0000000E+000	0.0000000E+000	0.0000000E+000	-44.4254	0.0000000E+000	0.0000000E+000	0.0000000E+000	-45.5746	0.0000000E+000	0.0000000E+000	0.0000000E+000	45.5746	0.980141	44.4254	-2.49179e-06	-4.71166e-06	-1.68713e-09	-4.70998e-06	0.269257	15398.2	5.51373	15392.7
146.737	6.81309	7.26374	9.95892	-46.8336	9.45352	0.269352	-0.0177829	149.32	79.4356	1	10	0.00474685	0.000476643	0	5.21005e-05	-0.000380437	5.77776e-06	-24.2873	0.0121218	0.0110489	0.00498584	-46.8069	9.97012	6.82414	7.26873	0.0686941	0.0732379	0.100412	46.8336	79435.6	74507.3	108910	-43.1664	0.0000000E+000	0.0000000E+000	0.0000000E+000	43.1664	0.0000000E+000	0.0000000E+000	0.0000000E+000	-43.1664	0.0000000E+000	0.0000000E+000	0.0000000E+000	-46.8336	0.0000000E+000	0.0000000E+000	0.0000000E+000	46.8336	0.937958	43.1664	-1.51399e-06	-4.78984e-06	6.76526e-09	-4.79661e-06	0.269732	15146.7	21.3934	15168.1
100.032	8.76937	9.14169	12.6678	-46.1908	9.9048	0.269346	-0.0172952	174.042	90.6374	1	10	0.00473172	0.000373524	0	4.98505e-05	-0.000113381	8.09515e-06	-42.5377	0.0216723	0.0159689	0.0146521	-46.1846	12.6894	8.78534	9.15634	0.0546473	0.0569674	0.0789405	46.1908	90637.4	86946	125598	-43.8092	0.0000000E+000	0.0000000E+000	0.0000000E+000	43.8092	0.0000000E+000	0.0000000E+000	0.0000000E+000	-43.8092	0.0000000E+000	0.0000000E+000	0.0000000E+000	-46.1908	0.0000000E+000	0.0000000E+000	0.0000000E+000	46.1908	0.959273	43.8092	-2.24996e-06	-4.65839e-06	1.96094e-09	-4.66035e-06	0.269459	15573.4	6.55561	15580
68.104	11.626	11.0033	16.0074	-43.4235	10.3675	0.269352	-0.0149238	212.386	100.352	1	10	0.00473453	0.000295772	0	4.79366e-05	-0.000285059	8.28592e-06	-85.5538	0.0280146	0.00217176	0.0279303	-43.4907	16.0282	11.6282	11.0312	0.0453723	0.0429418	0.0624712	43.4235	100352	106032	145991	-46.5765	0.0000000E+000	0.0000000E+000	0.0000000E+000	46.5765	0.0000000E+000	0.0000000E+000	0.0000000E+000	-46.5765	0.0000000E+000	0.0000000E+000	0.0000000E+000	-43.4235	0.0000000E+000	0.0000000E+000	0.0000000E+000	43.4235	1.0566	46.5764	-1.91389e-06	-4.01976e-06	4.25417e-09	-4.02402e-06	0.269637	18048.5	19.101	18067.6
46.4415	15.414	12.3082	19.7252	-38.6077	11.0437	0.269393	-0.00619779	278.431	108.409	1	11	0.00473997	0.0002403	0	4.64279e-05	9.6449e-05	7.92209e-06	-160.061	0.0329674	-0.0309912	0.0112427	-38.6895	19.708	15.383	12.3195	0.0396161	0.0316339	0.0506965	38.6077	108409	135764	173737	-51.3923	0.0000000E+000	0.0000000E+000	0.0000000E+000	51.3923	0.0000000E+000	0.0000000E+000	0.0000000E+000	-51.3923	0.0000000E+000	0.0000000E+000	0.0000000E+000	-38.6077	0.0000000E+000	0.0000000E+000	0.0000000E+000	38.6077	1.25233	51.3923	-1.50873e-06	-1.66964e-06	-5.97771e-10	-1.66904e-06	0.269297	43466	15.5618	43450.4
31.6296	19.6694	12.648	23.385	-32.7421	11.4736	0.269387	-0.00634129	397.838	116.379	1	11	0.00473796	0.000202607	0	4.55702e-05	-0.000285059	1.19572e-05	92.2401	0.0590169	-0.00230683	-0.0589718	-32.6235	23.3512	19.6671	12.589	0.0359681	0.0231285	0.0427625	32.7421	116379	180986	215174	-57.2579	0.0000000E+000	0.0000000E+000	0.0000000E+000	57.2579	0.0000000E+000	0.0000000E+000	0.0000000E+000	-57.2579	0.0000000E+000	0.0000000E+000	0.0000000E+000	-32.7421	0.0000000E+000	0.0000000E+000	0.0000000E+000	32.7421	1.55514	57.2579	-8.57679e-07	-1.70826e-06	1.80765e-09	-1.71007e-06	0.269672	42481.4	44.9529	42526.3
21.5517	23.7271	11.8789	26.5346	-26.5947	11.8945	0.269387	-0.00636142	621.672	124.592	1	11	0.0047357	0.000178473	0	4.47126e-05	0.000153675	5.34468e-06	53.7077	0.0299468	0.0177257	-0.0241374	-26.531	26.5397	23.7449	11.8548	0.0336992	0.0168714	0.0376866	26.5947	124592	248862	278308	-63.4053	0.0000000E+000	0.0000000E+000	0.0000000E+000	63.4053	0.0000000E+000	0.0000000E+000	0.0000000E+000	-63.4053	0.0000000E+000	0.0000000E+000	0.0000000E+000	-26.5947	0.0000000E+000	0.0000000E+000	0.0000000E+000	26.5947	1.99742	63.4053	-8.57579e-07	-1.71369e-06	-9.77593e-10	-1.71271e-06	0.269234	42347	24.1574	42322.9
14.6852	27.0656	10.3777	28.9869	-20.9782	12.3552	0.269387	-0.00583437	1044.34	133.856	1	11	0.00473834	0.000163465	0	4.31908e-05	-5.61544e-05	7.02914e-06	-5.49472	0.0430009	0.0428033	0.00411751	-20.9556	29.0284	27.1084	10.3818	0.0322116	0.0123509	0.0344983	20.9782	133856	349104	373886	-69.0218	0.0000000E+000	0.0000000E+000	0.0000000E+000	69.0218	0.0000000E+000	0.0000000E+000	0.0000000E+000	-69.0218	0.0000000E+000	0.0000000E+000	0.0000000E+000	-20.9782	0.0000000E+000	0.0000000E+000	0.0000000E+000	20.9782	2.60805	69.0218	-1.52183e-06	-1.57171e-06	3.27626e-10	-1.57203e-06	0.269443	46172.4	9.62475	46182.1
10.0032	29.2305	8.50857	30.4437	-16.2295	12.8058	0.269394	-0.00603751	1869.93	146.064	1	11	0.00468171	0.000153782	0	4.29316e-05	-0.000285059	4.359e-05	158.131	0.283453	-0.263054	-0.105584	-16.1766	30.1617	28.9675	8.40298	0.0315385	0.00918038	0.0328475	16.2295	146064	501790	522617	-73.7705	0.0000000E+000	0.0000000E+000	0.0000000E+000	73.7705	0.0000000E+000	0.0000000E+000	0.0000000E+000	-73.7705	0.0000000E+000	0.0000000E+000	0.0000000E+000	-16.2295	0.0000000E+000	0.0000000E+000	0.0000000E+000	16.2295	3.43543	73.7705	-2.59239e-07	-1.62647e-06	1.72105e-09	-1.62819e-06	0.269679	44619.9	47.2147	44667.2
6.81719	31.2633	6.98873	32.0349	-12.601	13.1455	0.269403	-0.00492639	3340.54	158.989	1	11	0.00473517	0.000147813	0	4.13878e-05	-5.61544e-05	4.43883e-06	-61.6937	0.0300301	0.0142398	0.0264393	-12.6415	32.0546	31.2775	7.01517	0.030464	0.00681006	0.0312159	12.601	158988	711217	728771	-77.399	0.0000000E+000	0.0000000E+000	0.0000000E+000	77.399	0.0000000E+000	0.0000000E+000	0.0000000E+000	-77.399	0.0000000E+000	0.0000000E+000	0.0000000E+000	-12.601	0.0000000E+000	0.0000000E+000	0.0000000E+000	12.601	4.47339	77.399	-1.54374e-06	-1.32718e-06	2.76638e-10	-1.32746e-06	0.269459	54685.6	11.3987	54697
4.63925	32.5436	5.61056	33.0237	-9.78169	13.6294	0.269391	-0.00539343	6114.58	176.492	1	11	0.00473611	0.000143415	0	4.19875e-05	-3.7079e-05	8.2079e-06	-90.7626	0.0572318	-0.000761773	0.0572267	-9.87974	33.0328	32.5429	5.66778	0.029841	0.00514462	0.0302812	9.78169	176492	1.02373e+06	1.03883e+06	-80.2183	0.0000000E+000	0.0000000E+000	0.0000000E+000	80.2183	0.0000000E+000	0.0000000E+000	0.0000000E+000	-80.2183	0.0000000E+000	0.0000000E+000	0.0000000E+000	-9.78169	0.0000000E+000	0.0000000E+000	0.0000000E+000	9.78169	5.80043	80.2183	5.99637e-07	-1.45294e-06	1.99983e-10	-1.45314e-06	0.269428	49947.9	6.87484	49954.8
3.1604	33.3871	4.59612	33.7019	-7.83817	14.3225	0.269392	-0.00462037	10956.9	203.779	1	11	0.00472808	0.000140291	0	4.2501e-05	3.92227e-05	6.76196e-06	20.7799	0.0481996	0.0450642	-0.0171002	-7.79897	33.7443	33.4321	4.57902	0.0293947	0.00404652	0.0296719	7.83817	203779	1.48029e+06	1.49425e+06	-82.1618	0.0000000E+000	0.0000000E+000	0.0000000E+000	82.1618	0.0000000E+000	0.0000000E+000	0.0000000E+000	-82.1618	0.0000000E+000	0.0000000E+000	0.0000000E+000	-7.83817	0.0000000E+000	0.0000000E+000	0.0000000E+000	7.83817	7.26419	82.1618	5.13537e-07	-1.24469e-06	-1.81224e-10	-1.24451e-06	0.269352	58305.2	8.48909	58296.7
2.15577	34.1226	3.92479	34.3476	-6.56134	15.3261	0.26939	-0.00402054	18810.6	245.608	1	11	0.0047309	0.000137736	0	4.05209e-05	5.82982e-05	7.76463e-06	-30.5565	0.0563732	0.0485446	0.0286594	-6.59952	34.3991	34.1711	3.95345	0.0289234	0.00332678	0.0291141	6.56134	245608	2.13535e+06	2.14942e+06	-83.4387	0.0000000E+000	0.0000000E+000	0.0000000E+000	83.4387	0.0000000E+000	0.0000000E+000	0.0000000E+000	-83.4387	0.0000000E+000	0.0000000E+000	0.0000000E+000	-6.56134	0.0000000E+000	0.0000000E+000	0.0000000E+000	6.56134	8.69412	83.4387	-1.98013e-06	-1.08309e-06	-2.3439e-10	-1.08286e-06	0.269332	67003.4	14.5001	66988.9
1.46631	34.7659	3.33889	34.9258	-5.48582	17.5143	0.269389	-0.00429448	32508.2	297.1	1	12	0.00473387	0.000135541	0	3.45798e-05	-7.52298e-05	3.97635e-06	-24.8433	0.029337	0.0266221	0.0123256	-5.50176	34.9535	34.7925	3.35121	0.028501	0.00273721	0.0286321	5.48582	297100	3.09353e+06	3.10776e+06	-84.5142	0.0000000E+000	0.0000000E+000	0.0000000E+000	84.5142	0.0000000E+000	0.0000000E+000	0.0000000E+000	-84.5142	0.0000000E+000	0.0000000E+000	0.0000000E+000	-5.48582	0.0000000E+000	0.0000000E+000	0.0000000E+000	5.48582	10.4124	84.5142	-5.94105e-06	-1.15688e-06	3.23073e-10	-1.15721e-06	0.269464	62729.1	17.5178	62746.6
1.00006	35.3591	2.98345	35.4847	-4.82295	19.6419	0.269397	-0.00420228	53342.5	377.076	1	12	0.00473533	0.000133447	0	2.9897e-05	-5.61544e-05	2.70147e-06	69.8993	0.0202438	0.00695721	-0.0190107	-4.79143	35.4901	35.366	2.96444	0.0280814	0.00236939	0.0281811	4.82295	377076	4.469e+06	4.48488e+06	-85.177	0.0000000E+000	0.0000000E+000	0.0000000E+000	85.177	0.0000000E+000	0.0000000E+000	0.0000000E+000	-85.177	0.0000000E+000	0.0000000E+000	0.0000000E+000	-4.82295	0.0000000E+000	0.0000000E+000	0.0000000E+000	4.82295	11.8517	85.177	-4.68283e-06	-1.13208e-06	2.35977e-10	-1.13232e-06	0.269453	64107.3	13.3628	64120.7
0.681362	35.8481	2.78616	35.9562	-4.44417	22.7541	0.269399	-0.00429806	83836.9	503.385	1	12	0.00473665	0.000131734	0	2.72143e-05	-0.000189682	3.83109e-06	68.9975	0.0290821	0.0104233	-0.02715	-4.39976	35.9645	35.8586	2.75901	0.027728	0.00215505	0.0278116	4.44417	503385	6.47679e+06	6.49632e+06	-85.5558	0.0000000E+000	0.0000000E+000	0.0000000E+000	85.5558	0.0000000E+000	0.0000000E+000	0.0000000E+000	-85.5558	0.0000000E+000	0.0000000E+000	0.0000000E+000	-4.44417	0.0000000E+000	0.0000000E+000	0.0000000E+000	4.44417	12.8665	85.5558	-2.68269e-06	-1.15789e-06	8.15266e-10	-1.15871e-06	0.269588	62679.1	44.1321	62723.3
0.464091	36.2679	2.75407	36.3723	-4.34253	27.3107	0.269399	-0.0040897	124521	713.923	1	12	0.00473493	0.00013018	0	2.87251e-05	-9.43052e-05	1.96956e-06	5.72717	0.0151296	0.015054	-0.0015098	-4.33837	36.3872	36.2829	2.75256	0.0274145	0.00208178	0.0274934	4.34253	713923	9.40152e+06	9.42859e+06	-85.6575	0.0000000E+000	0.0000000E+000	0.0000000E+000	85.6575	0.0000000E+000	0.0000000E+000	0.0000000E+000	-85.6575	0.0000000E+000	0.0000000E+000	0.0000000E+000	-4.34253	0.0000000E+000	0.0000000E+000	0.0000000E+000	4.34253	13.1688	85.6575	1.51076e-06	-1.10176e-06	3.8568e-10	-1.10215e-06	0.269493	65872.5	23.0592	65895.6
0.316193	36.6976	2.80588	36.8048	-4.3723	33.9841	0.2694	-0.00355921	179390	1042.63	1	12	0.0047376	0.000128723	0	3.37029e-05	0.000115524	2.43439e-06	47.9388	0.0189119	0.0126696	-0.0140408	-4.34901	36.8163	36.7103	2.79184	0.0270913	0.00207139	0.0271704	4.3723	1.04263e+06	1.36363e+07	1.36761e+07	-85.6277	0.0000000E+000	0.0000000E+000	0.0000000E+000	85.6277	0.0000000E+000	0.0000000E+000	0.0000000E+000	-85.6277	0.0000000E+000	0.0000000E+000	0.0000000E+000	-4.3723	0.0000000E+000	0.0000000E+000	0.0000000E+000	4.3723	13.0788	85.6277	4.97783e-06	-9.58851e-07	-4.11175e-10	-9.5844e-07	0.269285	75691.1	32.4579	75658.6
0.215268	37.1979	3.03807	37.3218	-4.66917	43.7775	0.269404	-0.00258624	243357	1612.56	1	12	0.00473741	0.000126934	0	3.74781e-05	-0.000132456	1.78998e-06	39.7852	0.0141016	0.0108364	-0.00902378	-4.65401	37.3318	37.2087	3.02905	0.0267051	0.00218109	0.026794	4.66917	1.61256e+06	1.9744e+07	1.98097e+07	-85.3308	0.0000000E+000	0.0000000E+000	0.0000000E+000	85.3308	0.0000000E+000	0.0000000E+000	0.0000000E+000	-85.3308	0.0000000E+000	0.0000000E+000	0.0000000E+000	-4.66917	0.0000000E+000	0.0000000E+000	0.0000000E+000	4.66917	12.2439	85.3308	3.7752e-06	-6.96743e-07	3.42564e-10	-6.97086e-07	0.269536	104168	51.2156	104219
0.146929	37.7599	3.52512	37.924	-5.33347	58.116	0.269409	-0.00145675	307283	2654.96	1	12	0.00473586	0.000124878	0	3.23918e-05	-0.00032321	2.24733e-06	-28.6123	0.0179963	0.0157986	0.00861807	-5.34421	37.9406	37.7757	3.53374	0.0262543	0.00245101	0.0263685	5.33347	2.65496e+06	2.8439e+07	2.85627e+07	-84.6665	0.0000000E+000	0.0000000E+000	0.0000000E+000	84.6665	0.0000000E+000	0.0000000E+000	0.0000000E+000	-84.6665	0.0000000E+000	0.0000000E+000	0.0000000E+000	-5.33347	0.0000000E+000	0.0000000E+000	0.0000000E+000	5.33347	10.7116	84.6665	-5.08628e-06	-3.92461e-07	4.70836e-10	-3.92932e-07	0.269732	184938	221.871	185160
0.0999041	38.3344	4.24651	38.5689	-6.3212	79.1931	0.269411	-0.00054551	375150	4547.74	1	12	0.00473402	0.000122742	0	8.28013e-06	0.000153675	2.53292e-06	-30.5338	0.0206361	0.0177745	0.0104841	-6.33377	38.5877	38.3521	4.257	0.02577	0.00285469	0.0259277	6.3212	4.54774e+06	4.10536e+07	4.13048e+07	-83.6788	0.0000000E+000	0.0000000E+000	0.0000000E+000	83.6788	0.0000000E+000	0.0000000E+000	0.0000000E+000	-83.6788	0.0000000E+000	0.0000000E+000	0.0000000E+000	-6.3212	0.0000000E+000	0.0000000E+000	0.0000000E+000	6.3212	9.02726	83.6788	-2.41117e-05	-1.46966e-07	-8.38313e-11	-1.46883e-07	0.269258	493871	281.709	493589
0.0680626	39.0199	5.19212	39.3638	-7.57945	110.121	0.269406	-0.000127009	450367	7835.41	1	12	0.00473385	0.000120259	0	-3.7973e-05	-9.43052e-05	2.02966e-06	9.73273	0.0168775	0.0166345	-0.00285318	-7.57214	39.3799	39.0365	5.18927	0.0251821	0.00335081	0.025404	7.57945	7.83541e+06	5.88848e+07	5.94038e+07	-82.4206	0.0000000E+000	0.0000000E+000	0.0000000E+000	82.4206	0.0000000E+000	0.0000000E+000	0.0000000E+000	-82.4206	0.0000000E+000	0.0000000E+000	0.0000000E+000	-7.57945	0.0000000E+000	0.0000000E+000	0.0000000E+000	7.57945	7.51521	82.4206	-4.62532e-05	-3.4217e-08	1.19776e-11	-3.4229e-08	0.2695	2.12115e+06	742.507	2.12189e+06
0.0464052	39.925	6.36895	40.4298	-9.06361	155.472	0.269414	-0.000357547	538500	13363.4	1	12	0.00473475	0.00011711	0	-0.000109782	-0.000399512	1.50018e-06	2.72597	0.01281	0.0127955	-0.000609231	-9.05991	40.4424	39.9378	6.36834	0.0244254	0.00389641	0.0247342	9.06361	1.33634e+07	8.37713e+07	8.48305e+07	-80.9364	0.0000000E+000	0.0000000E+000	0.0000000E+000	80.9364	0.0000000E+000	0.0000000E+000	0.0000000E+000	-80.9364	0.0000000E+000	0.0000000E+000	0.0000000E+000	-9.06361	0.0000000E+000	0.0000000E+000	0.0000000E+000	9.06361	6.2687	80.9364	-7.18086e-05	-9.63283e-08	1.42844e-10	-9.64712e-08	0.269814	753508	1117.37	754625
0.0315922	41.1644	8.16614	41.9666	-11.2206	222.077	0.269412	-0.000958348	616912	23358.8	1	12	0.0047364	0.000112861	0	-0.000180948	-5.61544e-05	8.48716e-07	61.2947	0.00752	0.00361189	-0.00659581	-11.2108	41.9688	41.168	8.15954	0.023373	0.00463671	0.0238285	11.2206	2.33588e+07	1.17748e+08	1.20043e+08	-78.7794	0.0000000E+000	0.0000000E+000	0.0000000E+000	78.7794	0.0000000E+000	0.0000000E+000	0.0000000E+000	-78.7794	0.0000000E+000	0.0000000E+000	0.0000000E+000	-11.2206	0.0000000E+000	0.0000000E+000	0.0000000E+000	11.2206	5.04087	78.7794	-7.11663e-05	-2.5819e-07	5.38154e-11	-2.58244e-07	0.269468	281121	58.595	281179
0.0215268	42.5046	10.7276	43.8374	-14.1649	319.816	0.269413	-0.00114522	689189	41271.8	1	12	0.00473634	0.000108043	0	-0.000193717	-0.00032321	3.1502e-06	-11.2206	0.0291568	0.0285995	0.00567353	-14.1629	43.8666	42.5332	10.7333	0.022118	0.00558229	0.0228115	14.1649	4.12718e+07	1.63526e+08	1.68654e+08	-75.8351	0.0000000E+000	0.0000000E+000	0.0000000E+000	75.8351	0.0000000E+000	0.0000000E+000	0.0000000E+000	-75.8351	0.0000000E+000	0.0000000E+000	0.0000000E+000	-14.1649	0.0000000E+000	0.0000000E+000	0.0000000E+000	14.1649	3.96217	75.8351	-1.27693e-05	-3.08536e-07	3.70146e-10	-3.08906e-07	0.269736	235250	282.226	235533
0.0146812	43.9482	13.8148	46.0684	-17.4502	463.119	0.269417	-0.000849971	784718	70566.5	1	12	0.00473577	0.000102799	0	-8.08501e-05	-9.43052e-05	2.39353e-06	8.9921	0.0232836	0.0229975	-0.00363919	-17.4373	46.0893	43.9712	13.8112	0.0207079	0.00650938	0.0217069	17.4502	7.05665e+07	2.24489e+08	2.35319e+08	-72.5498	0.0000000E+000	0.0000000E+000	0.0000000E+000	72.5498	0.0000000E+000	0.0000000E+000	0.0000000E+000	-72.5498	0.0000000E+000	0.0000000E+000	0.0000000E+000	-17.4502	0.0000000E+000	0.0000000E+000	0.0000000E+000	17.4502	3.18124	72.5498	0.000112867	-2.28997e-07	8.01567e-11	-2.29077e-07	0.269511	316972	110.951	317083
0.0100092	45.974	17.5203	49.1992	-20.8614	673.302	0.269421	-0.000238754	907572	115092	1	12	0.00473653	9.62725e-05	0	0.000179969	-9.43052e-05	4.66651e-06	35.0731	0.0484719	0.0396704	-0.027853	-20.8147	49.2264	46.0136	17.4924	0.0189931	0.00723809	0.0203255	20.8614	1.15092e+08	3.02007e+08	3.23194e+08	-69.1386	0.0000000E+000	0.0000000E+000	0.0000000E+000	69.1386	0.0000000E+000	0.0000000E+000	0.0000000E+000	-69.1386	0.0000000E+000	0.0000000E+000	0.0000000E+000	-20.8614	0.0000000E+000	0.0000000E+000	0.0000000E+000	20.8614	2.62404	69.1386	0.000260819	-6.43254e-08	2.25157e-11	-6.43479e-08	0.269516	1.12845e+06	394.989	1.12884e+06