File: txt/19493_R316_UA628_SOC00_C03.mpt
EC-Lab ASCII FILE
Nb header lines : 65

Potentio Electrochemical Impedance Spectroscopy

Run on channel : 3 (SN 65921)
User :
CE vs. WE compliance from -10 V to 10 V
Electrode connection : standard
Potential control : Ewe
Ewe ctrl range : min = -10.00 V, max = 10.00 V
Safety Limits :
	Do not start on E overload
Acquisition started on : 12/04/2025 13:09:42.578
Technique started on : 12/04/2025 13:09:44.172
Loaded Setting File :  C:\Users\Celltest\OneDrive - store-dot.com\Documents\EC-Lab\Data\@Biologic Test Protocols\anode half cell EIS SOC00.mps
Saved on :
	File : 19493_R316_UA628_SOC00_C03.mpr
	Directory : C:\Users\Celltest\OneDrive - store-dot.com\Documents\EC-Lab\Data\Charmaine\
	Host : 169.254.61.224
Device : VMP-3e (SN .003165)
Address : USB
EC-LAB for windows v11.62 (software)
Internet server v27.00 (firmware)
Command interpretor v12.03 (firmware)
Electrode material :
Initial state :
Electrolyte :
Comments :
Electrode surface area : 0.001 cm²
Characteristic mass : 0.001 g
Equivalent Weight : 0.000 g/eq.
Density : 0.000 g/cm3
Volume (V) : 0.001 cm³
Record Ece
Cycle Definition : Charge/Discharge alternance
Mode                Single sine
E (V)               0.0000
vs.                 Eoc
tE (h:m:s)          0:00:0.0000
record              0
dI                  0.000
unit dI             mA
dt (s)              0.000
fi                  100.000
unit fi             kHz
ff                  10.000
unit ff             mHz
Nd                  6
Points              per decade
spacing             Logarithmic
Va (mV)             5.0
pw                  0.10
Na                  2
corr                0
E range min (V)     -10.000
E range max (V)     10.000
I Range             Auto
Bandwidth           5
nc cycles           0
goto Ns'            0
nr cycles           0
inc. cycle          0

freq/Hz	Re(Z)/Ohm	-Im(Z)/Ohm	|Z|/Ohm	Phase(Z)/deg	time/s	<Ewe>/V	<I>/mA	Cs/µF	Cp/µF	cycle number	I Range	|Ewe|/V	|I|/A	Ns	(Q-Qo)/mA.h	<Ece>/V	|Ece|/V	Phase(Zce)/deg	|Zce|/Ohm	Re(Zce)/Ohm	-Im(Zce)/Ohm	Phase(Zwe-ce)/deg	|Zwe-ce|/Ohm	Re(Zwe-ce)/Ohm	-Im(Zwe-ce)/Ohm	Re(Y)/Ohm-1	Im(Y)/Ohm-1	|Y|/Ohm-1	Phase(Y)/deg	Re(C)/nF	Im(C)/nF	|C|/nF	Phase(C)/deg	Re(M)	Im(M)	|M|	Phase(M)/deg	Re(Permittivity)	Im(Permittivity)	|Permittivity|	Phase(Permittivity)/deg	Re(Resistivity)/Ohm.cm	Im(Resistivity)/Ohm.cm	|Resistivity|/Ohm.cm	Phase(Resistivity)/deg	Re(Conductivity)/mS/cm	Im(Conductivity)/mS/cm	|Conductivity|/mS/cm	Phase(Conductivity)/deg	Tan(Delta)	Loss Angle(Delta)/deg	dq/mA.h	Pwe/W	Pce/W	Pwe-ce/W	<Ewe-Ece>/V	Rwe/Ohm	Rce/Ohm	Rwe-ce/Ohm		Ewe-Ece/V
100004	1.1541	0.363735	1.21006	-17.4932	1.59355	0.218901	0.0407182	4.37542	0.395344	1	9	0.00490773	0.00405577	0	-2.63863e-07	-0.000131353	3.49255e-05	48.6931	0.0086113	0.00568425	-0.00646867	-17.1212	1.21356	1.15978	0.357266	0.788187	0.248411	0.826406	17.4932	395.344	1254.39	1315.22	-72.5068	0.0000000E+000	0.0000000E+000	0.0000000E+000	72.5068	0.0000000E+000	0.0000000E+000	0.0000000E+000	-72.5068	0.0000000E+000	0.0000000E+000	0.0000000E+000	-17.4932	0.0000000E+000	0.0000000E+000	0.0000000E+000	17.4932	3.17291	72.5068	-2.63863e-07	8.91325e-06	-5.34846e-09	8.9186e-06	0.219032	5376	3.2259	5379.22
68132	1.2526	0.479937	1.3414	-20.9644	2.10053	0.218885	0.034975	4.86726	0.62307	1	9	0.00515244	0.00384109	0	6.11253e-08	-3.58827e-05	1.9437e-05	41.8518	0.00506027	0.00376926	-0.00337624	-20.7725	1.34372	1.25637	0.476561	0.696141	0.266728	0.74549	20.9644	623.07	1626.17	1741.45	-69.0356	0.0000000E+000	0.0000000E+000	0.0000000E+000	69.0356	0.0000000E+000	0.0000000E+000	0.0000000E+000	-69.0356	0.0000000E+000	0.0000000E+000	0.0000000E+000	-20.9644	0.0000000E+000	0.0000000E+000	0.0000000E+000	20.9644	2.60993	69.0356	3.24988e-07	7.65548e-06	-1.25499e-09	7.65673e-06	0.21892	6258.32	1.02595	6259.35
46420.4	1.37216	0.565463	1.4841	-22.3964	2.60953	0.218874	0.0409047	6.06328	0.880211	1	9	0.00510117	0.0034372	0	1.23176e-06	2.30547e-06	1.55589e-05	21.6826	0.0045266	0.00420632	-0.00167242	-22.2751	1.48736	1.37636	0.563791	0.622981	0.256729	0.673807	22.3964	880.211	2135.93	2310.19	-67.6036	0.0000000E+000	0.0000000E+000	0.0000000E+000	67.6036	0.0000000E+000	0.0000000E+000	0.0000000E+000	-67.6036	0.0000000E+000	0.0000000E+000	0.0000000E+000	-22.3964	0.0000000E+000	0.0000000E+000	0.0000000E+000	22.3964	2.42661	67.6036	1.17063e-06	8.95296e-06	9.43045e-11	8.95286e-06	0.218872	5350.83	0.0563621	5350.77
31621.1	1.51274	0.663967	1.65204	-23.6975	3.11653	0.218879	0.0363921	7.58047	1.22447	1	9	0.00506477	0.00306578	0	-1.47338e-06	0.000135964	1.23563e-05	33.3599	0.00403039	0.00336631	-0.0022163	-23.5804	1.65423	1.5161	0.66175	0.554274	0.24328	0.605314	23.6975	1224.47	2789.76	3046.65	-66.3025	0.0000000E+000	0.0000000E+000	0.0000000E+000	66.3025	0.0000000E+000	0.0000000E+000	0.0000000E+000	-66.3025	0.0000000E+000	0.0000000E+000	0.0000000E+000	-23.6975	0.0000000E+000	0.0000000E+000	0.0000000E+000	23.6975	2.27833	66.3025	-2.70514e-06	7.96547e-06	4.94802e-09	7.96052e-06	0.218743	6014.45	3.73608	6010.71
21544.7	1.67539	0.756514	1.83827	-24.3013	3.62351	0.218876	0.041203	9.7648	1.65378	1	9	0.00507499	0.00276074	0	-3.15156e-06	5.95877e-05	1.15904e-05	35.6274	0.00419828	0.00341245	-0.00244554	-24.1882	1.84038	1.6788	0.754068	0.495789	0.223871	0.54399	24.3013	1653.78	3662.49	4018.56	-65.6987	0.0000000E+000	0.0000000E+000	0.0000000E+000	65.6987	0.0000000E+000	0.0000000E+000	0.0000000E+000	-65.6987	0.0000000E+000	0.0000000E+000	0.0000000E+000	-24.3013	0.0000000E+000	0.0000000E+000	0.0000000E+000	24.3013	2.21462	65.6987	-1.67818e-06	9.01834e-06	2.45519e-09	9.01588e-06	0.218816	5312.13	1.4462	5310.68
14678.6	1.85587	0.862461	2.04648	-24.9253	4.13057	0.218881	0.0429931	12.5718	2.23286	1	9	0.0050856	0.00248505	0	5.06679e-06	-0.000131353	1.18835e-05	50.2661	0.004782	0.00305676	-0.00367747	-24.796	2.04771	1.85892	0.858783	0.443131	0.205933	0.488644	24.9253	2232.86	4804.72	5298.2	-65.0747	0.0000000E+000	0.0000000E+000	0.0000000E+000	65.0747	0.0000000E+000	0.0000000E+000	0.0000000E+000	-65.0747	0.0000000E+000	0.0000000E+000	0.0000000E+000	-24.9253	0.0000000E+000	0.0000000E+000	0.0000000E+000	24.9253	2.15183	65.0747	8.21835e-06	9.41037e-06	-5.64727e-09	9.41602e-06	0.219012	5091.07	3.05521	5094.13
10002.2	2.06302	0.974713	2.28169	-25.2893	4.51557	0.218867	0.0415759	16.3248	2.97911	1	9	0.00549599	0.00240874	0	5.29142e-06	-9.31649e-05	7.63469e-06	-24.764	0.00316958	0.00287811	0.00132768	-25.2886	2.28486	2.0659	0.97604	0.396269	0.187225	0.438272	25.2893	2979.11	6305.41	6973.76	-64.7107	0.0000000E+000	0.0000000E+000	0.0000000E+000	64.7107	0.0000000E+000	0.0000000E+000	0.0000000E+000	-64.7107	0.0000000E+000	0.0000000E+000	0.0000000E+000	-25.2893	0.0000000E+000	0.0000000E+000	0.0000000E+000	25.2893	2.11654	64.7107	2.24636e-07	9.09959e-06	-3.87342e-09	9.10347e-06	0.21896	5264.27	2.24084	5266.51
6810.42	2.28087	1.13005	2.54546	-26.356	4.90055	0.21888	0.042732	20.6799	4.07579	1	9	0.00545819	0.00214429	0	1.48032e-05	2.30547e-06	0.000102575	71.4057	0.0478366	0.0152534	-0.0453395	-25.2865	2.53944	2.29612	1.08471	0.35202	0.174407	0.392856	26.356	4075.79	8226.47	9180.79	-63.644	0.0000000E+000	0.0000000E+000	0.0000000E+000	63.644	0.0000000E+000	0.0000000E+000	0.0000000E+000	-63.644	0.0000000E+000	0.0000000E+000	0.0000000E+000	-26.356	0.0000000E+000	0.0000000E+000	0.0000000E+000	26.356	2.01838	63.644	9.51178e-06	9.3532e-06	9.85174e-11	9.35311e-06	0.218878	5122.17	0.0539518	5122.11
4646	2.55117	1.24054	2.8368	-25.9319	5.29263	0.218878	0.0432168	27.6141	5.28073	1	9	0.00531586	0.0018739	0	2.05761e-05	-0.000150447	8.3668e-06	-26.8912	0.00446492	0.00398212	0.00201947	-25.9334	2.84126	2.55515	1.24256	0.317018	0.154154	0.35251	25.9319	5280.74	10859.9	12075.7	-64.0681	0.0000000E+000	0.0000000E+000	0.0000000E+000	64.0681	0.0000000E+000	0.0000000E+000	0.0000000E+000	-64.0681	0.0000000E+000	0.0000000E+000	0.0000000E+000	-25.9319	0.0000000E+000	0.0000000E+000	0.0000000E+000	25.9319	2.05651	64.0681	5.77292e-06	9.4592e-06	-6.50184e-09	9.4657e-06	0.219028	5064.64	3.48122	5068.12
3163.08	2.84451	1.41926	3.17892	-26.5168	5.84265	0.218855	0.0275908	35.4525	7.06664	1	9	0.00521308	0.00163989	0	2.31905e-05	-0.000150447	3.79819e-06	-3.82815	0.00231613	0.00231096	0.000154634	-26.5007	3.18106	2.84682	1.41942	0.28148	0.140444	0.314572	26.5168	7066.64	14163.1	15828.1	-63.4832	0.0000000E+000	0.0000000E+000	0.0000000E+000	63.4832	0.0000000E+000	0.0000000E+000	0.0000000E+000	-63.4832	0.0000000E+000	0.0000000E+000	0.0000000E+000	-26.5168	0.0000000E+000	0.0000000E+000	0.0000000E+000	26.5168	2.00422	63.4832	2.61441e-06	6.03837e-06	-4.15096e-09	6.04252e-06	0.219005	7932.15	5.4528	7937.61
2155.69	3.16021	1.59451	3.53969	-26.7736	6.50783	0.218875	0.0369515	46.3027	9.39576	1	9	0.00507282	0.00143313	0	2.91803e-05	9.77758e-05	4.65932e-06	-24.6475	0.00325116	0.00295495	0.00135584	-26.7717	3.54294	3.16316	1.59587	0.252224	0.127262	0.282511	26.7736	9395.76	18621.7	20857.8	-63.2264	0.0000000E+000	0.0000000E+000	0.0000000E+000	63.2264	0.0000000E+000	0.0000000E+000	0.0000000E+000	-63.2264	0.0000000E+000	0.0000000E+000	0.0000000E+000	-26.7736	0.0000000E+000	0.0000000E+000	0.0000000E+000	26.7736	1.98193	63.2264	5.98976e-06	8.08774e-06	3.61296e-09	8.08412e-06	0.218777	5923.3	2.64606	5920.65
1468.59	3.47811	1.83357	3.93183	-27.797	7.20503	0.218882	-0.00761871	59.1047	12.8537	1	10	0.00512583	0.00130368	0	3.13647e-05	-0.000207729	1.17604e-05	-9.75005	0.00902094	0.00889064	0.0015277	-27.7564	3.9404	3.487	1.8351	0.224986	0.118607	0.254335	27.797	12853.7	24382.3	27562.9	-62.203	0.0000000E+000	0.0000000E+000	0.0000000E+000	62.203	0.0000000E+000	0.0000000E+000	0.0000000E+000	-62.203	0.0000000E+000	0.0000000E+000	0.0000000E+000	-27.797	0.0000000E+000	0.0000000E+000	0.0000000E+000	27.797	1.89691	62.203	2.18437e-06	-1.6676e-06	1.58263e-09	-1.66918e-06	0.219089	28729.5	27.2657	28756.7
1000.32	3.84631	2.13068	4.39703	-28.9844	7.65578	0.21888	-0.00697736	74.6729	17.534	1	10	0.00502618	0.00114309	0	2.9537e-05	-9.31649e-05	7.85933e-06	-28.2401	0.00687554	0.00605716	0.00325329	-28.9833	4.40391	3.85237	2.13393	0.198941	0.110204	0.227426	28.9844	17534	31652.4	36184.4	-61.0156	0.0000000E+000	0.0000000E+000	0.0000000E+000	61.0156	0.0000000E+000	0.0000000E+000	0.0000000E+000	-61.0156	0.0000000E+000	0.0000000E+000	0.0000000E+000	-28.9844	0.0000000E+000	0.0000000E+000	0.0000000E+000	28.9844	1.8052	61.0156	-1.82767e-06	-1.5272e-06	6.50044e-10	-1.52785e-06	0.218973	31370	13.3525	31383.4
681.09	4.27601	2.5301	4.96847	-30.6127	8.10658	0.218874	-0.00779771	92.3586	23.9502	1	10	0.00490684	0.000987595	0	2.89024e-05	0.000174152	1.27455e-05	68.4557	0.0129056	0.0047392	-0.0120039	-30.4657	4.96645	4.28075	2.5181	0.173218	0.102493	0.201269	30.6127	23950.2	40477.1	47032	-59.3873	0.0000000E+000	0.0000000E+000	0.0000000E+000	59.3873	0.0000000E+000	0.0000000E+000	0.0000000E+000	-59.3873	0.0000000E+000	0.0000000E+000	0.0000000E+000	-30.6127	0.0000000E+000	0.0000000E+000	0.0000000E+000	30.6127	1.69005	59.3873	-6.34543e-07	-1.70672e-06	-1.35799e-09	-1.70536e-06	0.2187	28069.1	22.3337	28046.7
463.961	4.77316	3.05595	5.66762	-32.6289	8.55831	0.218882	-0.00669396	112.252	32.6351	1	10	0.00479845	0.000846644	0	2.79219e-05	0.000250528	1.31385e-05	-87.8867	0.0155184	0.000572264	0.0155078	-32.7576	5.67647	4.77373	3.07146	0.148595	0.0951362	0.176441	32.6289	32635.1	50973.4	60525.5	-57.3711	0.0000000E+000	0.0000000E+000	0.0000000E+000	57.3711	0.0000000E+000	0.0000000E+000	0.0000000E+000	-57.3711	0.0000000E+000	0.0000000E+000	0.0000000E+000	-32.6289	0.0000000E+000	0.0000000E+000	0.0000000E+000	32.6289	1.56192	57.3711	-9.80586e-07	-1.46519e-06	-1.67703e-09	-1.46351e-06	0.218631	32698.4	37.426	32661
316.316	5.42282	3.73067	6.58216	-34.5263	9.00608	0.218876	-0.00677228	134.869	43.326	1	10	0.00473959	0.000720065	0	2.7149e-05	7.86817e-05	5.28048e-06	85.2434	0.00733333	0.000608096	-0.00730808	-34.4708	6.57853	5.42343	3.72336	0.125166	0.0861091	0.151926	34.5263	43326	62977.8	76441.7	-55.4737	0.0000000E+000	0.0000000E+000	0.0000000E+000	55.4737	0.0000000E+000	0.0000000E+000	0.0000000E+000	-55.4737	0.0000000E+000	0.0000000E+000	0.0000000E+000	-34.5263	0.0000000E+000	0.0000000E+000	0.0000000E+000	34.5263	1.45358	55.4737	-7.72827e-07	-1.48229e-06	-5.32855e-10	-1.48176e-06	0.218797	32319.3	11.6182	32307.7
215.345	6.24533	4.59732	7.75496	-36.3576	9.45657	0.218874	-0.00650007	160.761	56.4978	1	10	0.00468694	0.000604379	0	2.56835e-05	-7.40708e-05	7.10293e-06	-27.3965	0.0117524	0.0104343	0.00540783	-36.3441	7.76657	6.25576	4.60273	0.103847	0.0764443	0.12895	36.3576	56497.8	76750.6	95303	-53.6424	0.0000000E+000	0.0000000E+000	0.0000000E+000	53.6424	0.0000000E+000	0.0000000E+000	0.0000000E+000	-53.6424	0.0000000E+000	0.0000000E+000	0.0000000E+000	-36.3576	0.0000000E+000	0.0000000E+000	0.0000000E+000	36.3576	1.35847	53.6424	-1.46558e-06	-1.42269e-06	4.81465e-10	-1.42318e-06	0.218948	33672.5	11.3954	33683.9
146.737	7.38638	5.6208	9.28181	-37.27	9.90249	0.218871	-0.00584752	192.966	70.764	1	10	0.00465204	0.0005012	0	2.44521e-05	4.04936e-05	6.37212e-06	-8.89432	0.0127137	0.0125609	0.0019657	-37.2327	9.293	7.39894	5.62277	0.0857366	0.0652428	0.107738	37.27	70764	92992	116855	-52.73	0.0000000E+000	0.0000000E+000	0.0000000E+000	52.73	0.0000000E+000	0.0000000E+000	0.0000000E+000	-52.73	0.0000000E+000	0.0000000E+000	0.0000000E+000	-37.27	0.0000000E+000	0.0000000E+000	0.0000000E+000	37.27	1.31411	52.73	-1.23137e-06	-1.27985e-06	-2.36787e-10	-1.27962e-06	0.218831	37429.7	6.92491	37422.8
100.032	8.98594	6.75444	11.2414	-36.931	10.3539	0.218888	-0.00601533	235.555	85.041	1	10	0.00463504	0.000412318	0	2.4064e-05	0.00011687	6.7929e-06	-156.306	0.0164749	-0.0150862	0.00662041	-37.0043	11.2333	8.97085	6.76106	0.0711084	0.0534499	0.0889567	36.931	85041	113136	141534	-53.069	0.0000000E+000	0.0000000E+000	0.0000000E+000	53.069	0.0000000E+000	0.0000000E+000	0.0000000E+000	-53.069	0.0000000E+000	0.0000000E+000	0.0000000E+000	-36.931	0.0000000E+000	0.0000000E+000	0.0000000E+000	36.931	1.33037	53.069	-3.88085e-07	-1.31668e-06	-7.0301e-10	-1.31598e-06	0.218771	36388.4	19.4287	36369
68.104	11.1182	7.71016	13.53	-34.7401	10.8164	0.218884	-0.00574685	303.099	98.4269	1	10	0.00462107	0.000341542	0	2.355e-05	0.000135964	6.60414e-06	9.09517	0.0193363	0.0190931	-0.00305658	-34.6835	13.544	11.1373	7.7071	0.0607349	0.0421178	0.0739097	34.7401	98426.9	141934	172723	-55.2599	0.0000000E+000	0.0000000E+000	0.0000000E+000	55.2599	0.0000000E+000	0.0000000E+000	0.0000000E+000	-55.2599	0.0000000E+000	0.0000000E+000	0.0000000E+000	-34.7401	0.0000000E+000	0.0000000E+000	0.0000000E+000	34.7401	1.44202	55.2599	-5.14049e-07	-1.25789e-06	-7.81364e-10	-1.25711e-06	0.218748	38087.6	23.6589	38064
46.4415	13.7917	8.27033	16.0814	-30.9494	11.2526	0.218882	-0.00749196	414.372	109.595	1	10	0.00461614	0.000287049	0	2.27393e-05	9.77758e-05	7.71179e-06	47.8009	0.0268657	0.018046	-0.0199026	-30.8555	16.0866	13.8098	8.25043	0.0533302	0.0319799	0.0621838	30.9494	109595	182762	213104	-59.0506	0.0000000E+000	0.0000000E+000	0.0000000E+000	59.0506	0.0000000E+000	0.0000000E+000	0.0000000E+000	-59.0506	0.0000000E+000	0.0000000E+000	0.0000000E+000	-30.9494	0.0000000E+000	0.0000000E+000	0.0000000E+000	30.9494	1.66761	59.0506	-8.10682e-07	-1.63985e-06	-7.32533e-10	-1.63912e-06	0.218784	29215.5	13.0508	29202.5
31.6296	16.4852	8.09247	18.3644	-26.146	11.9166	0.21888	-0.0102314	621.793	120.741	1	11	0.00460772	0.000250905	0	2.09799e-05	-0.000169541	1.29181e-05	-14.7734	0.0514859	0.0497839	0.0131287	-26.1145	18.4149	16.535	8.1056	0.0488812	0.0239954	0.0544532	26.146	120741	245962	274000	-63.854	0.0000000E+000	0.0000000E+000	0.0000000E+000	63.854	0.0000000E+000	0.0000000E+000	0.0000000E+000	-63.854	0.0000000E+000	0.0000000E+000	0.0000000E+000	-26.146	0.0000000E+000	0.0000000E+000	0.0000000E+000	26.146	2.03711	63.854	-1.75938e-06	-2.23945e-06	1.73464e-09	-2.24118e-06	0.21905	21393.1	16.5707	21409.6
21.5517	18.9654	7.23376	20.2981	-20.8778	12.3384	0.218878	-0.0102411	1020.88	129.656	1	11	0.00461024	0.000227127	0	1.96915e-05	7.86817e-05	1.4791e-05	90.2533	0.065122	-0.000287875	-0.0651214	-20.7061	20.2747	18.9651	7.16864	0.046031	0.0175571	0.0492657	20.8778	129656	339929	363817	-69.1222	0.0000000E+000	0.0000000E+000	0.0000000E+000	69.1222	0.0000000E+000	0.0000000E+000	0.0000000E+000	-69.1222	0.0000000E+000	0.0000000E+000	0.0000000E+000	-20.8778	0.0000000E+000	0.0000000E+000	0.0000000E+000	20.8778	2.62179	69.1222	-1.28842e-06	-2.24155e-06	-8.05785e-10	-2.24074e-06	0.2188	21372.6	7.68296	21364.9
14.6852	20.8714	6.06196	21.734	-16.1956	12.7991	0.218878	-0.0095911	1787.84	139.084	1	11	0.00461409	0.000212299	0	1.7727e-05	0.000155058	1.33267e-05	68.595	0.0627733	0.0229096	-0.0584434	-16.0308	21.7397	20.8944	6.00352	0.044185	0.0128332	0.046011	16.1956	139084	478869	498658	-73.8044	0.0000000E+000	0.0000000E+000	0.0000000E+000	73.8044	0.0000000E+000	0.0000000E+000	0.0000000E+000	-73.8044	0.0000000E+000	0.0000000E+000	0.0000000E+000	-16.1956	0.0000000E+000	0.0000000E+000	0.0000000E+000	16.1956	3.44302	73.8044	-1.9645e-06	-2.09928e-06	-1.48718e-09	-2.09779e-06	0.218723	22820.9	16.1669	22804.7
10.0032	22.1793	4.83405	22.7	-12.2955	13.2498	0.218881	-0.00958737	3291.32	149.259	1	11	0.00461345	0.000203236	0	1.62316e-05	-9.31649e-05	4.80474e-06	27.6451	0.0236412	0.0209423	-0.0109694	-12.2572	22.7181	22.2002	4.82308	0.0430425	0.00938124	0.0440529	12.2955	149259	684823	700900	-77.7045	0.0000000E+000	0.0000000E+000	0.0000000E+000	77.7045	0.0000000E+000	0.0000000E+000	0.0000000E+000	-77.7045	0.0000000E+000	0.0000000E+000	0.0000000E+000	-12.2955	0.0000000E+000	0.0000000E+000	0.0000000E+000	12.2955	4.58814	77.7045	-1.49535e-06	-2.09849e-06	8.93206e-10	-2.09938e-06	0.218974	22830.1	9.71746	22839.8
6.81719	23.0439	3.7437	23.3461	-9.2276	13.5895	0.218892	-0.00989054	6236.11	160.357	1	11	0.00461018	0.000197472	0	1.47233e-05	4.04936e-05	5.00091e-06	-7.48118	0.0253247	0.0251091	0.00329729	-9.22571	23.3714	23.069	3.74699	0.0422795	0.00686869	0.0428338	9.2276	160357	987062	1e+06	-80.7724	0.0000000E+000	0.0000000E+000	0.0000000E+000	80.7724	0.0000000E+000	0.0000000E+000	0.0000000E+000	-80.7724	0.0000000E+000	0.0000000E+000	0.0000000E+000	-9.2276	0.0000000E+000	0.0000000E+000	0.0000000E+000	9.2276	6.1554	80.7724	-1.50829e-06	-2.16496e-06	-4.00504e-10	-2.16456e-06	0.218851	22131.4	4.09417	22127.3
4.63925	23.6073	2.91547	23.7866	-7.04032	14.0734	0.218889	-0.00933752	11766.9	176.773	1	11	0.00460993	0.000193803	0	1.56955e-05	-1.67886e-05	9.33189e-06	-12.0226	0.0481513	0.0470952	0.0100298	-7.05037	23.8346	23.6544	2.9255	0.0417234	0.0051528	0.0420404	7.04032	176773	1.43137e+06	1.44225e+06	-82.9597	0.0000000E+000	0.0000000E+000	0.0000000E+000	82.9597	0.0000000E+000	0.0000000E+000	0.0000000E+000	-82.9597	0.0000000E+000	0.0000000E+000	0.0000000E+000	-7.04032	0.0000000E+000	0.0000000E+000	0.0000000E+000	7.04032	8.09724	82.9597	9.72217e-07	-2.04388e-06	1.56764e-10	-2.04404e-06	0.218906	23441.9	1.79797	23443.7
3.1604	24.0166	2.31926	24.1284	-5.51589	14.7665	0.218876	-0.00887625	21713.4	200.619	1	11	0.00461152	0.000191125	0	1.44692e-05	2.13995e-05	7.27267e-06	-8.24043	0.038052	0.0376591	0.00545389	-5.52018	24.1664	24.0543	2.32472	0.0412531	0.00398377	0.041445	5.51589	200619	2.07747e+06	2.08714e+06	-84.4841	0.0000000E+000	0.0000000E+000	0.0000000E+000	84.4841	0.0000000E+000	0.0000000E+000	0.0000000E+000	-84.4841	0.0000000E+000	0.0000000E+000	0.0000000E+000	-5.51589	0.0000000E+000	0.0000000E+000	0.0000000E+000	5.51589	10.3553	84.4841	-1.22634e-06	-1.9428e-06	-1.89948e-10	-1.94261e-06	0.218855	24658.6	2.41088	24656.2
2.15577	24.3022	1.89035	24.3756	-4.44781	15.77	0.218891	-0.00813072	39055	234.882	1	11	0.00461025	0.000189134	0	9.41021e-06	0.000135964	7.60728e-06	-18.3329	0.0402216	0.0381802	0.0126512	-4.47046	24.4146	24.3403	1.903	0.0409011	0.0031815	0.0410247	4.44781	234882	3.01963e+06	3.02875e+06	-85.5522	0.0000000E+000	0.0000000E+000	0.0000000E+000	85.5522	0.0000000E+000	0.0000000E+000	0.0000000E+000	-85.5522	0.0000000E+000	0.0000000E+000	0.0000000E+000	-4.44781	0.0000000E+000	0.0000000E+000	0.0000000E+000	4.44781	12.8559	85.5522	-5.05899e-06	-1.77974e-06	-1.10548e-09	-1.77864e-06	0.218755	26921.5	16.7222	26904.8
1.46631	24.5749	1.60973	24.6275	-3.74769	17.2316	0.218881	-0.00792553	67428.3	288.074	1	11	0.00461348	0.00018733	0	2.03701e-06	0.000250528	3.70728e-06	-29.2286	0.0197901	0.0172704	0.00966342	-3.76748	24.6454	24.5922	1.61939	0.0405181	0.00265405	0.0406049	3.74769	288074	4.39788e+06	4.4073e+06	-86.2523	0.0000000E+000	0.0000000E+000	0.0000000E+000	86.2523	0.0000000E+000	0.0000000E+000	0.0000000E+000	-86.2523	0.0000000E+000	0.0000000E+000	0.0000000E+000	-3.74769	0.0000000E+000	0.0000000E+000	0.0000000E+000	3.74769	15.2665	86.2523	-7.37321e-06	-1.73475e-06	-1.98557e-09	-1.73276e-06	0.218631	27617.3	31.6103	27585.7
1.00006	24.792	1.45432	24.8346	-3.35718	20.407	0.21888	-0.00829213	109429	375.266	1	12	0.00461182	0.000185701	0	-6.70539e-06	-5.49767e-05	3.15719e-06	-11.2737	0.0170014	0.0166734	0.0033237	-3.36258	24.8514	24.8086	1.45765	0.0401973	0.00235802	0.0402664	3.35718	375266	6.3972e+06	6.40819e+06	-86.6428	0.0000000E+000	0.0000000E+000	0.0000000E+000	86.6428	0.0000000E+000	0.0000000E+000	0.0000000E+000	-86.6428	0.0000000E+000	0.0000000E+000	0.0000000E+000	-3.35718	0.0000000E+000	0.0000000E+000	0.0000000E+000	3.35718	17.0471	86.6428	-8.7424e-06	-1.81498e-06	4.55874e-10	-1.81544e-06	0.218935	26396.2	6.62999	26402.8
0.681362	24.9995	1.39443	25.0384	-3.19254	23.519	0.218888	-0.00816051	167512	519.547	1	12	0.00461548	0.000184336	0	-8.56275e-06	-0.000322294	1.47013e-06	-102.013	0.00797527	-0.00165999	0.0078006	-3.21058	25.0372	24.9979	1.40223	0.0398767	0.00222425	0.0399387	3.19254	519547	9.31454e+06	9.32902e+06	-86.8075	0.0000000E+000	0.0000000E+000	0.0000000E+000	86.8075	0.0000000E+000	0.0000000E+000	0.0000000E+000	-86.8075	0.0000000E+000	0.0000000E+000	0.0000000E+000	-3.19254	0.0000000E+000	0.0000000E+000	0.0000000E+000	3.19254	17.9282	86.8075	-1.85735e-06	-1.78624e-06	2.63008e-09	-1.78887e-06	0.21921	26822.8	39.4943	26862.3
0.464091	25.1695	1.41129	25.209	-3.20931	28.0756	0.218884	-0.0076769	242997	761.593	1	12	0.00461321	0.000182998	0	-6.85942e-06	2.13995e-05	3.16981e-06	5.58062	0.0173215	0.0172394	-0.00168446	-3.2033	25.2261	25.1867	1.40961	0.0396061	0.00222078	0.0396684	3.20931	761593	1.35825e+07	1.36038e+07	-86.7907	0.0000000E+000	0.0000000E+000	0.0000000E+000	86.7907	0.0000000E+000	0.0000000E+000	0.0000000E+000	-86.7907	0.0000000E+000	0.0000000E+000	0.0000000E+000	-3.20931	0.0000000E+000	0.0000000E+000	0.0000000E+000	3.20931	17.8343	86.7907	1.70333e-06	-1.68035e-06	-1.64282e-10	-1.68019e-06	0.218862	28512	2.78752	28509.2
0.316193	25.3892	1.53187	25.4354	-3.45277	34.7491	0.218885	-0.00646798	328584	1191.82	1	12	0.00461441	0.000181417	0	-5.97449e-06	2.13995e-05	1.49019e-06	-43.8209	0.00821416	0.00592658	0.00568753	-3.46476	25.4417	25.3952	1.53756	0.0392439	0.0023678	0.0393153	3.45277	1.19182e+06	1.97533e+07	1.97892e+07	-86.5472	0.0000000E+000	0.0000000E+000	0.0000000E+000	86.5472	0.0000000E+000	0.0000000E+000	0.0000000E+000	-86.5472	0.0000000E+000	0.0000000E+000	0.0000000E+000	-3.45277	0.0000000E+000	0.0000000E+000	0.0000000E+000	3.45277	16.574	86.5472	8.8493e-07	-1.41575e-06	-1.38412e-10	-1.41561e-06	0.218864	33841.4	3.30853	33838
0.215268	25.646	1.79037	25.7084	-3.99338	44.5426	0.218883	-0.00515002	412952	2002.77	1	12	0.0046119	0.000179392	0	-1.51257e-05	5.95877e-05	1.34191e-06	-57.0555	0.00748031	0.00406799	0.00627746	-4.0067	25.7129	25.6501	1.79664	0.0388033	0.00270888	0.0388977	3.99338	2.00277e+06	2.86886e+07	2.87584e+07	-86.0066	0.0000000E+000	0.0000000E+000	0.0000000E+000	86.0066	0.0000000E+000	0.0000000E+000	0.0000000E+000	-86.0066	0.0000000E+000	0.0000000E+000	0.0000000E+000	-3.99338	0.0000000E+000	0.0000000E+000	0.0000000E+000	3.99338	14.3245	86.0066	-9.15118e-06	-1.12725e-06	-3.06878e-10	-1.12695e-06	0.218824	42501.4	11.5704	42489.9
0.146929	25.9326	2.21366	26.027	-4.87905	58.8808	0.21888	-0.00397897	489330	3539.79	1	12	0.00461267	0.000177227	0	-4.66491e-05	2.13995e-05	3.46133e-06	9.26295	0.0195305	0.0192759	-0.00314374	-4.86856	26.0459	25.9519	2.21052	0.0382825	0.00326787	0.0384217	4.87905	3.53979e+06	4.1468e+07	4.16188e+07	-85.1209	0.0000000E+000	0.0000000E+000	0.0000000E+000	85.1209	0.0000000E+000	0.0000000E+000	0.0000000E+000	-85.1209	0.0000000E+000	0.0000000E+000	0.0000000E+000	-4.87905	0.0000000E+000	0.0000000E+000	0.0000000E+000	4.87905	11.7148	85.1209	-3.15234e-05	-8.70918e-07	-8.5148e-11	-8.70833e-07	0.218859	55009.4	5.37817	55004
0.0999041	26.2701	2.77487	26.4162	-6.02972	79.9569	0.218885	-0.00318109	574108	6334.88	1	12	0.00461295	0.000174626	0	-0.000110722	9.77758e-05	1.74587e-06	10.5835	0.00999776	0.00982769	-0.00183627	-6.02352	26.4258	26.2799	2.77304	0.0376461	0.00397651	0.0378555	6.02972	6.33488e+06	5.99731e+07	6.03068e+07	-83.9703	0.0000000E+000	0.0000000E+000	0.0000000E+000	83.9703	0.0000000E+000	0.0000000E+000	0.0000000E+000	-83.9703	0.0000000E+000	0.0000000E+000	0.0000000E+000	-6.02972	0.0000000E+000	0.0000000E+000	0.0000000E+000	6.02972	9.46713	83.9703	-6.40725e-05	-6.96294e-07	-3.11033e-10	-6.95983e-07	0.218788	68808.4	30.7366	68777.6
0.0680626	26.7571	3.51078	26.9865	-7.47503	110.883	0.21889	-0.0026719	666052	11272.6	1	12	0.00461579	0.000171041	0	-0.000202951	-0.000112259	2.48725e-06	-1.12172	0.0145418	0.014539	0.000284677	-7.47162	27.0009	26.7717	3.51106	0.0367407	0.00482072	0.0370556	7.47503	1.12726e+07	8.59131e+07	8.66494e+07	-82.525	0.0000000E+000	0.0000000E+000	0.0000000E+000	82.525	0.0000000E+000	0.0000000E+000	0.0000000E+000	-82.525	0.0000000E+000	0.0000000E+000	0.0000000E+000	-7.47503	0.0000000E+000	0.0000000E+000	0.0000000E+000	7.47503	7.62142	82.525	-9.22291e-05	-5.84853e-07	2.99944e-10	-5.85153e-07	0.219003	81923.2	42.0147	81965.2
0.0464052	27.4963	4.49112	27.8606	-9.27653	156.234	0.218889	-0.00308038	763658	19843.9	1	12	0.00461106	0.000165505	0	-0.000310125	2.30547e-06	1.92401e-06	-5.76393	0.0116251	0.0115663	0.00116751	-9.27507	27.8722	27.5078	4.49229	0.0354235	0.00578593	0.035893	9.27653	1.98439e+07	1.21491e+08	1.23101e+08	-80.7235	0.0000000E+000	0.0000000E+000	0.0000000E+000	80.7235	0.0000000E+000	0.0000000E+000	0.0000000E+000	-80.7235	0.0000000E+000	0.0000000E+000	0.0000000E+000	-9.27653	0.0000000E+000	0.0000000E+000	0.0000000E+000	9.27653	6.12236	80.7235	-0.000107174	-6.74259e-07	-7.10172e-12	-6.74252e-07	0.218886	71059.1	0.748438	71058.3
0.0315922	28.3856	5.94021	29.0005	-11.8196	222.84	0.218885	-0.00288553	848083	35582.1	1	12	0.00461081	0.000158991	0	-0.000370163	2.30547e-06	2.46844e-06	4.20372	0.0155257	0.0154839	-0.00113808	-11.8112	29.0154	28.4011	5.93907	0.0337511	0.00706303	0.0344822	11.8196	3.55821e+07	1.70031e+08	1.73714e+08	-78.1804	0.0000000E+000	0.0000000E+000	0.0000000E+000	78.1804	0.0000000E+000	0.0000000E+000	0.0000000E+000	-78.1804	0.0000000E+000	0.0000000E+000	0.0000000E+000	-11.8196	0.0000000E+000	0.0000000E+000	0.0000000E+000	11.8196	4.77855	78.1804	-6.00375e-05	-6.316e-07	-6.65251e-12	-6.31593e-07	0.218883	75856.1	0.798976	75855.3
0.0215268	29.3827	7.71262	30.3781	-14.7077	320.578	0.218886	-0.00221762	958604	61790.6	1	12	0.00461332	0.000151864	0	-0.000305468	5.95877e-05	2.31077e-06	3.51917	0.0152161	0.0151874	-0.000934003	-14.6987	30.3925	29.3979	7.71168	0.0318399	0.00835759	0.0329185	14.7077	6.17906e+07	2.35403e+08	2.43378e+08	-75.2923	0.0000000E+000	0.0000000E+000	0.0000000E+000	75.2923	0.0000000E+000	0.0000000E+000	0.0000000E+000	-75.2923	0.0000000E+000	0.0000000E+000	0.0000000E+000	-14.7077	0.0000000E+000	0.0000000E+000	0.0000000E+000	14.7077	3.80969	75.2923	6.46942e-05	-4.85406e-07	-1.32143e-10	-4.85274e-07	0.218827	98703.3	26.8701	98676.5
0.0146812	30.7843	9.73681	32.2875	-17.5517	463.879	0.21888	-0.00119826	1.11338e+06	101253	1	12	0.00461608	0.000142968	0	-7.60867e-05	0.000174152	3.12432e-06	-8.95478	0.0218533	0.0215869	0.00340157	-17.5459	32.3091	30.8059	9.74021	0.0295299	0.00934003	0.0309718	17.5517	1.01253e+08	3.20126e+08	3.35757e+08	-72.4483	0.0000000E+000	0.0000000E+000	0.0000000E+000	72.4483	0.0000000E+000	0.0000000E+000	0.0000000E+000	-72.4483	0.0000000E+000	0.0000000E+000	0.0000000E+000	-17.5517	0.0000000E+000	0.0000000E+000	0.0000000E+000	17.5517	3.16165	72.4483	0.000229382	-2.62275e-07	-2.08679e-10	-2.62066e-07	0.218706	182666	145.338	182521
0.0100092	32.9142	12.3184	35.1438	-20.5188	674.059	0.218882	0.000214295	1.29082e+06	158591	1	12	0.00461387	0.000131285	0	0.000258145	0.00021234	8.08005e-07	-20.1485	0.00615458	0.00577793	0.00211998	-20.5187	35.15	32.92	12.3205	0.0266493	0.0099737	0.0284545	20.5188	1.58591e+08	4.23748e+08	4.52452e+08	-69.4812	0.0000000E+000	0.0000000E+000	0.0000000E+000	69.4812	0.0000000E+000	0.0000000E+000	0.0000000E+000	-69.4812	0.0000000E+000	0.0000000E+000	0.0000000E+000	-20.5188	0.0000000E+000	0.0000000E+000	0.0000000E+000	20.5188	2.67195	69.4812	0.000334232	4.69053e-08	4.55035e-11	4.68598e-08	0.21867	1.0214e+06	990.877	1.02041e+06